date	time	currenttime	elapsedtime	build	currentexpt	subject	CS_AB	US_AB	LRpleas_acq	SameOppo	condition_Lpleas	condition_1pleas	trialcode	blockcode	blocknum	trialnum	windowcenter	inwindow	pretrialpause	posttrialpause	trialduration	trialtimeout	latency	response	correct	correctedscore	US_nomask_pleas1	US_nomask_pleas2	US_nomask_pleas3	US_nomask_pleas4	US_nomask_pleas5	US_nomask_pleas6	US_nomask_unple1	US_nomask_unple2	US_nomask_unple3	US_nomask_unple4	US_nomask_unple5	US_nomask_unple6	new_nomask_pleas1	new_nomask_pleas2	new_nomask_pleas3	new_nomask_pleas4	new_nomask_pleas5	new_nomask_pleas6	new_nomask_unple1	new_nomask_unple2	new_nomask_unple3	new_nomask_unple4	new_nomask_unple5	new_nomask_unple6	stimulusnumber1	stimulusitem1	stimulusonset1	stimulusnumber2	stimulusitem2	stimulusonset2	stimulusnumber3	stimulusitem3	stimulusonset3	stimulusnumber4	stimulusitem4	stimulusonset4	stimulusnumber5	stimulusitem5	stimulusonset5	stimulusnumber6	stimulusitem6	stimulusonset6	stimulusnumber7	stimulusitem7	stimulusonset7	stimulusnumber8	stimulusitem8	stimulusonset8	stimulusnumber9	stimulusitem9	stimulusonset9	stimulusnumber10	stimulusitem10	stimulusonset10
2024-06-12	12:27:54	12:33:20	326075	6.6.1	4_exp_EVA_AWA_CON	83	B	A	Rpleas_acq	Same	Rpleas	2pleas	acq_new_unple_nomask	acq1_nomask	1	1	0	0	300	300	0	0	1653	46	1	0	helfen	treu	loyal	ehrlich	lachen	tolerant	hindern	tot	lasch	eitel	leiden	tyrannisch	schön	freundlich	retten	spielen	fair	schlau	schlecht	fanatisch	rächen	strafen	faul	schroff	1	blank2r.bmp	0	1	+	0	1	blank2r.bmp	500	3	B3r.bmp	500	1	blank2r.bmp	880	2	fanatisch	880	0	0	0	0	0	0	0	0	0	0	0	0
2024-06-12	12:27:54	12:33:23	328716	6.6.1	4_exp_EVA_AWA_CON	83	B	A	Rpleas_acq	Same	Rpleas	2pleas	acq_US_unple_nomask	acq1_nomask	1	2	0	0	300	300	0	0	1151	46	1	0	helfen	treu	loyal	ehrlich	lachen	tolerant	hindern	tot	lasch	eitel	leiden	tyrannisch	schön	freundlich	retten	spielen	fair	schlau	schlecht	fanatisch	rächen	strafen	faul	schroff	1	blank2r.bmp	0	1	+	0	1	blank2r.bmp	500	1	BMVZ	500	1	blank2r.bmp	880	5	leiden	880	0	0	0	0	0	0	0	0	0	0	0	0
2024-06-12	12:27:54	12:33:25	331027	6.6.1	4_exp_EVA_AWA_CON	83	B	A	Rpleas_acq	Same	Rpleas	2pleas	acq_US_unple_nomask	acq1_nomask	1	3	0	0	300	300	0	0	831	46	1	0	helfen	treu	loyal	ehrlich	lachen	tolerant	hindern	tot	lasch	eitel	leiden	tyrannisch	schön	freundlich	retten	spielen	fair	schlau	schlecht	fanatisch	rächen	strafen	faul	schroff	1	blank2r.bmp	0	1	+	0	1	blank2r.bmp	500	1	BMVZ	500	1	blank2r.bmp	880	4	eitel	880	0	0	0	0	0	0	0	0	0	0	0	0
2024-06-12	12:27:54	12:33:27	333155	6.6.1	4_exp_EVA_AWA_CON	83	B	A	Rpleas_acq	Same	Rpleas	2pleas	acq_new_pleas_nomask	acq1_nomask	1	4	0	0	300	300	0	0	638	50	1	0	helfen	treu	loyal	ehrlich	lachen	tolerant	hindern	tot	lasch	eitel	leiden	tyrannisch	schön	freundlich	retten	spielen	fair	schlau	schlecht	fanatisch	rächen	strafen	faul	schroff	1	blank2r.bmp	0	1	+	0	1	blank2r.bmp	500	7	C3r.bmp	500	1	blank2r.bmp	880	1	schön	880	0	0	0	0	0	0	0	0	0	0	0	0
2024-06-12	12:27:54	12:33:30	335307	6.6.1	4_exp_EVA_AWA_CON	83	B	A	Rpleas_acq	Same	Rpleas	2pleas	acq_new_pleas_nomask	acq1_nomask	1	5	0	0	300	300	0	0	668	50	1	0	helfen	treu	loyal	ehrlich	lachen	tolerant	hindern	tot	lasch	eitel	leiden	tyrannisch	schön	freundlich	retten	spielen	fair	schlau	schlecht	fanatisch	rächen	strafen	faul	schroff	1	blank2r.bmp	0	1	+	0	1	blank2r.bmp	500	4	B4r.bmp	500	1	blank2r.bmp	880	3	retten	880	0	0	0	0	0	0	0	0	0	0	0	0
2024-06-12	12:27:54	12:33:32	337451	6.6.1	4_exp_EVA_AWA_CON	83	B	A	Rpleas_acq	Same	Rpleas	2pleas	acq_new_unple_nomask	acq1_nomask	1	6	0	0	300	300	0	0	661	46	1	0	helfen	treu	loyal	ehrlich	lachen	tolerant	hindern	tot	lasch	eitel	leiden	tyrannisch	schön	freundlich	retten	spielen	fair	schlau	schlecht	fanatisch	rächen	strafen	faul	schroff	1	blank2r.bmp	0	1	+	0	1	blank2r.bmp	500	5	C1r.bmp	500	1	blank2r.bmp	880	1	schlecht	880	0	0	0	0	0	0	0	0	0	0	0	0
2024-06-12	12:27:54	12:33:34	339587	6.6.1	4_exp_EVA_AWA_CON	83	B	A	Rpleas_acq	Same	Rpleas	2pleas	acq_US_unple_nomask	acq1_nomask	1	7	0	0	300	300	0	0	645	46	1	0	helfen	treu	loyal	ehrlich	lachen	tolerant	hindern	tot	lasch	eitel	leiden	tyrannisch	schön	freundlich	retten	spielen	fair	schlau	schlecht	fanatisch	rächen	strafen	faul	schroff	1	blank2r.bmp	0	1	+	0	1	blank2r.bmp	500	1	BMVZ	500	1	blank2r.bmp	880	1	hindern	880	0	0	0	0	0	0	0	0	0	0	0	0
2024-06-12	12:27:54	12:33:36	341691	6.6.1	4_exp_EVA_AWA_CON	83	B	A	Rpleas_acq	Same	Rpleas	2pleas	acq_new_pleas_nomask	acq1_nomask	1	8	0	0	300	300	0	0	618	50	1	0	helfen	treu	loyal	ehrlich	lachen	tolerant	hindern	tot	lasch	eitel	leiden	tyrannisch	schön	freundlich	retten	spielen	fair	schlau	schlecht	fanatisch	rächen	strafen	faul	schroff	1	blank2r.bmp	0	1	+	0	1	blank2r.bmp	500	2	B2r.bmp	500	1	blank2r.bmp	880	5	fair	880	0	0	0	0	0	0	0	0	0	0	0	0
2024-06-12	12:27:54	12:33:38	343763	6.6.1	4_exp_EVA_AWA_CON	83	B	A	Rpleas_acq	Same	Rpleas	2pleas	acq_US_pleas_nomask	acq1_nomask	1	9	0	0	300	300	0	0	589	50	1	0	helfen	treu	loyal	ehrlich	lachen	tolerant	hindern	tot	lasch	eitel	leiden	tyrannisch	schön	freundlich	retten	spielen	fair	schlau	schlecht	fanatisch	rächen	strafen	faul	schroff	1	blank2r.bmp	0	1	+	0	1	blank2r.bmp	500	1	GKQX	500	1	blank2r.bmp	880	6	tolerant	880	0	0	0	0	0	0	0	0	0	0	0	0
2024-06-12	12:27:54	12:33:40	345756	6.6.1	4_exp_EVA_AWA_CON	83	B	A	Rpleas_acq	Same	Rpleas	2pleas	acq_US_pleas_nomask	acq1_nomask	1	10	0	0	300	300	0	0	509	50	1	0	helfen	treu	loyal	ehrlich	lachen	tolerant	hindern	tot	lasch	eitel	leiden	tyrannisch	schön	freundlich	retten	spielen	fair	schlau	schlecht	fanatisch	rächen	strafen	faul	schroff	1	blank2r.bmp	0	1	+	0	1	blank2r.bmp	500	1	GKQX	500	1	blank2r.bmp	880	4	ehrlich	880	0	0	0	0	0	0	0	0	0	0	0	0
2024-06-12	12:27:54	12:33:42	347795	6.6.1	4_exp_EVA_AWA_CON	83	B	A	Rpleas_acq	Same	Rpleas	2pleas	acq_US_pleas_nomask	acq1_nomask	1	11	0	0	300	300	0	0	558	50	1	0	helfen	treu	loyal	ehrlich	lachen	tolerant	hindern	tot	lasch	eitel	leiden	tyrannisch	schön	freundlich	retten	spielen	fair	schlau	schlecht	fanatisch	rächen	strafen	faul	schroff	1	blank2r.bmp	0	1	+	0	1	blank2r.bmp	500	1	GKQX	500	1	blank2r.bmp	880	1	helfen	880	0	0	0	0	0	0	0	0	0	0	0	0
2024-06-12	12:27:54	12:33:44	349835	6.6.1	4_exp_EVA_AWA_CON	83	B	A	Rpleas_acq	Same	Rpleas	2pleas	acq_new_unple_nomask	acq1_nomask	1	12	0	0	300	300	0	0	557	46	1	0	helfen	treu	loyal	ehrlich	lachen	tolerant	hindern	tot	lasch	eitel	leiden	tyrannisch	schön	freundlich	retten	spielen	fair	schlau	schlecht	fanatisch	rächen	strafen	faul	schroff	1	blank2r.bmp	0	1	+	0	1	blank2r.bmp	500	1	B1r.bmp	500	1	blank2r.bmp	880	3	rächen	880	0	0	0	0	0	0	0	0	0	0	0	0
2024-06-12	12:27:54	12:33:46	351803	6.6.1	4_exp_EVA_AWA_CON	83	B	A	Rpleas_acq	Same	Rpleas	2pleas	acq_US_unple_nomask	acq1_nomask	1	13	0	0	300	300	0	0	484	46	1	0	helfen	treu	loyal	ehrlich	lachen	tolerant	hindern	tot	lasch	eitel	leiden	tyrannisch	schön	freundlich	retten	spielen	fair	schlau	schlecht	fanatisch	rächen	strafen	faul	schroff	1	blank2r.bmp	0	1	+	0	1	blank2r.bmp	500	1	BMVZ	500	1	blank2r.bmp	880	2	tot	880	0	0	0	0	0	0	0	0	0	0	0	0
2024-06-12	12:27:54	12:33:48	353803	6.6.1	4_exp_EVA_AWA_CON	83	B	A	Rpleas_acq	Same	Rpleas	2pleas	acq_new_unple_nomask	acq1_nomask	1	14	0	0	300	300	0	0	512	46	1	0	helfen	treu	loyal	ehrlich	lachen	tolerant	hindern	tot	lasch	eitel	leiden	tyrannisch	schön	freundlich	retten	spielen	fair	schlau	schlecht	fanatisch	rächen	strafen	faul	schroff	1	blank2r.bmp	0	1	+	0	1	blank2r.bmp	500	8	C4r.bmp	500	1	blank2r.bmp	880	4	strafen	880	0	0	0	0	0	0	0	0	0	0	0	0
2024-06-12	12:27:54	12:33:50	355827	6.6.1	4_exp_EVA_AWA_CON	83	B	A	Rpleas_acq	Same	Rpleas	2pleas	acq_US_unple_nomask	acq1_nomask	1	15	0	0	300	300	0	0	535	46	1	0	helfen	treu	loyal	ehrlich	lachen	tolerant	hindern	tot	lasch	eitel	leiden	tyrannisch	schön	freundlich	retten	spielen	fair	schlau	schlecht	fanatisch	rächen	strafen	faul	schroff	1	blank2r.bmp	0	1	+	0	1	blank2r.bmp	500	1	BMVZ	500	1	blank2r.bmp	880	3	lasch	880	0	0	0	0	0	0	0	0	0	0	0	0
2024-06-12	12:27:54	12:33:52	357827	6.6.1	4_exp_EVA_AWA_CON	83	B	A	Rpleas_acq	Same	Rpleas	2pleas	acq_US_unple_nomask	acq1_nomask	1	16	0	0	300	300	0	0	514	46	1	0	helfen	treu	loyal	ehrlich	lachen	tolerant	hindern	tot	lasch	eitel	leiden	tyrannisch	schön	freundlich	retten	spielen	fair	schlau	schlecht	fanatisch	rächen	strafen	faul	schroff	1	blank2r.bmp	0	1	+	0	1	blank2r.bmp	500	1	BMVZ	500	1	blank2r.bmp	880	6	tyrannisch	880	0	0	0	0	0	0	0	0	0	0	0	0
2024-06-12	12:27:54	12:33:54	359867	6.6.1	4_exp_EVA_AWA_CON	83	B	A	Rpleas_acq	Same	Rpleas	2pleas	acq_new_pleas_nomask	acq1_nomask	1	17	0	0	300	300	0	0	552	50	1	0	helfen	treu	loyal	ehrlich	lachen	tolerant	hindern	tot	lasch	eitel	leiden	tyrannisch	schön	freundlich	retten	spielen	fair	schlau	schlecht	fanatisch	rächen	strafen	faul	schroff	1	blank2r.bmp	0	1	+	0	1	blank2r.bmp	500	6	C2r.bmp	500	1	blank2r.bmp	880	4	spielen	880	0	0	0	0	0	0	0	0	0	0	0	0
2024-06-12	12:27:54	12:33:56	362003	6.6.1	4_exp_EVA_AWA_CON	83	B	A	Rpleas_acq	Same	Rpleas	2pleas	acq_new_unple_nomask	acq1_nomask	1	18	0	0	300	300	0	0	647	46	1	0	helfen	treu	loyal	ehrlich	lachen	tolerant	hindern	tot	lasch	eitel	leiden	tyrannisch	schön	freundlich	retten	spielen	fair	schlau	schlecht	fanatisch	rächen	strafen	faul	schroff	1	blank2r.bmp	0	1	+	0	1	blank2r.bmp	500	3	B3r.bmp	500	1	blank2r.bmp	880	5	faul	880	0	0	0	0	0	0	0	0	0	0	0	0
2024-06-12	12:27:54	12:33:58	364019	6.6.1	4_exp_EVA_AWA_CON	83	B	A	Rpleas_acq	Same	Rpleas	2pleas	acq_US_pleas_nomask	acq1_nomask	1	19	0	0	300	300	0	0	532	50	1	0	helfen	treu	loyal	ehrlich	lachen	tolerant	hindern	tot	lasch	eitel	leiden	tyrannisch	schön	freundlich	retten	spielen	fair	schlau	schlecht	fanatisch	rächen	strafen	faul	schroff	1	blank2r.bmp	0	1	+	0	1	blank2r.bmp	500	1	GKQX	500	1	blank2r.bmp	880	3	loyal	880	0	0	0	0	0	0	0	0	0	0	0	0
2024-06-12	12:27:54	12:34:00	366107	6.6.1	4_exp_EVA_AWA_CON	83	B	A	Rpleas_acq	Same	Rpleas	2pleas	acq_new_unple_nomask	acq1_nomask	1	20	0	0	300	300	0	0	598	46	1	0	helfen	treu	loyal	ehrlich	lachen	tolerant	hindern	tot	lasch	eitel	leiden	tyrannisch	schön	freundlich	retten	spielen	fair	schlau	schlecht	fanatisch	rächen	strafen	faul	schroff	1	blank2r.bmp	0	1	+	0	1	blank2r.bmp	500	2	B2r.bmp	500	1	blank2r.bmp	880	6	schroff	880	0	0	0	0	0	0	0	0	0	0	0	0
2024-06-12	12:27:54	12:34:02	368179	6.6.1	4_exp_EVA_AWA_CON	83	B	A	Rpleas_acq	Same	Rpleas	2pleas	acq_new_pleas_nomask	acq1_nomask	1	21	0	0	300	300	0	0	589	50	1	0	helfen	treu	loyal	ehrlich	lachen	tolerant	hindern	tot	lasch	eitel	leiden	tyrannisch	schön	freundlich	retten	spielen	fair	schlau	schlecht	fanatisch	rächen	strafen	faul	schroff	1	blank2r.bmp	0	1	+	0	1	blank2r.bmp	500	7	C3r.bmp	500	1	blank2r.bmp	880	2	freundlich	880	0	0	0	0	0	0	0	0	0	0	0	0
2024-06-12	12:27:54	12:34:04	370187	6.6.1	4_exp_EVA_AWA_CON	83	B	A	Rpleas_acq	Same	Rpleas	2pleas	acq_new_pleas_nomask	acq1_nomask	1	22	0	0	300	300	0	0	526	50	1	0	helfen	treu	loyal	ehrlich	lachen	tolerant	hindern	tot	lasch	eitel	leiden	tyrannisch	schön	freundlich	retten	spielen	fair	schlau	schlecht	fanatisch	rächen	strafen	faul	schroff	1	blank2r.bmp	0	1	+	0	1	blank2r.bmp	500	6	C2r.bmp	500	1	blank2r.bmp	880	6	schlau	880	0	0	0	0	0	0	0	0	0	0	0	0
2024-06-12	12:27:54	12:34:06	372139	6.6.1	4_exp_EVA_AWA_CON	83	B	A	Rpleas_acq	Same	Rpleas	2pleas	acq_US_pleas_nomask	acq1_nomask	1	23	0	0	300	300	0	0	466	50	1	0	helfen	treu	loyal	ehrlich	lachen	tolerant	hindern	tot	lasch	eitel	leiden	tyrannisch	schön	freundlich	retten	spielen	fair	schlau	schlecht	fanatisch	rächen	strafen	faul	schroff	1	blank2r.bmp	0	1	+	0	1	blank2r.bmp	500	1	GKQX	500	1	blank2r.bmp	880	5	lachen	880	0	0	0	0	0	0	0	0	0	0	0	0
2024-06-12	12:27:54	12:34:08	374164	6.6.1	4_exp_EVA_AWA_CON	83	B	A	Rpleas_acq	Same	Rpleas	2pleas	acq_US_pleas_nomask	acq1_nomask	1	24	0	0	300	300	0	0	539	50	1	0	helfen	treu	loyal	ehrlich	lachen	tolerant	hindern	tot	lasch	eitel	leiden	tyrannisch	schön	freundlich	retten	spielen	fair	schlau	schlecht	fanatisch	rächen	strafen	faul	schroff	1	blank2r.bmp	0	1	+	0	1	blank2r.bmp	500	1	GKQX	500	1	blank2r.bmp	880	2	treu	880	0	0	0	0	0	0	0	0	0	0	0	0
2024-06-12	12:27:54	12:34:10	376179	6.6.1	4_exp_EVA_AWA_CON	83	B	A	Rpleas_acq	Same	Rpleas	2pleas	acq_new_pleas_nomask	acq1_nomask	1	25	0	0	300	300	0	0	534	50	1	0	helfen	treu	loyal	ehrlich	lachen	tolerant	hindern	tot	lasch	eitel	leiden	tyrannisch	schön	freundlich	retten	spielen	fair	schlau	schlecht	fanatisch	rächen	strafen	faul	schroff	1	blank2r.bmp	0	1	+	0	1	blank2r.bmp	500	8	C4r.bmp	500	1	blank2r.bmp	880	6	schlau	880	0	0	0	0	0	0	0	0	0	0	0	0
2024-06-12	12:27:54	12:34:12	378131	6.6.1	4_exp_EVA_AWA_CON	83	B	A	Rpleas_acq	Same	Rpleas	2pleas	acq_new_pleas_nomask	acq1_nomask	1	26	0	0	300	300	0	0	465	50	1	0	helfen	treu	loyal	ehrlich	lachen	tolerant	hindern	tot	lasch	eitel	leiden	tyrannisch	schön	freundlich	retten	spielen	fair	schlau	schlecht	fanatisch	rächen	strafen	faul	schroff	1	blank2r.bmp	0	1	+	0	1	blank2r.bmp	500	1	B1r.bmp	500	1	blank2r.bmp	880	5	fair	880	0	0	0	0	0	0	0	0	0	0	0	0
2024-06-12	12:27:54	12:34:14	380115	6.6.1	4_exp_EVA_AWA_CON	83	B	A	Rpleas_acq	Same	Rpleas	2pleas	acq_US_pleas_nomask	acq1_nomask	1	27	0	0	300	300	0	0	497	50	1	0	helfen	treu	loyal	ehrlich	lachen	tolerant	hindern	tot	lasch	eitel	leiden	tyrannisch	schön	freundlich	retten	spielen	fair	schlau	schlecht	fanatisch	rächen	strafen	faul	schroff	1	blank2r.bmp	0	1	+	0	1	blank2r.bmp	500	1	GKQX	500	1	blank2r.bmp	880	6	tolerant	880	0	0	0	0	0	0	0	0	0	0	0	0
2024-06-12	12:27:54	12:34:16	382115	6.6.1	4_exp_EVA_AWA_CON	83	B	A	Rpleas_acq	Same	Rpleas	2pleas	acq_US_unple_nomask	acq1_nomask	1	28	0	0	300	300	0	0	516	46	1	0	helfen	treu	loyal	ehrlich	lachen	tolerant	hindern	tot	lasch	eitel	leiden	tyrannisch	schön	freundlich	retten	spielen	fair	schlau	schlecht	fanatisch	rächen	strafen	faul	schroff	1	blank2r.bmp	0	1	+	0	1	blank2r.bmp	500	1	BMVZ	500	1	blank2r.bmp	880	4	eitel	880	0	0	0	0	0	0	0	0	0	0	0	0
2024-06-12	12:27:54	12:34:18	384083	6.6.1	4_exp_EVA_AWA_CON	83	B	A	Rpleas_acq	Same	Rpleas	2pleas	acq_US_unple_nomask	acq1_nomask	1	29	0	0	300	300	0	0	483	46	1	0	helfen	treu	loyal	ehrlich	lachen	tolerant	hindern	tot	lasch	eitel	leiden	tyrannisch	schön	freundlich	retten	spielen	fair	schlau	schlecht	fanatisch	rächen	strafen	faul	schroff	1	blank2r.bmp	0	1	+	0	1	blank2r.bmp	500	1	BMVZ	500	1	blank2r.bmp	880	6	tyrannisch	880	0	0	0	0	0	0	0	0	0	0	0	0
2024-06-12	12:27:54	12:34:20	386115	6.6.1	4_exp_EVA_AWA_CON	83	B	A	Rpleas_acq	Same	Rpleas	2pleas	acq_new_unple_nomask	acq1_nomask	1	30	0	0	300	300	0	0	544	46	1	0	helfen	treu	loyal	ehrlich	lachen	tolerant	hindern	tot	lasch	eitel	leiden	tyrannisch	schön	freundlich	retten	spielen	fair	schlau	schlecht	fanatisch	rächen	strafen	faul	schroff	1	blank2r.bmp	0	1	+	0	1	blank2r.bmp	500	4	B4r.bmp	500	1	blank2r.bmp	880	2	fanatisch	880	0	0	0	0	0	0	0	0	0	0	0	0
2024-06-12	12:27:54	12:34:22	388099	6.6.1	4_exp_EVA_AWA_CON	83	B	A	Rpleas_acq	Same	Rpleas	2pleas	acq_new_unple_nomask	acq1_nomask	1	31	0	0	300	300	0	0	496	46	1	0	helfen	treu	loyal	ehrlich	lachen	tolerant	hindern	tot	lasch	eitel	leiden	tyrannisch	schön	freundlich	retten	spielen	fair	schlau	schlecht	fanatisch	rächen	strafen	faul	schroff	1	blank2r.bmp	0	1	+	0	1	blank2r.bmp	500	5	C1r.bmp	500	1	blank2r.bmp	880	3	rächen	880	0	0	0	0	0	0	0	0	0	0	0	0
2024-06-12	12:27:54	12:34:24	390099	6.6.1	4_exp_EVA_AWA_CON	83	B	A	Rpleas_acq	Same	Rpleas	2pleas	acq_US_pleas_nomask	acq1_nomask	1	32	0	0	300	300	0	0	515	50	1	0	helfen	treu	loyal	ehrlich	lachen	tolerant	hindern	tot	lasch	eitel	leiden	tyrannisch	schön	freundlich	retten	spielen	fair	schlau	schlecht	fanatisch	rächen	strafen	faul	schroff	1	blank2r.bmp	0	1	+	0	1	blank2r.bmp	500	1	GKQX	500	1	blank2r.bmp	880	1	helfen	880	0	0	0	0	0	0	0	0	0	0	0	0
2024-06-12	12:27:54	12:34:26	392067	6.6.1	4_exp_EVA_AWA_CON	83	B	A	Rpleas_acq	Same	Rpleas	2pleas	acq_new_pleas_nomask	acq1_nomask	1	33	0	0	300	300	0	0	482	50	1	0	helfen	treu	loyal	ehrlich	lachen	tolerant	hindern	tot	lasch	eitel	leiden	tyrannisch	schön	freundlich	retten	spielen	fair	schlau	schlecht	fanatisch	rächen	strafen	faul	schroff	1	blank2r.bmp	0	1	+	0	1	blank2r.bmp	500	5	C1r.bmp	500	1	blank2r.bmp	880	1	schön	880	0	0	0	0	0	0	0	0	0	0	0	0
2024-06-12	12:27:54	12:34:28	394299	6.6.1	4_exp_EVA_AWA_CON	83	B	A	Rpleas_acq	Same	Rpleas	2pleas	acq_US_unple_nomask	acq1_nomask	1	34	0	0	300	300	0	0	742	46	1	0	helfen	treu	loyal	ehrlich	lachen	tolerant	hindern	tot	lasch	eitel	leiden	tyrannisch	schön	freundlich	retten	spielen	fair	schlau	schlecht	fanatisch	rächen	strafen	faul	schroff	1	blank2r.bmp	0	1	+	0	1	blank2r.bmp	500	1	BMVZ	500	1	blank2r.bmp	880	3	lasch	880	0	0	0	0	0	0	0	0	0	0	0	0
2024-06-12	12:27:54	12:34:31	396331	6.6.1	4_exp_EVA_AWA_CON	83	B	A	Rpleas_acq	Same	Rpleas	2pleas	acq_new_unple_nomask	acq1_nomask	1	35	0	0	300	300	0	0	543	46	1	0	helfen	treu	loyal	ehrlich	lachen	tolerant	hindern	tot	lasch	eitel	leiden	tyrannisch	schön	freundlich	retten	spielen	fair	schlau	schlecht	fanatisch	rächen	strafen	faul	schroff	1	blank2r.bmp	0	1	+	0	1	blank2r.bmp	500	6	C2r.bmp	500	1	blank2r.bmp	880	5	faul	880	0	0	0	0	0	0	0	0	0	0	0	0
2024-06-12	12:27:54	12:34:33	398475	6.6.1	4_exp_EVA_AWA_CON	83	B	A	Rpleas_acq	Same	Rpleas	2pleas	acq_US_pleas_nomask	acq1_nomask	1	36	0	0	300	300	0	0	656	50	1	0	helfen	treu	loyal	ehrlich	lachen	tolerant	hindern	tot	lasch	eitel	leiden	tyrannisch	schön	freundlich	retten	spielen	fair	schlau	schlecht	fanatisch	rächen	strafen	faul	schroff	1	blank2r.bmp	0	1	+	0	1	blank2r.bmp	500	1	GKQX	500	1	blank2r.bmp	880	3	loyal	880	0	0	0	0	0	0	0	0	0	0	0	0
2024-06-12	12:27:54	12:35:18	443989	6.6.1	4_exp_EVA_AWA_CON	83	B	A	Rpleas_acq	Same	Rpleas	2pleas	acq_US_unple_nomask	acq2_nomask	2	1	480	0	300	300	0	0	1011	46	1	0	helfen	treu	loyal	ehrlich	lachen	tolerant	hindern	tot	lasch	eitel	leiden	tyrannisch	schön	freundlich	retten	spielen	fair	schlau	schlecht	fanatisch	rächen	strafen	faul	schroff	1	blank2r.bmp	0	1	+	0	1	blank2r.bmp	500	1	BMVZ	500	1	blank2r.bmp	880	5	leiden	880	1	!	1312	1	!	-1	0	0	0	0	0	0
2024-06-12	12:27:54	12:35:20	446271	6.6.1	4_exp_EVA_AWA_CON	83	B	A	Rpleas_acq	Same	Rpleas	2pleas	acq_US_pleas_nomask	acq2_nomask	2	2	480	1	300	300	0	0	499	50	1	0	helfen	treu	loyal	ehrlich	lachen	tolerant	hindern	tot	lasch	eitel	leiden	tyrannisch	schön	freundlich	retten	spielen	fair	schlau	schlecht	fanatisch	rächen	strafen	faul	schroff	1	blank2r.bmp	0	1	+	0	1	blank2r.bmp	500	1	GKQX	500	1	blank2r.bmp	880	2	treu	880	1	!	1313	1	!	1401	0	0	0	0	0	0
2024-06-12	12:27:54	12:35:23	448437	6.6.1	4_exp_EVA_AWA_CON	83	B	A	Rpleas_acq	Same	Rpleas	2pleas	acq_US_pleas_nomask	acq2_nomask	2	3	480	0	300	300	0	0	386	50	1	0	helfen	treu	loyal	ehrlich	lachen	tolerant	hindern	tot	lasch	eitel	leiden	tyrannisch	schön	freundlich	retten	spielen	fair	schlau	schlecht	fanatisch	rächen	strafen	faul	schroff	1	blank2r.bmp	0	1	+	0	1	blank2r.bmp	500	1	GKQX	500	1	blank2r.bmp	880	5	lachen	880	1	!	-1	1	!	-1	0	0	0	0	0	0
2024-06-12	12:27:54	12:35:25	450981	6.6.1	4_exp_EVA_AWA_CON	83	B	A	Rpleas_acq	Same	Rpleas	2pleas	acq_US_unple_nomask	acq2_nomask	2	4	480	0	300	300	0	0	768	46	1	0	helfen	treu	loyal	ehrlich	lachen	tolerant	hindern	tot	lasch	eitel	leiden	tyrannisch	schön	freundlich	retten	spielen	fair	schlau	schlecht	fanatisch	rächen	strafen	faul	schroff	1	blank2r.bmp	0	1	+	0	1	blank2r.bmp	500	1	BMVZ	500	1	blank2r.bmp	880	2	tot	880	1	!	1313	1	!	-1	0	0	0	0	0	0
2024-06-12	12:27:54	12:35:28	453381	6.6.1	4_exp_EVA_AWA_CON	83	B	A	Rpleas_acq	Same	Rpleas	2pleas	acq_new_unple_nomask	acq2_nomask	2	5	480	0	300	300	0	0	627	46	1	0	helfen	treu	loyal	ehrlich	lachen	tolerant	hindern	tot	lasch	eitel	leiden	tyrannisch	schön	freundlich	retten	spielen	fair	schlau	schlecht	fanatisch	rächen	strafen	faul	schroff	1	blank2r.bmp	0	1	+	0	1	blank2r.bmp	500	3	B3r.bmp	500	1	blank2r.bmp	880	4	strafen	880	1	!	1313	1	!	-1	0	0	0	0	0	0
2024-06-12	12:27:54	12:35:30	455793	6.6.1	4_exp_EVA_AWA_CON	83	B	A	Rpleas_acq	Same	Rpleas	2pleas	acq_new_pleas_nomask	acq2_nomask	2	6	480	1	300	300	0	0	433	46	0	0	helfen	treu	loyal	ehrlich	lachen	tolerant	hindern	tot	lasch	eitel	leiden	tyrannisch	schön	freundlich	retten	spielen	fair	schlau	schlecht	fanatisch	rächen	strafen	faul	schroff	1	blank2r.bmp	0	1	+	0	1	blank2r.bmp	500	8	C4r.bmp	500	1	blank2r.bmp	880	3	retten	880	1	FEHLER	1627	1	!	1313	1	!	1335	0	0	0
2024-06-12	12:27:54	12:35:32	457973	6.6.1	4_exp_EVA_AWA_CON	83	B	A	Rpleas_acq	Same	Rpleas	2pleas	acq_new_unple_nomask	acq2_nomask	2	7	480	0	300	300	0	0	606	46	1	0	helfen	treu	loyal	ehrlich	lachen	tolerant	hindern	tot	lasch	eitel	leiden	tyrannisch	schön	freundlich	retten	spielen	fair	schlau	schlecht	fanatisch	rächen	strafen	faul	schroff	1	blank2r.bmp	0	1	+	0	1	blank2r.bmp	500	7	C3r.bmp	500	1	blank2r.bmp	880	6	schroff	880	1	!	1313	1	!	-1	0	0	0	0	0	0
2024-06-12	12:27:54	12:35:34	460231	6.6.1	4_exp_EVA_AWA_CON	83	B	A	Rpleas_acq	Same	Rpleas	2pleas	acq_US_pleas_nomask	acq2_nomask	2	8	480	1	300	300	0	0	480	50	1	0	helfen	treu	loyal	ehrlich	lachen	tolerant	hindern	tot	lasch	eitel	leiden	tyrannisch	schön	freundlich	retten	spielen	fair	schlau	schlecht	fanatisch	rächen	strafen	faul	schroff	1	blank2r.bmp	0	1	+	0	1	blank2r.bmp	500	1	GKQX	500	1	blank2r.bmp	880	4	ehrlich	880	1	!	1312	1	!	1382	0	0	0	0	0	0
2024-06-12	12:27:54	12:35:37	462413	6.6.1	4_exp_EVA_AWA_CON	83	B	A	Rpleas_acq	Same	Rpleas	2pleas	acq_new_unple_nomask	acq2_nomask	2	9	480	0	300	300	0	0	403	46	1	0	helfen	treu	loyal	ehrlich	lachen	tolerant	hindern	tot	lasch	eitel	leiden	tyrannisch	schön	freundlich	retten	spielen	fair	schlau	schlecht	fanatisch	rächen	strafen	faul	schroff	1	blank2r.bmp	0	1	+	0	1	blank2r.bmp	500	4	B4r.bmp	500	1	blank2r.bmp	880	1	schlecht	880	1	!	-1	1	!	-1	0	0	0	0	0	0
2024-06-12	12:27:54	12:35:39	464747	6.6.1	4_exp_EVA_AWA_CON	83	B	A	Rpleas_acq	Same	Rpleas	2pleas	acq_US_unple_nomask	acq2_nomask	2	10	480	0	300	300	0	0	557	46	1	0	helfen	treu	loyal	ehrlich	lachen	tolerant	hindern	tot	lasch	eitel	leiden	tyrannisch	schön	freundlich	retten	spielen	fair	schlau	schlecht	fanatisch	rächen	strafen	faul	schroff	1	blank2r.bmp	0	1	+	0	1	blank2r.bmp	500	1	BMVZ	500	1	blank2r.bmp	880	1	hindern	880	1	!	1313	1	!	-1	0	0	0	0	0	0
2024-06-12	12:27:54	12:35:41	466999	6.6.1	4_exp_EVA_AWA_CON	83	B	A	Rpleas_acq	Same	Rpleas	2pleas	acq_new_pleas_nomask	acq2_nomask	2	11	480	1	300	300	0	0	474	50	1	0	helfen	treu	loyal	ehrlich	lachen	tolerant	hindern	tot	lasch	eitel	leiden	tyrannisch	schön	freundlich	retten	spielen	fair	schlau	schlecht	fanatisch	rächen	strafen	faul	schroff	1	blank2r.bmp	0	1	+	0	1	blank2r.bmp	500	2	B2r.bmp	500	1	blank2r.bmp	880	2	freundlich	880	1	!	1313	1	!	1375	0	0	0	0	0	0
2024-06-12	12:27:54	12:35:44	469368	6.6.1	4_exp_EVA_AWA_CON	83	B	A	Rpleas_acq	Same	Rpleas	2pleas	acq_new_pleas_nomask	acq2_nomask	2	12	480	0	300	300	0	0	390	46	0	0	helfen	treu	loyal	ehrlich	lachen	tolerant	hindern	tot	lasch	eitel	leiden	tyrannisch	schön	freundlich	retten	spielen	fair	schlau	schlecht	fanatisch	rächen	strafen	faul	schroff	1	blank2r.bmp	0	1	+	0	1	blank2r.bmp	500	1	B1r.bmp	500	1	blank2r.bmp	880	4	spielen	880	1	FEHLER	1584	1	!	-1	1	!	-1	0	0	0
2024-06-12	12:27:54	12:35:46	471549	6.6.1	4_exp_EVA_AWA_CON	83	B	A	Rpleas_acq	Same	Rpleas	2pleas	acq_new_pleas_nomask	acq2_nomask	2	13	480	0	300	300	0	0	603	50	1	0	helfen	treu	loyal	ehrlich	lachen	tolerant	hindern	tot	lasch	eitel	leiden	tyrannisch	schön	freundlich	retten	spielen	fair	schlau	schlecht	fanatisch	rächen	strafen	faul	schroff	1	blank2r.bmp	0	1	+	0	1	blank2r.bmp	500	1	B1r.bmp	500	1	blank2r.bmp	880	6	schlau	880	1	!	1313	1	!	-1	0	0	0	0	0	0
2024-06-12	12:27:54	12:35:48	473749	6.6.1	4_exp_EVA_AWA_CON	83	B	A	Rpleas_acq	Same	Rpleas	2pleas	acq_US_pleas_nomask	acq2_nomask	2	14	480	1	300	300	0	0	421	50	1	0	helfen	treu	loyal	ehrlich	lachen	tolerant	hindern	tot	lasch	eitel	leiden	tyrannisch	schön	freundlich	retten	spielen	fair	schlau	schlecht	fanatisch	rächen	strafen	faul	schroff	1	blank2r.bmp	0	1	+	0	1	blank2r.bmp	500	1	GKQX	500	1	blank2r.bmp	880	1	helfen	880	1	!	1312	1	!	1321	0	0	0	0	0	0
2024-06-12	12:27:54	12:35:50	475967	6.6.1	4_exp_EVA_AWA_CON	83	B	A	Rpleas_acq	Same	Rpleas	2pleas	acq_new_pleas_nomask	acq2_nomask	2	15	480	1	300	300	0	0	436	50	1	0	helfen	treu	loyal	ehrlich	lachen	tolerant	hindern	tot	lasch	eitel	leiden	tyrannisch	schön	freundlich	retten	spielen	fair	schlau	schlecht	fanatisch	rächen	strafen	faul	schroff	1	blank2r.bmp	0	1	+	0	1	blank2r.bmp	500	5	C1r.bmp	500	1	blank2r.bmp	880	3	retten	880	1	!	1313	1	!	1337	0	0	0	0	0	0
2024-06-12	12:27:54	12:35:52	478133	6.6.1	4_exp_EVA_AWA_CON	83	B	A	Rpleas_acq	Same	Rpleas	2pleas	acq_new_pleas_nomask	acq2_nomask	2	16	480	0	300	300	0	0	393	50	1	0	helfen	treu	loyal	ehrlich	lachen	tolerant	hindern	tot	lasch	eitel	leiden	tyrannisch	schön	freundlich	retten	spielen	fair	schlau	schlecht	fanatisch	rächen	strafen	faul	schroff	1	blank2r.bmp	0	1	+	0	1	blank2r.bmp	500	6	C2r.bmp	500	1	blank2r.bmp	880	4	spielen	880	1	!	-1	1	!	-1	0	0	0	0	0	0
2024-06-12	12:27:54	12:35:55	480493	6.6.1	4_exp_EVA_AWA_CON	83	B	A	Rpleas_acq	Same	Rpleas	2pleas	acq_new_unple_nomask	acq2_nomask	2	17	480	0	300	300	0	0	581	46	1	0	helfen	treu	loyal	ehrlich	lachen	tolerant	hindern	tot	lasch	eitel	leiden	tyrannisch	schön	freundlich	retten	spielen	fair	schlau	schlecht	fanatisch	rächen	strafen	faul	schroff	1	blank2r.bmp	0	1	+	0	1	blank2r.bmp	500	3	B3r.bmp	500	1	blank2r.bmp	880	5	faul	880	1	!	1312	1	!	-1	0	0	0	0	0	0
2024-06-12	12:27:54	12:35:57	482677	6.6.1	4_exp_EVA_AWA_CON	83	B	A	Rpleas_acq	Same	Rpleas	2pleas	acq_US_unple_nomask	acq2_nomask	2	18	480	0	300	300	0	0	404	46	1	0	helfen	treu	loyal	ehrlich	lachen	tolerant	hindern	tot	lasch	eitel	leiden	tyrannisch	schön	freundlich	retten	spielen	fair	schlau	schlecht	fanatisch	rächen	strafen	faul	schroff	1	blank2r.bmp	0	1	+	0	1	blank2r.bmp	500	1	BMVZ	500	1	blank2r.bmp	880	1	hindern	880	1	!	-1	1	!	-1	0	0	0	0	0	0
2024-06-12	12:27:54	12:35:59	485077	6.6.1	4_exp_EVA_AWA_CON	83	B	A	Rpleas_acq	Same	Rpleas	2pleas	acq_US_unple_nomask	acq2_nomask	2	19	480	0	300	300	0	0	622	46	1	0	helfen	treu	loyal	ehrlich	lachen	tolerant	hindern	tot	lasch	eitel	leiden	tyrannisch	schön	freundlich	retten	spielen	fair	schlau	schlecht	fanatisch	rächen	strafen	faul	schroff	1	blank2r.bmp	0	1	+	0	1	blank2r.bmp	500	1	BMVZ	500	1	blank2r.bmp	880	6	tyrannisch	880	1	!	1313	1	!	-1	0	0	0	0	0	0
2024-06-12	12:27:54	12:36:01	487253	6.6.1	4_exp_EVA_AWA_CON	83	B	A	Rpleas_acq	Same	Rpleas	2pleas	acq_new_unple_nomask	acq2_nomask	2	20	480	0	300	300	0	0	397	46	1	0	helfen	treu	loyal	ehrlich	lachen	tolerant	hindern	tot	lasch	eitel	leiden	tyrannisch	schön	freundlich	retten	spielen	fair	schlau	schlecht	fanatisch	rächen	strafen	faul	schroff	1	blank2r.bmp	0	1	+	0	1	blank2r.bmp	500	7	C3r.bmp	500	1	blank2r.bmp	880	6	schroff	880	1	!	-1	1	!	-1	0	0	0	0	0	0
2024-06-12	12:27:54	12:36:04	489487	6.6.1	4_exp_EVA_AWA_CON	83	B	A	Rpleas_acq	Same	Rpleas	2pleas	acq_US_pleas_nomask	acq2_nomask	2	21	480	1	300	300	0	0	457	50	1	0	helfen	treu	loyal	ehrlich	lachen	tolerant	hindern	tot	lasch	eitel	leiden	tyrannisch	schön	freundlich	retten	spielen	fair	schlau	schlecht	fanatisch	rächen	strafen	faul	schroff	1	blank2r.bmp	0	1	+	0	1	blank2r.bmp	500	1	GKQX	500	1	blank2r.bmp	880	4	ehrlich	880	1	!	1313	1	!	1359	0	0	0	0	0	0
2024-06-12	12:27:54	12:36:06	491775	6.6.1	4_exp_EVA_AWA_CON	83	B	A	Rpleas_acq	Same	Rpleas	2pleas	acq_US_pleas_nomask	acq2_nomask	2	22	480	1	300	300	0	0	504	50	1	0	helfen	treu	loyal	ehrlich	lachen	tolerant	hindern	tot	lasch	eitel	leiden	tyrannisch	schön	freundlich	retten	spielen	fair	schlau	schlecht	fanatisch	rächen	strafen	faul	schroff	1	blank2r.bmp	0	1	+	0	1	blank2r.bmp	500	1	GKQX	500	1	blank2r.bmp	880	5	lachen	880	1	!	1312	1	!	1405	0	0	0	0	0	0
2024-06-12	12:27:54	12:36:08	493999	6.6.1	4_exp_EVA_AWA_CON	83	B	A	Rpleas_acq	Same	Rpleas	2pleas	acq_new_unple_nomask	acq2_nomask	2	23	480	1	300	300	0	0	446	46	1	0	helfen	treu	loyal	ehrlich	lachen	tolerant	hindern	tot	lasch	eitel	leiden	tyrannisch	schön	freundlich	retten	spielen	fair	schlau	schlecht	fanatisch	rächen	strafen	faul	schroff	1	blank2r.bmp	0	1	+	0	1	blank2r.bmp	500	8	C4r.bmp	500	1	blank2r.bmp	880	1	schlecht	880	1	!	1312	1	!	1348	0	0	0	0	0	0
2024-06-12	12:27:54	12:36:10	496157	6.6.1	4_exp_EVA_AWA_CON	83	B	A	Rpleas_acq	Same	Rpleas	2pleas	acq_US_unple_nomask	acq2_nomask	2	24	480	0	300	300	0	0	385	46	1	0	helfen	treu	loyal	ehrlich	lachen	tolerant	hindern	tot	lasch	eitel	leiden	tyrannisch	schön	freundlich	retten	spielen	fair	schlau	schlecht	fanatisch	rächen	strafen	faul	schroff	1	blank2r.bmp	0	1	+	0	1	blank2r.bmp	500	1	BMVZ	500	1	blank2r.bmp	880	2	tot	880	1	!	-1	1	!	-1	0	0	0	0	0	0
2024-06-12	12:27:54	12:36:13	498592	6.6.1	4_exp_EVA_AWA_CON	83	B	A	Rpleas_acq	Same	Rpleas	2pleas	acq_US_pleas_nomask	acq2_nomask	2	25	480	1	300	300	0	0	456	46	0	0	helfen	treu	loyal	ehrlich	lachen	tolerant	hindern	tot	lasch	eitel	leiden	tyrannisch	schön	freundlich	retten	spielen	fair	schlau	schlecht	fanatisch	rächen	strafen	faul	schroff	1	blank2r.bmp	0	1	+	0	1	blank2r.bmp	500	1	GKQX	500	1	blank2r.bmp	880	6	tolerant	880	1	FEHLER	1649	1	!	1312	1	!	1357	0	0	0
2024-06-12	12:27:54	12:36:15	500733	6.6.1	4_exp_EVA_AWA_CON	83	B	A	Rpleas_acq	Same	Rpleas	2pleas	acq_US_unple_nomask	acq2_nomask	2	26	480	0	300	300	0	0	568	46	1	0	helfen	treu	loyal	ehrlich	lachen	tolerant	hindern	tot	lasch	eitel	leiden	tyrannisch	schön	freundlich	retten	spielen	fair	schlau	schlecht	fanatisch	rächen	strafen	faul	schroff	1	blank2r.bmp	0	1	+	0	1	blank2r.bmp	500	1	BMVZ	500	1	blank2r.bmp	880	5	leiden	880	1	!	1312	1	!	-1	0	0	0	0	0	0
2024-06-12	12:27:54	12:36:17	503024	6.6.1	4_exp_EVA_AWA_CON	83	B	A	Rpleas_acq	Same	Rpleas	2pleas	acq_US_pleas_nomask	acq2_nomask	2	27	480	0	300	300	0	0	315	46	0	0	helfen	treu	loyal	ehrlich	lachen	tolerant	hindern	tot	lasch	eitel	leiden	tyrannisch	schön	freundlich	retten	spielen	fair	schlau	schlecht	fanatisch	rächen	strafen	faul	schroff	1	blank2r.bmp	0	1	+	0	1	blank2r.bmp	500	1	GKQX	500	1	blank2r.bmp	880	3	loyal	880	1	FEHLER	1508	1	!	-1	1	!	-1	0	0	0
2024-06-12	12:27:54	12:36:19	505143	6.6.1	4_exp_EVA_AWA_CON	83	B	A	Rpleas_acq	Same	Rpleas	2pleas	acq_new_unple_nomask	acq2_nomask	2	28	480	1	300	300	0	0	543	46	1	0	helfen	treu	loyal	ehrlich	lachen	tolerant	hindern	tot	lasch	eitel	leiden	tyrannisch	schön	freundlich	retten	spielen	fair	schlau	schlecht	fanatisch	rächen	strafen	faul	schroff	1	blank2r.bmp	0	1	+	0	1	blank2r.bmp	500	4	B4r.bmp	500	1	blank2r.bmp	880	4	strafen	880	1	!	1312	1	!	1445	0	0	0	0	0	0
2024-06-12	12:27:54	12:36:22	507391	6.6.1	4_exp_EVA_AWA_CON	83	B	A	Rpleas_acq	Same	Rpleas	2pleas	acq_new_pleas_nomask	acq2_nomask	2	29	480	1	300	300	0	0	470	50	1	0	helfen	treu	loyal	ehrlich	lachen	tolerant	hindern	tot	lasch	eitel	leiden	tyrannisch	schön	freundlich	retten	spielen	fair	schlau	schlecht	fanatisch	rächen	strafen	faul	schroff	1	blank2r.bmp	0	1	+	0	1	blank2r.bmp	500	2	B2r.bmp	500	1	blank2r.bmp	880	5	fair	880	1	!	1313	1	!	1372	0	0	0	0	0	0
2024-06-12	12:27:54	12:36:24	509631	6.6.1	4_exp_EVA_AWA_CON	83	B	A	Rpleas_acq	Same	Rpleas	2pleas	acq_US_unple_nomask	acq2_nomask	2	30	480	1	300	300	0	0	458	46	1	0	helfen	treu	loyal	ehrlich	lachen	tolerant	hindern	tot	lasch	eitel	leiden	tyrannisch	schön	freundlich	retten	spielen	fair	schlau	schlecht	fanatisch	rächen	strafen	faul	schroff	1	blank2r.bmp	0	1	+	0	1	blank2r.bmp	500	1	BMVZ	500	1	blank2r.bmp	880	4	eitel	880	1	!	1312	1	!	1360	0	0	0	0	0	0
2024-06-12	12:27:54	12:36:26	512088	6.6.1	4_exp_EVA_AWA_CON	83	B	A	Rpleas_acq	Same	Rpleas	2pleas	acq_US_unple_nomask	acq2_nomask	2	31	480	1	300	300	0	0	473	50	0	0	helfen	treu	loyal	ehrlich	lachen	tolerant	hindern	tot	lasch	eitel	leiden	tyrannisch	schön	freundlich	retten	spielen	fair	schlau	schlecht	fanatisch	rächen	strafen	faul	schroff	1	blank2r.bmp	0	1	+	0	1	blank2r.bmp	500	1	BMVZ	500	1	blank2r.bmp	880	3	lasch	880	1	FEHLER	1666	1	!	1313	1	!	1375	0	0	0
2024-06-12	12:27:54	12:36:28	514103	6.6.1	4_exp_EVA_AWA_CON	83	B	A	Rpleas_acq	Same	Rpleas	2pleas	acq_US_pleas_nomask	acq2_nomask	2	32	480	1	300	300	0	0	438	50	1	0	helfen	treu	loyal	ehrlich	lachen	tolerant	hindern	tot	lasch	eitel	leiden	tyrannisch	schön	freundlich	retten	spielen	fair	schlau	schlecht	fanatisch	rächen	strafen	faul	schroff	1	blank2r.bmp	0	1	+	0	1	blank2r.bmp	500	1	GKQX	500	1	blank2r.bmp	880	2	treu	880	1	!	1312	1	!	1339	0	0	0	0	0	0
2024-06-12	12:27:54	12:36:31	516319	6.6.1	4_exp_EVA_AWA_CON	83	B	A	Rpleas_acq	Same	Rpleas	2pleas	acq_new_unple_nomask	acq2_nomask	2	33	480	1	300	300	0	0	442	46	1	0	helfen	treu	loyal	ehrlich	lachen	tolerant	hindern	tot	lasch	eitel	leiden	tyrannisch	schön	freundlich	retten	spielen	fair	schlau	schlecht	fanatisch	rächen	strafen	faul	schroff	1	blank2r.bmp	0	1	+	0	1	blank2r.bmp	500	8	C4r.bmp	500	1	blank2r.bmp	880	3	rächen	880	1	!	1313	1	!	1344	0	0	0	0	0	0
2024-06-12	12:27:54	12:36:33	518559	6.6.1	4_exp_EVA_AWA_CON	83	B	A	Rpleas_acq	Same	Rpleas	2pleas	acq_new_unple_nomask	acq2_nomask	2	34	480	1	300	300	0	0	461	46	1	0	helfen	treu	loyal	ehrlich	lachen	tolerant	hindern	tot	lasch	eitel	leiden	tyrannisch	schön	freundlich	retten	spielen	fair	schlau	schlecht	fanatisch	rächen	strafen	faul	schroff	1	blank2r.bmp	0	1	+	0	1	blank2r.bmp	500	5	C1r.bmp	500	1	blank2r.bmp	880	2	fanatisch	880	1	!	1313	1	!	1363	0	0	0	0	0	0
2024-06-12	12:27:54	12:36:35	520871	6.6.1	4_exp_EVA_AWA_CON	83	B	A	Rpleas_acq	Same	Rpleas	2pleas	acq_new_pleas_nomask	acq2_nomask	2	35	480	1	300	300	0	0	531	50	1	0	helfen	treu	loyal	ehrlich	lachen	tolerant	hindern	tot	lasch	eitel	leiden	tyrannisch	schön	freundlich	retten	spielen	fair	schlau	schlecht	fanatisch	rächen	strafen	faul	schroff	1	blank2r.bmp	0	1	+	0	1	blank2r.bmp	500	2	B2r.bmp	500	1	blank2r.bmp	880	2	freundlich	880	1	!	1313	1	!	1433	0	0	0	0	0	0
2024-06-12	12:27:54	12:36:37	523013	6.6.1	4_exp_EVA_AWA_CON	83	B	A	Rpleas_acq	Same	Rpleas	2pleas	acq_new_pleas_nomask	acq2_nomask	2	36	480	0	300	300	0	0	364	50	1	0	helfen	treu	loyal	ehrlich	lachen	tolerant	hindern	tot	lasch	eitel	leiden	tyrannisch	schön	freundlich	retten	spielen	fair	schlau	schlecht	fanatisch	rächen	strafen	faul	schroff	1	blank2r.bmp	0	1	+	0	1	blank2r.bmp	500	6	C2r.bmp	500	1	blank2r.bmp	880	1	schön	880	1	!	-1	1	!	-1	0	0	0	0	0	0
2024-06-12	12:27:54	12:36:51	536565	6.6.1	4_exp_EVA_AWA_CON	83	B	A	Rpleas_acq	Same	Rpleas	2pleas	acq_US_pleas_nomask	acq3_nomask	3	1	453	0	300	300	0	0	637	50	1	0	helfen	treu	loyal	ehrlich	lachen	tolerant	hindern	tot	lasch	eitel	leiden	tyrannisch	schön	freundlich	retten	spielen	fair	schlau	schlecht	fanatisch	rächen	strafen	faul	schroff	1	blank2r.bmp	0	1	+	0	1	blank2r.bmp	500	1	GKQX	500	1	blank2r.bmp	880	5	lachen	880	1	!	1293	1	!	-1	0	0	0	0	0	0
2024-06-12	12:27:54	12:36:53	538590	6.6.1	4_exp_EVA_AWA_CON	83	B	A	Rpleas_acq	Same	Rpleas	2pleas	acq_US_pleas_nomask	acq3_nomask	3	2	453	0	300	300	0	0	250	50	1	0	helfen	treu	loyal	ehrlich	lachen	tolerant	hindern	tot	lasch	eitel	leiden	tyrannisch	schön	freundlich	retten	spielen	fair	schlau	schlecht	fanatisch	rächen	strafen	faul	schroff	1	blank2r.bmp	0	1	+	0	1	blank2r.bmp	500	1	GKQX	500	1	blank2r.bmp	880	6	tolerant	880	1	!	-1	1	!	-1	0	0	0	0	0	0
2024-06-12	12:27:54	12:36:55	540985	6.6.1	4_exp_EVA_AWA_CON	83	B	A	Rpleas_acq	Same	Rpleas	2pleas	acq_US_pleas_nomask	acq3_nomask	3	3	453	1	300	300	0	0	410	46	0	0	helfen	treu	loyal	ehrlich	lachen	tolerant	hindern	tot	lasch	eitel	leiden	tyrannisch	schön	freundlich	retten	spielen	fair	schlau	schlecht	fanatisch	rächen	strafen	faul	schroff	1	blank2r.bmp	0	1	+	0	1	blank2r.bmp	500	1	GKQX	500	1	blank2r.bmp	880	1	helfen	880	1	FEHLER	1604	1	!	1292	1	!	1312	0	0	0
2024-06-12	12:27:54	12:36:57	543101	6.6.1	4_exp_EVA_AWA_CON	83	B	A	Rpleas_acq	Same	Rpleas	2pleas	acq_US_pleas_nomask	acq3_nomask	3	4	453	0	300	300	0	0	539	50	1	0	helfen	treu	loyal	ehrlich	lachen	tolerant	hindern	tot	lasch	eitel	leiden	tyrannisch	schön	freundlich	retten	spielen	fair	schlau	schlecht	fanatisch	rächen	strafen	faul	schroff	1	blank2r.bmp	0	1	+	0	1	blank2r.bmp	500	1	GKQX	500	1	blank2r.bmp	880	2	treu	880	1	!	1293	1	!	-1	0	0	0	0	0	0
2024-06-12	12:27:54	12:36:59	545245	6.6.1	4_exp_EVA_AWA_CON	83	B	A	Rpleas_acq	Same	Rpleas	2pleas	acq_US_pleas_nomask	acq3_nomask	3	5	453	0	300	300	0	0	372	50	1	0	helfen	treu	loyal	ehrlich	lachen	tolerant	hindern	tot	lasch	eitel	leiden	tyrannisch	schön	freundlich	retten	spielen	fair	schlau	schlecht	fanatisch	rächen	strafen	faul	schroff	1	blank2r.bmp	0	1	+	0	1	blank2r.bmp	500	1	GKQX	500	1	blank2r.bmp	880	4	ehrlich	880	1	!	-1	1	!	-1	0	0	0	0	0	0
2024-06-12	12:27:54	12:37:02	547609	6.6.1	4_exp_EVA_AWA_CON	83	B	A	Rpleas_acq	Same	Rpleas	2pleas	acq_US_unple_nomask	acq3_nomask	3	6	453	0	300	300	0	0	380	50	0	0	helfen	treu	loyal	ehrlich	lachen	tolerant	hindern	tot	lasch	eitel	leiden	tyrannisch	schön	freundlich	retten	spielen	fair	schlau	schlecht	fanatisch	rächen	strafen	faul	schroff	1	blank2r.bmp	0	1	+	0	1	blank2r.bmp	500	1	BMVZ	500	1	blank2r.bmp	880	2	tot	880	1	FEHLER	1574	1	!	-1	1	!	-1	0	0	0
2024-06-12	12:27:54	12:37:04	549607	6.6.1	4_exp_EVA_AWA_CON	83	B	A	Rpleas_acq	Same	Rpleas	2pleas	acq_US_unple_nomask	acq3_nomask	3	7	453	1	300	300	0	0	419	46	1	0	helfen	treu	loyal	ehrlich	lachen	tolerant	hindern	tot	lasch	eitel	leiden	tyrannisch	schön	freundlich	retten	spielen	fair	schlau	schlecht	fanatisch	rächen	strafen	faul	schroff	1	blank2r.bmp	0	1	+	0	1	blank2r.bmp	500	1	BMVZ	500	1	blank2r.bmp	880	6	tyrannisch	880	1	!	1292	1	!	1320	0	0	0	0	0	0
2024-06-12	12:27:54	12:37:06	552040	6.6.1	4_exp_EVA_AWA_CON	83	B	A	Rpleas_acq	Same	Rpleas	2pleas	acq_US_unple_nomask	acq3_nomask	3	8	453	1	300	300	0	0	449	50	0	0	helfen	treu	loyal	ehrlich	lachen	tolerant	hindern	tot	lasch	eitel	leiden	tyrannisch	schön	freundlich	retten	spielen	fair	schlau	schlecht	fanatisch	rächen	strafen	faul	schroff	1	blank2r.bmp	0	1	+	0	1	blank2r.bmp	500	1	BMVZ	500	1	blank2r.bmp	880	3	lasch	880	1	FEHLER	1643	1	!	1293	1	!	1351	0	0	0
2024-06-12	12:27:54	12:37:08	554249	6.6.1	4_exp_EVA_AWA_CON	83	B	A	Rpleas_acq	Same	Rpleas	2pleas	acq_US_unple_nomask	acq3_nomask	3	9	453	1	300	300	0	0	426	50	0	0	helfen	treu	loyal	ehrlich	lachen	tolerant	hindern	tot	lasch	eitel	leiden	tyrannisch	schön	freundlich	retten	spielen	fair	schlau	schlecht	fanatisch	rächen	strafen	faul	schroff	1	blank2r.bmp	0	1	+	0	1	blank2r.bmp	500	1	BMVZ	500	1	blank2r.bmp	880	5	leiden	880	1	FEHLER	1620	1	!	1293	1	!	1328	0	0	0
2024-06-12	12:27:54	12:37:11	556464	6.6.1	4_exp_EVA_AWA_CON	83	B	A	Rpleas_acq	Same	Rpleas	2pleas	acq_US_unple_nomask	acq3_nomask	3	10	453	1	300	300	0	0	441	50	0	0	helfen	treu	loyal	ehrlich	lachen	tolerant	hindern	tot	lasch	eitel	leiden	tyrannisch	schön	freundlich	retten	spielen	fair	schlau	schlecht	fanatisch	rächen	strafen	faul	schroff	1	blank2r.bmp	0	1	+	0	1	blank2r.bmp	500	1	BMVZ	500	1	blank2r.bmp	880	4	eitel	880	1	FEHLER	1634	1	!	1293	1	!	1343	0	0	0
2024-06-12	12:27:54	12:37:13	558785	6.6.1	4_exp_EVA_AWA_CON	83	B	A	Rpleas_acq	Same	Rpleas	2pleas	acq_US_unple_nomask	acq3_nomask	3	11	453	0	300	300	0	0	539	50	0	0	helfen	treu	loyal	ehrlich	lachen	tolerant	hindern	tot	lasch	eitel	leiden	tyrannisch	schön	freundlich	retten	spielen	fair	schlau	schlecht	fanatisch	rächen	strafen	faul	schroff	1	blank2r.bmp	0	1	+	0	1	blank2r.bmp	500	1	BMVZ	500	1	blank2r.bmp	880	1	hindern	880	1	FEHLER	1733	1	!	1293	1	!	-1	0	0	0
2024-06-12	12:27:54	12:37:15	560917	6.6.1	4_exp_EVA_AWA_CON	83	B	A	Rpleas_acq	Same	Rpleas	2pleas	acq_US_pleas_nomask	acq3_nomask	3	12	453	0	300	300	0	0	564	50	1	0	helfen	treu	loyal	ehrlich	lachen	tolerant	hindern	tot	lasch	eitel	leiden	tyrannisch	schön	freundlich	retten	spielen	fair	schlau	schlecht	fanatisch	rächen	strafen	faul	schroff	1	blank2r.bmp	0	1	+	0	1	blank2r.bmp	500	1	GKQX	500	1	blank2r.bmp	880	3	loyal	880	1	!	1292	1	!	-1	0	0	0	0	0	0
2024-06-12	12:27:54	12:37:18	563344	6.6.1	4_exp_EVA_AWA_CON	83	B	A	Rpleas_acq	Same	Rpleas	2pleas	acq_US_pleas_nomask	acq3_nomask	3	13	453	1	300	300	0	0	446	46	0	0	helfen	treu	loyal	ehrlich	lachen	tolerant	hindern	tot	lasch	eitel	leiden	tyrannisch	schön	freundlich	retten	spielen	fair	schlau	schlecht	fanatisch	rächen	strafen	faul	schroff	1	blank2r.bmp	0	1	+	0	1	blank2r.bmp	500	1	GKQX	500	1	blank2r.bmp	880	2	treu	880	1	FEHLER	1639	1	!	1292	1	!	1347	0	0	0
2024-06-12	12:27:54	12:37:20	565613	6.6.1	4_exp_EVA_AWA_CON	83	B	A	Rpleas_acq	Same	Rpleas	2pleas	acq_US_pleas_nomask	acq3_nomask	3	14	453	0	300	300	0	0	697	50	1	0	helfen	treu	loyal	ehrlich	lachen	tolerant	hindern	tot	lasch	eitel	leiden	tyrannisch	schön	freundlich	retten	spielen	fair	schlau	schlecht	fanatisch	rächen	strafen	faul	schroff	1	blank2r.bmp	0	1	+	0	1	blank2r.bmp	500	1	GKQX	500	1	blank2r.bmp	880	3	loyal	880	1	!	1292	1	!	-1	0	0	0	0	0	0
2024-06-12	12:27:54	12:37:22	567957	6.6.1	4_exp_EVA_AWA_CON	83	B	A	Rpleas_acq	Same	Rpleas	2pleas	acq_US_unple_nomask	acq3_nomask	3	15	453	0	300	300	0	0	569	46	1	0	helfen	treu	loyal	ehrlich	lachen	tolerant	hindern	tot	lasch	eitel	leiden	tyrannisch	schön	freundlich	retten	spielen	fair	schlau	schlecht	fanatisch	rächen	strafen	faul	schroff	1	blank2r.bmp	0	1	+	0	1	blank2r.bmp	500	1	BMVZ	500	1	blank2r.bmp	880	5	leiden	880	1	!	1293	1	!	-1	0	0	0	0	0	0
2024-06-12	12:27:54	12:37:24	570251	6.6.1	4_exp_EVA_AWA_CON	83	B	A	Rpleas_acq	Same	Rpleas	2pleas	acq_US_pleas_nomask	acq3_nomask	3	16	453	0	300	300	0	0	523	50	1	0	helfen	treu	loyal	ehrlich	lachen	tolerant	hindern	tot	lasch	eitel	leiden	tyrannisch	schön	freundlich	retten	spielen	fair	schlau	schlecht	fanatisch	rächen	strafen	faul	schroff	1	blank2r.bmp	0	1	+	0	1	blank2r.bmp	500	1	GKQX	500	1	blank2r.bmp	880	1	helfen	880	1	!	1292	1	!	-1	0	0	0	0	0	0
2024-06-12	12:27:54	12:37:27	572622	6.6.1	4_exp_EVA_AWA_CON	83	B	A	Rpleas_acq	Same	Rpleas	2pleas	acq_US_pleas_nomask	acq3_nomask	3	17	453	0	300	300	0	0	590	50	1	0	helfen	treu	loyal	ehrlich	lachen	tolerant	hindern	tot	lasch	eitel	leiden	tyrannisch	schön	freundlich	retten	spielen	fair	schlau	schlecht	fanatisch	rächen	strafen	faul	schroff	1	blank2r.bmp	0	1	+	0	1	blank2r.bmp	500	1	GKQX	500	1	blank2r.bmp	880	6	tolerant	880	1	!	1293	1	!	-1	0	0	0	0	0	0
2024-06-12	12:27:54	12:37:29	574871	6.6.1	4_exp_EVA_AWA_CON	83	B	A	Rpleas_acq	Same	Rpleas	2pleas	acq_US_unple_nomask	acq3_nomask	3	18	453	1	300	300	0	0	467	46	1	0	helfen	treu	loyal	ehrlich	lachen	tolerant	hindern	tot	lasch	eitel	leiden	tyrannisch	schön	freundlich	retten	spielen	fair	schlau	schlecht	fanatisch	rächen	strafen	faul	schroff	1	blank2r.bmp	0	1	+	0	1	blank2r.bmp	500	1	BMVZ	500	1	blank2r.bmp	880	4	eitel	880	1	!	1292	1	!	1368	0	0	0	0	0	0
2024-06-12	12:27:54	12:37:31	577181	6.6.1	4_exp_EVA_AWA_CON	83	B	A	Rpleas_acq	Same	Rpleas	2pleas	acq_US_pleas_nomask	acq3_nomask	3	19	453	0	300	300	0	0	537	50	1	0	helfen	treu	loyal	ehrlich	lachen	tolerant	hindern	tot	lasch	eitel	leiden	tyrannisch	schön	freundlich	retten	spielen	fair	schlau	schlecht	fanatisch	rächen	strafen	faul	schroff	1	blank2r.bmp	0	1	+	0	1	blank2r.bmp	500	1	GKQX	500	1	blank2r.bmp	880	5	lachen	880	1	!	1293	1	!	-1	0	0	0	0	0	0
2024-06-12	12:27:54	12:37:34	579333	6.6.1	4_exp_EVA_AWA_CON	83	B	A	Rpleas_acq	Same	Rpleas	2pleas	acq_US_unple_nomask	acq3_nomask	3	20	453	0	300	300	0	0	378	46	1	0	helfen	treu	loyal	ehrlich	lachen	tolerant	hindern	tot	lasch	eitel	leiden	tyrannisch	schön	freundlich	retten	spielen	fair	schlau	schlecht	fanatisch	rächen	strafen	faul	schroff	1	blank2r.bmp	0	1	+	0	1	blank2r.bmp	500	1	BMVZ	500	1	blank2r.bmp	880	2	tot	880	1	!	-1	1	!	-1	0	0	0	0	0	0
2024-06-12	12:27:54	12:37:36	581551	6.6.1	4_exp_EVA_AWA_CON	83	B	A	Rpleas_acq	Same	Rpleas	2pleas	acq_US_unple_nomask	acq3_nomask	3	21	453	1	300	300	0	0	442	46	1	0	helfen	treu	loyal	ehrlich	lachen	tolerant	hindern	tot	lasch	eitel	leiden	tyrannisch	schön	freundlich	retten	spielen	fair	schlau	schlecht	fanatisch	rächen	strafen	faul	schroff	1	blank2r.bmp	0	1	+	0	1	blank2r.bmp	500	1	BMVZ	500	1	blank2r.bmp	880	1	hindern	880	1	!	1292	1	!	1344	0	0	0	0	0	0
2024-06-12	12:27:54	12:37:38	583921	6.6.1	4_exp_EVA_AWA_CON	83	B	A	Rpleas_acq	Same	Rpleas	2pleas	acq_US_unple_nomask	acq3_nomask	3	22	453	0	300	300	0	0	389	50	0	0	helfen	treu	loyal	ehrlich	lachen	tolerant	hindern	tot	lasch	eitel	leiden	tyrannisch	schön	freundlich	retten	spielen	fair	schlau	schlecht	fanatisch	rächen	strafen	faul	schroff	1	blank2r.bmp	0	1	+	0	1	blank2r.bmp	500	1	BMVZ	500	1	blank2r.bmp	880	3	lasch	880	1	FEHLER	1583	1	!	-1	1	!	-1	0	0	0
2024-06-12	12:27:54	12:37:40	585975	6.6.1	4_exp_EVA_AWA_CON	83	B	A	Rpleas_acq	Same	Rpleas	2pleas	acq_US_unple_nomask	acq3_nomask	3	23	453	1	300	300	0	0	483	46	1	0	helfen	treu	loyal	ehrlich	lachen	tolerant	hindern	tot	lasch	eitel	leiden	tyrannisch	schön	freundlich	retten	spielen	fair	schlau	schlecht	fanatisch	rächen	strafen	faul	schroff	1	blank2r.bmp	0	1	+	0	1	blank2r.bmp	500	1	BMVZ	500	1	blank2r.bmp	880	6	tyrannisch	880	1	!	1292	1	!	1385	0	0	0	0	0	0
2024-06-12	12:27:54	12:37:42	588199	6.6.1	4_exp_EVA_AWA_CON	83	B	A	Rpleas_acq	Same	Rpleas	2pleas	acq_US_pleas_nomask	acq3_nomask	3	24	453	1	300	300	0	0	446	50	1	0	helfen	treu	loyal	ehrlich	lachen	tolerant	hindern	tot	lasch	eitel	leiden	tyrannisch	schön	freundlich	retten	spielen	fair	schlau	schlecht	fanatisch	rächen	strafen	faul	schroff	1	blank2r.bmp	0	1	+	0	1	blank2r.bmp	500	1	GKQX	500	1	blank2r.bmp	880	4	ehrlich	880	1	!	1292	1	!	1347	0	0	0	0	0	0
2024-06-12	12:27:54	12:37:45	590439	6.6.1	4_exp_EVA_AWA_CON	83	B	A	Rpleas_acq	Same	Rpleas	2pleas	acq_US_unple_nomask	acq3_nomask	3	25	453	1	300	300	0	0	465	46	1	0	helfen	treu	loyal	ehrlich	lachen	tolerant	hindern	tot	lasch	eitel	leiden	tyrannisch	schön	freundlich	retten	spielen	fair	schlau	schlecht	fanatisch	rächen	strafen	faul	schroff	1	blank2r.bmp	0	1	+	0	1	blank2r.bmp	500	1	BMVZ	500	1	blank2r.bmp	880	2	tot	880	1	!	1292	1	!	1366	0	0	0	0	0	0
2024-06-12	12:27:54	12:37:47	592801	6.6.1	4_exp_EVA_AWA_CON	83	B	A	Rpleas_acq	Same	Rpleas	2pleas	acq_US_pleas_nomask	acq3_nomask	3	26	453	0	300	300	0	0	383	46	0	0	helfen	treu	loyal	ehrlich	lachen	tolerant	hindern	tot	lasch	eitel	leiden	tyrannisch	schön	freundlich	retten	spielen	fair	schlau	schlecht	fanatisch	rächen	strafen	faul	schroff	1	blank2r.bmp	0	1	+	0	1	blank2r.bmp	500	1	GKQX	500	1	blank2r.bmp	880	3	loyal	880	1	FEHLER	1577	1	!	-1	1	!	-1	0	0	0
2024-06-12	12:27:54	12:37:49	594992	6.6.1	4_exp_EVA_AWA_CON	83	B	A	Rpleas_acq	Same	Rpleas	2pleas	acq_US_pleas_nomask	acq3_nomask	3	27	453	1	300	300	0	0	414	46	0	0	helfen	treu	loyal	ehrlich	lachen	tolerant	hindern	tot	lasch	eitel	leiden	tyrannisch	schön	freundlich	retten	spielen	fair	schlau	schlecht	fanatisch	rächen	strafen	faul	schroff	1	blank2r.bmp	0	1	+	0	1	blank2r.bmp	500	1	GKQX	500	1	blank2r.bmp	880	6	tolerant	880	1	FEHLER	1607	1	!	1293	1	!	1315	0	0	0
2024-06-12	12:27:54	12:37:51	597071	6.6.1	4_exp_EVA_AWA_CON	83	B	A	Rpleas_acq	Same	Rpleas	2pleas	acq_US_pleas_nomask	acq3_nomask	3	28	453	1	300	300	0	0	502	50	1	0	helfen	treu	loyal	ehrlich	lachen	tolerant	hindern	tot	lasch	eitel	leiden	tyrannisch	schön	freundlich	retten	spielen	fair	schlau	schlecht	fanatisch	rächen	strafen	faul	schroff	1	blank2r.bmp	0	1	+	0	1	blank2r.bmp	500	1	GKQX	500	1	blank2r.bmp	880	1	helfen	880	1	!	1292	1	!	1404	0	0	0	0	0	0
2024-06-12	12:27:54	12:37:54	599413	6.6.1	4_exp_EVA_AWA_CON	83	B	A	Rpleas_acq	Same	Rpleas	2pleas	acq_US_unple_nomask	acq3_nomask	3	29	453	0	300	300	0	0	565	46	1	0	helfen	treu	loyal	ehrlich	lachen	tolerant	hindern	tot	lasch	eitel	leiden	tyrannisch	schön	freundlich	retten	spielen	fair	schlau	schlecht	fanatisch	rächen	strafen	faul	schroff	1	blank2r.bmp	0	1	+	0	1	blank2r.bmp	500	1	BMVZ	500	1	blank2r.bmp	880	3	lasch	880	1	!	1292	1	!	-1	0	0	0	0	0	0
2024-06-12	12:27:54	12:37:56	601761	6.6.1	4_exp_EVA_AWA_CON	83	B	A	Rpleas_acq	Same	Rpleas	2pleas	acq_US_pleas_nomask	acq3_nomask	3	30	453	0	300	300	0	0	367	46	0	0	helfen	treu	loyal	ehrlich	lachen	tolerant	hindern	tot	lasch	eitel	leiden	tyrannisch	schön	freundlich	retten	spielen	fair	schlau	schlecht	fanatisch	rächen	strafen	faul	schroff	1	blank2r.bmp	0	1	+	0	1	blank2r.bmp	500	1	GKQX	500	1	blank2r.bmp	880	2	treu	880	1	FEHLER	1562	1	!	-1	1	!	-1	0	0	0
2024-06-12	12:27:54	12:37:58	603847	6.6.1	4_exp_EVA_AWA_CON	83	B	A	Rpleas_acq	Same	Rpleas	2pleas	acq_US_unple_nomask	acq3_nomask	3	31	453	1	300	300	0	0	514	46	1	0	helfen	treu	loyal	ehrlich	lachen	tolerant	hindern	tot	lasch	eitel	leiden	tyrannisch	schön	freundlich	retten	spielen	fair	schlau	schlecht	fanatisch	rächen	strafen	faul	schroff	1	blank2r.bmp	0	1	+	0	1	blank2r.bmp	500	1	BMVZ	500	1	blank2r.bmp	880	5	leiden	880	1	!	1292	1	!	1415	0	0	0	0	0	0
2024-06-12	12:27:54	12:38:00	606031	6.6.1	4_exp_EVA_AWA_CON	83	B	A	Rpleas_acq	Same	Rpleas	2pleas	acq_US_unple_nomask	acq3_nomask	3	32	453	1	300	300	0	0	407	46	1	0	helfen	treu	loyal	ehrlich	lachen	tolerant	hindern	tot	lasch	eitel	leiden	tyrannisch	schön	freundlich	retten	spielen	fair	schlau	schlecht	fanatisch	rächen	strafen	faul	schroff	1	blank2r.bmp	0	1	+	0	1	blank2r.bmp	500	1	BMVZ	500	1	blank2r.bmp	880	1	hindern	880	1	!	1293	1	!	1308	0	0	0	0	0	0
2024-06-12	12:27:54	12:38:03	608325	6.6.1	4_exp_EVA_AWA_CON	83	B	A	Rpleas_acq	Same	Rpleas	2pleas	acq_US_unple_nomask	acq3_nomask	3	33	453	0	300	300	0	0	523	46	1	0	helfen	treu	loyal	ehrlich	lachen	tolerant	hindern	tot	lasch	eitel	leiden	tyrannisch	schön	freundlich	retten	spielen	fair	schlau	schlecht	fanatisch	rächen	strafen	faul	schroff	1	blank2r.bmp	0	1	+	0	1	blank2r.bmp	500	1	BMVZ	500	1	blank2r.bmp	880	4	eitel	880	1	!	1293	1	!	-1	0	0	0	0	0	0
2024-06-12	12:27:54	12:38:05	610696	6.6.1	4_exp_EVA_AWA_CON	83	B	A	Rpleas_acq	Same	Rpleas	2pleas	acq_US_pleas_nomask	acq3_nomask	3	34	453	0	300	300	0	0	388	46	0	0	helfen	treu	loyal	ehrlich	lachen	tolerant	hindern	tot	lasch	eitel	leiden	tyrannisch	schön	freundlich	retten	spielen	fair	schlau	schlecht	fanatisch	rächen	strafen	faul	schroff	1	blank2r.bmp	0	1	+	0	1	blank2r.bmp	500	1	GKQX	500	1	blank2r.bmp	880	4	ehrlich	880	1	FEHLER	1581	1	!	-1	1	!	-1	0	0	0
2024-06-12	12:27:54	12:38:07	613021	6.6.1	4_exp_EVA_AWA_CON	83	B	A	Rpleas_acq	Same	Rpleas	2pleas	acq_US_unple_nomask	acq3_nomask	3	35	453	0	300	300	0	0	754	46	1	0	helfen	treu	loyal	ehrlich	lachen	tolerant	hindern	tot	lasch	eitel	leiden	tyrannisch	schön	freundlich	retten	spielen	fair	schlau	schlecht	fanatisch	rächen	strafen	faul	schroff	1	blank2r.bmp	0	1	+	0	1	blank2r.bmp	500	1	BMVZ	500	1	blank2r.bmp	880	6	tyrannisch	880	1	!	1292	1	!	-1	0	0	0	0	0	0
2024-06-12	12:27:54	12:38:09	615303	6.6.1	4_exp_EVA_AWA_CON	83	B	A	Rpleas_acq	Same	Rpleas	2pleas	acq_US_pleas_nomask	acq3_nomask	3	36	453	1	300	300	0	0	503	50	1	0	helfen	treu	loyal	ehrlich	lachen	tolerant	hindern	tot	lasch	eitel	leiden	tyrannisch	schön	freundlich	retten	spielen	fair	schlau	schlecht	fanatisch	rächen	strafen	faul	schroff	1	blank2r.bmp	0	1	+	0	1	blank2r.bmp	500	1	GKQX	500	1	blank2r.bmp	880	5	lachen	880	1	!	1292	1	!	1404	0	0	0	0	0	0
2024-06-12	12:27:54	12:38:29	635109	6.6.1	4_exp_EVA_AWA_CON	83	B	A	Rpleas_acq	Same	Rpleas	2pleas	acq_US_pleas_nomask	acq45_nomask	4	1	400	0	300	300	0	0	2419	50	1	0	helfen	treu	loyal	ehrlich	lachen	tolerant	hindern	tot	lasch	eitel	leiden	tyrannisch	schön	freundlich	retten	spielen	fair	schlau	schlecht	fanatisch	rächen	strafen	faul	schroff	1	blank2r.bmp	0	1	+	0	1	blank2r.bmp	500	1	GKQX	500	1	blank2r.bmp	880	2	treu	880	1	!	1232	1	!	-1	0	0	0	0	0	0
2024-06-12	12:27:54	12:38:32	637311	6.6.1	4_exp_EVA_AWA_CON	83	B	A	Rpleas_acq	Same	Rpleas	2pleas	acq_US_unple_nomask	acq45_nomask	4	2	400	1	300	300	0	0	427	46	1	0	helfen	treu	loyal	ehrlich	lachen	tolerant	hindern	tot	lasch	eitel	leiden	tyrannisch	schön	freundlich	retten	spielen	fair	schlau	schlecht	fanatisch	rächen	strafen	faul	schroff	1	blank2r.bmp	0	1	+	0	1	blank2r.bmp	500	1	BMVZ	500	1	blank2r.bmp	880	6	tyrannisch	880	1	!	1232	1	!	1328	0	0	0	0	0	0
2024-06-12	12:27:54	12:38:34	639543	6.6.1	4_exp_EVA_AWA_CON	83	B	A	Rpleas_acq	Same	Rpleas	2pleas	acq_US_unple_nomask	acq45_nomask	4	3	400	1	300	300	0	0	457	46	1	0	helfen	treu	loyal	ehrlich	lachen	tolerant	hindern	tot	lasch	eitel	leiden	tyrannisch	schön	freundlich	retten	spielen	fair	schlau	schlecht	fanatisch	rächen	strafen	faul	schroff	1	blank2r.bmp	0	1	+	0	1	blank2r.bmp	500	1	BMVZ	500	1	blank2r.bmp	880	2	tot	880	1	!	1232	1	!	1359	0	0	0	0	0	0
2024-06-12	12:27:54	12:38:36	641719	6.6.1	4_exp_EVA_AWA_CON	83	B	A	Rpleas_acq	Same	Rpleas	2pleas	acq_US_unple_nomask	acq45_nomask	4	4	400	1	300	300	0	0	402	46	1	0	helfen	treu	loyal	ehrlich	lachen	tolerant	hindern	tot	lasch	eitel	leiden	tyrannisch	schön	freundlich	retten	spielen	fair	schlau	schlecht	fanatisch	rächen	strafen	faul	schroff	1	blank2r.bmp	0	1	+	0	1	blank2r.bmp	500	1	BMVZ	500	1	blank2r.bmp	880	4	eitel	880	1	!	1232	1	!	1303	0	0	0	0	0	0
2024-06-12	12:27:54	12:38:38	643911	6.6.1	4_exp_EVA_AWA_CON	83	B	A	Rpleas_acq	Same	Rpleas	2pleas	acq_US_unple_nomask	acq45_nomask	4	5	400	1	300	300	0	0	412	50	0	0	helfen	treu	loyal	ehrlich	lachen	tolerant	hindern	tot	lasch	eitel	leiden	tyrannisch	schön	freundlich	retten	spielen	fair	schlau	schlecht	fanatisch	rächen	strafen	faul	schroff	1	blank2r.bmp	0	1	+	0	1	blank2r.bmp	500	1	BMVZ	500	1	blank2r.bmp	880	1	hindern	880	1	!	1232	1	!	1314	0	0	0	0	0	0
2024-06-12	12:27:54	12:38:40	646197	6.6.1	4_exp_EVA_AWA_CON	83	B	A	Rpleas_acq	Same	Rpleas	2pleas	acq_US_pleas_nomask	acq45_nomask	4	6	400	0	300	300	0	0	509	46	0	0	helfen	treu	loyal	ehrlich	lachen	tolerant	hindern	tot	lasch	eitel	leiden	tyrannisch	schön	freundlich	retten	spielen	fair	schlau	schlecht	fanatisch	rächen	strafen	faul	schroff	1	blank2r.bmp	0	1	+	0	1	blank2r.bmp	500	1	GKQX	500	1	blank2r.bmp	880	6	tolerant	880	1	!	1233	1	!	-1	0	0	0	0	0	0
2024-06-12	12:27:54	12:38:43	648391	6.6.1	4_exp_EVA_AWA_CON	83	B	A	Rpleas_acq	Same	Rpleas	2pleas	acq_US_pleas_nomask	acq45_nomask	4	7	400	1	300	300	0	0	409	50	1	0	helfen	treu	loyal	ehrlich	lachen	tolerant	hindern	tot	lasch	eitel	leiden	tyrannisch	schön	freundlich	retten	spielen	fair	schlau	schlecht	fanatisch	rächen	strafen	faul	schroff	1	blank2r.bmp	0	1	+	0	1	blank2r.bmp	500	1	GKQX	500	1	blank2r.bmp	880	3	loyal	880	1	!	1232	1	!	1311	0	0	0	0	0	0
2024-06-12	12:27:54	12:38:45	650559	6.6.1	4_exp_EVA_AWA_CON	83	B	A	Rpleas_acq	Same	Rpleas	2pleas	acq_US_unple_nomask	acq45_nomask	4	8	400	1	300	300	0	0	386	46	1	0	helfen	treu	loyal	ehrlich	lachen	tolerant	hindern	tot	lasch	eitel	leiden	tyrannisch	schön	freundlich	retten	spielen	fair	schlau	schlecht	fanatisch	rächen	strafen	faul	schroff	1	blank2r.bmp	0	1	+	0	1	blank2r.bmp	500	1	BMVZ	500	1	blank2r.bmp	880	3	lasch	880	1	!	1232	1	!	1287	0	0	0	0	0	0
2024-06-12	12:27:54	12:38:47	652869	6.6.1	4_exp_EVA_AWA_CON	83	B	A	Rpleas_acq	Same	Rpleas	2pleas	acq_US_pleas_nomask	acq45_nomask	4	9	400	0	300	300	0	0	536	50	1	0	helfen	treu	loyal	ehrlich	lachen	tolerant	hindern	tot	lasch	eitel	leiden	tyrannisch	schön	freundlich	retten	spielen	fair	schlau	schlecht	fanatisch	rächen	strafen	faul	schroff	1	blank2r.bmp	0	1	+	0	1	blank2r.bmp	500	1	GKQX	500	1	blank2r.bmp	880	4	ehrlich	880	1	!	1232	1	!	-1	0	0	0	0	0	0
2024-06-12	12:27:54	12:38:49	655149	6.6.1	4_exp_EVA_AWA_CON	83	B	A	Rpleas_acq	Same	Rpleas	2pleas	acq_US_unple_nomask	acq45_nomask	4	10	400	0	300	300	0	0	505	46	1	0	helfen	treu	loyal	ehrlich	lachen	tolerant	hindern	tot	lasch	eitel	leiden	tyrannisch	schön	freundlich	retten	spielen	fair	schlau	schlecht	fanatisch	rächen	strafen	faul	schroff	1	blank2r.bmp	0	1	+	0	1	blank2r.bmp	500	1	BMVZ	500	1	blank2r.bmp	880	5	leiden	880	1	!	1233	1	!	-1	0	0	0	0	0	0
2024-06-12	12:27:54	12:38:52	657383	6.6.1	4_exp_EVA_AWA_CON	83	B	A	Rpleas_acq	Same	Rpleas	2pleas	acq_US_pleas_nomask	acq45_nomask	4	11	400	1	300	300	0	0	456	50	1	0	helfen	treu	loyal	ehrlich	lachen	tolerant	hindern	tot	lasch	eitel	leiden	tyrannisch	schön	freundlich	retten	spielen	fair	schlau	schlecht	fanatisch	rächen	strafen	faul	schroff	1	blank2r.bmp	0	1	+	0	1	blank2r.bmp	500	1	GKQX	500	1	blank2r.bmp	880	1	helfen	880	1	!	1232	1	!	1357	0	0	0	0	0	0
2024-06-12	12:27:54	12:38:54	659615	6.6.1	4_exp_EVA_AWA_CON	83	B	A	Rpleas_acq	Same	Rpleas	2pleas	acq_US_unple_nomask	acq45_nomask	4	12	400	1	300	300	0	0	456	46	1	0	helfen	treu	loyal	ehrlich	lachen	tolerant	hindern	tot	lasch	eitel	leiden	tyrannisch	schön	freundlich	retten	spielen	fair	schlau	schlecht	fanatisch	rächen	strafen	faul	schroff	1	blank2r.bmp	0	1	+	0	1	blank2r.bmp	500	1	BMVZ	500	1	blank2r.bmp	880	3	lasch	880	1	!	1232	1	!	1358	0	0	0	0	0	0
2024-06-12	12:27:54	12:38:56	661847	6.6.1	4_exp_EVA_AWA_CON	83	B	A	Rpleas_acq	Same	Rpleas	2pleas	acq_US_pleas_nomask	acq45_nomask	4	13	400	1	300	300	0	0	457	50	1	0	helfen	treu	loyal	ehrlich	lachen	tolerant	hindern	tot	lasch	eitel	leiden	tyrannisch	schön	freundlich	retten	spielen	fair	schlau	schlecht	fanatisch	rächen	strafen	faul	schroff	1	blank2r.bmp	0	1	+	0	1	blank2r.bmp	500	1	GKQX	500	1	blank2r.bmp	880	5	lachen	880	1	!	1232	1	!	1358	0	0	0	0	0	0
2024-06-12	12:27:54	12:38:58	664015	6.6.1	4_exp_EVA_AWA_CON	83	B	A	Rpleas_acq	Same	Rpleas	2pleas	acq_US_pleas_nomask	acq45_nomask	4	14	400	1	300	300	0	0	383	46	0	0	helfen	treu	loyal	ehrlich	lachen	tolerant	hindern	tot	lasch	eitel	leiden	tyrannisch	schön	freundlich	retten	spielen	fair	schlau	schlecht	fanatisch	rächen	strafen	faul	schroff	1	blank2r.bmp	0	1	+	0	1	blank2r.bmp	500	1	GKQX	500	1	blank2r.bmp	880	6	tolerant	880	1	!	1232	1	!	1285	0	0	0	0	0	0
2024-06-12	12:27:54	12:39:00	666255	6.6.1	4_exp_EVA_AWA_CON	83	B	A	Rpleas_acq	Same	Rpleas	2pleas	acq_US_pleas_nomask	acq45_nomask	4	15	400	1	300	300	0	0	462	50	1	0	helfen	treu	loyal	ehrlich	lachen	tolerant	hindern	tot	lasch	eitel	leiden	tyrannisch	schön	freundlich	retten	spielen	fair	schlau	schlecht	fanatisch	rächen	strafen	faul	schroff	1	blank2r.bmp	0	1	+	0	1	blank2r.bmp	500	1	GKQX	500	1	blank2r.bmp	880	2	treu	880	1	!	1232	1	!	1363	0	0	0	0	0	0
2024-06-12	12:27:54	12:39:03	668495	6.6.1	4_exp_EVA_AWA_CON	83	B	A	Rpleas_acq	Same	Rpleas	2pleas	acq_US_unple_nomask	acq45_nomask	4	16	400	1	300	300	0	0	461	46	1	0	helfen	treu	loyal	ehrlich	lachen	tolerant	hindern	tot	lasch	eitel	leiden	tyrannisch	schön	freundlich	retten	spielen	fair	schlau	schlecht	fanatisch	rächen	strafen	faul	schroff	1	blank2r.bmp	0	1	+	0	1	blank2r.bmp	500	1	BMVZ	500	1	blank2r.bmp	880	1	hindern	880	1	!	1232	1	!	1362	0	0	0	0	0	0
2024-06-12	12:27:54	12:39:05	670743	6.6.1	4_exp_EVA_AWA_CON	83	B	A	Rpleas_acq	Same	Rpleas	2pleas	acq_US_unple_nomask	acq45_nomask	4	17	400	1	300	300	0	0	467	46	1	0	helfen	treu	loyal	ehrlich	lachen	tolerant	hindern	tot	lasch	eitel	leiden	tyrannisch	schön	freundlich	retten	spielen	fair	schlau	schlecht	fanatisch	rächen	strafen	faul	schroff	1	blank2r.bmp	0	1	+	0	1	blank2r.bmp	500	1	BMVZ	500	1	blank2r.bmp	880	5	leiden	880	1	!	1232	1	!	1369	0	0	0	0	0	0
2024-06-12	12:27:54	12:39:07	672951	6.6.1	4_exp_EVA_AWA_CON	83	B	A	Rpleas_acq	Same	Rpleas	2pleas	acq_US_pleas_nomask	acq45_nomask	4	18	400	1	300	300	0	0	434	50	1	0	helfen	treu	loyal	ehrlich	lachen	tolerant	hindern	tot	lasch	eitel	leiden	tyrannisch	schön	freundlich	retten	spielen	fair	schlau	schlecht	fanatisch	rächen	strafen	faul	schroff	1	blank2r.bmp	0	1	+	0	1	blank2r.bmp	500	1	GKQX	500	1	blank2r.bmp	880	1	helfen	880	1	!	1232	1	!	1335	0	0	0	0	0	0
2024-06-12	12:27:54	12:39:09	675079	6.6.1	4_exp_EVA_AWA_CON	83	B	A	Rpleas_acq	Same	Rpleas	2pleas	acq_US_unple_nomask	acq45_nomask	4	19	400	1	300	300	0	0	350	46	1	0	helfen	treu	loyal	ehrlich	lachen	tolerant	hindern	tot	lasch	eitel	leiden	tyrannisch	schön	freundlich	retten	spielen	fair	schlau	schlecht	fanatisch	rächen	strafen	faul	schroff	1	blank2r.bmp	0	1	+	0	1	blank2r.bmp	500	1	BMVZ	500	1	blank2r.bmp	880	4	eitel	880	1	!	1232	1	!	1252	0	0	0	0	0	0
2024-06-12	12:27:54	12:39:12	677319	6.6.1	4_exp_EVA_AWA_CON	83	B	A	Rpleas_acq	Same	Rpleas	2pleas	acq_US_pleas_nomask	acq45_nomask	4	20	400	1	300	300	0	0	459	50	1	0	helfen	treu	loyal	ehrlich	lachen	tolerant	hindern	tot	lasch	eitel	leiden	tyrannisch	schön	freundlich	retten	spielen	fair	schlau	schlecht	fanatisch	rächen	strafen	faul	schroff	1	blank2r.bmp	0	1	+	0	1	blank2r.bmp	500	1	GKQX	500	1	blank2r.bmp	880	4	ehrlich	880	1	!	1232	1	!	1360	0	0	0	0	0	0
2024-06-12	12:27:54	12:39:14	679413	6.6.1	4_exp_EVA_AWA_CON	83	B	A	Rpleas_acq	Same	Rpleas	2pleas	acq_US_pleas_nomask	acq45_nomask	4	21	400	0	300	300	0	0	313	46	0	0	helfen	treu	loyal	ehrlich	lachen	tolerant	hindern	tot	lasch	eitel	leiden	tyrannisch	schön	freundlich	retten	spielen	fair	schlau	schlecht	fanatisch	rächen	strafen	faul	schroff	1	blank2r.bmp	0	1	+	0	1	blank2r.bmp	500	1	GKQX	500	1	blank2r.bmp	880	5	lachen	880	1	!	-1	1	!	-1	0	0	0	0	0	0
2024-06-12	12:27:54	12:39:16	681599	6.6.1	4_exp_EVA_AWA_CON	83	B	A	Rpleas_acq	Same	Rpleas	2pleas	acq_US_pleas_nomask	acq45_nomask	4	22	400	1	300	300	0	0	406	46	0	0	helfen	treu	loyal	ehrlich	lachen	tolerant	hindern	tot	lasch	eitel	leiden	tyrannisch	schön	freundlich	retten	spielen	fair	schlau	schlecht	fanatisch	rächen	strafen	faul	schroff	1	blank2r.bmp	0	1	+	0	1	blank2r.bmp	500	1	GKQX	500	1	blank2r.bmp	880	3	loyal	880	1	!	1232	1	!	1308	0	0	0	0	0	0
2024-06-12	12:27:54	12:39:18	683901	6.6.1	4_exp_EVA_AWA_CON	83	B	A	Rpleas_acq	Same	Rpleas	2pleas	acq_US_unple_nomask	acq45_nomask	4	23	400	0	300	300	0	0	529	46	1	0	helfen	treu	loyal	ehrlich	lachen	tolerant	hindern	tot	lasch	eitel	leiden	tyrannisch	schön	freundlich	retten	spielen	fair	schlau	schlecht	fanatisch	rächen	strafen	faul	schroff	1	blank2r.bmp	0	1	+	0	1	blank2r.bmp	500	1	BMVZ	500	1	blank2r.bmp	880	2	tot	880	1	!	1232	1	!	-1	0	0	0	0	0	0
2024-06-12	12:27:54	12:39:20	686055	6.6.1	4_exp_EVA_AWA_CON	83	B	A	Rpleas_acq	Same	Rpleas	2pleas	acq_US_unple_nomask	acq45_nomask	4	24	400	1	300	300	0	0	379	46	1	0	helfen	treu	loyal	ehrlich	lachen	tolerant	hindern	tot	lasch	eitel	leiden	tyrannisch	schön	freundlich	retten	spielen	fair	schlau	schlecht	fanatisch	rächen	strafen	faul	schroff	1	blank2r.bmp	0	1	+	0	1	blank2r.bmp	500	1	BMVZ	500	1	blank2r.bmp	880	6	tyrannisch	880	1	!	1232	1	!	1281	0	0	0	0	0	0
2024-06-12	12:27:54	12:39:22	688231	6.6.1	4_exp_EVA_AWA_CON	83	B	A	Rpleas_acq	Same	Rpleas	2pleas	acq_US_pleas_nomask	acq45_nomask	4	25	400	1	300	300	0	0	394	50	1	0	helfen	treu	loyal	ehrlich	lachen	tolerant	hindern	tot	lasch	eitel	leiden	tyrannisch	schön	freundlich	retten	spielen	fair	schlau	schlecht	fanatisch	rächen	strafen	faul	schroff	1	blank2r.bmp	0	1	+	0	1	blank2r.bmp	500	1	GKQX	500	1	blank2r.bmp	880	3	loyal	880	1	!	1232	1	!	1295	0	0	0	0	0	0
2024-06-12	12:27:54	12:39:25	690455	6.6.1	4_exp_EVA_AWA_CON	83	B	A	Rpleas_acq	Same	Rpleas	2pleas	acq_US_unple_nomask	acq45_nomask	4	26	400	1	300	300	0	0	446	46	1	0	helfen	treu	loyal	ehrlich	lachen	tolerant	hindern	tot	lasch	eitel	leiden	tyrannisch	schön	freundlich	retten	spielen	fair	schlau	schlecht	fanatisch	rächen	strafen	faul	schroff	1	blank2r.bmp	0	1	+	0	1	blank2r.bmp	500	1	BMVZ	500	1	blank2r.bmp	880	4	eitel	880	1	!	1232	1	!	1348	0	0	0	0	0	0
2024-06-12	12:27:54	12:39:27	692615	6.6.1	4_exp_EVA_AWA_CON	83	B	A	Rpleas_acq	Same	Rpleas	2pleas	acq_US_pleas_nomask	acq45_nomask	4	27	400	1	300	300	0	0	385	50	1	0	helfen	treu	loyal	ehrlich	lachen	tolerant	hindern	tot	lasch	eitel	leiden	tyrannisch	schön	freundlich	retten	spielen	fair	schlau	schlecht	fanatisch	rächen	strafen	faul	schroff	1	blank2r.bmp	0	1	+	0	1	blank2r.bmp	500	1	GKQX	500	1	blank2r.bmp	880	2	treu	880	1	!	1232	1	!	1286	0	0	0	0	0	0
2024-06-12	12:27:54	12:39:29	694799	6.6.1	4_exp_EVA_AWA_CON	83	B	A	Rpleas_acq	Same	Rpleas	2pleas	acq_US_unple_nomask	acq45_nomask	4	28	400	1	300	300	0	0	408	46	1	0	helfen	treu	loyal	ehrlich	lachen	tolerant	hindern	tot	lasch	eitel	leiden	tyrannisch	schön	freundlich	retten	spielen	fair	schlau	schlecht	fanatisch	rächen	strafen	faul	schroff	1	blank2r.bmp	0	1	+	0	1	blank2r.bmp	500	1	BMVZ	500	1	blank2r.bmp	880	6	tyrannisch	880	1	!	1233	1	!	1309	0	0	0	0	0	0
2024-06-12	12:27:54	12:39:31	696975	6.6.1	4_exp_EVA_AWA_CON	83	B	A	Rpleas_acq	Same	Rpleas	2pleas	acq_US_unple_nomask	acq45_nomask	4	29	400	1	300	300	0	0	392	50	0	0	helfen	treu	loyal	ehrlich	lachen	tolerant	hindern	tot	lasch	eitel	leiden	tyrannisch	schön	freundlich	retten	spielen	fair	schlau	schlecht	fanatisch	rächen	strafen	faul	schroff	1	blank2r.bmp	0	1	+	0	1	blank2r.bmp	500	1	BMVZ	500	1	blank2r.bmp	880	5	leiden	880	1	!	1232	1	!	1294	0	0	0	0	0	0
2024-06-12	12:27:54	12:39:33	699245	6.6.1	4_exp_EVA_AWA_CON	83	B	A	Rpleas_acq	Same	Rpleas	2pleas	acq_US_unple_nomask	acq45_nomask	4	30	400	0	300	300	0	0	493	46	1	0	helfen	treu	loyal	ehrlich	lachen	tolerant	hindern	tot	lasch	eitel	leiden	tyrannisch	schön	freundlich	retten	spielen	fair	schlau	schlecht	fanatisch	rächen	strafen	faul	schroff	1	blank2r.bmp	0	1	+	0	1	blank2r.bmp	500	1	BMVZ	500	1	blank2r.bmp	880	3	lasch	880	1	!	1232	1	!	-1	0	0	0	0	0	0
2024-06-12	12:27:54	12:39:36	701431	6.6.1	4_exp_EVA_AWA_CON	83	B	A	Rpleas_acq	Same	Rpleas	2pleas	acq_US_pleas_nomask	acq45_nomask	4	31	400	1	300	300	0	0	405	50	1	0	helfen	treu	loyal	ehrlich	lachen	tolerant	hindern	tot	lasch	eitel	leiden	tyrannisch	schön	freundlich	retten	spielen	fair	schlau	schlecht	fanatisch	rächen	strafen	faul	schroff	1	blank2r.bmp	0	1	+	0	1	blank2r.bmp	500	1	GKQX	500	1	blank2r.bmp	880	5	lachen	880	1	!	1232	1	!	1307	0	0	0	0	0	0
2024-06-12	12:27:54	12:39:38	703567	6.6.1	4_exp_EVA_AWA_CON	83	B	A	Rpleas_acq	Same	Rpleas	2pleas	acq_US_unple_nomask	acq45_nomask	4	32	400	1	300	300	0	0	360	46	1	0	helfen	treu	loyal	ehrlich	lachen	tolerant	hindern	tot	lasch	eitel	leiden	tyrannisch	schön	freundlich	retten	spielen	fair	schlau	schlecht	fanatisch	rächen	strafen	faul	schroff	1	blank2r.bmp	0	1	+	0	1	blank2r.bmp	500	1	BMVZ	500	1	blank2r.bmp	880	1	hindern	880	1	!	1232	1	!	1262	0	0	0	0	0	0
2024-06-12	12:27:54	12:39:40	705838	6.6.1	4_exp_EVA_AWA_CON	83	B	A	Rpleas_acq	Same	Rpleas	2pleas	acq_US_unple_nomask	acq45_nomask	4	33	400	0	300	300	0	0	491	46	1	0	helfen	treu	loyal	ehrlich	lachen	tolerant	hindern	tot	lasch	eitel	leiden	tyrannisch	schön	freundlich	retten	spielen	fair	schlau	schlecht	fanatisch	rächen	strafen	faul	schroff	1	blank2r.bmp	0	1	+	0	1	blank2r.bmp	500	1	BMVZ	500	1	blank2r.bmp	880	2	tot	880	1	!	1232	1	!	-1	0	0	0	0	0	0
2024-06-12	12:27:54	12:39:42	708071	6.6.1	4_exp_EVA_AWA_CON	83	B	A	Rpleas_acq	Same	Rpleas	2pleas	acq_US_pleas_nomask	acq45_nomask	4	34	400	1	300	300	0	0	451	46	0	0	helfen	treu	loyal	ehrlich	lachen	tolerant	hindern	tot	lasch	eitel	leiden	tyrannisch	schön	freundlich	retten	spielen	fair	schlau	schlecht	fanatisch	rächen	strafen	faul	schroff	1	blank2r.bmp	0	1	+	0	1	blank2r.bmp	500	1	GKQX	500	1	blank2r.bmp	880	6	tolerant	880	1	!	1232	1	!	1352	0	0	0	0	0	0
2024-06-12	12:27:54	12:39:44	710295	6.6.1	4_exp_EVA_AWA_CON	83	B	A	Rpleas_acq	Same	Rpleas	2pleas	acq_US_pleas_nomask	acq45_nomask	4	35	400	1	300	300	0	0	444	50	1	0	helfen	treu	loyal	ehrlich	lachen	tolerant	hindern	tot	lasch	eitel	leiden	tyrannisch	schön	freundlich	retten	spielen	fair	schlau	schlecht	fanatisch	rächen	strafen	faul	schroff	1	blank2r.bmp	0	1	+	0	1	blank2r.bmp	500	1	GKQX	500	1	blank2r.bmp	880	4	ehrlich	880	1	!	1232	1	!	1345	0	0	0	0	0	0
2024-06-12	12:27:54	12:39:47	712487	6.6.1	4_exp_EVA_AWA_CON	83	B	A	Rpleas_acq	Same	Rpleas	2pleas	acq_US_pleas_nomask	acq45_nomask	4	36	400	1	300	300	0	0	414	46	0	0	helfen	treu	loyal	ehrlich	lachen	tolerant	hindern	tot	lasch	eitel	leiden	tyrannisch	schön	freundlich	retten	spielen	fair	schlau	schlecht	fanatisch	rächen	strafen	faul	schroff	1	blank2r.bmp	0	1	+	0	1	blank2r.bmp	500	1	GKQX	500	1	blank2r.bmp	880	1	helfen	880	1	!	1233	1	!	1316	0	0	0	0	0	0
2024-06-12	12:27:54	12:40:06	731909	6.6.1	4_exp_EVA_AWA_CON	83	B	A	Rpleas_acq	Same	Rpleas	2pleas	acq_US_unple_nomask	acq45_nomask	5	1	400	0	300	300	0	0	486	46	1	0	helfen	treu	loyal	ehrlich	lachen	tolerant	hindern	tot	lasch	eitel	leiden	tyrannisch	schön	freundlich	retten	spielen	fair	schlau	schlecht	fanatisch	rächen	strafen	faul	schroff	1	blank2r.bmp	0	1	+	0	1	blank2r.bmp	500	1	BMVZ	500	1	blank2r.bmp	880	4	eitel	880	1	!	1232	1	!	-1	0	0	0	0	0	0
2024-06-12	12:27:54	12:40:08	734071	6.6.1	4_exp_EVA_AWA_CON	83	B	A	Rpleas_acq	Same	Rpleas	2pleas	acq_US_unple_nomask	acq45_nomask	5	2	400	1	300	300	0	0	384	46	1	0	helfen	treu	loyal	ehrlich	lachen	tolerant	hindern	tot	lasch	eitel	leiden	tyrannisch	schön	freundlich	retten	spielen	fair	schlau	schlecht	fanatisch	rächen	strafen	faul	schroff	1	blank2r.bmp	0	1	+	0	1	blank2r.bmp	500	1	BMVZ	500	1	blank2r.bmp	880	2	tot	880	1	!	1232	1	!	1286	0	0	0	0	0	0
2024-06-12	12:27:54	12:40:11	737189	6.6.1	4_exp_EVA_AWA_CON	83	B	A	Rpleas_acq	Same	Rpleas	2pleas	acq_US_pleas_nomask	acq45_nomask	5	3	400	0	300	300	0	0	1343	50	1	0	helfen	treu	loyal	ehrlich	lachen	tolerant	hindern	tot	lasch	eitel	leiden	tyrannisch	schön	freundlich	retten	spielen	fair	schlau	schlecht	fanatisch	rächen	strafen	faul	schroff	1	blank2r.bmp	0	1	+	0	1	blank2r.bmp	500	1	GKQX	500	1	blank2r.bmp	880	3	loyal	880	1	!	1232	1	!	-1	0	0	0	0	0	0
2024-06-12	12:27:54	12:40:14	739383	6.6.1	4_exp_EVA_AWA_CON	83	B	A	Rpleas_acq	Same	Rpleas	2pleas	acq_US_unple_nomask	acq45_nomask	5	4	400	1	300	300	0	0	413	46	1	0	helfen	treu	loyal	ehrlich	lachen	tolerant	hindern	tot	lasch	eitel	leiden	tyrannisch	schön	freundlich	retten	spielen	fair	schlau	schlecht	fanatisch	rächen	strafen	faul	schroff	1	blank2r.bmp	0	1	+	0	1	blank2r.bmp	500	1	BMVZ	500	1	blank2r.bmp	880	6	tyrannisch	880	1	!	1232	1	!	1314	0	0	0	0	0	0
2024-06-12	12:27:54	12:40:16	741583	6.6.1	4_exp_EVA_AWA_CON	83	B	A	Rpleas_acq	Same	Rpleas	2pleas	acq_US_pleas_nomask	acq45_nomask	5	5	400	1	300	300	0	0	422	46	0	0	helfen	treu	loyal	ehrlich	lachen	tolerant	hindern	tot	lasch	eitel	leiden	tyrannisch	schön	freundlich	retten	spielen	fair	schlau	schlecht	fanatisch	rächen	strafen	faul	schroff	1	blank2r.bmp	0	1	+	0	1	blank2r.bmp	500	1	GKQX	500	1	blank2r.bmp	880	6	tolerant	880	1	!	1232	1	!	1323	0	0	0	0	0	0
2024-06-12	12:27:54	12:40:18	743719	6.6.1	4_exp_EVA_AWA_CON	83	B	A	Rpleas_acq	Same	Rpleas	2pleas	acq_US_unple_nomask	acq45_nomask	5	6	400	1	300	300	0	0	356	50	0	0	helfen	treu	loyal	ehrlich	lachen	tolerant	hindern	tot	lasch	eitel	leiden	tyrannisch	schön	freundlich	retten	spielen	fair	schlau	schlecht	fanatisch	rächen	strafen	faul	schroff	1	blank2r.bmp	0	1	+	0	1	blank2r.bmp	500	1	BMVZ	500	1	blank2r.bmp	880	3	lasch	880	1	!	1232	1	!	1258	0	0	0	0	0	0
2024-06-12	12:27:54	12:40:20	745964	6.6.1	4_exp_EVA_AWA_CON	83	B	A	Rpleas_acq	Same	Rpleas	2pleas	acq_US_pleas_nomask	acq45_nomask	5	7	400	0	300	300	0	0	474	50	1	0	helfen	treu	loyal	ehrlich	lachen	tolerant	hindern	tot	lasch	eitel	leiden	tyrannisch	schön	freundlich	retten	spielen	fair	schlau	schlecht	fanatisch	rächen	strafen	faul	schroff	1	blank2r.bmp	0	1	+	0	1	blank2r.bmp	500	1	GKQX	500	1	blank2r.bmp	880	4	ehrlich	880	1	!	1232	1	!	-1	0	0	0	0	0	0
2024-06-12	12:27:54	12:40:22	748269	6.6.1	4_exp_EVA_AWA_CON	83	B	A	Rpleas_acq	Same	Rpleas	2pleas	acq_US_unple_nomask	acq45_nomask	5	8	400	0	300	300	0	0	525	46	1	0	helfen	treu	loyal	ehrlich	lachen	tolerant	hindern	tot	lasch	eitel	leiden	tyrannisch	schön	freundlich	retten	spielen	fair	schlau	schlecht	fanatisch	rächen	strafen	faul	schroff	1	blank2r.bmp	0	1	+	0	1	blank2r.bmp	500	1	BMVZ	500	1	blank2r.bmp	880	5	leiden	880	1	!	1232	1	!	-1	0	0	0	0	0	0
2024-06-12	12:27:54	12:40:25	750495	6.6.1	4_exp_EVA_AWA_CON	83	B	A	Rpleas_acq	Same	Rpleas	2pleas	acq_US_pleas_nomask	acq45_nomask	5	9	400	1	300	300	0	0	448	46	0	0	helfen	treu	loyal	ehrlich	lachen	tolerant	hindern	tot	lasch	eitel	leiden	tyrannisch	schön	freundlich	retten	spielen	fair	schlau	schlecht	fanatisch	rächen	strafen	faul	schroff	1	blank2r.bmp	0	1	+	0	1	blank2r.bmp	500	1	GKQX	500	1	blank2r.bmp	880	2	treu	880	1	!	1232	1	!	1349	0	0	0	0	0	0
2024-06-12	12:27:54	12:40:27	752687	6.6.1	4_exp_EVA_AWA_CON	83	B	A	Rpleas_acq	Same	Rpleas	2pleas	acq_US_pleas_nomask	acq45_nomask	5	10	400	1	300	300	0	0	418	50	1	0	helfen	treu	loyal	ehrlich	lachen	tolerant	hindern	tot	lasch	eitel	leiden	tyrannisch	schön	freundlich	retten	spielen	fair	schlau	schlecht	fanatisch	rächen	strafen	faul	schroff	1	blank2r.bmp	0	1	+	0	1	blank2r.bmp	500	1	GKQX	500	1	blank2r.bmp	880	1	helfen	880	1	!	1232	1	!	1320	0	0	0	0	0	0
2024-06-12	12:27:54	12:40:29	754973	6.6.1	4_exp_EVA_AWA_CON	83	B	A	Rpleas_acq	Same	Rpleas	2pleas	acq_US_unple_nomask	acq45_nomask	5	11	400	0	300	300	0	0	505	46	1	0	helfen	treu	loyal	ehrlich	lachen	tolerant	hindern	tot	lasch	eitel	leiden	tyrannisch	schön	freundlich	retten	spielen	fair	schlau	schlecht	fanatisch	rächen	strafen	faul	schroff	1	blank2r.bmp	0	1	+	0	1	blank2r.bmp	500	1	BMVZ	500	1	blank2r.bmp	880	1	hindern	880	1	!	1232	1	!	-1	0	0	0	0	0	0
2024-06-12	12:27:54	12:40:31	757215	6.6.1	4_exp_EVA_AWA_CON	83	B	A	Rpleas_acq	Same	Rpleas	2pleas	acq_US_unple_nomask	acq45_nomask	5	12	400	1	300	300	0	0	464	46	1	0	helfen	treu	loyal	ehrlich	lachen	tolerant	hindern	tot	lasch	eitel	leiden	tyrannisch	schön	freundlich	retten	spielen	fair	schlau	schlecht	fanatisch	rächen	strafen	faul	schroff	1	blank2r.bmp	0	1	+	0	1	blank2r.bmp	500	1	BMVZ	500	1	blank2r.bmp	880	2	tot	880	1	!	1232	1	!	1365	0	0	0	0	0	0
2024-06-12	12:27:54	12:40:34	759467	6.6.1	4_exp_EVA_AWA_CON	83	B	A	Rpleas_acq	Same	Rpleas	2pleas	acq_US_unple_nomask	acq45_nomask	5	13	400	0	300	300	0	0	478	50	0	0	helfen	treu	loyal	ehrlich	lachen	tolerant	hindern	tot	lasch	eitel	leiden	tyrannisch	schön	freundlich	retten	spielen	fair	schlau	schlecht	fanatisch	rächen	strafen	faul	schroff	1	blank2r.bmp	0	1	+	0	1	blank2r.bmp	500	1	BMVZ	500	1	blank2r.bmp	880	5	leiden	880	1	!	1232	1	!	-1	0	0	0	0	0	0
2024-06-12	12:27:54	12:40:36	761703	6.6.1	4_exp_EVA_AWA_CON	83	B	A	Rpleas_acq	Same	Rpleas	2pleas	acq_US_unple_nomask	acq45_nomask	5	14	400	1	300	300	0	0	459	46	1	0	helfen	treu	loyal	ehrlich	lachen	tolerant	hindern	tot	lasch	eitel	leiden	tyrannisch	schön	freundlich	retten	spielen	fair	schlau	schlecht	fanatisch	rächen	strafen	faul	schroff	1	blank2r.bmp	0	1	+	0	1	blank2r.bmp	500	1	BMVZ	500	1	blank2r.bmp	880	6	tyrannisch	880	1	!	1232	1	!	1360	0	0	0	0	0	0
2024-06-12	12:27:54	12:40:38	763863	6.6.1	4_exp_EVA_AWA_CON	83	B	A	Rpleas_acq	Same	Rpleas	2pleas	acq_US_pleas_nomask	acq45_nomask	5	15	400	1	300	300	0	0	377	50	1	0	helfen	treu	loyal	ehrlich	lachen	tolerant	hindern	tot	lasch	eitel	leiden	tyrannisch	schön	freundlich	retten	spielen	fair	schlau	schlecht	fanatisch	rächen	strafen	faul	schroff	1	blank2r.bmp	0	1	+	0	1	blank2r.bmp	500	1	GKQX	500	1	blank2r.bmp	880	5	lachen	880	1	!	1232	1	!	1279	0	0	0	0	0	0
2024-06-12	12:27:54	12:40:40	766007	6.6.1	4_exp_EVA_AWA_CON	83	B	A	Rpleas_acq	Same	Rpleas	2pleas	acq_US_pleas_nomask	acq45_nomask	5	16	400	1	300	300	0	0	370	46	0	0	helfen	treu	loyal	ehrlich	lachen	tolerant	hindern	tot	lasch	eitel	leiden	tyrannisch	schön	freundlich	retten	spielen	fair	schlau	schlecht	fanatisch	rächen	strafen	faul	schroff	1	blank2r.bmp	0	1	+	0	1	blank2r.bmp	500	1	GKQX	500	1	blank2r.bmp	880	1	helfen	880	1	!	1232	1	!	1272	0	0	0	0	0	0
2024-06-12	12:27:54	12:40:42	768151	6.6.1	4_exp_EVA_AWA_CON	83	B	A	Rpleas_acq	Same	Rpleas	2pleas	acq_US_pleas_nomask	acq45_nomask	5	17	400	1	300	300	0	0	363	50	1	0	helfen	treu	loyal	ehrlich	lachen	tolerant	hindern	tot	lasch	eitel	leiden	tyrannisch	schön	freundlich	retten	spielen	fair	schlau	schlecht	fanatisch	rächen	strafen	faul	schroff	1	blank2r.bmp	0	1	+	0	1	blank2r.bmp	500	1	GKQX	500	1	blank2r.bmp	880	4	ehrlich	880	1	!	1232	1	!	1264	0	0	0	0	0	0
2024-06-12	12:27:54	12:40:45	770359	6.6.1	4_exp_EVA_AWA_CON	83	B	A	Rpleas_acq	Same	Rpleas	2pleas	acq_US_pleas_nomask	acq45_nomask	5	18	400	1	300	300	0	0	429	46	0	0	helfen	treu	loyal	ehrlich	lachen	tolerant	hindern	tot	lasch	eitel	leiden	tyrannisch	schön	freundlich	retten	spielen	fair	schlau	schlecht	fanatisch	rächen	strafen	faul	schroff	1	blank2r.bmp	0	1	+	0	1	blank2r.bmp	500	1	GKQX	500	1	blank2r.bmp	880	6	tolerant	880	1	!	1232	1	!	1330	0	0	0	0	0	0
2024-06-12	12:27:54	12:40:47	772637	6.6.1	4_exp_EVA_AWA_CON	83	B	A	Rpleas_acq	Same	Rpleas	2pleas	acq_US_unple_nomask	acq45_nomask	5	19	400	0	300	300	0	0	498	46	1	0	helfen	treu	loyal	ehrlich	lachen	tolerant	hindern	tot	lasch	eitel	leiden	tyrannisch	schön	freundlich	retten	spielen	fair	schlau	schlecht	fanatisch	rächen	strafen	faul	schroff	1	blank2r.bmp	0	1	+	0	1	blank2r.bmp	500	1	BMVZ	500	1	blank2r.bmp	880	1	hindern	880	1	!	1232	1	!	-1	0	0	0	0	0	0
2024-06-12	12:27:54	12:40:49	774831	6.6.1	4_exp_EVA_AWA_CON	83	B	A	Rpleas_acq	Same	Rpleas	2pleas	acq_US_unple_nomask	acq45_nomask	5	20	400	1	300	300	0	0	418	50	0	0	helfen	treu	loyal	ehrlich	lachen	tolerant	hindern	tot	lasch	eitel	leiden	tyrannisch	schön	freundlich	retten	spielen	fair	schlau	schlecht	fanatisch	rächen	strafen	faul	schroff	1	blank2r.bmp	0	1	+	0	1	blank2r.bmp	500	1	BMVZ	500	1	blank2r.bmp	880	3	lasch	880	1	!	1232	1	!	1320	0	0	0	0	0	0
2024-06-12	12:27:54	12:40:51	777101	6.6.1	4_exp_EVA_AWA_CON	83	B	A	Rpleas_acq	Same	Rpleas	2pleas	acq_US_pleas_nomask	acq45_nomask	5	21	400	0	300	300	0	0	489	50	1	0	helfen	treu	loyal	ehrlich	lachen	tolerant	hindern	tot	lasch	eitel	leiden	tyrannisch	schön	freundlich	retten	spielen	fair	schlau	schlecht	fanatisch	rächen	strafen	faul	schroff	1	blank2r.bmp	0	1	+	0	1	blank2r.bmp	500	1	GKQX	500	1	blank2r.bmp	880	2	treu	880	1	!	1232	1	!	-1	0	0	0	0	0	0
2024-06-12	12:27:54	12:40:54	779501	6.6.1	4_exp_EVA_AWA_CON	83	B	A	Rpleas_acq	Same	Rpleas	2pleas	acq_US_unple_nomask	acq45_nomask	5	22	400	0	300	300	0	0	617	50	0	0	helfen	treu	loyal	ehrlich	lachen	tolerant	hindern	tot	lasch	eitel	leiden	tyrannisch	schön	freundlich	retten	spielen	fair	schlau	schlecht	fanatisch	rächen	strafen	faul	schroff	1	blank2r.bmp	0	1	+	0	1	blank2r.bmp	500	1	BMVZ	500	1	blank2r.bmp	880	4	eitel	880	1	!	1232	1	!	-1	0	0	0	0	0	0
2024-06-12	12:27:54	12:40:56	781821	6.6.1	4_exp_EVA_AWA_CON	83	B	A	Rpleas_acq	Same	Rpleas	2pleas	acq_US_unple_nomask	acq45_nomask	5	23	400	0	300	300	0	0	546	46	1	0	helfen	treu	loyal	ehrlich	lachen	tolerant	hindern	tot	lasch	eitel	leiden	tyrannisch	schön	freundlich	retten	spielen	fair	schlau	schlecht	fanatisch	rächen	strafen	faul	schroff	1	blank2r.bmp	0	1	+	0	1	blank2r.bmp	500	1	BMVZ	500	1	blank2r.bmp	880	5	leiden	880	1	!	1233	1	!	-1	0	0	0	0	0	0
2024-06-12	12:27:54	12:40:58	783999	6.6.1	4_exp_EVA_AWA_CON	83	B	A	Rpleas_acq	Same	Rpleas	2pleas	acq_US_unple_nomask	acq45_nomask	5	24	400	1	300	300	0	0	400	46	1	0	helfen	treu	loyal	ehrlich	lachen	tolerant	hindern	tot	lasch	eitel	leiden	tyrannisch	schön	freundlich	retten	spielen	fair	schlau	schlecht	fanatisch	rächen	strafen	faul	schroff	1	blank2r.bmp	0	1	+	0	1	blank2r.bmp	500	1	BMVZ	500	1	blank2r.bmp	880	4	eitel	880	1	!	1232	1	!	1302	0	0	0	0	0	0
2024-06-12	12:27:54	12:41:00	786223	6.6.1	4_exp_EVA_AWA_CON	83	B	A	Rpleas_acq	Same	Rpleas	2pleas	acq_US_pleas_nomask	acq45_nomask	5	25	400	1	300	300	0	0	443	50	1	0	helfen	treu	loyal	ehrlich	lachen	tolerant	hindern	tot	lasch	eitel	leiden	tyrannisch	schön	freundlich	retten	spielen	fair	schlau	schlecht	fanatisch	rächen	strafen	faul	schroff	1	blank2r.bmp	0	1	+	0	1	blank2r.bmp	500	1	GKQX	500	1	blank2r.bmp	880	3	loyal	880	1	!	1232	1	!	1344	0	0	0	0	0	0
2024-06-12	12:27:54	12:41:03	788510	6.6.1	4_exp_EVA_AWA_CON	83	B	A	Rpleas_acq	Same	Rpleas	2pleas	acq_US_pleas_nomask	acq45_nomask	5	26	400	0	300	300	0	0	510	50	1	0	helfen	treu	loyal	ehrlich	lachen	tolerant	hindern	tot	lasch	eitel	leiden	tyrannisch	schön	freundlich	retten	spielen	fair	schlau	schlecht	fanatisch	rächen	strafen	faul	schroff	1	blank2r.bmp	0	1	+	0	1	blank2r.bmp	500	1	GKQX	500	1	blank2r.bmp	880	5	lachen	880	1	!	1232	1	!	-1	0	0	0	0	0	0
2024-06-12	12:27:54	12:41:05	790782	6.6.1	4_exp_EVA_AWA_CON	83	B	A	Rpleas_acq	Same	Rpleas	2pleas	acq_US_unple_nomask	acq45_nomask	5	27	400	0	300	300	0	0	490	46	1	0	helfen	treu	loyal	ehrlich	lachen	tolerant	hindern	tot	lasch	eitel	leiden	tyrannisch	schön	freundlich	retten	spielen	fair	schlau	schlecht	fanatisch	rächen	strafen	faul	schroff	1	blank2r.bmp	0	1	+	0	1	blank2r.bmp	500	1	BMVZ	500	1	blank2r.bmp	880	2	tot	880	1	!	1232	1	!	-1	0	0	0	0	0	0
2024-06-12	12:27:54	12:41:07	793031	6.6.1	4_exp_EVA_AWA_CON	83	B	A	Rpleas_acq	Same	Rpleas	2pleas	acq_US_unple_nomask	acq45_nomask	5	28	400	1	300	300	0	0	467	46	1	0	helfen	treu	loyal	ehrlich	lachen	tolerant	hindern	tot	lasch	eitel	leiden	tyrannisch	schön	freundlich	retten	spielen	fair	schlau	schlecht	fanatisch	rächen	strafen	faul	schroff	1	blank2r.bmp	0	1	+	0	1	blank2r.bmp	500	1	BMVZ	500	1	blank2r.bmp	880	6	tyrannisch	880	1	!	1232	1	!	1368	0	0	0	0	0	0
2024-06-12	12:27:54	12:41:10	795373	6.6.1	4_exp_EVA_AWA_CON	83	B	A	Rpleas_acq	Same	Rpleas	2pleas	acq_US_unple_nomask	acq45_nomask	5	29	400	0	300	300	0	0	569	46	1	0	helfen	treu	loyal	ehrlich	lachen	tolerant	hindern	tot	lasch	eitel	leiden	tyrannisch	schön	freundlich	retten	spielen	fair	schlau	schlecht	fanatisch	rächen	strafen	faul	schroff	1	blank2r.bmp	0	1	+	0	1	blank2r.bmp	500	1	BMVZ	500	1	blank2r.bmp	880	1	hindern	880	1	!	1232	1	!	-1	0	0	0	0	0	0
2024-06-12	12:27:54	12:41:12	797575	6.6.1	4_exp_EVA_AWA_CON	83	B	A	Rpleas_acq	Same	Rpleas	2pleas	acq_US_pleas_nomask	acq45_nomask	5	30	400	1	300	300	0	0	418	46	0	0	helfen	treu	loyal	ehrlich	lachen	tolerant	hindern	tot	lasch	eitel	leiden	tyrannisch	schön	freundlich	retten	spielen	fair	schlau	schlecht	fanatisch	rächen	strafen	faul	schroff	1	blank2r.bmp	0	1	+	0	1	blank2r.bmp	500	1	GKQX	500	1	blank2r.bmp	880	1	helfen	880	1	!	1232	1	!	1319	0	0	0	0	0	0
2024-06-12	12:27:54	12:41:14	799783	6.6.1	4_exp_EVA_AWA_CON	83	B	A	Rpleas_acq	Same	Rpleas	2pleas	acq_US_pleas_nomask	acq45_nomask	5	31	400	1	300	300	0	0	434	50	1	0	helfen	treu	loyal	ehrlich	lachen	tolerant	hindern	tot	lasch	eitel	leiden	tyrannisch	schön	freundlich	retten	spielen	fair	schlau	schlecht	fanatisch	rächen	strafen	faul	schroff	1	blank2r.bmp	0	1	+	0	1	blank2r.bmp	500	1	GKQX	500	1	blank2r.bmp	880	4	ehrlich	880	1	!	1232	1	!	1336	0	0	0	0	0	0
2024-06-12	12:27:54	12:41:16	801975	6.6.1	4_exp_EVA_AWA_CON	83	B	A	Rpleas_acq	Same	Rpleas	2pleas	acq_US_pleas_nomask	acq45_nomask	5	32	400	1	300	300	0	0	415	46	0	0	helfen	treu	loyal	ehrlich	lachen	tolerant	hindern	tot	lasch	eitel	leiden	tyrannisch	schön	freundlich	retten	spielen	fair	schlau	schlecht	fanatisch	rächen	strafen	faul	schroff	1	blank2r.bmp	0	1	+	0	1	blank2r.bmp	500	1	GKQX	500	1	blank2r.bmp	880	6	tolerant	880	1	!	1232	1	!	1316	0	0	0	0	0	0
2024-06-12	12:27:54	12:41:18	804119	6.6.1	4_exp_EVA_AWA_CON	83	B	A	Rpleas_acq	Same	Rpleas	2pleas	acq_US_pleas_nomask	acq45_nomask	5	33	400	1	300	300	0	0	367	50	1	0	helfen	treu	loyal	ehrlich	lachen	tolerant	hindern	tot	lasch	eitel	leiden	tyrannisch	schön	freundlich	retten	spielen	fair	schlau	schlecht	fanatisch	rächen	strafen	faul	schroff	1	blank2r.bmp	0	1	+	0	1	blank2r.bmp	500	1	GKQX	500	1	blank2r.bmp	880	5	lachen	880	1	!	1232	1	!	1269	0	0	0	0	0	0
2024-06-12	12:27:54	12:41:20	806295	6.6.1	4_exp_EVA_AWA_CON	83	B	A	Rpleas_acq	Same	Rpleas	2pleas	acq_US_pleas_nomask	acq45_nomask	5	34	400	1	300	300	0	0	402	46	0	0	helfen	treu	loyal	ehrlich	lachen	tolerant	hindern	tot	lasch	eitel	leiden	tyrannisch	schön	freundlich	retten	spielen	fair	schlau	schlecht	fanatisch	rächen	strafen	faul	schroff	1	blank2r.bmp	0	1	+	0	1	blank2r.bmp	500	1	GKQX	500	1	blank2r.bmp	880	3	loyal	880	1	!	1233	1	!	1304	0	0	0	0	0	0
2024-06-12	12:27:54	12:41:23	808597	6.6.1	4_exp_EVA_AWA_CON	83	B	A	Rpleas_acq	Same	Rpleas	2pleas	acq_US_pleas_nomask	acq45_nomask	5	35	400	0	300	300	0	0	525	50	1	0	helfen	treu	loyal	ehrlich	lachen	tolerant	hindern	tot	lasch	eitel	leiden	tyrannisch	schön	freundlich	retten	spielen	fair	schlau	schlecht	fanatisch	rächen	strafen	faul	schroff	1	blank2r.bmp	0	1	+	0	1	blank2r.bmp	500	1	GKQX	500	1	blank2r.bmp	880	2	treu	880	1	!	1232	1	!	-1	0	0	0	0	0	0
2024-06-12	12:27:54	12:41:25	810893	6.6.1	4_exp_EVA_AWA_CON	83	B	A	Rpleas_acq	Same	Rpleas	2pleas	acq_US_unple_nomask	acq45_nomask	5	36	400	0	300	300	0	0	519	46	1	0	helfen	treu	loyal	ehrlich	lachen	tolerant	hindern	tot	lasch	eitel	leiden	tyrannisch	schön	freundlich	retten	spielen	fair	schlau	schlecht	fanatisch	rächen	strafen	faul	schroff	1	blank2r.bmp	0	1	+	0	1	blank2r.bmp	500	1	BMVZ	500	1	blank2r.bmp	880	3	lasch	880	1	!	1232	1	!	-1	0	0	0	0	0	0
2024-06-12	12:27:54	12:42:03	848329	6.6.1	4_exp_EVA_AWA_CON	83	B	A	Rpleas_acq	Same	Rpleas	2pleas	EvalRating_firsttwo	EvalRating_firsttwo	6	1	0	0	300	300	0	0	12030	line	0	67,8385416666666856145pct	helfen	treu	loyal	ehrlich	lachen	tolerant	hindern	tot	lasch	eitel	leiden	tyrannisch	schön	freundlich	retten	spielen	fair	schlau	schlecht	fanatisch	rächen	strafen	faul	schroff	1		-8	1	Wie angenehm oder unangenehm finden Sie die  Buchstabenkette ZGVK?	-8	1		-8	1		-8	1		-8	1	Unangenehm	-8	1	Angenehm	-8	0	0	0	0	0	0	0	0	0
2024-06-12	12:27:54	12:42:18	863657	6.6.1	4_exp_EVA_AWA_CON	83	B	A	Rpleas_acq	Same	Rpleas	2pleas	EvalRating_lastfour	EvalRating_lastfour	7	1	0	0	300	300	0	0	12948	line	0	29,5572916666666856145pct	helfen	treu	loyal	ehrlich	lachen	tolerant	hindern	tot	lasch	eitel	leiden	tyrannisch	schön	freundlich	retten	spielen	fair	schlau	schlecht	fanatisch	rächen	strafen	faul	schroff	1		-8	2	Wie angenehm oder unangenehm finden Sie die  Buchstabenkette GKQX?	-8	1		-8	1		-8	1		-8	1	Unangenehm	-8	1	Angenehm	-8	0	0	0	0	0	0	0	0	0
2024-06-12	12:27:54	12:42:20	866031	6.6.1	4_exp_EVA_AWA_CON	83	B	A	Rpleas_acq	Same	Rpleas	2pleas	blank_screen	EvalRating_lastfour	7	3	0	0	300	300	0	0	0	0	0	29,5572916666666856145pct	helfen	treu	loyal	ehrlich	lachen	tolerant	hindern	tot	lasch	eitel	leiden	tyrannisch	schön	freundlich	retten	spielen	fair	schlau	schlecht	fanatisch	rächen	strafen	faul	schroff	1		-8	0	0	0	0	0	0	0	0	0	0	0	0	0	0	0	0	0	0	0	0	0	0	0	0	0	0	0
2024-06-12	12:27:54	12:42:38	883785	6.6.1	4_exp_EVA_AWA_CON	83	B	A	Rpleas_acq	Same	Rpleas	2pleas	EvalRating_lastfour	EvalRating_lastfour	7	4	0	0	300	300	0	0	17166	line	0	83,203125pct	helfen	treu	loyal	ehrlich	lachen	tolerant	hindern	tot	lasch	eitel	leiden	tyrannisch	schön	freundlich	retten	spielen	fair	schlau	schlecht	fanatisch	rächen	strafen	faul	schroff	1		-8	1	Wie angenehm oder unangenehm finden Sie die  Buchstabenkette BMVZ?	-8	1		-8	1		-8	1		-8	1	Unangenehm	-8	1	Angenehm	-8	0	0	0	0	0	0	0	0	0
2024-06-12	12:27:54	12:42:40	886154	6.6.1	4_exp_EVA_AWA_CON	83	B	A	Rpleas_acq	Same	Rpleas	2pleas	blank_screen	EvalRating_lastfour	7	6	0	0	300	300	0	0	0	0	0	83,203125pct	helfen	treu	loyal	ehrlich	lachen	tolerant	hindern	tot	lasch	eitel	leiden	tyrannisch	schön	freundlich	retten	spielen	fair	schlau	schlecht	fanatisch	rächen	strafen	faul	schroff	1		-8	0	0	0	0	0	0	0	0	0	0	0	0	0	0	0	0	0	0	0	0	0	0	0	0	0	0	0
2024-06-12	12:27:54	12:42:48	893833	6.6.1	4_exp_EVA_AWA_CON	83	B	A	Rpleas_acq	Same	Rpleas	2pleas	EvalRating_lastfour	EvalRating_lastfour	7	7	0	0	300	300	0	0	7091	line	0	16,2760416666666714036pct	helfen	treu	loyal	ehrlich	lachen	tolerant	hindern	tot	lasch	eitel	leiden	tyrannisch	schön	freundlich	retten	spielen	fair	schlau	schlecht	fanatisch	rächen	strafen	faul	schroff	1		-8	3	Wie angenehm oder unangenehm finden Sie die  Buchstabenkette XBQM?	-8	1		-8	1		-8	1		-8	1	Unangenehm	-8	1	Angenehm	-8	0	0	0	0	0	0	0	0	0
2024-06-12	12:27:54	12:44:40	1005599	6.6.1	4_exp_EVA_AWA_CON	83	B	A	Rpleas_acq	Same	Rpleas	2pleas	conawa_CS2_US3	conawa1_nomask	8	1	0	0	300	300	0	0	42412	strafen	1	16,2760416666666714036pct	helfen	treu	loyal	ehrlich	lachen	tolerant	hindern	tot	lasch	eitel	leiden	tyrannisch	schön	freundlich	retten	spielen	fair	schlau	schlecht	fanatisch	rächen	strafen	faul	schroff	0	0	0	0	0	0	0	0	0	0	0	0	0	0	0	0	0	0	0	0	0	0	0	0	0	0	0	0	0	0
2024-06-12	12:27:54	12:44:40	1005600	6.6.1	4_exp_EVA_AWA_CON	83	B	A	Rpleas_acq	Same	Rpleas	2pleas	conawa_CS2_US3_confidence	conawa1_nomask	8	1	0	0	300	300	0	0	42412	guess	1	16,2760416666666714036pct	helfen	treu	loyal	ehrlich	lachen	tolerant	hindern	tot	lasch	eitel	leiden	tyrannisch	schön	freundlich	retten	spielen	fair	schlau	schlecht	fanatisch	rächen	strafen	faul	schroff	0	0	0	0	0	0	0	0	0	0	0	0	0	0	0	0	0	0	0	0	0	0	0	0	0	0	0	0	0	0
2024-06-12	12:27:54	12:44:49	1014575	6.6.1	4_exp_EVA_AWA_CON	83	B	A	Rpleas_acq	Same	Rpleas	2pleas	conawa_CS1_US4	conawa1_nomask	8	2	0	0	300	300	0	0	8353	spielen	1	16,2760416666666714036pct	helfen	treu	loyal	ehrlich	lachen	tolerant	hindern	tot	lasch	eitel	leiden	tyrannisch	schön	freundlich	retten	spielen	fair	schlau	schlecht	fanatisch	rächen	strafen	faul	schroff	0	0	0	0	0	0	0	0	0	0	0	0	0	0	0	0	0	0	0	0	0	0	0	0	0	0	0	0	0	0
2024-06-12	12:27:54	12:44:49	1014576	6.6.1	4_exp_EVA_AWA_CON	83	B	A	Rpleas_acq	Same	Rpleas	2pleas	conawa_CS1_US4_confidence	conawa1_nomask	8	2	0	0	300	300	0	0	8353	guess	1	16,2760416666666714036pct	helfen	treu	loyal	ehrlich	lachen	tolerant	hindern	tot	lasch	eitel	leiden	tyrannisch	schön	freundlich	retten	spielen	fair	schlau	schlecht	fanatisch	rächen	strafen	faul	schroff	0	0	0	0	0	0	0	0	0	0	0	0	0	0	0	0	0	0	0	0	0	0	0	0	0	0	0	0	0	0
2024-06-12	12:27:54	12:45:00	1025482	6.6.1	4_exp_EVA_AWA_CON	83	B	A	Rpleas_acq	Same	Rpleas	2pleas	conawa_CS1_US2	conawa1_nomask	8	3	0	0	300	300	0	0	10291	freundlich	1	16,2760416666666714036pct	helfen	treu	loyal	ehrlich	lachen	tolerant	hindern	tot	lasch	eitel	leiden	tyrannisch	schön	freundlich	retten	spielen	fair	schlau	schlecht	fanatisch	rächen	strafen	faul	schroff	0	0	0	0	0	0	0	0	0	0	0	0	0	0	0	0	0	0	0	0	0	0	0	0	0	0	0	0	0	0
2024-06-12	12:27:54	12:45:00	1025484	6.6.1	4_exp_EVA_AWA_CON	83	B	A	Rpleas_acq	Same	Rpleas	2pleas	conawa_CS1_US2_confidence	conawa1_nomask	8	3	0	0	300	300	0	0	10291	guess	1	16,2760416666666714036pct	helfen	treu	loyal	ehrlich	lachen	tolerant	hindern	tot	lasch	eitel	leiden	tyrannisch	schön	freundlich	retten	spielen	fair	schlau	schlecht	fanatisch	rächen	strafen	faul	schroff	0	0	0	0	0	0	0	0	0	0	0	0	0	0	0	0	0	0	0	0	0	0	0	0	0	0	0	0	0	0
2024-06-12	12:27:54	12:45:20	1045375	6.6.1	4_exp_EVA_AWA_CON	83	B	A	Rpleas_acq	Same	Rpleas	2pleas	conawa_CS2_US2	conawa1_nomask	8	4	0	0	300	300	0	0	19271	retten	1	16,2760416666666714036pct	helfen	treu	loyal	ehrlich	lachen	tolerant	hindern	tot	lasch	eitel	leiden	tyrannisch	schön	freundlich	retten	spielen	fair	schlau	schlecht	fanatisch	rächen	strafen	faul	schroff	0	0	0	0	0	0	0	0	0	0	0	0	0	0	0	0	0	0	0	0	0	0	0	0	0	0	0	0	0	0
2024-06-12	12:27:54	12:45:20	1045376	6.6.1	4_exp_EVA_AWA_CON	83	B	A	Rpleas_acq	Same	Rpleas	2pleas	conawa_CS2_US2_confidence	conawa1_nomask	8	4	0	0	300	300	0	0	19271	guess	1	16,2760416666666714036pct	helfen	treu	loyal	ehrlich	lachen	tolerant	hindern	tot	lasch	eitel	leiden	tyrannisch	schön	freundlich	retten	spielen	fair	schlau	schlecht	fanatisch	rächen	strafen	faul	schroff	0	0	0	0	0	0	0	0	0	0	0	0	0	0	0	0	0	0	0	0	0	0	0	0	0	0	0	0	0	0
2024-06-12	12:27:54	12:45:33	1058463	6.6.1	4_exp_EVA_AWA_CON	83	B	A	Rpleas_acq	Same	Rpleas	2pleas	conawa_CS2_US6	conawa1_nomask	8	5	0	0	300	300	0	0	12475	tolerant	1	16,2760416666666714036pct	helfen	treu	loyal	ehrlich	lachen	tolerant	hindern	tot	lasch	eitel	leiden	tyrannisch	schön	freundlich	retten	spielen	fair	schlau	schlecht	fanatisch	rächen	strafen	faul	schroff	0	0	0	0	0	0	0	0	0	0	0	0	0	0	0	0	0	0	0	0	0	0	0	0	0	0	0	0	0	0
2024-06-12	12:27:54	12:45:33	1058464	6.6.1	4_exp_EVA_AWA_CON	83	B	A	Rpleas_acq	Same	Rpleas	2pleas	conawa_CS2_US6_confidence	conawa1_nomask	8	5	0	0	300	300	0	0	12475	guess	1	16,2760416666666714036pct	helfen	treu	loyal	ehrlich	lachen	tolerant	hindern	tot	lasch	eitel	leiden	tyrannisch	schön	freundlich	retten	spielen	fair	schlau	schlecht	fanatisch	rächen	strafen	faul	schroff	0	0	0	0	0	0	0	0	0	0	0	0	0	0	0	0	0	0	0	0	0	0	0	0	0	0	0	0	0	0
2024-06-12	12:27:54	12:45:43	1068309	6.6.1	4_exp_EVA_AWA_CON	83	B	A	Rpleas_acq	Same	Rpleas	2pleas	conawa_CS2_US5	conawa1_nomask	8	6	0	0	300	300	0	0	9227	schlau	1	16,2760416666666714036pct	helfen	treu	loyal	ehrlich	lachen	tolerant	hindern	tot	lasch	eitel	leiden	tyrannisch	schön	freundlich	retten	spielen	fair	schlau	schlecht	fanatisch	rächen	strafen	faul	schroff	0	0	0	0	0	0	0	0	0	0	0	0	0	0	0	0	0	0	0	0	0	0	0	0	0	0	0	0	0	0
2024-06-12	12:27:54	12:45:43	1068311	6.6.1	4_exp_EVA_AWA_CON	83	B	A	Rpleas_acq	Same	Rpleas	2pleas	conawa_CS2_US5_confidence	conawa1_nomask	8	6	0	0	300	300	0	0	9227	guess	1	16,2760416666666714036pct	helfen	treu	loyal	ehrlich	lachen	tolerant	hindern	tot	lasch	eitel	leiden	tyrannisch	schön	freundlich	retten	spielen	fair	schlau	schlecht	fanatisch	rächen	strafen	faul	schroff	0	0	0	0	0	0	0	0	0	0	0	0	0	0	0	0	0	0	0	0	0	0	0	0	0	0	0	0	0	0
2024-06-12	12:27:54	12:45:50	1075704	6.6.1	4_exp_EVA_AWA_CON	83	B	A	Rpleas_acq	Same	Rpleas	2pleas	conawa_CS2_US4	conawa1_nomask	8	7	0	0	300	300	0	0	6781	ehrlich	1	16,2760416666666714036pct	helfen	treu	loyal	ehrlich	lachen	tolerant	hindern	tot	lasch	eitel	leiden	tyrannisch	schön	freundlich	retten	spielen	fair	schlau	schlecht	fanatisch	rächen	strafen	faul	schroff	0	0	0	0	0	0	0	0	0	0	0	0	0	0	0	0	0	0	0	0	0	0	0	0	0	0	0	0	0	0
2024-06-12	12:27:54	12:45:50	1075705	6.6.1	4_exp_EVA_AWA_CON	83	B	A	Rpleas_acq	Same	Rpleas	2pleas	conawa_CS2_US4_confidence	conawa1_nomask	8	7	0	0	300	300	0	0	6781	guess	1	16,2760416666666714036pct	helfen	treu	loyal	ehrlich	lachen	tolerant	hindern	tot	lasch	eitel	leiden	tyrannisch	schön	freundlich	retten	spielen	fair	schlau	schlecht	fanatisch	rächen	strafen	faul	schroff	0	0	0	0	0	0	0	0	0	0	0	0	0	0	0	0	0	0	0	0	0	0	0	0	0	0	0	0	0	0
2024-06-12	12:27:54	12:45:58	1084079	6.6.1	4_exp_EVA_AWA_CON	83	B	A	Rpleas_acq	Same	Rpleas	2pleas	conawa_CS2_US1	conawa1_nomask	8	8	0	0	300	300	0	0	7756	freundlich	1	16,2760416666666714036pct	helfen	treu	loyal	ehrlich	lachen	tolerant	hindern	tot	lasch	eitel	leiden	tyrannisch	schön	freundlich	retten	spielen	fair	schlau	schlecht	fanatisch	rächen	strafen	faul	schroff	0	0	0	0	0	0	0	0	0	0	0	0	0	0	0	0	0	0	0	0	0	0	0	0	0	0	0	0	0	0
2024-06-12	12:27:54	12:45:58	1084080	6.6.1	4_exp_EVA_AWA_CON	83	B	A	Rpleas_acq	Same	Rpleas	2pleas	conawa_CS2_US1_confidence	conawa1_nomask	8	8	0	0	300	300	0	0	7756	guess	1	16,2760416666666714036pct	helfen	treu	loyal	ehrlich	lachen	tolerant	hindern	tot	lasch	eitel	leiden	tyrannisch	schön	freundlich	retten	spielen	fair	schlau	schlecht	fanatisch	rächen	strafen	faul	schroff	0	0	0	0	0	0	0	0	0	0	0	0	0	0	0	0	0	0	0	0	0	0	0	0	0	0	0	0	0	0
2024-06-12	12:27:54	12:46:10	1096287	6.6.1	4_exp_EVA_AWA_CON	83	B	A	Rpleas_acq	Same	Rpleas	2pleas	conawa_CS1_US1	conawa1_nomask	8	9	0	0	300	300	0	0	11589	schön	1	16,2760416666666714036pct	helfen	treu	loyal	ehrlich	lachen	tolerant	hindern	tot	lasch	eitel	leiden	tyrannisch	schön	freundlich	retten	spielen	fair	schlau	schlecht	fanatisch	rächen	strafen	faul	schroff	0	0	0	0	0	0	0	0	0	0	0	0	0	0	0	0	0	0	0	0	0	0	0	0	0	0	0	0	0	0
2024-06-12	12:27:54	12:46:10	1096289	6.6.1	4_exp_EVA_AWA_CON	83	B	A	Rpleas_acq	Same	Rpleas	2pleas	conawa_CS1_US1_confidence	conawa1_nomask	8	9	0	0	300	300	0	0	11589	guess	1	16,2760416666666714036pct	helfen	treu	loyal	ehrlich	lachen	tolerant	hindern	tot	lasch	eitel	leiden	tyrannisch	schön	freundlich	retten	spielen	fair	schlau	schlecht	fanatisch	rächen	strafen	faul	schroff	0	0	0	0	0	0	0	0	0	0	0	0	0	0	0	0	0	0	0	0	0	0	0	0	0	0	0	0	0	0
2024-06-12	12:27:54	12:46:24	1109775	6.6.1	4_exp_EVA_AWA_CON	83	B	A	Rpleas_acq	Same	Rpleas	2pleas	conawa_CS1_US6	conawa1_nomask	8	10	0	0	300	300	0	0	12875	schlau	1	16,2760416666666714036pct	helfen	treu	loyal	ehrlich	lachen	tolerant	hindern	tot	lasch	eitel	leiden	tyrannisch	schön	freundlich	retten	spielen	fair	schlau	schlecht	fanatisch	rächen	strafen	faul	schroff	0	0	0	0	0	0	0	0	0	0	0	0	0	0	0	0	0	0	0	0	0	0	0	0	0	0	0	0	0	0
2024-06-12	12:27:54	12:46:24	1109778	6.6.1	4_exp_EVA_AWA_CON	83	B	A	Rpleas_acq	Same	Rpleas	2pleas	conawa_CS1_US6_confidence	conawa1_nomask	8	10	0	0	300	300	0	0	12875	guess	1	16,2760416666666714036pct	helfen	treu	loyal	ehrlich	lachen	tolerant	hindern	tot	lasch	eitel	leiden	tyrannisch	schön	freundlich	retten	spielen	fair	schlau	schlecht	fanatisch	rächen	strafen	faul	schroff	0	0	0	0	0	0	0	0	0	0	0	0	0	0	0	0	0	0	0	0	0	0	0	0	0	0	0	0	0	0
2024-06-12	12:27:54	12:46:31	1116910	6.6.1	4_exp_EVA_AWA_CON	83	B	A	Rpleas_acq	Same	Rpleas	2pleas	conawa_CS1_US5	conawa1_nomask	8	11	0	0	300	300	0	0	6514	lachen	1	16,2760416666666714036pct	helfen	treu	loyal	ehrlich	lachen	tolerant	hindern	tot	lasch	eitel	leiden	tyrannisch	schön	freundlich	retten	spielen	fair	schlau	schlecht	fanatisch	rächen	strafen	faul	schroff	0	0	0	0	0	0	0	0	0	0	0	0	0	0	0	0	0	0	0	0	0	0	0	0	0	0	0	0	0	0
2024-06-12	12:27:54	12:46:31	1116912	6.6.1	4_exp_EVA_AWA_CON	83	B	A	Rpleas_acq	Same	Rpleas	2pleas	conawa_CS1_US5_confidence	conawa1_nomask	8	11	0	0	300	300	0	0	6514	guess	1	16,2760416666666714036pct	helfen	treu	loyal	ehrlich	lachen	tolerant	hindern	tot	lasch	eitel	leiden	tyrannisch	schön	freundlich	retten	spielen	fair	schlau	schlecht	fanatisch	rächen	strafen	faul	schroff	0	0	0	0	0	0	0	0	0	0	0	0	0	0	0	0	0	0	0	0	0	0	0	0	0	0	0	0	0	0
2024-06-12	12:27:54	12:46:43	1128928	6.6.1	4_exp_EVA_AWA_CON	83	B	A	Rpleas_acq	Same	Rpleas	2pleas	conawa_CS1_US3	conawa1_nomask	8	12	0	0	300	300	0	0	11406	retten	1	16,2760416666666714036pct	helfen	treu	loyal	ehrlich	lachen	tolerant	hindern	tot	lasch	eitel	leiden	tyrannisch	schön	freundlich	retten	spielen	fair	schlau	schlecht	fanatisch	rächen	strafen	faul	schroff	0	0	0	0	0	0	0	0	0	0	0	0	0	0	0	0	0	0	0	0	0	0	0	0	0	0	0	0	0	0
2024-06-12	12:27:54	12:46:43	1128930	6.6.1	4_exp_EVA_AWA_CON	83	B	A	Rpleas_acq	Same	Rpleas	2pleas	conawa_CS1_US3_confidence	conawa1_nomask	8	12	0	0	300	300	0	0	11406	guess	1	16,2760416666666714036pct	helfen	treu	loyal	ehrlich	lachen	tolerant	hindern	tot	lasch	eitel	leiden	tyrannisch	schön	freundlich	retten	spielen	fair	schlau	schlecht	fanatisch	rächen	strafen	faul	schroff	0	0	0	0	0	0	0	0	0	0	0	0	0	0	0	0	0	0	0	0	0	0	0	0	0	0	0	0	0	0
2024-06-12	12:27:54	12:48:41	1246831	6.6.1	4_exp_EVA_AWA_CON	83	B	A	Rpleas_acq	Same	Rpleas	2pleas	cond_US_pleas_123_nomask_CS2	condtest_nomask_1	11	1	400	1	300	300	0	0	466	50	1	16,2760416666666714036pct	helfen	treu	loyal	ehrlich	lachen	tolerant	hindern	tot	lasch	eitel	leiden	tyrannisch	schön	freundlich	retten	spielen	fair	schlau	schlecht	fanatisch	rächen	strafen	faul	schroff	1	blank2r.bmp	0	1	+	0	1	blank2r.bmp	500	1	GKQX	500	1	blank2r.bmp	880	2	helfen	880	1	!	1233	1	!	1367	0	0	0	0	0	0
2024-06-12	12:27:54	12:48:43	1249213	6.6.1	4_exp_EVA_AWA_CON	83	B	A	Rpleas_acq	Same	Rpleas	2pleas	cond_new_pleas_456_nomask_CS1	condtest_nomask_1	11	2	400	0	300	300	0	0	608	50	1	16,2760416666666714036pct	helfen	treu	loyal	ehrlich	lachen	tolerant	hindern	tot	lasch	eitel	leiden	tyrannisch	schön	freundlich	retten	spielen	fair	schlau	schlecht	fanatisch	rächen	strafen	faul	schroff	1	blank2r.bmp	0	1	+	0	1	blank2r.bmp	500	1	BMVZ	500	1	blank2r.bmp	880	1	spielen	880	1	!	1232	1	!	-1	0	0	0	0	0	0
2024-06-12	12:27:54	12:48:45	1251237	6.6.1	4_exp_EVA_AWA_CON	83	B	A	Rpleas_acq	Same	Rpleas	2pleas	cond_new_unple_456_nomask_CS1	condtest_nomask_1	11	3	400	0	300	300	0	0	251	50	0	16,2760416666666714036pct	helfen	treu	loyal	ehrlich	lachen	tolerant	hindern	tot	lasch	eitel	leiden	tyrannisch	schön	freundlich	retten	spielen	fair	schlau	schlecht	fanatisch	rächen	strafen	faul	schroff	1	blank2r.bmp	0	1	+	0	1	blank2r.bmp	500	1	BMVZ	500	1	blank2r.bmp	880	2	faul	880	1	!	-1	1	!	-1	0	0	0	0	0	0
2024-06-12	12:27:54	12:48:48	1253447	6.6.1	4_exp_EVA_AWA_CON	83	B	A	Rpleas_acq	Same	Rpleas	2pleas	cond_new_pleas_456_nomask_CS2	condtest_nomask_1	11	4	400	1	300	300	0	0	427	46	0	16,2760416666666714036pct	helfen	treu	loyal	ehrlich	lachen	tolerant	hindern	tot	lasch	eitel	leiden	tyrannisch	schön	freundlich	retten	spielen	fair	schlau	schlecht	fanatisch	rächen	strafen	faul	schroff	1	blank2r.bmp	0	1	+	0	1	blank2r.bmp	500	1	GKQX	500	1	blank2r.bmp	880	3	fair	880	1	!	1232	1	!	1328	0	0	0	0	0	0
2024-06-12	12:27:54	12:48:50	1255757	6.6.1	4_exp_EVA_AWA_CON	83	B	A	Rpleas_acq	Same	Rpleas	2pleas	cond_new_unple_456_nomask_CS2	condtest_nomask_1	11	5	400	0	300	300	0	0	538	46	1	16,2760416666666714036pct	helfen	treu	loyal	ehrlich	lachen	tolerant	hindern	tot	lasch	eitel	leiden	tyrannisch	schön	freundlich	retten	spielen	fair	schlau	schlecht	fanatisch	rächen	strafen	faul	schroff	1	blank2r.bmp	0	1	+	0	1	blank2r.bmp	500	1	GKQX	500	1	blank2r.bmp	880	1	schroff	880	1	!	1232	1	!	-1	0	0	0	0	0	0
2024-06-12	12:27:54	12:48:52	1258093	6.6.1	4_exp_EVA_AWA_CON	83	B	A	Rpleas_acq	Same	Rpleas	2pleas	cond_US_unple_123_nomask_CS2	condtest_nomask_1	11	6	400	0	300	300	0	0	562	46	1	16,2760416666666714036pct	helfen	treu	loyal	ehrlich	lachen	tolerant	hindern	tot	lasch	eitel	leiden	tyrannisch	schön	freundlich	retten	spielen	fair	schlau	schlecht	fanatisch	rächen	strafen	faul	schroff	1	blank2r.bmp	0	1	+	0	1	blank2r.bmp	500	1	GKQX	500	1	blank2r.bmp	880	2	hindern	880	1	!	1232	1	!	-1	0	0	0	0	0	0
2024-06-12	12:27:54	12:48:54	1260278	6.6.1	4_exp_EVA_AWA_CON	83	B	A	Rpleas_acq	Same	Rpleas	2pleas	cond_US_pleas_123_nomask_CS1	condtest_nomask_1	11	7	400	1	300	300	0	0	405	50	1	16,2760416666666714036pct	helfen	treu	loyal	ehrlich	lachen	tolerant	hindern	tot	lasch	eitel	leiden	tyrannisch	schön	freundlich	retten	spielen	fair	schlau	schlecht	fanatisch	rächen	strafen	faul	schroff	1	blank2r.bmp	0	1	+	0	1	blank2r.bmp	500	1	BMVZ	500	1	blank2r.bmp	880	2	treu	880	1	!	1232	1	!	1306	0	0	0	0	0	0
2024-06-12	12:27:54	12:48:57	1262462	6.6.1	4_exp_EVA_AWA_CON	83	B	A	Rpleas_acq	Same	Rpleas	2pleas	cond_US_unple_123_nomask_CS1	condtest_nomask_1	11	8	400	1	300	300	0	0	407	46	1	16,2760416666666714036pct	helfen	treu	loyal	ehrlich	lachen	tolerant	hindern	tot	lasch	eitel	leiden	tyrannisch	schön	freundlich	retten	spielen	fair	schlau	schlecht	fanatisch	rächen	strafen	faul	schroff	1	blank2r.bmp	0	1	+	0	1	blank2r.bmp	500	1	BMVZ	500	1	blank2r.bmp	880	1	hindern	880	1	!	1232	1	!	1309	0	0	0	0	0	0
2024-06-12	12:27:54	12:49:04	1269389	6.6.1	4_exp_EVA_AWA_CON	83	B	A	Rpleas_acq	Same	Rpleas	2pleas	cond_US_pleas_123_nomask_CS1	condtest_nomask_2	12	1	400	0	300	300	0	0	561	50	1	16,2760416666666714036pct	helfen	treu	loyal	ehrlich	lachen	tolerant	hindern	tot	lasch	eitel	leiden	tyrannisch	schön	freundlich	retten	spielen	fair	schlau	schlecht	fanatisch	rächen	strafen	faul	schroff	1	blank2r.bmp	0	1	+	0	1	blank2r.bmp	500	1	BMVZ	500	1	blank2r.bmp	880	1	helfen	880	1	!	1232	1	!	-1	0	0	0	0	0	0
