date	time	currenttime	elapsedtime	build	currentexpt	subject	CS_AB	US_AB	LRpleas_acq	SameOppo	condition_Lpleas	condition_1pleas	trialcode	blockcode	blocknum	trialnum	windowcenter	inwindow	pretrialpause	posttrialpause	trialduration	trialtimeout	latency	response	correct	correctedscore	US_nomask_pleas1	US_nomask_pleas2	US_nomask_pleas3	US_nomask_pleas4	US_nomask_pleas5	US_nomask_pleas6	US_nomask_unple1	US_nomask_unple2	US_nomask_unple3	US_nomask_unple4	US_nomask_unple5	US_nomask_unple6	new_nomask_pleas1	new_nomask_pleas2	new_nomask_pleas3	new_nomask_pleas4	new_nomask_pleas5	new_nomask_pleas6	new_nomask_unple1	new_nomask_unple2	new_nomask_unple3	new_nomask_unple4	new_nomask_unple5	new_nomask_unple6	stimulusnumber1	stimulusitem1	stimulusonset1	stimulusnumber2	stimulusitem2	stimulusonset2	stimulusnumber3	stimulusitem3	stimulusonset3	stimulusnumber4	stimulusitem4	stimulusonset4	stimulusnumber5	stimulusitem5	stimulusonset5	stimulusnumber6	stimulusitem6	stimulusonset6	stimulusnumber7	stimulusitem7	stimulusonset7	stimulusnumber8	stimulusitem8	stimulusonset8	stimulusnumber9	stimulusitem9	stimulusonset9	stimulusnumber10	stimulusitem10	stimulusonset10
2024-05-16	10:01:49	10:06:32	283512	6.6.1	4_exp_EVA_AWA_CON	40	A	B	Rpleas_acq	Oppo	Rpleas	2pleas	acq_new_unple_nomask	acq1_nomask	1	1	0	0	300	300	0	0	1290	46	1	0	sonnig	vertrauen	kuss	engagiert	vergnügt	gesittet	sterben	versagen	krise	engstirnig	verbissen	geizig	träumen	gütig	anregung	besonnen	kreativ	genießen	töten	gierig	ausrottung	bange	krank	gemein	1	blank2r.bmp	0	1	+	0	1	blank2r.bmp	500	7	C3r.bmp	500	1	blank2r.bmp	880	5	krank	880	0	0	0	0	0	0	0	0	0	0	0	0
2024-05-16	10:01:49	10:06:35	285679	6.6.1	4_exp_EVA_AWA_CON	40	A	B	Rpleas_acq	Oppo	Rpleas	2pleas	acq_new_pleas_nomask	acq1_nomask	1	2	0	0	300	300	0	0	686	50	1	0	sonnig	vertrauen	kuss	engagiert	vergnügt	gesittet	sterben	versagen	krise	engstirnig	verbissen	geizig	träumen	gütig	anregung	besonnen	kreativ	genießen	töten	gierig	ausrottung	bange	krank	gemein	1	blank2r.bmp	0	1	+	0	1	blank2r.bmp	500	2	B2r.bmp	500	1	blank2r.bmp	880	4	besonnen	880	0	0	0	0	0	0	0	0	0	0	0	0
2024-05-16	10:01:49	10:06:37	287967	6.6.1	4_exp_EVA_AWA_CON	40	A	B	Rpleas_acq	Oppo	Rpleas	2pleas	acq_new_pleas_nomask	acq1_nomask	1	3	0	0	300	300	0	0	803	50	1	0	sonnig	vertrauen	kuss	engagiert	vergnügt	gesittet	sterben	versagen	krise	engstirnig	verbissen	geizig	träumen	gütig	anregung	besonnen	kreativ	genießen	töten	gierig	ausrottung	bange	krank	gemein	1	blank2r.bmp	0	1	+	0	1	blank2r.bmp	500	5	C1r.bmp	500	1	blank2r.bmp	880	5	kreativ	880	0	0	0	0	0	0	0	0	0	0	0	0
2024-05-16	10:01:49	10:06:39	290399	6.6.1	4_exp_EVA_AWA_CON	40	A	B	Rpleas_acq	Oppo	Rpleas	2pleas	acq_US_unple_nomask	acq1_nomask	1	4	0	0	300	300	0	0	943	46	1	0	sonnig	vertrauen	kuss	engagiert	vergnügt	gesittet	sterben	versagen	krise	engstirnig	verbissen	geizig	träumen	gütig	anregung	besonnen	kreativ	genießen	töten	gierig	ausrottung	bange	krank	gemein	1	blank2r.bmp	0	1	+	0	1	blank2r.bmp	500	1	CPLW	500	1	blank2r.bmp	880	4	engstirnig	880	0	0	0	0	0	0	0	0	0	0	0	0
2024-05-16	10:01:49	10:06:42	292528	6.6.1	4_exp_EVA_AWA_CON	40	A	B	Rpleas_acq	Oppo	Rpleas	2pleas	acq_US_pleas_nomask	acq1_nomask	1	5	0	0	300	300	0	0	640	50	1	0	sonnig	vertrauen	kuss	engagiert	vergnügt	gesittet	sterben	versagen	krise	engstirnig	verbissen	geizig	träumen	gütig	anregung	besonnen	kreativ	genießen	töten	gierig	ausrottung	bange	krank	gemein	1	blank2r.bmp	0	1	+	0	1	blank2r.bmp	500	1	DHJF	500	1	blank2r.bmp	880	3	kuss	880	0	0	0	0	0	0	0	0	0	0	0	0
2024-05-16	10:01:49	10:06:44	294663	6.6.1	4_exp_EVA_AWA_CON	40	A	B	Rpleas_acq	Oppo	Rpleas	2pleas	acq_US_unple_nomask	acq1_nomask	1	6	0	0	300	300	0	0	654	46	1	0	sonnig	vertrauen	kuss	engagiert	vergnügt	gesittet	sterben	versagen	krise	engstirnig	verbissen	geizig	träumen	gütig	anregung	besonnen	kreativ	genießen	töten	gierig	ausrottung	bange	krank	gemein	1	blank2r.bmp	0	1	+	0	1	blank2r.bmp	500	1	CPLW	500	1	blank2r.bmp	880	3	krise	880	0	0	0	0	0	0	0	0	0	0	0	0
2024-05-16	10:01:49	10:06:46	296743	6.6.1	4_exp_EVA_AWA_CON	40	A	B	Rpleas_acq	Oppo	Rpleas	2pleas	acq_new_unple_nomask	acq1_nomask	1	7	0	0	300	300	0	0	593	46	1	0	sonnig	vertrauen	kuss	engagiert	vergnügt	gesittet	sterben	versagen	krise	engstirnig	verbissen	geizig	träumen	gütig	anregung	besonnen	kreativ	genießen	töten	gierig	ausrottung	bange	krank	gemein	1	blank2r.bmp	0	1	+	0	1	blank2r.bmp	500	8	C4r.bmp	500	1	blank2r.bmp	880	2	gierig	880	0	0	0	0	0	0	0	0	0	0	0	0
2024-05-16	10:01:49	10:06:48	298855	6.6.1	4_exp_EVA_AWA_CON	40	A	B	Rpleas_acq	Oppo	Rpleas	2pleas	acq_US_pleas_nomask	acq1_nomask	1	8	0	0	300	300	0	0	624	50	1	0	sonnig	vertrauen	kuss	engagiert	vergnügt	gesittet	sterben	versagen	krise	engstirnig	verbissen	geizig	träumen	gütig	anregung	besonnen	kreativ	genießen	töten	gierig	ausrottung	bange	krank	gemein	1	blank2r.bmp	0	1	+	0	1	blank2r.bmp	500	1	DHJF	500	1	blank2r.bmp	880	4	engagiert	880	0	0	0	0	0	0	0	0	0	0	0	0
2024-05-16	10:01:49	10:06:50	300871	6.6.1	4_exp_EVA_AWA_CON	40	A	B	Rpleas_acq	Oppo	Rpleas	2pleas	acq_US_pleas_nomask	acq1_nomask	1	9	0	0	300	300	0	0	528	50	1	0	sonnig	vertrauen	kuss	engagiert	vergnügt	gesittet	sterben	versagen	krise	engstirnig	verbissen	geizig	träumen	gütig	anregung	besonnen	kreativ	genießen	töten	gierig	ausrottung	bange	krank	gemein	1	blank2r.bmp	0	1	+	0	1	blank2r.bmp	500	1	DHJF	500	1	blank2r.bmp	880	2	vertrauen	880	0	0	0	0	0	0	0	0	0	0	0	0
2024-05-16	10:01:49	10:06:52	302887	6.6.1	4_exp_EVA_AWA_CON	40	A	B	Rpleas_acq	Oppo	Rpleas	2pleas	acq_US_unple_nomask	acq1_nomask	1	10	0	0	300	300	0	0	533	46	1	0	sonnig	vertrauen	kuss	engagiert	vergnügt	gesittet	sterben	versagen	krise	engstirnig	verbissen	geizig	träumen	gütig	anregung	besonnen	kreativ	genießen	töten	gierig	ausrottung	bange	krank	gemein	1	blank2r.bmp	0	1	+	0	1	blank2r.bmp	500	1	CPLW	500	1	blank2r.bmp	880	1	sterben	880	0	0	0	0	0	0	0	0	0	0	0	0
2024-05-16	10:01:49	10:06:54	304927	6.6.1	4_exp_EVA_AWA_CON	40	A	B	Rpleas_acq	Oppo	Rpleas	2pleas	acq_new_pleas_nomask	acq1_nomask	1	11	0	0	300	300	0	0	552	50	1	0	sonnig	vertrauen	kuss	engagiert	vergnügt	gesittet	sterben	versagen	krise	engstirnig	verbissen	geizig	träumen	gütig	anregung	besonnen	kreativ	genießen	töten	gierig	ausrottung	bange	krank	gemein	1	blank2r.bmp	0	1	+	0	1	blank2r.bmp	500	1	B1r.bmp	500	1	blank2r.bmp	880	6	genießen	880	0	0	0	0	0	0	0	0	0	0	0	0
2024-05-16	10:01:49	10:06:56	307048	6.6.1	4_exp_EVA_AWA_CON	40	A	B	Rpleas_acq	Oppo	Rpleas	2pleas	acq_new_unple_nomask	acq1_nomask	1	12	0	0	300	300	0	0	630	46	1	0	sonnig	vertrauen	kuss	engagiert	vergnügt	gesittet	sterben	versagen	krise	engstirnig	verbissen	geizig	träumen	gütig	anregung	besonnen	kreativ	genießen	töten	gierig	ausrottung	bange	krank	gemein	1	blank2r.bmp	0	1	+	0	1	blank2r.bmp	500	4	B4r.bmp	500	1	blank2r.bmp	880	3	ausrottung	880	0	0	0	0	0	0	0	0	0	0	0	0
2024-05-16	10:01:49	10:06:58	308975	6.6.1	4_exp_EVA_AWA_CON	40	A	B	Rpleas_acq	Oppo	Rpleas	2pleas	acq_US_unple_nomask	acq1_nomask	1	13	0	0	300	300	0	0	447	46	1	0	sonnig	vertrauen	kuss	engagiert	vergnügt	gesittet	sterben	versagen	krise	engstirnig	verbissen	geizig	träumen	gütig	anregung	besonnen	kreativ	genießen	töten	gierig	ausrottung	bange	krank	gemein	1	blank2r.bmp	0	1	+	0	1	blank2r.bmp	500	1	CPLW	500	1	blank2r.bmp	880	5	verbissen	880	0	0	0	0	0	0	0	0	0	0	0	0
2024-05-16	10:01:49	10:07:00	311055	6.6.1	4_exp_EVA_AWA_CON	40	A	B	Rpleas_acq	Oppo	Rpleas	2pleas	acq_new_pleas_nomask	acq1_nomask	1	14	0	0	300	300	0	0	596	50	1	0	sonnig	vertrauen	kuss	engagiert	vergnügt	gesittet	sterben	versagen	krise	engstirnig	verbissen	geizig	träumen	gütig	anregung	besonnen	kreativ	genießen	töten	gierig	ausrottung	bange	krank	gemein	1	blank2r.bmp	0	1	+	0	1	blank2r.bmp	500	6	C2r.bmp	500	1	blank2r.bmp	880	3	anregung	880	0	0	0	0	0	0	0	0	0	0	0	0
2024-05-16	10:01:49	10:07:02	313007	6.6.1	4_exp_EVA_AWA_CON	40	A	B	Rpleas_acq	Oppo	Rpleas	2pleas	acq_US_unple_nomask	acq1_nomask	1	15	0	0	300	300	0	0	466	46	1	0	sonnig	vertrauen	kuss	engagiert	vergnügt	gesittet	sterben	versagen	krise	engstirnig	verbissen	geizig	träumen	gütig	anregung	besonnen	kreativ	genießen	töten	gierig	ausrottung	bange	krank	gemein	1	blank2r.bmp	0	1	+	0	1	blank2r.bmp	500	1	CPLW	500	1	blank2r.bmp	880	6	geizig	880	0	0	0	0	0	0	0	0	0	0	0	0
2024-05-16	10:01:49	10:07:04	314967	6.6.1	4_exp_EVA_AWA_CON	40	A	B	Rpleas_acq	Oppo	Rpleas	2pleas	acq_new_unple_nomask	acq1_nomask	1	16	0	0	300	300	0	0	475	46	1	0	sonnig	vertrauen	kuss	engagiert	vergnügt	gesittet	sterben	versagen	krise	engstirnig	verbissen	geizig	träumen	gütig	anregung	besonnen	kreativ	genießen	töten	gierig	ausrottung	bange	krank	gemein	1	blank2r.bmp	0	1	+	0	1	blank2r.bmp	500	3	B3r.bmp	500	1	blank2r.bmp	880	6	gemein	880	0	0	0	0	0	0	0	0	0	0	0	0
2024-05-16	10:01:49	10:07:06	316847	6.6.1	4_exp_EVA_AWA_CON	40	A	B	Rpleas_acq	Oppo	Rpleas	2pleas	acq_US_pleas_nomask	acq1_nomask	1	17	0	0	300	300	0	0	394	50	1	0	sonnig	vertrauen	kuss	engagiert	vergnügt	gesittet	sterben	versagen	krise	engstirnig	verbissen	geizig	träumen	gütig	anregung	besonnen	kreativ	genießen	töten	gierig	ausrottung	bange	krank	gemein	1	blank2r.bmp	0	1	+	0	1	blank2r.bmp	500	1	DHJF	500	1	blank2r.bmp	880	5	vergnügt	880	0	0	0	0	0	0	0	0	0	0	0	0
2024-05-16	10:01:49	10:07:08	318911	6.6.1	4_exp_EVA_AWA_CON	40	A	B	Rpleas_acq	Oppo	Rpleas	2pleas	acq_US_pleas_nomask	acq1_nomask	1	18	0	0	300	300	0	0	577	50	1	0	sonnig	vertrauen	kuss	engagiert	vergnügt	gesittet	sterben	versagen	krise	engstirnig	verbissen	geizig	träumen	gütig	anregung	besonnen	kreativ	genießen	töten	gierig	ausrottung	bange	krank	gemein	1	blank2r.bmp	0	1	+	0	1	blank2r.bmp	500	1	DHJF	500	1	blank2r.bmp	880	6	gesittet	880	0	0	0	0	0	0	0	0	0	0	0	0
2024-05-16	10:01:49	10:07:10	320903	6.6.1	4_exp_EVA_AWA_CON	40	A	B	Rpleas_acq	Oppo	Rpleas	2pleas	acq_US_pleas_nomask	acq1_nomask	1	19	0	0	300	300	0	0	507	50	1	0	sonnig	vertrauen	kuss	engagiert	vergnügt	gesittet	sterben	versagen	krise	engstirnig	verbissen	geizig	träumen	gütig	anregung	besonnen	kreativ	genießen	töten	gierig	ausrottung	bange	krank	gemein	1	blank2r.bmp	0	1	+	0	1	blank2r.bmp	500	1	DHJF	500	1	blank2r.bmp	880	1	sonnig	880	0	0	0	0	0	0	0	0	0	0	0	0
2024-05-16	10:01:49	10:07:12	322855	6.6.1	4_exp_EVA_AWA_CON	40	A	B	Rpleas_acq	Oppo	Rpleas	2pleas	acq_US_unple_nomask	acq1_nomask	1	20	0	0	300	300	0	0	468	46	1	0	sonnig	vertrauen	kuss	engagiert	vergnügt	gesittet	sterben	versagen	krise	engstirnig	verbissen	geizig	träumen	gütig	anregung	besonnen	kreativ	genießen	töten	gierig	ausrottung	bange	krank	gemein	1	blank2r.bmp	0	1	+	0	1	blank2r.bmp	500	1	CPLW	500	1	blank2r.bmp	880	2	versagen	880	0	0	0	0	0	0	0	0	0	0	0	0
2024-05-16	10:01:49	10:07:14	324959	6.6.1	4_exp_EVA_AWA_CON	40	A	B	Rpleas_acq	Oppo	Rpleas	2pleas	acq_new_pleas_nomask	acq1_nomask	1	21	0	0	300	300	0	0	621	50	1	0	sonnig	vertrauen	kuss	engagiert	vergnügt	gesittet	sterben	versagen	krise	engstirnig	verbissen	geizig	träumen	gütig	anregung	besonnen	kreativ	genießen	töten	gierig	ausrottung	bange	krank	gemein	1	blank2r.bmp	0	1	+	0	1	blank2r.bmp	500	2	B2r.bmp	500	1	blank2r.bmp	880	1	träumen	880	0	0	0	0	0	0	0	0	0	0	0	0
2024-05-16	10:01:49	10:07:16	327080	6.6.1	4_exp_EVA_AWA_CON	40	A	B	Rpleas_acq	Oppo	Rpleas	2pleas	acq_new_unple_nomask	acq1_nomask	1	22	0	0	300	300	0	0	640	46	1	0	sonnig	vertrauen	kuss	engagiert	vergnügt	gesittet	sterben	versagen	krise	engstirnig	verbissen	geizig	träumen	gütig	anregung	besonnen	kreativ	genießen	töten	gierig	ausrottung	bange	krank	gemein	1	blank2r.bmp	0	1	+	0	1	blank2r.bmp	500	8	C4r.bmp	500	1	blank2r.bmp	880	4	bange	880	0	0	0	0	0	0	0	0	0	0	0	0
2024-05-16	10:01:49	10:07:18	329103	6.6.1	4_exp_EVA_AWA_CON	40	A	B	Rpleas_acq	Oppo	Rpleas	2pleas	acq_new_unple_nomask	acq1_nomask	1	23	0	0	300	300	0	0	542	46	1	0	sonnig	vertrauen	kuss	engagiert	vergnügt	gesittet	sterben	versagen	krise	engstirnig	verbissen	geizig	träumen	gütig	anregung	besonnen	kreativ	genießen	töten	gierig	ausrottung	bange	krank	gemein	1	blank2r.bmp	0	1	+	0	1	blank2r.bmp	500	3	B3r.bmp	500	1	blank2r.bmp	880	1	töten	880	0	0	0	0	0	0	0	0	0	0	0	0
2024-05-16	10:01:49	10:07:20	331135	6.6.1	4_exp_EVA_AWA_CON	40	A	B	Rpleas_acq	Oppo	Rpleas	2pleas	acq_new_pleas_nomask	acq1_nomask	1	24	0	0	300	300	0	0	543	50	1	0	sonnig	vertrauen	kuss	engagiert	vergnügt	gesittet	sterben	versagen	krise	engstirnig	verbissen	geizig	träumen	gütig	anregung	besonnen	kreativ	genießen	töten	gierig	ausrottung	bange	krank	gemein	1	blank2r.bmp	0	1	+	0	1	blank2r.bmp	500	7	C3r.bmp	500	1	blank2r.bmp	880	2	gütig	880	0	0	0	0	0	0	0	0	0	0	0	0
2024-05-16	10:01:49	10:07:22	333079	6.6.1	4_exp_EVA_AWA_CON	40	A	B	Rpleas_acq	Oppo	Rpleas	2pleas	acq_new_unple_nomask	acq1_nomask	1	25	0	0	300	300	0	0	456	46	1	0	sonnig	vertrauen	kuss	engagiert	vergnügt	gesittet	sterben	versagen	krise	engstirnig	verbissen	geizig	träumen	gütig	anregung	besonnen	kreativ	genießen	töten	gierig	ausrottung	bange	krank	gemein	1	blank2r.bmp	0	1	+	0	1	blank2r.bmp	500	6	C2r.bmp	500	1	blank2r.bmp	880	5	krank	880	0	0	0	0	0	0	0	0	0	0	0	0
2024-05-16	10:01:49	10:07:24	335071	6.6.1	4_exp_EVA_AWA_CON	40	A	B	Rpleas_acq	Oppo	Rpleas	2pleas	acq_new_pleas_nomask	acq1_nomask	1	26	0	0	300	300	0	0	506	50	1	0	sonnig	vertrauen	kuss	engagiert	vergnügt	gesittet	sterben	versagen	krise	engstirnig	verbissen	geizig	träumen	gütig	anregung	besonnen	kreativ	genießen	töten	gierig	ausrottung	bange	krank	gemein	1	blank2r.bmp	0	1	+	0	1	blank2r.bmp	500	4	B4r.bmp	500	1	blank2r.bmp	880	2	gütig	880	0	0	0	0	0	0	0	0	0	0	0	0
2024-05-16	10:01:49	10:07:26	337056	6.6.1	4_exp_EVA_AWA_CON	40	A	B	Rpleas_acq	Oppo	Rpleas	2pleas	acq_US_unple_nomask	acq1_nomask	1	27	0	0	300	300	0	0	499	46	1	0	sonnig	vertrauen	kuss	engagiert	vergnügt	gesittet	sterben	versagen	krise	engstirnig	verbissen	geizig	träumen	gütig	anregung	besonnen	kreativ	genießen	töten	gierig	ausrottung	bange	krank	gemein	1	blank2r.bmp	0	1	+	0	1	blank2r.bmp	500	1	CPLW	500	1	blank2r.bmp	880	2	versagen	880	0	0	0	0	0	0	0	0	0	0	0	0
2024-05-16	10:01:49	10:07:28	339088	6.6.1	4_exp_EVA_AWA_CON	40	A	B	Rpleas_acq	Oppo	Rpleas	2pleas	acq_new_pleas_nomask	acq1_nomask	1	28	0	0	300	300	0	0	550	50	1	0	sonnig	vertrauen	kuss	engagiert	vergnügt	gesittet	sterben	versagen	krise	engstirnig	verbissen	geizig	träumen	gütig	anregung	besonnen	kreativ	genießen	töten	gierig	ausrottung	bange	krank	gemein	1	blank2r.bmp	0	1	+	0	1	blank2r.bmp	500	1	B1r.bmp	500	1	blank2r.bmp	880	4	besonnen	880	0	0	0	0	0	0	0	0	0	0	0	0
2024-05-16	10:01:49	10:07:30	341063	6.6.1	4_exp_EVA_AWA_CON	40	A	B	Rpleas_acq	Oppo	Rpleas	2pleas	acq_US_unple_nomask	acq1_nomask	1	29	0	0	300	300	0	0	494	46	1	0	sonnig	vertrauen	kuss	engagiert	vergnügt	gesittet	sterben	versagen	krise	engstirnig	verbissen	geizig	träumen	gütig	anregung	besonnen	kreativ	genießen	töten	gierig	ausrottung	bange	krank	gemein	1	blank2r.bmp	0	1	+	0	1	blank2r.bmp	500	1	CPLW	500	1	blank2r.bmp	880	1	sterben	880	0	0	0	0	0	0	0	0	0	0	0	0
2024-05-16	10:01:49	10:07:32	343408	6.6.1	4_exp_EVA_AWA_CON	40	A	B	Rpleas_acq	Oppo	Rpleas	2pleas	acq_new_unple_nomask	acq1_nomask	1	30	0	0	300	300	0	0	657	50	0	0	sonnig	vertrauen	kuss	engagiert	vergnügt	gesittet	sterben	versagen	krise	engstirnig	verbissen	geizig	träumen	gütig	anregung	besonnen	kreativ	genießen	töten	gierig	ausrottung	bange	krank	gemein	1	blank2r.bmp	0	1	+	0	1	blank2r.bmp	500	5	C1r.bmp	500	1	blank2r.bmp	880	2	gierig	880	1	FEHLER	1559	0	0	0	0	0	0	0	0	0
2024-05-16	10:01:49	10:07:34	345295	6.6.1	4_exp_EVA_AWA_CON	40	A	B	Rpleas_acq	Oppo	Rpleas	2pleas	acq_new_unple_nomask	acq1_nomask	1	31	0	0	300	300	0	0	604	46	1	0	sonnig	vertrauen	kuss	engagiert	vergnügt	gesittet	sterben	versagen	krise	engstirnig	verbissen	geizig	träumen	gütig	anregung	besonnen	kreativ	genießen	töten	gierig	ausrottung	bange	krank	gemein	1	blank2r.bmp	0	1	+	0	1	blank2r.bmp	500	3	B3r.bmp	500	1	blank2r.bmp	880	3	ausrottung	880	0	0	0	0	0	0	0	0	0	0	0	0
2024-05-16	10:01:49	10:07:36	347304	6.6.1	4_exp_EVA_AWA_CON	40	A	B	Rpleas_acq	Oppo	Rpleas	2pleas	acq_new_pleas_nomask	acq1_nomask	1	32	0	0	300	300	0	0	520	50	1	0	sonnig	vertrauen	kuss	engagiert	vergnügt	gesittet	sterben	versagen	krise	engstirnig	verbissen	geizig	träumen	gütig	anregung	besonnen	kreativ	genießen	töten	gierig	ausrottung	bange	krank	gemein	1	blank2r.bmp	0	1	+	0	1	blank2r.bmp	500	4	B4r.bmp	500	1	blank2r.bmp	880	3	anregung	880	0	0	0	0	0	0	0	0	0	0	0	0
2024-05-16	10:01:49	10:07:38	349367	6.6.1	4_exp_EVA_AWA_CON	40	A	B	Rpleas_acq	Oppo	Rpleas	2pleas	acq_US_pleas_nomask	acq1_nomask	1	33	0	0	300	300	0	0	583	50	1	0	sonnig	vertrauen	kuss	engagiert	vergnügt	gesittet	sterben	versagen	krise	engstirnig	verbissen	geizig	träumen	gütig	anregung	besonnen	kreativ	genießen	töten	gierig	ausrottung	bange	krank	gemein	1	blank2r.bmp	0	1	+	0	1	blank2r.bmp	500	1	DHJF	500	1	blank2r.bmp	880	6	gesittet	880	0	0	0	0	0	0	0	0	0	0	0	0
2024-05-16	10:01:49	10:07:40	351327	6.6.1	4_exp_EVA_AWA_CON	40	A	B	Rpleas_acq	Oppo	Rpleas	2pleas	acq_US_unple_nomask	acq1_nomask	1	34	0	0	300	300	0	0	472	46	1	0	sonnig	vertrauen	kuss	engagiert	vergnügt	gesittet	sterben	versagen	krise	engstirnig	verbissen	geizig	träumen	gütig	anregung	besonnen	kreativ	genießen	töten	gierig	ausrottung	bange	krank	gemein	1	blank2r.bmp	0	1	+	0	1	blank2r.bmp	500	1	CPLW	500	1	blank2r.bmp	880	4	engstirnig	880	0	0	0	0	0	0	0	0	0	0	0	0
2024-05-16	10:01:49	10:07:42	353295	6.6.1	4_exp_EVA_AWA_CON	40	A	B	Rpleas_acq	Oppo	Rpleas	2pleas	acq_US_pleas_nomask	acq1_nomask	1	35	0	0	300	300	0	0	479	50	1	0	sonnig	vertrauen	kuss	engagiert	vergnügt	gesittet	sterben	versagen	krise	engstirnig	verbissen	geizig	träumen	gütig	anregung	besonnen	kreativ	genießen	töten	gierig	ausrottung	bange	krank	gemein	1	blank2r.bmp	0	1	+	0	1	blank2r.bmp	500	1	DHJF	500	1	blank2r.bmp	880	1	sonnig	880	0	0	0	0	0	0	0	0	0	0	0	0
2024-05-16	10:01:49	10:07:44	355319	6.6.1	4_exp_EVA_AWA_CON	40	A	B	Rpleas_acq	Oppo	Rpleas	2pleas	acq_US_pleas_nomask	acq1_nomask	1	36	0	0	300	300	0	0	541	50	1	0	sonnig	vertrauen	kuss	engagiert	vergnügt	gesittet	sterben	versagen	krise	engstirnig	verbissen	geizig	träumen	gütig	anregung	besonnen	kreativ	genießen	töten	gierig	ausrottung	bange	krank	gemein	1	blank2r.bmp	0	1	+	0	1	blank2r.bmp	500	1	DHJF	500	1	blank2r.bmp	880	5	vergnügt	880	0	0	0	0	0	0	0	0	0	0	0	0
2024-05-16	10:01:49	10:08:16	386545	6.6.1	4_exp_EVA_AWA_CON	40	A	B	Rpleas_acq	Oppo	Rpleas	2pleas	acq_US_pleas_nomask	acq2_nomask	2	1	480	0	300	300	0	0	928	50	1	0	sonnig	vertrauen	kuss	engagiert	vergnügt	gesittet	sterben	versagen	krise	engstirnig	verbissen	geizig	träumen	gütig	anregung	besonnen	kreativ	genießen	töten	gierig	ausrottung	bange	krank	gemein	1	blank2r.bmp	0	1	+	0	1	blank2r.bmp	500	1	DHJF	500	1	blank2r.bmp	880	2	vertrauen	880	1	!	1312	1	!	-1	0	0	0	0	0	0
2024-05-16	10:01:49	10:08:18	388953	6.6.1	4_exp_EVA_AWA_CON	40	A	B	Rpleas_acq	Oppo	Rpleas	2pleas	acq_new_pleas_nomask	acq2_nomask	2	2	480	0	300	300	0	0	634	50	1	0	sonnig	vertrauen	kuss	engagiert	vergnügt	gesittet	sterben	versagen	krise	engstirnig	verbissen	geizig	träumen	gütig	anregung	besonnen	kreativ	genießen	töten	gierig	ausrottung	bange	krank	gemein	1	blank2r.bmp	0	1	+	0	1	blank2r.bmp	500	2	B2r.bmp	500	1	blank2r.bmp	880	5	kreativ	880	1	!	1312	1	!	-1	0	0	0	0	0	0
2024-05-16	10:01:49	10:08:20	391203	6.6.1	4_exp_EVA_AWA_CON	40	A	B	Rpleas_acq	Oppo	Rpleas	2pleas	acq_US_unple_nomask	acq2_nomask	2	3	480	1	300	300	0	0	470	46	1	0	sonnig	vertrauen	kuss	engagiert	vergnügt	gesittet	sterben	versagen	krise	engstirnig	verbissen	geizig	träumen	gütig	anregung	besonnen	kreativ	genießen	töten	gierig	ausrottung	bange	krank	gemein	1	blank2r.bmp	0	1	+	0	1	blank2r.bmp	500	1	CPLW	500	1	blank2r.bmp	880	3	krise	880	1	!	1312	1	!	1372	0	0	0	0	0	0
2024-05-16	10:01:49	10:08:22	393401	6.6.1	4_exp_EVA_AWA_CON	40	A	B	Rpleas_acq	Oppo	Rpleas	2pleas	acq_new_unple_nomask	acq2_nomask	2	4	480	1	300	300	0	0	419	46	1	0	sonnig	vertrauen	kuss	engagiert	vergnügt	gesittet	sterben	versagen	krise	engstirnig	verbissen	geizig	träumen	gütig	anregung	besonnen	kreativ	genießen	töten	gierig	ausrottung	bange	krank	gemein	1	blank2r.bmp	0	1	+	0	1	blank2r.bmp	500	1	B1r.bmp	500	1	blank2r.bmp	880	1	töten	880	1	!	1313	1	!	1319	0	0	0	0	0	0
2024-05-16	10:01:49	10:08:25	395754	6.6.1	4_exp_EVA_AWA_CON	40	A	B	Rpleas_acq	Oppo	Rpleas	2pleas	acq_US_unple_nomask	acq2_nomask	2	5	480	0	300	300	0	0	569	46	1	0	sonnig	vertrauen	kuss	engagiert	vergnügt	gesittet	sterben	versagen	krise	engstirnig	verbissen	geizig	träumen	gütig	anregung	besonnen	kreativ	genießen	töten	gierig	ausrottung	bange	krank	gemein	1	blank2r.bmp	0	1	+	0	1	blank2r.bmp	500	1	CPLW	500	1	blank2r.bmp	880	6	geizig	880	1	!	1312	1	!	-1	0	0	0	0	0	0
2024-05-16	10:01:49	10:08:27	398043	6.6.1	4_exp_EVA_AWA_CON	40	A	B	Rpleas_acq	Oppo	Rpleas	2pleas	acq_new_pleas_nomask	acq2_nomask	2	6	480	1	300	300	0	0	506	50	1	0	sonnig	vertrauen	kuss	engagiert	vergnügt	gesittet	sterben	versagen	krise	engstirnig	verbissen	geizig	träumen	gütig	anregung	besonnen	kreativ	genießen	töten	gierig	ausrottung	bange	krank	gemein	1	blank2r.bmp	0	1	+	0	1	blank2r.bmp	500	6	C2r.bmp	500	1	blank2r.bmp	880	1	träumen	880	1	!	1313	1	!	1408	0	0	0	0	0	0
2024-05-16	10:01:49	10:08:29	400331	6.6.1	4_exp_EVA_AWA_CON	40	A	B	Rpleas_acq	Oppo	Rpleas	2pleas	acq_US_pleas_nomask	acq2_nomask	2	7	480	1	300	300	0	0	512	50	1	0	sonnig	vertrauen	kuss	engagiert	vergnügt	gesittet	sterben	versagen	krise	engstirnig	verbissen	geizig	träumen	gütig	anregung	besonnen	kreativ	genießen	töten	gierig	ausrottung	bange	krank	gemein	1	blank2r.bmp	0	1	+	0	1	blank2r.bmp	500	1	DHJF	500	1	blank2r.bmp	880	4	engagiert	880	1	!	1312	1	!	1414	0	0	0	0	0	0
2024-05-16	10:01:49	10:08:32	402555	6.6.1	4_exp_EVA_AWA_CON	40	A	B	Rpleas_acq	Oppo	Rpleas	2pleas	acq_US_pleas_nomask	acq2_nomask	2	8	480	1	300	300	0	0	445	50	1	0	sonnig	vertrauen	kuss	engagiert	vergnügt	gesittet	sterben	versagen	krise	engstirnig	verbissen	geizig	träumen	gütig	anregung	besonnen	kreativ	genießen	töten	gierig	ausrottung	bange	krank	gemein	1	blank2r.bmp	0	1	+	0	1	blank2r.bmp	500	1	DHJF	500	1	blank2r.bmp	880	3	kuss	880	1	!	1312	1	!	1347	0	0	0	0	0	0
2024-05-16	10:01:49	10:08:34	404851	6.6.1	4_exp_EVA_AWA_CON	40	A	B	Rpleas_acq	Oppo	Rpleas	2pleas	acq_new_pleas_nomask	acq2_nomask	2	9	480	1	300	300	0	0	520	50	1	0	sonnig	vertrauen	kuss	engagiert	vergnügt	gesittet	sterben	versagen	krise	engstirnig	verbissen	geizig	träumen	gütig	anregung	besonnen	kreativ	genießen	töten	gierig	ausrottung	bange	krank	gemein	1	blank2r.bmp	0	1	+	0	1	blank2r.bmp	500	5	C1r.bmp	500	1	blank2r.bmp	880	6	genießen	880	1	!	1312	1	!	1422	0	0	0	0	0	0
2024-05-16	10:01:49	10:08:36	407083	6.6.1	4_exp_EVA_AWA_CON	40	A	B	Rpleas_acq	Oppo	Rpleas	2pleas	acq_new_unple_nomask	acq2_nomask	2	10	480	1	300	300	0	0	450	46	1	0	sonnig	vertrauen	kuss	engagiert	vergnügt	gesittet	sterben	versagen	krise	engstirnig	verbissen	geizig	träumen	gütig	anregung	besonnen	kreativ	genießen	töten	gierig	ausrottung	bange	krank	gemein	1	blank2r.bmp	0	1	+	0	1	blank2r.bmp	500	8	C4r.bmp	500	1	blank2r.bmp	880	6	gemein	880	1	!	1312	1	!	1352	0	0	0	0	0	0
2024-05-16	10:01:49	10:08:38	409323	6.6.1	4_exp_EVA_AWA_CON	40	A	B	Rpleas_acq	Oppo	Rpleas	2pleas	acq_US_unple_nomask	acq2_nomask	2	11	480	1	300	300	0	0	459	46	1	0	sonnig	vertrauen	kuss	engagiert	vergnügt	gesittet	sterben	versagen	krise	engstirnig	verbissen	geizig	träumen	gütig	anregung	besonnen	kreativ	genießen	töten	gierig	ausrottung	bange	krank	gemein	1	blank2r.bmp	0	1	+	0	1	blank2r.bmp	500	1	CPLW	500	1	blank2r.bmp	880	5	verbissen	880	1	!	1312	1	!	1360	0	0	0	0	0	0
2024-05-16	10:01:49	10:08:41	411521	6.6.1	4_exp_EVA_AWA_CON	40	A	B	Rpleas_acq	Oppo	Rpleas	2pleas	acq_new_unple_nomask	acq2_nomask	2	12	480	1	300	300	0	0	417	46	1	0	sonnig	vertrauen	kuss	engagiert	vergnügt	gesittet	sterben	versagen	krise	engstirnig	verbissen	geizig	träumen	gütig	anregung	besonnen	kreativ	genießen	töten	gierig	ausrottung	bange	krank	gemein	1	blank2r.bmp	0	1	+	0	1	blank2r.bmp	500	7	C3r.bmp	500	1	blank2r.bmp	880	4	bange	880	1	!	1312	1	!	1317	0	0	0	0	0	0
2024-05-16	10:01:49	10:08:43	413723	6.6.1	4_exp_EVA_AWA_CON	40	A	B	Rpleas_acq	Oppo	Rpleas	2pleas	acq_US_pleas_nomask	acq2_nomask	2	13	480	1	300	300	0	0	426	50	1	0	sonnig	vertrauen	kuss	engagiert	vergnügt	gesittet	sterben	versagen	krise	engstirnig	verbissen	geizig	träumen	gütig	anregung	besonnen	kreativ	genießen	töten	gierig	ausrottung	bange	krank	gemein	1	blank2r.bmp	0	1	+	0	1	blank2r.bmp	500	1	DHJF	500	1	blank2r.bmp	880	5	vergnügt	880	1	!	1313	1	!	1328	0	0	0	0	0	0
2024-05-16	10:01:49	10:08:45	415923	6.6.1	4_exp_EVA_AWA_CON	40	A	B	Rpleas_acq	Oppo	Rpleas	2pleas	acq_new_unple_nomask	acq2_nomask	2	14	480	1	300	300	0	0	424	46	1	0	sonnig	vertrauen	kuss	engagiert	vergnügt	gesittet	sterben	versagen	krise	engstirnig	verbissen	geizig	träumen	gütig	anregung	besonnen	kreativ	genießen	töten	gierig	ausrottung	bange	krank	gemein	1	blank2r.bmp	0	1	+	0	1	blank2r.bmp	500	7	C3r.bmp	500	1	blank2r.bmp	880	4	bange	880	1	!	1312	1	!	1326	0	0	0	0	0	0
2024-05-16	10:01:49	10:08:47	418340	6.6.1	4_exp_EVA_AWA_CON	40	A	B	Rpleas_acq	Oppo	Rpleas	2pleas	acq_new_pleas_nomask	acq2_nomask	2	15	480	1	300	300	0	0	439	46	0	0	sonnig	vertrauen	kuss	engagiert	vergnügt	gesittet	sterben	versagen	krise	engstirnig	verbissen	geizig	träumen	gütig	anregung	besonnen	kreativ	genießen	töten	gierig	ausrottung	bange	krank	gemein	1	blank2r.bmp	0	1	+	0	1	blank2r.bmp	500	8	C4r.bmp	500	1	blank2r.bmp	880	4	besonnen	880	1	FEHLER	1633	1	!	1313	1	!	1341	0	0	0
2024-05-16	10:01:49	10:08:49	420337	6.6.1	4_exp_EVA_AWA_CON	40	A	B	Rpleas_acq	Oppo	Rpleas	2pleas	acq_US_unple_nomask	acq2_nomask	2	16	480	1	300	300	0	0	418	46	1	0	sonnig	vertrauen	kuss	engagiert	vergnügt	gesittet	sterben	versagen	krise	engstirnig	verbissen	geizig	träumen	gütig	anregung	besonnen	kreativ	genießen	töten	gierig	ausrottung	bange	krank	gemein	1	blank2r.bmp	0	1	+	0	1	blank2r.bmp	500	1	CPLW	500	1	blank2r.bmp	880	2	versagen	880	1	!	1312	1	!	1318	0	0	0	0	0	0
2024-05-16	10:01:49	10:08:51	422505	6.6.1	4_exp_EVA_AWA_CON	40	A	B	Rpleas_acq	Oppo	Rpleas	2pleas	acq_US_pleas_nomask	acq2_nomask	2	17	480	0	300	300	0	0	394	50	1	0	sonnig	vertrauen	kuss	engagiert	vergnügt	gesittet	sterben	versagen	krise	engstirnig	verbissen	geizig	träumen	gütig	anregung	besonnen	kreativ	genießen	töten	gierig	ausrottung	bange	krank	gemein	1	blank2r.bmp	0	1	+	0	1	blank2r.bmp	500	1	DHJF	500	1	blank2r.bmp	880	6	gesittet	880	1	!	-1	1	!	-1	0	0	0	0	0	0
2024-05-16	10:01:49	10:08:58	428589	6.6.1	4_exp_EVA_AWA_CON	40	A	B	Rpleas_acq	Oppo	Rpleas	2pleas	acq_new_unple_nomask	acq2_nomask	2	18	480	0	300	300	0	0	4103	50	0	0	sonnig	vertrauen	kuss	engagiert	vergnügt	gesittet	sterben	versagen	krise	engstirnig	verbissen	geizig	träumen	gütig	anregung	besonnen	kreativ	genießen	töten	gierig	ausrottung	bange	krank	gemein	1	blank2r.bmp	0	1	+	0	1	blank2r.bmp	500	6	C2r.bmp	500	1	blank2r.bmp	880	1	töten	880	1	FEHLER	5297	1	!	1313	1	!	-1	0	0	0
2024-05-16	10:01:49	10:09:00	430761	6.6.1	4_exp_EVA_AWA_CON	40	A	B	Rpleas_acq	Oppo	Rpleas	2pleas	acq_US_unple_nomask	acq2_nomask	2	19	480	0	300	300	0	0	595	46	1	0	sonnig	vertrauen	kuss	engagiert	vergnügt	gesittet	sterben	versagen	krise	engstirnig	verbissen	geizig	träumen	gütig	anregung	besonnen	kreativ	genießen	töten	gierig	ausrottung	bange	krank	gemein	1	blank2r.bmp	0	1	+	0	1	blank2r.bmp	500	1	CPLW	500	1	blank2r.bmp	880	5	verbissen	880	1	!	1312	1	!	-1	0	0	0	0	0	0
2024-05-16	10:01:49	10:09:02	433019	6.6.1	4_exp_EVA_AWA_CON	40	A	B	Rpleas_acq	Oppo	Rpleas	2pleas	acq_US_unple_nomask	acq2_nomask	2	20	480	1	300	300	0	0	480	46	1	0	sonnig	vertrauen	kuss	engagiert	vergnügt	gesittet	sterben	versagen	krise	engstirnig	verbissen	geizig	träumen	gütig	anregung	besonnen	kreativ	genießen	töten	gierig	ausrottung	bange	krank	gemein	1	blank2r.bmp	0	1	+	0	1	blank2r.bmp	500	1	CPLW	500	1	blank2r.bmp	880	3	krise	880	1	!	1312	1	!	1382	0	0	0	0	0	0
2024-05-16	10:01:49	10:09:04	435307	6.6.1	4_exp_EVA_AWA_CON	40	A	B	Rpleas_acq	Oppo	Rpleas	2pleas	acq_new_pleas_nomask	acq2_nomask	2	21	480	1	300	300	0	0	506	50	1	0	sonnig	vertrauen	kuss	engagiert	vergnügt	gesittet	sterben	versagen	krise	engstirnig	verbissen	geizig	träumen	gütig	anregung	besonnen	kreativ	genießen	töten	gierig	ausrottung	bange	krank	gemein	1	blank2r.bmp	0	1	+	0	1	blank2r.bmp	500	3	B3r.bmp	500	1	blank2r.bmp	880	2	gütig	880	1	!	1313	1	!	1408	0	0	0	0	0	0
2024-05-16	10:01:49	10:09:07	437563	6.6.1	4_exp_EVA_AWA_CON	40	A	B	Rpleas_acq	Oppo	Rpleas	2pleas	acq_new_unple_nomask	acq2_nomask	2	22	480	1	300	300	0	0	481	46	1	0	sonnig	vertrauen	kuss	engagiert	vergnügt	gesittet	sterben	versagen	krise	engstirnig	verbissen	geizig	träumen	gütig	anregung	besonnen	kreativ	genießen	töten	gierig	ausrottung	bange	krank	gemein	1	blank2r.bmp	0	1	+	0	1	blank2r.bmp	500	5	C1r.bmp	500	1	blank2r.bmp	880	3	ausrottung	880	1	!	1313	1	!	1383	0	0	0	0	0	0
2024-05-16	10:01:49	10:09:09	439834	6.6.1	4_exp_EVA_AWA_CON	40	A	B	Rpleas_acq	Oppo	Rpleas	2pleas	acq_US_pleas_nomask	acq2_nomask	2	23	480	1	300	300	0	0	491	50	1	0	sonnig	vertrauen	kuss	engagiert	vergnügt	gesittet	sterben	versagen	krise	engstirnig	verbissen	geizig	träumen	gütig	anregung	besonnen	kreativ	genießen	töten	gierig	ausrottung	bange	krank	gemein	1	blank2r.bmp	0	1	+	0	1	blank2r.bmp	500	1	DHJF	500	1	blank2r.bmp	880	3	kuss	880	1	!	1312	1	!	1393	0	0	0	0	0	0
2024-05-16	10:01:49	10:09:11	442324	6.6.1	4_exp_EVA_AWA_CON	40	A	B	Rpleas_acq	Oppo	Rpleas	2pleas	acq_new_pleas_nomask	acq2_nomask	2	24	480	1	300	300	0	0	508	46	0	0	sonnig	vertrauen	kuss	engagiert	vergnügt	gesittet	sterben	versagen	krise	engstirnig	verbissen	geizig	träumen	gütig	anregung	besonnen	kreativ	genießen	töten	gierig	ausrottung	bange	krank	gemein	1	blank2r.bmp	0	1	+	0	1	blank2r.bmp	500	4	B4r.bmp	500	1	blank2r.bmp	880	5	kreativ	880	1	FEHLER	1701	1	!	1312	1	!	1409	0	0	0
2024-05-16	10:01:49	10:09:13	444371	6.6.1	4_exp_EVA_AWA_CON	40	A	B	Rpleas_acq	Oppo	Rpleas	2pleas	acq_new_unple_nomask	acq2_nomask	2	25	480	1	300	300	0	0	464	46	1	0	sonnig	vertrauen	kuss	engagiert	vergnügt	gesittet	sterben	versagen	krise	engstirnig	verbissen	geizig	träumen	gütig	anregung	besonnen	kreativ	genießen	töten	gierig	ausrottung	bange	krank	gemein	1	blank2r.bmp	0	1	+	0	1	blank2r.bmp	500	2	B2r.bmp	500	1	blank2r.bmp	880	2	gierig	880	1	!	1312	1	!	1366	0	0	0	0	0	0
2024-05-16	10:01:49	10:09:16	446603	6.6.1	4_exp_EVA_AWA_CON	40	A	B	Rpleas_acq	Oppo	Rpleas	2pleas	acq_new_unple_nomask	acq2_nomask	2	26	480	1	300	300	0	0	455	46	1	0	sonnig	vertrauen	kuss	engagiert	vergnügt	gesittet	sterben	versagen	krise	engstirnig	verbissen	geizig	träumen	gütig	anregung	besonnen	kreativ	genießen	töten	gierig	ausrottung	bange	krank	gemein	1	blank2r.bmp	0	1	+	0	1	blank2r.bmp	500	1	B1r.bmp	500	1	blank2r.bmp	880	5	krank	880	1	!	1312	1	!	1356	0	0	0	0	0	0
2024-05-16	10:01:49	10:09:18	448923	6.6.1	4_exp_EVA_AWA_CON	40	A	B	Rpleas_acq	Oppo	Rpleas	2pleas	acq_new_unple_nomask	acq2_nomask	2	27	480	1	300	300	0	0	543	46	1	0	sonnig	vertrauen	kuss	engagiert	vergnügt	gesittet	sterben	versagen	krise	engstirnig	verbissen	geizig	träumen	gütig	anregung	besonnen	kreativ	genießen	töten	gierig	ausrottung	bange	krank	gemein	1	blank2r.bmp	0	1	+	0	1	blank2r.bmp	500	1	B1r.bmp	500	1	blank2r.bmp	880	6	gemein	880	1	!	1312	1	!	1445	0	0	0	0	0	0
2024-05-16	10:01:49	10:09:20	451139	6.6.1	4_exp_EVA_AWA_CON	40	A	B	Rpleas_acq	Oppo	Rpleas	2pleas	acq_new_pleas_nomask	acq2_nomask	2	28	480	1	300	300	0	0	438	50	1	0	sonnig	vertrauen	kuss	engagiert	vergnügt	gesittet	sterben	versagen	krise	engstirnig	verbissen	geizig	träumen	gütig	anregung	besonnen	kreativ	genießen	töten	gierig	ausrottung	bange	krank	gemein	1	blank2r.bmp	0	1	+	0	1	blank2r.bmp	500	5	C1r.bmp	500	1	blank2r.bmp	880	1	träumen	880	1	!	1313	1	!	1339	0	0	0	0	0	0
2024-05-16	10:01:49	10:09:22	453355	6.6.1	4_exp_EVA_AWA_CON	40	A	B	Rpleas_acq	Oppo	Rpleas	2pleas	acq_US_pleas_nomask	acq2_nomask	2	29	480	1	300	300	0	0	432	50	1	0	sonnig	vertrauen	kuss	engagiert	vergnügt	gesittet	sterben	versagen	krise	engstirnig	verbissen	geizig	träumen	gütig	anregung	besonnen	kreativ	genießen	töten	gierig	ausrottung	bange	krank	gemein	1	blank2r.bmp	0	1	+	0	1	blank2r.bmp	500	1	DHJF	500	1	blank2r.bmp	880	1	sonnig	880	1	!	1312	1	!	1334	0	0	0	0	0	0
2024-05-16	10:01:49	10:09:25	455705	6.6.1	4_exp_EVA_AWA_CON	40	A	B	Rpleas_acq	Oppo	Rpleas	2pleas	acq_US_unple_nomask	acq2_nomask	2	30	480	0	300	300	0	0	573	46	1	0	sonnig	vertrauen	kuss	engagiert	vergnügt	gesittet	sterben	versagen	krise	engstirnig	verbissen	geizig	träumen	gütig	anregung	besonnen	kreativ	genießen	töten	gierig	ausrottung	bange	krank	gemein	1	blank2r.bmp	0	1	+	0	1	blank2r.bmp	500	1	CPLW	500	1	blank2r.bmp	880	4	engstirnig	880	1	!	1313	1	!	-1	0	0	0	0	0	0
2024-05-16	10:01:49	10:09:27	457979	6.6.1	4_exp_EVA_AWA_CON	40	A	B	Rpleas_acq	Oppo	Rpleas	2pleas	acq_US_pleas_nomask	acq2_nomask	2	31	480	1	300	300	0	0	494	50	1	0	sonnig	vertrauen	kuss	engagiert	vergnügt	gesittet	sterben	versagen	krise	engstirnig	verbissen	geizig	träumen	gütig	anregung	besonnen	kreativ	genießen	töten	gierig	ausrottung	bange	krank	gemein	1	blank2r.bmp	0	1	+	0	1	blank2r.bmp	500	1	DHJF	500	1	blank2r.bmp	880	4	engagiert	880	1	!	1313	1	!	1395	0	0	0	0	0	0
2024-05-16	10:01:49	10:09:29	460299	6.6.1	4_exp_EVA_AWA_CON	40	A	B	Rpleas_acq	Oppo	Rpleas	2pleas	acq_new_pleas_nomask	acq2_nomask	2	32	480	1	300	300	0	0	542	50	1	0	sonnig	vertrauen	kuss	engagiert	vergnügt	gesittet	sterben	versagen	krise	engstirnig	verbissen	geizig	träumen	gütig	anregung	besonnen	kreativ	genießen	töten	gierig	ausrottung	bange	krank	gemein	1	blank2r.bmp	0	1	+	0	1	blank2r.bmp	500	3	B3r.bmp	500	1	blank2r.bmp	880	3	anregung	880	1	!	1312	1	!	1443	0	0	0	0	0	0
2024-05-16	10:01:49	10:09:32	462579	6.6.1	4_exp_EVA_AWA_CON	40	A	B	Rpleas_acq	Oppo	Rpleas	2pleas	acq_US_pleas_nomask	acq2_nomask	2	33	480	1	300	300	0	0	501	50	1	0	sonnig	vertrauen	kuss	engagiert	vergnügt	gesittet	sterben	versagen	krise	engstirnig	verbissen	geizig	träumen	gütig	anregung	besonnen	kreativ	genießen	töten	gierig	ausrottung	bange	krank	gemein	1	blank2r.bmp	0	1	+	0	1	blank2r.bmp	500	1	DHJF	500	1	blank2r.bmp	880	2	vertrauen	880	1	!	1312	1	!	1403	0	0	0	0	0	0
2024-05-16	10:01:49	10:09:34	464795	6.6.1	4_exp_EVA_AWA_CON	40	A	B	Rpleas_acq	Oppo	Rpleas	2pleas	acq_US_unple_nomask	acq2_nomask	2	34	480	1	300	300	0	0	435	46	1	0	sonnig	vertrauen	kuss	engagiert	vergnügt	gesittet	sterben	versagen	krise	engstirnig	verbissen	geizig	träumen	gütig	anregung	besonnen	kreativ	genießen	töten	gierig	ausrottung	bange	krank	gemein	1	blank2r.bmp	0	1	+	0	1	blank2r.bmp	500	1	CPLW	500	1	blank2r.bmp	880	1	sterben	880	1	!	1313	1	!	1337	0	0	0	0	0	0
2024-05-16	10:01:49	10:09:36	467027	6.6.1	4_exp_EVA_AWA_CON	40	A	B	Rpleas_acq	Oppo	Rpleas	2pleas	acq_US_unple_nomask	acq2_nomask	2	35	480	1	300	300	0	0	456	46	1	0	sonnig	vertrauen	kuss	engagiert	vergnügt	gesittet	sterben	versagen	krise	engstirnig	verbissen	geizig	träumen	gütig	anregung	besonnen	kreativ	genießen	töten	gierig	ausrottung	bange	krank	gemein	1	blank2r.bmp	0	1	+	0	1	blank2r.bmp	500	1	CPLW	500	1	blank2r.bmp	880	6	geizig	880	1	!	1313	1	!	1357	0	0	0	0	0	0
2024-05-16	10:01:49	10:09:38	469468	6.6.1	4_exp_EVA_AWA_CON	40	A	B	Rpleas_acq	Oppo	Rpleas	2pleas	acq_new_pleas_nomask	acq2_nomask	2	36	480	1	300	300	0	0	464	46	0	0	sonnig	vertrauen	kuss	engagiert	vergnügt	gesittet	sterben	versagen	krise	engstirnig	verbissen	geizig	träumen	gütig	anregung	besonnen	kreativ	genießen	töten	gierig	ausrottung	bange	krank	gemein	1	blank2r.bmp	0	1	+	0	1	blank2r.bmp	500	8	C4r.bmp	500	1	blank2r.bmp	880	6	genießen	880	1	FEHLER	1658	1	!	1312	1	!	1366	0	0	0
2024-05-16	10:01:49	10:09:55	486177	6.6.1	4_exp_EVA_AWA_CON	40	A	B	Rpleas_acq	Oppo	Rpleas	2pleas	acq_US_pleas_nomask	acq3_nomask	3	1	453	0	300	300	0	0	606	50	1	0	sonnig	vertrauen	kuss	engagiert	vergnügt	gesittet	sterben	versagen	krise	engstirnig	verbissen	geizig	träumen	gütig	anregung	besonnen	kreativ	genießen	töten	gierig	ausrottung	bange	krank	gemein	1	blank2r.bmp	0	1	+	0	1	blank2r.bmp	500	1	DHJF	500	1	blank2r.bmp	880	4	engagiert	880	1	!	1293	1	!	-1	0	0	0	0	0	0
2024-05-16	10:01:49	10:09:58	488517	6.6.1	4_exp_EVA_AWA_CON	40	A	B	Rpleas_acq	Oppo	Rpleas	2pleas	acq_US_unple_nomask	acq3_nomask	3	2	453	0	300	300	0	0	360	50	0	0	sonnig	vertrauen	kuss	engagiert	vergnügt	gesittet	sterben	versagen	krise	engstirnig	verbissen	geizig	träumen	gütig	anregung	besonnen	kreativ	genießen	töten	gierig	ausrottung	bange	krank	gemein	1	blank2r.bmp	0	1	+	0	1	blank2r.bmp	500	1	CPLW	500	1	blank2r.bmp	880	6	geizig	880	1	FEHLER	1554	1	!	-1	1	!	-1	0	0	0
2024-05-16	10:01:49	10:09:59	490473	6.6.1	4_exp_EVA_AWA_CON	40	A	B	Rpleas_acq	Oppo	Rpleas	2pleas	acq_US_pleas_nomask	acq3_nomask	3	3	453	0	300	300	0	0	379	50	1	0	sonnig	vertrauen	kuss	engagiert	vergnügt	gesittet	sterben	versagen	krise	engstirnig	verbissen	geizig	träumen	gütig	anregung	besonnen	kreativ	genießen	töten	gierig	ausrottung	bange	krank	gemein	1	blank2r.bmp	0	1	+	0	1	blank2r.bmp	500	1	DHJF	500	1	blank2r.bmp	880	5	vergnügt	880	1	!	-1	1	!	-1	0	0	0	0	0	0
2024-05-16	10:01:49	10:10:02	492801	6.6.1	4_exp_EVA_AWA_CON	40	A	B	Rpleas_acq	Oppo	Rpleas	2pleas	acq_US_pleas_nomask	acq3_nomask	3	4	453	0	300	300	0	0	545	50	1	0	sonnig	vertrauen	kuss	engagiert	vergnügt	gesittet	sterben	versagen	krise	engstirnig	verbissen	geizig	träumen	gütig	anregung	besonnen	kreativ	genießen	töten	gierig	ausrottung	bange	krank	gemein	1	blank2r.bmp	0	1	+	0	1	blank2r.bmp	500	1	DHJF	500	1	blank2r.bmp	880	1	sonnig	880	1	!	1292	1	!	-1	0	0	0	0	0	0
2024-05-16	10:01:49	10:10:04	494929	6.6.1	4_exp_EVA_AWA_CON	40	A	B	Rpleas_acq	Oppo	Rpleas	2pleas	acq_US_pleas_nomask	acq3_nomask	3	5	453	0	300	300	0	0	352	50	1	0	sonnig	vertrauen	kuss	engagiert	vergnügt	gesittet	sterben	versagen	krise	engstirnig	verbissen	geizig	träumen	gütig	anregung	besonnen	kreativ	genießen	töten	gierig	ausrottung	bange	krank	gemein	1	blank2r.bmp	0	1	+	0	1	blank2r.bmp	500	1	DHJF	500	1	blank2r.bmp	880	3	kuss	880	1	!	-1	1	!	-1	0	0	0	0	0	0
2024-05-16	10:01:49	10:10:06	497211	6.6.1	4_exp_EVA_AWA_CON	40	A	B	Rpleas_acq	Oppo	Rpleas	2pleas	acq_US_unple_nomask	acq3_nomask	3	6	453	1	300	300	0	0	500	46	1	0	sonnig	vertrauen	kuss	engagiert	vergnügt	gesittet	sterben	versagen	krise	engstirnig	verbissen	geizig	träumen	gütig	anregung	besonnen	kreativ	genießen	töten	gierig	ausrottung	bange	krank	gemein	1	blank2r.bmp	0	1	+	0	1	blank2r.bmp	500	1	CPLW	500	1	blank2r.bmp	880	3	krise	880	1	!	1292	1	!	1402	0	0	0	0	0	0
2024-05-16	10:01:49	10:10:08	499499	6.6.1	4_exp_EVA_AWA_CON	40	A	B	Rpleas_acq	Oppo	Rpleas	2pleas	acq_US_unple_nomask	acq3_nomask	3	7	453	1	300	300	0	0	507	46	1	0	sonnig	vertrauen	kuss	engagiert	vergnügt	gesittet	sterben	versagen	krise	engstirnig	verbissen	geizig	träumen	gütig	anregung	besonnen	kreativ	genießen	töten	gierig	ausrottung	bange	krank	gemein	1	blank2r.bmp	0	1	+	0	1	blank2r.bmp	500	1	CPLW	500	1	blank2r.bmp	880	4	engstirnig	880	1	!	1292	1	!	1408	0	0	0	0	0	0
2024-05-16	10:01:49	10:10:11	501675	6.6.1	4_exp_EVA_AWA_CON	40	A	B	Rpleas_acq	Oppo	Rpleas	2pleas	acq_US_unple_nomask	acq3_nomask	3	8	453	1	300	300	0	0	393	46	1	0	sonnig	vertrauen	kuss	engagiert	vergnügt	gesittet	sterben	versagen	krise	engstirnig	verbissen	geizig	träumen	gütig	anregung	besonnen	kreativ	genießen	töten	gierig	ausrottung	bange	krank	gemein	1	blank2r.bmp	0	1	+	0	1	blank2r.bmp	500	1	CPLW	500	1	blank2r.bmp	880	1	sterben	880	1	!	1292	1	!	1293	0	0	0	0	0	0
2024-05-16	10:01:49	10:10:13	504037	6.6.1	4_exp_EVA_AWA_CON	40	A	B	Rpleas_acq	Oppo	Rpleas	2pleas	acq_US_unple_nomask	acq3_nomask	3	9	453	0	300	300	0	0	380	50	0	0	sonnig	vertrauen	kuss	engagiert	vergnügt	gesittet	sterben	versagen	krise	engstirnig	verbissen	geizig	träumen	gütig	anregung	besonnen	kreativ	genießen	töten	gierig	ausrottung	bange	krank	gemein	1	blank2r.bmp	0	1	+	0	1	blank2r.bmp	500	1	CPLW	500	1	blank2r.bmp	880	2	versagen	880	1	FEHLER	1574	1	!	-1	1	!	-1	0	0	0
2024-05-16	10:01:49	10:10:15	506075	6.6.1	4_exp_EVA_AWA_CON	40	A	B	Rpleas_acq	Oppo	Rpleas	2pleas	acq_US_pleas_nomask	acq3_nomask	3	10	453	1	300	300	0	0	459	50	1	0	sonnig	vertrauen	kuss	engagiert	vergnügt	gesittet	sterben	versagen	krise	engstirnig	verbissen	geizig	träumen	gütig	anregung	besonnen	kreativ	genießen	töten	gierig	ausrottung	bange	krank	gemein	1	blank2r.bmp	0	1	+	0	1	blank2r.bmp	500	1	DHJF	500	1	blank2r.bmp	880	6	gesittet	880	1	!	1293	1	!	1360	0	0	0	0	0	0
2024-05-16	10:01:49	10:10:17	508241	6.6.1	4_exp_EVA_AWA_CON	40	A	B	Rpleas_acq	Oppo	Rpleas	2pleas	acq_US_pleas_nomask	acq3_nomask	3	11	453	0	300	300	0	0	385	50	1	0	sonnig	vertrauen	kuss	engagiert	vergnügt	gesittet	sterben	versagen	krise	engstirnig	verbissen	geizig	träumen	gütig	anregung	besonnen	kreativ	genießen	töten	gierig	ausrottung	bange	krank	gemein	1	blank2r.bmp	0	1	+	0	1	blank2r.bmp	500	1	DHJF	500	1	blank2r.bmp	880	2	vertrauen	880	1	!	-1	1	!	-1	0	0	0	0	0	0
2024-05-16	10:01:49	10:10:19	510491	6.6.1	4_exp_EVA_AWA_CON	40	A	B	Rpleas_acq	Oppo	Rpleas	2pleas	acq_US_unple_nomask	acq3_nomask	3	12	453	1	300	300	0	0	472	46	1	0	sonnig	vertrauen	kuss	engagiert	vergnügt	gesittet	sterben	versagen	krise	engstirnig	verbissen	geizig	träumen	gütig	anregung	besonnen	kreativ	genießen	töten	gierig	ausrottung	bange	krank	gemein	1	blank2r.bmp	0	1	+	0	1	blank2r.bmp	500	1	CPLW	500	1	blank2r.bmp	880	5	verbissen	880	1	!	1292	1	!	1373	0	0	0	0	0	0
2024-05-16	10:01:49	10:10:22	512763	6.6.1	4_exp_EVA_AWA_CON	40	A	B	Rpleas_acq	Oppo	Rpleas	2pleas	acq_US_pleas_nomask	acq3_nomask	3	13	453	1	300	300	0	0	492	50	1	0	sonnig	vertrauen	kuss	engagiert	vergnügt	gesittet	sterben	versagen	krise	engstirnig	verbissen	geizig	träumen	gütig	anregung	besonnen	kreativ	genießen	töten	gierig	ausrottung	bange	krank	gemein	1	blank2r.bmp	0	1	+	0	1	blank2r.bmp	500	1	DHJF	500	1	blank2r.bmp	880	3	kuss	880	1	!	1292	1	!	1394	0	0	0	0	0	0
2024-05-16	10:01:49	10:10:24	514987	6.6.1	4_exp_EVA_AWA_CON	40	A	B	Rpleas_acq	Oppo	Rpleas	2pleas	acq_US_pleas_nomask	acq3_nomask	3	14	453	1	300	300	0	0	445	50	1	0	sonnig	vertrauen	kuss	engagiert	vergnügt	gesittet	sterben	versagen	krise	engstirnig	verbissen	geizig	träumen	gütig	anregung	besonnen	kreativ	genießen	töten	gierig	ausrottung	bange	krank	gemein	1	blank2r.bmp	0	1	+	0	1	blank2r.bmp	500	1	DHJF	500	1	blank2r.bmp	880	1	sonnig	880	1	!	1292	1	!	1346	0	0	0	0	0	0
2024-05-16	10:01:49	10:10:26	517287	6.6.1	4_exp_EVA_AWA_CON	40	A	B	Rpleas_acq	Oppo	Rpleas	2pleas	acq_US_pleas_nomask	acq3_nomask	3	15	453	0	300	300	0	0	527	50	1	0	sonnig	vertrauen	kuss	engagiert	vergnügt	gesittet	sterben	versagen	krise	engstirnig	verbissen	geizig	träumen	gütig	anregung	besonnen	kreativ	genießen	töten	gierig	ausrottung	bange	krank	gemein	1	blank2r.bmp	0	1	+	0	1	blank2r.bmp	500	1	DHJF	500	1	blank2r.bmp	880	2	vertrauen	880	1	!	1292	1	!	-1	0	0	0	0	0	0
2024-05-16	10:01:49	10:10:28	519409	6.6.1	4_exp_EVA_AWA_CON	40	A	B	Rpleas_acq	Oppo	Rpleas	2pleas	acq_US_unple_nomask	acq3_nomask	3	16	453	0	300	300	0	0	346	46	1	0	sonnig	vertrauen	kuss	engagiert	vergnügt	gesittet	sterben	versagen	krise	engstirnig	verbissen	geizig	träumen	gütig	anregung	besonnen	kreativ	genießen	töten	gierig	ausrottung	bange	krank	gemein	1	blank2r.bmp	0	1	+	0	1	blank2r.bmp	500	1	CPLW	500	1	blank2r.bmp	880	1	sterben	880	1	!	-1	1	!	-1	0	0	0	0	0	0
2024-05-16	10:01:49	10:10:31	521699	6.6.1	4_exp_EVA_AWA_CON	40	A	B	Rpleas_acq	Oppo	Rpleas	2pleas	acq_US_pleas_nomask	acq3_nomask	3	17	453	1	300	300	0	0	513	50	1	0	sonnig	vertrauen	kuss	engagiert	vergnügt	gesittet	sterben	versagen	krise	engstirnig	verbissen	geizig	träumen	gütig	anregung	besonnen	kreativ	genießen	töten	gierig	ausrottung	bange	krank	gemein	1	blank2r.bmp	0	1	+	0	1	blank2r.bmp	500	1	DHJF	500	1	blank2r.bmp	880	4	engagiert	880	1	!	1292	1	!	1414	0	0	0	0	0	0
2024-05-16	10:01:49	10:10:33	523963	6.6.1	4_exp_EVA_AWA_CON	40	A	B	Rpleas_acq	Oppo	Rpleas	2pleas	acq_US_pleas_nomask	acq3_nomask	3	18	453	1	300	300	0	0	485	50	1	0	sonnig	vertrauen	kuss	engagiert	vergnügt	gesittet	sterben	versagen	krise	engstirnig	verbissen	geizig	träumen	gütig	anregung	besonnen	kreativ	genießen	töten	gierig	ausrottung	bange	krank	gemein	1	blank2r.bmp	0	1	+	0	1	blank2r.bmp	500	1	DHJF	500	1	blank2r.bmp	880	5	vergnügt	880	1	!	1292	1	!	1387	0	0	0	0	0	0
2024-05-16	10:01:49	10:10:35	526105	6.6.1	4_exp_EVA_AWA_CON	40	A	B	Rpleas_acq	Oppo	Rpleas	2pleas	acq_US_unple_nomask	acq3_nomask	3	19	453	0	300	300	0	0	368	46	1	0	sonnig	vertrauen	kuss	engagiert	vergnügt	gesittet	sterben	versagen	krise	engstirnig	verbissen	geizig	träumen	gütig	anregung	besonnen	kreativ	genießen	töten	gierig	ausrottung	bange	krank	gemein	1	blank2r.bmp	0	1	+	0	1	blank2r.bmp	500	1	CPLW	500	1	blank2r.bmp	880	6	geizig	880	1	!	-1	1	!	-1	0	0	0	0	0	0
2024-05-16	10:01:49	10:10:37	528323	6.6.1	4_exp_EVA_AWA_CON	40	A	B	Rpleas_acq	Oppo	Rpleas	2pleas	acq_US_unple_nomask	acq3_nomask	3	20	453	1	300	300	0	0	442	46	1	0	sonnig	vertrauen	kuss	engagiert	vergnügt	gesittet	sterben	versagen	krise	engstirnig	verbissen	geizig	träumen	gütig	anregung	besonnen	kreativ	genießen	töten	gierig	ausrottung	bange	krank	gemein	1	blank2r.bmp	0	1	+	0	1	blank2r.bmp	500	1	CPLW	500	1	blank2r.bmp	880	2	versagen	880	1	!	1292	1	!	1344	0	0	0	0	0	0
2024-05-16	10:01:49	10:10:40	530611	6.6.1	4_exp_EVA_AWA_CON	40	A	B	Rpleas_acq	Oppo	Rpleas	2pleas	acq_US_pleas_nomask	acq3_nomask	3	21	453	1	300	300	0	0	509	50	1	0	sonnig	vertrauen	kuss	engagiert	vergnügt	gesittet	sterben	versagen	krise	engstirnig	verbissen	geizig	träumen	gütig	anregung	besonnen	kreativ	genießen	töten	gierig	ausrottung	bange	krank	gemein	1	blank2r.bmp	0	1	+	0	1	blank2r.bmp	500	1	DHJF	500	1	blank2r.bmp	880	6	gesittet	880	1	!	1292	1	!	1410	0	0	0	0	0	0
2024-05-16	10:01:49	10:10:42	532803	6.6.1	4_exp_EVA_AWA_CON	40	A	B	Rpleas_acq	Oppo	Rpleas	2pleas	acq_US_unple_nomask	acq3_nomask	3	22	453	1	300	300	0	0	409	46	1	0	sonnig	vertrauen	kuss	engagiert	vergnügt	gesittet	sterben	versagen	krise	engstirnig	verbissen	geizig	träumen	gütig	anregung	besonnen	kreativ	genießen	töten	gierig	ausrottung	bange	krank	gemein	1	blank2r.bmp	0	1	+	0	1	blank2r.bmp	500	1	CPLW	500	1	blank2r.bmp	880	5	verbissen	880	1	!	1292	1	!	1312	0	0	0	0	0	0
2024-05-16	10:01:49	10:10:44	535044	6.6.1	4_exp_EVA_AWA_CON	40	A	B	Rpleas_acq	Oppo	Rpleas	2pleas	acq_US_unple_nomask	acq3_nomask	3	23	453	1	300	300	0	0	458	46	1	0	sonnig	vertrauen	kuss	engagiert	vergnügt	gesittet	sterben	versagen	krise	engstirnig	verbissen	geizig	träumen	gütig	anregung	besonnen	kreativ	genießen	töten	gierig	ausrottung	bange	krank	gemein	1	blank2r.bmp	0	1	+	0	1	blank2r.bmp	500	1	CPLW	500	1	blank2r.bmp	880	4	engstirnig	880	1	!	1292	1	!	1360	0	0	0	0	0	0
2024-05-16	10:01:49	10:10:46	537193	6.6.1	4_exp_EVA_AWA_CON	40	A	B	Rpleas_acq	Oppo	Rpleas	2pleas	acq_US_unple_nomask	acq3_nomask	3	24	453	0	300	300	0	0	369	46	1	0	sonnig	vertrauen	kuss	engagiert	vergnügt	gesittet	sterben	versagen	krise	engstirnig	verbissen	geizig	träumen	gütig	anregung	besonnen	kreativ	genießen	töten	gierig	ausrottung	bange	krank	gemein	1	blank2r.bmp	0	1	+	0	1	blank2r.bmp	500	1	CPLW	500	1	blank2r.bmp	880	3	krise	880	1	!	-1	1	!	-1	0	0	0	0	0	0
2024-05-16	10:01:49	10:10:48	539337	6.6.1	4_exp_EVA_AWA_CON	40	A	B	Rpleas_acq	Oppo	Rpleas	2pleas	acq_US_unple_nomask	acq3_nomask	3	25	453	0	300	300	0	0	371	46	1	0	sonnig	vertrauen	kuss	engagiert	vergnügt	gesittet	sterben	versagen	krise	engstirnig	verbissen	geizig	träumen	gütig	anregung	besonnen	kreativ	genießen	töten	gierig	ausrottung	bange	krank	gemein	1	blank2r.bmp	0	1	+	0	1	blank2r.bmp	500	1	CPLW	500	1	blank2r.bmp	880	6	geizig	880	1	!	-1	1	!	-1	0	0	0	0	0	0
2024-05-16	10:01:49	10:10:51	541627	6.6.1	4_exp_EVA_AWA_CON	40	A	B	Rpleas_acq	Oppo	Rpleas	2pleas	acq_US_unple_nomask	acq3_nomask	3	26	453	1	300	300	0	0	508	46	1	0	sonnig	vertrauen	kuss	engagiert	vergnügt	gesittet	sterben	versagen	krise	engstirnig	verbissen	geizig	träumen	gütig	anregung	besonnen	kreativ	genießen	töten	gierig	ausrottung	bange	krank	gemein	1	blank2r.bmp	0	1	+	0	1	blank2r.bmp	500	1	CPLW	500	1	blank2r.bmp	880	4	engstirnig	880	1	!	1292	1	!	1409	0	0	0	0	0	0
2024-05-16	10:01:49	10:10:53	543859	6.6.1	4_exp_EVA_AWA_CON	40	A	B	Rpleas_acq	Oppo	Rpleas	2pleas	acq_US_pleas_nomask	acq3_nomask	3	27	453	1	300	300	0	0	448	50	1	0	sonnig	vertrauen	kuss	engagiert	vergnügt	gesittet	sterben	versagen	krise	engstirnig	verbissen	geizig	träumen	gütig	anregung	besonnen	kreativ	genießen	töten	gierig	ausrottung	bange	krank	gemein	1	blank2r.bmp	0	1	+	0	1	blank2r.bmp	500	1	DHJF	500	1	blank2r.bmp	880	5	vergnügt	880	1	!	1292	1	!	1350	0	0	0	0	0	0
2024-05-16	10:01:49	10:10:55	546147	6.6.1	4_exp_EVA_AWA_CON	40	A	B	Rpleas_acq	Oppo	Rpleas	2pleas	acq_US_pleas_nomask	acq3_nomask	3	28	453	1	300	300	0	0	505	50	1	0	sonnig	vertrauen	kuss	engagiert	vergnügt	gesittet	sterben	versagen	krise	engstirnig	verbissen	geizig	träumen	gütig	anregung	besonnen	kreativ	genießen	töten	gierig	ausrottung	bange	krank	gemein	1	blank2r.bmp	0	1	+	0	1	blank2r.bmp	500	1	DHJF	500	1	blank2r.bmp	880	2	vertrauen	880	1	!	1292	1	!	1407	0	0	0	0	0	0
2024-05-16	10:01:49	10:10:57	548371	6.6.1	4_exp_EVA_AWA_CON	40	A	B	Rpleas_acq	Oppo	Rpleas	2pleas	acq_US_pleas_nomask	acq3_nomask	3	29	453	1	300	300	0	0	448	50	1	0	sonnig	vertrauen	kuss	engagiert	vergnügt	gesittet	sterben	versagen	krise	engstirnig	verbissen	geizig	träumen	gütig	anregung	besonnen	kreativ	genießen	töten	gierig	ausrottung	bange	krank	gemein	1	blank2r.bmp	0	1	+	0	1	blank2r.bmp	500	1	DHJF	500	1	blank2r.bmp	880	1	sonnig	880	1	!	1292	1	!	1349	0	0	0	0	0	0
2024-05-16	10:01:49	10:11:00	550681	6.6.1	4_exp_EVA_AWA_CON	40	A	B	Rpleas_acq	Oppo	Rpleas	2pleas	acq_US_pleas_nomask	acq3_nomask	3	30	453	0	300	300	0	0	538	50	1	0	sonnig	vertrauen	kuss	engagiert	vergnügt	gesittet	sterben	versagen	krise	engstirnig	verbissen	geizig	träumen	gütig	anregung	besonnen	kreativ	genießen	töten	gierig	ausrottung	bange	krank	gemein	1	blank2r.bmp	0	1	+	0	1	blank2r.bmp	500	1	DHJF	500	1	blank2r.bmp	880	6	gesittet	880	1	!	1292	1	!	-1	0	0	0	0	0	0
2024-05-16	10:01:49	10:11:02	552833	6.6.1	4_exp_EVA_AWA_CON	40	A	B	Rpleas_acq	Oppo	Rpleas	2pleas	acq_US_unple_nomask	acq3_nomask	3	31	453	0	300	300	0	0	379	46	1	0	sonnig	vertrauen	kuss	engagiert	vergnügt	gesittet	sterben	versagen	krise	engstirnig	verbissen	geizig	träumen	gütig	anregung	besonnen	kreativ	genießen	töten	gierig	ausrottung	bange	krank	gemein	1	blank2r.bmp	0	1	+	0	1	blank2r.bmp	500	1	CPLW	500	1	blank2r.bmp	880	2	versagen	880	1	!	-1	1	!	-1	0	0	0	0	0	0
2024-05-16	10:01:49	10:11:04	555067	6.6.1	4_exp_EVA_AWA_CON	40	A	B	Rpleas_acq	Oppo	Rpleas	2pleas	acq_US_pleas_nomask	acq3_nomask	3	32	453	1	300	300	0	0	459	50	1	0	sonnig	vertrauen	kuss	engagiert	vergnügt	gesittet	sterben	versagen	krise	engstirnig	verbissen	geizig	träumen	gütig	anregung	besonnen	kreativ	genießen	töten	gierig	ausrottung	bange	krank	gemein	1	blank2r.bmp	0	1	+	0	1	blank2r.bmp	500	1	DHJF	500	1	blank2r.bmp	880	3	kuss	880	1	!	1292	1	!	1361	0	0	0	0	0	0
2024-05-16	10:01:49	10:11:06	557249	6.6.1	4_exp_EVA_AWA_CON	40	A	B	Rpleas_acq	Oppo	Rpleas	2pleas	acq_US_unple_nomask	acq3_nomask	3	33	453	1	300	300	0	0	402	46	1	0	sonnig	vertrauen	kuss	engagiert	vergnügt	gesittet	sterben	versagen	krise	engstirnig	verbissen	geizig	träumen	gütig	anregung	besonnen	kreativ	genießen	töten	gierig	ausrottung	bange	krank	gemein	1	blank2r.bmp	0	1	+	0	1	blank2r.bmp	500	1	CPLW	500	1	blank2r.bmp	880	1	sterben	880	1	!	1292	1	!	1302	0	0	0	0	0	0
2024-05-16	10:01:49	10:11:08	559483	6.6.1	4_exp_EVA_AWA_CON	40	A	B	Rpleas_acq	Oppo	Rpleas	2pleas	acq_US_pleas_nomask	acq3_nomask	3	34	453	1	300	300	0	0	452	50	1	0	sonnig	vertrauen	kuss	engagiert	vergnügt	gesittet	sterben	versagen	krise	engstirnig	verbissen	geizig	träumen	gütig	anregung	besonnen	kreativ	genießen	töten	gierig	ausrottung	bange	krank	gemein	1	blank2r.bmp	0	1	+	0	1	blank2r.bmp	500	1	DHJF	500	1	blank2r.bmp	880	4	engagiert	880	1	!	1292	1	!	1354	0	0	0	0	0	0
2024-05-16	10:01:49	10:11:11	561723	6.6.1	4_exp_EVA_AWA_CON	40	A	B	Rpleas_acq	Oppo	Rpleas	2pleas	acq_US_unple_nomask	acq3_nomask	3	35	453	1	300	300	0	0	461	46	1	0	sonnig	vertrauen	kuss	engagiert	vergnügt	gesittet	sterben	versagen	krise	engstirnig	verbissen	geizig	träumen	gütig	anregung	besonnen	kreativ	genießen	töten	gierig	ausrottung	bange	krank	gemein	1	blank2r.bmp	0	1	+	0	1	blank2r.bmp	500	1	CPLW	500	1	blank2r.bmp	880	5	verbissen	880	1	!	1293	1	!	1363	0	0	0	0	0	0
2024-05-16	10:01:49	10:11:13	564108	6.6.1	4_exp_EVA_AWA_CON	40	A	B	Rpleas_acq	Oppo	Rpleas	2pleas	acq_US_unple_nomask	acq3_nomask	3	36	453	1	300	300	0	0	403	50	0	0	sonnig	vertrauen	kuss	engagiert	vergnügt	gesittet	sterben	versagen	krise	engstirnig	verbissen	geizig	träumen	gütig	anregung	besonnen	kreativ	genießen	töten	gierig	ausrottung	bange	krank	gemein	1	blank2r.bmp	0	1	+	0	1	blank2r.bmp	500	1	CPLW	500	1	blank2r.bmp	880	3	krise	880	1	FEHLER	1597	1	!	1293	1	!	1305	0	0	0
2024-05-16	10:01:49	10:11:45	596105	6.6.1	4_exp_EVA_AWA_CON	40	A	B	Rpleas_acq	Oppo	Rpleas	2pleas	acq_US_unple_nomask	acq45_nomask	4	1	400	0	300	300	0	0	493	46	1	0	sonnig	vertrauen	kuss	engagiert	vergnügt	gesittet	sterben	versagen	krise	engstirnig	verbissen	geizig	träumen	gütig	anregung	besonnen	kreativ	genießen	töten	gierig	ausrottung	bange	krank	gemein	1	blank2r.bmp	0	1	+	0	1	blank2r.bmp	500	1	CPLW	500	1	blank2r.bmp	880	4	engstirnig	880	1	!	1232	1	!	-1	0	0	0	0	0	0
2024-05-16	10:01:49	10:11:47	598209	6.6.1	4_exp_EVA_AWA_CON	40	A	B	Rpleas_acq	Oppo	Rpleas	2pleas	acq_US_unple_nomask	acq45_nomask	4	2	400	0	300	300	0	0	325	46	1	0	sonnig	vertrauen	kuss	engagiert	vergnügt	gesittet	sterben	versagen	krise	engstirnig	verbissen	geizig	träumen	gütig	anregung	besonnen	kreativ	genießen	töten	gierig	ausrottung	bange	krank	gemein	1	blank2r.bmp	0	1	+	0	1	blank2r.bmp	500	1	CPLW	500	1	blank2r.bmp	880	6	geizig	880	1	!	-1	1	!	-1	0	0	0	0	0	0
2024-05-16	10:01:49	10:11:49	600379	6.6.1	4_exp_EVA_AWA_CON	40	A	B	Rpleas_acq	Oppo	Rpleas	2pleas	acq_US_pleas_nomask	acq45_nomask	4	3	400	1	300	300	0	0	392	46	0	0	sonnig	vertrauen	kuss	engagiert	vergnügt	gesittet	sterben	versagen	krise	engstirnig	verbissen	geizig	träumen	gütig	anregung	besonnen	kreativ	genießen	töten	gierig	ausrottung	bange	krank	gemein	1	blank2r.bmp	0	1	+	0	1	blank2r.bmp	500	1	DHJF	500	1	blank2r.bmp	880	3	kuss	880	1	!	1232	1	!	1294	0	0	0	0	0	0
2024-05-16	10:01:49	10:11:52	602673	6.6.1	4_exp_EVA_AWA_CON	40	A	B	Rpleas_acq	Oppo	Rpleas	2pleas	acq_US_pleas_nomask	acq45_nomask	4	4	400	0	300	300	0	0	517	50	1	0	sonnig	vertrauen	kuss	engagiert	vergnügt	gesittet	sterben	versagen	krise	engstirnig	verbissen	geizig	träumen	gütig	anregung	besonnen	kreativ	genießen	töten	gierig	ausrottung	bange	krank	gemein	1	blank2r.bmp	0	1	+	0	1	blank2r.bmp	500	1	DHJF	500	1	blank2r.bmp	880	2	vertrauen	880	1	!	1232	1	!	-1	0	0	0	0	0	0
2024-05-16	10:01:49	10:11:54	604961	6.6.1	4_exp_EVA_AWA_CON	40	A	B	Rpleas_acq	Oppo	Rpleas	2pleas	acq_US_pleas_nomask	acq45_nomask	4	5	400	0	300	300	0	0	513	50	1	0	sonnig	vertrauen	kuss	engagiert	vergnügt	gesittet	sterben	versagen	krise	engstirnig	verbissen	geizig	träumen	gütig	anregung	besonnen	kreativ	genießen	töten	gierig	ausrottung	bange	krank	gemein	1	blank2r.bmp	0	1	+	0	1	blank2r.bmp	500	1	DHJF	500	1	blank2r.bmp	880	6	gesittet	880	1	!	1232	1	!	-1	0	0	0	0	0	0
2024-05-16	10:01:49	10:11:56	607139	6.6.1	4_exp_EVA_AWA_CON	40	A	B	Rpleas_acq	Oppo	Rpleas	2pleas	acq_US_pleas_nomask	acq45_nomask	4	6	400	1	300	300	0	0	398	50	1	0	sonnig	vertrauen	kuss	engagiert	vergnügt	gesittet	sterben	versagen	krise	engstirnig	verbissen	geizig	träumen	gütig	anregung	besonnen	kreativ	genießen	töten	gierig	ausrottung	bange	krank	gemein	1	blank2r.bmp	0	1	+	0	1	blank2r.bmp	500	1	DHJF	500	1	blank2r.bmp	880	5	vergnügt	880	1	!	1233	1	!	1299	0	0	0	0	0	0
2024-05-16	10:01:49	10:11:58	609275	6.6.1	4_exp_EVA_AWA_CON	40	A	B	Rpleas_acq	Oppo	Rpleas	2pleas	acq_US_pleas_nomask	acq45_nomask	4	7	400	1	300	300	0	0	352	50	1	0	sonnig	vertrauen	kuss	engagiert	vergnügt	gesittet	sterben	versagen	krise	engstirnig	verbissen	geizig	träumen	gütig	anregung	besonnen	kreativ	genießen	töten	gierig	ausrottung	bange	krank	gemein	1	blank2r.bmp	0	1	+	0	1	blank2r.bmp	500	1	DHJF	500	1	blank2r.bmp	880	4	engagiert	880	1	!	1232	1	!	1254	0	0	0	0	0	0
2024-05-16	10:01:49	10:12:00	611411	6.6.1	4_exp_EVA_AWA_CON	40	A	B	Rpleas_acq	Oppo	Rpleas	2pleas	acq_US_unple_nomask	acq45_nomask	4	8	400	1	300	300	0	0	357	46	1	0	sonnig	vertrauen	kuss	engagiert	vergnügt	gesittet	sterben	versagen	krise	engstirnig	verbissen	geizig	träumen	gütig	anregung	besonnen	kreativ	genießen	töten	gierig	ausrottung	bange	krank	gemein	1	blank2r.bmp	0	1	+	0	1	blank2r.bmp	500	1	CPLW	500	1	blank2r.bmp	880	1	sterben	880	1	!	1232	1	!	1258	0	0	0	0	0	0
2024-05-16	10:01:49	10:12:03	613674	6.6.1	4_exp_EVA_AWA_CON	40	A	B	Rpleas_acq	Oppo	Rpleas	2pleas	acq_US_unple_nomask	acq45_nomask	4	9	400	0	300	300	0	0	490	46	1	0	sonnig	vertrauen	kuss	engagiert	vergnügt	gesittet	sterben	versagen	krise	engstirnig	verbissen	geizig	träumen	gütig	anregung	besonnen	kreativ	genießen	töten	gierig	ausrottung	bange	krank	gemein	1	blank2r.bmp	0	1	+	0	1	blank2r.bmp	500	1	CPLW	500	1	blank2r.bmp	880	2	versagen	880	1	!	1232	1	!	-1	0	0	0	0	0	0
2024-05-16	10:01:49	10:12:05	615891	6.6.1	4_exp_EVA_AWA_CON	40	A	B	Rpleas_acq	Oppo	Rpleas	2pleas	acq_US_unple_nomask	acq45_nomask	4	10	400	1	300	300	0	0	434	46	1	0	sonnig	vertrauen	kuss	engagiert	vergnügt	gesittet	sterben	versagen	krise	engstirnig	verbissen	geizig	träumen	gütig	anregung	besonnen	kreativ	genießen	töten	gierig	ausrottung	bange	krank	gemein	1	blank2r.bmp	0	1	+	0	1	blank2r.bmp	500	1	CPLW	500	1	blank2r.bmp	880	5	verbissen	880	1	!	1232	1	!	1336	0	0	0	0	0	0
2024-05-16	10:01:49	10:12:07	618083	6.6.1	4_exp_EVA_AWA_CON	40	A	B	Rpleas_acq	Oppo	Rpleas	2pleas	acq_US_unple_nomask	acq45_nomask	4	11	400	1	300	300	0	0	415	50	0	0	sonnig	vertrauen	kuss	engagiert	vergnügt	gesittet	sterben	versagen	krise	engstirnig	verbissen	geizig	träumen	gütig	anregung	besonnen	kreativ	genießen	töten	gierig	ausrottung	bange	krank	gemein	1	blank2r.bmp	0	1	+	0	1	blank2r.bmp	500	1	CPLW	500	1	blank2r.bmp	880	3	krise	880	1	!	1232	1	!	1316	0	0	0	0	0	0
2024-05-16	10:01:49	10:12:09	620335	6.6.1	4_exp_EVA_AWA_CON	40	A	B	Rpleas_acq	Oppo	Rpleas	2pleas	acq_US_unple_nomask	acq45_nomask	4	12	400	0	300	300	0	0	479	46	1	0	sonnig	vertrauen	kuss	engagiert	vergnügt	gesittet	sterben	versagen	krise	engstirnig	verbissen	geizig	träumen	gütig	anregung	besonnen	kreativ	genießen	töten	gierig	ausrottung	bange	krank	gemein	1	blank2r.bmp	0	1	+	0	1	blank2r.bmp	500	1	CPLW	500	1	blank2r.bmp	880	5	verbissen	880	1	!	1232	1	!	-1	0	0	0	0	0	0
2024-05-16	10:01:49	10:12:12	622523	6.6.1	4_exp_EVA_AWA_CON	40	A	B	Rpleas_acq	Oppo	Rpleas	2pleas	acq_US_pleas_nomask	acq45_nomask	4	13	400	1	300	300	0	0	412	50	1	0	sonnig	vertrauen	kuss	engagiert	vergnügt	gesittet	sterben	versagen	krise	engstirnig	verbissen	geizig	träumen	gütig	anregung	besonnen	kreativ	genießen	töten	gierig	ausrottung	bange	krank	gemein	1	blank2r.bmp	0	1	+	0	1	blank2r.bmp	500	1	DHJF	500	1	blank2r.bmp	880	1	sonnig	880	1	!	1232	1	!	1313	0	0	0	0	0	0
2024-05-16	10:01:49	10:12:14	624793	6.6.1	4_exp_EVA_AWA_CON	40	A	B	Rpleas_acq	Oppo	Rpleas	2pleas	acq_US_pleas_nomask	acq45_nomask	4	14	400	0	300	300	0	0	492	50	1	0	sonnig	vertrauen	kuss	engagiert	vergnügt	gesittet	sterben	versagen	krise	engstirnig	verbissen	geizig	träumen	gütig	anregung	besonnen	kreativ	genießen	töten	gierig	ausrottung	bange	krank	gemein	1	blank2r.bmp	0	1	+	0	1	blank2r.bmp	500	1	DHJF	500	1	blank2r.bmp	880	4	engagiert	880	1	!	1232	1	!	-1	0	0	0	0	0	0
2024-05-16	10:01:49	10:12:16	626906	6.6.1	4_exp_EVA_AWA_CON	40	A	B	Rpleas_acq	Oppo	Rpleas	2pleas	acq_US_unple_nomask	acq45_nomask	4	15	400	1	300	300	0	0	334	46	1	0	sonnig	vertrauen	kuss	engagiert	vergnügt	gesittet	sterben	versagen	krise	engstirnig	verbissen	geizig	träumen	gütig	anregung	besonnen	kreativ	genießen	töten	gierig	ausrottung	bange	krank	gemein	1	blank2r.bmp	0	1	+	0	1	blank2r.bmp	500	1	CPLW	500	1	blank2r.bmp	880	1	sterben	880	1	!	1232	1	!	1233	0	0	0	0	0	0
2024-05-16	10:01:49	10:12:18	629091	6.6.1	4_exp_EVA_AWA_CON	40	A	B	Rpleas_acq	Oppo	Rpleas	2pleas	acq_US_pleas_nomask	acq45_nomask	4	16	400	1	300	300	0	0	406	50	1	0	sonnig	vertrauen	kuss	engagiert	vergnügt	gesittet	sterben	versagen	krise	engstirnig	verbissen	geizig	träumen	gütig	anregung	besonnen	kreativ	genießen	töten	gierig	ausrottung	bange	krank	gemein	1	blank2r.bmp	0	1	+	0	1	blank2r.bmp	500	1	DHJF	500	1	blank2r.bmp	880	5	vergnügt	880	1	!	1232	1	!	1307	0	0	0	0	0	0
2024-05-16	10:01:49	10:12:20	631259	6.6.1	4_exp_EVA_AWA_CON	40	A	B	Rpleas_acq	Oppo	Rpleas	2pleas	acq_US_unple_nomask	acq45_nomask	4	17	400	1	300	300	0	0	392	46	1	0	sonnig	vertrauen	kuss	engagiert	vergnügt	gesittet	sterben	versagen	krise	engstirnig	verbissen	geizig	träumen	gütig	anregung	besonnen	kreativ	genießen	töten	gierig	ausrottung	bange	krank	gemein	1	blank2r.bmp	0	1	+	0	1	blank2r.bmp	500	1	CPLW	500	1	blank2r.bmp	880	2	versagen	880	1	!	1232	1	!	1294	0	0	0	0	0	0
2024-05-16	10:01:49	10:12:22	633459	6.6.1	4_exp_EVA_AWA_CON	40	A	B	Rpleas_acq	Oppo	Rpleas	2pleas	acq_US_pleas_nomask	acq45_nomask	4	18	400	1	300	300	0	0	421	50	1	0	sonnig	vertrauen	kuss	engagiert	vergnügt	gesittet	sterben	versagen	krise	engstirnig	verbissen	geizig	träumen	gütig	anregung	besonnen	kreativ	genießen	töten	gierig	ausrottung	bange	krank	gemein	1	blank2r.bmp	0	1	+	0	1	blank2r.bmp	500	1	DHJF	500	1	blank2r.bmp	880	1	sonnig	880	1	!	1232	1	!	1322	0	0	0	0	0	0
2024-05-16	10:01:49	10:12:25	635619	6.6.1	4_exp_EVA_AWA_CON	40	A	B	Rpleas_acq	Oppo	Rpleas	2pleas	acq_US_unple_nomask	acq45_nomask	4	19	400	1	300	300	0	0	379	46	1	0	sonnig	vertrauen	kuss	engagiert	vergnügt	gesittet	sterben	versagen	krise	engstirnig	verbissen	geizig	träumen	gütig	anregung	besonnen	kreativ	genießen	töten	gierig	ausrottung	bange	krank	gemein	1	blank2r.bmp	0	1	+	0	1	blank2r.bmp	500	1	CPLW	500	1	blank2r.bmp	880	4	engstirnig	880	1	!	1233	1	!	1282	0	0	0	0	0	0
2024-05-16	10:01:49	10:12:27	638321	6.6.1	4_exp_EVA_AWA_CON	40	A	B	Rpleas_acq	Oppo	Rpleas	2pleas	acq_US_unple_nomask	acq45_nomask	4	20	400	0	300	300	0	0	922	46	1	0	sonnig	vertrauen	kuss	engagiert	vergnügt	gesittet	sterben	versagen	krise	engstirnig	verbissen	geizig	träumen	gütig	anregung	besonnen	kreativ	genießen	töten	gierig	ausrottung	bange	krank	gemein	1	blank2r.bmp	0	1	+	0	1	blank2r.bmp	500	1	CPLW	500	1	blank2r.bmp	880	6	geizig	880	1	!	1232	1	!	-1	0	0	0	0	0	0
2024-05-16	10:01:49	10:12:30	640649	6.6.1	4_exp_EVA_AWA_CON	40	A	B	Rpleas_acq	Oppo	Rpleas	2pleas	acq_US_pleas_nomask	acq45_nomask	4	21	400	0	300	300	0	0	548	50	1	0	sonnig	vertrauen	kuss	engagiert	vergnügt	gesittet	sterben	versagen	krise	engstirnig	verbissen	geizig	träumen	gütig	anregung	besonnen	kreativ	genießen	töten	gierig	ausrottung	bange	krank	gemein	1	blank2r.bmp	0	1	+	0	1	blank2r.bmp	500	1	DHJF	500	1	blank2r.bmp	880	6	gesittet	880	1	!	1232	1	!	-1	0	0	0	0	0	0
2024-05-16	10:01:49	10:12:32	642883	6.6.1	4_exp_EVA_AWA_CON	40	A	B	Rpleas_acq	Oppo	Rpleas	2pleas	acq_US_unple_nomask	acq45_nomask	4	22	400	1	300	300	0	0	459	50	0	0	sonnig	vertrauen	kuss	engagiert	vergnügt	gesittet	sterben	versagen	krise	engstirnig	verbissen	geizig	träumen	gütig	anregung	besonnen	kreativ	genießen	töten	gierig	ausrottung	bange	krank	gemein	1	blank2r.bmp	0	1	+	0	1	blank2r.bmp	500	1	CPLW	500	1	blank2r.bmp	880	3	krise	880	1	!	1233	1	!	1360	0	0	0	0	0	0
2024-05-16	10:01:49	10:12:34	645083	6.6.1	4_exp_EVA_AWA_CON	40	A	B	Rpleas_acq	Oppo	Rpleas	2pleas	acq_US_pleas_nomask	acq45_nomask	4	23	400	1	300	300	0	0	417	50	1	0	sonnig	vertrauen	kuss	engagiert	vergnügt	gesittet	sterben	versagen	krise	engstirnig	verbissen	geizig	träumen	gütig	anregung	besonnen	kreativ	genießen	töten	gierig	ausrottung	bange	krank	gemein	1	blank2r.bmp	0	1	+	0	1	blank2r.bmp	500	1	DHJF	500	1	blank2r.bmp	880	3	kuss	880	1	!	1232	1	!	1319	0	0	0	0	0	0
2024-05-16	10:01:49	10:12:36	647227	6.6.1	4_exp_EVA_AWA_CON	40	A	B	Rpleas_acq	Oppo	Rpleas	2pleas	acq_US_unple_nomask	acq45_nomask	4	24	400	1	300	300	0	0	360	46	1	0	sonnig	vertrauen	kuss	engagiert	vergnügt	gesittet	sterben	versagen	krise	engstirnig	verbissen	geizig	träumen	gütig	anregung	besonnen	kreativ	genießen	töten	gierig	ausrottung	bange	krank	gemein	1	blank2r.bmp	0	1	+	0	1	blank2r.bmp	500	1	CPLW	500	1	blank2r.bmp	880	2	versagen	880	1	!	1233	1	!	1262	0	0	0	0	0	0
2024-05-16	10:01:49	10:12:38	649475	6.6.1	4_exp_EVA_AWA_CON	40	A	B	Rpleas_acq	Oppo	Rpleas	2pleas	acq_US_unple_nomask	acq45_nomask	4	25	400	1	300	300	0	0	466	46	1	0	sonnig	vertrauen	kuss	engagiert	vergnügt	gesittet	sterben	versagen	krise	engstirnig	verbissen	geizig	träumen	gütig	anregung	besonnen	kreativ	genießen	töten	gierig	ausrottung	bange	krank	gemein	1	blank2r.bmp	0	1	+	0	1	blank2r.bmp	500	1	CPLW	500	1	blank2r.bmp	880	5	verbissen	880	1	!	1232	1	!	1368	0	0	0	0	0	0
2024-05-16	10:01:49	10:12:41	651659	6.6.1	4_exp_EVA_AWA_CON	40	A	B	Rpleas_acq	Oppo	Rpleas	2pleas	acq_US_pleas_nomask	acq45_nomask	4	26	400	1	300	300	0	0	409	50	1	0	sonnig	vertrauen	kuss	engagiert	vergnügt	gesittet	sterben	versagen	krise	engstirnig	verbissen	geizig	träumen	gütig	anregung	besonnen	kreativ	genießen	töten	gierig	ausrottung	bange	krank	gemein	1	blank2r.bmp	0	1	+	0	1	blank2r.bmp	500	1	DHJF	500	1	blank2r.bmp	880	2	vertrauen	880	1	!	1233	1	!	1311	0	0	0	0	0	0
2024-05-16	10:01:49	10:12:43	653860	6.6.1	4_exp_EVA_AWA_CON	40	A	B	Rpleas_acq	Oppo	Rpleas	2pleas	acq_US_pleas_nomask	acq45_nomask	4	27	400	1	300	300	0	0	418	50	1	0	sonnig	vertrauen	kuss	engagiert	vergnügt	gesittet	sterben	versagen	krise	engstirnig	verbissen	geizig	träumen	gütig	anregung	besonnen	kreativ	genießen	töten	gierig	ausrottung	bange	krank	gemein	1	blank2r.bmp	0	1	+	0	1	blank2r.bmp	500	1	DHJF	500	1	blank2r.bmp	880	1	sonnig	880	1	!	1232	1	!	1319	0	0	0	0	0	0
2024-05-16	10:01:49	10:12:45	656083	6.6.1	4_exp_EVA_AWA_CON	40	A	B	Rpleas_acq	Oppo	Rpleas	2pleas	acq_US_pleas_nomask	acq45_nomask	4	28	400	1	300	300	0	0	440	50	1	0	sonnig	vertrauen	kuss	engagiert	vergnügt	gesittet	sterben	versagen	krise	engstirnig	verbissen	geizig	träumen	gütig	anregung	besonnen	kreativ	genießen	töten	gierig	ausrottung	bange	krank	gemein	1	blank2r.bmp	0	1	+	0	1	blank2r.bmp	500	1	DHJF	500	1	blank2r.bmp	880	5	vergnügt	880	1	!	1232	1	!	1342	0	0	0	0	0	0
2024-05-16	10:01:49	10:12:47	658235	6.6.1	4_exp_EVA_AWA_CON	40	A	B	Rpleas_acq	Oppo	Rpleas	2pleas	acq_US_unple_nomask	acq45_nomask	4	29	400	1	300	300	0	0	371	46	1	0	sonnig	vertrauen	kuss	engagiert	vergnügt	gesittet	sterben	versagen	krise	engstirnig	verbissen	geizig	träumen	gütig	anregung	besonnen	kreativ	genießen	töten	gierig	ausrottung	bange	krank	gemein	1	blank2r.bmp	0	1	+	0	1	blank2r.bmp	500	1	CPLW	500	1	blank2r.bmp	880	3	krise	880	1	!	1232	1	!	1272	0	0	0	0	0	0
2024-05-16	10:01:49	10:12:49	660387	6.6.1	4_exp_EVA_AWA_CON	40	A	B	Rpleas_acq	Oppo	Rpleas	2pleas	acq_US_unple_nomask	acq45_nomask	4	30	400	1	300	300	0	0	372	46	1	0	sonnig	vertrauen	kuss	engagiert	vergnügt	gesittet	sterben	versagen	krise	engstirnig	verbissen	geizig	träumen	gütig	anregung	besonnen	kreativ	genießen	töten	gierig	ausrottung	bange	krank	gemein	1	blank2r.bmp	0	1	+	0	1	blank2r.bmp	500	1	CPLW	500	1	blank2r.bmp	880	6	geizig	880	1	!	1233	1	!	1273	0	0	0	0	0	0
2024-05-16	10:01:49	10:12:51	662489	6.6.1	4_exp_EVA_AWA_CON	40	A	B	Rpleas_acq	Oppo	Rpleas	2pleas	acq_US_unple_nomask	acq45_nomask	4	31	400	0	300	300	0	0	324	50	0	0	sonnig	vertrauen	kuss	engagiert	vergnügt	gesittet	sterben	versagen	krise	engstirnig	verbissen	geizig	träumen	gütig	anregung	besonnen	kreativ	genießen	töten	gierig	ausrottung	bange	krank	gemein	1	blank2r.bmp	0	1	+	0	1	blank2r.bmp	500	1	CPLW	500	1	blank2r.bmp	880	1	sterben	880	1	!	-1	1	!	-1	0	0	0	0	0	0
2024-05-16	10:01:49	10:12:54	664619	6.6.1	4_exp_EVA_AWA_CON	40	A	B	Rpleas_acq	Oppo	Rpleas	2pleas	acq_US_pleas_nomask	acq45_nomask	4	32	400	1	300	300	0	0	351	50	1	0	sonnig	vertrauen	kuss	engagiert	vergnügt	gesittet	sterben	versagen	krise	engstirnig	verbissen	geizig	träumen	gütig	anregung	besonnen	kreativ	genießen	töten	gierig	ausrottung	bange	krank	gemein	1	blank2r.bmp	0	1	+	0	1	blank2r.bmp	500	1	DHJF	500	1	blank2r.bmp	880	3	kuss	880	1	!	1233	1	!	1252	0	0	0	0	0	0
2024-05-16	10:01:49	10:12:56	666811	6.6.1	4_exp_EVA_AWA_CON	40	A	B	Rpleas_acq	Oppo	Rpleas	2pleas	acq_US_pleas_nomask	acq45_nomask	4	33	400	1	300	300	0	0	411	50	1	0	sonnig	vertrauen	kuss	engagiert	vergnügt	gesittet	sterben	versagen	krise	engstirnig	verbissen	geizig	träumen	gütig	anregung	besonnen	kreativ	genießen	töten	gierig	ausrottung	bange	krank	gemein	1	blank2r.bmp	0	1	+	0	1	blank2r.bmp	500	1	DHJF	500	1	blank2r.bmp	880	6	gesittet	880	1	!	1232	1	!	1313	0	0	0	0	0	0
2024-05-16	10:01:49	10:12:58	668995	6.6.1	4_exp_EVA_AWA_CON	40	A	B	Rpleas_acq	Oppo	Rpleas	2pleas	acq_US_pleas_nomask	acq45_nomask	4	34	400	1	300	300	0	0	404	50	1	0	sonnig	vertrauen	kuss	engagiert	vergnügt	gesittet	sterben	versagen	krise	engstirnig	verbissen	geizig	träumen	gütig	anregung	besonnen	kreativ	genießen	töten	gierig	ausrottung	bange	krank	gemein	1	blank2r.bmp	0	1	+	0	1	blank2r.bmp	500	1	DHJF	500	1	blank2r.bmp	880	4	engagiert	880	1	!	1233	1	!	1305	0	0	0	0	0	0
2024-05-16	10:01:49	10:13:00	671131	6.6.1	4_exp_EVA_AWA_CON	40	A	B	Rpleas_acq	Oppo	Rpleas	2pleas	acq_US_unple_nomask	acq45_nomask	4	35	400	1	300	300	0	0	359	46	1	0	sonnig	vertrauen	kuss	engagiert	vergnügt	gesittet	sterben	versagen	krise	engstirnig	verbissen	geizig	träumen	gütig	anregung	besonnen	kreativ	genießen	töten	gierig	ausrottung	bange	krank	gemein	1	blank2r.bmp	0	1	+	0	1	blank2r.bmp	500	1	CPLW	500	1	blank2r.bmp	880	4	engstirnig	880	1	!	1232	1	!	1260	0	0	0	0	0	0
2024-05-16	10:01:49	10:13:03	673745	6.6.1	4_exp_EVA_AWA_CON	40	A	B	Rpleas_acq	Oppo	Rpleas	2pleas	acq_US_pleas_nomask	acq45_nomask	4	36	400	0	300	300	0	0	833	50	1	0	sonnig	vertrauen	kuss	engagiert	vergnügt	gesittet	sterben	versagen	krise	engstirnig	verbissen	geizig	träumen	gütig	anregung	besonnen	kreativ	genießen	töten	gierig	ausrottung	bange	krank	gemein	1	blank2r.bmp	0	1	+	0	1	blank2r.bmp	500	1	DHJF	500	1	blank2r.bmp	880	2	vertrauen	880	1	!	1232	1	!	-1	0	0	0	0	0	0
2024-05-16	10:01:49	10:13:18	688595	6.6.1	4_exp_EVA_AWA_CON	40	A	B	Rpleas_acq	Oppo	Rpleas	2pleas	acq_US_unple_nomask	acq45_nomask	5	1	400	1	300	300	0	0	412	46	1	0	sonnig	vertrauen	kuss	engagiert	vergnügt	gesittet	sterben	versagen	krise	engstirnig	verbissen	geizig	träumen	gütig	anregung	besonnen	kreativ	genießen	töten	gierig	ausrottung	bange	krank	gemein	1	blank2r.bmp	0	1	+	0	1	blank2r.bmp	500	1	CPLW	500	1	blank2r.bmp	880	2	versagen	880	1	!	1232	1	!	1313	0	0	0	0	0	0
2024-05-16	10:01:49	10:13:20	690747	6.6.1	4_exp_EVA_AWA_CON	40	A	B	Rpleas_acq	Oppo	Rpleas	2pleas	acq_US_unple_nomask	acq45_nomask	5	2	400	1	300	300	0	0	372	46	1	0	sonnig	vertrauen	kuss	engagiert	vergnügt	gesittet	sterben	versagen	krise	engstirnig	verbissen	geizig	träumen	gütig	anregung	besonnen	kreativ	genießen	töten	gierig	ausrottung	bange	krank	gemein	1	blank2r.bmp	0	1	+	0	1	blank2r.bmp	500	1	CPLW	500	1	blank2r.bmp	880	1	sterben	880	1	!	1232	1	!	1273	0	0	0	0	0	0
2024-05-16	10:01:49	10:13:22	692890	6.6.1	4_exp_EVA_AWA_CON	40	A	B	Rpleas_acq	Oppo	Rpleas	2pleas	acq_US_unple_nomask	acq45_nomask	5	3	400	1	300	300	0	0	365	46	1	0	sonnig	vertrauen	kuss	engagiert	vergnügt	gesittet	sterben	versagen	krise	engstirnig	verbissen	geizig	träumen	gütig	anregung	besonnen	kreativ	genießen	töten	gierig	ausrottung	bange	krank	gemein	1	blank2r.bmp	0	1	+	0	1	blank2r.bmp	500	1	CPLW	500	1	blank2r.bmp	880	3	krise	880	1	!	1232	1	!	1266	0	0	0	0	0	0
2024-05-16	10:01:49	10:13:24	695075	6.6.1	4_exp_EVA_AWA_CON	40	A	B	Rpleas_acq	Oppo	Rpleas	2pleas	acq_US_pleas_nomask	acq45_nomask	5	4	400	1	300	300	0	0	407	50	1	0	sonnig	vertrauen	kuss	engagiert	vergnügt	gesittet	sterben	versagen	krise	engstirnig	verbissen	geizig	träumen	gütig	anregung	besonnen	kreativ	genießen	töten	gierig	ausrottung	bange	krank	gemein	1	blank2r.bmp	0	1	+	0	1	blank2r.bmp	500	1	DHJF	500	1	blank2r.bmp	880	2	vertrauen	880	1	!	1232	1	!	1309	0	0	0	0	0	0
2024-05-16	10:01:49	10:13:26	697260	6.6.1	4_exp_EVA_AWA_CON	40	A	B	Rpleas_acq	Oppo	Rpleas	2pleas	acq_US_pleas_nomask	acq45_nomask	5	5	400	1	300	300	0	0	400	50	1	0	sonnig	vertrauen	kuss	engagiert	vergnügt	gesittet	sterben	versagen	krise	engstirnig	verbissen	geizig	träumen	gütig	anregung	besonnen	kreativ	genießen	töten	gierig	ausrottung	bange	krank	gemein	1	blank2r.bmp	0	1	+	0	1	blank2r.bmp	500	1	DHJF	500	1	blank2r.bmp	880	6	gesittet	880	1	!	1233	1	!	1302	0	0	0	0	0	0
2024-05-16	10:01:49	10:13:29	699519	6.6.1	4_exp_EVA_AWA_CON	40	A	B	Rpleas_acq	Oppo	Rpleas	2pleas	acq_US_unple_nomask	acq45_nomask	5	6	400	0	300	300	0	0	483	46	1	0	sonnig	vertrauen	kuss	engagiert	vergnügt	gesittet	sterben	versagen	krise	engstirnig	verbissen	geizig	träumen	gütig	anregung	besonnen	kreativ	genießen	töten	gierig	ausrottung	bange	krank	gemein	1	blank2r.bmp	0	1	+	0	1	blank2r.bmp	500	1	CPLW	500	1	blank2r.bmp	880	5	verbissen	880	1	!	1232	1	!	-1	0	0	0	0	0	0
2024-05-16	10:01:49	10:13:31	701659	6.6.1	4_exp_EVA_AWA_CON	40	A	B	Rpleas_acq	Oppo	Rpleas	2pleas	acq_US_pleas_nomask	acq45_nomask	5	7	400	1	300	300	0	0	357	50	1	0	sonnig	vertrauen	kuss	engagiert	vergnügt	gesittet	sterben	versagen	krise	engstirnig	verbissen	geizig	träumen	gütig	anregung	besonnen	kreativ	genießen	töten	gierig	ausrottung	bange	krank	gemein	1	blank2r.bmp	0	1	+	0	1	blank2r.bmp	500	1	DHJF	500	1	blank2r.bmp	880	3	kuss	880	1	!	1233	1	!	1259	0	0	0	0	0	0
2024-05-16	10:01:49	10:13:33	703899	6.6.1	4_exp_EVA_AWA_CON	40	A	B	Rpleas_acq	Oppo	Rpleas	2pleas	acq_US_pleas_nomask	acq45_nomask	5	8	400	1	300	300	0	0	456	50	1	0	sonnig	vertrauen	kuss	engagiert	vergnügt	gesittet	sterben	versagen	krise	engstirnig	verbissen	geizig	träumen	gütig	anregung	besonnen	kreativ	genießen	töten	gierig	ausrottung	bange	krank	gemein	1	blank2r.bmp	0	1	+	0	1	blank2r.bmp	500	1	DHJF	500	1	blank2r.bmp	880	1	sonnig	880	1	!	1232	1	!	1357	0	0	0	0	0	0
2024-05-16	10:01:49	10:13:35	706067	6.6.1	4_exp_EVA_AWA_CON	40	A	B	Rpleas_acq	Oppo	Rpleas	2pleas	acq_US_pleas_nomask	acq45_nomask	5	9	400	1	300	300	0	0	392	50	1	0	sonnig	vertrauen	kuss	engagiert	vergnügt	gesittet	sterben	versagen	krise	engstirnig	verbissen	geizig	träumen	gütig	anregung	besonnen	kreativ	genießen	töten	gierig	ausrottung	bange	krank	gemein	1	blank2r.bmp	0	1	+	0	1	blank2r.bmp	500	1	DHJF	500	1	blank2r.bmp	880	5	vergnügt	880	1	!	1232	1	!	1294	0	0	0	0	0	0
2024-05-16	10:01:49	10:13:37	708227	6.6.1	4_exp_EVA_AWA_CON	40	A	B	Rpleas_acq	Oppo	Rpleas	2pleas	acq_US_pleas_nomask	acq45_nomask	5	10	400	1	300	300	0	0	381	50	1	0	sonnig	vertrauen	kuss	engagiert	vergnügt	gesittet	sterben	versagen	krise	engstirnig	verbissen	geizig	träumen	gütig	anregung	besonnen	kreativ	genießen	töten	gierig	ausrottung	bange	krank	gemein	1	blank2r.bmp	0	1	+	0	1	blank2r.bmp	500	1	DHJF	500	1	blank2r.bmp	880	4	engagiert	880	1	!	1232	1	!	1282	0	0	0	0	0	0
2024-05-16	10:01:49	10:13:39	710387	6.6.1	4_exp_EVA_AWA_CON	40	A	B	Rpleas_acq	Oppo	Rpleas	2pleas	acq_US_pleas_nomask	acq45_nomask	5	11	400	1	300	300	0	0	379	50	1	0	sonnig	vertrauen	kuss	engagiert	vergnügt	gesittet	sterben	versagen	krise	engstirnig	verbissen	geizig	träumen	gütig	anregung	besonnen	kreativ	genießen	töten	gierig	ausrottung	bange	krank	gemein	1	blank2r.bmp	0	1	+	0	1	blank2r.bmp	500	1	DHJF	500	1	blank2r.bmp	880	5	vergnügt	880	1	!	1232	1	!	1282	0	0	0	0	0	0
2024-05-16	10:01:49	10:13:42	712579	6.6.1	4_exp_EVA_AWA_CON	40	A	B	Rpleas_acq	Oppo	Rpleas	2pleas	acq_US_unple_nomask	acq45_nomask	5	12	400	1	300	300	0	0	410	46	1	0	sonnig	vertrauen	kuss	engagiert	vergnügt	gesittet	sterben	versagen	krise	engstirnig	verbissen	geizig	träumen	gütig	anregung	besonnen	kreativ	genießen	töten	gierig	ausrottung	bange	krank	gemein	1	blank2r.bmp	0	1	+	0	1	blank2r.bmp	500	1	CPLW	500	1	blank2r.bmp	880	4	engstirnig	880	1	!	1232	1	!	1312	0	0	0	0	0	0
2024-05-16	10:01:49	10:13:44	714706	6.6.1	4_exp_EVA_AWA_CON	40	A	B	Rpleas_acq	Oppo	Rpleas	2pleas	acq_US_unple_nomask	acq45_nomask	5	13	400	1	300	300	0	0	347	46	1	0	sonnig	vertrauen	kuss	engagiert	vergnügt	gesittet	sterben	versagen	krise	engstirnig	verbissen	geizig	träumen	gütig	anregung	besonnen	kreativ	genießen	töten	gierig	ausrottung	bange	krank	gemein	1	blank2r.bmp	0	1	+	0	1	blank2r.bmp	500	1	CPLW	500	1	blank2r.bmp	880	6	geizig	880	1	!	1232	1	!	1248	0	0	0	0	0	0
2024-05-16	10:01:49	10:13:46	716939	6.6.1	4_exp_EVA_AWA_CON	40	A	B	Rpleas_acq	Oppo	Rpleas	2pleas	acq_US_pleas_nomask	acq45_nomask	5	14	400	1	300	300	0	0	457	50	1	0	sonnig	vertrauen	kuss	engagiert	vergnügt	gesittet	sterben	versagen	krise	engstirnig	verbissen	geizig	träumen	gütig	anregung	besonnen	kreativ	genießen	töten	gierig	ausrottung	bange	krank	gemein	1	blank2r.bmp	0	1	+	0	1	blank2r.bmp	500	1	DHJF	500	1	blank2r.bmp	880	3	kuss	880	1	!	1233	1	!	1359	0	0	0	0	0	0
2024-05-16	10:01:49	10:13:48	719123	6.6.1	4_exp_EVA_AWA_CON	40	A	B	Rpleas_acq	Oppo	Rpleas	2pleas	acq_US_unple_nomask	acq45_nomask	5	15	400	1	300	300	0	0	400	46	1	0	sonnig	vertrauen	kuss	engagiert	vergnügt	gesittet	sterben	versagen	krise	engstirnig	verbissen	geizig	träumen	gütig	anregung	besonnen	kreativ	genießen	töten	gierig	ausrottung	bange	krank	gemein	1	blank2r.bmp	0	1	+	0	1	blank2r.bmp	500	1	CPLW	500	1	blank2r.bmp	880	5	verbissen	880	1	!	1233	1	!	1302	0	0	0	0	0	0
2024-05-16	10:01:49	10:13:50	721401	6.6.1	4_exp_EVA_AWA_CON	40	A	B	Rpleas_acq	Oppo	Rpleas	2pleas	acq_US_pleas_nomask	acq45_nomask	5	16	400	0	300	300	0	0	498	50	1	0	sonnig	vertrauen	kuss	engagiert	vergnügt	gesittet	sterben	versagen	krise	engstirnig	verbissen	geizig	träumen	gütig	anregung	besonnen	kreativ	genießen	töten	gierig	ausrottung	bange	krank	gemein	1	blank2r.bmp	0	1	+	0	1	blank2r.bmp	500	1	DHJF	500	1	blank2r.bmp	880	6	gesittet	880	1	!	1232	1	!	-1	0	0	0	0	0	0
2024-05-16	10:01:49	10:13:53	723571	6.6.1	4_exp_EVA_AWA_CON	40	A	B	Rpleas_acq	Oppo	Rpleas	2pleas	acq_US_unple_nomask	acq45_nomask	5	17	400	1	300	300	0	0	395	50	0	0	sonnig	vertrauen	kuss	engagiert	vergnügt	gesittet	sterben	versagen	krise	engstirnig	verbissen	geizig	träumen	gütig	anregung	besonnen	kreativ	genießen	töten	gierig	ausrottung	bange	krank	gemein	1	blank2r.bmp	0	1	+	0	1	blank2r.bmp	500	1	CPLW	500	1	blank2r.bmp	880	4	engstirnig	880	1	!	1232	1	!	1296	0	0	0	0	0	0
2024-05-16	10:01:49	10:13:55	725811	6.6.1	4_exp_EVA_AWA_CON	40	A	B	Rpleas_acq	Oppo	Rpleas	2pleas	acq_US_unple_nomask	acq45_nomask	5	18	400	1	300	300	0	0	464	46	1	0	sonnig	vertrauen	kuss	engagiert	vergnügt	gesittet	sterben	versagen	krise	engstirnig	verbissen	geizig	träumen	gütig	anregung	besonnen	kreativ	genießen	töten	gierig	ausrottung	bange	krank	gemein	1	blank2r.bmp	0	1	+	0	1	blank2r.bmp	500	1	CPLW	500	1	blank2r.bmp	880	2	versagen	880	1	!	1232	1	!	1365	0	0	0	0	0	0
2024-05-16	10:01:49	10:13:57	728011	6.6.1	4_exp_EVA_AWA_CON	40	A	B	Rpleas_acq	Oppo	Rpleas	2pleas	acq_US_unple_nomask	acq45_nomask	5	19	400	1	300	300	0	0	422	46	1	0	sonnig	vertrauen	kuss	engagiert	vergnügt	gesittet	sterben	versagen	krise	engstirnig	verbissen	geizig	träumen	gütig	anregung	besonnen	kreativ	genießen	töten	gierig	ausrottung	bange	krank	gemein	1	blank2r.bmp	0	1	+	0	1	blank2r.bmp	500	1	CPLW	500	1	blank2r.bmp	880	1	sterben	880	1	!	1232	1	!	1324	0	0	0	0	0	0
2024-05-16	10:01:49	10:13:59	730259	6.6.1	4_exp_EVA_AWA_CON	40	A	B	Rpleas_acq	Oppo	Rpleas	2pleas	acq_US_pleas_nomask	acq45_nomask	5	20	400	1	300	300	0	0	469	50	1	0	sonnig	vertrauen	kuss	engagiert	vergnügt	gesittet	sterben	versagen	krise	engstirnig	verbissen	geizig	träumen	gütig	anregung	besonnen	kreativ	genießen	töten	gierig	ausrottung	bange	krank	gemein	1	blank2r.bmp	0	1	+	0	1	blank2r.bmp	500	1	DHJF	500	1	blank2r.bmp	880	2	vertrauen	880	1	!	1233	1	!	1370	0	0	0	0	0	0
2024-05-16	10:01:49	10:14:01	732507	6.6.1	4_exp_EVA_AWA_CON	40	A	B	Rpleas_acq	Oppo	Rpleas	2pleas	acq_US_unple_nomask	acq45_nomask	5	21	400	1	300	300	0	0	465	46	1	0	sonnig	vertrauen	kuss	engagiert	vergnügt	gesittet	sterben	versagen	krise	engstirnig	verbissen	geizig	träumen	gütig	anregung	besonnen	kreativ	genießen	töten	gierig	ausrottung	bange	krank	gemein	1	blank2r.bmp	0	1	+	0	1	blank2r.bmp	500	1	CPLW	500	1	blank2r.bmp	880	3	krise	880	1	!	1232	1	!	1367	0	0	0	0	0	0
2024-05-16	10:01:49	10:14:04	734659	6.6.1	4_exp_EVA_AWA_CON	40	A	B	Rpleas_acq	Oppo	Rpleas	2pleas	acq_US_unple_nomask	acq45_nomask	5	22	400	1	300	300	0	0	376	46	1	0	sonnig	vertrauen	kuss	engagiert	vergnügt	gesittet	sterben	versagen	krise	engstirnig	verbissen	geizig	träumen	gütig	anregung	besonnen	kreativ	genießen	töten	gierig	ausrottung	bange	krank	gemein	1	blank2r.bmp	0	1	+	0	1	blank2r.bmp	500	1	CPLW	500	1	blank2r.bmp	880	6	geizig	880	1	!	1233	1	!	1277	0	0	0	0	0	0
2024-05-16	10:01:49	10:14:06	736835	6.6.1	4_exp_EVA_AWA_CON	40	A	B	Rpleas_acq	Oppo	Rpleas	2pleas	acq_US_pleas_nomask	acq45_nomask	5	23	400	1	300	300	0	0	400	50	1	0	sonnig	vertrauen	kuss	engagiert	vergnügt	gesittet	sterben	versagen	krise	engstirnig	verbissen	geizig	träumen	gütig	anregung	besonnen	kreativ	genießen	töten	gierig	ausrottung	bange	krank	gemein	1	blank2r.bmp	0	1	+	0	1	blank2r.bmp	500	1	DHJF	500	1	blank2r.bmp	880	4	engagiert	880	1	!	1232	1	!	1302	0	0	0	0	0	0
2024-05-16	10:01:49	10:14:08	739051	6.6.1	4_exp_EVA_AWA_CON	40	A	B	Rpleas_acq	Oppo	Rpleas	2pleas	acq_US_pleas_nomask	acq45_nomask	5	24	400	1	300	300	0	0	435	50	1	0	sonnig	vertrauen	kuss	engagiert	vergnügt	gesittet	sterben	versagen	krise	engstirnig	verbissen	geizig	träumen	gütig	anregung	besonnen	kreativ	genießen	töten	gierig	ausrottung	bange	krank	gemein	1	blank2r.bmp	0	1	+	0	1	blank2r.bmp	500	1	DHJF	500	1	blank2r.bmp	880	1	sonnig	880	1	!	1233	1	!	1337	0	0	0	0	0	0
2024-05-16	10:01:49	10:14:10	741178	6.6.1	4_exp_EVA_AWA_CON	40	A	B	Rpleas_acq	Oppo	Rpleas	2pleas	acq_US_unple_nomask	acq45_nomask	5	25	400	1	300	300	0	0	352	46	1	0	sonnig	vertrauen	kuss	engagiert	vergnügt	gesittet	sterben	versagen	krise	engstirnig	verbissen	geizig	träumen	gütig	anregung	besonnen	kreativ	genießen	töten	gierig	ausrottung	bange	krank	gemein	1	blank2r.bmp	0	1	+	0	1	blank2r.bmp	500	1	CPLW	500	1	blank2r.bmp	880	3	krise	880	1	!	1232	1	!	1253	0	0	0	0	0	0
2024-05-16	10:01:49	10:14:12	743387	6.6.1	4_exp_EVA_AWA_CON	40	A	B	Rpleas_acq	Oppo	Rpleas	2pleas	acq_US_pleas_nomask	acq45_nomask	5	26	400	1	300	300	0	0	428	50	1	0	sonnig	vertrauen	kuss	engagiert	vergnügt	gesittet	sterben	versagen	krise	engstirnig	verbissen	geizig	träumen	gütig	anregung	besonnen	kreativ	genießen	töten	gierig	ausrottung	bange	krank	gemein	1	blank2r.bmp	0	1	+	0	1	blank2r.bmp	500	1	DHJF	500	1	blank2r.bmp	880	3	kuss	880	1	!	1232	1	!	1330	0	0	0	0	0	0
2024-05-16	10:01:49	10:14:15	745640	6.6.1	4_exp_EVA_AWA_CON	40	A	B	Rpleas_acq	Oppo	Rpleas	2pleas	acq_US_pleas_nomask	acq45_nomask	5	27	400	0	300	300	0	0	474	50	1	0	sonnig	vertrauen	kuss	engagiert	vergnügt	gesittet	sterben	versagen	krise	engstirnig	verbissen	geizig	träumen	gütig	anregung	besonnen	kreativ	genießen	töten	gierig	ausrottung	bange	krank	gemein	1	blank2r.bmp	0	1	+	0	1	blank2r.bmp	500	1	DHJF	500	1	blank2r.bmp	880	5	vergnügt	880	1	!	1232	1	!	-1	0	0	0	0	0	0
2024-05-16	10:01:49	10:14:17	747895	6.6.1	4_exp_EVA_AWA_CON	40	A	B	Rpleas_acq	Oppo	Rpleas	2pleas	acq_US_pleas_nomask	acq45_nomask	5	28	400	0	300	300	0	0	477	50	1	0	sonnig	vertrauen	kuss	engagiert	vergnügt	gesittet	sterben	versagen	krise	engstirnig	verbissen	geizig	träumen	gütig	anregung	besonnen	kreativ	genießen	töten	gierig	ausrottung	bange	krank	gemein	1	blank2r.bmp	0	1	+	0	1	blank2r.bmp	500	1	DHJF	500	1	blank2r.bmp	880	1	sonnig	880	1	!	1232	1	!	-1	0	0	0	0	0	0
2024-05-16	10:01:49	10:14:19	750051	6.6.1	4_exp_EVA_AWA_CON	40	A	B	Rpleas_acq	Oppo	Rpleas	2pleas	acq_US_pleas_nomask	acq45_nomask	5	29	400	1	300	300	0	0	378	50	1	0	sonnig	vertrauen	kuss	engagiert	vergnügt	gesittet	sterben	versagen	krise	engstirnig	verbissen	geizig	träumen	gütig	anregung	besonnen	kreativ	genießen	töten	gierig	ausrottung	bange	krank	gemein	1	blank2r.bmp	0	1	+	0	1	blank2r.bmp	500	1	DHJF	500	1	blank2r.bmp	880	2	vertrauen	880	1	!	1232	1	!	1279	0	0	0	0	0	0
2024-05-16	10:01:49	10:14:21	752195	6.6.1	4_exp_EVA_AWA_CON	40	A	B	Rpleas_acq	Oppo	Rpleas	2pleas	acq_US_unple_nomask	acq45_nomask	5	30	400	1	300	300	0	0	361	46	1	0	sonnig	vertrauen	kuss	engagiert	vergnügt	gesittet	sterben	versagen	krise	engstirnig	verbissen	geizig	träumen	gütig	anregung	besonnen	kreativ	genießen	töten	gierig	ausrottung	bange	krank	gemein	1	blank2r.bmp	0	1	+	0	1	blank2r.bmp	500	1	CPLW	500	1	blank2r.bmp	880	5	verbissen	880	1	!	1233	1	!	1262	0	0	0	0	0	0
2024-05-16	10:01:49	10:14:23	754395	6.6.1	4_exp_EVA_AWA_CON	40	A	B	Rpleas_acq	Oppo	Rpleas	2pleas	acq_US_pleas_nomask	acq45_nomask	5	31	400	1	300	300	0	0	419	50	1	0	sonnig	vertrauen	kuss	engagiert	vergnügt	gesittet	sterben	versagen	krise	engstirnig	verbissen	geizig	träumen	gütig	anregung	besonnen	kreativ	genießen	töten	gierig	ausrottung	bange	krank	gemein	1	blank2r.bmp	0	1	+	0	1	blank2r.bmp	500	1	DHJF	500	1	blank2r.bmp	880	4	engagiert	880	1	!	1232	1	!	1321	0	0	0	0	0	0
2024-05-16	10:01:49	10:14:26	756563	6.6.1	4_exp_EVA_AWA_CON	40	A	B	Rpleas_acq	Oppo	Rpleas	2pleas	acq_US_unple_nomask	acq45_nomask	5	32	400	1	300	300	0	0	386	46	1	0	sonnig	vertrauen	kuss	engagiert	vergnügt	gesittet	sterben	versagen	krise	engstirnig	verbissen	geizig	träumen	gütig	anregung	besonnen	kreativ	genießen	töten	gierig	ausrottung	bange	krank	gemein	1	blank2r.bmp	0	1	+	0	1	blank2r.bmp	500	1	CPLW	500	1	blank2r.bmp	880	1	sterben	880	1	!	1233	1	!	1287	0	0	0	0	0	0
2024-05-16	10:01:49	10:14:28	758731	6.6.1	4_exp_EVA_AWA_CON	40	A	B	Rpleas_acq	Oppo	Rpleas	2pleas	acq_US_unple_nomask	acq45_nomask	5	33	400	1	300	300	0	0	392	46	1	0	sonnig	vertrauen	kuss	engagiert	vergnügt	gesittet	sterben	versagen	krise	engstirnig	verbissen	geizig	träumen	gütig	anregung	besonnen	kreativ	genießen	töten	gierig	ausrottung	bange	krank	gemein	1	blank2r.bmp	0	1	+	0	1	blank2r.bmp	500	1	CPLW	500	1	blank2r.bmp	880	2	versagen	880	1	!	1232	1	!	1294	0	0	0	0	0	0
2024-05-16	10:01:49	10:14:30	760915	6.6.1	4_exp_EVA_AWA_CON	40	A	B	Rpleas_acq	Oppo	Rpleas	2pleas	acq_US_unple_nomask	acq45_nomask	5	34	400	1	300	300	0	0	405	46	1	0	sonnig	vertrauen	kuss	engagiert	vergnügt	gesittet	sterben	versagen	krise	engstirnig	verbissen	geizig	träumen	gütig	anregung	besonnen	kreativ	genießen	töten	gierig	ausrottung	bange	krank	gemein	1	blank2r.bmp	0	1	+	0	1	blank2r.bmp	500	1	CPLW	500	1	blank2r.bmp	880	6	geizig	880	1	!	1233	1	!	1306	0	0	0	0	0	0
2024-05-16	10:01:49	10:14:32	763059	6.6.1	4_exp_EVA_AWA_CON	40	A	B	Rpleas_acq	Oppo	Rpleas	2pleas	acq_US_unple_nomask	acq45_nomask	5	35	400	1	300	300	0	0	368	46	1	0	sonnig	vertrauen	kuss	engagiert	vergnügt	gesittet	sterben	versagen	krise	engstirnig	verbissen	geizig	träumen	gütig	anregung	besonnen	kreativ	genießen	töten	gierig	ausrottung	bange	krank	gemein	1	blank2r.bmp	0	1	+	0	1	blank2r.bmp	500	1	CPLW	500	1	blank2r.bmp	880	4	engstirnig	880	1	!	1232	1	!	1269	0	0	0	0	0	0
2024-05-16	10:01:49	10:14:34	765243	6.6.1	4_exp_EVA_AWA_CON	40	A	B	Rpleas_acq	Oppo	Rpleas	2pleas	acq_US_pleas_nomask	acq45_nomask	5	36	400	1	300	300	0	0	410	50	1	0	sonnig	vertrauen	kuss	engagiert	vergnügt	gesittet	sterben	versagen	krise	engstirnig	verbissen	geizig	träumen	gütig	anregung	besonnen	kreativ	genießen	töten	gierig	ausrottung	bange	krank	gemein	1	blank2r.bmp	0	1	+	0	1	blank2r.bmp	500	1	DHJF	500	1	blank2r.bmp	880	6	gesittet	880	1	!	1232	1	!	1312	0	0	0	0	0	0
2024-05-16	10:01:49	10:15:03	794381	6.6.1	4_exp_EVA_AWA_CON	40	A	B	Rpleas_acq	Oppo	Lpleas	2pleas	EvalRating_firsttwo	EvalRating_firsttwo	6	1	0	0	300	300	0	0	7317	line	0	20,1822916666666714036pct	sonnig	vertrauen	kuss	engagiert	vergnügt	gesittet	sterben	versagen	krise	engstirnig	verbissen	geizig	träumen	gütig	anregung	besonnen	kreativ	genießen	töten	gierig	ausrottung	bange	krank	gemein	1		-8	1	Wie angenehm oder unangenehm finden Sie die  Buchstabenkette WDLH?	-8	1		-8	1		-8	1		-8	1	Unangenehm	-8	1	Angenehm	-8	0	0	0	0	0	0	0	0	0
2024-05-16	10:01:49	10:15:09	800462	6.6.1	4_exp_EVA_AWA_CON	40	A	B	Rpleas_acq	Oppo	Lpleas	2pleas	EvalRating_lastfour	EvalRating_lastfour	7	1	0	0	300	300	0	0	3701	line	0	33,3333333333333428072pct	sonnig	vertrauen	kuss	engagiert	vergnügt	gesittet	sterben	versagen	krise	engstirnig	verbissen	geizig	träumen	gütig	anregung	besonnen	kreativ	genießen	töten	gierig	ausrottung	bange	krank	gemein	1		-7	2	Wie angenehm oder unangenehm finden Sie die  Buchstabenkette DHJF?	-7	1		-7	1		-7	1		-7	1	Unangenehm	-7	1	Angenehm	-7	0	0	0	0	0	0	0	0	0
2024-05-16	10:01:49	10:15:12	802826	6.6.1	4_exp_EVA_AWA_CON	40	A	B	Rpleas_acq	Oppo	Lpleas	2pleas	blank_screen	EvalRating_lastfour	7	3	0	0	300	300	0	0	0	0	0	33,3333333333333428072pct	sonnig	vertrauen	kuss	engagiert	vergnügt	gesittet	sterben	versagen	krise	engstirnig	verbissen	geizig	träumen	gütig	anregung	besonnen	kreativ	genießen	töten	gierig	ausrottung	bange	krank	gemein	1		-8	0	0	0	0	0	0	0	0	0	0	0	0	0	0	0	0	0	0	0	0	0	0	0	0	0	0	0
2024-05-16	10:01:49	10:15:14	805245	6.6.1	4_exp_EVA_AWA_CON	40	A	B	Rpleas_acq	Oppo	Lpleas	2pleas	EvalRating_lastfour	EvalRating_lastfour	7	4	0	0	300	300	0	0	1831	line	0	5,3385416666666714036pct	sonnig	vertrauen	kuss	engagiert	vergnügt	gesittet	sterben	versagen	krise	engstirnig	verbissen	geizig	träumen	gütig	anregung	besonnen	kreativ	genießen	töten	gierig	ausrottung	bange	krank	gemein	1		-7	1	Wie angenehm oder unangenehm finden Sie die  Buchstabenkette CPLW?	-7	1		-7	1		-7	1		-7	1	Unangenehm	-7	1	Angenehm	-7	0	0	0	0	0	0	0	0	0
2024-05-16	10:01:49	10:15:17	807609	6.6.1	4_exp_EVA_AWA_CON	40	A	B	Rpleas_acq	Oppo	Lpleas	2pleas	blank_screen	EvalRating_lastfour	7	6	0	0	300	300	0	0	0	0	0	5,3385416666666714036pct	sonnig	vertrauen	kuss	engagiert	vergnügt	gesittet	sterben	versagen	krise	engstirnig	verbissen	geizig	träumen	gütig	anregung	besonnen	kreativ	genießen	töten	gierig	ausrottung	bange	krank	gemein	1		-8	0	0	0	0	0	0	0	0	0	0	0	0	0	0	0	0	0	0	0	0	0	0	0	0	0	0	0
2024-05-16	10:01:49	10:15:26	816669	6.6.1	4_exp_EVA_AWA_CON	40	A	B	Rpleas_acq	Oppo	Lpleas	2pleas	EvalRating_lastfour	EvalRating_lastfour	7	7	0	0	300	300	0	0	8472	line	0	41,40625pct	sonnig	vertrauen	kuss	engagiert	vergnügt	gesittet	sterben	versagen	krise	engstirnig	verbissen	geizig	träumen	gütig	anregung	besonnen	kreativ	genießen	töten	gierig	ausrottung	bange	krank	gemein	1		-8	3	Wie angenehm oder unangenehm finden Sie die  Buchstabenkette FCJP?	-8	1		-8	1		-8	1		-8	1	Unangenehm	-8	1	Angenehm	-8	0	0	0	0	0	0	0	0	0
2024-05-16	10:01:49	10:16:14	865475	6.6.1	4_exp_EVA_AWA_CON	40	A	B	Rpleas_acq	Oppo	Lpleas	2pleas	conawa_CS1_US4	conawa1_nomask	8	1	0	0	300	300	0	0	7295	engstirnig	1	41,40625pct	sonnig	vertrauen	kuss	engagiert	vergnügt	gesittet	sterben	versagen	krise	engstirnig	verbissen	geizig	träumen	gütig	anregung	besonnen	kreativ	genießen	töten	gierig	ausrottung	bange	krank	gemein	0	0	0	0	0	0	0	0	0	0	0	0	0	0	0	0	0	0	0	0	0	0	0	0	0	0	0	0	0	0
2024-05-16	10:01:49	10:16:14	865477	6.6.1	4_exp_EVA_AWA_CON	40	A	B	Rpleas_acq	Oppo	Lpleas	2pleas	conawa_CS1_US4_confidence	conawa1_nomask	8	1	0	0	300	300	0	0	7295	guess	1	41,40625pct	sonnig	vertrauen	kuss	engagiert	vergnügt	gesittet	sterben	versagen	krise	engstirnig	verbissen	geizig	träumen	gütig	anregung	besonnen	kreativ	genießen	töten	gierig	ausrottung	bange	krank	gemein	0	0	0	0	0	0	0	0	0	0	0	0	0	0	0	0	0	0	0	0	0	0	0	0	0	0	0	0	0	0
2024-05-16	10:01:49	10:16:23	874050	6.6.1	4_exp_EVA_AWA_CON	40	A	B	Rpleas_acq	Oppo	Lpleas	2pleas	conawa_CS1_US5	conawa1_nomask	8	2	0	0	300	300	0	0	7954	verbissen	1	41,40625pct	sonnig	vertrauen	kuss	engagiert	vergnügt	gesittet	sterben	versagen	krise	engstirnig	verbissen	geizig	träumen	gütig	anregung	besonnen	kreativ	genießen	töten	gierig	ausrottung	bange	krank	gemein	0	0	0	0	0	0	0	0	0	0	0	0	0	0	0	0	0	0	0	0	0	0	0	0	0	0	0	0	0	0
2024-05-16	10:01:49	10:16:23	874052	6.6.1	4_exp_EVA_AWA_CON	40	A	B	Rpleas_acq	Oppo	Lpleas	2pleas	conawa_CS1_US5_confidence	conawa1_nomask	8	2	0	0	300	300	0	0	7954	guess	1	41,40625pct	sonnig	vertrauen	kuss	engagiert	vergnügt	gesittet	sterben	versagen	krise	engstirnig	verbissen	geizig	träumen	gütig	anregung	besonnen	kreativ	genießen	töten	gierig	ausrottung	bange	krank	gemein	0	0	0	0	0	0	0	0	0	0	0	0	0	0	0	0	0	0	0	0	0	0	0	0	0	0	0	0	0	0
2024-05-16	10:01:49	10:16:29	879534	6.6.1	4_exp_EVA_AWA_CON	40	A	B	Rpleas_acq	Oppo	Lpleas	2pleas	conawa_CS2_US1	conawa1_nomask	8	3	0	0	300	300	0	0	4867	sonnig	1	41,40625pct	sonnig	vertrauen	kuss	engagiert	vergnügt	gesittet	sterben	versagen	krise	engstirnig	verbissen	geizig	träumen	gütig	anregung	besonnen	kreativ	genießen	töten	gierig	ausrottung	bange	krank	gemein	0	0	0	0	0	0	0	0	0	0	0	0	0	0	0	0	0	0	0	0	0	0	0	0	0	0	0	0	0	0
2024-05-16	10:01:49	10:16:29	879536	6.6.1	4_exp_EVA_AWA_CON	40	A	B	Rpleas_acq	Oppo	Lpleas	2pleas	conawa_CS2_US1_confidence	conawa1_nomask	8	3	0	0	300	300	0	0	4867	guess	1	41,40625pct	sonnig	vertrauen	kuss	engagiert	vergnügt	gesittet	sterben	versagen	krise	engstirnig	verbissen	geizig	träumen	gütig	anregung	besonnen	kreativ	genießen	töten	gierig	ausrottung	bange	krank	gemein	0	0	0	0	0	0	0	0	0	0	0	0	0	0	0	0	0	0	0	0	0	0	0	0	0	0	0	0	0	0
2024-05-16	10:01:49	10:16:35	885558	6.6.1	4_exp_EVA_AWA_CON	40	A	B	Rpleas_acq	Oppo	Lpleas	2pleas	conawa_CS2_US2	conawa1_nomask	8	4	0	0	300	300	0	0	5409	vertrauen	1	41,40625pct	sonnig	vertrauen	kuss	engagiert	vergnügt	gesittet	sterben	versagen	krise	engstirnig	verbissen	geizig	träumen	gütig	anregung	besonnen	kreativ	genießen	töten	gierig	ausrottung	bange	krank	gemein	0	0	0	0	0	0	0	0	0	0	0	0	0	0	0	0	0	0	0	0	0	0	0	0	0	0	0	0	0	0
2024-05-16	10:01:49	10:16:35	885559	6.6.1	4_exp_EVA_AWA_CON	40	A	B	Rpleas_acq	Oppo	Lpleas	2pleas	conawa_CS2_US2_confidence	conawa1_nomask	8	4	0	0	300	300	0	0	5409	guess	1	41,40625pct	sonnig	vertrauen	kuss	engagiert	vergnügt	gesittet	sterben	versagen	krise	engstirnig	verbissen	geizig	träumen	gütig	anregung	besonnen	kreativ	genießen	töten	gierig	ausrottung	bange	krank	gemein	0	0	0	0	0	0	0	0	0	0	0	0	0	0	0	0	0	0	0	0	0	0	0	0	0	0	0	0	0	0
2024-05-16	10:01:49	10:16:46	897035	6.6.1	4_exp_EVA_AWA_CON	40	A	B	Rpleas_acq	Oppo	Lpleas	2pleas	conawa_CS1_US3	conawa1_nomask	8	5	0	0	300	300	0	0	10866	ausrottung	1	41,40625pct	sonnig	vertrauen	kuss	engagiert	vergnügt	gesittet	sterben	versagen	krise	engstirnig	verbissen	geizig	träumen	gütig	anregung	besonnen	kreativ	genießen	töten	gierig	ausrottung	bange	krank	gemein	0	0	0	0	0	0	0	0	0	0	0	0	0	0	0	0	0	0	0	0	0	0	0	0	0	0	0	0	0	0
2024-05-16	10:01:49	10:16:46	897037	6.6.1	4_exp_EVA_AWA_CON	40	A	B	Rpleas_acq	Oppo	Lpleas	2pleas	conawa_CS1_US3_confidence	conawa1_nomask	8	5	0	0	300	300	0	0	10866	guess	1	41,40625pct	sonnig	vertrauen	kuss	engagiert	vergnügt	gesittet	sterben	versagen	krise	engstirnig	verbissen	geizig	träumen	gütig	anregung	besonnen	kreativ	genießen	töten	gierig	ausrottung	bange	krank	gemein	0	0	0	0	0	0	0	0	0	0	0	0	0	0	0	0	0	0	0	0	0	0	0	0	0	0	0	0	0	0
2024-05-16	10:01:49	10:16:52	902659	6.6.1	4_exp_EVA_AWA_CON	40	A	B	Rpleas_acq	Oppo	Lpleas	2pleas	conawa_CS2_US4	conawa1_nomask	8	6	0	0	300	300	0	0	5012	engagiert	1	41,40625pct	sonnig	vertrauen	kuss	engagiert	vergnügt	gesittet	sterben	versagen	krise	engstirnig	verbissen	geizig	träumen	gütig	anregung	besonnen	kreativ	genießen	töten	gierig	ausrottung	bange	krank	gemein	0	0	0	0	0	0	0	0	0	0	0	0	0	0	0	0	0	0	0	0	0	0	0	0	0	0	0	0	0	0
2024-05-16	10:01:49	10:16:52	902660	6.6.1	4_exp_EVA_AWA_CON	40	A	B	Rpleas_acq	Oppo	Lpleas	2pleas	conawa_CS2_US4_confidence	conawa1_nomask	8	6	0	0	300	300	0	0	5012	guess	1	41,40625pct	sonnig	vertrauen	kuss	engagiert	vergnügt	gesittet	sterben	versagen	krise	engstirnig	verbissen	geizig	träumen	gütig	anregung	besonnen	kreativ	genießen	töten	gierig	ausrottung	bange	krank	gemein	0	0	0	0	0	0	0	0	0	0	0	0	0	0	0	0	0	0	0	0	0	0	0	0	0	0	0	0	0	0
2024-05-16	10:01:49	10:16:58	909383	6.6.1	4_exp_EVA_AWA_CON	40	A	B	Rpleas_acq	Oppo	Lpleas	2pleas	conawa_CS2_US5	conawa1_nomask	8	7	0	0	300	300	0	0	6107	vergnügt	1	41,40625pct	sonnig	vertrauen	kuss	engagiert	vergnügt	gesittet	sterben	versagen	krise	engstirnig	verbissen	geizig	träumen	gütig	anregung	besonnen	kreativ	genießen	töten	gierig	ausrottung	bange	krank	gemein	0	0	0	0	0	0	0	0	0	0	0	0	0	0	0	0	0	0	0	0	0	0	0	0	0	0	0	0	0	0
2024-05-16	10:01:49	10:16:58	909385	6.6.1	4_exp_EVA_AWA_CON	40	A	B	Rpleas_acq	Oppo	Lpleas	2pleas	conawa_CS2_US5_confidence	conawa1_nomask	8	7	0	0	300	300	0	0	6107	guess	1	41,40625pct	sonnig	vertrauen	kuss	engagiert	vergnügt	gesittet	sterben	versagen	krise	engstirnig	verbissen	geizig	träumen	gütig	anregung	besonnen	kreativ	genießen	töten	gierig	ausrottung	bange	krank	gemein	0	0	0	0	0	0	0	0	0	0	0	0	0	0	0	0	0	0	0	0	0	0	0	0	0	0	0	0	0	0
2024-05-16	10:01:49	10:17:03	914296	6.6.1	4_exp_EVA_AWA_CON	40	A	B	Rpleas_acq	Oppo	Lpleas	2pleas	conawa_CS2_US3	conawa1_nomask	8	8	0	0	300	300	0	0	4297	besonnen	1	41,40625pct	sonnig	vertrauen	kuss	engagiert	vergnügt	gesittet	sterben	versagen	krise	engstirnig	verbissen	geizig	träumen	gütig	anregung	besonnen	kreativ	genießen	töten	gierig	ausrottung	bange	krank	gemein	0	0	0	0	0	0	0	0	0	0	0	0	0	0	0	0	0	0	0	0	0	0	0	0	0	0	0	0	0	0
2024-05-16	10:01:49	10:17:03	914298	6.6.1	4_exp_EVA_AWA_CON	40	A	B	Rpleas_acq	Oppo	Lpleas	2pleas	conawa_CS2_US3_confidence	conawa1_nomask	8	8	0	0	300	300	0	0	4297	guess	1	41,40625pct	sonnig	vertrauen	kuss	engagiert	vergnügt	gesittet	sterben	versagen	krise	engstirnig	verbissen	geizig	träumen	gütig	anregung	besonnen	kreativ	genießen	töten	gierig	ausrottung	bange	krank	gemein	0	0	0	0	0	0	0	0	0	0	0	0	0	0	0	0	0	0	0	0	0	0	0	0	0	0	0	0	0	0
2024-05-16	10:01:49	10:17:08	919479	6.6.1	4_exp_EVA_AWA_CON	40	A	B	Rpleas_acq	Oppo	Lpleas	2pleas	conawa_CS1_US1	conawa1_nomask	8	9	0	0	300	300	0	0	4567	sterben	1	41,40625pct	sonnig	vertrauen	kuss	engagiert	vergnügt	gesittet	sterben	versagen	krise	engstirnig	verbissen	geizig	träumen	gütig	anregung	besonnen	kreativ	genießen	töten	gierig	ausrottung	bange	krank	gemein	0	0	0	0	0	0	0	0	0	0	0	0	0	0	0	0	0	0	0	0	0	0	0	0	0	0	0	0	0	0
2024-05-16	10:01:49	10:17:08	919482	6.6.1	4_exp_EVA_AWA_CON	40	A	B	Rpleas_acq	Oppo	Lpleas	2pleas	conawa_CS1_US1_confidence	conawa1_nomask	8	9	0	0	300	300	0	0	4567	guess	1	41,40625pct	sonnig	vertrauen	kuss	engagiert	vergnügt	gesittet	sterben	versagen	krise	engstirnig	verbissen	geizig	träumen	gütig	anregung	besonnen	kreativ	genießen	töten	gierig	ausrottung	bange	krank	gemein	0	0	0	0	0	0	0	0	0	0	0	0	0	0	0	0	0	0	0	0	0	0	0	0	0	0	0	0	0	0
2024-05-16	10:01:49	10:17:14	925483	6.6.1	4_exp_EVA_AWA_CON	40	A	B	Rpleas_acq	Oppo	Lpleas	2pleas	conawa_CS1_US2	conawa1_nomask	8	10	0	0	300	300	0	0	5393	versagen	1	41,40625pct	sonnig	vertrauen	kuss	engagiert	vergnügt	gesittet	sterben	versagen	krise	engstirnig	verbissen	geizig	träumen	gütig	anregung	besonnen	kreativ	genießen	töten	gierig	ausrottung	bange	krank	gemein	0	0	0	0	0	0	0	0	0	0	0	0	0	0	0	0	0	0	0	0	0	0	0	0	0	0	0	0	0	0
2024-05-16	10:01:49	10:17:14	925485	6.6.1	4_exp_EVA_AWA_CON	40	A	B	Rpleas_acq	Oppo	Lpleas	2pleas	conawa_CS1_US2_confidence	conawa1_nomask	8	10	0	0	300	300	0	0	5393	guess	1	41,40625pct	sonnig	vertrauen	kuss	engagiert	vergnügt	gesittet	sterben	versagen	krise	engstirnig	verbissen	geizig	träumen	gütig	anregung	besonnen	kreativ	genießen	töten	gierig	ausrottung	bange	krank	gemein	0	0	0	0	0	0	0	0	0	0	0	0	0	0	0	0	0	0	0	0	0	0	0	0	0	0	0	0	0	0
2024-05-16	10:01:49	10:17:20	931257	6.6.1	4_exp_EVA_AWA_CON	40	A	B	Rpleas_acq	Oppo	Lpleas	2pleas	conawa_CS2_US6	conawa1_nomask	8	11	0	0	300	300	0	0	5157	gesittet	1	41,40625pct	sonnig	vertrauen	kuss	engagiert	vergnügt	gesittet	sterben	versagen	krise	engstirnig	verbissen	geizig	träumen	gütig	anregung	besonnen	kreativ	genießen	töten	gierig	ausrottung	bange	krank	gemein	0	0	0	0	0	0	0	0	0	0	0	0	0	0	0	0	0	0	0	0	0	0	0	0	0	0	0	0	0	0
2024-05-16	10:01:49	10:17:20	931259	6.6.1	4_exp_EVA_AWA_CON	40	A	B	Rpleas_acq	Oppo	Lpleas	2pleas	conawa_CS2_US6_confidence	conawa1_nomask	8	11	0	0	300	300	0	0	5157	guess	1	41,40625pct	sonnig	vertrauen	kuss	engagiert	vergnügt	gesittet	sterben	versagen	krise	engstirnig	verbissen	geizig	träumen	gütig	anregung	besonnen	kreativ	genießen	töten	gierig	ausrottung	bange	krank	gemein	0	0	0	0	0	0	0	0	0	0	0	0	0	0	0	0	0	0	0	0	0	0	0	0	0	0	0	0	0	0
2024-05-16	10:01:49	10:17:28	938552	6.6.1	4_exp_EVA_AWA_CON	40	A	B	Rpleas_acq	Oppo	Lpleas	2pleas	conawa_CS1_US6	conawa1_nomask	8	12	0	0	300	300	0	0	6679	gemein	1	41,40625pct	sonnig	vertrauen	kuss	engagiert	vergnügt	gesittet	sterben	versagen	krise	engstirnig	verbissen	geizig	träumen	gütig	anregung	besonnen	kreativ	genießen	töten	gierig	ausrottung	bange	krank	gemein	0	0	0	0	0	0	0	0	0	0	0	0	0	0	0	0	0	0	0	0	0	0	0	0	0	0	0	0	0	0
2024-05-16	10:01:49	10:17:28	938554	6.6.1	4_exp_EVA_AWA_CON	40	A	B	Rpleas_acq	Oppo	Lpleas	2pleas	conawa_CS1_US6_confidence	conawa1_nomask	8	12	0	0	300	300	0	0	6679	guess	1	41,40625pct	sonnig	vertrauen	kuss	engagiert	vergnügt	gesittet	sterben	versagen	krise	engstirnig	verbissen	geizig	träumen	gütig	anregung	besonnen	kreativ	genießen	töten	gierig	ausrottung	bange	krank	gemein	0	0	0	0	0	0	0	0	0	0	0	0	0	0	0	0	0	0	0	0	0	0	0	0	0	0	0	0	0	0
2024-05-16	10:01:49	10:18:34	1005017	6.6.1	4_exp_EVA_AWA_CON	40	A	B	Rpleas_acq	Oppo	Lpleas	2pleas	cond_new_unple_456_nomask_CS2	condtest_nomask_1	11	1	400	0	300	300	0	0	833	50	1	41,40625pct	sonnig	vertrauen	kuss	engagiert	vergnügt	gesittet	sterben	versagen	krise	engstirnig	verbissen	geizig	träumen	gütig	anregung	besonnen	kreativ	genießen	töten	gierig	ausrottung	bange	krank	gemein	1	blank2r.bmp	0	1	+	0	1	blank2r.bmp	500	1	DHJF	500	1	blank2r.bmp	880	2	bange	880	1	!	1232	1	!	-1	0	0	0	0	0	0
