date	time	currenttime	elapsedtime	build	currentexpt	subject	CS_AB	US_AB	LRpleas_acq	SameOppo	condition_Lpleas	condition_1pleas	trialcode	blockcode	blocknum	trialnum	windowcenter	inwindow	pretrialpause	posttrialpause	trialduration	trialtimeout	latency	response	correct	correctedscore	US_nomask_pleas1	US_nomask_pleas2	US_nomask_pleas3	US_nomask_pleas4	US_nomask_pleas5	US_nomask_pleas6	US_nomask_unple1	US_nomask_unple2	US_nomask_unple3	US_nomask_unple4	US_nomask_unple5	US_nomask_unple6	new_nomask_pleas1	new_nomask_pleas2	new_nomask_pleas3	new_nomask_pleas4	new_nomask_pleas5	new_nomask_pleas6	new_nomask_unple1	new_nomask_unple2	new_nomask_unple3	new_nomask_unple4	new_nomask_unple5	new_nomask_unple6	stimulusnumber1	stimulusitem1	stimulusonset1	stimulusnumber2	stimulusitem2	stimulusonset2	stimulusnumber3	stimulusitem3	stimulusonset3	stimulusnumber4	stimulusitem4	stimulusonset4	stimulusnumber5	stimulusitem5	stimulusonset5	stimulusnumber6	stimulusitem6	stimulusonset6	stimulusnumber7	stimulusitem7	stimulusonset7	stimulusnumber8	stimulusitem8	stimulusonset8	stimulusnumber9	stimulusitem9	stimulusonset9	stimulusnumber10	stimulusitem10	stimulusonset10
2024-06-12	10:07:11	10:09:27	135062	6.6.1	4_exp_EVA_AWA_CON	81	A	B	Rpleas_acq	Same	Rpleas	1pleas	acq_US_unple_nomask	acq1_nomask	1	1	0	0	300	300	0	0	1682	46	1	0	träumen	anregung	engagiert	kreativ	gesittet	genießen	töten	ausrottung	engstirnig	krank	geizig	gemein	sonnig	gütig	besonnen	vertrauen	kuss	vergnügt	sterben	gierig	bange	versagen	krise	verbissen	1	blank2r.bmp	0	1	+	0	1	blank2r.bmp	500	1	DHJF	500	1	blank2r.bmp	880	5	geizig	880	0	0	0	0	0	0	0	0	0	0	0	0
2024-06-12	10:07:11	10:09:35	142663	6.6.1	4_exp_EVA_AWA_CON	81	A	B	Rpleas_acq	Same	Rpleas	1pleas	acq_US_unple_nomask	acq1_nomask	1	2	0	0	300	300	0	0	6120	46	1	0	träumen	anregung	engagiert	kreativ	gesittet	genießen	töten	ausrottung	engstirnig	krank	geizig	gemein	sonnig	gütig	besonnen	vertrauen	kuss	vergnügt	sterben	gierig	bange	versagen	krise	verbissen	1	blank2r.bmp	0	1	+	0	1	blank2r.bmp	500	1	DHJF	500	1	blank2r.bmp	880	3	engstirnig	880	0	0	0	0	0	0	0	0	0	0	0	0
2024-06-12	10:07:11	10:09:37	145014	6.6.1	4_exp_EVA_AWA_CON	81	A	B	Rpleas_acq	Same	Rpleas	1pleas	acq_new_unple_nomask	acq1_nomask	1	3	0	0	300	300	0	0	867	46	1	0	träumen	anregung	engagiert	kreativ	gesittet	genießen	töten	ausrottung	engstirnig	krank	geizig	gemein	sonnig	gütig	besonnen	vertrauen	kuss	vergnügt	sterben	gierig	bange	versagen	krise	verbissen	1	blank2r.bmp	0	1	+	0	1	blank2r.bmp	500	8	C4r.bmp	500	1	blank2r.bmp	880	1	sterben	880	0	0	0	0	0	0	0	0	0	0	0	0
2024-06-12	10:07:11	10:09:40	147206	6.6.1	4_exp_EVA_AWA_CON	81	A	B	Rpleas_acq	Same	Rpleas	1pleas	acq_new_pleas_nomask	acq1_nomask	1	4	0	0	300	300	0	0	708	50	1	0	träumen	anregung	engagiert	kreativ	gesittet	genießen	töten	ausrottung	engstirnig	krank	geizig	gemein	sonnig	gütig	besonnen	vertrauen	kuss	vergnügt	sterben	gierig	bange	versagen	krise	verbissen	1	blank2r.bmp	0	1	+	0	1	blank2r.bmp	500	5	C1r.bmp	500	1	blank2r.bmp	880	5	kuss	880	0	0	0	0	0	0	0	0	0	0	0	0
2024-06-12	10:07:11	10:09:42	149574	6.6.1	4_exp_EVA_AWA_CON	81	A	B	Rpleas_acq	Same	Rpleas	1pleas	acq_new_pleas_nomask	acq1_nomask	1	5	0	0	300	300	0	0	884	50	1	0	träumen	anregung	engagiert	kreativ	gesittet	genießen	töten	ausrottung	engstirnig	krank	geizig	gemein	sonnig	gütig	besonnen	vertrauen	kuss	vergnügt	sterben	gierig	bange	versagen	krise	verbissen	1	blank2r.bmp	0	1	+	0	1	blank2r.bmp	500	1	B1r.bmp	500	1	blank2r.bmp	880	6	vergnügt	880	0	0	0	0	0	0	0	0	0	0	0	0
2024-06-12	10:07:11	10:09:45	152230	6.6.1	4_exp_EVA_AWA_CON	81	A	B	Rpleas_acq	Same	Rpleas	1pleas	acq_new_pleas_nomask	acq1_nomask	1	6	0	0	300	300	0	0	1169	50	1	0	träumen	anregung	engagiert	kreativ	gesittet	genießen	töten	ausrottung	engstirnig	krank	geizig	gemein	sonnig	gütig	besonnen	vertrauen	kuss	vergnügt	sterben	gierig	bange	versagen	krise	verbissen	1	blank2r.bmp	0	1	+	0	1	blank2r.bmp	500	7	C3r.bmp	500	1	blank2r.bmp	880	2	gütig	880	0	0	0	0	0	0	0	0	0	0	0	0
2024-06-12	10:07:11	10:09:47	154535	6.6.1	4_exp_EVA_AWA_CON	81	A	B	Rpleas_acq	Same	Rpleas	1pleas	acq_US_unple_nomask	acq1_nomask	1	7	0	0	300	300	0	0	821	46	1	0	träumen	anregung	engagiert	kreativ	gesittet	genießen	töten	ausrottung	engstirnig	krank	geizig	gemein	sonnig	gütig	besonnen	vertrauen	kuss	vergnügt	sterben	gierig	bange	versagen	krise	verbissen	1	blank2r.bmp	0	1	+	0	1	blank2r.bmp	500	1	DHJF	500	1	blank2r.bmp	880	2	ausrottung	880	0	0	0	0	0	0	0	0	0	0	0	0
2024-06-12	10:07:11	10:09:50	157782	6.6.1	4_exp_EVA_AWA_CON	81	A	B	Rpleas_acq	Same	Rpleas	1pleas	acq_US_pleas_nomask	acq1_nomask	1	8	0	0	300	300	0	0	1768	50	1	0	träumen	anregung	engagiert	kreativ	gesittet	genießen	töten	ausrottung	engstirnig	krank	geizig	gemein	sonnig	gütig	besonnen	vertrauen	kuss	vergnügt	sterben	gierig	bange	versagen	krise	verbissen	1	blank2r.bmp	0	1	+	0	1	blank2r.bmp	500	1	CPLW	500	1	blank2r.bmp	880	4	kreativ	880	0	0	0	0	0	0	0	0	0	0	0	0
2024-06-12	10:07:11	10:09:53	160646	6.6.1	4_exp_EVA_AWA_CON	81	A	B	Rpleas_acq	Same	Rpleas	1pleas	acq_new_unple_nomask	acq1_nomask	1	9	0	0	300	300	0	0	1380	46	1	0	träumen	anregung	engagiert	kreativ	gesittet	genießen	töten	ausrottung	engstirnig	krank	geizig	gemein	sonnig	gütig	besonnen	vertrauen	kuss	vergnügt	sterben	gierig	bange	versagen	krise	verbissen	1	blank2r.bmp	0	1	+	0	1	blank2r.bmp	500	2	B2r.bmp	500	1	blank2r.bmp	880	6	verbissen	880	0	0	0	0	0	0	0	0	0	0	0	0
2024-06-12	10:07:11	10:09:55	162974	6.6.1	4_exp_EVA_AWA_CON	81	A	B	Rpleas_acq	Same	Rpleas	1pleas	acq_US_pleas_nomask	acq1_nomask	1	10	0	0	300	300	0	0	846	50	1	0	träumen	anregung	engagiert	kreativ	gesittet	genießen	töten	ausrottung	engstirnig	krank	geizig	gemein	sonnig	gütig	besonnen	vertrauen	kuss	vergnügt	sterben	gierig	bange	versagen	krise	verbissen	1	blank2r.bmp	0	1	+	0	1	blank2r.bmp	500	1	CPLW	500	1	blank2r.bmp	880	3	engagiert	880	0	0	0	0	0	0	0	0	0	0	0	0
2024-06-12	10:07:11	10:09:58	165294	6.6.1	4_exp_EVA_AWA_CON	81	A	B	Rpleas_acq	Same	Rpleas	1pleas	acq_new_unple_nomask	acq1_nomask	1	11	0	0	300	300	0	0	834	46	1	0	träumen	anregung	engagiert	kreativ	gesittet	genießen	töten	ausrottung	engstirnig	krank	geizig	gemein	sonnig	gütig	besonnen	vertrauen	kuss	vergnügt	sterben	gierig	bange	versagen	krise	verbissen	1	blank2r.bmp	0	1	+	0	1	blank2r.bmp	500	6	C2r.bmp	500	1	blank2r.bmp	880	4	versagen	880	0	0	0	0	0	0	0	0	0	0	0	0
2024-06-12	10:07:11	10:10:02	169894	6.6.1	4_exp_EVA_AWA_CON	81	A	B	Rpleas_acq	Same	Rpleas	1pleas	acq_US_pleas_nomask	acq1_nomask	1	12	0	0	300	300	0	0	3113	50	1	0	träumen	anregung	engagiert	kreativ	gesittet	genießen	töten	ausrottung	engstirnig	krank	geizig	gemein	sonnig	gütig	besonnen	vertrauen	kuss	vergnügt	sterben	gierig	bange	versagen	krise	verbissen	1	blank2r.bmp	0	1	+	0	1	blank2r.bmp	500	1	CPLW	500	1	blank2r.bmp	880	5	gesittet	880	0	0	0	0	0	0	0	0	0	0	0	0
2024-06-12	10:07:11	10:10:06	173270	6.6.1	4_exp_EVA_AWA_CON	81	A	B	Rpleas_acq	Same	Rpleas	1pleas	acq_US_unple_nomask	acq1_nomask	1	13	0	0	300	300	0	0	1886	46	1	0	träumen	anregung	engagiert	kreativ	gesittet	genießen	töten	ausrottung	engstirnig	krank	geizig	gemein	sonnig	gütig	besonnen	vertrauen	kuss	vergnügt	sterben	gierig	bange	versagen	krise	verbissen	1	blank2r.bmp	0	1	+	0	1	blank2r.bmp	500	1	DHJF	500	1	blank2r.bmp	880	1	töten	880	0	0	0	0	0	0	0	0	0	0	0	0
2024-06-12	10:07:11	10:10:08	175726	6.6.1	4_exp_EVA_AWA_CON	81	A	B	Rpleas_acq	Same	Rpleas	1pleas	acq_US_pleas_nomask	acq1_nomask	1	14	0	0	300	300	0	0	970	50	1	0	träumen	anregung	engagiert	kreativ	gesittet	genießen	töten	ausrottung	engstirnig	krank	geizig	gemein	sonnig	gütig	besonnen	vertrauen	kuss	vergnügt	sterben	gierig	bange	versagen	krise	verbissen	1	blank2r.bmp	0	1	+	0	1	blank2r.bmp	500	1	CPLW	500	1	blank2r.bmp	880	1	träumen	880	0	0	0	0	0	0	0	0	0	0	0	0
2024-06-12	10:07:11	10:10:10	178022	6.6.1	4_exp_EVA_AWA_CON	81	A	B	Rpleas_acq	Same	Rpleas	1pleas	acq_new_pleas_nomask	acq1_nomask	1	15	0	0	300	300	0	0	814	50	1	0	träumen	anregung	engagiert	kreativ	gesittet	genießen	töten	ausrottung	engstirnig	krank	geizig	gemein	sonnig	gütig	besonnen	vertrauen	kuss	vergnügt	sterben	gierig	bange	versagen	krise	verbissen	1	blank2r.bmp	0	1	+	0	1	blank2r.bmp	500	4	B4r.bmp	500	1	blank2r.bmp	880	3	besonnen	880	0	0	0	0	0	0	0	0	0	0	0	0
2024-06-12	10:07:11	10:10:13	180214	6.6.1	4_exp_EVA_AWA_CON	81	A	B	Rpleas_acq	Same	Rpleas	1pleas	acq_new_pleas_nomask	acq1_nomask	1	16	0	0	300	300	0	0	705	50	1	0	träumen	anregung	engagiert	kreativ	gesittet	genießen	töten	ausrottung	engstirnig	krank	geizig	gemein	sonnig	gütig	besonnen	vertrauen	kuss	vergnügt	sterben	gierig	bange	versagen	krise	verbissen	1	blank2r.bmp	0	1	+	0	1	blank2r.bmp	500	3	B3r.bmp	500	1	blank2r.bmp	880	1	sonnig	880	0	0	0	0	0	0	0	0	0	0	0	0
2024-06-12	10:07:11	10:10:15	182638	6.6.1	4_exp_EVA_AWA_CON	81	A	B	Rpleas_acq	Same	Rpleas	1pleas	acq_new_unple_nomask	acq1_nomask	1	17	0	0	300	300	0	0	937	46	1	0	träumen	anregung	engagiert	kreativ	gesittet	genießen	töten	ausrottung	engstirnig	krank	geizig	gemein	sonnig	gütig	besonnen	vertrauen	kuss	vergnügt	sterben	gierig	bange	versagen	krise	verbissen	1	blank2r.bmp	0	1	+	0	1	blank2r.bmp	500	6	C2r.bmp	500	1	blank2r.bmp	880	2	gierig	880	0	0	0	0	0	0	0	0	0	0	0	0
2024-06-12	10:07:11	10:10:17	185014	6.6.1	4_exp_EVA_AWA_CON	81	A	B	Rpleas_acq	Same	Rpleas	1pleas	acq_new_unple_nomask	acq1_nomask	1	18	0	0	300	300	0	0	892	46	1	0	träumen	anregung	engagiert	kreativ	gesittet	genießen	töten	ausrottung	engstirnig	krank	geizig	gemein	sonnig	gütig	besonnen	vertrauen	kuss	vergnügt	sterben	gierig	bange	versagen	krise	verbissen	1	blank2r.bmp	0	1	+	0	1	blank2r.bmp	500	2	B2r.bmp	500	1	blank2r.bmp	880	5	krise	880	0	0	0	0	0	0	0	0	0	0	0	0
2024-06-12	10:07:11	10:10:19	187166	6.6.1	4_exp_EVA_AWA_CON	81	A	B	Rpleas_acq	Same	Rpleas	1pleas	acq_new_unple_nomask	acq1_nomask	1	19	0	0	300	300	0	0	672	46	1	0	träumen	anregung	engagiert	kreativ	gesittet	genießen	töten	ausrottung	engstirnig	krank	geizig	gemein	sonnig	gütig	besonnen	vertrauen	kuss	vergnügt	sterben	gierig	bange	versagen	krise	verbissen	1	blank2r.bmp	0	1	+	0	1	blank2r.bmp	500	3	B3r.bmp	500	1	blank2r.bmp	880	3	bange	880	0	0	0	0	0	0	0	0	0	0	0	0
2024-06-12	10:07:11	10:10:22	189334	6.6.1	4_exp_EVA_AWA_CON	81	A	B	Rpleas_acq	Same	Rpleas	1pleas	acq_new_pleas_nomask	acq1_nomask	1	20	0	0	300	300	0	0	679	50	1	0	träumen	anregung	engagiert	kreativ	gesittet	genießen	töten	ausrottung	engstirnig	krank	geizig	gemein	sonnig	gütig	besonnen	vertrauen	kuss	vergnügt	sterben	gierig	bange	versagen	krise	verbissen	1	blank2r.bmp	0	1	+	0	1	blank2r.bmp	500	7	C3r.bmp	500	1	blank2r.bmp	880	4	vertrauen	880	0	0	0	0	0	0	0	0	0	0	0	0
2024-06-12	10:07:11	10:10:24	191454	6.6.1	4_exp_EVA_AWA_CON	81	A	B	Rpleas_acq	Same	Rpleas	1pleas	acq_US_pleas_nomask	acq1_nomask	1	21	0	0	300	300	0	0	637	50	1	0	träumen	anregung	engagiert	kreativ	gesittet	genießen	töten	ausrottung	engstirnig	krank	geizig	gemein	sonnig	gütig	besonnen	vertrauen	kuss	vergnügt	sterben	gierig	bange	versagen	krise	verbissen	1	blank2r.bmp	0	1	+	0	1	blank2r.bmp	500	1	CPLW	500	1	blank2r.bmp	880	6	genießen	880	0	0	0	0	0	0	0	0	0	0	0	0
2024-06-12	10:07:11	10:10:26	193639	6.6.1	4_exp_EVA_AWA_CON	81	A	B	Rpleas_acq	Same	Rpleas	1pleas	acq_US_unple_nomask	acq1_nomask	1	22	0	0	300	300	0	0	700	46	1	0	träumen	anregung	engagiert	kreativ	gesittet	genießen	töten	ausrottung	engstirnig	krank	geizig	gemein	sonnig	gütig	besonnen	vertrauen	kuss	vergnügt	sterben	gierig	bange	versagen	krise	verbissen	1	blank2r.bmp	0	1	+	0	1	blank2r.bmp	500	1	DHJF	500	1	blank2r.bmp	880	4	krank	880	0	0	0	0	0	0	0	0	0	0	0	0
2024-06-12	10:07:11	10:10:28	195855	6.6.1	4_exp_EVA_AWA_CON	81	A	B	Rpleas_acq	Same	Rpleas	1pleas	acq_US_pleas_nomask	acq1_nomask	1	23	0	0	300	300	0	0	735	50	1	0	träumen	anregung	engagiert	kreativ	gesittet	genießen	töten	ausrottung	engstirnig	krank	geizig	gemein	sonnig	gütig	besonnen	vertrauen	kuss	vergnügt	sterben	gierig	bange	versagen	krise	verbissen	1	blank2r.bmp	0	1	+	0	1	blank2r.bmp	500	1	CPLW	500	1	blank2r.bmp	880	2	anregung	880	0	0	0	0	0	0	0	0	0	0	0	0
2024-06-12	10:07:11	10:10:30	197950	6.6.1	4_exp_EVA_AWA_CON	81	A	B	Rpleas_acq	Same	Rpleas	1pleas	acq_US_unple_nomask	acq1_nomask	1	24	0	0	300	300	0	0	609	46	1	0	träumen	anregung	engagiert	kreativ	gesittet	genießen	töten	ausrottung	engstirnig	krank	geizig	gemein	sonnig	gütig	besonnen	vertrauen	kuss	vergnügt	sterben	gierig	bange	versagen	krise	verbissen	1	blank2r.bmp	0	1	+	0	1	blank2r.bmp	500	1	DHJF	500	1	blank2r.bmp	880	6	gemein	880	0	0	0	0	0	0	0	0	0	0	0	0
2024-06-12	10:07:11	10:10:32	200078	6.6.1	4_exp_EVA_AWA_CON	81	A	B	Rpleas_acq	Same	Rpleas	1pleas	acq_US_unple_nomask	acq1_nomask	1	25	0	0	300	300	0	0	646	46	1	0	träumen	anregung	engagiert	kreativ	gesittet	genießen	töten	ausrottung	engstirnig	krank	geizig	gemein	sonnig	gütig	besonnen	vertrauen	kuss	vergnügt	sterben	gierig	bange	versagen	krise	verbissen	1	blank2r.bmp	0	1	+	0	1	blank2r.bmp	500	1	DHJF	500	1	blank2r.bmp	880	5	geizig	880	0	0	0	0	0	0	0	0	0	0	0	0
2024-06-12	10:07:11	10:10:34	202078	6.6.1	4_exp_EVA_AWA_CON	81	A	B	Rpleas_acq	Same	Rpleas	1pleas	acq_US_unple_nomask	acq1_nomask	1	26	0	0	300	300	0	0	514	46	1	0	träumen	anregung	engagiert	kreativ	gesittet	genießen	töten	ausrottung	engstirnig	krank	geizig	gemein	sonnig	gütig	besonnen	vertrauen	kuss	vergnügt	sterben	gierig	bange	versagen	krise	verbissen	1	blank2r.bmp	0	1	+	0	1	blank2r.bmp	500	1	DHJF	500	1	blank2r.bmp	880	6	gemein	880	0	0	0	0	0	0	0	0	0	0	0	0
2024-06-12	10:07:11	10:10:36	204167	6.6.1	4_exp_EVA_AWA_CON	81	A	B	Rpleas_acq	Same	Rpleas	1pleas	acq_US_unple_nomask	acq1_nomask	1	27	0	0	300	300	0	0	601	46	1	0	träumen	anregung	engagiert	kreativ	gesittet	genießen	töten	ausrottung	engstirnig	krank	geizig	gemein	sonnig	gütig	besonnen	vertrauen	kuss	vergnügt	sterben	gierig	bange	versagen	krise	verbissen	1	blank2r.bmp	0	1	+	0	1	blank2r.bmp	500	1	DHJF	500	1	blank2r.bmp	880	2	ausrottung	880	0	0	0	0	0	0	0	0	0	0	0	0
2024-06-12	10:07:11	10:10:39	206247	6.6.1	4_exp_EVA_AWA_CON	81	A	B	Rpleas_acq	Same	Rpleas	1pleas	acq_new_unple_nomask	acq1_nomask	1	28	0	0	300	300	0	0	600	46	1	0	träumen	anregung	engagiert	kreativ	gesittet	genießen	töten	ausrottung	engstirnig	krank	geizig	gemein	sonnig	gütig	besonnen	vertrauen	kuss	vergnügt	sterben	gierig	bange	versagen	krise	verbissen	1	blank2r.bmp	0	1	+	0	1	blank2r.bmp	500	1	B1r.bmp	500	1	blank2r.bmp	880	1	sterben	880	0	0	0	0	0	0	0	0	0	0	0	0
2024-06-12	10:07:11	10:10:41	208319	6.6.1	4_exp_EVA_AWA_CON	81	A	B	Rpleas_acq	Same	Rpleas	1pleas	acq_new_unple_nomask	acq1_nomask	1	29	0	0	300	300	0	0	591	46	1	0	träumen	anregung	engagiert	kreativ	gesittet	genießen	töten	ausrottung	engstirnig	krank	geizig	gemein	sonnig	gütig	besonnen	vertrauen	kuss	vergnügt	sterben	gierig	bange	versagen	krise	verbissen	1	blank2r.bmp	0	1	+	0	1	blank2r.bmp	500	5	C1r.bmp	500	1	blank2r.bmp	880	2	gierig	880	0	0	0	0	0	0	0	0	0	0	0	0
2024-06-12	10:07:11	10:10:43	210262	6.6.1	4_exp_EVA_AWA_CON	81	A	B	Rpleas_acq	Same	Rpleas	1pleas	acq_new_unple_nomask	acq1_nomask	1	30	0	0	300	300	0	0	463	46	1	0	träumen	anregung	engagiert	kreativ	gesittet	genießen	töten	ausrottung	engstirnig	krank	geizig	gemein	sonnig	gütig	besonnen	vertrauen	kuss	vergnügt	sterben	gierig	bange	versagen	krise	verbissen	1	blank2r.bmp	0	1	+	0	1	blank2r.bmp	500	4	B4r.bmp	500	1	blank2r.bmp	880	6	verbissen	880	0	0	0	0	0	0	0	0	0	0	0	0
2024-06-12	10:07:11	10:10:45	212351	6.6.1	4_exp_EVA_AWA_CON	81	A	B	Rpleas_acq	Same	Rpleas	1pleas	acq_new_pleas_nomask	acq1_nomask	1	31	0	0	300	300	0	0	600	50	1	0	träumen	anregung	engagiert	kreativ	gesittet	genießen	töten	ausrottung	engstirnig	krank	geizig	gemein	sonnig	gütig	besonnen	vertrauen	kuss	vergnügt	sterben	gierig	bange	versagen	krise	verbissen	1	blank2r.bmp	0	1	+	0	1	blank2r.bmp	500	8	C4r.bmp	500	1	blank2r.bmp	880	5	kuss	880	0	0	0	0	0	0	0	0	0	0	0	0
2024-06-12	10:07:11	10:10:47	214552	6.6.1	4_exp_EVA_AWA_CON	81	A	B	Rpleas_acq	Same	Rpleas	1pleas	acq_US_pleas_nomask	acq1_nomask	1	32	0	0	300	300	0	0	519	46	0	0	träumen	anregung	engagiert	kreativ	gesittet	genießen	töten	ausrottung	engstirnig	krank	geizig	gemein	sonnig	gütig	besonnen	vertrauen	kuss	vergnügt	sterben	gierig	bange	versagen	krise	verbissen	1	blank2r.bmp	0	1	+	0	1	blank2r.bmp	500	1	CPLW	500	1	blank2r.bmp	880	5	gesittet	880	1	FEHLER	1420	0	0	0	0	0	0	0	0	0
2024-06-12	10:07:11	10:10:49	216719	6.6.1	4_exp_EVA_AWA_CON	81	A	B	Rpleas_acq	Same	Rpleas	1pleas	acq_US_pleas_nomask	acq1_nomask	1	33	0	0	300	300	0	0	885	50	1	0	träumen	anregung	engagiert	kreativ	gesittet	genießen	töten	ausrottung	engstirnig	krank	geizig	gemein	sonnig	gütig	besonnen	vertrauen	kuss	vergnügt	sterben	gierig	bange	versagen	krise	verbissen	1	blank2r.bmp	0	1	+	0	1	blank2r.bmp	500	1	CPLW	500	1	blank2r.bmp	880	4	kreativ	880	0	0	0	0	0	0	0	0	0	0	0	0
2024-06-12	10:07:11	10:10:51	219095	6.6.1	4_exp_EVA_AWA_CON	81	A	B	Rpleas_acq	Same	Rpleas	1pleas	acq_new_pleas_nomask	acq1_nomask	1	34	0	0	300	300	0	0	890	50	1	0	träumen	anregung	engagiert	kreativ	gesittet	genießen	töten	ausrottung	engstirnig	krank	geizig	gemein	sonnig	gütig	besonnen	vertrauen	kuss	vergnügt	sterben	gierig	bange	versagen	krise	verbissen	1	blank2r.bmp	0	1	+	0	1	blank2r.bmp	500	1	B1r.bmp	500	1	blank2r.bmp	880	4	vertrauen	880	0	0	0	0	0	0	0	0	0	0	0	0
2024-06-12	10:07:11	10:10:54	221327	6.6.1	4_exp_EVA_AWA_CON	81	A	B	Rpleas_acq	Same	Rpleas	1pleas	acq_US_pleas_nomask	acq1_nomask	1	35	0	0	300	300	0	0	750	50	1	0	träumen	anregung	engagiert	kreativ	gesittet	genießen	töten	ausrottung	engstirnig	krank	geizig	gemein	sonnig	gütig	besonnen	vertrauen	kuss	vergnügt	sterben	gierig	bange	versagen	krise	verbissen	1	blank2r.bmp	0	1	+	0	1	blank2r.bmp	500	1	CPLW	500	1	blank2r.bmp	880	6	genießen	880	0	0	0	0	0	0	0	0	0	0	0	0
2024-06-12	10:07:11	10:10:56	223406	6.6.1	4_exp_EVA_AWA_CON	81	A	B	Rpleas_acq	Same	Rpleas	1pleas	acq_new_pleas_nomask	acq1_nomask	1	36	0	0	300	300	0	0	599	50	1	0	träumen	anregung	engagiert	kreativ	gesittet	genießen	töten	ausrottung	engstirnig	krank	geizig	gemein	sonnig	gütig	besonnen	vertrauen	kuss	vergnügt	sterben	gierig	bange	versagen	krise	verbissen	1	blank2r.bmp	0	1	+	0	1	blank2r.bmp	500	2	B2r.bmp	500	1	blank2r.bmp	880	2	gütig	880	0	0	0	0	0	0	0	0	0	0	0	0
2024-06-12	10:07:11	10:11:43	270344	6.6.1	4_exp_EVA_AWA_CON	81	A	B	Rpleas_acq	Same	Rpleas	1pleas	acq_new_unple_nomask	acq2_nomask	2	1	480	0	300	300	0	0	1057	46	1	0	träumen	anregung	engagiert	kreativ	gesittet	genießen	töten	ausrottung	engstirnig	krank	geizig	gemein	sonnig	gütig	besonnen	vertrauen	kuss	vergnügt	sterben	gierig	bange	versagen	krise	verbissen	1	blank2r.bmp	0	1	+	0	1	blank2r.bmp	500	6	C2r.bmp	500	1	blank2r.bmp	880	5	krise	880	1	!	1313	1	!	-1	0	0	0	0	0	0
2024-06-12	10:07:11	10:11:45	272896	6.6.1	4_exp_EVA_AWA_CON	81	A	B	Rpleas_acq	Same	Rpleas	1pleas	acq_new_pleas_nomask	acq2_nomask	2	2	480	0	300	300	0	0	777	50	1	0	träumen	anregung	engagiert	kreativ	gesittet	genießen	töten	ausrottung	engstirnig	krank	geizig	gemein	sonnig	gütig	besonnen	vertrauen	kuss	vergnügt	sterben	gierig	bange	versagen	krise	verbissen	1	blank2r.bmp	0	1	+	0	1	blank2r.bmp	500	8	C4r.bmp	500	1	blank2r.bmp	880	6	vergnügt	880	1	!	1313	1	!	-1	0	0	0	0	0	0
2024-06-12	10:07:11	10:11:48	275248	6.6.1	4_exp_EVA_AWA_CON	81	A	B	Rpleas_acq	Same	Rpleas	1pleas	acq_US_unple_nomask	acq2_nomask	2	3	480	0	300	300	0	0	578	46	1	0	träumen	anregung	engagiert	kreativ	gesittet	genießen	töten	ausrottung	engstirnig	krank	geizig	gemein	sonnig	gütig	besonnen	vertrauen	kuss	vergnügt	sterben	gierig	bange	versagen	krise	verbissen	1	blank2r.bmp	0	1	+	0	1	blank2r.bmp	500	1	DHJF	500	1	blank2r.bmp	880	4	krank	880	1	!	1313	1	!	-1	0	0	0	0	0	0
2024-06-12	10:07:11	10:11:50	277693	6.6.1	4_exp_EVA_AWA_CON	81	A	B	Rpleas_acq	Same	Rpleas	1pleas	acq_US_pleas_nomask	acq2_nomask	2	4	480	1	300	300	0	0	466	46	0	0	träumen	anregung	engagiert	kreativ	gesittet	genießen	töten	ausrottung	engstirnig	krank	geizig	gemein	sonnig	gütig	besonnen	vertrauen	kuss	vergnügt	sterben	gierig	bange	versagen	krise	verbissen	1	blank2r.bmp	0	1	+	0	1	blank2r.bmp	500	1	CPLW	500	1	blank2r.bmp	880	3	engagiert	880	1	FEHLER	1660	1	!	1313	1	!	1368	0	0	0
2024-06-12	10:07:11	10:11:52	279815	6.6.1	4_exp_EVA_AWA_CON	81	A	B	Rpleas_acq	Same	Rpleas	1pleas	acq_new_pleas_nomask	acq2_nomask	2	5	480	0	300	300	0	0	554	50	1	0	träumen	anregung	engagiert	kreativ	gesittet	genießen	töten	ausrottung	engstirnig	krank	geizig	gemein	sonnig	gütig	besonnen	vertrauen	kuss	vergnügt	sterben	gierig	bange	versagen	krise	verbissen	1	blank2r.bmp	0	1	+	0	1	blank2r.bmp	500	7	C3r.bmp	500	1	blank2r.bmp	880	1	sonnig	880	1	!	1313	1	!	-1	0	0	0	0	0	0
2024-06-12	10:07:11	10:11:55	282336	6.6.1	4_exp_EVA_AWA_CON	81	A	B	Rpleas_acq	Same	Rpleas	1pleas	acq_US_pleas_nomask	acq2_nomask	2	6	480	0	300	300	0	0	741	50	1	0	träumen	anregung	engagiert	kreativ	gesittet	genießen	töten	ausrottung	engstirnig	krank	geizig	gemein	sonnig	gütig	besonnen	vertrauen	kuss	vergnügt	sterben	gierig	bange	versagen	krise	verbissen	1	blank2r.bmp	0	1	+	0	1	blank2r.bmp	500	1	CPLW	500	1	blank2r.bmp	880	1	träumen	880	1	!	1313	1	!	-1	0	0	0	0	0	0
2024-06-12	10:07:11	10:11:57	284748	6.6.1	4_exp_EVA_AWA_CON	81	A	B	Rpleas_acq	Same	Rpleas	1pleas	acq_US_unple_nomask	acq2_nomask	2	7	480	1	300	300	0	0	428	50	0	0	träumen	anregung	engagiert	kreativ	gesittet	genießen	töten	ausrottung	engstirnig	krank	geizig	gemein	sonnig	gütig	besonnen	vertrauen	kuss	vergnügt	sterben	gierig	bange	versagen	krise	verbissen	1	blank2r.bmp	0	1	+	0	1	blank2r.bmp	500	1	DHJF	500	1	blank2r.bmp	880	3	engstirnig	880	1	FEHLER	1621	1	!	1313	1	!	1329	0	0	0
2024-06-12	10:07:11	10:11:59	286851	6.6.1	4_exp_EVA_AWA_CON	81	A	B	Rpleas_acq	Same	Rpleas	1pleas	acq_US_unple_nomask	acq2_nomask	2	8	480	1	300	300	0	0	520	46	1	0	träumen	anregung	engagiert	kreativ	gesittet	genießen	töten	ausrottung	engstirnig	krank	geizig	gemein	sonnig	gütig	besonnen	vertrauen	kuss	vergnügt	sterben	gierig	bange	versagen	krise	verbissen	1	blank2r.bmp	0	1	+	0	1	blank2r.bmp	500	1	DHJF	500	1	blank2r.bmp	880	1	töten	880	1	!	1313	1	!	1422	0	0	0	0	0	0
2024-06-12	10:07:11	10:12:01	289171	6.6.1	4_exp_EVA_AWA_CON	81	A	B	Rpleas_acq	Same	Rpleas	1pleas	acq_new_unple_nomask	acq2_nomask	2	9	480	1	300	300	0	0	539	46	1	0	träumen	anregung	engagiert	kreativ	gesittet	genießen	töten	ausrottung	engstirnig	krank	geizig	gemein	sonnig	gütig	besonnen	vertrauen	kuss	vergnügt	sterben	gierig	bange	versagen	krise	verbissen	1	blank2r.bmp	0	1	+	0	1	blank2r.bmp	500	4	B4r.bmp	500	1	blank2r.bmp	880	4	versagen	880	1	!	1313	1	!	1440	0	0	0	0	0	0
2024-06-12	10:07:11	10:12:04	291450	6.6.1	4_exp_EVA_AWA_CON	81	A	B	Rpleas_acq	Same	Rpleas	1pleas	acq_new_pleas_nomask	acq2_nomask	2	10	480	1	300	300	0	0	497	50	1	0	träumen	anregung	engagiert	kreativ	gesittet	genießen	töten	ausrottung	engstirnig	krank	geizig	gemein	sonnig	gütig	besonnen	vertrauen	kuss	vergnügt	sterben	gierig	bange	versagen	krise	verbissen	1	blank2r.bmp	0	1	+	0	1	blank2r.bmp	500	5	C1r.bmp	500	1	blank2r.bmp	880	3	besonnen	880	1	!	1313	1	!	1399	0	0	0	0	0	0
2024-06-12	10:07:11	10:12:06	293675	6.6.1	4_exp_EVA_AWA_CON	81	A	B	Rpleas_acq	Same	Rpleas	1pleas	acq_new_unple_nomask	acq2_nomask	2	11	480	1	300	300	0	0	450	46	1	0	träumen	anregung	engagiert	kreativ	gesittet	genießen	töten	ausrottung	engstirnig	krank	geizig	gemein	sonnig	gütig	besonnen	vertrauen	kuss	vergnügt	sterben	gierig	bange	versagen	krise	verbissen	1	blank2r.bmp	0	1	+	0	1	blank2r.bmp	500	3	B3r.bmp	500	1	blank2r.bmp	880	3	bange	880	1	!	1313	1	!	1352	0	0	0	0	0	0
2024-06-12	10:07:11	10:12:09	296436	6.6.1	4_exp_EVA_AWA_CON	81	A	B	Rpleas_acq	Same	Rpleas	1pleas	acq_US_pleas_nomask	acq2_nomask	2	12	480	0	300	300	0	0	779	46	0	0	träumen	anregung	engagiert	kreativ	gesittet	genießen	töten	ausrottung	engstirnig	krank	geizig	gemein	sonnig	gütig	besonnen	vertrauen	kuss	vergnügt	sterben	gierig	bange	versagen	krise	verbissen	1	blank2r.bmp	0	1	+	0	1	blank2r.bmp	500	1	CPLW	500	1	blank2r.bmp	880	2	anregung	880	1	FEHLER	1972	1	!	1313	1	!	-1	0	0	0
2024-06-12	10:07:11	10:12:11	298601	6.6.1	4_exp_EVA_AWA_CON	81	A	B	Rpleas_acq	Same	Rpleas	1pleas	acq_new_unple_nomask	acq2_nomask	2	13	480	0	300	300	0	0	595	46	1	0	träumen	anregung	engagiert	kreativ	gesittet	genießen	töten	ausrottung	engstirnig	krank	geizig	gemein	sonnig	gütig	besonnen	vertrauen	kuss	vergnügt	sterben	gierig	bange	versagen	krise	verbissen	1	blank2r.bmp	0	1	+	0	1	blank2r.bmp	500	2	B2r.bmp	500	1	blank2r.bmp	880	3	bange	880	1	!	1313	1	!	-1	0	0	0	0	0	0
2024-06-12	10:07:11	10:12:13	300922	6.6.1	4_exp_EVA_AWA_CON	81	A	B	Rpleas_acq	Same	Rpleas	1pleas	acq_new_pleas_nomask	acq2_nomask	2	14	480	1	300	300	0	0	543	50	1	0	träumen	anregung	engagiert	kreativ	gesittet	genießen	töten	ausrottung	engstirnig	krank	geizig	gemein	sonnig	gütig	besonnen	vertrauen	kuss	vergnügt	sterben	gierig	bange	versagen	krise	verbissen	1	blank2r.bmp	0	1	+	0	1	blank2r.bmp	500	4	B4r.bmp	500	1	blank2r.bmp	880	3	besonnen	880	1	!	1313	1	!	1445	0	0	0	0	0	0
2024-06-12	10:07:11	10:12:16	303226	6.6.1	4_exp_EVA_AWA_CON	81	A	B	Rpleas_acq	Same	Rpleas	1pleas	acq_US_unple_nomask	acq2_nomask	2	15	480	1	300	300	0	0	526	46	1	0	träumen	anregung	engagiert	kreativ	gesittet	genießen	töten	ausrottung	engstirnig	krank	geizig	gemein	sonnig	gütig	besonnen	vertrauen	kuss	vergnügt	sterben	gierig	bange	versagen	krise	verbissen	1	blank2r.bmp	0	1	+	0	1	blank2r.bmp	500	1	DHJF	500	1	blank2r.bmp	880	6	gemein	880	1	!	1313	1	!	1427	0	0	0	0	0	0
2024-06-12	10:07:11	10:12:18	305618	6.6.1	4_exp_EVA_AWA_CON	81	A	B	Rpleas_acq	Same	Rpleas	1pleas	acq_new_unple_nomask	acq2_nomask	2	16	480	1	300	300	0	0	416	50	0	0	träumen	anregung	engagiert	kreativ	gesittet	genießen	töten	ausrottung	engstirnig	krank	geizig	gemein	sonnig	gütig	besonnen	vertrauen	kuss	vergnügt	sterben	gierig	bange	versagen	krise	verbissen	1	blank2r.bmp	0	1	+	0	1	blank2r.bmp	500	6	C2r.bmp	500	1	blank2r.bmp	880	2	gierig	880	1	FEHLER	1608	1	!	1313	1	!	1316	0	0	0
2024-06-12	10:07:11	10:12:20	307576	6.6.1	4_exp_EVA_AWA_CON	81	A	B	Rpleas_acq	Same	Rpleas	1pleas	acq_new_pleas_nomask	acq2_nomask	2	17	480	0	300	300	0	0	385	50	1	0	träumen	anregung	engagiert	kreativ	gesittet	genießen	töten	ausrottung	engstirnig	krank	geizig	gemein	sonnig	gütig	besonnen	vertrauen	kuss	vergnügt	sterben	gierig	bange	versagen	krise	verbissen	1	blank2r.bmp	0	1	+	0	1	blank2r.bmp	500	7	C3r.bmp	500	1	blank2r.bmp	880	4	vertrauen	880	1	!	-1	1	!	-1	0	0	0	0	0	0
2024-06-12	10:07:11	10:12:22	309960	6.6.1	4_exp_EVA_AWA_CON	81	A	B	Rpleas_acq	Same	Rpleas	1pleas	acq_new_unple_nomask	acq2_nomask	2	18	480	0	300	300	0	0	608	46	1	0	träumen	anregung	engagiert	kreativ	gesittet	genießen	töten	ausrottung	engstirnig	krank	geizig	gemein	sonnig	gütig	besonnen	vertrauen	kuss	vergnügt	sterben	gierig	bange	versagen	krise	verbissen	1	blank2r.bmp	0	1	+	0	1	blank2r.bmp	500	5	C1r.bmp	500	1	blank2r.bmp	880	1	sterben	880	1	!	1313	1	!	-1	0	0	0	0	0	0
2024-06-12	10:07:11	10:12:25	312419	6.6.1	4_exp_EVA_AWA_CON	81	A	B	Rpleas_acq	Same	Rpleas	1pleas	acq_US_pleas_nomask	acq2_nomask	2	19	480	1	300	300	0	0	482	46	0	0	träumen	anregung	engagiert	kreativ	gesittet	genießen	töten	ausrottung	engstirnig	krank	geizig	gemein	sonnig	gütig	besonnen	vertrauen	kuss	vergnügt	sterben	gierig	bange	versagen	krise	verbissen	1	blank2r.bmp	0	1	+	0	1	blank2r.bmp	500	1	CPLW	500	1	blank2r.bmp	880	3	engagiert	880	1	FEHLER	1675	1	!	1312	1	!	1383	0	0	0
2024-06-12	10:07:11	10:12:27	314514	6.6.1	4_exp_EVA_AWA_CON	81	A	B	Rpleas_acq	Same	Rpleas	1pleas	acq_new_pleas_nomask	acq2_nomask	2	20	480	1	300	300	0	0	517	50	1	0	träumen	anregung	engagiert	kreativ	gesittet	genießen	töten	ausrottung	engstirnig	krank	geizig	gemein	sonnig	gütig	besonnen	vertrauen	kuss	vergnügt	sterben	gierig	bange	versagen	krise	verbissen	1	blank2r.bmp	0	1	+	0	1	blank2r.bmp	500	1	B1r.bmp	500	1	blank2r.bmp	880	5	kuss	880	1	!	1313	1	!	1418	0	0	0	0	0	0
2024-06-12	10:07:11	10:12:29	316664	6.6.1	4_exp_EVA_AWA_CON	81	A	B	Rpleas_acq	Same	Rpleas	1pleas	acq_US_unple_nomask	acq2_nomask	2	21	480	0	300	300	0	0	377	46	1	0	träumen	anregung	engagiert	kreativ	gesittet	genießen	töten	ausrottung	engstirnig	krank	geizig	gemein	sonnig	gütig	besonnen	vertrauen	kuss	vergnügt	sterben	gierig	bange	versagen	krise	verbissen	1	blank2r.bmp	0	1	+	0	1	blank2r.bmp	500	1	DHJF	500	1	blank2r.bmp	880	1	töten	880	1	!	-1	1	!	-1	0	0	0	0	0	0
2024-06-12	10:07:11	10:12:31	319057	6.6.1	4_exp_EVA_AWA_CON	81	A	B	Rpleas_acq	Same	Rpleas	1pleas	acq_US_pleas_nomask	acq2_nomask	2	22	480	1	300	300	0	0	418	46	0	0	träumen	anregung	engagiert	kreativ	gesittet	genießen	töten	ausrottung	engstirnig	krank	geizig	gemein	sonnig	gütig	besonnen	vertrauen	kuss	vergnügt	sterben	gierig	bange	versagen	krise	verbissen	1	blank2r.bmp	0	1	+	0	1	blank2r.bmp	500	1	CPLW	500	1	blank2r.bmp	880	4	kreativ	880	1	FEHLER	1609	1	!	1313	1	!	1317	0	0	0
2024-06-12	10:07:11	10:12:46	333369	6.6.1	4_exp_EVA_AWA_CON	81	A	B	Rpleas_acq	Same	Rpleas	1pleas	acq_US_pleas_nomask	acq2_nomask	2	23	480	0	300	300	0	0	12738	50	1	0	träumen	anregung	engagiert	kreativ	gesittet	genießen	töten	ausrottung	engstirnig	krank	geizig	gemein	sonnig	gütig	besonnen	vertrauen	kuss	vergnügt	sterben	gierig	bange	versagen	krise	verbissen	1	blank2r.bmp	0	1	+	0	1	blank2r.bmp	500	1	CPLW	500	1	blank2r.bmp	880	1	träumen	880	1	!	1313	1	!	-1	0	0	0	0	0	0
2024-06-12	10:07:11	10:13:14	361637	6.6.1	4_exp_EVA_AWA_CON	81	A	B	Rpleas_acq	Same	Rpleas	1pleas	acq_US_unple_nomask	acq2_nomask	2	24	480	0	300	300	0	0	26283	50	0	0	träumen	anregung	engagiert	kreativ	gesittet	genießen	töten	ausrottung	engstirnig	krank	geizig	gemein	sonnig	gütig	besonnen	vertrauen	kuss	vergnügt	sterben	gierig	bange	versagen	krise	verbissen	1	blank2r.bmp	0	1	+	0	1	blank2r.bmp	500	1	DHJF	500	1	blank2r.bmp	880	3	engstirnig	880	1	FEHLER	27477	1	!	1313	1	!	-1	0	0	0
2024-06-12	10:07:11	10:13:16	363960	6.6.1	4_exp_EVA_AWA_CON	81	A	B	Rpleas_acq	Same	Rpleas	1pleas	acq_new_pleas_nomask	acq2_nomask	2	25	480	0	300	300	0	0	753	50	1	0	träumen	anregung	engagiert	kreativ	gesittet	genießen	töten	ausrottung	engstirnig	krank	geizig	gemein	sonnig	gütig	besonnen	vertrauen	kuss	vergnügt	sterben	gierig	bange	versagen	krise	verbissen	1	blank2r.bmp	0	1	+	0	1	blank2r.bmp	500	3	B3r.bmp	500	1	blank2r.bmp	880	2	gütig	880	1	!	1313	1	!	-1	0	0	0	0	0	0
2024-06-12	10:07:11	10:13:19	366178	6.6.1	4_exp_EVA_AWA_CON	81	A	B	Rpleas_acq	Same	Rpleas	1pleas	acq_US_pleas_nomask	acq2_nomask	2	26	480	1	300	300	0	0	437	50	1	0	träumen	anregung	engagiert	kreativ	gesittet	genießen	töten	ausrottung	engstirnig	krank	geizig	gemein	sonnig	gütig	besonnen	vertrauen	kuss	vergnügt	sterben	gierig	bange	versagen	krise	verbissen	1	blank2r.bmp	0	1	+	0	1	blank2r.bmp	500	1	CPLW	500	1	blank2r.bmp	880	6	genießen	880	1	!	1313	1	!	1339	0	0	0	0	0	0
2024-06-12	10:07:11	10:13:21	368443	6.6.1	4_exp_EVA_AWA_CON	81	A	B	Rpleas_acq	Same	Rpleas	1pleas	acq_US_pleas_nomask	acq2_nomask	2	27	480	1	300	300	0	0	480	50	1	0	träumen	anregung	engagiert	kreativ	gesittet	genießen	töten	ausrottung	engstirnig	krank	geizig	gemein	sonnig	gütig	besonnen	vertrauen	kuss	vergnügt	sterben	gierig	bange	versagen	krise	verbissen	1	blank2r.bmp	0	1	+	0	1	blank2r.bmp	500	1	CPLW	500	1	blank2r.bmp	880	5	gesittet	880	1	!	1313	1	!	1382	0	0	0	0	0	0
2024-06-12	10:07:11	10:13:23	370884	6.6.1	4_exp_EVA_AWA_CON	81	A	B	Rpleas_acq	Same	Rpleas	1pleas	acq_new_unple_nomask	acq2_nomask	2	28	480	1	300	300	0	0	459	50	0	0	träumen	anregung	engagiert	kreativ	gesittet	genießen	töten	ausrottung	engstirnig	krank	geizig	gemein	sonnig	gütig	besonnen	vertrauen	kuss	vergnügt	sterben	gierig	bange	versagen	krise	verbissen	1	blank2r.bmp	0	1	+	0	1	blank2r.bmp	500	8	C4r.bmp	500	1	blank2r.bmp	880	5	krise	880	1	FEHLER	1652	1	!	1313	1	!	1360	0	0	0
2024-06-12	10:07:11	10:13:25	373032	6.6.1	4_exp_EVA_AWA_CON	81	A	B	Rpleas_acq	Same	Rpleas	1pleas	acq_US_pleas_nomask	acq2_nomask	2	29	480	0	300	300	0	0	569	50	1	0	träumen	anregung	engagiert	kreativ	gesittet	genießen	töten	ausrottung	engstirnig	krank	geizig	gemein	sonnig	gütig	besonnen	vertrauen	kuss	vergnügt	sterben	gierig	bange	versagen	krise	verbissen	1	blank2r.bmp	0	1	+	0	1	blank2r.bmp	500	1	CPLW	500	1	blank2r.bmp	880	2	anregung	880	1	!	1313	1	!	-1	0	0	0	0	0	0
2024-06-12	10:07:11	10:13:28	375209	6.6.1	4_exp_EVA_AWA_CON	81	A	B	Rpleas_acq	Same	Rpleas	1pleas	acq_new_unple_nomask	acq2_nomask	2	30	480	0	300	300	0	0	404	46	1	0	träumen	anregung	engagiert	kreativ	gesittet	genießen	töten	ausrottung	engstirnig	krank	geizig	gemein	sonnig	gütig	besonnen	vertrauen	kuss	vergnügt	sterben	gierig	bange	versagen	krise	verbissen	1	blank2r.bmp	0	1	+	0	1	blank2r.bmp	500	3	B3r.bmp	500	1	blank2r.bmp	880	6	verbissen	880	1	!	-1	1	!	-1	0	0	0	0	0	0
2024-06-12	10:07:11	10:13:30	377490	6.6.1	4_exp_EVA_AWA_CON	81	A	B	Rpleas_acq	Same	Rpleas	1pleas	acq_US_unple_nomask	acq2_nomask	2	31	480	1	300	300	0	0	502	46	1	0	träumen	anregung	engagiert	kreativ	gesittet	genießen	töten	ausrottung	engstirnig	krank	geizig	gemein	sonnig	gütig	besonnen	vertrauen	kuss	vergnügt	sterben	gierig	bange	versagen	krise	verbissen	1	blank2r.bmp	0	1	+	0	1	blank2r.bmp	500	1	DHJF	500	1	blank2r.bmp	880	2	ausrottung	880	1	!	1313	1	!	1404	0	0	0	0	0	0
2024-06-12	10:07:11	10:13:32	379889	6.6.1	4_exp_EVA_AWA_CON	81	A	B	Rpleas_acq	Same	Rpleas	1pleas	acq_US_unple_nomask	acq2_nomask	2	32	480	0	300	300	0	0	621	46	1	0	träumen	anregung	engagiert	kreativ	gesittet	genießen	töten	ausrottung	engstirnig	krank	geizig	gemein	sonnig	gütig	besonnen	vertrauen	kuss	vergnügt	sterben	gierig	bange	versagen	krise	verbissen	1	blank2r.bmp	0	1	+	0	1	blank2r.bmp	500	1	DHJF	500	1	blank2r.bmp	880	5	geizig	880	1	!	1313	1	!	-1	0	0	0	0	0	0
2024-06-12	10:07:11	10:13:34	382154	6.6.1	4_exp_EVA_AWA_CON	81	A	B	Rpleas_acq	Same	Rpleas	1pleas	acq_new_unple_nomask	acq2_nomask	2	33	480	1	300	300	0	0	483	46	1	0	träumen	anregung	engagiert	kreativ	gesittet	genießen	töten	ausrottung	engstirnig	krank	geizig	gemein	sonnig	gütig	besonnen	vertrauen	kuss	vergnügt	sterben	gierig	bange	versagen	krise	verbissen	1	blank2r.bmp	0	1	+	0	1	blank2r.bmp	500	1	B1r.bmp	500	1	blank2r.bmp	880	4	versagen	880	1	!	1313	1	!	1385	0	0	0	0	0	0
2024-06-12	10:07:11	10:13:37	384664	6.6.1	4_exp_EVA_AWA_CON	81	A	B	Rpleas_acq	Same	Rpleas	1pleas	acq_new_pleas_nomask	acq2_nomask	2	34	480	0	300	300	0	0	734	50	1	0	träumen	anregung	engagiert	kreativ	gesittet	genießen	töten	ausrottung	engstirnig	krank	geizig	gemein	sonnig	gütig	besonnen	vertrauen	kuss	vergnügt	sterben	gierig	bange	versagen	krise	verbissen	1	blank2r.bmp	0	1	+	0	1	blank2r.bmp	500	7	C3r.bmp	500	1	blank2r.bmp	880	6	vergnügt	880	1	!	1313	1	!	-1	0	0	0	0	0	0
2024-06-12	10:07:11	10:13:39	387083	6.6.1	4_exp_EVA_AWA_CON	81	A	B	Rpleas_acq	Same	Rpleas	1pleas	acq_US_unple_nomask	acq2_nomask	2	35	480	1	300	300	0	0	438	50	0	0	träumen	anregung	engagiert	kreativ	gesittet	genießen	töten	ausrottung	engstirnig	krank	geizig	gemein	sonnig	gütig	besonnen	vertrauen	kuss	vergnügt	sterben	gierig	bange	versagen	krise	verbissen	1	blank2r.bmp	0	1	+	0	1	blank2r.bmp	500	1	DHJF	500	1	blank2r.bmp	880	4	krank	880	1	FEHLER	1631	1	!	1313	1	!	1339	0	0	0
2024-06-12	10:07:11	10:13:41	389138	6.6.1	4_exp_EVA_AWA_CON	81	A	B	Rpleas_acq	Same	Rpleas	1pleas	acq_new_pleas_nomask	acq2_nomask	2	36	480	1	300	300	0	0	473	50	1	0	träumen	anregung	engagiert	kreativ	gesittet	genießen	töten	ausrottung	engstirnig	krank	geizig	gemein	sonnig	gütig	besonnen	vertrauen	kuss	vergnügt	sterben	gierig	bange	versagen	krise	verbissen	1	blank2r.bmp	0	1	+	0	1	blank2r.bmp	500	5	C1r.bmp	500	1	blank2r.bmp	880	1	sonnig	880	1	!	1313	1	!	1374	0	0	0	0	0	0
2024-06-12	10:07:11	10:13:55	402776	6.6.1	4_exp_EVA_AWA_CON	81	A	B	Rpleas_acq	Same	Rpleas	1pleas	acq_US_pleas_nomask	acq3_nomask	3	1	453	0	300	300	0	0	714	50	1	0	träumen	anregung	engagiert	kreativ	gesittet	genießen	töten	ausrottung	engstirnig	krank	geizig	gemein	sonnig	gütig	besonnen	vertrauen	kuss	vergnügt	sterben	gierig	bange	versagen	krise	verbissen	1	blank2r.bmp	0	1	+	0	1	blank2r.bmp	500	1	CPLW	500	1	blank2r.bmp	880	4	kreativ	880	1	!	1293	1	!	-1	0	0	0	0	0	0
2024-06-12	10:07:11	10:13:58	405176	6.6.1	4_exp_EVA_AWA_CON	81	A	B	Rpleas_acq	Same	Rpleas	1pleas	acq_US_unple_nomask	acq3_nomask	3	2	453	0	300	300	0	0	623	46	1	0	träumen	anregung	engagiert	kreativ	gesittet	genießen	töten	ausrottung	engstirnig	krank	geizig	gemein	sonnig	gütig	besonnen	vertrauen	kuss	vergnügt	sterben	gierig	bange	versagen	krise	verbissen	1	blank2r.bmp	0	1	+	0	1	blank2r.bmp	500	1	DHJF	500	1	blank2r.bmp	880	1	töten	880	1	!	1293	1	!	-1	0	0	0	0	0	0
2024-06-12	10:07:11	10:14:00	407592	6.6.1	4_exp_EVA_AWA_CON	81	A	B	Rpleas_acq	Same	Rpleas	1pleas	acq_US_unple_nomask	acq3_nomask	3	3	453	0	300	300	0	0	637	46	1	0	träumen	anregung	engagiert	kreativ	gesittet	genießen	töten	ausrottung	engstirnig	krank	geizig	gemein	sonnig	gütig	besonnen	vertrauen	kuss	vergnügt	sterben	gierig	bange	versagen	krise	verbissen	1	blank2r.bmp	0	1	+	0	1	blank2r.bmp	500	1	DHJF	500	1	blank2r.bmp	880	6	gemein	880	1	!	1293	1	!	-1	0	0	0	0	0	0
2024-06-12	10:07:11	10:14:02	409866	6.6.1	4_exp_EVA_AWA_CON	81	A	B	Rpleas_acq	Same	Rpleas	1pleas	acq_US_unple_nomask	acq3_nomask	3	4	453	1	300	300	0	0	498	46	1	0	träumen	anregung	engagiert	kreativ	gesittet	genießen	töten	ausrottung	engstirnig	krank	geizig	gemein	sonnig	gütig	besonnen	vertrauen	kuss	vergnügt	sterben	gierig	bange	versagen	krise	verbissen	1	blank2r.bmp	0	1	+	0	1	blank2r.bmp	500	1	DHJF	500	1	blank2r.bmp	880	4	krank	880	1	!	1293	1	!	1399	0	0	0	0	0	0
2024-06-12	10:07:11	10:14:05	412220	6.6.1	4_exp_EVA_AWA_CON	81	A	B	Rpleas_acq	Same	Rpleas	1pleas	acq_US_pleas_nomask	acq3_nomask	3	5	453	0	300	300	0	0	378	46	0	0	träumen	anregung	engagiert	kreativ	gesittet	genießen	töten	ausrottung	engstirnig	krank	geizig	gemein	sonnig	gütig	besonnen	vertrauen	kuss	vergnügt	sterben	gierig	bange	versagen	krise	verbissen	1	blank2r.bmp	0	1	+	0	1	blank2r.bmp	500	1	CPLW	500	1	blank2r.bmp	880	6	genießen	880	1	FEHLER	1572	1	!	-1	1	!	-1	0	0	0
2024-06-12	10:07:11	10:14:07	414306	6.6.1	4_exp_EVA_AWA_CON	81	A	B	Rpleas_acq	Same	Rpleas	1pleas	acq_US_unple_nomask	acq3_nomask	3	6	453	1	300	300	0	0	515	46	1	0	träumen	anregung	engagiert	kreativ	gesittet	genießen	töten	ausrottung	engstirnig	krank	geizig	gemein	sonnig	gütig	besonnen	vertrauen	kuss	vergnügt	sterben	gierig	bange	versagen	krise	verbissen	1	blank2r.bmp	0	1	+	0	1	blank2r.bmp	500	1	DHJF	500	1	blank2r.bmp	880	2	ausrottung	880	1	!	1293	1	!	1416	0	0	0	0	0	0
2024-06-12	10:07:11	10:14:09	416859	6.6.1	4_exp_EVA_AWA_CON	81	A	B	Rpleas_acq	Same	Rpleas	1pleas	acq_US_pleas_nomask	acq3_nomask	3	7	453	0	300	300	0	0	575	46	0	0	träumen	anregung	engagiert	kreativ	gesittet	genießen	töten	ausrottung	engstirnig	krank	geizig	gemein	sonnig	gütig	besonnen	vertrauen	kuss	vergnügt	sterben	gierig	bange	versagen	krise	verbissen	1	blank2r.bmp	0	1	+	0	1	blank2r.bmp	500	1	CPLW	500	1	blank2r.bmp	880	5	gesittet	880	1	FEHLER	1768	1	!	1292	1	!	-1	0	0	0
2024-06-12	10:07:11	10:14:11	419056	6.6.1	4_exp_EVA_AWA_CON	81	A	B	Rpleas_acq	Same	Rpleas	1pleas	acq_US_pleas_nomask	acq3_nomask	3	8	453	0	300	300	0	0	624	50	1	0	träumen	anregung	engagiert	kreativ	gesittet	genießen	töten	ausrottung	engstirnig	krank	geizig	gemein	sonnig	gütig	besonnen	vertrauen	kuss	vergnügt	sterben	gierig	bange	versagen	krise	verbissen	1	blank2r.bmp	0	1	+	0	1	blank2r.bmp	500	1	CPLW	500	1	blank2r.bmp	880	3	engagiert	880	1	!	1292	1	!	-1	0	0	0	0	0	0
2024-06-12	10:07:11	10:14:14	421216	6.6.1	4_exp_EVA_AWA_CON	81	A	B	Rpleas_acq	Same	Rpleas	1pleas	acq_US_pleas_nomask	acq3_nomask	3	9	453	0	300	300	0	0	382	50	1	0	träumen	anregung	engagiert	kreativ	gesittet	genießen	töten	ausrottung	engstirnig	krank	geizig	gemein	sonnig	gütig	besonnen	vertrauen	kuss	vergnügt	sterben	gierig	bange	versagen	krise	verbissen	1	blank2r.bmp	0	1	+	0	1	blank2r.bmp	500	1	CPLW	500	1	blank2r.bmp	880	1	träumen	880	1	!	-1	1	!	-1	0	0	0	0	0	0
2024-06-12	10:07:11	10:14:16	423490	6.6.1	4_exp_EVA_AWA_CON	81	A	B	Rpleas_acq	Same	Rpleas	1pleas	acq_US_pleas_nomask	acq3_nomask	3	10	453	1	300	300	0	0	493	50	1	0	träumen	anregung	engagiert	kreativ	gesittet	genießen	töten	ausrottung	engstirnig	krank	geizig	gemein	sonnig	gütig	besonnen	vertrauen	kuss	vergnügt	sterben	gierig	bange	versagen	krise	verbissen	1	blank2r.bmp	0	1	+	0	1	blank2r.bmp	500	1	CPLW	500	1	blank2r.bmp	880	2	anregung	880	1	!	1293	1	!	1394	0	0	0	0	0	0
2024-06-12	10:07:11	10:14:18	425936	6.6.1	4_exp_EVA_AWA_CON	81	A	B	Rpleas_acq	Same	Rpleas	1pleas	acq_US_unple_nomask	acq3_nomask	3	11	453	0	300	300	0	0	669	46	1	0	träumen	anregung	engagiert	kreativ	gesittet	genießen	töten	ausrottung	engstirnig	krank	geizig	gemein	sonnig	gütig	besonnen	vertrauen	kuss	vergnügt	sterben	gierig	bange	versagen	krise	verbissen	1	blank2r.bmp	0	1	+	0	1	blank2r.bmp	500	1	DHJF	500	1	blank2r.bmp	880	3	engstirnig	880	1	!	1293	1	!	-1	0	0	0	0	0	0
2024-06-12	10:07:11	10:14:21	428464	6.6.1	4_exp_EVA_AWA_CON	81	A	B	Rpleas_acq	Same	Rpleas	1pleas	acq_US_unple_nomask	acq3_nomask	3	12	453	0	300	300	0	0	746	46	1	0	träumen	anregung	engagiert	kreativ	gesittet	genießen	töten	ausrottung	engstirnig	krank	geizig	gemein	sonnig	gütig	besonnen	vertrauen	kuss	vergnügt	sterben	gierig	bange	versagen	krise	verbissen	1	blank2r.bmp	0	1	+	0	1	blank2r.bmp	500	1	DHJF	500	1	blank2r.bmp	880	5	geizig	880	1	!	1293	1	!	-1	0	0	0	0	0	0
2024-06-12	10:07:11	10:14:23	430714	6.6.1	4_exp_EVA_AWA_CON	81	A	B	Rpleas_acq	Same	Rpleas	1pleas	acq_US_pleas_nomask	acq3_nomask	3	13	453	1	300	300	0	0	472	50	1	0	träumen	anregung	engagiert	kreativ	gesittet	genießen	töten	ausrottung	engstirnig	krank	geizig	gemein	sonnig	gütig	besonnen	vertrauen	kuss	vergnügt	sterben	gierig	bange	versagen	krise	verbissen	1	blank2r.bmp	0	1	+	0	1	blank2r.bmp	500	1	CPLW	500	1	blank2r.bmp	880	2	anregung	880	1	!	1293	1	!	1373	0	0	0	0	0	0
2024-06-12	10:07:11	10:14:25	432970	6.6.1	4_exp_EVA_AWA_CON	81	A	B	Rpleas_acq	Same	Rpleas	1pleas	acq_US_unple_nomask	acq3_nomask	3	14	453	1	300	300	0	0	477	46	1	0	träumen	anregung	engagiert	kreativ	gesittet	genießen	töten	ausrottung	engstirnig	krank	geizig	gemein	sonnig	gütig	besonnen	vertrauen	kuss	vergnügt	sterben	gierig	bange	versagen	krise	verbissen	1	blank2r.bmp	0	1	+	0	1	blank2r.bmp	500	1	DHJF	500	1	blank2r.bmp	880	5	geizig	880	1	!	1292	1	!	1378	0	0	0	0	0	0
2024-06-12	10:07:11	10:14:27	435137	6.6.1	4_exp_EVA_AWA_CON	81	A	B	Rpleas_acq	Same	Rpleas	1pleas	acq_US_pleas_nomask	acq3_nomask	3	15	453	1	300	300	0	0	393	50	1	0	träumen	anregung	engagiert	kreativ	gesittet	genießen	töten	ausrottung	engstirnig	krank	geizig	gemein	sonnig	gütig	besonnen	vertrauen	kuss	vergnügt	sterben	gierig	bange	versagen	krise	verbissen	1	blank2r.bmp	0	1	+	0	1	blank2r.bmp	500	1	CPLW	500	1	blank2r.bmp	880	5	gesittet	880	1	!	1293	1	!	1293	0	0	0	0	0	0
2024-06-12	10:07:11	10:14:30	437488	6.6.1	4_exp_EVA_AWA_CON	81	A	B	Rpleas_acq	Same	Rpleas	1pleas	acq_US_unple_nomask	acq3_nomask	3	16	453	0	300	300	0	0	574	46	1	0	träumen	anregung	engagiert	kreativ	gesittet	genießen	töten	ausrottung	engstirnig	krank	geizig	gemein	sonnig	gütig	besonnen	vertrauen	kuss	vergnügt	sterben	gierig	bange	versagen	krise	verbissen	1	blank2r.bmp	0	1	+	0	1	blank2r.bmp	500	1	DHJF	500	1	blank2r.bmp	880	3	engstirnig	880	1	!	1293	1	!	-1	0	0	0	0	0	0
2024-06-12	10:07:11	10:14:32	439779	6.6.1	4_exp_EVA_AWA_CON	81	A	B	Rpleas_acq	Same	Rpleas	1pleas	acq_US_unple_nomask	acq3_nomask	3	17	453	1	300	300	0	0	510	46	1	0	träumen	anregung	engagiert	kreativ	gesittet	genießen	töten	ausrottung	engstirnig	krank	geizig	gemein	sonnig	gütig	besonnen	vertrauen	kuss	vergnügt	sterben	gierig	bange	versagen	krise	verbissen	1	blank2r.bmp	0	1	+	0	1	blank2r.bmp	500	1	DHJF	500	1	blank2r.bmp	880	4	krank	880	1	!	1293	1	!	1412	0	0	0	0	0	0
2024-06-12	10:07:11	10:14:34	442034	6.6.1	4_exp_EVA_AWA_CON	81	A	B	Rpleas_acq	Same	Rpleas	1pleas	acq_US_unple_nomask	acq3_nomask	3	18	453	1	300	300	0	0	475	46	1	0	träumen	anregung	engagiert	kreativ	gesittet	genießen	töten	ausrottung	engstirnig	krank	geizig	gemein	sonnig	gütig	besonnen	vertrauen	kuss	vergnügt	sterben	gierig	bange	versagen	krise	verbissen	1	blank2r.bmp	0	1	+	0	1	blank2r.bmp	500	1	DHJF	500	1	blank2r.bmp	880	1	töten	880	1	!	1293	1	!	1376	0	0	0	0	0	0
2024-06-12	10:07:11	10:14:37	444266	6.6.1	4_exp_EVA_AWA_CON	81	A	B	Rpleas_acq	Same	Rpleas	1pleas	acq_US_pleas_nomask	acq3_nomask	3	19	453	1	300	300	0	0	455	50	1	0	träumen	anregung	engagiert	kreativ	gesittet	genießen	töten	ausrottung	engstirnig	krank	geizig	gemein	sonnig	gütig	besonnen	vertrauen	kuss	vergnügt	sterben	gierig	bange	versagen	krise	verbissen	1	blank2r.bmp	0	1	+	0	1	blank2r.bmp	500	1	CPLW	500	1	blank2r.bmp	880	6	genießen	880	1	!	1293	1	!	1357	0	0	0	0	0	0
2024-06-12	10:07:11	10:14:39	446667	6.6.1	4_exp_EVA_AWA_CON	81	A	B	Rpleas_acq	Same	Rpleas	1pleas	acq_US_pleas_nomask	acq3_nomask	3	20	453	1	300	300	0	0	424	46	0	0	träumen	anregung	engagiert	kreativ	gesittet	genießen	töten	ausrottung	engstirnig	krank	geizig	gemein	sonnig	gütig	besonnen	vertrauen	kuss	vergnügt	sterben	gierig	bange	versagen	krise	verbissen	1	blank2r.bmp	0	1	+	0	1	blank2r.bmp	500	1	CPLW	500	1	blank2r.bmp	880	4	kreativ	880	1	FEHLER	1617	1	!	1292	1	!	1325	0	0	0
2024-06-12	10:07:11	10:14:58	465357	6.6.1	4_exp_EVA_AWA_CON	81	A	B	Rpleas_acq	Same	Rpleas	1pleas	acq_US_unple_nomask	acq3_nomask	3	21	453	0	300	300	0	0	16911	50	0	0	träumen	anregung	engagiert	kreativ	gesittet	genießen	töten	ausrottung	engstirnig	krank	geizig	gemein	sonnig	gütig	besonnen	vertrauen	kuss	vergnügt	sterben	gierig	bange	versagen	krise	verbissen	1	blank2r.bmp	0	1	+	0	1	blank2r.bmp	500	1	DHJF	500	1	blank2r.bmp	880	2	ausrottung	880	1	FEHLER	18105	1	!	1293	1	!	-1	0	0	0
2024-06-12	10:07:11	10:15:00	467512	6.6.1	4_exp_EVA_AWA_CON	81	A	B	Rpleas_acq	Same	Rpleas	1pleas	acq_US_pleas_nomask	acq3_nomask	3	22	453	0	300	300	0	0	579	50	1	0	träumen	anregung	engagiert	kreativ	gesittet	genießen	töten	ausrottung	engstirnig	krank	geizig	gemein	sonnig	gütig	besonnen	vertrauen	kuss	vergnügt	sterben	gierig	bange	versagen	krise	verbissen	1	blank2r.bmp	0	1	+	0	1	blank2r.bmp	500	1	CPLW	500	1	blank2r.bmp	880	1	träumen	880	1	!	1293	1	!	-1	0	0	0	0	0	0
2024-06-12	10:07:11	10:15:02	469754	6.6.1	4_exp_EVA_AWA_CON	81	A	B	Rpleas_acq	Same	Rpleas	1pleas	acq_US_pleas_nomask	acq3_nomask	3	23	453	1	300	300	0	0	467	50	1	0	träumen	anregung	engagiert	kreativ	gesittet	genießen	töten	ausrottung	engstirnig	krank	geizig	gemein	sonnig	gütig	besonnen	vertrauen	kuss	vergnügt	sterben	gierig	bange	versagen	krise	verbissen	1	blank2r.bmp	0	1	+	0	1	blank2r.bmp	500	1	CPLW	500	1	blank2r.bmp	880	3	engagiert	880	1	!	1293	1	!	1368	0	0	0	0	0	0
2024-06-12	10:07:11	10:15:04	472156	6.6.1	4_exp_EVA_AWA_CON	81	A	B	Rpleas_acq	Same	Rpleas	1pleas	acq_US_unple_nomask	acq3_nomask	3	24	453	1	300	300	0	0	426	50	0	0	träumen	anregung	engagiert	kreativ	gesittet	genießen	töten	ausrottung	engstirnig	krank	geizig	gemein	sonnig	gütig	besonnen	vertrauen	kuss	vergnügt	sterben	gierig	bange	versagen	krise	verbissen	1	blank2r.bmp	0	1	+	0	1	blank2r.bmp	500	1	DHJF	500	1	blank2r.bmp	880	6	gemein	880	1	FEHLER	1619	1	!	1293	1	!	1327	0	0	0
2024-06-12	10:07:11	10:15:07	474186	6.6.1	4_exp_EVA_AWA_CON	81	A	B	Rpleas_acq	Same	Rpleas	1pleas	acq_US_unple_nomask	acq3_nomask	3	25	453	1	300	300	0	0	456	46	1	0	träumen	anregung	engagiert	kreativ	gesittet	genießen	töten	ausrottung	engstirnig	krank	geizig	gemein	sonnig	gütig	besonnen	vertrauen	kuss	vergnügt	sterben	gierig	bange	versagen	krise	verbissen	1	blank2r.bmp	0	1	+	0	1	blank2r.bmp	500	1	DHJF	500	1	blank2r.bmp	880	3	engstirnig	880	1	!	1293	1	!	1357	0	0	0	0	0	0
2024-06-12	10:07:11	10:15:09	476353	6.6.1	4_exp_EVA_AWA_CON	81	A	B	Rpleas_acq	Same	Rpleas	1pleas	acq_US_pleas_nomask	acq3_nomask	3	26	453	1	300	300	0	0	394	50	1	0	träumen	anregung	engagiert	kreativ	gesittet	genießen	töten	ausrottung	engstirnig	krank	geizig	gemein	sonnig	gütig	besonnen	vertrauen	kuss	vergnügt	sterben	gierig	bange	versagen	krise	verbissen	1	blank2r.bmp	0	1	+	0	1	blank2r.bmp	500	1	CPLW	500	1	blank2r.bmp	880	6	genießen	880	1	!	1293	1	!	1293	0	0	0	0	0	0
2024-06-12	10:07:11	10:15:11	478594	6.6.1	4_exp_EVA_AWA_CON	81	A	B	Rpleas_acq	Same	Rpleas	1pleas	acq_US_unple_nomask	acq3_nomask	3	27	453	1	300	300	0	0	461	46	1	0	träumen	anregung	engagiert	kreativ	gesittet	genießen	töten	ausrottung	engstirnig	krank	geizig	gemein	sonnig	gütig	besonnen	vertrauen	kuss	vergnügt	sterben	gierig	bange	versagen	krise	verbissen	1	blank2r.bmp	0	1	+	0	1	blank2r.bmp	500	1	DHJF	500	1	blank2r.bmp	880	4	krank	880	1	!	1292	1	!	1363	0	0	0	0	0	0
2024-06-12	10:07:11	10:15:13	480744	6.6.1	4_exp_EVA_AWA_CON	81	A	B	Rpleas_acq	Same	Rpleas	1pleas	acq_US_pleas_nomask	acq3_nomask	3	28	453	0	300	300	0	0	372	50	1	0	träumen	anregung	engagiert	kreativ	gesittet	genießen	töten	ausrottung	engstirnig	krank	geizig	gemein	sonnig	gütig	besonnen	vertrauen	kuss	vergnügt	sterben	gierig	bange	versagen	krise	verbissen	1	blank2r.bmp	0	1	+	0	1	blank2r.bmp	500	1	CPLW	500	1	blank2r.bmp	880	5	gesittet	880	1	!	-1	1	!	-1	0	0	0	0	0	0
2024-06-12	10:07:11	10:15:15	483035	6.6.1	4_exp_EVA_AWA_CON	81	A	B	Rpleas_acq	Same	Rpleas	1pleas	acq_US_unple_nomask	acq3_nomask	3	29	453	1	300	300	0	0	509	46	1	0	träumen	anregung	engagiert	kreativ	gesittet	genießen	töten	ausrottung	engstirnig	krank	geizig	gemein	sonnig	gütig	besonnen	vertrauen	kuss	vergnügt	sterben	gierig	bange	versagen	krise	verbissen	1	blank2r.bmp	0	1	+	0	1	blank2r.bmp	500	1	DHJF	500	1	blank2r.bmp	880	2	ausrottung	880	1	!	1293	1	!	1410	0	0	0	0	0	0
2024-06-12	10:07:11	10:15:18	485242	6.6.1	4_exp_EVA_AWA_CON	81	A	B	Rpleas_acq	Same	Rpleas	1pleas	acq_US_pleas_nomask	acq3_nomask	3	30	453	1	300	300	0	0	425	50	1	0	träumen	anregung	engagiert	kreativ	gesittet	genießen	töten	ausrottung	engstirnig	krank	geizig	gemein	sonnig	gütig	besonnen	vertrauen	kuss	vergnügt	sterben	gierig	bange	versagen	krise	verbissen	1	blank2r.bmp	0	1	+	0	1	blank2r.bmp	500	1	CPLW	500	1	blank2r.bmp	880	2	anregung	880	1	!	1293	1	!	1326	0	0	0	0	0	0
2024-06-12	10:07:11	10:15:20	487482	6.6.1	4_exp_EVA_AWA_CON	81	A	B	Rpleas_acq	Same	Rpleas	1pleas	acq_US_unple_nomask	acq3_nomask	3	31	453	1	300	300	0	0	464	46	1	0	träumen	anregung	engagiert	kreativ	gesittet	genießen	töten	ausrottung	engstirnig	krank	geizig	gemein	sonnig	gütig	besonnen	vertrauen	kuss	vergnügt	sterben	gierig	bange	versagen	krise	verbissen	1	blank2r.bmp	0	1	+	0	1	blank2r.bmp	500	1	DHJF	500	1	blank2r.bmp	880	6	gemein	880	1	!	1293	1	!	1365	0	0	0	0	0	0
2024-06-12	10:07:11	10:15:22	489616	6.6.1	4_exp_EVA_AWA_CON	81	A	B	Rpleas_acq	Same	Rpleas	1pleas	acq_US_pleas_nomask	acq3_nomask	3	32	453	0	300	300	0	0	358	50	1	0	träumen	anregung	engagiert	kreativ	gesittet	genießen	töten	ausrottung	engstirnig	krank	geizig	gemein	sonnig	gütig	besonnen	vertrauen	kuss	vergnügt	sterben	gierig	bange	versagen	krise	verbissen	1	blank2r.bmp	0	1	+	0	1	blank2r.bmp	500	1	CPLW	500	1	blank2r.bmp	880	4	kreativ	880	1	!	-1	1	!	-1	0	0	0	0	0	0
2024-06-12	10:07:11	10:15:24	492044	6.6.1	4_exp_EVA_AWA_CON	81	A	B	Rpleas_acq	Same	Rpleas	1pleas	acq_US_pleas_nomask	acq3_nomask	3	33	453	1	300	300	0	0	451	46	0	0	träumen	anregung	engagiert	kreativ	gesittet	genießen	töten	ausrottung	engstirnig	krank	geizig	gemein	sonnig	gütig	besonnen	vertrauen	kuss	vergnügt	sterben	gierig	bange	versagen	krise	verbissen	1	blank2r.bmp	0	1	+	0	1	blank2r.bmp	500	1	CPLW	500	1	blank2r.bmp	880	3	engagiert	880	1	FEHLER	1645	1	!	1293	1	!	1353	0	0	0
2024-06-12	10:07:11	10:15:34	501332	6.6.1	4_exp_EVA_AWA_CON	81	A	B	Rpleas_acq	Same	Rpleas	1pleas	acq_US_unple_nomask	acq3_nomask	3	34	453	0	300	300	0	0	7507	50	0	0	träumen	anregung	engagiert	kreativ	gesittet	genießen	töten	ausrottung	engstirnig	krank	geizig	gemein	sonnig	gütig	besonnen	vertrauen	kuss	vergnügt	sterben	gierig	bange	versagen	krise	verbissen	1	blank2r.bmp	0	1	+	0	1	blank2r.bmp	500	1	DHJF	500	1	blank2r.bmp	880	5	geizig	880	1	FEHLER	8701	1	!	1293	1	!	-1	0	0	0
2024-06-12	10:07:11	10:15:36	503322	6.6.1	4_exp_EVA_AWA_CON	81	A	B	Rpleas_acq	Same	Rpleas	1pleas	acq_US_unple_nomask	acq3_nomask	3	35	453	1	300	300	0	0	414	46	1	0	träumen	anregung	engagiert	kreativ	gesittet	genießen	töten	ausrottung	engstirnig	krank	geizig	gemein	sonnig	gütig	besonnen	vertrauen	kuss	vergnügt	sterben	gierig	bange	versagen	krise	verbissen	1	blank2r.bmp	0	1	+	0	1	blank2r.bmp	500	1	DHJF	500	1	blank2r.bmp	880	1	töten	880	1	!	1293	1	!	1315	0	0	0	0	0	0
2024-06-12	10:07:11	10:15:38	505763	6.6.1	4_exp_EVA_AWA_CON	81	A	B	Rpleas_acq	Same	Rpleas	1pleas	acq_US_pleas_nomask	acq3_nomask	3	36	453	1	300	300	0	0	462	46	0	0	träumen	anregung	engagiert	kreativ	gesittet	genießen	töten	ausrottung	engstirnig	krank	geizig	gemein	sonnig	gütig	besonnen	vertrauen	kuss	vergnügt	sterben	gierig	bange	versagen	krise	verbissen	1	blank2r.bmp	0	1	+	0	1	blank2r.bmp	500	1	CPLW	500	1	blank2r.bmp	880	1	träumen	880	1	FEHLER	1655	1	!	1293	1	!	1363	0	0	0
2024-06-12	10:07:11	10:15:57	524496	6.6.1	4_exp_EVA_AWA_CON	81	A	B	Rpleas_acq	Same	Rpleas	1pleas	acq_US_unple_nomask	acq45_nomask	4	1	400	0	300	300	0	0	536	50	0	0	träumen	anregung	engagiert	kreativ	gesittet	genießen	töten	ausrottung	engstirnig	krank	geizig	gemein	sonnig	gütig	besonnen	vertrauen	kuss	vergnügt	sterben	gierig	bange	versagen	krise	verbissen	1	blank2r.bmp	0	1	+	0	1	blank2r.bmp	500	1	DHJF	500	1	blank2r.bmp	880	2	ausrottung	880	1	!	1233	1	!	-1	0	0	0	0	0	0
2024-06-12	10:07:11	10:15:59	526650	6.6.1	4_exp_EVA_AWA_CON	81	A	B	Rpleas_acq	Same	Rpleas	1pleas	acq_US_pleas_nomask	acq45_nomask	4	2	400	1	300	300	0	0	377	50	1	0	träumen	anregung	engagiert	kreativ	gesittet	genießen	töten	ausrottung	engstirnig	krank	geizig	gemein	sonnig	gütig	besonnen	vertrauen	kuss	vergnügt	sterben	gierig	bange	versagen	krise	verbissen	1	blank2r.bmp	0	1	+	0	1	blank2r.bmp	500	1	CPLW	500	1	blank2r.bmp	880	6	genießen	880	1	!	1233	1	!	1278	0	0	0	0	0	0
2024-06-12	10:07:11	10:16:01	528770	6.6.1	4_exp_EVA_AWA_CON	81	A	B	Rpleas_acq	Same	Rpleas	1pleas	acq_US_pleas_nomask	acq45_nomask	4	3	400	1	300	300	0	0	345	46	0	0	träumen	anregung	engagiert	kreativ	gesittet	genießen	töten	ausrottung	engstirnig	krank	geizig	gemein	sonnig	gütig	besonnen	vertrauen	kuss	vergnügt	sterben	gierig	bange	versagen	krise	verbissen	1	blank2r.bmp	0	1	+	0	1	blank2r.bmp	500	1	CPLW	500	1	blank2r.bmp	880	1	träumen	880	1	!	1233	1	!	1246	0	0	0	0	0	0
2024-06-12	10:07:11	10:16:03	531032	6.6.1	4_exp_EVA_AWA_CON	81	A	B	Rpleas_acq	Same	Rpleas	1pleas	acq_US_unple_nomask	acq45_nomask	4	4	400	0	300	300	0	0	488	46	1	0	träumen	anregung	engagiert	kreativ	gesittet	genießen	töten	ausrottung	engstirnig	krank	geizig	gemein	sonnig	gütig	besonnen	vertrauen	kuss	vergnügt	sterben	gierig	bange	versagen	krise	verbissen	1	blank2r.bmp	0	1	+	0	1	blank2r.bmp	500	1	DHJF	500	1	blank2r.bmp	880	3	engstirnig	880	1	!	1233	1	!	-1	0	0	0	0	0	0
2024-06-12	10:07:11	10:16:06	533202	6.6.1	4_exp_EVA_AWA_CON	81	A	B	Rpleas_acq	Same	Rpleas	1pleas	acq_US_unple_nomask	acq45_nomask	4	5	400	1	300	300	0	0	394	50	0	0	träumen	anregung	engagiert	kreativ	gesittet	genießen	töten	ausrottung	engstirnig	krank	geizig	gemein	sonnig	gütig	besonnen	vertrauen	kuss	vergnügt	sterben	gierig	bange	versagen	krise	verbissen	1	blank2r.bmp	0	1	+	0	1	blank2r.bmp	500	1	DHJF	500	1	blank2r.bmp	880	1	töten	880	1	!	1232	1	!	1296	0	0	0	0	0	0
2024-06-12	10:07:11	10:16:08	535624	6.6.1	4_exp_EVA_AWA_CON	81	A	B	Rpleas_acq	Same	Rpleas	1pleas	acq_US_pleas_nomask	acq45_nomask	4	6	400	0	300	300	0	0	647	50	1	0	träumen	anregung	engagiert	kreativ	gesittet	genießen	töten	ausrottung	engstirnig	krank	geizig	gemein	sonnig	gütig	besonnen	vertrauen	kuss	vergnügt	sterben	gierig	bange	versagen	krise	verbissen	1	blank2r.bmp	0	1	+	0	1	blank2r.bmp	500	1	CPLW	500	1	blank2r.bmp	880	3	engagiert	880	1	!	1233	1	!	-1	0	0	0	0	0	0
2024-06-12	10:07:11	10:16:10	537936	6.6.1	4_exp_EVA_AWA_CON	81	A	B	Rpleas_acq	Same	Rpleas	1pleas	acq_US_pleas_nomask	acq45_nomask	4	7	400	0	300	300	0	0	537	50	1	0	träumen	anregung	engagiert	kreativ	gesittet	genießen	töten	ausrottung	engstirnig	krank	geizig	gemein	sonnig	gütig	besonnen	vertrauen	kuss	vergnügt	sterben	gierig	bange	versagen	krise	verbissen	1	blank2r.bmp	0	1	+	0	1	blank2r.bmp	500	1	CPLW	500	1	blank2r.bmp	880	2	anregung	880	1	!	1233	1	!	-1	0	0	0	0	0	0
2024-06-12	10:07:11	10:16:12	540106	6.6.1	4_exp_EVA_AWA_CON	81	A	B	Rpleas_acq	Same	Rpleas	1pleas	acq_US_pleas_nomask	acq45_nomask	4	8	400	1	300	300	0	0	394	46	0	0	träumen	anregung	engagiert	kreativ	gesittet	genießen	töten	ausrottung	engstirnig	krank	geizig	gemein	sonnig	gütig	besonnen	vertrauen	kuss	vergnügt	sterben	gierig	bange	versagen	krise	verbissen	1	blank2r.bmp	0	1	+	0	1	blank2r.bmp	500	1	CPLW	500	1	blank2r.bmp	880	5	gesittet	880	1	!	1232	1	!	1295	0	0	0	0	0	0
2024-06-12	10:07:11	10:16:15	542330	6.6.1	4_exp_EVA_AWA_CON	81	A	B	Rpleas_acq	Same	Rpleas	1pleas	acq_US_pleas_nomask	acq45_nomask	4	9	400	1	300	300	0	0	447	50	1	0	träumen	anregung	engagiert	kreativ	gesittet	genießen	töten	ausrottung	engstirnig	krank	geizig	gemein	sonnig	gütig	besonnen	vertrauen	kuss	vergnügt	sterben	gierig	bange	versagen	krise	verbissen	1	blank2r.bmp	0	1	+	0	1	blank2r.bmp	500	1	CPLW	500	1	blank2r.bmp	880	4	kreativ	880	1	!	1233	1	!	1348	0	0	0	0	0	0
2024-06-12	10:07:11	10:16:17	544506	6.6.1	4_exp_EVA_AWA_CON	81	A	B	Rpleas_acq	Same	Rpleas	1pleas	acq_US_pleas_nomask	acq45_nomask	4	10	400	1	300	300	0	0	401	50	1	0	träumen	anregung	engagiert	kreativ	gesittet	genießen	töten	ausrottung	engstirnig	krank	geizig	gemein	sonnig	gütig	besonnen	vertrauen	kuss	vergnügt	sterben	gierig	bange	versagen	krise	verbissen	1	blank2r.bmp	0	1	+	0	1	blank2r.bmp	500	1	CPLW	500	1	blank2r.bmp	880	6	genießen	880	1	!	1232	1	!	1303	0	0	0	0	0	0
2024-06-12	10:07:11	10:16:19	546754	6.6.1	4_exp_EVA_AWA_CON	81	A	B	Rpleas_acq	Same	Rpleas	1pleas	acq_US_unple_nomask	acq45_nomask	4	11	400	1	300	300	0	0	468	46	1	0	träumen	anregung	engagiert	kreativ	gesittet	genießen	töten	ausrottung	engstirnig	krank	geizig	gemein	sonnig	gütig	besonnen	vertrauen	kuss	vergnügt	sterben	gierig	bange	versagen	krise	verbissen	1	blank2r.bmp	0	1	+	0	1	blank2r.bmp	500	1	DHJF	500	1	blank2r.bmp	880	6	gemein	880	1	!	1233	1	!	1369	0	0	0	0	0	0
2024-06-12	10:07:11	10:16:21	548970	6.6.1	4_exp_EVA_AWA_CON	81	A	B	Rpleas_acq	Same	Rpleas	1pleas	acq_US_unple_nomask	acq45_nomask	4	12	400	1	300	300	0	0	432	50	0	0	träumen	anregung	engagiert	kreativ	gesittet	genießen	töten	ausrottung	engstirnig	krank	geizig	gemein	sonnig	gütig	besonnen	vertrauen	kuss	vergnügt	sterben	gierig	bange	versagen	krise	verbissen	1	blank2r.bmp	0	1	+	0	1	blank2r.bmp	500	1	DHJF	500	1	blank2r.bmp	880	5	geizig	880	1	!	1233	1	!	1333	0	0	0	0	0	0
2024-06-12	10:07:11	10:16:24	551232	6.6.1	4_exp_EVA_AWA_CON	81	A	B	Rpleas_acq	Same	Rpleas	1pleas	acq_US_unple_nomask	acq45_nomask	4	13	400	0	300	300	0	0	485	46	1	0	träumen	anregung	engagiert	kreativ	gesittet	genießen	töten	ausrottung	engstirnig	krank	geizig	gemein	sonnig	gütig	besonnen	vertrauen	kuss	vergnügt	sterben	gierig	bange	versagen	krise	verbissen	1	blank2r.bmp	0	1	+	0	1	blank2r.bmp	500	1	DHJF	500	1	blank2r.bmp	880	4	krank	880	1	!	1233	1	!	-1	0	0	0	0	0	0
2024-06-12	10:07:11	10:16:26	553386	6.6.1	4_exp_EVA_AWA_CON	81	A	B	Rpleas_acq	Same	Rpleas	1pleas	acq_US_unple_nomask	acq45_nomask	4	14	400	1	300	300	0	0	375	46	1	0	träumen	anregung	engagiert	kreativ	gesittet	genießen	töten	ausrottung	engstirnig	krank	geizig	gemein	sonnig	gütig	besonnen	vertrauen	kuss	vergnügt	sterben	gierig	bange	versagen	krise	verbissen	1	blank2r.bmp	0	1	+	0	1	blank2r.bmp	500	1	DHJF	500	1	blank2r.bmp	880	2	ausrottung	880	1	!	1233	1	!	1277	0	0	0	0	0	0
2024-06-12	10:07:11	10:16:28	555570	6.6.1	4_exp_EVA_AWA_CON	81	A	B	Rpleas_acq	Same	Rpleas	1pleas	acq_US_unple_nomask	acq45_nomask	4	15	400	1	300	300	0	0	408	46	1	0	träumen	anregung	engagiert	kreativ	gesittet	genießen	töten	ausrottung	engstirnig	krank	geizig	gemein	sonnig	gütig	besonnen	vertrauen	kuss	vergnügt	sterben	gierig	bange	versagen	krise	verbissen	1	blank2r.bmp	0	1	+	0	1	blank2r.bmp	500	1	DHJF	500	1	blank2r.bmp	880	4	krank	880	1	!	1232	1	!	1309	0	0	0	0	0	0
2024-06-12	10:07:11	10:16:30	557664	6.6.1	4_exp_EVA_AWA_CON	81	A	B	Rpleas_acq	Same	Rpleas	1pleas	acq_US_unple_nomask	acq45_nomask	4	16	400	0	300	300	0	0	313	50	0	0	träumen	anregung	engagiert	kreativ	gesittet	genießen	töten	ausrottung	engstirnig	krank	geizig	gemein	sonnig	gütig	besonnen	vertrauen	kuss	vergnügt	sterben	gierig	bange	versagen	krise	verbissen	1	blank2r.bmp	0	1	+	0	1	blank2r.bmp	500	1	DHJF	500	1	blank2r.bmp	880	5	geizig	880	1	!	-1	1	!	-1	0	0	0	0	0	0
2024-06-12	10:07:11	10:16:32	559944	6.6.1	4_exp_EVA_AWA_CON	81	A	B	Rpleas_acq	Same	Rpleas	1pleas	acq_US_pleas_nomask	acq45_nomask	4	17	400	0	300	300	0	0	501	46	0	0	träumen	anregung	engagiert	kreativ	gesittet	genießen	töten	ausrottung	engstirnig	krank	geizig	gemein	sonnig	gütig	besonnen	vertrauen	kuss	vergnügt	sterben	gierig	bange	versagen	krise	verbissen	1	blank2r.bmp	0	1	+	0	1	blank2r.bmp	500	1	CPLW	500	1	blank2r.bmp	880	4	kreativ	880	1	!	1233	1	!	-1	0	0	0	0	0	0
2024-06-12	10:07:11	10:16:35	562296	6.6.1	4_exp_EVA_AWA_CON	81	A	B	Rpleas_acq	Same	Rpleas	1pleas	acq_US_pleas_nomask	acq45_nomask	4	18	400	0	300	300	0	0	572	46	0	0	träumen	anregung	engagiert	kreativ	gesittet	genießen	töten	ausrottung	engstirnig	krank	geizig	gemein	sonnig	gütig	besonnen	vertrauen	kuss	vergnügt	sterben	gierig	bange	versagen	krise	verbissen	1	blank2r.bmp	0	1	+	0	1	blank2r.bmp	500	1	CPLW	500	1	blank2r.bmp	880	3	engagiert	880	1	!	1233	1	!	-1	0	0	0	0	0	0
2024-06-12	10:07:11	10:16:37	564568	6.6.1	4_exp_EVA_AWA_CON	81	A	B	Rpleas_acq	Same	Rpleas	1pleas	acq_US_unple_nomask	acq45_nomask	4	19	400	0	300	300	0	0	492	46	1	0	träumen	anregung	engagiert	kreativ	gesittet	genießen	töten	ausrottung	engstirnig	krank	geizig	gemein	sonnig	gütig	besonnen	vertrauen	kuss	vergnügt	sterben	gierig	bange	versagen	krise	verbissen	1	blank2r.bmp	0	1	+	0	1	blank2r.bmp	500	1	DHJF	500	1	blank2r.bmp	880	3	engstirnig	880	1	!	1233	1	!	-1	0	0	0	0	0	0
2024-06-12	10:07:11	10:16:39	566779	6.6.1	4_exp_EVA_AWA_CON	81	A	B	Rpleas_acq	Same	Rpleas	1pleas	acq_US_pleas_nomask	acq45_nomask	4	20	400	1	300	300	0	0	429	50	1	0	träumen	anregung	engagiert	kreativ	gesittet	genießen	töten	ausrottung	engstirnig	krank	geizig	gemein	sonnig	gütig	besonnen	vertrauen	kuss	vergnügt	sterben	gierig	bange	versagen	krise	verbissen	1	blank2r.bmp	0	1	+	0	1	blank2r.bmp	500	1	CPLW	500	1	blank2r.bmp	880	2	anregung	880	1	!	1233	1	!	1331	0	0	0	0	0	0
2024-06-12	10:07:11	10:16:41	569002	6.6.1	4_exp_EVA_AWA_CON	81	A	B	Rpleas_acq	Same	Rpleas	1pleas	acq_US_unple_nomask	acq45_nomask	4	21	400	1	300	300	0	0	441	50	0	0	träumen	anregung	engagiert	kreativ	gesittet	genießen	töten	ausrottung	engstirnig	krank	geizig	gemein	sonnig	gütig	besonnen	vertrauen	kuss	vergnügt	sterben	gierig	bange	versagen	krise	verbissen	1	blank2r.bmp	0	1	+	0	1	blank2r.bmp	500	1	DHJF	500	1	blank2r.bmp	880	1	töten	880	1	!	1233	1	!	1343	0	0	0	0	0	0
2024-06-12	10:07:11	10:16:44	571154	6.6.1	4_exp_EVA_AWA_CON	81	A	B	Rpleas_acq	Same	Rpleas	1pleas	acq_US_unple_nomask	acq45_nomask	4	22	400	1	300	300	0	0	372	46	1	0	träumen	anregung	engagiert	kreativ	gesittet	genießen	töten	ausrottung	engstirnig	krank	geizig	gemein	sonnig	gütig	besonnen	vertrauen	kuss	vergnügt	sterben	gierig	bange	versagen	krise	verbissen	1	blank2r.bmp	0	1	+	0	1	blank2r.bmp	500	1	DHJF	500	1	blank2r.bmp	880	6	gemein	880	1	!	1233	1	!	1273	0	0	0	0	0	0
2024-06-12	10:07:11	10:16:46	573330	6.6.1	4_exp_EVA_AWA_CON	81	A	B	Rpleas_acq	Same	Rpleas	1pleas	acq_US_unple_nomask	acq45_nomask	4	23	400	1	300	300	0	0	397	46	1	0	träumen	anregung	engagiert	kreativ	gesittet	genießen	töten	ausrottung	engstirnig	krank	geizig	gemein	sonnig	gütig	besonnen	vertrauen	kuss	vergnügt	sterben	gierig	bange	versagen	krise	verbissen	1	blank2r.bmp	0	1	+	0	1	blank2r.bmp	500	1	DHJF	500	1	blank2r.bmp	880	2	ausrottung	880	1	!	1233	1	!	1298	0	0	0	0	0	0
2024-06-12	10:07:11	10:16:48	575522	6.6.1	4_exp_EVA_AWA_CON	81	A	B	Rpleas_acq	Same	Rpleas	1pleas	acq_US_pleas_nomask	acq45_nomask	4	24	400	1	300	300	0	0	417	46	0	0	träumen	anregung	engagiert	kreativ	gesittet	genießen	töten	ausrottung	engstirnig	krank	geizig	gemein	sonnig	gütig	besonnen	vertrauen	kuss	vergnügt	sterben	gierig	bange	versagen	krise	verbissen	1	blank2r.bmp	0	1	+	0	1	blank2r.bmp	500	1	CPLW	500	1	blank2r.bmp	880	1	träumen	880	1	!	1233	1	!	1318	0	0	0	0	0	0
2024-06-12	10:07:11	10:16:50	577856	6.6.1	4_exp_EVA_AWA_CON	81	A	B	Rpleas_acq	Same	Rpleas	1pleas	acq_US_pleas_nomask	acq45_nomask	4	25	400	0	300	300	0	0	562	46	0	0	träumen	anregung	engagiert	kreativ	gesittet	genießen	töten	ausrottung	engstirnig	krank	geizig	gemein	sonnig	gütig	besonnen	vertrauen	kuss	vergnügt	sterben	gierig	bange	versagen	krise	verbissen	1	blank2r.bmp	0	1	+	0	1	blank2r.bmp	500	1	CPLW	500	1	blank2r.bmp	880	5	gesittet	880	1	!	1232	1	!	-1	0	0	0	0	0	0
2024-06-12	10:07:11	10:16:52	580090	6.6.1	4_exp_EVA_AWA_CON	81	A	B	Rpleas_acq	Same	Rpleas	1pleas	acq_US_unple_nomask	acq45_nomask	4	26	400	1	300	300	0	0	452	46	1	0	träumen	anregung	engagiert	kreativ	gesittet	genießen	töten	ausrottung	engstirnig	krank	geizig	gemein	sonnig	gütig	besonnen	vertrauen	kuss	vergnügt	sterben	gierig	bange	versagen	krise	verbissen	1	blank2r.bmp	0	1	+	0	1	blank2r.bmp	500	1	DHJF	500	1	blank2r.bmp	880	3	engstirnig	880	1	!	1232	1	!	1353	0	0	0	0	0	0
2024-06-12	10:07:11	10:16:55	582226	6.6.1	4_exp_EVA_AWA_CON	81	A	B	Rpleas_acq	Same	Rpleas	1pleas	acq_US_pleas_nomask	acq45_nomask	4	27	400	1	300	300	0	0	357	50	1	0	träumen	anregung	engagiert	kreativ	gesittet	genießen	töten	ausrottung	engstirnig	krank	geizig	gemein	sonnig	gütig	besonnen	vertrauen	kuss	vergnügt	sterben	gierig	bange	versagen	krise	verbissen	1	blank2r.bmp	0	1	+	0	1	blank2r.bmp	500	1	CPLW	500	1	blank2r.bmp	880	4	kreativ	880	1	!	1233	1	!	1258	0	0	0	0	0	0
2024-06-12	10:07:11	10:16:57	584496	6.6.1	4_exp_EVA_AWA_CON	81	A	B	Rpleas_acq	Same	Rpleas	1pleas	acq_US_unple_nomask	acq45_nomask	4	28	400	0	300	300	0	0	498	46	1	0	träumen	anregung	engagiert	kreativ	gesittet	genießen	töten	ausrottung	engstirnig	krank	geizig	gemein	sonnig	gütig	besonnen	vertrauen	kuss	vergnügt	sterben	gierig	bange	versagen	krise	verbissen	1	blank2r.bmp	0	1	+	0	1	blank2r.bmp	500	1	DHJF	500	1	blank2r.bmp	880	5	geizig	880	1	!	1233	1	!	-1	0	0	0	0	0	0
2024-06-12	10:07:11	10:16:59	586738	6.6.1	4_exp_EVA_AWA_CON	81	A	B	Rpleas_acq	Same	Rpleas	1pleas	acq_US_pleas_nomask	acq45_nomask	4	29	400	1	300	300	0	0	466	50	1	0	träumen	anregung	engagiert	kreativ	gesittet	genießen	töten	ausrottung	engstirnig	krank	geizig	gemein	sonnig	gütig	besonnen	vertrauen	kuss	vergnügt	sterben	gierig	bange	versagen	krise	verbissen	1	blank2r.bmp	0	1	+	0	1	blank2r.bmp	500	1	CPLW	500	1	blank2r.bmp	880	3	engagiert	880	1	!	1232	1	!	1367	0	0	0	0	0	0
2024-06-12	10:07:11	10:17:01	589056	6.6.1	4_exp_EVA_AWA_CON	81	A	B	Rpleas_acq	Same	Rpleas	1pleas	acq_US_unple_nomask	acq45_nomask	4	30	400	0	300	300	0	0	545	46	1	0	träumen	anregung	engagiert	kreativ	gesittet	genießen	töten	ausrottung	engstirnig	krank	geizig	gemein	sonnig	gütig	besonnen	vertrauen	kuss	vergnügt	sterben	gierig	bange	versagen	krise	verbissen	1	blank2r.bmp	0	1	+	0	1	blank2r.bmp	500	1	DHJF	500	1	blank2r.bmp	880	6	gemein	880	1	!	1233	1	!	-1	0	0	0	0	0	0
2024-06-12	10:07:11	10:17:04	591250	6.6.1	4_exp_EVA_AWA_CON	81	A	B	Rpleas_acq	Same	Rpleas	1pleas	acq_US_pleas_nomask	acq45_nomask	4	31	400	1	300	300	0	0	415	50	1	0	träumen	anregung	engagiert	kreativ	gesittet	genießen	töten	ausrottung	engstirnig	krank	geizig	gemein	sonnig	gütig	besonnen	vertrauen	kuss	vergnügt	sterben	gierig	bange	versagen	krise	verbissen	1	blank2r.bmp	0	1	+	0	1	blank2r.bmp	500	1	CPLW	500	1	blank2r.bmp	880	6	genießen	880	1	!	1233	1	!	1316	0	0	0	0	0	0
2024-06-12	10:07:11	10:17:06	593458	6.6.1	4_exp_EVA_AWA_CON	81	A	B	Rpleas_acq	Same	Rpleas	1pleas	acq_US_pleas_nomask	acq45_nomask	4	32	400	1	300	300	0	0	432	50	1	0	träumen	anregung	engagiert	kreativ	gesittet	genießen	töten	ausrottung	engstirnig	krank	geizig	gemein	sonnig	gütig	besonnen	vertrauen	kuss	vergnügt	sterben	gierig	bange	versagen	krise	verbissen	1	blank2r.bmp	0	1	+	0	1	blank2r.bmp	500	1	CPLW	500	1	blank2r.bmp	880	1	träumen	880	1	!	1232	1	!	1333	0	0	0	0	0	0
2024-06-12	10:07:11	10:17:08	595570	6.6.1	4_exp_EVA_AWA_CON	81	A	B	Rpleas_acq	Same	Rpleas	1pleas	acq_US_unple_nomask	acq45_nomask	4	33	400	1	300	300	0	0	333	46	1	0	träumen	anregung	engagiert	kreativ	gesittet	genießen	töten	ausrottung	engstirnig	krank	geizig	gemein	sonnig	gütig	besonnen	vertrauen	kuss	vergnügt	sterben	gierig	bange	versagen	krise	verbissen	1	blank2r.bmp	0	1	+	0	1	blank2r.bmp	500	1	DHJF	500	1	blank2r.bmp	880	4	krank	880	1	!	1233	1	!	1233	0	0	0	0	0	0
2024-06-12	10:07:11	10:17:10	597762	6.6.1	4_exp_EVA_AWA_CON	81	A	B	Rpleas_acq	Same	Rpleas	1pleas	acq_US_unple_nomask	acq45_nomask	4	34	400	1	300	300	0	0	413	46	1	0	träumen	anregung	engagiert	kreativ	gesittet	genießen	töten	ausrottung	engstirnig	krank	geizig	gemein	sonnig	gütig	besonnen	vertrauen	kuss	vergnügt	sterben	gierig	bange	versagen	krise	verbissen	1	blank2r.bmp	0	1	+	0	1	blank2r.bmp	500	1	DHJF	500	1	blank2r.bmp	880	1	töten	880	1	!	1233	1	!	1314	0	0	0	0	0	0
2024-06-12	10:07:11	10:17:12	599930	6.6.1	4_exp_EVA_AWA_CON	81	A	B	Rpleas_acq	Same	Rpleas	1pleas	acq_US_pleas_nomask	acq45_nomask	4	35	400	1	300	300	0	0	389	46	0	0	träumen	anregung	engagiert	kreativ	gesittet	genießen	töten	ausrottung	engstirnig	krank	geizig	gemein	sonnig	gütig	besonnen	vertrauen	kuss	vergnügt	sterben	gierig	bange	versagen	krise	verbissen	1	blank2r.bmp	0	1	+	0	1	blank2r.bmp	500	1	CPLW	500	1	blank2r.bmp	880	5	gesittet	880	1	!	1232	1	!	1290	0	0	0	0	0	0
2024-06-12	10:07:11	10:17:15	602178	6.6.1	4_exp_EVA_AWA_CON	81	A	B	Rpleas_acq	Same	Rpleas	1pleas	acq_US_pleas_nomask	acq45_nomask	4	36	400	1	300	300	0	0	466	50	1	0	träumen	anregung	engagiert	kreativ	gesittet	genießen	töten	ausrottung	engstirnig	krank	geizig	gemein	sonnig	gütig	besonnen	vertrauen	kuss	vergnügt	sterben	gierig	bange	versagen	krise	verbissen	1	blank2r.bmp	0	1	+	0	1	blank2r.bmp	500	1	CPLW	500	1	blank2r.bmp	880	2	anregung	880	1	!	1233	1	!	1367	0	0	0	0	0	0
2024-06-12	10:07:11	10:17:27	614571	6.6.1	4_exp_EVA_AWA_CON	81	A	B	Rpleas_acq	Same	Rpleas	1pleas	acq_US_pleas_nomask	acq45_nomask	5	1	400	1	300	300	0	0	460	46	0	0	träumen	anregung	engagiert	kreativ	gesittet	genießen	töten	ausrottung	engstirnig	krank	geizig	gemein	sonnig	gütig	besonnen	vertrauen	kuss	vergnügt	sterben	gierig	bange	versagen	krise	verbissen	1	blank2r.bmp	0	1	+	0	1	blank2r.bmp	500	1	CPLW	500	1	blank2r.bmp	880	5	gesittet	880	1	!	1232	1	!	1362	0	0	0	0	0	0
2024-06-12	10:07:11	10:17:29	616921	6.6.1	4_exp_EVA_AWA_CON	81	A	B	Rpleas_acq	Same	Rpleas	1pleas	acq_US_pleas_nomask	acq45_nomask	5	2	400	0	300	300	0	0	571	50	1	0	träumen	anregung	engagiert	kreativ	gesittet	genießen	töten	ausrottung	engstirnig	krank	geizig	gemein	sonnig	gütig	besonnen	vertrauen	kuss	vergnügt	sterben	gierig	bange	versagen	krise	verbissen	1	blank2r.bmp	0	1	+	0	1	blank2r.bmp	500	1	CPLW	500	1	blank2r.bmp	880	4	kreativ	880	1	!	1232	1	!	-1	0	0	0	0	0	0
2024-06-12	10:07:11	10:17:32	619174	6.6.1	4_exp_EVA_AWA_CON	81	A	B	Rpleas_acq	Same	Rpleas	1pleas	acq_US_unple_nomask	acq45_nomask	5	3	400	0	300	300	0	0	475	46	1	0	träumen	anregung	engagiert	kreativ	gesittet	genießen	töten	ausrottung	engstirnig	krank	geizig	gemein	sonnig	gütig	besonnen	vertrauen	kuss	vergnügt	sterben	gierig	bange	versagen	krise	verbissen	1	blank2r.bmp	0	1	+	0	1	blank2r.bmp	500	1	DHJF	500	1	blank2r.bmp	880	6	gemein	880	1	!	1233	1	!	-1	0	0	0	0	0	0
2024-06-12	10:07:11	10:17:34	621386	6.6.1	4_exp_EVA_AWA_CON	81	A	B	Rpleas_acq	Same	Rpleas	1pleas	acq_US_unple_nomask	acq45_nomask	5	4	400	1	300	300	0	0	432	46	1	0	träumen	anregung	engagiert	kreativ	gesittet	genießen	töten	ausrottung	engstirnig	krank	geizig	gemein	sonnig	gütig	besonnen	vertrauen	kuss	vergnügt	sterben	gierig	bange	versagen	krise	verbissen	1	blank2r.bmp	0	1	+	0	1	blank2r.bmp	500	1	DHJF	500	1	blank2r.bmp	880	4	krank	880	1	!	1233	1	!	1333	0	0	0	0	0	0
2024-06-12	10:07:11	10:17:36	623547	6.6.1	4_exp_EVA_AWA_CON	81	A	B	Rpleas_acq	Same	Rpleas	1pleas	acq_US_pleas_nomask	acq45_nomask	5	5	400	1	300	300	0	0	380	50	1	0	träumen	anregung	engagiert	kreativ	gesittet	genießen	töten	ausrottung	engstirnig	krank	geizig	gemein	sonnig	gütig	besonnen	vertrauen	kuss	vergnügt	sterben	gierig	bange	versagen	krise	verbissen	1	blank2r.bmp	0	1	+	0	1	blank2r.bmp	500	1	CPLW	500	1	blank2r.bmp	880	2	anregung	880	1	!	1233	1	!	1282	0	0	0	0	0	0
2024-06-12	10:07:11	10:17:38	625739	6.6.1	4_exp_EVA_AWA_CON	81	A	B	Rpleas_acq	Same	Rpleas	1pleas	acq_US_unple_nomask	acq45_nomask	5	6	400	1	300	300	0	0	411	46	1	0	träumen	anregung	engagiert	kreativ	gesittet	genießen	töten	ausrottung	engstirnig	krank	geizig	gemein	sonnig	gütig	besonnen	vertrauen	kuss	vergnügt	sterben	gierig	bange	versagen	krise	verbissen	1	blank2r.bmp	0	1	+	0	1	blank2r.bmp	500	1	DHJF	500	1	blank2r.bmp	880	5	geizig	880	1	!	1233	1	!	1313	0	0	0	0	0	0
2024-06-12	10:07:11	10:17:40	627930	6.6.1	4_exp_EVA_AWA_CON	81	A	B	Rpleas_acq	Same	Rpleas	1pleas	acq_US_unple_nomask	acq45_nomask	5	7	400	1	300	300	0	0	412	46	1	0	träumen	anregung	engagiert	kreativ	gesittet	genießen	töten	ausrottung	engstirnig	krank	geizig	gemein	sonnig	gütig	besonnen	vertrauen	kuss	vergnügt	sterben	gierig	bange	versagen	krise	verbissen	1	blank2r.bmp	0	1	+	0	1	blank2r.bmp	500	1	DHJF	500	1	blank2r.bmp	880	1	töten	880	1	!	1233	1	!	1313	0	0	0	0	0	0
2024-06-12	10:07:11	10:17:42	630032	6.6.1	4_exp_EVA_AWA_CON	81	A	B	Rpleas_acq	Same	Rpleas	1pleas	acq_US_unple_nomask	acq45_nomask	5	8	400	0	300	300	0	0	324	46	1	0	träumen	anregung	engagiert	kreativ	gesittet	genießen	töten	ausrottung	engstirnig	krank	geizig	gemein	sonnig	gütig	besonnen	vertrauen	kuss	vergnügt	sterben	gierig	bange	versagen	krise	verbissen	1	blank2r.bmp	0	1	+	0	1	blank2r.bmp	500	1	DHJF	500	1	blank2r.bmp	880	2	ausrottung	880	1	!	-1	1	!	-1	0	0	0	0	0	0
2024-06-12	10:07:11	10:17:45	632211	6.6.1	4_exp_EVA_AWA_CON	81	A	B	Rpleas_acq	Same	Rpleas	1pleas	acq_US_pleas_nomask	acq45_nomask	5	9	400	1	300	300	0	0	399	50	1	0	träumen	anregung	engagiert	kreativ	gesittet	genießen	töten	ausrottung	engstirnig	krank	geizig	gemein	sonnig	gütig	besonnen	vertrauen	kuss	vergnügt	sterben	gierig	bange	versagen	krise	verbissen	1	blank2r.bmp	0	1	+	0	1	blank2r.bmp	500	1	CPLW	500	1	blank2r.bmp	880	6	genießen	880	1	!	1233	1	!	1300	0	0	0	0	0	0
2024-06-12	10:07:11	10:17:47	634402	6.6.1	4_exp_EVA_AWA_CON	81	A	B	Rpleas_acq	Same	Rpleas	1pleas	acq_US_pleas_nomask	acq45_nomask	5	10	400	1	300	300	0	0	409	50	1	0	träumen	anregung	engagiert	kreativ	gesittet	genießen	töten	ausrottung	engstirnig	krank	geizig	gemein	sonnig	gütig	besonnen	vertrauen	kuss	vergnügt	sterben	gierig	bange	versagen	krise	verbissen	1	blank2r.bmp	0	1	+	0	1	blank2r.bmp	500	1	CPLW	500	1	blank2r.bmp	880	1	träumen	880	1	!	1232	1	!	1311	0	0	0	0	0	0
2024-06-12	10:07:11	10:17:49	636496	6.6.1	4_exp_EVA_AWA_CON	81	A	B	Rpleas_acq	Same	Rpleas	1pleas	acq_US_pleas_nomask	acq45_nomask	5	11	400	0	300	300	0	0	314	50	1	0	träumen	anregung	engagiert	kreativ	gesittet	genießen	töten	ausrottung	engstirnig	krank	geizig	gemein	sonnig	gütig	besonnen	vertrauen	kuss	vergnügt	sterben	gierig	bange	versagen	krise	verbissen	1	blank2r.bmp	0	1	+	0	1	blank2r.bmp	500	1	CPLW	500	1	blank2r.bmp	880	3	engagiert	880	1	!	-1	1	!	-1	0	0	0	0	0	0
2024-06-12	10:07:11	10:17:51	638722	6.6.1	4_exp_EVA_AWA_CON	81	A	B	Rpleas_acq	Same	Rpleas	1pleas	acq_US_pleas_nomask	acq45_nomask	5	12	400	1	300	300	0	0	447	50	1	0	träumen	anregung	engagiert	kreativ	gesittet	genießen	töten	ausrottung	engstirnig	krank	geizig	gemein	sonnig	gütig	besonnen	vertrauen	kuss	vergnügt	sterben	gierig	bange	versagen	krise	verbissen	1	blank2r.bmp	0	1	+	0	1	blank2r.bmp	500	1	CPLW	500	1	blank2r.bmp	880	6	genießen	880	1	!	1232	1	!	1348	0	0	0	0	0	0
2024-06-12	10:07:11	10:17:53	640962	6.6.1	4_exp_EVA_AWA_CON	81	A	B	Rpleas_acq	Same	Rpleas	1pleas	acq_US_pleas_nomask	acq45_nomask	5	13	400	1	300	300	0	0	465	50	1	0	träumen	anregung	engagiert	kreativ	gesittet	genießen	töten	ausrottung	engstirnig	krank	geizig	gemein	sonnig	gütig	besonnen	vertrauen	kuss	vergnügt	sterben	gierig	bange	versagen	krise	verbissen	1	blank2r.bmp	0	1	+	0	1	blank2r.bmp	500	1	CPLW	500	1	blank2r.bmp	880	4	kreativ	880	1	!	1233	1	!	1366	0	0	0	0	0	0
2024-06-12	10:07:11	10:17:55	643032	6.6.1	4_exp_EVA_AWA_CON	81	A	B	Rpleas_acq	Same	Rpleas	1pleas	acq_US_unple_nomask	acq45_nomask	5	14	400	0	300	300	0	0	296	46	1	0	träumen	anregung	engagiert	kreativ	gesittet	genießen	töten	ausrottung	engstirnig	krank	geizig	gemein	sonnig	gütig	besonnen	vertrauen	kuss	vergnügt	sterben	gierig	bange	versagen	krise	verbissen	1	blank2r.bmp	0	1	+	0	1	blank2r.bmp	500	1	DHJF	500	1	blank2r.bmp	880	3	engstirnig	880	1	!	-1	1	!	-1	0	0	0	0	0	0
2024-06-12	10:07:11	10:17:58	645211	6.6.1	4_exp_EVA_AWA_CON	81	A	B	Rpleas_acq	Same	Rpleas	1pleas	acq_US_unple_nomask	acq45_nomask	5	15	400	1	300	300	0	0	401	46	1	0	träumen	anregung	engagiert	kreativ	gesittet	genießen	töten	ausrottung	engstirnig	krank	geizig	gemein	sonnig	gütig	besonnen	vertrauen	kuss	vergnügt	sterben	gierig	bange	versagen	krise	verbissen	1	blank2r.bmp	0	1	+	0	1	blank2r.bmp	500	1	DHJF	500	1	blank2r.bmp	880	1	töten	880	1	!	1233	1	!	1302	0	0	0	0	0	0
2024-06-12	10:07:11	10:18:00	647386	6.6.1	4_exp_EVA_AWA_CON	81	A	B	Rpleas_acq	Same	Rpleas	1pleas	acq_US_unple_nomask	acq45_nomask	5	16	400	1	300	300	0	0	395	46	1	0	träumen	anregung	engagiert	kreativ	gesittet	genießen	töten	ausrottung	engstirnig	krank	geizig	gemein	sonnig	gütig	besonnen	vertrauen	kuss	vergnügt	sterben	gierig	bange	versagen	krise	verbissen	1	blank2r.bmp	0	1	+	0	1	blank2r.bmp	500	1	DHJF	500	1	blank2r.bmp	880	3	engstirnig	880	1	!	1233	1	!	1296	0	0	0	0	0	0
2024-06-12	10:07:11	10:18:02	649578	6.6.1	4_exp_EVA_AWA_CON	81	A	B	Rpleas_acq	Same	Rpleas	1pleas	acq_US_unple_nomask	acq45_nomask	5	17	400	1	300	300	0	0	416	46	1	0	träumen	anregung	engagiert	kreativ	gesittet	genießen	töten	ausrottung	engstirnig	krank	geizig	gemein	sonnig	gütig	besonnen	vertrauen	kuss	vergnügt	sterben	gierig	bange	versagen	krise	verbissen	1	blank2r.bmp	0	1	+	0	1	blank2r.bmp	500	1	DHJF	500	1	blank2r.bmp	880	6	gemein	880	1	!	1232	1	!	1317	0	0	0	0	0	0
2024-06-12	10:07:11	10:18:04	651673	6.6.1	4_exp_EVA_AWA_CON	81	A	B	Rpleas_acq	Same	Rpleas	1pleas	acq_US_pleas_nomask	acq45_nomask	5	18	400	0	300	300	0	0	320	46	0	0	träumen	anregung	engagiert	kreativ	gesittet	genießen	töten	ausrottung	engstirnig	krank	geizig	gemein	sonnig	gütig	besonnen	vertrauen	kuss	vergnügt	sterben	gierig	bange	versagen	krise	verbissen	1	blank2r.bmp	0	1	+	0	1	blank2r.bmp	500	1	CPLW	500	1	blank2r.bmp	880	3	engagiert	880	1	!	-1	1	!	-1	0	0	0	0	0	0
2024-06-12	10:07:11	10:18:06	653968	6.6.1	4_exp_EVA_AWA_CON	81	A	B	Rpleas_acq	Same	Rpleas	1pleas	acq_US_unple_nomask	acq45_nomask	5	19	400	0	300	300	0	0	515	46	1	0	träumen	anregung	engagiert	kreativ	gesittet	genießen	töten	ausrottung	engstirnig	krank	geizig	gemein	sonnig	gütig	besonnen	vertrauen	kuss	vergnügt	sterben	gierig	bange	versagen	krise	verbissen	1	blank2r.bmp	0	1	+	0	1	blank2r.bmp	500	1	DHJF	500	1	blank2r.bmp	880	4	krank	880	1	!	1232	1	!	-1	0	0	0	0	0	0
2024-06-12	10:07:11	10:18:09	656232	6.6.1	4_exp_EVA_AWA_CON	81	A	B	Rpleas_acq	Same	Rpleas	1pleas	acq_US_pleas_nomask	acq45_nomask	5	20	400	0	300	300	0	0	487	50	1	0	träumen	anregung	engagiert	kreativ	gesittet	genießen	töten	ausrottung	engstirnig	krank	geizig	gemein	sonnig	gütig	besonnen	vertrauen	kuss	vergnügt	sterben	gierig	bange	versagen	krise	verbissen	1	blank2r.bmp	0	1	+	0	1	blank2r.bmp	500	1	CPLW	500	1	blank2r.bmp	880	1	träumen	880	1	!	1232	1	!	-1	0	0	0	0	0	0
2024-06-12	10:07:11	10:18:11	658478	6.6.1	4_exp_EVA_AWA_CON	81	A	B	Rpleas_acq	Same	Rpleas	1pleas	acq_US_unple_nomask	acq45_nomask	5	21	400	0	300	300	0	0	474	46	1	0	träumen	anregung	engagiert	kreativ	gesittet	genießen	töten	ausrottung	engstirnig	krank	geizig	gemein	sonnig	gütig	besonnen	vertrauen	kuss	vergnügt	sterben	gierig	bange	versagen	krise	verbissen	1	blank2r.bmp	0	1	+	0	1	blank2r.bmp	500	1	DHJF	500	1	blank2r.bmp	880	5	geizig	880	1	!	1233	1	!	-1	0	0	0	0	0	0
2024-06-12	10:07:11	10:18:13	660734	6.6.1	4_exp_EVA_AWA_CON	81	A	B	Rpleas_acq	Same	Rpleas	1pleas	acq_US_unple_nomask	acq45_nomask	5	22	400	0	300	300	0	0	479	50	0	0	träumen	anregung	engagiert	kreativ	gesittet	genießen	töten	ausrottung	engstirnig	krank	geizig	gemein	sonnig	gütig	besonnen	vertrauen	kuss	vergnügt	sterben	gierig	bange	versagen	krise	verbissen	1	blank2r.bmp	0	1	+	0	1	blank2r.bmp	500	1	DHJF	500	1	blank2r.bmp	880	2	ausrottung	880	1	!	1232	1	!	-1	0	0	0	0	0	0
2024-06-12	10:07:11	10:18:16	663200	6.6.1	4_exp_EVA_AWA_CON	81	A	B	Rpleas_acq	Same	Rpleas	1pleas	acq_US_pleas_nomask	acq45_nomask	5	23	400	0	300	300	0	0	691	50	1	0	träumen	anregung	engagiert	kreativ	gesittet	genießen	töten	ausrottung	engstirnig	krank	geizig	gemein	sonnig	gütig	besonnen	vertrauen	kuss	vergnügt	sterben	gierig	bange	versagen	krise	verbissen	1	blank2r.bmp	0	1	+	0	1	blank2r.bmp	500	1	CPLW	500	1	blank2r.bmp	880	2	anregung	880	1	!	1232	1	!	-1	0	0	0	0	0	0
2024-06-12	10:07:11	10:18:18	665426	6.6.1	4_exp_EVA_AWA_CON	81	A	B	Rpleas_acq	Same	Rpleas	1pleas	acq_US_unple_nomask	acq45_nomask	5	24	400	1	300	300	0	0	444	46	1	0	träumen	anregung	engagiert	kreativ	gesittet	genießen	töten	ausrottung	engstirnig	krank	geizig	gemein	sonnig	gütig	besonnen	vertrauen	kuss	vergnügt	sterben	gierig	bange	versagen	krise	verbissen	1	blank2r.bmp	0	1	+	0	1	blank2r.bmp	500	1	DHJF	500	1	blank2r.bmp	880	2	ausrottung	880	1	!	1233	1	!	1345	0	0	0	0	0	0
2024-06-12	10:07:11	10:18:20	667626	6.6.1	4_exp_EVA_AWA_CON	81	A	B	Rpleas_acq	Same	Rpleas	1pleas	acq_US_unple_nomask	acq45_nomask	5	25	400	1	300	300	0	0	422	46	1	0	träumen	anregung	engagiert	kreativ	gesittet	genießen	töten	ausrottung	engstirnig	krank	geizig	gemein	sonnig	gütig	besonnen	vertrauen	kuss	vergnügt	sterben	gierig	bange	versagen	krise	verbissen	1	blank2r.bmp	0	1	+	0	1	blank2r.bmp	500	1	DHJF	500	1	blank2r.bmp	880	1	töten	880	1	!	1232	1	!	1323	0	0	0	0	0	0
2024-06-12	10:07:11	10:18:22	670048	6.6.1	4_exp_EVA_AWA_CON	81	A	B	Rpleas_acq	Same	Rpleas	1pleas	acq_US_pleas_nomask	acq45_nomask	5	26	400	0	300	300	0	0	645	50	1	0	träumen	anregung	engagiert	kreativ	gesittet	genießen	töten	ausrottung	engstirnig	krank	geizig	gemein	sonnig	gütig	besonnen	vertrauen	kuss	vergnügt	sterben	gierig	bange	versagen	krise	verbissen	1	blank2r.bmp	0	1	+	0	1	blank2r.bmp	500	1	CPLW	500	1	blank2r.bmp	880	5	gesittet	880	1	!	1233	1	!	-1	0	0	0	0	0	0
2024-06-12	10:07:11	10:18:25	672186	6.6.1	4_exp_EVA_AWA_CON	81	A	B	Rpleas_acq	Same	Rpleas	1pleas	acq_US_pleas_nomask	acq45_nomask	5	27	400	1	300	300	0	0	359	46	0	0	träumen	anregung	engagiert	kreativ	gesittet	genießen	töten	ausrottung	engstirnig	krank	geizig	gemein	sonnig	gütig	besonnen	vertrauen	kuss	vergnügt	sterben	gierig	bange	versagen	krise	verbissen	1	blank2r.bmp	0	1	+	0	1	blank2r.bmp	500	1	CPLW	500	1	blank2r.bmp	880	6	genießen	880	1	!	1232	1	!	1260	0	0	0	0	0	0
2024-06-12	10:07:11	10:18:27	674426	6.6.1	4_exp_EVA_AWA_CON	81	A	B	Rpleas_acq	Same	Rpleas	1pleas	acq_US_unple_nomask	acq45_nomask	5	28	400	1	300	300	0	0	458	46	1	0	träumen	anregung	engagiert	kreativ	gesittet	genießen	töten	ausrottung	engstirnig	krank	geizig	gemein	sonnig	gütig	besonnen	vertrauen	kuss	vergnügt	sterben	gierig	bange	versagen	krise	verbissen	1	blank2r.bmp	0	1	+	0	1	blank2r.bmp	500	1	DHJF	500	1	blank2r.bmp	880	6	gemein	880	1	!	1233	1	!	1359	0	0	0	0	0	0
2024-06-12	10:07:11	10:18:29	676832	6.6.1	4_exp_EVA_AWA_CON	81	A	B	Rpleas_acq	Same	Rpleas	1pleas	acq_US_pleas_nomask	acq45_nomask	5	29	400	0	300	300	0	0	624	50	1	0	träumen	anregung	engagiert	kreativ	gesittet	genießen	töten	ausrottung	engstirnig	krank	geizig	gemein	sonnig	gütig	besonnen	vertrauen	kuss	vergnügt	sterben	gierig	bange	versagen	krise	verbissen	1	blank2r.bmp	0	1	+	0	1	blank2r.bmp	500	1	CPLW	500	1	blank2r.bmp	880	2	anregung	880	1	!	1233	1	!	-1	0	0	0	0	0	0
2024-06-12	10:07:11	10:18:31	679104	6.6.1	4_exp_EVA_AWA_CON	81	A	B	Rpleas_acq	Same	Rpleas	1pleas	acq_US_pleas_nomask	acq45_nomask	5	30	400	0	300	300	0	0	495	50	1	0	träumen	anregung	engagiert	kreativ	gesittet	genießen	töten	ausrottung	engstirnig	krank	geizig	gemein	sonnig	gütig	besonnen	vertrauen	kuss	vergnügt	sterben	gierig	bange	versagen	krise	verbissen	1	blank2r.bmp	0	1	+	0	1	blank2r.bmp	500	1	CPLW	500	1	blank2r.bmp	880	1	träumen	880	1	!	1232	1	!	-1	0	0	0	0	0	0
2024-06-12	10:07:11	10:18:34	681358	6.6.1	4_exp_EVA_AWA_CON	81	A	B	Rpleas_acq	Same	Rpleas	1pleas	acq_US_unple_nomask	acq45_nomask	5	31	400	0	300	300	0	0	479	46	1	0	träumen	anregung	engagiert	kreativ	gesittet	genießen	töten	ausrottung	engstirnig	krank	geizig	gemein	sonnig	gütig	besonnen	vertrauen	kuss	vergnügt	sterben	gierig	bange	versagen	krise	verbissen	1	blank2r.bmp	0	1	+	0	1	blank2r.bmp	500	1	DHJF	500	1	blank2r.bmp	880	5	geizig	880	1	!	1232	1	!	-1	0	0	0	0	0	0
2024-06-12	10:07:11	10:18:36	683506	6.6.1	4_exp_EVA_AWA_CON	81	A	B	Rpleas_acq	Same	Rpleas	1pleas	acq_US_unple_nomask	acq45_nomask	5	32	400	1	300	300	0	0	372	50	0	0	träumen	anregung	engagiert	kreativ	gesittet	genießen	töten	ausrottung	engstirnig	krank	geizig	gemein	sonnig	gütig	besonnen	vertrauen	kuss	vergnügt	sterben	gierig	bange	versagen	krise	verbissen	1	blank2r.bmp	0	1	+	0	1	blank2r.bmp	500	1	DHJF	500	1	blank2r.bmp	880	3	engstirnig	880	1	!	1233	1	!	1273	0	0	0	0	0	0
2024-06-12	10:07:11	10:18:38	685816	6.6.1	4_exp_EVA_AWA_CON	81	A	B	Rpleas_acq	Same	Rpleas	1pleas	acq_US_pleas_nomask	acq45_nomask	5	33	400	0	300	300	0	0	532	46	0	0	träumen	anregung	engagiert	kreativ	gesittet	genießen	töten	ausrottung	engstirnig	krank	geizig	gemein	sonnig	gütig	besonnen	vertrauen	kuss	vergnügt	sterben	gierig	bange	versagen	krise	verbissen	1	blank2r.bmp	0	1	+	0	1	blank2r.bmp	500	1	CPLW	500	1	blank2r.bmp	880	5	gesittet	880	1	!	1232	1	!	-1	0	0	0	0	0	0
2024-06-12	10:07:11	10:18:40	688002	6.6.1	4_exp_EVA_AWA_CON	81	A	B	Rpleas_acq	Same	Rpleas	1pleas	acq_US_pleas_nomask	acq45_nomask	5	34	400	1	300	300	0	0	405	50	1	0	träumen	anregung	engagiert	kreativ	gesittet	genießen	töten	ausrottung	engstirnig	krank	geizig	gemein	sonnig	gütig	besonnen	vertrauen	kuss	vergnügt	sterben	gierig	bange	versagen	krise	verbissen	1	blank2r.bmp	0	1	+	0	1	blank2r.bmp	500	1	CPLW	500	1	blank2r.bmp	880	3	engagiert	880	1	!	1232	1	!	1306	0	0	0	0	0	0
2024-06-12	10:07:11	10:18:42	690120	6.6.1	4_exp_EVA_AWA_CON	81	A	B	Rpleas_acq	Same	Rpleas	1pleas	acq_US_pleas_nomask	acq45_nomask	5	35	400	1	300	300	0	0	344	46	0	0	träumen	anregung	engagiert	kreativ	gesittet	genießen	töten	ausrottung	engstirnig	krank	geizig	gemein	sonnig	gütig	besonnen	vertrauen	kuss	vergnügt	sterben	gierig	bange	versagen	krise	verbissen	1	blank2r.bmp	0	1	+	0	1	blank2r.bmp	500	1	CPLW	500	1	blank2r.bmp	880	4	kreativ	880	1	!	1232	1	!	1243	0	0	0	0	0	0
2024-06-12	10:07:11	10:18:45	692314	6.6.1	4_exp_EVA_AWA_CON	81	A	B	Rpleas_acq	Same	Rpleas	1pleas	acq_US_unple_nomask	acq45_nomask	5	36	400	1	300	300	0	0	414	50	0	0	träumen	anregung	engagiert	kreativ	gesittet	genießen	töten	ausrottung	engstirnig	krank	geizig	gemein	sonnig	gütig	besonnen	vertrauen	kuss	vergnügt	sterben	gierig	bange	versagen	krise	verbissen	1	blank2r.bmp	0	1	+	0	1	blank2r.bmp	500	1	DHJF	500	1	blank2r.bmp	880	4	krank	880	1	!	1232	1	!	1315	0	0	0	0	0	0
2024-06-12	10:07:11	10:19:10	718045	6.6.1	4_exp_EVA_AWA_CON	81	A	B	Rpleas_acq	Same	Rpleas	1pleas	EvalRating_firsttwo	EvalRating_firsttwo	6	1	0	0	300	300	0	0	5975	line	0	-73,3072916666666571928pct	träumen	anregung	engagiert	kreativ	gesittet	genießen	töten	ausrottung	engstirnig	krank	geizig	gemein	sonnig	gütig	besonnen	vertrauen	kuss	vergnügt	sterben	gierig	bange	versagen	krise	verbissen	1		-8	1	Wie angenehm oder unangenehm finden Sie die  Buchstabenkette WDLH?	-8	1		-8	1		-8	1		-8	1	Unangenehm	-8	1	Angenehm	-8	0	0	0	0	0	0	0	0	0
2024-06-12	10:07:11	10:19:21	728636	6.6.1	4_exp_EVA_AWA_CON	81	A	B	Rpleas_acq	Same	Rpleas	1pleas	EvalRating_lastfour	EvalRating_lastfour	7	1	0	0	300	300	0	0	8211	line	0	-48,4375pct	träumen	anregung	engagiert	kreativ	gesittet	genießen	töten	ausrottung	engstirnig	krank	geizig	gemein	sonnig	gütig	besonnen	vertrauen	kuss	vergnügt	sterben	gierig	bange	versagen	krise	verbissen	1		-7	1	Wie angenehm oder unangenehm finden Sie die  Buchstabenkette CPLW?	-7	1		-7	1		-7	1		-7	1	Unangenehm	-7	1	Angenehm	-7	0	0	0	0	0	0	0	0	0
2024-06-12	10:07:11	10:19:23	731005	6.6.1	4_exp_EVA_AWA_CON	81	A	B	Rpleas_acq	Same	Rpleas	1pleas	blank_screen	EvalRating_lastfour	7	3	0	0	300	300	0	0	0	0	0	-48,4375pct	träumen	anregung	engagiert	kreativ	gesittet	genießen	töten	ausrottung	engstirnig	krank	geizig	gemein	sonnig	gütig	besonnen	vertrauen	kuss	vergnügt	sterben	gierig	bange	versagen	krise	verbissen	1		-8	0	0	0	0	0	0	0	0	0	0	0	0	0	0	0	0	0	0	0	0	0	0	0	0	0	0	0
2024-06-12	10:07:11	10:19:30	737613	6.6.1	4_exp_EVA_AWA_CON	81	A	B	Rpleas_acq	Same	Rpleas	1pleas	EvalRating_lastfour	EvalRating_lastfour	7	4	0	0	300	300	0	0	6020	line	0	-31,5104166666666571928pct	träumen	anregung	engagiert	kreativ	gesittet	genießen	töten	ausrottung	engstirnig	krank	geizig	gemein	sonnig	gütig	besonnen	vertrauen	kuss	vergnügt	sterben	gierig	bange	versagen	krise	verbissen	1		-8	2	Wie angenehm oder unangenehm finden Sie die  Buchstabenkette DHJF?	-8	1		-8	1		-8	1		-8	1	Unangenehm	-8	1	Angenehm	-8	0	0	0	0	0	0	0	0	0
2024-06-12	10:07:11	10:19:32	739980	6.6.1	4_exp_EVA_AWA_CON	81	A	B	Rpleas_acq	Same	Rpleas	1pleas	blank_screen	EvalRating_lastfour	7	6	0	0	300	300	0	0	0	0	0	-31,5104166666666571928pct	träumen	anregung	engagiert	kreativ	gesittet	genießen	töten	ausrottung	engstirnig	krank	geizig	gemein	sonnig	gütig	besonnen	vertrauen	kuss	vergnügt	sterben	gierig	bange	versagen	krise	verbissen	1		-8	0	0	0	0	0	0	0	0	0	0	0	0	0	0	0	0	0	0	0	0	0	0	0	0	0	0	0
2024-06-12	10:07:11	10:19:35	742781	6.6.1	4_exp_EVA_AWA_CON	81	A	B	Rpleas_acq	Same	Rpleas	1pleas	EvalRating_lastfour	EvalRating_lastfour	7	7	0	0	300	300	0	0	2212	line	0	-52,34375pct	träumen	anregung	engagiert	kreativ	gesittet	genießen	töten	ausrottung	engstirnig	krank	geizig	gemein	sonnig	gütig	besonnen	vertrauen	kuss	vergnügt	sterben	gierig	bange	versagen	krise	verbissen	1		-8	3	Wie angenehm oder unangenehm finden Sie die  Buchstabenkette FCJP?	-8	1		-8	1		-8	1		-8	1	Unangenehm	-8	1	Angenehm	-8	0	0	0	0	0	0	0	0	0
2024-06-12	10:07:11	10:20:20	787699	6.6.1	4_exp_EVA_AWA_CON	81	A	B	Rpleas_acq	Same	Rpleas	1pleas	conawa_CS1_US5	conawa1_nomask	8	1	0	0	300	300	0	0	16803	krise	1	-52,34375pct	träumen	anregung	engagiert	kreativ	gesittet	genießen	töten	ausrottung	engstirnig	krank	geizig	gemein	sonnig	gütig	besonnen	vertrauen	kuss	vergnügt	sterben	gierig	bange	versagen	krise	verbissen	0	0	0	0	0	0	0	0	0	0	0	0	0	0	0	0	0	0	0	0	0	0	0	0	0	0	0	0	0	0
2024-06-12	10:07:11	10:20:20	787700	6.6.1	4_exp_EVA_AWA_CON	81	A	B	Rpleas_acq	Same	Rpleas	1pleas	conawa_CS1_US5_confidence	conawa1_nomask	8	1	0	0	300	300	0	0	16803	guess	1	-52,34375pct	träumen	anregung	engagiert	kreativ	gesittet	genießen	töten	ausrottung	engstirnig	krank	geizig	gemein	sonnig	gütig	besonnen	vertrauen	kuss	vergnügt	sterben	gierig	bange	versagen	krise	verbissen	0	0	0	0	0	0	0	0	0	0	0	0	0	0	0	0	0	0	0	0	0	0	0	0	0	0	0	0	0	0
2024-06-12	10:07:11	10:20:30	797505	6.6.1	4_exp_EVA_AWA_CON	81	A	B	Rpleas_acq	Same	Rpleas	1pleas	conawa_CS2_US6	conawa1_nomask	8	2	0	0	300	300	0	0	9182	gemein	1	-52,34375pct	träumen	anregung	engagiert	kreativ	gesittet	genießen	töten	ausrottung	engstirnig	krank	geizig	gemein	sonnig	gütig	besonnen	vertrauen	kuss	vergnügt	sterben	gierig	bange	versagen	krise	verbissen	0	0	0	0	0	0	0	0	0	0	0	0	0	0	0	0	0	0	0	0	0	0	0	0	0	0	0	0	0	0
2024-06-12	10:07:11	10:20:30	797507	6.6.1	4_exp_EVA_AWA_CON	81	A	B	Rpleas_acq	Same	Rpleas	1pleas	conawa_CS2_US6_confidence	conawa1_nomask	8	2	0	0	300	300	0	0	9182	guess	1	-52,34375pct	träumen	anregung	engagiert	kreativ	gesittet	genießen	töten	ausrottung	engstirnig	krank	geizig	gemein	sonnig	gütig	besonnen	vertrauen	kuss	vergnügt	sterben	gierig	bange	versagen	krise	verbissen	0	0	0	0	0	0	0	0	0	0	0	0	0	0	0	0	0	0	0	0	0	0	0	0	0	0	0	0	0	0
2024-06-12	10:07:11	10:20:45	812245	6.6.1	4_exp_EVA_AWA_CON	81	A	B	Rpleas_acq	Same	Rpleas	1pleas	conawa_CS2_US1	conawa1_nomask	8	3	0	0	300	300	0	0	14121	gierig	1	-52,34375pct	träumen	anregung	engagiert	kreativ	gesittet	genießen	töten	ausrottung	engstirnig	krank	geizig	gemein	sonnig	gütig	besonnen	vertrauen	kuss	vergnügt	sterben	gierig	bange	versagen	krise	verbissen	0	0	0	0	0	0	0	0	0	0	0	0	0	0	0	0	0	0	0	0	0	0	0	0	0	0	0	0	0	0
2024-06-12	10:07:11	10:20:45	812246	6.6.1	4_exp_EVA_AWA_CON	81	A	B	Rpleas_acq	Same	Rpleas	1pleas	conawa_CS2_US1_confidence	conawa1_nomask	8	3	0	0	300	300	0	0	14121	guess	1	-52,34375pct	träumen	anregung	engagiert	kreativ	gesittet	genießen	töten	ausrottung	engstirnig	krank	geizig	gemein	sonnig	gütig	besonnen	vertrauen	kuss	vergnügt	sterben	gierig	bange	versagen	krise	verbissen	0	0	0	0	0	0	0	0	0	0	0	0	0	0	0	0	0	0	0	0	0	0	0	0	0	0	0	0	0	0
2024-06-12	10:07:11	10:20:56	823582	6.6.1	4_exp_EVA_AWA_CON	81	A	B	Rpleas_acq	Same	Rpleas	1pleas	conawa_CS1_US1	conawa1_nomask	8	4	0	0	300	300	0	0	10720	sterben	1	-52,34375pct	träumen	anregung	engagiert	kreativ	gesittet	genießen	töten	ausrottung	engstirnig	krank	geizig	gemein	sonnig	gütig	besonnen	vertrauen	kuss	vergnügt	sterben	gierig	bange	versagen	krise	verbissen	0	0	0	0	0	0	0	0	0	0	0	0	0	0	0	0	0	0	0	0	0	0	0	0	0	0	0	0	0	0
2024-06-12	10:07:11	10:20:56	823583	6.6.1	4_exp_EVA_AWA_CON	81	A	B	Rpleas_acq	Same	Rpleas	1pleas	conawa_CS1_US1_confidence	conawa1_nomask	8	4	0	0	300	300	0	0	10720	guess	1	-52,34375pct	träumen	anregung	engagiert	kreativ	gesittet	genießen	töten	ausrottung	engstirnig	krank	geizig	gemein	sonnig	gütig	besonnen	vertrauen	kuss	vergnügt	sterben	gierig	bange	versagen	krise	verbissen	0	0	0	0	0	0	0	0	0	0	0	0	0	0	0	0	0	0	0	0	0	0	0	0	0	0	0	0	0	0
2024-06-12	10:07:11	10:21:05	832578	6.6.1	4_exp_EVA_AWA_CON	81	A	B	Rpleas_acq	Same	Rpleas	1pleas	conawa_CS1_US3	conawa1_nomask	8	5	0	0	300	300	0	0	8376	engstirnig	1	-52,34375pct	träumen	anregung	engagiert	kreativ	gesittet	genießen	töten	ausrottung	engstirnig	krank	geizig	gemein	sonnig	gütig	besonnen	vertrauen	kuss	vergnügt	sterben	gierig	bange	versagen	krise	verbissen	0	0	0	0	0	0	0	0	0	0	0	0	0	0	0	0	0	0	0	0	0	0	0	0	0	0	0	0	0	0
2024-06-12	10:07:11	10:21:05	832579	6.6.1	4_exp_EVA_AWA_CON	81	A	B	Rpleas_acq	Same	Rpleas	1pleas	conawa_CS1_US3_confidence	conawa1_nomask	8	5	0	0	300	300	0	0	8376	guess	1	-52,34375pct	träumen	anregung	engagiert	kreativ	gesittet	genießen	töten	ausrottung	engstirnig	krank	geizig	gemein	sonnig	gütig	besonnen	vertrauen	kuss	vergnügt	sterben	gierig	bange	versagen	krise	verbissen	0	0	0	0	0	0	0	0	0	0	0	0	0	0	0	0	0	0	0	0	0	0	0	0	0	0	0	0	0	0
2024-06-12	10:07:11	10:21:15	842464	6.6.1	4_exp_EVA_AWA_CON	81	A	B	Rpleas_acq	Same	Rpleas	1pleas	conawa_CS2_US5	conawa1_nomask	8	6	0	0	300	300	0	0	9266	gesittet	1	-52,34375pct	träumen	anregung	engagiert	kreativ	gesittet	genießen	töten	ausrottung	engstirnig	krank	geizig	gemein	sonnig	gütig	besonnen	vertrauen	kuss	vergnügt	sterben	gierig	bange	versagen	krise	verbissen	0	0	0	0	0	0	0	0	0	0	0	0	0	0	0	0	0	0	0	0	0	0	0	0	0	0	0	0	0	0
2024-06-12	10:07:11	10:21:15	842465	6.6.1	4_exp_EVA_AWA_CON	81	A	B	Rpleas_acq	Same	Rpleas	1pleas	conawa_CS2_US5_confidence	conawa1_nomask	8	6	0	0	300	300	0	0	9266	guess	1	-52,34375pct	träumen	anregung	engagiert	kreativ	gesittet	genießen	töten	ausrottung	engstirnig	krank	geizig	gemein	sonnig	gütig	besonnen	vertrauen	kuss	vergnügt	sterben	gierig	bange	versagen	krise	verbissen	0	0	0	0	0	0	0	0	0	0	0	0	0	0	0	0	0	0	0	0	0	0	0	0	0	0	0	0	0	0
2024-06-12	10:07:11	10:21:33	861006	6.6.1	4_exp_EVA_AWA_CON	81	A	B	Rpleas_acq	Same	Rpleas	1pleas	conawa_CS1_US2	conawa1_nomask	8	7	0	0	300	300	0	0	17924	ausrottung	1	-52,34375pct	träumen	anregung	engagiert	kreativ	gesittet	genießen	töten	ausrottung	engstirnig	krank	geizig	gemein	sonnig	gütig	besonnen	vertrauen	kuss	vergnügt	sterben	gierig	bange	versagen	krise	verbissen	0	0	0	0	0	0	0	0	0	0	0	0	0	0	0	0	0	0	0	0	0	0	0	0	0	0	0	0	0	0
2024-06-12	10:07:11	10:21:33	861007	6.6.1	4_exp_EVA_AWA_CON	81	A	B	Rpleas_acq	Same	Rpleas	1pleas	conawa_CS1_US2_confidence	conawa1_nomask	8	7	0	0	300	300	0	0	17924	probably	1	-52,34375pct	träumen	anregung	engagiert	kreativ	gesittet	genießen	töten	ausrottung	engstirnig	krank	geizig	gemein	sonnig	gütig	besonnen	vertrauen	kuss	vergnügt	sterben	gierig	bange	versagen	krise	verbissen	0	0	0	0	0	0	0	0	0	0	0	0	0	0	0	0	0	0	0	0	0	0	0	0	0	0	0	0	0	0
2024-06-12	10:07:11	10:21:44	871363	6.6.1	4_exp_EVA_AWA_CON	81	A	B	Rpleas_acq	Same	Rpleas	1pleas	conawa_CS2_US2	conawa1_nomask	8	8	0	0	300	300	0	0	9735	besonnen	1	-52,34375pct	träumen	anregung	engagiert	kreativ	gesittet	genießen	töten	ausrottung	engstirnig	krank	geizig	gemein	sonnig	gütig	besonnen	vertrauen	kuss	vergnügt	sterben	gierig	bange	versagen	krise	verbissen	0	0	0	0	0	0	0	0	0	0	0	0	0	0	0	0	0	0	0	0	0	0	0	0	0	0	0	0	0	0
2024-06-12	10:07:11	10:21:44	871364	6.6.1	4_exp_EVA_AWA_CON	81	A	B	Rpleas_acq	Same	Rpleas	1pleas	conawa_CS2_US2_confidence	conawa1_nomask	8	8	0	0	300	300	0	0	9735	probably	1	-52,34375pct	träumen	anregung	engagiert	kreativ	gesittet	genießen	töten	ausrottung	engstirnig	krank	geizig	gemein	sonnig	gütig	besonnen	vertrauen	kuss	vergnügt	sterben	gierig	bange	versagen	krise	verbissen	0	0	0	0	0	0	0	0	0	0	0	0	0	0	0	0	0	0	0	0	0	0	0	0	0	0	0	0	0	0
2024-06-12	10:07:11	10:21:50	877267	6.6.1	4_exp_EVA_AWA_CON	81	A	B	Rpleas_acq	Same	Rpleas	1pleas	conawa_CS1_US4	conawa1_nomask	8	9	0	0	300	300	0	0	5288	versagen	1	-52,34375pct	träumen	anregung	engagiert	kreativ	gesittet	genießen	töten	ausrottung	engstirnig	krank	geizig	gemein	sonnig	gütig	besonnen	vertrauen	kuss	vergnügt	sterben	gierig	bange	versagen	krise	verbissen	0	0	0	0	0	0	0	0	0	0	0	0	0	0	0	0	0	0	0	0	0	0	0	0	0	0	0	0	0	0
2024-06-12	10:07:11	10:21:50	877268	6.6.1	4_exp_EVA_AWA_CON	81	A	B	Rpleas_acq	Same	Rpleas	1pleas	conawa_CS1_US4_confidence	conawa1_nomask	8	9	0	0	300	300	0	0	5288	probably	1	-52,34375pct	träumen	anregung	engagiert	kreativ	gesittet	genießen	töten	ausrottung	engstirnig	krank	geizig	gemein	sonnig	gütig	besonnen	vertrauen	kuss	vergnügt	sterben	gierig	bange	versagen	krise	verbissen	0	0	0	0	0	0	0	0	0	0	0	0	0	0	0	0	0	0	0	0	0	0	0	0	0	0	0	0	0	0
2024-06-12	10:07:11	10:21:59	887023	6.6.1	4_exp_EVA_AWA_CON	81	A	B	Rpleas_acq	Same	Rpleas	1pleas	conawa_CS2_US4	conawa1_nomask	8	10	0	0	300	300	0	0	9138	krise	1	-52,34375pct	träumen	anregung	engagiert	kreativ	gesittet	genießen	töten	ausrottung	engstirnig	krank	geizig	gemein	sonnig	gütig	besonnen	vertrauen	kuss	vergnügt	sterben	gierig	bange	versagen	krise	verbissen	0	0	0	0	0	0	0	0	0	0	0	0	0	0	0	0	0	0	0	0	0	0	0	0	0	0	0	0	0	0
2024-06-12	10:07:11	10:21:59	887024	6.6.1	4_exp_EVA_AWA_CON	81	A	B	Rpleas_acq	Same	Rpleas	1pleas	conawa_CS2_US4_confidence	conawa1_nomask	8	10	0	0	300	300	0	0	9138	guess	1	-52,34375pct	träumen	anregung	engagiert	kreativ	gesittet	genießen	töten	ausrottung	engstirnig	krank	geizig	gemein	sonnig	gütig	besonnen	vertrauen	kuss	vergnügt	sterben	gierig	bange	versagen	krise	verbissen	0	0	0	0	0	0	0	0	0	0	0	0	0	0	0	0	0	0	0	0	0	0	0	0	0	0	0	0	0	0
2024-06-12	10:07:11	10:22:08	895658	6.6.1	4_exp_EVA_AWA_CON	81	A	B	Rpleas_acq	Same	Rpleas	1pleas	conawa_CS2_US3	conawa1_nomask	8	11	0	0	300	300	0	0	8010	versagen	1	-52,34375pct	träumen	anregung	engagiert	kreativ	gesittet	genießen	töten	ausrottung	engstirnig	krank	geizig	gemein	sonnig	gütig	besonnen	vertrauen	kuss	vergnügt	sterben	gierig	bange	versagen	krise	verbissen	0	0	0	0	0	0	0	0	0	0	0	0	0	0	0	0	0	0	0	0	0	0	0	0	0	0	0	0	0	0
2024-06-12	10:07:11	10:22:08	895660	6.6.1	4_exp_EVA_AWA_CON	81	A	B	Rpleas_acq	Same	Rpleas	1pleas	conawa_CS2_US3_confidence	conawa1_nomask	8	11	0	0	300	300	0	0	8010	guess	1	-52,34375pct	träumen	anregung	engagiert	kreativ	gesittet	genießen	töten	ausrottung	engstirnig	krank	geizig	gemein	sonnig	gütig	besonnen	vertrauen	kuss	vergnügt	sterben	gierig	bange	versagen	krise	verbissen	0	0	0	0	0	0	0	0	0	0	0	0	0	0	0	0	0	0	0	0	0	0	0	0	0	0	0	0	0	0
2024-06-12	10:07:11	10:22:19	906445	6.6.1	4_exp_EVA_AWA_CON	81	A	B	Rpleas_acq	Same	Rpleas	1pleas	conawa_CS1_US6	conawa1_nomask	8	12	0	0	300	300	0	0	10170	verbissen	1	-52,34375pct	träumen	anregung	engagiert	kreativ	gesittet	genießen	töten	ausrottung	engstirnig	krank	geizig	gemein	sonnig	gütig	besonnen	vertrauen	kuss	vergnügt	sterben	gierig	bange	versagen	krise	verbissen	0	0	0	0	0	0	0	0	0	0	0	0	0	0	0	0	0	0	0	0	0	0	0	0	0	0	0	0	0	0
2024-06-12	10:07:11	10:22:19	906446	6.6.1	4_exp_EVA_AWA_CON	81	A	B	Rpleas_acq	Same	Rpleas	1pleas	conawa_CS1_US6_confidence	conawa1_nomask	8	12	0	0	300	300	0	0	10170	guess	1	-52,34375pct	träumen	anregung	engagiert	kreativ	gesittet	genießen	töten	ausrottung	engstirnig	krank	geizig	gemein	sonnig	gütig	besonnen	vertrauen	kuss	vergnügt	sterben	gierig	bange	versagen	krise	verbissen	0	0	0	0	0	0	0	0	0	0	0	0	0	0	0	0	0	0	0	0	0	0	0	0	0	0	0	0	0	0
2024-06-12	10:07:11	10:26:01	1129056	6.6.1	4_exp_EVA_AWA_CON	81	A	B	Rpleas_acq	Same	Rpleas	1pleas	cond_new_pleas_456_nomask_CS1	condtest_nomask_1	11	1	400	0	300	300	0	0	497	46	0	-52,34375pct	träumen	anregung	engagiert	kreativ	gesittet	genießen	töten	ausrottung	engstirnig	krank	geizig	gemein	sonnig	gütig	besonnen	vertrauen	kuss	vergnügt	sterben	gierig	bange	versagen	krise	verbissen	1	blank2r.bmp	0	1	+	0	1	blank2r.bmp	500	1	CPLW	500	1	blank2r.bmp	880	3	vergnügt	880	1	!	1232	1	!	-1	0	0	0	0	0	0
