date	time	currenttime	elapsedtime	build	currentexpt	subject	CS_AB	US_AB	LRpleas_acq	SameOppo	condition_Lpleas	condition_1pleas	trialcode	blockcode	blocknum	trialnum	windowcenter	inwindow	pretrialpause	posttrialpause	trialduration	trialtimeout	latency	response	correct	correctedscore	US_nomask_pleas1	US_nomask_pleas2	US_nomask_pleas3	US_nomask_pleas4	US_nomask_pleas5	US_nomask_pleas6	US_nomask_unple1	US_nomask_unple2	US_nomask_unple3	US_nomask_unple4	US_nomask_unple5	US_nomask_unple6	new_nomask_pleas1	new_nomask_pleas2	new_nomask_pleas3	new_nomask_pleas4	new_nomask_pleas5	new_nomask_pleas6	new_nomask_unple1	new_nomask_unple2	new_nomask_unple3	new_nomask_unple4	new_nomask_unple5	new_nomask_unple6	stimulusnumber1	stimulusitem1	stimulusonset1	stimulusnumber2	stimulusitem2	stimulusonset2	stimulusnumber3	stimulusitem3	stimulusonset3	stimulusnumber4	stimulusitem4	stimulusonset4	stimulusnumber5	stimulusitem5	stimulusonset5	stimulusnumber6	stimulusitem6	stimulusonset6	stimulusnumber7	stimulusitem7	stimulusonset7	stimulusnumber8	stimulusitem8	stimulusonset8	stimulusnumber9	stimulusitem9	stimulusonset9	stimulusnumber10	stimulusitem10	stimulusonset10
2024-05-10	10:06:53	10:11:25	271234	6.6.1	4_exp_EVA_AWA_CON	17	A	B	Rpleas_acq	Same	Rpleas	1pleas	acq_US_pleas_nomask	acq1_nomask	1	1	0	0	300	300	0	0	2299	50	1	0	kuss	gütig	anregung	vergnügt	gesittet	vertrauen	krise	gierig	ausrottung	verbissen	geizig	versagen	engagiert	genießen	kreativ	besonnen	träumen	sonnig	engstirnig	gemein	krank	bange	töten	sterben	1	blank2r.bmp	0	1	+	0	1	blank2r.bmp	500	1	CPLW	500	1	blank2r.bmp	880	3	anregung	880	0	0	0	0	0	0	0	0	0	0	0	0
2024-05-10	10:06:53	10:11:29	274786	6.6.1	4_exp_EVA_AWA_CON	17	A	B	Rpleas_acq	Same	Rpleas	1pleas	acq_new_unple_nomask	acq1_nomask	1	2	0	0	300	300	0	0	2068	46	1	0	kuss	gütig	anregung	vergnügt	gesittet	vertrauen	krise	gierig	ausrottung	verbissen	geizig	versagen	engagiert	genießen	kreativ	besonnen	träumen	sonnig	engstirnig	gemein	krank	bange	töten	sterben	1	blank2r.bmp	0	1	+	0	1	blank2r.bmp	500	1	B1r.bmp	500	1	blank2r.bmp	880	1	engstirnig	880	0	0	0	0	0	0	0	0	0	0	0	0
2024-05-10	10:06:53	10:11:31	277098	6.6.1	4_exp_EVA_AWA_CON	17	A	B	Rpleas_acq	Same	Rpleas	1pleas	acq_new_unple_nomask	acq1_nomask	1	3	0	0	300	300	0	0	828	46	1	0	kuss	gütig	anregung	vergnügt	gesittet	vertrauen	krise	gierig	ausrottung	verbissen	geizig	versagen	engagiert	genießen	kreativ	besonnen	träumen	sonnig	engstirnig	gemein	krank	bange	töten	sterben	1	blank2r.bmp	0	1	+	0	1	blank2r.bmp	500	5	C1r.bmp	500	1	blank2r.bmp	880	2	gemein	880	0	0	0	0	0	0	0	0	0	0	0	0
2024-05-10	10:06:53	10:11:33	279330	6.6.1	4_exp_EVA_AWA_CON	17	A	B	Rpleas_acq	Same	Rpleas	1pleas	acq_new_pleas_nomask	acq1_nomask	1	4	0	0	300	300	0	0	749	50	1	0	kuss	gütig	anregung	vergnügt	gesittet	vertrauen	krise	gierig	ausrottung	verbissen	geizig	versagen	engagiert	genießen	kreativ	besonnen	träumen	sonnig	engstirnig	gemein	krank	bange	töten	sterben	1	blank2r.bmp	0	1	+	0	1	blank2r.bmp	500	8	C4r.bmp	500	1	blank2r.bmp	880	1	engagiert	880	0	0	0	0	0	0	0	0	0	0	0	0
2024-05-10	10:06:53	10:11:35	281522	6.6.1	4_exp_EVA_AWA_CON	17	A	B	Rpleas_acq	Same	Rpleas	1pleas	acq_US_pleas_nomask	acq1_nomask	1	5	0	0	300	300	0	0	709	50	1	0	kuss	gütig	anregung	vergnügt	gesittet	vertrauen	krise	gierig	ausrottung	verbissen	geizig	versagen	engagiert	genießen	kreativ	besonnen	träumen	sonnig	engstirnig	gemein	krank	bange	töten	sterben	1	blank2r.bmp	0	1	+	0	1	blank2r.bmp	500	1	CPLW	500	1	blank2r.bmp	880	6	vertrauen	880	0	0	0	0	0	0	0	0	0	0	0	0
2024-05-10	10:06:53	10:11:38	283770	6.6.1	4_exp_EVA_AWA_CON	17	A	B	Rpleas_acq	Same	Rpleas	1pleas	acq_US_pleas_nomask	acq1_nomask	1	6	0	0	300	300	0	0	766	50	1	0	kuss	gütig	anregung	vergnügt	gesittet	vertrauen	krise	gierig	ausrottung	verbissen	geizig	versagen	engagiert	genießen	kreativ	besonnen	träumen	sonnig	engstirnig	gemein	krank	bange	töten	sterben	1	blank2r.bmp	0	1	+	0	1	blank2r.bmp	500	1	CPLW	500	1	blank2r.bmp	880	2	gütig	880	0	0	0	0	0	0	0	0	0	0	0	0
2024-05-10	10:06:53	10:11:40	285890	6.6.1	4_exp_EVA_AWA_CON	17	A	B	Rpleas_acq	Same	Rpleas	1pleas	acq_US_unple_nomask	acq1_nomask	1	7	0	0	300	300	0	0	634	46	1	0	kuss	gütig	anregung	vergnügt	gesittet	vertrauen	krise	gierig	ausrottung	verbissen	geizig	versagen	engagiert	genießen	kreativ	besonnen	träumen	sonnig	engstirnig	gemein	krank	bange	töten	sterben	1	blank2r.bmp	0	1	+	0	1	blank2r.bmp	500	1	DHJF	500	1	blank2r.bmp	880	1	krise	880	0	0	0	0	0	0	0	0	0	0	0	0
2024-05-10	10:06:53	10:11:42	288426	6.6.1	4_exp_EVA_AWA_CON	17	A	B	Rpleas_acq	Same	Rpleas	1pleas	acq_US_unple_nomask	acq1_nomask	1	8	0	0	300	300	0	0	1049	46	1	0	kuss	gütig	anregung	vergnügt	gesittet	vertrauen	krise	gierig	ausrottung	verbissen	geizig	versagen	engagiert	genießen	kreativ	besonnen	träumen	sonnig	engstirnig	gemein	krank	bange	töten	sterben	1	blank2r.bmp	0	1	+	0	1	blank2r.bmp	500	1	DHJF	500	1	blank2r.bmp	880	2	gierig	880	0	0	0	0	0	0	0	0	0	0	0	0
2024-05-10	10:06:53	10:11:45	290722	6.6.1	4_exp_EVA_AWA_CON	17	A	B	Rpleas_acq	Same	Rpleas	1pleas	acq_new_pleas_nomask	acq1_nomask	1	9	0	0	300	300	0	0	813	50	1	0	kuss	gütig	anregung	vergnügt	gesittet	vertrauen	krise	gierig	ausrottung	verbissen	geizig	versagen	engagiert	genießen	kreativ	besonnen	träumen	sonnig	engstirnig	gemein	krank	bange	töten	sterben	1	blank2r.bmp	0	1	+	0	1	blank2r.bmp	500	3	B3r.bmp	500	1	blank2r.bmp	880	6	sonnig	880	0	0	0	0	0	0	0	0	0	0	0	0
2024-05-10	10:06:53	10:11:47	292858	6.6.1	4_exp_EVA_AWA_CON	17	A	B	Rpleas_acq	Same	Rpleas	1pleas	acq_new_pleas_nomask	acq1_nomask	1	10	0	0	300	300	0	0	648	50	1	0	kuss	gütig	anregung	vergnügt	gesittet	vertrauen	krise	gierig	ausrottung	verbissen	geizig	versagen	engagiert	genießen	kreativ	besonnen	träumen	sonnig	engstirnig	gemein	krank	bange	töten	sterben	1	blank2r.bmp	0	1	+	0	1	blank2r.bmp	500	4	B4r.bmp	500	1	blank2r.bmp	880	2	genießen	880	0	0	0	0	0	0	0	0	0	0	0	0
2024-05-10	10:06:53	10:11:49	295130	6.6.1	4_exp_EVA_AWA_CON	17	A	B	Rpleas_acq	Same	Rpleas	1pleas	acq_US_unple_nomask	acq1_nomask	1	11	0	0	300	300	0	0	788	46	1	0	kuss	gütig	anregung	vergnügt	gesittet	vertrauen	krise	gierig	ausrottung	verbissen	geizig	versagen	engagiert	genießen	kreativ	besonnen	träumen	sonnig	engstirnig	gemein	krank	bange	töten	sterben	1	blank2r.bmp	0	1	+	0	1	blank2r.bmp	500	1	DHJF	500	1	blank2r.bmp	880	6	versagen	880	0	0	0	0	0	0	0	0	0	0	0	0
2024-05-10	10:06:53	10:11:51	297338	6.6.1	4_exp_EVA_AWA_CON	17	A	B	Rpleas_acq	Same	Rpleas	1pleas	acq_new_unple_nomask	acq1_nomask	1	12	0	0	300	300	0	0	725	46	1	0	kuss	gütig	anregung	vergnügt	gesittet	vertrauen	krise	gierig	ausrottung	verbissen	geizig	versagen	engagiert	genießen	kreativ	besonnen	träumen	sonnig	engstirnig	gemein	krank	bange	töten	sterben	1	blank2r.bmp	0	1	+	0	1	blank2r.bmp	500	6	C2r.bmp	500	1	blank2r.bmp	880	5	töten	880	0	0	0	0	0	0	0	0	0	0	0	0
2024-05-10	10:06:53	10:11:56	302178	6.6.1	4_exp_EVA_AWA_CON	17	A	B	Rpleas_acq	Same	Rpleas	1pleas	acq_new_pleas_nomask	acq1_nomask	1	13	0	0	300	300	0	0	3353	50	1	0	kuss	gütig	anregung	vergnügt	gesittet	vertrauen	krise	gierig	ausrottung	verbissen	geizig	versagen	engagiert	genießen	kreativ	besonnen	träumen	sonnig	engstirnig	gemein	krank	bange	töten	sterben	1	blank2r.bmp	0	1	+	0	1	blank2r.bmp	500	7	C3r.bmp	500	1	blank2r.bmp	880	4	besonnen	880	0	0	0	0	0	0	0	0	0	0	0	0
2024-05-10	10:06:53	10:12:00	305754	6.6.1	4_exp_EVA_AWA_CON	17	A	B	Rpleas_acq	Same	Rpleas	1pleas	acq_new_pleas_nomask	acq1_nomask	1	14	0	0	300	300	0	0	2086	50	1	0	kuss	gütig	anregung	vergnügt	gesittet	vertrauen	krise	gierig	ausrottung	verbissen	geizig	versagen	engagiert	genießen	kreativ	besonnen	träumen	sonnig	engstirnig	gemein	krank	bange	töten	sterben	1	blank2r.bmp	0	1	+	0	1	blank2r.bmp	500	2	B2r.bmp	500	1	blank2r.bmp	880	3	kreativ	880	0	0	0	0	0	0	0	0	0	0	0	0
2024-05-10	10:06:53	10:12:02	308098	6.6.1	4_exp_EVA_AWA_CON	17	A	B	Rpleas_acq	Same	Rpleas	1pleas	acq_new_unple_nomask	acq1_nomask	1	15	0	0	300	300	0	0	858	46	1	0	kuss	gütig	anregung	vergnügt	gesittet	vertrauen	krise	gierig	ausrottung	verbissen	geizig	versagen	engagiert	genießen	kreativ	besonnen	träumen	sonnig	engstirnig	gemein	krank	bange	töten	sterben	1	blank2r.bmp	0	1	+	0	1	blank2r.bmp	500	5	C1r.bmp	500	1	blank2r.bmp	880	4	bange	880	0	0	0	0	0	0	0	0	0	0	0	0
2024-05-10	10:06:53	10:12:06	311626	6.6.1	4_exp_EVA_AWA_CON	17	A	B	Rpleas_acq	Same	Rpleas	1pleas	acq_US_pleas_nomask	acq1_nomask	1	16	0	0	300	300	0	0	2044	50	1	0	kuss	gütig	anregung	vergnügt	gesittet	vertrauen	krise	gierig	ausrottung	verbissen	geizig	versagen	engagiert	genießen	kreativ	besonnen	träumen	sonnig	engstirnig	gemein	krank	bange	töten	sterben	1	blank2r.bmp	0	1	+	0	1	blank2r.bmp	500	1	CPLW	500	1	blank2r.bmp	880	4	vergnügt	880	0	0	0	0	0	0	0	0	0	0	0	0
2024-05-10	10:06:53	10:12:08	313842	6.6.1	4_exp_EVA_AWA_CON	17	A	B	Rpleas_acq	Same	Rpleas	1pleas	acq_new_unple_nomask	acq1_nomask	1	17	0	0	300	300	0	0	728	46	1	0	kuss	gütig	anregung	vergnügt	gesittet	vertrauen	krise	gierig	ausrottung	verbissen	geizig	versagen	engagiert	genießen	kreativ	besonnen	träumen	sonnig	engstirnig	gemein	krank	bange	töten	sterben	1	blank2r.bmp	0	1	+	0	1	blank2r.bmp	500	6	C2r.bmp	500	1	blank2r.bmp	880	6	sterben	880	0	0	0	0	0	0	0	0	0	0	0	0
2024-05-10	10:06:53	10:12:11	317122	6.6.1	4_exp_EVA_AWA_CON	17	A	B	Rpleas_acq	Same	Rpleas	1pleas	acq_US_unple_nomask	acq1_nomask	1	18	0	0	300	300	0	0	1797	46	1	0	kuss	gütig	anregung	vergnügt	gesittet	vertrauen	krise	gierig	ausrottung	verbissen	geizig	versagen	engagiert	genießen	kreativ	besonnen	träumen	sonnig	engstirnig	gemein	krank	bange	töten	sterben	1	blank2r.bmp	0	1	+	0	1	blank2r.bmp	500	1	DHJF	500	1	blank2r.bmp	880	3	ausrottung	880	0	0	0	0	0	0	0	0	0	0	0	0
2024-05-10	10:06:53	10:12:14	320243	6.6.1	4_exp_EVA_AWA_CON	17	A	B	Rpleas_acq	Same	Rpleas	1pleas	acq_US_unple_nomask	acq1_nomask	1	19	0	0	300	300	0	0	1434	50	0	0	kuss	gütig	anregung	vergnügt	gesittet	vertrauen	krise	gierig	ausrottung	verbissen	geizig	versagen	engagiert	genießen	kreativ	besonnen	träumen	sonnig	engstirnig	gemein	krank	bange	töten	sterben	1	blank2r.bmp	0	1	+	0	1	blank2r.bmp	500	1	DHJF	500	1	blank2r.bmp	880	5	geizig	880	1	FEHLER	2336	0	0	0	0	0	0	0	0	0
2024-05-10	10:06:53	10:12:16	322531	6.6.1	4_exp_EVA_AWA_CON	17	A	B	Rpleas_acq	Same	Rpleas	1pleas	acq_US_unple_nomask	acq1_nomask	1	20	0	0	300	300	0	0	1001	46	1	0	kuss	gütig	anregung	vergnügt	gesittet	vertrauen	krise	gierig	ausrottung	verbissen	geizig	versagen	engagiert	genießen	kreativ	besonnen	träumen	sonnig	engstirnig	gemein	krank	bange	töten	sterben	1	blank2r.bmp	0	1	+	0	1	blank2r.bmp	500	1	DHJF	500	1	blank2r.bmp	880	4	verbissen	880	0	0	0	0	0	0	0	0	0	0	0	0
2024-05-10	10:06:53	10:12:19	324634	6.6.1	4_exp_EVA_AWA_CON	17	A	B	Rpleas_acq	Same	Rpleas	1pleas	acq_new_unple_nomask	acq1_nomask	1	21	0	0	300	300	0	0	623	46	1	0	kuss	gütig	anregung	vergnügt	gesittet	vertrauen	krise	gierig	ausrottung	verbissen	geizig	versagen	engagiert	genießen	kreativ	besonnen	träumen	sonnig	engstirnig	gemein	krank	bange	töten	sterben	1	blank2r.bmp	0	1	+	0	1	blank2r.bmp	500	4	B4r.bmp	500	1	blank2r.bmp	880	3	krank	880	0	0	0	0	0	0	0	0	0	0	0	0
2024-05-10	10:06:53	10:12:21	326723	6.6.1	4_exp_EVA_AWA_CON	17	A	B	Rpleas_acq	Same	Rpleas	1pleas	acq_US_pleas_nomask	acq1_nomask	1	22	0	0	300	300	0	0	600	50	1	0	kuss	gütig	anregung	vergnügt	gesittet	vertrauen	krise	gierig	ausrottung	verbissen	geizig	versagen	engagiert	genießen	kreativ	besonnen	träumen	sonnig	engstirnig	gemein	krank	bange	töten	sterben	1	blank2r.bmp	0	1	+	0	1	blank2r.bmp	500	1	CPLW	500	1	blank2r.bmp	880	1	kuss	880	0	0	0	0	0	0	0	0	0	0	0	0
2024-05-10	10:06:53	10:12:23	329338	6.6.1	4_exp_EVA_AWA_CON	17	A	B	Rpleas_acq	Same	Rpleas	1pleas	acq_US_pleas_nomask	acq1_nomask	1	23	0	0	300	300	0	0	1134	50	1	0	kuss	gütig	anregung	vergnügt	gesittet	vertrauen	krise	gierig	ausrottung	verbissen	geizig	versagen	engagiert	genießen	kreativ	besonnen	träumen	sonnig	engstirnig	gemein	krank	bange	töten	sterben	1	blank2r.bmp	0	1	+	0	1	blank2r.bmp	500	1	CPLW	500	1	blank2r.bmp	880	5	gesittet	880	0	0	0	0	0	0	0	0	0	0	0	0
2024-05-10	10:06:53	10:12:25	331394	6.6.1	4_exp_EVA_AWA_CON	17	A	B	Rpleas_acq	Same	Rpleas	1pleas	acq_new_pleas_nomask	acq1_nomask	1	24	0	0	300	300	0	0	568	50	1	0	kuss	gütig	anregung	vergnügt	gesittet	vertrauen	krise	gierig	ausrottung	verbissen	geizig	versagen	engagiert	genießen	kreativ	besonnen	träumen	sonnig	engstirnig	gemein	krank	bange	töten	sterben	1	blank2r.bmp	0	1	+	0	1	blank2r.bmp	500	3	B3r.bmp	500	1	blank2r.bmp	880	5	träumen	880	0	0	0	0	0	0	0	0	0	0	0	0
2024-05-10	10:06:53	10:12:27	333418	6.6.1	4_exp_EVA_AWA_CON	17	A	B	Rpleas_acq	Same	Rpleas	1pleas	acq_US_unple_nomask	acq1_nomask	1	25	0	0	300	300	0	0	541	46	1	0	kuss	gütig	anregung	vergnügt	gesittet	vertrauen	krise	gierig	ausrottung	verbissen	geizig	versagen	engagiert	genießen	kreativ	besonnen	träumen	sonnig	engstirnig	gemein	krank	bange	töten	sterben	1	blank2r.bmp	0	1	+	0	1	blank2r.bmp	500	1	DHJF	500	1	blank2r.bmp	880	1	krise	880	0	0	0	0	0	0	0	0	0	0	0	0
2024-05-10	10:06:53	10:12:29	335379	6.6.1	4_exp_EVA_AWA_CON	17	A	B	Rpleas_acq	Same	Rpleas	1pleas	acq_US_unple_nomask	acq1_nomask	1	26	0	0	300	300	0	0	470	46	1	0	kuss	gütig	anregung	vergnügt	gesittet	vertrauen	krise	gierig	ausrottung	verbissen	geizig	versagen	engagiert	genießen	kreativ	besonnen	träumen	sonnig	engstirnig	gemein	krank	bange	töten	sterben	1	blank2r.bmp	0	1	+	0	1	blank2r.bmp	500	1	DHJF	500	1	blank2r.bmp	880	4	verbissen	880	0	0	0	0	0	0	0	0	0	0	0	0
2024-05-10	10:06:53	10:12:31	337370	6.6.1	4_exp_EVA_AWA_CON	17	A	B	Rpleas_acq	Same	Rpleas	1pleas	acq_new_unple_nomask	acq1_nomask	1	27	0	0	300	300	0	0	510	46	1	0	kuss	gütig	anregung	vergnügt	gesittet	vertrauen	krise	gierig	ausrottung	verbissen	geizig	versagen	engagiert	genießen	kreativ	besonnen	träumen	sonnig	engstirnig	gemein	krank	bange	töten	sterben	1	blank2r.bmp	0	1	+	0	1	blank2r.bmp	500	7	C3r.bmp	500	1	blank2r.bmp	880	6	sterben	880	0	0	0	0	0	0	0	0	0	0	0	0
2024-05-10	10:06:53	10:12:34	339666	6.6.1	4_exp_EVA_AWA_CON	17	A	B	Rpleas_acq	Same	Rpleas	1pleas	acq_new_pleas_nomask	acq1_nomask	1	28	0	0	300	300	0	0	805	50	1	0	kuss	gütig	anregung	vergnügt	gesittet	vertrauen	krise	gierig	ausrottung	verbissen	geizig	versagen	engagiert	genießen	kreativ	besonnen	träumen	sonnig	engstirnig	gemein	krank	bange	töten	sterben	1	blank2r.bmp	0	1	+	0	1	blank2r.bmp	500	2	B2r.bmp	500	1	blank2r.bmp	880	1	engagiert	880	0	0	0	0	0	0	0	0	0	0	0	0
2024-05-10	10:06:53	10:12:36	342316	6.6.1	4_exp_EVA_AWA_CON	17	A	B	Rpleas_acq	Same	Rpleas	1pleas	acq_US_pleas_nomask	acq1_nomask	1	29	0	0	300	300	0	0	962	46	0	0	kuss	gütig	anregung	vergnügt	gesittet	vertrauen	krise	gierig	ausrottung	verbissen	geizig	versagen	engagiert	genießen	kreativ	besonnen	träumen	sonnig	engstirnig	gemein	krank	bange	töten	sterben	1	blank2r.bmp	0	1	+	0	1	blank2r.bmp	500	1	CPLW	500	1	blank2r.bmp	880	5	gesittet	880	1	FEHLER	1864	0	0	0	0	0	0	0	0	0
2024-05-10	10:06:53	10:12:38	344274	6.6.1	4_exp_EVA_AWA_CON	17	A	B	Rpleas_acq	Same	Rpleas	1pleas	acq_new_pleas_nomask	acq1_nomask	1	30	0	0	300	300	0	0	670	50	1	0	kuss	gütig	anregung	vergnügt	gesittet	vertrauen	krise	gierig	ausrottung	verbissen	geizig	versagen	engagiert	genießen	kreativ	besonnen	träumen	sonnig	engstirnig	gemein	krank	bange	töten	sterben	1	blank2r.bmp	0	1	+	0	1	blank2r.bmp	500	8	C4r.bmp	500	1	blank2r.bmp	880	4	besonnen	880	0	0	0	0	0	0	0	0	0	0	0	0
2024-05-10	10:06:53	10:12:41	346690	6.6.1	4_exp_EVA_AWA_CON	17	A	B	Rpleas_acq	Same	Rpleas	1pleas	acq_US_pleas_nomask	acq1_nomask	1	31	0	0	300	300	0	0	935	50	1	0	kuss	gütig	anregung	vergnügt	gesittet	vertrauen	krise	gierig	ausrottung	verbissen	geizig	versagen	engagiert	genießen	kreativ	besonnen	träumen	sonnig	engstirnig	gemein	krank	bange	töten	sterben	1	blank2r.bmp	0	1	+	0	1	blank2r.bmp	500	1	CPLW	500	1	blank2r.bmp	880	3	anregung	880	0	0	0	0	0	0	0	0	0	0	0	0
2024-05-10	10:06:53	10:12:43	348778	6.6.1	4_exp_EVA_AWA_CON	17	A	B	Rpleas_acq	Same	Rpleas	1pleas	acq_US_pleas_nomask	acq1_nomask	1	32	0	0	300	300	0	0	601	50	1	0	kuss	gütig	anregung	vergnügt	gesittet	vertrauen	krise	gierig	ausrottung	verbissen	geizig	versagen	engagiert	genießen	kreativ	besonnen	träumen	sonnig	engstirnig	gemein	krank	bange	töten	sterben	1	blank2r.bmp	0	1	+	0	1	blank2r.bmp	500	1	CPLW	500	1	blank2r.bmp	880	6	vertrauen	880	0	0	0	0	0	0	0	0	0	0	0	0
2024-05-10	10:06:53	10:12:45	351228	6.6.1	4_exp_EVA_AWA_CON	17	A	B	Rpleas_acq	Same	Rpleas	1pleas	acq_US_unple_nomask	acq1_nomask	1	33	0	0	300	300	0	0	758	50	0	0	kuss	gütig	anregung	vergnügt	gesittet	vertrauen	krise	gierig	ausrottung	verbissen	geizig	versagen	engagiert	genießen	kreativ	besonnen	träumen	sonnig	engstirnig	gemein	krank	bange	töten	sterben	1	blank2r.bmp	0	1	+	0	1	blank2r.bmp	500	1	DHJF	500	1	blank2r.bmp	880	5	geizig	880	1	FEHLER	1660	0	0	0	0	0	0	0	0	0
2024-05-10	10:06:53	10:12:47	353314	6.6.1	4_exp_EVA_AWA_CON	17	A	B	Rpleas_acq	Same	Rpleas	1pleas	acq_new_unple_nomask	acq1_nomask	1	34	0	0	300	300	0	0	804	46	1	0	kuss	gütig	anregung	vergnügt	gesittet	vertrauen	krise	gierig	ausrottung	verbissen	geizig	versagen	engagiert	genießen	kreativ	besonnen	träumen	sonnig	engstirnig	gemein	krank	bange	töten	sterben	1	blank2r.bmp	0	1	+	0	1	blank2r.bmp	500	1	B1r.bmp	500	1	blank2r.bmp	880	3	krank	880	0	0	0	0	0	0	0	0	0	0	0	0
2024-05-10	10:06:53	10:12:49	355450	6.6.1	4_exp_EVA_AWA_CON	17	A	B	Rpleas_acq	Same	Rpleas	1pleas	acq_new_pleas_nomask	acq1_nomask	1	35	0	0	300	300	0	0	649	50	1	0	kuss	gütig	anregung	vergnügt	gesittet	vertrauen	krise	gierig	ausrottung	verbissen	geizig	versagen	engagiert	genießen	kreativ	besonnen	träumen	sonnig	engstirnig	gemein	krank	bange	töten	sterben	1	blank2r.bmp	0	1	+	0	1	blank2r.bmp	500	3	B3r.bmp	500	1	blank2r.bmp	880	5	träumen	880	0	0	0	0	0	0	0	0	0	0	0	0
2024-05-10	10:06:53	10:12:52	357658	6.6.1	4_exp_EVA_AWA_CON	17	A	B	Rpleas_acq	Same	Rpleas	1pleas	acq_new_unple_nomask	acq1_nomask	1	36	0	0	300	300	0	0	725	46	1	0	kuss	gütig	anregung	vergnügt	gesittet	vertrauen	krise	gierig	ausrottung	verbissen	geizig	versagen	engagiert	genießen	kreativ	besonnen	träumen	sonnig	engstirnig	gemein	krank	bange	töten	sterben	1	blank2r.bmp	0	1	+	0	1	blank2r.bmp	500	4	B4r.bmp	500	1	blank2r.bmp	880	4	bange	880	0	0	0	0	0	0	0	0	0	0	0	0
2024-05-10	10:06:53	10:13:43	408757	6.6.1	4_exp_EVA_AWA_CON	17	A	B	Rpleas_acq	Same	Rpleas	1pleas	acq_new_pleas_nomask	acq2_nomask	2	1	480	0	300	300	0	0	610	50	1	0	kuss	gütig	anregung	vergnügt	gesittet	vertrauen	krise	gierig	ausrottung	verbissen	geizig	versagen	engagiert	genießen	kreativ	besonnen	träumen	sonnig	engstirnig	gemein	krank	bange	töten	sterben	1	blank2r.bmp	0	1	+	0	1	blank2r.bmp	500	1	B1r.bmp	500	1	blank2r.bmp	880	3	kreativ	880	1	!	1312	1	!	-1	0	0	0	0	0	0
2024-05-10	10:06:53	10:13:45	411046	6.6.1	4_exp_EVA_AWA_CON	17	A	B	Rpleas_acq	Same	Rpleas	1pleas	acq_US_unple_nomask	acq2_nomask	2	2	480	1	300	300	0	0	507	46	1	0	kuss	gütig	anregung	vergnügt	gesittet	vertrauen	krise	gierig	ausrottung	verbissen	geizig	versagen	engagiert	genießen	kreativ	besonnen	träumen	sonnig	engstirnig	gemein	krank	bange	töten	sterben	1	blank2r.bmp	0	1	+	0	1	blank2r.bmp	500	1	DHJF	500	1	blank2r.bmp	880	3	ausrottung	880	1	!	1313	1	!	1408	0	0	0	0	0	0
2024-05-10	10:06:53	10:13:47	413270	6.6.1	4_exp_EVA_AWA_CON	17	A	B	Rpleas_acq	Same	Rpleas	1pleas	acq_US_pleas_nomask	acq2_nomask	2	3	480	1	300	300	0	0	449	50	1	0	kuss	gütig	anregung	vergnügt	gesittet	vertrauen	krise	gierig	ausrottung	verbissen	geizig	versagen	engagiert	genießen	kreativ	besonnen	träumen	sonnig	engstirnig	gemein	krank	bange	töten	sterben	1	blank2r.bmp	0	1	+	0	1	blank2r.bmp	500	1	CPLW	500	1	blank2r.bmp	880	4	vergnügt	880	1	!	1312	1	!	1351	0	0	0	0	0	0
2024-05-10	10:06:53	10:13:50	415704	6.6.1	4_exp_EVA_AWA_CON	17	A	B	Rpleas_acq	Same	Rpleas	1pleas	acq_new_unple_nomask	acq2_nomask	2	4	480	1	300	300	0	0	450	50	0	0	kuss	gütig	anregung	vergnügt	gesittet	vertrauen	krise	gierig	ausrottung	verbissen	geizig	versagen	engagiert	genießen	kreativ	besonnen	träumen	sonnig	engstirnig	gemein	krank	bange	töten	sterben	1	blank2r.bmp	0	1	+	0	1	blank2r.bmp	500	2	B2r.bmp	500	1	blank2r.bmp	880	2	gemein	880	1	FEHLER	1644	1	!	1313	1	!	1352	0	0	0
2024-05-10	10:06:53	10:13:52	417790	6.6.1	4_exp_EVA_AWA_CON	17	A	B	Rpleas_acq	Same	Rpleas	1pleas	acq_new_pleas_nomask	acq2_nomask	2	5	480	1	300	300	0	0	506	50	1	0	kuss	gütig	anregung	vergnügt	gesittet	vertrauen	krise	gierig	ausrottung	verbissen	geizig	versagen	engagiert	genießen	kreativ	besonnen	träumen	sonnig	engstirnig	gemein	krank	bange	töten	sterben	1	blank2r.bmp	0	1	+	0	1	blank2r.bmp	500	8	C4r.bmp	500	1	blank2r.bmp	880	2	genießen	880	1	!	1313	1	!	1408	0	0	0	0	0	0
2024-05-10	10:06:53	10:13:54	420006	6.6.1	4_exp_EVA_AWA_CON	17	A	B	Rpleas_acq	Same	Rpleas	1pleas	acq_new_pleas_nomask	acq2_nomask	2	6	480	1	300	300	0	0	441	50	1	0	kuss	gütig	anregung	vergnügt	gesittet	vertrauen	krise	gierig	ausrottung	verbissen	geizig	versagen	engagiert	genießen	kreativ	besonnen	träumen	sonnig	engstirnig	gemein	krank	bange	töten	sterben	1	blank2r.bmp	0	1	+	0	1	blank2r.bmp	500	7	C3r.bmp	500	1	blank2r.bmp	880	6	sonnig	880	1	!	1312	1	!	1342	0	0	0	0	0	0
2024-05-10	10:06:53	10:13:56	422376	6.6.1	4_exp_EVA_AWA_CON	17	A	B	Rpleas_acq	Same	Rpleas	1pleas	acq_US_pleas_nomask	acq2_nomask	2	7	480	0	300	300	0	0	387	46	0	0	kuss	gütig	anregung	vergnügt	gesittet	vertrauen	krise	gierig	ausrottung	verbissen	geizig	versagen	engagiert	genießen	kreativ	besonnen	träumen	sonnig	engstirnig	gemein	krank	bange	töten	sterben	1	blank2r.bmp	0	1	+	0	1	blank2r.bmp	500	1	CPLW	500	1	blank2r.bmp	880	2	gütig	880	1	FEHLER	1581	1	!	-1	1	!	-1	0	0	0
2024-05-10	10:06:53	10:13:59	424614	6.6.1	4_exp_EVA_AWA_CON	17	A	B	Rpleas_acq	Same	Rpleas	1pleas	acq_new_unple_nomask	acq2_nomask	2	8	480	1	300	300	0	0	466	50	0	0	kuss	gütig	anregung	vergnügt	gesittet	vertrauen	krise	gierig	ausrottung	verbissen	geizig	versagen	engagiert	genießen	kreativ	besonnen	träumen	sonnig	engstirnig	gemein	krank	bange	töten	sterben	1	blank2r.bmp	0	1	+	0	1	blank2r.bmp	500	5	C1r.bmp	500	1	blank2r.bmp	880	5	töten	880	1	FEHLER	1659	1	!	1313	1	!	1367	0	0	0
2024-05-10	10:06:53	10:14:01	426812	6.6.1	4_exp_EVA_AWA_CON	17	A	B	Rpleas_acq	Same	Rpleas	1pleas	acq_US_unple_nomask	acq2_nomask	2	9	480	0	300	300	0	0	624	46	1	0	kuss	gütig	anregung	vergnügt	gesittet	vertrauen	krise	gierig	ausrottung	verbissen	geizig	versagen	engagiert	genießen	kreativ	besonnen	träumen	sonnig	engstirnig	gemein	krank	bange	töten	sterben	1	blank2r.bmp	0	1	+	0	1	blank2r.bmp	500	1	DHJF	500	1	blank2r.bmp	880	6	versagen	880	1	!	1313	1	!	-1	0	0	0	0	0	0
2024-05-10	10:06:53	10:14:03	429439	6.6.1	4_exp_EVA_AWA_CON	17	A	B	Rpleas_acq	Same	Rpleas	1pleas	acq_new_unple_nomask	acq2_nomask	2	10	480	0	300	300	0	0	647	50	0	0	kuss	gütig	anregung	vergnügt	gesittet	vertrauen	krise	gierig	ausrottung	verbissen	geizig	versagen	engagiert	genießen	kreativ	besonnen	träumen	sonnig	engstirnig	gemein	krank	bange	töten	sterben	1	blank2r.bmp	0	1	+	0	1	blank2r.bmp	500	6	C2r.bmp	500	1	blank2r.bmp	880	1	engstirnig	880	1	FEHLER	1840	1	!	1313	1	!	-1	0	0	0
2024-05-10	10:06:53	10:14:06	431615	6.6.1	4_exp_EVA_AWA_CON	17	A	B	Rpleas_acq	Same	Rpleas	1pleas	acq_US_pleas_nomask	acq2_nomask	2	11	480	0	300	300	0	0	401	46	0	0	kuss	gütig	anregung	vergnügt	gesittet	vertrauen	krise	gierig	ausrottung	verbissen	geizig	versagen	engagiert	genießen	kreativ	besonnen	träumen	sonnig	engstirnig	gemein	krank	bange	töten	sterben	1	blank2r.bmp	0	1	+	0	1	blank2r.bmp	500	1	CPLW	500	1	blank2r.bmp	880	1	kuss	880	1	FEHLER	1595	1	!	-1	1	!	-1	0	0	0
2024-05-10	10:06:53	10:14:08	433927	6.6.1	4_exp_EVA_AWA_CON	17	A	B	Rpleas_acq	Same	Rpleas	1pleas	acq_US_unple_nomask	acq2_nomask	2	12	480	1	300	300	0	0	532	50	0	0	kuss	gütig	anregung	vergnügt	gesittet	vertrauen	krise	gierig	ausrottung	verbissen	geizig	versagen	engagiert	genießen	kreativ	besonnen	träumen	sonnig	engstirnig	gemein	krank	bange	töten	sterben	1	blank2r.bmp	0	1	+	0	1	blank2r.bmp	500	1	DHJF	500	1	blank2r.bmp	880	2	gierig	880	1	FEHLER	1725	1	!	1313	1	!	1433	0	0	0
2024-05-10	10:06:53	10:14:10	435966	6.6.1	4_exp_EVA_AWA_CON	17	A	B	Rpleas_acq	Same	Rpleas	1pleas	acq_new_pleas_nomask	acq2_nomask	2	13	480	1	300	300	0	0	460	50	1	0	kuss	gütig	anregung	vergnügt	gesittet	vertrauen	krise	gierig	ausrottung	verbissen	geizig	versagen	engagiert	genießen	kreativ	besonnen	träumen	sonnig	engstirnig	gemein	krank	bange	töten	sterben	1	blank2r.bmp	0	1	+	0	1	blank2r.bmp	500	2	B2r.bmp	500	1	blank2r.bmp	880	4	besonnen	880	1	!	1313	1	!	1362	0	0	0	0	0	0
2024-05-10	10:06:53	10:14:12	438190	6.6.1	4_exp_EVA_AWA_CON	17	A	B	Rpleas_acq	Same	Rpleas	1pleas	acq_US_pleas_nomask	acq2_nomask	2	14	480	1	300	300	0	0	443	50	1	0	kuss	gütig	anregung	vergnügt	gesittet	vertrauen	krise	gierig	ausrottung	verbissen	geizig	versagen	engagiert	genießen	kreativ	besonnen	träumen	sonnig	engstirnig	gemein	krank	bange	töten	sterben	1	blank2r.bmp	0	1	+	0	1	blank2r.bmp	500	1	CPLW	500	1	blank2r.bmp	880	5	gesittet	880	1	!	1312	1	!	1344	0	0	0	0	0	0
2024-05-10	10:06:53	10:14:15	440687	6.6.1	4_exp_EVA_AWA_CON	17	A	B	Rpleas_acq	Same	Rpleas	1pleas	acq_US_unple_nomask	acq2_nomask	2	15	480	1	300	300	0	0	517	50	0	0	kuss	gütig	anregung	vergnügt	gesittet	vertrauen	krise	gierig	ausrottung	verbissen	geizig	versagen	engagiert	genießen	kreativ	besonnen	träumen	sonnig	engstirnig	gemein	krank	bange	töten	sterben	1	blank2r.bmp	0	1	+	0	1	blank2r.bmp	500	1	DHJF	500	1	blank2r.bmp	880	5	geizig	880	1	FEHLER	1711	1	!	1312	1	!	1419	0	0	0
2024-05-10	10:06:53	10:14:17	442959	6.6.1	4_exp_EVA_AWA_CON	17	A	B	Rpleas_acq	Same	Rpleas	1pleas	acq_new_unple_nomask	acq2_nomask	2	16	480	1	300	300	0	0	488	50	0	0	kuss	gütig	anregung	vergnügt	gesittet	vertrauen	krise	gierig	ausrottung	verbissen	geizig	versagen	engagiert	genießen	kreativ	besonnen	träumen	sonnig	engstirnig	gemein	krank	bange	töten	sterben	1	blank2r.bmp	0	1	+	0	1	blank2r.bmp	500	5	C1r.bmp	500	1	blank2r.bmp	880	3	krank	880	1	FEHLER	1682	1	!	1312	1	!	1390	0	0	0
2024-05-10	10:06:53	10:14:19	445022	6.6.1	4_exp_EVA_AWA_CON	17	A	B	Rpleas_acq	Same	Rpleas	1pleas	acq_new_pleas_nomask	acq2_nomask	2	17	480	1	300	300	0	0	480	50	1	0	kuss	gütig	anregung	vergnügt	gesittet	vertrauen	krise	gierig	ausrottung	verbissen	geizig	versagen	engagiert	genießen	kreativ	besonnen	träumen	sonnig	engstirnig	gemein	krank	bange	töten	sterben	1	blank2r.bmp	0	1	+	0	1	blank2r.bmp	500	1	B1r.bmp	500	1	blank2r.bmp	880	2	genießen	880	1	!	1312	1	!	1382	0	0	0	0	0	0
2024-05-10	10:06:53	10:14:21	447230	6.6.1	4_exp_EVA_AWA_CON	17	A	B	Rpleas_acq	Same	Rpleas	1pleas	acq_new_unple_nomask	acq2_nomask	2	18	480	1	300	300	0	0	427	46	1	0	kuss	gütig	anregung	vergnügt	gesittet	vertrauen	krise	gierig	ausrottung	verbissen	geizig	versagen	engagiert	genießen	kreativ	besonnen	träumen	sonnig	engstirnig	gemein	krank	bange	töten	sterben	1	blank2r.bmp	0	1	+	0	1	blank2r.bmp	500	7	C3r.bmp	500	1	blank2r.bmp	880	6	sterben	880	1	!	1313	1	!	1328	0	0	0	0	0	0
2024-05-10	10:06:53	10:14:24	449616	6.6.1	4_exp_EVA_AWA_CON	17	A	B	Rpleas_acq	Same	Rpleas	1pleas	acq_US_pleas_nomask	acq2_nomask	2	19	480	0	300	300	0	0	399	46	0	0	kuss	gütig	anregung	vergnügt	gesittet	vertrauen	krise	gierig	ausrottung	verbissen	geizig	versagen	engagiert	genießen	kreativ	besonnen	träumen	sonnig	engstirnig	gemein	krank	bange	töten	sterben	1	blank2r.bmp	0	1	+	0	1	blank2r.bmp	500	1	CPLW	500	1	blank2r.bmp	880	4	vergnügt	880	1	FEHLER	1594	1	!	-1	1	!	-1	0	0	0
2024-05-10	10:06:53	10:14:26	451734	6.6.1	4_exp_EVA_AWA_CON	17	A	B	Rpleas_acq	Same	Rpleas	1pleas	acq_US_unple_nomask	acq2_nomask	2	20	480	1	300	300	0	0	538	46	1	0	kuss	gütig	anregung	vergnügt	gesittet	vertrauen	krise	gierig	ausrottung	verbissen	geizig	versagen	engagiert	genießen	kreativ	besonnen	träumen	sonnig	engstirnig	gemein	krank	bange	töten	sterben	1	blank2r.bmp	0	1	+	0	1	blank2r.bmp	500	1	DHJF	500	1	blank2r.bmp	880	6	versagen	880	1	!	1313	1	!	1440	0	0	0	0	0	0
2024-05-10	10:06:53	10:14:28	453950	6.6.1	4_exp_EVA_AWA_CON	17	A	B	Rpleas_acq	Same	Rpleas	1pleas	acq_new_pleas_nomask	acq2_nomask	2	21	480	1	300	300	0	0	433	50	1	0	kuss	gütig	anregung	vergnügt	gesittet	vertrauen	krise	gierig	ausrottung	verbissen	geizig	versagen	engagiert	genießen	kreativ	besonnen	träumen	sonnig	engstirnig	gemein	krank	bange	töten	sterben	1	blank2r.bmp	0	1	+	0	1	blank2r.bmp	500	8	C4r.bmp	500	1	blank2r.bmp	880	6	sonnig	880	1	!	1313	1	!	1334	0	0	0	0	0	0
2024-05-10	10:06:53	10:14:30	456158	6.6.1	4_exp_EVA_AWA_CON	17	A	B	Rpleas_acq	Same	Rpleas	1pleas	acq_new_unple_nomask	acq2_nomask	2	22	480	1	300	300	0	0	428	46	1	0	kuss	gütig	anregung	vergnügt	gesittet	vertrauen	krise	gierig	ausrottung	verbissen	geizig	versagen	engagiert	genießen	kreativ	besonnen	träumen	sonnig	engstirnig	gemein	krank	bange	töten	sterben	1	blank2r.bmp	0	1	+	0	1	blank2r.bmp	500	4	B4r.bmp	500	1	blank2r.bmp	880	5	töten	880	1	!	1312	1	!	1330	0	0	0	0	0	0
2024-05-10	10:06:53	10:14:32	458558	6.6.1	4_exp_EVA_AWA_CON	17	A	B	Rpleas_acq	Same	Rpleas	1pleas	acq_US_pleas_nomask	acq2_nomask	2	23	480	1	300	300	0	0	418	46	0	0	kuss	gütig	anregung	vergnügt	gesittet	vertrauen	krise	gierig	ausrottung	verbissen	geizig	versagen	engagiert	genießen	kreativ	besonnen	träumen	sonnig	engstirnig	gemein	krank	bange	töten	sterben	1	blank2r.bmp	0	1	+	0	1	blank2r.bmp	500	1	CPLW	500	1	blank2r.bmp	880	6	vertrauen	880	1	FEHLER	1610	1	!	1313	1	!	1318	0	0	0
2024-05-10	10:06:53	10:14:35	460724	6.6.1	4_exp_EVA_AWA_CON	17	A	B	Rpleas_acq	Same	Rpleas	1pleas	acq_US_unple_nomask	acq2_nomask	2	24	480	0	300	300	0	0	594	46	1	0	kuss	gütig	anregung	vergnügt	gesittet	vertrauen	krise	gierig	ausrottung	verbissen	geizig	versagen	engagiert	genießen	kreativ	besonnen	träumen	sonnig	engstirnig	gemein	krank	bange	töten	sterben	1	blank2r.bmp	0	1	+	0	1	blank2r.bmp	500	1	DHJF	500	1	blank2r.bmp	880	3	ausrottung	880	1	!	1313	1	!	-1	0	0	0	0	0	0
2024-05-10	10:06:53	10:14:37	462974	6.6.1	4_exp_EVA_AWA_CON	17	A	B	Rpleas_acq	Same	Rpleas	1pleas	acq_new_unple_nomask	acq2_nomask	2	25	480	1	300	300	0	0	471	46	1	0	kuss	gütig	anregung	vergnügt	gesittet	vertrauen	krise	gierig	ausrottung	verbissen	geizig	versagen	engagiert	genießen	kreativ	besonnen	träumen	sonnig	engstirnig	gemein	krank	bange	töten	sterben	1	blank2r.bmp	0	1	+	0	1	blank2r.bmp	500	6	C2r.bmp	500	1	blank2r.bmp	880	4	bange	880	1	!	1312	1	!	1373	0	0	0	0	0	0
2024-05-10	10:06:53	10:14:39	465336	6.6.1	4_exp_EVA_AWA_CON	17	A	B	Rpleas_acq	Same	Rpleas	1pleas	acq_US_unple_nomask	acq2_nomask	2	26	480	0	300	300	0	0	379	50	0	0	kuss	gütig	anregung	vergnügt	gesittet	vertrauen	krise	gierig	ausrottung	verbissen	geizig	versagen	engagiert	genießen	kreativ	besonnen	träumen	sonnig	engstirnig	gemein	krank	bange	töten	sterben	1	blank2r.bmp	0	1	+	0	1	blank2r.bmp	500	1	DHJF	500	1	blank2r.bmp	880	1	krise	880	1	FEHLER	1574	1	!	-1	1	!	-1	0	0	0
2024-05-10	10:06:53	10:14:42	467599	6.6.1	4_exp_EVA_AWA_CON	17	A	B	Rpleas_acq	Same	Rpleas	1pleas	acq_new_unple_nomask	acq2_nomask	2	27	480	1	300	300	0	0	482	50	0	0	kuss	gütig	anregung	vergnügt	gesittet	vertrauen	krise	gierig	ausrottung	verbissen	geizig	versagen	engagiert	genießen	kreativ	besonnen	träumen	sonnig	engstirnig	gemein	krank	bange	töten	sterben	1	blank2r.bmp	0	1	+	0	1	blank2r.bmp	500	3	B3r.bmp	500	1	blank2r.bmp	880	1	engstirnig	880	1	FEHLER	1675	1	!	1313	1	!	1383	0	0	0
2024-05-10	10:06:53	10:14:44	469686	6.6.1	4_exp_EVA_AWA_CON	17	A	B	Rpleas_acq	Same	Rpleas	1pleas	acq_US_pleas_nomask	acq2_nomask	2	28	480	1	300	300	0	0	508	50	1	0	kuss	gütig	anregung	vergnügt	gesittet	vertrauen	krise	gierig	ausrottung	verbissen	geizig	versagen	engagiert	genießen	kreativ	besonnen	träumen	sonnig	engstirnig	gemein	krank	bange	töten	sterben	1	blank2r.bmp	0	1	+	0	1	blank2r.bmp	500	1	CPLW	500	1	blank2r.bmp	880	2	gütig	880	1	!	1313	1	!	1410	0	0	0	0	0	0
2024-05-10	10:06:53	10:14:46	472084	6.6.1	4_exp_EVA_AWA_CON	17	A	B	Rpleas_acq	Same	Rpleas	1pleas	acq_new_pleas_nomask	acq2_nomask	2	29	480	0	300	300	0	0	617	50	1	0	kuss	gütig	anregung	vergnügt	gesittet	vertrauen	krise	gierig	ausrottung	verbissen	geizig	versagen	engagiert	genießen	kreativ	besonnen	träumen	sonnig	engstirnig	gemein	krank	bange	töten	sterben	1	blank2r.bmp	0	1	+	0	1	blank2r.bmp	500	2	B2r.bmp	500	1	blank2r.bmp	880	1	engagiert	880	1	!	1313	1	!	-1	0	0	0	0	0	0
2024-05-10	10:06:53	10:14:48	474236	6.6.1	4_exp_EVA_AWA_CON	17	A	B	Rpleas_acq	Same	Rpleas	1pleas	acq_US_pleas_nomask	acq2_nomask	2	30	480	0	300	300	0	0	377	50	1	0	kuss	gütig	anregung	vergnügt	gesittet	vertrauen	krise	gierig	ausrottung	verbissen	geizig	versagen	engagiert	genießen	kreativ	besonnen	träumen	sonnig	engstirnig	gemein	krank	bange	töten	sterben	1	blank2r.bmp	0	1	+	0	1	blank2r.bmp	500	1	CPLW	500	1	blank2r.bmp	880	1	kuss	880	1	!	-1	1	!	-1	0	0	0	0	0	0
2024-05-10	10:06:53	10:14:53	478684	6.6.1	4_exp_EVA_AWA_CON	17	A	B	Rpleas_acq	Same	Rpleas	1pleas	acq_US_pleas_nomask	acq2_nomask	2	31	480	0	300	300	0	0	2674	50	1	0	kuss	gütig	anregung	vergnügt	gesittet	vertrauen	krise	gierig	ausrottung	verbissen	geizig	versagen	engagiert	genießen	kreativ	besonnen	träumen	sonnig	engstirnig	gemein	krank	bange	töten	sterben	1	blank2r.bmp	0	1	+	0	1	blank2r.bmp	500	1	CPLW	500	1	blank2r.bmp	880	3	anregung	880	1	!	1313	1	!	-1	0	0	0	0	0	0
2024-05-10	10:06:53	10:14:55	481176	6.6.1	4_exp_EVA_AWA_CON	17	A	B	Rpleas_acq	Same	Rpleas	1pleas	acq_new_pleas_nomask	acq2_nomask	2	32	480	1	300	300	0	0	509	46	0	0	kuss	gütig	anregung	vergnügt	gesittet	vertrauen	krise	gierig	ausrottung	verbissen	geizig	versagen	engagiert	genießen	kreativ	besonnen	träumen	sonnig	engstirnig	gemein	krank	bange	töten	sterben	1	blank2r.bmp	0	1	+	0	1	blank2r.bmp	500	4	B4r.bmp	500	1	blank2r.bmp	880	5	träumen	880	1	FEHLER	1703	1	!	1312	1	!	1411	0	0	0
2024-05-10	10:06:53	10:14:57	483238	6.6.1	4_exp_EVA_AWA_CON	17	A	B	Rpleas_acq	Same	Rpleas	1pleas	acq_US_unple_nomask	acq2_nomask	2	33	480	1	300	300	0	0	481	46	1	0	kuss	gütig	anregung	vergnügt	gesittet	vertrauen	krise	gierig	ausrottung	verbissen	geizig	versagen	engagiert	genießen	kreativ	besonnen	träumen	sonnig	engstirnig	gemein	krank	bange	töten	sterben	1	blank2r.bmp	0	1	+	0	1	blank2r.bmp	500	1	DHJF	500	1	blank2r.bmp	880	4	verbissen	880	1	!	1313	1	!	1383	0	0	0	0	0	0
2024-05-10	10:06:53	10:14:59	485397	6.6.1	4_exp_EVA_AWA_CON	17	A	B	Rpleas_acq	Same	Rpleas	1pleas	acq_new_unple_nomask	acq2_nomask	2	34	480	0	300	300	0	0	380	46	1	0	kuss	gütig	anregung	vergnügt	gesittet	vertrauen	krise	gierig	ausrottung	verbissen	geizig	versagen	engagiert	genießen	kreativ	besonnen	träumen	sonnig	engstirnig	gemein	krank	bange	töten	sterben	1	blank2r.bmp	0	1	+	0	1	blank2r.bmp	500	7	C3r.bmp	500	1	blank2r.bmp	880	2	gemein	880	1	!	-1	1	!	-1	0	0	0	0	0	0
2024-05-10	10:06:53	10:15:02	487748	6.6.1	4_exp_EVA_AWA_CON	17	A	B	Rpleas_acq	Same	Rpleas	1pleas	acq_new_pleas_nomask	acq2_nomask	2	35	480	0	300	300	0	0	570	50	1	0	kuss	gütig	anregung	vergnügt	gesittet	vertrauen	krise	gierig	ausrottung	verbissen	geizig	versagen	engagiert	genießen	kreativ	besonnen	träumen	sonnig	engstirnig	gemein	krank	bange	töten	sterben	1	blank2r.bmp	0	1	+	0	1	blank2r.bmp	500	8	C4r.bmp	500	1	blank2r.bmp	880	3	kreativ	880	1	!	1313	1	!	-1	0	0	0	0	0	0
2024-05-10	10:06:53	10:15:04	490150	6.6.1	4_exp_EVA_AWA_CON	17	A	B	Rpleas_acq	Same	Rpleas	1pleas	acq_US_unple_nomask	acq2_nomask	2	36	480	1	300	300	0	0	419	50	0	0	kuss	gütig	anregung	vergnügt	gesittet	vertrauen	krise	gierig	ausrottung	verbissen	geizig	versagen	engagiert	genießen	kreativ	besonnen	träumen	sonnig	engstirnig	gemein	krank	bange	töten	sterben	1	blank2r.bmp	0	1	+	0	1	blank2r.bmp	500	1	DHJF	500	1	blank2r.bmp	880	2	gierig	880	1	FEHLER	1611	1	!	1312	1	!	1319	0	0	0
2024-05-10	10:06:53	10:15:33	519204	6.6.1	4_exp_EVA_AWA_CON	17	A	B	Rpleas_acq	Same	Rpleas	1pleas	acq_US_pleas_nomask	acq3_nomask	3	1	453	0	300	300	0	0	556	50	1	0	kuss	gütig	anregung	vergnügt	gesittet	vertrauen	krise	gierig	ausrottung	verbissen	geizig	versagen	engagiert	genießen	kreativ	besonnen	träumen	sonnig	engstirnig	gemein	krank	bange	töten	sterben	1	blank2r.bmp	0	1	+	0	1	blank2r.bmp	500	1	CPLW	500	1	blank2r.bmp	880	4	vergnügt	880	1	!	1292	1	!	-1	0	0	0	0	0	0
2024-05-10	10:06:53	10:15:35	521332	6.6.1	4_exp_EVA_AWA_CON	17	A	B	Rpleas_acq	Same	Rpleas	1pleas	acq_US_pleas_nomask	acq3_nomask	3	2	453	0	300	300	0	0	352	50	1	0	kuss	gütig	anregung	vergnügt	gesittet	vertrauen	krise	gierig	ausrottung	verbissen	geizig	versagen	engagiert	genießen	kreativ	besonnen	träumen	sonnig	engstirnig	gemein	krank	bange	töten	sterben	1	blank2r.bmp	0	1	+	0	1	blank2r.bmp	500	1	CPLW	500	1	blank2r.bmp	880	2	gütig	880	1	!	-1	1	!	-1	0	0	0	0	0	0
2024-05-10	10:06:53	10:15:37	523558	6.6.1	4_exp_EVA_AWA_CON	17	A	B	Rpleas_acq	Same	Rpleas	1pleas	acq_US_pleas_nomask	acq3_nomask	3	3	453	1	300	300	0	0	445	50	1	0	kuss	gütig	anregung	vergnügt	gesittet	vertrauen	krise	gierig	ausrottung	verbissen	geizig	versagen	engagiert	genießen	kreativ	besonnen	träumen	sonnig	engstirnig	gemein	krank	bange	töten	sterben	1	blank2r.bmp	0	1	+	0	1	blank2r.bmp	500	1	CPLW	500	1	blank2r.bmp	880	6	vertrauen	880	1	!	1292	1	!	1347	0	0	0	0	0	0
2024-05-10	10:06:53	10:15:40	525733	6.6.1	4_exp_EVA_AWA_CON	17	A	B	Rpleas_acq	Same	Rpleas	1pleas	acq_US_pleas_nomask	acq3_nomask	3	4	453	1	300	300	0	0	401	50	1	0	kuss	gütig	anregung	vergnügt	gesittet	vertrauen	krise	gierig	ausrottung	verbissen	geizig	versagen	engagiert	genießen	kreativ	besonnen	träumen	sonnig	engstirnig	gemein	krank	bange	töten	sterben	1	blank2r.bmp	0	1	+	0	1	blank2r.bmp	500	1	CPLW	500	1	blank2r.bmp	880	1	kuss	880	1	!	1293	1	!	1300	0	0	0	0	0	0
2024-05-10	10:06:53	10:15:42	528014	6.6.1	4_exp_EVA_AWA_CON	17	A	B	Rpleas_acq	Same	Rpleas	1pleas	acq_US_pleas_nomask	acq3_nomask	3	5	453	1	300	300	0	0	499	50	1	0	kuss	gütig	anregung	vergnügt	gesittet	vertrauen	krise	gierig	ausrottung	verbissen	geizig	versagen	engagiert	genießen	kreativ	besonnen	träumen	sonnig	engstirnig	gemein	krank	bange	töten	sterben	1	blank2r.bmp	0	1	+	0	1	blank2r.bmp	500	1	CPLW	500	1	blank2r.bmp	880	3	anregung	880	1	!	1293	1	!	1400	0	0	0	0	0	0
2024-05-10	10:06:53	10:15:44	530420	6.6.1	4_exp_EVA_AWA_CON	17	A	B	Rpleas_acq	Same	Rpleas	1pleas	acq_US_unple_nomask	acq3_nomask	3	6	453	0	300	300	0	0	625	46	1	0	kuss	gütig	anregung	vergnügt	gesittet	vertrauen	krise	gierig	ausrottung	verbissen	geizig	versagen	engagiert	genießen	kreativ	besonnen	träumen	sonnig	engstirnig	gemein	krank	bange	töten	sterben	1	blank2r.bmp	0	1	+	0	1	blank2r.bmp	500	1	DHJF	500	1	blank2r.bmp	880	4	verbissen	880	1	!	1292	1	!	-1	0	0	0	0	0	0
2024-05-10	10:06:53	10:15:46	532557	6.6.1	4_exp_EVA_AWA_CON	17	A	B	Rpleas_acq	Same	Rpleas	1pleas	acq_US_unple_nomask	acq3_nomask	3	7	453	0	300	300	0	0	359	46	1	0	kuss	gütig	anregung	vergnügt	gesittet	vertrauen	krise	gierig	ausrottung	verbissen	geizig	versagen	engagiert	genießen	kreativ	besonnen	träumen	sonnig	engstirnig	gemein	krank	bange	töten	sterben	1	blank2r.bmp	0	1	+	0	1	blank2r.bmp	500	1	DHJF	500	1	blank2r.bmp	880	3	ausrottung	880	1	!	-1	1	!	-1	0	0	0	0	0	0
2024-05-10	10:06:53	10:15:49	534797	6.6.1	4_exp_EVA_AWA_CON	17	A	B	Rpleas_acq	Same	Rpleas	1pleas	acq_US_unple_nomask	acq3_nomask	3	8	453	1	300	300	0	0	458	46	1	0	kuss	gütig	anregung	vergnügt	gesittet	vertrauen	krise	gierig	ausrottung	verbissen	geizig	versagen	engagiert	genießen	kreativ	besonnen	träumen	sonnig	engstirnig	gemein	krank	bange	töten	sterben	1	blank2r.bmp	0	1	+	0	1	blank2r.bmp	500	1	DHJF	500	1	blank2r.bmp	880	6	versagen	880	1	!	1293	1	!	1359	0	0	0	0	0	0
2024-05-10	10:06:53	10:15:51	537078	6.6.1	4_exp_EVA_AWA_CON	17	A	B	Rpleas_acq	Same	Rpleas	1pleas	acq_US_unple_nomask	acq3_nomask	3	9	453	1	300	300	0	0	506	46	1	0	kuss	gütig	anregung	vergnügt	gesittet	vertrauen	krise	gierig	ausrottung	verbissen	geizig	versagen	engagiert	genießen	kreativ	besonnen	träumen	sonnig	engstirnig	gemein	krank	bange	töten	sterben	1	blank2r.bmp	0	1	+	0	1	blank2r.bmp	500	1	DHJF	500	1	blank2r.bmp	880	2	gierig	880	1	!	1293	1	!	1408	0	0	0	0	0	0
2024-05-10	10:06:53	10:15:53	539412	6.6.1	4_exp_EVA_AWA_CON	17	A	B	Rpleas_acq	Same	Rpleas	1pleas	acq_US_unple_nomask	acq3_nomask	3	10	453	0	300	300	0	0	561	46	1	0	kuss	gütig	anregung	vergnügt	gesittet	vertrauen	krise	gierig	ausrottung	verbissen	geizig	versagen	engagiert	genießen	kreativ	besonnen	träumen	sonnig	engstirnig	gemein	krank	bange	töten	sterben	1	blank2r.bmp	0	1	+	0	1	blank2r.bmp	500	1	DHJF	500	1	blank2r.bmp	880	5	geizig	880	1	!	1293	1	!	-1	0	0	0	0	0	0
2024-05-10	10:06:53	10:15:56	541804	6.6.1	4_exp_EVA_AWA_CON	17	A	B	Rpleas_acq	Same	Rpleas	1pleas	acq_US_unple_nomask	acq3_nomask	3	11	453	0	300	300	0	0	611	46	1	0	kuss	gütig	anregung	vergnügt	gesittet	vertrauen	krise	gierig	ausrottung	verbissen	geizig	versagen	engagiert	genießen	kreativ	besonnen	träumen	sonnig	engstirnig	gemein	krank	bange	töten	sterben	1	blank2r.bmp	0	1	+	0	1	blank2r.bmp	500	1	DHJF	500	1	blank2r.bmp	880	1	krise	880	1	!	1293	1	!	-1	0	0	0	0	0	0
2024-05-10	10:06:53	10:15:58	544351	6.6.1	4_exp_EVA_AWA_CON	17	A	B	Rpleas_acq	Same	Rpleas	1pleas	acq_US_pleas_nomask	acq3_nomask	3	12	453	0	300	300	0	0	564	46	0	0	kuss	gütig	anregung	vergnügt	gesittet	vertrauen	krise	gierig	ausrottung	verbissen	geizig	versagen	engagiert	genießen	kreativ	besonnen	träumen	sonnig	engstirnig	gemein	krank	bange	töten	sterben	1	blank2r.bmp	0	1	+	0	1	blank2r.bmp	500	1	CPLW	500	1	blank2r.bmp	880	5	gesittet	880	1	FEHLER	1757	1	!	1293	1	!	-1	0	0	0
2024-05-10	10:06:53	10:16:00	546390	6.6.1	4_exp_EVA_AWA_CON	17	A	B	Rpleas_acq	Same	Rpleas	1pleas	acq_US_pleas_nomask	acq3_nomask	3	13	453	1	300	300	0	0	462	50	1	0	kuss	gütig	anregung	vergnügt	gesittet	vertrauen	krise	gierig	ausrottung	verbissen	geizig	versagen	engagiert	genießen	kreativ	besonnen	träumen	sonnig	engstirnig	gemein	krank	bange	töten	sterben	1	blank2r.bmp	0	1	+	0	1	blank2r.bmp	500	1	CPLW	500	1	blank2r.bmp	880	1	kuss	880	1	!	1292	1	!	1364	0	0	0	0	0	0
2024-05-10	10:06:53	10:16:03	548724	6.6.1	4_exp_EVA_AWA_CON	17	A	B	Rpleas_acq	Same	Rpleas	1pleas	acq_US_unple_nomask	acq3_nomask	3	14	453	0	300	300	0	0	557	46	1	0	kuss	gütig	anregung	vergnügt	gesittet	vertrauen	krise	gierig	ausrottung	verbissen	geizig	versagen	engagiert	genießen	kreativ	besonnen	träumen	sonnig	engstirnig	gemein	krank	bange	töten	sterben	1	blank2r.bmp	0	1	+	0	1	blank2r.bmp	500	1	DHJF	500	1	blank2r.bmp	880	6	versagen	880	1	!	1293	1	!	-1	0	0	0	0	0	0
2024-05-10	10:06:53	10:16:05	551071	6.6.1	4_exp_EVA_AWA_CON	17	A	B	Rpleas_acq	Same	Rpleas	1pleas	acq_US_pleas_nomask	acq3_nomask	3	15	453	0	300	300	0	0	369	46	0	0	kuss	gütig	anregung	vergnügt	gesittet	vertrauen	krise	gierig	ausrottung	verbissen	geizig	versagen	engagiert	genießen	kreativ	besonnen	träumen	sonnig	engstirnig	gemein	krank	bange	töten	sterben	1	blank2r.bmp	0	1	+	0	1	blank2r.bmp	500	1	CPLW	500	1	blank2r.bmp	880	5	gesittet	880	1	FEHLER	1563	1	!	-1	1	!	-1	0	0	0
2024-05-10	10:06:53	10:16:07	553192	6.6.1	4_exp_EVA_AWA_CON	17	A	B	Rpleas_acq	Same	Rpleas	1pleas	acq_US_unple_nomask	acq3_nomask	3	16	453	0	300	300	0	0	338	50	0	0	kuss	gütig	anregung	vergnügt	gesittet	vertrauen	krise	gierig	ausrottung	verbissen	geizig	versagen	engagiert	genießen	kreativ	besonnen	träumen	sonnig	engstirnig	gemein	krank	bange	töten	sterben	1	blank2r.bmp	0	1	+	0	1	blank2r.bmp	500	1	DHJF	500	1	blank2r.bmp	880	5	geizig	880	1	FEHLER	1532	1	!	-1	1	!	-1	0	0	0
2024-05-10	10:06:53	10:16:09	555436	6.6.1	4_exp_EVA_AWA_CON	17	A	B	Rpleas_acq	Same	Rpleas	1pleas	acq_US_unple_nomask	acq3_nomask	3	17	453	0	300	300	0	0	674	46	1	0	kuss	gütig	anregung	vergnügt	gesittet	vertrauen	krise	gierig	ausrottung	verbissen	geizig	versagen	engagiert	genießen	kreativ	besonnen	träumen	sonnig	engstirnig	gemein	krank	bange	töten	sterben	1	blank2r.bmp	0	1	+	0	1	blank2r.bmp	500	1	DHJF	500	1	blank2r.bmp	880	4	verbissen	880	1	!	1293	1	!	-1	0	0	0	0	0	0
2024-05-10	10:06:53	10:16:14	559676	6.6.1	4_exp_EVA_AWA_CON	17	A	B	Rpleas_acq	Same	Rpleas	1pleas	acq_US_pleas_nomask	acq3_nomask	3	18	453	0	300	300	0	0	2464	50	1	0	kuss	gütig	anregung	vergnügt	gesittet	vertrauen	krise	gierig	ausrottung	verbissen	geizig	versagen	engagiert	genießen	kreativ	besonnen	träumen	sonnig	engstirnig	gemein	krank	bange	töten	sterben	1	blank2r.bmp	0	1	+	0	1	blank2r.bmp	500	1	CPLW	500	1	blank2r.bmp	880	3	anregung	880	1	!	1293	1	!	-1	0	0	0	0	0	0
2024-05-10	10:06:53	10:16:16	561812	6.6.1	4_exp_EVA_AWA_CON	17	A	B	Rpleas_acq	Same	Rpleas	1pleas	acq_US_pleas_nomask	acq3_nomask	3	19	453	0	300	300	0	0	356	50	1	0	kuss	gütig	anregung	vergnügt	gesittet	vertrauen	krise	gierig	ausrottung	verbissen	geizig	versagen	engagiert	genießen	kreativ	besonnen	träumen	sonnig	engstirnig	gemein	krank	bange	töten	sterben	1	blank2r.bmp	0	1	+	0	1	blank2r.bmp	500	1	CPLW	500	1	blank2r.bmp	880	2	gütig	880	1	!	-1	1	!	-1	0	0	0	0	0	0
2024-05-10	10:06:53	10:16:18	564054	6.6.1	4_exp_EVA_AWA_CON	17	A	B	Rpleas_acq	Same	Rpleas	1pleas	acq_US_pleas_nomask	acq3_nomask	3	20	453	1	300	300	0	0	465	50	1	0	kuss	gütig	anregung	vergnügt	gesittet	vertrauen	krise	gierig	ausrottung	verbissen	geizig	versagen	engagiert	genießen	kreativ	besonnen	träumen	sonnig	engstirnig	gemein	krank	bange	töten	sterben	1	blank2r.bmp	0	1	+	0	1	blank2r.bmp	500	1	CPLW	500	1	blank2r.bmp	880	6	vertrauen	880	1	!	1293	1	!	1366	0	0	0	0	0	0
2024-05-10	10:06:53	10:16:20	566342	6.6.1	4_exp_EVA_AWA_CON	17	A	B	Rpleas_acq	Same	Rpleas	1pleas	acq_US_pleas_nomask	acq3_nomask	3	21	453	1	300	300	0	0	511	50	1	0	kuss	gütig	anregung	vergnügt	gesittet	vertrauen	krise	gierig	ausrottung	verbissen	geizig	versagen	engagiert	genießen	kreativ	besonnen	träumen	sonnig	engstirnig	gemein	krank	bange	töten	sterben	1	blank2r.bmp	0	1	+	0	1	blank2r.bmp	500	1	CPLW	500	1	blank2r.bmp	880	4	vergnügt	880	1	!	1292	1	!	1413	0	0	0	0	0	0
2024-05-10	10:06:53	10:16:23	568695	6.6.1	4_exp_EVA_AWA_CON	17	A	B	Rpleas_acq	Same	Rpleas	1pleas	acq_US_unple_nomask	acq3_nomask	3	22	453	0	300	300	0	0	372	50	0	0	kuss	gütig	anregung	vergnügt	gesittet	vertrauen	krise	gierig	ausrottung	verbissen	geizig	versagen	engagiert	genießen	kreativ	besonnen	träumen	sonnig	engstirnig	gemein	krank	bange	töten	sterben	1	blank2r.bmp	0	1	+	0	1	blank2r.bmp	500	1	DHJF	500	1	blank2r.bmp	880	1	krise	880	1	FEHLER	1565	1	!	-1	1	!	-1	0	0	0
2024-05-10	10:06:53	10:16:25	570774	6.6.1	4_exp_EVA_AWA_CON	17	A	B	Rpleas_acq	Same	Rpleas	1pleas	acq_US_unple_nomask	acq3_nomask	3	23	453	1	300	300	0	0	500	46	1	0	kuss	gütig	anregung	vergnügt	gesittet	vertrauen	krise	gierig	ausrottung	verbissen	geizig	versagen	engagiert	genießen	kreativ	besonnen	träumen	sonnig	engstirnig	gemein	krank	bange	töten	sterben	1	blank2r.bmp	0	1	+	0	1	blank2r.bmp	500	1	DHJF	500	1	blank2r.bmp	880	3	ausrottung	880	1	!	1293	1	!	1402	0	0	0	0	0	0
2024-05-10	10:06:53	10:16:27	573456	6.6.1	4_exp_EVA_AWA_CON	17	A	B	Rpleas_acq	Same	Rpleas	1pleas	acq_US_unple_nomask	acq3_nomask	3	24	453	0	300	300	0	0	699	50	0	0	kuss	gütig	anregung	vergnügt	gesittet	vertrauen	krise	gierig	ausrottung	verbissen	geizig	versagen	engagiert	genießen	kreativ	besonnen	träumen	sonnig	engstirnig	gemein	krank	bange	töten	sterben	1	blank2r.bmp	0	1	+	0	1	blank2r.bmp	500	1	DHJF	500	1	blank2r.bmp	880	2	gierig	880	1	FEHLER	1893	1	!	1292	1	!	-1	0	0	0
2024-05-10	10:06:53	10:16:30	575639	6.6.1	4_exp_EVA_AWA_CON	17	A	B	Rpleas_acq	Same	Rpleas	1pleas	acq_US_pleas_nomask	acq3_nomask	3	25	453	1	300	300	0	0	411	46	0	0	kuss	gütig	anregung	vergnügt	gesittet	vertrauen	krise	gierig	ausrottung	verbissen	geizig	versagen	engagiert	genießen	kreativ	besonnen	träumen	sonnig	engstirnig	gemein	krank	bange	töten	sterben	1	blank2r.bmp	0	1	+	0	1	blank2r.bmp	500	1	CPLW	500	1	blank2r.bmp	880	6	vertrauen	880	1	FEHLER	1605	1	!	1293	1	!	1313	0	0	0
2024-05-10	10:06:53	10:16:32	577733	6.6.1	4_exp_EVA_AWA_CON	17	A	B	Rpleas_acq	Same	Rpleas	1pleas	acq_US_pleas_nomask	acq3_nomask	3	26	453	1	300	300	0	0	516	50	1	0	kuss	gütig	anregung	vergnügt	gesittet	vertrauen	krise	gierig	ausrottung	verbissen	geizig	versagen	engagiert	genießen	kreativ	besonnen	träumen	sonnig	engstirnig	gemein	krank	bange	töten	sterben	1	blank2r.bmp	0	1	+	0	1	blank2r.bmp	500	1	CPLW	500	1	blank2r.bmp	880	2	gütig	880	1	!	1292	1	!	1417	0	0	0	0	0	0
2024-05-10	10:06:53	10:16:34	580095	6.6.1	4_exp_EVA_AWA_CON	17	A	B	Rpleas_acq	Same	Rpleas	1pleas	acq_US_unple_nomask	acq3_nomask	3	27	453	0	300	300	0	0	384	50	0	0	kuss	gütig	anregung	vergnügt	gesittet	vertrauen	krise	gierig	ausrottung	verbissen	geizig	versagen	engagiert	genießen	kreativ	besonnen	träumen	sonnig	engstirnig	gemein	krank	bange	töten	sterben	1	blank2r.bmp	0	1	+	0	1	blank2r.bmp	500	1	DHJF	500	1	blank2r.bmp	880	2	gierig	880	1	FEHLER	1578	1	!	-1	1	!	-1	0	0	0
2024-05-10	10:06:53	10:16:36	582284	6.6.1	4_exp_EVA_AWA_CON	17	A	B	Rpleas_acq	Same	Rpleas	1pleas	acq_US_unple_nomask	acq3_nomask	3	28	453	0	300	300	0	0	615	46	1	0	kuss	gütig	anregung	vergnügt	gesittet	vertrauen	krise	gierig	ausrottung	verbissen	geizig	versagen	engagiert	genießen	kreativ	besonnen	träumen	sonnig	engstirnig	gemein	krank	bange	töten	sterben	1	blank2r.bmp	0	1	+	0	1	blank2r.bmp	500	1	DHJF	500	1	blank2r.bmp	880	6	versagen	880	1	!	1292	1	!	-1	0	0	0	0	0	0
2024-05-10	10:06:53	10:16:38	584460	6.6.1	4_exp_EVA_AWA_CON	17	A	B	Rpleas_acq	Same	Rpleas	1pleas	acq_US_unple_nomask	acq3_nomask	3	29	453	1	300	300	0	0	399	46	1	0	kuss	gütig	anregung	vergnügt	gesittet	vertrauen	krise	gierig	ausrottung	verbissen	geizig	versagen	engagiert	genießen	kreativ	besonnen	träumen	sonnig	engstirnig	gemein	krank	bange	töten	sterben	1	blank2r.bmp	0	1	+	0	1	blank2r.bmp	500	1	DHJF	500	1	blank2r.bmp	880	4	verbissen	880	1	!	1292	1	!	1299	0	0	0	0	0	0
2024-05-10	10:06:53	10:16:41	586879	6.6.1	4_exp_EVA_AWA_CON	17	A	B	Rpleas_acq	Same	Rpleas	1pleas	acq_US_pleas_nomask	acq3_nomask	3	30	453	1	300	300	0	0	434	46	0	0	kuss	gütig	anregung	vergnügt	gesittet	vertrauen	krise	gierig	ausrottung	verbissen	geizig	versagen	engagiert	genießen	kreativ	besonnen	träumen	sonnig	engstirnig	gemein	krank	bange	töten	sterben	1	blank2r.bmp	0	1	+	0	1	blank2r.bmp	500	1	CPLW	500	1	blank2r.bmp	880	4	vergnügt	880	1	FEHLER	1627	1	!	1293	1	!	1335	0	0	0
2024-05-10	10:06:53	10:16:43	589231	6.6.1	4_exp_EVA_AWA_CON	17	A	B	Rpleas_acq	Same	Rpleas	1pleas	acq_US_pleas_nomask	acq3_nomask	3	31	453	0	300	300	0	0	574	46	0	0	kuss	gütig	anregung	vergnügt	gesittet	vertrauen	krise	gierig	ausrottung	verbissen	geizig	versagen	engagiert	genießen	kreativ	besonnen	träumen	sonnig	engstirnig	gemein	krank	bange	töten	sterben	1	blank2r.bmp	0	1	+	0	1	blank2r.bmp	500	1	CPLW	500	1	blank2r.bmp	880	5	gesittet	880	1	FEHLER	1768	1	!	1292	1	!	-1	0	0	0
2024-05-10	10:06:53	10:16:45	591508	6.6.1	4_exp_EVA_AWA_CON	17	A	B	Rpleas_acq	Same	Rpleas	1pleas	acq_US_pleas_nomask	acq3_nomask	3	32	453	0	300	300	0	0	703	50	1	0	kuss	gütig	anregung	vergnügt	gesittet	vertrauen	krise	gierig	ausrottung	verbissen	geizig	versagen	engagiert	genießen	kreativ	besonnen	träumen	sonnig	engstirnig	gemein	krank	bange	töten	sterben	1	blank2r.bmp	0	1	+	0	1	blank2r.bmp	500	1	CPLW	500	1	blank2r.bmp	880	3	anregung	880	1	!	1293	1	!	-1	0	0	0	0	0	0
2024-05-10	10:06:53	10:16:48	593694	6.6.1	4_exp_EVA_AWA_CON	17	A	B	Rpleas_acq	Same	Rpleas	1pleas	acq_US_pleas_nomask	acq3_nomask	3	33	453	1	300	300	0	0	405	50	1	0	kuss	gütig	anregung	vergnügt	gesittet	vertrauen	krise	gierig	ausrottung	verbissen	geizig	versagen	engagiert	genießen	kreativ	besonnen	träumen	sonnig	engstirnig	gemein	krank	bange	töten	sterben	1	blank2r.bmp	0	1	+	0	1	blank2r.bmp	500	1	CPLW	500	1	blank2r.bmp	880	1	kuss	880	1	!	1293	1	!	1307	0	0	0	0	0	0
2024-05-10	10:06:53	10:16:50	596149	6.6.1	4_exp_EVA_AWA_CON	17	A	B	Rpleas_acq	Same	Rpleas	1pleas	acq_US_unple_nomask	acq3_nomask	3	34	453	0	300	300	0	0	680	46	1	0	kuss	gütig	anregung	vergnügt	gesittet	vertrauen	krise	gierig	ausrottung	verbissen	geizig	versagen	engagiert	genießen	kreativ	besonnen	träumen	sonnig	engstirnig	gemein	krank	bange	töten	sterben	1	blank2r.bmp	0	1	+	0	1	blank2r.bmp	500	1	DHJF	500	1	blank2r.bmp	880	3	ausrottung	880	1	!	1292	1	!	-1	0	0	0	0	0	0
2024-05-10	10:06:53	10:16:52	598382	6.6.1	4_exp_EVA_AWA_CON	17	A	B	Rpleas_acq	Same	Rpleas	1pleas	acq_US_unple_nomask	acq3_nomask	3	35	453	1	300	300	0	0	451	46	1	0	kuss	gütig	anregung	vergnügt	gesittet	vertrauen	krise	gierig	ausrottung	verbissen	geizig	versagen	engagiert	genießen	kreativ	besonnen	träumen	sonnig	engstirnig	gemein	krank	bange	töten	sterben	1	blank2r.bmp	0	1	+	0	1	blank2r.bmp	500	1	DHJF	500	1	blank2r.bmp	880	5	geizig	880	1	!	1293	1	!	1352	0	0	0	0	0	0
2024-05-10	10:06:53	10:16:54	600532	6.6.1	4_exp_EVA_AWA_CON	17	A	B	Rpleas_acq	Same	Rpleas	1pleas	acq_US_unple_nomask	acq3_nomask	3	36	453	0	300	300	0	0	371	46	1	0	kuss	gütig	anregung	vergnügt	gesittet	vertrauen	krise	gierig	ausrottung	verbissen	geizig	versagen	engagiert	genießen	kreativ	besonnen	träumen	sonnig	engstirnig	gemein	krank	bange	töten	sterben	1	blank2r.bmp	0	1	+	0	1	blank2r.bmp	500	1	DHJF	500	1	blank2r.bmp	880	1	krise	880	1	!	-1	1	!	-1	0	0	0	0	0	0
2024-05-10	10:06:53	10:18:14	679782	6.6.1	4_exp_EVA_AWA_CON	17	A	B	Rpleas_acq	Same	Rpleas	1pleas	acq_US_pleas_nomask	acq45_nomask	4	1	400	1	300	300	0	0	467	46	0	0	kuss	gütig	anregung	vergnügt	gesittet	vertrauen	krise	gierig	ausrottung	verbissen	geizig	versagen	engagiert	genießen	kreativ	besonnen	träumen	sonnig	engstirnig	gemein	krank	bange	töten	sterben	1	blank2r.bmp	0	1	+	0	1	blank2r.bmp	500	1	CPLW	500	1	blank2r.bmp	880	4	vergnügt	880	1	!	1232	1	!	1369	0	0	0	0	0	0
2024-05-10	10:06:53	10:18:16	682030	6.6.1	4_exp_EVA_AWA_CON	17	A	B	Rpleas_acq	Same	Rpleas	1pleas	acq_US_unple_nomask	acq45_nomask	4	2	400	1	300	300	0	0	463	46	1	0	kuss	gütig	anregung	vergnügt	gesittet	vertrauen	krise	gierig	ausrottung	verbissen	geizig	versagen	engagiert	genießen	kreativ	besonnen	träumen	sonnig	engstirnig	gemein	krank	bange	töten	sterben	1	blank2r.bmp	0	1	+	0	1	blank2r.bmp	500	1	DHJF	500	1	blank2r.bmp	880	4	verbissen	880	1	!	1232	1	!	1365	0	0	0	0	0	0
2024-05-10	10:06:53	10:18:18	684246	6.6.1	4_exp_EVA_AWA_CON	17	A	B	Rpleas_acq	Same	Rpleas	1pleas	acq_US_pleas_nomask	acq45_nomask	4	3	400	1	300	300	0	0	439	50	1	0	kuss	gütig	anregung	vergnügt	gesittet	vertrauen	krise	gierig	ausrottung	verbissen	geizig	versagen	engagiert	genießen	kreativ	besonnen	träumen	sonnig	engstirnig	gemein	krank	bange	töten	sterben	1	blank2r.bmp	0	1	+	0	1	blank2r.bmp	500	1	CPLW	500	1	blank2r.bmp	880	1	kuss	880	1	!	1232	1	!	1340	0	0	0	0	0	0
2024-05-10	10:06:53	10:18:20	686414	6.6.1	4_exp_EVA_AWA_CON	17	A	B	Rpleas_acq	Same	Rpleas	1pleas	acq_US_unple_nomask	acq45_nomask	4	4	400	1	300	300	0	0	385	46	1	0	kuss	gütig	anregung	vergnügt	gesittet	vertrauen	krise	gierig	ausrottung	verbissen	geizig	versagen	engagiert	genießen	kreativ	besonnen	träumen	sonnig	engstirnig	gemein	krank	bange	töten	sterben	1	blank2r.bmp	0	1	+	0	1	blank2r.bmp	500	1	DHJF	500	1	blank2r.bmp	880	6	versagen	880	1	!	1232	1	!	1286	0	0	0	0	0	0
2024-05-10	10:06:53	10:18:23	688566	6.6.1	4_exp_EVA_AWA_CON	17	A	B	Rpleas_acq	Same	Rpleas	1pleas	acq_US_unple_nomask	acq45_nomask	4	5	400	1	300	300	0	0	375	50	0	0	kuss	gütig	anregung	vergnügt	gesittet	vertrauen	krise	gierig	ausrottung	verbissen	geizig	versagen	engagiert	genießen	kreativ	besonnen	träumen	sonnig	engstirnig	gemein	krank	bange	töten	sterben	1	blank2r.bmp	0	1	+	0	1	blank2r.bmp	500	1	DHJF	500	1	blank2r.bmp	880	3	ausrottung	880	1	!	1232	1	!	1277	0	0	0	0	0	0
2024-05-10	10:06:53	10:18:25	690774	6.6.1	4_exp_EVA_AWA_CON	17	A	B	Rpleas_acq	Same	Rpleas	1pleas	acq_US_pleas_nomask	acq45_nomask	4	6	400	1	300	300	0	0	432	50	1	0	kuss	gütig	anregung	vergnügt	gesittet	vertrauen	krise	gierig	ausrottung	verbissen	geizig	versagen	engagiert	genießen	kreativ	besonnen	träumen	sonnig	engstirnig	gemein	krank	bange	töten	sterben	1	blank2r.bmp	0	1	+	0	1	blank2r.bmp	500	1	CPLW	500	1	blank2r.bmp	880	6	vertrauen	880	1	!	1232	1	!	1333	0	0	0	0	0	0
2024-05-10	10:06:53	10:18:27	692942	6.6.1	4_exp_EVA_AWA_CON	17	A	B	Rpleas_acq	Same	Rpleas	1pleas	acq_US_unple_nomask	acq45_nomask	4	7	400	1	300	300	0	0	388	46	1	0	kuss	gütig	anregung	vergnügt	gesittet	vertrauen	krise	gierig	ausrottung	verbissen	geizig	versagen	engagiert	genießen	kreativ	besonnen	träumen	sonnig	engstirnig	gemein	krank	bange	töten	sterben	1	blank2r.bmp	0	1	+	0	1	blank2r.bmp	500	1	DHJF	500	1	blank2r.bmp	880	1	krise	880	1	!	1232	1	!	1290	0	0	0	0	0	0
2024-05-10	10:06:53	10:18:29	695142	6.6.1	4_exp_EVA_AWA_CON	17	A	B	Rpleas_acq	Same	Rpleas	1pleas	acq_US_pleas_nomask	acq45_nomask	4	8	400	1	300	300	0	0	418	46	0	0	kuss	gütig	anregung	vergnügt	gesittet	vertrauen	krise	gierig	ausrottung	verbissen	geizig	versagen	engagiert	genießen	kreativ	besonnen	träumen	sonnig	engstirnig	gemein	krank	bange	töten	sterben	1	blank2r.bmp	0	1	+	0	1	blank2r.bmp	500	1	CPLW	500	1	blank2r.bmp	880	3	anregung	880	1	!	1232	1	!	1319	0	0	0	0	0	0
2024-05-10	10:06:53	10:18:31	697485	6.6.1	4_exp_EVA_AWA_CON	17	A	B	Rpleas_acq	Same	Rpleas	1pleas	acq_US_unple_nomask	acq45_nomask	4	9	400	0	300	300	0	0	570	50	0	0	kuss	gütig	anregung	vergnügt	gesittet	vertrauen	krise	gierig	ausrottung	verbissen	geizig	versagen	engagiert	genießen	kreativ	besonnen	träumen	sonnig	engstirnig	gemein	krank	bange	töten	sterben	1	blank2r.bmp	0	1	+	0	1	blank2r.bmp	500	1	DHJF	500	1	blank2r.bmp	880	2	gierig	880	1	!	1233	1	!	-1	0	0	0	0	0	0
2024-05-10	10:06:53	10:18:34	699710	6.6.1	4_exp_EVA_AWA_CON	17	A	B	Rpleas_acq	Same	Rpleas	1pleas	acq_US_unple_nomask	acq45_nomask	4	10	400	1	300	300	0	0	442	50	0	0	kuss	gütig	anregung	vergnügt	gesittet	vertrauen	krise	gierig	ausrottung	verbissen	geizig	versagen	engagiert	genießen	kreativ	besonnen	träumen	sonnig	engstirnig	gemein	krank	bange	töten	sterben	1	blank2r.bmp	0	1	+	0	1	blank2r.bmp	500	1	DHJF	500	1	blank2r.bmp	880	5	geizig	880	1	!	1232	1	!	1344	0	0	0	0	0	0
2024-05-10	10:06:53	10:18:36	701950	6.6.1	4_exp_EVA_AWA_CON	17	A	B	Rpleas_acq	Same	Rpleas	1pleas	acq_US_pleas_nomask	acq45_nomask	4	11	400	1	300	300	0	0	460	50	1	0	kuss	gütig	anregung	vergnügt	gesittet	vertrauen	krise	gierig	ausrottung	verbissen	geizig	versagen	engagiert	genießen	kreativ	besonnen	träumen	sonnig	engstirnig	gemein	krank	bange	töten	sterben	1	blank2r.bmp	0	1	+	0	1	blank2r.bmp	500	1	CPLW	500	1	blank2r.bmp	880	2	gütig	880	1	!	1232	1	!	1362	0	0	0	0	0	0
2024-05-10	10:06:53	10:18:38	704300	6.6.1	4_exp_EVA_AWA_CON	17	A	B	Rpleas_acq	Same	Rpleas	1pleas	acq_US_unple_nomask	acq45_nomask	4	12	400	0	300	300	0	0	571	46	1	0	kuss	gütig	anregung	vergnügt	gesittet	vertrauen	krise	gierig	ausrottung	verbissen	geizig	versagen	engagiert	genießen	kreativ	besonnen	träumen	sonnig	engstirnig	gemein	krank	bange	töten	sterben	1	blank2r.bmp	0	1	+	0	1	blank2r.bmp	500	1	DHJF	500	1	blank2r.bmp	880	4	verbissen	880	1	!	1232	1	!	-1	0	0	0	0	0	0
2024-05-10	10:06:53	10:18:41	706588	6.6.1	4_exp_EVA_AWA_CON	17	A	B	Rpleas_acq	Same	Rpleas	1pleas	acq_US_pleas_nomask	acq45_nomask	4	13	400	0	300	300	0	0	507	46	0	0	kuss	gütig	anregung	vergnügt	gesittet	vertrauen	krise	gierig	ausrottung	verbissen	geizig	versagen	engagiert	genießen	kreativ	besonnen	träumen	sonnig	engstirnig	gemein	krank	bange	töten	sterben	1	blank2r.bmp	0	1	+	0	1	blank2r.bmp	500	1	CPLW	500	1	blank2r.bmp	880	5	gesittet	880	1	!	1232	1	!	-1	0	0	0	0	0	0
2024-05-10	10:06:53	10:18:43	708750	6.6.1	4_exp_EVA_AWA_CON	17	A	B	Rpleas_acq	Same	Rpleas	1pleas	acq_US_pleas_nomask	acq45_nomask	4	14	400	1	300	300	0	0	386	46	0	0	kuss	gütig	anregung	vergnügt	gesittet	vertrauen	krise	gierig	ausrottung	verbissen	geizig	versagen	engagiert	genießen	kreativ	besonnen	träumen	sonnig	engstirnig	gemein	krank	bange	töten	sterben	1	blank2r.bmp	0	1	+	0	1	blank2r.bmp	500	1	CPLW	500	1	blank2r.bmp	880	5	gesittet	880	1	!	1232	1	!	1288	0	0	0	0	0	0
2024-05-10	10:06:53	10:18:45	711164	6.6.1	4_exp_EVA_AWA_CON	17	A	B	Rpleas_acq	Same	Rpleas	1pleas	acq_US_pleas_nomask	acq45_nomask	4	15	400	0	300	300	0	0	642	50	1	0	kuss	gütig	anregung	vergnügt	gesittet	vertrauen	krise	gierig	ausrottung	verbissen	geizig	versagen	engagiert	genießen	kreativ	besonnen	träumen	sonnig	engstirnig	gemein	krank	bange	töten	sterben	1	blank2r.bmp	0	1	+	0	1	blank2r.bmp	500	1	CPLW	500	1	blank2r.bmp	880	6	vertrauen	880	1	!	1232	1	!	-1	0	0	0	0	0	0
2024-05-10	10:06:53	10:18:47	713468	6.6.1	4_exp_EVA_AWA_CON	17	A	B	Rpleas_acq	Same	Rpleas	1pleas	acq_US_unple_nomask	acq45_nomask	4	16	400	0	300	300	0	0	523	46	1	0	kuss	gütig	anregung	vergnügt	gesittet	vertrauen	krise	gierig	ausrottung	verbissen	geizig	versagen	engagiert	genießen	kreativ	besonnen	träumen	sonnig	engstirnig	gemein	krank	bange	töten	sterben	1	blank2r.bmp	0	1	+	0	1	blank2r.bmp	500	1	DHJF	500	1	blank2r.bmp	880	5	geizig	880	1	!	1232	1	!	-1	0	0	0	0	0	0
2024-05-10	10:06:53	10:18:50	715630	6.6.1	4_exp_EVA_AWA_CON	17	A	B	Rpleas_acq	Same	Rpleas	1pleas	acq_US_pleas_nomask	acq45_nomask	4	17	400	1	300	300	0	0	382	50	1	0	kuss	gütig	anregung	vergnügt	gesittet	vertrauen	krise	gierig	ausrottung	verbissen	geizig	versagen	engagiert	genießen	kreativ	besonnen	träumen	sonnig	engstirnig	gemein	krank	bange	töten	sterben	1	blank2r.bmp	0	1	+	0	1	blank2r.bmp	500	1	CPLW	500	1	blank2r.bmp	880	4	vergnügt	880	1	!	1232	1	!	1283	0	0	0	0	0	0
2024-05-10	10:06:53	10:18:52	717900	6.6.1	4_exp_EVA_AWA_CON	17	A	B	Rpleas_acq	Same	Rpleas	1pleas	acq_US_unple_nomask	acq45_nomask	4	18	400	0	300	300	0	0	492	46	1	0	kuss	gütig	anregung	vergnügt	gesittet	vertrauen	krise	gierig	ausrottung	verbissen	geizig	versagen	engagiert	genießen	kreativ	besonnen	träumen	sonnig	engstirnig	gemein	krank	bange	töten	sterben	1	blank2r.bmp	0	1	+	0	1	blank2r.bmp	500	1	DHJF	500	1	blank2r.bmp	880	6	versagen	880	1	!	1232	1	!	-1	0	0	0	0	0	0
2024-05-10	10:06:53	10:18:54	720126	6.6.1	4_exp_EVA_AWA_CON	17	A	B	Rpleas_acq	Same	Rpleas	1pleas	acq_US_unple_nomask	acq45_nomask	4	19	400	1	300	300	0	0	445	46	1	0	kuss	gütig	anregung	vergnügt	gesittet	vertrauen	krise	gierig	ausrottung	verbissen	geizig	versagen	engagiert	genießen	kreativ	besonnen	träumen	sonnig	engstirnig	gemein	krank	bange	töten	sterben	1	blank2r.bmp	0	1	+	0	1	blank2r.bmp	500	1	DHJF	500	1	blank2r.bmp	880	3	ausrottung	880	1	!	1233	1	!	1346	0	0	0	0	0	0
2024-05-10	10:06:53	10:18:56	722334	6.6.1	4_exp_EVA_AWA_CON	17	A	B	Rpleas_acq	Same	Rpleas	1pleas	acq_US_unple_nomask	acq45_nomask	4	20	400	1	300	300	0	0	432	46	1	0	kuss	gütig	anregung	vergnügt	gesittet	vertrauen	krise	gierig	ausrottung	verbissen	geizig	versagen	engagiert	genießen	kreativ	besonnen	träumen	sonnig	engstirnig	gemein	krank	bange	töten	sterben	1	blank2r.bmp	0	1	+	0	1	blank2r.bmp	500	1	DHJF	500	1	blank2r.bmp	880	1	krise	880	1	!	1232	1	!	1333	0	0	0	0	0	0
2024-05-10	10:06:53	10:18:58	724518	6.6.1	4_exp_EVA_AWA_CON	17	A	B	Rpleas_acq	Same	Rpleas	1pleas	acq_US_pleas_nomask	acq45_nomask	4	21	400	1	300	300	0	0	404	46	0	0	kuss	gütig	anregung	vergnügt	gesittet	vertrauen	krise	gierig	ausrottung	verbissen	geizig	versagen	engagiert	genießen	kreativ	besonnen	träumen	sonnig	engstirnig	gemein	krank	bange	töten	sterben	1	blank2r.bmp	0	1	+	0	1	blank2r.bmp	500	1	CPLW	500	1	blank2r.bmp	880	2	gütig	880	1	!	1232	1	!	1305	0	0	0	0	0	0
2024-05-10	10:06:53	10:19:01	726796	6.6.1	4_exp_EVA_AWA_CON	17	A	B	Rpleas_acq	Same	Rpleas	1pleas	acq_US_unple_nomask	acq45_nomask	4	22	400	0	300	300	0	0	503	46	1	0	kuss	gütig	anregung	vergnügt	gesittet	vertrauen	krise	gierig	ausrottung	verbissen	geizig	versagen	engagiert	genießen	kreativ	besonnen	träumen	sonnig	engstirnig	gemein	krank	bange	töten	sterben	1	blank2r.bmp	0	1	+	0	1	blank2r.bmp	500	1	DHJF	500	1	blank2r.bmp	880	2	gierig	880	1	!	1232	1	!	-1	0	0	0	0	0	0
2024-05-10	10:06:53	10:19:03	729100	6.6.1	4_exp_EVA_AWA_CON	17	A	B	Rpleas_acq	Same	Rpleas	1pleas	acq_US_pleas_nomask	acq45_nomask	4	23	400	0	300	300	0	0	525	46	0	0	kuss	gütig	anregung	vergnügt	gesittet	vertrauen	krise	gierig	ausrottung	verbissen	geizig	versagen	engagiert	genießen	kreativ	besonnen	träumen	sonnig	engstirnig	gemein	krank	bange	töten	sterben	1	blank2r.bmp	0	1	+	0	1	blank2r.bmp	500	1	CPLW	500	1	blank2r.bmp	880	3	anregung	880	1	!	1232	1	!	-1	0	0	0	0	0	0
2024-05-10	10:06:53	10:19:05	731310	6.6.1	4_exp_EVA_AWA_CON	17	A	B	Rpleas_acq	Same	Rpleas	1pleas	acq_US_unple_nomask	acq45_nomask	4	24	400	1	300	300	0	0	431	50	0	0	kuss	gütig	anregung	vergnügt	gesittet	vertrauen	krise	gierig	ausrottung	verbissen	geizig	versagen	engagiert	genießen	kreativ	besonnen	träumen	sonnig	engstirnig	gemein	krank	bange	töten	sterben	1	blank2r.bmp	0	1	+	0	1	blank2r.bmp	500	1	DHJF	500	1	blank2r.bmp	880	6	versagen	880	1	!	1232	1	!	1333	0	0	0	0	0	0
2024-05-10	10:06:53	10:19:07	733470	6.6.1	4_exp_EVA_AWA_CON	17	A	B	Rpleas_acq	Same	Rpleas	1pleas	acq_US_pleas_nomask	acq45_nomask	4	25	400	1	300	300	0	0	381	50	1	0	kuss	gütig	anregung	vergnügt	gesittet	vertrauen	krise	gierig	ausrottung	verbissen	geizig	versagen	engagiert	genießen	kreativ	besonnen	träumen	sonnig	engstirnig	gemein	krank	bange	töten	sterben	1	blank2r.bmp	0	1	+	0	1	blank2r.bmp	500	1	CPLW	500	1	blank2r.bmp	880	1	kuss	880	1	!	1232	1	!	1282	0	0	0	0	0	0
2024-05-10	10:06:53	10:19:10	735730	6.6.1	4_exp_EVA_AWA_CON	17	A	B	Rpleas_acq	Same	Rpleas	1pleas	acq_US_unple_nomask	acq45_nomask	4	26	400	0	300	300	0	0	482	46	1	0	kuss	gütig	anregung	vergnügt	gesittet	vertrauen	krise	gierig	ausrottung	verbissen	geizig	versagen	engagiert	genießen	kreativ	besonnen	träumen	sonnig	engstirnig	gemein	krank	bange	töten	sterben	1	blank2r.bmp	0	1	+	0	1	blank2r.bmp	500	1	DHJF	500	1	blank2r.bmp	880	4	verbissen	880	1	!	1233	1	!	-1	0	0	0	0	0	0
2024-05-10	10:06:53	10:19:12	737950	6.6.1	4_exp_EVA_AWA_CON	17	A	B	Rpleas_acq	Same	Rpleas	1pleas	acq_US_unple_nomask	acq45_nomask	4	27	400	1	300	300	0	0	438	46	1	0	kuss	gütig	anregung	vergnügt	gesittet	vertrauen	krise	gierig	ausrottung	verbissen	geizig	versagen	engagiert	genießen	kreativ	besonnen	träumen	sonnig	engstirnig	gemein	krank	bange	töten	sterben	1	blank2r.bmp	0	1	+	0	1	blank2r.bmp	500	1	DHJF	500	1	blank2r.bmp	880	2	gierig	880	1	!	1233	1	!	1339	0	0	0	0	0	0
2024-05-10	10:06:53	10:19:14	740102	6.6.1	4_exp_EVA_AWA_CON	17	A	B	Rpleas_acq	Same	Rpleas	1pleas	acq_US_pleas_nomask	acq45_nomask	4	28	400	1	300	300	0	0	378	46	0	0	kuss	gütig	anregung	vergnügt	gesittet	vertrauen	krise	gierig	ausrottung	verbissen	geizig	versagen	engagiert	genießen	kreativ	besonnen	träumen	sonnig	engstirnig	gemein	krank	bange	töten	sterben	1	blank2r.bmp	0	1	+	0	1	blank2r.bmp	500	1	CPLW	500	1	blank2r.bmp	880	4	vergnügt	880	1	!	1232	1	!	1279	0	0	0	0	0	0
2024-05-10	10:06:53	10:19:16	742326	6.6.1	4_exp_EVA_AWA_CON	17	A	B	Rpleas_acq	Same	Rpleas	1pleas	acq_US_pleas_nomask	acq45_nomask	4	29	400	1	300	300	0	0	441	46	0	0	kuss	gütig	anregung	vergnügt	gesittet	vertrauen	krise	gierig	ausrottung	verbissen	geizig	versagen	engagiert	genießen	kreativ	besonnen	träumen	sonnig	engstirnig	gemein	krank	bange	töten	sterben	1	blank2r.bmp	0	1	+	0	1	blank2r.bmp	500	1	CPLW	500	1	blank2r.bmp	880	6	vertrauen	880	1	!	1232	1	!	1342	0	0	0	0	0	0
2024-05-10	10:06:53	10:19:18	744510	6.6.1	4_exp_EVA_AWA_CON	17	A	B	Rpleas_acq	Same	Rpleas	1pleas	acq_US_unple_nomask	acq45_nomask	4	30	400	1	300	300	0	0	403	50	0	0	kuss	gütig	anregung	vergnügt	gesittet	vertrauen	krise	gierig	ausrottung	verbissen	geizig	versagen	engagiert	genießen	kreativ	besonnen	träumen	sonnig	engstirnig	gemein	krank	bange	töten	sterben	1	blank2r.bmp	0	1	+	0	1	blank2r.bmp	500	1	DHJF	500	1	blank2r.bmp	880	1	krise	880	1	!	1232	1	!	1304	0	0	0	0	0	0
2024-05-10	10:06:53	10:19:21	746892	6.6.1	4_exp_EVA_AWA_CON	17	A	B	Rpleas_acq	Same	Rpleas	1pleas	acq_US_pleas_nomask	acq45_nomask	4	31	400	0	300	300	0	0	605	46	0	0	kuss	gütig	anregung	vergnügt	gesittet	vertrauen	krise	gierig	ausrottung	verbissen	geizig	versagen	engagiert	genießen	kreativ	besonnen	träumen	sonnig	engstirnig	gemein	krank	bange	töten	sterben	1	blank2r.bmp	0	1	+	0	1	blank2r.bmp	500	1	CPLW	500	1	blank2r.bmp	880	5	gesittet	880	1	!	1232	1	!	-1	0	0	0	0	0	0
2024-05-10	10:06:53	10:19:23	749134	6.6.1	4_exp_EVA_AWA_CON	17	A	B	Rpleas_acq	Same	Rpleas	1pleas	acq_US_pleas_nomask	acq45_nomask	4	32	400	1	300	300	0	0	465	50	1	0	kuss	gütig	anregung	vergnügt	gesittet	vertrauen	krise	gierig	ausrottung	verbissen	geizig	versagen	engagiert	genießen	kreativ	besonnen	träumen	sonnig	engstirnig	gemein	krank	bange	töten	sterben	1	blank2r.bmp	0	1	+	0	1	blank2r.bmp	500	1	CPLW	500	1	blank2r.bmp	880	1	kuss	880	1	!	1233	1	!	1365	0	0	0	0	0	0
2024-05-10	10:06:53	10:19:25	751350	6.6.1	4_exp_EVA_AWA_CON	17	A	B	Rpleas_acq	Same	Rpleas	1pleas	acq_US_pleas_nomask	acq45_nomask	4	33	400	1	300	300	0	0	438	50	1	0	kuss	gütig	anregung	vergnügt	gesittet	vertrauen	krise	gierig	ausrottung	verbissen	geizig	versagen	engagiert	genießen	kreativ	besonnen	träumen	sonnig	engstirnig	gemein	krank	bange	töten	sterben	1	blank2r.bmp	0	1	+	0	1	blank2r.bmp	500	1	CPLW	500	1	blank2r.bmp	880	3	anregung	880	1	!	1232	1	!	1340	0	0	0	0	0	0
2024-05-10	10:06:53	10:19:27	753486	6.6.1	4_exp_EVA_AWA_CON	17	A	B	Rpleas_acq	Same	Rpleas	1pleas	acq_US_pleas_nomask	acq45_nomask	4	34	400	1	300	300	0	0	353	50	1	0	kuss	gütig	anregung	vergnügt	gesittet	vertrauen	krise	gierig	ausrottung	verbissen	geizig	versagen	engagiert	genießen	kreativ	besonnen	träumen	sonnig	engstirnig	gemein	krank	bange	töten	sterben	1	blank2r.bmp	0	1	+	0	1	blank2r.bmp	500	1	CPLW	500	1	blank2r.bmp	880	2	gütig	880	1	!	1232	1	!	1254	0	0	0	0	0	0
2024-05-10	10:06:53	10:19:30	755622	6.6.1	4_exp_EVA_AWA_CON	17	A	B	Rpleas_acq	Same	Rpleas	1pleas	acq_US_unple_nomask	acq45_nomask	4	35	400	1	300	300	0	0	358	46	1	0	kuss	gütig	anregung	vergnügt	gesittet	vertrauen	krise	gierig	ausrottung	verbissen	geizig	versagen	engagiert	genießen	kreativ	besonnen	träumen	sonnig	engstirnig	gemein	krank	bange	töten	sterben	1	blank2r.bmp	0	1	+	0	1	blank2r.bmp	500	1	DHJF	500	1	blank2r.bmp	880	3	ausrottung	880	1	!	1232	1	!	1259	0	0	0	0	0	0
2024-05-10	10:06:53	10:19:32	757900	6.6.1	4_exp_EVA_AWA_CON	17	A	B	Rpleas_acq	Same	Rpleas	1pleas	acq_US_unple_nomask	acq45_nomask	4	36	400	0	300	300	0	0	496	46	1	0	kuss	gütig	anregung	vergnügt	gesittet	vertrauen	krise	gierig	ausrottung	verbissen	geizig	versagen	engagiert	genießen	kreativ	besonnen	träumen	sonnig	engstirnig	gemein	krank	bange	töten	sterben	1	blank2r.bmp	0	1	+	0	1	blank2r.bmp	500	1	DHJF	500	1	blank2r.bmp	880	5	geizig	880	1	!	1232	1	!	-1	0	0	0	0	0	0
2024-05-10	10:06:53	10:19:51	776670	6.6.1	4_exp_EVA_AWA_CON	17	A	B	Rpleas_acq	Same	Rpleas	1pleas	acq_US_pleas_nomask	acq45_nomask	5	1	400	1	300	300	0	0	432	50	1	0	kuss	gütig	anregung	vergnügt	gesittet	vertrauen	krise	gierig	ausrottung	verbissen	geizig	versagen	engagiert	genießen	kreativ	besonnen	träumen	sonnig	engstirnig	gemein	krank	bange	töten	sterben	1	blank2r.bmp	0	1	+	0	1	blank2r.bmp	500	1	CPLW	500	1	blank2r.bmp	880	1	kuss	880	1	!	1232	1	!	1333	0	0	0	0	0	0
2024-05-10	10:06:53	10:19:52	778452	6.6.1	4_exp_EVA_AWA_CON	17	A	B	Rpleas_acq	Same	Rpleas	1pleas	acq_US_unple_nomask	acq45_nomask	5	2	400	0	300	300	0	0	5	46	1	0	kuss	gütig	anregung	vergnügt	gesittet	vertrauen	krise	gierig	ausrottung	verbissen	geizig	versagen	engagiert	genießen	kreativ	besonnen	träumen	sonnig	engstirnig	gemein	krank	bange	töten	sterben	1	blank2r.bmp	0	1	+	0	1	blank2r.bmp	500	1	DHJF	500	1	blank2r.bmp	880	3	ausrottung	880	1	!	-1	1	!	-1	0	0	0	0	0	0
2024-05-10	10:06:53	10:19:55	780614	6.6.1	4_exp_EVA_AWA_CON	17	A	B	Rpleas_acq	Same	Rpleas	1pleas	acq_US_pleas_nomask	acq45_nomask	5	3	400	1	300	300	0	0	384	50	1	0	kuss	gütig	anregung	vergnügt	gesittet	vertrauen	krise	gierig	ausrottung	verbissen	geizig	versagen	engagiert	genießen	kreativ	besonnen	träumen	sonnig	engstirnig	gemein	krank	bange	töten	sterben	1	blank2r.bmp	0	1	+	0	1	blank2r.bmp	500	1	CPLW	500	1	blank2r.bmp	880	6	vertrauen	880	1	!	1232	1	!	1285	0	0	0	0	0	0
2024-05-10	10:06:53	10:19:57	782774	6.6.1	4_exp_EVA_AWA_CON	17	A	B	Rpleas_acq	Same	Rpleas	1pleas	acq_US_unple_nomask	acq45_nomask	5	4	400	1	300	300	0	0	382	46	1	0	kuss	gütig	anregung	vergnügt	gesittet	vertrauen	krise	gierig	ausrottung	verbissen	geizig	versagen	engagiert	genießen	kreativ	besonnen	träumen	sonnig	engstirnig	gemein	krank	bange	töten	sterben	1	blank2r.bmp	0	1	+	0	1	blank2r.bmp	500	1	DHJF	500	1	blank2r.bmp	880	1	krise	880	1	!	1232	1	!	1283	0	0	0	0	0	0
2024-05-10	10:06:53	10:19:59	785026	6.6.1	4_exp_EVA_AWA_CON	17	A	B	Rpleas_acq	Same	Rpleas	1pleas	acq_US_unple_nomask	acq45_nomask	5	5	400	0	300	300	0	0	476	46	1	0	kuss	gütig	anregung	vergnügt	gesittet	vertrauen	krise	gierig	ausrottung	verbissen	geizig	versagen	engagiert	genießen	kreativ	besonnen	träumen	sonnig	engstirnig	gemein	krank	bange	töten	sterben	1	blank2r.bmp	0	1	+	0	1	blank2r.bmp	500	1	DHJF	500	1	blank2r.bmp	880	4	verbissen	880	1	!	1232	1	!	-1	0	0	0	0	0	0
2024-05-10	10:06:53	10:20:01	787166	6.6.1	4_exp_EVA_AWA_CON	17	A	B	Rpleas_acq	Same	Rpleas	1pleas	acq_US_pleas_nomask	acq45_nomask	5	6	400	1	300	300	0	0	361	46	0	0	kuss	gütig	anregung	vergnügt	gesittet	vertrauen	krise	gierig	ausrottung	verbissen	geizig	versagen	engagiert	genießen	kreativ	besonnen	träumen	sonnig	engstirnig	gemein	krank	bange	töten	sterben	1	blank2r.bmp	0	1	+	0	1	blank2r.bmp	500	1	CPLW	500	1	blank2r.bmp	880	4	vergnügt	880	1	!	1233	1	!	1262	0	0	0	0	0	0
2024-05-10	10:06:53	10:20:03	789302	6.6.1	4_exp_EVA_AWA_CON	17	A	B	Rpleas_acq	Same	Rpleas	1pleas	acq_US_pleas_nomask	acq45_nomask	5	7	400	1	300	300	0	0	356	50	1	0	kuss	gütig	anregung	vergnügt	gesittet	vertrauen	krise	gierig	ausrottung	verbissen	geizig	versagen	engagiert	genießen	kreativ	besonnen	träumen	sonnig	engstirnig	gemein	krank	bange	töten	sterben	1	blank2r.bmp	0	1	+	0	1	blank2r.bmp	500	1	CPLW	500	1	blank2r.bmp	880	5	gesittet	880	1	!	1232	1	!	1257	0	0	0	0	0	0
2024-05-10	10:06:53	10:20:05	791447	6.6.1	4_exp_EVA_AWA_CON	17	A	B	Rpleas_acq	Same	Rpleas	1pleas	acq_US_unple_nomask	acq45_nomask	5	8	400	1	300	300	0	0	369	50	0	0	kuss	gütig	anregung	vergnügt	gesittet	vertrauen	krise	gierig	ausrottung	verbissen	geizig	versagen	engagiert	genießen	kreativ	besonnen	träumen	sonnig	engstirnig	gemein	krank	bange	töten	sterben	1	blank2r.bmp	0	1	+	0	1	blank2r.bmp	500	1	DHJF	500	1	blank2r.bmp	880	6	versagen	880	1	!	1233	1	!	1270	0	0	0	0	0	0
2024-05-10	10:06:53	10:20:08	793606	6.6.1	4_exp_EVA_AWA_CON	17	A	B	Rpleas_acq	Same	Rpleas	1pleas	acq_US_pleas_nomask	acq45_nomask	5	9	400	1	300	300	0	0	376	50	1	0	kuss	gütig	anregung	vergnügt	gesittet	vertrauen	krise	gierig	ausrottung	verbissen	geizig	versagen	engagiert	genießen	kreativ	besonnen	träumen	sonnig	engstirnig	gemein	krank	bange	töten	sterben	1	blank2r.bmp	0	1	+	0	1	blank2r.bmp	500	1	CPLW	500	1	blank2r.bmp	880	2	gütig	880	1	!	1232	1	!	1278	0	0	0	0	0	0
2024-05-10	10:06:53	10:20:10	795892	6.6.1	4_exp_EVA_AWA_CON	17	A	B	Rpleas_acq	Same	Rpleas	1pleas	acq_US_pleas_nomask	acq45_nomask	5	10	400	0	300	300	0	0	513	46	0	0	kuss	gütig	anregung	vergnügt	gesittet	vertrauen	krise	gierig	ausrottung	verbissen	geizig	versagen	engagiert	genießen	kreativ	besonnen	träumen	sonnig	engstirnig	gemein	krank	bange	töten	sterben	1	blank2r.bmp	0	1	+	0	1	blank2r.bmp	500	1	CPLW	500	1	blank2r.bmp	880	3	anregung	880	1	!	1232	1	!	-1	0	0	0	0	0	0
2024-05-10	10:06:53	10:20:12	798054	6.6.1	4_exp_EVA_AWA_CON	17	A	B	Rpleas_acq	Same	Rpleas	1pleas	acq_US_pleas_nomask	acq45_nomask	5	11	400	1	300	300	0	0	382	46	0	0	kuss	gütig	anregung	vergnügt	gesittet	vertrauen	krise	gierig	ausrottung	verbissen	geizig	versagen	engagiert	genießen	kreativ	besonnen	träumen	sonnig	engstirnig	gemein	krank	bange	töten	sterben	1	blank2r.bmp	0	1	+	0	1	blank2r.bmp	500	1	CPLW	500	1	blank2r.bmp	880	3	anregung	880	1	!	1232	1	!	1283	0	0	0	0	0	0
2024-05-10	10:06:53	10:20:14	800254	6.6.1	4_exp_EVA_AWA_CON	17	A	B	Rpleas_acq	Same	Rpleas	1pleas	acq_US_unple_nomask	acq45_nomask	5	12	400	1	300	300	0	0	420	46	1	0	kuss	gütig	anregung	vergnügt	gesittet	vertrauen	krise	gierig	ausrottung	verbissen	geizig	versagen	engagiert	genießen	kreativ	besonnen	träumen	sonnig	engstirnig	gemein	krank	bange	töten	sterben	1	blank2r.bmp	0	1	+	0	1	blank2r.bmp	500	1	DHJF	500	1	blank2r.bmp	880	2	gierig	880	1	!	1233	1	!	1322	0	0	0	0	0	0
2024-05-10	10:06:53	10:20:16	802398	6.6.1	4_exp_EVA_AWA_CON	17	A	B	Rpleas_acq	Same	Rpleas	1pleas	acq_US_unple_nomask	acq45_nomask	5	13	400	1	300	300	0	0	364	50	0	0	kuss	gütig	anregung	vergnügt	gesittet	vertrauen	krise	gierig	ausrottung	verbissen	geizig	versagen	engagiert	genießen	kreativ	besonnen	träumen	sonnig	engstirnig	gemein	krank	bange	töten	sterben	1	blank2r.bmp	0	1	+	0	1	blank2r.bmp	500	1	DHJF	500	1	blank2r.bmp	880	5	geizig	880	1	!	1232	1	!	1265	0	0	0	0	0	0
2024-05-10	10:06:53	10:20:19	804598	6.6.1	4_exp_EVA_AWA_CON	17	A	B	Rpleas_acq	Same	Rpleas	1pleas	acq_US_unple_nomask	acq45_nomask	5	14	400	1	300	300	0	0	421	50	0	0	kuss	gütig	anregung	vergnügt	gesittet	vertrauen	krise	gierig	ausrottung	verbissen	geizig	versagen	engagiert	genießen	kreativ	besonnen	träumen	sonnig	engstirnig	gemein	krank	bange	töten	sterben	1	blank2r.bmp	0	1	+	0	1	blank2r.bmp	500	1	DHJF	500	1	blank2r.bmp	880	5	geizig	880	1	!	1232	1	!	1323	0	0	0	0	0	0
2024-05-10	10:06:53	10:20:21	806850	6.6.1	4_exp_EVA_AWA_CON	17	A	B	Rpleas_acq	Same	Rpleas	1pleas	acq_US_pleas_nomask	acq45_nomask	5	15	400	0	300	300	0	0	477	50	1	0	kuss	gütig	anregung	vergnügt	gesittet	vertrauen	krise	gierig	ausrottung	verbissen	geizig	versagen	engagiert	genießen	kreativ	besonnen	träumen	sonnig	engstirnig	gemein	krank	bange	töten	sterben	1	blank2r.bmp	0	1	+	0	1	blank2r.bmp	500	1	CPLW	500	1	blank2r.bmp	880	6	vertrauen	880	1	!	1232	1	!	-1	0	0	0	0	0	0
2024-05-10	10:06:53	10:20:23	809116	6.6.1	4_exp_EVA_AWA_CON	17	A	B	Rpleas_acq	Same	Rpleas	1pleas	acq_US_unple_nomask	acq45_nomask	5	16	400	0	300	300	0	0	488	46	1	0	kuss	gütig	anregung	vergnügt	gesittet	vertrauen	krise	gierig	ausrottung	verbissen	geizig	versagen	engagiert	genießen	kreativ	besonnen	träumen	sonnig	engstirnig	gemein	krank	bange	töten	sterben	1	blank2r.bmp	0	1	+	0	1	blank2r.bmp	500	1	DHJF	500	1	blank2r.bmp	880	6	versagen	880	1	!	1232	1	!	-1	0	0	0	0	0	0
2024-05-10	10:06:53	10:20:25	811302	6.6.1	4_exp_EVA_AWA_CON	17	A	B	Rpleas_acq	Same	Rpleas	1pleas	acq_US_pleas_nomask	acq45_nomask	5	17	400	1	300	300	0	0	411	46	0	0	kuss	gütig	anregung	vergnügt	gesittet	vertrauen	krise	gierig	ausrottung	verbissen	geizig	versagen	engagiert	genießen	kreativ	besonnen	träumen	sonnig	engstirnig	gemein	krank	bange	töten	sterben	1	blank2r.bmp	0	1	+	0	1	blank2r.bmp	500	1	CPLW	500	1	blank2r.bmp	880	4	vergnügt	880	1	!	1232	1	!	1312	0	0	0	0	0	0
2024-05-10	10:06:53	10:20:27	813526	6.6.1	4_exp_EVA_AWA_CON	17	A	B	Rpleas_acq	Same	Rpleas	1pleas	acq_US_unple_nomask	acq45_nomask	5	18	400	1	300	300	0	0	443	46	1	0	kuss	gütig	anregung	vergnügt	gesittet	vertrauen	krise	gierig	ausrottung	verbissen	geizig	versagen	engagiert	genießen	kreativ	besonnen	träumen	sonnig	engstirnig	gemein	krank	bange	töten	sterben	1	blank2r.bmp	0	1	+	0	1	blank2r.bmp	500	1	DHJF	500	1	blank2r.bmp	880	4	verbissen	880	1	!	1232	1	!	1345	0	0	0	0	0	0
2024-05-10	10:06:53	10:20:30	815766	6.6.1	4_exp_EVA_AWA_CON	17	A	B	Rpleas_acq	Same	Rpleas	1pleas	acq_US_pleas_nomask	acq45_nomask	5	19	400	1	300	300	0	0	463	46	0	0	kuss	gütig	anregung	vergnügt	gesittet	vertrauen	krise	gierig	ausrottung	verbissen	geizig	versagen	engagiert	genießen	kreativ	besonnen	träumen	sonnig	engstirnig	gemein	krank	bange	töten	sterben	1	blank2r.bmp	0	1	+	0	1	blank2r.bmp	500	1	CPLW	500	1	blank2r.bmp	880	5	gesittet	880	1	!	1232	1	!	1364	0	0	0	0	0	0
2024-05-10	10:06:53	10:20:32	817950	6.6.1	4_exp_EVA_AWA_CON	17	A	B	Rpleas_acq	Same	Rpleas	1pleas	acq_US_unple_nomask	acq45_nomask	5	20	400	1	300	300	0	0	406	50	0	0	kuss	gütig	anregung	vergnügt	gesittet	vertrauen	krise	gierig	ausrottung	verbissen	geizig	versagen	engagiert	genießen	kreativ	besonnen	träumen	sonnig	engstirnig	gemein	krank	bange	töten	sterben	1	blank2r.bmp	0	1	+	0	1	blank2r.bmp	500	1	DHJF	500	1	blank2r.bmp	880	3	ausrottung	880	1	!	1232	1	!	1306	0	0	0	0	0	0
2024-05-10	10:06:53	10:20:34	820060	6.6.1	4_exp_EVA_AWA_CON	17	A	B	Rpleas_acq	Same	Rpleas	1pleas	acq_US_pleas_nomask	acq45_nomask	5	21	400	1	300	300	0	0	336	50	1	0	kuss	gütig	anregung	vergnügt	gesittet	vertrauen	krise	gierig	ausrottung	verbissen	geizig	versagen	engagiert	genießen	kreativ	besonnen	träumen	sonnig	engstirnig	gemein	krank	bange	töten	sterben	1	blank2r.bmp	0	1	+	0	1	blank2r.bmp	500	1	CPLW	500	1	blank2r.bmp	880	2	gütig	880	1	!	1233	1	!	1235	0	0	0	0	0	0
2024-05-10	10:06:53	10:20:36	822230	6.6.1	4_exp_EVA_AWA_CON	17	A	B	Rpleas_acq	Same	Rpleas	1pleas	acq_US_unple_nomask	acq45_nomask	5	22	400	1	300	300	0	0	392	50	0	0	kuss	gütig	anregung	vergnügt	gesittet	vertrauen	krise	gierig	ausrottung	verbissen	geizig	versagen	engagiert	genießen	kreativ	besonnen	träumen	sonnig	engstirnig	gemein	krank	bange	töten	sterben	1	blank2r.bmp	0	1	+	0	1	blank2r.bmp	500	1	DHJF	500	1	blank2r.bmp	880	1	krise	880	1	!	1232	1	!	1293	0	0	0	0	0	0
2024-05-10	10:06:53	10:20:38	824462	6.6.1	4_exp_EVA_AWA_CON	17	A	B	Rpleas_acq	Same	Rpleas	1pleas	acq_US_unple_nomask	acq45_nomask	5	23	400	1	300	300	0	0	452	50	0	0	kuss	gütig	anregung	vergnügt	gesittet	vertrauen	krise	gierig	ausrottung	verbissen	geizig	versagen	engagiert	genießen	kreativ	besonnen	träumen	sonnig	engstirnig	gemein	krank	bange	töten	sterben	1	blank2r.bmp	0	1	+	0	1	blank2r.bmp	500	1	DHJF	500	1	blank2r.bmp	880	2	gierig	880	1	!	1232	1	!	1354	0	0	0	0	0	0
2024-05-10	10:06:53	10:20:41	826606	6.6.1	4_exp_EVA_AWA_CON	17	A	B	Rpleas_acq	Same	Rpleas	1pleas	acq_US_unple_nomask	acq45_nomask	5	24	400	1	300	300	0	0	366	46	1	0	kuss	gütig	anregung	vergnügt	gesittet	vertrauen	krise	gierig	ausrottung	verbissen	geizig	versagen	engagiert	genießen	kreativ	besonnen	träumen	sonnig	engstirnig	gemein	krank	bange	töten	sterben	1	blank2r.bmp	0	1	+	0	1	blank2r.bmp	500	1	DHJF	500	1	blank2r.bmp	880	2	gierig	880	1	!	1232	1	!	1267	0	0	0	0	0	0
2024-05-10	10:06:53	10:20:43	828868	6.6.1	4_exp_EVA_AWA_CON	17	A	B	Rpleas_acq	Same	Rpleas	1pleas	acq_US_pleas_nomask	acq45_nomask	5	25	400	0	300	300	0	0	488	50	1	0	kuss	gütig	anregung	vergnügt	gesittet	vertrauen	krise	gierig	ausrottung	verbissen	geizig	versagen	engagiert	genießen	kreativ	besonnen	träumen	sonnig	engstirnig	gemein	krank	bange	töten	sterben	1	blank2r.bmp	0	1	+	0	1	blank2r.bmp	500	1	CPLW	500	1	blank2r.bmp	880	1	kuss	880	1	!	1232	1	!	-1	0	0	0	0	0	0
2024-05-10	10:06:53	10:20:45	830980	6.6.1	4_exp_EVA_AWA_CON	17	A	B	Rpleas_acq	Same	Rpleas	1pleas	acq_US_unple_nomask	acq45_nomask	5	26	400	1	300	300	0	0	338	50	0	0	kuss	gütig	anregung	vergnügt	gesittet	vertrauen	krise	gierig	ausrottung	verbissen	geizig	versagen	engagiert	genießen	kreativ	besonnen	träumen	sonnig	engstirnig	gemein	krank	bange	töten	sterben	1	blank2r.bmp	0	1	+	0	1	blank2r.bmp	500	1	DHJF	500	1	blank2r.bmp	880	1	krise	880	1	!	1232	1	!	1238	0	0	0	0	0	0
2024-05-10	10:06:53	10:20:47	833340	6.6.1	4_exp_EVA_AWA_CON	17	A	B	Rpleas_acq	Same	Rpleas	1pleas	acq_US_unple_nomask	acq45_nomask	5	27	400	0	300	300	0	0	588	50	0	0	kuss	gütig	anregung	vergnügt	gesittet	vertrauen	krise	gierig	ausrottung	verbissen	geizig	versagen	engagiert	genießen	kreativ	besonnen	träumen	sonnig	engstirnig	gemein	krank	bange	töten	sterben	1	blank2r.bmp	0	1	+	0	1	blank2r.bmp	500	1	DHJF	500	1	blank2r.bmp	880	5	geizig	880	1	!	1232	1	!	-1	0	0	0	0	0	0
2024-05-10	10:06:53	10:20:50	835605	6.6.1	4_exp_EVA_AWA_CON	17	A	B	Rpleas_acq	Same	Rpleas	1pleas	acq_US_unple_nomask	acq45_nomask	5	28	400	0	300	300	0	0	489	46	1	0	kuss	gütig	anregung	vergnügt	gesittet	vertrauen	krise	gierig	ausrottung	verbissen	geizig	versagen	engagiert	genießen	kreativ	besonnen	träumen	sonnig	engstirnig	gemein	krank	bange	töten	sterben	1	blank2r.bmp	0	1	+	0	1	blank2r.bmp	500	1	DHJF	500	1	blank2r.bmp	880	4	verbissen	880	1	!	1232	1	!	-1	0	0	0	0	0	0
2024-05-10	10:06:53	10:20:52	837892	6.6.1	4_exp_EVA_AWA_CON	17	A	B	Rpleas_acq	Same	Rpleas	1pleas	acq_US_pleas_nomask	acq45_nomask	5	29	400	0	300	300	0	0	507	46	0	0	kuss	gütig	anregung	vergnügt	gesittet	vertrauen	krise	gierig	ausrottung	verbissen	geizig	versagen	engagiert	genießen	kreativ	besonnen	träumen	sonnig	engstirnig	gemein	krank	bange	töten	sterben	1	blank2r.bmp	0	1	+	0	1	blank2r.bmp	500	1	CPLW	500	1	blank2r.bmp	880	3	anregung	880	1	!	1232	1	!	-1	0	0	0	0	0	0
2024-05-10	10:06:53	10:20:54	840118	6.6.1	4_exp_EVA_AWA_CON	17	A	B	Rpleas_acq	Same	Rpleas	1pleas	acq_US_unple_nomask	acq45_nomask	5	30	400	1	300	300	0	0	449	46	1	0	kuss	gütig	anregung	vergnügt	gesittet	vertrauen	krise	gierig	ausrottung	verbissen	geizig	versagen	engagiert	genießen	kreativ	besonnen	träumen	sonnig	engstirnig	gemein	krank	bange	töten	sterben	1	blank2r.bmp	0	1	+	0	1	blank2r.bmp	500	1	DHJF	500	1	blank2r.bmp	880	6	versagen	880	1	!	1233	1	!	1350	0	0	0	0	0	0
2024-05-10	10:06:53	10:20:56	842318	6.6.1	4_exp_EVA_AWA_CON	17	A	B	Rpleas_acq	Same	Rpleas	1pleas	acq_US_pleas_nomask	acq45_nomask	5	31	400	1	300	300	0	0	418	50	1	0	kuss	gütig	anregung	vergnügt	gesittet	vertrauen	krise	gierig	ausrottung	verbissen	geizig	versagen	engagiert	genießen	kreativ	besonnen	träumen	sonnig	engstirnig	gemein	krank	bange	töten	sterben	1	blank2r.bmp	0	1	+	0	1	blank2r.bmp	500	1	CPLW	500	1	blank2r.bmp	880	2	gütig	880	1	!	1232	1	!	1318	0	0	0	0	0	0
2024-05-10	10:06:53	10:20:58	844404	6.6.1	4_exp_EVA_AWA_CON	17	A	B	Rpleas_acq	Same	Rpleas	1pleas	acq_US_pleas_nomask	acq45_nomask	5	32	400	0	300	300	0	0	314	46	0	0	kuss	gütig	anregung	vergnügt	gesittet	vertrauen	krise	gierig	ausrottung	verbissen	geizig	versagen	engagiert	genießen	kreativ	besonnen	träumen	sonnig	engstirnig	gemein	krank	bange	töten	sterben	1	blank2r.bmp	0	1	+	0	1	blank2r.bmp	500	1	CPLW	500	1	blank2r.bmp	880	1	kuss	880	1	!	-1	1	!	-1	0	0	0	0	0	0
2024-05-10	10:06:53	10:21:01	846676	6.6.1	4_exp_EVA_AWA_CON	17	A	B	Rpleas_acq	Same	Rpleas	1pleas	acq_US_pleas_nomask	acq45_nomask	5	33	400	0	300	300	0	0	494	50	1	0	kuss	gütig	anregung	vergnügt	gesittet	vertrauen	krise	gierig	ausrottung	verbissen	geizig	versagen	engagiert	genießen	kreativ	besonnen	träumen	sonnig	engstirnig	gemein	krank	bange	töten	sterben	1	blank2r.bmp	0	1	+	0	1	blank2r.bmp	500	1	CPLW	500	1	blank2r.bmp	880	4	vergnügt	880	1	!	1232	1	!	-1	0	0	0	0	0	0
2024-05-10	10:06:53	10:21:03	848862	6.6.1	4_exp_EVA_AWA_CON	17	A	B	Rpleas_acq	Same	Rpleas	1pleas	acq_US_pleas_nomask	acq45_nomask	5	34	400	1	300	300	0	0	406	50	1	0	kuss	gütig	anregung	vergnügt	gesittet	vertrauen	krise	gierig	ausrottung	verbissen	geizig	versagen	engagiert	genießen	kreativ	besonnen	träumen	sonnig	engstirnig	gemein	krank	bange	töten	sterben	1	blank2r.bmp	0	1	+	0	1	blank2r.bmp	500	1	CPLW	500	1	blank2r.bmp	880	5	gesittet	880	1	!	1232	1	!	1308	0	0	0	0	0	0
2024-05-10	10:06:53	10:21:05	851102	6.6.1	4_exp_EVA_AWA_CON	17	A	B	Rpleas_acq	Same	Rpleas	1pleas	acq_US_unple_nomask	acq45_nomask	5	35	400	1	300	300	0	0	466	46	1	0	kuss	gütig	anregung	vergnügt	gesittet	vertrauen	krise	gierig	ausrottung	verbissen	geizig	versagen	engagiert	genießen	kreativ	besonnen	träumen	sonnig	engstirnig	gemein	krank	bange	töten	sterben	1	blank2r.bmp	0	1	+	0	1	blank2r.bmp	500	1	DHJF	500	1	blank2r.bmp	880	3	ausrottung	880	1	!	1233	1	!	1367	0	0	0	0	0	0
2024-05-10	10:06:53	10:21:07	853326	6.6.1	4_exp_EVA_AWA_CON	17	A	B	Rpleas_acq	Same	Rpleas	1pleas	acq_US_pleas_nomask	acq45_nomask	5	36	400	1	300	300	0	0	447	50	1	0	kuss	gütig	anregung	vergnügt	gesittet	vertrauen	krise	gierig	ausrottung	verbissen	geizig	versagen	engagiert	genießen	kreativ	besonnen	träumen	sonnig	engstirnig	gemein	krank	bange	töten	sterben	1	blank2r.bmp	0	1	+	0	1	blank2r.bmp	500	1	CPLW	500	1	blank2r.bmp	880	6	vertrauen	880	1	!	1233	1	!	1349	0	0	0	0	0	0
2024-05-10	10:06:53	10:21:50	895785	6.6.1	4_exp_EVA_AWA_CON	17	A	B	Rpleas_acq	Same	Rpleas	1pleas	EvalRating_firsttwo	EvalRating_firsttwo	6	1	0	0	300	300	0	0	5715	line	0	48,5677083333333428072pct	kuss	gütig	anregung	vergnügt	gesittet	vertrauen	krise	gierig	ausrottung	verbissen	geizig	versagen	engagiert	genießen	kreativ	besonnen	träumen	sonnig	engstirnig	gemein	krank	bange	töten	sterben	1		-8	1	Wie angenehm oder unangenehm finden Sie die  Buchstabenkette WDLH?	-8	1		-8	1		-8	1		-8	1	Unangenehm	-8	1	Angenehm	-8	0	0	0	0	0	0	0	0	0
2024-05-10	10:06:53	10:21:56	901857	6.6.1	4_exp_EVA_AWA_CON	17	A	B	Rpleas_acq	Same	Rpleas	1pleas	EvalRating_lastfour	EvalRating_lastfour	7	1	0	0	300	300	0	0	3691	line	0	-25,390625pct	kuss	gütig	anregung	vergnügt	gesittet	vertrauen	krise	gierig	ausrottung	verbissen	geizig	versagen	engagiert	genießen	kreativ	besonnen	träumen	sonnig	engstirnig	gemein	krank	bange	töten	sterben	1		-7	3	Wie angenehm oder unangenehm finden Sie die  Buchstabenkette FCJP?	-7	1		-7	1		-7	1		-7	1	Unangenehm	-7	1	Angenehm	-7	0	0	0	0	0	0	0	0	0
2024-05-10	10:06:53	10:21:58	904221	6.6.1	4_exp_EVA_AWA_CON	17	A	B	Rpleas_acq	Same	Rpleas	1pleas	blank_screen	EvalRating_lastfour	7	3	0	0	300	300	0	0	0	0	0	-25,390625pct	kuss	gütig	anregung	vergnügt	gesittet	vertrauen	krise	gierig	ausrottung	verbissen	geizig	versagen	engagiert	genießen	kreativ	besonnen	träumen	sonnig	engstirnig	gemein	krank	bange	töten	sterben	1		-8	0	0	0	0	0	0	0	0	0	0	0	0	0	0	0	0	0	0	0	0	0	0	0	0	0	0	0
2024-05-10	10:06:53	10:22:01	907224	6.6.1	4_exp_EVA_AWA_CON	17	A	B	Rpleas_acq	Same	Rpleas	1pleas	EvalRating_lastfour	EvalRating_lastfour	7	4	0	0	300	300	0	0	2415	line	0	-48,828125pct	kuss	gütig	anregung	vergnügt	gesittet	vertrauen	krise	gierig	ausrottung	verbissen	geizig	versagen	engagiert	genießen	kreativ	besonnen	träumen	sonnig	engstirnig	gemein	krank	bange	töten	sterben	1		-8	1	Wie angenehm oder unangenehm finden Sie die  Buchstabenkette CPLW?	-8	1		-8	1		-8	1		-8	1	Unangenehm	-8	1	Angenehm	-8	0	0	0	0	0	0	0	0	0
2024-05-10	10:06:53	10:22:04	909595	6.6.1	4_exp_EVA_AWA_CON	17	A	B	Rpleas_acq	Same	Rpleas	1pleas	blank_screen	EvalRating_lastfour	7	6	0	0	300	300	0	0	0	0	0	-48,828125pct	kuss	gütig	anregung	vergnügt	gesittet	vertrauen	krise	gierig	ausrottung	verbissen	geizig	versagen	engagiert	genießen	kreativ	besonnen	träumen	sonnig	engstirnig	gemein	krank	bange	töten	sterben	1		-8	0	0	0	0	0	0	0	0	0	0	0	0	0	0	0	0	0	0	0	0	0	0	0	0	0	0	0
2024-05-10	10:06:53	10:22:06	912425	6.6.1	4_exp_EVA_AWA_CON	17	A	B	Rpleas_acq	Same	Rpleas	1pleas	EvalRating_lastfour	EvalRating_lastfour	7	7	0	0	300	300	0	0	2241	line	0	32,03125pct	kuss	gütig	anregung	vergnügt	gesittet	vertrauen	krise	gierig	ausrottung	verbissen	geizig	versagen	engagiert	genießen	kreativ	besonnen	träumen	sonnig	engstirnig	gemein	krank	bange	töten	sterben	1		-7	2	Wie angenehm oder unangenehm finden Sie die  Buchstabenkette DHJF?	-7	1		-7	1		-7	1		-7	1	Unangenehm	-7	1	Angenehm	-7	0	0	0	0	0	0	0	0	0
2024-05-10	10:06:53	10:23:25	990736	6.6.1	4_exp_EVA_AWA_CON	17	A	B	Rpleas_acq	Same	Rpleas	1pleas	conawa_CS2_US4	conawa1_nomask	8	1	0	0	300	300	0	0	10143	vergnügt	1	32,03125pct	kuss	gütig	anregung	vergnügt	gesittet	vertrauen	krise	gierig	ausrottung	verbissen	geizig	versagen	engagiert	genießen	kreativ	besonnen	träumen	sonnig	engstirnig	gemein	krank	bange	töten	sterben	0	0	0	0	0	0	0	0	0	0	0	0	0	0	0	0	0	0	0	0	0	0	0	0	0	0	0	0	0	0
2024-05-10	10:06:53	10:23:25	990737	6.6.1	4_exp_EVA_AWA_CON	17	A	B	Rpleas_acq	Same	Rpleas	1pleas	conawa_CS2_US4_confidence	conawa1_nomask	8	1	0	0	300	300	0	0	10143	probably	1	32,03125pct	kuss	gütig	anregung	vergnügt	gesittet	vertrauen	krise	gierig	ausrottung	verbissen	geizig	versagen	engagiert	genießen	kreativ	besonnen	träumen	sonnig	engstirnig	gemein	krank	bange	töten	sterben	0	0	0	0	0	0	0	0	0	0	0	0	0	0	0	0	0	0	0	0	0	0	0	0	0	0	0	0	0	0
2024-05-10	10:06:53	10:23:36	1001673	6.6.1	4_exp_EVA_AWA_CON	17	A	B	Rpleas_acq	Same	Rpleas	1pleas	conawa_CS2_US1	conawa1_nomask	8	2	0	0	300	300	0	0	10322	kuss	1	32,03125pct	kuss	gütig	anregung	vergnügt	gesittet	vertrauen	krise	gierig	ausrottung	verbissen	geizig	versagen	engagiert	genießen	kreativ	besonnen	träumen	sonnig	engstirnig	gemein	krank	bange	töten	sterben	0	0	0	0	0	0	0	0	0	0	0	0	0	0	0	0	0	0	0	0	0	0	0	0	0	0	0	0	0	0
2024-05-10	10:06:53	10:23:36	1001674	6.6.1	4_exp_EVA_AWA_CON	17	A	B	Rpleas_acq	Same	Rpleas	1pleas	conawa_CS2_US1_confidence	conawa1_nomask	8	2	0	0	300	300	0	0	10322	probably	1	32,03125pct	kuss	gütig	anregung	vergnügt	gesittet	vertrauen	krise	gierig	ausrottung	verbissen	geizig	versagen	engagiert	genießen	kreativ	besonnen	träumen	sonnig	engstirnig	gemein	krank	bange	töten	sterben	0	0	0	0	0	0	0	0	0	0	0	0	0	0	0	0	0	0	0	0	0	0	0	0	0	0	0	0	0	0
2024-05-10	10:06:53	10:23:54	1020435	6.6.1	4_exp_EVA_AWA_CON	17	A	B	Rpleas_acq	Same	Rpleas	1pleas	conawa_CS1_US2	conawa1_nomask	8	3	0	0	300	300	0	0	18144	gierig	1	32,03125pct	kuss	gütig	anregung	vergnügt	gesittet	vertrauen	krise	gierig	ausrottung	verbissen	geizig	versagen	engagiert	genießen	kreativ	besonnen	träumen	sonnig	engstirnig	gemein	krank	bange	töten	sterben	0	0	0	0	0	0	0	0	0	0	0	0	0	0	0	0	0	0	0	0	0	0	0	0	0	0	0	0	0	0
2024-05-10	10:06:53	10:23:54	1020436	6.6.1	4_exp_EVA_AWA_CON	17	A	B	Rpleas_acq	Same	Rpleas	1pleas	conawa_CS1_US2_confidence	conawa1_nomask	8	3	0	0	300	300	0	0	18144	probably	1	32,03125pct	kuss	gütig	anregung	vergnügt	gesittet	vertrauen	krise	gierig	ausrottung	verbissen	geizig	versagen	engagiert	genießen	kreativ	besonnen	träumen	sonnig	engstirnig	gemein	krank	bange	töten	sterben	0	0	0	0	0	0	0	0	0	0	0	0	0	0	0	0	0	0	0	0	0	0	0	0	0	0	0	0	0	0
2024-05-10	10:06:53	10:24:22	1048053	6.6.1	4_exp_EVA_AWA_CON	17	A	B	Rpleas_acq	Same	Rpleas	1pleas	conawa_CS1_US1	conawa1_nomask	8	4	0	0	300	300	0	0	27008	engagiert	1	32,03125pct	kuss	gütig	anregung	vergnügt	gesittet	vertrauen	krise	gierig	ausrottung	verbissen	geizig	versagen	engagiert	genießen	kreativ	besonnen	träumen	sonnig	engstirnig	gemein	krank	bange	töten	sterben	0	0	0	0	0	0	0	0	0	0	0	0	0	0	0	0	0	0	0	0	0	0	0	0	0	0	0	0	0	0
2024-05-10	10:06:53	10:24:22	1048054	6.6.1	4_exp_EVA_AWA_CON	17	A	B	Rpleas_acq	Same	Rpleas	1pleas	conawa_CS1_US1_confidence	conawa1_nomask	8	4	0	0	300	300	0	0	27008	guess	1	32,03125pct	kuss	gütig	anregung	vergnügt	gesittet	vertrauen	krise	gierig	ausrottung	verbissen	geizig	versagen	engagiert	genießen	kreativ	besonnen	träumen	sonnig	engstirnig	gemein	krank	bange	töten	sterben	0	0	0	0	0	0	0	0	0	0	0	0	0	0	0	0	0	0	0	0	0	0	0	0	0	0	0	0	0	0
2024-05-10	10:06:53	10:24:32	1058400	6.6.1	4_exp_EVA_AWA_CON	17	A	B	Rpleas_acq	Same	Rpleas	1pleas	conawa_CS2_US6	conawa1_nomask	8	5	0	0	300	300	0	0	9734	vertrauen	1	32,03125pct	kuss	gütig	anregung	vergnügt	gesittet	vertrauen	krise	gierig	ausrottung	verbissen	geizig	versagen	engagiert	genießen	kreativ	besonnen	träumen	sonnig	engstirnig	gemein	krank	bange	töten	sterben	0	0	0	0	0	0	0	0	0	0	0	0	0	0	0	0	0	0	0	0	0	0	0	0	0	0	0	0	0	0
2024-05-10	10:06:53	10:24:32	1058401	6.6.1	4_exp_EVA_AWA_CON	17	A	B	Rpleas_acq	Same	Rpleas	1pleas	conawa_CS2_US6_confidence	conawa1_nomask	8	5	0	0	300	300	0	0	9734	probably	1	32,03125pct	kuss	gütig	anregung	vergnügt	gesittet	vertrauen	krise	gierig	ausrottung	verbissen	geizig	versagen	engagiert	genießen	kreativ	besonnen	träumen	sonnig	engstirnig	gemein	krank	bange	töten	sterben	0	0	0	0	0	0	0	0	0	0	0	0	0	0	0	0	0	0	0	0	0	0	0	0	0	0	0	0	0	0
2024-05-10	10:06:53	10:24:48	1074000	6.6.1	4_exp_EVA_AWA_CON	17	A	B	Rpleas_acq	Same	Rpleas	1pleas	conawa_CS1_US4	conawa1_nomask	8	6	0	0	300	300	0	0	14986	bange	1	32,03125pct	kuss	gütig	anregung	vergnügt	gesittet	vertrauen	krise	gierig	ausrottung	verbissen	geizig	versagen	engagiert	genießen	kreativ	besonnen	träumen	sonnig	engstirnig	gemein	krank	bange	töten	sterben	0	0	0	0	0	0	0	0	0	0	0	0	0	0	0	0	0	0	0	0	0	0	0	0	0	0	0	0	0	0
2024-05-10	10:06:53	10:24:48	1074001	6.6.1	4_exp_EVA_AWA_CON	17	A	B	Rpleas_acq	Same	Rpleas	1pleas	conawa_CS1_US4_confidence	conawa1_nomask	8	6	0	0	300	300	0	0	14986	guess	1	32,03125pct	kuss	gütig	anregung	vergnügt	gesittet	vertrauen	krise	gierig	ausrottung	verbissen	geizig	versagen	engagiert	genießen	kreativ	besonnen	träumen	sonnig	engstirnig	gemein	krank	bange	töten	sterben	0	0	0	0	0	0	0	0	0	0	0	0	0	0	0	0	0	0	0	0	0	0	0	0	0	0	0	0	0	0
2024-05-10	10:06:53	10:25:03	1088790	6.6.1	4_exp_EVA_AWA_CON	17	A	B	Rpleas_acq	Same	Rpleas	1pleas	conawa_CS2_US2	conawa1_nomask	8	7	0	0	300	300	0	0	14178	gütig	1	32,03125pct	kuss	gütig	anregung	vergnügt	gesittet	vertrauen	krise	gierig	ausrottung	verbissen	geizig	versagen	engagiert	genießen	kreativ	besonnen	träumen	sonnig	engstirnig	gemein	krank	bange	töten	sterben	0	0	0	0	0	0	0	0	0	0	0	0	0	0	0	0	0	0	0	0	0	0	0	0	0	0	0	0	0	0
2024-05-10	10:06:53	10:25:03	1088791	6.6.1	4_exp_EVA_AWA_CON	17	A	B	Rpleas_acq	Same	Rpleas	1pleas	conawa_CS2_US2_confidence	conawa1_nomask	8	7	0	0	300	300	0	0	14178	probably	1	32,03125pct	kuss	gütig	anregung	vergnügt	gesittet	vertrauen	krise	gierig	ausrottung	verbissen	geizig	versagen	engagiert	genießen	kreativ	besonnen	träumen	sonnig	engstirnig	gemein	krank	bange	töten	sterben	0	0	0	0	0	0	0	0	0	0	0	0	0	0	0	0	0	0	0	0	0	0	0	0	0	0	0	0	0	0
2024-05-10	10:06:53	10:25:44	1130507	6.6.1	4_exp_EVA_AWA_CON	17	A	B	Rpleas_acq	Same	Rpleas	1pleas	conawa_CS1_US5	conawa1_nomask	8	8	0	0	300	300	0	0	41100	geizig	1	32,03125pct	kuss	gütig	anregung	vergnügt	gesittet	vertrauen	krise	gierig	ausrottung	verbissen	geizig	versagen	engagiert	genießen	kreativ	besonnen	träumen	sonnig	engstirnig	gemein	krank	bange	töten	sterben	0	0	0	0	0	0	0	0	0	0	0	0	0	0	0	0	0	0	0	0	0	0	0	0	0	0	0	0	0	0
2024-05-10	10:06:53	10:25:44	1130508	6.6.1	4_exp_EVA_AWA_CON	17	A	B	Rpleas_acq	Same	Rpleas	1pleas	conawa_CS1_US5_confidence	conawa1_nomask	8	8	0	0	300	300	0	0	41100	probably	1	32,03125pct	kuss	gütig	anregung	vergnügt	gesittet	vertrauen	krise	gierig	ausrottung	verbissen	geizig	versagen	engagiert	genießen	kreativ	besonnen	träumen	sonnig	engstirnig	gemein	krank	bange	töten	sterben	0	0	0	0	0	0	0	0	0	0	0	0	0	0	0	0	0	0	0	0	0	0	0	0	0	0	0	0	0	0
2024-05-10	10:06:53	10:26:22	1168392	6.6.1	4_exp_EVA_AWA_CON	17	A	B	Rpleas_acq	Same	Rpleas	1pleas	conawa_CS2_US3	conawa1_nomask	8	9	0	0	300	300	0	0	37271	anregung	1	32,03125pct	kuss	gütig	anregung	vergnügt	gesittet	vertrauen	krise	gierig	ausrottung	verbissen	geizig	versagen	engagiert	genießen	kreativ	besonnen	träumen	sonnig	engstirnig	gemein	krank	bange	töten	sterben	0	0	0	0	0	0	0	0	0	0	0	0	0	0	0	0	0	0	0	0	0	0	0	0	0	0	0	0	0	0
2024-05-10	10:06:53	10:26:22	1168393	6.6.1	4_exp_EVA_AWA_CON	17	A	B	Rpleas_acq	Same	Rpleas	1pleas	conawa_CS2_US3_confidence	conawa1_nomask	8	9	0	0	300	300	0	0	37271	probably	1	32,03125pct	kuss	gütig	anregung	vergnügt	gesittet	vertrauen	krise	gierig	ausrottung	verbissen	geizig	versagen	engagiert	genießen	kreativ	besonnen	träumen	sonnig	engstirnig	gemein	krank	bange	töten	sterben	0	0	0	0	0	0	0	0	0	0	0	0	0	0	0	0	0	0	0	0	0	0	0	0	0	0	0	0	0	0
2024-05-10	10:06:53	10:26:31	1176727	6.6.1	4_exp_EVA_AWA_CON	17	A	B	Rpleas_acq	Same	Rpleas	1pleas	conawa_CS1_US6	conawa1_nomask	8	10	0	0	300	300	0	0	7723	vertrauen	1	32,03125pct	kuss	gütig	anregung	vergnügt	gesittet	vertrauen	krise	gierig	ausrottung	verbissen	geizig	versagen	engagiert	genießen	kreativ	besonnen	träumen	sonnig	engstirnig	gemein	krank	bange	töten	sterben	0	0	0	0	0	0	0	0	0	0	0	0	0	0	0	0	0	0	0	0	0	0	0	0	0	0	0	0	0	0
2024-05-10	10:06:53	10:26:31	1176728	6.6.1	4_exp_EVA_AWA_CON	17	A	B	Rpleas_acq	Same	Rpleas	1pleas	conawa_CS1_US6_confidence	conawa1_nomask	8	10	0	0	300	300	0	0	7723	probably	1	32,03125pct	kuss	gütig	anregung	vergnügt	gesittet	vertrauen	krise	gierig	ausrottung	verbissen	geizig	versagen	engagiert	genießen	kreativ	besonnen	träumen	sonnig	engstirnig	gemein	krank	bange	töten	sterben	0	0	0	0	0	0	0	0	0	0	0	0	0	0	0	0	0	0	0	0	0	0	0	0	0	0	0	0	0	0
2024-05-10	10:06:53	10:26:50	1196160	6.6.1	4_exp_EVA_AWA_CON	17	A	B	Rpleas_acq	Same	Rpleas	1pleas	conawa_CS1_US3	conawa1_nomask	8	11	0	0	300	300	0	0	18820	krank	1	32,03125pct	kuss	gütig	anregung	vergnügt	gesittet	vertrauen	krise	gierig	ausrottung	verbissen	geizig	versagen	engagiert	genießen	kreativ	besonnen	träumen	sonnig	engstirnig	gemein	krank	bange	töten	sterben	0	0	0	0	0	0	0	0	0	0	0	0	0	0	0	0	0	0	0	0	0	0	0	0	0	0	0	0	0	0
2024-05-10	10:06:53	10:26:50	1196161	6.6.1	4_exp_EVA_AWA_CON	17	A	B	Rpleas_acq	Same	Rpleas	1pleas	conawa_CS1_US3_confidence	conawa1_nomask	8	11	0	0	300	300	0	0	18820	probably	1	32,03125pct	kuss	gütig	anregung	vergnügt	gesittet	vertrauen	krise	gierig	ausrottung	verbissen	geizig	versagen	engagiert	genießen	kreativ	besonnen	träumen	sonnig	engstirnig	gemein	krank	bange	töten	sterben	0	0	0	0	0	0	0	0	0	0	0	0	0	0	0	0	0	0	0	0	0	0	0	0	0	0	0	0	0	0
2024-05-10	10:06:53	10:27:02	1208368	6.6.1	4_exp_EVA_AWA_CON	17	A	B	Rpleas_acq	Same	Rpleas	1pleas	conawa_CS2_US5	conawa1_nomask	8	12	0	0	300	300	0	0	11595	sterben	1	32,03125pct	kuss	gütig	anregung	vergnügt	gesittet	vertrauen	krise	gierig	ausrottung	verbissen	geizig	versagen	engagiert	genießen	kreativ	besonnen	träumen	sonnig	engstirnig	gemein	krank	bange	töten	sterben	0	0	0	0	0	0	0	0	0	0	0	0	0	0	0	0	0	0	0	0	0	0	0	0	0	0	0	0	0	0
2024-05-10	10:06:53	10:27:02	1208369	6.6.1	4_exp_EVA_AWA_CON	17	A	B	Rpleas_acq	Same	Rpleas	1pleas	conawa_CS2_US5_confidence	conawa1_nomask	8	12	0	0	300	300	0	0	11595	probably	1	32,03125pct	kuss	gütig	anregung	vergnügt	gesittet	vertrauen	krise	gierig	ausrottung	verbissen	geizig	versagen	engagiert	genießen	kreativ	besonnen	träumen	sonnig	engstirnig	gemein	krank	bange	töten	sterben	0	0	0	0	0	0	0	0	0	0	0	0	0	0	0	0	0	0	0	0	0	0	0	0	0	0	0	0	0	0
2024-05-10	10:06:53	10:30:01	1387444	6.6.1	4_exp_EVA_AWA_CON	17	A	B	Rpleas_acq	Same	Rpleas	1pleas	cond_US_pleas_123_nomask_CS2	condtest_nomask_1	11	1	400	0	300	300	0	0	3351	50	1	32,03125pct	kuss	gütig	anregung	vergnügt	gesittet	vertrauen	krise	gierig	ausrottung	verbissen	geizig	versagen	engagiert	genießen	kreativ	besonnen	träumen	sonnig	engstirnig	gemein	krank	bange	töten	sterben	1	blank2r.bmp	0	1	+	0	1	blank2r.bmp	500	1	DHJF	500	1	blank2r.bmp	880	2	kuss	880	1	!	1232	1	!	-1	0	0	0	0	0	0
