date	time	currenttime	elapsedtime	build	currentexpt	subject	CS_AB	US_AB	LRpleas_acq	SameOppo	condition_Lpleas	condition_1pleas	trialcode	blockcode	blocknum	trialnum	windowcenter	inwindow	pretrialpause	posttrialpause	trialduration	trialtimeout	latency	response	correct	correctedscore	US_nomask_pleas1	US_nomask_pleas2	US_nomask_pleas3	US_nomask_pleas4	US_nomask_pleas5	US_nomask_pleas6	US_nomask_unple1	US_nomask_unple2	US_nomask_unple3	US_nomask_unple4	US_nomask_unple5	US_nomask_unple6	new_nomask_pleas1	new_nomask_pleas2	new_nomask_pleas3	new_nomask_pleas4	new_nomask_pleas5	new_nomask_pleas6	new_nomask_unple1	new_nomask_unple2	new_nomask_unple3	new_nomask_unple4	new_nomask_unple5	new_nomask_unple6	stimulusnumber1	stimulusitem1	stimulusonset1	stimulusnumber2	stimulusitem2	stimulusonset2	stimulusnumber3	stimulusitem3	stimulusonset3	stimulusnumber4	stimulusitem4	stimulusonset4	stimulusnumber5	stimulusitem5	stimulusonset5	stimulusnumber6	stimulusitem6	stimulusonset6	stimulusnumber7	stimulusitem7	stimulusonset7	stimulusnumber8	stimulusitem8	stimulusonset8	stimulusnumber9	stimulusitem9	stimulusonset9	stimulusnumber10	stimulusitem10	stimulusonset10
2024-05-15	10:56:37	10:58:21	104202	6.6.1	4_exp_EVA_AWA_CON	34	A	B	Rpleas_acq	Oppo	Rpleas	1pleas	acq_US_unple_nomask	acq1_nomask	1	1	0	0	300	300	0	0	1135	46	1	0	träumen	kreativ	kuss	vertrauen	anregung	gütig	töten	krank	krise	versagen	ausrottung	gierig	vergnügt	sonnig	engagiert	genießen	gesittet	besonnen	verbissen	sterben	engstirnig	gemein	geizig	bange	1	blank2r.bmp	0	1	+	0	1	blank2r.bmp	500	1	DHJF	500	1	blank2r.bmp	880	6	gierig	880	0	0	0	0	0	0	0	0	0	0	0	0
2024-05-15	10:56:37	10:58:24	106466	6.6.1	4_exp_EVA_AWA_CON	34	A	B	Rpleas_acq	Oppo	Rpleas	1pleas	acq_new_pleas_nomask	acq1_nomask	1	2	0	0	300	300	0	0	776	50	1	0	träumen	kreativ	kuss	vertrauen	anregung	gütig	töten	krank	krise	versagen	ausrottung	gierig	vergnügt	sonnig	engagiert	genießen	gesittet	besonnen	verbissen	sterben	engstirnig	gemein	geizig	bange	1	blank2r.bmp	0	1	+	0	1	blank2r.bmp	500	7	C3r.bmp	500	1	blank2r.bmp	880	1	vergnügt	880	0	0	0	0	0	0	0	0	0	0	0	0
2024-05-15	10:56:37	10:58:26	108538	6.6.1	4_exp_EVA_AWA_CON	34	A	B	Rpleas_acq	Oppo	Rpleas	1pleas	acq_US_pleas_nomask	acq1_nomask	1	3	0	0	300	300	0	0	587	50	1	0	träumen	kreativ	kuss	vertrauen	anregung	gütig	töten	krank	krise	versagen	ausrottung	gierig	vergnügt	sonnig	engagiert	genießen	gesittet	besonnen	verbissen	sterben	engstirnig	gemein	geizig	bange	1	blank2r.bmp	0	1	+	0	1	blank2r.bmp	500	1	CPLW	500	1	blank2r.bmp	880	4	vertrauen	880	0	0	0	0	0	0	0	0	0	0	0	0
2024-05-15	10:56:37	10:58:28	110554	6.6.1	4_exp_EVA_AWA_CON	34	A	B	Rpleas_acq	Oppo	Rpleas	1pleas	acq_new_pleas_nomask	acq1_nomask	1	4	0	0	300	300	0	0	532	50	1	0	träumen	kreativ	kuss	vertrauen	anregung	gütig	töten	krank	krise	versagen	ausrottung	gierig	vergnügt	sonnig	engagiert	genießen	gesittet	besonnen	verbissen	sterben	engstirnig	gemein	geizig	bange	1	blank2r.bmp	0	1	+	0	1	blank2r.bmp	500	3	B3r.bmp	500	1	blank2r.bmp	880	2	sonnig	880	0	0	0	0	0	0	0	0	0	0	0	0
2024-05-15	10:56:37	10:58:30	112804	6.6.1	4_exp_EVA_AWA_CON	34	A	B	Rpleas_acq	Oppo	Rpleas	1pleas	acq_new_unple_nomask	acq1_nomask	1	5	0	0	300	300	0	0	559	50	0	0	träumen	kreativ	kuss	vertrauen	anregung	gütig	töten	krank	krise	versagen	ausrottung	gierig	vergnügt	sonnig	engagiert	genießen	gesittet	besonnen	verbissen	sterben	engstirnig	gemein	geizig	bange	1	blank2r.bmp	0	1	+	0	1	blank2r.bmp	500	6	C2r.bmp	500	1	blank2r.bmp	880	5	geizig	880	1	FEHLER	1460	0	0	0	0	0	0	0	0	0
2024-05-15	10:56:37	10:58:32	114746	6.6.1	4_exp_EVA_AWA_CON	34	A	B	Rpleas_acq	Oppo	Rpleas	1pleas	acq_US_pleas_nomask	acq1_nomask	1	6	0	0	300	300	0	0	662	50	1	0	träumen	kreativ	kuss	vertrauen	anregung	gütig	töten	krank	krise	versagen	ausrottung	gierig	vergnügt	sonnig	engagiert	genießen	gesittet	besonnen	verbissen	sterben	engstirnig	gemein	geizig	bange	1	blank2r.bmp	0	1	+	0	1	blank2r.bmp	500	1	CPLW	500	1	blank2r.bmp	880	5	anregung	880	0	0	0	0	0	0	0	0	0	0	0	0
2024-05-15	10:56:37	10:58:34	116754	6.6.1	4_exp_EVA_AWA_CON	34	A	B	Rpleas_acq	Oppo	Rpleas	1pleas	acq_US_pleas_nomask	acq1_nomask	1	7	0	0	300	300	0	0	527	50	1	0	träumen	kreativ	kuss	vertrauen	anregung	gütig	töten	krank	krise	versagen	ausrottung	gierig	vergnügt	sonnig	engagiert	genießen	gesittet	besonnen	verbissen	sterben	engstirnig	gemein	geizig	bange	1	blank2r.bmp	0	1	+	0	1	blank2r.bmp	500	1	CPLW	500	1	blank2r.bmp	880	1	träumen	880	0	0	0	0	0	0	0	0	0	0	0	0
2024-05-15	10:56:37	10:58:36	118826	6.6.1	4_exp_EVA_AWA_CON	34	A	B	Rpleas_acq	Oppo	Rpleas	1pleas	acq_new_pleas_nomask	acq1_nomask	1	8	0	0	300	300	0	0	589	50	1	0	träumen	kreativ	kuss	vertrauen	anregung	gütig	töten	krank	krise	versagen	ausrottung	gierig	vergnügt	sonnig	engagiert	genießen	gesittet	besonnen	verbissen	sterben	engstirnig	gemein	geizig	bange	1	blank2r.bmp	0	1	+	0	1	blank2r.bmp	500	1	B1r.bmp	500	1	blank2r.bmp	880	4	genießen	880	0	0	0	0	0	0	0	0	0	0	0	0
2024-05-15	10:56:37	10:58:38	120858	6.6.1	4_exp_EVA_AWA_CON	34	A	B	Rpleas_acq	Oppo	Rpleas	1pleas	acq_new_unple_nomask	acq1_nomask	1	9	0	0	300	300	0	0	549	46	1	0	träumen	kreativ	kuss	vertrauen	anregung	gütig	töten	krank	krise	versagen	ausrottung	gierig	vergnügt	sonnig	engagiert	genießen	gesittet	besonnen	verbissen	sterben	engstirnig	gemein	geizig	bange	1	blank2r.bmp	0	1	+	0	1	blank2r.bmp	500	2	B2r.bmp	500	1	blank2r.bmp	880	4	gemein	880	0	0	0	0	0	0	0	0	0	0	0	0
2024-05-15	10:56:37	10:58:40	122818	6.6.1	4_exp_EVA_AWA_CON	34	A	B	Rpleas_acq	Oppo	Rpleas	1pleas	acq_new_unple_nomask	acq1_nomask	1	10	0	0	300	300	0	0	477	46	1	0	träumen	kreativ	kuss	vertrauen	anregung	gütig	töten	krank	krise	versagen	ausrottung	gierig	vergnügt	sonnig	engagiert	genießen	gesittet	besonnen	verbissen	sterben	engstirnig	gemein	geizig	bange	1	blank2r.bmp	0	1	+	0	1	blank2r.bmp	500	5	C1r.bmp	500	1	blank2r.bmp	880	2	sterben	880	0	0	0	0	0	0	0	0	0	0	0	0
2024-05-15	10:56:37	10:58:42	124738	6.6.1	4_exp_EVA_AWA_CON	34	A	B	Rpleas_acq	Oppo	Rpleas	1pleas	acq_US_unple_nomask	acq1_nomask	1	11	0	0	300	300	0	0	437	46	1	0	träumen	kreativ	kuss	vertrauen	anregung	gütig	töten	krank	krise	versagen	ausrottung	gierig	vergnügt	sonnig	engagiert	genießen	gesittet	besonnen	verbissen	sterben	engstirnig	gemein	geizig	bange	1	blank2r.bmp	0	1	+	0	1	blank2r.bmp	500	1	DHJF	500	1	blank2r.bmp	880	2	krank	880	0	0	0	0	0	0	0	0	0	0	0	0
2024-05-15	10:56:37	10:58:44	126626	6.6.1	4_exp_EVA_AWA_CON	34	A	B	Rpleas_acq	Oppo	Rpleas	1pleas	acq_US_unple_nomask	acq1_nomask	1	12	0	0	300	300	0	0	403	46	1	0	träumen	kreativ	kuss	vertrauen	anregung	gütig	töten	krank	krise	versagen	ausrottung	gierig	vergnügt	sonnig	engagiert	genießen	gesittet	besonnen	verbissen	sterben	engstirnig	gemein	geizig	bange	1	blank2r.bmp	0	1	+	0	1	blank2r.bmp	500	1	DHJF	500	1	blank2r.bmp	880	3	krise	880	0	0	0	0	0	0	0	0	0	0	0	0
2024-05-15	10:56:37	10:58:46	128610	6.6.1	4_exp_EVA_AWA_CON	34	A	B	Rpleas_acq	Oppo	Rpleas	1pleas	acq_US_unple_nomask	acq1_nomask	1	13	0	0	300	300	0	0	495	46	1	0	träumen	kreativ	kuss	vertrauen	anregung	gütig	töten	krank	krise	versagen	ausrottung	gierig	vergnügt	sonnig	engagiert	genießen	gesittet	besonnen	verbissen	sterben	engstirnig	gemein	geizig	bange	1	blank2r.bmp	0	1	+	0	1	blank2r.bmp	500	1	DHJF	500	1	blank2r.bmp	880	5	ausrottung	880	0	0	0	0	0	0	0	0	0	0	0	0
2024-05-15	10:56:37	10:58:48	130538	6.6.1	4_exp_EVA_AWA_CON	34	A	B	Rpleas_acq	Oppo	Rpleas	1pleas	acq_US_pleas_nomask	acq1_nomask	1	14	0	0	300	300	0	0	442	50	1	0	träumen	kreativ	kuss	vertrauen	anregung	gütig	töten	krank	krise	versagen	ausrottung	gierig	vergnügt	sonnig	engagiert	genießen	gesittet	besonnen	verbissen	sterben	engstirnig	gemein	geizig	bange	1	blank2r.bmp	0	1	+	0	1	blank2r.bmp	500	1	CPLW	500	1	blank2r.bmp	880	3	kuss	880	0	0	0	0	0	0	0	0	0	0	0	0
2024-05-15	10:56:37	10:58:50	132570	6.6.1	4_exp_EVA_AWA_CON	34	A	B	Rpleas_acq	Oppo	Rpleas	1pleas	acq_new_unple_nomask	acq1_nomask	1	15	0	0	300	300	0	0	543	46	1	0	träumen	kreativ	kuss	vertrauen	anregung	gütig	töten	krank	krise	versagen	ausrottung	gierig	vergnügt	sonnig	engagiert	genießen	gesittet	besonnen	verbissen	sterben	engstirnig	gemein	geizig	bange	1	blank2r.bmp	0	1	+	0	1	blank2r.bmp	500	4	B4r.bmp	500	1	blank2r.bmp	880	1	verbissen	880	0	0	0	0	0	0	0	0	0	0	0	0
2024-05-15	10:56:37	10:58:52	134794	6.6.1	4_exp_EVA_AWA_CON	34	A	B	Rpleas_acq	Oppo	Rpleas	1pleas	acq_new_pleas_nomask	acq1_nomask	1	16	0	0	300	300	0	0	535	46	0	0	träumen	kreativ	kuss	vertrauen	anregung	gütig	töten	krank	krise	versagen	ausrottung	gierig	vergnügt	sonnig	engagiert	genießen	gesittet	besonnen	verbissen	sterben	engstirnig	gemein	geizig	bange	1	blank2r.bmp	0	1	+	0	1	blank2r.bmp	500	8	C4r.bmp	500	1	blank2r.bmp	880	6	besonnen	880	1	FEHLER	1437	0	0	0	0	0	0	0	0	0
2024-05-15	10:56:37	10:58:54	136682	6.6.1	4_exp_EVA_AWA_CON	34	A	B	Rpleas_acq	Oppo	Rpleas	1pleas	acq_US_unple_nomask	acq1_nomask	1	17	0	0	300	300	0	0	603	46	1	0	träumen	kreativ	kuss	vertrauen	anregung	gütig	töten	krank	krise	versagen	ausrottung	gierig	vergnügt	sonnig	engagiert	genießen	gesittet	besonnen	verbissen	sterben	engstirnig	gemein	geizig	bange	1	blank2r.bmp	0	1	+	0	1	blank2r.bmp	500	1	DHJF	500	1	blank2r.bmp	880	4	versagen	880	0	0	0	0	0	0	0	0	0	0	0	0
2024-05-15	10:56:37	10:58:56	138802	6.6.1	4_exp_EVA_AWA_CON	34	A	B	Rpleas_acq	Oppo	Rpleas	1pleas	acq_US_pleas_nomask	acq1_nomask	1	18	0	0	300	300	0	0	631	50	1	0	träumen	kreativ	kuss	vertrauen	anregung	gütig	töten	krank	krise	versagen	ausrottung	gierig	vergnügt	sonnig	engagiert	genießen	gesittet	besonnen	verbissen	sterben	engstirnig	gemein	geizig	bange	1	blank2r.bmp	0	1	+	0	1	blank2r.bmp	500	1	CPLW	500	1	blank2r.bmp	880	2	kreativ	880	0	0	0	0	0	0	0	0	0	0	0	0
2024-05-15	10:56:37	10:58:58	141210	6.6.1	4_exp_EVA_AWA_CON	34	A	B	Rpleas_acq	Oppo	Rpleas	1pleas	acq_new_pleas_nomask	acq1_nomask	1	19	0	0	300	300	0	0	717	46	0	0	träumen	kreativ	kuss	vertrauen	anregung	gütig	töten	krank	krise	versagen	ausrottung	gierig	vergnügt	sonnig	engagiert	genießen	gesittet	besonnen	verbissen	sterben	engstirnig	gemein	geizig	bange	1	blank2r.bmp	0	1	+	0	1	blank2r.bmp	500	1	B1r.bmp	500	1	blank2r.bmp	880	5	gesittet	880	1	FEHLER	1619	0	0	0	0	0	0	0	0	0
2024-05-15	10:56:37	10:59:00	143074	6.6.1	4_exp_EVA_AWA_CON	34	A	B	Rpleas_acq	Oppo	Rpleas	1pleas	acq_new_unple_nomask	acq1_nomask	1	20	0	0	300	300	0	0	580	46	1	0	träumen	kreativ	kuss	vertrauen	anregung	gütig	töten	krank	krise	versagen	ausrottung	gierig	vergnügt	sonnig	engagiert	genießen	gesittet	besonnen	verbissen	sterben	engstirnig	gemein	geizig	bange	1	blank2r.bmp	0	1	+	0	1	blank2r.bmp	500	2	B2r.bmp	500	1	blank2r.bmp	880	3	engstirnig	880	0	0	0	0	0	0	0	0	0	0	0	0
2024-05-15	10:56:37	10:59:02	145202	6.6.1	4_exp_EVA_AWA_CON	34	A	B	Rpleas_acq	Oppo	Rpleas	1pleas	acq_new_pleas_nomask	acq1_nomask	1	21	0	0	300	300	0	0	647	50	1	0	träumen	kreativ	kuss	vertrauen	anregung	gütig	töten	krank	krise	versagen	ausrottung	gierig	vergnügt	sonnig	engagiert	genießen	gesittet	besonnen	verbissen	sterben	engstirnig	gemein	geizig	bange	1	blank2r.bmp	0	1	+	0	1	blank2r.bmp	500	4	B4r.bmp	500	1	blank2r.bmp	880	3	engagiert	880	0	0	0	0	0	0	0	0	0	0	0	0
2024-05-15	10:56:37	10:59:05	147290	6.6.1	4_exp_EVA_AWA_CON	34	A	B	Rpleas_acq	Oppo	Rpleas	1pleas	acq_US_pleas_nomask	acq1_nomask	1	22	0	0	300	300	0	0	603	50	1	0	träumen	kreativ	kuss	vertrauen	anregung	gütig	töten	krank	krise	versagen	ausrottung	gierig	vergnügt	sonnig	engagiert	genießen	gesittet	besonnen	verbissen	sterben	engstirnig	gemein	geizig	bange	1	blank2r.bmp	0	1	+	0	1	blank2r.bmp	500	1	CPLW	500	1	blank2r.bmp	880	6	gütig	880	0	0	0	0	0	0	0	0	0	0	0	0
2024-05-15	10:56:37	10:59:07	149370	6.6.1	4_exp_EVA_AWA_CON	34	A	B	Rpleas_acq	Oppo	Rpleas	1pleas	acq_US_unple_nomask	acq1_nomask	1	23	0	0	300	300	0	0	592	46	1	0	träumen	kreativ	kuss	vertrauen	anregung	gütig	töten	krank	krise	versagen	ausrottung	gierig	vergnügt	sonnig	engagiert	genießen	gesittet	besonnen	verbissen	sterben	engstirnig	gemein	geizig	bange	1	blank2r.bmp	0	1	+	0	1	blank2r.bmp	500	1	DHJF	500	1	blank2r.bmp	880	1	töten	880	0	0	0	0	0	0	0	0	0	0	0	0
2024-05-15	10:56:37	10:59:09	151562	6.6.1	4_exp_EVA_AWA_CON	34	A	B	Rpleas_acq	Oppo	Rpleas	1pleas	acq_new_unple_nomask	acq1_nomask	1	24	0	0	300	300	0	0	703	46	1	0	träumen	kreativ	kuss	vertrauen	anregung	gütig	töten	krank	krise	versagen	ausrottung	gierig	vergnügt	sonnig	engagiert	genießen	gesittet	besonnen	verbissen	sterben	engstirnig	gemein	geizig	bange	1	blank2r.bmp	0	1	+	0	1	blank2r.bmp	500	7	C3r.bmp	500	1	blank2r.bmp	880	6	bange	880	0	0	0	0	0	0	0	0	0	0	0	0
2024-05-15	10:56:37	10:59:11	153618	6.6.1	4_exp_EVA_AWA_CON	34	A	B	Rpleas_acq	Oppo	Rpleas	1pleas	acq_US_unple_nomask	acq1_nomask	1	25	0	0	300	300	0	0	567	46	1	0	träumen	kreativ	kuss	vertrauen	anregung	gütig	töten	krank	krise	versagen	ausrottung	gierig	vergnügt	sonnig	engagiert	genießen	gesittet	besonnen	verbissen	sterben	engstirnig	gemein	geizig	bange	1	blank2r.bmp	0	1	+	0	1	blank2r.bmp	500	1	DHJF	500	1	blank2r.bmp	880	1	töten	880	0	0	0	0	0	0	0	0	0	0	0	0
2024-05-15	10:56:37	10:59:13	155578	6.6.1	4_exp_EVA_AWA_CON	34	A	B	Rpleas_acq	Oppo	Rpleas	1pleas	acq_US_unple_nomask	acq1_nomask	1	26	0	0	300	300	0	0	476	46	1	0	träumen	kreativ	kuss	vertrauen	anregung	gütig	töten	krank	krise	versagen	ausrottung	gierig	vergnügt	sonnig	engagiert	genießen	gesittet	besonnen	verbissen	sterben	engstirnig	gemein	geizig	bange	1	blank2r.bmp	0	1	+	0	1	blank2r.bmp	500	1	DHJF	500	1	blank2r.bmp	880	2	krank	880	0	0	0	0	0	0	0	0	0	0	0	0
2024-05-15	10:56:37	10:59:15	157706	6.6.1	4_exp_EVA_AWA_CON	34	A	B	Rpleas_acq	Oppo	Rpleas	1pleas	acq_new_pleas_nomask	acq1_nomask	1	27	0	0	300	300	0	0	643	50	1	0	träumen	kreativ	kuss	vertrauen	anregung	gütig	töten	krank	krise	versagen	ausrottung	gierig	vergnügt	sonnig	engagiert	genießen	gesittet	besonnen	verbissen	sterben	engstirnig	gemein	geizig	bange	1	blank2r.bmp	0	1	+	0	1	blank2r.bmp	500	8	C4r.bmp	500	1	blank2r.bmp	880	5	gesittet	880	0	0	0	0	0	0	0	0	0	0	0	0
2024-05-15	10:56:37	10:59:17	159866	6.6.1	4_exp_EVA_AWA_CON	34	A	B	Rpleas_acq	Oppo	Rpleas	1pleas	acq_US_pleas_nomask	acq1_nomask	1	28	0	0	300	300	0	0	671	50	1	0	träumen	kreativ	kuss	vertrauen	anregung	gütig	töten	krank	krise	versagen	ausrottung	gierig	vergnügt	sonnig	engagiert	genießen	gesittet	besonnen	verbissen	sterben	engstirnig	gemein	geizig	bange	1	blank2r.bmp	0	1	+	0	1	blank2r.bmp	500	1	CPLW	500	1	blank2r.bmp	880	5	anregung	880	0	0	0	0	0	0	0	0	0	0	0	0
2024-05-15	10:56:37	10:59:19	161842	6.6.1	4_exp_EVA_AWA_CON	34	A	B	Rpleas_acq	Oppo	Rpleas	1pleas	acq_US_unple_nomask	acq1_nomask	1	29	0	0	300	300	0	0	486	46	1	0	träumen	kreativ	kuss	vertrauen	anregung	gütig	töten	krank	krise	versagen	ausrottung	gierig	vergnügt	sonnig	engagiert	genießen	gesittet	besonnen	verbissen	sterben	engstirnig	gemein	geizig	bange	1	blank2r.bmp	0	1	+	0	1	blank2r.bmp	500	1	DHJF	500	1	blank2r.bmp	880	6	gierig	880	0	0	0	0	0	0	0	0	0	0	0	0
2024-05-15	10:56:37	10:59:21	163746	6.6.1	4_exp_EVA_AWA_CON	34	A	B	Rpleas_acq	Oppo	Rpleas	1pleas	acq_new_unple_nomask	acq1_nomask	1	30	0	0	300	300	0	0	418	46	1	0	träumen	kreativ	kuss	vertrauen	anregung	gütig	töten	krank	krise	versagen	ausrottung	gierig	vergnügt	sonnig	engagiert	genießen	gesittet	besonnen	verbissen	sterben	engstirnig	gemein	geizig	bange	1	blank2r.bmp	0	1	+	0	1	blank2r.bmp	500	6	C2r.bmp	500	1	blank2r.bmp	880	2	sterben	880	0	0	0	0	0	0	0	0	0	0	0	0
2024-05-15	10:56:37	10:59:23	165706	6.6.1	4_exp_EVA_AWA_CON	34	A	B	Rpleas_acq	Oppo	Rpleas	1pleas	acq_new_unple_nomask	acq1_nomask	1	31	0	0	300	300	0	0	477	46	1	0	träumen	kreativ	kuss	vertrauen	anregung	gütig	töten	krank	krise	versagen	ausrottung	gierig	vergnügt	sonnig	engagiert	genießen	gesittet	besonnen	verbissen	sterben	engstirnig	gemein	geizig	bange	1	blank2r.bmp	0	1	+	0	1	blank2r.bmp	500	5	C1r.bmp	500	1	blank2r.bmp	880	5	geizig	880	0	0	0	0	0	0	0	0	0	0	0	0
2024-05-15	10:56:37	10:59:25	167666	6.6.1	4_exp_EVA_AWA_CON	34	A	B	Rpleas_acq	Oppo	Rpleas	1pleas	acq_new_unple_nomask	acq1_nomask	1	32	0	0	300	300	0	0	476	46	1	0	träumen	kreativ	kuss	vertrauen	anregung	gütig	töten	krank	krise	versagen	ausrottung	gierig	vergnügt	sonnig	engagiert	genießen	gesittet	besonnen	verbissen	sterben	engstirnig	gemein	geizig	bange	1	blank2r.bmp	0	1	+	0	1	blank2r.bmp	500	3	B3r.bmp	500	1	blank2r.bmp	880	3	engstirnig	880	0	0	0	0	0	0	0	0	0	0	0	0
2024-05-15	10:56:37	10:59:27	169530	6.6.1	4_exp_EVA_AWA_CON	34	A	B	Rpleas_acq	Oppo	Rpleas	1pleas	acq_new_pleas_nomask	acq1_nomask	1	33	0	0	300	300	0	0	379	50	1	0	träumen	kreativ	kuss	vertrauen	anregung	gütig	töten	krank	krise	versagen	ausrottung	gierig	vergnügt	sonnig	engagiert	genießen	gesittet	besonnen	verbissen	sterben	engstirnig	gemein	geizig	bange	1	blank2r.bmp	0	1	+	0	1	blank2r.bmp	500	7	C3r.bmp	500	1	blank2r.bmp	880	2	sonnig	880	0	0	0	0	0	0	0	0	0	0	0	0
2024-05-15	10:56:37	10:59:29	171458	6.6.1	4_exp_EVA_AWA_CON	34	A	B	Rpleas_acq	Oppo	Rpleas	1pleas	acq_US_pleas_nomask	acq1_nomask	1	34	0	0	300	300	0	0	445	50	1	0	träumen	kreativ	kuss	vertrauen	anregung	gütig	töten	krank	krise	versagen	ausrottung	gierig	vergnügt	sonnig	engagiert	genießen	gesittet	besonnen	verbissen	sterben	engstirnig	gemein	geizig	bange	1	blank2r.bmp	0	1	+	0	1	blank2r.bmp	500	1	CPLW	500	1	blank2r.bmp	880	4	vertrauen	880	0	0	0	0	0	0	0	0	0	0	0	0
2024-05-15	10:56:37	10:59:31	173426	6.6.1	4_exp_EVA_AWA_CON	34	A	B	Rpleas_acq	Oppo	Rpleas	1pleas	acq_new_pleas_nomask	acq1_nomask	1	35	0	0	300	300	0	0	482	50	1	0	träumen	kreativ	kuss	vertrauen	anregung	gütig	töten	krank	krise	versagen	ausrottung	gierig	vergnügt	sonnig	engagiert	genießen	gesittet	besonnen	verbissen	sterben	engstirnig	gemein	geizig	bange	1	blank2r.bmp	0	1	+	0	1	blank2r.bmp	500	1	B1r.bmp	500	1	blank2r.bmp	880	4	genießen	880	0	0	0	0	0	0	0	0	0	0	0	0
2024-05-15	10:56:37	10:59:33	175402	6.6.1	4_exp_EVA_AWA_CON	34	A	B	Rpleas_acq	Oppo	Rpleas	1pleas	acq_US_pleas_nomask	acq1_nomask	1	36	0	0	300	300	0	0	487	50	1	0	träumen	kreativ	kuss	vertrauen	anregung	gütig	töten	krank	krise	versagen	ausrottung	gierig	vergnügt	sonnig	engagiert	genießen	gesittet	besonnen	verbissen	sterben	engstirnig	gemein	geizig	bange	1	blank2r.bmp	0	1	+	0	1	blank2r.bmp	500	1	CPLW	500	1	blank2r.bmp	880	6	gütig	880	0	0	0	0	0	0	0	0	0	0	0	0
2024-05-15	10:56:37	11:00:10	212931	6.6.1	4_exp_EVA_AWA_CON	34	A	B	Rpleas_acq	Oppo	Rpleas	1pleas	acq_US_unple_nomask	acq2_nomask	2	1	480	0	300	300	0	0	573	46	1	0	träumen	kreativ	kuss	vertrauen	anregung	gütig	töten	krank	krise	versagen	ausrottung	gierig	vergnügt	sonnig	engagiert	genießen	gesittet	besonnen	verbissen	sterben	engstirnig	gemein	geizig	bange	1	blank2r.bmp	0	1	+	0	1	blank2r.bmp	500	1	DHJF	500	1	blank2r.bmp	880	5	ausrottung	880	1	!	1313	1	!	-1	0	0	0	0	0	0
2024-05-15	10:56:37	11:00:12	215237	6.6.1	4_exp_EVA_AWA_CON	34	A	B	Rpleas_acq	Oppo	Rpleas	1pleas	acq_US_unple_nomask	acq2_nomask	2	2	480	1	300	300	0	0	525	46	1	0	träumen	kreativ	kuss	vertrauen	anregung	gütig	töten	krank	krise	versagen	ausrottung	gierig	vergnügt	sonnig	engagiert	genießen	gesittet	besonnen	verbissen	sterben	engstirnig	gemein	geizig	bange	1	blank2r.bmp	0	1	+	0	1	blank2r.bmp	500	1	DHJF	500	1	blank2r.bmp	880	4	versagen	880	1	!	1313	1	!	1427	0	0	0	0	0	0
2024-05-15	10:56:37	11:00:15	217541	6.6.1	4_exp_EVA_AWA_CON	34	A	B	Rpleas_acq	Oppo	Rpleas	1pleas	acq_US_pleas_nomask	acq2_nomask	2	3	480	1	300	300	0	0	528	50	1	0	träumen	kreativ	kuss	vertrauen	anregung	gütig	töten	krank	krise	versagen	ausrottung	gierig	vergnügt	sonnig	engagiert	genießen	gesittet	besonnen	verbissen	sterben	engstirnig	gemein	geizig	bange	1	blank2r.bmp	0	1	+	0	1	blank2r.bmp	500	1	CPLW	500	1	blank2r.bmp	880	2	kreativ	880	1	!	1313	1	!	1429	0	0	0	0	0	0
2024-05-15	10:56:37	11:00:17	219940	6.6.1	4_exp_EVA_AWA_CON	34	A	B	Rpleas_acq	Oppo	Rpleas	1pleas	acq_new_unple_nomask	acq2_nomask	2	4	480	0	300	300	0	0	616	46	1	0	träumen	kreativ	kuss	vertrauen	anregung	gütig	töten	krank	krise	versagen	ausrottung	gierig	vergnügt	sonnig	engagiert	genießen	gesittet	besonnen	verbissen	sterben	engstirnig	gemein	geizig	bange	1	blank2r.bmp	0	1	+	0	1	blank2r.bmp	500	8	C4r.bmp	500	1	blank2r.bmp	880	6	bange	880	1	!	1313	1	!	-1	0	0	0	0	0	0
2024-05-15	10:56:37	11:00:19	222132	6.6.1	4_exp_EVA_AWA_CON	34	A	B	Rpleas_acq	Oppo	Rpleas	1pleas	acq_US_unple_nomask	acq2_nomask	2	5	480	1	300	300	0	0	416	46	1	0	träumen	kreativ	kuss	vertrauen	anregung	gütig	töten	krank	krise	versagen	ausrottung	gierig	vergnügt	sonnig	engagiert	genießen	gesittet	besonnen	verbissen	sterben	engstirnig	gemein	geizig	bange	1	blank2r.bmp	0	1	+	0	1	blank2r.bmp	500	1	DHJF	500	1	blank2r.bmp	880	3	krise	880	1	!	1312	1	!	1316	0	0	0	0	0	0
2024-05-15	10:56:37	11:00:22	224575	6.6.1	4_exp_EVA_AWA_CON	34	A	B	Rpleas_acq	Oppo	Rpleas	1pleas	acq_new_pleas_nomask	acq2_nomask	2	6	480	1	300	300	0	0	465	46	0	0	träumen	kreativ	kuss	vertrauen	anregung	gütig	töten	krank	krise	versagen	ausrottung	gierig	vergnügt	sonnig	engagiert	genießen	gesittet	besonnen	verbissen	sterben	engstirnig	gemein	geizig	bange	1	blank2r.bmp	0	1	+	0	1	blank2r.bmp	500	4	B4r.bmp	500	1	blank2r.bmp	880	3	engagiert	880	1	FEHLER	1659	1	!	1313	1	!	1367	0	0	0
2024-05-15	10:56:37	11:00:24	226590	6.6.1	4_exp_EVA_AWA_CON	34	A	B	Rpleas_acq	Oppo	Rpleas	1pleas	acq_US_pleas_nomask	acq2_nomask	2	7	480	1	300	300	0	0	440	50	1	0	träumen	kreativ	kuss	vertrauen	anregung	gütig	töten	krank	krise	versagen	ausrottung	gierig	vergnügt	sonnig	engagiert	genießen	gesittet	besonnen	verbissen	sterben	engstirnig	gemein	geizig	bange	1	blank2r.bmp	0	1	+	0	1	blank2r.bmp	500	1	CPLW	500	1	blank2r.bmp	880	3	kuss	880	1	!	1312	1	!	1342	0	0	0	0	0	0
2024-05-15	10:56:37	11:00:26	228853	6.6.1	4_exp_EVA_AWA_CON	34	A	B	Rpleas_acq	Oppo	Rpleas	1pleas	acq_new_unple_nomask	acq2_nomask	2	8	480	1	300	300	0	0	482	46	1	0	träumen	kreativ	kuss	vertrauen	anregung	gütig	töten	krank	krise	versagen	ausrottung	gierig	vergnügt	sonnig	engagiert	genießen	gesittet	besonnen	verbissen	sterben	engstirnig	gemein	geizig	bange	1	blank2r.bmp	0	1	+	0	1	blank2r.bmp	500	2	B2r.bmp	500	1	blank2r.bmp	880	4	gemein	880	1	!	1312	1	!	1384	0	0	0	0	0	0
2024-05-15	10:56:37	11:00:29	231268	6.6.1	4_exp_EVA_AWA_CON	34	A	B	Rpleas_acq	Oppo	Rpleas	1pleas	acq_new_pleas_nomask	acq2_nomask	2	9	480	0	300	300	0	0	637	50	1	0	träumen	kreativ	kuss	vertrauen	anregung	gütig	töten	krank	krise	versagen	ausrottung	gierig	vergnügt	sonnig	engagiert	genießen	gesittet	besonnen	verbissen	sterben	engstirnig	gemein	geizig	bange	1	blank2r.bmp	0	1	+	0	1	blank2r.bmp	500	6	C2r.bmp	500	1	blank2r.bmp	880	1	vergnügt	880	1	!	1313	1	!	-1	0	0	0	0	0	0
2024-05-15	10:56:37	11:00:31	233517	6.6.1	4_exp_EVA_AWA_CON	34	A	B	Rpleas_acq	Oppo	Rpleas	1pleas	acq_new_pleas_nomask	acq2_nomask	2	10	480	1	300	300	0	0	473	50	1	0	träumen	kreativ	kuss	vertrauen	anregung	gütig	töten	krank	krise	versagen	ausrottung	gierig	vergnügt	sonnig	engagiert	genießen	gesittet	besonnen	verbissen	sterben	engstirnig	gemein	geizig	bange	1	blank2r.bmp	0	1	+	0	1	blank2r.bmp	500	3	B3r.bmp	500	1	blank2r.bmp	880	6	besonnen	880	1	!	1313	1	!	1375	0	0	0	0	0	0
2024-05-15	10:56:37	11:00:33	235990	6.6.1	4_exp_EVA_AWA_CON	34	A	B	Rpleas_acq	Oppo	Rpleas	1pleas	acq_new_unple_nomask	acq2_nomask	2	11	480	1	300	300	0	0	494	50	0	0	träumen	kreativ	kuss	vertrauen	anregung	gütig	töten	krank	krise	versagen	ausrottung	gierig	vergnügt	sonnig	engagiert	genießen	gesittet	besonnen	verbissen	sterben	engstirnig	gemein	geizig	bange	1	blank2r.bmp	0	1	+	0	1	blank2r.bmp	500	5	C1r.bmp	500	1	blank2r.bmp	880	1	verbissen	880	1	FEHLER	1687	1	!	1312	1	!	1395	0	0	0
2024-05-15	10:56:37	11:00:35	238079	6.6.1	4_exp_EVA_AWA_CON	34	A	B	Rpleas_acq	Oppo	Rpleas	1pleas	acq_US_pleas_nomask	acq2_nomask	2	12	480	0	300	300	0	0	310	46	0	0	träumen	kreativ	kuss	vertrauen	anregung	gütig	töten	krank	krise	versagen	ausrottung	gierig	vergnügt	sonnig	engagiert	genießen	gesittet	besonnen	verbissen	sterben	engstirnig	gemein	geizig	bange	1	blank2r.bmp	0	1	+	0	1	blank2r.bmp	500	1	CPLW	500	1	blank2r.bmp	880	1	träumen	880	1	FEHLER	1504	1	!	-1	1	!	-1	0	0	0
2024-05-15	10:56:37	11:00:37	240020	6.6.1	4_exp_EVA_AWA_CON	34	A	B	Rpleas_acq	Oppo	Rpleas	1pleas	acq_US_pleas_nomask	acq2_nomask	2	13	480	0	300	300	0	0	363	50	1	0	träumen	kreativ	kuss	vertrauen	anregung	gütig	töten	krank	krise	versagen	ausrottung	gierig	vergnügt	sonnig	engagiert	genießen	gesittet	besonnen	verbissen	sterben	engstirnig	gemein	geizig	bange	1	blank2r.bmp	0	1	+	0	1	blank2r.bmp	500	1	CPLW	500	1	blank2r.bmp	880	5	anregung	880	1	!	-1	1	!	-1	0	0	0	0	0	0
2024-05-15	10:56:37	11:00:40	242317	6.6.1	4_exp_EVA_AWA_CON	34	A	B	Rpleas_acq	Oppo	Rpleas	1pleas	acq_US_pleas_nomask	acq2_nomask	2	14	480	1	300	300	0	0	517	50	1	0	träumen	kreativ	kuss	vertrauen	anregung	gütig	töten	krank	krise	versagen	ausrottung	gierig	vergnügt	sonnig	engagiert	genießen	gesittet	besonnen	verbissen	sterben	engstirnig	gemein	geizig	bange	1	blank2r.bmp	0	1	+	0	1	blank2r.bmp	500	1	CPLW	500	1	blank2r.bmp	880	1	träumen	880	1	!	1312	1	!	1419	0	0	0	0	0	0
2024-05-15	10:56:37	11:00:42	244533	6.6.1	4_exp_EVA_AWA_CON	34	A	B	Rpleas_acq	Oppo	Rpleas	1pleas	acq_US_unple_nomask	acq2_nomask	2	15	480	1	300	300	0	0	442	46	1	0	träumen	kreativ	kuss	vertrauen	anregung	gütig	töten	krank	krise	versagen	ausrottung	gierig	vergnügt	sonnig	engagiert	genießen	gesittet	besonnen	verbissen	sterben	engstirnig	gemein	geizig	bange	1	blank2r.bmp	0	1	+	0	1	blank2r.bmp	500	1	DHJF	500	1	blank2r.bmp	880	2	krank	880	1	!	1313	1	!	1344	0	0	0	0	0	0
2024-05-15	10:56:37	11:00:44	246892	6.6.1	4_exp_EVA_AWA_CON	34	A	B	Rpleas_acq	Oppo	Rpleas	1pleas	acq_new_unple_nomask	acq2_nomask	2	16	480	0	300	300	0	0	581	46	1	0	träumen	kreativ	kuss	vertrauen	anregung	gütig	töten	krank	krise	versagen	ausrottung	gierig	vergnügt	sonnig	engagiert	genießen	gesittet	besonnen	verbissen	sterben	engstirnig	gemein	geizig	bange	1	blank2r.bmp	0	1	+	0	1	blank2r.bmp	500	5	C1r.bmp	500	1	blank2r.bmp	880	3	engstirnig	880	1	!	1313	1	!	-1	0	0	0	0	0	0
2024-05-15	10:56:37	11:00:46	249251	6.6.1	4_exp_EVA_AWA_CON	34	A	B	Rpleas_acq	Oppo	Rpleas	1pleas	acq_US_unple_nomask	acq2_nomask	2	17	480	0	300	300	0	0	579	46	1	0	träumen	kreativ	kuss	vertrauen	anregung	gütig	töten	krank	krise	versagen	ausrottung	gierig	vergnügt	sonnig	engagiert	genießen	gesittet	besonnen	verbissen	sterben	engstirnig	gemein	geizig	bange	1	blank2r.bmp	0	1	+	0	1	blank2r.bmp	500	1	DHJF	500	1	blank2r.bmp	880	6	gierig	880	1	!	1313	1	!	-1	0	0	0	0	0	0
2024-05-15	10:56:37	11:00:49	251566	6.6.1	4_exp_EVA_AWA_CON	34	A	B	Rpleas_acq	Oppo	Rpleas	1pleas	acq_new_pleas_nomask	acq2_nomask	2	18	480	1	300	300	0	0	539	50	1	0	träumen	kreativ	kuss	vertrauen	anregung	gütig	töten	krank	krise	versagen	ausrottung	gierig	vergnügt	sonnig	engagiert	genießen	gesittet	besonnen	verbissen	sterben	engstirnig	gemein	geizig	bange	1	blank2r.bmp	0	1	+	0	1	blank2r.bmp	500	6	C2r.bmp	500	1	blank2r.bmp	880	4	genießen	880	1	!	1313	1	!	1442	0	0	0	0	0	0
2024-05-15	10:56:37	11:00:51	253756	6.6.1	4_exp_EVA_AWA_CON	34	A	B	Rpleas_acq	Oppo	Rpleas	1pleas	acq_new_pleas_nomask	acq2_nomask	2	19	480	0	300	300	0	0	410	50	1	0	träumen	kreativ	kuss	vertrauen	anregung	gütig	töten	krank	krise	versagen	ausrottung	gierig	vergnügt	sonnig	engagiert	genießen	gesittet	besonnen	verbissen	sterben	engstirnig	gemein	geizig	bange	1	blank2r.bmp	0	1	+	0	1	blank2r.bmp	500	7	C3r.bmp	500	1	blank2r.bmp	880	5	gesittet	880	1	!	-1	1	!	-1	0	0	0	0	0	0
2024-05-15	10:56:37	11:00:54	256327	6.6.1	4_exp_EVA_AWA_CON	34	A	B	Rpleas_acq	Oppo	Rpleas	1pleas	acq_new_pleas_nomask	acq2_nomask	2	20	480	0	300	300	0	0	586	46	0	0	träumen	kreativ	kuss	vertrauen	anregung	gütig	töten	krank	krise	versagen	ausrottung	gierig	vergnügt	sonnig	engagiert	genießen	gesittet	besonnen	verbissen	sterben	engstirnig	gemein	geizig	bange	1	blank2r.bmp	0	1	+	0	1	blank2r.bmp	500	4	B4r.bmp	500	1	blank2r.bmp	880	1	vergnügt	880	1	FEHLER	1780	1	!	1312	1	!	-1	0	0	0
2024-05-15	10:56:37	11:00:56	258397	6.6.1	4_exp_EVA_AWA_CON	34	A	B	Rpleas_acq	Oppo	Rpleas	1pleas	acq_US_pleas_nomask	acq2_nomask	2	21	480	1	300	300	0	0	497	50	1	0	träumen	kreativ	kuss	vertrauen	anregung	gütig	töten	krank	krise	versagen	ausrottung	gierig	vergnügt	sonnig	engagiert	genießen	gesittet	besonnen	verbissen	sterben	engstirnig	gemein	geizig	bange	1	blank2r.bmp	0	1	+	0	1	blank2r.bmp	500	1	CPLW	500	1	blank2r.bmp	880	6	gütig	880	1	!	1313	1	!	1399	0	0	0	0	0	0
2024-05-15	10:56:37	11:00:58	260662	6.6.1	4_exp_EVA_AWA_CON	34	A	B	Rpleas_acq	Oppo	Rpleas	1pleas	acq_new_unple_nomask	acq2_nomask	2	22	480	1	300	300	0	0	489	46	1	0	träumen	kreativ	kuss	vertrauen	anregung	gütig	töten	krank	krise	versagen	ausrottung	gierig	vergnügt	sonnig	engagiert	genießen	gesittet	besonnen	verbissen	sterben	engstirnig	gemein	geizig	bange	1	blank2r.bmp	0	1	+	0	1	blank2r.bmp	500	3	B3r.bmp	500	1	blank2r.bmp	880	1	verbissen	880	1	!	1313	1	!	1392	0	0	0	0	0	0
2024-05-15	10:56:37	11:01:00	263047	6.6.1	4_exp_EVA_AWA_CON	34	A	B	Rpleas_acq	Oppo	Rpleas	1pleas	acq_new_unple_nomask	acq2_nomask	2	23	480	0	300	300	0	0	402	50	0	0	träumen	kreativ	kuss	vertrauen	anregung	gütig	töten	krank	krise	versagen	ausrottung	gierig	vergnügt	sonnig	engagiert	genießen	gesittet	besonnen	verbissen	sterben	engstirnig	gemein	geizig	bange	1	blank2r.bmp	0	1	+	0	1	blank2r.bmp	500	8	C4r.bmp	500	1	blank2r.bmp	880	5	geizig	880	1	FEHLER	1596	1	!	-1	1	!	-1	0	0	0
2024-05-15	10:56:37	11:01:02	265195	6.6.1	4_exp_EVA_AWA_CON	34	A	B	Rpleas_acq	Oppo	Rpleas	1pleas	acq_US_unple_nomask	acq2_nomask	2	24	480	0	300	300	0	0	573	46	1	0	träumen	kreativ	kuss	vertrauen	anregung	gütig	töten	krank	krise	versagen	ausrottung	gierig	vergnügt	sonnig	engagiert	genießen	gesittet	besonnen	verbissen	sterben	engstirnig	gemein	geizig	bange	1	blank2r.bmp	0	1	+	0	1	blank2r.bmp	500	1	DHJF	500	1	blank2r.bmp	880	5	ausrottung	880	1	!	1313	1	!	-1	0	0	0	0	0	0
2024-05-15	10:56:37	11:01:05	267405	6.6.1	4_exp_EVA_AWA_CON	34	A	B	Rpleas_acq	Oppo	Rpleas	1pleas	acq_US_unple_nomask	acq2_nomask	2	25	480	1	300	300	0	0	429	46	1	0	träumen	kreativ	kuss	vertrauen	anregung	gütig	töten	krank	krise	versagen	ausrottung	gierig	vergnügt	sonnig	engagiert	genießen	gesittet	besonnen	verbissen	sterben	engstirnig	gemein	geizig	bange	1	blank2r.bmp	0	1	+	0	1	blank2r.bmp	500	1	DHJF	500	1	blank2r.bmp	880	4	versagen	880	1	!	1313	1	!	1331	0	0	0	0	0	0
2024-05-15	10:56:37	11:01:07	269693	6.6.1	4_exp_EVA_AWA_CON	34	A	B	Rpleas_acq	Oppo	Rpleas	1pleas	acq_new_pleas_nomask	acq2_nomask	2	26	480	1	300	300	0	0	506	50	1	0	träumen	kreativ	kuss	vertrauen	anregung	gütig	töten	krank	krise	versagen	ausrottung	gierig	vergnügt	sonnig	engagiert	genießen	gesittet	besonnen	verbissen	sterben	engstirnig	gemein	geizig	bange	1	blank2r.bmp	0	1	+	0	1	blank2r.bmp	500	2	B2r.bmp	500	1	blank2r.bmp	880	6	besonnen	880	1	!	1313	1	!	1407	0	0	0	0	0	0
2024-05-15	10:56:37	11:01:09	272019	6.6.1	4_exp_EVA_AWA_CON	34	A	B	Rpleas_acq	Oppo	Rpleas	1pleas	acq_new_unple_nomask	acq2_nomask	2	27	480	0	300	300	0	0	553	46	1	0	träumen	kreativ	kuss	vertrauen	anregung	gütig	töten	krank	krise	versagen	ausrottung	gierig	vergnügt	sonnig	engagiert	genießen	gesittet	besonnen	verbissen	sterben	engstirnig	gemein	geizig	bange	1	blank2r.bmp	0	1	+	0	1	blank2r.bmp	500	1	B1r.bmp	500	1	blank2r.bmp	880	6	bange	880	1	!	1313	1	!	-1	0	0	0	0	0	0
2024-05-15	10:56:37	11:01:11	274213	6.6.1	4_exp_EVA_AWA_CON	34	A	B	Rpleas_acq	Oppo	Rpleas	1pleas	acq_US_unple_nomask	acq2_nomask	2	28	480	1	300	300	0	0	414	46	1	0	träumen	kreativ	kuss	vertrauen	anregung	gütig	töten	krank	krise	versagen	ausrottung	gierig	vergnügt	sonnig	engagiert	genießen	gesittet	besonnen	verbissen	sterben	engstirnig	gemein	geizig	bange	1	blank2r.bmp	0	1	+	0	1	blank2r.bmp	500	1	DHJF	500	1	blank2r.bmp	880	1	töten	880	1	!	1312	1	!	1314	0	0	0	0	0	0
2024-05-15	10:56:37	11:01:14	276421	6.6.1	4_exp_EVA_AWA_CON	34	A	B	Rpleas_acq	Oppo	Rpleas	1pleas	acq_new_unple_nomask	acq2_nomask	2	29	480	1	300	300	0	0	429	46	1	0	träumen	kreativ	kuss	vertrauen	anregung	gütig	töten	krank	krise	versagen	ausrottung	gierig	vergnügt	sonnig	engagiert	genießen	gesittet	besonnen	verbissen	sterben	engstirnig	gemein	geizig	bange	1	blank2r.bmp	0	1	+	0	1	blank2r.bmp	500	6	C2r.bmp	500	1	blank2r.bmp	880	2	sterben	880	1	!	1312	1	!	1331	0	0	0	0	0	0
2024-05-15	10:56:37	11:01:16	278620	6.6.1	4_exp_EVA_AWA_CON	34	A	B	Rpleas_acq	Oppo	Rpleas	1pleas	acq_new_unple_nomask	acq2_nomask	2	30	480	1	300	300	0	0	418	46	1	0	träumen	kreativ	kuss	vertrauen	anregung	gütig	töten	krank	krise	versagen	ausrottung	gierig	vergnügt	sonnig	engagiert	genießen	gesittet	besonnen	verbissen	sterben	engstirnig	gemein	geizig	bange	1	blank2r.bmp	0	1	+	0	1	blank2r.bmp	500	8	C4r.bmp	500	1	blank2r.bmp	880	4	gemein	880	1	!	1312	1	!	1318	0	0	0	0	0	0
2024-05-15	10:56:37	11:01:18	281031	6.6.1	4_exp_EVA_AWA_CON	34	A	B	Rpleas_acq	Oppo	Rpleas	1pleas	acq_new_pleas_nomask	acq2_nomask	2	31	480	1	300	300	0	0	434	46	0	0	träumen	kreativ	kuss	vertrauen	anregung	gütig	töten	krank	krise	versagen	ausrottung	gierig	vergnügt	sonnig	engagiert	genießen	gesittet	besonnen	verbissen	sterben	engstirnig	gemein	geizig	bange	1	blank2r.bmp	0	1	+	0	1	blank2r.bmp	500	2	B2r.bmp	500	1	blank2r.bmp	880	3	engagiert	880	1	FEHLER	1628	1	!	1313	1	!	1336	0	0	0
2024-05-15	10:56:37	11:01:20	283012	6.6.1	4_exp_EVA_AWA_CON	34	A	B	Rpleas_acq	Oppo	Rpleas	1pleas	acq_US_unple_nomask	acq2_nomask	2	32	480	0	300	300	0	0	407	46	1	0	träumen	kreativ	kuss	vertrauen	anregung	gütig	töten	krank	krise	versagen	ausrottung	gierig	vergnügt	sonnig	engagiert	genießen	gesittet	besonnen	verbissen	sterben	engstirnig	gemein	geizig	bange	1	blank2r.bmp	0	1	+	0	1	blank2r.bmp	500	1	DHJF	500	1	blank2r.bmp	880	3	krise	880	1	!	-1	1	!	-1	0	0	0	0	0	0
2024-05-15	10:56:37	11:01:23	285436	6.6.1	4_exp_EVA_AWA_CON	34	A	B	Rpleas_acq	Oppo	Rpleas	1pleas	acq_US_pleas_nomask	acq2_nomask	2	33	480	0	300	300	0	0	649	50	1	0	träumen	kreativ	kuss	vertrauen	anregung	gütig	töten	krank	krise	versagen	ausrottung	gierig	vergnügt	sonnig	engagiert	genießen	gesittet	besonnen	verbissen	sterben	engstirnig	gemein	geizig	bange	1	blank2r.bmp	0	1	+	0	1	blank2r.bmp	500	1	CPLW	500	1	blank2r.bmp	880	4	vertrauen	880	1	!	1313	1	!	-1	0	0	0	0	0	0
2024-05-15	10:56:37	11:01:25	287782	6.6.1	4_exp_EVA_AWA_CON	34	A	B	Rpleas_acq	Oppo	Rpleas	1pleas	acq_US_pleas_nomask	acq2_nomask	2	34	480	0	300	300	0	0	362	46	0	0	träumen	kreativ	kuss	vertrauen	anregung	gütig	töten	krank	krise	versagen	ausrottung	gierig	vergnügt	sonnig	engagiert	genießen	gesittet	besonnen	verbissen	sterben	engstirnig	gemein	geizig	bange	1	blank2r.bmp	0	1	+	0	1	blank2r.bmp	500	1	CPLW	500	1	blank2r.bmp	880	3	kuss	880	1	FEHLER	1555	1	!	-1	1	!	-1	0	0	0
2024-05-15	10:56:37	11:01:27	289837	6.6.1	4_exp_EVA_AWA_CON	34	A	B	Rpleas_acq	Oppo	Rpleas	1pleas	acq_US_pleas_nomask	acq2_nomask	2	35	480	1	300	300	0	0	476	50	1	0	träumen	kreativ	kuss	vertrauen	anregung	gütig	töten	krank	krise	versagen	ausrottung	gierig	vergnügt	sonnig	engagiert	genießen	gesittet	besonnen	verbissen	sterben	engstirnig	gemein	geizig	bange	1	blank2r.bmp	0	1	+	0	1	blank2r.bmp	500	1	CPLW	500	1	blank2r.bmp	880	2	kreativ	880	1	!	1312	1	!	1378	0	0	0	0	0	0
2024-05-15	10:56:37	11:01:29	292053	6.6.1	4_exp_EVA_AWA_CON	34	A	B	Rpleas_acq	Oppo	Rpleas	1pleas	acq_new_pleas_nomask	acq2_nomask	2	36	480	1	300	300	0	0	441	50	1	0	träumen	kreativ	kuss	vertrauen	anregung	gütig	töten	krank	krise	versagen	ausrottung	gierig	vergnügt	sonnig	engagiert	genießen	gesittet	besonnen	verbissen	sterben	engstirnig	gemein	geizig	bange	1	blank2r.bmp	0	1	+	0	1	blank2r.bmp	500	7	C3r.bmp	500	1	blank2r.bmp	880	2	sonnig	880	1	!	1312	1	!	1343	0	0	0	0	0	0
2024-05-15	10:56:37	11:01:48	311076	6.6.1	4_exp_EVA_AWA_CON	34	A	B	Rpleas_acq	Oppo	Rpleas	1pleas	acq_US_pleas_nomask	acq3_nomask	3	1	453	1	300	300	0	0	393	50	1	0	träumen	kreativ	kuss	vertrauen	anregung	gütig	töten	krank	krise	versagen	ausrottung	gierig	vergnügt	sonnig	engagiert	genießen	gesittet	besonnen	verbissen	sterben	engstirnig	gemein	geizig	bange	1	blank2r.bmp	0	1	+	0	1	blank2r.bmp	500	1	CPLW	500	1	blank2r.bmp	880	6	gütig	880	1	!	1292	1	!	1293	0	0	0	0	0	0
2024-05-15	10:56:37	11:01:51	313373	6.6.1	4_exp_EVA_AWA_CON	34	A	B	Rpleas_acq	Oppo	Rpleas	1pleas	acq_US_pleas_nomask	acq3_nomask	3	2	453	1	300	300	0	0	517	50	1	0	träumen	kreativ	kuss	vertrauen	anregung	gütig	töten	krank	krise	versagen	ausrottung	gierig	vergnügt	sonnig	engagiert	genießen	gesittet	besonnen	verbissen	sterben	engstirnig	gemein	geizig	bange	1	blank2r.bmp	0	1	+	0	1	blank2r.bmp	500	1	CPLW	500	1	blank2r.bmp	880	1	träumen	880	1	!	1293	1	!	1419	0	0	0	0	0	0
2024-05-15	10:56:37	11:01:53	315691	6.6.1	4_exp_EVA_AWA_CON	34	A	B	Rpleas_acq	Oppo	Rpleas	1pleas	acq_US_pleas_nomask	acq3_nomask	3	3	453	0	300	300	0	0	536	50	1	0	träumen	kreativ	kuss	vertrauen	anregung	gütig	töten	krank	krise	versagen	ausrottung	gierig	vergnügt	sonnig	engagiert	genießen	gesittet	besonnen	verbissen	sterben	engstirnig	gemein	geizig	bange	1	blank2r.bmp	0	1	+	0	1	blank2r.bmp	500	1	CPLW	500	1	blank2r.bmp	880	3	kuss	880	1	!	1292	1	!	-1	0	0	0	0	0	0
2024-05-15	10:56:37	11:01:55	317835	6.6.1	4_exp_EVA_AWA_CON	34	A	B	Rpleas_acq	Oppo	Rpleas	1pleas	acq_US_pleas_nomask	acq3_nomask	3	4	453	0	300	300	0	0	368	50	1	0	träumen	kreativ	kuss	vertrauen	anregung	gütig	töten	krank	krise	versagen	ausrottung	gierig	vergnügt	sonnig	engagiert	genießen	gesittet	besonnen	verbissen	sterben	engstirnig	gemein	geizig	bange	1	blank2r.bmp	0	1	+	0	1	blank2r.bmp	500	1	CPLW	500	1	blank2r.bmp	880	4	vertrauen	880	1	!	-1	1	!	-1	0	0	0	0	0	0
2024-05-15	10:56:37	11:01:57	320195	6.6.1	4_exp_EVA_AWA_CON	34	A	B	Rpleas_acq	Oppo	Rpleas	1pleas	acq_US_unple_nomask	acq3_nomask	3	5	453	0	300	300	0	0	587	46	1	0	träumen	kreativ	kuss	vertrauen	anregung	gütig	töten	krank	krise	versagen	ausrottung	gierig	vergnügt	sonnig	engagiert	genießen	gesittet	besonnen	verbissen	sterben	engstirnig	gemein	geizig	bange	1	blank2r.bmp	0	1	+	0	1	blank2r.bmp	500	1	DHJF	500	1	blank2r.bmp	880	5	ausrottung	880	1	!	1292	1	!	-1	0	0	0	0	0	0
2024-05-15	10:56:37	11:02:00	322437	6.6.1	4_exp_EVA_AWA_CON	34	A	B	Rpleas_acq	Oppo	Rpleas	1pleas	acq_US_pleas_nomask	acq3_nomask	3	6	453	1	300	300	0	0	465	50	1	0	träumen	kreativ	kuss	vertrauen	anregung	gütig	töten	krank	krise	versagen	ausrottung	gierig	vergnügt	sonnig	engagiert	genießen	gesittet	besonnen	verbissen	sterben	engstirnig	gemein	geizig	bange	1	blank2r.bmp	0	1	+	0	1	blank2r.bmp	500	1	CPLW	500	1	blank2r.bmp	880	5	anregung	880	1	!	1292	1	!	1367	0	0	0	0	0	0
2024-05-15	10:56:37	11:02:02	324813	6.6.1	4_exp_EVA_AWA_CON	34	A	B	Rpleas_acq	Oppo	Rpleas	1pleas	acq_US_unple_nomask	acq3_nomask	3	7	453	1	300	300	0	0	400	50	0	0	träumen	kreativ	kuss	vertrauen	anregung	gütig	töten	krank	krise	versagen	ausrottung	gierig	vergnügt	sonnig	engagiert	genießen	gesittet	besonnen	verbissen	sterben	engstirnig	gemein	geizig	bange	1	blank2r.bmp	0	1	+	0	1	blank2r.bmp	500	1	DHJF	500	1	blank2r.bmp	880	6	gierig	880	1	FEHLER	1592	1	!	1293	1	!	1300	0	0	0
2024-05-15	10:56:37	11:02:04	326829	6.6.1	4_exp_EVA_AWA_CON	34	A	B	Rpleas_acq	Oppo	Rpleas	1pleas	acq_US_pleas_nomask	acq3_nomask	3	8	453	1	300	300	0	0	434	50	1	0	träumen	kreativ	kuss	vertrauen	anregung	gütig	töten	krank	krise	versagen	ausrottung	gierig	vergnügt	sonnig	engagiert	genießen	gesittet	besonnen	verbissen	sterben	engstirnig	gemein	geizig	bange	1	blank2r.bmp	0	1	+	0	1	blank2r.bmp	500	1	CPLW	500	1	blank2r.bmp	880	2	kreativ	880	1	!	1292	1	!	1336	0	0	0	0	0	0
2024-05-15	10:56:37	11:02:06	329126	6.6.1	4_exp_EVA_AWA_CON	34	A	B	Rpleas_acq	Oppo	Rpleas	1pleas	acq_US_unple_nomask	acq3_nomask	3	9	453	1	300	300	0	0	519	46	1	0	träumen	kreativ	kuss	vertrauen	anregung	gütig	töten	krank	krise	versagen	ausrottung	gierig	vergnügt	sonnig	engagiert	genießen	gesittet	besonnen	verbissen	sterben	engstirnig	gemein	geizig	bange	1	blank2r.bmp	0	1	+	0	1	blank2r.bmp	500	1	DHJF	500	1	blank2r.bmp	880	1	töten	880	1	!	1292	1	!	1421	0	0	0	0	0	0
2024-05-15	10:56:37	11:02:09	331421	6.6.1	4_exp_EVA_AWA_CON	34	A	B	Rpleas_acq	Oppo	Rpleas	1pleas	acq_US_unple_nomask	acq3_nomask	3	10	453	1	300	300	0	0	513	46	1	0	träumen	kreativ	kuss	vertrauen	anregung	gütig	töten	krank	krise	versagen	ausrottung	gierig	vergnügt	sonnig	engagiert	genießen	gesittet	besonnen	verbissen	sterben	engstirnig	gemein	geizig	bange	1	blank2r.bmp	0	1	+	0	1	blank2r.bmp	500	1	DHJF	500	1	blank2r.bmp	880	2	krank	880	1	!	1292	1	!	1415	0	0	0	0	0	0
2024-05-15	10:56:37	11:02:11	333653	6.6.1	4_exp_EVA_AWA_CON	34	A	B	Rpleas_acq	Oppo	Rpleas	1pleas	acq_US_unple_nomask	acq3_nomask	3	11	453	1	300	300	0	0	454	46	1	0	träumen	kreativ	kuss	vertrauen	anregung	gütig	töten	krank	krise	versagen	ausrottung	gierig	vergnügt	sonnig	engagiert	genießen	gesittet	besonnen	verbissen	sterben	engstirnig	gemein	geizig	bange	1	blank2r.bmp	0	1	+	0	1	blank2r.bmp	500	1	DHJF	500	1	blank2r.bmp	880	3	krise	880	1	!	1293	1	!	1355	0	0	0	0	0	0
2024-05-15	10:56:37	11:02:13	335731	6.6.1	4_exp_EVA_AWA_CON	34	A	B	Rpleas_acq	Oppo	Rpleas	1pleas	acq_US_unple_nomask	acq3_nomask	3	12	453	0	300	300	0	0	302	46	1	0	träumen	kreativ	kuss	vertrauen	anregung	gütig	töten	krank	krise	versagen	ausrottung	gierig	vergnügt	sonnig	engagiert	genießen	gesittet	besonnen	verbissen	sterben	engstirnig	gemein	geizig	bange	1	blank2r.bmp	0	1	+	0	1	blank2r.bmp	500	1	DHJF	500	1	blank2r.bmp	880	4	versagen	880	1	!	-1	1	!	-1	0	0	0	0	0	0
2024-05-15	10:56:37	11:02:15	338013	6.6.1	4_exp_EVA_AWA_CON	34	A	B	Rpleas_acq	Oppo	Rpleas	1pleas	acq_US_unple_nomask	acq3_nomask	3	13	453	1	300	300	0	0	501	46	1	0	träumen	kreativ	kuss	vertrauen	anregung	gütig	töten	krank	krise	versagen	ausrottung	gierig	vergnügt	sonnig	engagiert	genießen	gesittet	besonnen	verbissen	sterben	engstirnig	gemein	geizig	bange	1	blank2r.bmp	0	1	+	0	1	blank2r.bmp	500	1	DHJF	500	1	blank2r.bmp	880	4	versagen	880	1	!	1292	1	!	1403	0	0	0	0	0	0
2024-05-15	10:56:37	11:02:17	340245	6.6.1	4_exp_EVA_AWA_CON	34	A	B	Rpleas_acq	Oppo	Rpleas	1pleas	acq_US_unple_nomask	acq3_nomask	3	14	453	1	300	300	0	0	452	46	1	0	träumen	kreativ	kuss	vertrauen	anregung	gütig	töten	krank	krise	versagen	ausrottung	gierig	vergnügt	sonnig	engagiert	genießen	gesittet	besonnen	verbissen	sterben	engstirnig	gemein	geizig	bange	1	blank2r.bmp	0	1	+	0	1	blank2r.bmp	500	1	DHJF	500	1	blank2r.bmp	880	6	gierig	880	1	!	1293	1	!	1353	0	0	0	0	0	0
2024-05-15	10:56:37	11:02:20	342509	6.6.1	4_exp_EVA_AWA_CON	34	A	B	Rpleas_acq	Oppo	Rpleas	1pleas	acq_US_pleas_nomask	acq3_nomask	3	15	453	1	300	300	0	0	484	50	1	0	träumen	kreativ	kuss	vertrauen	anregung	gütig	töten	krank	krise	versagen	ausrottung	gierig	vergnügt	sonnig	engagiert	genießen	gesittet	besonnen	verbissen	sterben	engstirnig	gemein	geizig	bange	1	blank2r.bmp	0	1	+	0	1	blank2r.bmp	500	1	CPLW	500	1	blank2r.bmp	880	4	vertrauen	880	1	!	1292	1	!	1385	0	0	0	0	0	0
2024-05-15	10:56:37	11:02:22	344693	6.6.1	4_exp_EVA_AWA_CON	34	A	B	Rpleas_acq	Oppo	Rpleas	1pleas	acq_US_unple_nomask	acq3_nomask	3	16	453	1	300	300	0	0	407	46	1	0	träumen	kreativ	kuss	vertrauen	anregung	gütig	töten	krank	krise	versagen	ausrottung	gierig	vergnügt	sonnig	engagiert	genießen	gesittet	besonnen	verbissen	sterben	engstirnig	gemein	geizig	bange	1	blank2r.bmp	0	1	+	0	1	blank2r.bmp	500	1	DHJF	500	1	blank2r.bmp	880	1	töten	880	1	!	1292	1	!	1308	0	0	0	0	0	0
2024-05-15	10:56:37	11:02:24	346836	6.6.1	4_exp_EVA_AWA_CON	34	A	B	Rpleas_acq	Oppo	Rpleas	1pleas	acq_US_pleas_nomask	acq3_nomask	3	17	453	0	300	300	0	0	369	50	1	0	träumen	kreativ	kuss	vertrauen	anregung	gütig	töten	krank	krise	versagen	ausrottung	gierig	vergnügt	sonnig	engagiert	genießen	gesittet	besonnen	verbissen	sterben	engstirnig	gemein	geizig	bange	1	blank2r.bmp	0	1	+	0	1	blank2r.bmp	500	1	CPLW	500	1	blank2r.bmp	880	1	träumen	880	1	!	-1	1	!	-1	0	0	0	0	0	0
2024-05-15	10:56:37	11:02:26	349195	6.6.1	4_exp_EVA_AWA_CON	34	A	B	Rpleas_acq	Oppo	Rpleas	1pleas	acq_US_pleas_nomask	acq3_nomask	3	18	453	0	300	300	0	0	578	50	1	0	träumen	kreativ	kuss	vertrauen	anregung	gütig	töten	krank	krise	versagen	ausrottung	gierig	vergnügt	sonnig	engagiert	genießen	gesittet	besonnen	verbissen	sterben	engstirnig	gemein	geizig	bange	1	blank2r.bmp	0	1	+	0	1	blank2r.bmp	500	1	CPLW	500	1	blank2r.bmp	880	6	gütig	880	1	!	1293	1	!	-1	0	0	0	0	0	0
2024-05-15	10:56:37	11:02:29	351397	6.6.1	4_exp_EVA_AWA_CON	34	A	B	Rpleas_acq	Oppo	Rpleas	1pleas	acq_US_pleas_nomask	acq3_nomask	3	19	453	1	300	300	0	0	426	50	1	0	träumen	kreativ	kuss	vertrauen	anregung	gütig	töten	krank	krise	versagen	ausrottung	gierig	vergnügt	sonnig	engagiert	genießen	gesittet	besonnen	verbissen	sterben	engstirnig	gemein	geizig	bange	1	blank2r.bmp	0	1	+	0	1	blank2r.bmp	500	1	CPLW	500	1	blank2r.bmp	880	3	kuss	880	1	!	1293	1	!	1328	0	0	0	0	0	0
2024-05-15	10:56:37	11:02:31	353662	6.6.1	4_exp_EVA_AWA_CON	34	A	B	Rpleas_acq	Oppo	Rpleas	1pleas	acq_US_unple_nomask	acq3_nomask	3	20	453	1	300	300	0	0	489	46	1	0	träumen	kreativ	kuss	vertrauen	anregung	gütig	töten	krank	krise	versagen	ausrottung	gierig	vergnügt	sonnig	engagiert	genießen	gesittet	besonnen	verbissen	sterben	engstirnig	gemein	geizig	bange	1	blank2r.bmp	0	1	+	0	1	blank2r.bmp	500	1	DHJF	500	1	blank2r.bmp	880	2	krank	880	1	!	1292	1	!	1390	0	0	0	0	0	0
2024-05-15	10:56:37	11:02:33	355970	6.6.1	4_exp_EVA_AWA_CON	34	A	B	Rpleas_acq	Oppo	Rpleas	1pleas	acq_US_unple_nomask	acq3_nomask	3	21	453	0	300	300	0	0	529	46	1	0	träumen	kreativ	kuss	vertrauen	anregung	gütig	töten	krank	krise	versagen	ausrottung	gierig	vergnügt	sonnig	engagiert	genießen	gesittet	besonnen	verbissen	sterben	engstirnig	gemein	geizig	bange	1	blank2r.bmp	0	1	+	0	1	blank2r.bmp	500	1	DHJF	500	1	blank2r.bmp	880	5	ausrottung	880	1	!	1293	1	!	-1	0	0	0	0	0	0
2024-05-15	10:56:37	11:02:35	358266	6.6.1	4_exp_EVA_AWA_CON	34	A	B	Rpleas_acq	Oppo	Rpleas	1pleas	acq_US_pleas_nomask	acq3_nomask	3	22	453	0	300	300	0	0	524	50	1	0	träumen	kreativ	kuss	vertrauen	anregung	gütig	töten	krank	krise	versagen	ausrottung	gierig	vergnügt	sonnig	engagiert	genießen	gesittet	besonnen	verbissen	sterben	engstirnig	gemein	geizig	bange	1	blank2r.bmp	0	1	+	0	1	blank2r.bmp	500	1	CPLW	500	1	blank2r.bmp	880	5	anregung	880	1	!	1293	1	!	-1	0	0	0	0	0	0
2024-05-15	10:56:37	11:02:38	360526	6.6.1	4_exp_EVA_AWA_CON	34	A	B	Rpleas_acq	Oppo	Rpleas	1pleas	acq_US_pleas_nomask	acq3_nomask	3	23	453	1	300	300	0	0	478	50	1	0	träumen	kreativ	kuss	vertrauen	anregung	gütig	töten	krank	krise	versagen	ausrottung	gierig	vergnügt	sonnig	engagiert	genießen	gesittet	besonnen	verbissen	sterben	engstirnig	gemein	geizig	bange	1	blank2r.bmp	0	1	+	0	1	blank2r.bmp	500	1	CPLW	500	1	blank2r.bmp	880	2	kreativ	880	1	!	1292	1	!	1380	0	0	0	0	0	0
2024-05-15	10:56:37	11:02:40	362851	6.6.1	4_exp_EVA_AWA_CON	34	A	B	Rpleas_acq	Oppo	Rpleas	1pleas	acq_US_unple_nomask	acq3_nomask	3	24	453	0	300	300	0	0	545	46	1	0	träumen	kreativ	kuss	vertrauen	anregung	gütig	töten	krank	krise	versagen	ausrottung	gierig	vergnügt	sonnig	engagiert	genießen	gesittet	besonnen	verbissen	sterben	engstirnig	gemein	geizig	bange	1	blank2r.bmp	0	1	+	0	1	blank2r.bmp	500	1	DHJF	500	1	blank2r.bmp	880	3	krise	880	1	!	1292	1	!	-1	0	0	0	0	0	0
2024-05-15	10:56:37	11:02:42	365093	6.6.1	4_exp_EVA_AWA_CON	34	A	B	Rpleas_acq	Oppo	Rpleas	1pleas	acq_US_pleas_nomask	acq3_nomask	3	25	453	1	300	300	0	0	463	50	1	0	träumen	kreativ	kuss	vertrauen	anregung	gütig	töten	krank	krise	versagen	ausrottung	gierig	vergnügt	sonnig	engagiert	genießen	gesittet	besonnen	verbissen	sterben	engstirnig	gemein	geizig	bange	1	blank2r.bmp	0	1	+	0	1	blank2r.bmp	500	1	CPLW	500	1	blank2r.bmp	880	1	träumen	880	1	!	1292	1	!	1365	0	0	0	0	0	0
2024-05-15	10:56:37	11:02:45	367293	6.6.1	4_exp_EVA_AWA_CON	34	A	B	Rpleas_acq	Oppo	Rpleas	1pleas	acq_US_unple_nomask	acq3_nomask	3	26	453	1	300	300	0	0	422	46	1	0	träumen	kreativ	kuss	vertrauen	anregung	gütig	töten	krank	krise	versagen	ausrottung	gierig	vergnügt	sonnig	engagiert	genießen	gesittet	besonnen	verbissen	sterben	engstirnig	gemein	geizig	bange	1	blank2r.bmp	0	1	+	0	1	blank2r.bmp	500	1	DHJF	500	1	blank2r.bmp	880	3	krise	880	1	!	1293	1	!	1323	0	0	0	0	0	0
2024-05-15	10:56:37	11:02:47	369643	6.6.1	4_exp_EVA_AWA_CON	34	A	B	Rpleas_acq	Oppo	Rpleas	1pleas	acq_US_pleas_nomask	acq3_nomask	3	27	453	0	300	300	0	0	573	50	1	0	träumen	kreativ	kuss	vertrauen	anregung	gütig	töten	krank	krise	versagen	ausrottung	gierig	vergnügt	sonnig	engagiert	genießen	gesittet	besonnen	verbissen	sterben	engstirnig	gemein	geizig	bange	1	blank2r.bmp	0	1	+	0	1	blank2r.bmp	500	1	CPLW	500	1	blank2r.bmp	880	6	gütig	880	1	!	1292	1	!	-1	0	0	0	0	0	0
2024-05-15	10:56:37	11:02:49	371811	6.6.1	4_exp_EVA_AWA_CON	34	A	B	Rpleas_acq	Oppo	Rpleas	1pleas	acq_US_unple_nomask	acq3_nomask	3	28	453	0	300	300	0	0	389	46	1	0	träumen	kreativ	kuss	vertrauen	anregung	gütig	töten	krank	krise	versagen	ausrottung	gierig	vergnügt	sonnig	engagiert	genießen	gesittet	besonnen	verbissen	sterben	engstirnig	gemein	geizig	bange	1	blank2r.bmp	0	1	+	0	1	blank2r.bmp	500	1	DHJF	500	1	blank2r.bmp	880	6	gierig	880	1	!	-1	1	!	-1	0	0	0	0	0	0
2024-05-15	10:56:37	11:02:51	374101	6.6.1	4_exp_EVA_AWA_CON	34	A	B	Rpleas_acq	Oppo	Rpleas	1pleas	acq_US_pleas_nomask	acq3_nomask	3	29	453	1	300	300	0	0	506	50	1	0	träumen	kreativ	kuss	vertrauen	anregung	gütig	töten	krank	krise	versagen	ausrottung	gierig	vergnügt	sonnig	engagiert	genießen	gesittet	besonnen	verbissen	sterben	engstirnig	gemein	geizig	bange	1	blank2r.bmp	0	1	+	0	1	blank2r.bmp	500	1	CPLW	500	1	blank2r.bmp	880	2	kreativ	880	1	!	1292	1	!	1407	0	0	0	0	0	0
2024-05-15	10:56:37	11:02:54	376366	6.6.1	4_exp_EVA_AWA_CON	34	A	B	Rpleas_acq	Oppo	Rpleas	1pleas	acq_US_pleas_nomask	acq3_nomask	3	30	453	1	300	300	0	0	488	50	1	0	träumen	kreativ	kuss	vertrauen	anregung	gütig	töten	krank	krise	versagen	ausrottung	gierig	vergnügt	sonnig	engagiert	genießen	gesittet	besonnen	verbissen	sterben	engstirnig	gemein	geizig	bange	1	blank2r.bmp	0	1	+	0	1	blank2r.bmp	500	1	CPLW	500	1	blank2r.bmp	880	5	anregung	880	1	!	1292	1	!	1389	0	0	0	0	0	0
2024-05-15	10:56:37	11:02:56	378699	6.6.1	4_exp_EVA_AWA_CON	34	A	B	Rpleas_acq	Oppo	Rpleas	1pleas	acq_US_unple_nomask	acq3_nomask	3	31	453	0	300	300	0	0	552	46	1	0	träumen	kreativ	kuss	vertrauen	anregung	gütig	töten	krank	krise	versagen	ausrottung	gierig	vergnügt	sonnig	engagiert	genießen	gesittet	besonnen	verbissen	sterben	engstirnig	gemein	geizig	bange	1	blank2r.bmp	0	1	+	0	1	blank2r.bmp	500	1	DHJF	500	1	blank2r.bmp	880	5	ausrottung	880	1	!	1292	1	!	-1	0	0	0	0	0	0
2024-05-15	10:56:37	11:02:58	381002	6.6.1	4_exp_EVA_AWA_CON	34	A	B	Rpleas_acq	Oppo	Rpleas	1pleas	acq_US_unple_nomask	acq3_nomask	3	32	453	0	300	300	0	0	525	46	1	0	träumen	kreativ	kuss	vertrauen	anregung	gütig	töten	krank	krise	versagen	ausrottung	gierig	vergnügt	sonnig	engagiert	genießen	gesittet	besonnen	verbissen	sterben	engstirnig	gemein	geizig	bange	1	blank2r.bmp	0	1	+	0	1	blank2r.bmp	500	1	DHJF	500	1	blank2r.bmp	880	2	krank	880	1	!	1293	1	!	-1	0	0	0	0	0	0
2024-05-15	10:56:37	11:03:00	383253	6.6.1	4_exp_EVA_AWA_CON	34	A	B	Rpleas_acq	Oppo	Rpleas	1pleas	acq_US_pleas_nomask	acq3_nomask	3	33	453	1	300	300	0	0	471	50	1	0	träumen	kreativ	kuss	vertrauen	anregung	gütig	töten	krank	krise	versagen	ausrottung	gierig	vergnügt	sonnig	engagiert	genießen	gesittet	besonnen	verbissen	sterben	engstirnig	gemein	geizig	bange	1	blank2r.bmp	0	1	+	0	1	blank2r.bmp	500	1	CPLW	500	1	blank2r.bmp	880	4	vertrauen	880	1	!	1292	1	!	1373	0	0	0	0	0	0
2024-05-15	10:56:37	11:03:03	385517	6.6.1	4_exp_EVA_AWA_CON	34	A	B	Rpleas_acq	Oppo	Rpleas	1pleas	acq_US_unple_nomask	acq3_nomask	3	34	453	1	300	300	0	0	484	46	1	0	träumen	kreativ	kuss	vertrauen	anregung	gütig	töten	krank	krise	versagen	ausrottung	gierig	vergnügt	sonnig	engagiert	genießen	gesittet	besonnen	verbissen	sterben	engstirnig	gemein	geizig	bange	1	blank2r.bmp	0	1	+	0	1	blank2r.bmp	500	1	DHJF	500	1	blank2r.bmp	880	1	töten	880	1	!	1292	1	!	1386	0	0	0	0	0	0
2024-05-15	10:56:37	11:03:05	387717	6.6.1	4_exp_EVA_AWA_CON	34	A	B	Rpleas_acq	Oppo	Rpleas	1pleas	acq_US_pleas_nomask	acq3_nomask	3	35	453	1	300	300	0	0	423	50	1	0	träumen	kreativ	kuss	vertrauen	anregung	gütig	töten	krank	krise	versagen	ausrottung	gierig	vergnügt	sonnig	engagiert	genießen	gesittet	besonnen	verbissen	sterben	engstirnig	gemein	geizig	bange	1	blank2r.bmp	0	1	+	0	1	blank2r.bmp	500	1	CPLW	500	1	blank2r.bmp	880	3	kuss	880	1	!	1293	1	!	1324	0	0	0	0	0	0
2024-05-15	10:56:37	11:03:07	389909	6.6.1	4_exp_EVA_AWA_CON	34	A	B	Rpleas_acq	Oppo	Rpleas	1pleas	acq_US_unple_nomask	acq3_nomask	3	36	453	1	300	300	0	0	413	46	1	0	träumen	kreativ	kuss	vertrauen	anregung	gütig	töten	krank	krise	versagen	ausrottung	gierig	vergnügt	sonnig	engagiert	genießen	gesittet	besonnen	verbissen	sterben	engstirnig	gemein	geizig	bange	1	blank2r.bmp	0	1	+	0	1	blank2r.bmp	500	1	DHJF	500	1	blank2r.bmp	880	4	versagen	880	1	!	1293	1	!	1315	0	0	0	0	0	0
2024-05-15	10:56:37	11:03:25	407323	6.6.1	4_exp_EVA_AWA_CON	34	A	B	Rpleas_acq	Oppo	Rpleas	1pleas	acq_US_unple_nomask	acq45_nomask	4	1	400	0	300	300	0	0	528	46	1	0	träumen	kreativ	kuss	vertrauen	anregung	gütig	töten	krank	krise	versagen	ausrottung	gierig	vergnügt	sonnig	engagiert	genießen	gesittet	besonnen	verbissen	sterben	engstirnig	gemein	geizig	bange	1	blank2r.bmp	0	1	+	0	1	blank2r.bmp	500	1	DHJF	500	1	blank2r.bmp	880	5	ausrottung	880	1	!	1232	1	!	-1	0	0	0	0	0	0
2024-05-15	10:56:37	11:03:27	409435	6.6.1	4_exp_EVA_AWA_CON	34	A	B	Rpleas_acq	Oppo	Rpleas	1pleas	acq_US_unple_nomask	acq45_nomask	4	2	400	1	300	300	0	0	338	46	1	0	träumen	kreativ	kuss	vertrauen	anregung	gütig	töten	krank	krise	versagen	ausrottung	gierig	vergnügt	sonnig	engagiert	genießen	gesittet	besonnen	verbissen	sterben	engstirnig	gemein	geizig	bange	1	blank2r.bmp	0	1	+	0	1	blank2r.bmp	500	1	DHJF	500	1	blank2r.bmp	880	1	töten	880	1	!	1232	1	!	1238	0	0	0	0	0	0
2024-05-15	10:56:37	11:03:29	411637	6.6.1	4_exp_EVA_AWA_CON	34	A	B	Rpleas_acq	Oppo	Rpleas	1pleas	acq_US_unple_nomask	acq45_nomask	4	3	400	1	300	300	0	0	427	46	1	0	träumen	kreativ	kuss	vertrauen	anregung	gütig	töten	krank	krise	versagen	ausrottung	gierig	vergnügt	sonnig	engagiert	genießen	gesittet	besonnen	verbissen	sterben	engstirnig	gemein	geizig	bange	1	blank2r.bmp	0	1	+	0	1	blank2r.bmp	500	1	DHJF	500	1	blank2r.bmp	880	4	versagen	880	1	!	1232	1	!	1328	0	0	0	0	0	0
2024-05-15	10:56:37	11:03:31	413877	6.6.1	4_exp_EVA_AWA_CON	34	A	B	Rpleas_acq	Oppo	Rpleas	1pleas	acq_US_unple_nomask	acq45_nomask	4	4	400	1	300	300	0	0	466	46	1	0	träumen	kreativ	kuss	vertrauen	anregung	gütig	töten	krank	krise	versagen	ausrottung	gierig	vergnügt	sonnig	engagiert	genießen	gesittet	besonnen	verbissen	sterben	engstirnig	gemein	geizig	bange	1	blank2r.bmp	0	1	+	0	1	blank2r.bmp	500	1	DHJF	500	1	blank2r.bmp	880	2	krank	880	1	!	1232	1	!	1367	0	0	0	0	0	0
2024-05-15	10:56:37	11:03:33	416117	6.6.1	4_exp_EVA_AWA_CON	34	A	B	Rpleas_acq	Oppo	Rpleas	1pleas	acq_US_unple_nomask	acq45_nomask	4	5	400	1	300	300	0	0	464	46	1	0	träumen	kreativ	kuss	vertrauen	anregung	gütig	töten	krank	krise	versagen	ausrottung	gierig	vergnügt	sonnig	engagiert	genießen	gesittet	besonnen	verbissen	sterben	engstirnig	gemein	geizig	bange	1	blank2r.bmp	0	1	+	0	1	blank2r.bmp	500	1	DHJF	500	1	blank2r.bmp	880	3	krise	880	1	!	1232	1	!	1366	0	0	0	0	0	0
2024-05-15	10:56:37	11:03:36	418395	6.6.1	4_exp_EVA_AWA_CON	34	A	B	Rpleas_acq	Oppo	Rpleas	1pleas	acq_US_unple_nomask	acq45_nomask	4	6	400	0	300	300	0	0	503	46	1	0	träumen	kreativ	kuss	vertrauen	anregung	gütig	töten	krank	krise	versagen	ausrottung	gierig	vergnügt	sonnig	engagiert	genießen	gesittet	besonnen	verbissen	sterben	engstirnig	gemein	geizig	bange	1	blank2r.bmp	0	1	+	0	1	blank2r.bmp	500	1	DHJF	500	1	blank2r.bmp	880	6	gierig	880	1	!	1232	1	!	-1	0	0	0	0	0	0
2024-05-15	10:56:37	11:03:38	420843	6.6.1	4_exp_EVA_AWA_CON	34	A	B	Rpleas_acq	Oppo	Rpleas	1pleas	acq_US_pleas_nomask	acq45_nomask	4	7	400	0	300	300	0	0	669	50	1	0	träumen	kreativ	kuss	vertrauen	anregung	gütig	töten	krank	krise	versagen	ausrottung	gierig	vergnügt	sonnig	engagiert	genießen	gesittet	besonnen	verbissen	sterben	engstirnig	gemein	geizig	bange	1	blank2r.bmp	0	1	+	0	1	blank2r.bmp	500	1	CPLW	500	1	blank2r.bmp	880	5	anregung	880	1	!	1233	1	!	-1	0	0	0	0	0	0
2024-05-15	10:56:37	11:03:40	423131	6.6.1	4_exp_EVA_AWA_CON	34	A	B	Rpleas_acq	Oppo	Rpleas	1pleas	acq_US_pleas_nomask	acq45_nomask	4	8	400	0	300	300	0	0	516	50	1	0	träumen	kreativ	kuss	vertrauen	anregung	gütig	töten	krank	krise	versagen	ausrottung	gierig	vergnügt	sonnig	engagiert	genießen	gesittet	besonnen	verbissen	sterben	engstirnig	gemein	geizig	bange	1	blank2r.bmp	0	1	+	0	1	blank2r.bmp	500	1	CPLW	500	1	blank2r.bmp	880	6	gütig	880	1	!	1232	1	!	-1	0	0	0	0	0	0
2024-05-15	10:56:37	11:03:43	425365	6.6.1	4_exp_EVA_AWA_CON	34	A	B	Rpleas_acq	Oppo	Rpleas	1pleas	acq_US_pleas_nomask	acq45_nomask	4	9	400	1	300	300	0	0	456	50	1	0	träumen	kreativ	kuss	vertrauen	anregung	gütig	töten	krank	krise	versagen	ausrottung	gierig	vergnügt	sonnig	engagiert	genießen	gesittet	besonnen	verbissen	sterben	engstirnig	gemein	geizig	bange	1	blank2r.bmp	0	1	+	0	1	blank2r.bmp	500	1	CPLW	500	1	blank2r.bmp	880	2	kreativ	880	1	!	1232	1	!	1358	0	0	0	0	0	0
2024-05-15	10:56:37	11:03:45	427533	6.6.1	4_exp_EVA_AWA_CON	34	A	B	Rpleas_acq	Oppo	Rpleas	1pleas	acq_US_pleas_nomask	acq45_nomask	4	10	400	1	300	300	0	0	393	50	1	0	träumen	kreativ	kuss	vertrauen	anregung	gütig	töten	krank	krise	versagen	ausrottung	gierig	vergnügt	sonnig	engagiert	genießen	gesittet	besonnen	verbissen	sterben	engstirnig	gemein	geizig	bange	1	blank2r.bmp	0	1	+	0	1	blank2r.bmp	500	1	CPLW	500	1	blank2r.bmp	880	1	träumen	880	1	!	1232	1	!	1294	0	0	0	0	0	0
2024-05-15	10:56:37	11:03:47	429693	6.6.1	4_exp_EVA_AWA_CON	34	A	B	Rpleas_acq	Oppo	Rpleas	1pleas	acq_US_pleas_nomask	acq45_nomask	4	11	400	1	300	300	0	0	381	46	0	0	träumen	kreativ	kuss	vertrauen	anregung	gütig	töten	krank	krise	versagen	ausrottung	gierig	vergnügt	sonnig	engagiert	genießen	gesittet	besonnen	verbissen	sterben	engstirnig	gemein	geizig	bange	1	blank2r.bmp	0	1	+	0	1	blank2r.bmp	500	1	CPLW	500	1	blank2r.bmp	880	3	kuss	880	1	!	1232	1	!	1283	0	0	0	0	0	0
2024-05-15	10:56:37	11:03:49	431902	6.6.1	4_exp_EVA_AWA_CON	34	A	B	Rpleas_acq	Oppo	Rpleas	1pleas	acq_US_unple_nomask	acq45_nomask	4	12	400	1	300	300	0	0	428	50	0	0	träumen	kreativ	kuss	vertrauen	anregung	gütig	töten	krank	krise	versagen	ausrottung	gierig	vergnügt	sonnig	engagiert	genießen	gesittet	besonnen	verbissen	sterben	engstirnig	gemein	geizig	bange	1	blank2r.bmp	0	1	+	0	1	blank2r.bmp	500	1	DHJF	500	1	blank2r.bmp	880	6	gierig	880	1	!	1232	1	!	1329	0	0	0	0	0	0
2024-05-15	10:56:37	11:03:51	434019	6.6.1	4_exp_EVA_AWA_CON	34	A	B	Rpleas_acq	Oppo	Rpleas	1pleas	acq_US_unple_nomask	acq45_nomask	4	13	400	1	300	300	0	0	336	46	1	0	träumen	kreativ	kuss	vertrauen	anregung	gütig	töten	krank	krise	versagen	ausrottung	gierig	vergnügt	sonnig	engagiert	genießen	gesittet	besonnen	verbissen	sterben	engstirnig	gemein	geizig	bange	1	blank2r.bmp	0	1	+	0	1	blank2r.bmp	500	1	DHJF	500	1	blank2r.bmp	880	5	ausrottung	880	1	!	1232	1	!	1236	0	0	0	0	0	0
2024-05-15	10:56:37	11:03:53	436253	6.6.1	4_exp_EVA_AWA_CON	34	A	B	Rpleas_acq	Oppo	Rpleas	1pleas	acq_US_pleas_nomask	acq45_nomask	4	14	400	1	300	300	0	0	457	50	1	0	träumen	kreativ	kuss	vertrauen	anregung	gütig	töten	krank	krise	versagen	ausrottung	gierig	vergnügt	sonnig	engagiert	genießen	gesittet	besonnen	verbissen	sterben	engstirnig	gemein	geizig	bange	1	blank2r.bmp	0	1	+	0	1	blank2r.bmp	500	1	CPLW	500	1	blank2r.bmp	880	4	vertrauen	880	1	!	1232	1	!	1358	0	0	0	0	0	0
2024-05-15	10:56:37	11:03:56	438469	6.6.1	4_exp_EVA_AWA_CON	34	A	B	Rpleas_acq	Oppo	Rpleas	1pleas	acq_US_pleas_nomask	acq45_nomask	4	15	400	1	300	300	0	0	442	46	0	0	träumen	kreativ	kuss	vertrauen	anregung	gütig	töten	krank	krise	versagen	ausrottung	gierig	vergnügt	sonnig	engagiert	genießen	gesittet	besonnen	verbissen	sterben	engstirnig	gemein	geizig	bange	1	blank2r.bmp	0	1	+	0	1	blank2r.bmp	500	1	CPLW	500	1	blank2r.bmp	880	1	träumen	880	1	!	1232	1	!	1343	0	0	0	0	0	0
2024-05-15	10:56:37	11:03:58	440670	6.6.1	4_exp_EVA_AWA_CON	34	A	B	Rpleas_acq	Oppo	Rpleas	1pleas	acq_US_unple_nomask	acq45_nomask	4	16	400	1	300	300	0	0	420	46	1	0	träumen	kreativ	kuss	vertrauen	anregung	gütig	töten	krank	krise	versagen	ausrottung	gierig	vergnügt	sonnig	engagiert	genießen	gesittet	besonnen	verbissen	sterben	engstirnig	gemein	geizig	bange	1	blank2r.bmp	0	1	+	0	1	blank2r.bmp	500	1	DHJF	500	1	blank2r.bmp	880	4	versagen	880	1	!	1232	1	!	1322	0	0	0	0	0	0
2024-05-15	10:56:37	11:04:00	442902	6.6.1	4_exp_EVA_AWA_CON	34	A	B	Rpleas_acq	Oppo	Rpleas	1pleas	acq_US_pleas_nomask	acq45_nomask	4	17	400	1	300	300	0	0	451	50	1	0	träumen	kreativ	kuss	vertrauen	anregung	gütig	töten	krank	krise	versagen	ausrottung	gierig	vergnügt	sonnig	engagiert	genießen	gesittet	besonnen	verbissen	sterben	engstirnig	gemein	geizig	bange	1	blank2r.bmp	0	1	+	0	1	blank2r.bmp	500	1	CPLW	500	1	blank2r.bmp	880	4	vertrauen	880	1	!	1232	1	!	1353	0	0	0	0	0	0
2024-05-15	10:56:37	11:04:02	445171	6.6.1	4_exp_EVA_AWA_CON	34	A	B	Rpleas_acq	Oppo	Rpleas	1pleas	acq_US_pleas_nomask	acq45_nomask	4	18	400	0	300	300	0	0	491	50	1	0	träumen	kreativ	kuss	vertrauen	anregung	gütig	töten	krank	krise	versagen	ausrottung	gierig	vergnügt	sonnig	engagiert	genießen	gesittet	besonnen	verbissen	sterben	engstirnig	gemein	geizig	bange	1	blank2r.bmp	0	1	+	0	1	blank2r.bmp	500	1	CPLW	500	1	blank2r.bmp	880	5	anregung	880	1	!	1232	1	!	-1	0	0	0	0	0	0
2024-05-15	10:56:37	11:04:05	447325	6.6.1	4_exp_EVA_AWA_CON	34	A	B	Rpleas_acq	Oppo	Rpleas	1pleas	acq_US_unple_nomask	acq45_nomask	4	19	400	1	300	300	0	0	372	46	1	0	träumen	kreativ	kuss	vertrauen	anregung	gütig	töten	krank	krise	versagen	ausrottung	gierig	vergnügt	sonnig	engagiert	genießen	gesittet	besonnen	verbissen	sterben	engstirnig	gemein	geizig	bange	1	blank2r.bmp	0	1	+	0	1	blank2r.bmp	500	1	DHJF	500	1	blank2r.bmp	880	1	töten	880	1	!	1232	1	!	1273	0	0	0	0	0	0
2024-05-15	10:56:37	11:04:07	449454	6.6.1	4_exp_EVA_AWA_CON	34	A	B	Rpleas_acq	Oppo	Rpleas	1pleas	acq_US_unple_nomask	acq45_nomask	4	20	400	1	300	300	0	0	348	46	1	0	träumen	kreativ	kuss	vertrauen	anregung	gütig	töten	krank	krise	versagen	ausrottung	gierig	vergnügt	sonnig	engagiert	genießen	gesittet	besonnen	verbissen	sterben	engstirnig	gemein	geizig	bange	1	blank2r.bmp	0	1	+	0	1	blank2r.bmp	500	1	DHJF	500	1	blank2r.bmp	880	2	krank	880	1	!	1232	1	!	1250	0	0	0	0	0	0
2024-05-15	10:56:37	11:04:09	451629	6.6.1	4_exp_EVA_AWA_CON	34	A	B	Rpleas_acq	Oppo	Rpleas	1pleas	acq_US_pleas_nomask	acq45_nomask	4	21	400	1	300	300	0	0	393	50	1	0	träumen	kreativ	kuss	vertrauen	anregung	gütig	töten	krank	krise	versagen	ausrottung	gierig	vergnügt	sonnig	engagiert	genießen	gesittet	besonnen	verbissen	sterben	engstirnig	gemein	geizig	bange	1	blank2r.bmp	0	1	+	0	1	blank2r.bmp	500	1	CPLW	500	1	blank2r.bmp	880	3	kuss	880	1	!	1232	1	!	1294	0	0	0	0	0	0
2024-05-15	10:56:37	11:04:11	453838	6.6.1	4_exp_EVA_AWA_CON	34	A	B	Rpleas_acq	Oppo	Rpleas	1pleas	acq_US_pleas_nomask	acq45_nomask	4	22	400	1	300	300	0	0	430	50	1	0	träumen	kreativ	kuss	vertrauen	anregung	gütig	töten	krank	krise	versagen	ausrottung	gierig	vergnügt	sonnig	engagiert	genießen	gesittet	besonnen	verbissen	sterben	engstirnig	gemein	geizig	bange	1	blank2r.bmp	0	1	+	0	1	blank2r.bmp	500	1	CPLW	500	1	blank2r.bmp	880	6	gütig	880	1	!	1232	1	!	1332	0	0	0	0	0	0
2024-05-15	10:56:37	11:04:13	456013	6.6.1	4_exp_EVA_AWA_CON	34	A	B	Rpleas_acq	Oppo	Rpleas	1pleas	acq_US_unple_nomask	acq45_nomask	4	23	400	1	300	300	0	0	394	50	0	0	träumen	kreativ	kuss	vertrauen	anregung	gütig	töten	krank	krise	versagen	ausrottung	gierig	vergnügt	sonnig	engagiert	genießen	gesittet	besonnen	verbissen	sterben	engstirnig	gemein	geizig	bange	1	blank2r.bmp	0	1	+	0	1	blank2r.bmp	500	1	DHJF	500	1	blank2r.bmp	880	3	krise	880	1	!	1232	1	!	1295	0	0	0	0	0	0
2024-05-15	10:56:37	11:04:16	458331	6.6.1	4_exp_EVA_AWA_CON	34	A	B	Rpleas_acq	Oppo	Rpleas	1pleas	acq_US_pleas_nomask	acq45_nomask	4	24	400	0	300	300	0	0	543	50	1	0	träumen	kreativ	kuss	vertrauen	anregung	gütig	töten	krank	krise	versagen	ausrottung	gierig	vergnügt	sonnig	engagiert	genießen	gesittet	besonnen	verbissen	sterben	engstirnig	gemein	geizig	bange	1	blank2r.bmp	0	1	+	0	1	blank2r.bmp	500	1	CPLW	500	1	blank2r.bmp	880	2	kreativ	880	1	!	1233	1	!	-1	0	0	0	0	0	0
2024-05-15	10:56:37	11:04:18	460371	6.6.1	4_exp_EVA_AWA_CON	34	A	B	Rpleas_acq	Oppo	Rpleas	1pleas	acq_US_unple_nomask	acq45_nomask	4	25	400	0	300	300	0	0	261	46	1	0	träumen	kreativ	kuss	vertrauen	anregung	gütig	töten	krank	krise	versagen	ausrottung	gierig	vergnügt	sonnig	engagiert	genießen	gesittet	besonnen	verbissen	sterben	engstirnig	gemein	geizig	bange	1	blank2r.bmp	0	1	+	0	1	blank2r.bmp	500	1	DHJF	500	1	blank2r.bmp	880	4	versagen	880	1	!	-1	1	!	-1	0	0	0	0	0	0
2024-05-15	10:56:37	11:04:20	462699	6.6.1	4_exp_EVA_AWA_CON	34	A	B	Rpleas_acq	Oppo	Rpleas	1pleas	acq_US_pleas_nomask	acq45_nomask	4	26	400	0	300	300	0	0	548	50	1	0	träumen	kreativ	kuss	vertrauen	anregung	gütig	töten	krank	krise	versagen	ausrottung	gierig	vergnügt	sonnig	engagiert	genießen	gesittet	besonnen	verbissen	sterben	engstirnig	gemein	geizig	bange	1	blank2r.bmp	0	1	+	0	1	blank2r.bmp	500	1	CPLW	500	1	blank2r.bmp	880	6	gütig	880	1	!	1232	1	!	-1	0	0	0	0	0	0
2024-05-15	10:56:37	11:04:22	464909	6.6.1	4_exp_EVA_AWA_CON	34	A	B	Rpleas_acq	Oppo	Rpleas	1pleas	acq_US_unple_nomask	acq45_nomask	4	27	400	1	300	300	0	0	434	50	0	0	träumen	kreativ	kuss	vertrauen	anregung	gütig	töten	krank	krise	versagen	ausrottung	gierig	vergnügt	sonnig	engagiert	genießen	gesittet	besonnen	verbissen	sterben	engstirnig	gemein	geizig	bange	1	blank2r.bmp	0	1	+	0	1	blank2r.bmp	500	1	DHJF	500	1	blank2r.bmp	880	6	gierig	880	1	!	1232	1	!	1336	0	0	0	0	0	0
2024-05-15	10:56:37	11:04:24	467125	6.6.1	4_exp_EVA_AWA_CON	34	A	B	Rpleas_acq	Oppo	Rpleas	1pleas	acq_US_pleas_nomask	acq45_nomask	4	28	400	1	300	300	0	0	439	50	1	0	träumen	kreativ	kuss	vertrauen	anregung	gütig	töten	krank	krise	versagen	ausrottung	gierig	vergnügt	sonnig	engagiert	genießen	gesittet	besonnen	verbissen	sterben	engstirnig	gemein	geizig	bange	1	blank2r.bmp	0	1	+	0	1	blank2r.bmp	500	1	CPLW	500	1	blank2r.bmp	880	2	kreativ	880	1	!	1232	1	!	1340	0	0	0	0	0	0
2024-05-15	10:56:37	11:04:27	469378	6.6.1	4_exp_EVA_AWA_CON	34	A	B	Rpleas_acq	Oppo	Rpleas	1pleas	acq_US_unple_nomask	acq45_nomask	4	29	400	0	300	300	0	0	473	46	1	0	träumen	kreativ	kuss	vertrauen	anregung	gütig	töten	krank	krise	versagen	ausrottung	gierig	vergnügt	sonnig	engagiert	genießen	gesittet	besonnen	verbissen	sterben	engstirnig	gemein	geizig	bange	1	blank2r.bmp	0	1	+	0	1	blank2r.bmp	500	1	DHJF	500	1	blank2r.bmp	880	1	töten	880	1	!	1232	1	!	-1	0	0	0	0	0	0
2024-05-15	10:56:37	11:04:29	471550	6.6.1	4_exp_EVA_AWA_CON	34	A	B	Rpleas_acq	Oppo	Rpleas	1pleas	acq_US_unple_nomask	acq45_nomask	4	30	400	1	300	300	0	0	390	46	1	0	träumen	kreativ	kuss	vertrauen	anregung	gütig	töten	krank	krise	versagen	ausrottung	gierig	vergnügt	sonnig	engagiert	genießen	gesittet	besonnen	verbissen	sterben	engstirnig	gemein	geizig	bange	1	blank2r.bmp	0	1	+	0	1	blank2r.bmp	500	1	DHJF	500	1	blank2r.bmp	880	2	krank	880	1	!	1232	1	!	1292	0	0	0	0	0	0
2024-05-15	10:56:37	11:04:31	473717	6.6.1	4_exp_EVA_AWA_CON	34	A	B	Rpleas_acq	Oppo	Rpleas	1pleas	acq_US_pleas_nomask	acq45_nomask	4	31	400	1	300	300	0	0	387	46	0	0	träumen	kreativ	kuss	vertrauen	anregung	gütig	töten	krank	krise	versagen	ausrottung	gierig	vergnügt	sonnig	engagiert	genießen	gesittet	besonnen	verbissen	sterben	engstirnig	gemein	geizig	bange	1	blank2r.bmp	0	1	+	0	1	blank2r.bmp	500	1	CPLW	500	1	blank2r.bmp	880	4	vertrauen	880	1	!	1232	1	!	1288	0	0	0	0	0	0
2024-05-15	10:56:37	11:04:33	475803	6.6.1	4_exp_EVA_AWA_CON	34	A	B	Rpleas_acq	Oppo	Rpleas	1pleas	acq_US_unple_nomask	acq45_nomask	4	32	400	0	300	300	0	0	313	46	1	0	träumen	kreativ	kuss	vertrauen	anregung	gütig	töten	krank	krise	versagen	ausrottung	gierig	vergnügt	sonnig	engagiert	genießen	gesittet	besonnen	verbissen	sterben	engstirnig	gemein	geizig	bange	1	blank2r.bmp	0	1	+	0	1	blank2r.bmp	500	1	DHJF	500	1	blank2r.bmp	880	3	krise	880	1	!	-1	1	!	-1	0	0	0	0	0	0
2024-05-15	10:56:37	11:04:35	478014	6.6.1	4_exp_EVA_AWA_CON	34	A	B	Rpleas_acq	Oppo	Rpleas	1pleas	acq_US_pleas_nomask	acq45_nomask	4	33	400	1	300	300	0	0	430	50	1	0	träumen	kreativ	kuss	vertrauen	anregung	gütig	töten	krank	krise	versagen	ausrottung	gierig	vergnügt	sonnig	engagiert	genießen	gesittet	besonnen	verbissen	sterben	engstirnig	gemein	geizig	bange	1	blank2r.bmp	0	1	+	0	1	blank2r.bmp	500	1	CPLW	500	1	blank2r.bmp	880	1	träumen	880	1	!	1232	1	!	1332	0	0	0	0	0	0
2024-05-15	10:56:37	11:04:38	480266	6.6.1	4_exp_EVA_AWA_CON	34	A	B	Rpleas_acq	Oppo	Rpleas	1pleas	acq_US_pleas_nomask	acq45_nomask	4	34	400	0	300	300	0	0	474	50	1	0	träumen	kreativ	kuss	vertrauen	anregung	gütig	töten	krank	krise	versagen	ausrottung	gierig	vergnügt	sonnig	engagiert	genießen	gesittet	besonnen	verbissen	sterben	engstirnig	gemein	geizig	bange	1	blank2r.bmp	0	1	+	0	1	blank2r.bmp	500	1	CPLW	500	1	blank2r.bmp	880	3	kuss	880	1	!	1232	1	!	-1	0	0	0	0	0	0
2024-05-15	10:56:37	11:04:40	482509	6.6.1	4_exp_EVA_AWA_CON	34	A	B	Rpleas_acq	Oppo	Rpleas	1pleas	acq_US_unple_nomask	acq45_nomask	4	35	400	1	300	300	0	0	463	46	1	0	träumen	kreativ	kuss	vertrauen	anregung	gütig	töten	krank	krise	versagen	ausrottung	gierig	vergnügt	sonnig	engagiert	genießen	gesittet	besonnen	verbissen	sterben	engstirnig	gemein	geizig	bange	1	blank2r.bmp	0	1	+	0	1	blank2r.bmp	500	1	DHJF	500	1	blank2r.bmp	880	5	ausrottung	880	1	!	1232	1	!	1364	0	0	0	0	0	0
2024-05-15	10:56:37	11:04:42	484749	6.6.1	4_exp_EVA_AWA_CON	34	A	B	Rpleas_acq	Oppo	Rpleas	1pleas	acq_US_pleas_nomask	acq45_nomask	4	36	400	1	300	300	0	0	461	50	1	0	träumen	kreativ	kuss	vertrauen	anregung	gütig	töten	krank	krise	versagen	ausrottung	gierig	vergnügt	sonnig	engagiert	genießen	gesittet	besonnen	verbissen	sterben	engstirnig	gemein	geizig	bange	1	blank2r.bmp	0	1	+	0	1	blank2r.bmp	500	1	CPLW	500	1	blank2r.bmp	880	5	anregung	880	1	!	1232	1	!	1362	0	0	0	0	0	0
2024-05-15	10:56:37	11:04:58	500645	6.6.1	4_exp_EVA_AWA_CON	34	A	B	Rpleas_acq	Oppo	Rpleas	1pleas	acq_US_pleas_nomask	acq45_nomask	5	1	400	1	300	300	0	0	457	50	1	0	träumen	kreativ	kuss	vertrauen	anregung	gütig	töten	krank	krise	versagen	ausrottung	gierig	vergnügt	sonnig	engagiert	genießen	gesittet	besonnen	verbissen	sterben	engstirnig	gemein	geizig	bange	1	blank2r.bmp	0	1	+	0	1	blank2r.bmp	500	1	CPLW	500	1	blank2r.bmp	880	1	träumen	880	1	!	1232	1	!	1358	0	0	0	0	0	0
2024-05-15	10:56:37	11:05:00	502797	6.6.1	4_exp_EVA_AWA_CON	34	A	B	Rpleas_acq	Oppo	Rpleas	1pleas	acq_US_unple_nomask	acq45_nomask	5	2	400	1	300	300	0	0	378	46	1	0	träumen	kreativ	kuss	vertrauen	anregung	gütig	töten	krank	krise	versagen	ausrottung	gierig	vergnügt	sonnig	engagiert	genießen	gesittet	besonnen	verbissen	sterben	engstirnig	gemein	geizig	bange	1	blank2r.bmp	0	1	+	0	1	blank2r.bmp	500	1	DHJF	500	1	blank2r.bmp	880	4	versagen	880	1	!	1233	1	!	1279	0	0	0	0	0	0
2024-05-15	10:56:37	11:05:02	504997	6.6.1	4_exp_EVA_AWA_CON	34	A	B	Rpleas_acq	Oppo	Rpleas	1pleas	acq_US_pleas_nomask	acq45_nomask	5	3	400	1	300	300	0	0	416	50	1	0	träumen	kreativ	kuss	vertrauen	anregung	gütig	töten	krank	krise	versagen	ausrottung	gierig	vergnügt	sonnig	engagiert	genießen	gesittet	besonnen	verbissen	sterben	engstirnig	gemein	geizig	bange	1	blank2r.bmp	0	1	+	0	1	blank2r.bmp	500	1	CPLW	500	1	blank2r.bmp	880	4	vertrauen	880	1	!	1232	1	!	1317	0	0	0	0	0	0
2024-05-15	10:56:37	11:05:04	507149	6.6.1	4_exp_EVA_AWA_CON	34	A	B	Rpleas_acq	Oppo	Rpleas	1pleas	acq_US_pleas_nomask	acq45_nomask	5	4	400	1	300	300	0	0	377	46	0	0	träumen	kreativ	kuss	vertrauen	anregung	gütig	töten	krank	krise	versagen	ausrottung	gierig	vergnügt	sonnig	engagiert	genießen	gesittet	besonnen	verbissen	sterben	engstirnig	gemein	geizig	bange	1	blank2r.bmp	0	1	+	0	1	blank2r.bmp	500	1	CPLW	500	1	blank2r.bmp	880	5	anregung	880	1	!	1232	1	!	1278	0	0	0	0	0	0
2024-05-15	10:56:37	11:05:07	509277	6.6.1	4_exp_EVA_AWA_CON	34	A	B	Rpleas_acq	Oppo	Rpleas	1pleas	acq_US_unple_nomask	acq45_nomask	5	5	400	1	300	300	0	0	353	46	1	0	träumen	kreativ	kuss	vertrauen	anregung	gütig	töten	krank	krise	versagen	ausrottung	gierig	vergnügt	sonnig	engagiert	genießen	gesittet	besonnen	verbissen	sterben	engstirnig	gemein	geizig	bange	1	blank2r.bmp	0	1	+	0	1	blank2r.bmp	500	1	DHJF	500	1	blank2r.bmp	880	3	krise	880	1	!	1232	1	!	1255	0	0	0	0	0	0
2024-05-15	10:56:37	11:05:09	511501	6.6.1	4_exp_EVA_AWA_CON	34	A	B	Rpleas_acq	Oppo	Rpleas	1pleas	acq_US_unple_nomask	acq45_nomask	5	6	400	1	300	300	0	0	446	46	1	0	träumen	kreativ	kuss	vertrauen	anregung	gütig	töten	krank	krise	versagen	ausrottung	gierig	vergnügt	sonnig	engagiert	genießen	gesittet	besonnen	verbissen	sterben	engstirnig	gemein	geizig	bange	1	blank2r.bmp	0	1	+	0	1	blank2r.bmp	500	1	DHJF	500	1	blank2r.bmp	880	2	krank	880	1	!	1232	1	!	1347	0	0	0	0	0	0
2024-05-15	10:56:37	11:05:11	513638	6.6.1	4_exp_EVA_AWA_CON	34	A	B	Rpleas_acq	Oppo	Rpleas	1pleas	acq_US_pleas_nomask	acq45_nomask	5	7	400	1	300	300	0	0	360	50	1	0	träumen	kreativ	kuss	vertrauen	anregung	gütig	töten	krank	krise	versagen	ausrottung	gierig	vergnügt	sonnig	engagiert	genießen	gesittet	besonnen	verbissen	sterben	engstirnig	gemein	geizig	bange	1	blank2r.bmp	0	1	+	0	1	blank2r.bmp	500	1	CPLW	500	1	blank2r.bmp	880	6	gütig	880	1	!	1232	1	!	1262	0	0	0	0	0	0
2024-05-15	10:56:37	11:05:13	515789	6.6.1	4_exp_EVA_AWA_CON	34	A	B	Rpleas_acq	Oppo	Rpleas	1pleas	acq_US_pleas_nomask	acq45_nomask	5	8	400	1	300	300	0	0	371	50	1	0	träumen	kreativ	kuss	vertrauen	anregung	gütig	töten	krank	krise	versagen	ausrottung	gierig	vergnügt	sonnig	engagiert	genießen	gesittet	besonnen	verbissen	sterben	engstirnig	gemein	geizig	bange	1	blank2r.bmp	0	1	+	0	1	blank2r.bmp	500	1	CPLW	500	1	blank2r.bmp	880	3	kuss	880	1	!	1232	1	!	1272	0	0	0	0	0	0
2024-05-15	10:56:37	11:05:15	518243	6.6.1	4_exp_EVA_AWA_CON	34	A	B	Rpleas_acq	Oppo	Rpleas	1pleas	acq_US_pleas_nomask	acq45_nomask	5	9	400	0	300	300	0	0	676	50	1	0	träumen	kreativ	kuss	vertrauen	anregung	gütig	töten	krank	krise	versagen	ausrottung	gierig	vergnügt	sonnig	engagiert	genießen	gesittet	besonnen	verbissen	sterben	engstirnig	gemein	geizig	bange	1	blank2r.bmp	0	1	+	0	1	blank2r.bmp	500	1	CPLW	500	1	blank2r.bmp	880	2	kreativ	880	1	!	1232	1	!	-1	0	0	0	0	0	0
2024-05-15	10:56:37	11:05:18	520390	6.6.1	4_exp_EVA_AWA_CON	34	A	B	Rpleas_acq	Oppo	Rpleas	1pleas	acq_US_pleas_nomask	acq45_nomask	5	10	400	1	300	300	0	0	368	50	1	0	träumen	kreativ	kuss	vertrauen	anregung	gütig	töten	krank	krise	versagen	ausrottung	gierig	vergnügt	sonnig	engagiert	genießen	gesittet	besonnen	verbissen	sterben	engstirnig	gemein	geizig	bange	1	blank2r.bmp	0	1	+	0	1	blank2r.bmp	500	1	CPLW	500	1	blank2r.bmp	880	3	kuss	880	1	!	1232	1	!	1269	0	0	0	0	0	0
2024-05-15	10:56:37	11:05:20	522499	6.6.1	4_exp_EVA_AWA_CON	34	A	B	Rpleas_acq	Oppo	Rpleas	1pleas	acq_US_unple_nomask	acq45_nomask	5	11	400	0	300	300	0	0	329	46	1	0	träumen	kreativ	kuss	vertrauen	anregung	gütig	töten	krank	krise	versagen	ausrottung	gierig	vergnügt	sonnig	engagiert	genießen	gesittet	besonnen	verbissen	sterben	engstirnig	gemein	geizig	bange	1	blank2r.bmp	0	1	+	0	1	blank2r.bmp	500	1	DHJF	500	1	blank2r.bmp	880	1	töten	880	1	!	-1	1	!	-1	0	0	0	0	0	0
2024-05-15	10:56:37	11:05:22	524811	6.6.1	4_exp_EVA_AWA_CON	34	A	B	Rpleas_acq	Oppo	Rpleas	1pleas	acq_US_unple_nomask	acq45_nomask	5	12	400	0	300	300	0	0	539	46	1	0	träumen	kreativ	kuss	vertrauen	anregung	gütig	töten	krank	krise	versagen	ausrottung	gierig	vergnügt	sonnig	engagiert	genießen	gesittet	besonnen	verbissen	sterben	engstirnig	gemein	geizig	bange	1	blank2r.bmp	0	1	+	0	1	blank2r.bmp	500	1	DHJF	500	1	blank2r.bmp	880	5	ausrottung	880	1	!	1233	1	!	-1	0	0	0	0	0	0
2024-05-15	10:56:37	11:05:24	527013	6.6.1	4_exp_EVA_AWA_CON	34	A	B	Rpleas_acq	Oppo	Rpleas	1pleas	acq_US_unple_nomask	acq45_nomask	5	13	400	1	300	300	0	0	428	50	0	0	träumen	kreativ	kuss	vertrauen	anregung	gütig	töten	krank	krise	versagen	ausrottung	gierig	vergnügt	sonnig	engagiert	genießen	gesittet	besonnen	verbissen	sterben	engstirnig	gemein	geizig	bange	1	blank2r.bmp	0	1	+	0	1	blank2r.bmp	500	1	DHJF	500	1	blank2r.bmp	880	6	gierig	880	1	!	1232	1	!	1329	0	0	0	0	0	0
2024-05-15	10:56:37	11:05:26	529131	6.6.1	4_exp_EVA_AWA_CON	34	A	B	Rpleas_acq	Oppo	Rpleas	1pleas	acq_US_unple_nomask	acq45_nomask	5	14	400	1	300	300	0	0	336	46	1	0	träumen	kreativ	kuss	vertrauen	anregung	gütig	töten	krank	krise	versagen	ausrottung	gierig	vergnügt	sonnig	engagiert	genießen	gesittet	besonnen	verbissen	sterben	engstirnig	gemein	geizig	bange	1	blank2r.bmp	0	1	+	0	1	blank2r.bmp	500	1	DHJF	500	1	blank2r.bmp	880	4	versagen	880	1	!	1232	1	!	1236	0	0	0	0	0	0
2024-05-15	10:56:37	11:05:29	531261	6.6.1	4_exp_EVA_AWA_CON	34	A	B	Rpleas_acq	Oppo	Rpleas	1pleas	acq_US_unple_nomask	acq45_nomask	5	15	400	1	300	300	0	0	353	46	1	0	träumen	kreativ	kuss	vertrauen	anregung	gütig	töten	krank	krise	versagen	ausrottung	gierig	vergnügt	sonnig	engagiert	genießen	gesittet	besonnen	verbissen	sterben	engstirnig	gemein	geizig	bange	1	blank2r.bmp	0	1	+	0	1	blank2r.bmp	500	1	DHJF	500	1	blank2r.bmp	880	1	töten	880	1	!	1232	1	!	1254	0	0	0	0	0	0
2024-05-15	10:56:37	11:05:31	533477	6.6.1	4_exp_EVA_AWA_CON	34	A	B	Rpleas_acq	Oppo	Rpleas	1pleas	acq_US_pleas_nomask	acq45_nomask	5	16	400	1	300	300	0	0	438	50	1	0	träumen	kreativ	kuss	vertrauen	anregung	gütig	töten	krank	krise	versagen	ausrottung	gierig	vergnügt	sonnig	engagiert	genießen	gesittet	besonnen	verbissen	sterben	engstirnig	gemein	geizig	bange	1	blank2r.bmp	0	1	+	0	1	blank2r.bmp	500	1	CPLW	500	1	blank2r.bmp	880	2	kreativ	880	1	!	1232	1	!	1339	0	0	0	0	0	0
2024-05-15	10:56:37	11:05:33	535731	6.6.1	4_exp_EVA_AWA_CON	34	A	B	Rpleas_acq	Oppo	Rpleas	1pleas	acq_US_pleas_nomask	acq45_nomask	5	17	400	0	300	300	0	0	473	50	1	0	träumen	kreativ	kuss	vertrauen	anregung	gütig	töten	krank	krise	versagen	ausrottung	gierig	vergnügt	sonnig	engagiert	genießen	gesittet	besonnen	verbissen	sterben	engstirnig	gemein	geizig	bange	1	blank2r.bmp	0	1	+	0	1	blank2r.bmp	500	1	CPLW	500	1	blank2r.bmp	880	5	anregung	880	1	!	1232	1	!	-1	0	0	0	0	0	0
2024-05-15	10:56:37	11:05:35	537885	6.6.1	4_exp_EVA_AWA_CON	34	A	B	Rpleas_acq	Oppo	Rpleas	1pleas	acq_US_unple_nomask	acq45_nomask	5	18	400	1	300	300	0	0	373	50	0	0	träumen	kreativ	kuss	vertrauen	anregung	gütig	töten	krank	krise	versagen	ausrottung	gierig	vergnügt	sonnig	engagiert	genießen	gesittet	besonnen	verbissen	sterben	engstirnig	gemein	geizig	bange	1	blank2r.bmp	0	1	+	0	1	blank2r.bmp	500	1	DHJF	500	1	blank2r.bmp	880	3	krise	880	1	!	1233	1	!	1274	0	0	0	0	0	0
2024-05-15	10:56:37	11:05:37	540003	6.6.1	4_exp_EVA_AWA_CON	34	A	B	Rpleas_acq	Oppo	Rpleas	1pleas	acq_US_unple_nomask	acq45_nomask	5	19	400	1	300	300	0	0	341	50	0	0	träumen	kreativ	kuss	vertrauen	anregung	gütig	töten	krank	krise	versagen	ausrottung	gierig	vergnügt	sonnig	engagiert	genießen	gesittet	besonnen	verbissen	sterben	engstirnig	gemein	geizig	bange	1	blank2r.bmp	0	1	+	0	1	blank2r.bmp	500	1	DHJF	500	1	blank2r.bmp	880	5	ausrottung	880	1	!	1232	1	!	1241	0	0	0	0	0	0
2024-05-15	10:56:37	11:05:40	542284	6.6.1	4_exp_EVA_AWA_CON	34	A	B	Rpleas_acq	Oppo	Rpleas	1pleas	acq_US_unple_nomask	acq45_nomask	5	20	400	0	300	300	0	0	500	46	1	0	träumen	kreativ	kuss	vertrauen	anregung	gütig	töten	krank	krise	versagen	ausrottung	gierig	vergnügt	sonnig	engagiert	genießen	gesittet	besonnen	verbissen	sterben	engstirnig	gemein	geizig	bange	1	blank2r.bmp	0	1	+	0	1	blank2r.bmp	500	1	DHJF	500	1	blank2r.bmp	880	6	gierig	880	1	!	1232	1	!	-1	0	0	0	0	0	0
2024-05-15	10:56:37	11:05:42	544429	6.6.1	4_exp_EVA_AWA_CON	34	A	B	Rpleas_acq	Oppo	Rpleas	1pleas	acq_US_pleas_nomask	acq45_nomask	5	21	400	1	300	300	0	0	362	50	1	0	träumen	kreativ	kuss	vertrauen	anregung	gütig	töten	krank	krise	versagen	ausrottung	gierig	vergnügt	sonnig	engagiert	genießen	gesittet	besonnen	verbissen	sterben	engstirnig	gemein	geizig	bange	1	blank2r.bmp	0	1	+	0	1	blank2r.bmp	500	1	CPLW	500	1	blank2r.bmp	880	6	gütig	880	1	!	1232	1	!	1264	0	0	0	0	0	0
2024-05-15	10:56:37	11:05:44	546629	6.6.1	4_exp_EVA_AWA_CON	34	A	B	Rpleas_acq	Oppo	Rpleas	1pleas	acq_US_unple_nomask	acq45_nomask	5	22	400	1	300	300	0	0	421	46	1	0	träumen	kreativ	kuss	vertrauen	anregung	gütig	töten	krank	krise	versagen	ausrottung	gierig	vergnügt	sonnig	engagiert	genießen	gesittet	besonnen	verbissen	sterben	engstirnig	gemein	geizig	bange	1	blank2r.bmp	0	1	+	0	1	blank2r.bmp	500	1	DHJF	500	1	blank2r.bmp	880	2	krank	880	1	!	1232	1	!	1322	0	0	0	0	0	0
2024-05-15	10:56:37	11:05:46	548837	6.6.1	4_exp_EVA_AWA_CON	34	A	B	Rpleas_acq	Oppo	Rpleas	1pleas	acq_US_unple_nomask	acq45_nomask	5	23	400	1	300	300	0	0	428	46	1	0	träumen	kreativ	kuss	vertrauen	anregung	gütig	töten	krank	krise	versagen	ausrottung	gierig	vergnügt	sonnig	engagiert	genießen	gesittet	besonnen	verbissen	sterben	engstirnig	gemein	geizig	bange	1	blank2r.bmp	0	1	+	0	1	blank2r.bmp	500	1	DHJF	500	1	blank2r.bmp	880	2	krank	880	1	!	1232	1	!	1329	0	0	0	0	0	0
2024-05-15	10:56:37	11:05:48	551013	6.6.1	4_exp_EVA_AWA_CON	34	A	B	Rpleas_acq	Oppo	Rpleas	1pleas	acq_US_pleas_nomask	acq45_nomask	5	24	400	1	300	300	0	0	392	50	1	0	träumen	kreativ	kuss	vertrauen	anregung	gütig	töten	krank	krise	versagen	ausrottung	gierig	vergnügt	sonnig	engagiert	genießen	gesittet	besonnen	verbissen	sterben	engstirnig	gemein	geizig	bange	1	blank2r.bmp	0	1	+	0	1	blank2r.bmp	500	1	CPLW	500	1	blank2r.bmp	880	1	träumen	880	1	!	1232	1	!	1293	0	0	0	0	0	0
2024-05-15	10:56:37	11:05:50	553245	6.6.1	4_exp_EVA_AWA_CON	34	A	B	Rpleas_acq	Oppo	Rpleas	1pleas	acq_US_pleas_nomask	acq45_nomask	5	25	400	1	300	300	0	0	453	50	1	0	träumen	kreativ	kuss	vertrauen	anregung	gütig	töten	krank	krise	versagen	ausrottung	gierig	vergnügt	sonnig	engagiert	genießen	gesittet	besonnen	verbissen	sterben	engstirnig	gemein	geizig	bange	1	blank2r.bmp	0	1	+	0	1	blank2r.bmp	500	1	CPLW	500	1	blank2r.bmp	880	4	vertrauen	880	1	!	1233	1	!	1354	0	0	0	0	0	0
2024-05-15	10:56:37	11:05:53	555445	6.6.1	4_exp_EVA_AWA_CON	34	A	B	Rpleas_acq	Oppo	Rpleas	1pleas	acq_US_unple_nomask	acq45_nomask	5	26	400	1	300	300	0	0	421	46	1	0	träumen	kreativ	kuss	vertrauen	anregung	gütig	töten	krank	krise	versagen	ausrottung	gierig	vergnügt	sonnig	engagiert	genießen	gesittet	besonnen	verbissen	sterben	engstirnig	gemein	geizig	bange	1	blank2r.bmp	0	1	+	0	1	blank2r.bmp	500	1	DHJF	500	1	blank2r.bmp	880	1	töten	880	1	!	1232	1	!	1323	0	0	0	0	0	0
2024-05-15	10:56:37	11:05:55	557747	6.6.1	4_exp_EVA_AWA_CON	34	A	B	Rpleas_acq	Oppo	Rpleas	1pleas	acq_US_unple_nomask	acq45_nomask	5	27	400	0	300	300	0	0	524	46	1	0	träumen	kreativ	kuss	vertrauen	anregung	gütig	töten	krank	krise	versagen	ausrottung	gierig	vergnügt	sonnig	engagiert	genießen	gesittet	besonnen	verbissen	sterben	engstirnig	gemein	geizig	bange	1	blank2r.bmp	0	1	+	0	1	blank2r.bmp	500	1	DHJF	500	1	blank2r.bmp	880	4	versagen	880	1	!	1233	1	!	-1	0	0	0	0	0	0
2024-05-15	10:56:37	11:05:57	559949	6.6.1	4_exp_EVA_AWA_CON	34	A	B	Rpleas_acq	Oppo	Rpleas	1pleas	acq_US_pleas_nomask	acq45_nomask	5	28	400	1	300	300	0	0	422	50	1	0	träumen	kreativ	kuss	vertrauen	anregung	gütig	töten	krank	krise	versagen	ausrottung	gierig	vergnügt	sonnig	engagiert	genießen	gesittet	besonnen	verbissen	sterben	engstirnig	gemein	geizig	bange	1	blank2r.bmp	0	1	+	0	1	blank2r.bmp	500	1	CPLW	500	1	blank2r.bmp	880	3	kuss	880	1	!	1232	1	!	1324	0	0	0	0	0	0
2024-05-15	10:56:37	11:05:59	562133	6.6.1	4_exp_EVA_AWA_CON	34	A	B	Rpleas_acq	Oppo	Rpleas	1pleas	acq_US_unple_nomask	acq45_nomask	5	29	400	1	300	300	0	0	405	46	1	0	träumen	kreativ	kuss	vertrauen	anregung	gütig	töten	krank	krise	versagen	ausrottung	gierig	vergnügt	sonnig	engagiert	genießen	gesittet	besonnen	verbissen	sterben	engstirnig	gemein	geizig	bange	1	blank2r.bmp	0	1	+	0	1	blank2r.bmp	500	1	DHJF	500	1	blank2r.bmp	880	5	ausrottung	880	1	!	1232	1	!	1306	0	0	0	0	0	0
2024-05-15	10:56:37	11:06:02	564293	6.6.1	4_exp_EVA_AWA_CON	34	A	B	Rpleas_acq	Oppo	Rpleas	1pleas	acq_US_unple_nomask	acq45_nomask	5	30	400	1	300	300	0	0	383	46	1	0	träumen	kreativ	kuss	vertrauen	anregung	gütig	töten	krank	krise	versagen	ausrottung	gierig	vergnügt	sonnig	engagiert	genießen	gesittet	besonnen	verbissen	sterben	engstirnig	gemein	geizig	bange	1	blank2r.bmp	0	1	+	0	1	blank2r.bmp	500	1	DHJF	500	1	blank2r.bmp	880	3	krise	880	1	!	1232	1	!	1285	0	0	0	0	0	0
2024-05-15	10:56:37	11:06:04	566545	6.6.1	4_exp_EVA_AWA_CON	34	A	B	Rpleas_acq	Oppo	Rpleas	1pleas	acq_US_pleas_nomask	acq45_nomask	5	31	400	0	300	300	0	0	478	50	1	0	träumen	kreativ	kuss	vertrauen	anregung	gütig	töten	krank	krise	versagen	ausrottung	gierig	vergnügt	sonnig	engagiert	genießen	gesittet	besonnen	verbissen	sterben	engstirnig	gemein	geizig	bange	1	blank2r.bmp	0	1	+	0	1	blank2r.bmp	500	1	CPLW	500	1	blank2r.bmp	880	2	kreativ	880	1	!	1232	1	!	-1	0	0	0	0	0	0
2024-05-15	10:56:37	11:06:06	568693	6.6.1	4_exp_EVA_AWA_CON	34	A	B	Rpleas_acq	Oppo	Rpleas	1pleas	acq_US_pleas_nomask	acq45_nomask	5	32	400	1	300	300	0	0	370	46	0	0	träumen	kreativ	kuss	vertrauen	anregung	gütig	töten	krank	krise	versagen	ausrottung	gierig	vergnügt	sonnig	engagiert	genießen	gesittet	besonnen	verbissen	sterben	engstirnig	gemein	geizig	bange	1	blank2r.bmp	0	1	+	0	1	blank2r.bmp	500	1	CPLW	500	1	blank2r.bmp	880	5	anregung	880	1	!	1232	1	!	1272	0	0	0	0	0	0
2024-05-15	10:56:37	11:06:08	570893	6.6.1	4_exp_EVA_AWA_CON	34	A	B	Rpleas_acq	Oppo	Rpleas	1pleas	acq_US_pleas_nomask	acq45_nomask	5	33	400	1	300	300	0	0	419	50	1	0	träumen	kreativ	kuss	vertrauen	anregung	gütig	töten	krank	krise	versagen	ausrottung	gierig	vergnügt	sonnig	engagiert	genießen	gesittet	besonnen	verbissen	sterben	engstirnig	gemein	geizig	bange	1	blank2r.bmp	0	1	+	0	1	blank2r.bmp	500	1	CPLW	500	1	blank2r.bmp	880	1	träumen	880	1	!	1232	1	!	1320	0	0	0	0	0	0
2024-05-15	10:56:37	11:06:10	573153	6.6.1	4_exp_EVA_AWA_CON	34	A	B	Rpleas_acq	Oppo	Rpleas	1pleas	acq_US_pleas_nomask	acq45_nomask	5	34	400	0	300	300	0	0	482	50	1	0	träumen	kreativ	kuss	vertrauen	anregung	gütig	töten	krank	krise	versagen	ausrottung	gierig	vergnügt	sonnig	engagiert	genießen	gesittet	besonnen	verbissen	sterben	engstirnig	gemein	geizig	bange	1	blank2r.bmp	0	1	+	0	1	blank2r.bmp	500	1	CPLW	500	1	blank2r.bmp	880	6	gütig	880	1	!	1232	1	!	-1	0	0	0	0	0	0
2024-05-15	10:56:37	11:06:13	575318	6.6.1	4_exp_EVA_AWA_CON	34	A	B	Rpleas_acq	Oppo	Rpleas	1pleas	acq_US_unple_nomask	acq45_nomask	5	35	400	1	300	300	0	0	380	46	1	0	träumen	kreativ	kuss	vertrauen	anregung	gütig	töten	krank	krise	versagen	ausrottung	gierig	vergnügt	sonnig	engagiert	genießen	gesittet	besonnen	verbissen	sterben	engstirnig	gemein	geizig	bange	1	blank2r.bmp	0	1	+	0	1	blank2r.bmp	500	1	DHJF	500	1	blank2r.bmp	880	6	gierig	880	1	!	1232	1	!	1282	0	0	0	0	0	0
2024-05-15	10:56:37	11:06:15	577509	6.6.1	4_exp_EVA_AWA_CON	34	A	B	Rpleas_acq	Oppo	Rpleas	1pleas	acq_US_pleas_nomask	acq45_nomask	5	36	400	1	300	300	0	0	411	50	1	0	träumen	kreativ	kuss	vertrauen	anregung	gütig	töten	krank	krise	versagen	ausrottung	gierig	vergnügt	sonnig	engagiert	genießen	gesittet	besonnen	verbissen	sterben	engstirnig	gemein	geizig	bange	1	blank2r.bmp	0	1	+	0	1	blank2r.bmp	500	1	CPLW	500	1	blank2r.bmp	880	4	vertrauen	880	1	!	1232	1	!	1313	0	0	0	0	0	0
2024-05-15	10:56:37	11:06:40	602983	6.6.1	4_exp_EVA_AWA_CON	34	A	B	Rpleas_acq	Oppo	Lpleas	1pleas	EvalRating_firsttwo	EvalRating_firsttwo	6	1	0	0	300	300	0	0	6625	line	0	33,0729166666666856145pct	träumen	kreativ	kuss	vertrauen	anregung	gütig	töten	krank	krise	versagen	ausrottung	gierig	vergnügt	sonnig	engagiert	genießen	gesittet	besonnen	verbissen	sterben	engstirnig	gemein	geizig	bange	1		-8	1	Wie angenehm oder unangenehm finden Sie die  Buchstabenkette WDLH?	-8	1		-8	1		-8	1		-8	1	Unangenehm	-8	1	Angenehm	-8	0	0	0	0	0	0	0	0	0
2024-05-15	10:56:37	11:06:51	613527	6.6.1	4_exp_EVA_AWA_CON	34	A	B	Rpleas_acq	Oppo	Lpleas	1pleas	EvalRating_lastfour	EvalRating_lastfour	7	1	0	0	300	300	0	0	8164	line	0	-24,21875pct	träumen	kreativ	kuss	vertrauen	anregung	gütig	töten	krank	krise	versagen	ausrottung	gierig	vergnügt	sonnig	engagiert	genießen	gesittet	besonnen	verbissen	sterben	engstirnig	gemein	geizig	bange	1		-7	3	Wie angenehm oder unangenehm finden Sie die  Buchstabenkette FCJP?	-7	1		-7	1		-7	1		-7	1	Unangenehm	-7	1	Angenehm	-7	0	0	0	0	0	0	0	0	0
2024-05-15	10:56:37	11:06:53	615893	6.6.1	4_exp_EVA_AWA_CON	34	A	B	Rpleas_acq	Oppo	Lpleas	1pleas	blank_screen	EvalRating_lastfour	7	3	0	0	300	300	0	0	0	0	0	-24,21875pct	träumen	kreativ	kuss	vertrauen	anregung	gütig	töten	krank	krise	versagen	ausrottung	gierig	vergnügt	sonnig	engagiert	genießen	gesittet	besonnen	verbissen	sterben	engstirnig	gemein	geizig	bange	1		-8	0	0	0	0	0	0	0	0	0	0	0	0	0	0	0	0	0	0	0	0	0	0	0	0	0	0	0
2024-05-15	10:56:37	11:06:58	620824	6.6.1	4_exp_EVA_AWA_CON	34	A	B	Rpleas_acq	Oppo	Lpleas	1pleas	EvalRating_lastfour	EvalRating_lastfour	7	4	0	0	300	300	0	0	4342	line	0	-49,21875pct	träumen	kreativ	kuss	vertrauen	anregung	gütig	töten	krank	krise	versagen	ausrottung	gierig	vergnügt	sonnig	engagiert	genießen	gesittet	besonnen	verbissen	sterben	engstirnig	gemein	geizig	bange	1		-7	2	Wie angenehm oder unangenehm finden Sie die  Buchstabenkette DHJF?	-7	1		-7	1		-7	1		-7	1	Unangenehm	-7	1	Angenehm	-7	0	0	0	0	0	0	0	0	0
2024-05-15	10:56:37	11:07:00	623198	6.6.1	4_exp_EVA_AWA_CON	34	A	B	Rpleas_acq	Oppo	Lpleas	1pleas	blank_screen	EvalRating_lastfour	7	6	0	0	300	300	0	0	0	0	0	-49,21875pct	träumen	kreativ	kuss	vertrauen	anregung	gütig	töten	krank	krise	versagen	ausrottung	gierig	vergnügt	sonnig	engagiert	genießen	gesittet	besonnen	verbissen	sterben	engstirnig	gemein	geizig	bange	1		-8	0	0	0	0	0	0	0	0	0	0	0	0	0	0	0	0	0	0	0	0	0	0	0	0	0	0	0
2024-05-15	10:56:37	11:07:05	627575	6.6.1	4_exp_EVA_AWA_CON	34	A	B	Rpleas_acq	Oppo	Lpleas	1pleas	EvalRating_lastfour	EvalRating_lastfour	7	7	0	0	300	300	0	0	3790	line	0	54,4270833333333428072pct	träumen	kreativ	kuss	vertrauen	anregung	gütig	töten	krank	krise	versagen	ausrottung	gierig	vergnügt	sonnig	engagiert	genießen	gesittet	besonnen	verbissen	sterben	engstirnig	gemein	geizig	bange	1		-8	1	Wie angenehm oder unangenehm finden Sie die  Buchstabenkette CPLW?	-8	1		-8	1		-8	1		-8	1	Unangenehm	-8	1	Angenehm	-8	0	0	0	0	0	0	0	0	0
2024-05-15	10:56:37	11:07:53	675941	6.6.1	4_exp_EVA_AWA_CON	34	A	B	Rpleas_acq	Oppo	Lpleas	1pleas	conawa_CS1_US3	conawa1_nomask	8	1	0	0	300	300	0	0	12998	krise	1	54,4270833333333428072pct	träumen	kreativ	kuss	vertrauen	anregung	gütig	töten	krank	krise	versagen	ausrottung	gierig	vergnügt	sonnig	engagiert	genießen	gesittet	besonnen	verbissen	sterben	engstirnig	gemein	geizig	bange	0	0	0	0	0	0	0	0	0	0	0	0	0	0	0	0	0	0	0	0	0	0	0	0	0	0	0	0	0	0
2024-05-15	10:56:37	11:07:53	675942	6.6.1	4_exp_EVA_AWA_CON	34	A	B	Rpleas_acq	Oppo	Lpleas	1pleas	conawa_CS1_US3_confidence	conawa1_nomask	8	1	0	0	300	300	0	0	12998	guess	1	54,4270833333333428072pct	träumen	kreativ	kuss	vertrauen	anregung	gütig	töten	krank	krise	versagen	ausrottung	gierig	vergnügt	sonnig	engagiert	genießen	gesittet	besonnen	verbissen	sterben	engstirnig	gemein	geizig	bange	0	0	0	0	0	0	0	0	0	0	0	0	0	0	0	0	0	0	0	0	0	0	0	0	0	0	0	0	0	0
2024-05-15	10:56:37	11:08:05	688109	6.6.1	4_exp_EVA_AWA_CON	34	A	B	Rpleas_acq	Oppo	Lpleas	1pleas	conawa_CS1_US5	conawa1_nomask	8	2	0	0	300	300	0	0	11557	geizig	1	54,4270833333333428072pct	träumen	kreativ	kuss	vertrauen	anregung	gütig	töten	krank	krise	versagen	ausrottung	gierig	vergnügt	sonnig	engagiert	genießen	gesittet	besonnen	verbissen	sterben	engstirnig	gemein	geizig	bange	0	0	0	0	0	0	0	0	0	0	0	0	0	0	0	0	0	0	0	0	0	0	0	0	0	0	0	0	0	0
2024-05-15	10:56:37	11:08:05	688110	6.6.1	4_exp_EVA_AWA_CON	34	A	B	Rpleas_acq	Oppo	Lpleas	1pleas	conawa_CS1_US5_confidence	conawa1_nomask	8	2	0	0	300	300	0	0	11557	guess	1	54,4270833333333428072pct	träumen	kreativ	kuss	vertrauen	anregung	gütig	töten	krank	krise	versagen	ausrottung	gierig	vergnügt	sonnig	engagiert	genießen	gesittet	besonnen	verbissen	sterben	engstirnig	gemein	geizig	bange	0	0	0	0	0	0	0	0	0	0	0	0	0	0	0	0	0	0	0	0	0	0	0	0	0	0	0	0	0	0
2024-05-15	10:56:37	11:08:13	696114	6.6.1	4_exp_EVA_AWA_CON	34	A	B	Rpleas_acq	Oppo	Lpleas	1pleas	conawa_CS2_US5	conawa1_nomask	8	3	0	0	300	300	0	0	7386	ausrottung	1	54,4270833333333428072pct	träumen	kreativ	kuss	vertrauen	anregung	gütig	töten	krank	krise	versagen	ausrottung	gierig	vergnügt	sonnig	engagiert	genießen	gesittet	besonnen	verbissen	sterben	engstirnig	gemein	geizig	bange	0	0	0	0	0	0	0	0	0	0	0	0	0	0	0	0	0	0	0	0	0	0	0	0	0	0	0	0	0	0
2024-05-15	10:56:37	11:08:13	696115	6.6.1	4_exp_EVA_AWA_CON	34	A	B	Rpleas_acq	Oppo	Lpleas	1pleas	conawa_CS2_US5_confidence	conawa1_nomask	8	3	0	0	300	300	0	0	7386	probably	1	54,4270833333333428072pct	träumen	kreativ	kuss	vertrauen	anregung	gütig	töten	krank	krise	versagen	ausrottung	gierig	vergnügt	sonnig	engagiert	genießen	gesittet	besonnen	verbissen	sterben	engstirnig	gemein	geizig	bange	0	0	0	0	0	0	0	0	0	0	0	0	0	0	0	0	0	0	0	0	0	0	0	0	0	0	0	0	0	0
2024-05-15	10:56:37	11:08:23	705750	6.6.1	4_exp_EVA_AWA_CON	34	A	B	Rpleas_acq	Oppo	Lpleas	1pleas	conawa_CS1_US2	conawa1_nomask	8	4	0	0	300	300	0	0	9017	kreativ	1	54,4270833333333428072pct	träumen	kreativ	kuss	vertrauen	anregung	gütig	töten	krank	krise	versagen	ausrottung	gierig	vergnügt	sonnig	engagiert	genießen	gesittet	besonnen	verbissen	sterben	engstirnig	gemein	geizig	bange	0	0	0	0	0	0	0	0	0	0	0	0	0	0	0	0	0	0	0	0	0	0	0	0	0	0	0	0	0	0
2024-05-15	10:56:37	11:08:23	705751	6.6.1	4_exp_EVA_AWA_CON	34	A	B	Rpleas_acq	Oppo	Lpleas	1pleas	conawa_CS1_US2_confidence	conawa1_nomask	8	4	0	0	300	300	0	0	9017	guess	1	54,4270833333333428072pct	träumen	kreativ	kuss	vertrauen	anregung	gütig	töten	krank	krise	versagen	ausrottung	gierig	vergnügt	sonnig	engagiert	genießen	gesittet	besonnen	verbissen	sterben	engstirnig	gemein	geizig	bange	0	0	0	0	0	0	0	0	0	0	0	0	0	0	0	0	0	0	0	0	0	0	0	0	0	0	0	0	0	0
2024-05-15	10:56:37	11:08:30	713025	6.6.1	4_exp_EVA_AWA_CON	34	A	B	Rpleas_acq	Oppo	Lpleas	1pleas	conawa_CS2_US3	conawa1_nomask	8	5	0	0	300	300	0	0	6659	krise	1	54,4270833333333428072pct	träumen	kreativ	kuss	vertrauen	anregung	gütig	töten	krank	krise	versagen	ausrottung	gierig	vergnügt	sonnig	engagiert	genießen	gesittet	besonnen	verbissen	sterben	engstirnig	gemein	geizig	bange	0	0	0	0	0	0	0	0	0	0	0	0	0	0	0	0	0	0	0	0	0	0	0	0	0	0	0	0	0	0
2024-05-15	10:56:37	11:08:30	713026	6.6.1	4_exp_EVA_AWA_CON	34	A	B	Rpleas_acq	Oppo	Lpleas	1pleas	conawa_CS2_US3_confidence	conawa1_nomask	8	5	0	0	300	300	0	0	6659	probably	1	54,4270833333333428072pct	träumen	kreativ	kuss	vertrauen	anregung	gütig	töten	krank	krise	versagen	ausrottung	gierig	vergnügt	sonnig	engagiert	genießen	gesittet	besonnen	verbissen	sterben	engstirnig	gemein	geizig	bange	0	0	0	0	0	0	0	0	0	0	0	0	0	0	0	0	0	0	0	0	0	0	0	0	0	0	0	0	0	0
2024-05-15	10:56:37	11:08:39	721450	6.6.1	4_exp_EVA_AWA_CON	34	A	B	Rpleas_acq	Oppo	Lpleas	1pleas	conawa_CS1_US4	conawa1_nomask	8	6	0	0	300	300	0	0	7810	vertrauen	1	54,4270833333333428072pct	träumen	kreativ	kuss	vertrauen	anregung	gütig	töten	krank	krise	versagen	ausrottung	gierig	vergnügt	sonnig	engagiert	genießen	gesittet	besonnen	verbissen	sterben	engstirnig	gemein	geizig	bange	0	0	0	0	0	0	0	0	0	0	0	0	0	0	0	0	0	0	0	0	0	0	0	0	0	0	0	0	0	0
2024-05-15	10:56:37	11:08:39	721451	6.6.1	4_exp_EVA_AWA_CON	34	A	B	Rpleas_acq	Oppo	Lpleas	1pleas	conawa_CS1_US4_confidence	conawa1_nomask	8	6	0	0	300	300	0	0	7810	guess	1	54,4270833333333428072pct	träumen	kreativ	kuss	vertrauen	anregung	gütig	töten	krank	krise	versagen	ausrottung	gierig	vergnügt	sonnig	engagiert	genießen	gesittet	besonnen	verbissen	sterben	engstirnig	gemein	geizig	bange	0	0	0	0	0	0	0	0	0	0	0	0	0	0	0	0	0	0	0	0	0	0	0	0	0	0	0	0	0	0
2024-05-15	10:56:37	11:08:49	731757	6.6.1	4_exp_EVA_AWA_CON	34	A	B	Rpleas_acq	Oppo	Lpleas	1pleas	conawa_CS2_US1	conawa1_nomask	8	7	0	0	300	300	0	0	9687	töten	1	54,4270833333333428072pct	träumen	kreativ	kuss	vertrauen	anregung	gütig	töten	krank	krise	versagen	ausrottung	gierig	vergnügt	sonnig	engagiert	genießen	gesittet	besonnen	verbissen	sterben	engstirnig	gemein	geizig	bange	0	0	0	0	0	0	0	0	0	0	0	0	0	0	0	0	0	0	0	0	0	0	0	0	0	0	0	0	0	0
2024-05-15	10:56:37	11:08:49	731758	6.6.1	4_exp_EVA_AWA_CON	34	A	B	Rpleas_acq	Oppo	Lpleas	1pleas	conawa_CS2_US1_confidence	conawa1_nomask	8	7	0	0	300	300	0	0	9687	guess	1	54,4270833333333428072pct	träumen	kreativ	kuss	vertrauen	anregung	gütig	töten	krank	krise	versagen	ausrottung	gierig	vergnügt	sonnig	engagiert	genießen	gesittet	besonnen	verbissen	sterben	engstirnig	gemein	geizig	bange	0	0	0	0	0	0	0	0	0	0	0	0	0	0	0	0	0	0	0	0	0	0	0	0	0	0	0	0	0	0
2024-05-15	10:56:37	11:08:56	738471	6.6.1	4_exp_EVA_AWA_CON	34	A	B	Rpleas_acq	Oppo	Lpleas	1pleas	conawa_CS2_US6	conawa1_nomask	8	8	0	0	300	300	0	0	6101	verbissen	1	54,4270833333333428072pct	träumen	kreativ	kuss	vertrauen	anregung	gütig	töten	krank	krise	versagen	ausrottung	gierig	vergnügt	sonnig	engagiert	genießen	gesittet	besonnen	verbissen	sterben	engstirnig	gemein	geizig	bange	0	0	0	0	0	0	0	0	0	0	0	0	0	0	0	0	0	0	0	0	0	0	0	0	0	0	0	0	0	0
2024-05-15	10:56:37	11:08:56	738472	6.6.1	4_exp_EVA_AWA_CON	34	A	B	Rpleas_acq	Oppo	Lpleas	1pleas	conawa_CS2_US6_confidence	conawa1_nomask	8	8	0	0	300	300	0	0	6101	guess	1	54,4270833333333428072pct	träumen	kreativ	kuss	vertrauen	anregung	gütig	töten	krank	krise	versagen	ausrottung	gierig	vergnügt	sonnig	engagiert	genießen	gesittet	besonnen	verbissen	sterben	engstirnig	gemein	geizig	bange	0	0	0	0	0	0	0	0	0	0	0	0	0	0	0	0	0	0	0	0	0	0	0	0	0	0	0	0	0	0
2024-05-15	10:56:37	11:09:03	746066	6.6.1	4_exp_EVA_AWA_CON	34	A	B	Rpleas_acq	Oppo	Lpleas	1pleas	conawa_CS1_US1	conawa1_nomask	8	9	0	0	300	300	0	0	6979	träumen	1	54,4270833333333428072pct	träumen	kreativ	kuss	vertrauen	anregung	gütig	töten	krank	krise	versagen	ausrottung	gierig	vergnügt	sonnig	engagiert	genießen	gesittet	besonnen	verbissen	sterben	engstirnig	gemein	geizig	bange	0	0	0	0	0	0	0	0	0	0	0	0	0	0	0	0	0	0	0	0	0	0	0	0	0	0	0	0	0	0
2024-05-15	10:56:37	11:09:03	746067	6.6.1	4_exp_EVA_AWA_CON	34	A	B	Rpleas_acq	Oppo	Lpleas	1pleas	conawa_CS1_US1_confidence	conawa1_nomask	8	9	0	0	300	300	0	0	6979	guess	1	54,4270833333333428072pct	träumen	kreativ	kuss	vertrauen	anregung	gütig	töten	krank	krise	versagen	ausrottung	gierig	vergnügt	sonnig	engagiert	genießen	gesittet	besonnen	verbissen	sterben	engstirnig	gemein	geizig	bange	0	0	0	0	0	0	0	0	0	0	0	0	0	0	0	0	0	0	0	0	0	0	0	0	0	0	0	0	0	0
2024-05-15	10:56:37	11:09:11	753441	6.6.1	4_exp_EVA_AWA_CON	34	A	B	Rpleas_acq	Oppo	Lpleas	1pleas	conawa_CS2_US2	conawa1_nomask	8	10	0	0	300	300	0	0	6762	engstirnig	1	54,4270833333333428072pct	träumen	kreativ	kuss	vertrauen	anregung	gütig	töten	krank	krise	versagen	ausrottung	gierig	vergnügt	sonnig	engagiert	genießen	gesittet	besonnen	verbissen	sterben	engstirnig	gemein	geizig	bange	0	0	0	0	0	0	0	0	0	0	0	0	0	0	0	0	0	0	0	0	0	0	0	0	0	0	0	0	0	0
2024-05-15	10:56:37	11:09:11	753442	6.6.1	4_exp_EVA_AWA_CON	34	A	B	Rpleas_acq	Oppo	Lpleas	1pleas	conawa_CS2_US2_confidence	conawa1_nomask	8	10	0	0	300	300	0	0	6762	probably	1	54,4270833333333428072pct	träumen	kreativ	kuss	vertrauen	anregung	gütig	töten	krank	krise	versagen	ausrottung	gierig	vergnügt	sonnig	engagiert	genießen	gesittet	besonnen	verbissen	sterben	engstirnig	gemein	geizig	bange	0	0	0	0	0	0	0	0	0	0	0	0	0	0	0	0	0	0	0	0	0	0	0	0	0	0	0	0	0	0
2024-05-15	10:56:37	11:09:18	760636	6.6.1	4_exp_EVA_AWA_CON	34	A	B	Rpleas_acq	Oppo	Lpleas	1pleas	conawa_CS2_US4	conawa1_nomask	8	11	0	0	300	300	0	0	6577	geizig	1	54,4270833333333428072pct	träumen	kreativ	kuss	vertrauen	anregung	gütig	töten	krank	krise	versagen	ausrottung	gierig	vergnügt	sonnig	engagiert	genießen	gesittet	besonnen	verbissen	sterben	engstirnig	gemein	geizig	bange	0	0	0	0	0	0	0	0	0	0	0	0	0	0	0	0	0	0	0	0	0	0	0	0	0	0	0	0	0	0
2024-05-15	10:56:37	11:09:18	760637	6.6.1	4_exp_EVA_AWA_CON	34	A	B	Rpleas_acq	Oppo	Lpleas	1pleas	conawa_CS2_US4_confidence	conawa1_nomask	8	11	0	0	300	300	0	0	6577	guess	1	54,4270833333333428072pct	träumen	kreativ	kuss	vertrauen	anregung	gütig	töten	krank	krise	versagen	ausrottung	gierig	vergnügt	sonnig	engagiert	genießen	gesittet	besonnen	verbissen	sterben	engstirnig	gemein	geizig	bange	0	0	0	0	0	0	0	0	0	0	0	0	0	0	0	0	0	0	0	0	0	0	0	0	0	0	0	0	0	0
2024-05-15	10:56:37	11:09:27	770182	6.6.1	4_exp_EVA_AWA_CON	34	A	B	Rpleas_acq	Oppo	Lpleas	1pleas	conawa_CS1_US6	conawa1_nomask	8	12	0	0	300	300	0	0	8936	gütig	1	54,4270833333333428072pct	träumen	kreativ	kuss	vertrauen	anregung	gütig	töten	krank	krise	versagen	ausrottung	gierig	vergnügt	sonnig	engagiert	genießen	gesittet	besonnen	verbissen	sterben	engstirnig	gemein	geizig	bange	0	0	0	0	0	0	0	0	0	0	0	0	0	0	0	0	0	0	0	0	0	0	0	0	0	0	0	0	0	0
2024-05-15	10:56:37	11:09:27	770183	6.6.1	4_exp_EVA_AWA_CON	34	A	B	Rpleas_acq	Oppo	Lpleas	1pleas	conawa_CS1_US6_confidence	conawa1_nomask	8	12	0	0	300	300	0	0	8936	probably	1	54,4270833333333428072pct	träumen	kreativ	kuss	vertrauen	anregung	gütig	töten	krank	krise	versagen	ausrottung	gierig	vergnügt	sonnig	engagiert	genießen	gesittet	besonnen	verbissen	sterben	engstirnig	gemein	geizig	bange	0	0	0	0	0	0	0	0	0	0	0	0	0	0	0	0	0	0	0	0	0	0	0	0	0	0	0	0	0	0
2024-05-15	10:56:37	11:11:01	863939	6.6.1	4_exp_EVA_AWA_CON	34	A	B	Rpleas_acq	Oppo	Lpleas	1pleas	cond_new_pleas_456_nomask_CS1	condtest_nomask_1	11	1	400	0	300	300	0	0	516	46	1	54,4270833333333428072pct	träumen	kreativ	kuss	vertrauen	anregung	gütig	töten	krank	krise	versagen	ausrottung	gierig	vergnügt	sonnig	engagiert	genießen	gesittet	besonnen	verbissen	sterben	engstirnig	gemein	geizig	bange	1	blank2r.bmp	0	1	+	0	1	blank2r.bmp	500	1	CPLW	500	1	blank2r.bmp	880	2	gesittet	880	1	!	1232	1	!	-1	0	0	0	0	0	0
