date	time	currenttime	elapsedtime	build	currentexpt	subject	CS_AB	US_AB	LRpleas_acq	SameOppo	condition_Lpleas	condition_1pleas	trialcode	blockcode	blocknum	trialnum	windowcenter	inwindow	pretrialpause	posttrialpause	trialduration	trialtimeout	latency	response	correct	correctedscore	US_nomask_pleas1	US_nomask_pleas2	US_nomask_pleas3	US_nomask_pleas4	US_nomask_pleas5	US_nomask_pleas6	US_nomask_unple1	US_nomask_unple2	US_nomask_unple3	US_nomask_unple4	US_nomask_unple5	US_nomask_unple6	new_nomask_pleas1	new_nomask_pleas2	new_nomask_pleas3	new_nomask_pleas4	new_nomask_pleas5	new_nomask_pleas6	new_nomask_unple1	new_nomask_unple2	new_nomask_unple3	new_nomask_unple4	new_nomask_unple5	new_nomask_unple6	stimulusnumber1	stimulusitem1	stimulusonset1	stimulusnumber2	stimulusitem2	stimulusonset2	stimulusnumber3	stimulusitem3	stimulusonset3	stimulusnumber4	stimulusitem4	stimulusonset4	stimulusnumber5	stimulusitem5	stimulusonset5	stimulusnumber6	stimulusitem6	stimulusonset6	stimulusnumber7	stimulusitem7	stimulusonset7	stimulusnumber8	stimulusitem8	stimulusonset8	stimulusnumber9	stimulusitem9	stimulusonset9	stimulusnumber10	stimulusitem10	stimulusonset10
2024-05-15	15:52:07	15:53:15	67911	6.6.1	4_exp_EVA_AWA_CON	38	B	A	Rpleas_acq	Oppo	Rpleas	1pleas	acq_US_pleas_nomask	acq1_nomask	1	1	0	0	300	300	0	0	1290	50	1	0	retten	spielen	schlau	treu	schön	fair	rächen	strafen	schroff	tot	schlecht	faul	freundlich	helfen	ehrlich	lachen	loyal	tolerant	fanatisch	hindern	eitel	leiden	lasch	tyrannisch	1	blank2r.bmp	0	1	+	0	1	blank2r.bmp	500	1	BMVZ	500	1	blank2r.bmp	880	6	fair	880	0	0	0	0	0	0	0	0	0	0	0	0
2024-05-15	15:52:07	15:53:17	70246	6.6.1	4_exp_EVA_AWA_CON	38	B	A	Rpleas_acq	Oppo	Rpleas	1pleas	acq_new_unple_nomask	acq1_nomask	1	2	0	0	300	300	0	0	854	46	1	0	retten	spielen	schlau	treu	schön	fair	rächen	strafen	schroff	tot	schlecht	faul	freundlich	helfen	ehrlich	lachen	loyal	tolerant	fanatisch	hindern	eitel	leiden	lasch	tyrannisch	1	blank2r.bmp	0	1	+	0	1	blank2r.bmp	500	1	B1r.bmp	500	1	blank2r.bmp	880	1	fanatisch	880	0	0	0	0	0	0	0	0	0	0	0	0
2024-05-15	15:52:07	15:53:19	72438	6.6.1	4_exp_EVA_AWA_CON	38	B	A	Rpleas_acq	Oppo	Rpleas	1pleas	acq_US_unple_nomask	acq1_nomask	1	3	0	0	300	300	0	0	705	46	1	0	retten	spielen	schlau	treu	schön	fair	rächen	strafen	schroff	tot	schlecht	faul	freundlich	helfen	ehrlich	lachen	loyal	tolerant	fanatisch	hindern	eitel	leiden	lasch	tyrannisch	1	blank2r.bmp	0	1	+	0	1	blank2r.bmp	500	1	GKQX	500	1	blank2r.bmp	880	2	strafen	880	0	0	0	0	0	0	0	0	0	0	0	0
2024-05-15	15:52:07	15:53:22	74638	6.6.1	4_exp_EVA_AWA_CON	38	B	A	Rpleas_acq	Oppo	Rpleas	1pleas	acq_US_unple_nomask	acq1_nomask	1	4	0	0	300	300	0	0	713	46	1	0	retten	spielen	schlau	treu	schön	fair	rächen	strafen	schroff	tot	schlecht	faul	freundlich	helfen	ehrlich	lachen	loyal	tolerant	fanatisch	hindern	eitel	leiden	lasch	tyrannisch	1	blank2r.bmp	0	1	+	0	1	blank2r.bmp	500	1	GKQX	500	1	blank2r.bmp	880	3	schroff	880	0	0	0	0	0	0	0	0	0	0	0	0
2024-05-15	15:52:07	15:53:24	76807	6.6.1	4_exp_EVA_AWA_CON	38	B	A	Rpleas_acq	Oppo	Rpleas	1pleas	acq_new_pleas_nomask	acq1_nomask	1	5	0	0	300	300	0	0	680	50	1	0	retten	spielen	schlau	treu	schön	fair	rächen	strafen	schroff	tot	schlecht	faul	freundlich	helfen	ehrlich	lachen	loyal	tolerant	fanatisch	hindern	eitel	leiden	lasch	tyrannisch	1	blank2r.bmp	0	1	+	0	1	blank2r.bmp	500	6	C2r.bmp	500	1	blank2r.bmp	880	3	ehrlich	880	0	0	0	0	0	0	0	0	0	0	0	0
2024-05-15	15:52:07	15:53:26	79062	6.6.1	4_exp_EVA_AWA_CON	38	B	A	Rpleas_acq	Oppo	Rpleas	1pleas	acq_new_unple_nomask	acq1_nomask	1	6	0	0	300	300	0	0	775	46	1	0	retten	spielen	schlau	treu	schön	fair	rächen	strafen	schroff	tot	schlecht	faul	freundlich	helfen	ehrlich	lachen	loyal	tolerant	fanatisch	hindern	eitel	leiden	lasch	tyrannisch	1	blank2r.bmp	0	1	+	0	1	blank2r.bmp	500	3	B3r.bmp	500	1	blank2r.bmp	880	2	hindern	880	0	0	0	0	0	0	0	0	0	0	0	0
2024-05-15	15:52:07	15:53:28	81127	6.6.1	4_exp_EVA_AWA_CON	38	B	A	Rpleas_acq	Oppo	Rpleas	1pleas	acq_new_pleas_nomask	acq1_nomask	1	7	0	0	300	300	0	0	577	50	1	0	retten	spielen	schlau	treu	schön	fair	rächen	strafen	schroff	tot	schlecht	faul	freundlich	helfen	ehrlich	lachen	loyal	tolerant	fanatisch	hindern	eitel	leiden	lasch	tyrannisch	1	blank2r.bmp	0	1	+	0	1	blank2r.bmp	500	8	C4r.bmp	500	1	blank2r.bmp	880	2	helfen	880	0	0	0	0	0	0	0	0	0	0	0	0
2024-05-15	15:52:07	15:53:30	83271	6.6.1	4_exp_EVA_AWA_CON	38	B	A	Rpleas_acq	Oppo	Rpleas	1pleas	acq_US_pleas_nomask	acq1_nomask	1	8	0	0	300	300	0	0	660	50	1	0	retten	spielen	schlau	treu	schön	fair	rächen	strafen	schroff	tot	schlecht	faul	freundlich	helfen	ehrlich	lachen	loyal	tolerant	fanatisch	hindern	eitel	leiden	lasch	tyrannisch	1	blank2r.bmp	0	1	+	0	1	blank2r.bmp	500	1	BMVZ	500	1	blank2r.bmp	880	1	retten	880	0	0	0	0	0	0	0	0	0	0	0	0
2024-05-15	15:52:07	15:53:32	85278	6.6.1	4_exp_EVA_AWA_CON	38	B	A	Rpleas_acq	Oppo	Rpleas	1pleas	acq_US_pleas_nomask	acq1_nomask	1	9	0	0	300	300	0	0	526	50	1	0	retten	spielen	schlau	treu	schön	fair	rächen	strafen	schroff	tot	schlecht	faul	freundlich	helfen	ehrlich	lachen	loyal	tolerant	fanatisch	hindern	eitel	leiden	lasch	tyrannisch	1	blank2r.bmp	0	1	+	0	1	blank2r.bmp	500	1	BMVZ	500	1	blank2r.bmp	880	5	schön	880	0	0	0	0	0	0	0	0	0	0	0	0
2024-05-15	15:52:07	15:53:34	87366	6.6.1	4_exp_EVA_AWA_CON	38	B	A	Rpleas_acq	Oppo	Rpleas	1pleas	acq_new_pleas_nomask	acq1_nomask	1	10	0	0	300	300	0	0	603	50	1	0	retten	spielen	schlau	treu	schön	fair	rächen	strafen	schroff	tot	schlecht	faul	freundlich	helfen	ehrlich	lachen	loyal	tolerant	fanatisch	hindern	eitel	leiden	lasch	tyrannisch	1	blank2r.bmp	0	1	+	0	1	blank2r.bmp	500	4	B4r.bmp	500	1	blank2r.bmp	880	6	tolerant	880	0	0	0	0	0	0	0	0	0	0	0	0
2024-05-15	15:52:07	15:53:36	89430	6.6.1	4_exp_EVA_AWA_CON	38	B	A	Rpleas_acq	Oppo	Rpleas	1pleas	acq_new_unple_nomask	acq1_nomask	1	11	0	0	300	300	0	0	576	46	1	0	retten	spielen	schlau	treu	schön	fair	rächen	strafen	schroff	tot	schlecht	faul	freundlich	helfen	ehrlich	lachen	loyal	tolerant	fanatisch	hindern	eitel	leiden	lasch	tyrannisch	1	blank2r.bmp	0	1	+	0	1	blank2r.bmp	500	7	C3r.bmp	500	1	blank2r.bmp	880	4	leiden	880	0	0	0	0	0	0	0	0	0	0	0	0
2024-05-15	15:52:07	15:53:38	91447	6.6.1	4_exp_EVA_AWA_CON	38	B	A	Rpleas_acq	Oppo	Rpleas	1pleas	acq_US_unple_nomask	acq1_nomask	1	12	0	0	300	300	0	0	530	46	1	0	retten	spielen	schlau	treu	schön	fair	rächen	strafen	schroff	tot	schlecht	faul	freundlich	helfen	ehrlich	lachen	loyal	tolerant	fanatisch	hindern	eitel	leiden	lasch	tyrannisch	1	blank2r.bmp	0	1	+	0	1	blank2r.bmp	500	1	GKQX	500	1	blank2r.bmp	880	6	faul	880	0	0	0	0	0	0	0	0	0	0	0	0
2024-05-15	15:52:07	15:53:40	93454	6.6.1	4_exp_EVA_AWA_CON	38	B	A	Rpleas_acq	Oppo	Rpleas	1pleas	acq_US_pleas_nomask	acq1_nomask	1	13	0	0	300	300	0	0	527	50	1	0	retten	spielen	schlau	treu	schön	fair	rächen	strafen	schroff	tot	schlecht	faul	freundlich	helfen	ehrlich	lachen	loyal	tolerant	fanatisch	hindern	eitel	leiden	lasch	tyrannisch	1	blank2r.bmp	0	1	+	0	1	blank2r.bmp	500	1	BMVZ	500	1	blank2r.bmp	880	3	schlau	880	0	0	0	0	0	0	0	0	0	0	0	0
2024-05-15	15:52:07	15:53:42	95502	6.6.1	4_exp_EVA_AWA_CON	38	B	A	Rpleas_acq	Oppo	Rpleas	1pleas	acq_new_pleas_nomask	acq1_nomask	1	14	0	0	300	300	0	0	564	50	1	0	retten	spielen	schlau	treu	schön	fair	rächen	strafen	schroff	tot	schlecht	faul	freundlich	helfen	ehrlich	lachen	loyal	tolerant	fanatisch	hindern	eitel	leiden	lasch	tyrannisch	1	blank2r.bmp	0	1	+	0	1	blank2r.bmp	500	5	C1r.bmp	500	1	blank2r.bmp	880	4	lachen	880	0	0	0	0	0	0	0	0	0	0	0	0
2024-05-15	15:52:07	15:53:45	97694	6.6.1	4_exp_EVA_AWA_CON	38	B	A	Rpleas_acq	Oppo	Rpleas	1pleas	acq_US_unple_nomask	acq1_nomask	1	15	0	0	300	300	0	0	704	46	1	0	retten	spielen	schlau	treu	schön	fair	rächen	strafen	schroff	tot	schlecht	faul	freundlich	helfen	ehrlich	lachen	loyal	tolerant	fanatisch	hindern	eitel	leiden	lasch	tyrannisch	1	blank2r.bmp	0	1	+	0	1	blank2r.bmp	500	1	GKQX	500	1	blank2r.bmp	880	4	tot	880	0	0	0	0	0	0	0	0	0	0	0	0
2024-05-15	15:52:07	15:53:47	100088	6.6.1	4_exp_EVA_AWA_CON	38	B	A	Rpleas_acq	Oppo	Rpleas	1pleas	acq_new_unple_nomask	acq1_nomask	1	16	0	0	300	300	0	0	705	50	0	0	retten	spielen	schlau	treu	schön	fair	rächen	strafen	schroff	tot	schlecht	faul	freundlich	helfen	ehrlich	lachen	loyal	tolerant	fanatisch	hindern	eitel	leiden	lasch	tyrannisch	1	blank2r.bmp	0	1	+	0	1	blank2r.bmp	500	2	B2r.bmp	500	1	blank2r.bmp	880	3	eitel	880	1	FEHLER	1607	0	0	0	0	0	0	0	0	0
2024-05-15	15:52:07	15:53:49	102006	6.6.1	4_exp_EVA_AWA_CON	38	B	A	Rpleas_acq	Oppo	Rpleas	1pleas	acq_new_pleas_nomask	acq1_nomask	1	17	0	0	300	300	0	0	634	50	1	0	retten	spielen	schlau	treu	schön	fair	rächen	strafen	schroff	tot	schlecht	faul	freundlich	helfen	ehrlich	lachen	loyal	tolerant	fanatisch	hindern	eitel	leiden	lasch	tyrannisch	1	blank2r.bmp	0	1	+	0	1	blank2r.bmp	500	5	C1r.bmp	500	1	blank2r.bmp	880	5	loyal	880	0	0	0	0	0	0	0	0	0	0	0	0
2024-05-15	15:52:07	15:53:51	104158	6.6.1	4_exp_EVA_AWA_CON	38	B	A	Rpleas_acq	Oppo	Rpleas	1pleas	acq_US_unple_nomask	acq1_nomask	1	18	0	0	300	300	0	0	664	46	1	0	retten	spielen	schlau	treu	schön	fair	rächen	strafen	schroff	tot	schlecht	faul	freundlich	helfen	ehrlich	lachen	loyal	tolerant	fanatisch	hindern	eitel	leiden	lasch	tyrannisch	1	blank2r.bmp	0	1	+	0	1	blank2r.bmp	500	1	GKQX	500	1	blank2r.bmp	880	1	rächen	880	0	0	0	0	0	0	0	0	0	0	0	0
2024-05-15	15:52:07	15:53:53	106182	6.6.1	4_exp_EVA_AWA_CON	38	B	A	Rpleas_acq	Oppo	Rpleas	1pleas	acq_new_pleas_nomask	acq1_nomask	1	19	0	0	300	300	0	0	537	50	1	0	retten	spielen	schlau	treu	schön	fair	rächen	strafen	schroff	tot	schlecht	faul	freundlich	helfen	ehrlich	lachen	loyal	tolerant	fanatisch	hindern	eitel	leiden	lasch	tyrannisch	1	blank2r.bmp	0	1	+	0	1	blank2r.bmp	500	7	C3r.bmp	500	1	blank2r.bmp	880	1	freundlich	880	0	0	0	0	0	0	0	0	0	0	0	0
2024-05-15	15:52:07	15:53:55	108375	6.6.1	4_exp_EVA_AWA_CON	38	B	A	Rpleas_acq	Oppo	Rpleas	1pleas	acq_new_unple_nomask	acq1_nomask	1	20	0	0	300	300	0	0	708	46	1	0	retten	spielen	schlau	treu	schön	fair	rächen	strafen	schroff	tot	schlecht	faul	freundlich	helfen	ehrlich	lachen	loyal	tolerant	fanatisch	hindern	eitel	leiden	lasch	tyrannisch	1	blank2r.bmp	0	1	+	0	1	blank2r.bmp	500	6	C2r.bmp	500	1	blank2r.bmp	880	5	lasch	880	0	0	0	0	0	0	0	0	0	0	0	0
2024-05-15	15:52:07	15:53:57	110366	6.6.1	4_exp_EVA_AWA_CON	38	B	A	Rpleas_acq	Oppo	Rpleas	1pleas	acq_US_pleas_nomask	acq1_nomask	1	21	0	0	300	300	0	0	508	50	1	0	retten	spielen	schlau	treu	schön	fair	rächen	strafen	schroff	tot	schlecht	faul	freundlich	helfen	ehrlich	lachen	loyal	tolerant	fanatisch	hindern	eitel	leiden	lasch	tyrannisch	1	blank2r.bmp	0	1	+	0	1	blank2r.bmp	500	1	BMVZ	500	1	blank2r.bmp	880	4	treu	880	0	0	0	0	0	0	0	0	0	0	0	0
2024-05-15	15:52:07	15:54:00	112680	6.6.1	4_exp_EVA_AWA_CON	38	B	A	Rpleas_acq	Oppo	Rpleas	1pleas	acq_US_unple_nomask	acq1_nomask	1	22	0	0	300	300	0	0	629	50	0	0	retten	spielen	schlau	treu	schön	fair	rächen	strafen	schroff	tot	schlecht	faul	freundlich	helfen	ehrlich	lachen	loyal	tolerant	fanatisch	hindern	eitel	leiden	lasch	tyrannisch	1	blank2r.bmp	0	1	+	0	1	blank2r.bmp	500	1	GKQX	500	1	blank2r.bmp	880	5	schlecht	880	1	FEHLER	1530	0	0	0	0	0	0	0	0	0
2024-05-15	15:52:07	15:54:01	114582	6.6.1	4_exp_EVA_AWA_CON	38	B	A	Rpleas_acq	Oppo	Rpleas	1pleas	acq_US_pleas_nomask	acq1_nomask	1	23	0	0	300	300	0	0	622	50	1	0	retten	spielen	schlau	treu	schön	fair	rächen	strafen	schroff	tot	schlecht	faul	freundlich	helfen	ehrlich	lachen	loyal	tolerant	fanatisch	hindern	eitel	leiden	lasch	tyrannisch	1	blank2r.bmp	0	1	+	0	1	blank2r.bmp	500	1	BMVZ	500	1	blank2r.bmp	880	2	spielen	880	0	0	0	0	0	0	0	0	0	0	0	0
2024-05-15	15:52:07	15:54:04	116814	6.6.1	4_exp_EVA_AWA_CON	38	B	A	Rpleas_acq	Oppo	Rpleas	1pleas	acq_new_unple_nomask	acq1_nomask	1	24	0	0	300	300	0	0	742	46	1	0	retten	spielen	schlau	treu	schön	fair	rächen	strafen	schroff	tot	schlecht	faul	freundlich	helfen	ehrlich	lachen	loyal	tolerant	fanatisch	hindern	eitel	leiden	lasch	tyrannisch	1	blank2r.bmp	0	1	+	0	1	blank2r.bmp	500	3	B3r.bmp	500	1	blank2r.bmp	880	6	tyrannisch	880	0	0	0	0	0	0	0	0	0	0	0	0
2024-05-15	15:52:07	15:54:06	119007	6.6.1	4_exp_EVA_AWA_CON	38	B	A	Rpleas_acq	Oppo	Rpleas	1pleas	acq_US_unple_nomask	acq1_nomask	1	25	0	0	300	300	0	0	703	46	1	0	retten	spielen	schlau	treu	schön	fair	rächen	strafen	schroff	tot	schlecht	faul	freundlich	helfen	ehrlich	lachen	loyal	tolerant	fanatisch	hindern	eitel	leiden	lasch	tyrannisch	1	blank2r.bmp	0	1	+	0	1	blank2r.bmp	500	1	GKQX	500	1	blank2r.bmp	880	5	schlecht	880	0	0	0	0	0	0	0	0	0	0	0	0
2024-05-15	15:52:07	15:54:08	121079	6.6.1	4_exp_EVA_AWA_CON	38	B	A	Rpleas_acq	Oppo	Rpleas	1pleas	acq_US_unple_nomask	acq1_nomask	1	26	0	0	300	300	0	0	583	46	1	0	retten	spielen	schlau	treu	schön	fair	rächen	strafen	schroff	tot	schlecht	faul	freundlich	helfen	ehrlich	lachen	loyal	tolerant	fanatisch	hindern	eitel	leiden	lasch	tyrannisch	1	blank2r.bmp	0	1	+	0	1	blank2r.bmp	500	1	GKQX	500	1	blank2r.bmp	880	6	faul	880	0	0	0	0	0	0	0	0	0	0	0	0
2024-05-15	15:52:07	15:54:10	123304	6.6.1	4_exp_EVA_AWA_CON	38	B	A	Rpleas_acq	Oppo	Rpleas	1pleas	acq_US_pleas_nomask	acq1_nomask	1	27	0	0	300	300	0	0	536	46	0	0	retten	spielen	schlau	treu	schön	fair	rächen	strafen	schroff	tot	schlecht	faul	freundlich	helfen	ehrlich	lachen	loyal	tolerant	fanatisch	hindern	eitel	leiden	lasch	tyrannisch	1	blank2r.bmp	0	1	+	0	1	blank2r.bmp	500	1	BMVZ	500	1	blank2r.bmp	880	4	treu	880	1	FEHLER	1438	0	0	0	0	0	0	0	0	0
2024-05-15	15:52:07	15:54:12	125239	6.6.1	4_exp_EVA_AWA_CON	38	B	A	Rpleas_acq	Oppo	Rpleas	1pleas	acq_new_unple_nomask	acq1_nomask	1	28	0	0	300	300	0	0	651	46	1	0	retten	spielen	schlau	treu	schön	fair	rächen	strafen	schroff	tot	schlecht	faul	freundlich	helfen	ehrlich	lachen	loyal	tolerant	fanatisch	hindern	eitel	leiden	lasch	tyrannisch	1	blank2r.bmp	0	1	+	0	1	blank2r.bmp	500	1	B1r.bmp	500	1	blank2r.bmp	880	5	lasch	880	0	0	0	0	0	0	0	0	0	0	0	0
2024-05-15	15:52:07	15:54:14	127334	6.6.1	4_exp_EVA_AWA_CON	38	B	A	Rpleas_acq	Oppo	Rpleas	1pleas	acq_US_unple_nomask	acq1_nomask	1	29	0	0	300	300	0	0	615	46	1	0	retten	spielen	schlau	treu	schön	fair	rächen	strafen	schroff	tot	schlecht	faul	freundlich	helfen	ehrlich	lachen	loyal	tolerant	fanatisch	hindern	eitel	leiden	lasch	tyrannisch	1	blank2r.bmp	0	1	+	0	1	blank2r.bmp	500	1	GKQX	500	1	blank2r.bmp	880	1	rächen	880	0	0	0	0	0	0	0	0	0	0	0	0
2024-05-15	15:52:07	15:54:16	129351	6.6.1	4_exp_EVA_AWA_CON	38	B	A	Rpleas_acq	Oppo	Rpleas	1pleas	acq_US_pleas_nomask	acq1_nomask	1	30	0	0	300	300	0	0	530	50	1	0	retten	spielen	schlau	treu	schön	fair	rächen	strafen	schroff	tot	schlecht	faul	freundlich	helfen	ehrlich	lachen	loyal	tolerant	fanatisch	hindern	eitel	leiden	lasch	tyrannisch	1	blank2r.bmp	0	1	+	0	1	blank2r.bmp	500	1	BMVZ	500	1	blank2r.bmp	880	6	fair	880	0	0	0	0	0	0	0	0	0	0	0	0
2024-05-15	15:52:07	15:54:18	131390	6.6.1	4_exp_EVA_AWA_CON	38	B	A	Rpleas_acq	Oppo	Rpleas	1pleas	acq_US_pleas_nomask	acq1_nomask	1	31	0	0	300	300	0	0	559	50	1	0	retten	spielen	schlau	treu	schön	fair	rächen	strafen	schroff	tot	schlecht	faul	freundlich	helfen	ehrlich	lachen	loyal	tolerant	fanatisch	hindern	eitel	leiden	lasch	tyrannisch	1	blank2r.bmp	0	1	+	0	1	blank2r.bmp	500	1	BMVZ	500	1	blank2r.bmp	880	2	spielen	880	0	0	0	0	0	0	0	0	0	0	0	0
2024-05-15	15:52:07	15:54:20	133495	6.6.1	4_exp_EVA_AWA_CON	38	B	A	Rpleas_acq	Oppo	Rpleas	1pleas	acq_new_unple_nomask	acq1_nomask	1	32	0	0	300	300	0	0	621	46	1	0	retten	spielen	schlau	treu	schön	fair	rächen	strafen	schroff	tot	schlecht	faul	freundlich	helfen	ehrlich	lachen	loyal	tolerant	fanatisch	hindern	eitel	leiden	lasch	tyrannisch	1	blank2r.bmp	0	1	+	0	1	blank2r.bmp	500	2	B2r.bmp	500	1	blank2r.bmp	880	6	tyrannisch	880	0	0	0	0	0	0	0	0	0	0	0	0
2024-05-15	15:52:07	15:54:22	135567	6.6.1	4_exp_EVA_AWA_CON	38	B	A	Rpleas_acq	Oppo	Rpleas	1pleas	acq_new_pleas_nomask	acq1_nomask	1	33	0	0	300	300	0	0	582	50	1	0	retten	spielen	schlau	treu	schön	fair	rächen	strafen	schroff	tot	schlecht	faul	freundlich	helfen	ehrlich	lachen	loyal	tolerant	fanatisch	hindern	eitel	leiden	lasch	tyrannisch	1	blank2r.bmp	0	1	+	0	1	blank2r.bmp	500	4	B4r.bmp	500	1	blank2r.bmp	880	2	helfen	880	0	0	0	0	0	0	0	0	0	0	0	0
2024-05-15	15:52:07	15:54:24	137598	6.6.1	4_exp_EVA_AWA_CON	38	B	A	Rpleas_acq	Oppo	Rpleas	1pleas	acq_new_pleas_nomask	acq1_nomask	1	34	0	0	300	300	0	0	543	50	1	0	retten	spielen	schlau	treu	schön	fair	rächen	strafen	schroff	tot	schlecht	faul	freundlich	helfen	ehrlich	lachen	loyal	tolerant	fanatisch	hindern	eitel	leiden	lasch	tyrannisch	1	blank2r.bmp	0	1	+	0	1	blank2r.bmp	500	8	C4r.bmp	500	1	blank2r.bmp	880	3	ehrlich	880	0	0	0	0	0	0	0	0	0	0	0	0
2024-05-15	15:52:07	15:54:26	139607	6.6.1	4_exp_EVA_AWA_CON	38	B	A	Rpleas_acq	Oppo	Rpleas	1pleas	acq_new_unple_nomask	acq1_nomask	1	35	0	0	300	300	0	0	519	46	1	0	retten	spielen	schlau	treu	schön	fair	rächen	strafen	schroff	tot	schlecht	faul	freundlich	helfen	ehrlich	lachen	loyal	tolerant	fanatisch	hindern	eitel	leiden	lasch	tyrannisch	1	blank2r.bmp	0	1	+	0	1	blank2r.bmp	500	6	C2r.bmp	500	1	blank2r.bmp	880	4	leiden	880	0	0	0	0	0	0	0	0	0	0	0	0
2024-05-15	15:52:07	15:54:29	141663	6.6.1	4_exp_EVA_AWA_CON	38	B	A	Rpleas_acq	Oppo	Rpleas	1pleas	acq_new_pleas_nomask	acq1_nomask	1	36	0	0	300	300	0	0	574	50	1	0	retten	spielen	schlau	treu	schön	fair	rächen	strafen	schroff	tot	schlecht	faul	freundlich	helfen	ehrlich	lachen	loyal	tolerant	fanatisch	hindern	eitel	leiden	lasch	tyrannisch	1	blank2r.bmp	0	1	+	0	1	blank2r.bmp	500	1	B1r.bmp	500	1	blank2r.bmp	880	5	loyal	880	0	0	0	0	0	0	0	0	0	0	0	0
2024-05-15	15:52:07	15:54:50	163545	6.6.1	4_exp_EVA_AWA_CON	38	B	A	Rpleas_acq	Oppo	Rpleas	1pleas	acq_new_unple_nomask	acq2_nomask	2	1	480	0	300	300	0	0	1063	46	1	0	retten	spielen	schlau	treu	schön	fair	rächen	strafen	schroff	tot	schlecht	faul	freundlich	helfen	ehrlich	lachen	loyal	tolerant	fanatisch	hindern	eitel	leiden	lasch	tyrannisch	1	blank2r.bmp	0	1	+	0	1	blank2r.bmp	500	8	C4r.bmp	500	1	blank2r.bmp	880	2	hindern	880	1	!	1312	1	!	-1	0	0	0	0	0	0
2024-05-15	15:52:07	15:54:53	166072	6.6.1	4_exp_EVA_AWA_CON	38	B	A	Rpleas_acq	Oppo	Rpleas	1pleas	acq_US_unple_nomask	acq2_nomask	2	2	480	0	300	300	0	0	749	46	1	0	retten	spielen	schlau	treu	schön	fair	rächen	strafen	schroff	tot	schlecht	faul	freundlich	helfen	ehrlich	lachen	loyal	tolerant	fanatisch	hindern	eitel	leiden	lasch	tyrannisch	1	blank2r.bmp	0	1	+	0	1	blank2r.bmp	500	1	GKQX	500	1	blank2r.bmp	880	4	tot	880	1	!	1313	1	!	-1	0	0	0	0	0	0
2024-05-15	15:52:07	15:54:55	168386	6.6.1	4_exp_EVA_AWA_CON	38	B	A	Rpleas_acq	Oppo	Rpleas	1pleas	acq_US_unple_nomask	acq2_nomask	2	3	480	1	300	300	0	0	539	46	1	0	retten	spielen	schlau	treu	schön	fair	rächen	strafen	schroff	tot	schlecht	faul	freundlich	helfen	ehrlich	lachen	loyal	tolerant	fanatisch	hindern	eitel	leiden	lasch	tyrannisch	1	blank2r.bmp	0	1	+	0	1	blank2r.bmp	500	1	GKQX	500	1	blank2r.bmp	880	2	strafen	880	1	!	1312	1	!	1441	0	0	0	0	0	0
2024-05-15	15:52:07	15:54:57	170585	6.6.1	4_exp_EVA_AWA_CON	38	B	A	Rpleas_acq	Oppo	Rpleas	1pleas	acq_new_pleas_nomask	acq2_nomask	2	4	480	1	300	300	0	0	418	50	1	0	retten	spielen	schlau	treu	schön	fair	rächen	strafen	schroff	tot	schlecht	faul	freundlich	helfen	ehrlich	lachen	loyal	tolerant	fanatisch	hindern	eitel	leiden	lasch	tyrannisch	1	blank2r.bmp	0	1	+	0	1	blank2r.bmp	500	7	C3r.bmp	500	1	blank2r.bmp	880	1	freundlich	880	1	!	1312	1	!	1317	0	0	0	0	0	0
2024-05-15	15:52:07	15:55:00	173268	6.6.1	4_exp_EVA_AWA_CON	38	B	A	Rpleas_acq	Oppo	Rpleas	1pleas	acq_new_unple_nomask	acq2_nomask	2	5	480	0	300	300	0	0	706	50	0	0	retten	spielen	schlau	treu	schön	fair	rächen	strafen	schroff	tot	schlecht	faul	freundlich	helfen	ehrlich	lachen	loyal	tolerant	fanatisch	hindern	eitel	leiden	lasch	tyrannisch	1	blank2r.bmp	0	1	+	0	1	blank2r.bmp	500	2	B2r.bmp	500	1	blank2r.bmp	880	3	eitel	880	1	FEHLER	1900	1	!	1313	1	!	-1	0	0	0
2024-05-15	15:52:07	15:55:02	175241	6.6.1	4_exp_EVA_AWA_CON	38	B	A	Rpleas_acq	Oppo	Rpleas	1pleas	acq_US_pleas_nomask	acq2_nomask	2	6	480	0	300	300	0	0	401	50	1	0	retten	spielen	schlau	treu	schön	fair	rächen	strafen	schroff	tot	schlecht	faul	freundlich	helfen	ehrlich	lachen	loyal	tolerant	fanatisch	hindern	eitel	leiden	lasch	tyrannisch	1	blank2r.bmp	0	1	+	0	1	blank2r.bmp	500	1	BMVZ	500	1	blank2r.bmp	880	3	schlau	880	1	!	-1	1	!	-1	0	0	0	0	0	0
2024-05-15	15:52:07	15:55:05	177712	6.6.1	4_exp_EVA_AWA_CON	38	B	A	Rpleas_acq	Oppo	Rpleas	1pleas	acq_new_pleas_nomask	acq2_nomask	2	7	480	0	300	300	0	0	691	50	1	0	retten	spielen	schlau	treu	schön	fair	rächen	strafen	schroff	tot	schlecht	faul	freundlich	helfen	ehrlich	lachen	loyal	tolerant	fanatisch	hindern	eitel	leiden	lasch	tyrannisch	1	blank2r.bmp	0	1	+	0	1	blank2r.bmp	500	5	C1r.bmp	500	1	blank2r.bmp	880	6	tolerant	880	1	!	1313	1	!	-1	0	0	0	0	0	0
2024-05-15	15:52:07	15:55:07	180259	6.6.1	4_exp_EVA_AWA_CON	38	B	A	Rpleas_acq	Oppo	Rpleas	1pleas	acq_new_unple_nomask	acq2_nomask	2	8	480	0	300	300	0	0	564	50	0	0	retten	spielen	schlau	treu	schön	fair	rächen	strafen	schroff	tot	schlecht	faul	freundlich	helfen	ehrlich	lachen	loyal	tolerant	fanatisch	hindern	eitel	leiden	lasch	tyrannisch	1	blank2r.bmp	0	1	+	0	1	blank2r.bmp	500	3	B3r.bmp	500	1	blank2r.bmp	880	1	fanatisch	880	1	FEHLER	1757	1	!	1313	1	!	-1	0	0	0
2024-05-15	15:52:07	15:55:09	182315	6.6.1	4_exp_EVA_AWA_CON	38	B	A	Rpleas_acq	Oppo	Rpleas	1pleas	acq_new_pleas_nomask	acq2_nomask	2	9	480	1	300	300	0	0	478	50	1	0	retten	spielen	schlau	treu	schön	fair	rächen	strafen	schroff	tot	schlecht	faul	freundlich	helfen	ehrlich	lachen	loyal	tolerant	fanatisch	hindern	eitel	leiden	lasch	tyrannisch	1	blank2r.bmp	0	1	+	0	1	blank2r.bmp	500	4	B4r.bmp	500	1	blank2r.bmp	880	4	lachen	880	1	!	1312	1	!	1380	0	0	0	0	0	0
2024-05-15	15:52:07	15:55:12	184680	6.6.1	4_exp_EVA_AWA_CON	38	B	A	Rpleas_acq	Oppo	Rpleas	1pleas	acq_US_unple_nomask	acq2_nomask	2	10	480	0	300	300	0	0	585	46	1	0	retten	spielen	schlau	treu	schön	fair	rächen	strafen	schroff	tot	schlecht	faul	freundlich	helfen	ehrlich	lachen	loyal	tolerant	fanatisch	hindern	eitel	leiden	lasch	tyrannisch	1	blank2r.bmp	0	1	+	0	1	blank2r.bmp	500	1	GKQX	500	1	blank2r.bmp	880	3	schroff	880	1	!	1312	1	!	-1	0	0	0	0	0	0
2024-05-15	15:52:07	15:55:14	187160	6.6.1	4_exp_EVA_AWA_CON	38	B	A	Rpleas_acq	Oppo	Rpleas	1pleas	acq_US_pleas_nomask	acq2_nomask	2	11	480	0	300	300	0	0	703	50	1	0	retten	spielen	schlau	treu	schön	fair	rächen	strafen	schroff	tot	schlecht	faul	freundlich	helfen	ehrlich	lachen	loyal	tolerant	fanatisch	hindern	eitel	leiden	lasch	tyrannisch	1	blank2r.bmp	0	1	+	0	1	blank2r.bmp	500	1	BMVZ	500	1	blank2r.bmp	880	1	retten	880	1	!	1312	1	!	-1	0	0	0	0	0	0
2024-05-15	15:52:07	15:55:16	189536	6.6.1	4_exp_EVA_AWA_CON	38	B	A	Rpleas_acq	Oppo	Rpleas	1pleas	acq_US_pleas_nomask	acq2_nomask	2	12	480	0	300	300	0	0	598	50	1	0	retten	spielen	schlau	treu	schön	fair	rächen	strafen	schroff	tot	schlecht	faul	freundlich	helfen	ehrlich	lachen	loyal	tolerant	fanatisch	hindern	eitel	leiden	lasch	tyrannisch	1	blank2r.bmp	0	1	+	0	1	blank2r.bmp	500	1	BMVZ	500	1	blank2r.bmp	880	5	schön	880	1	!	1312	1	!	-1	0	0	0	0	0	0
2024-05-15	15:52:07	15:55:19	191771	6.6.1	4_exp_EVA_AWA_CON	38	B	A	Rpleas_acq	Oppo	Rpleas	1pleas	acq_new_unple_nomask	acq2_nomask	2	13	480	1	300	300	0	0	458	46	1	0	retten	spielen	schlau	treu	schön	fair	rächen	strafen	schroff	tot	schlecht	faul	freundlich	helfen	ehrlich	lachen	loyal	tolerant	fanatisch	hindern	eitel	leiden	lasch	tyrannisch	1	blank2r.bmp	0	1	+	0	1	blank2r.bmp	500	7	C3r.bmp	500	1	blank2r.bmp	880	4	leiden	880	1	!	1313	1	!	1359	0	0	0	0	0	0
2024-05-15	15:52:07	15:55:21	194355	6.6.1	4_exp_EVA_AWA_CON	38	B	A	Rpleas_acq	Oppo	Rpleas	1pleas	acq_new_unple_nomask	acq2_nomask	2	14	480	0	300	300	0	0	601	50	0	0	retten	spielen	schlau	treu	schön	fair	rächen	strafen	schroff	tot	schlecht	faul	freundlich	helfen	ehrlich	lachen	loyal	tolerant	fanatisch	hindern	eitel	leiden	lasch	tyrannisch	1	blank2r.bmp	0	1	+	0	1	blank2r.bmp	500	4	B4r.bmp	500	1	blank2r.bmp	880	1	fanatisch	880	1	FEHLER	1794	1	!	1313	1	!	-1	0	0	0
2024-05-15	15:52:07	15:55:23	196544	6.6.1	4_exp_EVA_AWA_CON	38	B	A	Rpleas_acq	Oppo	Rpleas	1pleas	acq_new_pleas_nomask	acq2_nomask	2	15	480	0	300	300	0	0	611	50	1	0	retten	spielen	schlau	treu	schön	fair	rächen	strafen	schroff	tot	schlecht	faul	freundlich	helfen	ehrlich	lachen	loyal	tolerant	fanatisch	hindern	eitel	leiden	lasch	tyrannisch	1	blank2r.bmp	0	1	+	0	1	blank2r.bmp	500	6	C2r.bmp	500	1	blank2r.bmp	880	1	freundlich	880	1	!	1312	1	!	-1	0	0	0	0	0	0
2024-05-15	15:52:07	15:55:26	198980	6.6.1	4_exp_EVA_AWA_CON	38	B	A	Rpleas_acq	Oppo	Rpleas	1pleas	acq_new_pleas_nomask	acq2_nomask	2	16	480	1	300	300	0	0	452	46	0	0	retten	spielen	schlau	treu	schön	fair	rächen	strafen	schroff	tot	schlecht	faul	freundlich	helfen	ehrlich	lachen	loyal	tolerant	fanatisch	hindern	eitel	leiden	lasch	tyrannisch	1	blank2r.bmp	0	1	+	0	1	blank2r.bmp	500	2	B2r.bmp	500	1	blank2r.bmp	880	4	lachen	880	1	FEHLER	1645	1	!	1312	1	!	1353	0	0	0
2024-05-15	15:52:07	15:55:28	201019	6.6.1	4_exp_EVA_AWA_CON	38	B	A	Rpleas_acq	Oppo	Rpleas	1pleas	acq_US_unple_nomask	acq2_nomask	2	17	480	1	300	300	0	0	460	46	1	0	retten	spielen	schlau	treu	schön	fair	rächen	strafen	schroff	tot	schlecht	faul	freundlich	helfen	ehrlich	lachen	loyal	tolerant	fanatisch	hindern	eitel	leiden	lasch	tyrannisch	1	blank2r.bmp	0	1	+	0	1	blank2r.bmp	500	1	GKQX	500	1	blank2r.bmp	880	1	rächen	880	1	!	1312	1	!	1362	0	0	0	0	0	0
2024-05-15	15:52:07	15:55:30	203184	6.6.1	4_exp_EVA_AWA_CON	38	B	A	Rpleas_acq	Oppo	Rpleas	1pleas	acq_US_pleas_nomask	acq2_nomask	2	18	480	0	300	300	0	0	387	50	1	0	retten	spielen	schlau	treu	schön	fair	rächen	strafen	schroff	tot	schlecht	faul	freundlich	helfen	ehrlich	lachen	loyal	tolerant	fanatisch	hindern	eitel	leiden	lasch	tyrannisch	1	blank2r.bmp	0	1	+	0	1	blank2r.bmp	500	1	BMVZ	500	1	blank2r.bmp	880	3	schlau	880	1	!	-1	1	!	-1	0	0	0	0	0	0
2024-05-15	15:52:07	15:55:33	205728	6.6.1	4_exp_EVA_AWA_CON	38	B	A	Rpleas_acq	Oppo	Rpleas	1pleas	acq_new_unple_nomask	acq2_nomask	2	19	480	0	300	300	0	0	769	46	1	0	retten	spielen	schlau	treu	schön	fair	rächen	strafen	schroff	tot	schlecht	faul	freundlich	helfen	ehrlich	lachen	loyal	tolerant	fanatisch	hindern	eitel	leiden	lasch	tyrannisch	1	blank2r.bmp	0	1	+	0	1	blank2r.bmp	500	1	B1r.bmp	500	1	blank2r.bmp	880	6	tyrannisch	880	1	!	1312	1	!	-1	0	0	0	0	0	0
2024-05-15	15:52:07	15:55:35	207986	6.6.1	4_exp_EVA_AWA_CON	38	B	A	Rpleas_acq	Oppo	Rpleas	1pleas	acq_US_pleas_nomask	acq2_nomask	2	20	480	1	300	300	0	0	484	50	1	0	retten	spielen	schlau	treu	schön	fair	rächen	strafen	schroff	tot	schlecht	faul	freundlich	helfen	ehrlich	lachen	loyal	tolerant	fanatisch	hindern	eitel	leiden	lasch	tyrannisch	1	blank2r.bmp	0	1	+	0	1	blank2r.bmp	500	1	BMVZ	500	1	blank2r.bmp	880	2	spielen	880	1	!	1313	1	!	1385	0	0	0	0	0	0
2024-05-15	15:52:07	15:55:37	210259	6.6.1	4_exp_EVA_AWA_CON	38	B	A	Rpleas_acq	Oppo	Rpleas	1pleas	acq_US_pleas_nomask	acq2_nomask	2	21	480	1	300	300	0	0	494	50	1	0	retten	spielen	schlau	treu	schön	fair	rächen	strafen	schroff	tot	schlecht	faul	freundlich	helfen	ehrlich	lachen	loyal	tolerant	fanatisch	hindern	eitel	leiden	lasch	tyrannisch	1	blank2r.bmp	0	1	+	0	1	blank2r.bmp	500	1	BMVZ	500	1	blank2r.bmp	880	4	treu	880	1	!	1312	1	!	1396	0	0	0	0	0	0
2024-05-15	15:52:07	15:55:40	212665	6.6.1	4_exp_EVA_AWA_CON	38	B	A	Rpleas_acq	Oppo	Rpleas	1pleas	acq_US_unple_nomask	acq2_nomask	2	22	480	0	300	300	0	0	631	46	1	0	retten	spielen	schlau	treu	schön	fair	rächen	strafen	schroff	tot	schlecht	faul	freundlich	helfen	ehrlich	lachen	loyal	tolerant	fanatisch	hindern	eitel	leiden	lasch	tyrannisch	1	blank2r.bmp	0	1	+	0	1	blank2r.bmp	500	1	GKQX	500	1	blank2r.bmp	880	3	schroff	880	1	!	1312	1	!	-1	0	0	0	0	0	0
2024-05-15	15:52:07	15:55:42	214938	6.6.1	4_exp_EVA_AWA_CON	38	B	A	Rpleas_acq	Oppo	Rpleas	1pleas	acq_US_unple_nomask	acq2_nomask	2	23	480	1	300	300	0	0	491	46	1	0	retten	spielen	schlau	treu	schön	fair	rächen	strafen	schroff	tot	schlecht	faul	freundlich	helfen	ehrlich	lachen	loyal	tolerant	fanatisch	hindern	eitel	leiden	lasch	tyrannisch	1	blank2r.bmp	0	1	+	0	1	blank2r.bmp	500	1	GKQX	500	1	blank2r.bmp	880	6	faul	880	1	!	1313	1	!	1393	0	0	0	0	0	0
2024-05-15	15:52:07	15:55:44	217154	6.6.1	4_exp_EVA_AWA_CON	38	B	A	Rpleas_acq	Oppo	Rpleas	1pleas	acq_new_pleas_nomask	acq2_nomask	2	24	480	1	300	300	0	0	436	50	1	0	retten	spielen	schlau	treu	schön	fair	rächen	strafen	schroff	tot	schlecht	faul	freundlich	helfen	ehrlich	lachen	loyal	tolerant	fanatisch	hindern	eitel	leiden	lasch	tyrannisch	1	blank2r.bmp	0	1	+	0	1	blank2r.bmp	500	3	B3r.bmp	500	1	blank2r.bmp	880	6	tolerant	880	1	!	1313	1	!	1337	0	0	0	0	0	0
2024-05-15	15:52:07	15:55:46	219569	6.6.1	4_exp_EVA_AWA_CON	38	B	A	Rpleas_acq	Oppo	Rpleas	1pleas	acq_new_unple_nomask	acq2_nomask	2	25	480	0	300	300	0	0	640	46	1	0	retten	spielen	schlau	treu	schön	fair	rächen	strafen	schroff	tot	schlecht	faul	freundlich	helfen	ehrlich	lachen	loyal	tolerant	fanatisch	hindern	eitel	leiden	lasch	tyrannisch	1	blank2r.bmp	0	1	+	0	1	blank2r.bmp	500	5	C1r.bmp	500	1	blank2r.bmp	880	5	lasch	880	1	!	1313	1	!	-1	0	0	0	0	0	0
2024-05-15	15:52:07	15:55:49	221944	6.6.1	4_exp_EVA_AWA_CON	38	B	A	Rpleas_acq	Oppo	Rpleas	1pleas	acq_US_unple_nomask	acq2_nomask	2	26	480	0	300	300	0	0	595	46	1	0	retten	spielen	schlau	treu	schön	fair	rächen	strafen	schroff	tot	schlecht	faul	freundlich	helfen	ehrlich	lachen	loyal	tolerant	fanatisch	hindern	eitel	leiden	lasch	tyrannisch	1	blank2r.bmp	0	1	+	0	1	blank2r.bmp	500	1	GKQX	500	1	blank2r.bmp	880	4	tot	880	1	!	1312	1	!	-1	0	0	0	0	0	0
2024-05-15	15:52:07	15:55:51	224328	6.6.1	4_exp_EVA_AWA_CON	38	B	A	Rpleas_acq	Oppo	Rpleas	1pleas	acq_new_pleas_nomask	acq2_nomask	2	27	480	0	300	300	0	0	607	50	1	0	retten	spielen	schlau	treu	schön	fair	rächen	strafen	schroff	tot	schlecht	faul	freundlich	helfen	ehrlich	lachen	loyal	tolerant	fanatisch	hindern	eitel	leiden	lasch	tyrannisch	1	blank2r.bmp	0	1	+	0	1	blank2r.bmp	500	8	C4r.bmp	500	1	blank2r.bmp	880	3	ehrlich	880	1	!	1312	1	!	-1	0	0	0	0	0	0
2024-05-15	15:52:07	15:55:54	226655	6.6.1	4_exp_EVA_AWA_CON	38	B	A	Rpleas_acq	Oppo	Rpleas	1pleas	acq_new_pleas_nomask	acq2_nomask	2	28	480	0	300	300	0	0	554	50	1	0	retten	spielen	schlau	treu	schön	fair	rächen	strafen	schroff	tot	schlecht	faul	freundlich	helfen	ehrlich	lachen	loyal	tolerant	fanatisch	hindern	eitel	leiden	lasch	tyrannisch	1	blank2r.bmp	0	1	+	0	1	blank2r.bmp	500	7	C3r.bmp	500	1	blank2r.bmp	880	5	loyal	880	1	!	1313	1	!	-1	0	0	0	0	0	0
2024-05-15	15:52:07	15:55:56	228938	6.6.1	4_exp_EVA_AWA_CON	38	B	A	Rpleas_acq	Oppo	Rpleas	1pleas	acq_new_pleas_nomask	acq2_nomask	2	29	480	1	300	300	0	0	502	50	1	0	retten	spielen	schlau	treu	schön	fair	rächen	strafen	schroff	tot	schlecht	faul	freundlich	helfen	ehrlich	lachen	loyal	tolerant	fanatisch	hindern	eitel	leiden	lasch	tyrannisch	1	blank2r.bmp	0	1	+	0	1	blank2r.bmp	500	2	B2r.bmp	500	1	blank2r.bmp	880	2	helfen	880	1	!	1312	1	!	1404	0	0	0	0	0	0
2024-05-15	15:52:07	15:55:58	231267	6.6.1	4_exp_EVA_AWA_CON	38	B	A	Rpleas_acq	Oppo	Rpleas	1pleas	acq_US_pleas_nomask	acq2_nomask	2	30	480	1	300	300	0	0	549	50	1	0	retten	spielen	schlau	treu	schön	fair	rächen	strafen	schroff	tot	schlecht	faul	freundlich	helfen	ehrlich	lachen	loyal	tolerant	fanatisch	hindern	eitel	leiden	lasch	tyrannisch	1	blank2r.bmp	0	1	+	0	1	blank2r.bmp	500	1	BMVZ	500	1	blank2r.bmp	880	6	fair	880	1	!	1313	1	!	1450	0	0	0	0	0	0
2024-05-15	15:52:07	15:56:01	233664	6.6.1	4_exp_EVA_AWA_CON	38	B	A	Rpleas_acq	Oppo	Rpleas	1pleas	acq_US_pleas_nomask	acq2_nomask	2	31	480	0	300	300	0	0	617	50	1	0	retten	spielen	schlau	treu	schön	fair	rächen	strafen	schroff	tot	schlecht	faul	freundlich	helfen	ehrlich	lachen	loyal	tolerant	fanatisch	hindern	eitel	leiden	lasch	tyrannisch	1	blank2r.bmp	0	1	+	0	1	blank2r.bmp	500	1	BMVZ	500	1	blank2r.bmp	880	5	schön	880	1	!	1313	1	!	-1	0	0	0	0	0	0
2024-05-15	15:52:07	15:56:03	236009	6.6.1	4_exp_EVA_AWA_CON	38	B	A	Rpleas_acq	Oppo	Rpleas	1pleas	acq_US_unple_nomask	acq2_nomask	2	32	480	0	300	300	0	0	570	46	1	0	retten	spielen	schlau	treu	schön	fair	rächen	strafen	schroff	tot	schlecht	faul	freundlich	helfen	ehrlich	lachen	loyal	tolerant	fanatisch	hindern	eitel	leiden	lasch	tyrannisch	1	blank2r.bmp	0	1	+	0	1	blank2r.bmp	500	1	GKQX	500	1	blank2r.bmp	880	2	strafen	880	1	!	1313	1	!	-1	0	0	0	0	0	0
2024-05-15	15:52:07	15:56:05	238580	6.6.1	4_exp_EVA_AWA_CON	38	B	A	Rpleas_acq	Oppo	Rpleas	1pleas	acq_new_unple_nomask	acq2_nomask	2	33	480	0	300	300	0	0	586	50	0	0	retten	spielen	schlau	treu	schön	fair	rächen	strafen	schroff	tot	schlecht	faul	freundlich	helfen	ehrlich	lachen	loyal	tolerant	fanatisch	hindern	eitel	leiden	lasch	tyrannisch	1	blank2r.bmp	0	1	+	0	1	blank2r.bmp	500	6	C2r.bmp	500	1	blank2r.bmp	880	3	eitel	880	1	FEHLER	1780	1	!	1312	1	!	-1	0	0	0
2024-05-15	15:52:07	15:56:08	240739	6.6.1	4_exp_EVA_AWA_CON	38	B	A	Rpleas_acq	Oppo	Rpleas	1pleas	acq_US_unple_nomask	acq2_nomask	2	34	480	0	300	300	0	0	385	50	0	0	retten	spielen	schlau	treu	schön	fair	rächen	strafen	schroff	tot	schlecht	faul	freundlich	helfen	ehrlich	lachen	loyal	tolerant	fanatisch	hindern	eitel	leiden	lasch	tyrannisch	1	blank2r.bmp	0	1	+	0	1	blank2r.bmp	500	1	GKQX	500	1	blank2r.bmp	880	5	schlecht	880	1	FEHLER	1578	1	!	-1	1	!	-1	0	0	0
2024-05-15	15:52:07	15:56:10	243016	6.6.1	4_exp_EVA_AWA_CON	38	B	A	Rpleas_acq	Oppo	Rpleas	1pleas	acq_new_unple_nomask	acq2_nomask	2	35	480	0	300	300	0	0	703	46	1	0	retten	spielen	schlau	treu	schön	fair	rächen	strafen	schroff	tot	schlecht	faul	freundlich	helfen	ehrlich	lachen	loyal	tolerant	fanatisch	hindern	eitel	leiden	lasch	tyrannisch	1	blank2r.bmp	0	1	+	0	1	blank2r.bmp	500	4	B4r.bmp	500	1	blank2r.bmp	880	2	hindern	880	1	!	1313	1	!	-1	0	0	0	0	0	0
2024-05-15	15:52:07	15:56:12	245314	6.6.1	4_exp_EVA_AWA_CON	38	B	A	Rpleas_acq	Oppo	Rpleas	1pleas	acq_US_pleas_nomask	acq2_nomask	2	36	480	1	300	300	0	0	518	50	1	0	retten	spielen	schlau	treu	schön	fair	rächen	strafen	schroff	tot	schlecht	faul	freundlich	helfen	ehrlich	lachen	loyal	tolerant	fanatisch	hindern	eitel	leiden	lasch	tyrannisch	1	blank2r.bmp	0	1	+	0	1	blank2r.bmp	500	1	BMVZ	500	1	blank2r.bmp	880	1	retten	880	1	!	1313	1	!	1419	0	0	0	0	0	0
2024-05-15	15:52:07	15:56:32	265096	6.6.1	4_exp_EVA_AWA_CON	38	B	A	Rpleas_acq	Oppo	Rpleas	1pleas	acq_US_pleas_nomask	acq3_nomask	3	1	453	0	300	300	0	0	4532	50	1	0	retten	spielen	schlau	treu	schön	fair	rächen	strafen	schroff	tot	schlecht	faul	freundlich	helfen	ehrlich	lachen	loyal	tolerant	fanatisch	hindern	eitel	leiden	lasch	tyrannisch	1	blank2r.bmp	0	1	+	0	1	blank2r.bmp	500	1	BMVZ	500	1	blank2r.bmp	880	2	spielen	880	1	!	1292	1	!	-1	0	0	0	0	0	0
2024-05-15	15:52:07	15:56:34	267440	6.6.1	4_exp_EVA_AWA_CON	38	B	A	Rpleas_acq	Oppo	Rpleas	1pleas	acq_US_unple_nomask	acq3_nomask	3	2	453	0	300	300	0	0	562	46	1	0	retten	spielen	schlau	treu	schön	fair	rächen	strafen	schroff	tot	schlecht	faul	freundlich	helfen	ehrlich	lachen	loyal	tolerant	fanatisch	hindern	eitel	leiden	lasch	tyrannisch	1	blank2r.bmp	0	1	+	0	1	blank2r.bmp	500	1	GKQX	500	1	blank2r.bmp	880	3	schroff	880	1	!	1292	1	!	-1	0	0	0	0	0	0
2024-05-15	15:52:07	15:56:37	269751	6.6.1	4_exp_EVA_AWA_CON	38	B	A	Rpleas_acq	Oppo	Rpleas	1pleas	acq_US_unple_nomask	acq3_nomask	3	3	453	0	300	300	0	0	532	46	1	0	retten	spielen	schlau	treu	schön	fair	rächen	strafen	schroff	tot	schlecht	faul	freundlich	helfen	ehrlich	lachen	loyal	tolerant	fanatisch	hindern	eitel	leiden	lasch	tyrannisch	1	blank2r.bmp	0	1	+	0	1	blank2r.bmp	500	1	GKQX	500	1	blank2r.bmp	880	4	tot	880	1	!	1292	1	!	-1	0	0	0	0	0	0
2024-05-15	15:52:07	15:56:39	272043	6.6.1	4_exp_EVA_AWA_CON	38	B	A	Rpleas_acq	Oppo	Rpleas	1pleas	acq_US_pleas_nomask	acq3_nomask	3	4	453	1	300	300	0	0	509	50	1	0	retten	spielen	schlau	treu	schön	fair	rächen	strafen	schroff	tot	schlecht	faul	freundlich	helfen	ehrlich	lachen	loyal	tolerant	fanatisch	hindern	eitel	leiden	lasch	tyrannisch	1	blank2r.bmp	0	1	+	0	1	blank2r.bmp	500	1	BMVZ	500	1	blank2r.bmp	880	1	retten	880	1	!	1292	1	!	1410	0	0	0	0	0	0
2024-05-15	15:52:07	15:56:41	274350	6.6.1	4_exp_EVA_AWA_CON	38	B	A	Rpleas_acq	Oppo	Rpleas	1pleas	acq_US_pleas_nomask	acq3_nomask	3	5	453	0	300	300	0	0	529	50	1	0	retten	spielen	schlau	treu	schön	fair	rächen	strafen	schroff	tot	schlecht	faul	freundlich	helfen	ehrlich	lachen	loyal	tolerant	fanatisch	hindern	eitel	leiden	lasch	tyrannisch	1	blank2r.bmp	0	1	+	0	1	blank2r.bmp	500	1	BMVZ	500	1	blank2r.bmp	880	3	schlau	880	1	!	1292	1	!	-1	0	0	0	0	0	0
2024-05-15	15:52:07	15:56:44	276665	6.6.1	4_exp_EVA_AWA_CON	38	B	A	Rpleas_acq	Oppo	Rpleas	1pleas	acq_US_pleas_nomask	acq3_nomask	3	6	453	0	300	300	0	0	540	50	1	0	retten	spielen	schlau	treu	schön	fair	rächen	strafen	schroff	tot	schlecht	faul	freundlich	helfen	ehrlich	lachen	loyal	tolerant	fanatisch	hindern	eitel	leiden	lasch	tyrannisch	1	blank2r.bmp	0	1	+	0	1	blank2r.bmp	500	1	BMVZ	500	1	blank2r.bmp	880	4	treu	880	1	!	1292	1	!	-1	0	0	0	0	0	0
2024-05-15	15:52:07	15:56:46	278940	6.6.1	4_exp_EVA_AWA_CON	38	B	A	Rpleas_acq	Oppo	Rpleas	1pleas	acq_US_pleas_nomask	acq3_nomask	3	7	453	0	300	300	0	0	290	46	0	0	retten	spielen	schlau	treu	schön	fair	rächen	strafen	schroff	tot	schlecht	faul	freundlich	helfen	ehrlich	lachen	loyal	tolerant	fanatisch	hindern	eitel	leiden	lasch	tyrannisch	1	blank2r.bmp	0	1	+	0	1	blank2r.bmp	500	1	BMVZ	500	1	blank2r.bmp	880	6	fair	880	1	FEHLER	1484	1	!	-1	1	!	-1	0	0	0
2024-05-15	15:52:07	15:56:48	280872	6.6.1	4_exp_EVA_AWA_CON	38	B	A	Rpleas_acq	Oppo	Rpleas	1pleas	acq_US_pleas_nomask	acq3_nomask	3	8	453	0	300	300	0	0	355	50	1	0	retten	spielen	schlau	treu	schön	fair	rächen	strafen	schroff	tot	schlecht	faul	freundlich	helfen	ehrlich	lachen	loyal	tolerant	fanatisch	hindern	eitel	leiden	lasch	tyrannisch	1	blank2r.bmp	0	1	+	0	1	blank2r.bmp	500	1	BMVZ	500	1	blank2r.bmp	880	5	schön	880	1	!	-1	1	!	-1	0	0	0	0	0	0
2024-05-15	15:52:07	15:56:50	283232	6.6.1	4_exp_EVA_AWA_CON	38	B	A	Rpleas_acq	Oppo	Rpleas	1pleas	acq_US_unple_nomask	acq3_nomask	3	9	453	0	300	300	0	0	584	46	1	0	retten	spielen	schlau	treu	schön	fair	rächen	strafen	schroff	tot	schlecht	faul	freundlich	helfen	ehrlich	lachen	loyal	tolerant	fanatisch	hindern	eitel	leiden	lasch	tyrannisch	1	blank2r.bmp	0	1	+	0	1	blank2r.bmp	500	1	GKQX	500	1	blank2r.bmp	880	5	schlecht	880	1	!	1292	1	!	-1	0	0	0	0	0	0
2024-05-15	15:52:07	15:56:53	285635	6.6.1	4_exp_EVA_AWA_CON	38	B	A	Rpleas_acq	Oppo	Rpleas	1pleas	acq_US_unple_nomask	acq3_nomask	3	10	453	1	300	300	0	0	422	50	0	0	retten	spielen	schlau	treu	schön	fair	rächen	strafen	schroff	tot	schlecht	faul	freundlich	helfen	ehrlich	lachen	loyal	tolerant	fanatisch	hindern	eitel	leiden	lasch	tyrannisch	1	blank2r.bmp	0	1	+	0	1	blank2r.bmp	500	1	GKQX	500	1	blank2r.bmp	880	6	faul	880	1	FEHLER	1615	1	!	1293	1	!	1323	0	0	0
2024-05-15	15:52:07	15:56:55	287888	6.6.1	4_exp_EVA_AWA_CON	38	B	A	Rpleas_acq	Oppo	Rpleas	1pleas	acq_US_unple_nomask	acq3_nomask	3	11	453	0	300	300	0	0	677	46	1	0	retten	spielen	schlau	treu	schön	fair	rächen	strafen	schroff	tot	schlecht	faul	freundlich	helfen	ehrlich	lachen	loyal	tolerant	fanatisch	hindern	eitel	leiden	lasch	tyrannisch	1	blank2r.bmp	0	1	+	0	1	blank2r.bmp	500	1	GKQX	500	1	blank2r.bmp	880	1	rächen	880	1	!	1293	1	!	-1	0	0	0	0	0	0
2024-05-15	15:52:07	15:56:57	290316	6.6.1	4_exp_EVA_AWA_CON	38	B	A	Rpleas_acq	Oppo	Rpleas	1pleas	acq_US_unple_nomask	acq3_nomask	3	12	453	1	300	300	0	0	449	50	0	0	retten	spielen	schlau	treu	schön	fair	rächen	strafen	schroff	tot	schlecht	faul	freundlich	helfen	ehrlich	lachen	loyal	tolerant	fanatisch	hindern	eitel	leiden	lasch	tyrannisch	1	blank2r.bmp	0	1	+	0	1	blank2r.bmp	500	1	GKQX	500	1	blank2r.bmp	880	2	strafen	880	1	FEHLER	1643	1	!	1292	1	!	1350	0	0	0
2024-05-15	15:52:07	15:56:59	292488	6.6.1	4_exp_EVA_AWA_CON	38	B	A	Rpleas_acq	Oppo	Rpleas	1pleas	acq_US_unple_nomask	acq3_nomask	3	13	453	0	300	300	0	0	594	46	1	0	retten	spielen	schlau	treu	schön	fair	rächen	strafen	schroff	tot	schlecht	faul	freundlich	helfen	ehrlich	lachen	loyal	tolerant	fanatisch	hindern	eitel	leiden	lasch	tyrannisch	1	blank2r.bmp	0	1	+	0	1	blank2r.bmp	500	1	GKQX	500	1	blank2r.bmp	880	6	faul	880	1	!	1292	1	!	-1	0	0	0	0	0	0
2024-05-15	15:52:07	15:57:02	295011	6.6.1	4_exp_EVA_AWA_CON	38	B	A	Rpleas_acq	Oppo	Rpleas	1pleas	acq_US_unple_nomask	acq3_nomask	3	14	453	0	300	300	0	0	542	50	0	0	retten	spielen	schlau	treu	schön	fair	rächen	strafen	schroff	tot	schlecht	faul	freundlich	helfen	ehrlich	lachen	loyal	tolerant	fanatisch	hindern	eitel	leiden	lasch	tyrannisch	1	blank2r.bmp	0	1	+	0	1	blank2r.bmp	500	1	GKQX	500	1	blank2r.bmp	880	5	schlecht	880	1	FEHLER	1735	1	!	1293	1	!	-1	0	0	0
2024-05-15	15:52:07	15:57:04	297160	6.6.1	4_exp_EVA_AWA_CON	38	B	A	Rpleas_acq	Oppo	Rpleas	1pleas	acq_US_pleas_nomask	acq3_nomask	3	15	453	0	300	300	0	0	572	50	1	0	retten	spielen	schlau	treu	schön	fair	rächen	strafen	schroff	tot	schlecht	faul	freundlich	helfen	ehrlich	lachen	loyal	tolerant	fanatisch	hindern	eitel	leiden	lasch	tyrannisch	1	blank2r.bmp	0	1	+	0	1	blank2r.bmp	500	1	BMVZ	500	1	blank2r.bmp	880	1	retten	880	1	!	1292	1	!	-1	0	0	0	0	0	0
2024-05-15	15:52:07	15:57:06	299463	6.6.1	4_exp_EVA_AWA_CON	38	B	A	Rpleas_acq	Oppo	Rpleas	1pleas	acq_US_unple_nomask	acq3_nomask	3	16	453	0	300	300	0	0	525	46	1	0	retten	spielen	schlau	treu	schön	fair	rächen	strafen	schroff	tot	schlecht	faul	freundlich	helfen	ehrlich	lachen	loyal	tolerant	fanatisch	hindern	eitel	leiden	lasch	tyrannisch	1	blank2r.bmp	0	1	+	0	1	blank2r.bmp	500	1	GKQX	500	1	blank2r.bmp	880	3	schroff	880	1	!	1292	1	!	-1	0	0	0	0	0	0
2024-05-15	15:52:07	15:57:09	301889	6.6.1	4_exp_EVA_AWA_CON	38	B	A	Rpleas_acq	Oppo	Rpleas	1pleas	acq_US_unple_nomask	acq3_nomask	3	17	453	0	300	300	0	0	648	46	1	0	retten	spielen	schlau	treu	schön	fair	rächen	strafen	schroff	tot	schlecht	faul	freundlich	helfen	ehrlich	lachen	loyal	tolerant	fanatisch	hindern	eitel	leiden	lasch	tyrannisch	1	blank2r.bmp	0	1	+	0	1	blank2r.bmp	500	1	GKQX	500	1	blank2r.bmp	880	1	rächen	880	1	!	1292	1	!	-1	0	0	0	0	0	0
2024-05-15	15:52:07	15:57:11	304163	6.6.1	4_exp_EVA_AWA_CON	38	B	A	Rpleas_acq	Oppo	Rpleas	1pleas	acq_US_pleas_nomask	acq3_nomask	3	18	453	1	300	300	0	0	498	50	1	0	retten	spielen	schlau	treu	schön	fair	rächen	strafen	schroff	tot	schlecht	faul	freundlich	helfen	ehrlich	lachen	loyal	tolerant	fanatisch	hindern	eitel	leiden	lasch	tyrannisch	1	blank2r.bmp	0	1	+	0	1	blank2r.bmp	500	1	BMVZ	500	1	blank2r.bmp	880	5	schön	880	1	!	1293	1	!	1399	0	0	0	0	0	0
2024-05-15	15:52:07	15:57:13	306556	6.6.1	4_exp_EVA_AWA_CON	38	B	A	Rpleas_acq	Oppo	Rpleas	1pleas	acq_US_unple_nomask	acq3_nomask	3	19	453	1	300	300	0	0	408	50	0	0	retten	spielen	schlau	treu	schön	fair	rächen	strafen	schroff	tot	schlecht	faul	freundlich	helfen	ehrlich	lachen	loyal	tolerant	fanatisch	hindern	eitel	leiden	lasch	tyrannisch	1	blank2r.bmp	0	1	+	0	1	blank2r.bmp	500	1	GKQX	500	1	blank2r.bmp	880	4	tot	880	1	FEHLER	1602	1	!	1292	1	!	1310	0	0	0
2024-05-15	15:52:07	15:57:16	308688	6.6.1	4_exp_EVA_AWA_CON	38	B	A	Rpleas_acq	Oppo	Rpleas	1pleas	acq_US_pleas_nomask	acq3_nomask	3	20	453	0	300	300	0	0	553	50	1	0	retten	spielen	schlau	treu	schön	fair	rächen	strafen	schroff	tot	schlecht	faul	freundlich	helfen	ehrlich	lachen	loyal	tolerant	fanatisch	hindern	eitel	leiden	lasch	tyrannisch	1	blank2r.bmp	0	1	+	0	1	blank2r.bmp	500	1	BMVZ	500	1	blank2r.bmp	880	6	fair	880	1	!	1292	1	!	-1	0	0	0	0	0	0
2024-05-15	15:52:07	15:57:18	311032	6.6.1	4_exp_EVA_AWA_CON	38	B	A	Rpleas_acq	Oppo	Rpleas	1pleas	acq_US_pleas_nomask	acq3_nomask	3	21	453	0	300	300	0	0	566	50	1	0	retten	spielen	schlau	treu	schön	fair	rächen	strafen	schroff	tot	schlecht	faul	freundlich	helfen	ehrlich	lachen	loyal	tolerant	fanatisch	hindern	eitel	leiden	lasch	tyrannisch	1	blank2r.bmp	0	1	+	0	1	blank2r.bmp	500	1	BMVZ	500	1	blank2r.bmp	880	4	treu	880	1	!	1293	1	!	-1	0	0	0	0	0	0
2024-05-15	15:52:07	15:57:20	313251	6.6.1	4_exp_EVA_AWA_CON	38	B	A	Rpleas_acq	Oppo	Rpleas	1pleas	acq_US_pleas_nomask	acq3_nomask	3	22	453	1	300	300	0	0	440	50	1	0	retten	spielen	schlau	treu	schön	fair	rächen	strafen	schroff	tot	schlecht	faul	freundlich	helfen	ehrlich	lachen	loyal	tolerant	fanatisch	hindern	eitel	leiden	lasch	tyrannisch	1	blank2r.bmp	0	1	+	0	1	blank2r.bmp	500	1	BMVZ	500	1	blank2r.bmp	880	2	spielen	880	1	!	1292	1	!	1342	0	0	0	0	0	0
2024-05-15	15:52:07	15:57:22	315611	6.6.1	4_exp_EVA_AWA_CON	38	B	A	Rpleas_acq	Oppo	Rpleas	1pleas	acq_US_pleas_nomask	acq3_nomask	3	23	453	0	300	300	0	0	379	46	0	0	retten	spielen	schlau	treu	schön	fair	rächen	strafen	schroff	tot	schlecht	faul	freundlich	helfen	ehrlich	lachen	loyal	tolerant	fanatisch	hindern	eitel	leiden	lasch	tyrannisch	1	blank2r.bmp	0	1	+	0	1	blank2r.bmp	500	1	BMVZ	500	1	blank2r.bmp	880	3	schlau	880	1	FEHLER	1572	1	!	-1	1	!	-1	0	0	0
2024-05-15	15:52:07	15:57:25	317760	6.6.1	4_exp_EVA_AWA_CON	38	B	A	Rpleas_acq	Oppo	Rpleas	1pleas	acq_US_unple_nomask	acq3_nomask	3	24	453	0	300	300	0	0	579	46	1	0	retten	spielen	schlau	treu	schön	fair	rächen	strafen	schroff	tot	schlecht	faul	freundlich	helfen	ehrlich	lachen	loyal	tolerant	fanatisch	hindern	eitel	leiden	lasch	tyrannisch	1	blank2r.bmp	0	1	+	0	1	blank2r.bmp	500	1	GKQX	500	1	blank2r.bmp	880	2	strafen	880	1	!	1292	1	!	-1	0	0	0	0	0	0
2024-05-15	15:52:07	15:57:27	320113	6.6.1	4_exp_EVA_AWA_CON	38	B	A	Rpleas_acq	Oppo	Rpleas	1pleas	acq_US_unple_nomask	acq3_nomask	3	25	453	0	300	300	0	0	580	46	1	0	retten	spielen	schlau	treu	schön	fair	rächen	strafen	schroff	tot	schlecht	faul	freundlich	helfen	ehrlich	lachen	loyal	tolerant	fanatisch	hindern	eitel	leiden	lasch	tyrannisch	1	blank2r.bmp	0	1	+	0	1	blank2r.bmp	500	1	GKQX	500	1	blank2r.bmp	880	5	schlecht	880	1	!	1293	1	!	-1	0	0	0	0	0	0
2024-05-15	15:52:07	15:57:29	322545	6.6.1	4_exp_EVA_AWA_CON	38	B	A	Rpleas_acq	Oppo	Rpleas	1pleas	acq_US_unple_nomask	acq3_nomask	3	26	453	0	300	300	0	0	650	46	1	0	retten	spielen	schlau	treu	schön	fair	rächen	strafen	schroff	tot	schlecht	faul	freundlich	helfen	ehrlich	lachen	loyal	tolerant	fanatisch	hindern	eitel	leiden	lasch	tyrannisch	1	blank2r.bmp	0	1	+	0	1	blank2r.bmp	500	1	GKQX	500	1	blank2r.bmp	880	2	strafen	880	1	!	1292	1	!	-1	0	0	0	0	0	0
2024-05-15	15:52:07	15:57:32	325050	6.6.1	4_exp_EVA_AWA_CON	38	B	A	Rpleas_acq	Oppo	Rpleas	1pleas	acq_US_unple_nomask	acq3_nomask	3	27	453	0	300	300	0	0	523	50	0	0	retten	spielen	schlau	treu	schön	fair	rächen	strafen	schroff	tot	schlecht	faul	freundlich	helfen	ehrlich	lachen	loyal	tolerant	fanatisch	hindern	eitel	leiden	lasch	tyrannisch	1	blank2r.bmp	0	1	+	0	1	blank2r.bmp	500	1	GKQX	500	1	blank2r.bmp	880	6	faul	880	1	FEHLER	1715	1	!	1293	1	!	-1	0	0	0
2024-05-15	15:52:07	15:57:34	327200	6.6.1	4_exp_EVA_AWA_CON	38	B	A	Rpleas_acq	Oppo	Rpleas	1pleas	acq_US_unple_nomask	acq3_nomask	3	28	453	0	300	300	0	0	573	46	1	0	retten	spielen	schlau	treu	schön	fair	rächen	strafen	schroff	tot	schlecht	faul	freundlich	helfen	ehrlich	lachen	loyal	tolerant	fanatisch	hindern	eitel	leiden	lasch	tyrannisch	1	blank2r.bmp	0	1	+	0	1	blank2r.bmp	500	1	GKQX	500	1	blank2r.bmp	880	1	rächen	880	1	!	1292	1	!	-1	0	0	0	0	0	0
2024-05-15	15:52:07	15:57:36	329560	6.6.1	4_exp_EVA_AWA_CON	38	B	A	Rpleas_acq	Oppo	Rpleas	1pleas	acq_US_pleas_nomask	acq3_nomask	3	29	453	0	300	300	0	0	582	50	1	0	retten	spielen	schlau	treu	schön	fair	rächen	strafen	schroff	tot	schlecht	faul	freundlich	helfen	ehrlich	lachen	loyal	tolerant	fanatisch	hindern	eitel	leiden	lasch	tyrannisch	1	blank2r.bmp	0	1	+	0	1	blank2r.bmp	500	1	BMVZ	500	1	blank2r.bmp	880	1	retten	880	1	!	1292	1	!	-1	0	0	0	0	0	0
2024-05-15	15:52:07	15:57:39	331896	6.6.1	4_exp_EVA_AWA_CON	38	B	A	Rpleas_acq	Oppo	Rpleas	1pleas	acq_US_pleas_nomask	acq3_nomask	3	30	453	0	300	300	0	0	556	50	1	0	retten	spielen	schlau	treu	schön	fair	rächen	strafen	schroff	tot	schlecht	faul	freundlich	helfen	ehrlich	lachen	loyal	tolerant	fanatisch	hindern	eitel	leiden	lasch	tyrannisch	1	blank2r.bmp	0	1	+	0	1	blank2r.bmp	500	1	BMVZ	500	1	blank2r.bmp	880	4	treu	880	1	!	1292	1	!	-1	0	0	0	0	0	0
2024-05-15	15:52:07	15:57:41	334162	6.6.1	4_exp_EVA_AWA_CON	38	B	A	Rpleas_acq	Oppo	Rpleas	1pleas	acq_US_pleas_nomask	acq3_nomask	3	31	453	1	300	300	0	0	489	50	1	0	retten	spielen	schlau	treu	schön	fair	rächen	strafen	schroff	tot	schlecht	faul	freundlich	helfen	ehrlich	lachen	loyal	tolerant	fanatisch	hindern	eitel	leiden	lasch	tyrannisch	1	blank2r.bmp	0	1	+	0	1	blank2r.bmp	500	1	BMVZ	500	1	blank2r.bmp	880	5	schön	880	1	!	1293	1	!	1390	0	0	0	0	0	0
2024-05-15	15:52:07	15:57:43	336378	6.6.1	4_exp_EVA_AWA_CON	38	B	A	Rpleas_acq	Oppo	Rpleas	1pleas	acq_US_unple_nomask	acq3_nomask	3	32	453	1	300	300	0	0	433	46	1	0	retten	spielen	schlau	treu	schön	fair	rächen	strafen	schroff	tot	schlecht	faul	freundlich	helfen	ehrlich	lachen	loyal	tolerant	fanatisch	hindern	eitel	leiden	lasch	tyrannisch	1	blank2r.bmp	0	1	+	0	1	blank2r.bmp	500	1	GKQX	500	1	blank2r.bmp	880	4	tot	880	1	!	1292	1	!	1335	0	0	0	0	0	0
2024-05-15	15:52:07	15:57:46	338745	6.6.1	4_exp_EVA_AWA_CON	38	B	A	Rpleas_acq	Oppo	Rpleas	1pleas	acq_US_pleas_nomask	acq3_nomask	3	33	453	0	300	300	0	0	590	50	1	0	retten	spielen	schlau	treu	schön	fair	rächen	strafen	schroff	tot	schlecht	faul	freundlich	helfen	ehrlich	lachen	loyal	tolerant	fanatisch	hindern	eitel	leiden	lasch	tyrannisch	1	blank2r.bmp	0	1	+	0	1	blank2r.bmp	500	1	BMVZ	500	1	blank2r.bmp	880	6	fair	880	1	!	1292	1	!	-1	0	0	0	0	0	0
2024-05-15	15:52:07	15:57:48	340987	6.6.1	4_exp_EVA_AWA_CON	38	B	A	Rpleas_acq	Oppo	Rpleas	1pleas	acq_US_unple_nomask	acq3_nomask	3	34	453	1	300	300	0	0	458	46	1	0	retten	spielen	schlau	treu	schön	fair	rächen	strafen	schroff	tot	schlecht	faul	freundlich	helfen	ehrlich	lachen	loyal	tolerant	fanatisch	hindern	eitel	leiden	lasch	tyrannisch	1	blank2r.bmp	0	1	+	0	1	blank2r.bmp	500	1	GKQX	500	1	blank2r.bmp	880	3	schroff	880	1	!	1293	1	!	1360	0	0	0	0	0	0
2024-05-15	15:52:07	15:57:50	343312	6.6.1	4_exp_EVA_AWA_CON	38	B	A	Rpleas_acq	Oppo	Rpleas	1pleas	acq_US_pleas_nomask	acq3_nomask	3	35	453	0	300	300	0	0	545	50	1	0	retten	spielen	schlau	treu	schön	fair	rächen	strafen	schroff	tot	schlecht	faul	freundlich	helfen	ehrlich	lachen	loyal	tolerant	fanatisch	hindern	eitel	leiden	lasch	tyrannisch	1	blank2r.bmp	0	1	+	0	1	blank2r.bmp	500	1	BMVZ	500	1	blank2r.bmp	880	2	spielen	880	1	!	1292	1	!	-1	0	0	0	0	0	0
2024-05-15	15:52:07	15:57:52	345615	6.6.1	4_exp_EVA_AWA_CON	38	B	A	Rpleas_acq	Oppo	Rpleas	1pleas	acq_US_pleas_nomask	acq3_nomask	3	36	453	0	300	300	0	0	527	50	1	0	retten	spielen	schlau	treu	schön	fair	rächen	strafen	schroff	tot	schlecht	faul	freundlich	helfen	ehrlich	lachen	loyal	tolerant	fanatisch	hindern	eitel	leiden	lasch	tyrannisch	1	blank2r.bmp	0	1	+	0	1	blank2r.bmp	500	1	BMVZ	500	1	blank2r.bmp	880	3	schlau	880	1	!	1292	1	!	-1	0	0	0	0	0	0
2024-05-15	15:52:07	15:58:05	358024	6.6.1	4_exp_EVA_AWA_CON	38	B	A	Rpleas_acq	Oppo	Rpleas	1pleas	acq_US_unple_nomask	acq45_nomask	4	1	400	0	300	300	0	0	638	46	1	0	retten	spielen	schlau	treu	schön	fair	rächen	strafen	schroff	tot	schlecht	faul	freundlich	helfen	ehrlich	lachen	loyal	tolerant	fanatisch	hindern	eitel	leiden	lasch	tyrannisch	1	blank2r.bmp	0	1	+	0	1	blank2r.bmp	500	1	GKQX	500	1	blank2r.bmp	880	5	schlecht	880	1	!	1233	1	!	-1	0	0	0	0	0	0
2024-05-15	15:52:07	15:58:07	360344	6.6.1	4_exp_EVA_AWA_CON	38	B	A	Rpleas_acq	Oppo	Rpleas	1pleas	acq_US_unple_nomask	acq45_nomask	4	2	400	0	300	300	0	0	546	46	1	0	retten	spielen	schlau	treu	schön	fair	rächen	strafen	schroff	tot	schlecht	faul	freundlich	helfen	ehrlich	lachen	loyal	tolerant	fanatisch	hindern	eitel	leiden	lasch	tyrannisch	1	blank2r.bmp	0	1	+	0	1	blank2r.bmp	500	1	GKQX	500	1	blank2r.bmp	880	1	rächen	880	1	!	1232	1	!	-1	0	0	0	0	0	0
2024-05-15	15:52:07	15:58:09	362506	6.6.1	4_exp_EVA_AWA_CON	38	B	A	Rpleas_acq	Oppo	Rpleas	1pleas	acq_US_pleas_nomask	acq45_nomask	4	3	400	1	300	300	0	0	385	50	1	0	retten	spielen	schlau	treu	schön	fair	rächen	strafen	schroff	tot	schlecht	faul	freundlich	helfen	ehrlich	lachen	loyal	tolerant	fanatisch	hindern	eitel	leiden	lasch	tyrannisch	1	blank2r.bmp	0	1	+	0	1	blank2r.bmp	500	1	BMVZ	500	1	blank2r.bmp	880	4	treu	880	1	!	1232	1	!	1286	0	0	0	0	0	0
2024-05-15	15:52:07	15:58:12	364690	6.6.1	4_exp_EVA_AWA_CON	38	B	A	Rpleas_acq	Oppo	Rpleas	1pleas	acq_US_pleas_nomask	acq45_nomask	4	4	400	1	300	300	0	0	407	46	0	0	retten	spielen	schlau	treu	schön	fair	rächen	strafen	schroff	tot	schlecht	faul	freundlich	helfen	ehrlich	lachen	loyal	tolerant	fanatisch	hindern	eitel	leiden	lasch	tyrannisch	1	blank2r.bmp	0	1	+	0	1	blank2r.bmp	500	1	BMVZ	500	1	blank2r.bmp	880	1	retten	880	1	!	1232	1	!	1308	0	0	0	0	0	0
2024-05-15	15:52:07	15:58:14	366898	6.6.1	4_exp_EVA_AWA_CON	38	B	A	Rpleas_acq	Oppo	Rpleas	1pleas	acq_US_unple_nomask	acq45_nomask	4	5	400	1	300	300	0	0	424	46	1	0	retten	spielen	schlau	treu	schön	fair	rächen	strafen	schroff	tot	schlecht	faul	freundlich	helfen	ehrlich	lachen	loyal	tolerant	fanatisch	hindern	eitel	leiden	lasch	tyrannisch	1	blank2r.bmp	0	1	+	0	1	blank2r.bmp	500	1	GKQX	500	1	blank2r.bmp	880	6	faul	880	1	!	1232	1	!	1325	0	0	0	0	0	0
2024-05-15	15:52:07	15:58:16	369035	6.6.1	4_exp_EVA_AWA_CON	38	B	A	Rpleas_acq	Oppo	Rpleas	1pleas	acq_US_pleas_nomask	acq45_nomask	4	6	400	1	300	300	0	0	358	50	1	0	retten	spielen	schlau	treu	schön	fair	rächen	strafen	schroff	tot	schlecht	faul	freundlich	helfen	ehrlich	lachen	loyal	tolerant	fanatisch	hindern	eitel	leiden	lasch	tyrannisch	1	blank2r.bmp	0	1	+	0	1	blank2r.bmp	500	1	BMVZ	500	1	blank2r.bmp	880	2	spielen	880	1	!	1233	1	!	1260	0	0	0	0	0	0
2024-05-15	15:52:07	15:58:18	371266	6.6.1	4_exp_EVA_AWA_CON	38	B	A	Rpleas_acq	Oppo	Rpleas	1pleas	acq_US_pleas_nomask	acq45_nomask	4	7	400	1	300	300	0	0	449	50	1	0	retten	spielen	schlau	treu	schön	fair	rächen	strafen	schroff	tot	schlecht	faul	freundlich	helfen	ehrlich	lachen	loyal	tolerant	fanatisch	hindern	eitel	leiden	lasch	tyrannisch	1	blank2r.bmp	0	1	+	0	1	blank2r.bmp	500	1	BMVZ	500	1	blank2r.bmp	880	6	fair	880	1	!	1232	1	!	1350	0	0	0	0	0	0
2024-05-15	15:52:07	15:58:20	373608	6.6.1	4_exp_EVA_AWA_CON	38	B	A	Rpleas_acq	Oppo	Rpleas	1pleas	acq_US_unple_nomask	acq45_nomask	4	8	400	0	300	300	0	0	562	46	1	0	retten	spielen	schlau	treu	schön	fair	rächen	strafen	schroff	tot	schlecht	faul	freundlich	helfen	ehrlich	lachen	loyal	tolerant	fanatisch	hindern	eitel	leiden	lasch	tyrannisch	1	blank2r.bmp	0	1	+	0	1	blank2r.bmp	500	1	GKQX	500	1	blank2r.bmp	880	4	tot	880	1	!	1232	1	!	-1	0	0	0	0	0	0
2024-05-15	15:52:07	15:58:23	375739	6.6.1	4_exp_EVA_AWA_CON	38	B	A	Rpleas_acq	Oppo	Rpleas	1pleas	acq_US_pleas_nomask	acq45_nomask	4	9	400	1	300	300	0	0	348	50	1	0	retten	spielen	schlau	treu	schön	fair	rächen	strafen	schroff	tot	schlecht	faul	freundlich	helfen	ehrlich	lachen	loyal	tolerant	fanatisch	hindern	eitel	leiden	lasch	tyrannisch	1	blank2r.bmp	0	1	+	0	1	blank2r.bmp	500	1	BMVZ	500	1	blank2r.bmp	880	5	schön	880	1	!	1232	1	!	1249	0	0	0	0	0	0
2024-05-15	15:52:07	15:58:25	377999	6.6.1	4_exp_EVA_AWA_CON	38	B	A	Rpleas_acq	Oppo	Rpleas	1pleas	acq_US_pleas_nomask	acq45_nomask	4	10	400	0	300	300	0	0	481	46	0	0	retten	spielen	schlau	treu	schön	fair	rächen	strafen	schroff	tot	schlecht	faul	freundlich	helfen	ehrlich	lachen	loyal	tolerant	fanatisch	hindern	eitel	leiden	lasch	tyrannisch	1	blank2r.bmp	0	1	+	0	1	blank2r.bmp	500	1	BMVZ	500	1	blank2r.bmp	880	3	schlau	880	1	!	1232	1	!	-1	0	0	0	0	0	0
2024-05-15	15:52:07	15:58:27	380210	6.6.1	4_exp_EVA_AWA_CON	38	B	A	Rpleas_acq	Oppo	Rpleas	1pleas	acq_US_unple_nomask	acq45_nomask	4	11	400	1	300	300	0	0	427	46	1	0	retten	spielen	schlau	treu	schön	fair	rächen	strafen	schroff	tot	schlecht	faul	freundlich	helfen	ehrlich	lachen	loyal	tolerant	fanatisch	hindern	eitel	leiden	lasch	tyrannisch	1	blank2r.bmp	0	1	+	0	1	blank2r.bmp	500	1	GKQX	500	1	blank2r.bmp	880	3	schroff	880	1	!	1232	1	!	1328	0	0	0	0	0	0
2024-05-15	15:52:07	15:58:29	382304	6.6.1	4_exp_EVA_AWA_CON	38	B	A	Rpleas_acq	Oppo	Rpleas	1pleas	acq_US_pleas_nomask	acq45_nomask	4	12	400	0	300	300	0	0	322	50	1	0	retten	spielen	schlau	treu	schön	fair	rächen	strafen	schroff	tot	schlecht	faul	freundlich	helfen	ehrlich	lachen	loyal	tolerant	fanatisch	hindern	eitel	leiden	lasch	tyrannisch	1	blank2r.bmp	0	1	+	0	1	blank2r.bmp	500	1	BMVZ	500	1	blank2r.bmp	880	3	schlau	880	1	!	-1	1	!	-1	0	0	0	0	0	0
2024-05-15	15:52:07	15:58:32	384760	6.6.1	4_exp_EVA_AWA_CON	38	B	A	Rpleas_acq	Oppo	Rpleas	1pleas	acq_US_unple_nomask	acq45_nomask	4	13	400	0	300	300	0	0	676	46	1	0	retten	spielen	schlau	treu	schön	fair	rächen	strafen	schroff	tot	schlecht	faul	freundlich	helfen	ehrlich	lachen	loyal	tolerant	fanatisch	hindern	eitel	leiden	lasch	tyrannisch	1	blank2r.bmp	0	1	+	0	1	blank2r.bmp	500	1	GKQX	500	1	blank2r.bmp	880	2	strafen	880	1	!	1232	1	!	-1	0	0	0	0	0	0
2024-05-15	15:52:07	15:58:34	386970	6.6.1	4_exp_EVA_AWA_CON	38	B	A	Rpleas_acq	Oppo	Rpleas	1pleas	acq_US_unple_nomask	acq45_nomask	4	14	400	1	300	300	0	0	433	46	1	0	retten	spielen	schlau	treu	schön	fair	rächen	strafen	schroff	tot	schlecht	faul	freundlich	helfen	ehrlich	lachen	loyal	tolerant	fanatisch	hindern	eitel	leiden	lasch	tyrannisch	1	blank2r.bmp	0	1	+	0	1	blank2r.bmp	500	1	GKQX	500	1	blank2r.bmp	880	2	strafen	880	1	!	1232	1	!	1334	0	0	0	0	0	0
2024-05-15	15:52:07	15:58:36	389154	6.6.1	4_exp_EVA_AWA_CON	38	B	A	Rpleas_acq	Oppo	Rpleas	1pleas	acq_US_pleas_nomask	acq45_nomask	4	15	400	1	300	300	0	0	405	50	1	0	retten	spielen	schlau	treu	schön	fair	rächen	strafen	schroff	tot	schlecht	faul	freundlich	helfen	ehrlich	lachen	loyal	tolerant	fanatisch	hindern	eitel	leiden	lasch	tyrannisch	1	blank2r.bmp	0	1	+	0	1	blank2r.bmp	500	1	BMVZ	500	1	blank2r.bmp	880	6	fair	880	1	!	1232	1	!	1307	0	0	0	0	0	0
2024-05-15	15:52:07	15:58:38	391371	6.6.1	4_exp_EVA_AWA_CON	38	B	A	Rpleas_acq	Oppo	Rpleas	1pleas	acq_US_unple_nomask	acq45_nomask	4	16	400	1	300	300	0	0	440	46	1	0	retten	spielen	schlau	treu	schön	fair	rächen	strafen	schroff	tot	schlecht	faul	freundlich	helfen	ehrlich	lachen	loyal	tolerant	fanatisch	hindern	eitel	leiden	lasch	tyrannisch	1	blank2r.bmp	0	1	+	0	1	blank2r.bmp	500	1	GKQX	500	1	blank2r.bmp	880	5	schlecht	880	1	!	1232	1	!	1342	0	0	0	0	0	0
2024-05-15	15:52:07	15:58:40	393586	6.6.1	4_exp_EVA_AWA_CON	38	B	A	Rpleas_acq	Oppo	Rpleas	1pleas	acq_US_unple_nomask	acq45_nomask	4	17	400	1	300	300	0	0	435	46	1	0	retten	spielen	schlau	treu	schön	fair	rächen	strafen	schroff	tot	schlecht	faul	freundlich	helfen	ehrlich	lachen	loyal	tolerant	fanatisch	hindern	eitel	leiden	lasch	tyrannisch	1	blank2r.bmp	0	1	+	0	1	blank2r.bmp	500	1	GKQX	500	1	blank2r.bmp	880	4	tot	880	1	!	1232	1	!	1336	0	0	0	0	0	0
2024-05-15	15:52:07	15:58:43	395754	6.6.1	4_exp_EVA_AWA_CON	38	B	A	Rpleas_acq	Oppo	Rpleas	1pleas	acq_US_pleas_nomask	acq45_nomask	4	18	400	1	300	300	0	0	391	50	1	0	retten	spielen	schlau	treu	schön	fair	rächen	strafen	schroff	tot	schlecht	faul	freundlich	helfen	ehrlich	lachen	loyal	tolerant	fanatisch	hindern	eitel	leiden	lasch	tyrannisch	1	blank2r.bmp	0	1	+	0	1	blank2r.bmp	500	1	BMVZ	500	1	blank2r.bmp	880	1	retten	880	1	!	1232	1	!	1292	0	0	0	0	0	0
2024-05-15	15:52:07	15:58:45	398024	6.6.1	4_exp_EVA_AWA_CON	38	B	A	Rpleas_acq	Oppo	Rpleas	1pleas	acq_US_pleas_nomask	acq45_nomask	4	19	400	0	300	300	0	0	492	50	1	0	retten	spielen	schlau	treu	schön	fair	rächen	strafen	schroff	tot	schlecht	faul	freundlich	helfen	ehrlich	lachen	loyal	tolerant	fanatisch	hindern	eitel	leiden	lasch	tyrannisch	1	blank2r.bmp	0	1	+	0	1	blank2r.bmp	500	1	BMVZ	500	1	blank2r.bmp	880	4	treu	880	1	!	1232	1	!	-1	0	0	0	0	0	0
2024-05-15	15:52:07	15:58:47	400235	6.6.1	4_exp_EVA_AWA_CON	38	B	A	Rpleas_acq	Oppo	Rpleas	1pleas	acq_US_pleas_nomask	acq45_nomask	4	20	400	1	300	300	0	0	428	50	1	0	retten	spielen	schlau	treu	schön	fair	rächen	strafen	schroff	tot	schlecht	faul	freundlich	helfen	ehrlich	lachen	loyal	tolerant	fanatisch	hindern	eitel	leiden	lasch	tyrannisch	1	blank2r.bmp	0	1	+	0	1	blank2r.bmp	500	1	BMVZ	500	1	blank2r.bmp	880	5	schön	880	1	!	1232	1	!	1330	0	0	0	0	0	0
2024-05-15	15:52:07	15:58:49	402434	6.6.1	4_exp_EVA_AWA_CON	38	B	A	Rpleas_acq	Oppo	Rpleas	1pleas	acq_US_pleas_nomask	acq45_nomask	4	21	400	1	300	300	0	0	417	50	1	0	retten	spielen	schlau	treu	schön	fair	rächen	strafen	schroff	tot	schlecht	faul	freundlich	helfen	ehrlich	lachen	loyal	tolerant	fanatisch	hindern	eitel	leiden	lasch	tyrannisch	1	blank2r.bmp	0	1	+	0	1	blank2r.bmp	500	1	BMVZ	500	1	blank2r.bmp	880	2	spielen	880	1	!	1232	1	!	1318	0	0	0	0	0	0
2024-05-15	15:52:07	15:58:51	404619	6.6.1	4_exp_EVA_AWA_CON	38	B	A	Rpleas_acq	Oppo	Rpleas	1pleas	acq_US_pleas_nomask	acq45_nomask	4	22	400	1	300	300	0	0	409	46	0	0	retten	spielen	schlau	treu	schön	fair	rächen	strafen	schroff	tot	schlecht	faul	freundlich	helfen	ehrlich	lachen	loyal	tolerant	fanatisch	hindern	eitel	leiden	lasch	tyrannisch	1	blank2r.bmp	0	1	+	0	1	blank2r.bmp	500	1	BMVZ	500	1	blank2r.bmp	880	1	retten	880	1	!	1232	1	!	1311	0	0	0	0	0	0
2024-05-15	15:52:07	15:58:54	406771	6.6.1	4_exp_EVA_AWA_CON	38	B	A	Rpleas_acq	Oppo	Rpleas	1pleas	acq_US_pleas_nomask	acq45_nomask	4	23	400	1	300	300	0	0	370	50	1	0	retten	spielen	schlau	treu	schön	fair	rächen	strafen	schroff	tot	schlecht	faul	freundlich	helfen	ehrlich	lachen	loyal	tolerant	fanatisch	hindern	eitel	leiden	lasch	tyrannisch	1	blank2r.bmp	0	1	+	0	1	blank2r.bmp	500	1	BMVZ	500	1	blank2r.bmp	880	5	schön	880	1	!	1232	1	!	1272	0	0	0	0	0	0
2024-05-15	15:52:07	15:58:56	408986	6.6.1	4_exp_EVA_AWA_CON	38	B	A	Rpleas_acq	Oppo	Rpleas	1pleas	acq_US_unple_nomask	acq45_nomask	4	24	400	1	300	300	0	0	435	46	1	0	retten	spielen	schlau	treu	schön	fair	rächen	strafen	schroff	tot	schlecht	faul	freundlich	helfen	ehrlich	lachen	loyal	tolerant	fanatisch	hindern	eitel	leiden	lasch	tyrannisch	1	blank2r.bmp	0	1	+	0	1	blank2r.bmp	500	1	GKQX	500	1	blank2r.bmp	880	1	rächen	880	1	!	1232	1	!	1336	0	0	0	0	0	0
2024-05-15	15:52:07	15:58:58	411272	6.6.1	4_exp_EVA_AWA_CON	38	B	A	Rpleas_acq	Oppo	Rpleas	1pleas	acq_US_unple_nomask	acq45_nomask	4	25	400	0	300	300	0	0	511	50	0	0	retten	spielen	schlau	treu	schön	fair	rächen	strafen	schroff	tot	schlecht	faul	freundlich	helfen	ehrlich	lachen	loyal	tolerant	fanatisch	hindern	eitel	leiden	lasch	tyrannisch	1	blank2r.bmp	0	1	+	0	1	blank2r.bmp	500	1	GKQX	500	1	blank2r.bmp	880	3	schroff	880	1	!	1233	1	!	-1	0	0	0	0	0	0
2024-05-15	15:52:07	15:59:00	413458	6.6.1	4_exp_EVA_AWA_CON	38	B	A	Rpleas_acq	Oppo	Rpleas	1pleas	acq_US_unple_nomask	acq45_nomask	4	26	400	1	300	300	0	0	404	50	0	0	retten	spielen	schlau	treu	schön	fair	rächen	strafen	schroff	tot	schlecht	faul	freundlich	helfen	ehrlich	lachen	loyal	tolerant	fanatisch	hindern	eitel	leiden	lasch	tyrannisch	1	blank2r.bmp	0	1	+	0	1	blank2r.bmp	500	1	GKQX	500	1	blank2r.bmp	880	6	faul	880	1	!	1232	1	!	1305	0	0	0	0	0	0
2024-05-15	15:52:07	15:59:02	415618	6.6.1	4_exp_EVA_AWA_CON	38	B	A	Rpleas_acq	Oppo	Rpleas	1pleas	acq_US_unple_nomask	acq45_nomask	4	27	400	1	300	300	0	0	382	50	0	0	retten	spielen	schlau	treu	schön	fair	rächen	strafen	schroff	tot	schlecht	faul	freundlich	helfen	ehrlich	lachen	loyal	tolerant	fanatisch	hindern	eitel	leiden	lasch	tyrannisch	1	blank2r.bmp	0	1	+	0	1	blank2r.bmp	500	1	GKQX	500	1	blank2r.bmp	880	2	strafen	880	1	!	1233	1	!	1284	0	0	0	0	0	0
2024-05-15	15:52:07	15:59:05	417720	6.6.1	4_exp_EVA_AWA_CON	38	B	A	Rpleas_acq	Oppo	Rpleas	1pleas	acq_US_unple_nomask	acq45_nomask	4	28	400	0	300	300	0	0	325	50	0	0	retten	spielen	schlau	treu	schön	fair	rächen	strafen	schroff	tot	schlecht	faul	freundlich	helfen	ehrlich	lachen	loyal	tolerant	fanatisch	hindern	eitel	leiden	lasch	tyrannisch	1	blank2r.bmp	0	1	+	0	1	blank2r.bmp	500	1	GKQX	500	1	blank2r.bmp	880	3	schroff	880	1	!	-1	1	!	-1	0	0	0	0	0	0
2024-05-15	15:52:07	15:59:07	420017	6.6.1	4_exp_EVA_AWA_CON	38	B	A	Rpleas_acq	Oppo	Rpleas	1pleas	acq_US_unple_nomask	acq45_nomask	4	29	400	0	300	300	0	0	520	50	0	0	retten	spielen	schlau	treu	schön	fair	rächen	strafen	schroff	tot	schlecht	faul	freundlich	helfen	ehrlich	lachen	loyal	tolerant	fanatisch	hindern	eitel	leiden	lasch	tyrannisch	1	blank2r.bmp	0	1	+	0	1	blank2r.bmp	500	1	GKQX	500	1	blank2r.bmp	880	5	schlecht	880	1	!	1233	1	!	-1	0	0	0	0	0	0
2024-05-15	15:52:07	15:59:09	422186	6.6.1	4_exp_EVA_AWA_CON	38	B	A	Rpleas_acq	Oppo	Rpleas	1pleas	acq_US_pleas_nomask	acq45_nomask	4	30	400	1	300	300	0	0	386	50	1	0	retten	spielen	schlau	treu	schön	fair	rächen	strafen	schroff	tot	schlecht	faul	freundlich	helfen	ehrlich	lachen	loyal	tolerant	fanatisch	hindern	eitel	leiden	lasch	tyrannisch	1	blank2r.bmp	0	1	+	0	1	blank2r.bmp	500	1	BMVZ	500	1	blank2r.bmp	880	4	treu	880	1	!	1232	1	!	1287	0	0	0	0	0	0
2024-05-15	15:52:07	15:59:11	424439	6.6.1	4_exp_EVA_AWA_CON	38	B	A	Rpleas_acq	Oppo	Rpleas	1pleas	acq_US_unple_nomask	acq45_nomask	4	31	400	0	300	300	0	0	481	46	1	0	retten	spielen	schlau	treu	schön	fair	rächen	strafen	schroff	tot	schlecht	faul	freundlich	helfen	ehrlich	lachen	loyal	tolerant	fanatisch	hindern	eitel	leiden	lasch	tyrannisch	1	blank2r.bmp	0	1	+	0	1	blank2r.bmp	500	1	GKQX	500	1	blank2r.bmp	880	1	rächen	880	1	!	1232	1	!	-1	0	0	0	0	0	0
2024-05-15	15:52:07	15:59:14	426690	6.6.1	4_exp_EVA_AWA_CON	38	B	A	Rpleas_acq	Oppo	Rpleas	1pleas	acq_US_pleas_nomask	acq45_nomask	4	32	400	1	300	300	0	0	467	50	1	0	retten	spielen	schlau	treu	schön	fair	rächen	strafen	schroff	tot	schlecht	faul	freundlich	helfen	ehrlich	lachen	loyal	tolerant	fanatisch	hindern	eitel	leiden	lasch	tyrannisch	1	blank2r.bmp	0	1	+	0	1	blank2r.bmp	500	1	BMVZ	500	1	blank2r.bmp	880	3	schlau	880	1	!	1232	1	!	1369	0	0	0	0	0	0
2024-05-15	15:52:07	15:59:16	428906	6.6.1	4_exp_EVA_AWA_CON	38	B	A	Rpleas_acq	Oppo	Rpleas	1pleas	acq_US_unple_nomask	acq45_nomask	4	33	400	1	300	300	0	0	442	46	1	0	retten	spielen	schlau	treu	schön	fair	rächen	strafen	schroff	tot	schlecht	faul	freundlich	helfen	ehrlich	lachen	loyal	tolerant	fanatisch	hindern	eitel	leiden	lasch	tyrannisch	1	blank2r.bmp	0	1	+	0	1	blank2r.bmp	500	1	GKQX	500	1	blank2r.bmp	880	4	tot	880	1	!	1233	1	!	1343	0	0	0	0	0	0
2024-05-15	15:52:07	15:59:18	431122	6.6.1	4_exp_EVA_AWA_CON	38	B	A	Rpleas_acq	Oppo	Rpleas	1pleas	acq_US_pleas_nomask	acq45_nomask	4	34	400	1	300	300	0	0	437	50	1	0	retten	spielen	schlau	treu	schön	fair	rächen	strafen	schroff	tot	schlecht	faul	freundlich	helfen	ehrlich	lachen	loyal	tolerant	fanatisch	hindern	eitel	leiden	lasch	tyrannisch	1	blank2r.bmp	0	1	+	0	1	blank2r.bmp	500	1	BMVZ	500	1	blank2r.bmp	880	2	spielen	880	1	!	1233	1	!	1338	0	0	0	0	0	0
2024-05-15	15:52:07	15:59:20	433392	6.6.1	4_exp_EVA_AWA_CON	38	B	A	Rpleas_acq	Oppo	Rpleas	1pleas	acq_US_pleas_nomask	acq45_nomask	4	35	400	0	300	300	0	0	497	50	1	0	retten	spielen	schlau	treu	schön	fair	rächen	strafen	schroff	tot	schlecht	faul	freundlich	helfen	ehrlich	lachen	loyal	tolerant	fanatisch	hindern	eitel	leiden	lasch	tyrannisch	1	blank2r.bmp	0	1	+	0	1	blank2r.bmp	500	1	BMVZ	500	1	blank2r.bmp	880	6	fair	880	1	!	1233	1	!	-1	0	0	0	0	0	0
2024-05-15	15:52:07	15:59:22	435626	6.6.1	4_exp_EVA_AWA_CON	38	B	A	Rpleas_acq	Oppo	Rpleas	1pleas	acq_US_unple_nomask	acq45_nomask	4	36	400	1	300	300	0	0	458	46	1	0	retten	spielen	schlau	treu	schön	fair	rächen	strafen	schroff	tot	schlecht	faul	freundlich	helfen	ehrlich	lachen	loyal	tolerant	fanatisch	hindern	eitel	leiden	lasch	tyrannisch	1	blank2r.bmp	0	1	+	0	1	blank2r.bmp	500	1	GKQX	500	1	blank2r.bmp	880	6	faul	880	1	!	1232	1	!	1359	0	0	0	0	0	0
2024-05-15	15:52:07	15:59:38	450888	6.6.1	4_exp_EVA_AWA_CON	38	B	A	Rpleas_acq	Oppo	Rpleas	1pleas	acq_US_pleas_nomask	acq45_nomask	5	1	400	0	300	300	0	0	692	50	1	0	retten	spielen	schlau	treu	schön	fair	rächen	strafen	schroff	tot	schlecht	faul	freundlich	helfen	ehrlich	lachen	loyal	tolerant	fanatisch	hindern	eitel	leiden	lasch	tyrannisch	1	blank2r.bmp	0	1	+	0	1	blank2r.bmp	500	1	BMVZ	500	1	blank2r.bmp	880	4	treu	880	1	!	1232	1	!	-1	0	0	0	0	0	0
2024-05-15	15:52:07	15:59:43	455696	6.6.1	4_exp_EVA_AWA_CON	38	B	A	Rpleas_acq	Oppo	Rpleas	1pleas	acq_US_pleas_nomask	acq45_nomask	5	2	400	0	300	300	0	0	3028	50	1	0	retten	spielen	schlau	treu	schön	fair	rächen	strafen	schroff	tot	schlecht	faul	freundlich	helfen	ehrlich	lachen	loyal	tolerant	fanatisch	hindern	eitel	leiden	lasch	tyrannisch	1	blank2r.bmp	0	1	+	0	1	blank2r.bmp	500	1	BMVZ	500	1	blank2r.bmp	880	1	retten	880	1	!	1232	1	!	-1	0	0	0	0	0	0
2024-05-15	15:52:07	15:59:45	457950	6.6.1	4_exp_EVA_AWA_CON	38	B	A	Rpleas_acq	Oppo	Rpleas	1pleas	acq_US_pleas_nomask	acq45_nomask	5	3	400	0	300	300	0	0	481	50	1	0	retten	spielen	schlau	treu	schön	fair	rächen	strafen	schroff	tot	schlecht	faul	freundlich	helfen	ehrlich	lachen	loyal	tolerant	fanatisch	hindern	eitel	leiden	lasch	tyrannisch	1	blank2r.bmp	0	1	+	0	1	blank2r.bmp	500	1	BMVZ	500	1	blank2r.bmp	880	6	fair	880	1	!	1232	1	!	-1	0	0	0	0	0	0
2024-05-15	15:52:07	15:59:53	465824	6.6.1	4_exp_EVA_AWA_CON	38	B	A	Rpleas_acq	Oppo	Rpleas	1pleas	acq_US_unple_nomask	acq45_nomask	5	4	400	0	300	300	0	0	6102	46	1	0	retten	spielen	schlau	treu	schön	fair	rächen	strafen	schroff	tot	schlecht	faul	freundlich	helfen	ehrlich	lachen	loyal	tolerant	fanatisch	hindern	eitel	leiden	lasch	tyrannisch	1	blank2r.bmp	0	1	+	0	1	blank2r.bmp	500	1	GKQX	500	1	blank2r.bmp	880	3	schroff	880	1	!	1232	1	!	-1	0	0	0	0	0	0
2024-05-15	15:52:07	15:59:55	468169	6.6.1	4_exp_EVA_AWA_CON	38	B	A	Rpleas_acq	Oppo	Rpleas	1pleas	acq_US_unple_nomask	acq45_nomask	5	5	400	0	300	300	0	0	571	50	0	0	retten	spielen	schlau	treu	schön	fair	rächen	strafen	schroff	tot	schlecht	faul	freundlich	helfen	ehrlich	lachen	loyal	tolerant	fanatisch	hindern	eitel	leiden	lasch	tyrannisch	1	blank2r.bmp	0	1	+	0	1	blank2r.bmp	500	1	GKQX	500	1	blank2r.bmp	880	5	schlecht	880	1	!	1233	1	!	-1	0	0	0	0	0	0
2024-05-15	15:52:07	15:59:57	470346	6.6.1	4_exp_EVA_AWA_CON	38	B	A	Rpleas_acq	Oppo	Rpleas	1pleas	acq_US_pleas_nomask	acq45_nomask	5	6	400	1	300	300	0	0	395	50	1	0	retten	spielen	schlau	treu	schön	fair	rächen	strafen	schroff	tot	schlecht	faul	freundlich	helfen	ehrlich	lachen	loyal	tolerant	fanatisch	hindern	eitel	leiden	lasch	tyrannisch	1	blank2r.bmp	0	1	+	0	1	blank2r.bmp	500	1	BMVZ	500	1	blank2r.bmp	880	5	schön	880	1	!	1232	1	!	1296	0	0	0	0	0	0
2024-05-15	15:52:07	15:59:59	472523	6.6.1	4_exp_EVA_AWA_CON	38	B	A	Rpleas_acq	Oppo	Rpleas	1pleas	acq_US_pleas_nomask	acq45_nomask	5	7	400	1	300	300	0	0	400	50	1	0	retten	spielen	schlau	treu	schön	fair	rächen	strafen	schroff	tot	schlecht	faul	freundlich	helfen	ehrlich	lachen	loyal	tolerant	fanatisch	hindern	eitel	leiden	lasch	tyrannisch	1	blank2r.bmp	0	1	+	0	1	blank2r.bmp	500	1	BMVZ	500	1	blank2r.bmp	880	2	spielen	880	1	!	1232	1	!	1302	0	0	0	0	0	0
2024-05-15	15:52:07	16:00:02	474800	6.6.1	4_exp_EVA_AWA_CON	38	B	A	Rpleas_acq	Oppo	Rpleas	1pleas	acq_US_pleas_nomask	acq45_nomask	5	8	400	0	300	300	0	0	499	50	1	0	retten	spielen	schlau	treu	schön	fair	rächen	strafen	schroff	tot	schlecht	faul	freundlich	helfen	ehrlich	lachen	loyal	tolerant	fanatisch	hindern	eitel	leiden	lasch	tyrannisch	1	blank2r.bmp	0	1	+	0	1	blank2r.bmp	500	1	BMVZ	500	1	blank2r.bmp	880	3	schlau	880	1	!	1232	1	!	-1	0	0	0	0	0	0
2024-05-15	15:52:07	16:00:04	477072	6.6.1	4_exp_EVA_AWA_CON	38	B	A	Rpleas_acq	Oppo	Rpleas	1pleas	acq_US_pleas_nomask	acq45_nomask	5	9	400	0	300	300	0	0	499	50	1	0	retten	spielen	schlau	treu	schön	fair	rächen	strafen	schroff	tot	schlecht	faul	freundlich	helfen	ehrlich	lachen	loyal	tolerant	fanatisch	hindern	eitel	leiden	lasch	tyrannisch	1	blank2r.bmp	0	1	+	0	1	blank2r.bmp	500	1	BMVZ	500	1	blank2r.bmp	880	4	treu	880	1	!	1232	1	!	-1	0	0	0	0	0	0
2024-05-15	15:52:07	16:00:06	479210	6.6.1	4_exp_EVA_AWA_CON	38	B	A	Rpleas_acq	Oppo	Rpleas	1pleas	acq_US_unple_nomask	acq45_nomask	5	10	400	1	300	300	0	0	364	46	1	0	retten	spielen	schlau	treu	schön	fair	rächen	strafen	schroff	tot	schlecht	faul	freundlich	helfen	ehrlich	lachen	loyal	tolerant	fanatisch	hindern	eitel	leiden	lasch	tyrannisch	1	blank2r.bmp	0	1	+	0	1	blank2r.bmp	500	1	GKQX	500	1	blank2r.bmp	880	4	tot	880	1	!	1232	1	!	1265	0	0	0	0	0	0
2024-05-15	15:52:07	16:00:08	481434	6.6.1	4_exp_EVA_AWA_CON	38	B	A	Rpleas_acq	Oppo	Rpleas	1pleas	acq_US_pleas_nomask	acq45_nomask	5	11	400	1	300	300	0	0	446	50	1	0	retten	spielen	schlau	treu	schön	fair	rächen	strafen	schroff	tot	schlecht	faul	freundlich	helfen	ehrlich	lachen	loyal	tolerant	fanatisch	hindern	eitel	leiden	lasch	tyrannisch	1	blank2r.bmp	0	1	+	0	1	blank2r.bmp	500	1	BMVZ	500	1	blank2r.bmp	880	1	retten	880	1	!	1233	1	!	1348	0	0	0	0	0	0
2024-05-15	15:52:07	16:00:11	483658	6.6.1	4_exp_EVA_AWA_CON	38	B	A	Rpleas_acq	Oppo	Rpleas	1pleas	acq_US_unple_nomask	acq45_nomask	5	12	400	1	300	300	0	0	449	50	0	0	retten	spielen	schlau	treu	schön	fair	rächen	strafen	schroff	tot	schlecht	faul	freundlich	helfen	ehrlich	lachen	loyal	tolerant	fanatisch	hindern	eitel	leiden	lasch	tyrannisch	1	blank2r.bmp	0	1	+	0	1	blank2r.bmp	500	1	GKQX	500	1	blank2r.bmp	880	2	strafen	880	1	!	1232	1	!	1350	0	0	0	0	0	0
2024-05-15	15:52:07	16:00:13	485866	6.6.1	4_exp_EVA_AWA_CON	38	B	A	Rpleas_acq	Oppo	Rpleas	1pleas	acq_US_unple_nomask	acq45_nomask	5	13	400	1	300	300	0	0	425	46	1	0	retten	spielen	schlau	treu	schön	fair	rächen	strafen	schroff	tot	schlecht	faul	freundlich	helfen	ehrlich	lachen	loyal	tolerant	fanatisch	hindern	eitel	leiden	lasch	tyrannisch	1	blank2r.bmp	0	1	+	0	1	blank2r.bmp	500	1	GKQX	500	1	blank2r.bmp	880	6	faul	880	1	!	1232	1	!	1327	0	0	0	0	0	0
2024-05-15	15:52:07	16:00:15	488128	6.6.1	4_exp_EVA_AWA_CON	38	B	A	Rpleas_acq	Oppo	Rpleas	1pleas	acq_US_unple_nomask	acq45_nomask	5	14	400	0	300	300	0	0	488	46	1	0	retten	spielen	schlau	treu	schön	fair	rächen	strafen	schroff	tot	schlecht	faul	freundlich	helfen	ehrlich	lachen	loyal	tolerant	fanatisch	hindern	eitel	leiden	lasch	tyrannisch	1	blank2r.bmp	0	1	+	0	1	blank2r.bmp	500	1	GKQX	500	1	blank2r.bmp	880	1	rächen	880	1	!	1232	1	!	-1	0	0	0	0	0	0
2024-05-15	15:52:07	16:00:17	490346	6.6.1	4_exp_EVA_AWA_CON	38	B	A	Rpleas_acq	Oppo	Rpleas	1pleas	acq_US_pleas_nomask	acq45_nomask	5	15	400	1	300	300	0	0	443	50	1	0	retten	spielen	schlau	treu	schön	fair	rächen	strafen	schroff	tot	schlecht	faul	freundlich	helfen	ehrlich	lachen	loyal	tolerant	fanatisch	hindern	eitel	leiden	lasch	tyrannisch	1	blank2r.bmp	0	1	+	0	1	blank2r.bmp	500	1	BMVZ	500	1	blank2r.bmp	880	2	spielen	880	1	!	1232	1	!	1344	0	0	0	0	0	0
2024-05-15	15:52:07	16:00:20	492640	6.6.1	4_exp_EVA_AWA_CON	38	B	A	Rpleas_acq	Oppo	Rpleas	1pleas	acq_US_unple_nomask	acq45_nomask	5	16	400	0	300	300	0	0	517	46	1	0	retten	spielen	schlau	treu	schön	fair	rächen	strafen	schroff	tot	schlecht	faul	freundlich	helfen	ehrlich	lachen	loyal	tolerant	fanatisch	hindern	eitel	leiden	lasch	tyrannisch	1	blank2r.bmp	0	1	+	0	1	blank2r.bmp	500	1	GKQX	500	1	blank2r.bmp	880	6	faul	880	1	!	1232	1	!	-1	0	0	0	0	0	0
2024-05-15	15:52:07	16:00:22	494842	6.6.1	4_exp_EVA_AWA_CON	38	B	A	Rpleas_acq	Oppo	Rpleas	1pleas	acq_US_unple_nomask	acq45_nomask	5	17	400	1	300	300	0	0	426	46	1	0	retten	spielen	schlau	treu	schön	fair	rächen	strafen	schroff	tot	schlecht	faul	freundlich	helfen	ehrlich	lachen	loyal	tolerant	fanatisch	hindern	eitel	leiden	lasch	tyrannisch	1	blank2r.bmp	0	1	+	0	1	blank2r.bmp	500	1	GKQX	500	1	blank2r.bmp	880	2	strafen	880	1	!	1232	1	!	1327	0	0	0	0	0	0
2024-05-15	15:52:07	16:00:24	497019	6.6.1	4_exp_EVA_AWA_CON	38	B	A	Rpleas_acq	Oppo	Rpleas	1pleas	acq_US_unple_nomask	acq45_nomask	5	18	400	1	300	300	0	0	400	50	0	0	retten	spielen	schlau	treu	schön	fair	rächen	strafen	schroff	tot	schlecht	faul	freundlich	helfen	ehrlich	lachen	loyal	tolerant	fanatisch	hindern	eitel	leiden	lasch	tyrannisch	1	blank2r.bmp	0	1	+	0	1	blank2r.bmp	500	1	GKQX	500	1	blank2r.bmp	880	4	tot	880	1	!	1232	1	!	1302	0	0	0	0	0	0
2024-05-15	15:52:07	16:00:26	499329	6.6.1	4_exp_EVA_AWA_CON	38	B	A	Rpleas_acq	Oppo	Rpleas	1pleas	acq_US_pleas_nomask	acq45_nomask	5	19	400	0	300	300	0	0	531	50	1	0	retten	spielen	schlau	treu	schön	fair	rächen	strafen	schroff	tot	schlecht	faul	freundlich	helfen	ehrlich	lachen	loyal	tolerant	fanatisch	hindern	eitel	leiden	lasch	tyrannisch	1	blank2r.bmp	0	1	+	0	1	blank2r.bmp	500	1	BMVZ	500	1	blank2r.bmp	880	6	fair	880	1	!	1232	1	!	-1	0	0	0	0	0	0
2024-05-15	15:52:07	16:00:28	501582	6.6.1	4_exp_EVA_AWA_CON	38	B	A	Rpleas_acq	Oppo	Rpleas	1pleas	acq_US_pleas_nomask	acq45_nomask	5	20	400	0	300	300	0	0	475	50	1	0	retten	spielen	schlau	treu	schön	fair	rächen	strafen	schroff	tot	schlecht	faul	freundlich	helfen	ehrlich	lachen	loyal	tolerant	fanatisch	hindern	eitel	leiden	lasch	tyrannisch	1	blank2r.bmp	0	1	+	0	1	blank2r.bmp	500	1	BMVZ	500	1	blank2r.bmp	880	5	schön	880	1	!	1232	1	!	-1	0	0	0	0	0	0
2024-05-15	15:52:07	16:00:31	503888	6.6.1	4_exp_EVA_AWA_CON	38	B	A	Rpleas_acq	Oppo	Rpleas	1pleas	acq_US_unple_nomask	acq45_nomask	5	21	400	0	300	300	0	0	528	46	1	0	retten	spielen	schlau	treu	schön	fair	rächen	strafen	schroff	tot	schlecht	faul	freundlich	helfen	ehrlich	lachen	loyal	tolerant	fanatisch	hindern	eitel	leiden	lasch	tyrannisch	1	blank2r.bmp	0	1	+	0	1	blank2r.bmp	500	1	GKQX	500	1	blank2r.bmp	880	3	schroff	880	1	!	1232	1	!	-1	0	0	0	0	0	0
2024-05-15	15:52:07	16:00:33	506168	6.6.1	4_exp_EVA_AWA_CON	38	B	A	Rpleas_acq	Oppo	Rpleas	1pleas	acq_US_unple_nomask	acq45_nomask	5	22	400	0	300	300	0	0	506	46	1	0	retten	spielen	schlau	treu	schön	fair	rächen	strafen	schroff	tot	schlecht	faul	freundlich	helfen	ehrlich	lachen	loyal	tolerant	fanatisch	hindern	eitel	leiden	lasch	tyrannisch	1	blank2r.bmp	0	1	+	0	1	blank2r.bmp	500	1	GKQX	500	1	blank2r.bmp	880	5	schlecht	880	1	!	1232	1	!	-1	0	0	0	0	0	0
2024-05-15	15:52:07	16:00:35	508472	6.6.1	4_exp_EVA_AWA_CON	38	B	A	Rpleas_acq	Oppo	Rpleas	1pleas	acq_US_unple_nomask	acq45_nomask	5	23	400	0	300	300	0	0	529	46	1	0	retten	spielen	schlau	treu	schön	fair	rächen	strafen	schroff	tot	schlecht	faul	freundlich	helfen	ehrlich	lachen	loyal	tolerant	fanatisch	hindern	eitel	leiden	lasch	tyrannisch	1	blank2r.bmp	0	1	+	0	1	blank2r.bmp	500	1	GKQX	500	1	blank2r.bmp	880	1	rächen	880	1	!	1233	1	!	-1	0	0	0	0	0	0
2024-05-15	15:52:07	16:00:38	510714	6.6.1	4_exp_EVA_AWA_CON	38	B	A	Rpleas_acq	Oppo	Rpleas	1pleas	acq_US_unple_nomask	acq45_nomask	5	24	400	1	300	300	0	0	467	46	1	0	retten	spielen	schlau	treu	schön	fair	rächen	strafen	schroff	tot	schlecht	faul	freundlich	helfen	ehrlich	lachen	loyal	tolerant	fanatisch	hindern	eitel	leiden	lasch	tyrannisch	1	blank2r.bmp	0	1	+	0	1	blank2r.bmp	500	1	GKQX	500	1	blank2r.bmp	880	6	faul	880	1	!	1232	1	!	1369	0	0	0	0	0	0
2024-05-15	15:52:07	16:00:40	513000	6.6.1	4_exp_EVA_AWA_CON	38	B	A	Rpleas_acq	Oppo	Rpleas	1pleas	acq_US_unple_nomask	acq45_nomask	5	25	400	0	300	300	0	0	504	46	1	0	retten	spielen	schlau	treu	schön	fair	rächen	strafen	schroff	tot	schlecht	faul	freundlich	helfen	ehrlich	lachen	loyal	tolerant	fanatisch	hindern	eitel	leiden	lasch	tyrannisch	1	blank2r.bmp	0	1	+	0	1	blank2r.bmp	500	1	GKQX	500	1	blank2r.bmp	880	1	rächen	880	1	!	1232	1	!	-1	0	0	0	0	0	0
2024-05-15	15:52:07	16:00:42	515171	6.6.1	4_exp_EVA_AWA_CON	38	B	A	Rpleas_acq	Oppo	Rpleas	1pleas	acq_US_unple_nomask	acq45_nomask	5	26	400	1	300	300	0	0	390	50	0	0	retten	spielen	schlau	treu	schön	fair	rächen	strafen	schroff	tot	schlecht	faul	freundlich	helfen	ehrlich	lachen	loyal	tolerant	fanatisch	hindern	eitel	leiden	lasch	tyrannisch	1	blank2r.bmp	0	1	+	0	1	blank2r.bmp	500	1	GKQX	500	1	blank2r.bmp	880	2	strafen	880	1	!	1232	1	!	1292	0	0	0	0	0	0
2024-05-15	15:52:07	16:00:44	517370	6.6.1	4_exp_EVA_AWA_CON	38	B	A	Rpleas_acq	Oppo	Rpleas	1pleas	acq_US_pleas_nomask	acq45_nomask	5	27	400	1	300	300	0	0	419	50	1	0	retten	spielen	schlau	treu	schön	fair	rächen	strafen	schroff	tot	schlecht	faul	freundlich	helfen	ehrlich	lachen	loyal	tolerant	fanatisch	hindern	eitel	leiden	lasch	tyrannisch	1	blank2r.bmp	0	1	+	0	1	blank2r.bmp	500	1	BMVZ	500	1	blank2r.bmp	880	3	schlau	880	1	!	1233	1	!	1320	0	0	0	0	0	0
2024-05-15	15:52:07	16:00:46	519594	6.6.1	4_exp_EVA_AWA_CON	38	B	A	Rpleas_acq	Oppo	Rpleas	1pleas	acq_US_pleas_nomask	acq45_nomask	5	28	400	1	300	300	0	0	442	50	1	0	retten	spielen	schlau	treu	schön	fair	rächen	strafen	schroff	tot	schlecht	faul	freundlich	helfen	ehrlich	lachen	loyal	tolerant	fanatisch	hindern	eitel	leiden	lasch	tyrannisch	1	blank2r.bmp	0	1	+	0	1	blank2r.bmp	500	1	BMVZ	500	1	blank2r.bmp	880	2	spielen	880	1	!	1232	1	!	1343	0	0	0	0	0	0
2024-05-15	15:52:07	16:00:49	521746	6.6.1	4_exp_EVA_AWA_CON	38	B	A	Rpleas_acq	Oppo	Rpleas	1pleas	acq_US_pleas_nomask	acq45_nomask	5	29	400	1	300	300	0	0	372	50	1	0	retten	spielen	schlau	treu	schön	fair	rächen	strafen	schroff	tot	schlecht	faul	freundlich	helfen	ehrlich	lachen	loyal	tolerant	fanatisch	hindern	eitel	leiden	lasch	tyrannisch	1	blank2r.bmp	0	1	+	0	1	blank2r.bmp	500	1	BMVZ	500	1	blank2r.bmp	880	3	schlau	880	1	!	1232	1	!	1273	0	0	0	0	0	0
2024-05-15	15:52:07	16:00:51	523962	6.6.1	4_exp_EVA_AWA_CON	38	B	A	Rpleas_acq	Oppo	Rpleas	1pleas	acq_US_pleas_nomask	acq45_nomask	5	30	400	1	300	300	0	0	437	46	0	0	retten	spielen	schlau	treu	schön	fair	rächen	strafen	schroff	tot	schlecht	faul	freundlich	helfen	ehrlich	lachen	loyal	tolerant	fanatisch	hindern	eitel	leiden	lasch	tyrannisch	1	blank2r.bmp	0	1	+	0	1	blank2r.bmp	500	1	BMVZ	500	1	blank2r.bmp	880	4	treu	880	1	!	1232	1	!	1338	0	0	0	0	0	0
2024-05-15	15:52:07	16:00:53	526146	6.6.1	4_exp_EVA_AWA_CON	38	B	A	Rpleas_acq	Oppo	Rpleas	1pleas	acq_US_pleas_nomask	acq45_nomask	5	31	400	1	300	300	0	0	410	50	1	0	retten	spielen	schlau	treu	schön	fair	rächen	strafen	schroff	tot	schlecht	faul	freundlich	helfen	ehrlich	lachen	loyal	tolerant	fanatisch	hindern	eitel	leiden	lasch	tyrannisch	1	blank2r.bmp	0	1	+	0	1	blank2r.bmp	500	1	BMVZ	500	1	blank2r.bmp	880	5	schön	880	1	!	1232	1	!	1311	0	0	0	0	0	0
2024-05-15	15:52:07	16:00:55	528432	6.6.1	4_exp_EVA_AWA_CON	38	B	A	Rpleas_acq	Oppo	Rpleas	1pleas	acq_US_pleas_nomask	acq45_nomask	5	32	400	0	300	300	0	0	506	50	1	0	retten	spielen	schlau	treu	schön	fair	rächen	strafen	schroff	tot	schlecht	faul	freundlich	helfen	ehrlich	lachen	loyal	tolerant	fanatisch	hindern	eitel	leiden	lasch	tyrannisch	1	blank2r.bmp	0	1	+	0	1	blank2r.bmp	500	1	BMVZ	500	1	blank2r.bmp	880	1	retten	880	1	!	1233	1	!	-1	0	0	0	0	0	0
2024-05-15	15:52:07	16:00:57	530602	6.6.1	4_exp_EVA_AWA_CON	38	B	A	Rpleas_acq	Oppo	Rpleas	1pleas	acq_US_unple_nomask	acq45_nomask	5	33	400	1	300	300	0	0	393	46	1	0	retten	spielen	schlau	treu	schön	fair	rächen	strafen	schroff	tot	schlecht	faul	freundlich	helfen	ehrlich	lachen	loyal	tolerant	fanatisch	hindern	eitel	leiden	lasch	tyrannisch	1	blank2r.bmp	0	1	+	0	1	blank2r.bmp	500	1	GKQX	500	1	blank2r.bmp	880	4	tot	880	1	!	1233	1	!	1294	0	0	0	0	0	0
2024-05-15	15:52:07	16:01:00	532770	6.6.1	4_exp_EVA_AWA_CON	38	B	A	Rpleas_acq	Oppo	Rpleas	1pleas	acq_US_unple_nomask	acq45_nomask	5	34	400	1	300	300	0	0	389	50	0	0	retten	spielen	schlau	treu	schön	fair	rächen	strafen	schroff	tot	schlecht	faul	freundlich	helfen	ehrlich	lachen	loyal	tolerant	fanatisch	hindern	eitel	leiden	lasch	tyrannisch	1	blank2r.bmp	0	1	+	0	1	blank2r.bmp	500	1	GKQX	500	1	blank2r.bmp	880	5	schlecht	880	1	!	1232	1	!	1291	0	0	0	0	0	0
2024-05-15	15:52:07	16:01:02	534946	6.6.1	4_exp_EVA_AWA_CON	38	B	A	Rpleas_acq	Oppo	Rpleas	1pleas	acq_US_unple_nomask	acq45_nomask	5	35	400	1	300	300	0	0	394	46	1	0	retten	spielen	schlau	treu	schön	fair	rächen	strafen	schroff	tot	schlecht	faul	freundlich	helfen	ehrlich	lachen	loyal	tolerant	fanatisch	hindern	eitel	leiden	lasch	tyrannisch	1	blank2r.bmp	0	1	+	0	1	blank2r.bmp	500	1	GKQX	500	1	blank2r.bmp	880	3	schroff	880	1	!	1232	1	!	1295	0	0	0	0	0	0
2024-05-15	15:52:07	16:01:04	537216	6.6.1	4_exp_EVA_AWA_CON	38	B	A	Rpleas_acq	Oppo	Rpleas	1pleas	acq_US_pleas_nomask	acq45_nomask	5	36	400	0	300	300	0	0	495	50	1	0	retten	spielen	schlau	treu	schön	fair	rächen	strafen	schroff	tot	schlecht	faul	freundlich	helfen	ehrlich	lachen	loyal	tolerant	fanatisch	hindern	eitel	leiden	lasch	tyrannisch	1	blank2r.bmp	0	1	+	0	1	blank2r.bmp	500	1	BMVZ	500	1	blank2r.bmp	880	6	fair	880	1	!	1232	1	!	-1	0	0	0	0	0	0
2024-05-15	15:52:07	16:01:28	561566	6.6.1	4_exp_EVA_AWA_CON	38	B	A	Rpleas_acq	Oppo	Lpleas	1pleas	EvalRating_firsttwo	EvalRating_firsttwo	6	1	0	0	300	300	0	0	6282	line	0	23,3072916666666714036pct	retten	spielen	schlau	treu	schön	fair	rächen	strafen	schroff	tot	schlecht	faul	freundlich	helfen	ehrlich	lachen	loyal	tolerant	fanatisch	hindern	eitel	leiden	lasch	tyrannisch	1		-7	1	Wie angenehm oder unangenehm finden Sie die  Buchstabenkette ZGVK?	-7	1		-7	1		-7	1		-7	1	Unangenehm	-7	1	Angenehm	-7	0	0	0	0	0	0	0	0	0
2024-05-15	15:52:07	16:01:34	567316	6.6.1	4_exp_EVA_AWA_CON	38	B	A	Rpleas_acq	Oppo	Lpleas	1pleas	EvalRating_lastfour	EvalRating_lastfour	7	1	0	0	300	300	0	0	3378	line	0	18,4895833333333428072pct	retten	spielen	schlau	treu	schön	fair	rächen	strafen	schroff	tot	schlecht	faul	freundlich	helfen	ehrlich	lachen	loyal	tolerant	fanatisch	hindern	eitel	leiden	lasch	tyrannisch	1		-7	1	Wie angenehm oder unangenehm finden Sie die  Buchstabenkette BMVZ?	-7	1		-7	1		-7	1		-7	1	Unangenehm	-7	1	Angenehm	-7	0	0	0	0	0	0	0	0	0
2024-05-15	15:52:07	16:01:37	569684	6.6.1	4_exp_EVA_AWA_CON	38	B	A	Rpleas_acq	Oppo	Lpleas	1pleas	blank_screen	EvalRating_lastfour	7	3	0	0	300	300	0	0	0	0	0	18,4895833333333428072pct	retten	spielen	schlau	treu	schön	fair	rächen	strafen	schroff	tot	schlecht	faul	freundlich	helfen	ehrlich	lachen	loyal	tolerant	fanatisch	hindern	eitel	leiden	lasch	tyrannisch	1		-8	0	0	0	0	0	0	0	0	0	0	0	0	0	0	0	0	0	0	0	0	0	0	0	0	0	0	0
2024-05-15	15:52:07	16:01:39	572020	6.6.1	4_exp_EVA_AWA_CON	38	B	A	Rpleas_acq	Oppo	Lpleas	1pleas	EvalRating_lastfour	EvalRating_lastfour	7	4	0	0	300	300	0	0	1748	line	0	-21,2239583333333285964pct	retten	spielen	schlau	treu	schön	fair	rächen	strafen	schroff	tot	schlecht	faul	freundlich	helfen	ehrlich	lachen	loyal	tolerant	fanatisch	hindern	eitel	leiden	lasch	tyrannisch	1		-7	3	Wie angenehm oder unangenehm finden Sie die  Buchstabenkette XBQM?	-7	1		-7	1		-7	1		-7	1	Unangenehm	-7	1	Angenehm	-7	0	0	0	0	0	0	0	0	0
2024-05-15	15:52:07	16:01:41	574387	6.6.1	4_exp_EVA_AWA_CON	38	B	A	Rpleas_acq	Oppo	Lpleas	1pleas	blank_screen	EvalRating_lastfour	7	6	0	0	300	300	0	0	0	0	0	-21,2239583333333285964pct	retten	spielen	schlau	treu	schön	fair	rächen	strafen	schroff	tot	schlecht	faul	freundlich	helfen	ehrlich	lachen	loyal	tolerant	fanatisch	hindern	eitel	leiden	lasch	tyrannisch	1		-8	0	0	0	0	0	0	0	0	0	0	0	0	0	0	0	0	0	0	0	0	0	0	0	0	0	0	0
2024-05-15	15:52:07	16:01:43	576509	6.6.1	4_exp_EVA_AWA_CON	38	B	A	Rpleas_acq	Oppo	Lpleas	1pleas	EvalRating_lastfour	EvalRating_lastfour	7	7	0	0	300	300	0	0	1533	line	0	-51,953125pct	retten	spielen	schlau	treu	schön	fair	rächen	strafen	schroff	tot	schlecht	faul	freundlich	helfen	ehrlich	lachen	loyal	tolerant	fanatisch	hindern	eitel	leiden	lasch	tyrannisch	1		-8	2	Wie angenehm oder unangenehm finden Sie die  Buchstabenkette GKQX?	-8	1		-8	1		-8	1		-8	1	Unangenehm	-8	1	Angenehm	-8	0	0	0	0	0	0	0	0	0
2024-05-15	15:52:07	16:02:22	615602	6.6.1	4_exp_EVA_AWA_CON	38	B	A	Rpleas_acq	Oppo	Lpleas	1pleas	conawa_CS2_US4	conawa1_nomask	8	1	0	0	300	300	0	0	11419	treu	1	-51,953125pct	retten	spielen	schlau	treu	schön	fair	rächen	strafen	schroff	tot	schlecht	faul	freundlich	helfen	ehrlich	lachen	loyal	tolerant	fanatisch	hindern	eitel	leiden	lasch	tyrannisch	0	0	0	0	0	0	0	0	0	0	0	0	0	0	0	0	0	0	0	0	0	0	0	0	0	0	0	0	0	0
2024-05-15	15:52:07	16:02:22	615604	6.6.1	4_exp_EVA_AWA_CON	38	B	A	Rpleas_acq	Oppo	Lpleas	1pleas	conawa_CS2_US4_confidence	conawa1_nomask	8	1	0	0	300	300	0	0	11419	guess	1	-51,953125pct	retten	spielen	schlau	treu	schön	fair	rächen	strafen	schroff	tot	schlecht	faul	freundlich	helfen	ehrlich	lachen	loyal	tolerant	fanatisch	hindern	eitel	leiden	lasch	tyrannisch	0	0	0	0	0	0	0	0	0	0	0	0	0	0	0	0	0	0	0	0	0	0	0	0	0	0	0	0	0	0
2024-05-15	15:52:07	16:02:30	623367	6.6.1	4_exp_EVA_AWA_CON	38	B	A	Rpleas_acq	Oppo	Lpleas	1pleas	conawa_CS2_US3	conawa1_nomask	8	2	0	0	300	300	0	0	7147	lachen	1	-51,953125pct	retten	spielen	schlau	treu	schön	fair	rächen	strafen	schroff	tot	schlecht	faul	freundlich	helfen	ehrlich	lachen	loyal	tolerant	fanatisch	hindern	eitel	leiden	lasch	tyrannisch	0	0	0	0	0	0	0	0	0	0	0	0	0	0	0	0	0	0	0	0	0	0	0	0	0	0	0	0	0	0
2024-05-15	15:52:07	16:02:30	623369	6.6.1	4_exp_EVA_AWA_CON	38	B	A	Rpleas_acq	Oppo	Lpleas	1pleas	conawa_CS2_US3_confidence	conawa1_nomask	8	2	0	0	300	300	0	0	7147	probably	1	-51,953125pct	retten	spielen	schlau	treu	schön	fair	rächen	strafen	schroff	tot	schlecht	faul	freundlich	helfen	ehrlich	lachen	loyal	tolerant	fanatisch	hindern	eitel	leiden	lasch	tyrannisch	0	0	0	0	0	0	0	0	0	0	0	0	0	0	0	0	0	0	0	0	0	0	0	0	0	0	0	0	0	0
2024-05-15	15:52:07	16:02:36	628941	6.6.1	4_exp_EVA_AWA_CON	38	B	A	Rpleas_acq	Oppo	Lpleas	1pleas	conawa_CS2_US2	conawa1_nomask	8	3	0	0	300	300	0	0	4959	ehrlich	1	-51,953125pct	retten	spielen	schlau	treu	schön	fair	rächen	strafen	schroff	tot	schlecht	faul	freundlich	helfen	ehrlich	lachen	loyal	tolerant	fanatisch	hindern	eitel	leiden	lasch	tyrannisch	0	0	0	0	0	0	0	0	0	0	0	0	0	0	0	0	0	0	0	0	0	0	0	0	0	0	0	0	0	0
2024-05-15	15:52:07	16:02:36	628942	6.6.1	4_exp_EVA_AWA_CON	38	B	A	Rpleas_acq	Oppo	Lpleas	1pleas	conawa_CS2_US2_confidence	conawa1_nomask	8	3	0	0	300	300	0	0	4959	guess	1	-51,953125pct	retten	spielen	schlau	treu	schön	fair	rächen	strafen	schroff	tot	schlecht	faul	freundlich	helfen	ehrlich	lachen	loyal	tolerant	fanatisch	hindern	eitel	leiden	lasch	tyrannisch	0	0	0	0	0	0	0	0	0	0	0	0	0	0	0	0	0	0	0	0	0	0	0	0	0	0	0	0	0	0
2024-05-15	15:52:07	16:02:41	633844	6.6.1	4_exp_EVA_AWA_CON	38	B	A	Rpleas_acq	Oppo	Lpleas	1pleas	conawa_CS1_US3	conawa1_nomask	8	4	0	0	300	300	0	0	4289	schlau	1	-51,953125pct	retten	spielen	schlau	treu	schön	fair	rächen	strafen	schroff	tot	schlecht	faul	freundlich	helfen	ehrlich	lachen	loyal	tolerant	fanatisch	hindern	eitel	leiden	lasch	tyrannisch	0	0	0	0	0	0	0	0	0	0	0	0	0	0	0	0	0	0	0	0	0	0	0	0	0	0	0	0	0	0
2024-05-15	15:52:07	16:02:41	633845	6.6.1	4_exp_EVA_AWA_CON	38	B	A	Rpleas_acq	Oppo	Lpleas	1pleas	conawa_CS1_US3_confidence	conawa1_nomask	8	4	0	0	300	300	0	0	4289	probably	1	-51,953125pct	retten	spielen	schlau	treu	schön	fair	rächen	strafen	schroff	tot	schlecht	faul	freundlich	helfen	ehrlich	lachen	loyal	tolerant	fanatisch	hindern	eitel	leiden	lasch	tyrannisch	0	0	0	0	0	0	0	0	0	0	0	0	0	0	0	0	0	0	0	0	0	0	0	0	0	0	0	0	0	0
2024-05-15	15:52:07	16:02:47	640038	6.6.1	4_exp_EVA_AWA_CON	38	B	A	Rpleas_acq	Oppo	Lpleas	1pleas	conawa_CS1_US2	conawa1_nomask	8	5	0	0	300	300	0	0	5587	helfen	1	-51,953125pct	retten	spielen	schlau	treu	schön	fair	rächen	strafen	schroff	tot	schlecht	faul	freundlich	helfen	ehrlich	lachen	loyal	tolerant	fanatisch	hindern	eitel	leiden	lasch	tyrannisch	0	0	0	0	0	0	0	0	0	0	0	0	0	0	0	0	0	0	0	0	0	0	0	0	0	0	0	0	0	0
2024-05-15	15:52:07	16:02:47	640039	6.6.1	4_exp_EVA_AWA_CON	38	B	A	Rpleas_acq	Oppo	Lpleas	1pleas	conawa_CS1_US2_confidence	conawa1_nomask	8	5	0	0	300	300	0	0	5587	guess	1	-51,953125pct	retten	spielen	schlau	treu	schön	fair	rächen	strafen	schroff	tot	schlecht	faul	freundlich	helfen	ehrlich	lachen	loyal	tolerant	fanatisch	hindern	eitel	leiden	lasch	tyrannisch	0	0	0	0	0	0	0	0	0	0	0	0	0	0	0	0	0	0	0	0	0	0	0	0	0	0	0	0	0	0
2024-05-15	15:52:07	16:02:52	645221	6.6.1	4_exp_EVA_AWA_CON	38	B	A	Rpleas_acq	Oppo	Lpleas	1pleas	conawa_CS1_US1	conawa1_nomask	8	6	0	0	300	300	0	0	4567	retten	1	-51,953125pct	retten	spielen	schlau	treu	schön	fair	rächen	strafen	schroff	tot	schlecht	faul	freundlich	helfen	ehrlich	lachen	loyal	tolerant	fanatisch	hindern	eitel	leiden	lasch	tyrannisch	0	0	0	0	0	0	0	0	0	0	0	0	0	0	0	0	0	0	0	0	0	0	0	0	0	0	0	0	0	0
2024-05-15	15:52:07	16:02:52	645223	6.6.1	4_exp_EVA_AWA_CON	38	B	A	Rpleas_acq	Oppo	Lpleas	1pleas	conawa_CS1_US1_confidence	conawa1_nomask	8	6	0	0	300	300	0	0	4567	guess	1	-51,953125pct	retten	spielen	schlau	treu	schön	fair	rächen	strafen	schroff	tot	schlecht	faul	freundlich	helfen	ehrlich	lachen	loyal	tolerant	fanatisch	hindern	eitel	leiden	lasch	tyrannisch	0	0	0	0	0	0	0	0	0	0	0	0	0	0	0	0	0	0	0	0	0	0	0	0	0	0	0	0	0	0
2024-05-15	15:52:07	16:02:57	650565	6.6.1	4_exp_EVA_AWA_CON	38	B	A	Rpleas_acq	Oppo	Lpleas	1pleas	conawa_CS2_US1	conawa1_nomask	8	7	0	0	300	300	0	0	4730	hindern	1	-51,953125pct	retten	spielen	schlau	treu	schön	fair	rächen	strafen	schroff	tot	schlecht	faul	freundlich	helfen	ehrlich	lachen	loyal	tolerant	fanatisch	hindern	eitel	leiden	lasch	tyrannisch	0	0	0	0	0	0	0	0	0	0	0	0	0	0	0	0	0	0	0	0	0	0	0	0	0	0	0	0	0	0
2024-05-15	15:52:07	16:02:57	650566	6.6.1	4_exp_EVA_AWA_CON	38	B	A	Rpleas_acq	Oppo	Lpleas	1pleas	conawa_CS2_US1_confidence	conawa1_nomask	8	7	0	0	300	300	0	0	4730	guess	1	-51,953125pct	retten	spielen	schlau	treu	schön	fair	rächen	strafen	schroff	tot	schlecht	faul	freundlich	helfen	ehrlich	lachen	loyal	tolerant	fanatisch	hindern	eitel	leiden	lasch	tyrannisch	0	0	0	0	0	0	0	0	0	0	0	0	0	0	0	0	0	0	0	0	0	0	0	0	0	0	0	0	0	0
2024-05-15	15:52:07	16:03:03	656018	6.6.1	4_exp_EVA_AWA_CON	38	B	A	Rpleas_acq	Oppo	Lpleas	1pleas	conawa_CS2_US5	conawa1_nomask	8	8	0	0	300	300	0	0	4833	schön	1	-51,953125pct	retten	spielen	schlau	treu	schön	fair	rächen	strafen	schroff	tot	schlecht	faul	freundlich	helfen	ehrlich	lachen	loyal	tolerant	fanatisch	hindern	eitel	leiden	lasch	tyrannisch	0	0	0	0	0	0	0	0	0	0	0	0	0	0	0	0	0	0	0	0	0	0	0	0	0	0	0	0	0	0
2024-05-15	15:52:07	16:03:03	656019	6.6.1	4_exp_EVA_AWA_CON	38	B	A	Rpleas_acq	Oppo	Lpleas	1pleas	conawa_CS2_US5_confidence	conawa1_nomask	8	8	0	0	300	300	0	0	4833	guess	1	-51,953125pct	retten	spielen	schlau	treu	schön	fair	rächen	strafen	schroff	tot	schlecht	faul	freundlich	helfen	ehrlich	lachen	loyal	tolerant	fanatisch	hindern	eitel	leiden	lasch	tyrannisch	0	0	0	0	0	0	0	0	0	0	0	0	0	0	0	0	0	0	0	0	0	0	0	0	0	0	0	0	0	0
2024-05-15	15:52:07	16:03:11	663983	6.6.1	4_exp_EVA_AWA_CON	38	B	A	Rpleas_acq	Oppo	Lpleas	1pleas	conawa_CS1_US4	conawa1_nomask	8	9	0	0	300	300	0	0	7348	treu	1	-51,953125pct	retten	spielen	schlau	treu	schön	fair	rächen	strafen	schroff	tot	schlecht	faul	freundlich	helfen	ehrlich	lachen	loyal	tolerant	fanatisch	hindern	eitel	leiden	lasch	tyrannisch	0	0	0	0	0	0	0	0	0	0	0	0	0	0	0	0	0	0	0	0	0	0	0	0	0	0	0	0	0	0
2024-05-15	15:52:07	16:03:11	663985	6.6.1	4_exp_EVA_AWA_CON	38	B	A	Rpleas_acq	Oppo	Lpleas	1pleas	conawa_CS1_US4_confidence	conawa1_nomask	8	9	0	0	300	300	0	0	7348	probably	1	-51,953125pct	retten	spielen	schlau	treu	schön	fair	rächen	strafen	schroff	tot	schlecht	faul	freundlich	helfen	ehrlich	lachen	loyal	tolerant	fanatisch	hindern	eitel	leiden	lasch	tyrannisch	0	0	0	0	0	0	0	0	0	0	0	0	0	0	0	0	0	0	0	0	0	0	0	0	0	0	0	0	0	0
2024-05-15	15:52:07	16:03:17	670437	6.6.1	4_exp_EVA_AWA_CON	38	B	A	Rpleas_acq	Oppo	Lpleas	1pleas	conawa_CS2_US6	conawa1_nomask	8	10	0	0	300	300	0	0	5840	fair	1	-51,953125pct	retten	spielen	schlau	treu	schön	fair	rächen	strafen	schroff	tot	schlecht	faul	freundlich	helfen	ehrlich	lachen	loyal	tolerant	fanatisch	hindern	eitel	leiden	lasch	tyrannisch	0	0	0	0	0	0	0	0	0	0	0	0	0	0	0	0	0	0	0	0	0	0	0	0	0	0	0	0	0	0
2024-05-15	15:52:07	16:03:17	670439	6.6.1	4_exp_EVA_AWA_CON	38	B	A	Rpleas_acq	Oppo	Lpleas	1pleas	conawa_CS2_US6_confidence	conawa1_nomask	8	10	0	0	300	300	0	0	5840	probably	1	-51,953125pct	retten	spielen	schlau	treu	schön	fair	rächen	strafen	schroff	tot	schlecht	faul	freundlich	helfen	ehrlich	lachen	loyal	tolerant	fanatisch	hindern	eitel	leiden	lasch	tyrannisch	0	0	0	0	0	0	0	0	0	0	0	0	0	0	0	0	0	0	0	0	0	0	0	0	0	0	0	0	0	0
2024-05-15	15:52:07	16:03:24	677202	6.6.1	4_exp_EVA_AWA_CON	38	B	A	Rpleas_acq	Oppo	Lpleas	1pleas	conawa_CS1_US5	conawa1_nomask	8	11	0	0	300	300	0	0	6145	schön	1	-51,953125pct	retten	spielen	schlau	treu	schön	fair	rächen	strafen	schroff	tot	schlecht	faul	freundlich	helfen	ehrlich	lachen	loyal	tolerant	fanatisch	hindern	eitel	leiden	lasch	tyrannisch	0	0	0	0	0	0	0	0	0	0	0	0	0	0	0	0	0	0	0	0	0	0	0	0	0	0	0	0	0	0
2024-05-15	15:52:07	16:03:24	677203	6.6.1	4_exp_EVA_AWA_CON	38	B	A	Rpleas_acq	Oppo	Lpleas	1pleas	conawa_CS1_US5_confidence	conawa1_nomask	8	11	0	0	300	300	0	0	6145	guess	1	-51,953125pct	retten	spielen	schlau	treu	schön	fair	rächen	strafen	schroff	tot	schlecht	faul	freundlich	helfen	ehrlich	lachen	loyal	tolerant	fanatisch	hindern	eitel	leiden	lasch	tyrannisch	0	0	0	0	0	0	0	0	0	0	0	0	0	0	0	0	0	0	0	0	0	0	0	0	0	0	0	0	0	0
2024-05-15	15:52:07	16:03:30	682995	6.6.1	4_exp_EVA_AWA_CON	38	B	A	Rpleas_acq	Oppo	Lpleas	1pleas	conawa_CS1_US6	conawa1_nomask	8	12	0	0	300	300	0	0	5181	tolerant	1	-51,953125pct	retten	spielen	schlau	treu	schön	fair	rächen	strafen	schroff	tot	schlecht	faul	freundlich	helfen	ehrlich	lachen	loyal	tolerant	fanatisch	hindern	eitel	leiden	lasch	tyrannisch	0	0	0	0	0	0	0	0	0	0	0	0	0	0	0	0	0	0	0	0	0	0	0	0	0	0	0	0	0	0
2024-05-15	15:52:07	16:03:30	682997	6.6.1	4_exp_EVA_AWA_CON	38	B	A	Rpleas_acq	Oppo	Lpleas	1pleas	conawa_CS1_US6_confidence	conawa1_nomask	8	12	0	0	300	300	0	0	5181	guess	1	-51,953125pct	retten	spielen	schlau	treu	schön	fair	rächen	strafen	schroff	tot	schlecht	faul	freundlich	helfen	ehrlich	lachen	loyal	tolerant	fanatisch	hindern	eitel	leiden	lasch	tyrannisch	0	0	0	0	0	0	0	0	0	0	0	0	0	0	0	0	0	0	0	0	0	0	0	0	0	0	0	0	0	0
2024-05-15	15:52:07	16:04:35	748504	6.6.1	4_exp_EVA_AWA_CON	38	B	A	Rpleas_acq	Oppo	Lpleas	1pleas	cond_US_pleas_123_nomask_CS1	condtest_nomask_1	11	1	400	0	300	300	0	0	547	46	1	-51,953125pct	retten	spielen	schlau	treu	schön	fair	rächen	strafen	schroff	tot	schlecht	faul	freundlich	helfen	ehrlich	lachen	loyal	tolerant	fanatisch	hindern	eitel	leiden	lasch	tyrannisch	1	blank2r.bmp	0	1	+	0	1	blank2r.bmp	500	1	BMVZ	500	1	blank2r.bmp	880	1	retten	880	1	!	1232	1	!	-1	0	0	0	0	0	0
2024-05-15	15:52:07	16:04:38	750698	6.6.1	4_exp_EVA_AWA_CON	38	B	A	Rpleas_acq	Oppo	Lpleas	1pleas	cond_US_unple_123_nomask_CS1	condtest_nomask_1	11	2	400	1	300	300	0	0	417	50	1	-51,953125pct	retten	spielen	schlau	treu	schön	fair	rächen	strafen	schroff	tot	schlecht	faul	freundlich	helfen	ehrlich	lachen	loyal	tolerant	fanatisch	hindern	eitel	leiden	lasch	tyrannisch	1	blank2r.bmp	0	1	+	0	1	blank2r.bmp	500	1	BMVZ	500	1	blank2r.bmp	880	3	schroff	880	1	!	1232	1	!	1319	0	0	0	0	0	0
2024-05-15	15:52:07	16:04:40	752930	6.6.1	4_exp_EVA_AWA_CON	38	B	A	Rpleas_acq	Oppo	Lpleas	1pleas	cond_US_pleas_123_nomask_CS2	condtest_nomask_1	11	3	400	1	300	300	0	0	448	50	0	-51,953125pct	retten	spielen	schlau	treu	schön	fair	rächen	strafen	schroff	tot	schlecht	faul	freundlich	helfen	ehrlich	lachen	loyal	tolerant	fanatisch	hindern	eitel	leiden	lasch	tyrannisch	1	blank2r.bmp	0	1	+	0	1	blank2r.bmp	500	1	GKQX	500	1	blank2r.bmp	880	1	schlau	880	1	!	1233	1	!	1349	0	0	0	0	0	0
2024-05-15	15:52:07	16:04:42	755082	6.6.1	4_exp_EVA_AWA_CON	38	B	A	Rpleas_acq	Oppo	Lpleas	1pleas	cond_new_unple_456_nomask_CS2	condtest_nomask_1	11	4	400	1	300	300	0	0	369	46	0	-51,953125pct	retten	spielen	schlau	treu	schön	fair	rächen	strafen	schroff	tot	schlecht	faul	freundlich	helfen	ehrlich	lachen	loyal	tolerant	fanatisch	hindern	eitel	leiden	lasch	tyrannisch	1	blank2r.bmp	0	1	+	0	1	blank2r.bmp	500	1	GKQX	500	1	blank2r.bmp	880	2	leiden	880	1	!	1232	1	!	1270	0	0	0	0	0	0
2024-05-15	15:52:07	16:04:44	757342	6.6.1	4_exp_EVA_AWA_CON	38	B	A	Rpleas_acq	Oppo	Lpleas	1pleas	cond_US_unple_123_nomask_CS2	condtest_nomask_1	11	5	400	0	300	300	0	0	481	50	1	-51,953125pct	retten	spielen	schlau	treu	schön	fair	rächen	strafen	schroff	tot	schlecht	faul	freundlich	helfen	ehrlich	lachen	loyal	tolerant	fanatisch	hindern	eitel	leiden	lasch	tyrannisch	1	blank2r.bmp	0	1	+	0	1	blank2r.bmp	500	1	GKQX	500	1	blank2r.bmp	880	2	rächen	880	1	!	1232	1	!	-1	0	0	0	0	0	0
2024-05-15	15:52:07	16:04:46	759440	6.6.1	4_exp_EVA_AWA_CON	38	B	A	Rpleas_acq	Oppo	Lpleas	1pleas	cond_new_unple_456_nomask_CS1	condtest_nomask_1	11	6	400	0	300	300	0	0	326	46	0	-51,953125pct	retten	spielen	schlau	treu	schön	fair	rächen	strafen	schroff	tot	schlecht	faul	freundlich	helfen	ehrlich	lachen	loyal	tolerant	fanatisch	hindern	eitel	leiden	lasch	tyrannisch	1	blank2r.bmp	0	1	+	0	1	blank2r.bmp	500	1	BMVZ	500	1	blank2r.bmp	880	1	leiden	880	1	!	-1	1	!	-1	0	0	0	0	0	0
2024-05-15	15:52:07	16:04:49	761768	6.6.1	4_exp_EVA_AWA_CON	38	B	A	Rpleas_acq	Oppo	Lpleas	1pleas	cond_new_pleas_456_nomask_CS2	condtest_nomask_1	11	7	400	0	300	300	0	0	552	46	1	-51,953125pct	retten	spielen	schlau	treu	schön	fair	rächen	strafen	schroff	tot	schlecht	faul	freundlich	helfen	ehrlich	lachen	loyal	tolerant	fanatisch	hindern	eitel	leiden	lasch	tyrannisch	1	blank2r.bmp	0	1	+	0	1	blank2r.bmp	500	1	GKQX	500	1	blank2r.bmp	880	1	tolerant	880	1	!	1232	1	!	-1	0	0	0	0	0	0
2024-05-15	15:52:07	16:04:51	763994	6.6.1	4_exp_EVA_AWA_CON	38	B	A	Rpleas_acq	Oppo	Lpleas	1pleas	cond_new_pleas_456_nomask_CS1	condtest_nomask_1	11	8	400	1	300	300	0	0	445	46	1	-51,953125pct	retten	spielen	schlau	treu	schön	fair	rächen	strafen	schroff	tot	schlecht	faul	freundlich	helfen	ehrlich	lachen	loyal	tolerant	fanatisch	hindern	eitel	leiden	lasch	tyrannisch	1	blank2r.bmp	0	1	+	0	1	blank2r.bmp	500	1	BMVZ	500	1	blank2r.bmp	880	1	lachen	880	1	!	1232	1	!	1346	0	0	0	0	0	0
2024-05-15	15:52:07	16:05:00	772674	6.6.1	4_exp_EVA_AWA_CON	38	B	A	Rpleas_acq	Oppo	Lpleas	1pleas	cond_new_pleas_456_nomask_CS1	condtest_nomask_2	12	1	400	1	300	300	0	0	449	46	1	-51,953125pct	retten	spielen	schlau	treu	schön	fair	rächen	strafen	schroff	tot	schlecht	faul	freundlich	helfen	ehrlich	lachen	loyal	tolerant	fanatisch	hindern	eitel	leiden	lasch	tyrannisch	1	blank2r.bmp	0	1	+	0	1	blank2r.bmp	500	1	BMVZ	500	1	blank2r.bmp	880	2	loyal	880	1	!	1232	1	!	1351	0	0	0	0	0	0
2024-05-15	15:52:07	16:05:02	774850	6.6.1	4_exp_EVA_AWA_CON	38	B	A	Rpleas_acq	Oppo	Lpleas	1pleas	cond_new_unple_456_nomask_CS1	condtest_nomask_2	12	2	400	1	300	300	0	0	394	50	1	-51,953125pct	retten	spielen	schlau	treu	schön	fair	rächen	strafen	schroff	tot	schlecht	faul	freundlich	helfen	ehrlich	lachen	loyal	tolerant	fanatisch	hindern	eitel	leiden	lasch	tyrannisch	1	blank2r.bmp	0	1	+	0	1	blank2r.bmp	500	1	BMVZ	500	1	blank2r.bmp	880	3	tyrannisch	880	1	!	1233	1	!	1295	0	0	0	0	0	0
