date	time	currenttime	elapsedtime	build	currentexpt	subject	CS_AB	US_AB	LRpleas_acq	SameOppo	condition_Lpleas	condition_1pleas	trialcode	blockcode	blocknum	trialnum	windowcenter	inwindow	pretrialpause	posttrialpause	trialduration	trialtimeout	latency	response	correct	correctedscore	US_nomask_pleas1	US_nomask_pleas2	US_nomask_pleas3	US_nomask_pleas4	US_nomask_pleas5	US_nomask_pleas6	US_nomask_unple1	US_nomask_unple2	US_nomask_unple3	US_nomask_unple4	US_nomask_unple5	US_nomask_unple6	new_nomask_pleas1	new_nomask_pleas2	new_nomask_pleas3	new_nomask_pleas4	new_nomask_pleas5	new_nomask_pleas6	new_nomask_unple1	new_nomask_unple2	new_nomask_unple3	new_nomask_unple4	new_nomask_unple5	new_nomask_unple6	stimulusnumber1	stimulusitem1	stimulusonset1	stimulusnumber2	stimulusitem2	stimulusonset2	stimulusnumber3	stimulusitem3	stimulusonset3	stimulusnumber4	stimulusitem4	stimulusonset4	stimulusnumber5	stimulusitem5	stimulusonset5	stimulusnumber6	stimulusitem6	stimulusonset6	stimulusnumber7	stimulusitem7	stimulusonset7	stimulusnumber8	stimulusitem8	stimulusonset8	stimulusnumber9	stimulusitem9	stimulusonset9	stimulusnumber10	stimulusitem10	stimulusonset10
2024-05-02	12:14:14	12:17:00	165584	6.6.1	4_exp_EVA_AWA_CON	9	A	B	Rpleas_acq	Same	Rpleas	1pleas	acq_US_unple_nomask	acq1_nomask	1	1	0	0	300	300	0	0	837	46	1	0	sonnig	anregung	besonnen	vertrauen	vergnügt	kreativ	sterben	ausrottung	bange	versagen	verbissen	krank	gütig	kuss	träumen	engagiert	genießen	gesittet	gierig	krise	töten	engstirnig	gemein	geizig	1	blank2r.bmp	0	1	+	0	1	blank2r.bmp	500	1	DHJF	500	1	blank2r.bmp	880	5	verbissen	880	0	0	0	0	0	0	0	0	0	0	0	0
2024-05-02	12:14:14	12:17:02	168240	6.6.1	4_exp_EVA_AWA_CON	9	A	B	Rpleas_acq	Same	Rpleas	1pleas	acq_new_pleas_nomask	acq1_nomask	1	2	0	0	300	300	0	0	1171	50	1	0	sonnig	anregung	besonnen	vertrauen	vergnügt	kreativ	sterben	ausrottung	bange	versagen	verbissen	krank	gütig	kuss	träumen	engagiert	genießen	gesittet	gierig	krise	töten	engstirnig	gemein	geizig	1	blank2r.bmp	0	1	+	0	1	blank2r.bmp	500	4	B4r.bmp	500	1	blank2r.bmp	880	5	genießen	880	0	0	0	0	0	0	0	0	0	0	0	0
2024-05-02	12:14:14	12:17:04	170456	6.6.1	4_exp_EVA_AWA_CON	9	A	B	Rpleas_acq	Same	Rpleas	1pleas	acq_US_unple_nomask	acq1_nomask	1	3	0	0	300	300	0	0	725	46	1	0	sonnig	anregung	besonnen	vertrauen	vergnügt	kreativ	sterben	ausrottung	bange	versagen	verbissen	krank	gütig	kuss	träumen	engagiert	genießen	gesittet	gierig	krise	töten	engstirnig	gemein	geizig	1	blank2r.bmp	0	1	+	0	1	blank2r.bmp	500	1	DHJF	500	1	blank2r.bmp	880	4	versagen	880	0	0	0	0	0	0	0	0	0	0	0	0
2024-05-02	12:14:14	12:17:07	172480	6.6.1	4_exp_EVA_AWA_CON	9	A	B	Rpleas_acq	Same	Rpleas	1pleas	acq_new_unple_nomask	acq1_nomask	1	4	0	0	300	300	0	0	538	46	1	0	sonnig	anregung	besonnen	vertrauen	vergnügt	kreativ	sterben	ausrottung	bange	versagen	verbissen	krank	gütig	kuss	träumen	engagiert	genießen	gesittet	gierig	krise	töten	engstirnig	gemein	geizig	1	blank2r.bmp	0	1	+	0	1	blank2r.bmp	500	2	B2r.bmp	500	1	blank2r.bmp	880	1	gierig	880	0	0	0	0	0	0	0	0	0	0	0	0
2024-05-02	12:14:14	12:17:08	174456	6.6.1	4_exp_EVA_AWA_CON	9	A	B	Rpleas_acq	Same	Rpleas	1pleas	acq_US_pleas_nomask	acq1_nomask	1	5	0	0	300	300	0	0	493	50	1	0	sonnig	anregung	besonnen	vertrauen	vergnügt	kreativ	sterben	ausrottung	bange	versagen	verbissen	krank	gütig	kuss	träumen	engagiert	genießen	gesittet	gierig	krise	töten	engstirnig	gemein	geizig	1	blank2r.bmp	0	1	+	0	1	blank2r.bmp	500	1	CPLW	500	1	blank2r.bmp	880	5	vergnügt	880	0	0	0	0	0	0	0	0	0	0	0	0
2024-05-02	12:14:14	12:17:10	176440	6.6.1	4_exp_EVA_AWA_CON	9	A	B	Rpleas_acq	Same	Rpleas	1pleas	acq_US_pleas_nomask	acq1_nomask	1	6	0	0	300	300	0	0	495	50	1	0	sonnig	anregung	besonnen	vertrauen	vergnügt	kreativ	sterben	ausrottung	bange	versagen	verbissen	krank	gütig	kuss	träumen	engagiert	genießen	gesittet	gierig	krise	töten	engstirnig	gemein	geizig	1	blank2r.bmp	0	1	+	0	1	blank2r.bmp	500	1	CPLW	500	1	blank2r.bmp	880	1	sonnig	880	0	0	0	0	0	0	0	0	0	0	0	0
2024-05-02	12:14:14	12:17:13	178753	6.6.1	4_exp_EVA_AWA_CON	9	A	B	Rpleas_acq	Same	Rpleas	1pleas	acq_new_pleas_nomask	acq1_nomask	1	7	0	0	300	300	0	0	626	46	0	0	sonnig	anregung	besonnen	vertrauen	vergnügt	kreativ	sterben	ausrottung	bange	versagen	verbissen	krank	gütig	kuss	träumen	engagiert	genießen	gesittet	gierig	krise	töten	engstirnig	gemein	geizig	1	blank2r.bmp	0	1	+	0	1	blank2r.bmp	500	7	C3r.bmp	500	1	blank2r.bmp	880	6	gesittet	880	1	FEHLER	1528	0	0	0	0	0	0	0	0	0
2024-05-02	12:14:14	12:17:15	180616	6.6.1	4_exp_EVA_AWA_CON	9	A	B	Rpleas_acq	Same	Rpleas	1pleas	acq_US_unple_nomask	acq1_nomask	1	8	0	0	300	300	0	0	579	46	1	0	sonnig	anregung	besonnen	vertrauen	vergnügt	kreativ	sterben	ausrottung	bange	versagen	verbissen	krank	gütig	kuss	träumen	engagiert	genießen	gesittet	gierig	krise	töten	engstirnig	gemein	geizig	1	blank2r.bmp	0	1	+	0	1	blank2r.bmp	500	1	DHJF	500	1	blank2r.bmp	880	1	sterben	880	0	0	0	0	0	0	0	0	0	0	0	0
2024-05-02	12:14:14	12:17:17	182640	6.6.1	4_exp_EVA_AWA_CON	9	A	B	Rpleas_acq	Same	Rpleas	1pleas	acq_new_unple_nomask	acq1_nomask	1	9	0	0	300	300	0	0	541	46	1	0	sonnig	anregung	besonnen	vertrauen	vergnügt	kreativ	sterben	ausrottung	bange	versagen	verbissen	krank	gütig	kuss	träumen	engagiert	genießen	gesittet	gierig	krise	töten	engstirnig	gemein	geizig	1	blank2r.bmp	0	1	+	0	1	blank2r.bmp	500	5	C1r.bmp	500	1	blank2r.bmp	880	2	krise	880	0	0	0	0	0	0	0	0	0	0	0	0
2024-05-02	12:14:14	12:17:19	184632	6.6.1	4_exp_EVA_AWA_CON	9	A	B	Rpleas_acq	Same	Rpleas	1pleas	acq_US_pleas_nomask	acq1_nomask	1	10	0	0	300	300	0	0	502	50	1	0	sonnig	anregung	besonnen	vertrauen	vergnügt	kreativ	sterben	ausrottung	bange	versagen	verbissen	krank	gütig	kuss	träumen	engagiert	genießen	gesittet	gierig	krise	töten	engstirnig	gemein	geizig	1	blank2r.bmp	0	1	+	0	1	blank2r.bmp	500	1	CPLW	500	1	blank2r.bmp	880	4	vertrauen	880	0	0	0	0	0	0	0	0	0	0	0	0
2024-05-02	12:14:14	12:17:21	186664	6.6.1	4_exp_EVA_AWA_CON	9	A	B	Rpleas_acq	Same	Rpleas	1pleas	acq_new_pleas_nomask	acq1_nomask	1	11	0	0	300	300	0	0	543	50	1	0	sonnig	anregung	besonnen	vertrauen	vergnügt	kreativ	sterben	ausrottung	bange	versagen	verbissen	krank	gütig	kuss	träumen	engagiert	genießen	gesittet	gierig	krise	töten	engstirnig	gemein	geizig	1	blank2r.bmp	0	1	+	0	1	blank2r.bmp	500	3	B3r.bmp	500	1	blank2r.bmp	880	3	träumen	880	0	0	0	0	0	0	0	0	0	0	0	0
2024-05-02	12:14:14	12:17:23	188760	6.6.1	4_exp_EVA_AWA_CON	9	A	B	Rpleas_acq	Same	Rpleas	1pleas	acq_new_unple_nomask	acq1_nomask	1	12	0	0	300	300	0	0	608	46	1	0	sonnig	anregung	besonnen	vertrauen	vergnügt	kreativ	sterben	ausrottung	bange	versagen	verbissen	krank	gütig	kuss	träumen	engagiert	genießen	gesittet	gierig	krise	töten	engstirnig	gemein	geizig	1	blank2r.bmp	0	1	+	0	1	blank2r.bmp	500	6	C2r.bmp	500	1	blank2r.bmp	880	5	gemein	880	0	0	0	0	0	0	0	0	0	0	0	0
2024-05-02	12:14:14	12:17:25	190720	6.6.1	4_exp_EVA_AWA_CON	9	A	B	Rpleas_acq	Same	Rpleas	1pleas	acq_US_pleas_nomask	acq1_nomask	1	13	0	0	300	300	0	0	476	50	1	0	sonnig	anregung	besonnen	vertrauen	vergnügt	kreativ	sterben	ausrottung	bange	versagen	verbissen	krank	gütig	kuss	träumen	engagiert	genießen	gesittet	gierig	krise	töten	engstirnig	gemein	geizig	1	blank2r.bmp	0	1	+	0	1	blank2r.bmp	500	1	CPLW	500	1	blank2r.bmp	880	3	besonnen	880	0	0	0	0	0	0	0	0	0	0	0	0
2024-05-02	12:14:14	12:17:27	192656	6.6.1	4_exp_EVA_AWA_CON	9	A	B	Rpleas_acq	Same	Rpleas	1pleas	acq_new_unple_nomask	acq1_nomask	1	14	0	0	300	300	0	0	451	46	1	0	sonnig	anregung	besonnen	vertrauen	vergnügt	kreativ	sterben	ausrottung	bange	versagen	verbissen	krank	gütig	kuss	träumen	engagiert	genießen	gesittet	gierig	krise	töten	engstirnig	gemein	geizig	1	blank2r.bmp	0	1	+	0	1	blank2r.bmp	500	8	C4r.bmp	500	1	blank2r.bmp	880	3	töten	880	0	0	0	0	0	0	0	0	0	0	0	0
2024-05-02	12:14:14	12:17:29	194624	6.6.1	4_exp_EVA_AWA_CON	9	A	B	Rpleas_acq	Same	Rpleas	1pleas	acq_US_unple_nomask	acq1_nomask	1	15	0	0	300	300	0	0	478	46	1	0	sonnig	anregung	besonnen	vertrauen	vergnügt	kreativ	sterben	ausrottung	bange	versagen	verbissen	krank	gütig	kuss	träumen	engagiert	genießen	gesittet	gierig	krise	töten	engstirnig	gemein	geizig	1	blank2r.bmp	0	1	+	0	1	blank2r.bmp	500	1	DHJF	500	1	blank2r.bmp	880	3	bange	880	0	0	0	0	0	0	0	0	0	0	0	0
2024-05-02	12:14:14	12:17:31	196616	6.6.1	4_exp_EVA_AWA_CON	9	A	B	Rpleas_acq	Same	Rpleas	1pleas	acq_new_pleas_nomask	acq1_nomask	1	16	0	0	300	300	0	0	508	50	1	0	sonnig	anregung	besonnen	vertrauen	vergnügt	kreativ	sterben	ausrottung	bange	versagen	verbissen	krank	gütig	kuss	träumen	engagiert	genießen	gesittet	gierig	krise	töten	engstirnig	gemein	geizig	1	blank2r.bmp	0	1	+	0	1	blank2r.bmp	500	1	B1r.bmp	500	1	blank2r.bmp	880	4	engagiert	880	0	0	0	0	0	0	0	0	0	0	0	0
2024-05-02	12:14:14	12:17:33	198656	6.6.1	4_exp_EVA_AWA_CON	9	A	B	Rpleas_acq	Same	Rpleas	1pleas	acq_US_pleas_nomask	acq1_nomask	1	17	0	0	300	300	0	0	557	50	1	0	sonnig	anregung	besonnen	vertrauen	vergnügt	kreativ	sterben	ausrottung	bange	versagen	verbissen	krank	gütig	kuss	träumen	engagiert	genießen	gesittet	gierig	krise	töten	engstirnig	gemein	geizig	1	blank2r.bmp	0	1	+	0	1	blank2r.bmp	500	1	CPLW	500	1	blank2r.bmp	880	2	anregung	880	0	0	0	0	0	0	0	0	0	0	0	0
2024-05-02	12:14:14	12:17:35	200776	6.6.1	4_exp_EVA_AWA_CON	9	A	B	Rpleas_acq	Same	Rpleas	1pleas	acq_new_pleas_nomask	acq1_nomask	1	18	0	0	300	300	0	0	636	50	1	0	sonnig	anregung	besonnen	vertrauen	vergnügt	kreativ	sterben	ausrottung	bange	versagen	verbissen	krank	gütig	kuss	träumen	engagiert	genießen	gesittet	gierig	krise	töten	engstirnig	gemein	geizig	1	blank2r.bmp	0	1	+	0	1	blank2r.bmp	500	4	B4r.bmp	500	1	blank2r.bmp	880	1	gütig	880	0	0	0	0	0	0	0	0	0	0	0	0
2024-05-02	12:14:14	12:17:37	202840	6.6.1	4_exp_EVA_AWA_CON	9	A	B	Rpleas_acq	Same	Rpleas	1pleas	acq_US_unple_nomask	acq1_nomask	1	19	0	0	300	300	0	0	578	46	1	0	sonnig	anregung	besonnen	vertrauen	vergnügt	kreativ	sterben	ausrottung	bange	versagen	verbissen	krank	gütig	kuss	träumen	engagiert	genießen	gesittet	gierig	krise	töten	engstirnig	gemein	geizig	1	blank2r.bmp	0	1	+	0	1	blank2r.bmp	500	1	DHJF	500	1	blank2r.bmp	880	2	ausrottung	880	0	0	0	0	0	0	0	0	0	0	0	0
2024-05-02	12:14:14	12:17:39	204832	6.6.1	4_exp_EVA_AWA_CON	9	A	B	Rpleas_acq	Same	Rpleas	1pleas	acq_US_unple_nomask	acq1_nomask	1	20	0	0	300	300	0	0	509	46	1	0	sonnig	anregung	besonnen	vertrauen	vergnügt	kreativ	sterben	ausrottung	bange	versagen	verbissen	krank	gütig	kuss	träumen	engagiert	genießen	gesittet	gierig	krise	töten	engstirnig	gemein	geizig	1	blank2r.bmp	0	1	+	0	1	blank2r.bmp	500	1	DHJF	500	1	blank2r.bmp	880	6	krank	880	0	0	0	0	0	0	0	0	0	0	0	0
2024-05-02	12:14:14	12:17:41	206840	6.6.1	4_exp_EVA_AWA_CON	9	A	B	Rpleas_acq	Same	Rpleas	1pleas	acq_US_pleas_nomask	acq1_nomask	1	21	0	0	300	300	0	0	526	50	1	0	sonnig	anregung	besonnen	vertrauen	vergnügt	kreativ	sterben	ausrottung	bange	versagen	verbissen	krank	gütig	kuss	träumen	engagiert	genießen	gesittet	gierig	krise	töten	engstirnig	gemein	geizig	1	blank2r.bmp	0	1	+	0	1	blank2r.bmp	500	1	CPLW	500	1	blank2r.bmp	880	6	kreativ	880	0	0	0	0	0	0	0	0	0	0	0	0
2024-05-02	12:14:14	12:17:43	208832	6.6.1	4_exp_EVA_AWA_CON	9	A	B	Rpleas_acq	Same	Rpleas	1pleas	acq_new_pleas_nomask	acq1_nomask	1	22	0	0	300	300	0	0	507	50	1	0	sonnig	anregung	besonnen	vertrauen	vergnügt	kreativ	sterben	ausrottung	bange	versagen	verbissen	krank	gütig	kuss	träumen	engagiert	genießen	gesittet	gierig	krise	töten	engstirnig	gemein	geizig	1	blank2r.bmp	0	1	+	0	1	blank2r.bmp	500	8	C4r.bmp	500	1	blank2r.bmp	880	2	kuss	880	0	0	0	0	0	0	0	0	0	0	0	0
2024-05-02	12:14:14	12:17:45	210944	6.6.1	4_exp_EVA_AWA_CON	9	A	B	Rpleas_acq	Same	Rpleas	1pleas	acq_new_unple_nomask	acq1_nomask	1	23	0	0	300	300	0	0	627	46	1	0	sonnig	anregung	besonnen	vertrauen	vergnügt	kreativ	sterben	ausrottung	bange	versagen	verbissen	krank	gütig	kuss	träumen	engagiert	genießen	gesittet	gierig	krise	töten	engstirnig	gemein	geizig	1	blank2r.bmp	0	1	+	0	1	blank2r.bmp	500	2	B2r.bmp	500	1	blank2r.bmp	880	6	geizig	880	0	0	0	0	0	0	0	0	0	0	0	0
2024-05-02	12:14:14	12:17:47	213400	6.6.1	4_exp_EVA_AWA_CON	9	A	B	Rpleas_acq	Same	Rpleas	1pleas	acq_new_unple_nomask	acq1_nomask	1	24	0	0	300	300	0	0	972	46	1	0	sonnig	anregung	besonnen	vertrauen	vergnügt	kreativ	sterben	ausrottung	bange	versagen	verbissen	krank	gütig	kuss	träumen	engagiert	genießen	gesittet	gierig	krise	töten	engstirnig	gemein	geizig	1	blank2r.bmp	0	1	+	0	1	blank2r.bmp	500	5	C1r.bmp	500	1	blank2r.bmp	880	4	engstirnig	880	0	0	0	0	0	0	0	0	0	0	0	0
2024-05-02	12:14:14	12:17:49	215432	6.6.1	4_exp_EVA_AWA_CON	9	A	B	Rpleas_acq	Same	Rpleas	1pleas	acq_US_unple_nomask	acq1_nomask	1	25	0	0	300	300	0	0	542	46	1	0	sonnig	anregung	besonnen	vertrauen	vergnügt	kreativ	sterben	ausrottung	bange	versagen	verbissen	krank	gütig	kuss	träumen	engagiert	genießen	gesittet	gierig	krise	töten	engstirnig	gemein	geizig	1	blank2r.bmp	0	1	+	0	1	blank2r.bmp	500	1	DHJF	500	1	blank2r.bmp	880	4	versagen	880	0	0	0	0	0	0	0	0	0	0	0	0
2024-05-02	12:14:14	12:17:51	217456	6.6.1	4_exp_EVA_AWA_CON	9	A	B	Rpleas_acq	Same	Rpleas	1pleas	acq_new_pleas_nomask	acq1_nomask	1	26	0	0	300	300	0	0	535	50	1	0	sonnig	anregung	besonnen	vertrauen	vergnügt	kreativ	sterben	ausrottung	bange	versagen	verbissen	krank	gütig	kuss	träumen	engagiert	genießen	gesittet	gierig	krise	töten	engstirnig	gemein	geizig	1	blank2r.bmp	0	1	+	0	1	blank2r.bmp	500	3	B3r.bmp	500	1	blank2r.bmp	880	3	träumen	880	0	0	0	0	0	0	0	0	0	0	0	0
2024-05-02	12:14:14	12:17:54	219472	6.6.1	4_exp_EVA_AWA_CON	9	A	B	Rpleas_acq	Same	Rpleas	1pleas	acq_US_unple_nomask	acq1_nomask	1	27	0	0	300	300	0	0	530	46	1	0	sonnig	anregung	besonnen	vertrauen	vergnügt	kreativ	sterben	ausrottung	bange	versagen	verbissen	krank	gütig	kuss	träumen	engagiert	genießen	gesittet	gierig	krise	töten	engstirnig	gemein	geizig	1	blank2r.bmp	0	1	+	0	1	blank2r.bmp	500	1	DHJF	500	1	blank2r.bmp	880	1	sterben	880	0	0	0	0	0	0	0	0	0	0	0	0
2024-05-02	12:14:14	12:17:56	221520	6.6.1	4_exp_EVA_AWA_CON	9	A	B	Rpleas_acq	Same	Rpleas	1pleas	acq_US_pleas_nomask	acq1_nomask	1	28	0	0	300	300	0	0	566	50	1	0	sonnig	anregung	besonnen	vertrauen	vergnügt	kreativ	sterben	ausrottung	bange	versagen	verbissen	krank	gütig	kuss	träumen	engagiert	genießen	gesittet	gierig	krise	töten	engstirnig	gemein	geizig	1	blank2r.bmp	0	1	+	0	1	blank2r.bmp	500	1	CPLW	500	1	blank2r.bmp	880	2	anregung	880	0	0	0	0	0	0	0	0	0	0	0	0
2024-05-02	12:14:14	12:17:58	223784	6.6.1	4_exp_EVA_AWA_CON	9	A	B	Rpleas_acq	Same	Rpleas	1pleas	acq_new_unple_nomask	acq1_nomask	1	29	0	0	300	300	0	0	779	46	1	0	sonnig	anregung	besonnen	vertrauen	vergnügt	kreativ	sterben	ausrottung	bange	versagen	verbissen	krank	gütig	kuss	träumen	engagiert	genießen	gesittet	gierig	krise	töten	engstirnig	gemein	geizig	1	blank2r.bmp	0	1	+	0	1	blank2r.bmp	500	7	C3r.bmp	500	1	blank2r.bmp	880	4	engstirnig	880	0	0	0	0	0	0	0	0	0	0	0	0
2024-05-02	12:14:14	12:18:00	226024	6.6.1	4_exp_EVA_AWA_CON	9	A	B	Rpleas_acq	Same	Rpleas	1pleas	acq_US_unple_nomask	acq1_nomask	1	30	0	0	300	300	0	0	758	46	1	0	sonnig	anregung	besonnen	vertrauen	vergnügt	kreativ	sterben	ausrottung	bange	versagen	verbissen	krank	gütig	kuss	träumen	engagiert	genießen	gesittet	gierig	krise	töten	engstirnig	gemein	geizig	1	blank2r.bmp	0	1	+	0	1	blank2r.bmp	500	1	DHJF	500	1	blank2r.bmp	880	6	krank	880	0	0	0	0	0	0	0	0	0	0	0	0
2024-05-02	12:14:14	12:18:02	228032	6.6.1	4_exp_EVA_AWA_CON	9	A	B	Rpleas_acq	Same	Rpleas	1pleas	acq_US_pleas_nomask	acq1_nomask	1	31	0	0	300	300	0	0	524	50	1	0	sonnig	anregung	besonnen	vertrauen	vergnügt	kreativ	sterben	ausrottung	bange	versagen	verbissen	krank	gütig	kuss	träumen	engagiert	genießen	gesittet	gierig	krise	töten	engstirnig	gemein	geizig	1	blank2r.bmp	0	1	+	0	1	blank2r.bmp	500	1	CPLW	500	1	blank2r.bmp	880	6	kreativ	880	0	0	0	0	0	0	0	0	0	0	0	0
2024-05-02	12:14:14	12:18:04	230000	6.6.1	4_exp_EVA_AWA_CON	9	A	B	Rpleas_acq	Same	Rpleas	1pleas	acq_new_unple_nomask	acq1_nomask	1	32	0	0	300	300	0	0	481	46	1	0	sonnig	anregung	besonnen	vertrauen	vergnügt	kreativ	sterben	ausrottung	bange	versagen	verbissen	krank	gütig	kuss	träumen	engagiert	genießen	gesittet	gierig	krise	töten	engstirnig	gemein	geizig	1	blank2r.bmp	0	1	+	0	1	blank2r.bmp	500	6	C2r.bmp	500	1	blank2r.bmp	880	5	gemein	880	0	0	0	0	0	0	0	0	0	0	0	0
2024-05-02	12:14:14	12:18:06	232000	6.6.1	4_exp_EVA_AWA_CON	9	A	B	Rpleas_acq	Same	Rpleas	1pleas	acq_US_pleas_nomask	acq1_nomask	1	33	0	0	300	300	0	0	510	50	1	0	sonnig	anregung	besonnen	vertrauen	vergnügt	kreativ	sterben	ausrottung	bange	versagen	verbissen	krank	gütig	kuss	träumen	engagiert	genießen	gesittet	gierig	krise	töten	engstirnig	gemein	geizig	1	blank2r.bmp	0	1	+	0	1	blank2r.bmp	500	1	CPLW	500	1	blank2r.bmp	880	3	besonnen	880	0	0	0	0	0	0	0	0	0	0	0	0
2024-05-02	12:14:14	12:18:08	233976	6.6.1	4_exp_EVA_AWA_CON	9	A	B	Rpleas_acq	Same	Rpleas	1pleas	acq_new_unple_nomask	acq1_nomask	1	34	0	0	300	300	0	0	494	46	1	0	sonnig	anregung	besonnen	vertrauen	vergnügt	kreativ	sterben	ausrottung	bange	versagen	verbissen	krank	gütig	kuss	träumen	engagiert	genießen	gesittet	gierig	krise	töten	engstirnig	gemein	geizig	1	blank2r.bmp	0	1	+	0	1	blank2r.bmp	500	1	B1r.bmp	500	1	blank2r.bmp	880	1	gierig	880	0	0	0	0	0	0	0	0	0	0	0	0
2024-05-02	12:14:14	12:18:10	236072	6.6.1	4_exp_EVA_AWA_CON	9	A	B	Rpleas_acq	Same	Rpleas	1pleas	acq_new_pleas_nomask	acq1_nomask	1	35	0	0	300	300	0	0	609	50	1	0	sonnig	anregung	besonnen	vertrauen	vergnügt	kreativ	sterben	ausrottung	bange	versagen	verbissen	krank	gütig	kuss	träumen	engagiert	genießen	gesittet	gierig	krise	töten	engstirnig	gemein	geizig	1	blank2r.bmp	0	1	+	0	1	blank2r.bmp	500	3	B3r.bmp	500	1	blank2r.bmp	880	6	gesittet	880	0	0	0	0	0	0	0	0	0	0	0	0
2024-05-02	12:14:14	12:18:12	238296	6.6.1	4_exp_EVA_AWA_CON	9	A	B	Rpleas_acq	Same	Rpleas	1pleas	acq_new_pleas_nomask	acq1_nomask	1	36	0	0	300	300	0	0	742	50	1	0	sonnig	anregung	besonnen	vertrauen	vergnügt	kreativ	sterben	ausrottung	bange	versagen	verbissen	krank	gütig	kuss	träumen	engagiert	genießen	gesittet	gierig	krise	töten	engstirnig	gemein	geizig	1	blank2r.bmp	0	1	+	0	1	blank2r.bmp	500	1	B1r.bmp	500	1	blank2r.bmp	880	4	engagiert	880	0	0	0	0	0	0	0	0	0	0	0	0
2024-05-02	12:14:14	12:18:53	278858	6.6.1	4_exp_EVA_AWA_CON	9	A	B	Rpleas_acq	Same	Rpleas	1pleas	acq_US_unple_nomask	acq2_nomask	2	1	480	0	300	300	0	0	858	46	1	0	sonnig	anregung	besonnen	vertrauen	vergnügt	kreativ	sterben	ausrottung	bange	versagen	verbissen	krank	gütig	kuss	träumen	engagiert	genießen	gesittet	gierig	krise	töten	engstirnig	gemein	geizig	1	blank2r.bmp	0	1	+	0	1	blank2r.bmp	500	1	DHJF	500	1	blank2r.bmp	880	5	verbissen	880	1	!	1313	1	!	-1	0	0	0	0	0	0
2024-05-02	12:14:14	12:18:55	281060	6.6.1	4_exp_EVA_AWA_CON	9	A	B	Rpleas_acq	Same	Rpleas	1pleas	acq_US_unple_nomask	acq2_nomask	2	2	480	1	300	300	0	0	426	46	1	0	sonnig	anregung	besonnen	vertrauen	vergnügt	kreativ	sterben	ausrottung	bange	versagen	verbissen	krank	gütig	kuss	träumen	engagiert	genießen	gesittet	gierig	krise	töten	engstirnig	gemein	geizig	1	blank2r.bmp	0	1	+	0	1	blank2r.bmp	500	1	DHJF	500	1	blank2r.bmp	880	2	ausrottung	880	1	!	1313	1	!	1328	0	0	0	0	0	0
2024-05-02	12:14:14	12:18:58	283570	6.6.1	4_exp_EVA_AWA_CON	9	A	B	Rpleas_acq	Same	Rpleas	1pleas	acq_new_unple_nomask	acq2_nomask	2	3	480	0	300	300	0	0	737	46	1	0	sonnig	anregung	besonnen	vertrauen	vergnügt	kreativ	sterben	ausrottung	bange	versagen	verbissen	krank	gütig	kuss	träumen	engagiert	genießen	gesittet	gierig	krise	töten	engstirnig	gemein	geizig	1	blank2r.bmp	0	1	+	0	1	blank2r.bmp	500	4	B4r.bmp	500	1	blank2r.bmp	880	3	töten	880	1	!	1312	1	!	-1	0	0	0	0	0	0
2024-05-02	12:14:14	12:19:00	285787	6.6.1	4_exp_EVA_AWA_CON	9	A	B	Rpleas_acq	Same	Rpleas	1pleas	acq_new_unple_nomask	acq2_nomask	2	4	480	1	300	300	0	0	441	46	1	0	sonnig	anregung	besonnen	vertrauen	vergnügt	kreativ	sterben	ausrottung	bange	versagen	verbissen	krank	gütig	kuss	träumen	engagiert	genießen	gesittet	gierig	krise	töten	engstirnig	gemein	geizig	1	blank2r.bmp	0	1	+	0	1	blank2r.bmp	500	5	C1r.bmp	500	1	blank2r.bmp	880	6	geizig	880	1	!	1313	1	!	1343	0	0	0	0	0	0
2024-05-02	12:14:14	12:19:02	287962	6.6.1	4_exp_EVA_AWA_CON	9	A	B	Rpleas_acq	Same	Rpleas	1pleas	acq_US_pleas_nomask	acq2_nomask	2	5	480	0	300	300	0	0	396	50	1	0	sonnig	anregung	besonnen	vertrauen	vergnügt	kreativ	sterben	ausrottung	bange	versagen	verbissen	krank	gütig	kuss	träumen	engagiert	genießen	gesittet	gierig	krise	töten	engstirnig	gemein	geizig	1	blank2r.bmp	0	1	+	0	1	blank2r.bmp	500	1	CPLW	500	1	blank2r.bmp	880	4	vertrauen	880	1	!	-1	1	!	-1	0	0	0	0	0	0
2024-05-02	12:14:14	12:19:05	290506	6.6.1	4_exp_EVA_AWA_CON	9	A	B	Rpleas_acq	Same	Rpleas	1pleas	acq_new_pleas_nomask	acq2_nomask	2	6	480	0	300	300	0	0	768	50	1	0	sonnig	anregung	besonnen	vertrauen	vergnügt	kreativ	sterben	ausrottung	bange	versagen	verbissen	krank	gütig	kuss	träumen	engagiert	genießen	gesittet	gierig	krise	töten	engstirnig	gemein	geizig	1	blank2r.bmp	0	1	+	0	1	blank2r.bmp	500	7	C3r.bmp	500	1	blank2r.bmp	880	5	genießen	880	1	!	1312	1	!	-1	0	0	0	0	0	0
2024-05-02	12:14:14	12:19:07	292715	6.6.1	4_exp_EVA_AWA_CON	9	A	B	Rpleas_acq	Same	Rpleas	1pleas	acq_new_pleas_nomask	acq2_nomask	2	7	480	1	300	300	0	0	435	50	1	0	sonnig	anregung	besonnen	vertrauen	vergnügt	kreativ	sterben	ausrottung	bange	versagen	verbissen	krank	gütig	kuss	träumen	engagiert	genießen	gesittet	gierig	krise	töten	engstirnig	gemein	geizig	1	blank2r.bmp	0	1	+	0	1	blank2r.bmp	500	8	C4r.bmp	500	1	blank2r.bmp	880	2	kuss	880	1	!	1313	1	!	1336	0	0	0	0	0	0
2024-05-02	12:14:14	12:19:09	295122	6.6.1	4_exp_EVA_AWA_CON	9	A	B	Rpleas_acq	Same	Rpleas	1pleas	acq_new_pleas_nomask	acq2_nomask	2	8	480	0	300	300	0	0	631	50	1	0	sonnig	anregung	besonnen	vertrauen	vergnügt	kreativ	sterben	ausrottung	bange	versagen	verbissen	krank	gütig	kuss	träumen	engagiert	genießen	gesittet	gierig	krise	töten	engstirnig	gemein	geizig	1	blank2r.bmp	0	1	+	0	1	blank2r.bmp	500	6	C2r.bmp	500	1	blank2r.bmp	880	1	gütig	880	1	!	1312	1	!	-1	0	0	0	0	0	0
2024-05-02	12:14:14	12:19:12	297546	6.6.1	4_exp_EVA_AWA_CON	9	A	B	Rpleas_acq	Same	Rpleas	1pleas	acq_US_pleas_nomask	acq2_nomask	2	9	480	0	300	300	0	0	644	50	1	0	sonnig	anregung	besonnen	vertrauen	vergnügt	kreativ	sterben	ausrottung	bange	versagen	verbissen	krank	gütig	kuss	träumen	engagiert	genießen	gesittet	gierig	krise	töten	engstirnig	gemein	geizig	1	blank2r.bmp	0	1	+	0	1	blank2r.bmp	500	1	CPLW	500	1	blank2r.bmp	880	5	vergnügt	880	1	!	1313	1	!	-1	0	0	0	0	0	0
2024-05-02	12:14:14	12:19:14	299738	6.6.1	4_exp_EVA_AWA_CON	9	A	B	Rpleas_acq	Same	Rpleas	1pleas	acq_US_unple_nomask	acq2_nomask	2	10	480	1	300	300	0	0	414	46	1	0	sonnig	anregung	besonnen	vertrauen	vergnügt	kreativ	sterben	ausrottung	bange	versagen	verbissen	krank	gütig	kuss	träumen	engagiert	genießen	gesittet	gierig	krise	töten	engstirnig	gemein	geizig	1	blank2r.bmp	0	1	+	0	1	blank2r.bmp	500	1	DHJF	500	1	blank2r.bmp	880	3	bange	880	1	!	1312	1	!	1314	0	0	0	0	0	0
2024-05-02	12:14:14	12:19:16	301971	6.6.1	4_exp_EVA_AWA_CON	9	A	B	Rpleas_acq	Same	Rpleas	1pleas	acq_US_pleas_nomask	acq2_nomask	2	11	480	1	300	300	0	0	455	50	1	0	sonnig	anregung	besonnen	vertrauen	vergnügt	kreativ	sterben	ausrottung	bange	versagen	verbissen	krank	gütig	kuss	träumen	engagiert	genießen	gesittet	gierig	krise	töten	engstirnig	gemein	geizig	1	blank2r.bmp	0	1	+	0	1	blank2r.bmp	500	1	CPLW	500	1	blank2r.bmp	880	1	sonnig	880	1	!	1313	1	!	1356	0	0	0	0	0	0
2024-05-02	12:14:14	12:19:18	304283	6.6.1	4_exp_EVA_AWA_CON	9	A	B	Rpleas_acq	Same	Rpleas	1pleas	acq_new_unple_nomask	acq2_nomask	2	12	480	1	300	300	0	0	535	46	1	0	sonnig	anregung	besonnen	vertrauen	vergnügt	kreativ	sterben	ausrottung	bange	versagen	verbissen	krank	gütig	kuss	träumen	engagiert	genießen	gesittet	gierig	krise	töten	engstirnig	gemein	geizig	1	blank2r.bmp	0	1	+	0	1	blank2r.bmp	500	2	B2r.bmp	500	1	blank2r.bmp	880	2	krise	880	1	!	1312	1	!	1437	0	0	0	0	0	0
2024-05-02	12:14:14	12:19:21	306540	6.6.1	4_exp_EVA_AWA_CON	9	A	B	Rpleas_acq	Same	Rpleas	1pleas	acq_US_unple_nomask	acq2_nomask	2	13	480	1	300	300	0	0	480	46	1	0	sonnig	anregung	besonnen	vertrauen	vergnügt	kreativ	sterben	ausrottung	bange	versagen	verbissen	krank	gütig	kuss	träumen	engagiert	genießen	gesittet	gierig	krise	töten	engstirnig	gemein	geizig	1	blank2r.bmp	0	1	+	0	1	blank2r.bmp	500	1	DHJF	500	1	blank2r.bmp	880	2	ausrottung	880	1	!	1312	1	!	1382	0	0	0	0	0	0
2024-05-02	12:14:14	12:19:23	308877	6.6.1	4_exp_EVA_AWA_CON	9	A	B	Rpleas_acq	Same	Rpleas	1pleas	acq_new_unple_nomask	acq2_nomask	2	14	480	0	300	300	0	0	355	50	0	0	sonnig	anregung	besonnen	vertrauen	vergnügt	kreativ	sterben	ausrottung	bange	versagen	verbissen	krank	gütig	kuss	träumen	engagiert	genießen	gesittet	gierig	krise	töten	engstirnig	gemein	geizig	1	blank2r.bmp	0	1	+	0	1	blank2r.bmp	500	7	C3r.bmp	500	1	blank2r.bmp	880	2	krise	880	1	FEHLER	1548	1	!	-1	1	!	-1	0	0	0
2024-05-02	12:14:14	12:19:25	311138	6.6.1	4_exp_EVA_AWA_CON	9	A	B	Rpleas_acq	Same	Rpleas	1pleas	acq_US_unple_nomask	acq2_nomask	2	15	480	0	300	300	0	0	687	46	1	0	sonnig	anregung	besonnen	vertrauen	vergnügt	kreativ	sterben	ausrottung	bange	versagen	verbissen	krank	gütig	kuss	träumen	engagiert	genießen	gesittet	gierig	krise	töten	engstirnig	gemein	geizig	1	blank2r.bmp	0	1	+	0	1	blank2r.bmp	500	1	DHJF	500	1	blank2r.bmp	880	1	sterben	880	1	!	1312	1	!	-1	0	0	0	0	0	0
2024-05-02	12:14:14	12:19:28	313522	6.6.1	4_exp_EVA_AWA_CON	9	A	B	Rpleas_acq	Same	Rpleas	1pleas	acq_US_pleas_nomask	acq2_nomask	2	16	480	0	300	300	0	0	610	50	1	0	sonnig	anregung	besonnen	vertrauen	vergnügt	kreativ	sterben	ausrottung	bange	versagen	verbissen	krank	gütig	kuss	träumen	engagiert	genießen	gesittet	gierig	krise	töten	engstirnig	gemein	geizig	1	blank2r.bmp	0	1	+	0	1	blank2r.bmp	500	1	CPLW	500	1	blank2r.bmp	880	5	vergnügt	880	1	!	1312	1	!	-1	0	0	0	0	0	0
2024-05-02	12:14:14	12:19:30	315602	6.6.1	4_exp_EVA_AWA_CON	9	A	B	Rpleas_acq	Same	Rpleas	1pleas	acq_US_unple_nomask	acq2_nomask	2	17	480	0	300	300	0	0	298	46	1	0	sonnig	anregung	besonnen	vertrauen	vergnügt	kreativ	sterben	ausrottung	bange	versagen	verbissen	krank	gütig	kuss	träumen	engagiert	genießen	gesittet	gierig	krise	töten	engstirnig	gemein	geizig	1	blank2r.bmp	0	1	+	0	1	blank2r.bmp	500	1	DHJF	500	1	blank2r.bmp	880	5	verbissen	880	1	!	-1	1	!	-1	0	0	0	0	0	0
2024-05-02	12:14:14	12:19:32	318018	6.6.1	4_exp_EVA_AWA_CON	9	A	B	Rpleas_acq	Same	Rpleas	1pleas	acq_new_pleas_nomask	acq2_nomask	2	18	480	0	300	300	0	0	643	50	1	0	sonnig	anregung	besonnen	vertrauen	vergnügt	kreativ	sterben	ausrottung	bange	versagen	verbissen	krank	gütig	kuss	träumen	engagiert	genießen	gesittet	gierig	krise	töten	engstirnig	gemein	geizig	1	blank2r.bmp	0	1	+	0	1	blank2r.bmp	500	4	B4r.bmp	500	1	blank2r.bmp	880	3	träumen	880	1	!	1313	1	!	-1	0	0	0	0	0	0
2024-05-02	12:14:14	12:19:34	320308	6.6.1	4_exp_EVA_AWA_CON	9	A	B	Rpleas_acq	Same	Rpleas	1pleas	acq_US_pleas_nomask	acq2_nomask	2	19	480	1	300	300	0	0	509	50	1	0	sonnig	anregung	besonnen	vertrauen	vergnügt	kreativ	sterben	ausrottung	bange	versagen	verbissen	krank	gütig	kuss	träumen	engagiert	genießen	gesittet	gierig	krise	töten	engstirnig	gemein	geizig	1	blank2r.bmp	0	1	+	0	1	blank2r.bmp	500	1	CPLW	500	1	blank2r.bmp	880	1	sonnig	880	1	!	1313	1	!	1411	0	0	0	0	0	0
2024-05-02	12:14:14	12:19:37	322746	6.6.1	4_exp_EVA_AWA_CON	9	A	B	Rpleas_acq	Same	Rpleas	1pleas	acq_new_pleas_nomask	acq2_nomask	2	20	480	0	300	300	0	0	658	50	1	0	sonnig	anregung	besonnen	vertrauen	vergnügt	kreativ	sterben	ausrottung	bange	versagen	verbissen	krank	gütig	kuss	träumen	engagiert	genießen	gesittet	gierig	krise	töten	engstirnig	gemein	geizig	1	blank2r.bmp	0	1	+	0	1	blank2r.bmp	500	8	C4r.bmp	500	1	blank2r.bmp	880	2	kuss	880	1	!	1312	1	!	-1	0	0	0	0	0	0
2024-05-02	12:14:14	12:19:39	325210	6.6.1	4_exp_EVA_AWA_CON	9	A	B	Rpleas_acq	Same	Rpleas	1pleas	acq_new_unple_nomask	acq2_nomask	2	21	480	0	300	300	0	0	690	46	1	0	sonnig	anregung	besonnen	vertrauen	vergnügt	kreativ	sterben	ausrottung	bange	versagen	verbissen	krank	gütig	kuss	träumen	engagiert	genießen	gesittet	gierig	krise	töten	engstirnig	gemein	geizig	1	blank2r.bmp	0	1	+	0	1	blank2r.bmp	500	2	B2r.bmp	500	1	blank2r.bmp	880	4	engstirnig	880	1	!	1313	1	!	-1	0	0	0	0	0	0
2024-05-02	12:14:14	12:19:42	327634	6.6.1	4_exp_EVA_AWA_CON	9	A	B	Rpleas_acq	Same	Rpleas	1pleas	acq_new_pleas_nomask	acq2_nomask	2	22	480	0	300	300	0	0	643	50	1	0	sonnig	anregung	besonnen	vertrauen	vergnügt	kreativ	sterben	ausrottung	bange	versagen	verbissen	krank	gütig	kuss	träumen	engagiert	genießen	gesittet	gierig	krise	töten	engstirnig	gemein	geizig	1	blank2r.bmp	0	1	+	0	1	blank2r.bmp	500	6	C2r.bmp	500	1	blank2r.bmp	880	5	genießen	880	1	!	1312	1	!	-1	0	0	0	0	0	0
2024-05-02	12:14:14	12:19:44	330018	6.6.1	4_exp_EVA_AWA_CON	9	A	B	Rpleas_acq	Same	Rpleas	1pleas	acq_US_pleas_nomask	acq2_nomask	2	23	480	0	300	300	0	0	605	50	1	0	sonnig	anregung	besonnen	vertrauen	vergnügt	kreativ	sterben	ausrottung	bange	versagen	verbissen	krank	gütig	kuss	träumen	engagiert	genießen	gesittet	gierig	krise	töten	engstirnig	gemein	geizig	1	blank2r.bmp	0	1	+	0	1	blank2r.bmp	500	1	CPLW	500	1	blank2r.bmp	880	4	vertrauen	880	1	!	1313	1	!	-1	0	0	0	0	0	0
2024-05-02	12:14:14	12:19:46	332301	6.6.1	4_exp_EVA_AWA_CON	9	A	B	Rpleas_acq	Same	Rpleas	1pleas	acq_new_unple_nomask	acq2_nomask	2	24	480	0	300	300	0	0	303	50	0	0	sonnig	anregung	besonnen	vertrauen	vergnügt	kreativ	sterben	ausrottung	bange	versagen	verbissen	krank	gütig	kuss	träumen	engagiert	genießen	gesittet	gierig	krise	töten	engstirnig	gemein	geizig	1	blank2r.bmp	0	1	+	0	1	blank2r.bmp	500	1	B1r.bmp	500	1	blank2r.bmp	880	1	gierig	880	1	FEHLER	1497	1	!	-1	1	!	-1	0	0	0
2024-05-02	12:14:14	12:19:49	334482	6.6.1	4_exp_EVA_AWA_CON	9	A	B	Rpleas_acq	Same	Rpleas	1pleas	acq_US_pleas_nomask	acq2_nomask	2	25	480	0	300	300	0	0	606	50	1	0	sonnig	anregung	besonnen	vertrauen	vergnügt	kreativ	sterben	ausrottung	bange	versagen	verbissen	krank	gütig	kuss	träumen	engagiert	genießen	gesittet	gierig	krise	töten	engstirnig	gemein	geizig	1	blank2r.bmp	0	1	+	0	1	blank2r.bmp	500	1	CPLW	500	1	blank2r.bmp	880	6	kreativ	880	1	!	1312	1	!	-1	0	0	0	0	0	0
2024-05-02	12:14:14	12:19:51	336795	6.6.1	4_exp_EVA_AWA_CON	9	A	B	Rpleas_acq	Same	Rpleas	1pleas	acq_new_unple_nomask	acq2_nomask	2	26	480	1	300	300	0	0	537	46	1	0	sonnig	anregung	besonnen	vertrauen	vergnügt	kreativ	sterben	ausrottung	bange	versagen	verbissen	krank	gütig	kuss	träumen	engagiert	genießen	gesittet	gierig	krise	töten	engstirnig	gemein	geizig	1	blank2r.bmp	0	1	+	0	1	blank2r.bmp	500	5	C1r.bmp	500	1	blank2r.bmp	880	3	töten	880	1	!	1313	1	!	1438	0	0	0	0	0	0
2024-05-02	12:14:14	12:19:53	338962	6.6.1	4_exp_EVA_AWA_CON	9	A	B	Rpleas_acq	Same	Rpleas	1pleas	acq_US_unple_nomask	acq2_nomask	2	27	480	0	300	300	0	0	393	46	1	0	sonnig	anregung	besonnen	vertrauen	vergnügt	kreativ	sterben	ausrottung	bange	versagen	verbissen	krank	gütig	kuss	träumen	engagiert	genießen	gesittet	gierig	krise	töten	engstirnig	gemein	geizig	1	blank2r.bmp	0	1	+	0	1	blank2r.bmp	500	1	DHJF	500	1	blank2r.bmp	880	3	bange	880	1	!	-1	1	!	-1	0	0	0	0	0	0
2024-05-02	12:14:14	12:19:55	341378	6.6.1	4_exp_EVA_AWA_CON	9	A	B	Rpleas_acq	Same	Rpleas	1pleas	acq_US_unple_nomask	acq2_nomask	2	28	480	0	300	300	0	0	638	46	1	0	sonnig	anregung	besonnen	vertrauen	vergnügt	kreativ	sterben	ausrottung	bange	versagen	verbissen	krank	gütig	kuss	träumen	engagiert	genießen	gesittet	gierig	krise	töten	engstirnig	gemein	geizig	1	blank2r.bmp	0	1	+	0	1	blank2r.bmp	500	1	DHJF	500	1	blank2r.bmp	880	6	krank	880	1	!	1313	1	!	-1	0	0	0	0	0	0
2024-05-02	12:14:14	12:19:58	343797	6.6.1	4_exp_EVA_AWA_CON	9	A	B	Rpleas_acq	Same	Rpleas	1pleas	acq_US_pleas_nomask	acq2_nomask	2	29	480	1	300	300	0	0	442	46	0	0	sonnig	anregung	besonnen	vertrauen	vergnügt	kreativ	sterben	ausrottung	bange	versagen	verbissen	krank	gütig	kuss	träumen	engagiert	genießen	gesittet	gierig	krise	töten	engstirnig	gemein	geizig	1	blank2r.bmp	0	1	+	0	1	blank2r.bmp	500	1	CPLW	500	1	blank2r.bmp	880	3	besonnen	880	1	FEHLER	1636	1	!	1312	1	!	1344	0	0	0
2024-05-02	12:14:14	12:20:00	345978	6.6.1	4_exp_EVA_AWA_CON	9	A	B	Rpleas_acq	Same	Rpleas	1pleas	acq_new_pleas_nomask	acq2_nomask	2	30	480	0	300	300	0	0	605	50	1	0	sonnig	anregung	besonnen	vertrauen	vergnügt	kreativ	sterben	ausrottung	bange	versagen	verbissen	krank	gütig	kuss	träumen	engagiert	genießen	gesittet	gierig	krise	töten	engstirnig	gemein	geizig	1	blank2r.bmp	0	1	+	0	1	blank2r.bmp	500	3	B3r.bmp	500	1	blank2r.bmp	880	4	engagiert	880	1	!	1313	1	!	-1	0	0	0	0	0	0
2024-05-02	12:14:14	12:20:02	348357	6.6.1	4_exp_EVA_AWA_CON	9	A	B	Rpleas_acq	Same	Rpleas	1pleas	acq_US_unple_nomask	acq2_nomask	2	31	480	0	300	300	0	0	399	50	0	0	sonnig	anregung	besonnen	vertrauen	vergnügt	kreativ	sterben	ausrottung	bange	versagen	verbissen	krank	gütig	kuss	träumen	engagiert	genießen	gesittet	gierig	krise	töten	engstirnig	gemein	geizig	1	blank2r.bmp	0	1	+	0	1	blank2r.bmp	500	1	DHJF	500	1	blank2r.bmp	880	4	versagen	880	1	FEHLER	1593	1	!	-1	1	!	-1	0	0	0
2024-05-02	12:14:14	12:20:07	352794	6.6.1	4_exp_EVA_AWA_CON	9	A	B	Rpleas_acq	Same	Rpleas	1pleas	acq_new_unple_nomask	acq2_nomask	2	32	480	0	300	300	0	0	2858	46	1	0	sonnig	anregung	besonnen	vertrauen	vergnügt	kreativ	sterben	ausrottung	bange	versagen	verbissen	krank	gütig	kuss	träumen	engagiert	genießen	gesittet	gierig	krise	töten	engstirnig	gemein	geizig	1	blank2r.bmp	0	1	+	0	1	blank2r.bmp	500	4	B4r.bmp	500	1	blank2r.bmp	880	6	geizig	880	1	!	1312	1	!	-1	0	0	0	0	0	0
2024-05-02	12:14:14	12:20:10	356076	6.6.1	4_exp_EVA_AWA_CON	9	A	B	Rpleas_acq	Same	Rpleas	1pleas	acq_new_pleas_nomask	acq2_nomask	2	33	480	0	300	300	0	0	1305	46	0	0	sonnig	anregung	besonnen	vertrauen	vergnügt	kreativ	sterben	ausrottung	bange	versagen	verbissen	krank	gütig	kuss	träumen	engagiert	genießen	gesittet	gierig	krise	töten	engstirnig	gemein	geizig	1	blank2r.bmp	0	1	+	0	1	blank2r.bmp	500	6	C2r.bmp	500	1	blank2r.bmp	880	1	gütig	880	1	FEHLER	2498	1	!	1313	1	!	-1	0	0	0
2024-05-02	12:14:14	12:20:12	358242	6.6.1	4_exp_EVA_AWA_CON	9	A	B	Rpleas_acq	Same	Rpleas	1pleas	acq_new_pleas_nomask	acq2_nomask	2	34	480	0	300	300	0	0	591	50	1	0	sonnig	anregung	besonnen	vertrauen	vergnügt	kreativ	sterben	ausrottung	bange	versagen	verbissen	krank	gütig	kuss	träumen	engagiert	genießen	gesittet	gierig	krise	töten	engstirnig	gemein	geizig	1	blank2r.bmp	0	1	+	0	1	blank2r.bmp	500	3	B3r.bmp	500	1	blank2r.bmp	880	6	gesittet	880	1	!	1313	1	!	-1	0	0	0	0	0	0
2024-05-02	12:14:14	12:20:15	360779	6.6.1	4_exp_EVA_AWA_CON	9	A	B	Rpleas_acq	Same	Rpleas	1pleas	acq_US_pleas_nomask	acq2_nomask	2	35	480	0	300	300	0	0	555	46	0	0	sonnig	anregung	besonnen	vertrauen	vergnügt	kreativ	sterben	ausrottung	bange	versagen	verbissen	krank	gütig	kuss	träumen	engagiert	genießen	gesittet	gierig	krise	töten	engstirnig	gemein	geizig	1	blank2r.bmp	0	1	+	0	1	blank2r.bmp	500	1	CPLW	500	1	blank2r.bmp	880	2	anregung	880	1	FEHLER	1747	1	!	1313	1	!	-1	0	0	0
2024-05-02	12:14:14	12:20:17	362994	6.6.1	4_exp_EVA_AWA_CON	9	A	B	Rpleas_acq	Same	Rpleas	1pleas	acq_new_unple_nomask	acq2_nomask	2	36	480	0	300	300	0	0	640	46	1	0	sonnig	anregung	besonnen	vertrauen	vergnügt	kreativ	sterben	ausrottung	bange	versagen	verbissen	krank	gütig	kuss	träumen	engagiert	genießen	gesittet	gierig	krise	töten	engstirnig	gemein	geizig	1	blank2r.bmp	0	1	+	0	1	blank2r.bmp	500	5	C1r.bmp	500	1	blank2r.bmp	880	5	gemein	880	1	!	1313	1	!	-1	0	0	0	0	0	0
2024-05-02	12:14:14	12:20:39	384538	6.6.1	4_exp_EVA_AWA_CON	9	A	B	Rpleas_acq	Same	Rpleas	1pleas	acq_US_unple_nomask	acq3_nomask	3	1	453	0	300	300	0	0	700	46	1	0	sonnig	anregung	besonnen	vertrauen	vergnügt	kreativ	sterben	ausrottung	bange	versagen	verbissen	krank	gütig	kuss	träumen	engagiert	genießen	gesittet	gierig	krise	töten	engstirnig	gemein	geizig	1	blank2r.bmp	0	1	+	0	1	blank2r.bmp	500	1	DHJF	500	1	blank2r.bmp	880	5	verbissen	880	1	!	1292	1	!	-1	0	0	0	0	0	0
2024-05-02	12:14:14	12:20:41	386840	6.6.1	4_exp_EVA_AWA_CON	9	A	B	Rpleas_acq	Same	Rpleas	1pleas	acq_US_pleas_nomask	acq3_nomask	3	2	453	0	300	300	0	0	523	50	1	0	sonnig	anregung	besonnen	vertrauen	vergnügt	kreativ	sterben	ausrottung	bange	versagen	verbissen	krank	gütig	kuss	träumen	engagiert	genießen	gesittet	gierig	krise	töten	engstirnig	gemein	geizig	1	blank2r.bmp	0	1	+	0	1	blank2r.bmp	500	1	CPLW	500	1	blank2r.bmp	880	3	besonnen	880	1	!	1292	1	!	-1	0	0	0	0	0	0
2024-05-02	12:14:14	12:20:43	389067	6.6.1	4_exp_EVA_AWA_CON	9	A	B	Rpleas_acq	Same	Rpleas	1pleas	acq_US_pleas_nomask	acq3_nomask	3	3	453	1	300	300	0	0	445	50	1	0	sonnig	anregung	besonnen	vertrauen	vergnügt	kreativ	sterben	ausrottung	bange	versagen	verbissen	krank	gütig	kuss	träumen	engagiert	genießen	gesittet	gierig	krise	töten	engstirnig	gemein	geizig	1	blank2r.bmp	0	1	+	0	1	blank2r.bmp	500	1	CPLW	500	1	blank2r.bmp	880	4	vertrauen	880	1	!	1292	1	!	1346	0	0	0	0	0	0
2024-05-02	12:14:14	12:20:45	391434	6.6.1	4_exp_EVA_AWA_CON	9	A	B	Rpleas_acq	Same	Rpleas	1pleas	acq_US_unple_nomask	acq3_nomask	3	4	453	0	300	300	0	0	591	46	1	0	sonnig	anregung	besonnen	vertrauen	vergnügt	kreativ	sterben	ausrottung	bange	versagen	verbissen	krank	gütig	kuss	träumen	engagiert	genießen	gesittet	gierig	krise	töten	engstirnig	gemein	geizig	1	blank2r.bmp	0	1	+	0	1	blank2r.bmp	500	1	DHJF	500	1	blank2r.bmp	880	2	ausrottung	880	1	!	1292	1	!	-1	0	0	0	0	0	0
2024-05-02	12:14:14	12:20:48	393684	6.6.1	4_exp_EVA_AWA_CON	9	A	B	Rpleas_acq	Same	Rpleas	1pleas	acq_US_pleas_nomask	acq3_nomask	3	5	453	1	300	300	0	0	468	50	1	0	sonnig	anregung	besonnen	vertrauen	vergnügt	kreativ	sterben	ausrottung	bange	versagen	verbissen	krank	gütig	kuss	träumen	engagiert	genießen	gesittet	gierig	krise	töten	engstirnig	gemein	geizig	1	blank2r.bmp	0	1	+	0	1	blank2r.bmp	500	1	CPLW	500	1	blank2r.bmp	880	5	vergnügt	880	1	!	1292	1	!	1370	0	0	0	0	0	0
2024-05-02	12:14:14	12:20:50	395818	6.6.1	4_exp_EVA_AWA_CON	9	A	B	Rpleas_acq	Same	Rpleas	1pleas	acq_US_unple_nomask	acq3_nomask	3	6	453	0	300	300	0	0	353	46	1	0	sonnig	anregung	besonnen	vertrauen	vergnügt	kreativ	sterben	ausrottung	bange	versagen	verbissen	krank	gütig	kuss	träumen	engagiert	genießen	gesittet	gierig	krise	töten	engstirnig	gemein	geizig	1	blank2r.bmp	0	1	+	0	1	blank2r.bmp	500	1	DHJF	500	1	blank2r.bmp	880	4	versagen	880	1	!	-1	1	!	-1	0	0	0	0	0	0
2024-05-02	12:14:14	12:20:52	398128	6.6.1	4_exp_EVA_AWA_CON	9	A	B	Rpleas_acq	Same	Rpleas	1pleas	acq_US_unple_nomask	acq3_nomask	3	7	453	0	300	300	0	0	533	46	1	0	sonnig	anregung	besonnen	vertrauen	vergnügt	kreativ	sterben	ausrottung	bange	versagen	verbissen	krank	gütig	kuss	träumen	engagiert	genießen	gesittet	gierig	krise	töten	engstirnig	gemein	geizig	1	blank2r.bmp	0	1	+	0	1	blank2r.bmp	500	1	DHJF	500	1	blank2r.bmp	880	1	sterben	880	1	!	1292	1	!	-1	0	0	0	0	0	0
2024-05-02	12:14:14	12:20:55	400613	6.6.1	4_exp_EVA_AWA_CON	9	A	B	Rpleas_acq	Same	Rpleas	1pleas	acq_US_pleas_nomask	acq3_nomask	3	8	453	1	300	300	0	0	503	46	0	0	sonnig	anregung	besonnen	vertrauen	vergnügt	kreativ	sterben	ausrottung	bange	versagen	verbissen	krank	gütig	kuss	träumen	engagiert	genießen	gesittet	gierig	krise	töten	engstirnig	gemein	geizig	1	blank2r.bmp	0	1	+	0	1	blank2r.bmp	500	1	CPLW	500	1	blank2r.bmp	880	2	anregung	880	1	FEHLER	1695	1	!	1292	1	!	1403	0	0	0
2024-05-02	12:14:14	12:20:57	402578	6.6.1	4_exp_EVA_AWA_CON	9	A	B	Rpleas_acq	Same	Rpleas	1pleas	acq_US_unple_nomask	acq3_nomask	3	9	453	0	300	300	0	0	388	46	1	0	sonnig	anregung	besonnen	vertrauen	vergnügt	kreativ	sterben	ausrottung	bange	versagen	verbissen	krank	gütig	kuss	träumen	engagiert	genießen	gesittet	gierig	krise	töten	engstirnig	gemein	geizig	1	blank2r.bmp	0	1	+	0	1	blank2r.bmp	500	1	DHJF	500	1	blank2r.bmp	880	6	krank	880	1	!	-1	1	!	-1	0	0	0	0	0	0
2024-05-02	12:14:14	12:20:59	404812	6.6.1	4_exp_EVA_AWA_CON	9	A	B	Rpleas_acq	Same	Rpleas	1pleas	acq_US_pleas_nomask	acq3_nomask	3	10	453	1	300	300	0	0	459	50	1	0	sonnig	anregung	besonnen	vertrauen	vergnügt	kreativ	sterben	ausrottung	bange	versagen	verbissen	krank	gütig	kuss	träumen	engagiert	genießen	gesittet	gierig	krise	töten	engstirnig	gemein	geizig	1	blank2r.bmp	0	1	+	0	1	blank2r.bmp	500	1	CPLW	500	1	blank2r.bmp	880	1	sonnig	880	1	!	1292	1	!	1360	0	0	0	0	0	0
2024-05-02	12:14:14	12:21:01	407099	6.6.1	4_exp_EVA_AWA_CON	9	A	B	Rpleas_acq	Same	Rpleas	1pleas	acq_US_pleas_nomask	acq3_nomask	3	11	453	1	300	300	0	0	505	50	1	0	sonnig	anregung	besonnen	vertrauen	vergnügt	kreativ	sterben	ausrottung	bange	versagen	verbissen	krank	gütig	kuss	träumen	engagiert	genießen	gesittet	gierig	krise	töten	engstirnig	gemein	geizig	1	blank2r.bmp	0	1	+	0	1	blank2r.bmp	500	1	CPLW	500	1	blank2r.bmp	880	6	kreativ	880	1	!	1293	1	!	1407	0	0	0	0	0	0
2024-05-02	12:14:14	12:21:03	409396	6.6.1	4_exp_EVA_AWA_CON	9	A	B	Rpleas_acq	Same	Rpleas	1pleas	acq_US_unple_nomask	acq3_nomask	3	12	453	1	300	300	0	0	520	46	1	0	sonnig	anregung	besonnen	vertrauen	vergnügt	kreativ	sterben	ausrottung	bange	versagen	verbissen	krank	gütig	kuss	träumen	engagiert	genießen	gesittet	gierig	krise	töten	engstirnig	gemein	geizig	1	blank2r.bmp	0	1	+	0	1	blank2r.bmp	500	1	DHJF	500	1	blank2r.bmp	880	3	bange	880	1	!	1292	1	!	1422	0	0	0	0	0	0
2024-05-02	12:14:14	12:21:06	411802	6.6.1	4_exp_EVA_AWA_CON	9	A	B	Rpleas_acq	Same	Rpleas	1pleas	acq_US_pleas_nomask	acq3_nomask	3	13	453	0	300	300	0	0	626	50	1	0	sonnig	anregung	besonnen	vertrauen	vergnügt	kreativ	sterben	ausrottung	bange	versagen	verbissen	krank	gütig	kuss	träumen	engagiert	genießen	gesittet	gierig	krise	töten	engstirnig	gemein	geizig	1	blank2r.bmp	0	1	+	0	1	blank2r.bmp	500	1	CPLW	500	1	blank2r.bmp	880	3	besonnen	880	1	!	1292	1	!	-1	0	0	0	0	0	0
2024-05-02	12:14:14	12:21:08	414194	6.6.1	4_exp_EVA_AWA_CON	9	A	B	Rpleas_acq	Same	Rpleas	1pleas	acq_US_unple_nomask	acq3_nomask	3	14	453	0	300	300	0	0	617	46	1	0	sonnig	anregung	besonnen	vertrauen	vergnügt	kreativ	sterben	ausrottung	bange	versagen	verbissen	krank	gütig	kuss	träumen	engagiert	genießen	gesittet	gierig	krise	töten	engstirnig	gemein	geizig	1	blank2r.bmp	0	1	+	0	1	blank2r.bmp	500	1	DHJF	500	1	blank2r.bmp	880	5	verbissen	880	1	!	1293	1	!	-1	0	0	0	0	0	0
2024-05-02	12:14:14	12:21:10	416427	6.6.1	4_exp_EVA_AWA_CON	9	A	B	Rpleas_acq	Same	Rpleas	1pleas	acq_US_pleas_nomask	acq3_nomask	3	15	453	1	300	300	0	0	457	50	1	0	sonnig	anregung	besonnen	vertrauen	vergnügt	kreativ	sterben	ausrottung	bange	versagen	verbissen	krank	gütig	kuss	träumen	engagiert	genießen	gesittet	gierig	krise	töten	engstirnig	gemein	geizig	1	blank2r.bmp	0	1	+	0	1	blank2r.bmp	500	1	CPLW	500	1	blank2r.bmp	880	5	vergnügt	880	1	!	1292	1	!	1359	0	0	0	0	0	0
2024-05-02	12:14:14	12:21:13	418761	6.6.1	4_exp_EVA_AWA_CON	9	A	B	Rpleas_acq	Same	Rpleas	1pleas	acq_US_unple_nomask	acq3_nomask	3	16	453	0	300	300	0	0	562	46	1	0	sonnig	anregung	besonnen	vertrauen	vergnügt	kreativ	sterben	ausrottung	bange	versagen	verbissen	krank	gütig	kuss	träumen	engagiert	genießen	gesittet	gierig	krise	töten	engstirnig	gemein	geizig	1	blank2r.bmp	0	1	+	0	1	blank2r.bmp	500	1	DHJF	500	1	blank2r.bmp	880	1	sterben	880	1	!	1293	1	!	-1	0	0	0	0	0	0
2024-05-02	12:14:14	12:21:15	421138	6.6.1	4_exp_EVA_AWA_CON	9	A	B	Rpleas_acq	Same	Rpleas	1pleas	acq_US_pleas_nomask	acq3_nomask	3	17	453	0	300	300	0	0	596	50	1	0	sonnig	anregung	besonnen	vertrauen	vergnügt	kreativ	sterben	ausrottung	bange	versagen	verbissen	krank	gütig	kuss	träumen	engagiert	genießen	gesittet	gierig	krise	töten	engstirnig	gemein	geizig	1	blank2r.bmp	0	1	+	0	1	blank2r.bmp	500	1	CPLW	500	1	blank2r.bmp	880	6	kreativ	880	1	!	1292	1	!	-1	0	0	0	0	0	0
2024-05-02	12:14:14	12:21:18	423732	6.6.1	4_exp_EVA_AWA_CON	9	A	B	Rpleas_acq	Same	Rpleas	1pleas	acq_US_pleas_nomask	acq3_nomask	3	18	453	0	300	300	0	0	617	46	0	0	sonnig	anregung	besonnen	vertrauen	vergnügt	kreativ	sterben	ausrottung	bange	versagen	verbissen	krank	gütig	kuss	träumen	engagiert	genießen	gesittet	gierig	krise	töten	engstirnig	gemein	geizig	1	blank2r.bmp	0	1	+	0	1	blank2r.bmp	500	1	CPLW	500	1	blank2r.bmp	880	2	anregung	880	1	FEHLER	1810	1	!	1292	1	!	-1	0	0	0
2024-05-02	12:14:14	12:21:20	425756	6.6.1	4_exp_EVA_AWA_CON	9	A	B	Rpleas_acq	Same	Rpleas	1pleas	acq_US_unple_nomask	acq3_nomask	3	19	453	1	300	300	0	0	449	46	1	0	sonnig	anregung	besonnen	vertrauen	vergnügt	kreativ	sterben	ausrottung	bange	versagen	verbissen	krank	gütig	kuss	träumen	engagiert	genießen	gesittet	gierig	krise	töten	engstirnig	gemein	geizig	1	blank2r.bmp	0	1	+	0	1	blank2r.bmp	500	1	DHJF	500	1	blank2r.bmp	880	3	bange	880	1	!	1292	1	!	1352	0	0	0	0	0	0
2024-05-02	12:14:14	12:21:22	427906	6.6.1	4_exp_EVA_AWA_CON	9	A	B	Rpleas_acq	Same	Rpleas	1pleas	acq_US_pleas_nomask	acq3_nomask	3	20	453	0	300	300	0	0	370	50	1	0	sonnig	anregung	besonnen	vertrauen	vergnügt	kreativ	sterben	ausrottung	bange	versagen	verbissen	krank	gütig	kuss	träumen	engagiert	genießen	gesittet	gierig	krise	töten	engstirnig	gemein	geizig	1	blank2r.bmp	0	1	+	0	1	blank2r.bmp	500	1	CPLW	500	1	blank2r.bmp	880	1	sonnig	880	1	!	-1	1	!	-1	0	0	0	0	0	0
2024-05-02	12:14:14	12:21:24	430100	6.6.1	4_exp_EVA_AWA_CON	9	A	B	Rpleas_acq	Same	Rpleas	1pleas	acq_US_unple_nomask	acq3_nomask	3	21	453	1	300	300	0	0	410	46	1	0	sonnig	anregung	besonnen	vertrauen	vergnügt	kreativ	sterben	ausrottung	bange	versagen	verbissen	krank	gütig	kuss	träumen	engagiert	genießen	gesittet	gierig	krise	töten	engstirnig	gemein	geizig	1	blank2r.bmp	0	1	+	0	1	blank2r.bmp	500	1	DHJF	500	1	blank2r.bmp	880	6	krank	880	1	!	1292	1	!	1312	0	0	0	0	0	0
2024-05-02	12:14:14	12:21:26	432395	6.6.1	4_exp_EVA_AWA_CON	9	A	B	Rpleas_acq	Same	Rpleas	1pleas	acq_US_unple_nomask	acq3_nomask	3	22	453	1	300	300	0	0	515	46	1	0	sonnig	anregung	besonnen	vertrauen	vergnügt	kreativ	sterben	ausrottung	bange	versagen	verbissen	krank	gütig	kuss	träumen	engagiert	genießen	gesittet	gierig	krise	töten	engstirnig	gemein	geizig	1	blank2r.bmp	0	1	+	0	1	blank2r.bmp	500	1	DHJF	500	1	blank2r.bmp	880	4	versagen	880	1	!	1293	1	!	1417	0	0	0	0	0	0
2024-05-02	12:14:14	12:21:29	434635	6.6.1	4_exp_EVA_AWA_CON	9	A	B	Rpleas_acq	Same	Rpleas	1pleas	acq_US_unple_nomask	acq3_nomask	3	23	453	1	300	300	0	0	464	46	1	0	sonnig	anregung	besonnen	vertrauen	vergnügt	kreativ	sterben	ausrottung	bange	versagen	verbissen	krank	gütig	kuss	träumen	engagiert	genießen	gesittet	gierig	krise	töten	engstirnig	gemein	geizig	1	blank2r.bmp	0	1	+	0	1	blank2r.bmp	500	1	DHJF	500	1	blank2r.bmp	880	2	ausrottung	880	1	!	1293	1	!	1365	0	0	0	0	0	0
2024-05-02	12:14:14	12:21:31	436754	6.6.1	4_exp_EVA_AWA_CON	9	A	B	Rpleas_acq	Same	Rpleas	1pleas	acq_US_pleas_nomask	acq3_nomask	3	24	453	0	300	300	0	0	342	50	1	0	sonnig	anregung	besonnen	vertrauen	vergnügt	kreativ	sterben	ausrottung	bange	versagen	verbissen	krank	gütig	kuss	träumen	engagiert	genießen	gesittet	gierig	krise	töten	engstirnig	gemein	geizig	1	blank2r.bmp	0	1	+	0	1	blank2r.bmp	500	1	CPLW	500	1	blank2r.bmp	880	4	vertrauen	880	1	!	-1	1	!	-1	0	0	0	0	0	0
2024-05-02	12:14:14	12:21:33	438987	6.6.1	4_exp_EVA_AWA_CON	9	A	B	Rpleas_acq	Same	Rpleas	1pleas	acq_US_pleas_nomask	acq3_nomask	3	25	453	1	300	300	0	0	453	50	1	0	sonnig	anregung	besonnen	vertrauen	vergnügt	kreativ	sterben	ausrottung	bange	versagen	verbissen	krank	gütig	kuss	träumen	engagiert	genießen	gesittet	gierig	krise	töten	engstirnig	gemein	geizig	1	blank2r.bmp	0	1	+	0	1	blank2r.bmp	500	1	CPLW	500	1	blank2r.bmp	880	3	besonnen	880	1	!	1292	1	!	1354	0	0	0	0	0	0
2024-05-02	12:14:14	12:21:35	441267	6.6.1	4_exp_EVA_AWA_CON	9	A	B	Rpleas_acq	Same	Rpleas	1pleas	acq_US_unple_nomask	acq3_nomask	3	26	453	1	300	300	0	0	502	46	1	0	sonnig	anregung	besonnen	vertrauen	vergnügt	kreativ	sterben	ausrottung	bange	versagen	verbissen	krank	gütig	kuss	träumen	engagiert	genießen	gesittet	gierig	krise	töten	engstirnig	gemein	geizig	1	blank2r.bmp	0	1	+	0	1	blank2r.bmp	500	1	DHJF	500	1	blank2r.bmp	880	3	bange	880	1	!	1293	1	!	1403	0	0	0	0	0	0
2024-05-02	12:14:14	12:21:37	443451	6.6.1	4_exp_EVA_AWA_CON	9	A	B	Rpleas_acq	Same	Rpleas	1pleas	acq_US_unple_nomask	acq3_nomask	3	27	453	1	300	300	0	0	404	46	1	0	sonnig	anregung	besonnen	vertrauen	vergnügt	kreativ	sterben	ausrottung	bange	versagen	verbissen	krank	gütig	kuss	träumen	engagiert	genießen	gesittet	gierig	krise	töten	engstirnig	gemein	geizig	1	blank2r.bmp	0	1	+	0	1	blank2r.bmp	500	1	DHJF	500	1	blank2r.bmp	880	2	ausrottung	880	1	!	1292	1	!	1306	0	0	0	0	0	0
2024-05-02	12:14:14	12:21:40	445893	6.6.1	4_exp_EVA_AWA_CON	9	A	B	Rpleas_acq	Same	Rpleas	1pleas	acq_US_pleas_nomask	acq3_nomask	3	28	453	1	300	300	0	0	463	46	0	0	sonnig	anregung	besonnen	vertrauen	vergnügt	kreativ	sterben	ausrottung	bange	versagen	verbissen	krank	gütig	kuss	träumen	engagiert	genießen	gesittet	gierig	krise	töten	engstirnig	gemein	geizig	1	blank2r.bmp	0	1	+	0	1	blank2r.bmp	500	1	CPLW	500	1	blank2r.bmp	880	2	anregung	880	1	FEHLER	1656	1	!	1293	1	!	1364	0	0	0
2024-05-02	12:14:14	12:21:42	448162	6.6.1	4_exp_EVA_AWA_CON	9	A	B	Rpleas_acq	Same	Rpleas	1pleas	acq_US_pleas_nomask	acq3_nomask	3	29	453	0	300	300	0	0	693	50	1	0	sonnig	anregung	besonnen	vertrauen	vergnügt	kreativ	sterben	ausrottung	bange	versagen	verbissen	krank	gütig	kuss	träumen	engagiert	genießen	gesittet	gierig	krise	töten	engstirnig	gemein	geizig	1	blank2r.bmp	0	1	+	0	1	blank2r.bmp	500	1	CPLW	500	1	blank2r.bmp	880	4	vertrauen	880	1	!	1293	1	!	-1	0	0	0	0	0	0
2024-05-02	12:14:14	12:21:45	450650	6.6.1	4_exp_EVA_AWA_CON	9	A	B	Rpleas_acq	Same	Rpleas	1pleas	acq_US_unple_nomask	acq3_nomask	3	30	453	0	300	300	0	0	709	46	1	0	sonnig	anregung	besonnen	vertrauen	vergnügt	kreativ	sterben	ausrottung	bange	versagen	verbissen	krank	gütig	kuss	träumen	engagiert	genießen	gesittet	gierig	krise	töten	engstirnig	gemein	geizig	1	blank2r.bmp	0	1	+	0	1	blank2r.bmp	500	1	DHJF	500	1	blank2r.bmp	880	6	krank	880	1	!	1292	1	!	-1	0	0	0	0	0	0
2024-05-02	12:14:14	12:21:47	453140	6.6.1	4_exp_EVA_AWA_CON	9	A	B	Rpleas_acq	Same	Rpleas	1pleas	acq_US_pleas_nomask	acq3_nomask	3	31	453	1	300	300	0	0	506	46	0	0	sonnig	anregung	besonnen	vertrauen	vergnügt	kreativ	sterben	ausrottung	bange	versagen	verbissen	krank	gütig	kuss	träumen	engagiert	genießen	gesittet	gierig	krise	töten	engstirnig	gemein	geizig	1	blank2r.bmp	0	1	+	0	1	blank2r.bmp	500	1	CPLW	500	1	blank2r.bmp	880	5	vergnügt	880	1	FEHLER	1699	1	!	1293	1	!	1407	0	0	0
2024-05-02	12:14:14	12:21:49	455219	6.6.1	4_exp_EVA_AWA_CON	9	A	B	Rpleas_acq	Same	Rpleas	1pleas	acq_US_unple_nomask	acq3_nomask	3	32	453	1	300	300	0	0	504	46	1	0	sonnig	anregung	besonnen	vertrauen	vergnügt	kreativ	sterben	ausrottung	bange	versagen	verbissen	krank	gütig	kuss	träumen	engagiert	genießen	gesittet	gierig	krise	töten	engstirnig	gemein	geizig	1	blank2r.bmp	0	1	+	0	1	blank2r.bmp	500	1	DHJF	500	1	blank2r.bmp	880	1	sterben	880	1	!	1292	1	!	1406	0	0	0	0	0	0
2024-05-02	12:14:14	12:21:52	457491	6.6.1	4_exp_EVA_AWA_CON	9	A	B	Rpleas_acq	Same	Rpleas	1pleas	acq_US_pleas_nomask	acq3_nomask	3	33	453	1	300	300	0	0	495	50	1	0	sonnig	anregung	besonnen	vertrauen	vergnügt	kreativ	sterben	ausrottung	bange	versagen	verbissen	krank	gütig	kuss	träumen	engagiert	genießen	gesittet	gierig	krise	töten	engstirnig	gemein	geizig	1	blank2r.bmp	0	1	+	0	1	blank2r.bmp	500	1	CPLW	500	1	blank2r.bmp	880	1	sonnig	880	1	!	1292	1	!	1396	0	0	0	0	0	0
2024-05-02	12:14:14	12:21:54	459788	6.6.1	4_exp_EVA_AWA_CON	9	A	B	Rpleas_acq	Same	Rpleas	1pleas	acq_US_unple_nomask	acq3_nomask	3	34	453	1	300	300	0	0	520	46	1	0	sonnig	anregung	besonnen	vertrauen	vergnügt	kreativ	sterben	ausrottung	bange	versagen	verbissen	krank	gütig	kuss	träumen	engagiert	genießen	gesittet	gierig	krise	töten	engstirnig	gemein	geizig	1	blank2r.bmp	0	1	+	0	1	blank2r.bmp	500	1	DHJF	500	1	blank2r.bmp	880	4	versagen	880	1	!	1293	1	!	1422	0	0	0	0	0	0
2024-05-02	12:14:14	12:21:56	462028	6.6.1	4_exp_EVA_AWA_CON	9	A	B	Rpleas_acq	Same	Rpleas	1pleas	acq_US_unple_nomask	acq3_nomask	3	35	453	1	300	300	0	0	458	46	1	0	sonnig	anregung	besonnen	vertrauen	vergnügt	kreativ	sterben	ausrottung	bange	versagen	verbissen	krank	gütig	kuss	träumen	engagiert	genießen	gesittet	gierig	krise	töten	engstirnig	gemein	geizig	1	blank2r.bmp	0	1	+	0	1	blank2r.bmp	500	1	DHJF	500	1	blank2r.bmp	880	5	verbissen	880	1	!	1292	1	!	1360	0	0	0	0	0	0
2024-05-02	12:14:14	12:21:58	464323	6.6.1	4_exp_EVA_AWA_CON	9	A	B	Rpleas_acq	Same	Rpleas	1pleas	acq_US_pleas_nomask	acq3_nomask	3	36	453	1	300	300	0	0	513	50	1	0	sonnig	anregung	besonnen	vertrauen	vergnügt	kreativ	sterben	ausrottung	bange	versagen	verbissen	krank	gütig	kuss	träumen	engagiert	genießen	gesittet	gierig	krise	töten	engstirnig	gemein	geizig	1	blank2r.bmp	0	1	+	0	1	blank2r.bmp	500	1	CPLW	500	1	blank2r.bmp	880	6	kreativ	880	1	!	1292	1	!	1414	0	0	0	0	0	0
2024-05-02	12:14:14	12:22:15	481227	6.6.1	4_exp_EVA_AWA_CON	9	A	B	Rpleas_acq	Same	Rpleas	1pleas	acq_US_unple_nomask	acq45_nomask	4	1	400	1	300	300	0	0	446	46	1	0	sonnig	anregung	besonnen	vertrauen	vergnügt	kreativ	sterben	ausrottung	bange	versagen	verbissen	krank	gütig	kuss	träumen	engagiert	genießen	gesittet	gierig	krise	töten	engstirnig	gemein	geizig	1	blank2r.bmp	0	1	+	0	1	blank2r.bmp	500	1	DHJF	500	1	blank2r.bmp	880	5	verbissen	880	1	!	1232	1	!	1347	0	0	0	0	0	0
2024-05-02	12:14:14	12:22:17	483387	6.6.1	4_exp_EVA_AWA_CON	9	A	B	Rpleas_acq	Same	Rpleas	1pleas	acq_US_pleas_nomask	acq45_nomask	4	2	400	1	300	300	0	0	384	50	1	0	sonnig	anregung	besonnen	vertrauen	vergnügt	kreativ	sterben	ausrottung	bange	versagen	verbissen	krank	gütig	kuss	träumen	engagiert	genießen	gesittet	gierig	krise	töten	engstirnig	gemein	geizig	1	blank2r.bmp	0	1	+	0	1	blank2r.bmp	500	1	CPLW	500	1	blank2r.bmp	880	1	sonnig	880	1	!	1232	1	!	1286	0	0	0	0	0	0
2024-05-02	12:14:14	12:22:20	485722	6.6.1	4_exp_EVA_AWA_CON	9	A	B	Rpleas_acq	Same	Rpleas	1pleas	acq_US_pleas_nomask	acq45_nomask	4	3	400	0	300	300	0	0	559	50	1	0	sonnig	anregung	besonnen	vertrauen	vergnügt	kreativ	sterben	ausrottung	bange	versagen	verbissen	krank	gütig	kuss	träumen	engagiert	genießen	gesittet	gierig	krise	töten	engstirnig	gemein	geizig	1	blank2r.bmp	0	1	+	0	1	blank2r.bmp	500	1	CPLW	500	1	blank2r.bmp	880	3	besonnen	880	1	!	1232	1	!	-1	0	0	0	0	0	0
2024-05-02	12:14:14	12:22:22	487931	6.6.1	4_exp_EVA_AWA_CON	9	A	B	Rpleas_acq	Same	Rpleas	1pleas	acq_US_pleas_nomask	acq45_nomask	4	4	400	1	300	300	0	0	425	46	0	0	sonnig	anregung	besonnen	vertrauen	vergnügt	kreativ	sterben	ausrottung	bange	versagen	verbissen	krank	gütig	kuss	träumen	engagiert	genießen	gesittet	gierig	krise	töten	engstirnig	gemein	geizig	1	blank2r.bmp	0	1	+	0	1	blank2r.bmp	500	1	CPLW	500	1	blank2r.bmp	880	6	kreativ	880	1	!	1232	1	!	1327	0	0	0	0	0	0
2024-05-02	12:14:14	12:22:24	490076	6.6.1	4_exp_EVA_AWA_CON	9	A	B	Rpleas_acq	Same	Rpleas	1pleas	acq_US_unple_nomask	acq45_nomask	4	5	400	1	300	300	0	0	368	46	1	0	sonnig	anregung	besonnen	vertrauen	vergnügt	kreativ	sterben	ausrottung	bange	versagen	verbissen	krank	gütig	kuss	träumen	engagiert	genießen	gesittet	gierig	krise	töten	engstirnig	gemein	geizig	1	blank2r.bmp	0	1	+	0	1	blank2r.bmp	500	1	DHJF	500	1	blank2r.bmp	880	6	krank	880	1	!	1232	1	!	1269	0	0	0	0	0	0
2024-05-02	12:14:14	12:22:26	492402	6.6.1	4_exp_EVA_AWA_CON	9	A	B	Rpleas_acq	Same	Rpleas	1pleas	acq_US_unple_nomask	acq45_nomask	4	6	400	0	300	300	0	0	545	46	1	0	sonnig	anregung	besonnen	vertrauen	vergnügt	kreativ	sterben	ausrottung	bange	versagen	verbissen	krank	gütig	kuss	träumen	engagiert	genießen	gesittet	gierig	krise	töten	engstirnig	gemein	geizig	1	blank2r.bmp	0	1	+	0	1	blank2r.bmp	500	1	DHJF	500	1	blank2r.bmp	880	3	bange	880	1	!	1232	1	!	-1	0	0	0	0	0	0
2024-05-02	12:14:14	12:22:29	494587	6.6.1	4_exp_EVA_AWA_CON	9	A	B	Rpleas_acq	Same	Rpleas	1pleas	acq_US_pleas_nomask	acq45_nomask	4	7	400	1	300	300	0	0	407	50	1	0	sonnig	anregung	besonnen	vertrauen	vergnügt	kreativ	sterben	ausrottung	bange	versagen	verbissen	krank	gütig	kuss	träumen	engagiert	genießen	gesittet	gierig	krise	töten	engstirnig	gemein	geizig	1	blank2r.bmp	0	1	+	0	1	blank2r.bmp	500	1	CPLW	500	1	blank2r.bmp	880	4	vertrauen	880	1	!	1232	1	!	1308	0	0	0	0	0	0
2024-05-02	12:14:14	12:22:31	496898	6.6.1	4_exp_EVA_AWA_CON	9	A	B	Rpleas_acq	Same	Rpleas	1pleas	acq_US_unple_nomask	acq45_nomask	4	8	400	0	300	300	0	0	538	46	1	0	sonnig	anregung	besonnen	vertrauen	vergnügt	kreativ	sterben	ausrottung	bange	versagen	verbissen	krank	gütig	kuss	träumen	engagiert	genießen	gesittet	gierig	krise	töten	engstirnig	gemein	geizig	1	blank2r.bmp	0	1	+	0	1	blank2r.bmp	500	1	DHJF	500	1	blank2r.bmp	880	2	ausrottung	880	1	!	1233	1	!	-1	0	0	0	0	0	0
2024-05-02	12:14:14	12:22:33	499202	6.6.1	4_exp_EVA_AWA_CON	9	A	B	Rpleas_acq	Same	Rpleas	1pleas	acq_US_pleas_nomask	acq45_nomask	4	9	400	0	300	300	0	0	530	46	0	0	sonnig	anregung	besonnen	vertrauen	vergnügt	kreativ	sterben	ausrottung	bange	versagen	verbissen	krank	gütig	kuss	träumen	engagiert	genießen	gesittet	gierig	krise	töten	engstirnig	gemein	geizig	1	blank2r.bmp	0	1	+	0	1	blank2r.bmp	500	1	CPLW	500	1	blank2r.bmp	880	5	vergnügt	880	1	!	1233	1	!	-1	0	0	0	0	0	0
2024-05-02	12:14:14	12:22:36	501586	6.6.1	4_exp_EVA_AWA_CON	9	A	B	Rpleas_acq	Same	Rpleas	1pleas	acq_US_pleas_nomask	acq45_nomask	4	10	400	0	300	300	0	0	603	50	1	0	sonnig	anregung	besonnen	vertrauen	vergnügt	kreativ	sterben	ausrottung	bange	versagen	verbissen	krank	gütig	kuss	träumen	engagiert	genießen	gesittet	gierig	krise	töten	engstirnig	gemein	geizig	1	blank2r.bmp	0	1	+	0	1	blank2r.bmp	500	1	CPLW	500	1	blank2r.bmp	880	2	anregung	880	1	!	1232	1	!	-1	0	0	0	0	0	0
2024-05-02	12:14:14	12:22:38	503811	6.6.1	4_exp_EVA_AWA_CON	9	A	B	Rpleas_acq	Same	Rpleas	1pleas	acq_US_pleas_nomask	acq45_nomask	4	11	400	1	300	300	0	0	445	50	1	0	sonnig	anregung	besonnen	vertrauen	vergnügt	kreativ	sterben	ausrottung	bange	versagen	verbissen	krank	gütig	kuss	träumen	engagiert	genießen	gesittet	gierig	krise	töten	engstirnig	gemein	geizig	1	blank2r.bmp	0	1	+	0	1	blank2r.bmp	500	1	CPLW	500	1	blank2r.bmp	880	6	kreativ	880	1	!	1232	1	!	1347	0	0	0	0	0	0
2024-05-02	12:14:14	12:22:40	505956	6.6.1	4_exp_EVA_AWA_CON	9	A	B	Rpleas_acq	Same	Rpleas	1pleas	acq_US_pleas_nomask	acq45_nomask	4	12	400	1	300	300	0	0	368	50	1	0	sonnig	anregung	besonnen	vertrauen	vergnügt	kreativ	sterben	ausrottung	bange	versagen	verbissen	krank	gütig	kuss	träumen	engagiert	genießen	gesittet	gierig	krise	töten	engstirnig	gemein	geizig	1	blank2r.bmp	0	1	+	0	1	blank2r.bmp	500	1	CPLW	500	1	blank2r.bmp	880	1	sonnig	880	1	!	1232	1	!	1269	0	0	0	0	0	0
2024-05-02	12:14:14	12:22:42	508058	6.6.1	4_exp_EVA_AWA_CON	9	A	B	Rpleas_acq	Same	Rpleas	1pleas	acq_US_pleas_nomask	acq45_nomask	4	13	400	0	300	300	0	0	320	46	0	0	sonnig	anregung	besonnen	vertrauen	vergnügt	kreativ	sterben	ausrottung	bange	versagen	verbissen	krank	gütig	kuss	träumen	engagiert	genießen	gesittet	gierig	krise	töten	engstirnig	gemein	geizig	1	blank2r.bmp	0	1	+	0	1	blank2r.bmp	500	1	CPLW	500	1	blank2r.bmp	880	2	anregung	880	1	!	-1	1	!	-1	0	0	0	0	0	0
2024-05-02	12:14:14	12:22:44	510195	6.6.1	4_exp_EVA_AWA_CON	9	A	B	Rpleas_acq	Same	Rpleas	1pleas	acq_US_unple_nomask	acq45_nomask	4	14	400	1	300	300	0	0	355	50	0	0	sonnig	anregung	besonnen	vertrauen	vergnügt	kreativ	sterben	ausrottung	bange	versagen	verbissen	krank	gütig	kuss	träumen	engagiert	genießen	gesittet	gierig	krise	töten	engstirnig	gemein	geizig	1	blank2r.bmp	0	1	+	0	1	blank2r.bmp	500	1	DHJF	500	1	blank2r.bmp	880	1	sterben	880	1	!	1232	1	!	1256	0	0	0	0	0	0
2024-05-02	12:14:14	12:22:47	512578	6.6.1	4_exp_EVA_AWA_CON	9	A	B	Rpleas_acq	Same	Rpleas	1pleas	acq_US_unple_nomask	acq45_nomask	4	15	400	0	300	300	0	0	608	50	0	0	sonnig	anregung	besonnen	vertrauen	vergnügt	kreativ	sterben	ausrottung	bange	versagen	verbissen	krank	gütig	kuss	träumen	engagiert	genießen	gesittet	gierig	krise	töten	engstirnig	gemein	geizig	1	blank2r.bmp	0	1	+	0	1	blank2r.bmp	500	1	DHJF	500	1	blank2r.bmp	880	4	versagen	880	1	!	1232	1	!	-1	0	0	0	0	0	0
2024-05-02	12:14:14	12:22:49	514897	6.6.1	4_exp_EVA_AWA_CON	9	A	B	Rpleas_acq	Same	Rpleas	1pleas	acq_US_unple_nomask	acq45_nomask	4	16	400	0	300	300	0	0	546	46	1	0	sonnig	anregung	besonnen	vertrauen	vergnügt	kreativ	sterben	ausrottung	bange	versagen	verbissen	krank	gütig	kuss	träumen	engagiert	genießen	gesittet	gierig	krise	töten	engstirnig	gemein	geizig	1	blank2r.bmp	0	1	+	0	1	blank2r.bmp	500	1	DHJF	500	1	blank2r.bmp	880	6	krank	880	1	!	1233	1	!	-1	0	0	0	0	0	0
2024-05-02	12:14:14	12:22:51	517274	6.6.1	4_exp_EVA_AWA_CON	9	A	B	Rpleas_acq	Same	Rpleas	1pleas	acq_US_unple_nomask	acq45_nomask	4	17	400	0	300	300	0	0	601	50	0	0	sonnig	anregung	besonnen	vertrauen	vergnügt	kreativ	sterben	ausrottung	bange	versagen	verbissen	krank	gütig	kuss	träumen	engagiert	genießen	gesittet	gierig	krise	töten	engstirnig	gemein	geizig	1	blank2r.bmp	0	1	+	0	1	blank2r.bmp	500	1	DHJF	500	1	blank2r.bmp	880	3	bange	880	1	!	1232	1	!	-1	0	0	0	0	0	0
2024-05-02	12:14:14	12:22:54	519570	6.6.1	4_exp_EVA_AWA_CON	9	A	B	Rpleas_acq	Same	Rpleas	1pleas	acq_US_unple_nomask	acq45_nomask	4	18	400	0	300	300	0	0	515	46	1	0	sonnig	anregung	besonnen	vertrauen	vergnügt	kreativ	sterben	ausrottung	bange	versagen	verbissen	krank	gütig	kuss	träumen	engagiert	genießen	gesittet	gierig	krise	töten	engstirnig	gemein	geizig	1	blank2r.bmp	0	1	+	0	1	blank2r.bmp	500	1	DHJF	500	1	blank2r.bmp	880	4	versagen	880	1	!	1232	1	!	-1	0	0	0	0	0	0
2024-05-02	12:14:14	12:22:56	521788	6.6.1	4_exp_EVA_AWA_CON	9	A	B	Rpleas_acq	Same	Rpleas	1pleas	acq_US_unple_nomask	acq45_nomask	4	19	400	1	300	300	0	0	440	46	1	0	sonnig	anregung	besonnen	vertrauen	vergnügt	kreativ	sterben	ausrottung	bange	versagen	verbissen	krank	gütig	kuss	träumen	engagiert	genießen	gesittet	gierig	krise	töten	engstirnig	gemein	geizig	1	blank2r.bmp	0	1	+	0	1	blank2r.bmp	500	1	DHJF	500	1	blank2r.bmp	880	1	sterben	880	1	!	1232	1	!	1342	0	0	0	0	0	0
2024-05-02	12:14:14	12:22:58	523988	6.6.1	4_exp_EVA_AWA_CON	9	A	B	Rpleas_acq	Same	Rpleas	1pleas	acq_US_unple_nomask	acq45_nomask	4	20	400	1	300	300	0	0	418	46	1	0	sonnig	anregung	besonnen	vertrauen	vergnügt	kreativ	sterben	ausrottung	bange	versagen	verbissen	krank	gütig	kuss	träumen	engagiert	genießen	gesittet	gierig	krise	töten	engstirnig	gemein	geizig	1	blank2r.bmp	0	1	+	0	1	blank2r.bmp	500	1	DHJF	500	1	blank2r.bmp	880	2	ausrottung	880	1	!	1232	1	!	1320	0	0	0	0	0	0
2024-05-02	12:14:14	12:23:00	526090	6.6.1	4_exp_EVA_AWA_CON	9	A	B	Rpleas_acq	Same	Rpleas	1pleas	acq_US_unple_nomask	acq45_nomask	4	21	400	0	300	300	0	0	321	46	1	0	sonnig	anregung	besonnen	vertrauen	vergnügt	kreativ	sterben	ausrottung	bange	versagen	verbissen	krank	gütig	kuss	träumen	engagiert	genießen	gesittet	gierig	krise	töten	engstirnig	gemein	geizig	1	blank2r.bmp	0	1	+	0	1	blank2r.bmp	500	1	DHJF	500	1	blank2r.bmp	880	5	verbissen	880	1	!	-1	1	!	-1	0	0	0	0	0	0
2024-05-02	12:14:14	12:23:02	528178	6.6.1	4_exp_EVA_AWA_CON	9	A	B	Rpleas_acq	Same	Rpleas	1pleas	acq_US_pleas_nomask	acq45_nomask	4	22	400	0	300	300	0	0	307	46	0	0	sonnig	anregung	besonnen	vertrauen	vergnügt	kreativ	sterben	ausrottung	bange	versagen	verbissen	krank	gütig	kuss	träumen	engagiert	genießen	gesittet	gierig	krise	töten	engstirnig	gemein	geizig	1	blank2r.bmp	0	1	+	0	1	blank2r.bmp	500	1	CPLW	500	1	blank2r.bmp	880	4	vertrauen	880	1	!	-1	1	!	-1	0	0	0	0	0	0
2024-05-02	12:14:14	12:23:04	530364	6.6.1	4_exp_EVA_AWA_CON	9	A	B	Rpleas_acq	Same	Rpleas	1pleas	acq_US_pleas_nomask	acq45_nomask	4	23	400	1	300	300	0	0	410	50	1	0	sonnig	anregung	besonnen	vertrauen	vergnügt	kreativ	sterben	ausrottung	bange	versagen	verbissen	krank	gütig	kuss	träumen	engagiert	genießen	gesittet	gierig	krise	töten	engstirnig	gemein	geizig	1	blank2r.bmp	0	1	+	0	1	blank2r.bmp	500	1	CPLW	500	1	blank2r.bmp	880	5	vergnügt	880	1	!	1232	1	!	1312	0	0	0	0	0	0
2024-05-02	12:14:14	12:23:07	532616	6.6.1	4_exp_EVA_AWA_CON	9	A	B	Rpleas_acq	Same	Rpleas	1pleas	acq_US_pleas_nomask	acq45_nomask	4	24	400	0	300	300	0	0	475	50	1	0	sonnig	anregung	besonnen	vertrauen	vergnügt	kreativ	sterben	ausrottung	bange	versagen	verbissen	krank	gütig	kuss	träumen	engagiert	genießen	gesittet	gierig	krise	töten	engstirnig	gemein	geizig	1	blank2r.bmp	0	1	+	0	1	blank2r.bmp	500	1	CPLW	500	1	blank2r.bmp	880	3	besonnen	880	1	!	1232	1	!	-1	0	0	0	0	0	0
2024-05-02	12:14:14	12:23:09	534843	6.6.1	4_exp_EVA_AWA_CON	9	A	B	Rpleas_acq	Same	Rpleas	1pleas	acq_US_pleas_nomask	acq45_nomask	4	25	400	1	300	300	0	0	447	50	1	0	sonnig	anregung	besonnen	vertrauen	vergnügt	kreativ	sterben	ausrottung	bange	versagen	verbissen	krank	gütig	kuss	träumen	engagiert	genießen	gesittet	gierig	krise	töten	engstirnig	gemein	geizig	1	blank2r.bmp	0	1	+	0	1	blank2r.bmp	500	1	CPLW	500	1	blank2r.bmp	880	4	vertrauen	880	1	!	1232	1	!	1349	0	0	0	0	0	0
2024-05-02	12:14:14	12:23:11	537121	6.6.1	4_exp_EVA_AWA_CON	9	A	B	Rpleas_acq	Same	Rpleas	1pleas	acq_US_unple_nomask	acq45_nomask	4	26	400	0	300	300	0	0	506	46	1	0	sonnig	anregung	besonnen	vertrauen	vergnügt	kreativ	sterben	ausrottung	bange	versagen	verbissen	krank	gütig	kuss	träumen	engagiert	genießen	gesittet	gierig	krise	töten	engstirnig	gemein	geizig	1	blank2r.bmp	0	1	+	0	1	blank2r.bmp	500	1	DHJF	500	1	blank2r.bmp	880	1	sterben	880	1	!	1232	1	!	-1	0	0	0	0	0	0
2024-05-02	12:14:14	12:23:13	539291	6.6.1	4_exp_EVA_AWA_CON	9	A	B	Rpleas_acq	Same	Rpleas	1pleas	acq_US_unple_nomask	acq45_nomask	4	27	400	1	300	300	0	0	393	50	0	0	sonnig	anregung	besonnen	vertrauen	vergnügt	kreativ	sterben	ausrottung	bange	versagen	verbissen	krank	gütig	kuss	träumen	engagiert	genießen	gesittet	gierig	krise	töten	engstirnig	gemein	geizig	1	blank2r.bmp	0	1	+	0	1	blank2r.bmp	500	1	DHJF	500	1	blank2r.bmp	880	2	ausrottung	880	1	!	1232	1	!	1294	0	0	0	0	0	0
2024-05-02	12:14:14	12:23:16	541523	6.6.1	4_exp_EVA_AWA_CON	9	A	B	Rpleas_acq	Same	Rpleas	1pleas	acq_US_unple_nomask	acq45_nomask	4	28	400	1	300	300	0	0	453	46	1	0	sonnig	anregung	besonnen	vertrauen	vergnügt	kreativ	sterben	ausrottung	bange	versagen	verbissen	krank	gütig	kuss	träumen	engagiert	genießen	gesittet	gierig	krise	töten	engstirnig	gemein	geizig	1	blank2r.bmp	0	1	+	0	1	blank2r.bmp	500	1	DHJF	500	1	blank2r.bmp	880	4	versagen	880	1	!	1232	1	!	1354	0	0	0	0	0	0
2024-05-02	12:14:14	12:23:18	543732	6.6.1	4_exp_EVA_AWA_CON	9	A	B	Rpleas_acq	Same	Rpleas	1pleas	acq_US_pleas_nomask	acq45_nomask	4	29	400	1	300	300	0	0	430	50	1	0	sonnig	anregung	besonnen	vertrauen	vergnügt	kreativ	sterben	ausrottung	bange	versagen	verbissen	krank	gütig	kuss	träumen	engagiert	genießen	gesittet	gierig	krise	töten	engstirnig	gemein	geizig	1	blank2r.bmp	0	1	+	0	1	blank2r.bmp	500	1	CPLW	500	1	blank2r.bmp	880	3	besonnen	880	1	!	1232	1	!	1332	0	0	0	0	0	0
2024-05-02	12:14:14	12:23:20	546002	6.6.1	4_exp_EVA_AWA_CON	9	A	B	Rpleas_acq	Same	Rpleas	1pleas	acq_US_unple_nomask	acq45_nomask	4	30	400	0	300	300	0	0	490	46	1	0	sonnig	anregung	besonnen	vertrauen	vergnügt	kreativ	sterben	ausrottung	bange	versagen	verbissen	krank	gütig	kuss	träumen	engagiert	genießen	gesittet	gierig	krise	töten	engstirnig	gemein	geizig	1	blank2r.bmp	0	1	+	0	1	blank2r.bmp	500	1	DHJF	500	1	blank2r.bmp	880	3	bange	880	1	!	1232	1	!	-1	0	0	0	0	0	0
2024-05-02	12:14:14	12:23:22	548147	6.6.1	4_exp_EVA_AWA_CON	9	A	B	Rpleas_acq	Same	Rpleas	1pleas	acq_US_pleas_nomask	acq45_nomask	4	31	400	1	300	300	0	0	363	50	1	0	sonnig	anregung	besonnen	vertrauen	vergnügt	kreativ	sterben	ausrottung	bange	versagen	verbissen	krank	gütig	kuss	träumen	engagiert	genießen	gesittet	gierig	krise	töten	engstirnig	gemein	geizig	1	blank2r.bmp	0	1	+	0	1	blank2r.bmp	500	1	CPLW	500	1	blank2r.bmp	880	1	sonnig	880	1	!	1232	1	!	1264	0	0	0	0	0	0
2024-05-02	12:14:14	12:23:24	550316	6.6.1	4_exp_EVA_AWA_CON	9	A	B	Rpleas_acq	Same	Rpleas	1pleas	acq_US_unple_nomask	acq45_nomask	4	32	400	1	300	300	0	0	389	46	1	0	sonnig	anregung	besonnen	vertrauen	vergnügt	kreativ	sterben	ausrottung	bange	versagen	verbissen	krank	gütig	kuss	träumen	engagiert	genießen	gesittet	gierig	krise	töten	engstirnig	gemein	geizig	1	blank2r.bmp	0	1	+	0	1	blank2r.bmp	500	1	DHJF	500	1	blank2r.bmp	880	6	krank	880	1	!	1232	1	!	1292	0	0	0	0	0	0
2024-05-02	12:14:14	12:23:27	552539	6.6.1	4_exp_EVA_AWA_CON	9	A	B	Rpleas_acq	Same	Rpleas	1pleas	acq_US_pleas_nomask	acq45_nomask	4	33	400	1	300	300	0	0	442	50	1	0	sonnig	anregung	besonnen	vertrauen	vergnügt	kreativ	sterben	ausrottung	bange	versagen	verbissen	krank	gütig	kuss	träumen	engagiert	genießen	gesittet	gierig	krise	töten	engstirnig	gemein	geizig	1	blank2r.bmp	0	1	+	0	1	blank2r.bmp	500	1	CPLW	500	1	blank2r.bmp	880	6	kreativ	880	1	!	1232	1	!	1344	0	0	0	0	0	0
2024-05-02	12:14:14	12:23:29	554771	6.6.1	4_exp_EVA_AWA_CON	9	A	B	Rpleas_acq	Same	Rpleas	1pleas	acq_US_unple_nomask	acq45_nomask	4	34	400	1	300	300	0	0	453	46	1	0	sonnig	anregung	besonnen	vertrauen	vergnügt	kreativ	sterben	ausrottung	bange	versagen	verbissen	krank	gütig	kuss	träumen	engagiert	genießen	gesittet	gierig	krise	töten	engstirnig	gemein	geizig	1	blank2r.bmp	0	1	+	0	1	blank2r.bmp	500	1	DHJF	500	1	blank2r.bmp	880	5	verbissen	880	1	!	1232	1	!	1354	0	0	0	0	0	0
2024-05-02	12:14:14	12:23:31	556882	6.6.1	4_exp_EVA_AWA_CON	9	A	B	Rpleas_acq	Same	Rpleas	1pleas	acq_US_pleas_nomask	acq45_nomask	4	35	400	1	300	300	0	0	334	50	1	0	sonnig	anregung	besonnen	vertrauen	vergnügt	kreativ	sterben	ausrottung	bange	versagen	verbissen	krank	gütig	kuss	träumen	engagiert	genießen	gesittet	gierig	krise	töten	engstirnig	gemein	geizig	1	blank2r.bmp	0	1	+	0	1	blank2r.bmp	500	1	CPLW	500	1	blank2r.bmp	880	2	anregung	880	1	!	1232	1	!	1233	0	0	0	0	0	0
2024-05-02	12:14:14	12:23:33	559083	6.6.1	4_exp_EVA_AWA_CON	9	A	B	Rpleas_acq	Same	Rpleas	1pleas	acq_US_pleas_nomask	acq45_nomask	4	36	400	1	300	300	0	0	421	46	0	0	sonnig	anregung	besonnen	vertrauen	vergnügt	kreativ	sterben	ausrottung	bange	versagen	verbissen	krank	gütig	kuss	träumen	engagiert	genießen	gesittet	gierig	krise	töten	engstirnig	gemein	geizig	1	blank2r.bmp	0	1	+	0	1	blank2r.bmp	500	1	CPLW	500	1	blank2r.bmp	880	5	vergnügt	880	1	!	1232	1	!	1323	0	0	0	0	0	0
2024-05-02	12:14:14	12:23:49	575426	6.6.1	4_exp_EVA_AWA_CON	9	A	B	Rpleas_acq	Same	Rpleas	1pleas	acq_US_pleas_nomask	acq45_nomask	5	1	400	0	300	300	0	0	515	50	1	0	sonnig	anregung	besonnen	vertrauen	vergnügt	kreativ	sterben	ausrottung	bange	versagen	verbissen	krank	gütig	kuss	träumen	engagiert	genießen	gesittet	gierig	krise	töten	engstirnig	gemein	geizig	1	blank2r.bmp	0	1	+	0	1	blank2r.bmp	500	1	CPLW	500	1	blank2r.bmp	880	5	vergnügt	880	1	!	1232	1	!	-1	0	0	0	0	0	0
2024-05-02	12:14:14	12:23:52	577595	6.6.1	4_exp_EVA_AWA_CON	9	A	B	Rpleas_acq	Same	Rpleas	1pleas	acq_US_unple_nomask	acq45_nomask	5	2	400	1	300	300	0	0	392	46	1	0	sonnig	anregung	besonnen	vertrauen	vergnügt	kreativ	sterben	ausrottung	bange	versagen	verbissen	krank	gütig	kuss	träumen	engagiert	genießen	gesittet	gierig	krise	töten	engstirnig	gemein	geizig	1	blank2r.bmp	0	1	+	0	1	blank2r.bmp	500	1	DHJF	500	1	blank2r.bmp	880	4	versagen	880	1	!	1232	1	!	1293	0	0	0	0	0	0
2024-05-02	12:14:14	12:23:54	579930	6.6.1	4_exp_EVA_AWA_CON	9	A	B	Rpleas_acq	Same	Rpleas	1pleas	acq_US_unple_nomask	acq45_nomask	5	3	400	0	300	300	0	0	557	46	1	0	sonnig	anregung	besonnen	vertrauen	vergnügt	kreativ	sterben	ausrottung	bange	versagen	verbissen	krank	gütig	kuss	träumen	engagiert	genießen	gesittet	gierig	krise	töten	engstirnig	gemein	geizig	1	blank2r.bmp	0	1	+	0	1	blank2r.bmp	500	1	DHJF	500	1	blank2r.bmp	880	2	ausrottung	880	1	!	1233	1	!	-1	0	0	0	0	0	0
2024-05-02	12:14:14	12:23:56	582289	6.6.1	4_exp_EVA_AWA_CON	9	A	B	Rpleas_acq	Same	Rpleas	1pleas	acq_US_pleas_nomask	acq45_nomask	5	4	400	0	300	300	0	0	585	50	1	0	sonnig	anregung	besonnen	vertrauen	vergnügt	kreativ	sterben	ausrottung	bange	versagen	verbissen	krank	gütig	kuss	träumen	engagiert	genießen	gesittet	gierig	krise	töten	engstirnig	gemein	geizig	1	blank2r.bmp	0	1	+	0	1	blank2r.bmp	500	1	CPLW	500	1	blank2r.bmp	880	2	anregung	880	1	!	1232	1	!	-1	0	0	0	0	0	0
2024-05-02	12:14:14	12:23:58	584362	6.6.1	4_exp_EVA_AWA_CON	9	A	B	Rpleas_acq	Same	Rpleas	1pleas	acq_US_pleas_nomask	acq45_nomask	5	5	400	0	300	300	0	0	295	46	0	0	sonnig	anregung	besonnen	vertrauen	vergnügt	kreativ	sterben	ausrottung	bange	versagen	verbissen	krank	gütig	kuss	träumen	engagiert	genießen	gesittet	gierig	krise	töten	engstirnig	gemein	geizig	1	blank2r.bmp	0	1	+	0	1	blank2r.bmp	500	1	CPLW	500	1	blank2r.bmp	880	4	vertrauen	880	1	!	-1	1	!	-1	0	0	0	0	0	0
2024-05-02	12:14:14	12:24:01	586540	6.6.1	4_exp_EVA_AWA_CON	9	A	B	Rpleas_acq	Same	Rpleas	1pleas	acq_US_unple_nomask	acq45_nomask	5	6	400	1	300	300	0	0	400	50	0	0	sonnig	anregung	besonnen	vertrauen	vergnügt	kreativ	sterben	ausrottung	bange	versagen	verbissen	krank	gütig	kuss	träumen	engagiert	genießen	gesittet	gierig	krise	töten	engstirnig	gemein	geizig	1	blank2r.bmp	0	1	+	0	1	blank2r.bmp	500	1	DHJF	500	1	blank2r.bmp	880	1	sterben	880	1	!	1232	1	!	1302	0	0	0	0	0	0
2024-05-02	12:14:14	12:24:03	588763	6.6.1	4_exp_EVA_AWA_CON	9	A	B	Rpleas_acq	Same	Rpleas	1pleas	acq_US_pleas_nomask	acq45_nomask	5	7	400	1	300	300	0	0	443	46	0	0	sonnig	anregung	besonnen	vertrauen	vergnügt	kreativ	sterben	ausrottung	bange	versagen	verbissen	krank	gütig	kuss	träumen	engagiert	genießen	gesittet	gierig	krise	töten	engstirnig	gemein	geizig	1	blank2r.bmp	0	1	+	0	1	blank2r.bmp	500	1	CPLW	500	1	blank2r.bmp	880	6	kreativ	880	1	!	1232	1	!	1344	0	0	0	0	0	0
2024-05-02	12:14:14	12:24:05	591026	6.6.1	4_exp_EVA_AWA_CON	9	A	B	Rpleas_acq	Same	Rpleas	1pleas	acq_US_unple_nomask	acq45_nomask	5	8	400	0	300	300	0	0	485	46	1	0	sonnig	anregung	besonnen	vertrauen	vergnügt	kreativ	sterben	ausrottung	bange	versagen	verbissen	krank	gütig	kuss	träumen	engagiert	genießen	gesittet	gierig	krise	töten	engstirnig	gemein	geizig	1	blank2r.bmp	0	1	+	0	1	blank2r.bmp	500	1	DHJF	500	1	blank2r.bmp	880	5	verbissen	880	1	!	1232	1	!	-1	0	0	0	0	0	0
2024-05-02	12:14:14	12:24:07	593298	6.6.1	4_exp_EVA_AWA_CON	9	A	B	Rpleas_acq	Same	Rpleas	1pleas	acq_US_unple_nomask	acq45_nomask	5	9	400	0	300	300	0	0	496	46	1	0	sonnig	anregung	besonnen	vertrauen	vergnügt	kreativ	sterben	ausrottung	bange	versagen	verbissen	krank	gütig	kuss	träumen	engagiert	genießen	gesittet	gierig	krise	töten	engstirnig	gemein	geizig	1	blank2r.bmp	0	1	+	0	1	blank2r.bmp	500	1	DHJF	500	1	blank2r.bmp	880	3	bange	880	1	!	1232	1	!	-1	0	0	0	0	0	0
2024-05-02	12:14:14	12:24:10	595544	6.6.1	4_exp_EVA_AWA_CON	9	A	B	Rpleas_acq	Same	Rpleas	1pleas	acq_US_unple_nomask	acq45_nomask	5	10	400	0	300	300	0	0	473	46	1	0	sonnig	anregung	besonnen	vertrauen	vergnügt	kreativ	sterben	ausrottung	bange	versagen	verbissen	krank	gütig	kuss	träumen	engagiert	genießen	gesittet	gierig	krise	töten	engstirnig	gemein	geizig	1	blank2r.bmp	0	1	+	0	1	blank2r.bmp	500	1	DHJF	500	1	blank2r.bmp	880	6	krank	880	1	!	1232	1	!	-1	0	0	0	0	0	0
2024-05-02	12:14:14	12:24:12	597796	6.6.1	4_exp_EVA_AWA_CON	9	A	B	Rpleas_acq	Same	Rpleas	1pleas	acq_US_unple_nomask	acq45_nomask	5	11	400	1	300	300	0	0	469	46	1	0	sonnig	anregung	besonnen	vertrauen	vergnügt	kreativ	sterben	ausrottung	bange	versagen	verbissen	krank	gütig	kuss	träumen	engagiert	genießen	gesittet	gierig	krise	töten	engstirnig	gemein	geizig	1	blank2r.bmp	0	1	+	0	1	blank2r.bmp	500	1	DHJF	500	1	blank2r.bmp	880	2	ausrottung	880	1	!	1232	1	!	1370	0	0	0	0	0	0
2024-05-02	12:14:14	12:24:14	600082	6.6.1	4_exp_EVA_AWA_CON	9	A	B	Rpleas_acq	Same	Rpleas	1pleas	acq_US_pleas_nomask	acq45_nomask	5	12	400	0	300	300	0	0	505	50	1	0	sonnig	anregung	besonnen	vertrauen	vergnügt	kreativ	sterben	ausrottung	bange	versagen	verbissen	krank	gütig	kuss	träumen	engagiert	genießen	gesittet	gierig	krise	töten	engstirnig	gemein	geizig	1	blank2r.bmp	0	1	+	0	1	blank2r.bmp	500	1	CPLW	500	1	blank2r.bmp	880	1	sonnig	880	1	!	1232	1	!	-1	0	0	0	0	0	0
2024-05-02	12:14:14	12:24:16	602300	6.6.1	4_exp_EVA_AWA_CON	9	A	B	Rpleas_acq	Same	Rpleas	1pleas	acq_US_pleas_nomask	acq45_nomask	5	13	400	1	300	300	0	0	440	50	1	0	sonnig	anregung	besonnen	vertrauen	vergnügt	kreativ	sterben	ausrottung	bange	versagen	verbissen	krank	gütig	kuss	träumen	engagiert	genießen	gesittet	gierig	krise	töten	engstirnig	gemein	geizig	1	blank2r.bmp	0	1	+	0	1	blank2r.bmp	500	1	CPLW	500	1	blank2r.bmp	880	3	besonnen	880	1	!	1232	1	!	1342	0	0	0	0	0	0
2024-05-02	12:14:14	12:24:19	604500	6.6.1	4_exp_EVA_AWA_CON	9	A	B	Rpleas_acq	Same	Rpleas	1pleas	acq_US_unple_nomask	acq45_nomask	5	14	400	1	300	300	0	0	419	46	1	0	sonnig	anregung	besonnen	vertrauen	vergnügt	kreativ	sterben	ausrottung	bange	versagen	verbissen	krank	gütig	kuss	träumen	engagiert	genießen	gesittet	gierig	krise	töten	engstirnig	gemein	geizig	1	blank2r.bmp	0	1	+	0	1	blank2r.bmp	500	1	DHJF	500	1	blank2r.bmp	880	5	verbissen	880	1	!	1233	1	!	1320	0	0	0	0	0	0
2024-05-02	12:14:14	12:24:21	606731	6.6.1	4_exp_EVA_AWA_CON	9	A	B	Rpleas_acq	Same	Rpleas	1pleas	acq_US_pleas_nomask	acq45_nomask	5	15	400	1	300	300	0	0	449	50	1	0	sonnig	anregung	besonnen	vertrauen	vergnügt	kreativ	sterben	ausrottung	bange	versagen	verbissen	krank	gütig	kuss	träumen	engagiert	genießen	gesittet	gierig	krise	töten	engstirnig	gemein	geizig	1	blank2r.bmp	0	1	+	0	1	blank2r.bmp	500	1	CPLW	500	1	blank2r.bmp	880	1	sonnig	880	1	!	1232	1	!	1351	0	0	0	0	0	0
2024-05-02	12:14:14	12:24:23	608971	6.6.1	4_exp_EVA_AWA_CON	9	A	B	Rpleas_acq	Same	Rpleas	1pleas	acq_US_pleas_nomask	acq45_nomask	5	16	400	1	300	300	0	0	458	50	1	0	sonnig	anregung	besonnen	vertrauen	vergnügt	kreativ	sterben	ausrottung	bange	versagen	verbissen	krank	gütig	kuss	träumen	engagiert	genießen	gesittet	gierig	krise	töten	engstirnig	gemein	geizig	1	blank2r.bmp	0	1	+	0	1	blank2r.bmp	500	1	CPLW	500	1	blank2r.bmp	880	3	besonnen	880	1	!	1232	1	!	1359	0	0	0	0	0	0
2024-05-02	12:14:14	12:24:25	611147	6.6.1	4_exp_EVA_AWA_CON	9	A	B	Rpleas_acq	Same	Rpleas	1pleas	acq_US_pleas_nomask	acq45_nomask	5	17	400	1	300	300	0	0	392	46	0	0	sonnig	anregung	besonnen	vertrauen	vergnügt	kreativ	sterben	ausrottung	bange	versagen	verbissen	krank	gütig	kuss	träumen	engagiert	genießen	gesittet	gierig	krise	töten	engstirnig	gemein	geizig	1	blank2r.bmp	0	1	+	0	1	blank2r.bmp	500	1	CPLW	500	1	blank2r.bmp	880	5	vergnügt	880	1	!	1232	1	!	1294	0	0	0	0	0	0
2024-05-02	12:14:14	12:24:27	613347	6.6.1	4_exp_EVA_AWA_CON	9	A	B	Rpleas_acq	Same	Rpleas	1pleas	acq_US_unple_nomask	acq45_nomask	5	18	400	1	300	300	0	0	421	46	1	0	sonnig	anregung	besonnen	vertrauen	vergnügt	kreativ	sterben	ausrottung	bange	versagen	verbissen	krank	gütig	kuss	träumen	engagiert	genießen	gesittet	gierig	krise	töten	engstirnig	gemein	geizig	1	blank2r.bmp	0	1	+	0	1	blank2r.bmp	500	1	DHJF	500	1	blank2r.bmp	880	4	versagen	880	1	!	1232	1	!	1322	0	0	0	0	0	0
2024-05-02	12:14:14	12:24:30	615483	6.6.1	4_exp_EVA_AWA_CON	9	A	B	Rpleas_acq	Same	Rpleas	1pleas	acq_US_unple_nomask	acq45_nomask	5	19	400	1	300	300	0	0	356	46	1	0	sonnig	anregung	besonnen	vertrauen	vergnügt	kreativ	sterben	ausrottung	bange	versagen	verbissen	krank	gütig	kuss	träumen	engagiert	genießen	gesittet	gierig	krise	töten	engstirnig	gemein	geizig	1	blank2r.bmp	0	1	+	0	1	blank2r.bmp	500	1	DHJF	500	1	blank2r.bmp	880	3	bange	880	1	!	1232	1	!	1257	0	0	0	0	0	0
2024-05-02	12:14:14	12:24:32	617691	6.6.1	4_exp_EVA_AWA_CON	9	A	B	Rpleas_acq	Same	Rpleas	1pleas	acq_US_pleas_nomask	acq45_nomask	5	20	400	1	300	300	0	0	432	46	0	0	sonnig	anregung	besonnen	vertrauen	vergnügt	kreativ	sterben	ausrottung	bange	versagen	verbissen	krank	gütig	kuss	träumen	engagiert	genießen	gesittet	gierig	krise	töten	engstirnig	gemein	geizig	1	blank2r.bmp	0	1	+	0	1	blank2r.bmp	500	1	CPLW	500	1	blank2r.bmp	880	4	vertrauen	880	1	!	1232	1	!	1334	0	0	0	0	0	0
2024-05-02	12:14:14	12:24:34	619843	6.6.1	4_exp_EVA_AWA_CON	9	A	B	Rpleas_acq	Same	Rpleas	1pleas	acq_US_pleas_nomask	acq45_nomask	5	21	400	1	300	300	0	0	373	50	1	0	sonnig	anregung	besonnen	vertrauen	vergnügt	kreativ	sterben	ausrottung	bange	versagen	verbissen	krank	gütig	kuss	träumen	engagiert	genießen	gesittet	gierig	krise	töten	engstirnig	gemein	geizig	1	blank2r.bmp	0	1	+	0	1	blank2r.bmp	500	1	CPLW	500	1	blank2r.bmp	880	6	kreativ	880	1	!	1232	1	!	1274	0	0	0	0	0	0
2024-05-02	12:14:14	12:24:36	622130	6.6.1	4_exp_EVA_AWA_CON	9	A	B	Rpleas_acq	Same	Rpleas	1pleas	acq_US_unple_nomask	acq45_nomask	5	22	400	0	300	300	0	0	509	46	1	0	sonnig	anregung	besonnen	vertrauen	vergnügt	kreativ	sterben	ausrottung	bange	versagen	verbissen	krank	gütig	kuss	träumen	engagiert	genießen	gesittet	gierig	krise	töten	engstirnig	gemein	geizig	1	blank2r.bmp	0	1	+	0	1	blank2r.bmp	500	1	DHJF	500	1	blank2r.bmp	880	6	krank	880	1	!	1232	1	!	-1	0	0	0	0	0	0
2024-05-02	12:14:14	12:24:38	624450	6.6.1	4_exp_EVA_AWA_CON	9	A	B	Rpleas_acq	Same	Rpleas	1pleas	acq_US_unple_nomask	acq45_nomask	5	23	400	0	300	300	0	0	538	46	1	0	sonnig	anregung	besonnen	vertrauen	vergnügt	kreativ	sterben	ausrottung	bange	versagen	verbissen	krank	gütig	kuss	träumen	engagiert	genießen	gesittet	gierig	krise	töten	engstirnig	gemein	geizig	1	blank2r.bmp	0	1	+	0	1	blank2r.bmp	500	1	DHJF	500	1	blank2r.bmp	880	1	sterben	880	1	!	1233	1	!	-1	0	0	0	0	0	0
2024-05-02	12:14:14	12:24:41	626785	6.6.1	4_exp_EVA_AWA_CON	9	A	B	Rpleas_acq	Same	Rpleas	1pleas	acq_US_pleas_nomask	acq45_nomask	5	24	400	0	300	300	0	0	562	50	1	0	sonnig	anregung	besonnen	vertrauen	vergnügt	kreativ	sterben	ausrottung	bange	versagen	verbissen	krank	gütig	kuss	träumen	engagiert	genießen	gesittet	gierig	krise	töten	engstirnig	gemein	geizig	1	blank2r.bmp	0	1	+	0	1	blank2r.bmp	500	1	CPLW	500	1	blank2r.bmp	880	2	anregung	880	1	!	1233	1	!	-1	0	0	0	0	0	0
2024-05-02	12:14:14	12:24:43	629050	6.6.1	4_exp_EVA_AWA_CON	9	A	B	Rpleas_acq	Same	Rpleas	1pleas	acq_US_unple_nomask	acq45_nomask	5	25	400	0	300	300	0	0	485	46	1	0	sonnig	anregung	besonnen	vertrauen	vergnügt	kreativ	sterben	ausrottung	bange	versagen	verbissen	krank	gütig	kuss	träumen	engagiert	genießen	gesittet	gierig	krise	töten	engstirnig	gemein	geizig	1	blank2r.bmp	0	1	+	0	1	blank2r.bmp	500	1	DHJF	500	1	blank2r.bmp	880	4	versagen	880	1	!	1232	1	!	-1	0	0	0	0	0	0
2024-05-02	12:14:14	12:24:45	631275	6.6.1	4_exp_EVA_AWA_CON	9	A	B	Rpleas_acq	Same	Rpleas	1pleas	acq_US_unple_nomask	acq45_nomask	5	26	400	1	300	300	0	0	447	46	1	0	sonnig	anregung	besonnen	vertrauen	vergnügt	kreativ	sterben	ausrottung	bange	versagen	verbissen	krank	gütig	kuss	träumen	engagiert	genießen	gesittet	gierig	krise	töten	engstirnig	gemein	geizig	1	blank2r.bmp	0	1	+	0	1	blank2r.bmp	500	1	DHJF	500	1	blank2r.bmp	880	5	verbissen	880	1	!	1232	1	!	1349	0	0	0	0	0	0
2024-05-02	12:14:14	12:24:48	633483	6.6.1	4_exp_EVA_AWA_CON	9	A	B	Rpleas_acq	Same	Rpleas	1pleas	acq_US_unple_nomask	acq45_nomask	5	27	400	1	300	300	0	0	424	46	1	0	sonnig	anregung	besonnen	vertrauen	vergnügt	kreativ	sterben	ausrottung	bange	versagen	verbissen	krank	gütig	kuss	träumen	engagiert	genießen	gesittet	gierig	krise	töten	engstirnig	gemein	geizig	1	blank2r.bmp	0	1	+	0	1	blank2r.bmp	500	1	DHJF	500	1	blank2r.bmp	880	6	krank	880	1	!	1232	1	!	1325	0	0	0	0	0	0
2024-05-02	12:14:14	12:24:50	635667	6.6.1	4_exp_EVA_AWA_CON	9	A	B	Rpleas_acq	Same	Rpleas	1pleas	acq_US_pleas_nomask	acq45_nomask	5	28	400	1	300	300	0	0	407	50	1	0	sonnig	anregung	besonnen	vertrauen	vergnügt	kreativ	sterben	ausrottung	bange	versagen	verbissen	krank	gütig	kuss	träumen	engagiert	genießen	gesittet	gierig	krise	töten	engstirnig	gemein	geizig	1	blank2r.bmp	0	1	+	0	1	blank2r.bmp	500	1	CPLW	500	1	blank2r.bmp	880	2	anregung	880	1	!	1232	1	!	1308	0	0	0	0	0	0
2024-05-02	12:14:14	12:24:52	637899	6.6.1	4_exp_EVA_AWA_CON	9	A	B	Rpleas_acq	Same	Rpleas	1pleas	acq_US_pleas_nomask	acq45_nomask	5	29	400	1	300	300	0	0	457	50	1	0	sonnig	anregung	besonnen	vertrauen	vergnügt	kreativ	sterben	ausrottung	bange	versagen	verbissen	krank	gütig	kuss	träumen	engagiert	genießen	gesittet	gierig	krise	töten	engstirnig	gemein	geizig	1	blank2r.bmp	0	1	+	0	1	blank2r.bmp	500	1	CPLW	500	1	blank2r.bmp	880	3	besonnen	880	1	!	1232	1	!	1359	0	0	0	0	0	0
2024-05-02	12:14:14	12:24:54	640194	6.6.1	4_exp_EVA_AWA_CON	9	A	B	Rpleas_acq	Same	Rpleas	1pleas	acq_US_unple_nomask	acq45_nomask	5	30	400	0	300	300	0	0	522	46	1	0	sonnig	anregung	besonnen	vertrauen	vergnügt	kreativ	sterben	ausrottung	bange	versagen	verbissen	krank	gütig	kuss	träumen	engagiert	genießen	gesittet	gierig	krise	töten	engstirnig	gemein	geizig	1	blank2r.bmp	0	1	+	0	1	blank2r.bmp	500	1	DHJF	500	1	blank2r.bmp	880	3	bange	880	1	!	1232	1	!	-1	0	0	0	0	0	0
2024-05-02	12:14:14	12:24:57	642522	6.6.1	4_exp_EVA_AWA_CON	9	A	B	Rpleas_acq	Same	Rpleas	1pleas	acq_US_pleas_nomask	acq45_nomask	5	31	400	0	300	300	0	0	548	50	1	0	sonnig	anregung	besonnen	vertrauen	vergnügt	kreativ	sterben	ausrottung	bange	versagen	verbissen	krank	gütig	kuss	träumen	engagiert	genießen	gesittet	gierig	krise	töten	engstirnig	gemein	geizig	1	blank2r.bmp	0	1	+	0	1	blank2r.bmp	500	1	CPLW	500	1	blank2r.bmp	880	4	vertrauen	880	1	!	1232	1	!	-1	0	0	0	0	0	0
2024-05-02	12:14:14	12:24:59	644715	6.6.1	4_exp_EVA_AWA_CON	9	A	B	Rpleas_acq	Same	Rpleas	1pleas	acq_US_unple_nomask	acq45_nomask	5	32	400	1	300	300	0	0	419	46	1	0	sonnig	anregung	besonnen	vertrauen	vergnügt	kreativ	sterben	ausrottung	bange	versagen	verbissen	krank	gütig	kuss	träumen	engagiert	genießen	gesittet	gierig	krise	töten	engstirnig	gemein	geizig	1	blank2r.bmp	0	1	+	0	1	blank2r.bmp	500	1	DHJF	500	1	blank2r.bmp	880	2	ausrottung	880	1	!	1232	1	!	1320	0	0	0	0	0	0
2024-05-02	12:14:14	12:25:01	646908	6.6.1	4_exp_EVA_AWA_CON	9	A	B	Rpleas_acq	Same	Rpleas	1pleas	acq_US_unple_nomask	acq45_nomask	5	33	400	1	300	300	0	0	409	50	0	0	sonnig	anregung	besonnen	vertrauen	vergnügt	kreativ	sterben	ausrottung	bange	versagen	verbissen	krank	gütig	kuss	träumen	engagiert	genießen	gesittet	gierig	krise	töten	engstirnig	gemein	geizig	1	blank2r.bmp	0	1	+	0	1	blank2r.bmp	500	1	DHJF	500	1	blank2r.bmp	880	1	sterben	880	1	!	1233	1	!	1312	0	0	0	0	0	0
2024-05-02	12:14:14	12:25:03	649108	6.6.1	4_exp_EVA_AWA_CON	9	A	B	Rpleas_acq	Same	Rpleas	1pleas	acq_US_pleas_nomask	acq45_nomask	5	34	400	1	300	300	0	0	418	50	1	0	sonnig	anregung	besonnen	vertrauen	vergnügt	kreativ	sterben	ausrottung	bange	versagen	verbissen	krank	gütig	kuss	träumen	engagiert	genießen	gesittet	gierig	krise	töten	engstirnig	gemein	geizig	1	blank2r.bmp	0	1	+	0	1	blank2r.bmp	500	1	CPLW	500	1	blank2r.bmp	880	1	sonnig	880	1	!	1232	1	!	1320	0	0	0	0	0	0
2024-05-02	12:14:14	12:25:05	651410	6.6.1	4_exp_EVA_AWA_CON	9	A	B	Rpleas_acq	Same	Rpleas	1pleas	acq_US_pleas_nomask	acq45_nomask	5	35	400	0	300	300	0	0	521	46	0	0	sonnig	anregung	besonnen	vertrauen	vergnügt	kreativ	sterben	ausrottung	bange	versagen	verbissen	krank	gütig	kuss	träumen	engagiert	genießen	gesittet	gierig	krise	töten	engstirnig	gemein	geizig	1	blank2r.bmp	0	1	+	0	1	blank2r.bmp	500	1	CPLW	500	1	blank2r.bmp	880	6	kreativ	880	1	!	1232	1	!	-1	0	0	0	0	0	0
2024-05-02	12:14:14	12:25:08	653643	6.6.1	4_exp_EVA_AWA_CON	9	A	B	Rpleas_acq	Same	Rpleas	1pleas	acq_US_pleas_nomask	acq45_nomask	5	36	400	1	300	300	0	0	451	50	1	0	sonnig	anregung	besonnen	vertrauen	vergnügt	kreativ	sterben	ausrottung	bange	versagen	verbissen	krank	gütig	kuss	träumen	engagiert	genießen	gesittet	gierig	krise	töten	engstirnig	gemein	geizig	1	blank2r.bmp	0	1	+	0	1	blank2r.bmp	500	1	CPLW	500	1	blank2r.bmp	880	5	vergnügt	880	1	!	1232	1	!	1353	0	0	0	0	0	0
2024-05-02	12:14:14	12:25:29	674894	6.6.1	4_exp_EVA_AWA_CON	9	A	B	Rpleas_acq	Same	Rpleas	1pleas	EvalRating_firsttwo	EvalRating_firsttwo	6	1	0	0	300	300	0	0	5654	line	0	-31,640625pct	sonnig	anregung	besonnen	vertrauen	vergnügt	kreativ	sterben	ausrottung	bange	versagen	verbissen	krank	gütig	kuss	träumen	engagiert	genießen	gesittet	gierig	krise	töten	engstirnig	gemein	geizig	1		-7	1	Wie angenehm oder unangenehm finden Sie die  Buchstabenkette WDLH?	-7	1		-7	1		-7	1		-7	1	Unangenehm	-7	1	Angenehm	-7	0	0	0	0	0	0	0	0	0
2024-05-02	12:14:14	12:25:34	680359	6.6.1	4_exp_EVA_AWA_CON	9	A	B	Rpleas_acq	Same	Rpleas	1pleas	EvalRating_lastfour	EvalRating_lastfour	7	1	0	0	300	300	0	0	3083	line	0	-49,3489583333333285964pct	sonnig	anregung	besonnen	vertrauen	vergnügt	kreativ	sterben	ausrottung	bange	versagen	verbissen	krank	gütig	kuss	träumen	engagiert	genießen	gesittet	gierig	krise	töten	engstirnig	gemein	geizig	1		-7	3	Wie angenehm oder unangenehm finden Sie die  Buchstabenkette FCJP?	-7	1		-7	1		-7	1		-7	1	Unangenehm	-7	1	Angenehm	-7	0	0	0	0	0	0	0	0	0
2024-05-02	12:14:14	12:25:37	682731	6.6.1	4_exp_EVA_AWA_CON	9	A	B	Rpleas_acq	Same	Rpleas	1pleas	blank_screen	EvalRating_lastfour	7	3	0	0	300	300	0	0	0	0	0	-49,3489583333333285964pct	sonnig	anregung	besonnen	vertrauen	vergnügt	kreativ	sterben	ausrottung	bange	versagen	verbissen	krank	gütig	kuss	träumen	engagiert	genießen	gesittet	gierig	krise	töten	engstirnig	gemein	geizig	1		-8	0	0	0	0	0	0	0	0	0	0	0	0	0	0	0	0	0	0	0	0	0	0	0	0	0	0	0
2024-05-02	12:14:14	12:25:39	685462	6.6.1	4_exp_EVA_AWA_CON	9	A	B	Rpleas_acq	Same	Rpleas	1pleas	EvalRating_lastfour	EvalRating_lastfour	7	4	0	0	300	300	0	0	2143	line	0	6,5104166666666714036pct	sonnig	anregung	besonnen	vertrauen	vergnügt	kreativ	sterben	ausrottung	bange	versagen	verbissen	krank	gütig	kuss	träumen	engagiert	genießen	gesittet	gierig	krise	töten	engstirnig	gemein	geizig	1		-7	1	Wie angenehm oder unangenehm finden Sie die  Buchstabenkette CPLW?	-7	1		-7	1		-7	1		-7	1	Unangenehm	-7	1	Angenehm	-7	0	0	0	0	0	0	0	0	0
2024-05-02	12:14:14	12:25:42	687834	6.6.1	4_exp_EVA_AWA_CON	9	A	B	Rpleas_acq	Same	Rpleas	1pleas	blank_screen	EvalRating_lastfour	7	6	0	0	300	300	0	0	0	0	0	6,5104166666666714036pct	sonnig	anregung	besonnen	vertrauen	vergnügt	kreativ	sterben	ausrottung	bange	versagen	verbissen	krank	gütig	kuss	träumen	engagiert	genießen	gesittet	gierig	krise	töten	engstirnig	gemein	geizig	1		-8	0	0	0	0	0	0	0	0	0	0	0	0	0	0	0	0	0	0	0	0	0	0	0	0	0	0	0
2024-05-02	12:14:14	12:25:44	690334	6.6.1	4_exp_EVA_AWA_CON	9	A	B	Rpleas_acq	Same	Rpleas	1pleas	EvalRating_lastfour	EvalRating_lastfour	7	7	0	0	300	300	0	0	1912	line	0	27,2135416666666714036pct	sonnig	anregung	besonnen	vertrauen	vergnügt	kreativ	sterben	ausrottung	bange	versagen	verbissen	krank	gütig	kuss	träumen	engagiert	genießen	gesittet	gierig	krise	töten	engstirnig	gemein	geizig	1		-8	2	Wie angenehm oder unangenehm finden Sie die  Buchstabenkette DHJF?	-8	1		-8	1		-8	1		-8	1	Unangenehm	-8	1	Angenehm	-8	0	0	0	0	0	0	0	0	0
2024-05-02	12:14:14	12:26:30	735643	6.6.1	4_exp_EVA_AWA_CON	9	A	B	Rpleas_acq	Same	Rpleas	1pleas	conawa_CS2_US4	conawa1_nomask	8	1	0	0	300	300	0	0	11173	vertrauen	1	27,2135416666666714036pct	sonnig	anregung	besonnen	vertrauen	vergnügt	kreativ	sterben	ausrottung	bange	versagen	verbissen	krank	gütig	kuss	träumen	engagiert	genießen	gesittet	gierig	krise	töten	engstirnig	gemein	geizig	0	0	0	0	0	0	0	0	0	0	0	0	0	0	0	0	0	0	0	0	0	0	0	0	0	0	0	0	0	0
2024-05-02	12:14:14	12:26:30	735644	6.6.1	4_exp_EVA_AWA_CON	9	A	B	Rpleas_acq	Same	Rpleas	1pleas	conawa_CS2_US4_confidence	conawa1_nomask	8	1	0	0	300	300	0	0	11173	probably	1	27,2135416666666714036pct	sonnig	anregung	besonnen	vertrauen	vergnügt	kreativ	sterben	ausrottung	bange	versagen	verbissen	krank	gütig	kuss	träumen	engagiert	genießen	gesittet	gierig	krise	töten	engstirnig	gemein	geizig	0	0	0	0	0	0	0	0	0	0	0	0	0	0	0	0	0	0	0	0	0	0	0	0	0	0	0	0	0	0
2024-05-02	12:14:14	12:26:40	746190	6.6.1	4_exp_EVA_AWA_CON	9	A	B	Rpleas_acq	Same	Rpleas	1pleas	conawa_CS2_US2	conawa1_nomask	8	2	0	0	300	300	0	0	9932	träumen	1	27,2135416666666714036pct	sonnig	anregung	besonnen	vertrauen	vergnügt	kreativ	sterben	ausrottung	bange	versagen	verbissen	krank	gütig	kuss	träumen	engagiert	genießen	gesittet	gierig	krise	töten	engstirnig	gemein	geizig	0	0	0	0	0	0	0	0	0	0	0	0	0	0	0	0	0	0	0	0	0	0	0	0	0	0	0	0	0	0
2024-05-02	12:14:14	12:26:40	746191	6.6.1	4_exp_EVA_AWA_CON	9	A	B	Rpleas_acq	Same	Rpleas	1pleas	conawa_CS2_US2_confidence	conawa1_nomask	8	2	0	0	300	300	0	0	9932	probably	1	27,2135416666666714036pct	sonnig	anregung	besonnen	vertrauen	vergnügt	kreativ	sterben	ausrottung	bange	versagen	verbissen	krank	gütig	kuss	träumen	engagiert	genießen	gesittet	gierig	krise	töten	engstirnig	gemein	geizig	0	0	0	0	0	0	0	0	0	0	0	0	0	0	0	0	0	0	0	0	0	0	0	0	0	0	0	0	0	0
2024-05-02	12:14:14	12:26:50	755806	6.6.1	4_exp_EVA_AWA_CON	9	A	B	Rpleas_acq	Same	Rpleas	1pleas	conawa_CS2_US3	conawa1_nomask	8	3	0	0	300	300	0	0	9002	besonnen	1	27,2135416666666714036pct	sonnig	anregung	besonnen	vertrauen	vergnügt	kreativ	sterben	ausrottung	bange	versagen	verbissen	krank	gütig	kuss	träumen	engagiert	genießen	gesittet	gierig	krise	töten	engstirnig	gemein	geizig	0	0	0	0	0	0	0	0	0	0	0	0	0	0	0	0	0	0	0	0	0	0	0	0	0	0	0	0	0	0
2024-05-02	12:14:14	12:26:50	755807	6.6.1	4_exp_EVA_AWA_CON	9	A	B	Rpleas_acq	Same	Rpleas	1pleas	conawa_CS2_US3_confidence	conawa1_nomask	8	3	0	0	300	300	0	0	9002	guess	1	27,2135416666666714036pct	sonnig	anregung	besonnen	vertrauen	vergnügt	kreativ	sterben	ausrottung	bange	versagen	verbissen	krank	gütig	kuss	träumen	engagiert	genießen	gesittet	gierig	krise	töten	engstirnig	gemein	geizig	0	0	0	0	0	0	0	0	0	0	0	0	0	0	0	0	0	0	0	0	0	0	0	0	0	0	0	0	0	0
2024-05-02	12:14:14	12:27:00	766133	6.6.1	4_exp_EVA_AWA_CON	9	A	B	Rpleas_acq	Same	Rpleas	1pleas	conawa_CS1_US2	conawa1_nomask	8	4	0	0	300	300	0	0	9710	kuss	1	27,2135416666666714036pct	sonnig	anregung	besonnen	vertrauen	vergnügt	kreativ	sterben	ausrottung	bange	versagen	verbissen	krank	gütig	kuss	träumen	engagiert	genießen	gesittet	gierig	krise	töten	engstirnig	gemein	geizig	0	0	0	0	0	0	0	0	0	0	0	0	0	0	0	0	0	0	0	0	0	0	0	0	0	0	0	0	0	0
2024-05-02	12:14:14	12:27:00	766134	6.6.1	4_exp_EVA_AWA_CON	9	A	B	Rpleas_acq	Same	Rpleas	1pleas	conawa_CS1_US2_confidence	conawa1_nomask	8	4	0	0	300	300	0	0	9710	guess	1	27,2135416666666714036pct	sonnig	anregung	besonnen	vertrauen	vergnügt	kreativ	sterben	ausrottung	bange	versagen	verbissen	krank	gütig	kuss	träumen	engagiert	genießen	gesittet	gierig	krise	töten	engstirnig	gemein	geizig	0	0	0	0	0	0	0	0	0	0	0	0	0	0	0	0	0	0	0	0	0	0	0	0	0	0	0	0	0	0
2024-05-02	12:14:14	12:27:08	773937	6.6.1	4_exp_EVA_AWA_CON	9	A	B	Rpleas_acq	Same	Rpleas	1pleas	conawa_CS1_US3	conawa1_nomask	8	5	0	0	300	300	0	0	7187	besonnen	1	27,2135416666666714036pct	sonnig	anregung	besonnen	vertrauen	vergnügt	kreativ	sterben	ausrottung	bange	versagen	verbissen	krank	gütig	kuss	träumen	engagiert	genießen	gesittet	gierig	krise	töten	engstirnig	gemein	geizig	0	0	0	0	0	0	0	0	0	0	0	0	0	0	0	0	0	0	0	0	0	0	0	0	0	0	0	0	0	0
2024-05-02	12:14:14	12:27:08	773938	6.6.1	4_exp_EVA_AWA_CON	9	A	B	Rpleas_acq	Same	Rpleas	1pleas	conawa_CS1_US3_confidence	conawa1_nomask	8	5	0	0	300	300	0	0	7187	guess	1	27,2135416666666714036pct	sonnig	anregung	besonnen	vertrauen	vergnügt	kreativ	sterben	ausrottung	bange	versagen	verbissen	krank	gütig	kuss	träumen	engagiert	genießen	gesittet	gierig	krise	töten	engstirnig	gemein	geizig	0	0	0	0	0	0	0	0	0	0	0	0	0	0	0	0	0	0	0	0	0	0	0	0	0	0	0	0	0	0
2024-05-02	12:14:14	12:27:17	782523	6.6.1	4_exp_EVA_AWA_CON	9	A	B	Rpleas_acq	Same	Rpleas	1pleas	conawa_CS1_US1	conawa1_nomask	8	6	0	0	300	300	0	0	7966	sonnig	1	27,2135416666666714036pct	sonnig	anregung	besonnen	vertrauen	vergnügt	kreativ	sterben	ausrottung	bange	versagen	verbissen	krank	gütig	kuss	träumen	engagiert	genießen	gesittet	gierig	krise	töten	engstirnig	gemein	geizig	0	0	0	0	0	0	0	0	0	0	0	0	0	0	0	0	0	0	0	0	0	0	0	0	0	0	0	0	0	0
2024-05-02	12:14:14	12:27:17	782524	6.6.1	4_exp_EVA_AWA_CON	9	A	B	Rpleas_acq	Same	Rpleas	1pleas	conawa_CS1_US1_confidence	conawa1_nomask	8	6	0	0	300	300	0	0	7966	guess	1	27,2135416666666714036pct	sonnig	anregung	besonnen	vertrauen	vergnügt	kreativ	sterben	ausrottung	bange	versagen	verbissen	krank	gütig	kuss	träumen	engagiert	genießen	gesittet	gierig	krise	töten	engstirnig	gemein	geizig	0	0	0	0	0	0	0	0	0	0	0	0	0	0	0	0	0	0	0	0	0	0	0	0	0	0	0	0	0	0
2024-05-02	12:14:14	12:27:22	788307	6.6.1	4_exp_EVA_AWA_CON	9	A	B	Rpleas_acq	Same	Rpleas	1pleas	conawa_CS1_US5	conawa1_nomask	8	7	0	0	300	300	0	0	5164	genießen	1	27,2135416666666714036pct	sonnig	anregung	besonnen	vertrauen	vergnügt	kreativ	sterben	ausrottung	bange	versagen	verbissen	krank	gütig	kuss	träumen	engagiert	genießen	gesittet	gierig	krise	töten	engstirnig	gemein	geizig	0	0	0	0	0	0	0	0	0	0	0	0	0	0	0	0	0	0	0	0	0	0	0	0	0	0	0	0	0	0
2024-05-02	12:14:14	12:27:22	788308	6.6.1	4_exp_EVA_AWA_CON	9	A	B	Rpleas_acq	Same	Rpleas	1pleas	conawa_CS1_US5_confidence	conawa1_nomask	8	7	0	0	300	300	0	0	5164	guess	1	27,2135416666666714036pct	sonnig	anregung	besonnen	vertrauen	vergnügt	kreativ	sterben	ausrottung	bange	versagen	verbissen	krank	gütig	kuss	träumen	engagiert	genießen	gesittet	gierig	krise	töten	engstirnig	gemein	geizig	0	0	0	0	0	0	0	0	0	0	0	0	0	0	0	0	0	0	0	0	0	0	0	0	0	0	0	0	0	0
2024-05-02	12:14:14	12:27:40	806078	6.6.1	4_exp_EVA_AWA_CON	9	A	B	Rpleas_acq	Same	Rpleas	1pleas	conawa_CS1_US4	conawa1_nomask	8	8	0	0	300	300	0	0	17156	engagiert	1	27,2135416666666714036pct	sonnig	anregung	besonnen	vertrauen	vergnügt	kreativ	sterben	ausrottung	bange	versagen	verbissen	krank	gütig	kuss	träumen	engagiert	genießen	gesittet	gierig	krise	töten	engstirnig	gemein	geizig	0	0	0	0	0	0	0	0	0	0	0	0	0	0	0	0	0	0	0	0	0	0	0	0	0	0	0	0	0	0
2024-05-02	12:14:14	12:27:40	806079	6.6.1	4_exp_EVA_AWA_CON	9	A	B	Rpleas_acq	Same	Rpleas	1pleas	conawa_CS1_US4_confidence	conawa1_nomask	8	8	0	0	300	300	0	0	17156	guess	1	27,2135416666666714036pct	sonnig	anregung	besonnen	vertrauen	vergnügt	kreativ	sterben	ausrottung	bange	versagen	verbissen	krank	gütig	kuss	träumen	engagiert	genießen	gesittet	gierig	krise	töten	engstirnig	gemein	geizig	0	0	0	0	0	0	0	0	0	0	0	0	0	0	0	0	0	0	0	0	0	0	0	0	0	0	0	0	0	0
2024-05-02	12:14:14	12:27:46	812372	6.6.1	4_exp_EVA_AWA_CON	9	A	B	Rpleas_acq	Same	Rpleas	1pleas	conawa_CS1_US6	conawa1_nomask	8	9	0	0	300	300	0	0	5672	kreativ	1	27,2135416666666714036pct	sonnig	anregung	besonnen	vertrauen	vergnügt	kreativ	sterben	ausrottung	bange	versagen	verbissen	krank	gütig	kuss	träumen	engagiert	genießen	gesittet	gierig	krise	töten	engstirnig	gemein	geizig	0	0	0	0	0	0	0	0	0	0	0	0	0	0	0	0	0	0	0	0	0	0	0	0	0	0	0	0	0	0
2024-05-02	12:14:14	12:27:46	812373	6.6.1	4_exp_EVA_AWA_CON	9	A	B	Rpleas_acq	Same	Rpleas	1pleas	conawa_CS1_US6_confidence	conawa1_nomask	8	9	0	0	300	300	0	0	5672	guess	1	27,2135416666666714036pct	sonnig	anregung	besonnen	vertrauen	vergnügt	kreativ	sterben	ausrottung	bange	versagen	verbissen	krank	gütig	kuss	träumen	engagiert	genießen	gesittet	gierig	krise	töten	engstirnig	gemein	geizig	0	0	0	0	0	0	0	0	0	0	0	0	0	0	0	0	0	0	0	0	0	0	0	0	0	0	0	0	0	0
2024-05-02	12:14:14	12:27:56	822319	6.6.1	4_exp_EVA_AWA_CON	9	A	B	Rpleas_acq	Same	Rpleas	1pleas	conawa_CS2_US5	conawa1_nomask	8	10	0	0	300	300	0	0	9332	geizig	1	27,2135416666666714036pct	sonnig	anregung	besonnen	vertrauen	vergnügt	kreativ	sterben	ausrottung	bange	versagen	verbissen	krank	gütig	kuss	träumen	engagiert	genießen	gesittet	gierig	krise	töten	engstirnig	gemein	geizig	0	0	0	0	0	0	0	0	0	0	0	0	0	0	0	0	0	0	0	0	0	0	0	0	0	0	0	0	0	0
2024-05-02	12:14:14	12:27:56	822320	6.6.1	4_exp_EVA_AWA_CON	9	A	B	Rpleas_acq	Same	Rpleas	1pleas	conawa_CS2_US5_confidence	conawa1_nomask	8	10	0	0	300	300	0	0	9332	probably	1	27,2135416666666714036pct	sonnig	anregung	besonnen	vertrauen	vergnügt	kreativ	sterben	ausrottung	bange	versagen	verbissen	krank	gütig	kuss	träumen	engagiert	genießen	gesittet	gierig	krise	töten	engstirnig	gemein	geizig	0	0	0	0	0	0	0	0	0	0	0	0	0	0	0	0	0	0	0	0	0	0	0	0	0	0	0	0	0	0
2024-05-02	12:14:14	12:28:02	828443	6.6.1	4_exp_EVA_AWA_CON	9	A	B	Rpleas_acq	Same	Rpleas	1pleas	conawa_CS2_US1	conawa1_nomask	8	11	0	0	300	300	0	0	5512	sterben	1	27,2135416666666714036pct	sonnig	anregung	besonnen	vertrauen	vergnügt	kreativ	sterben	ausrottung	bange	versagen	verbissen	krank	gütig	kuss	träumen	engagiert	genießen	gesittet	gierig	krise	töten	engstirnig	gemein	geizig	0	0	0	0	0	0	0	0	0	0	0	0	0	0	0	0	0	0	0	0	0	0	0	0	0	0	0	0	0	0
2024-05-02	12:14:14	12:28:02	828443	6.6.1	4_exp_EVA_AWA_CON	9	A	B	Rpleas_acq	Same	Rpleas	1pleas	conawa_CS2_US1_confidence	conawa1_nomask	8	11	0	0	300	300	0	0	5512	guess	1	27,2135416666666714036pct	sonnig	anregung	besonnen	vertrauen	vergnügt	kreativ	sterben	ausrottung	bange	versagen	verbissen	krank	gütig	kuss	träumen	engagiert	genießen	gesittet	gierig	krise	töten	engstirnig	gemein	geizig	0	0	0	0	0	0	0	0	0	0	0	0	0	0	0	0	0	0	0	0	0	0	0	0	0	0	0	0	0	0
2024-05-02	12:14:14	12:28:08	833756	6.6.1	4_exp_EVA_AWA_CON	9	A	B	Rpleas_acq	Same	Rpleas	1pleas	conawa_CS2_US6	conawa1_nomask	8	12	0	0	300	300	0	0	4693	krank	1	27,2135416666666714036pct	sonnig	anregung	besonnen	vertrauen	vergnügt	kreativ	sterben	ausrottung	bange	versagen	verbissen	krank	gütig	kuss	träumen	engagiert	genießen	gesittet	gierig	krise	töten	engstirnig	gemein	geizig	0	0	0	0	0	0	0	0	0	0	0	0	0	0	0	0	0	0	0	0	0	0	0	0	0	0	0	0	0	0
2024-05-02	12:14:14	12:28:08	833757	6.6.1	4_exp_EVA_AWA_CON	9	A	B	Rpleas_acq	Same	Rpleas	1pleas	conawa_CS2_US6_confidence	conawa1_nomask	8	12	0	0	300	300	0	0	4693	guess	1	27,2135416666666714036pct	sonnig	anregung	besonnen	vertrauen	vergnügt	kreativ	sterben	ausrottung	bange	versagen	verbissen	krank	gütig	kuss	träumen	engagiert	genießen	gesittet	gierig	krise	töten	engstirnig	gemein	geizig	0	0	0	0	0	0	0	0	0	0	0	0	0	0	0	0	0	0	0	0	0	0	0	0	0	0	0	0	0	0
2024-05-02	12:14:14	12:29:04	889882	6.6.1	4_exp_EVA_AWA_CON	9	A	B	Rpleas_acq	Same	Rpleas	1pleas	cond_US_unple_123_nomask_CS2	condtest_nomask_1	11	1	400	0	300	300	0	0	560	46	1	27,2135416666666714036pct	sonnig	anregung	besonnen	vertrauen	vergnügt	kreativ	sterben	ausrottung	bange	versagen	verbissen	krank	gütig	kuss	träumen	engagiert	genießen	gesittet	gierig	krise	töten	engstirnig	gemein	geizig	1	blank2r.bmp	0	1	+	0	1	blank2r.bmp	500	1	DHJF	500	1	blank2r.bmp	880	1	bange	880	1	!	1232	1	!	-1	0	0	0	0	0	0
