date	time	currenttime	elapsedtime	build	currentexpt	subject	CS_AB	US_AB	LRpleas_acq	SameOppo	condition_Lpleas	condition_1pleas	trialcode	blockcode	blocknum	trialnum	windowcenter	inwindow	pretrialpause	posttrialpause	trialduration	trialtimeout	latency	response	correct	correctedscore	US_nomask_pleas1	US_nomask_pleas2	US_nomask_pleas3	US_nomask_pleas4	US_nomask_pleas5	US_nomask_pleas6	US_nomask_unple1	US_nomask_unple2	US_nomask_unple3	US_nomask_unple4	US_nomask_unple5	US_nomask_unple6	new_nomask_pleas1	new_nomask_pleas2	new_nomask_pleas3	new_nomask_pleas4	new_nomask_pleas5	new_nomask_pleas6	new_nomask_unple1	new_nomask_unple2	new_nomask_unple3	new_nomask_unple4	new_nomask_unple5	new_nomask_unple6	stimulusnumber1	stimulusitem1	stimulusonset1	stimulusnumber2	stimulusitem2	stimulusonset2	stimulusnumber3	stimulusitem3	stimulusonset3	stimulusnumber4	stimulusitem4	stimulusonset4	stimulusnumber5	stimulusitem5	stimulusonset5	stimulusnumber6	stimulusitem6	stimulusonset6	stimulusnumber7	stimulusitem7	stimulusonset7	stimulusnumber8	stimulusitem8	stimulusonset8	stimulusnumber9	stimulusitem9	stimulusonset9	stimulusnumber10	stimulusitem10	stimulusonset10
2024-05-23	09:45:05	09:49:12	242847	6.6.1	4_exp_EVA_AWA_CON	48	A	B	Rpleas_acq	Oppo	Rpleas	2pleas	acq_US_unple_nomask	acq1_nomask	1	1	0	0	300	300	0	0	1161	46	1	0	anregung	besonnen	kreativ	engagiert	träumen	gütig	ausrottung	bange	krank	engstirnig	töten	gierig	genießen	vertrauen	vergnügt	gesittet	sonnig	kuss	gemein	versagen	verbissen	geizig	sterben	krise	1	blank2r.bmp	0	1	+	0	1	blank2r.bmp	500	1	CPLW	500	1	blank2r.bmp	880	5	töten	880	0	0	0	0	0	0	0	0	0	0	0	0
2024-05-23	09:45:05	09:49:14	245078	6.6.1	4_exp_EVA_AWA_CON	48	A	B	Rpleas_acq	Oppo	Rpleas	2pleas	acq_new_unple_nomask	acq1_nomask	1	2	0	0	300	300	0	0	742	46	1	0	anregung	besonnen	kreativ	engagiert	träumen	gütig	ausrottung	bange	krank	engstirnig	töten	gierig	genießen	vertrauen	vergnügt	gesittet	sonnig	kuss	gemein	versagen	verbissen	geizig	sterben	krise	1	blank2r.bmp	0	1	+	0	1	blank2r.bmp	500	7	C3r.bmp	500	1	blank2r.bmp	880	2	versagen	880	0	0	0	0	0	0	0	0	0	0	0	0
2024-05-23	09:45:05	09:49:16	247334	6.6.1	4_exp_EVA_AWA_CON	48	A	B	Rpleas_acq	Oppo	Rpleas	2pleas	acq_US_pleas_nomask	acq1_nomask	1	3	0	0	300	300	0	0	766	50	1	0	anregung	besonnen	kreativ	engagiert	träumen	gütig	ausrottung	bange	krank	engstirnig	töten	gierig	genießen	vertrauen	vergnügt	gesittet	sonnig	kuss	gemein	versagen	verbissen	geizig	sterben	krise	1	blank2r.bmp	0	1	+	0	1	blank2r.bmp	500	1	DHJF	500	1	blank2r.bmp	880	3	kreativ	880	0	0	0	0	0	0	0	0	0	0	0	0
2024-05-23	09:45:05	09:49:18	249486	6.6.1	4_exp_EVA_AWA_CON	48	A	B	Rpleas_acq	Oppo	Rpleas	2pleas	acq_new_unple_nomask	acq1_nomask	1	4	0	0	300	300	0	0	667	46	1	0	anregung	besonnen	kreativ	engagiert	träumen	gütig	ausrottung	bange	krank	engstirnig	töten	gierig	genießen	vertrauen	vergnügt	gesittet	sonnig	kuss	gemein	versagen	verbissen	geizig	sterben	krise	1	blank2r.bmp	0	1	+	0	1	blank2r.bmp	500	4	B4r.bmp	500	1	blank2r.bmp	880	6	krise	880	0	0	0	0	0	0	0	0	0	0	0	0
2024-05-23	09:45:05	09:49:21	251790	6.6.1	4_exp_EVA_AWA_CON	48	A	B	Rpleas_acq	Oppo	Rpleas	2pleas	acq_US_pleas_nomask	acq1_nomask	1	5	0	0	300	300	0	0	819	50	1	0	anregung	besonnen	kreativ	engagiert	träumen	gütig	ausrottung	bange	krank	engstirnig	töten	gierig	genießen	vertrauen	vergnügt	gesittet	sonnig	kuss	gemein	versagen	verbissen	geizig	sterben	krise	1	blank2r.bmp	0	1	+	0	1	blank2r.bmp	500	1	DHJF	500	1	blank2r.bmp	880	6	gütig	880	0	0	0	0	0	0	0	0	0	0	0	0
2024-05-23	09:45:05	09:49:23	253910	6.6.1	4_exp_EVA_AWA_CON	48	A	B	Rpleas_acq	Oppo	Rpleas	2pleas	acq_US_unple_nomask	acq1_nomask	1	6	0	0	300	300	0	0	638	46	1	0	anregung	besonnen	kreativ	engagiert	träumen	gütig	ausrottung	bange	krank	engstirnig	töten	gierig	genießen	vertrauen	vergnügt	gesittet	sonnig	kuss	gemein	versagen	verbissen	geizig	sterben	krise	1	blank2r.bmp	0	1	+	0	1	blank2r.bmp	500	1	CPLW	500	1	blank2r.bmp	880	2	bange	880	0	0	0	0	0	0	0	0	0	0	0	0
2024-05-23	09:45:05	09:49:25	256038	6.6.1	4_exp_EVA_AWA_CON	48	A	B	Rpleas_acq	Oppo	Rpleas	2pleas	acq_US_pleas_nomask	acq1_nomask	1	7	0	0	300	300	0	0	645	50	1	0	anregung	besonnen	kreativ	engagiert	träumen	gütig	ausrottung	bange	krank	engstirnig	töten	gierig	genießen	vertrauen	vergnügt	gesittet	sonnig	kuss	gemein	versagen	verbissen	geizig	sterben	krise	1	blank2r.bmp	0	1	+	0	1	blank2r.bmp	500	1	DHJF	500	1	blank2r.bmp	880	4	engagiert	880	0	0	0	0	0	0	0	0	0	0	0	0
2024-05-23	09:45:05	09:49:27	258166	6.6.1	4_exp_EVA_AWA_CON	48	A	B	Rpleas_acq	Oppo	Rpleas	2pleas	acq_new_pleas_nomask	acq1_nomask	1	8	0	0	300	300	0	0	641	50	1	0	anregung	besonnen	kreativ	engagiert	träumen	gütig	ausrottung	bange	krank	engstirnig	töten	gierig	genießen	vertrauen	vergnügt	gesittet	sonnig	kuss	gemein	versagen	verbissen	geizig	sterben	krise	1	blank2r.bmp	0	1	+	0	1	blank2r.bmp	500	6	C2r.bmp	500	1	blank2r.bmp	880	2	vertrauen	880	0	0	0	0	0	0	0	0	0	0	0	0
2024-05-23	09:45:05	09:49:29	260350	6.6.1	4_exp_EVA_AWA_CON	48	A	B	Rpleas_acq	Oppo	Rpleas	2pleas	acq_US_unple_nomask	acq1_nomask	1	9	0	0	300	300	0	0	694	46	1	0	anregung	besonnen	kreativ	engagiert	träumen	gütig	ausrottung	bange	krank	engstirnig	töten	gierig	genießen	vertrauen	vergnügt	gesittet	sonnig	kuss	gemein	versagen	verbissen	geizig	sterben	krise	1	blank2r.bmp	0	1	+	0	1	blank2r.bmp	500	1	CPLW	500	1	blank2r.bmp	880	4	engstirnig	880	0	0	0	0	0	0	0	0	0	0	0	0
2024-05-23	09:45:05	09:49:32	262910	6.6.1	4_exp_EVA_AWA_CON	48	A	B	Rpleas_acq	Oppo	Rpleas	2pleas	acq_new_pleas_nomask	acq1_nomask	1	10	0	0	300	300	0	0	872	46	0	0	anregung	besonnen	kreativ	engagiert	träumen	gütig	ausrottung	bange	krank	engstirnig	töten	gierig	genießen	vertrauen	vergnügt	gesittet	sonnig	kuss	gemein	versagen	verbissen	geizig	sterben	krise	1	blank2r.bmp	0	1	+	0	1	blank2r.bmp	500	5	C1r.bmp	500	1	blank2r.bmp	880	4	gesittet	880	1	FEHLER	1774	0	0	0	0	0	0	0	0	0
2024-05-23	09:45:05	09:49:34	265037	6.6.1	4_exp_EVA_AWA_CON	48	A	B	Rpleas_acq	Oppo	Rpleas	2pleas	acq_new_unple_nomask	acq1_nomask	1	11	0	0	300	300	0	0	839	46	1	0	anregung	besonnen	kreativ	engagiert	träumen	gütig	ausrottung	bange	krank	engstirnig	töten	gierig	genießen	vertrauen	vergnügt	gesittet	sonnig	kuss	gemein	versagen	verbissen	geizig	sterben	krise	1	blank2r.bmp	0	1	+	0	1	blank2r.bmp	500	1	B1r.bmp	500	1	blank2r.bmp	880	4	geizig	880	0	0	0	0	0	0	0	0	0	0	0	0
2024-05-23	09:45:05	09:49:36	267077	6.6.1	4_exp_EVA_AWA_CON	48	A	B	Rpleas_acq	Oppo	Rpleas	2pleas	acq_new_pleas_nomask	acq1_nomask	1	12	0	0	300	300	0	0	557	50	1	0	anregung	besonnen	kreativ	engagiert	träumen	gütig	ausrottung	bange	krank	engstirnig	töten	gierig	genießen	vertrauen	vergnügt	gesittet	sonnig	kuss	gemein	versagen	verbissen	geizig	sterben	krise	1	blank2r.bmp	0	1	+	0	1	blank2r.bmp	500	3	B3r.bmp	500	1	blank2r.bmp	880	6	kuss	880	0	0	0	0	0	0	0	0	0	0	0	0
2024-05-23	09:45:05	09:49:38	269334	6.6.1	4_exp_EVA_AWA_CON	48	A	B	Rpleas_acq	Oppo	Rpleas	2pleas	acq_new_unple_nomask	acq1_nomask	1	13	0	0	300	300	0	0	772	46	1	0	anregung	besonnen	kreativ	engagiert	träumen	gütig	ausrottung	bange	krank	engstirnig	töten	gierig	genießen	vertrauen	vergnügt	gesittet	sonnig	kuss	gemein	versagen	verbissen	geizig	sterben	krise	1	blank2r.bmp	0	1	+	0	1	blank2r.bmp	500	2	B2r.bmp	500	1	blank2r.bmp	880	3	verbissen	880	0	0	0	0	0	0	0	0	0	0	0	0
2024-05-23	09:45:05	09:49:40	271542	6.6.1	4_exp_EVA_AWA_CON	48	A	B	Rpleas_acq	Oppo	Rpleas	2pleas	acq_US_pleas_nomask	acq1_nomask	1	14	0	0	300	300	0	0	719	50	1	0	anregung	besonnen	kreativ	engagiert	träumen	gütig	ausrottung	bange	krank	engstirnig	töten	gierig	genießen	vertrauen	vergnügt	gesittet	sonnig	kuss	gemein	versagen	verbissen	geizig	sterben	krise	1	blank2r.bmp	0	1	+	0	1	blank2r.bmp	500	1	DHJF	500	1	blank2r.bmp	880	5	träumen	880	0	0	0	0	0	0	0	0	0	0	0	0
2024-05-23	09:45:05	09:49:42	273670	6.6.1	4_exp_EVA_AWA_CON	48	A	B	Rpleas_acq	Oppo	Rpleas	2pleas	acq_US_unple_nomask	acq1_nomask	1	15	0	0	300	300	0	0	645	46	1	0	anregung	besonnen	kreativ	engagiert	träumen	gütig	ausrottung	bange	krank	engstirnig	töten	gierig	genießen	vertrauen	vergnügt	gesittet	sonnig	kuss	gemein	versagen	verbissen	geizig	sterben	krise	1	blank2r.bmp	0	1	+	0	1	blank2r.bmp	500	1	CPLW	500	1	blank2r.bmp	880	6	gierig	880	0	0	0	0	0	0	0	0	0	0	0	0
2024-05-23	09:45:05	09:49:45	275870	6.6.1	4_exp_EVA_AWA_CON	48	A	B	Rpleas_acq	Oppo	Rpleas	2pleas	acq_new_pleas_nomask	acq1_nomask	1	16	0	0	300	300	0	0	714	50	1	0	anregung	besonnen	kreativ	engagiert	träumen	gütig	ausrottung	bange	krank	engstirnig	töten	gierig	genießen	vertrauen	vergnügt	gesittet	sonnig	kuss	gemein	versagen	verbissen	geizig	sterben	krise	1	blank2r.bmp	0	1	+	0	1	blank2r.bmp	500	8	C4r.bmp	500	1	blank2r.bmp	880	1	genießen	880	0	0	0	0	0	0	0	0	0	0	0	0
2024-05-23	09:45:05	09:49:47	277990	6.6.1	4_exp_EVA_AWA_CON	48	A	B	Rpleas_acq	Oppo	Rpleas	2pleas	acq_US_unple_nomask	acq1_nomask	1	17	0	0	300	300	0	0	632	46	1	0	anregung	besonnen	kreativ	engagiert	träumen	gütig	ausrottung	bange	krank	engstirnig	töten	gierig	genießen	vertrauen	vergnügt	gesittet	sonnig	kuss	gemein	versagen	verbissen	geizig	sterben	krise	1	blank2r.bmp	0	1	+	0	1	blank2r.bmp	500	1	CPLW	500	1	blank2r.bmp	880	1	ausrottung	880	0	0	0	0	0	0	0	0	0	0	0	0
2024-05-23	09:45:05	09:49:49	280126	6.6.1	4_exp_EVA_AWA_CON	48	A	B	Rpleas_acq	Oppo	Rpleas	2pleas	acq_US_unple_nomask	acq1_nomask	1	18	0	0	300	300	0	0	647	46	1	0	anregung	besonnen	kreativ	engagiert	träumen	gütig	ausrottung	bange	krank	engstirnig	töten	gierig	genießen	vertrauen	vergnügt	gesittet	sonnig	kuss	gemein	versagen	verbissen	geizig	sterben	krise	1	blank2r.bmp	0	1	+	0	1	blank2r.bmp	500	1	CPLW	500	1	blank2r.bmp	880	3	krank	880	0	0	0	0	0	0	0	0	0	0	0	0
2024-05-23	09:45:05	09:49:51	282206	6.6.1	4_exp_EVA_AWA_CON	48	A	B	Rpleas_acq	Oppo	Rpleas	2pleas	acq_US_pleas_nomask	acq1_nomask	1	19	0	0	300	300	0	0	596	50	1	0	anregung	besonnen	kreativ	engagiert	träumen	gütig	ausrottung	bange	krank	engstirnig	töten	gierig	genießen	vertrauen	vergnügt	gesittet	sonnig	kuss	gemein	versagen	verbissen	geizig	sterben	krise	1	blank2r.bmp	0	1	+	0	1	blank2r.bmp	500	1	DHJF	500	1	blank2r.bmp	880	2	besonnen	880	0	0	0	0	0	0	0	0	0	0	0	0
2024-05-23	09:45:05	09:49:53	284390	6.6.1	4_exp_EVA_AWA_CON	48	A	B	Rpleas_acq	Oppo	Rpleas	2pleas	acq_US_pleas_nomask	acq1_nomask	1	20	0	0	300	300	0	0	698	50	1	0	anregung	besonnen	kreativ	engagiert	träumen	gütig	ausrottung	bange	krank	engstirnig	töten	gierig	genießen	vertrauen	vergnügt	gesittet	sonnig	kuss	gemein	versagen	verbissen	geizig	sterben	krise	1	blank2r.bmp	0	1	+	0	1	blank2r.bmp	500	1	DHJF	500	1	blank2r.bmp	880	1	anregung	880	0	0	0	0	0	0	0	0	0	0	0	0
2024-05-23	09:45:05	09:49:55	286462	6.6.1	4_exp_EVA_AWA_CON	48	A	B	Rpleas_acq	Oppo	Rpleas	2pleas	acq_new_unple_nomask	acq1_nomask	1	21	0	0	300	300	0	0	589	46	1	0	anregung	besonnen	kreativ	engagiert	träumen	gütig	ausrottung	bange	krank	engstirnig	töten	gierig	genießen	vertrauen	vergnügt	gesittet	sonnig	kuss	gemein	versagen	verbissen	geizig	sterben	krise	1	blank2r.bmp	0	1	+	0	1	blank2r.bmp	500	5	C1r.bmp	500	1	blank2r.bmp	880	1	gemein	880	0	0	0	0	0	0	0	0	0	0	0	0
2024-05-23	09:45:05	09:49:57	288630	6.6.1	4_exp_EVA_AWA_CON	48	A	B	Rpleas_acq	Oppo	Rpleas	2pleas	acq_new_pleas_nomask	acq1_nomask	1	22	0	0	300	300	0	0	686	50	1	0	anregung	besonnen	kreativ	engagiert	träumen	gütig	ausrottung	bange	krank	engstirnig	töten	gierig	genießen	vertrauen	vergnügt	gesittet	sonnig	kuss	gemein	versagen	verbissen	geizig	sterben	krise	1	blank2r.bmp	0	1	+	0	1	blank2r.bmp	500	4	B4r.bmp	500	1	blank2r.bmp	880	5	sonnig	880	0	0	0	0	0	0	0	0	0	0	0	0
2024-05-23	09:45:05	09:50:00	290742	6.6.1	4_exp_EVA_AWA_CON	48	A	B	Rpleas_acq	Oppo	Rpleas	2pleas	acq_new_unple_nomask	acq1_nomask	1	23	0	0	300	300	0	0	626	46	1	0	anregung	besonnen	kreativ	engagiert	träumen	gütig	ausrottung	bange	krank	engstirnig	töten	gierig	genießen	vertrauen	vergnügt	gesittet	sonnig	kuss	gemein	versagen	verbissen	geizig	sterben	krise	1	blank2r.bmp	0	1	+	0	1	blank2r.bmp	500	6	C2r.bmp	500	1	blank2r.bmp	880	5	sterben	880	0	0	0	0	0	0	0	0	0	0	0	0
2024-05-23	09:45:05	09:50:02	292982	6.6.1	4_exp_EVA_AWA_CON	48	A	B	Rpleas_acq	Oppo	Rpleas	2pleas	acq_new_pleas_nomask	acq1_nomask	1	24	0	0	300	300	0	0	755	50	1	0	anregung	besonnen	kreativ	engagiert	träumen	gütig	ausrottung	bange	krank	engstirnig	töten	gierig	genießen	vertrauen	vergnügt	gesittet	sonnig	kuss	gemein	versagen	verbissen	geizig	sterben	krise	1	blank2r.bmp	0	1	+	0	1	blank2r.bmp	500	8	C4r.bmp	500	1	blank2r.bmp	880	3	vergnügt	880	0	0	0	0	0	0	0	0	0	0	0	0
2024-05-23	09:45:05	09:50:04	295070	6.6.1	4_exp_EVA_AWA_CON	48	A	B	Rpleas_acq	Oppo	Rpleas	2pleas	acq_US_unple_nomask	acq1_nomask	1	25	0	0	300	300	0	0	602	46	1	0	anregung	besonnen	kreativ	engagiert	träumen	gütig	ausrottung	bange	krank	engstirnig	töten	gierig	genießen	vertrauen	vergnügt	gesittet	sonnig	kuss	gemein	versagen	verbissen	geizig	sterben	krise	1	blank2r.bmp	0	1	+	0	1	blank2r.bmp	500	1	CPLW	500	1	blank2r.bmp	880	3	krank	880	0	0	0	0	0	0	0	0	0	0	0	0
2024-05-23	09:45:05	09:50:06	297182	6.6.1	4_exp_EVA_AWA_CON	48	A	B	Rpleas_acq	Oppo	Rpleas	2pleas	acq_new_pleas_nomask	acq1_nomask	1	26	0	0	300	300	0	0	622	50	1	0	anregung	besonnen	kreativ	engagiert	träumen	gütig	ausrottung	bange	krank	engstirnig	töten	gierig	genießen	vertrauen	vergnügt	gesittet	sonnig	kuss	gemein	versagen	verbissen	geizig	sterben	krise	1	blank2r.bmp	0	1	+	0	1	blank2r.bmp	500	2	B2r.bmp	500	1	blank2r.bmp	880	6	kuss	880	0	0	0	0	0	0	0	0	0	0	0	0
2024-05-23	09:45:05	09:50:08	299230	6.6.1	4_exp_EVA_AWA_CON	48	A	B	Rpleas_acq	Oppo	Rpleas	2pleas	acq_US_pleas_nomask	acq1_nomask	1	27	0	0	300	300	0	0	559	50	1	0	anregung	besonnen	kreativ	engagiert	träumen	gütig	ausrottung	bange	krank	engstirnig	töten	gierig	genießen	vertrauen	vergnügt	gesittet	sonnig	kuss	gemein	versagen	verbissen	geizig	sterben	krise	1	blank2r.bmp	0	1	+	0	1	blank2r.bmp	500	1	DHJF	500	1	blank2r.bmp	880	5	träumen	880	0	0	0	0	0	0	0	0	0	0	0	0
2024-05-23	09:45:05	09:50:10	301366	6.6.1	4_exp_EVA_AWA_CON	48	A	B	Rpleas_acq	Oppo	Rpleas	2pleas	acq_new_pleas_nomask	acq1_nomask	1	28	0	0	300	300	0	0	654	50	1	0	anregung	besonnen	kreativ	engagiert	träumen	gütig	ausrottung	bange	krank	engstirnig	töten	gierig	genießen	vertrauen	vergnügt	gesittet	sonnig	kuss	gemein	versagen	verbissen	geizig	sterben	krise	1	blank2r.bmp	0	1	+	0	1	blank2r.bmp	500	7	C3r.bmp	500	1	blank2r.bmp	880	3	vergnügt	880	0	0	0	0	0	0	0	0	0	0	0	0
2024-05-23	09:45:05	09:50:12	303502	6.6.1	4_exp_EVA_AWA_CON	48	A	B	Rpleas_acq	Oppo	Rpleas	2pleas	acq_new_unple_nomask	acq1_nomask	1	29	0	0	300	300	0	0	648	46	1	0	anregung	besonnen	kreativ	engagiert	träumen	gütig	ausrottung	bange	krank	engstirnig	töten	gierig	genießen	vertrauen	vergnügt	gesittet	sonnig	kuss	gemein	versagen	verbissen	geizig	sterben	krise	1	blank2r.bmp	0	1	+	0	1	blank2r.bmp	500	3	B3r.bmp	500	1	blank2r.bmp	880	5	sterben	880	0	0	0	0	0	0	0	0	0	0	0	0
2024-05-23	09:45:05	09:50:14	305542	6.6.1	4_exp_EVA_AWA_CON	48	A	B	Rpleas_acq	Oppo	Rpleas	2pleas	acq_new_pleas_nomask	acq1_nomask	1	30	0	0	300	300	0	0	557	50	1	0	anregung	besonnen	kreativ	engagiert	träumen	gütig	ausrottung	bange	krank	engstirnig	töten	gierig	genießen	vertrauen	vergnügt	gesittet	sonnig	kuss	gemein	versagen	verbissen	geizig	sterben	krise	1	blank2r.bmp	0	1	+	0	1	blank2r.bmp	500	1	B1r.bmp	500	1	blank2r.bmp	880	1	genießen	880	0	0	0	0	0	0	0	0	0	0	0	0
2024-05-23	09:45:05	09:50:17	307742	6.6.1	4_exp_EVA_AWA_CON	48	A	B	Rpleas_acq	Oppo	Rpleas	2pleas	acq_US_unple_nomask	acq1_nomask	1	31	0	0	300	300	0	0	715	46	1	0	anregung	besonnen	kreativ	engagiert	träumen	gütig	ausrottung	bange	krank	engstirnig	töten	gierig	genießen	vertrauen	vergnügt	gesittet	sonnig	kuss	gemein	versagen	verbissen	geizig	sterben	krise	1	blank2r.bmp	0	1	+	0	1	blank2r.bmp	500	1	CPLW	500	1	blank2r.bmp	880	2	bange	880	0	0	0	0	0	0	0	0	0	0	0	0
2024-05-23	09:45:05	09:50:19	309734	6.6.1	4_exp_EVA_AWA_CON	48	A	B	Rpleas_acq	Oppo	Rpleas	2pleas	acq_US_pleas_nomask	acq1_nomask	1	32	0	0	300	300	0	0	506	50	1	0	anregung	besonnen	kreativ	engagiert	träumen	gütig	ausrottung	bange	krank	engstirnig	töten	gierig	genießen	vertrauen	vergnügt	gesittet	sonnig	kuss	gemein	versagen	verbissen	geizig	sterben	krise	1	blank2r.bmp	0	1	+	0	1	blank2r.bmp	500	1	DHJF	500	1	blank2r.bmp	880	2	besonnen	880	0	0	0	0	0	0	0	0	0	0	0	0
2024-05-23	09:45:05	09:50:21	311766	6.6.1	4_exp_EVA_AWA_CON	48	A	B	Rpleas_acq	Oppo	Rpleas	2pleas	acq_new_unple_nomask	acq1_nomask	1	33	0	0	300	300	0	0	547	46	1	0	anregung	besonnen	kreativ	engagiert	träumen	gütig	ausrottung	bange	krank	engstirnig	töten	gierig	genießen	vertrauen	vergnügt	gesittet	sonnig	kuss	gemein	versagen	verbissen	geizig	sterben	krise	1	blank2r.bmp	0	1	+	0	1	blank2r.bmp	500	1	B1r.bmp	500	1	blank2r.bmp	880	3	verbissen	880	0	0	0	0	0	0	0	0	0	0	0	0
2024-05-23	09:45:05	09:50:23	314230	6.6.1	4_exp_EVA_AWA_CON	48	A	B	Rpleas_acq	Oppo	Rpleas	2pleas	acq_new_unple_nomask	acq1_nomask	1	34	0	0	300	300	0	0	979	46	1	0	anregung	besonnen	kreativ	engagiert	träumen	gütig	ausrottung	bange	krank	engstirnig	töten	gierig	genießen	vertrauen	vergnügt	gesittet	sonnig	kuss	gemein	versagen	verbissen	geizig	sterben	krise	1	blank2r.bmp	0	1	+	0	1	blank2r.bmp	500	5	C1r.bmp	500	1	blank2r.bmp	880	2	versagen	880	0	0	0	0	0	0	0	0	0	0	0	0
2024-05-23	09:45:05	09:50:25	316318	6.6.1	4_exp_EVA_AWA_CON	48	A	B	Rpleas_acq	Oppo	Rpleas	2pleas	acq_US_pleas_nomask	acq1_nomask	1	35	0	0	300	300	0	0	606	50	1	0	anregung	besonnen	kreativ	engagiert	träumen	gütig	ausrottung	bange	krank	engstirnig	töten	gierig	genießen	vertrauen	vergnügt	gesittet	sonnig	kuss	gemein	versagen	verbissen	geizig	sterben	krise	1	blank2r.bmp	0	1	+	0	1	blank2r.bmp	500	1	DHJF	500	1	blank2r.bmp	880	4	engagiert	880	0	0	0	0	0	0	0	0	0	0	0	0
2024-05-23	09:45:05	09:50:27	318518	6.6.1	4_exp_EVA_AWA_CON	48	A	B	Rpleas_acq	Oppo	Rpleas	2pleas	acq_US_unple_nomask	acq1_nomask	1	36	0	0	300	300	0	0	715	46	1	0	anregung	besonnen	kreativ	engagiert	träumen	gütig	ausrottung	bange	krank	engstirnig	töten	gierig	genießen	vertrauen	vergnügt	gesittet	sonnig	kuss	gemein	versagen	verbissen	geizig	sterben	krise	1	blank2r.bmp	0	1	+	0	1	blank2r.bmp	500	1	CPLW	500	1	blank2r.bmp	880	6	gierig	880	0	0	0	0	0	0	0	0	0	0	0	0
2024-05-23	09:45:05	09:51:08	359528	6.6.1	4_exp_EVA_AWA_CON	48	A	B	Rpleas_acq	Oppo	Rpleas	2pleas	acq_new_unple_nomask	acq2_nomask	2	1	480	0	300	300	0	0	939	46	1	0	anregung	besonnen	kreativ	engagiert	träumen	gütig	ausrottung	bange	krank	engstirnig	töten	gierig	genießen	vertrauen	vergnügt	gesittet	sonnig	kuss	gemein	versagen	verbissen	geizig	sterben	krise	1	blank2r.bmp	0	1	+	0	1	blank2r.bmp	500	3	B3r.bmp	500	1	blank2r.bmp	880	6	krise	880	1	!	1313	1	!	-1	0	0	0	0	0	0
2024-05-23	09:45:05	09:51:11	362200	6.6.1	4_exp_EVA_AWA_CON	48	A	B	Rpleas_acq	Oppo	Rpleas	2pleas	acq_US_pleas_nomask	acq2_nomask	2	2	480	0	300	300	0	0	899	50	1	0	anregung	besonnen	kreativ	engagiert	träumen	gütig	ausrottung	bange	krank	engstirnig	töten	gierig	genießen	vertrauen	vergnügt	gesittet	sonnig	kuss	gemein	versagen	verbissen	geizig	sterben	krise	1	blank2r.bmp	0	1	+	0	1	blank2r.bmp	500	1	DHJF	500	1	blank2r.bmp	880	6	gütig	880	1	!	1313	1	!	-1	0	0	0	0	0	0
2024-05-23	09:45:05	09:51:13	364632	6.6.1	4_exp_EVA_AWA_CON	48	A	B	Rpleas_acq	Oppo	Rpleas	2pleas	acq_new_unple_nomask	acq2_nomask	2	3	480	0	300	300	0	0	659	46	1	0	anregung	besonnen	kreativ	engagiert	träumen	gütig	ausrottung	bange	krank	engstirnig	töten	gierig	genießen	vertrauen	vergnügt	gesittet	sonnig	kuss	gemein	versagen	verbissen	geizig	sterben	krise	1	blank2r.bmp	0	1	+	0	1	blank2r.bmp	500	2	B2r.bmp	500	1	blank2r.bmp	880	1	gemein	880	1	!	1312	1	!	-1	0	0	0	0	0	0
2024-05-23	09:45:05	09:51:16	367048	6.6.1	4_exp_EVA_AWA_CON	48	A	B	Rpleas_acq	Oppo	Rpleas	2pleas	acq_US_unple_nomask	acq2_nomask	2	4	480	0	300	300	0	0	633	46	1	0	anregung	besonnen	kreativ	engagiert	träumen	gütig	ausrottung	bange	krank	engstirnig	töten	gierig	genießen	vertrauen	vergnügt	gesittet	sonnig	kuss	gemein	versagen	verbissen	geizig	sterben	krise	1	blank2r.bmp	0	1	+	0	1	blank2r.bmp	500	1	CPLW	500	1	blank2r.bmp	880	5	töten	880	1	!	1313	1	!	-1	0	0	0	0	0	0
2024-05-23	09:45:05	09:51:20	371448	6.6.1	4_exp_EVA_AWA_CON	48	A	B	Rpleas_acq	Oppo	Rpleas	2pleas	acq_new_pleas_nomask	acq2_nomask	2	5	480	0	300	300	0	0	2622	50	1	0	anregung	besonnen	kreativ	engagiert	träumen	gütig	ausrottung	bange	krank	engstirnig	töten	gierig	genießen	vertrauen	vergnügt	gesittet	sonnig	kuss	gemein	versagen	verbissen	geizig	sterben	krise	1	blank2r.bmp	0	1	+	0	1	blank2r.bmp	500	8	C4r.bmp	500	1	blank2r.bmp	880	4	gesittet	880	1	!	1313	1	!	-1	0	0	0	0	0	0
2024-05-23	09:45:05	09:51:23	374099	6.6.1	4_exp_EVA_AWA_CON	48	A	B	Rpleas_acq	Oppo	Rpleas	2pleas	acq_new_pleas_nomask	acq2_nomask	2	6	480	0	300	300	0	0	667	46	0	0	anregung	besonnen	kreativ	engagiert	träumen	gütig	ausrottung	bange	krank	engstirnig	töten	gierig	genießen	vertrauen	vergnügt	gesittet	sonnig	kuss	gemein	versagen	verbissen	geizig	sterben	krise	1	blank2r.bmp	0	1	+	0	1	blank2r.bmp	500	7	C3r.bmp	500	1	blank2r.bmp	880	5	sonnig	880	1	FEHLER	1861	1	!	1313	1	!	-1	0	0	0
2024-05-23	09:45:05	09:51:25	376499	6.6.1	4_exp_EVA_AWA_CON	48	A	B	Rpleas_acq	Oppo	Rpleas	2pleas	acq_new_unple_nomask	acq2_nomask	2	7	480	0	300	300	0	0	626	50	0	0	anregung	besonnen	kreativ	engagiert	träumen	gütig	ausrottung	bange	krank	engstirnig	töten	gierig	genießen	vertrauen	vergnügt	gesittet	sonnig	kuss	gemein	versagen	verbissen	geizig	sterben	krise	1	blank2r.bmp	0	1	+	0	1	blank2r.bmp	500	4	B4r.bmp	500	1	blank2r.bmp	880	4	geizig	880	1	FEHLER	1819	1	!	1312	1	!	-1	0	0	0
2024-05-23	09:45:05	09:51:28	378872	6.6.1	4_exp_EVA_AWA_CON	48	A	B	Rpleas_acq	Oppo	Rpleas	2pleas	acq_US_pleas_nomask	acq2_nomask	2	8	480	0	300	300	0	0	800	50	1	0	anregung	besonnen	kreativ	engagiert	träumen	gütig	ausrottung	bange	krank	engstirnig	töten	gierig	genießen	vertrauen	vergnügt	gesittet	sonnig	kuss	gemein	versagen	verbissen	geizig	sterben	krise	1	blank2r.bmp	0	1	+	0	1	blank2r.bmp	500	1	DHJF	500	1	blank2r.bmp	880	3	kreativ	880	1	!	1312	1	!	-1	0	0	0	0	0	0
2024-05-23	09:45:05	09:51:30	381169	6.6.1	4_exp_EVA_AWA_CON	48	A	B	Rpleas_acq	Oppo	Rpleas	2pleas	acq_US_unple_nomask	acq2_nomask	2	9	480	1	300	300	0	0	514	46	1	0	anregung	besonnen	kreativ	engagiert	träumen	gütig	ausrottung	bange	krank	engstirnig	töten	gierig	genießen	vertrauen	vergnügt	gesittet	sonnig	kuss	gemein	versagen	verbissen	geizig	sterben	krise	1	blank2r.bmp	0	1	+	0	1	blank2r.bmp	500	1	CPLW	500	1	blank2r.bmp	880	4	engstirnig	880	1	!	1313	1	!	1416	0	0	0	0	0	0
2024-05-23	09:45:05	09:51:32	383496	6.6.1	4_exp_EVA_AWA_CON	48	A	B	Rpleas_acq	Oppo	Rpleas	2pleas	acq_new_pleas_nomask	acq2_nomask	2	10	480	0	300	300	0	0	551	50	1	0	anregung	besonnen	kreativ	engagiert	träumen	gütig	ausrottung	bange	krank	engstirnig	töten	gierig	genießen	vertrauen	vergnügt	gesittet	sonnig	kuss	gemein	versagen	verbissen	geizig	sterben	krise	1	blank2r.bmp	0	1	+	0	1	blank2r.bmp	500	6	C2r.bmp	500	1	blank2r.bmp	880	2	vertrauen	880	1	!	1312	1	!	-1	0	0	0	0	0	0
2024-05-23	09:45:05	09:51:35	385761	6.6.1	4_exp_EVA_AWA_CON	48	A	B	Rpleas_acq	Oppo	Rpleas	2pleas	acq_US_unple_nomask	acq2_nomask	2	11	480	1	300	300	0	0	483	46	1	0	anregung	besonnen	kreativ	engagiert	träumen	gütig	ausrottung	bange	krank	engstirnig	töten	gierig	genießen	vertrauen	vergnügt	gesittet	sonnig	kuss	gemein	versagen	verbissen	geizig	sterben	krise	1	blank2r.bmp	0	1	+	0	1	blank2r.bmp	500	1	CPLW	500	1	blank2r.bmp	880	1	ausrottung	880	1	!	1312	1	!	1385	0	0	0	0	0	0
2024-05-23	09:45:05	09:51:37	388073	6.6.1	4_exp_EVA_AWA_CON	48	A	B	Rpleas_acq	Oppo	Rpleas	2pleas	acq_US_pleas_nomask	acq2_nomask	2	12	480	1	300	300	0	0	534	50	1	0	anregung	besonnen	kreativ	engagiert	träumen	gütig	ausrottung	bange	krank	engstirnig	töten	gierig	genießen	vertrauen	vergnügt	gesittet	sonnig	kuss	gemein	versagen	verbissen	geizig	sterben	krise	1	blank2r.bmp	0	1	+	0	1	blank2r.bmp	500	1	DHJF	500	1	blank2r.bmp	880	1	anregung	880	1	!	1312	1	!	1435	0	0	0	0	0	0
2024-05-23	09:45:05	09:51:39	390393	6.6.1	4_exp_EVA_AWA_CON	48	A	B	Rpleas_acq	Oppo	Rpleas	2pleas	acq_US_unple_nomask	acq2_nomask	2	13	480	1	300	300	0	0	542	46	1	0	anregung	besonnen	kreativ	engagiert	träumen	gütig	ausrottung	bange	krank	engstirnig	töten	gierig	genießen	vertrauen	vergnügt	gesittet	sonnig	kuss	gemein	versagen	verbissen	geizig	sterben	krise	1	blank2r.bmp	0	1	+	0	1	blank2r.bmp	500	1	CPLW	500	1	blank2r.bmp	880	3	krank	880	1	!	1312	1	!	1444	0	0	0	0	0	0
2024-05-23	09:45:05	09:51:41	392633	6.6.1	4_exp_EVA_AWA_CON	48	A	B	Rpleas_acq	Oppo	Rpleas	2pleas	acq_new_pleas_nomask	acq2_nomask	2	14	480	1	300	300	0	0	461	50	1	0	anregung	besonnen	kreativ	engagiert	träumen	gütig	ausrottung	bange	krank	engstirnig	töten	gierig	genießen	vertrauen	vergnügt	gesittet	sonnig	kuss	gemein	versagen	verbissen	geizig	sterben	krise	1	blank2r.bmp	0	1	+	0	1	blank2r.bmp	500	7	C3r.bmp	500	1	blank2r.bmp	880	6	kuss	880	1	!	1313	1	!	1363	0	0	0	0	0	0
2024-05-23	09:45:05	09:51:44	394832	6.6.1	4_exp_EVA_AWA_CON	48	A	B	Rpleas_acq	Oppo	Rpleas	2pleas	acq_US_unple_nomask	acq2_nomask	2	15	480	1	300	300	0	0	420	46	1	0	anregung	besonnen	kreativ	engagiert	träumen	gütig	ausrottung	bange	krank	engstirnig	töten	gierig	genießen	vertrauen	vergnügt	gesittet	sonnig	kuss	gemein	versagen	verbissen	geizig	sterben	krise	1	blank2r.bmp	0	1	+	0	1	blank2r.bmp	500	1	CPLW	500	1	blank2r.bmp	880	1	ausrottung	880	1	!	1312	1	!	1319	0	0	0	0	0	0
2024-05-23	09:45:05	09:51:46	397363	6.6.1	4_exp_EVA_AWA_CON	48	A	B	Rpleas_acq	Oppo	Rpleas	2pleas	acq_US_pleas_nomask	acq2_nomask	2	16	480	1	300	300	0	0	546	46	0	0	anregung	besonnen	kreativ	engagiert	träumen	gütig	ausrottung	bange	krank	engstirnig	töten	gierig	genießen	vertrauen	vergnügt	gesittet	sonnig	kuss	gemein	versagen	verbissen	geizig	sterben	krise	1	blank2r.bmp	0	1	+	0	1	blank2r.bmp	500	1	DHJF	500	1	blank2r.bmp	880	6	gütig	880	1	FEHLER	1740	1	!	1313	1	!	1448	0	0	0
2024-05-23	09:45:05	09:51:48	399610	6.6.1	4_exp_EVA_AWA_CON	48	A	B	Rpleas_acq	Oppo	Rpleas	2pleas	acq_new_pleas_nomask	acq2_nomask	2	17	480	1	300	300	0	0	473	46	0	0	anregung	besonnen	kreativ	engagiert	träumen	gütig	ausrottung	bange	krank	engstirnig	töten	gierig	genießen	vertrauen	vergnügt	gesittet	sonnig	kuss	gemein	versagen	verbissen	geizig	sterben	krise	1	blank2r.bmp	0	1	+	0	1	blank2r.bmp	500	1	B1r.bmp	500	1	blank2r.bmp	880	1	genießen	880	1	FEHLER	1666	1	!	1313	1	!	1374	0	0	0
2024-05-23	09:45:05	09:51:51	401729	6.6.1	4_exp_EVA_AWA_CON	48	A	B	Rpleas_acq	Oppo	Rpleas	2pleas	acq_new_unple_nomask	acq2_nomask	2	18	480	1	300	300	0	0	541	46	1	0	anregung	besonnen	kreativ	engagiert	träumen	gütig	ausrottung	bange	krank	engstirnig	töten	gierig	genießen	vertrauen	vergnügt	gesittet	sonnig	kuss	gemein	versagen	verbissen	geizig	sterben	krise	1	blank2r.bmp	0	1	+	0	1	blank2r.bmp	500	8	C4r.bmp	500	1	blank2r.bmp	880	6	krise	880	1	!	1312	1	!	1443	0	0	0	0	0	0
2024-05-23	09:45:05	09:51:53	404091	6.6.1	4_exp_EVA_AWA_CON	48	A	B	Rpleas_acq	Oppo	Rpleas	2pleas	acq_US_unple_nomask	acq2_nomask	2	19	480	0	300	300	0	0	380	50	0	0	anregung	besonnen	kreativ	engagiert	träumen	gütig	ausrottung	bange	krank	engstirnig	töten	gierig	genießen	vertrauen	vergnügt	gesittet	sonnig	kuss	gemein	versagen	verbissen	geizig	sterben	krise	1	blank2r.bmp	0	1	+	0	1	blank2r.bmp	500	1	CPLW	500	1	blank2r.bmp	880	2	bange	880	1	FEHLER	1574	1	!	-1	1	!	-1	0	0	0
2024-05-23	09:45:05	09:51:55	406425	6.6.1	4_exp_EVA_AWA_CON	48	A	B	Rpleas_acq	Oppo	Rpleas	2pleas	acq_new_pleas_nomask	acq2_nomask	2	20	480	0	300	300	0	0	554	46	0	0	anregung	besonnen	kreativ	engagiert	träumen	gütig	ausrottung	bange	krank	engstirnig	töten	gierig	genießen	vertrauen	vergnügt	gesittet	sonnig	kuss	gemein	versagen	verbissen	geizig	sterben	krise	1	blank2r.bmp	0	1	+	0	1	blank2r.bmp	500	4	B4r.bmp	500	1	blank2r.bmp	880	4	gesittet	880	1	FEHLER	1746	1	!	1313	1	!	-1	0	0	0
2024-05-23	09:45:05	09:51:57	408505	6.6.1	4_exp_EVA_AWA_CON	48	A	B	Rpleas_acq	Oppo	Rpleas	2pleas	acq_new_unple_nomask	acq2_nomask	2	21	480	1	300	300	0	0	503	46	1	0	anregung	besonnen	kreativ	engagiert	träumen	gütig	ausrottung	bange	krank	engstirnig	töten	gierig	genießen	vertrauen	vergnügt	gesittet	sonnig	kuss	gemein	versagen	verbissen	geizig	sterben	krise	1	blank2r.bmp	0	1	+	0	1	blank2r.bmp	500	6	C2r.bmp	500	1	blank2r.bmp	880	2	versagen	880	1	!	1313	1	!	1404	0	0	0	0	0	0
2024-05-23	09:45:05	09:52:00	410754	6.6.1	4_exp_EVA_AWA_CON	48	A	B	Rpleas_acq	Oppo	Rpleas	2pleas	acq_US_pleas_nomask	acq2_nomask	2	22	480	1	300	300	0	0	469	50	1	0	anregung	besonnen	kreativ	engagiert	träumen	gütig	ausrottung	bange	krank	engstirnig	töten	gierig	genießen	vertrauen	vergnügt	gesittet	sonnig	kuss	gemein	versagen	verbissen	geizig	sterben	krise	1	blank2r.bmp	0	1	+	0	1	blank2r.bmp	500	1	DHJF	500	1	blank2r.bmp	880	5	träumen	880	1	!	1313	1	!	1371	0	0	0	0	0	0
2024-05-23	09:45:05	09:52:02	413066	6.6.1	4_exp_EVA_AWA_CON	48	A	B	Rpleas_acq	Oppo	Rpleas	2pleas	acq_US_pleas_nomask	acq2_nomask	2	23	480	1	300	300	0	0	530	50	1	0	anregung	besonnen	kreativ	engagiert	träumen	gütig	ausrottung	bange	krank	engstirnig	töten	gierig	genießen	vertrauen	vergnügt	gesittet	sonnig	kuss	gemein	versagen	verbissen	geizig	sterben	krise	1	blank2r.bmp	0	1	+	0	1	blank2r.bmp	500	1	DHJF	500	1	blank2r.bmp	880	1	anregung	880	1	!	1312	1	!	1432	0	0	0	0	0	0
2024-05-23	09:45:05	09:52:04	415370	6.6.1	4_exp_EVA_AWA_CON	48	A	B	Rpleas_acq	Oppo	Rpleas	2pleas	acq_new_unple_nomask	acq2_nomask	2	24	480	1	300	300	0	0	522	46	1	0	anregung	besonnen	kreativ	engagiert	träumen	gütig	ausrottung	bange	krank	engstirnig	töten	gierig	genießen	vertrauen	vergnügt	gesittet	sonnig	kuss	gemein	versagen	verbissen	geizig	sterben	krise	1	blank2r.bmp	0	1	+	0	1	blank2r.bmp	500	2	B2r.bmp	500	1	blank2r.bmp	880	3	verbissen	880	1	!	1313	1	!	1424	0	0	0	0	0	0
2024-05-23	09:45:05	09:52:06	417594	6.6.1	4_exp_EVA_AWA_CON	48	A	B	Rpleas_acq	Oppo	Rpleas	2pleas	acq_US_pleas_nomask	acq2_nomask	2	25	480	1	300	300	0	0	445	50	1	0	anregung	besonnen	kreativ	engagiert	träumen	gütig	ausrottung	bange	krank	engstirnig	töten	gierig	genießen	vertrauen	vergnügt	gesittet	sonnig	kuss	gemein	versagen	verbissen	geizig	sterben	krise	1	blank2r.bmp	0	1	+	0	1	blank2r.bmp	500	1	DHJF	500	1	blank2r.bmp	880	2	besonnen	880	1	!	1313	1	!	1346	0	0	0	0	0	0
2024-05-23	09:45:05	09:52:09	420043	6.6.1	4_exp_EVA_AWA_CON	48	A	B	Rpleas_acq	Oppo	Rpleas	2pleas	acq_US_pleas_nomask	acq2_nomask	2	26	480	1	300	300	0	0	472	46	0	0	anregung	besonnen	kreativ	engagiert	träumen	gütig	ausrottung	bange	krank	engstirnig	töten	gierig	genießen	vertrauen	vergnügt	gesittet	sonnig	kuss	gemein	versagen	verbissen	geizig	sterben	krise	1	blank2r.bmp	0	1	+	0	1	blank2r.bmp	500	1	DHJF	500	1	blank2r.bmp	880	4	engagiert	880	1	FEHLER	1665	1	!	1313	1	!	1373	0	0	0
2024-05-23	09:45:05	09:52:11	422352	6.6.1	4_exp_EVA_AWA_CON	48	A	B	Rpleas_acq	Oppo	Rpleas	2pleas	acq_new_unple_nomask	acq2_nomask	2	27	480	0	300	300	0	0	732	46	1	0	anregung	besonnen	kreativ	engagiert	träumen	gütig	ausrottung	bange	krank	engstirnig	töten	gierig	genießen	vertrauen	vergnügt	gesittet	sonnig	kuss	gemein	versagen	verbissen	geizig	sterben	krise	1	blank2r.bmp	0	1	+	0	1	blank2r.bmp	500	5	C1r.bmp	500	1	blank2r.bmp	880	5	sterben	880	1	!	1313	1	!	-1	0	0	0	0	0	0
2024-05-23	09:45:05	09:52:14	424771	6.6.1	4_exp_EVA_AWA_CON	48	A	B	Rpleas_acq	Oppo	Rpleas	2pleas	acq_new_unple_nomask	acq2_nomask	2	28	480	1	300	300	0	0	436	50	0	0	anregung	besonnen	kreativ	engagiert	träumen	gütig	ausrottung	bange	krank	engstirnig	töten	gierig	genießen	vertrauen	vergnügt	gesittet	sonnig	kuss	gemein	versagen	verbissen	geizig	sterben	krise	1	blank2r.bmp	0	1	+	0	1	blank2r.bmp	500	3	B3r.bmp	500	1	blank2r.bmp	880	4	geizig	880	1	FEHLER	1630	1	!	1313	1	!	1338	0	0	0
2024-05-23	09:45:05	09:52:16	426881	6.6.1	4_exp_EVA_AWA_CON	48	A	B	Rpleas_acq	Oppo	Rpleas	2pleas	acq_US_unple_nomask	acq2_nomask	2	29	480	1	300	300	0	0	537	46	1	0	anregung	besonnen	kreativ	engagiert	träumen	gütig	ausrottung	bange	krank	engstirnig	töten	gierig	genießen	vertrauen	vergnügt	gesittet	sonnig	kuss	gemein	versagen	verbissen	geizig	sterben	krise	1	blank2r.bmp	0	1	+	0	1	blank2r.bmp	500	1	CPLW	500	1	blank2r.bmp	880	4	engstirnig	880	1	!	1313	1	!	1438	0	0	0	0	0	0
2024-05-23	09:45:05	09:52:18	429186	6.6.1	4_exp_EVA_AWA_CON	48	A	B	Rpleas_acq	Oppo	Rpleas	2pleas	acq_new_unple_nomask	acq2_nomask	2	30	480	1	300	300	0	0	530	46	1	0	anregung	besonnen	kreativ	engagiert	träumen	gütig	ausrottung	bange	krank	engstirnig	töten	gierig	genießen	vertrauen	vergnügt	gesittet	sonnig	kuss	gemein	versagen	verbissen	geizig	sterben	krise	1	blank2r.bmp	0	1	+	0	1	blank2r.bmp	500	1	B1r.bmp	500	1	blank2r.bmp	880	1	gemein	880	1	!	1313	1	!	1432	0	0	0	0	0	0
2024-05-23	09:45:05	09:52:20	431458	6.6.1	4_exp_EVA_AWA_CON	48	A	B	Rpleas_acq	Oppo	Rpleas	2pleas	acq_US_pleas_nomask	acq2_nomask	2	31	480	1	300	300	0	0	490	50	1	0	anregung	besonnen	kreativ	engagiert	träumen	gütig	ausrottung	bange	krank	engstirnig	töten	gierig	genießen	vertrauen	vergnügt	gesittet	sonnig	kuss	gemein	versagen	verbissen	geizig	sterben	krise	1	blank2r.bmp	0	1	+	0	1	blank2r.bmp	500	1	DHJF	500	1	blank2r.bmp	880	3	kreativ	880	1	!	1313	1	!	1392	0	0	0	0	0	0
2024-05-23	09:45:05	09:52:22	433665	6.6.1	4_exp_EVA_AWA_CON	48	A	B	Rpleas_acq	Oppo	Rpleas	2pleas	acq_US_unple_nomask	acq2_nomask	2	32	480	1	300	300	0	0	427	46	1	0	anregung	besonnen	kreativ	engagiert	träumen	gütig	ausrottung	bange	krank	engstirnig	töten	gierig	genießen	vertrauen	vergnügt	gesittet	sonnig	kuss	gemein	versagen	verbissen	geizig	sterben	krise	1	blank2r.bmp	0	1	+	0	1	blank2r.bmp	500	1	CPLW	500	1	blank2r.bmp	880	6	gierig	880	1	!	1313	1	!	1328	0	0	0	0	0	0
2024-05-23	09:45:05	09:52:25	435953	6.6.1	4_exp_EVA_AWA_CON	48	A	B	Rpleas_acq	Oppo	Rpleas	2pleas	acq_new_pleas_nomask	acq2_nomask	2	33	480	1	300	300	0	0	513	50	1	0	anregung	besonnen	kreativ	engagiert	träumen	gütig	ausrottung	bange	krank	engstirnig	töten	gierig	genießen	vertrauen	vergnügt	gesittet	sonnig	kuss	gemein	versagen	verbissen	geizig	sterben	krise	1	blank2r.bmp	0	1	+	0	1	blank2r.bmp	500	5	C1r.bmp	500	1	blank2r.bmp	880	5	sonnig	880	1	!	1312	1	!	1415	0	0	0	0	0	0
2024-05-23	09:45:05	09:52:27	438169	6.6.1	4_exp_EVA_AWA_CON	48	A	B	Rpleas_acq	Oppo	Rpleas	2pleas	acq_US_unple_nomask	acq2_nomask	2	34	480	1	300	300	0	0	438	46	1	0	anregung	besonnen	kreativ	engagiert	träumen	gütig	ausrottung	bange	krank	engstirnig	töten	gierig	genießen	vertrauen	vergnügt	gesittet	sonnig	kuss	gemein	versagen	verbissen	geizig	sterben	krise	1	blank2r.bmp	0	1	+	0	1	blank2r.bmp	500	1	CPLW	500	1	blank2r.bmp	880	5	töten	880	1	!	1312	1	!	1339	0	0	0	0	0	0
2024-05-23	09:45:05	09:52:29	440442	6.6.1	4_exp_EVA_AWA_CON	48	A	B	Rpleas_acq	Oppo	Rpleas	2pleas	acq_new_pleas_nomask	acq2_nomask	2	35	480	1	300	300	0	0	488	50	1	0	anregung	besonnen	kreativ	engagiert	träumen	gütig	ausrottung	bange	krank	engstirnig	töten	gierig	genießen	vertrauen	vergnügt	gesittet	sonnig	kuss	gemein	versagen	verbissen	geizig	sterben	krise	1	blank2r.bmp	0	1	+	0	1	blank2r.bmp	500	7	C3r.bmp	500	1	blank2r.bmp	880	2	vertrauen	880	1	!	1313	1	!	1390	0	0	0	0	0	0
2024-05-23	09:45:05	09:52:32	442880	6.6.1	4_exp_EVA_AWA_CON	48	A	B	Rpleas_acq	Oppo	Rpleas	2pleas	acq_new_pleas_nomask	acq2_nomask	2	36	480	0	300	300	0	0	657	50	1	0	anregung	besonnen	kreativ	engagiert	träumen	gütig	ausrottung	bange	krank	engstirnig	töten	gierig	genießen	vertrauen	vergnügt	gesittet	sonnig	kuss	gemein	versagen	verbissen	geizig	sterben	krise	1	blank2r.bmp	0	1	+	0	1	blank2r.bmp	500	3	B3r.bmp	500	1	blank2r.bmp	880	3	vergnügt	880	1	!	1312	1	!	-1	0	0	0	0	0	0
2024-05-23	09:45:05	09:52:51	462538	6.6.1	4_exp_EVA_AWA_CON	48	A	B	Rpleas_acq	Oppo	Rpleas	2pleas	acq_US_unple_nomask	acq3_nomask	3	1	453	1	300	300	0	0	500	46	1	0	anregung	besonnen	kreativ	engagiert	träumen	gütig	ausrottung	bange	krank	engstirnig	töten	gierig	genießen	vertrauen	vergnügt	gesittet	sonnig	kuss	gemein	versagen	verbissen	geizig	sterben	krise	1	blank2r.bmp	0	1	+	0	1	blank2r.bmp	500	1	CPLW	500	1	blank2r.bmp	880	6	gierig	880	1	!	1292	1	!	1402	0	0	0	0	0	0
2024-05-23	09:45:05	09:52:54	464904	6.6.1	4_exp_EVA_AWA_CON	48	A	B	Rpleas_acq	Oppo	Rpleas	2pleas	acq_US_pleas_nomask	acq3_nomask	3	2	453	0	300	300	0	0	587	50	1	0	anregung	besonnen	kreativ	engagiert	träumen	gütig	ausrottung	bange	krank	engstirnig	töten	gierig	genießen	vertrauen	vergnügt	gesittet	sonnig	kuss	gemein	versagen	verbissen	geizig	sterben	krise	1	blank2r.bmp	0	1	+	0	1	blank2r.bmp	500	1	DHJF	500	1	blank2r.bmp	880	6	gütig	880	1	!	1293	1	!	-1	0	0	0	0	0	0
2024-05-23	09:45:05	09:52:56	467185	6.6.1	4_exp_EVA_AWA_CON	48	A	B	Rpleas_acq	Oppo	Rpleas	2pleas	acq_US_unple_nomask	acq3_nomask	3	3	453	1	300	300	0	0	505	46	1	0	anregung	besonnen	kreativ	engagiert	träumen	gütig	ausrottung	bange	krank	engstirnig	töten	gierig	genießen	vertrauen	vergnügt	gesittet	sonnig	kuss	gemein	versagen	verbissen	geizig	sterben	krise	1	blank2r.bmp	0	1	+	0	1	blank2r.bmp	500	1	CPLW	500	1	blank2r.bmp	880	2	bange	880	1	!	1292	1	!	1406	0	0	0	0	0	0
2024-05-23	09:45:05	09:52:58	469457	6.6.1	4_exp_EVA_AWA_CON	48	A	B	Rpleas_acq	Oppo	Rpleas	2pleas	acq_US_pleas_nomask	acq3_nomask	3	4	453	1	300	300	0	0	496	50	1	0	anregung	besonnen	kreativ	engagiert	träumen	gütig	ausrottung	bange	krank	engstirnig	töten	gierig	genießen	vertrauen	vergnügt	gesittet	sonnig	kuss	gemein	versagen	verbissen	geizig	sterben	krise	1	blank2r.bmp	0	1	+	0	1	blank2r.bmp	500	1	DHJF	500	1	blank2r.bmp	880	4	engagiert	880	1	!	1292	1	!	1397	0	0	0	0	0	0
2024-05-23	09:45:05	09:53:01	471784	6.6.1	4_exp_EVA_AWA_CON	48	A	B	Rpleas_acq	Oppo	Rpleas	2pleas	acq_US_unple_nomask	acq3_nomask	3	5	453	0	300	300	0	0	552	46	1	0	anregung	besonnen	kreativ	engagiert	träumen	gütig	ausrottung	bange	krank	engstirnig	töten	gierig	genießen	vertrauen	vergnügt	gesittet	sonnig	kuss	gemein	versagen	verbissen	geizig	sterben	krise	1	blank2r.bmp	0	1	+	0	1	blank2r.bmp	500	1	CPLW	500	1	blank2r.bmp	880	5	töten	880	1	!	1293	1	!	-1	0	0	0	0	0	0
2024-05-23	09:45:05	09:53:03	474041	6.6.1	4_exp_EVA_AWA_CON	48	A	B	Rpleas_acq	Oppo	Rpleas	2pleas	acq_US_pleas_nomask	acq3_nomask	3	6	453	1	300	300	0	0	477	50	1	0	anregung	besonnen	kreativ	engagiert	träumen	gütig	ausrottung	bange	krank	engstirnig	töten	gierig	genießen	vertrauen	vergnügt	gesittet	sonnig	kuss	gemein	versagen	verbissen	geizig	sterben	krise	1	blank2r.bmp	0	1	+	0	1	blank2r.bmp	500	1	DHJF	500	1	blank2r.bmp	880	2	besonnen	880	1	!	1292	1	!	1378	0	0	0	0	0	0
2024-05-23	09:45:05	09:53:05	476531	6.6.1	4_exp_EVA_AWA_CON	48	A	B	Rpleas_acq	Oppo	Rpleas	2pleas	acq_US_pleas_nomask	acq3_nomask	3	7	453	1	300	300	0	0	513	46	0	0	anregung	besonnen	kreativ	engagiert	träumen	gütig	ausrottung	bange	krank	engstirnig	töten	gierig	genießen	vertrauen	vergnügt	gesittet	sonnig	kuss	gemein	versagen	verbissen	geizig	sterben	krise	1	blank2r.bmp	0	1	+	0	1	blank2r.bmp	500	1	DHJF	500	1	blank2r.bmp	880	1	anregung	880	1	FEHLER	1707	1	!	1293	1	!	1415	0	0	0
2024-05-23	09:45:05	09:53:08	478712	6.6.1	4_exp_EVA_AWA_CON	48	A	B	Rpleas_acq	Oppo	Rpleas	2pleas	acq_US_unple_nomask	acq3_nomask	3	8	453	0	300	300	0	0	606	46	1	0	anregung	besonnen	kreativ	engagiert	träumen	gütig	ausrottung	bange	krank	engstirnig	töten	gierig	genießen	vertrauen	vergnügt	gesittet	sonnig	kuss	gemein	versagen	verbissen	geizig	sterben	krise	1	blank2r.bmp	0	1	+	0	1	blank2r.bmp	500	1	CPLW	500	1	blank2r.bmp	880	4	engstirnig	880	1	!	1293	1	!	-1	0	0	0	0	0	0
2024-05-23	09:45:05	09:53:10	481136	6.6.1	4_exp_EVA_AWA_CON	48	A	B	Rpleas_acq	Oppo	Rpleas	2pleas	acq_US_unple_nomask	acq3_nomask	3	9	453	0	300	300	0	0	648	46	1	0	anregung	besonnen	kreativ	engagiert	träumen	gütig	ausrottung	bange	krank	engstirnig	töten	gierig	genießen	vertrauen	vergnügt	gesittet	sonnig	kuss	gemein	versagen	verbissen	geizig	sterben	krise	1	blank2r.bmp	0	1	+	0	1	blank2r.bmp	500	1	CPLW	500	1	blank2r.bmp	880	1	ausrottung	880	1	!	1292	1	!	-1	0	0	0	0	0	0
2024-05-23	09:45:05	09:53:12	483426	6.6.1	4_exp_EVA_AWA_CON	48	A	B	Rpleas_acq	Oppo	Rpleas	2pleas	acq_US_unple_nomask	acq3_nomask	3	10	453	1	300	300	0	0	515	46	1	0	anregung	besonnen	kreativ	engagiert	träumen	gütig	ausrottung	bange	krank	engstirnig	töten	gierig	genießen	vertrauen	vergnügt	gesittet	sonnig	kuss	gemein	versagen	verbissen	geizig	sterben	krise	1	blank2r.bmp	0	1	+	0	1	blank2r.bmp	500	1	CPLW	500	1	blank2r.bmp	880	3	krank	880	1	!	1292	1	!	1416	0	0	0	0	0	0
2024-05-23	09:45:05	09:53:14	485625	6.6.1	4_exp_EVA_AWA_CON	48	A	B	Rpleas_acq	Oppo	Rpleas	2pleas	acq_US_pleas_nomask	acq3_nomask	3	11	453	1	300	300	0	0	423	50	1	0	anregung	besonnen	kreativ	engagiert	träumen	gütig	ausrottung	bange	krank	engstirnig	töten	gierig	genießen	vertrauen	vergnügt	gesittet	sonnig	kuss	gemein	versagen	verbissen	geizig	sterben	krise	1	blank2r.bmp	0	1	+	0	1	blank2r.bmp	500	1	DHJF	500	1	blank2r.bmp	880	3	kreativ	880	1	!	1292	1	!	1325	0	0	0	0	0	0
2024-05-23	09:45:05	09:53:17	488008	6.6.1	4_exp_EVA_AWA_CON	48	A	B	Rpleas_acq	Oppo	Rpleas	2pleas	acq_US_pleas_nomask	acq3_nomask	3	12	453	0	300	300	0	0	606	50	1	0	anregung	besonnen	kreativ	engagiert	träumen	gütig	ausrottung	bange	krank	engstirnig	töten	gierig	genießen	vertrauen	vergnügt	gesittet	sonnig	kuss	gemein	versagen	verbissen	geizig	sterben	krise	1	blank2r.bmp	0	1	+	0	1	blank2r.bmp	500	1	DHJF	500	1	blank2r.bmp	880	5	träumen	880	1	!	1292	1	!	-1	0	0	0	0	0	0
2024-05-23	09:45:05	09:53:19	490336	6.6.1	4_exp_EVA_AWA_CON	48	A	B	Rpleas_acq	Oppo	Rpleas	2pleas	acq_US_unple_nomask	acq3_nomask	3	13	453	0	300	300	0	0	552	46	1	0	anregung	besonnen	kreativ	engagiert	träumen	gütig	ausrottung	bange	krank	engstirnig	töten	gierig	genießen	vertrauen	vergnügt	gesittet	sonnig	kuss	gemein	versagen	verbissen	geizig	sterben	krise	1	blank2r.bmp	0	1	+	0	1	blank2r.bmp	500	1	CPLW	500	1	blank2r.bmp	880	6	gierig	880	1	!	1293	1	!	-1	0	0	0	0	0	0
2024-05-23	09:45:05	09:53:22	492747	6.6.1	4_exp_EVA_AWA_CON	48	A	B	Rpleas_acq	Oppo	Rpleas	2pleas	acq_US_pleas_nomask	acq3_nomask	3	14	453	1	300	300	0	0	429	46	0	0	anregung	besonnen	kreativ	engagiert	träumen	gütig	ausrottung	bange	krank	engstirnig	töten	gierig	genießen	vertrauen	vergnügt	gesittet	sonnig	kuss	gemein	versagen	verbissen	geizig	sterben	krise	1	blank2r.bmp	0	1	+	0	1	blank2r.bmp	500	1	DHJF	500	1	blank2r.bmp	880	5	träumen	880	1	FEHLER	1623	1	!	1293	1	!	1330	0	0	0
2024-05-23	09:45:05	09:53:24	494819	6.6.1	4_exp_EVA_AWA_CON	48	A	B	Rpleas_acq	Oppo	Rpleas	2pleas	acq_US_unple_nomask	acq3_nomask	3	15	453	1	300	300	0	0	489	46	1	0	anregung	besonnen	kreativ	engagiert	träumen	gütig	ausrottung	bange	krank	engstirnig	töten	gierig	genießen	vertrauen	vergnügt	gesittet	sonnig	kuss	gemein	versagen	verbissen	geizig	sterben	krise	1	blank2r.bmp	0	1	+	0	1	blank2r.bmp	500	1	CPLW	500	1	blank2r.bmp	880	5	töten	880	1	!	1293	1	!	1392	0	0	0	0	0	0
2024-05-23	09:45:05	09:53:26	496992	6.6.1	4_exp_EVA_AWA_CON	48	A	B	Rpleas_acq	Oppo	Rpleas	2pleas	acq_US_pleas_nomask	acq3_nomask	3	16	453	1	300	300	0	0	394	50	1	0	anregung	besonnen	kreativ	engagiert	träumen	gütig	ausrottung	bange	krank	engstirnig	töten	gierig	genießen	vertrauen	vergnügt	gesittet	sonnig	kuss	gemein	versagen	verbissen	geizig	sterben	krise	1	blank2r.bmp	0	1	+	0	1	blank2r.bmp	500	1	DHJF	500	1	blank2r.bmp	880	3	kreativ	880	1	!	1293	1	!	1294	0	0	0	0	0	0
2024-05-23	09:45:05	09:53:28	499344	6.6.1	4_exp_EVA_AWA_CON	48	A	B	Rpleas_acq	Oppo	Rpleas	2pleas	acq_US_pleas_nomask	acq3_nomask	3	17	453	0	300	300	0	0	574	50	1	0	anregung	besonnen	kreativ	engagiert	träumen	gütig	ausrottung	bange	krank	engstirnig	töten	gierig	genießen	vertrauen	vergnügt	gesittet	sonnig	kuss	gemein	versagen	verbissen	geizig	sterben	krise	1	blank2r.bmp	0	1	+	0	1	blank2r.bmp	500	1	DHJF	500	1	blank2r.bmp	880	1	anregung	880	1	!	1293	1	!	-1	0	0	0	0	0	0
2024-05-23	09:45:05	09:53:30	501602	6.6.1	4_exp_EVA_AWA_CON	48	A	B	Rpleas_acq	Oppo	Rpleas	2pleas	acq_US_unple_nomask	acq3_nomask	3	18	453	1	300	300	0	0	479	46	1	0	anregung	besonnen	kreativ	engagiert	träumen	gütig	ausrottung	bange	krank	engstirnig	töten	gierig	genießen	vertrauen	vergnügt	gesittet	sonnig	kuss	gemein	versagen	verbissen	geizig	sterben	krise	1	blank2r.bmp	0	1	+	0	1	blank2r.bmp	500	1	CPLW	500	1	blank2r.bmp	880	3	krank	880	1	!	1292	1	!	1380	0	0	0	0	0	0
2024-05-23	09:45:05	09:53:33	503944	6.6.1	4_exp_EVA_AWA_CON	48	A	B	Rpleas_acq	Oppo	Rpleas	2pleas	acq_US_unple_nomask	acq3_nomask	3	19	453	0	300	300	0	0	562	46	1	0	anregung	besonnen	kreativ	engagiert	träumen	gütig	ausrottung	bange	krank	engstirnig	töten	gierig	genießen	vertrauen	vergnügt	gesittet	sonnig	kuss	gemein	versagen	verbissen	geizig	sterben	krise	1	blank2r.bmp	0	1	+	0	1	blank2r.bmp	500	1	CPLW	500	1	blank2r.bmp	880	1	ausrottung	880	1	!	1292	1	!	-1	0	0	0	0	0	0
2024-05-23	09:45:05	09:53:35	506242	6.6.1	4_exp_EVA_AWA_CON	48	A	B	Rpleas_acq	Oppo	Rpleas	2pleas	acq_US_unple_nomask	acq3_nomask	3	20	453	1	300	300	0	0	516	46	1	0	anregung	besonnen	kreativ	engagiert	träumen	gütig	ausrottung	bange	krank	engstirnig	töten	gierig	genießen	vertrauen	vergnügt	gesittet	sonnig	kuss	gemein	versagen	verbissen	geizig	sterben	krise	1	blank2r.bmp	0	1	+	0	1	blank2r.bmp	500	1	CPLW	500	1	blank2r.bmp	880	2	bange	880	1	!	1293	1	!	1418	0	0	0	0	0	0
2024-05-23	09:45:05	09:53:37	508683	6.6.1	4_exp_EVA_AWA_CON	48	A	B	Rpleas_acq	Oppo	Rpleas	2pleas	acq_US_pleas_nomask	acq3_nomask	3	21	453	1	300	300	0	0	465	46	0	0	anregung	besonnen	kreativ	engagiert	träumen	gütig	ausrottung	bange	krank	engstirnig	töten	gierig	genießen	vertrauen	vergnügt	gesittet	sonnig	kuss	gemein	versagen	verbissen	geizig	sterben	krise	1	blank2r.bmp	0	1	+	0	1	blank2r.bmp	500	1	DHJF	500	1	blank2r.bmp	880	2	besonnen	880	1	FEHLER	1658	1	!	1293	1	!	1366	0	0	0
2024-05-23	09:45:05	09:53:40	510970	6.6.1	4_exp_EVA_AWA_CON	48	A	B	Rpleas_acq	Oppo	Rpleas	2pleas	acq_US_pleas_nomask	acq3_nomask	3	22	453	1	300	300	0	0	511	46	0	0	anregung	besonnen	kreativ	engagiert	träumen	gütig	ausrottung	bange	krank	engstirnig	töten	gierig	genießen	vertrauen	vergnügt	gesittet	sonnig	kuss	gemein	versagen	verbissen	geizig	sterben	krise	1	blank2r.bmp	0	1	+	0	1	blank2r.bmp	500	1	DHJF	500	1	blank2r.bmp	880	6	gütig	880	1	FEHLER	1704	1	!	1292	1	!	1412	0	0	0
2024-05-23	09:45:05	09:53:42	513070	6.6.1	4_exp_EVA_AWA_CON	48	A	B	Rpleas_acq	Oppo	Rpleas	2pleas	acq_US_pleas_nomask	acq3_nomask	3	23	453	0	300	300	0	0	524	50	1	0	anregung	besonnen	kreativ	engagiert	träumen	gütig	ausrottung	bange	krank	engstirnig	töten	gierig	genießen	vertrauen	vergnügt	gesittet	sonnig	kuss	gemein	versagen	verbissen	geizig	sterben	krise	1	blank2r.bmp	0	1	+	0	1	blank2r.bmp	500	1	DHJF	500	1	blank2r.bmp	880	4	engagiert	880	1	!	1293	1	!	-1	0	0	0	0	0	0
2024-05-23	09:45:05	09:53:44	515448	6.6.1	4_exp_EVA_AWA_CON	48	A	B	Rpleas_acq	Oppo	Rpleas	2pleas	acq_US_unple_nomask	acq3_nomask	3	24	453	0	300	300	0	0	598	46	1	0	anregung	besonnen	kreativ	engagiert	träumen	gütig	ausrottung	bange	krank	engstirnig	töten	gierig	genießen	vertrauen	vergnügt	gesittet	sonnig	kuss	gemein	versagen	verbissen	geizig	sterben	krise	1	blank2r.bmp	0	1	+	0	1	blank2r.bmp	500	1	CPLW	500	1	blank2r.bmp	880	4	engstirnig	880	1	!	1293	1	!	-1	0	0	0	0	0	0
2024-05-23	09:45:05	09:53:47	517776	6.6.1	4_exp_EVA_AWA_CON	48	A	B	Rpleas_acq	Oppo	Rpleas	2pleas	acq_US_unple_nomask	acq3_nomask	3	25	453	0	300	300	0	0	555	46	1	0	anregung	besonnen	kreativ	engagiert	träumen	gütig	ausrottung	bange	krank	engstirnig	töten	gierig	genießen	vertrauen	vergnügt	gesittet	sonnig	kuss	gemein	versagen	verbissen	geizig	sterben	krise	1	blank2r.bmp	0	1	+	0	1	blank2r.bmp	500	1	CPLW	500	1	blank2r.bmp	880	2	bange	880	1	!	1292	1	!	-1	0	0	0	0	0	0
2024-05-23	09:45:05	09:53:49	519969	6.6.1	4_exp_EVA_AWA_CON	48	A	B	Rpleas_acq	Oppo	Rpleas	2pleas	acq_US_pleas_nomask	acq3_nomask	3	26	453	1	300	300	0	0	415	50	1	0	anregung	besonnen	kreativ	engagiert	träumen	gütig	ausrottung	bange	krank	engstirnig	töten	gierig	genießen	vertrauen	vergnügt	gesittet	sonnig	kuss	gemein	versagen	verbissen	geizig	sterben	krise	1	blank2r.bmp	0	1	+	0	1	blank2r.bmp	500	1	DHJF	500	1	blank2r.bmp	880	2	besonnen	880	1	!	1292	1	!	1317	0	0	0	0	0	0
2024-05-23	09:45:05	09:53:51	522217	6.6.1	4_exp_EVA_AWA_CON	48	A	B	Rpleas_acq	Oppo	Rpleas	2pleas	acq_US_unple_nomask	acq3_nomask	3	27	453	1	300	300	0	0	472	46	1	0	anregung	besonnen	kreativ	engagiert	träumen	gütig	ausrottung	bange	krank	engstirnig	töten	gierig	genießen	vertrauen	vergnügt	gesittet	sonnig	kuss	gemein	versagen	verbissen	geizig	sterben	krise	1	blank2r.bmp	0	1	+	0	1	blank2r.bmp	500	1	CPLW	500	1	blank2r.bmp	880	4	engstirnig	880	1	!	1293	1	!	1373	0	0	0	0	0	0
2024-05-23	09:45:05	09:53:53	524401	6.6.1	4_exp_EVA_AWA_CON	48	A	B	Rpleas_acq	Oppo	Rpleas	2pleas	acq_US_pleas_nomask	acq3_nomask	3	28	453	1	300	300	0	0	404	50	1	0	anregung	besonnen	kreativ	engagiert	träumen	gütig	ausrottung	bange	krank	engstirnig	töten	gierig	genießen	vertrauen	vergnügt	gesittet	sonnig	kuss	gemein	versagen	verbissen	geizig	sterben	krise	1	blank2r.bmp	0	1	+	0	1	blank2r.bmp	500	1	DHJF	500	1	blank2r.bmp	880	4	engagiert	880	1	!	1292	1	!	1306	0	0	0	0	0	0
2024-05-23	09:45:05	09:53:56	526689	6.6.1	4_exp_EVA_AWA_CON	48	A	B	Rpleas_acq	Oppo	Rpleas	2pleas	acq_US_unple_nomask	acq3_nomask	3	29	453	1	300	300	0	0	511	46	1	0	anregung	besonnen	kreativ	engagiert	träumen	gütig	ausrottung	bange	krank	engstirnig	töten	gierig	genießen	vertrauen	vergnügt	gesittet	sonnig	kuss	gemein	versagen	verbissen	geizig	sterben	krise	1	blank2r.bmp	0	1	+	0	1	blank2r.bmp	500	1	CPLW	500	1	blank2r.bmp	880	3	krank	880	1	!	1292	1	!	1412	0	0	0	0	0	0
2024-05-23	09:45:05	09:53:58	529016	6.6.1	4_exp_EVA_AWA_CON	48	A	B	Rpleas_acq	Oppo	Rpleas	2pleas	acq_US_pleas_nomask	acq3_nomask	3	30	453	0	300	300	0	0	547	50	1	0	anregung	besonnen	kreativ	engagiert	träumen	gütig	ausrottung	bange	krank	engstirnig	töten	gierig	genießen	vertrauen	vergnügt	gesittet	sonnig	kuss	gemein	versagen	verbissen	geizig	sterben	krise	1	blank2r.bmp	0	1	+	0	1	blank2r.bmp	500	1	DHJF	500	1	blank2r.bmp	880	5	träumen	880	1	!	1293	1	!	-1	0	0	0	0	0	0
2024-05-23	09:45:05	09:54:00	531210	6.6.1	4_exp_EVA_AWA_CON	48	A	B	Rpleas_acq	Oppo	Rpleas	2pleas	acq_US_unple_nomask	acq3_nomask	3	31	453	1	300	300	0	0	418	46	1	0	anregung	besonnen	kreativ	engagiert	träumen	gütig	ausrottung	bange	krank	engstirnig	töten	gierig	genießen	vertrauen	vergnügt	gesittet	sonnig	kuss	gemein	versagen	verbissen	geizig	sterben	krise	1	blank2r.bmp	0	1	+	0	1	blank2r.bmp	500	1	CPLW	500	1	blank2r.bmp	880	6	gierig	880	1	!	1293	1	!	1319	0	0	0	0	0	0
2024-05-23	09:45:05	09:54:02	533518	6.6.1	4_exp_EVA_AWA_CON	48	A	B	Rpleas_acq	Oppo	Rpleas	2pleas	acq_US_unple_nomask	acq3_nomask	3	32	453	0	300	300	0	0	528	46	1	0	anregung	besonnen	kreativ	engagiert	träumen	gütig	ausrottung	bange	krank	engstirnig	töten	gierig	genießen	vertrauen	vergnügt	gesittet	sonnig	kuss	gemein	versagen	verbissen	geizig	sterben	krise	1	blank2r.bmp	0	1	+	0	1	blank2r.bmp	500	1	CPLW	500	1	blank2r.bmp	880	5	töten	880	1	!	1293	1	!	-1	0	0	0	0	0	0
2024-05-23	09:45:05	09:54:05	535801	6.6.1	4_exp_EVA_AWA_CON	48	A	B	Rpleas_acq	Oppo	Rpleas	2pleas	acq_US_pleas_nomask	acq3_nomask	3	33	453	1	300	300	0	0	507	50	1	0	anregung	besonnen	kreativ	engagiert	träumen	gütig	ausrottung	bange	krank	engstirnig	töten	gierig	genießen	vertrauen	vergnügt	gesittet	sonnig	kuss	gemein	versagen	verbissen	geizig	sterben	krise	1	blank2r.bmp	0	1	+	0	1	blank2r.bmp	500	1	DHJF	500	1	blank2r.bmp	880	1	anregung	880	1	!	1293	1	!	1409	0	0	0	0	0	0
2024-05-23	09:45:05	09:54:07	538102	6.6.1	4_exp_EVA_AWA_CON	48	A	B	Rpleas_acq	Oppo	Rpleas	2pleas	acq_US_pleas_nomask	acq3_nomask	3	34	453	0	300	300	0	0	530	50	1	0	anregung	besonnen	kreativ	engagiert	träumen	gütig	ausrottung	bange	krank	engstirnig	töten	gierig	genießen	vertrauen	vergnügt	gesittet	sonnig	kuss	gemein	versagen	verbissen	geizig	sterben	krise	1	blank2r.bmp	0	1	+	0	1	blank2r.bmp	500	1	DHJF	500	1	blank2r.bmp	880	6	gütig	880	1	!	1293	1	!	-1	0	0	0	0	0	0
2024-05-23	09:45:05	09:54:09	540361	6.6.1	4_exp_EVA_AWA_CON	48	A	B	Rpleas_acq	Oppo	Rpleas	2pleas	acq_US_pleas_nomask	acq3_nomask	3	35	453	1	300	300	0	0	484	50	1	0	anregung	besonnen	kreativ	engagiert	träumen	gütig	ausrottung	bange	krank	engstirnig	töten	gierig	genießen	vertrauen	vergnügt	gesittet	sonnig	kuss	gemein	versagen	verbissen	geizig	sterben	krise	1	blank2r.bmp	0	1	+	0	1	blank2r.bmp	500	1	DHJF	500	1	blank2r.bmp	880	3	kreativ	880	1	!	1293	1	!	1386	0	0	0	0	0	0
2024-05-23	09:45:05	09:54:11	542633	6.6.1	4_exp_EVA_AWA_CON	48	A	B	Rpleas_acq	Oppo	Rpleas	2pleas	acq_US_unple_nomask	acq3_nomask	3	36	453	1	300	300	0	0	495	46	1	0	anregung	besonnen	kreativ	engagiert	träumen	gütig	ausrottung	bange	krank	engstirnig	töten	gierig	genießen	vertrauen	vergnügt	gesittet	sonnig	kuss	gemein	versagen	verbissen	geizig	sterben	krise	1	blank2r.bmp	0	1	+	0	1	blank2r.bmp	500	1	CPLW	500	1	blank2r.bmp	880	1	ausrottung	880	1	!	1292	1	!	1396	0	0	0	0	0	0
2024-05-23	09:45:05	09:54:39	570351	6.6.1	4_exp_EVA_AWA_CON	48	A	B	Rpleas_acq	Oppo	Rpleas	2pleas	acq_US_unple_nomask	acq45_nomask	4	1	400	0	300	300	0	0	557	46	1	0	anregung	besonnen	kreativ	engagiert	träumen	gütig	ausrottung	bange	krank	engstirnig	töten	gierig	genießen	vertrauen	vergnügt	gesittet	sonnig	kuss	gemein	versagen	verbissen	geizig	sterben	krise	1	blank2r.bmp	0	1	+	0	1	blank2r.bmp	500	1	CPLW	500	1	blank2r.bmp	880	1	ausrottung	880	1	!	1233	1	!	-1	0	0	0	0	0	0
2024-05-23	09:45:05	09:54:41	572569	6.6.1	4_exp_EVA_AWA_CON	48	A	B	Rpleas_acq	Oppo	Rpleas	2pleas	acq_US_pleas_nomask	acq45_nomask	4	2	400	1	300	300	0	0	441	50	1	0	anregung	besonnen	kreativ	engagiert	träumen	gütig	ausrottung	bange	krank	engstirnig	töten	gierig	genießen	vertrauen	vergnügt	gesittet	sonnig	kuss	gemein	versagen	verbissen	geizig	sterben	krise	1	blank2r.bmp	0	1	+	0	1	blank2r.bmp	500	1	DHJF	500	1	blank2r.bmp	880	2	besonnen	880	1	!	1233	1	!	1343	0	0	0	0	0	0
2024-05-23	09:45:05	09:54:44	574848	6.6.1	4_exp_EVA_AWA_CON	48	A	B	Rpleas_acq	Oppo	Rpleas	2pleas	acq_US_unple_nomask	acq45_nomask	4	3	400	0	300	300	0	0	500	46	1	0	anregung	besonnen	kreativ	engagiert	träumen	gütig	ausrottung	bange	krank	engstirnig	töten	gierig	genießen	vertrauen	vergnügt	gesittet	sonnig	kuss	gemein	versagen	verbissen	geizig	sterben	krise	1	blank2r.bmp	0	1	+	0	1	blank2r.bmp	500	1	CPLW	500	1	blank2r.bmp	880	3	krank	880	1	!	1232	1	!	-1	0	0	0	0	0	0
2024-05-23	09:45:05	09:54:46	577110	6.6.1	4_exp_EVA_AWA_CON	48	A	B	Rpleas_acq	Oppo	Rpleas	2pleas	acq_US_unple_nomask	acq45_nomask	4	4	400	0	300	300	0	0	482	50	0	0	anregung	besonnen	kreativ	engagiert	träumen	gütig	ausrottung	bange	krank	engstirnig	töten	gierig	genießen	vertrauen	vergnügt	gesittet	sonnig	kuss	gemein	versagen	verbissen	geizig	sterben	krise	1	blank2r.bmp	0	1	+	0	1	blank2r.bmp	500	1	CPLW	500	1	blank2r.bmp	880	4	engstirnig	880	1	!	1232	1	!	-1	0	0	0	0	0	0
2024-05-23	09:45:05	09:54:48	579376	6.6.1	4_exp_EVA_AWA_CON	48	A	B	Rpleas_acq	Oppo	Rpleas	2pleas	acq_US_unple_nomask	acq45_nomask	4	5	400	0	300	300	0	0	485	46	1	0	anregung	besonnen	kreativ	engagiert	träumen	gütig	ausrottung	bange	krank	engstirnig	töten	gierig	genießen	vertrauen	vergnügt	gesittet	sonnig	kuss	gemein	versagen	verbissen	geizig	sterben	krise	1	blank2r.bmp	0	1	+	0	1	blank2r.bmp	500	1	CPLW	500	1	blank2r.bmp	880	2	bange	880	1	!	1232	1	!	-1	0	0	0	0	0	0
2024-05-23	09:45:05	09:54:51	581832	6.6.1	4_exp_EVA_AWA_CON	48	A	B	Rpleas_acq	Oppo	Rpleas	2pleas	acq_US_pleas_nomask	acq45_nomask	4	6	400	0	300	300	0	0	680	50	1	0	anregung	besonnen	kreativ	engagiert	träumen	gütig	ausrottung	bange	krank	engstirnig	töten	gierig	genießen	vertrauen	vergnügt	gesittet	sonnig	kuss	gemein	versagen	verbissen	geizig	sterben	krise	1	blank2r.bmp	0	1	+	0	1	blank2r.bmp	500	1	DHJF	500	1	blank2r.bmp	880	4	engagiert	880	1	!	1232	1	!	-1	0	0	0	0	0	0
2024-05-23	09:45:05	09:54:53	584280	6.6.1	4_exp_EVA_AWA_CON	48	A	B	Rpleas_acq	Oppo	Rpleas	2pleas	acq_US_pleas_nomask	acq45_nomask	4	7	400	0	300	300	0	0	666	50	1	0	anregung	besonnen	kreativ	engagiert	träumen	gütig	ausrottung	bange	krank	engstirnig	töten	gierig	genießen	vertrauen	vergnügt	gesittet	sonnig	kuss	gemein	versagen	verbissen	geizig	sterben	krise	1	blank2r.bmp	0	1	+	0	1	blank2r.bmp	500	1	DHJF	500	1	blank2r.bmp	880	3	kreativ	880	1	!	1232	1	!	-1	0	0	0	0	0	0
2024-05-23	09:45:05	09:54:55	586433	6.6.1	4_exp_EVA_AWA_CON	48	A	B	Rpleas_acq	Oppo	Rpleas	2pleas	acq_US_pleas_nomask	acq45_nomask	4	8	400	1	300	300	0	0	376	46	0	0	anregung	besonnen	kreativ	engagiert	träumen	gütig	ausrottung	bange	krank	engstirnig	töten	gierig	genießen	vertrauen	vergnügt	gesittet	sonnig	kuss	gemein	versagen	verbissen	geizig	sterben	krise	1	blank2r.bmp	0	1	+	0	1	blank2r.bmp	500	1	DHJF	500	1	blank2r.bmp	880	5	träumen	880	1	!	1232	1	!	1278	0	0	0	0	0	0
2024-05-23	09:45:05	09:54:58	588712	6.6.1	4_exp_EVA_AWA_CON	48	A	B	Rpleas_acq	Oppo	Rpleas	2pleas	acq_US_unple_nomask	acq45_nomask	4	9	400	0	300	300	0	0	505	46	1	0	anregung	besonnen	kreativ	engagiert	träumen	gütig	ausrottung	bange	krank	engstirnig	töten	gierig	genießen	vertrauen	vergnügt	gesittet	sonnig	kuss	gemein	versagen	verbissen	geizig	sterben	krise	1	blank2r.bmp	0	1	+	0	1	blank2r.bmp	500	1	CPLW	500	1	blank2r.bmp	880	6	gierig	880	1	!	1232	1	!	-1	0	0	0	0	0	0
2024-05-23	09:45:05	09:55:00	591056	6.6.1	4_exp_EVA_AWA_CON	48	A	B	Rpleas_acq	Oppo	Rpleas	2pleas	acq_US_pleas_nomask	acq45_nomask	4	10	400	0	300	300	0	0	568	50	1	0	anregung	besonnen	kreativ	engagiert	träumen	gütig	ausrottung	bange	krank	engstirnig	töten	gierig	genießen	vertrauen	vergnügt	gesittet	sonnig	kuss	gemein	versagen	verbissen	geizig	sterben	krise	1	blank2r.bmp	0	1	+	0	1	blank2r.bmp	500	1	DHJF	500	1	blank2r.bmp	880	1	anregung	880	1	!	1233	1	!	-1	0	0	0	0	0	0
2024-05-23	09:45:05	09:55:02	593432	6.6.1	4_exp_EVA_AWA_CON	48	A	B	Rpleas_acq	Oppo	Rpleas	2pleas	acq_US_pleas_nomask	acq45_nomask	4	11	400	0	300	300	0	0	602	46	0	0	anregung	besonnen	kreativ	engagiert	träumen	gütig	ausrottung	bange	krank	engstirnig	töten	gierig	genießen	vertrauen	vergnügt	gesittet	sonnig	kuss	gemein	versagen	verbissen	geizig	sterben	krise	1	blank2r.bmp	0	1	+	0	1	blank2r.bmp	500	1	DHJF	500	1	blank2r.bmp	880	6	gütig	880	1	!	1232	1	!	-1	0	0	0	0	0	0
2024-05-23	09:45:05	09:55:05	595720	6.6.1	4_exp_EVA_AWA_CON	48	A	B	Rpleas_acq	Oppo	Rpleas	2pleas	acq_US_unple_nomask	acq45_nomask	4	12	400	0	300	300	0	0	508	46	1	0	anregung	besonnen	kreativ	engagiert	träumen	gütig	ausrottung	bange	krank	engstirnig	töten	gierig	genießen	vertrauen	vergnügt	gesittet	sonnig	kuss	gemein	versagen	verbissen	geizig	sterben	krise	1	blank2r.bmp	0	1	+	0	1	blank2r.bmp	500	1	CPLW	500	1	blank2r.bmp	880	5	töten	880	1	!	1232	1	!	-1	0	0	0	0	0	0
2024-05-23	09:45:05	09:55:07	598064	6.6.1	4_exp_EVA_AWA_CON	48	A	B	Rpleas_acq	Oppo	Rpleas	2pleas	acq_US_pleas_nomask	acq45_nomask	4	13	400	0	300	300	0	0	561	50	1	0	anregung	besonnen	kreativ	engagiert	träumen	gütig	ausrottung	bange	krank	engstirnig	töten	gierig	genießen	vertrauen	vergnügt	gesittet	sonnig	kuss	gemein	versagen	verbissen	geizig	sterben	krise	1	blank2r.bmp	0	1	+	0	1	blank2r.bmp	500	1	DHJF	500	1	blank2r.bmp	880	1	anregung	880	1	!	1232	1	!	-1	0	0	0	0	0	0
2024-05-23	09:45:05	09:55:09	600306	6.6.1	4_exp_EVA_AWA_CON	48	A	B	Rpleas_acq	Oppo	Rpleas	2pleas	acq_US_pleas_nomask	acq45_nomask	4	14	400	1	300	300	0	0	459	50	1	0	anregung	besonnen	kreativ	engagiert	träumen	gütig	ausrottung	bange	krank	engstirnig	töten	gierig	genießen	vertrauen	vergnügt	gesittet	sonnig	kuss	gemein	versagen	verbissen	geizig	sterben	krise	1	blank2r.bmp	0	1	+	0	1	blank2r.bmp	500	1	DHJF	500	1	blank2r.bmp	880	2	besonnen	880	1	!	1232	1	!	1362	0	0	0	0	0	0
2024-05-23	09:45:05	09:55:11	602608	6.6.1	4_exp_EVA_AWA_CON	48	A	B	Rpleas_acq	Oppo	Rpleas	2pleas	acq_US_unple_nomask	acq45_nomask	4	15	400	0	300	300	0	0	522	46	1	0	anregung	besonnen	kreativ	engagiert	träumen	gütig	ausrottung	bange	krank	engstirnig	töten	gierig	genießen	vertrauen	vergnügt	gesittet	sonnig	kuss	gemein	versagen	verbissen	geizig	sterben	krise	1	blank2r.bmp	0	1	+	0	1	blank2r.bmp	500	1	CPLW	500	1	blank2r.bmp	880	4	engstirnig	880	1	!	1232	1	!	-1	0	0	0	0	0	0
2024-05-23	09:45:05	09:55:14	604983	6.6.1	4_exp_EVA_AWA_CON	48	A	B	Rpleas_acq	Oppo	Rpleas	2pleas	acq_US_pleas_nomask	acq45_nomask	4	16	400	0	300	300	0	0	597	50	1	0	anregung	besonnen	kreativ	engagiert	träumen	gütig	ausrottung	bange	krank	engstirnig	töten	gierig	genießen	vertrauen	vergnügt	gesittet	sonnig	kuss	gemein	versagen	verbissen	geizig	sterben	krise	1	blank2r.bmp	0	1	+	0	1	blank2r.bmp	500	1	DHJF	500	1	blank2r.bmp	880	6	gütig	880	1	!	1232	1	!	-1	0	0	0	0	0	0
2024-05-23	09:45:05	09:55:16	607185	6.6.1	4_exp_EVA_AWA_CON	48	A	B	Rpleas_acq	Oppo	Rpleas	2pleas	acq_US_unple_nomask	acq45_nomask	4	17	400	1	300	300	0	0	425	46	1	0	anregung	besonnen	kreativ	engagiert	träumen	gütig	ausrottung	bange	krank	engstirnig	töten	gierig	genießen	vertrauen	vergnügt	gesittet	sonnig	kuss	gemein	versagen	verbissen	geizig	sterben	krise	1	blank2r.bmp	0	1	+	0	1	blank2r.bmp	500	1	CPLW	500	1	blank2r.bmp	880	5	töten	880	1	!	1232	1	!	1327	0	0	0	0	0	0
2024-05-23	09:45:05	09:55:18	609536	6.6.1	4_exp_EVA_AWA_CON	48	A	B	Rpleas_acq	Oppo	Rpleas	2pleas	acq_US_unple_nomask	acq45_nomask	4	18	400	0	300	300	0	0	576	46	1	0	anregung	besonnen	kreativ	engagiert	träumen	gütig	ausrottung	bange	krank	engstirnig	töten	gierig	genießen	vertrauen	vergnügt	gesittet	sonnig	kuss	gemein	versagen	verbissen	geizig	sterben	krise	1	blank2r.bmp	0	1	+	0	1	blank2r.bmp	500	1	CPLW	500	1	blank2r.bmp	880	1	ausrottung	880	1	!	1233	1	!	-1	0	0	0	0	0	0
2024-05-23	09:45:05	09:55:21	611920	6.6.1	4_exp_EVA_AWA_CON	48	A	B	Rpleas_acq	Oppo	Rpleas	2pleas	acq_US_unple_nomask	acq45_nomask	4	19	400	0	300	300	0	0	608	46	1	0	anregung	besonnen	kreativ	engagiert	träumen	gütig	ausrottung	bange	krank	engstirnig	töten	gierig	genießen	vertrauen	vergnügt	gesittet	sonnig	kuss	gemein	versagen	verbissen	geizig	sterben	krise	1	blank2r.bmp	0	1	+	0	1	blank2r.bmp	500	1	CPLW	500	1	blank2r.bmp	880	6	gierig	880	1	!	1232	1	!	-1	0	0	0	0	0	0
2024-05-23	09:45:05	09:55:23	614146	6.6.1	4_exp_EVA_AWA_CON	48	A	B	Rpleas_acq	Oppo	Rpleas	2pleas	acq_US_pleas_nomask	acq45_nomask	4	20	400	1	300	300	0	0	451	50	1	0	anregung	besonnen	kreativ	engagiert	träumen	gütig	ausrottung	bange	krank	engstirnig	töten	gierig	genießen	vertrauen	vergnügt	gesittet	sonnig	kuss	gemein	versagen	verbissen	geizig	sterben	krise	1	blank2r.bmp	0	1	+	0	1	blank2r.bmp	500	1	DHJF	500	1	blank2r.bmp	880	4	engagiert	880	1	!	1233	1	!	1352	0	0	0	0	0	0
2024-05-23	09:45:05	09:55:25	616424	6.6.1	4_exp_EVA_AWA_CON	48	A	B	Rpleas_acq	Oppo	Rpleas	2pleas	acq_US_unple_nomask	acq45_nomask	4	21	400	0	300	300	0	0	499	46	1	0	anregung	besonnen	kreativ	engagiert	träumen	gütig	ausrottung	bange	krank	engstirnig	töten	gierig	genießen	vertrauen	vergnügt	gesittet	sonnig	kuss	gemein	versagen	verbissen	geizig	sterben	krise	1	blank2r.bmp	0	1	+	0	1	blank2r.bmp	500	1	CPLW	500	1	blank2r.bmp	880	3	krank	880	1	!	1232	1	!	-1	0	0	0	0	0	0
2024-05-23	09:45:05	09:55:27	618658	6.6.1	4_exp_EVA_AWA_CON	48	A	B	Rpleas_acq	Oppo	Rpleas	2pleas	acq_US_pleas_nomask	acq45_nomask	4	22	400	1	300	300	0	0	450	50	1	0	anregung	besonnen	kreativ	engagiert	träumen	gütig	ausrottung	bange	krank	engstirnig	töten	gierig	genießen	vertrauen	vergnügt	gesittet	sonnig	kuss	gemein	versagen	verbissen	geizig	sterben	krise	1	blank2r.bmp	0	1	+	0	1	blank2r.bmp	500	1	DHJF	500	1	blank2r.bmp	880	5	träumen	880	1	!	1232	1	!	1352	0	0	0	0	0	0
2024-05-23	09:45:05	09:55:30	620944	6.6.1	4_exp_EVA_AWA_CON	48	A	B	Rpleas_acq	Oppo	Rpleas	2pleas	acq_US_unple_nomask	acq45_nomask	4	23	400	0	300	300	0	0	506	46	1	0	anregung	besonnen	kreativ	engagiert	träumen	gütig	ausrottung	bange	krank	engstirnig	töten	gierig	genießen	vertrauen	vergnügt	gesittet	sonnig	kuss	gemein	versagen	verbissen	geizig	sterben	krise	1	blank2r.bmp	0	1	+	0	1	blank2r.bmp	500	1	CPLW	500	1	blank2r.bmp	880	2	bange	880	1	!	1233	1	!	-1	0	0	0	0	0	0
2024-05-23	09:45:05	09:55:32	623215	6.6.1	4_exp_EVA_AWA_CON	48	A	B	Rpleas_acq	Oppo	Rpleas	2pleas	acq_US_pleas_nomask	acq45_nomask	4	24	400	0	300	300	0	0	497	50	1	0	anregung	besonnen	kreativ	engagiert	träumen	gütig	ausrottung	bange	krank	engstirnig	töten	gierig	genießen	vertrauen	vergnügt	gesittet	sonnig	kuss	gemein	versagen	verbissen	geizig	sterben	krise	1	blank2r.bmp	0	1	+	0	1	blank2r.bmp	500	1	DHJF	500	1	blank2r.bmp	880	3	kreativ	880	1	!	1232	1	!	-1	0	0	0	0	0	0
2024-05-23	09:45:05	09:55:34	625409	6.6.1	4_exp_EVA_AWA_CON	48	A	B	Rpleas_acq	Oppo	Rpleas	2pleas	acq_US_unple_nomask	acq45_nomask	4	25	400	1	300	300	0	0	417	46	1	0	anregung	besonnen	kreativ	engagiert	träumen	gütig	ausrottung	bange	krank	engstirnig	töten	gierig	genießen	vertrauen	vergnügt	gesittet	sonnig	kuss	gemein	versagen	verbissen	geizig	sterben	krise	1	blank2r.bmp	0	1	+	0	1	blank2r.bmp	500	1	CPLW	500	1	blank2r.bmp	880	4	engstirnig	880	1	!	1232	1	!	1319	0	0	0	0	0	0
2024-05-23	09:45:05	09:55:36	627663	6.6.1	4_exp_EVA_AWA_CON	48	A	B	Rpleas_acq	Oppo	Rpleas	2pleas	acq_US_unple_nomask	acq45_nomask	4	26	400	0	300	300	0	0	473	46	1	0	anregung	besonnen	kreativ	engagiert	träumen	gütig	ausrottung	bange	krank	engstirnig	töten	gierig	genießen	vertrauen	vergnügt	gesittet	sonnig	kuss	gemein	versagen	verbissen	geizig	sterben	krise	1	blank2r.bmp	0	1	+	0	1	blank2r.bmp	500	1	CPLW	500	1	blank2r.bmp	880	1	ausrottung	880	1	!	1232	1	!	-1	0	0	0	0	0	0
2024-05-23	09:45:05	09:55:39	630007	6.6.1	4_exp_EVA_AWA_CON	48	A	B	Rpleas_acq	Oppo	Rpleas	2pleas	acq_US_pleas_nomask	acq45_nomask	4	27	400	0	300	300	0	0	564	50	1	0	anregung	besonnen	kreativ	engagiert	träumen	gütig	ausrottung	bange	krank	engstirnig	töten	gierig	genießen	vertrauen	vergnügt	gesittet	sonnig	kuss	gemein	versagen	verbissen	geizig	sterben	krise	1	blank2r.bmp	0	1	+	0	1	blank2r.bmp	500	1	DHJF	500	1	blank2r.bmp	880	4	engagiert	880	1	!	1232	1	!	-1	0	0	0	0	0	0
2024-05-23	09:45:05	09:55:41	632527	6.6.1	4_exp_EVA_AWA_CON	48	A	B	Rpleas_acq	Oppo	Rpleas	2pleas	acq_US_pleas_nomask	acq45_nomask	4	28	400	0	300	300	0	0	743	50	1	0	anregung	besonnen	kreativ	engagiert	träumen	gütig	ausrottung	bange	krank	engstirnig	töten	gierig	genießen	vertrauen	vergnügt	gesittet	sonnig	kuss	gemein	versagen	verbissen	geizig	sterben	krise	1	blank2r.bmp	0	1	+	0	1	blank2r.bmp	500	1	DHJF	500	1	blank2r.bmp	880	1	anregung	880	1	!	1232	1	!	-1	0	0	0	0	0	0
2024-05-23	09:45:05	09:55:44	634872	6.6.1	4_exp_EVA_AWA_CON	48	A	B	Rpleas_acq	Oppo	Rpleas	2pleas	acq_US_pleas_nomask	acq45_nomask	4	29	400	0	300	300	0	0	565	46	0	0	anregung	besonnen	kreativ	engagiert	träumen	gütig	ausrottung	bange	krank	engstirnig	töten	gierig	genießen	vertrauen	vergnügt	gesittet	sonnig	kuss	gemein	versagen	verbissen	geizig	sterben	krise	1	blank2r.bmp	0	1	+	0	1	blank2r.bmp	500	1	DHJF	500	1	blank2r.bmp	880	6	gütig	880	1	!	1232	1	!	-1	0	0	0	0	0	0
2024-05-23	09:45:05	09:55:46	637136	6.6.1	4_exp_EVA_AWA_CON	48	A	B	Rpleas_acq	Oppo	Rpleas	2pleas	acq_US_pleas_nomask	acq45_nomask	4	30	400	0	300	300	0	0	488	50	1	0	anregung	besonnen	kreativ	engagiert	träumen	gütig	ausrottung	bange	krank	engstirnig	töten	gierig	genießen	vertrauen	vergnügt	gesittet	sonnig	kuss	gemein	versagen	verbissen	geizig	sterben	krise	1	blank2r.bmp	0	1	+	0	1	blank2r.bmp	500	1	DHJF	500	1	blank2r.bmp	880	5	träumen	880	1	!	1232	1	!	-1	0	0	0	0	0	0
2024-05-23	09:45:05	09:55:48	639408	6.6.1	4_exp_EVA_AWA_CON	48	A	B	Rpleas_acq	Oppo	Rpleas	2pleas	acq_US_unple_nomask	acq45_nomask	4	31	400	0	300	300	0	0	498	50	0	0	anregung	besonnen	kreativ	engagiert	träumen	gütig	ausrottung	bange	krank	engstirnig	töten	gierig	genießen	vertrauen	vergnügt	gesittet	sonnig	kuss	gemein	versagen	verbissen	geizig	sterben	krise	1	blank2r.bmp	0	1	+	0	1	blank2r.bmp	500	1	CPLW	500	1	blank2r.bmp	880	5	töten	880	1	!	1232	1	!	-1	0	0	0	0	0	0
2024-05-23	09:45:05	09:55:51	641767	6.6.1	4_exp_EVA_AWA_CON	48	A	B	Rpleas_acq	Oppo	Rpleas	2pleas	acq_US_unple_nomask	acq45_nomask	4	32	400	0	300	300	0	0	587	46	1	0	anregung	besonnen	kreativ	engagiert	träumen	gütig	ausrottung	bange	krank	engstirnig	töten	gierig	genießen	vertrauen	vergnügt	gesittet	sonnig	kuss	gemein	versagen	verbissen	geizig	sterben	krise	1	blank2r.bmp	0	1	+	0	1	blank2r.bmp	500	1	CPLW	500	1	blank2r.bmp	880	6	gierig	880	1	!	1232	1	!	-1	0	0	0	0	0	0
2024-05-23	09:45:05	09:55:53	643937	6.6.1	4_exp_EVA_AWA_CON	48	A	B	Rpleas_acq	Oppo	Rpleas	2pleas	acq_US_pleas_nomask	acq45_nomask	4	33	400	1	300	300	0	0	393	50	1	0	anregung	besonnen	kreativ	engagiert	träumen	gütig	ausrottung	bange	krank	engstirnig	töten	gierig	genießen	vertrauen	vergnügt	gesittet	sonnig	kuss	gemein	versagen	verbissen	geizig	sterben	krise	1	blank2r.bmp	0	1	+	0	1	blank2r.bmp	500	1	DHJF	500	1	blank2r.bmp	880	2	besonnen	880	1	!	1232	1	!	1295	0	0	0	0	0	0
2024-05-23	09:45:05	09:55:55	646239	6.6.1	4_exp_EVA_AWA_CON	48	A	B	Rpleas_acq	Oppo	Rpleas	2pleas	acq_US_unple_nomask	acq45_nomask	4	34	400	0	300	300	0	0	526	46	1	0	anregung	besonnen	kreativ	engagiert	träumen	gütig	ausrottung	bange	krank	engstirnig	töten	gierig	genießen	vertrauen	vergnügt	gesittet	sonnig	kuss	gemein	versagen	verbissen	geizig	sterben	krise	1	blank2r.bmp	0	1	+	0	1	blank2r.bmp	500	1	CPLW	500	1	blank2r.bmp	880	3	krank	880	1	!	1232	1	!	-1	0	0	0	0	0	0
2024-05-23	09:45:05	09:55:57	648457	6.6.1	4_exp_EVA_AWA_CON	48	A	B	Rpleas_acq	Oppo	Rpleas	2pleas	acq_US_pleas_nomask	acq45_nomask	4	35	400	1	300	300	0	0	441	50	1	0	anregung	besonnen	kreativ	engagiert	träumen	gütig	ausrottung	bange	krank	engstirnig	töten	gierig	genießen	vertrauen	vergnügt	gesittet	sonnig	kuss	gemein	versagen	verbissen	geizig	sterben	krise	1	blank2r.bmp	0	1	+	0	1	blank2r.bmp	500	1	DHJF	500	1	blank2r.bmp	880	3	kreativ	880	1	!	1232	1	!	1342	0	0	0	0	0	0
2024-05-23	09:45:05	09:56:00	650698	6.6.1	4_exp_EVA_AWA_CON	48	A	B	Rpleas_acq	Oppo	Rpleas	2pleas	acq_US_unple_nomask	acq45_nomask	4	36	400	1	300	300	0	0	459	46	1	0	anregung	besonnen	kreativ	engagiert	träumen	gütig	ausrottung	bange	krank	engstirnig	töten	gierig	genießen	vertrauen	vergnügt	gesittet	sonnig	kuss	gemein	versagen	verbissen	geizig	sterben	krise	1	blank2r.bmp	0	1	+	0	1	blank2r.bmp	500	1	CPLW	500	1	blank2r.bmp	880	2	bange	880	1	!	1233	1	!	1361	0	0	0	0	0	0
2024-05-23	09:45:05	09:56:19	669848	6.6.1	4_exp_EVA_AWA_CON	48	A	B	Rpleas_acq	Oppo	Rpleas	2pleas	acq_US_pleas_nomask	acq45_nomask	5	1	400	0	300	300	0	0	699	46	0	0	anregung	besonnen	kreativ	engagiert	träumen	gütig	ausrottung	bange	krank	engstirnig	töten	gierig	genießen	vertrauen	vergnügt	gesittet	sonnig	kuss	gemein	versagen	verbissen	geizig	sterben	krise	1	blank2r.bmp	0	1	+	0	1	blank2r.bmp	500	1	DHJF	500	1	blank2r.bmp	880	6	gütig	880	1	!	1233	1	!	-1	0	0	0	0	0	0
2024-05-23	09:45:05	09:56:21	672160	6.6.1	4_exp_EVA_AWA_CON	48	A	B	Rpleas_acq	Oppo	Rpleas	2pleas	acq_US_unple_nomask	acq45_nomask	5	2	400	0	300	300	0	0	529	46	1	0	anregung	besonnen	kreativ	engagiert	träumen	gütig	ausrottung	bange	krank	engstirnig	töten	gierig	genießen	vertrauen	vergnügt	gesittet	sonnig	kuss	gemein	versagen	verbissen	geizig	sterben	krise	1	blank2r.bmp	0	1	+	0	1	blank2r.bmp	500	1	CPLW	500	1	blank2r.bmp	880	5	töten	880	1	!	1232	1	!	-1	0	0	0	0	0	0
2024-05-23	09:45:05	09:56:23	674345	6.6.1	4_exp_EVA_AWA_CON	48	A	B	Rpleas_acq	Oppo	Rpleas	2pleas	acq_US_pleas_nomask	acq45_nomask	5	3	400	1	300	300	0	0	402	50	1	0	anregung	besonnen	kreativ	engagiert	träumen	gütig	ausrottung	bange	krank	engstirnig	töten	gierig	genießen	vertrauen	vergnügt	gesittet	sonnig	kuss	gemein	versagen	verbissen	geizig	sterben	krise	1	blank2r.bmp	0	1	+	0	1	blank2r.bmp	500	1	DHJF	500	1	blank2r.bmp	880	4	engagiert	880	1	!	1232	1	!	1304	0	0	0	0	0	0
2024-05-23	09:45:05	09:56:25	676672	6.6.1	4_exp_EVA_AWA_CON	48	A	B	Rpleas_acq	Oppo	Rpleas	2pleas	acq_US_pleas_nomask	acq45_nomask	5	4	400	0	300	300	0	0	549	50	1	0	anregung	besonnen	kreativ	engagiert	träumen	gütig	ausrottung	bange	krank	engstirnig	töten	gierig	genießen	vertrauen	vergnügt	gesittet	sonnig	kuss	gemein	versagen	verbissen	geizig	sterben	krise	1	blank2r.bmp	0	1	+	0	1	blank2r.bmp	500	1	DHJF	500	1	blank2r.bmp	880	5	träumen	880	1	!	1232	1	!	-1	0	0	0	0	0	0
2024-05-23	09:45:05	09:56:28	678857	6.6.1	4_exp_EVA_AWA_CON	48	A	B	Rpleas_acq	Oppo	Rpleas	2pleas	acq_US_unple_nomask	acq45_nomask	5	5	400	1	300	300	0	0	411	46	1	0	anregung	besonnen	kreativ	engagiert	träumen	gütig	ausrottung	bange	krank	engstirnig	töten	gierig	genießen	vertrauen	vergnügt	gesittet	sonnig	kuss	gemein	versagen	verbissen	geizig	sterben	krise	1	blank2r.bmp	0	1	+	0	1	blank2r.bmp	500	1	CPLW	500	1	blank2r.bmp	880	2	bange	880	1	!	1232	1	!	1313	0	0	0	0	0	0
2024-05-23	09:45:05	09:56:30	681136	6.6.1	4_exp_EVA_AWA_CON	48	A	B	Rpleas_acq	Oppo	Rpleas	2pleas	acq_US_pleas_nomask	acq45_nomask	5	6	400	0	300	300	0	0	500	50	1	0	anregung	besonnen	kreativ	engagiert	träumen	gütig	ausrottung	bange	krank	engstirnig	töten	gierig	genießen	vertrauen	vergnügt	gesittet	sonnig	kuss	gemein	versagen	verbissen	geizig	sterben	krise	1	blank2r.bmp	0	1	+	0	1	blank2r.bmp	500	1	DHJF	500	1	blank2r.bmp	880	1	anregung	880	1	!	1232	1	!	-1	0	0	0	0	0	0
2024-05-23	09:45:05	09:56:32	683378	6.6.1	4_exp_EVA_AWA_CON	48	A	B	Rpleas_acq	Oppo	Rpleas	2pleas	acq_US_unple_nomask	acq45_nomask	5	7	400	1	300	300	0	0	458	46	1	0	anregung	besonnen	kreativ	engagiert	träumen	gütig	ausrottung	bange	krank	engstirnig	töten	gierig	genießen	vertrauen	vergnügt	gesittet	sonnig	kuss	gemein	versagen	verbissen	geizig	sterben	krise	1	blank2r.bmp	0	1	+	0	1	blank2r.bmp	500	1	CPLW	500	1	blank2r.bmp	880	3	krank	880	1	!	1232	1	!	1359	0	0	0	0	0	0
2024-05-23	09:45:05	09:56:34	685655	6.6.1	4_exp_EVA_AWA_CON	48	A	B	Rpleas_acq	Oppo	Rpleas	2pleas	acq_US_unple_nomask	acq45_nomask	5	8	400	0	300	300	0	0	497	46	1	0	anregung	besonnen	kreativ	engagiert	träumen	gütig	ausrottung	bange	krank	engstirnig	töten	gierig	genießen	vertrauen	vergnügt	gesittet	sonnig	kuss	gemein	versagen	verbissen	geizig	sterben	krise	1	blank2r.bmp	0	1	+	0	1	blank2r.bmp	500	1	CPLW	500	1	blank2r.bmp	880	1	ausrottung	880	1	!	1233	1	!	-1	0	0	0	0	0	0
2024-05-23	09:45:05	09:56:37	687959	6.6.1	4_exp_EVA_AWA_CON	48	A	B	Rpleas_acq	Oppo	Rpleas	2pleas	acq_US_unple_nomask	acq45_nomask	5	9	400	0	300	300	0	0	529	50	0	0	anregung	besonnen	kreativ	engagiert	träumen	gütig	ausrottung	bange	krank	engstirnig	töten	gierig	genießen	vertrauen	vergnügt	gesittet	sonnig	kuss	gemein	versagen	verbissen	geizig	sterben	krise	1	blank2r.bmp	0	1	+	0	1	blank2r.bmp	500	1	CPLW	500	1	blank2r.bmp	880	6	gierig	880	1	!	1232	1	!	-1	0	0	0	0	0	0
2024-05-23	09:45:05	09:56:39	690239	6.6.1	4_exp_EVA_AWA_CON	48	A	B	Rpleas_acq	Oppo	Rpleas	2pleas	acq_US_pleas_nomask	acq45_nomask	5	10	400	0	300	300	0	0	508	50	1	0	anregung	besonnen	kreativ	engagiert	träumen	gütig	ausrottung	bange	krank	engstirnig	töten	gierig	genießen	vertrauen	vergnügt	gesittet	sonnig	kuss	gemein	versagen	verbissen	geizig	sterben	krise	1	blank2r.bmp	0	1	+	0	1	blank2r.bmp	500	1	DHJF	500	1	blank2r.bmp	880	2	besonnen	880	1	!	1232	1	!	-1	0	0	0	0	0	0
2024-05-23	09:45:05	09:56:41	692434	6.6.1	4_exp_EVA_AWA_CON	48	A	B	Rpleas_acq	Oppo	Rpleas	2pleas	acq_US_unple_nomask	acq45_nomask	5	11	400	1	300	300	0	0	418	46	1	0	anregung	besonnen	kreativ	engagiert	träumen	gütig	ausrottung	bange	krank	engstirnig	töten	gierig	genießen	vertrauen	vergnügt	gesittet	sonnig	kuss	gemein	versagen	verbissen	geizig	sterben	krise	1	blank2r.bmp	0	1	+	0	1	blank2r.bmp	500	1	CPLW	500	1	blank2r.bmp	880	4	engstirnig	880	1	!	1232	1	!	1320	0	0	0	0	0	0
2024-05-23	09:45:05	09:56:44	694736	6.6.1	4_exp_EVA_AWA_CON	48	A	B	Rpleas_acq	Oppo	Rpleas	2pleas	acq_US_pleas_nomask	acq45_nomask	5	12	400	0	300	300	0	0	521	50	1	0	anregung	besonnen	kreativ	engagiert	träumen	gütig	ausrottung	bange	krank	engstirnig	töten	gierig	genießen	vertrauen	vergnügt	gesittet	sonnig	kuss	gemein	versagen	verbissen	geizig	sterben	krise	1	blank2r.bmp	0	1	+	0	1	blank2r.bmp	500	1	DHJF	500	1	blank2r.bmp	880	3	kreativ	880	1	!	1232	1	!	-1	0	0	0	0	0	0
2024-05-23	09:45:05	09:56:46	696905	6.6.1	4_exp_EVA_AWA_CON	48	A	B	Rpleas_acq	Oppo	Rpleas	2pleas	acq_US_unple_nomask	acq45_nomask	5	13	400	1	300	300	0	0	387	46	1	0	anregung	besonnen	kreativ	engagiert	träumen	gütig	ausrottung	bange	krank	engstirnig	töten	gierig	genießen	vertrauen	vergnügt	gesittet	sonnig	kuss	gemein	versagen	verbissen	geizig	sterben	krise	1	blank2r.bmp	0	1	+	0	1	blank2r.bmp	500	1	CPLW	500	1	blank2r.bmp	880	4	engstirnig	880	1	!	1232	1	!	1289	0	0	0	0	0	0
2024-05-23	09:45:05	09:56:48	699121	6.6.1	4_exp_EVA_AWA_CON	48	A	B	Rpleas_acq	Oppo	Rpleas	2pleas	acq_US_pleas_nomask	acq45_nomask	5	14	400	1	300	300	0	0	442	50	1	0	anregung	besonnen	kreativ	engagiert	träumen	gütig	ausrottung	bange	krank	engstirnig	töten	gierig	genießen	vertrauen	vergnügt	gesittet	sonnig	kuss	gemein	versagen	verbissen	geizig	sterben	krise	1	blank2r.bmp	0	1	+	0	1	blank2r.bmp	500	1	DHJF	500	1	blank2r.bmp	880	2	besonnen	880	1	!	1232	1	!	1343	0	0	0	0	0	0
2024-05-23	09:45:05	09:56:50	701391	6.6.1	4_exp_EVA_AWA_CON	48	A	B	Rpleas_acq	Oppo	Rpleas	2pleas	acq_US_unple_nomask	acq45_nomask	5	15	400	0	300	300	0	0	493	46	1	0	anregung	besonnen	kreativ	engagiert	träumen	gütig	ausrottung	bange	krank	engstirnig	töten	gierig	genießen	vertrauen	vergnügt	gesittet	sonnig	kuss	gemein	versagen	verbissen	geizig	sterben	krise	1	blank2r.bmp	0	1	+	0	1	blank2r.bmp	500	1	CPLW	500	1	blank2r.bmp	880	6	gierig	880	1	!	1232	1	!	-1	0	0	0	0	0	0
2024-05-23	09:45:05	09:56:52	703671	6.6.1	4_exp_EVA_AWA_CON	48	A	B	Rpleas_acq	Oppo	Rpleas	2pleas	acq_US_unple_nomask	acq45_nomask	5	16	400	0	300	300	0	0	501	46	1	0	anregung	besonnen	kreativ	engagiert	träumen	gütig	ausrottung	bange	krank	engstirnig	töten	gierig	genießen	vertrauen	vergnügt	gesittet	sonnig	kuss	gemein	versagen	verbissen	geizig	sterben	krise	1	blank2r.bmp	0	1	+	0	1	blank2r.bmp	500	1	CPLW	500	1	blank2r.bmp	880	3	krank	880	1	!	1232	1	!	-1	0	0	0	0	0	0
2024-05-23	09:45:05	09:56:55	705817	6.6.1	4_exp_EVA_AWA_CON	48	A	B	Rpleas_acq	Oppo	Rpleas	2pleas	acq_US_pleas_nomask	acq45_nomask	5	17	400	1	300	300	0	0	364	50	1	0	anregung	besonnen	kreativ	engagiert	träumen	gütig	ausrottung	bange	krank	engstirnig	töten	gierig	genießen	vertrauen	vergnügt	gesittet	sonnig	kuss	gemein	versagen	verbissen	geizig	sterben	krise	1	blank2r.bmp	0	1	+	0	1	blank2r.bmp	500	1	DHJF	500	1	blank2r.bmp	880	3	kreativ	880	1	!	1232	1	!	1265	0	0	0	0	0	0
2024-05-23	09:45:05	09:56:57	708192	6.6.1	4_exp_EVA_AWA_CON	48	A	B	Rpleas_acq	Oppo	Rpleas	2pleas	acq_US_pleas_nomask	acq45_nomask	5	18	400	0	300	300	0	0	598	50	1	0	anregung	besonnen	kreativ	engagiert	träumen	gütig	ausrottung	bange	krank	engstirnig	töten	gierig	genießen	vertrauen	vergnügt	gesittet	sonnig	kuss	gemein	versagen	verbissen	geizig	sterben	krise	1	blank2r.bmp	0	1	+	0	1	blank2r.bmp	500	1	DHJF	500	1	blank2r.bmp	880	6	gütig	880	1	!	1233	1	!	-1	0	0	0	0	0	0
2024-05-23	09:45:05	09:56:59	710386	6.6.1	4_exp_EVA_AWA_CON	48	A	B	Rpleas_acq	Oppo	Rpleas	2pleas	acq_US_unple_nomask	acq45_nomask	5	19	400	1	300	300	0	0	419	46	1	0	anregung	besonnen	kreativ	engagiert	träumen	gütig	ausrottung	bange	krank	engstirnig	töten	gierig	genießen	vertrauen	vergnügt	gesittet	sonnig	kuss	gemein	versagen	verbissen	geizig	sterben	krise	1	blank2r.bmp	0	1	+	0	1	blank2r.bmp	500	1	CPLW	500	1	blank2r.bmp	880	5	töten	880	1	!	1233	1	!	1320	0	0	0	0	0	0
2024-05-23	09:45:05	09:57:01	712601	6.6.1	4_exp_EVA_AWA_CON	48	A	B	Rpleas_acq	Oppo	Rpleas	2pleas	acq_US_pleas_nomask	acq45_nomask	5	20	400	1	300	300	0	0	433	50	1	0	anregung	besonnen	kreativ	engagiert	träumen	gütig	ausrottung	bange	krank	engstirnig	töten	gierig	genießen	vertrauen	vergnügt	gesittet	sonnig	kuss	gemein	versagen	verbissen	geizig	sterben	krise	1	blank2r.bmp	0	1	+	0	1	blank2r.bmp	500	1	DHJF	500	1	blank2r.bmp	880	5	träumen	880	1	!	1232	1	!	1335	0	0	0	0	0	0
2024-05-23	09:45:05	09:57:04	714888	6.6.1	4_exp_EVA_AWA_CON	48	A	B	Rpleas_acq	Oppo	Rpleas	2pleas	acq_US_pleas_nomask	acq45_nomask	5	21	400	0	300	300	0	0	510	50	1	0	anregung	besonnen	kreativ	engagiert	träumen	gütig	ausrottung	bange	krank	engstirnig	töten	gierig	genießen	vertrauen	vergnügt	gesittet	sonnig	kuss	gemein	versagen	verbissen	geizig	sterben	krise	1	blank2r.bmp	0	1	+	0	1	blank2r.bmp	500	1	DHJF	500	1	blank2r.bmp	880	1	anregung	880	1	!	1232	1	!	-1	0	0	0	0	0	0
2024-05-23	09:45:05	09:57:06	717057	6.6.1	4_exp_EVA_AWA_CON	48	A	B	Rpleas_acq	Oppo	Rpleas	2pleas	acq_US_unple_nomask	acq45_nomask	5	22	400	1	300	300	0	0	387	46	1	0	anregung	besonnen	kreativ	engagiert	träumen	gütig	ausrottung	bange	krank	engstirnig	töten	gierig	genießen	vertrauen	vergnügt	gesittet	sonnig	kuss	gemein	versagen	verbissen	geizig	sterben	krise	1	blank2r.bmp	0	1	+	0	1	blank2r.bmp	500	1	CPLW	500	1	blank2r.bmp	880	2	bange	880	1	!	1232	1	!	1288	0	0	0	0	0	0
2024-05-23	09:45:05	09:57:08	719415	6.6.1	4_exp_EVA_AWA_CON	48	A	B	Rpleas_acq	Oppo	Rpleas	2pleas	acq_US_pleas_nomask	acq45_nomask	5	23	400	0	300	300	0	0	585	50	1	0	anregung	besonnen	kreativ	engagiert	träumen	gütig	ausrottung	bange	krank	engstirnig	töten	gierig	genießen	vertrauen	vergnügt	gesittet	sonnig	kuss	gemein	versagen	verbissen	geizig	sterben	krise	1	blank2r.bmp	0	1	+	0	1	blank2r.bmp	500	1	DHJF	500	1	blank2r.bmp	880	4	engagiert	880	1	!	1233	1	!	-1	0	0	0	0	0	0
2024-05-23	09:45:05	09:57:10	721601	6.6.1	4_exp_EVA_AWA_CON	48	A	B	Rpleas_acq	Oppo	Rpleas	2pleas	acq_US_pleas_nomask	acq45_nomask	5	24	400	1	300	300	0	0	408	46	0	0	anregung	besonnen	kreativ	engagiert	träumen	gütig	ausrottung	bange	krank	engstirnig	töten	gierig	genießen	vertrauen	vergnügt	gesittet	sonnig	kuss	gemein	versagen	verbissen	geizig	sterben	krise	1	blank2r.bmp	0	1	+	0	1	blank2r.bmp	500	1	DHJF	500	1	blank2r.bmp	880	4	engagiert	880	1	!	1232	1	!	1309	0	0	0	0	0	0
2024-05-23	09:45:05	09:57:13	723888	6.6.1	4_exp_EVA_AWA_CON	48	A	B	Rpleas_acq	Oppo	Rpleas	2pleas	acq_US_unple_nomask	acq45_nomask	5	25	400	0	300	300	0	0	504	46	1	0	anregung	besonnen	kreativ	engagiert	träumen	gütig	ausrottung	bange	krank	engstirnig	töten	gierig	genießen	vertrauen	vergnügt	gesittet	sonnig	kuss	gemein	versagen	verbissen	geizig	sterben	krise	1	blank2r.bmp	0	1	+	0	1	blank2r.bmp	500	1	CPLW	500	1	blank2r.bmp	880	1	ausrottung	880	1	!	1232	1	!	-1	0	0	0	0	0	0
2024-05-23	09:45:05	09:57:15	726106	6.6.1	4_exp_EVA_AWA_CON	48	A	B	Rpleas_acq	Oppo	Rpleas	2pleas	acq_US_pleas_nomask	acq45_nomask	5	26	400	1	300	300	0	0	439	46	0	0	anregung	besonnen	kreativ	engagiert	träumen	gütig	ausrottung	bange	krank	engstirnig	töten	gierig	genießen	vertrauen	vergnügt	gesittet	sonnig	kuss	gemein	versagen	verbissen	geizig	sterben	krise	1	blank2r.bmp	0	1	+	0	1	blank2r.bmp	500	1	DHJF	500	1	blank2r.bmp	880	1	anregung	880	1	!	1232	1	!	1340	0	0	0	0	0	0
2024-05-23	09:45:05	09:57:17	728298	6.6.1	4_exp_EVA_AWA_CON	48	A	B	Rpleas_acq	Oppo	Rpleas	2pleas	acq_US_unple_nomask	acq45_nomask	5	27	400	1	300	300	0	0	409	50	0	0	anregung	besonnen	kreativ	engagiert	träumen	gütig	ausrottung	bange	krank	engstirnig	töten	gierig	genießen	vertrauen	vergnügt	gesittet	sonnig	kuss	gemein	versagen	verbissen	geizig	sterben	krise	1	blank2r.bmp	0	1	+	0	1	blank2r.bmp	500	1	CPLW	500	1	blank2r.bmp	880	1	ausrottung	880	1	!	1232	1	!	1311	0	0	0	0	0	0
2024-05-23	09:45:05	09:57:19	730498	6.6.1	4_exp_EVA_AWA_CON	48	A	B	Rpleas_acq	Oppo	Rpleas	2pleas	acq_US_pleas_nomask	acq45_nomask	5	28	400	1	300	300	0	0	418	46	0	0	anregung	besonnen	kreativ	engagiert	träumen	gütig	ausrottung	bange	krank	engstirnig	töten	gierig	genießen	vertrauen	vergnügt	gesittet	sonnig	kuss	gemein	versagen	verbissen	geizig	sterben	krise	1	blank2r.bmp	0	1	+	0	1	blank2r.bmp	500	1	DHJF	500	1	blank2r.bmp	880	2	besonnen	880	1	!	1232	1	!	1319	0	0	0	0	0	0
2024-05-23	09:45:05	09:57:22	732807	6.6.1	4_exp_EVA_AWA_CON	48	A	B	Rpleas_acq	Oppo	Rpleas	2pleas	acq_US_pleas_nomask	acq45_nomask	5	29	400	0	300	300	0	0	529	50	1	0	anregung	besonnen	kreativ	engagiert	träumen	gütig	ausrottung	bange	krank	engstirnig	töten	gierig	genießen	vertrauen	vergnügt	gesittet	sonnig	kuss	gemein	versagen	verbissen	geizig	sterben	krise	1	blank2r.bmp	0	1	+	0	1	blank2r.bmp	500	1	DHJF	500	1	blank2r.bmp	880	5	träumen	880	1	!	1232	1	!	-1	0	0	0	0	0	0
2024-05-23	09:45:05	09:57:24	735009	6.6.1	4_exp_EVA_AWA_CON	48	A	B	Rpleas_acq	Oppo	Rpleas	2pleas	acq_US_unple_nomask	acq45_nomask	5	30	400	1	300	300	0	0	427	46	1	0	anregung	besonnen	kreativ	engagiert	träumen	gütig	ausrottung	bange	krank	engstirnig	töten	gierig	genießen	vertrauen	vergnügt	gesittet	sonnig	kuss	gemein	versagen	verbissen	geizig	sterben	krise	1	blank2r.bmp	0	1	+	0	1	blank2r.bmp	500	1	CPLW	500	1	blank2r.bmp	880	6	gierig	880	1	!	1233	1	!	1328	0	0	0	0	0	0
2024-05-23	09:45:05	09:57:26	737272	6.6.1	4_exp_EVA_AWA_CON	48	A	B	Rpleas_acq	Oppo	Rpleas	2pleas	acq_US_unple_nomask	acq45_nomask	5	31	400	0	300	300	0	0	490	46	1	0	anregung	besonnen	kreativ	engagiert	träumen	gütig	ausrottung	bange	krank	engstirnig	töten	gierig	genießen	vertrauen	vergnügt	gesittet	sonnig	kuss	gemein	versagen	verbissen	geizig	sterben	krise	1	blank2r.bmp	0	1	+	0	1	blank2r.bmp	500	1	CPLW	500	1	blank2r.bmp	880	3	krank	880	1	!	1233	1	!	-1	0	0	0	0	0	0
2024-05-23	09:45:05	09:57:28	739521	6.6.1	4_exp_EVA_AWA_CON	48	A	B	Rpleas_acq	Oppo	Rpleas	2pleas	acq_US_pleas_nomask	acq45_nomask	5	32	400	1	300	300	0	0	466	46	0	0	anregung	besonnen	kreativ	engagiert	träumen	gütig	ausrottung	bange	krank	engstirnig	töten	gierig	genießen	vertrauen	vergnügt	gesittet	sonnig	kuss	gemein	versagen	verbissen	geizig	sterben	krise	1	blank2r.bmp	0	1	+	0	1	blank2r.bmp	500	1	DHJF	500	1	blank2r.bmp	880	3	kreativ	880	1	!	1232	1	!	1368	0	0	0	0	0	0
2024-05-23	09:45:05	09:57:31	741967	6.6.1	4_exp_EVA_AWA_CON	48	A	B	Rpleas_acq	Oppo	Rpleas	2pleas	acq_US_pleas_nomask	acq45_nomask	5	33	400	0	300	300	0	0	673	50	1	0	anregung	besonnen	kreativ	engagiert	träumen	gütig	ausrottung	bange	krank	engstirnig	töten	gierig	genießen	vertrauen	vergnügt	gesittet	sonnig	kuss	gemein	versagen	verbissen	geizig	sterben	krise	1	blank2r.bmp	0	1	+	0	1	blank2r.bmp	500	1	DHJF	500	1	blank2r.bmp	880	6	gütig	880	1	!	1232	1	!	-1	0	0	0	0	0	0
2024-05-23	09:45:05	09:57:33	744209	6.6.1	4_exp_EVA_AWA_CON	48	A	B	Rpleas_acq	Oppo	Rpleas	2pleas	acq_US_unple_nomask	acq45_nomask	5	34	400	1	300	300	0	0	461	46	1	0	anregung	besonnen	kreativ	engagiert	träumen	gütig	ausrottung	bange	krank	engstirnig	töten	gierig	genießen	vertrauen	vergnügt	gesittet	sonnig	kuss	gemein	versagen	verbissen	geizig	sterben	krise	1	blank2r.bmp	0	1	+	0	1	blank2r.bmp	500	1	CPLW	500	1	blank2r.bmp	880	5	töten	880	1	!	1232	1	!	1362	0	0	0	0	0	0
2024-05-23	09:45:05	09:57:35	746425	6.6.1	4_exp_EVA_AWA_CON	48	A	B	Rpleas_acq	Oppo	Rpleas	2pleas	acq_US_unple_nomask	acq45_nomask	5	35	400	1	300	300	0	0	436	50	0	0	anregung	besonnen	kreativ	engagiert	träumen	gütig	ausrottung	bange	krank	engstirnig	töten	gierig	genießen	vertrauen	vergnügt	gesittet	sonnig	kuss	gemein	versagen	verbissen	geizig	sterben	krise	1	blank2r.bmp	0	1	+	0	1	blank2r.bmp	500	1	CPLW	500	1	blank2r.bmp	880	2	bange	880	1	!	1232	1	!	1337	0	0	0	0	0	0
2024-05-23	09:45:05	09:57:38	748728	6.6.1	4_exp_EVA_AWA_CON	48	A	B	Rpleas_acq	Oppo	Rpleas	2pleas	acq_US_unple_nomask	acq45_nomask	5	36	400	0	300	300	0	0	528	46	1	0	anregung	besonnen	kreativ	engagiert	träumen	gütig	ausrottung	bange	krank	engstirnig	töten	gierig	genießen	vertrauen	vergnügt	gesittet	sonnig	kuss	gemein	versagen	verbissen	geizig	sterben	krise	1	blank2r.bmp	0	1	+	0	1	blank2r.bmp	500	1	CPLW	500	1	blank2r.bmp	880	4	engstirnig	880	1	!	1232	1	!	-1	0	0	0	0	0	0
2024-05-23	09:45:05	09:58:10	780724	6.6.1	4_exp_EVA_AWA_CON	48	A	B	Rpleas_acq	Oppo	Lpleas	2pleas	EvalRating_firsttwo	EvalRating_firsttwo	6	1	0	0	300	300	0	0	10461	line	0	45,9635416666666856145pct	anregung	besonnen	kreativ	engagiert	träumen	gütig	ausrottung	bange	krank	engstirnig	töten	gierig	genießen	vertrauen	vergnügt	gesittet	sonnig	kuss	gemein	versagen	verbissen	geizig	sterben	krise	1		-8	1	Wie angenehm oder unangenehm finden Sie die  Buchstabenkette WDLH?	-8	1		-8	1		-8	1		-8	1	Unangenehm	-8	1	Angenehm	-8	0	0	0	0	0	0	0	0	0
2024-05-23	09:45:05	09:58:21	791755	6.6.1	4_exp_EVA_AWA_CON	48	A	B	Rpleas_acq	Oppo	Lpleas	2pleas	EvalRating_lastfour	EvalRating_lastfour	7	1	0	0	300	300	0	0	8655	line	0	-60,9375pct	anregung	besonnen	kreativ	engagiert	träumen	gütig	ausrottung	bange	krank	engstirnig	töten	gierig	genießen	vertrauen	vergnügt	gesittet	sonnig	kuss	gemein	versagen	verbissen	geizig	sterben	krise	1		-7	3	Wie angenehm oder unangenehm finden Sie die  Buchstabenkette FCJP?	-7	1		-7	1		-7	1		-7	1	Unangenehm	-7	1	Angenehm	-7	0	0	0	0	0	0	0	0	0
2024-05-23	09:45:05	09:58:23	794120	6.6.1	4_exp_EVA_AWA_CON	48	A	B	Rpleas_acq	Oppo	Lpleas	2pleas	blank_screen	EvalRating_lastfour	7	3	0	0	300	300	0	0	0	0	0	-60,9375pct	anregung	besonnen	kreativ	engagiert	träumen	gütig	ausrottung	bange	krank	engstirnig	töten	gierig	genießen	vertrauen	vergnügt	gesittet	sonnig	kuss	gemein	versagen	verbissen	geizig	sterben	krise	1		-8	0	0	0	0	0	0	0	0	0	0	0	0	0	0	0	0	0	0	0	0	0	0	0	0	0	0	0
2024-05-23	09:45:05	09:58:28	799637	6.6.1	4_exp_EVA_AWA_CON	48	A	B	Rpleas_acq	Oppo	Lpleas	2pleas	EvalRating_lastfour	EvalRating_lastfour	7	4	0	0	300	300	0	0	4928	line	0	17,3177083333333428072pct	anregung	besonnen	kreativ	engagiert	träumen	gütig	ausrottung	bange	krank	engstirnig	töten	gierig	genießen	vertrauen	vergnügt	gesittet	sonnig	kuss	gemein	versagen	verbissen	geizig	sterben	krise	1		-8	1	Wie angenehm oder unangenehm finden Sie die  Buchstabenkette CPLW?	-8	1		-8	1		-8	1		-8	1	Unangenehm	-8	1	Angenehm	-8	0	0	0	0	0	0	0	0	0
2024-05-23	09:45:05	09:58:31	802005	6.6.1	4_exp_EVA_AWA_CON	48	A	B	Rpleas_acq	Oppo	Lpleas	2pleas	blank_screen	EvalRating_lastfour	7	6	0	0	300	300	0	0	0	0	0	17,3177083333333428072pct	anregung	besonnen	kreativ	engagiert	träumen	gütig	ausrottung	bange	krank	engstirnig	töten	gierig	genießen	vertrauen	vergnügt	gesittet	sonnig	kuss	gemein	versagen	verbissen	geizig	sterben	krise	1		-8	0	0	0	0	0	0	0	0	0	0	0	0	0	0	0	0	0	0	0	0	0	0	0	0	0	0	0
2024-05-23	09:45:05	09:58:36	806692	6.6.1	4_exp_EVA_AWA_CON	48	A	B	Rpleas_acq	Oppo	Lpleas	2pleas	EvalRating_lastfour	EvalRating_lastfour	7	7	0	0	300	300	0	0	4099	line	0	-8,3333333333333285964pct	anregung	besonnen	kreativ	engagiert	träumen	gütig	ausrottung	bange	krank	engstirnig	töten	gierig	genießen	vertrauen	vergnügt	gesittet	sonnig	kuss	gemein	versagen	verbissen	geizig	sterben	krise	1		-8	2	Wie angenehm oder unangenehm finden Sie die  Buchstabenkette DHJF?	-8	1		-8	1		-8	1		-8	1	Unangenehm	-8	1	Angenehm	-8	0	0	0	0	0	0	0	0	0
2024-05-23	09:45:05	09:59:22	853126	6.6.1	4_exp_EVA_AWA_CON	48	A	B	Rpleas_acq	Oppo	Lpleas	2pleas	conawa_CS2_US5	conawa1_nomask	8	1	0	0	300	300	0	0	11402	töten	1	-8,3333333333333285964pct	anregung	besonnen	kreativ	engagiert	träumen	gütig	ausrottung	bange	krank	engstirnig	töten	gierig	genießen	vertrauen	vergnügt	gesittet	sonnig	kuss	gemein	versagen	verbissen	geizig	sterben	krise	0	0	0	0	0	0	0	0	0	0	0	0	0	0	0	0	0	0	0	0	0	0	0	0	0	0	0	0	0	0
2024-05-23	09:45:05	09:59:22	853128	6.6.1	4_exp_EVA_AWA_CON	48	A	B	Rpleas_acq	Oppo	Lpleas	2pleas	conawa_CS2_US5_confidence	conawa1_nomask	8	1	0	0	300	300	0	0	11402	guess	1	-8,3333333333333285964pct	anregung	besonnen	kreativ	engagiert	träumen	gütig	ausrottung	bange	krank	engstirnig	töten	gierig	genießen	vertrauen	vergnügt	gesittet	sonnig	kuss	gemein	versagen	verbissen	geizig	sterben	krise	0	0	0	0	0	0	0	0	0	0	0	0	0	0	0	0	0	0	0	0	0	0	0	0	0	0	0	0	0	0
2024-05-23	09:45:05	09:59:30	860771	6.6.1	4_exp_EVA_AWA_CON	48	A	B	Rpleas_acq	Oppo	Lpleas	2pleas	conawa_CS2_US3	conawa1_nomask	8	2	0	0	300	300	0	0	7032	gesittet	1	-8,3333333333333285964pct	anregung	besonnen	kreativ	engagiert	träumen	gütig	ausrottung	bange	krank	engstirnig	töten	gierig	genießen	vertrauen	vergnügt	gesittet	sonnig	kuss	gemein	versagen	verbissen	geizig	sterben	krise	0	0	0	0	0	0	0	0	0	0	0	0	0	0	0	0	0	0	0	0	0	0	0	0	0	0	0	0	0	0
2024-05-23	09:45:05	09:59:30	860773	6.6.1	4_exp_EVA_AWA_CON	48	A	B	Rpleas_acq	Oppo	Lpleas	2pleas	conawa_CS2_US3_confidence	conawa1_nomask	8	2	0	0	300	300	0	0	7032	guess	1	-8,3333333333333285964pct	anregung	besonnen	kreativ	engagiert	träumen	gütig	ausrottung	bange	krank	engstirnig	töten	gierig	genießen	vertrauen	vergnügt	gesittet	sonnig	kuss	gemein	versagen	verbissen	geizig	sterben	krise	0	0	0	0	0	0	0	0	0	0	0	0	0	0	0	0	0	0	0	0	0	0	0	0	0	0	0	0	0	0
2024-05-23	09:45:05	09:59:37	868326	6.6.1	4_exp_EVA_AWA_CON	48	A	B	Rpleas_acq	Oppo	Lpleas	2pleas	conawa_CS2_US1	conawa1_nomask	8	3	0	0	300	300	0	0	6938	ausrottung	1	-8,3333333333333285964pct	anregung	besonnen	kreativ	engagiert	träumen	gütig	ausrottung	bange	krank	engstirnig	töten	gierig	genießen	vertrauen	vergnügt	gesittet	sonnig	kuss	gemein	versagen	verbissen	geizig	sterben	krise	0	0	0	0	0	0	0	0	0	0	0	0	0	0	0	0	0	0	0	0	0	0	0	0	0	0	0	0	0	0
2024-05-23	09:45:05	09:59:37	868328	6.6.1	4_exp_EVA_AWA_CON	48	A	B	Rpleas_acq	Oppo	Lpleas	2pleas	conawa_CS2_US1_confidence	conawa1_nomask	8	3	0	0	300	300	0	0	6938	guess	1	-8,3333333333333285964pct	anregung	besonnen	kreativ	engagiert	träumen	gütig	ausrottung	bange	krank	engstirnig	töten	gierig	genießen	vertrauen	vergnügt	gesittet	sonnig	kuss	gemein	versagen	verbissen	geizig	sterben	krise	0	0	0	0	0	0	0	0	0	0	0	0	0	0	0	0	0	0	0	0	0	0	0	0	0	0	0	0	0	0
2024-05-23	09:45:05	09:59:44	875670	6.6.1	4_exp_EVA_AWA_CON	48	A	B	Rpleas_acq	Oppo	Lpleas	2pleas	conawa_CS1_US2	conawa1_nomask	8	4	0	0	300	300	0	0	6726	bange	1	-8,3333333333333285964pct	anregung	besonnen	kreativ	engagiert	träumen	gütig	ausrottung	bange	krank	engstirnig	töten	gierig	genießen	vertrauen	vergnügt	gesittet	sonnig	kuss	gemein	versagen	verbissen	geizig	sterben	krise	0	0	0	0	0	0	0	0	0	0	0	0	0	0	0	0	0	0	0	0	0	0	0	0	0	0	0	0	0	0
2024-05-23	09:45:05	09:59:44	875672	6.6.1	4_exp_EVA_AWA_CON	48	A	B	Rpleas_acq	Oppo	Lpleas	2pleas	conawa_CS1_US2_confidence	conawa1_nomask	8	4	0	0	300	300	0	0	6726	guess	1	-8,3333333333333285964pct	anregung	besonnen	kreativ	engagiert	träumen	gütig	ausrottung	bange	krank	engstirnig	töten	gierig	genießen	vertrauen	vergnügt	gesittet	sonnig	kuss	gemein	versagen	verbissen	geizig	sterben	krise	0	0	0	0	0	0	0	0	0	0	0	0	0	0	0	0	0	0	0	0	0	0	0	0	0	0	0	0	0	0
2024-05-23	09:45:05	09:59:55	885817	6.6.1	4_exp_EVA_AWA_CON	48	A	B	Rpleas_acq	Oppo	Lpleas	2pleas	conawa_CS2_US2	conawa1_nomask	8	5	0	0	300	300	0	0	9533	bange	1	-8,3333333333333285964pct	anregung	besonnen	kreativ	engagiert	träumen	gütig	ausrottung	bange	krank	engstirnig	töten	gierig	genießen	vertrauen	vergnügt	gesittet	sonnig	kuss	gemein	versagen	verbissen	geizig	sterben	krise	0	0	0	0	0	0	0	0	0	0	0	0	0	0	0	0	0	0	0	0	0	0	0	0	0	0	0	0	0	0
2024-05-23	09:45:05	09:59:55	885819	6.6.1	4_exp_EVA_AWA_CON	48	A	B	Rpleas_acq	Oppo	Lpleas	2pleas	conawa_CS2_US2_confidence	conawa1_nomask	8	5	0	0	300	300	0	0	9533	guess	1	-8,3333333333333285964pct	anregung	besonnen	kreativ	engagiert	träumen	gütig	ausrottung	bange	krank	engstirnig	töten	gierig	genießen	vertrauen	vergnügt	gesittet	sonnig	kuss	gemein	versagen	verbissen	geizig	sterben	krise	0	0	0	0	0	0	0	0	0	0	0	0	0	0	0	0	0	0	0	0	0	0	0	0	0	0	0	0	0	0
2024-05-23	09:45:05	10:00:01	891891	6.6.1	4_exp_EVA_AWA_CON	48	A	B	Rpleas_acq	Oppo	Lpleas	2pleas	conawa_CS1_US4	conawa1_nomask	8	6	0	0	300	300	0	0	5459	gesittet	1	-8,3333333333333285964pct	anregung	besonnen	kreativ	engagiert	träumen	gütig	ausrottung	bange	krank	engstirnig	töten	gierig	genießen	vertrauen	vergnügt	gesittet	sonnig	kuss	gemein	versagen	verbissen	geizig	sterben	krise	0	0	0	0	0	0	0	0	0	0	0	0	0	0	0	0	0	0	0	0	0	0	0	0	0	0	0	0	0	0
2024-05-23	09:45:05	10:00:01	891893	6.6.1	4_exp_EVA_AWA_CON	48	A	B	Rpleas_acq	Oppo	Lpleas	2pleas	conawa_CS1_US4_confidence	conawa1_nomask	8	6	0	0	300	300	0	0	5459	guess	1	-8,3333333333333285964pct	anregung	besonnen	kreativ	engagiert	träumen	gütig	ausrottung	bange	krank	engstirnig	töten	gierig	genießen	vertrauen	vergnügt	gesittet	sonnig	kuss	gemein	versagen	verbissen	geizig	sterben	krise	0	0	0	0	0	0	0	0	0	0	0	0	0	0	0	0	0	0	0	0	0	0	0	0	0	0	0	0	0	0
2024-05-23	09:45:05	10:00:16	906931	6.6.1	4_exp_EVA_AWA_CON	48	A	B	Rpleas_acq	Oppo	Lpleas	2pleas	conawa_CS1_US5	conawa1_nomask	8	7	0	0	300	300	0	0	14426	träumen	1	-8,3333333333333285964pct	anregung	besonnen	kreativ	engagiert	träumen	gütig	ausrottung	bange	krank	engstirnig	töten	gierig	genießen	vertrauen	vergnügt	gesittet	sonnig	kuss	gemein	versagen	verbissen	geizig	sterben	krise	0	0	0	0	0	0	0	0	0	0	0	0	0	0	0	0	0	0	0	0	0	0	0	0	0	0	0	0	0	0
2024-05-23	09:45:05	10:00:16	906933	6.6.1	4_exp_EVA_AWA_CON	48	A	B	Rpleas_acq	Oppo	Lpleas	2pleas	conawa_CS1_US5_confidence	conawa1_nomask	8	7	0	0	300	300	0	0	14426	guess	1	-8,3333333333333285964pct	anregung	besonnen	kreativ	engagiert	träumen	gütig	ausrottung	bange	krank	engstirnig	töten	gierig	genießen	vertrauen	vergnügt	gesittet	sonnig	kuss	gemein	versagen	verbissen	geizig	sterben	krise	0	0	0	0	0	0	0	0	0	0	0	0	0	0	0	0	0	0	0	0	0	0	0	0	0	0	0	0	0	0
2024-05-23	09:45:05	10:00:25	916197	6.6.1	4_exp_EVA_AWA_CON	48	A	B	Rpleas_acq	Oppo	Lpleas	2pleas	conawa_CS1_US6	conawa1_nomask	8	8	0	0	300	300	0	0	8652	gütig	1	-8,3333333333333285964pct	anregung	besonnen	kreativ	engagiert	träumen	gütig	ausrottung	bange	krank	engstirnig	töten	gierig	genießen	vertrauen	vergnügt	gesittet	sonnig	kuss	gemein	versagen	verbissen	geizig	sterben	krise	0	0	0	0	0	0	0	0	0	0	0	0	0	0	0	0	0	0	0	0	0	0	0	0	0	0	0	0	0	0
2024-05-23	09:45:05	10:00:25	916198	6.6.1	4_exp_EVA_AWA_CON	48	A	B	Rpleas_acq	Oppo	Lpleas	2pleas	conawa_CS1_US6_confidence	conawa1_nomask	8	8	0	0	300	300	0	0	8652	guess	1	-8,3333333333333285964pct	anregung	besonnen	kreativ	engagiert	träumen	gütig	ausrottung	bange	krank	engstirnig	töten	gierig	genießen	vertrauen	vergnügt	gesittet	sonnig	kuss	gemein	versagen	verbissen	geizig	sterben	krise	0	0	0	0	0	0	0	0	0	0	0	0	0	0	0	0	0	0	0	0	0	0	0	0	0	0	0	0	0	0
2024-05-23	09:45:05	10:00:33	924082	6.6.1	4_exp_EVA_AWA_CON	48	A	B	Rpleas_acq	Oppo	Lpleas	2pleas	conawa_CS2_US6	conawa1_nomask	8	9	0	0	300	300	0	0	7265	gierig	1	-8,3333333333333285964pct	anregung	besonnen	kreativ	engagiert	träumen	gütig	ausrottung	bange	krank	engstirnig	töten	gierig	genießen	vertrauen	vergnügt	gesittet	sonnig	kuss	gemein	versagen	verbissen	geizig	sterben	krise	0	0	0	0	0	0	0	0	0	0	0	0	0	0	0	0	0	0	0	0	0	0	0	0	0	0	0	0	0	0
2024-05-23	09:45:05	10:00:33	924084	6.6.1	4_exp_EVA_AWA_CON	48	A	B	Rpleas_acq	Oppo	Lpleas	2pleas	conawa_CS2_US6_confidence	conawa1_nomask	8	9	0	0	300	300	0	0	7265	guess	1	-8,3333333333333285964pct	anregung	besonnen	kreativ	engagiert	träumen	gütig	ausrottung	bange	krank	engstirnig	töten	gierig	genießen	vertrauen	vergnügt	gesittet	sonnig	kuss	gemein	versagen	verbissen	geizig	sterben	krise	0	0	0	0	0	0	0	0	0	0	0	0	0	0	0	0	0	0	0	0	0	0	0	0	0	0	0	0	0	0
2024-05-23	09:45:05	10:00:43	934548	6.6.1	4_exp_EVA_AWA_CON	48	A	B	Rpleas_acq	Oppo	Lpleas	2pleas	conawa_CS1_US3	conawa1_nomask	8	10	0	0	300	300	0	0	9853	vergnügt	1	-8,3333333333333285964pct	anregung	besonnen	kreativ	engagiert	träumen	gütig	ausrottung	bange	krank	engstirnig	töten	gierig	genießen	vertrauen	vergnügt	gesittet	sonnig	kuss	gemein	versagen	verbissen	geizig	sterben	krise	0	0	0	0	0	0	0	0	0	0	0	0	0	0	0	0	0	0	0	0	0	0	0	0	0	0	0	0	0	0
2024-05-23	09:45:05	10:00:43	934550	6.6.1	4_exp_EVA_AWA_CON	48	A	B	Rpleas_acq	Oppo	Lpleas	2pleas	conawa_CS1_US3_confidence	conawa1_nomask	8	10	0	0	300	300	0	0	9853	guess	1	-8,3333333333333285964pct	anregung	besonnen	kreativ	engagiert	träumen	gütig	ausrottung	bange	krank	engstirnig	töten	gierig	genießen	vertrauen	vergnügt	gesittet	sonnig	kuss	gemein	versagen	verbissen	geizig	sterben	krise	0	0	0	0	0	0	0	0	0	0	0	0	0	0	0	0	0	0	0	0	0	0	0	0	0	0	0	0	0	0
2024-05-23	09:45:05	10:00:51	942524	6.6.1	4_exp_EVA_AWA_CON	48	A	B	Rpleas_acq	Oppo	Lpleas	2pleas	conawa_CS2_US4	conawa1_nomask	8	11	0	0	300	300	0	0	7360	engstirnig	1	-8,3333333333333285964pct	anregung	besonnen	kreativ	engagiert	träumen	gütig	ausrottung	bange	krank	engstirnig	töten	gierig	genießen	vertrauen	vergnügt	gesittet	sonnig	kuss	gemein	versagen	verbissen	geizig	sterben	krise	0	0	0	0	0	0	0	0	0	0	0	0	0	0	0	0	0	0	0	0	0	0	0	0	0	0	0	0	0	0
2024-05-23	09:45:05	10:00:51	942525	6.6.1	4_exp_EVA_AWA_CON	48	A	B	Rpleas_acq	Oppo	Lpleas	2pleas	conawa_CS2_US4_confidence	conawa1_nomask	8	11	0	0	300	300	0	0	7360	guess	1	-8,3333333333333285964pct	anregung	besonnen	kreativ	engagiert	träumen	gütig	ausrottung	bange	krank	engstirnig	töten	gierig	genießen	vertrauen	vergnügt	gesittet	sonnig	kuss	gemein	versagen	verbissen	geizig	sterben	krise	0	0	0	0	0	0	0	0	0	0	0	0	0	0	0	0	0	0	0	0	0	0	0	0	0	0	0	0	0	0
2024-05-23	09:45:05	10:01:03	954331	6.6.1	4_exp_EVA_AWA_CON	48	A	B	Rpleas_acq	Oppo	Lpleas	2pleas	conawa_CS1_US1	conawa1_nomask	8	12	0	0	300	300	0	0	11195	anregung	1	-8,3333333333333285964pct	anregung	besonnen	kreativ	engagiert	träumen	gütig	ausrottung	bange	krank	engstirnig	töten	gierig	genießen	vertrauen	vergnügt	gesittet	sonnig	kuss	gemein	versagen	verbissen	geizig	sterben	krise	0	0	0	0	0	0	0	0	0	0	0	0	0	0	0	0	0	0	0	0	0	0	0	0	0	0	0	0	0	0
2024-05-23	09:45:05	10:01:03	954333	6.6.1	4_exp_EVA_AWA_CON	48	A	B	Rpleas_acq	Oppo	Lpleas	2pleas	conawa_CS1_US1_confidence	conawa1_nomask	8	12	0	0	300	300	0	0	11195	guess	1	-8,3333333333333285964pct	anregung	besonnen	kreativ	engagiert	träumen	gütig	ausrottung	bange	krank	engstirnig	töten	gierig	genießen	vertrauen	vergnügt	gesittet	sonnig	kuss	gemein	versagen	verbissen	geizig	sterben	krise	0	0	0	0	0	0	0	0	0	0	0	0	0	0	0	0	0	0	0	0	0	0	0	0	0	0	0	0	0	0
2024-05-23	09:45:05	10:02:30	1040999	6.6.1	4_exp_EVA_AWA_CON	48	A	B	Rpleas_acq	Oppo	Lpleas	2pleas	cond_US_unple_123_nomask_CS2	condtest_nomask_1	11	1	400	0	300	300	0	0	573	46	0	-8,3333333333333285964pct	anregung	besonnen	kreativ	engagiert	träumen	gütig	ausrottung	bange	krank	engstirnig	töten	gierig	genießen	vertrauen	vergnügt	gesittet	sonnig	kuss	gemein	versagen	verbissen	geizig	sterben	krise	1	blank2r.bmp	0	1	+	0	1	blank2r.bmp	500	1	DHJF	500	1	blank2r.bmp	880	1	krank	880	1	!	1232	1	!	-1	0	0	0	0	0	0
