date	time	currenttime	elapsedtime	build	currentexpt	subject	CS_AB	US_AB	LRpleas_acq	SameOppo	condition_Lpleas	condition_1pleas	trialcode	blockcode	blocknum	trialnum	windowcenter	inwindow	pretrialpause	posttrialpause	trialduration	trialtimeout	latency	response	correct	correctedscore	US_nomask_pleas1	US_nomask_pleas2	US_nomask_pleas3	US_nomask_pleas4	US_nomask_pleas5	US_nomask_pleas6	US_nomask_unple1	US_nomask_unple2	US_nomask_unple3	US_nomask_unple4	US_nomask_unple5	US_nomask_unple6	new_nomask_pleas1	new_nomask_pleas2	new_nomask_pleas3	new_nomask_pleas4	new_nomask_pleas5	new_nomask_pleas6	new_nomask_unple1	new_nomask_unple2	new_nomask_unple3	new_nomask_unple4	new_nomask_unple5	new_nomask_unple6	stimulusnumber1	stimulusitem1	stimulusonset1	stimulusnumber2	stimulusitem2	stimulusonset2	stimulusnumber3	stimulusitem3	stimulusonset3	stimulusnumber4	stimulusitem4	stimulusonset4	stimulusnumber5	stimulusitem5	stimulusonset5	stimulusnumber6	stimulusitem6	stimulusonset6	stimulusnumber7	stimulusitem7	stimulusonset7	stimulusnumber8	stimulusitem8	stimulusonset8	stimulusnumber9	stimulusitem9	stimulusonset9	stimulusnumber10	stimulusitem10	stimulusonset10
2024-05-02	09:03:33	09:08:02	268913	6.6.1	4_exp_EVA_AWA_CON	4	B	A	Rpleas_acq	Oppo	Rpleas	2pleas	acq_US_unple_nomask	acq1_nomask	1	1	0	0	300	300	0	0	2530	46	1	0	lachen	tolerant	helfen	treu	freundlich	schön	leiden	tyrannisch	hindern	tot	fanatisch	schlecht	spielen	fair	loyal	retten	schlau	ehrlich	strafen	faul	lasch	rächen	schroff	eitel	1	blank2r.bmp	0	1	+	0	1	blank2r.bmp	500	1	BMVZ	500	1	blank2r.bmp	880	6	schlecht	880	0	0	0	0	0	0	0	0	0	0	0	0
2024-05-02	09:03:33	09:08:05	271519	6.6.1	4_exp_EVA_AWA_CON	4	B	A	Rpleas_acq	Oppo	Rpleas	2pleas	acq_new_pleas_nomask	acq1_nomask	1	2	0	0	300	300	0	0	1124	50	1	0	lachen	tolerant	helfen	treu	freundlich	schön	leiden	tyrannisch	hindern	tot	fanatisch	schlecht	spielen	fair	loyal	retten	schlau	ehrlich	strafen	faul	lasch	rächen	schroff	eitel	1	blank2r.bmp	0	1	+	0	1	blank2r.bmp	500	8	C4r.bmp	500	1	blank2r.bmp	880	4	retten	880	0	0	0	0	0	0	0	0	0	0	0	0
2024-05-02	09:03:33	09:08:07	273751	6.6.1	4_exp_EVA_AWA_CON	4	B	A	Rpleas_acq	Oppo	Rpleas	2pleas	acq_US_pleas_nomask	acq1_nomask	1	3	0	0	300	300	0	0	744	50	1	0	lachen	tolerant	helfen	treu	freundlich	schön	leiden	tyrannisch	hindern	tot	fanatisch	schlecht	spielen	fair	loyal	retten	schlau	ehrlich	strafen	faul	lasch	rächen	schroff	eitel	1	blank2r.bmp	0	1	+	0	1	blank2r.bmp	500	1	GKQX	500	1	blank2r.bmp	880	1	lachen	880	0	0	0	0	0	0	0	0	0	0	0	0
2024-05-02	09:03:33	09:08:09	275935	6.6.1	4_exp_EVA_AWA_CON	4	B	A	Rpleas_acq	Oppo	Rpleas	2pleas	acq_new_pleas_nomask	acq1_nomask	1	4	0	0	300	300	0	0	697	50	1	0	lachen	tolerant	helfen	treu	freundlich	schön	leiden	tyrannisch	hindern	tot	fanatisch	schlecht	spielen	fair	loyal	retten	schlau	ehrlich	strafen	faul	lasch	rächen	schroff	eitel	1	blank2r.bmp	0	1	+	0	1	blank2r.bmp	500	4	B4r.bmp	500	1	blank2r.bmp	880	2	fair	880	0	0	0	0	0	0	0	0	0	0	0	0
2024-05-02	09:03:33	09:08:11	278079	6.6.1	4_exp_EVA_AWA_CON	4	B	A	Rpleas_acq	Oppo	Rpleas	2pleas	acq_new_unple_nomask	acq1_nomask	1	5	0	0	300	300	0	0	660	46	1	0	lachen	tolerant	helfen	treu	freundlich	schön	leiden	tyrannisch	hindern	tot	fanatisch	schlecht	spielen	fair	loyal	retten	schlau	ehrlich	strafen	faul	lasch	rächen	schroff	eitel	1	blank2r.bmp	0	1	+	0	1	blank2r.bmp	500	1	B1r.bmp	500	1	blank2r.bmp	880	1	strafen	880	0	0	0	0	0	0	0	0	0	0	0	0
2024-05-02	09:03:33	09:08:13	280215	6.6.1	4_exp_EVA_AWA_CON	4	B	A	Rpleas_acq	Oppo	Rpleas	2pleas	acq_new_unple_nomask	acq1_nomask	1	6	0	0	300	300	0	0	654	46	1	0	lachen	tolerant	helfen	treu	freundlich	schön	leiden	tyrannisch	hindern	tot	fanatisch	schlecht	spielen	fair	loyal	retten	schlau	ehrlich	strafen	faul	lasch	rächen	schroff	eitel	1	blank2r.bmp	0	1	+	0	1	blank2r.bmp	500	7	C3r.bmp	500	1	blank2r.bmp	880	2	faul	880	0	0	0	0	0	0	0	0	0	0	0	0
2024-05-02	09:03:33	09:08:15	282439	6.6.1	4_exp_EVA_AWA_CON	4	B	A	Rpleas_acq	Oppo	Rpleas	2pleas	acq_US_unple_nomask	acq1_nomask	1	7	0	0	300	300	0	0	737	46	1	0	lachen	tolerant	helfen	treu	freundlich	schön	leiden	tyrannisch	hindern	tot	fanatisch	schlecht	spielen	fair	loyal	retten	schlau	ehrlich	strafen	faul	lasch	rächen	schroff	eitel	1	blank2r.bmp	0	1	+	0	1	blank2r.bmp	500	1	BMVZ	500	1	blank2r.bmp	880	1	leiden	880	0	0	0	0	0	0	0	0	0	0	0	0
2024-05-02	09:03:33	09:08:18	284615	6.6.1	4_exp_EVA_AWA_CON	4	B	A	Rpleas_acq	Oppo	Rpleas	2pleas	acq_US_unple_nomask	acq1_nomask	1	8	0	0	300	300	0	0	691	46	1	0	lachen	tolerant	helfen	treu	freundlich	schön	leiden	tyrannisch	hindern	tot	fanatisch	schlecht	spielen	fair	loyal	retten	schlau	ehrlich	strafen	faul	lasch	rächen	schroff	eitel	1	blank2r.bmp	0	1	+	0	1	blank2r.bmp	500	1	BMVZ	500	1	blank2r.bmp	880	4	tot	880	0	0	0	0	0	0	0	0	0	0	0	0
2024-05-02	09:03:33	09:08:20	286767	6.6.1	4_exp_EVA_AWA_CON	4	B	A	Rpleas_acq	Oppo	Rpleas	2pleas	acq_new_unple_nomask	acq1_nomask	1	9	0	0	300	300	0	0	662	46	1	0	lachen	tolerant	helfen	treu	freundlich	schön	leiden	tyrannisch	hindern	tot	fanatisch	schlecht	spielen	fair	loyal	retten	schlau	ehrlich	strafen	faul	lasch	rächen	schroff	eitel	1	blank2r.bmp	0	1	+	0	1	blank2r.bmp	500	2	B2r.bmp	500	1	blank2r.bmp	880	5	schroff	880	0	0	0	0	0	0	0	0	0	0	0	0
2024-05-02	09:03:33	09:08:22	288967	6.6.1	4_exp_EVA_AWA_CON	4	B	A	Rpleas_acq	Oppo	Rpleas	2pleas	acq_US_pleas_nomask	acq1_nomask	1	10	0	0	300	300	0	0	710	50	1	0	lachen	tolerant	helfen	treu	freundlich	schön	leiden	tyrannisch	hindern	tot	fanatisch	schlecht	spielen	fair	loyal	retten	schlau	ehrlich	strafen	faul	lasch	rächen	schroff	eitel	1	blank2r.bmp	0	1	+	0	1	blank2r.bmp	500	1	GKQX	500	1	blank2r.bmp	880	4	treu	880	0	0	0	0	0	0	0	0	0	0	0	0
2024-05-02	09:03:33	09:08:24	290999	6.6.1	4_exp_EVA_AWA_CON	4	B	A	Rpleas_acq	Oppo	Rpleas	2pleas	acq_US_pleas_nomask	acq1_nomask	1	11	0	0	300	300	0	0	541	50	1	0	lachen	tolerant	helfen	treu	freundlich	schön	leiden	tyrannisch	hindern	tot	fanatisch	schlecht	spielen	fair	loyal	retten	schlau	ehrlich	strafen	faul	lasch	rächen	schroff	eitel	1	blank2r.bmp	0	1	+	0	1	blank2r.bmp	500	1	GKQX	500	1	blank2r.bmp	880	6	schön	880	0	0	0	0	0	0	0	0	0	0	0	0
2024-05-02	09:03:33	09:08:26	292871	6.6.1	4_exp_EVA_AWA_CON	4	B	A	Rpleas_acq	Oppo	Rpleas	2pleas	acq_new_pleas_nomask	acq1_nomask	1	12	0	0	300	300	0	0	382	50	1	0	lachen	tolerant	helfen	treu	freundlich	schön	leiden	tyrannisch	hindern	tot	fanatisch	schlecht	spielen	fair	loyal	retten	schlau	ehrlich	strafen	faul	lasch	rächen	schroff	eitel	1	blank2r.bmp	0	1	+	0	1	blank2r.bmp	500	6	C2r.bmp	500	1	blank2r.bmp	880	3	loyal	880	0	0	0	0	0	0	0	0	0	0	0	0
2024-05-02	09:03:33	09:08:28	294807	6.6.1	4_exp_EVA_AWA_CON	4	B	A	Rpleas_acq	Oppo	Rpleas	2pleas	acq_new_pleas_nomask	acq1_nomask	1	13	0	0	300	300	0	0	447	50	1	0	lachen	tolerant	helfen	treu	freundlich	schön	leiden	tyrannisch	hindern	tot	fanatisch	schlecht	spielen	fair	loyal	retten	schlau	ehrlich	strafen	faul	lasch	rächen	schroff	eitel	1	blank2r.bmp	0	1	+	0	1	blank2r.bmp	500	3	B3r.bmp	500	1	blank2r.bmp	880	5	schlau	880	0	0	0	0	0	0	0	0	0	0	0	0
2024-05-02	09:03:33	09:08:30	296848	6.6.1	4_exp_EVA_AWA_CON	4	B	A	Rpleas_acq	Oppo	Rpleas	2pleas	acq_US_unple_nomask	acq1_nomask	1	14	0	0	300	300	0	0	355	50	0	0	lachen	tolerant	helfen	treu	freundlich	schön	leiden	tyrannisch	hindern	tot	fanatisch	schlecht	spielen	fair	loyal	retten	schlau	ehrlich	strafen	faul	lasch	rächen	schroff	eitel	1	blank2r.bmp	0	1	+	0	1	blank2r.bmp	500	1	BMVZ	500	1	blank2r.bmp	880	5	fanatisch	880	1	FEHLER	1257	0	0	0	0	0	0	0	0	0
2024-05-02	09:03:33	09:08:32	298831	6.6.1	4_exp_EVA_AWA_CON	4	B	A	Rpleas_acq	Oppo	Rpleas	2pleas	acq_new_unple_nomask	acq1_nomask	1	15	0	0	300	300	0	0	698	46	1	0	lachen	tolerant	helfen	treu	freundlich	schön	leiden	tyrannisch	hindern	tot	fanatisch	schlecht	spielen	fair	loyal	retten	schlau	ehrlich	strafen	faul	lasch	rächen	schroff	eitel	1	blank2r.bmp	0	1	+	0	1	blank2r.bmp	500	5	C1r.bmp	500	1	blank2r.bmp	880	6	eitel	880	0	0	0	0	0	0	0	0	0	0	0	0
2024-05-02	09:03:33	09:08:34	300831	6.6.1	4_exp_EVA_AWA_CON	4	B	A	Rpleas_acq	Oppo	Rpleas	2pleas	acq_US_unple_nomask	acq1_nomask	1	16	0	0	300	300	0	0	517	46	1	0	lachen	tolerant	helfen	treu	freundlich	schön	leiden	tyrannisch	hindern	tot	fanatisch	schlecht	spielen	fair	loyal	retten	schlau	ehrlich	strafen	faul	lasch	rächen	schroff	eitel	1	blank2r.bmp	0	1	+	0	1	blank2r.bmp	500	1	BMVZ	500	1	blank2r.bmp	880	2	tyrannisch	880	0	0	0	0	0	0	0	0	0	0	0	0
2024-05-02	09:03:33	09:08:36	303024	6.6.1	4_exp_EVA_AWA_CON	4	B	A	Rpleas_acq	Oppo	Rpleas	2pleas	acq_US_pleas_nomask	acq1_nomask	1	17	0	0	300	300	0	0	508	46	0	0	lachen	tolerant	helfen	treu	freundlich	schön	leiden	tyrannisch	hindern	tot	fanatisch	schlecht	spielen	fair	loyal	retten	schlau	ehrlich	strafen	faul	lasch	rächen	schroff	eitel	1	blank2r.bmp	0	1	+	0	1	blank2r.bmp	500	1	GKQX	500	1	blank2r.bmp	880	3	helfen	880	1	FEHLER	1409	0	0	0	0	0	0	0	0	0
2024-05-02	09:03:33	09:08:38	304943	6.6.1	4_exp_EVA_AWA_CON	4	B	A	Rpleas_acq	Oppo	Rpleas	2pleas	acq_US_pleas_nomask	acq1_nomask	1	18	0	0	300	300	0	0	636	50	1	0	lachen	tolerant	helfen	treu	freundlich	schön	leiden	tyrannisch	hindern	tot	fanatisch	schlecht	spielen	fair	loyal	retten	schlau	ehrlich	strafen	faul	lasch	rächen	schroff	eitel	1	blank2r.bmp	0	1	+	0	1	blank2r.bmp	500	1	GKQX	500	1	blank2r.bmp	880	5	freundlich	880	0	0	0	0	0	0	0	0	0	0	0	0
2024-05-02	09:03:33	09:08:40	307343	6.6.1	4_exp_EVA_AWA_CON	4	B	A	Rpleas_acq	Oppo	Rpleas	2pleas	acq_US_unple_nomask	acq1_nomask	1	19	0	0	300	300	0	0	915	46	1	0	lachen	tolerant	helfen	treu	freundlich	schön	leiden	tyrannisch	hindern	tot	fanatisch	schlecht	spielen	fair	loyal	retten	schlau	ehrlich	strafen	faul	lasch	rächen	schroff	eitel	1	blank2r.bmp	0	1	+	0	1	blank2r.bmp	500	1	BMVZ	500	1	blank2r.bmp	880	3	hindern	880	0	0	0	0	0	0	0	0	0	0	0	0
2024-05-02	09:03:33	09:08:43	309623	6.6.1	4_exp_EVA_AWA_CON	4	B	A	Rpleas_acq	Oppo	Rpleas	2pleas	acq_US_pleas_nomask	acq1_nomask	1	20	0	0	300	300	0	0	793	50	1	0	lachen	tolerant	helfen	treu	freundlich	schön	leiden	tyrannisch	hindern	tot	fanatisch	schlecht	spielen	fair	loyal	retten	schlau	ehrlich	strafen	faul	lasch	rächen	schroff	eitel	1	blank2r.bmp	0	1	+	0	1	blank2r.bmp	500	1	GKQX	500	1	blank2r.bmp	880	2	tolerant	880	0	0	0	0	0	0	0	0	0	0	0	0
2024-05-02	09:03:33	09:08:45	311671	6.6.1	4_exp_EVA_AWA_CON	4	B	A	Rpleas_acq	Oppo	Rpleas	2pleas	acq_new_pleas_nomask	acq1_nomask	1	21	0	0	300	300	0	0	560	50	1	0	lachen	tolerant	helfen	treu	freundlich	schön	leiden	tyrannisch	hindern	tot	fanatisch	schlecht	spielen	fair	loyal	retten	schlau	ehrlich	strafen	faul	lasch	rächen	schroff	eitel	1	blank2r.bmp	0	1	+	0	1	blank2r.bmp	500	6	C2r.bmp	500	1	blank2r.bmp	880	6	ehrlich	880	0	0	0	0	0	0	0	0	0	0	0	0
2024-05-02	09:03:33	09:08:47	314103	6.6.1	4_exp_EVA_AWA_CON	4	B	A	Rpleas_acq	Oppo	Rpleas	2pleas	acq_new_unple_nomask	acq1_nomask	1	22	0	0	300	300	0	0	951	46	1	0	lachen	tolerant	helfen	treu	freundlich	schön	leiden	tyrannisch	hindern	tot	fanatisch	schlecht	spielen	fair	loyal	retten	schlau	ehrlich	strafen	faul	lasch	rächen	schroff	eitel	1	blank2r.bmp	0	1	+	0	1	blank2r.bmp	500	4	B4r.bmp	500	1	blank2r.bmp	880	3	lasch	880	0	0	0	0	0	0	0	0	0	0	0	0
2024-05-02	09:03:33	09:08:49	316095	6.6.1	4_exp_EVA_AWA_CON	4	B	A	Rpleas_acq	Oppo	Rpleas	2pleas	acq_new_pleas_nomask	acq1_nomask	1	23	0	0	300	300	0	0	511	50	1	0	lachen	tolerant	helfen	treu	freundlich	schön	leiden	tyrannisch	hindern	tot	fanatisch	schlecht	spielen	fair	loyal	retten	schlau	ehrlich	strafen	faul	lasch	rächen	schroff	eitel	1	blank2r.bmp	0	1	+	0	1	blank2r.bmp	500	1	B1r.bmp	500	1	blank2r.bmp	880	1	spielen	880	0	0	0	0	0	0	0	0	0	0	0	0
2024-05-02	09:03:33	09:08:51	318343	6.6.1	4_exp_EVA_AWA_CON	4	B	A	Rpleas_acq	Oppo	Rpleas	2pleas	acq_new_unple_nomask	acq1_nomask	1	24	0	0	300	300	0	0	758	46	1	0	lachen	tolerant	helfen	treu	freundlich	schön	leiden	tyrannisch	hindern	tot	fanatisch	schlecht	spielen	fair	loyal	retten	schlau	ehrlich	strafen	faul	lasch	rächen	schroff	eitel	1	blank2r.bmp	0	1	+	0	1	blank2r.bmp	500	3	B3r.bmp	500	1	blank2r.bmp	880	4	rächen	880	0	0	0	0	0	0	0	0	0	0	0	0
2024-05-02	09:03:33	09:08:53	320359	6.6.1	4_exp_EVA_AWA_CON	4	B	A	Rpleas_acq	Oppo	Rpleas	2pleas	acq_US_pleas_nomask	acq1_nomask	1	25	0	0	300	300	0	0	532	50	1	0	lachen	tolerant	helfen	treu	freundlich	schön	leiden	tyrannisch	hindern	tot	fanatisch	schlecht	spielen	fair	loyal	retten	schlau	ehrlich	strafen	faul	lasch	rächen	schroff	eitel	1	blank2r.bmp	0	1	+	0	1	blank2r.bmp	500	1	GKQX	500	1	blank2r.bmp	880	6	schön	880	0	0	0	0	0	0	0	0	0	0	0	0
2024-05-02	09:03:33	09:08:56	322615	6.6.1	4_exp_EVA_AWA_CON	4	B	A	Rpleas_acq	Oppo	Rpleas	2pleas	acq_US_unple_nomask	acq1_nomask	1	26	0	0	300	300	0	0	767	46	1	0	lachen	tolerant	helfen	treu	freundlich	schön	leiden	tyrannisch	hindern	tot	fanatisch	schlecht	spielen	fair	loyal	retten	schlau	ehrlich	strafen	faul	lasch	rächen	schroff	eitel	1	blank2r.bmp	0	1	+	0	1	blank2r.bmp	500	1	BMVZ	500	1	blank2r.bmp	880	1	leiden	880	0	0	0	0	0	0	0	0	0	0	0	0
2024-05-02	09:03:33	09:08:58	324623	6.6.1	4_exp_EVA_AWA_CON	4	B	A	Rpleas_acq	Oppo	Rpleas	2pleas	acq_US_unple_nomask	acq1_nomask	1	27	0	0	300	300	0	0	524	46	1	0	lachen	tolerant	helfen	treu	freundlich	schön	leiden	tyrannisch	hindern	tot	fanatisch	schlecht	spielen	fair	loyal	retten	schlau	ehrlich	strafen	faul	lasch	rächen	schroff	eitel	1	blank2r.bmp	0	1	+	0	1	blank2r.bmp	500	1	BMVZ	500	1	blank2r.bmp	880	6	schlecht	880	0	0	0	0	0	0	0	0	0	0	0	0
2024-05-02	09:03:33	09:09:00	326631	6.6.1	4_exp_EVA_AWA_CON	4	B	A	Rpleas_acq	Oppo	Rpleas	2pleas	acq_US_unple_nomask	acq1_nomask	1	28	0	0	300	300	0	0	520	46	1	0	lachen	tolerant	helfen	treu	freundlich	schön	leiden	tyrannisch	hindern	tot	fanatisch	schlecht	spielen	fair	loyal	retten	schlau	ehrlich	strafen	faul	lasch	rächen	schroff	eitel	1	blank2r.bmp	0	1	+	0	1	blank2r.bmp	500	1	BMVZ	500	1	blank2r.bmp	880	2	tyrannisch	880	0	0	0	0	0	0	0	0	0	0	0	0
2024-05-02	09:03:33	09:09:02	329079	6.6.1	4_exp_EVA_AWA_CON	4	B	A	Rpleas_acq	Oppo	Rpleas	2pleas	acq_new_unple_nomask	acq1_nomask	1	29	0	0	300	300	0	0	957	46	1	0	lachen	tolerant	helfen	treu	freundlich	schön	leiden	tyrannisch	hindern	tot	fanatisch	schlecht	spielen	fair	loyal	retten	schlau	ehrlich	strafen	faul	lasch	rächen	schroff	eitel	1	blank2r.bmp	0	1	+	0	1	blank2r.bmp	500	8	C4r.bmp	500	1	blank2r.bmp	880	5	schroff	880	0	0	0	0	0	0	0	0	0	0	0	0
2024-05-02	09:03:33	09:09:05	331487	6.6.1	4_exp_EVA_AWA_CON	4	B	A	Rpleas_acq	Oppo	Rpleas	2pleas	acq_US_pleas_nomask	acq1_nomask	1	30	0	0	300	300	0	0	923	50	1	0	lachen	tolerant	helfen	treu	freundlich	schön	leiden	tyrannisch	hindern	tot	fanatisch	schlecht	spielen	fair	loyal	retten	schlau	ehrlich	strafen	faul	lasch	rächen	schroff	eitel	1	blank2r.bmp	0	1	+	0	1	blank2r.bmp	500	1	GKQX	500	1	blank2r.bmp	880	4	treu	880	0	0	0	0	0	0	0	0	0	0	0	0
2024-05-02	09:03:33	09:09:07	333759	6.6.1	4_exp_EVA_AWA_CON	4	B	A	Rpleas_acq	Oppo	Rpleas	2pleas	acq_US_pleas_nomask	acq1_nomask	1	31	0	0	300	300	0	0	784	50	1	0	lachen	tolerant	helfen	treu	freundlich	schön	leiden	tyrannisch	hindern	tot	fanatisch	schlecht	spielen	fair	loyal	retten	schlau	ehrlich	strafen	faul	lasch	rächen	schroff	eitel	1	blank2r.bmp	0	1	+	0	1	blank2r.bmp	500	1	GKQX	500	1	blank2r.bmp	880	3	helfen	880	0	0	0	0	0	0	0	0	0	0	0	0
2024-05-02	09:03:33	09:09:09	335967	6.6.1	4_exp_EVA_AWA_CON	4	B	A	Rpleas_acq	Oppo	Rpleas	2pleas	acq_new_unple_nomask	acq1_nomask	1	32	0	0	300	300	0	0	720	46	1	0	lachen	tolerant	helfen	treu	freundlich	schön	leiden	tyrannisch	hindern	tot	fanatisch	schlecht	spielen	fair	loyal	retten	schlau	ehrlich	strafen	faul	lasch	rächen	schroff	eitel	1	blank2r.bmp	0	1	+	0	1	blank2r.bmp	500	2	B2r.bmp	500	1	blank2r.bmp	880	2	faul	880	0	0	0	0	0	0	0	0	0	0	0	0
2024-05-02	09:03:33	09:09:11	338151	6.6.1	4_exp_EVA_AWA_CON	4	B	A	Rpleas_acq	Oppo	Rpleas	2pleas	acq_new_unple_nomask	acq1_nomask	1	33	0	0	300	300	0	0	703	46	1	0	lachen	tolerant	helfen	treu	freundlich	schön	leiden	tyrannisch	hindern	tot	fanatisch	schlecht	spielen	fair	loyal	retten	schlau	ehrlich	strafen	faul	lasch	rächen	schroff	eitel	1	blank2r.bmp	0	1	+	0	1	blank2r.bmp	500	5	C1r.bmp	500	1	blank2r.bmp	880	3	lasch	880	0	0	0	0	0	0	0	0	0	0	0	0
2024-05-02	09:03:33	09:09:13	340407	6.6.1	4_exp_EVA_AWA_CON	4	B	A	Rpleas_acq	Oppo	Rpleas	2pleas	acq_new_pleas_nomask	acq1_nomask	1	34	0	0	300	300	0	0	767	50	1	0	lachen	tolerant	helfen	treu	freundlich	schön	leiden	tyrannisch	hindern	tot	fanatisch	schlecht	spielen	fair	loyal	retten	schlau	ehrlich	strafen	faul	lasch	rächen	schroff	eitel	1	blank2r.bmp	0	1	+	0	1	blank2r.bmp	500	7	C3r.bmp	500	1	blank2r.bmp	880	4	retten	880	0	0	0	0	0	0	0	0	0	0	0	0
2024-05-02	09:03:33	09:09:16	342503	6.6.1	4_exp_EVA_AWA_CON	4	B	A	Rpleas_acq	Oppo	Rpleas	2pleas	acq_new_pleas_nomask	acq1_nomask	1	35	0	0	300	300	0	0	612	50	1	0	lachen	tolerant	helfen	treu	freundlich	schön	leiden	tyrannisch	hindern	tot	fanatisch	schlecht	spielen	fair	loyal	retten	schlau	ehrlich	strafen	faul	lasch	rächen	schroff	eitel	1	blank2r.bmp	0	1	+	0	1	blank2r.bmp	500	8	C4r.bmp	500	1	blank2r.bmp	880	2	fair	880	0	0	0	0	0	0	0	0	0	0	0	0
2024-05-02	09:03:33	09:09:18	344959	6.6.1	4_exp_EVA_AWA_CON	4	B	A	Rpleas_acq	Oppo	Rpleas	2pleas	acq_new_pleas_nomask	acq1_nomask	1	36	0	0	300	300	0	0	967	50	1	0	lachen	tolerant	helfen	treu	freundlich	schön	leiden	tyrannisch	hindern	tot	fanatisch	schlecht	spielen	fair	loyal	retten	schlau	ehrlich	strafen	faul	lasch	rächen	schroff	eitel	1	blank2r.bmp	0	1	+	0	1	blank2r.bmp	500	4	B4r.bmp	500	1	blank2r.bmp	880	5	schlau	880	0	0	0	0	0	0	0	0	0	0	0	0
2024-05-02	09:03:33	09:09:58	385345	6.6.1	4_exp_EVA_AWA_CON	4	B	A	Rpleas_acq	Oppo	Rpleas	2pleas	acq_new_pleas_nomask	acq2_nomask	2	1	480	0	300	300	0	0	1247	50	1	0	lachen	tolerant	helfen	treu	freundlich	schön	leiden	tyrannisch	hindern	tot	fanatisch	schlecht	spielen	fair	loyal	retten	schlau	ehrlich	strafen	faul	lasch	rächen	schroff	eitel	1	blank2r.bmp	0	1	+	0	1	blank2r.bmp	500	7	C3r.bmp	500	1	blank2r.bmp	880	1	spielen	880	1	!	1312	1	!	-1	0	0	0	0	0	0
2024-05-02	09:03:33	09:10:01	387809	6.6.1	4_exp_EVA_AWA_CON	4	B	A	Rpleas_acq	Oppo	Rpleas	2pleas	acq_new_pleas_nomask	acq2_nomask	2	2	480	0	300	300	0	0	689	50	1	0	lachen	tolerant	helfen	treu	freundlich	schön	leiden	tyrannisch	hindern	tot	fanatisch	schlecht	spielen	fair	loyal	retten	schlau	ehrlich	strafen	faul	lasch	rächen	schroff	eitel	1	blank2r.bmp	0	1	+	0	1	blank2r.bmp	500	1	B1r.bmp	500	1	blank2r.bmp	880	3	loyal	880	1	!	1312	1	!	-1	0	0	0	0	0	0
2024-05-02	09:03:33	09:10:03	390224	6.6.1	4_exp_EVA_AWA_CON	4	B	A	Rpleas_acq	Oppo	Rpleas	2pleas	acq_new_unple_nomask	acq2_nomask	2	3	480	0	300	300	0	0	634	46	1	0	lachen	tolerant	helfen	treu	freundlich	schön	leiden	tyrannisch	hindern	tot	fanatisch	schlecht	spielen	fair	loyal	retten	schlau	ehrlich	strafen	faul	lasch	rächen	schroff	eitel	1	blank2r.bmp	0	1	+	0	1	blank2r.bmp	500	3	B3r.bmp	500	1	blank2r.bmp	880	1	strafen	880	1	!	1312	1	!	-1	0	0	0	0	0	0
2024-05-02	09:03:33	09:10:06	392523	6.6.1	4_exp_EVA_AWA_CON	4	B	A	Rpleas_acq	Oppo	Rpleas	2pleas	acq_new_pleas_nomask	acq2_nomask	2	4	480	1	300	300	0	0	518	50	1	0	lachen	tolerant	helfen	treu	freundlich	schön	leiden	tyrannisch	hindern	tot	fanatisch	schlecht	spielen	fair	loyal	retten	schlau	ehrlich	strafen	faul	lasch	rächen	schroff	eitel	1	blank2r.bmp	0	1	+	0	1	blank2r.bmp	500	5	C1r.bmp	500	1	blank2r.bmp	880	6	ehrlich	880	1	!	1312	1	!	1420	0	0	0	0	0	0
2024-05-02	09:03:33	09:10:08	395076	6.6.1	4_exp_EVA_AWA_CON	4	B	A	Rpleas_acq	Oppo	Rpleas	2pleas	acq_US_unple_nomask	acq2_nomask	2	5	480	0	300	300	0	0	569	50	0	0	lachen	tolerant	helfen	treu	freundlich	schön	leiden	tyrannisch	hindern	tot	fanatisch	schlecht	spielen	fair	loyal	retten	schlau	ehrlich	strafen	faul	lasch	rächen	schroff	eitel	1	blank2r.bmp	0	1	+	0	1	blank2r.bmp	500	1	BMVZ	500	1	blank2r.bmp	880	5	fanatisch	880	1	FEHLER	1763	1	!	1313	1	!	-1	0	0	0
2024-05-02	09:03:33	09:10:10	397266	6.6.1	4_exp_EVA_AWA_CON	4	B	A	Rpleas_acq	Oppo	Rpleas	2pleas	acq_US_pleas_nomask	acq2_nomask	2	6	480	1	300	300	0	0	419	46	0	0	lachen	tolerant	helfen	treu	freundlich	schön	leiden	tyrannisch	hindern	tot	fanatisch	schlecht	spielen	fair	loyal	retten	schlau	ehrlich	strafen	faul	lasch	rächen	schroff	eitel	1	blank2r.bmp	0	1	+	0	1	blank2r.bmp	500	1	GKQX	500	1	blank2r.bmp	880	1	lachen	880	1	FEHLER	1611	1	!	1313	1	!	1319	0	0	0
2024-05-02	09:03:33	09:10:12	399379	6.6.1	4_exp_EVA_AWA_CON	4	B	A	Rpleas_acq	Oppo	Rpleas	2pleas	acq_US_pleas_nomask	acq2_nomask	2	7	480	1	300	300	0	0	530	50	1	0	lachen	tolerant	helfen	treu	freundlich	schön	leiden	tyrannisch	hindern	tot	fanatisch	schlecht	spielen	fair	loyal	retten	schlau	ehrlich	strafen	faul	lasch	rächen	schroff	eitel	1	blank2r.bmp	0	1	+	0	1	blank2r.bmp	500	1	GKQX	500	1	blank2r.bmp	880	2	tolerant	880	1	!	1312	1	!	1432	0	0	0	0	0	0
2024-05-02	09:03:33	09:10:15	401792	6.6.1	4_exp_EVA_AWA_CON	4	B	A	Rpleas_acq	Oppo	Rpleas	2pleas	acq_new_unple_nomask	acq2_nomask	2	8	480	0	300	300	0	0	634	46	1	0	lachen	tolerant	helfen	treu	freundlich	schön	leiden	tyrannisch	hindern	tot	fanatisch	schlecht	spielen	fair	loyal	retten	schlau	ehrlich	strafen	faul	lasch	rächen	schroff	eitel	1	blank2r.bmp	0	1	+	0	1	blank2r.bmp	500	6	C2r.bmp	500	1	blank2r.bmp	880	6	eitel	880	1	!	1312	1	!	-1	0	0	0	0	0	0
2024-05-02	09:03:33	09:10:17	404305	6.6.1	4_exp_EVA_AWA_CON	4	B	A	Rpleas_acq	Oppo	Rpleas	2pleas	acq_US_unple_nomask	acq2_nomask	2	9	480	0	300	300	0	0	735	46	1	0	lachen	tolerant	helfen	treu	freundlich	schön	leiden	tyrannisch	hindern	tot	fanatisch	schlecht	spielen	fair	loyal	retten	schlau	ehrlich	strafen	faul	lasch	rächen	schroff	eitel	1	blank2r.bmp	0	1	+	0	1	blank2r.bmp	500	1	BMVZ	500	1	blank2r.bmp	880	3	hindern	880	1	!	1313	1	!	-1	0	0	0	0	0	0
2024-05-02	09:03:33	09:10:20	406578	6.6.1	4_exp_EVA_AWA_CON	4	B	A	Rpleas_acq	Oppo	Rpleas	2pleas	acq_US_pleas_nomask	acq2_nomask	2	10	480	1	300	300	0	0	495	50	1	0	lachen	tolerant	helfen	treu	freundlich	schön	leiden	tyrannisch	hindern	tot	fanatisch	schlecht	spielen	fair	loyal	retten	schlau	ehrlich	strafen	faul	lasch	rächen	schroff	eitel	1	blank2r.bmp	0	1	+	0	1	blank2r.bmp	500	1	GKQX	500	1	blank2r.bmp	880	5	freundlich	880	1	!	1313	1	!	1397	0	0	0	0	0	0
2024-05-02	09:03:33	09:10:22	408929	6.6.1	4_exp_EVA_AWA_CON	4	B	A	Rpleas_acq	Oppo	Rpleas	2pleas	acq_US_unple_nomask	acq2_nomask	2	11	480	0	300	300	0	0	576	46	1	0	lachen	tolerant	helfen	treu	freundlich	schön	leiden	tyrannisch	hindern	tot	fanatisch	schlecht	spielen	fair	loyal	retten	schlau	ehrlich	strafen	faul	lasch	rächen	schroff	eitel	1	blank2r.bmp	0	1	+	0	1	blank2r.bmp	500	1	BMVZ	500	1	blank2r.bmp	880	4	tot	880	1	!	1312	1	!	-1	0	0	0	0	0	0
2024-05-02	09:03:33	09:10:24	411195	6.6.1	4_exp_EVA_AWA_CON	4	B	A	Rpleas_acq	Oppo	Rpleas	2pleas	acq_new_unple_nomask	acq2_nomask	2	12	480	1	300	300	0	0	488	46	1	0	lachen	tolerant	helfen	treu	freundlich	schön	leiden	tyrannisch	hindern	tot	fanatisch	schlecht	spielen	fair	loyal	retten	schlau	ehrlich	strafen	faul	lasch	rächen	schroff	eitel	1	blank2r.bmp	0	1	+	0	1	blank2r.bmp	500	2	B2r.bmp	500	1	blank2r.bmp	880	4	rächen	880	1	!	1312	1	!	1390	0	0	0	0	0	0
2024-05-02	09:03:33	09:10:27	413490	6.6.1	4_exp_EVA_AWA_CON	4	B	A	Rpleas_acq	Oppo	Rpleas	2pleas	acq_US_pleas_nomask	acq2_nomask	2	13	480	1	300	300	0	0	513	50	1	0	lachen	tolerant	helfen	treu	freundlich	schön	leiden	tyrannisch	hindern	tot	fanatisch	schlecht	spielen	fair	loyal	retten	schlau	ehrlich	strafen	faul	lasch	rächen	schroff	eitel	1	blank2r.bmp	0	1	+	0	1	blank2r.bmp	500	1	GKQX	500	1	blank2r.bmp	880	3	helfen	880	1	!	1312	1	!	1414	0	0	0	0	0	0
2024-05-02	09:03:33	09:10:29	416036	6.6.1	4_exp_EVA_AWA_CON	4	B	A	Rpleas_acq	Oppo	Rpleas	2pleas	acq_new_unple_nomask	acq2_nomask	2	14	480	0	300	300	0	0	565	50	0	0	lachen	tolerant	helfen	treu	freundlich	schön	leiden	tyrannisch	hindern	tot	fanatisch	schlecht	spielen	fair	loyal	retten	schlau	ehrlich	strafen	faul	lasch	rächen	schroff	eitel	1	blank2r.bmp	0	1	+	0	1	blank2r.bmp	500	3	B3r.bmp	500	1	blank2r.bmp	880	1	strafen	880	1	FEHLER	1759	1	!	1313	1	!	-1	0	0	0
2024-05-02	09:03:33	09:10:31	418201	6.6.1	4_exp_EVA_AWA_CON	4	B	A	Rpleas_acq	Oppo	Rpleas	2pleas	acq_new_pleas_nomask	acq2_nomask	2	15	480	0	300	300	0	0	592	50	1	0	lachen	tolerant	helfen	treu	freundlich	schön	leiden	tyrannisch	hindern	tot	fanatisch	schlecht	spielen	fair	loyal	retten	schlau	ehrlich	strafen	faul	lasch	rächen	schroff	eitel	1	blank2r.bmp	0	1	+	0	1	blank2r.bmp	500	7	C3r.bmp	500	1	blank2r.bmp	880	1	spielen	880	1	!	1312	1	!	-1	0	0	0	0	0	0
2024-05-02	09:03:33	09:10:34	420483	6.6.1	4_exp_EVA_AWA_CON	4	B	A	Rpleas_acq	Oppo	Rpleas	2pleas	acq_US_unple_nomask	acq2_nomask	2	16	480	1	300	300	0	0	500	46	1	0	lachen	tolerant	helfen	treu	freundlich	schön	leiden	tyrannisch	hindern	tot	fanatisch	schlecht	spielen	fair	loyal	retten	schlau	ehrlich	strafen	faul	lasch	rächen	schroff	eitel	1	blank2r.bmp	0	1	+	0	1	blank2r.bmp	500	1	BMVZ	500	1	blank2r.bmp	880	1	leiden	880	1	!	1312	1	!	1402	0	0	0	0	0	0
2024-05-02	09:03:33	09:10:36	422778	6.6.1	4_exp_EVA_AWA_CON	4	B	A	Rpleas_acq	Oppo	Rpleas	2pleas	acq_new_pleas_nomask	acq2_nomask	2	17	480	1	300	300	0	0	515	50	1	0	lachen	tolerant	helfen	treu	freundlich	schön	leiden	tyrannisch	hindern	tot	fanatisch	schlecht	spielen	fair	loyal	retten	schlau	ehrlich	strafen	faul	lasch	rächen	schroff	eitel	1	blank2r.bmp	0	1	+	0	1	blank2r.bmp	500	2	B2r.bmp	500	1	blank2r.bmp	880	5	schlau	880	1	!	1313	1	!	1416	0	0	0	0	0	0
2024-05-02	09:03:33	09:10:38	425137	6.6.1	4_exp_EVA_AWA_CON	4	B	A	Rpleas_acq	Oppo	Rpleas	2pleas	acq_new_unple_nomask	acq2_nomask	2	18	480	0	300	300	0	0	583	46	1	0	lachen	tolerant	helfen	treu	freundlich	schön	leiden	tyrannisch	hindern	tot	fanatisch	schlecht	spielen	fair	loyal	retten	schlau	ehrlich	strafen	faul	lasch	rächen	schroff	eitel	1	blank2r.bmp	0	1	+	0	1	blank2r.bmp	500	4	B4r.bmp	500	1	blank2r.bmp	880	3	lasch	880	1	!	1312	1	!	-1	0	0	0	0	0	0
2024-05-02	09:03:33	09:10:40	427347	6.6.1	4_exp_EVA_AWA_CON	4	B	A	Rpleas_acq	Oppo	Rpleas	2pleas	acq_US_pleas_nomask	acq2_nomask	2	19	480	1	300	300	0	0	430	50	1	0	lachen	tolerant	helfen	treu	freundlich	schön	leiden	tyrannisch	hindern	tot	fanatisch	schlecht	spielen	fair	loyal	retten	schlau	ehrlich	strafen	faul	lasch	rächen	schroff	eitel	1	blank2r.bmp	0	1	+	0	1	blank2r.bmp	500	1	GKQX	500	1	blank2r.bmp	880	5	freundlich	880	1	!	1313	1	!	1332	0	0	0	0	0	0
2024-05-02	09:03:33	09:10:43	429554	6.6.1	4_exp_EVA_AWA_CON	4	B	A	Rpleas_acq	Oppo	Rpleas	2pleas	acq_US_unple_nomask	acq2_nomask	2	20	480	1	300	300	0	0	426	46	1	0	lachen	tolerant	helfen	treu	freundlich	schön	leiden	tyrannisch	hindern	tot	fanatisch	schlecht	spielen	fair	loyal	retten	schlau	ehrlich	strafen	faul	lasch	rächen	schroff	eitel	1	blank2r.bmp	0	1	+	0	1	blank2r.bmp	500	1	BMVZ	500	1	blank2r.bmp	880	3	hindern	880	1	!	1312	1	!	1328	0	0	0	0	0	0
2024-05-02	09:03:33	09:10:45	431904	6.6.1	4_exp_EVA_AWA_CON	4	B	A	Rpleas_acq	Oppo	Rpleas	2pleas	acq_US_unple_nomask	acq2_nomask	2	21	480	0	300	300	0	0	577	46	1	0	lachen	tolerant	helfen	treu	freundlich	schön	leiden	tyrannisch	hindern	tot	fanatisch	schlecht	spielen	fair	loyal	retten	schlau	ehrlich	strafen	faul	lasch	rächen	schroff	eitel	1	blank2r.bmp	0	1	+	0	1	blank2r.bmp	500	1	BMVZ	500	1	blank2r.bmp	880	6	schlecht	880	1	!	1312	1	!	-1	0	0	0	0	0	0
2024-05-02	09:03:33	09:10:47	434096	6.6.1	4_exp_EVA_AWA_CON	4	B	A	Rpleas_acq	Oppo	Rpleas	2pleas	acq_US_pleas_nomask	acq2_nomask	2	22	480	1	300	300	0	0	417	50	1	0	lachen	tolerant	helfen	treu	freundlich	schön	leiden	tyrannisch	hindern	tot	fanatisch	schlecht	spielen	fair	loyal	retten	schlau	ehrlich	strafen	faul	lasch	rächen	schroff	eitel	1	blank2r.bmp	0	1	+	0	1	blank2r.bmp	500	1	GKQX	500	1	blank2r.bmp	880	1	lachen	880	1	!	1312	1	!	1317	0	0	0	0	0	0
2024-05-02	09:03:33	09:10:50	436457	6.6.1	4_exp_EVA_AWA_CON	4	B	A	Rpleas_acq	Oppo	Rpleas	2pleas	acq_new_pleas_nomask	acq2_nomask	2	23	480	0	300	300	0	0	586	50	1	0	lachen	tolerant	helfen	treu	freundlich	schön	leiden	tyrannisch	hindern	tot	fanatisch	schlecht	spielen	fair	loyal	retten	schlau	ehrlich	strafen	faul	lasch	rächen	schroff	eitel	1	blank2r.bmp	0	1	+	0	1	blank2r.bmp	500	8	C4r.bmp	500	1	blank2r.bmp	880	4	retten	880	1	!	1313	1	!	-1	0	0	0	0	0	0
2024-05-02	09:03:33	09:10:52	438715	6.6.1	4_exp_EVA_AWA_CON	4	B	A	Rpleas_acq	Oppo	Rpleas	2pleas	acq_new_unple_nomask	acq2_nomask	2	24	480	1	300	300	0	0	480	46	1	0	lachen	tolerant	helfen	treu	freundlich	schön	leiden	tyrannisch	hindern	tot	fanatisch	schlecht	spielen	fair	loyal	retten	schlau	ehrlich	strafen	faul	lasch	rächen	schroff	eitel	1	blank2r.bmp	0	1	+	0	1	blank2r.bmp	500	5	C1r.bmp	500	1	blank2r.bmp	880	2	faul	880	1	!	1312	1	!	1382	0	0	0	0	0	0
2024-05-02	09:03:33	09:10:54	440970	6.6.1	4_exp_EVA_AWA_CON	4	B	A	Rpleas_acq	Oppo	Rpleas	2pleas	acq_US_pleas_nomask	acq2_nomask	2	25	480	1	300	300	0	0	475	50	1	0	lachen	tolerant	helfen	treu	freundlich	schön	leiden	tyrannisch	hindern	tot	fanatisch	schlecht	spielen	fair	loyal	retten	schlau	ehrlich	strafen	faul	lasch	rächen	schroff	eitel	1	blank2r.bmp	0	1	+	0	1	blank2r.bmp	500	1	GKQX	500	1	blank2r.bmp	880	6	schön	880	1	!	1313	1	!	1376	0	0	0	0	0	0
2024-05-02	09:03:33	09:10:56	443303	6.6.1	4_exp_EVA_AWA_CON	4	B	A	Rpleas_acq	Oppo	Rpleas	2pleas	acq_US_pleas_nomask	acq2_nomask	2	26	480	0	300	300	0	0	560	50	1	0	lachen	tolerant	helfen	treu	freundlich	schön	leiden	tyrannisch	hindern	tot	fanatisch	schlecht	spielen	fair	loyal	retten	schlau	ehrlich	strafen	faul	lasch	rächen	schroff	eitel	1	blank2r.bmp	0	1	+	0	1	blank2r.bmp	500	1	GKQX	500	1	blank2r.bmp	880	4	treu	880	1	!	1313	1	!	-1	0	0	0	0	0	0
2024-05-02	09:03:33	09:10:59	445473	6.6.1	4_exp_EVA_AWA_CON	4	B	A	Rpleas_acq	Oppo	Rpleas	2pleas	acq_US_unple_nomask	acq2_nomask	2	27	480	0	300	300	0	0	396	46	1	0	lachen	tolerant	helfen	treu	freundlich	schön	leiden	tyrannisch	hindern	tot	fanatisch	schlecht	spielen	fair	loyal	retten	schlau	ehrlich	strafen	faul	lasch	rächen	schroff	eitel	1	blank2r.bmp	0	1	+	0	1	blank2r.bmp	500	1	BMVZ	500	1	blank2r.bmp	880	4	tot	880	1	!	-1	1	!	-1	0	0	0	0	0	0
2024-05-02	09:03:33	09:11:01	447779	6.6.1	4_exp_EVA_AWA_CON	4	B	A	Rpleas_acq	Oppo	Rpleas	2pleas	acq_US_pleas_nomask	acq2_nomask	2	28	480	1	300	300	0	0	529	50	1	0	lachen	tolerant	helfen	treu	freundlich	schön	leiden	tyrannisch	hindern	tot	fanatisch	schlecht	spielen	fair	loyal	retten	schlau	ehrlich	strafen	faul	lasch	rächen	schroff	eitel	1	blank2r.bmp	0	1	+	0	1	blank2r.bmp	500	1	GKQX	500	1	blank2r.bmp	880	2	tolerant	880	1	!	1313	1	!	1430	0	0	0	0	0	0
2024-05-02	09:03:33	09:11:03	450257	6.6.1	4_exp_EVA_AWA_CON	4	B	A	Rpleas_acq	Oppo	Rpleas	2pleas	acq_new_pleas_nomask	acq2_nomask	2	29	480	0	300	300	0	0	697	50	1	0	lachen	tolerant	helfen	treu	freundlich	schön	leiden	tyrannisch	hindern	tot	fanatisch	schlecht	spielen	fair	loyal	retten	schlau	ehrlich	strafen	faul	lasch	rächen	schroff	eitel	1	blank2r.bmp	0	1	+	0	1	blank2r.bmp	500	1	B1r.bmp	500	1	blank2r.bmp	880	6	ehrlich	880	1	!	1312	1	!	-1	0	0	0	0	0	0
2024-05-02	09:03:33	09:11:06	452570	6.6.1	4_exp_EVA_AWA_CON	4	B	A	Rpleas_acq	Oppo	Rpleas	2pleas	acq_new_pleas_nomask	acq2_nomask	2	30	480	1	300	300	0	0	537	50	1	0	lachen	tolerant	helfen	treu	freundlich	schön	leiden	tyrannisch	hindern	tot	fanatisch	schlecht	spielen	fair	loyal	retten	schlau	ehrlich	strafen	faul	lasch	rächen	schroff	eitel	1	blank2r.bmp	0	1	+	0	1	blank2r.bmp	500	6	C2r.bmp	500	1	blank2r.bmp	880	3	loyal	880	1	!	1312	1	!	1439	0	0	0	0	0	0
2024-05-02	09:03:33	09:11:08	454874	6.6.1	4_exp_EVA_AWA_CON	4	B	A	Rpleas_acq	Oppo	Rpleas	2pleas	acq_new_unple_nomask	acq2_nomask	2	31	480	1	300	300	0	0	520	46	1	0	lachen	tolerant	helfen	treu	freundlich	schön	leiden	tyrannisch	hindern	tot	fanatisch	schlecht	spielen	fair	loyal	retten	schlau	ehrlich	strafen	faul	lasch	rächen	schroff	eitel	1	blank2r.bmp	0	1	+	0	1	blank2r.bmp	500	7	C3r.bmp	500	1	blank2r.bmp	880	6	eitel	880	1	!	1313	1	!	1422	0	0	0	0	0	0
2024-05-02	09:03:33	09:11:10	457316	6.6.1	4_exp_EVA_AWA_CON	4	B	A	Rpleas_acq	Oppo	Rpleas	2pleas	acq_US_unple_nomask	acq2_nomask	2	32	480	1	300	300	0	0	459	50	0	0	lachen	tolerant	helfen	treu	freundlich	schön	leiden	tyrannisch	hindern	tot	fanatisch	schlecht	spielen	fair	loyal	retten	schlau	ehrlich	strafen	faul	lasch	rächen	schroff	eitel	1	blank2r.bmp	0	1	+	0	1	blank2r.bmp	500	1	BMVZ	500	1	blank2r.bmp	880	2	tyrannisch	880	1	FEHLER	1653	1	!	1313	1	!	1360	0	0	0
2024-05-02	09:03:33	09:11:13	459603	6.6.1	4_exp_EVA_AWA_CON	4	B	A	Rpleas_acq	Oppo	Rpleas	2pleas	acq_US_unple_nomask	acq2_nomask	2	33	480	1	300	300	0	0	505	50	0	0	lachen	tolerant	helfen	treu	freundlich	schön	leiden	tyrannisch	hindern	tot	fanatisch	schlecht	spielen	fair	loyal	retten	schlau	ehrlich	strafen	faul	lasch	rächen	schroff	eitel	1	blank2r.bmp	0	1	+	0	1	blank2r.bmp	500	1	BMVZ	500	1	blank2r.bmp	880	5	fanatisch	880	1	FEHLER	1698	1	!	1312	1	!	1407	0	0	0
2024-05-02	09:03:33	09:11:15	461674	6.6.1	4_exp_EVA_AWA_CON	4	B	A	Rpleas_acq	Oppo	Rpleas	2pleas	acq_new_unple_nomask	acq2_nomask	2	34	480	1	300	300	0	0	496	46	1	0	lachen	tolerant	helfen	treu	freundlich	schön	leiden	tyrannisch	hindern	tot	fanatisch	schlecht	spielen	fair	loyal	retten	schlau	ehrlich	strafen	faul	lasch	rächen	schroff	eitel	1	blank2r.bmp	0	1	+	0	1	blank2r.bmp	500	3	B3r.bmp	500	1	blank2r.bmp	880	4	rächen	880	1	!	1313	1	!	1397	0	0	0	0	0	0
2024-05-02	09:03:33	09:11:17	464041	6.6.1	4_exp_EVA_AWA_CON	4	B	A	Rpleas_acq	Oppo	Rpleas	2pleas	acq_new_unple_nomask	acq2_nomask	2	35	480	0	300	300	0	0	592	46	1	0	lachen	tolerant	helfen	treu	freundlich	schön	leiden	tyrannisch	hindern	tot	fanatisch	schlecht	spielen	fair	loyal	retten	schlau	ehrlich	strafen	faul	lasch	rächen	schroff	eitel	1	blank2r.bmp	0	1	+	0	1	blank2r.bmp	500	4	B4r.bmp	500	1	blank2r.bmp	880	5	schroff	880	1	!	1313	1	!	-1	0	0	0	0	0	0
2024-05-02	09:03:33	09:11:20	466500	6.6.1	4_exp_EVA_AWA_CON	4	B	A	Rpleas_acq	Oppo	Rpleas	2pleas	acq_new_pleas_nomask	acq2_nomask	2	36	480	1	300	300	0	0	477	46	0	0	lachen	tolerant	helfen	treu	freundlich	schön	leiden	tyrannisch	hindern	tot	fanatisch	schlecht	spielen	fair	loyal	retten	schlau	ehrlich	strafen	faul	lasch	rächen	schroff	eitel	1	blank2r.bmp	0	1	+	0	1	blank2r.bmp	500	5	C1r.bmp	500	1	blank2r.bmp	880	2	fair	880	1	FEHLER	1670	1	!	1312	1	!	1378	0	0	0
2024-05-02	09:03:33	09:11:33	480361	6.6.1	4_exp_EVA_AWA_CON	4	B	A	Rpleas_acq	Oppo	Rpleas	2pleas	acq_US_pleas_nomask	acq3_nomask	3	1	453	0	300	300	0	0	642	50	1	0	lachen	tolerant	helfen	treu	freundlich	schön	leiden	tyrannisch	hindern	tot	fanatisch	schlecht	spielen	fair	loyal	retten	schlau	ehrlich	strafen	faul	lasch	rächen	schroff	eitel	1	blank2r.bmp	0	1	+	0	1	blank2r.bmp	500	1	GKQX	500	1	blank2r.bmp	880	6	schön	880	1	!	1292	1	!	-1	0	0	0	0	0	0
2024-05-02	09:03:33	09:11:36	482578	6.6.1	4_exp_EVA_AWA_CON	4	B	A	Rpleas_acq	Oppo	Rpleas	2pleas	acq_US_unple_nomask	acq3_nomask	3	2	453	1	300	300	0	0	436	46	1	0	lachen	tolerant	helfen	treu	freundlich	schön	leiden	tyrannisch	hindern	tot	fanatisch	schlecht	spielen	fair	loyal	retten	schlau	ehrlich	strafen	faul	lasch	rächen	schroff	eitel	1	blank2r.bmp	0	1	+	0	1	blank2r.bmp	500	1	BMVZ	500	1	blank2r.bmp	880	4	tot	880	1	!	1292	1	!	1338	0	0	0	0	0	0
2024-05-02	09:03:33	09:11:38	484945	6.6.1	4_exp_EVA_AWA_CON	4	B	A	Rpleas_acq	Oppo	Rpleas	2pleas	acq_US_unple_nomask	acq3_nomask	3	3	453	0	300	300	0	0	593	46	1	0	lachen	tolerant	helfen	treu	freundlich	schön	leiden	tyrannisch	hindern	tot	fanatisch	schlecht	spielen	fair	loyal	retten	schlau	ehrlich	strafen	faul	lasch	rächen	schroff	eitel	1	blank2r.bmp	0	1	+	0	1	blank2r.bmp	500	1	BMVZ	500	1	blank2r.bmp	880	1	leiden	880	1	!	1293	1	!	-1	0	0	0	0	0	0
2024-05-02	09:03:33	09:11:40	487170	6.6.1	4_exp_EVA_AWA_CON	4	B	A	Rpleas_acq	Oppo	Rpleas	2pleas	acq_US_pleas_nomask	acq3_nomask	3	4	453	1	300	300	0	0	445	50	1	0	lachen	tolerant	helfen	treu	freundlich	schön	leiden	tyrannisch	hindern	tot	fanatisch	schlecht	spielen	fair	loyal	retten	schlau	ehrlich	strafen	faul	lasch	rächen	schroff	eitel	1	blank2r.bmp	0	1	+	0	1	blank2r.bmp	500	1	GKQX	500	1	blank2r.bmp	880	4	treu	880	1	!	1293	1	!	1347	0	0	0	0	0	0
2024-05-02	09:03:33	09:11:42	489427	6.6.1	4_exp_EVA_AWA_CON	4	B	A	Rpleas_acq	Oppo	Rpleas	2pleas	acq_US_pleas_nomask	acq3_nomask	3	5	453	1	300	300	0	0	480	50	1	0	lachen	tolerant	helfen	treu	freundlich	schön	leiden	tyrannisch	hindern	tot	fanatisch	schlecht	spielen	fair	loyal	retten	schlau	ehrlich	strafen	faul	lasch	rächen	schroff	eitel	1	blank2r.bmp	0	1	+	0	1	blank2r.bmp	500	1	GKQX	500	1	blank2r.bmp	880	2	tolerant	880	1	!	1293	1	!	1382	0	0	0	0	0	0
2024-05-02	09:03:33	09:11:45	491690	6.6.1	4_exp_EVA_AWA_CON	4	B	A	Rpleas_acq	Oppo	Rpleas	2pleas	acq_US_unple_nomask	acq3_nomask	3	6	453	1	300	300	0	0	482	46	1	0	lachen	tolerant	helfen	treu	freundlich	schön	leiden	tyrannisch	hindern	tot	fanatisch	schlecht	spielen	fair	loyal	retten	schlau	ehrlich	strafen	faul	lasch	rächen	schroff	eitel	1	blank2r.bmp	0	1	+	0	1	blank2r.bmp	500	1	BMVZ	500	1	blank2r.bmp	880	2	tyrannisch	880	1	!	1292	1	!	1384	0	0	0	0	0	0
2024-05-02	09:03:33	09:11:47	493962	6.6.1	4_exp_EVA_AWA_CON	4	B	A	Rpleas_acq	Oppo	Rpleas	2pleas	acq_US_pleas_nomask	acq3_nomask	3	7	453	1	300	300	0	0	493	50	1	0	lachen	tolerant	helfen	treu	freundlich	schön	leiden	tyrannisch	hindern	tot	fanatisch	schlecht	spielen	fair	loyal	retten	schlau	ehrlich	strafen	faul	lasch	rächen	schroff	eitel	1	blank2r.bmp	0	1	+	0	1	blank2r.bmp	500	1	GKQX	500	1	blank2r.bmp	880	3	helfen	880	1	!	1292	1	!	1394	0	0	0	0	0	0
2024-05-02	09:03:33	09:11:49	496258	6.6.1	4_exp_EVA_AWA_CON	4	B	A	Rpleas_acq	Oppo	Rpleas	2pleas	acq_US_unple_nomask	acq3_nomask	3	8	453	1	300	300	0	0	517	46	1	0	lachen	tolerant	helfen	treu	freundlich	schön	leiden	tyrannisch	hindern	tot	fanatisch	schlecht	spielen	fair	loyal	retten	schlau	ehrlich	strafen	faul	lasch	rächen	schroff	eitel	1	blank2r.bmp	0	1	+	0	1	blank2r.bmp	500	1	BMVZ	500	1	blank2r.bmp	880	5	fanatisch	880	1	!	1292	1	!	1419	0	0	0	0	0	0
2024-05-02	09:03:33	09:11:52	498531	6.6.1	4_exp_EVA_AWA_CON	4	B	A	Rpleas_acq	Oppo	Rpleas	2pleas	acq_US_pleas_nomask	acq3_nomask	3	9	453	1	300	300	0	0	488	50	1	0	lachen	tolerant	helfen	treu	freundlich	schön	leiden	tyrannisch	hindern	tot	fanatisch	schlecht	spielen	fair	loyal	retten	schlau	ehrlich	strafen	faul	lasch	rächen	schroff	eitel	1	blank2r.bmp	0	1	+	0	1	blank2r.bmp	500	1	GKQX	500	1	blank2r.bmp	880	1	lachen	880	1	!	1292	1	!	1389	0	0	0	0	0	0
2024-05-02	09:03:33	09:11:54	500803	6.6.1	4_exp_EVA_AWA_CON	4	B	A	Rpleas_acq	Oppo	Rpleas	2pleas	acq_US_unple_nomask	acq3_nomask	3	10	453	1	300	300	0	0	489	46	1	0	lachen	tolerant	helfen	treu	freundlich	schön	leiden	tyrannisch	hindern	tot	fanatisch	schlecht	spielen	fair	loyal	retten	schlau	ehrlich	strafen	faul	lasch	rächen	schroff	eitel	1	blank2r.bmp	0	1	+	0	1	blank2r.bmp	500	1	BMVZ	500	1	blank2r.bmp	880	6	schlecht	880	1	!	1293	1	!	1390	0	0	0	0	0	0
2024-05-02	09:03:33	09:11:56	503026	6.6.1	4_exp_EVA_AWA_CON	4	B	A	Rpleas_acq	Oppo	Rpleas	2pleas	acq_US_pleas_nomask	acq3_nomask	3	11	453	1	300	300	0	0	441	50	1	0	lachen	tolerant	helfen	treu	freundlich	schön	leiden	tyrannisch	hindern	tot	fanatisch	schlecht	spielen	fair	loyal	retten	schlau	ehrlich	strafen	faul	lasch	rächen	schroff	eitel	1	blank2r.bmp	0	1	+	0	1	blank2r.bmp	500	1	GKQX	500	1	blank2r.bmp	880	5	freundlich	880	1	!	1292	1	!	1343	0	0	0	0	0	0
2024-05-02	09:03:33	09:11:58	505335	6.6.1	4_exp_EVA_AWA_CON	4	B	A	Rpleas_acq	Oppo	Rpleas	2pleas	acq_US_unple_nomask	acq3_nomask	3	12	453	0	300	300	0	0	532	46	1	0	lachen	tolerant	helfen	treu	freundlich	schön	leiden	tyrannisch	hindern	tot	fanatisch	schlecht	spielen	fair	loyal	retten	schlau	ehrlich	strafen	faul	lasch	rächen	schroff	eitel	1	blank2r.bmp	0	1	+	0	1	blank2r.bmp	500	1	BMVZ	500	1	blank2r.bmp	880	3	hindern	880	1	!	1292	1	!	-1	0	0	0	0	0	0
2024-05-02	09:03:33	09:12:01	507579	6.6.1	4_exp_EVA_AWA_CON	4	B	A	Rpleas_acq	Oppo	Rpleas	2pleas	acq_US_pleas_nomask	acq3_nomask	3	13	453	1	300	300	0	0	460	50	1	0	lachen	tolerant	helfen	treu	freundlich	schön	leiden	tyrannisch	hindern	tot	fanatisch	schlecht	spielen	fair	loyal	retten	schlau	ehrlich	strafen	faul	lasch	rächen	schroff	eitel	1	blank2r.bmp	0	1	+	0	1	blank2r.bmp	500	1	GKQX	500	1	blank2r.bmp	880	1	lachen	880	1	!	1292	1	!	1362	0	0	0	0	0	0
2024-05-02	09:03:33	09:12:03	509921	6.6.1	4_exp_EVA_AWA_CON	4	B	A	Rpleas_acq	Oppo	Rpleas	2pleas	acq_US_unple_nomask	acq3_nomask	3	14	453	0	300	300	0	0	563	46	1	0	lachen	tolerant	helfen	treu	freundlich	schön	leiden	tyrannisch	hindern	tot	fanatisch	schlecht	spielen	fair	loyal	retten	schlau	ehrlich	strafen	faul	lasch	rächen	schroff	eitel	1	blank2r.bmp	0	1	+	0	1	blank2r.bmp	500	1	BMVZ	500	1	blank2r.bmp	880	3	hindern	880	1	!	1292	1	!	-1	0	0	0	0	0	0
2024-05-02	09:03:33	09:12:05	512080	6.6.1	4_exp_EVA_AWA_CON	4	B	A	Rpleas_acq	Oppo	Rpleas	2pleas	acq_US_pleas_nomask	acq3_nomask	3	15	453	0	300	300	0	0	381	50	1	0	lachen	tolerant	helfen	treu	freundlich	schön	leiden	tyrannisch	hindern	tot	fanatisch	schlecht	spielen	fair	loyal	retten	schlau	ehrlich	strafen	faul	lasch	rächen	schroff	eitel	1	blank2r.bmp	0	1	+	0	1	blank2r.bmp	500	1	GKQX	500	1	blank2r.bmp	880	5	freundlich	880	1	!	-1	1	!	-1	0	0	0	0	0	0
2024-05-02	09:03:33	09:12:07	514274	6.6.1	4_exp_EVA_AWA_CON	4	B	A	Rpleas_acq	Oppo	Rpleas	2pleas	acq_US_unple_nomask	acq3_nomask	3	16	453	1	300	300	0	0	412	46	1	0	lachen	tolerant	helfen	treu	freundlich	schön	leiden	tyrannisch	hindern	tot	fanatisch	schlecht	spielen	fair	loyal	retten	schlau	ehrlich	strafen	faul	lasch	rächen	schroff	eitel	1	blank2r.bmp	0	1	+	0	1	blank2r.bmp	500	1	BMVZ	500	1	blank2r.bmp	880	4	tot	880	1	!	1293	1	!	1313	0	0	0	0	0	0
2024-05-02	09:03:33	09:12:10	516498	6.6.1	4_exp_EVA_AWA_CON	4	B	A	Rpleas_acq	Oppo	Rpleas	2pleas	acq_US_pleas_nomask	acq3_nomask	3	17	453	1	300	300	0	0	444	50	1	0	lachen	tolerant	helfen	treu	freundlich	schön	leiden	tyrannisch	hindern	tot	fanatisch	schlecht	spielen	fair	loyal	retten	schlau	ehrlich	strafen	faul	lasch	rächen	schroff	eitel	1	blank2r.bmp	0	1	+	0	1	blank2r.bmp	500	1	GKQX	500	1	blank2r.bmp	880	6	schön	880	1	!	1293	1	!	1346	0	0	0	0	0	0
2024-05-02	09:03:33	09:12:12	518640	6.6.1	4_exp_EVA_AWA_CON	4	B	A	Rpleas_acq	Oppo	Rpleas	2pleas	acq_US_pleas_nomask	acq3_nomask	3	18	453	0	300	300	0	0	367	50	1	0	lachen	tolerant	helfen	treu	freundlich	schön	leiden	tyrannisch	hindern	tot	fanatisch	schlecht	spielen	fair	loyal	retten	schlau	ehrlich	strafen	faul	lasch	rächen	schroff	eitel	1	blank2r.bmp	0	1	+	0	1	blank2r.bmp	500	1	GKQX	500	1	blank2r.bmp	880	2	tolerant	880	1	!	-1	1	!	-1	0	0	0	0	0	0
2024-05-02	09:03:33	09:12:14	520979	6.6.1	4_exp_EVA_AWA_CON	4	B	A	Rpleas_acq	Oppo	Rpleas	2pleas	acq_US_unple_nomask	acq3_nomask	3	19	453	0	300	300	0	0	362	50	0	0	lachen	tolerant	helfen	treu	freundlich	schön	leiden	tyrannisch	hindern	tot	fanatisch	schlecht	spielen	fair	loyal	retten	schlau	ehrlich	strafen	faul	lasch	rächen	schroff	eitel	1	blank2r.bmp	0	1	+	0	1	blank2r.bmp	500	1	BMVZ	500	1	blank2r.bmp	880	5	fanatisch	880	1	FEHLER	1555	1	!	-1	1	!	-1	0	0	0
2024-05-02	09:03:33	09:12:16	523282	6.6.1	4_exp_EVA_AWA_CON	4	B	A	Rpleas_acq	Oppo	Rpleas	2pleas	acq_US_pleas_nomask	acq3_nomask	3	20	453	0	300	300	0	0	524	46	0	0	lachen	tolerant	helfen	treu	freundlich	schön	leiden	tyrannisch	hindern	tot	fanatisch	schlecht	spielen	fair	loyal	retten	schlau	ehrlich	strafen	faul	lasch	rächen	schroff	eitel	1	blank2r.bmp	0	1	+	0	1	blank2r.bmp	500	1	GKQX	500	1	blank2r.bmp	880	3	helfen	880	1	FEHLER	1716	1	!	1293	1	!	-1	0	0	0
2024-05-02	09:03:33	09:12:18	525339	6.6.1	4_exp_EVA_AWA_CON	4	B	A	Rpleas_acq	Oppo	Rpleas	2pleas	acq_US_pleas_nomask	acq3_nomask	3	21	453	1	300	300	0	0	479	50	1	0	lachen	tolerant	helfen	treu	freundlich	schön	leiden	tyrannisch	hindern	tot	fanatisch	schlecht	spielen	fair	loyal	retten	schlau	ehrlich	strafen	faul	lasch	rächen	schroff	eitel	1	blank2r.bmp	0	1	+	0	1	blank2r.bmp	500	1	GKQX	500	1	blank2r.bmp	880	4	treu	880	1	!	1293	1	!	1380	0	0	0	0	0	0
2024-05-02	09:03:33	09:12:21	527618	6.6.1	4_exp_EVA_AWA_CON	4	B	A	Rpleas_acq	Oppo	Rpleas	2pleas	acq_US_unple_nomask	acq3_nomask	3	22	453	1	300	300	0	0	497	46	1	0	lachen	tolerant	helfen	treu	freundlich	schön	leiden	tyrannisch	hindern	tot	fanatisch	schlecht	spielen	fair	loyal	retten	schlau	ehrlich	strafen	faul	lasch	rächen	schroff	eitel	1	blank2r.bmp	0	1	+	0	1	blank2r.bmp	500	1	BMVZ	500	1	blank2r.bmp	880	6	schlecht	880	1	!	1292	1	!	1399	0	0	0	0	0	0
2024-05-02	09:03:33	09:12:23	530004	6.6.1	4_exp_EVA_AWA_CON	4	B	A	Rpleas_acq	Oppo	Rpleas	2pleas	acq_US_unple_nomask	acq3_nomask	3	23	453	1	300	300	0	0	410	50	0	0	lachen	tolerant	helfen	treu	freundlich	schön	leiden	tyrannisch	hindern	tot	fanatisch	schlecht	spielen	fair	loyal	retten	schlau	ehrlich	strafen	faul	lasch	rächen	schroff	eitel	1	blank2r.bmp	0	1	+	0	1	blank2r.bmp	500	1	BMVZ	500	1	blank2r.bmp	880	1	leiden	880	1	FEHLER	1604	1	!	1293	1	!	1312	0	0	0
2024-05-02	09:03:33	09:12:25	532098	6.6.1	4_exp_EVA_AWA_CON	4	B	A	Rpleas_acq	Oppo	Rpleas	2pleas	acq_US_unple_nomask	acq3_nomask	3	24	453	1	300	300	0	0	514	46	1	0	lachen	tolerant	helfen	treu	freundlich	schön	leiden	tyrannisch	hindern	tot	fanatisch	schlecht	spielen	fair	loyal	retten	schlau	ehrlich	strafen	faul	lasch	rächen	schroff	eitel	1	blank2r.bmp	0	1	+	0	1	blank2r.bmp	500	1	BMVZ	500	1	blank2r.bmp	880	2	tyrannisch	880	1	!	1292	1	!	1416	0	0	0	0	0	0
2024-05-02	09:03:33	09:12:28	534587	6.6.1	4_exp_EVA_AWA_CON	4	B	A	Rpleas_acq	Oppo	Rpleas	2pleas	acq_US_unple_nomask	acq3_nomask	3	25	453	1	300	300	0	0	511	50	0	0	lachen	tolerant	helfen	treu	freundlich	schön	leiden	tyrannisch	hindern	tot	fanatisch	schlecht	spielen	fair	loyal	retten	schlau	ehrlich	strafen	faul	lasch	rächen	schroff	eitel	1	blank2r.bmp	0	1	+	0	1	blank2r.bmp	500	1	BMVZ	500	1	blank2r.bmp	880	4	tot	880	1	FEHLER	1704	1	!	1292	1	!	1413	0	0	0
2024-05-02	09:03:33	09:12:30	536674	6.6.1	4_exp_EVA_AWA_CON	4	B	A	Rpleas_acq	Oppo	Rpleas	2pleas	acq_US_unple_nomask	acq3_nomask	3	26	453	1	300	300	0	0	508	46	1	0	lachen	tolerant	helfen	treu	freundlich	schön	leiden	tyrannisch	hindern	tot	fanatisch	schlecht	spielen	fair	loyal	retten	schlau	ehrlich	strafen	faul	lasch	rächen	schroff	eitel	1	blank2r.bmp	0	1	+	0	1	blank2r.bmp	500	1	BMVZ	500	1	blank2r.bmp	880	3	hindern	880	1	!	1293	1	!	1409	0	0	0	0	0	0
2024-05-02	09:03:33	09:12:32	538914	6.6.1	4_exp_EVA_AWA_CON	4	B	A	Rpleas_acq	Oppo	Rpleas	2pleas	acq_US_pleas_nomask	acq3_nomask	3	27	453	1	300	300	0	0	456	50	1	0	lachen	tolerant	helfen	treu	freundlich	schön	leiden	tyrannisch	hindern	tot	fanatisch	schlecht	spielen	fair	loyal	retten	schlau	ehrlich	strafen	faul	lasch	rächen	schroff	eitel	1	blank2r.bmp	0	1	+	0	1	blank2r.bmp	500	1	GKQX	500	1	blank2r.bmp	880	2	tolerant	880	1	!	1292	1	!	1357	0	0	0	0	0	0
2024-05-02	09:03:33	09:12:34	541154	6.6.1	4_exp_EVA_AWA_CON	4	B	A	Rpleas_acq	Oppo	Rpleas	2pleas	acq_US_pleas_nomask	acq3_nomask	3	28	453	1	300	300	0	0	465	50	1	0	lachen	tolerant	helfen	treu	freundlich	schön	leiden	tyrannisch	hindern	tot	fanatisch	schlecht	spielen	fair	loyal	retten	schlau	ehrlich	strafen	faul	lasch	rächen	schroff	eitel	1	blank2r.bmp	0	1	+	0	1	blank2r.bmp	500	1	GKQX	500	1	blank2r.bmp	880	5	freundlich	880	1	!	1292	1	!	1366	0	0	0	0	0	0
2024-05-02	09:03:33	09:12:36	543402	6.6.1	4_exp_EVA_AWA_CON	4	B	A	Rpleas_acq	Oppo	Rpleas	2pleas	acq_US_unple_nomask	acq3_nomask	3	29	453	1	300	300	0	0	471	46	1	0	lachen	tolerant	helfen	treu	freundlich	schön	leiden	tyrannisch	hindern	tot	fanatisch	schlecht	spielen	fair	loyal	retten	schlau	ehrlich	strafen	faul	lasch	rächen	schroff	eitel	1	blank2r.bmp	0	1	+	0	1	blank2r.bmp	500	1	BMVZ	500	1	blank2r.bmp	880	1	leiden	880	1	!	1292	1	!	1373	0	0	0	0	0	0
2024-05-02	09:03:33	09:12:39	545736	6.6.1	4_exp_EVA_AWA_CON	4	B	A	Rpleas_acq	Oppo	Rpleas	2pleas	acq_US_pleas_nomask	acq3_nomask	3	30	453	0	300	300	0	0	556	50	1	0	lachen	tolerant	helfen	treu	freundlich	schön	leiden	tyrannisch	hindern	tot	fanatisch	schlecht	spielen	fair	loyal	retten	schlau	ehrlich	strafen	faul	lasch	rächen	schroff	eitel	1	blank2r.bmp	0	1	+	0	1	blank2r.bmp	500	1	GKQX	500	1	blank2r.bmp	880	1	lachen	880	1	!	1293	1	!	-1	0	0	0	0	0	0
2024-05-02	09:03:33	09:12:41	548018	6.6.1	4_exp_EVA_AWA_CON	4	B	A	Rpleas_acq	Oppo	Rpleas	2pleas	acq_US_pleas_nomask	acq3_nomask	3	31	453	1	300	300	0	0	504	50	1	0	lachen	tolerant	helfen	treu	freundlich	schön	leiden	tyrannisch	hindern	tot	fanatisch	schlecht	spielen	fair	loyal	retten	schlau	ehrlich	strafen	faul	lasch	rächen	schroff	eitel	1	blank2r.bmp	0	1	+	0	1	blank2r.bmp	500	1	GKQX	500	1	blank2r.bmp	880	3	helfen	880	1	!	1292	1	!	1406	0	0	0	0	0	0
2024-05-02	09:03:33	09:12:43	550387	6.6.1	4_exp_EVA_AWA_CON	4	B	A	Rpleas_acq	Oppo	Rpleas	2pleas	acq_US_unple_nomask	acq3_nomask	3	32	453	0	300	300	0	0	391	50	0	0	lachen	tolerant	helfen	treu	freundlich	schön	leiden	tyrannisch	hindern	tot	fanatisch	schlecht	spielen	fair	loyal	retten	schlau	ehrlich	strafen	faul	lasch	rächen	schroff	eitel	1	blank2r.bmp	0	1	+	0	1	blank2r.bmp	500	1	BMVZ	500	1	blank2r.bmp	880	5	fanatisch	880	1	FEHLER	1584	1	!	-1	1	!	-1	0	0	0
2024-05-02	09:03:33	09:12:45	552434	6.6.1	4_exp_EVA_AWA_CON	4	B	A	Rpleas_acq	Oppo	Rpleas	2pleas	acq_US_pleas_nomask	acq3_nomask	3	33	453	1	300	300	0	0	467	50	1	0	lachen	tolerant	helfen	treu	freundlich	schön	leiden	tyrannisch	hindern	tot	fanatisch	schlecht	spielen	fair	loyal	retten	schlau	ehrlich	strafen	faul	lasch	rächen	schroff	eitel	1	blank2r.bmp	0	1	+	0	1	blank2r.bmp	500	1	GKQX	500	1	blank2r.bmp	880	4	treu	880	1	!	1293	1	!	1369	0	0	0	0	0	0
2024-05-02	09:03:33	09:12:48	554650	6.6.1	4_exp_EVA_AWA_CON	4	B	A	Rpleas_acq	Oppo	Rpleas	2pleas	acq_US_pleas_nomask	acq3_nomask	3	34	453	1	300	300	0	0	442	50	1	0	lachen	tolerant	helfen	treu	freundlich	schön	leiden	tyrannisch	hindern	tot	fanatisch	schlecht	spielen	fair	loyal	retten	schlau	ehrlich	strafen	faul	lasch	rächen	schroff	eitel	1	blank2r.bmp	0	1	+	0	1	blank2r.bmp	500	1	GKQX	500	1	blank2r.bmp	880	6	schön	880	1	!	1292	1	!	1343	0	0	0	0	0	0
2024-05-02	09:03:33	09:12:50	556914	6.6.1	4_exp_EVA_AWA_CON	4	B	A	Rpleas_acq	Oppo	Rpleas	2pleas	acq_US_unple_nomask	acq3_nomask	3	35	453	1	300	300	0	0	485	46	1	0	lachen	tolerant	helfen	treu	freundlich	schön	leiden	tyrannisch	hindern	tot	fanatisch	schlecht	spielen	fair	loyal	retten	schlau	ehrlich	strafen	faul	lasch	rächen	schroff	eitel	1	blank2r.bmp	0	1	+	0	1	blank2r.bmp	500	1	BMVZ	500	1	blank2r.bmp	880	6	schlecht	880	1	!	1293	1	!	1386	0	0	0	0	0	0
2024-05-02	09:03:33	09:12:52	559171	6.6.1	4_exp_EVA_AWA_CON	4	B	A	Rpleas_acq	Oppo	Rpleas	2pleas	acq_US_unple_nomask	acq3_nomask	3	36	453	1	300	300	0	0	479	46	1	0	lachen	tolerant	helfen	treu	freundlich	schön	leiden	tyrannisch	hindern	tot	fanatisch	schlecht	spielen	fair	loyal	retten	schlau	ehrlich	strafen	faul	lasch	rächen	schroff	eitel	1	blank2r.bmp	0	1	+	0	1	blank2r.bmp	500	1	BMVZ	500	1	blank2r.bmp	880	2	tyrannisch	880	1	!	1292	1	!	1380	0	0	0	0	0	0
2024-05-02	09:03:33	09:13:13	580200	6.6.1	4_exp_EVA_AWA_CON	4	B	A	Rpleas_acq	Oppo	Rpleas	2pleas	acq_US_pleas_nomask	acq45_nomask	4	1	400	0	300	300	0	0	568	50	1	0	lachen	tolerant	helfen	treu	freundlich	schön	leiden	tyrannisch	hindern	tot	fanatisch	schlecht	spielen	fair	loyal	retten	schlau	ehrlich	strafen	faul	lasch	rächen	schroff	eitel	1	blank2r.bmp	0	1	+	0	1	blank2r.bmp	500	1	GKQX	500	1	blank2r.bmp	880	5	freundlich	880	1	!	1232	1	!	-1	0	0	0	0	0	0
2024-05-02	09:03:33	09:13:16	582455	6.6.1	4_exp_EVA_AWA_CON	4	B	A	Rpleas_acq	Oppo	Rpleas	2pleas	acq_US_unple_nomask	acq45_nomask	4	2	400	0	300	300	0	0	482	46	1	0	lachen	tolerant	helfen	treu	freundlich	schön	leiden	tyrannisch	hindern	tot	fanatisch	schlecht	spielen	fair	loyal	retten	schlau	ehrlich	strafen	faul	lasch	rächen	schroff	eitel	1	blank2r.bmp	0	1	+	0	1	blank2r.bmp	500	1	BMVZ	500	1	blank2r.bmp	880	4	tot	880	1	!	1233	1	!	-1	0	0	0	0	0	0
2024-05-02	09:03:33	09:13:18	584720	6.6.1	4_exp_EVA_AWA_CON	4	B	A	Rpleas_acq	Oppo	Rpleas	2pleas	acq_US_unple_nomask	acq45_nomask	4	3	400	0	300	300	0	0	485	50	0	0	lachen	tolerant	helfen	treu	freundlich	schön	leiden	tyrannisch	hindern	tot	fanatisch	schlecht	spielen	fair	loyal	retten	schlau	ehrlich	strafen	faul	lasch	rächen	schroff	eitel	1	blank2r.bmp	0	1	+	0	1	blank2r.bmp	500	1	BMVZ	500	1	blank2r.bmp	880	6	schlecht	880	1	!	1232	1	!	-1	0	0	0	0	0	0
2024-05-02	09:03:33	09:13:20	587016	6.6.1	4_exp_EVA_AWA_CON	4	B	A	Rpleas_acq	Oppo	Rpleas	2pleas	acq_US_unple_nomask	acq45_nomask	4	4	400	0	300	300	0	0	519	46	1	0	lachen	tolerant	helfen	treu	freundlich	schön	leiden	tyrannisch	hindern	tot	fanatisch	schlecht	spielen	fair	loyal	retten	schlau	ehrlich	strafen	faul	lasch	rächen	schroff	eitel	1	blank2r.bmp	0	1	+	0	1	blank2r.bmp	500	1	BMVZ	500	1	blank2r.bmp	880	2	tyrannisch	880	1	!	1232	1	!	-1	0	0	0	0	0	0
2024-05-02	09:03:33	09:13:22	589360	6.6.1	4_exp_EVA_AWA_CON	4	B	A	Rpleas_acq	Oppo	Rpleas	2pleas	acq_US_unple_nomask	acq45_nomask	4	5	400	0	300	300	0	0	572	50	0	0	lachen	tolerant	helfen	treu	freundlich	schön	leiden	tyrannisch	hindern	tot	fanatisch	schlecht	spielen	fair	loyal	retten	schlau	ehrlich	strafen	faul	lasch	rächen	schroff	eitel	1	blank2r.bmp	0	1	+	0	1	blank2r.bmp	500	1	BMVZ	500	1	blank2r.bmp	880	1	leiden	880	1	!	1232	1	!	-1	0	0	0	0	0	0
2024-05-02	09:03:33	09:13:25	591784	6.6.1	4_exp_EVA_AWA_CON	4	B	A	Rpleas_acq	Oppo	Rpleas	2pleas	acq_US_unple_nomask	acq45_nomask	4	6	400	0	300	300	0	0	644	46	1	0	lachen	tolerant	helfen	treu	freundlich	schön	leiden	tyrannisch	hindern	tot	fanatisch	schlecht	spielen	fair	loyal	retten	schlau	ehrlich	strafen	faul	lasch	rächen	schroff	eitel	1	blank2r.bmp	0	1	+	0	1	blank2r.bmp	500	1	BMVZ	500	1	blank2r.bmp	880	3	hindern	880	1	!	1232	1	!	-1	0	0	0	0	0	0
2024-05-02	09:03:33	09:13:27	594297	6.6.1	4_exp_EVA_AWA_CON	4	B	A	Rpleas_acq	Oppo	Rpleas	2pleas	acq_US_unple_nomask	acq45_nomask	4	7	400	0	300	300	0	0	735	46	1	0	lachen	tolerant	helfen	treu	freundlich	schön	leiden	tyrannisch	hindern	tot	fanatisch	schlecht	spielen	fair	loyal	retten	schlau	ehrlich	strafen	faul	lasch	rächen	schroff	eitel	1	blank2r.bmp	0	1	+	0	1	blank2r.bmp	500	1	BMVZ	500	1	blank2r.bmp	880	5	fanatisch	880	1	!	1233	1	!	-1	0	0	0	0	0	0
2024-05-02	09:03:33	09:13:30	596576	6.6.1	4_exp_EVA_AWA_CON	4	B	A	Rpleas_acq	Oppo	Rpleas	2pleas	acq_US_pleas_nomask	acq45_nomask	4	8	400	0	300	300	0	0	503	50	1	0	lachen	tolerant	helfen	treu	freundlich	schön	leiden	tyrannisch	hindern	tot	fanatisch	schlecht	spielen	fair	loyal	retten	schlau	ehrlich	strafen	faul	lasch	rächen	schroff	eitel	1	blank2r.bmp	0	1	+	0	1	blank2r.bmp	500	1	GKQX	500	1	blank2r.bmp	880	1	lachen	880	1	!	1232	1	!	-1	0	0	0	0	0	0
2024-05-02	09:03:33	09:13:32	598929	6.6.1	4_exp_EVA_AWA_CON	4	B	A	Rpleas_acq	Oppo	Rpleas	2pleas	acq_US_unple_nomask	acq45_nomask	4	9	400	0	300	300	0	0	574	46	1	0	lachen	tolerant	helfen	treu	freundlich	schön	leiden	tyrannisch	hindern	tot	fanatisch	schlecht	spielen	fair	loyal	retten	schlau	ehrlich	strafen	faul	lasch	rächen	schroff	eitel	1	blank2r.bmp	0	1	+	0	1	blank2r.bmp	500	1	BMVZ	500	1	blank2r.bmp	880	3	hindern	880	1	!	1232	1	!	-1	0	0	0	0	0	0
2024-05-02	09:03:33	09:13:34	601154	6.6.1	4_exp_EVA_AWA_CON	4	B	A	Rpleas_acq	Oppo	Rpleas	2pleas	acq_US_pleas_nomask	acq45_nomask	4	10	400	1	300	300	0	0	446	50	1	0	lachen	tolerant	helfen	treu	freundlich	schön	leiden	tyrannisch	hindern	tot	fanatisch	schlecht	spielen	fair	loyal	retten	schlau	ehrlich	strafen	faul	lasch	rächen	schroff	eitel	1	blank2r.bmp	0	1	+	0	1	blank2r.bmp	500	1	GKQX	500	1	blank2r.bmp	880	6	schön	880	1	!	1232	1	!	1347	0	0	0	0	0	0
2024-05-02	09:03:33	09:13:37	603512	6.6.1	4_exp_EVA_AWA_CON	4	B	A	Rpleas_acq	Oppo	Rpleas	2pleas	acq_US_pleas_nomask	acq45_nomask	4	11	400	0	300	300	0	0	585	50	1	0	lachen	tolerant	helfen	treu	freundlich	schön	leiden	tyrannisch	hindern	tot	fanatisch	schlecht	spielen	fair	loyal	retten	schlau	ehrlich	strafen	faul	lasch	rächen	schroff	eitel	1	blank2r.bmp	0	1	+	0	1	blank2r.bmp	500	1	GKQX	500	1	blank2r.bmp	880	4	treu	880	1	!	1232	1	!	-1	0	0	0	0	0	0
2024-05-02	09:03:33	09:13:39	605760	6.6.1	4_exp_EVA_AWA_CON	4	B	A	Rpleas_acq	Oppo	Rpleas	2pleas	acq_US_pleas_nomask	acq45_nomask	4	12	400	0	300	300	0	0	471	50	1	0	lachen	tolerant	helfen	treu	freundlich	schön	leiden	tyrannisch	hindern	tot	fanatisch	schlecht	spielen	fair	loyal	retten	schlau	ehrlich	strafen	faul	lasch	rächen	schroff	eitel	1	blank2r.bmp	0	1	+	0	1	blank2r.bmp	500	1	GKQX	500	1	blank2r.bmp	880	3	helfen	880	1	!	1232	1	!	-1	0	0	0	0	0	0
2024-05-02	09:03:33	09:13:41	607994	6.6.1	4_exp_EVA_AWA_CON	4	B	A	Rpleas_acq	Oppo	Rpleas	2pleas	acq_US_pleas_nomask	acq45_nomask	4	13	400	1	300	300	0	0	452	50	1	0	lachen	tolerant	helfen	treu	freundlich	schön	leiden	tyrannisch	hindern	tot	fanatisch	schlecht	spielen	fair	loyal	retten	schlau	ehrlich	strafen	faul	lasch	rächen	schroff	eitel	1	blank2r.bmp	0	1	+	0	1	blank2r.bmp	500	1	GKQX	500	1	blank2r.bmp	880	2	tolerant	880	1	!	1232	1	!	1353	0	0	0	0	0	0
2024-05-02	09:03:33	09:13:43	610195	6.6.1	4_exp_EVA_AWA_CON	4	B	A	Rpleas_acq	Oppo	Rpleas	2pleas	acq_US_pleas_nomask	acq45_nomask	4	14	400	1	300	300	0	0	420	50	1	0	lachen	tolerant	helfen	treu	freundlich	schön	leiden	tyrannisch	hindern	tot	fanatisch	schlecht	spielen	fair	loyal	retten	schlau	ehrlich	strafen	faul	lasch	rächen	schroff	eitel	1	blank2r.bmp	0	1	+	0	1	blank2r.bmp	500	1	GKQX	500	1	blank2r.bmp	880	4	treu	880	1	!	1232	1	!	1322	0	0	0	0	0	0
2024-05-02	09:03:33	09:13:45	612395	6.6.1	4_exp_EVA_AWA_CON	4	B	A	Rpleas_acq	Oppo	Rpleas	2pleas	acq_US_pleas_nomask	acq45_nomask	4	15	400	1	300	300	0	0	419	46	0	0	lachen	tolerant	helfen	treu	freundlich	schön	leiden	tyrannisch	hindern	tot	fanatisch	schlecht	spielen	fair	loyal	retten	schlau	ehrlich	strafen	faul	lasch	rächen	schroff	eitel	1	blank2r.bmp	0	1	+	0	1	blank2r.bmp	500	1	GKQX	500	1	blank2r.bmp	880	5	freundlich	880	1	!	1232	1	!	1320	0	0	0	0	0	0
2024-05-02	09:03:33	09:13:48	614634	6.6.1	4_exp_EVA_AWA_CON	4	B	A	Rpleas_acq	Oppo	Rpleas	2pleas	acq_US_pleas_nomask	acq45_nomask	4	16	400	1	300	300	0	0	457	50	1	0	lachen	tolerant	helfen	treu	freundlich	schön	leiden	tyrannisch	hindern	tot	fanatisch	schlecht	spielen	fair	loyal	retten	schlau	ehrlich	strafen	faul	lasch	rächen	schroff	eitel	1	blank2r.bmp	0	1	+	0	1	blank2r.bmp	500	1	GKQX	500	1	blank2r.bmp	880	6	schön	880	1	!	1232	1	!	1359	0	0	0	0	0	0
2024-05-02	09:03:33	09:13:50	617024	6.6.1	4_exp_EVA_AWA_CON	4	B	A	Rpleas_acq	Oppo	Rpleas	2pleas	acq_US_unple_nomask	acq45_nomask	4	17	400	0	300	300	0	0	618	50	0	0	lachen	tolerant	helfen	treu	freundlich	schön	leiden	tyrannisch	hindern	tot	fanatisch	schlecht	spielen	fair	loyal	retten	schlau	ehrlich	strafen	faul	lasch	rächen	schroff	eitel	1	blank2r.bmp	0	1	+	0	1	blank2r.bmp	500	1	BMVZ	500	1	blank2r.bmp	880	5	fanatisch	880	1	!	1233	1	!	-1	0	0	0	0	0	0
2024-05-02	09:03:33	09:13:52	619259	6.6.1	4_exp_EVA_AWA_CON	4	B	A	Rpleas_acq	Oppo	Rpleas	2pleas	acq_US_unple_nomask	acq45_nomask	4	18	400	1	300	300	0	0	458	46	1	0	lachen	tolerant	helfen	treu	freundlich	schön	leiden	tyrannisch	hindern	tot	fanatisch	schlecht	spielen	fair	loyal	retten	schlau	ehrlich	strafen	faul	lasch	rächen	schroff	eitel	1	blank2r.bmp	0	1	+	0	1	blank2r.bmp	500	1	BMVZ	500	1	blank2r.bmp	880	6	schlecht	880	1	!	1232	1	!	1360	0	0	0	0	0	0
2024-05-02	09:03:33	09:13:55	621458	6.6.1	4_exp_EVA_AWA_CON	4	B	A	Rpleas_acq	Oppo	Rpleas	2pleas	acq_US_unple_nomask	acq45_nomask	4	19	400	1	300	300	0	0	417	46	1	0	lachen	tolerant	helfen	treu	freundlich	schön	leiden	tyrannisch	hindern	tot	fanatisch	schlecht	spielen	fair	loyal	retten	schlau	ehrlich	strafen	faul	lasch	rächen	schroff	eitel	1	blank2r.bmp	0	1	+	0	1	blank2r.bmp	500	1	BMVZ	500	1	blank2r.bmp	880	4	tot	880	1	!	1233	1	!	1318	0	0	0	0	0	0
2024-05-02	09:03:33	09:13:57	623721	6.6.1	4_exp_EVA_AWA_CON	4	B	A	Rpleas_acq	Oppo	Rpleas	2pleas	acq_US_pleas_nomask	acq45_nomask	4	20	400	0	300	300	0	0	490	50	1	0	lachen	tolerant	helfen	treu	freundlich	schön	leiden	tyrannisch	hindern	tot	fanatisch	schlecht	spielen	fair	loyal	retten	schlau	ehrlich	strafen	faul	lasch	rächen	schroff	eitel	1	blank2r.bmp	0	1	+	0	1	blank2r.bmp	500	1	GKQX	500	1	blank2r.bmp	880	3	helfen	880	1	!	1232	1	!	-1	0	0	0	0	0	0
2024-05-02	09:03:33	09:13:59	625983	6.6.1	4_exp_EVA_AWA_CON	4	B	A	Rpleas_acq	Oppo	Rpleas	2pleas	acq_US_unple_nomask	acq45_nomask	4	21	400	0	300	300	0	0	482	46	1	0	lachen	tolerant	helfen	treu	freundlich	schön	leiden	tyrannisch	hindern	tot	fanatisch	schlecht	spielen	fair	loyal	retten	schlau	ehrlich	strafen	faul	lasch	rächen	schroff	eitel	1	blank2r.bmp	0	1	+	0	1	blank2r.bmp	500	1	BMVZ	500	1	blank2r.bmp	880	1	leiden	880	1	!	1232	1	!	-1	0	0	0	0	0	0
2024-05-02	09:03:33	09:14:01	628320	6.6.1	4_exp_EVA_AWA_CON	4	B	A	Rpleas_acq	Oppo	Rpleas	2pleas	acq_US_unple_nomask	acq45_nomask	4	22	400	0	300	300	0	0	557	46	1	0	lachen	tolerant	helfen	treu	freundlich	schön	leiden	tyrannisch	hindern	tot	fanatisch	schlecht	spielen	fair	loyal	retten	schlau	ehrlich	strafen	faul	lasch	rächen	schroff	eitel	1	blank2r.bmp	0	1	+	0	1	blank2r.bmp	500	1	BMVZ	500	1	blank2r.bmp	880	2	tyrannisch	880	1	!	1232	1	!	-1	0	0	0	0	0	0
2024-05-02	09:03:33	09:14:04	630600	6.6.1	4_exp_EVA_AWA_CON	4	B	A	Rpleas_acq	Oppo	Rpleas	2pleas	acq_US_unple_nomask	acq45_nomask	4	23	400	0	300	300	0	0	505	46	1	0	lachen	tolerant	helfen	treu	freundlich	schön	leiden	tyrannisch	hindern	tot	fanatisch	schlecht	spielen	fair	loyal	retten	schlau	ehrlich	strafen	faul	lasch	rächen	schroff	eitel	1	blank2r.bmp	0	1	+	0	1	blank2r.bmp	500	1	BMVZ	500	1	blank2r.bmp	880	3	hindern	880	1	!	1232	1	!	-1	0	0	0	0	0	0
2024-05-02	09:03:33	09:14:06	632834	6.6.1	4_exp_EVA_AWA_CON	4	B	A	Rpleas_acq	Oppo	Rpleas	2pleas	acq_US_unple_nomask	acq45_nomask	4	24	400	1	300	300	0	0	456	46	1	0	lachen	tolerant	helfen	treu	freundlich	schön	leiden	tyrannisch	hindern	tot	fanatisch	schlecht	spielen	fair	loyal	retten	schlau	ehrlich	strafen	faul	lasch	rächen	schroff	eitel	1	blank2r.bmp	0	1	+	0	1	blank2r.bmp	500	1	BMVZ	500	1	blank2r.bmp	880	6	schlecht	880	1	!	1232	1	!	1357	0	0	0	0	0	0
2024-05-02	09:03:33	09:14:08	635136	6.6.1	4_exp_EVA_AWA_CON	4	B	A	Rpleas_acq	Oppo	Rpleas	2pleas	acq_US_unple_nomask	acq45_nomask	4	25	400	0	300	300	0	0	528	46	1	0	lachen	tolerant	helfen	treu	freundlich	schön	leiden	tyrannisch	hindern	tot	fanatisch	schlecht	spielen	fair	loyal	retten	schlau	ehrlich	strafen	faul	lasch	rächen	schroff	eitel	1	blank2r.bmp	0	1	+	0	1	blank2r.bmp	500	1	BMVZ	500	1	blank2r.bmp	880	4	tot	880	1	!	1233	1	!	-1	0	0	0	0	0	0
2024-05-02	09:03:33	09:14:11	637472	6.6.1	4_exp_EVA_AWA_CON	4	B	A	Rpleas_acq	Oppo	Rpleas	2pleas	acq_US_pleas_nomask	acq45_nomask	4	26	400	0	300	300	0	0	563	50	1	0	lachen	tolerant	helfen	treu	freundlich	schön	leiden	tyrannisch	hindern	tot	fanatisch	schlecht	spielen	fair	loyal	retten	schlau	ehrlich	strafen	faul	lasch	rächen	schroff	eitel	1	blank2r.bmp	0	1	+	0	1	blank2r.bmp	500	1	GKQX	500	1	blank2r.bmp	880	2	tolerant	880	1	!	1232	1	!	-1	0	0	0	0	0	0
2024-05-02	09:03:33	09:14:13	639768	6.6.1	4_exp_EVA_AWA_CON	4	B	A	Rpleas_acq	Oppo	Rpleas	2pleas	acq_US_pleas_nomask	acq45_nomask	4	27	400	0	300	300	0	0	517	50	1	0	lachen	tolerant	helfen	treu	freundlich	schön	leiden	tyrannisch	hindern	tot	fanatisch	schlecht	spielen	fair	loyal	retten	schlau	ehrlich	strafen	faul	lasch	rächen	schroff	eitel	1	blank2r.bmp	0	1	+	0	1	blank2r.bmp	500	1	GKQX	500	1	blank2r.bmp	880	1	lachen	880	1	!	1232	1	!	-1	0	0	0	0	0	0
2024-05-02	09:03:33	09:14:15	641995	6.6.1	4_exp_EVA_AWA_CON	4	B	A	Rpleas_acq	Oppo	Rpleas	2pleas	acq_US_pleas_nomask	acq45_nomask	4	28	400	1	300	300	0	0	450	50	1	0	lachen	tolerant	helfen	treu	freundlich	schön	leiden	tyrannisch	hindern	tot	fanatisch	schlecht	spielen	fair	loyal	retten	schlau	ehrlich	strafen	faul	lasch	rächen	schroff	eitel	1	blank2r.bmp	0	1	+	0	1	blank2r.bmp	500	1	GKQX	500	1	blank2r.bmp	880	6	schön	880	1	!	1232	1	!	1352	0	0	0	0	0	0
2024-05-02	09:03:33	09:14:17	644112	6.6.1	4_exp_EVA_AWA_CON	4	B	A	Rpleas_acq	Oppo	Rpleas	2pleas	acq_US_unple_nomask	acq45_nomask	4	29	400	1	300	300	0	0	338	50	0	0	lachen	tolerant	helfen	treu	freundlich	schön	leiden	tyrannisch	hindern	tot	fanatisch	schlecht	spielen	fair	loyal	retten	schlau	ehrlich	strafen	faul	lasch	rächen	schroff	eitel	1	blank2r.bmp	0	1	+	0	1	blank2r.bmp	500	1	BMVZ	500	1	blank2r.bmp	880	5	fanatisch	880	1	!	1232	1	!	1238	0	0	0	0	0	0
2024-05-02	09:03:33	09:14:19	646314	6.6.1	4_exp_EVA_AWA_CON	4	B	A	Rpleas_acq	Oppo	Rpleas	2pleas	acq_US_pleas_nomask	acq45_nomask	4	30	400	1	300	300	0	0	427	50	1	0	lachen	tolerant	helfen	treu	freundlich	schön	leiden	tyrannisch	hindern	tot	fanatisch	schlecht	spielen	fair	loyal	retten	schlau	ehrlich	strafen	faul	lasch	rächen	schroff	eitel	1	blank2r.bmp	0	1	+	0	1	blank2r.bmp	500	1	GKQX	500	1	blank2r.bmp	880	3	helfen	880	1	!	1232	1	!	1329	0	0	0	0	0	0
2024-05-02	09:03:33	09:14:22	648450	6.6.1	4_exp_EVA_AWA_CON	4	B	A	Rpleas_acq	Oppo	Rpleas	2pleas	acq_US_pleas_nomask	acq45_nomask	4	31	400	1	300	300	0	0	362	50	1	0	lachen	tolerant	helfen	treu	freundlich	schön	leiden	tyrannisch	hindern	tot	fanatisch	schlecht	spielen	fair	loyal	retten	schlau	ehrlich	strafen	faul	lasch	rächen	schroff	eitel	1	blank2r.bmp	0	1	+	0	1	blank2r.bmp	500	1	GKQX	500	1	blank2r.bmp	880	4	treu	880	1	!	1232	1	!	1263	0	0	0	0	0	0
2024-05-02	09:03:33	09:14:24	650674	6.6.1	4_exp_EVA_AWA_CON	4	B	A	Rpleas_acq	Oppo	Rpleas	2pleas	acq_US_unple_nomask	acq45_nomask	4	32	400	1	300	300	0	0	444	46	1	0	lachen	tolerant	helfen	treu	freundlich	schön	leiden	tyrannisch	hindern	tot	fanatisch	schlecht	spielen	fair	loyal	retten	schlau	ehrlich	strafen	faul	lasch	rächen	schroff	eitel	1	blank2r.bmp	0	1	+	0	1	blank2r.bmp	500	1	BMVZ	500	1	blank2r.bmp	880	1	leiden	880	1	!	1232	1	!	1346	0	0	0	0	0	0
2024-05-02	09:03:33	09:14:26	652890	6.6.1	4_exp_EVA_AWA_CON	4	B	A	Rpleas_acq	Oppo	Rpleas	2pleas	acq_US_pleas_nomask	acq45_nomask	4	33	400	1	300	300	0	0	439	46	0	0	lachen	tolerant	helfen	treu	freundlich	schön	leiden	tyrannisch	hindern	tot	fanatisch	schlecht	spielen	fair	loyal	retten	schlau	ehrlich	strafen	faul	lasch	rächen	schroff	eitel	1	blank2r.bmp	0	1	+	0	1	blank2r.bmp	500	1	GKQX	500	1	blank2r.bmp	880	2	tolerant	880	1	!	1232	1	!	1340	0	0	0	0	0	0
2024-05-02	09:03:33	09:14:28	655176	6.6.1	4_exp_EVA_AWA_CON	4	B	A	Rpleas_acq	Oppo	Rpleas	2pleas	acq_US_unple_nomask	acq45_nomask	4	34	400	0	300	300	0	0	505	46	1	0	lachen	tolerant	helfen	treu	freundlich	schön	leiden	tyrannisch	hindern	tot	fanatisch	schlecht	spielen	fair	loyal	retten	schlau	ehrlich	strafen	faul	lasch	rächen	schroff	eitel	1	blank2r.bmp	0	1	+	0	1	blank2r.bmp	500	1	BMVZ	500	1	blank2r.bmp	880	2	tyrannisch	880	1	!	1232	1	!	-1	0	0	0	0	0	0
2024-05-02	09:03:33	09:14:30	657355	6.6.1	4_exp_EVA_AWA_CON	4	B	A	Rpleas_acq	Oppo	Rpleas	2pleas	acq_US_pleas_nomask	acq45_nomask	4	35	400	1	300	300	0	0	400	50	1	0	lachen	tolerant	helfen	treu	freundlich	schön	leiden	tyrannisch	hindern	tot	fanatisch	schlecht	spielen	fair	loyal	retten	schlau	ehrlich	strafen	faul	lasch	rächen	schroff	eitel	1	blank2r.bmp	0	1	+	0	1	blank2r.bmp	500	1	GKQX	500	1	blank2r.bmp	880	1	lachen	880	1	!	1232	1	!	1302	0	0	0	0	0	0
2024-05-02	09:03:33	09:14:33	659562	6.6.1	4_exp_EVA_AWA_CON	4	B	A	Rpleas_acq	Oppo	Rpleas	2pleas	acq_US_pleas_nomask	acq45_nomask	4	36	400	1	300	300	0	0	427	50	1	0	lachen	tolerant	helfen	treu	freundlich	schön	leiden	tyrannisch	hindern	tot	fanatisch	schlecht	spielen	fair	loyal	retten	schlau	ehrlich	strafen	faul	lasch	rächen	schroff	eitel	1	blank2r.bmp	0	1	+	0	1	blank2r.bmp	500	1	GKQX	500	1	blank2r.bmp	880	5	freundlich	880	1	!	1232	1	!	1328	0	0	0	0	0	0
2024-05-02	09:03:33	09:14:47	673593	6.6.1	4_exp_EVA_AWA_CON	4	B	A	Rpleas_acq	Oppo	Rpleas	2pleas	acq_US_pleas_nomask	acq45_nomask	5	1	400	0	300	300	0	0	580	50	1	0	lachen	tolerant	helfen	treu	freundlich	schön	leiden	tyrannisch	hindern	tot	fanatisch	schlecht	spielen	fair	loyal	retten	schlau	ehrlich	strafen	faul	lasch	rächen	schroff	eitel	1	blank2r.bmp	0	1	+	0	1	blank2r.bmp	500	1	GKQX	500	1	blank2r.bmp	880	1	lachen	880	1	!	1232	1	!	-1	0	0	0	0	0	0
2024-05-02	09:03:33	09:14:49	675810	6.6.1	4_exp_EVA_AWA_CON	4	B	A	Rpleas_acq	Oppo	Rpleas	2pleas	acq_US_pleas_nomask	acq45_nomask	5	2	400	1	300	300	0	0	434	50	1	0	lachen	tolerant	helfen	treu	freundlich	schön	leiden	tyrannisch	hindern	tot	fanatisch	schlecht	spielen	fair	loyal	retten	schlau	ehrlich	strafen	faul	lasch	rächen	schroff	eitel	1	blank2r.bmp	0	1	+	0	1	blank2r.bmp	500	1	GKQX	500	1	blank2r.bmp	880	5	freundlich	880	1	!	1232	1	!	1336	0	0	0	0	0	0
2024-05-02	09:03:33	09:14:51	677994	6.6.1	4_exp_EVA_AWA_CON	4	B	A	Rpleas_acq	Oppo	Rpleas	2pleas	acq_US_pleas_nomask	acq45_nomask	5	3	400	1	300	300	0	0	407	50	1	0	lachen	tolerant	helfen	treu	freundlich	schön	leiden	tyrannisch	hindern	tot	fanatisch	schlecht	spielen	fair	loyal	retten	schlau	ehrlich	strafen	faul	lasch	rächen	schroff	eitel	1	blank2r.bmp	0	1	+	0	1	blank2r.bmp	500	1	GKQX	500	1	blank2r.bmp	880	2	tolerant	880	1	!	1233	1	!	1308	0	0	0	0	0	0
2024-05-02	09:03:33	09:14:53	680154	6.6.1	4_exp_EVA_AWA_CON	4	B	A	Rpleas_acq	Oppo	Rpleas	2pleas	acq_US_pleas_nomask	acq45_nomask	5	4	400	1	300	300	0	0	385	50	1	0	lachen	tolerant	helfen	treu	freundlich	schön	leiden	tyrannisch	hindern	tot	fanatisch	schlecht	spielen	fair	loyal	retten	schlau	ehrlich	strafen	faul	lasch	rächen	schroff	eitel	1	blank2r.bmp	0	1	+	0	1	blank2r.bmp	500	1	GKQX	500	1	blank2r.bmp	880	6	schön	880	1	!	1232	1	!	1287	0	0	0	0	0	0
2024-05-02	09:03:33	09:14:55	682400	6.6.1	4_exp_EVA_AWA_CON	4	B	A	Rpleas_acq	Oppo	Rpleas	2pleas	acq_US_unple_nomask	acq45_nomask	5	5	400	0	300	300	0	0	474	50	0	0	lachen	tolerant	helfen	treu	freundlich	schön	leiden	tyrannisch	hindern	tot	fanatisch	schlecht	spielen	fair	loyal	retten	schlau	ehrlich	strafen	faul	lasch	rächen	schroff	eitel	1	blank2r.bmp	0	1	+	0	1	blank2r.bmp	500	1	BMVZ	500	1	blank2r.bmp	880	5	fanatisch	880	1	!	1232	1	!	-1	0	0	0	0	0	0
2024-05-02	09:03:33	09:14:58	684546	6.6.1	4_exp_EVA_AWA_CON	4	B	A	Rpleas_acq	Oppo	Rpleas	2pleas	acq_US_pleas_nomask	acq45_nomask	5	6	400	1	300	300	0	0	364	50	1	0	lachen	tolerant	helfen	treu	freundlich	schön	leiden	tyrannisch	hindern	tot	fanatisch	schlecht	spielen	fair	loyal	retten	schlau	ehrlich	strafen	faul	lasch	rächen	schroff	eitel	1	blank2r.bmp	0	1	+	0	1	blank2r.bmp	500	1	GKQX	500	1	blank2r.bmp	880	3	helfen	880	1	!	1232	1	!	1266	0	0	0	0	0	0
2024-05-02	09:03:33	09:15:00	686824	6.6.1	4_exp_EVA_AWA_CON	4	B	A	Rpleas_acq	Oppo	Rpleas	2pleas	acq_US_unple_nomask	acq45_nomask	5	7	400	0	300	300	0	0	503	46	1	0	lachen	tolerant	helfen	treu	freundlich	schön	leiden	tyrannisch	hindern	tot	fanatisch	schlecht	spielen	fair	loyal	retten	schlau	ehrlich	strafen	faul	lasch	rächen	schroff	eitel	1	blank2r.bmp	0	1	+	0	1	blank2r.bmp	500	1	BMVZ	500	1	blank2r.bmp	880	2	tyrannisch	880	1	!	1232	1	!	-1	0	0	0	0	0	0
2024-05-02	09:03:33	09:15:02	689079	6.6.1	4_exp_EVA_AWA_CON	4	B	A	Rpleas_acq	Oppo	Rpleas	2pleas	acq_US_unple_nomask	acq45_nomask	5	8	400	0	300	300	0	0	478	46	1	0	lachen	tolerant	helfen	treu	freundlich	schön	leiden	tyrannisch	hindern	tot	fanatisch	schlecht	spielen	fair	loyal	retten	schlau	ehrlich	strafen	faul	lasch	rächen	schroff	eitel	1	blank2r.bmp	0	1	+	0	1	blank2r.bmp	500	1	BMVZ	500	1	blank2r.bmp	880	3	hindern	880	1	!	1232	1	!	-1	0	0	0	0	0	0
2024-05-02	09:03:33	09:15:04	691392	6.6.1	4_exp_EVA_AWA_CON	4	B	A	Rpleas_acq	Oppo	Rpleas	2pleas	acq_US_pleas_nomask	acq45_nomask	5	9	400	0	300	300	0	0	538	50	1	0	lachen	tolerant	helfen	treu	freundlich	schön	leiden	tyrannisch	hindern	tot	fanatisch	schlecht	spielen	fair	loyal	retten	schlau	ehrlich	strafen	faul	lasch	rächen	schroff	eitel	1	blank2r.bmp	0	1	+	0	1	blank2r.bmp	500	1	GKQX	500	1	blank2r.bmp	880	4	treu	880	1	!	1232	1	!	-1	0	0	0	0	0	0
2024-05-02	09:03:33	09:15:07	693619	6.6.1	4_exp_EVA_AWA_CON	4	B	A	Rpleas_acq	Oppo	Rpleas	2pleas	acq_US_pleas_nomask	acq45_nomask	5	10	400	1	300	300	0	0	451	50	1	0	lachen	tolerant	helfen	treu	freundlich	schön	leiden	tyrannisch	hindern	tot	fanatisch	schlecht	spielen	fair	loyal	retten	schlau	ehrlich	strafen	faul	lasch	rächen	schroff	eitel	1	blank2r.bmp	0	1	+	0	1	blank2r.bmp	500	1	GKQX	500	1	blank2r.bmp	880	6	schön	880	1	!	1232	1	!	1353	0	0	0	0	0	0
2024-05-02	09:03:33	09:15:09	695920	6.6.1	4_exp_EVA_AWA_CON	4	B	A	Rpleas_acq	Oppo	Rpleas	2pleas	acq_US_unple_nomask	acq45_nomask	5	11	400	0	300	300	0	0	523	50	0	0	lachen	tolerant	helfen	treu	freundlich	schön	leiden	tyrannisch	hindern	tot	fanatisch	schlecht	spielen	fair	loyal	retten	schlau	ehrlich	strafen	faul	lasch	rächen	schroff	eitel	1	blank2r.bmp	0	1	+	0	1	blank2r.bmp	500	1	BMVZ	500	1	blank2r.bmp	880	6	schlecht	880	1	!	1232	1	!	-1	0	0	0	0	0	0
2024-05-02	09:03:33	09:15:11	698192	6.6.1	4_exp_EVA_AWA_CON	4	B	A	Rpleas_acq	Oppo	Rpleas	2pleas	acq_US_unple_nomask	acq45_nomask	5	12	400	0	300	300	0	0	494	46	1	0	lachen	tolerant	helfen	treu	freundlich	schön	leiden	tyrannisch	hindern	tot	fanatisch	schlecht	spielen	fair	loyal	retten	schlau	ehrlich	strafen	faul	lasch	rächen	schroff	eitel	1	blank2r.bmp	0	1	+	0	1	blank2r.bmp	500	1	BMVZ	500	1	blank2r.bmp	880	4	tot	880	1	!	1232	1	!	-1	0	0	0	0	0	0
2024-05-02	09:03:33	09:15:14	700456	6.6.1	4_exp_EVA_AWA_CON	4	B	A	Rpleas_acq	Oppo	Rpleas	2pleas	acq_US_unple_nomask	acq45_nomask	5	13	400	0	300	300	0	0	486	46	1	0	lachen	tolerant	helfen	treu	freundlich	schön	leiden	tyrannisch	hindern	tot	fanatisch	schlecht	spielen	fair	loyal	retten	schlau	ehrlich	strafen	faul	lasch	rächen	schroff	eitel	1	blank2r.bmp	0	1	+	0	1	blank2r.bmp	500	1	BMVZ	500	1	blank2r.bmp	880	1	leiden	880	1	!	1232	1	!	-1	0	0	0	0	0	0
2024-05-02	09:03:33	09:15:16	702683	6.6.1	4_exp_EVA_AWA_CON	4	B	A	Rpleas_acq	Oppo	Rpleas	2pleas	acq_US_unple_nomask	acq45_nomask	5	14	400	1	300	300	0	0	449	46	1	0	lachen	tolerant	helfen	treu	freundlich	schön	leiden	tyrannisch	hindern	tot	fanatisch	schlecht	spielen	fair	loyal	retten	schlau	ehrlich	strafen	faul	lasch	rächen	schroff	eitel	1	blank2r.bmp	0	1	+	0	1	blank2r.bmp	500	1	BMVZ	500	1	blank2r.bmp	880	1	leiden	880	1	!	1232	1	!	1350	0	0	0	0	0	0
2024-05-02	09:03:33	09:15:18	704922	6.6.1	4_exp_EVA_AWA_CON	4	B	A	Rpleas_acq	Oppo	Rpleas	2pleas	acq_US_unple_nomask	acq45_nomask	5	15	400	1	300	300	0	0	457	46	1	0	lachen	tolerant	helfen	treu	freundlich	schön	leiden	tyrannisch	hindern	tot	fanatisch	schlecht	spielen	fair	loyal	retten	schlau	ehrlich	strafen	faul	lasch	rächen	schroff	eitel	1	blank2r.bmp	0	1	+	0	1	blank2r.bmp	500	1	BMVZ	500	1	blank2r.bmp	880	2	tyrannisch	880	1	!	1232	1	!	1359	0	0	0	0	0	0
2024-05-02	09:03:33	09:15:20	707067	6.6.1	4_exp_EVA_AWA_CON	4	B	A	Rpleas_acq	Oppo	Rpleas	2pleas	acq_US_pleas_nomask	acq45_nomask	5	16	400	1	300	300	0	0	370	46	0	0	lachen	tolerant	helfen	treu	freundlich	schön	leiden	tyrannisch	hindern	tot	fanatisch	schlecht	spielen	fair	loyal	retten	schlau	ehrlich	strafen	faul	lasch	rächen	schroff	eitel	1	blank2r.bmp	0	1	+	0	1	blank2r.bmp	500	1	GKQX	500	1	blank2r.bmp	880	2	tolerant	880	1	!	1233	1	!	1272	0	0	0	0	0	0
2024-05-02	09:03:33	09:15:22	709417	6.6.1	4_exp_EVA_AWA_CON	4	B	A	Rpleas_acq	Oppo	Rpleas	2pleas	acq_US_unple_nomask	acq45_nomask	5	17	400	0	300	300	0	0	571	46	1	0	lachen	tolerant	helfen	treu	freundlich	schön	leiden	tyrannisch	hindern	tot	fanatisch	schlecht	spielen	fair	loyal	retten	schlau	ehrlich	strafen	faul	lasch	rächen	schroff	eitel	1	blank2r.bmp	0	1	+	0	1	blank2r.bmp	500	1	BMVZ	500	1	blank2r.bmp	880	5	fanatisch	880	1	!	1232	1	!	-1	0	0	0	0	0	0
2024-05-02	09:03:33	09:15:25	711712	6.6.1	4_exp_EVA_AWA_CON	4	B	A	Rpleas_acq	Oppo	Rpleas	2pleas	acq_US_pleas_nomask	acq45_nomask	5	18	400	0	300	300	0	0	515	50	1	0	lachen	tolerant	helfen	treu	freundlich	schön	leiden	tyrannisch	hindern	tot	fanatisch	schlecht	spielen	fair	loyal	retten	schlau	ehrlich	strafen	faul	lasch	rächen	schroff	eitel	1	blank2r.bmp	0	1	+	0	1	blank2r.bmp	500	1	GKQX	500	1	blank2r.bmp	880	1	lachen	880	1	!	1232	1	!	-1	0	0	0	0	0	0
2024-05-02	09:03:33	09:15:27	713984	6.6.1	4_exp_EVA_AWA_CON	4	B	A	Rpleas_acq	Oppo	Rpleas	2pleas	acq_US_pleas_nomask	acq45_nomask	5	19	400	0	300	300	0	0	496	50	1	0	lachen	tolerant	helfen	treu	freundlich	schön	leiden	tyrannisch	hindern	tot	fanatisch	schlecht	spielen	fair	loyal	retten	schlau	ehrlich	strafen	faul	lasch	rächen	schroff	eitel	1	blank2r.bmp	0	1	+	0	1	blank2r.bmp	500	1	GKQX	500	1	blank2r.bmp	880	5	freundlich	880	1	!	1233	1	!	-1	0	0	0	0	0	0
2024-05-02	09:03:33	09:15:29	716163	6.6.1	4_exp_EVA_AWA_CON	4	B	A	Rpleas_acq	Oppo	Rpleas	2pleas	acq_US_pleas_nomask	acq45_nomask	5	20	400	1	300	300	0	0	400	46	0	0	lachen	tolerant	helfen	treu	freundlich	schön	leiden	tyrannisch	hindern	tot	fanatisch	schlecht	spielen	fair	loyal	retten	schlau	ehrlich	strafen	faul	lasch	rächen	schroff	eitel	1	blank2r.bmp	0	1	+	0	1	blank2r.bmp	500	1	GKQX	500	1	blank2r.bmp	880	4	treu	880	1	!	1233	1	!	1302	0	0	0	0	0	0
2024-05-02	09:03:33	09:15:31	718433	6.6.1	4_exp_EVA_AWA_CON	4	B	A	Rpleas_acq	Oppo	Rpleas	2pleas	acq_US_unple_nomask	acq45_nomask	5	21	400	0	300	300	0	0	491	46	1	0	lachen	tolerant	helfen	treu	freundlich	schön	leiden	tyrannisch	hindern	tot	fanatisch	schlecht	spielen	fair	loyal	retten	schlau	ehrlich	strafen	faul	lasch	rächen	schroff	eitel	1	blank2r.bmp	0	1	+	0	1	blank2r.bmp	500	1	BMVZ	500	1	blank2r.bmp	880	6	schlecht	880	1	!	1232	1	!	-1	0	0	0	0	0	0
2024-05-02	09:03:33	09:15:34	720752	6.6.1	4_exp_EVA_AWA_CON	4	B	A	Rpleas_acq	Oppo	Rpleas	2pleas	acq_US_pleas_nomask	acq45_nomask	5	22	400	0	300	300	0	0	539	50	1	0	lachen	tolerant	helfen	treu	freundlich	schön	leiden	tyrannisch	hindern	tot	fanatisch	schlecht	spielen	fair	loyal	retten	schlau	ehrlich	strafen	faul	lasch	rächen	schroff	eitel	1	blank2r.bmp	0	1	+	0	1	blank2r.bmp	500	1	GKQX	500	1	blank2r.bmp	880	3	helfen	880	1	!	1232	1	!	-1	0	0	0	0	0	0
2024-05-02	09:03:33	09:15:36	722907	6.6.1	4_exp_EVA_AWA_CON	4	B	A	Rpleas_acq	Oppo	Rpleas	2pleas	acq_US_pleas_nomask	acq45_nomask	5	23	400	1	300	300	0	0	380	50	1	0	lachen	tolerant	helfen	treu	freundlich	schön	leiden	tyrannisch	hindern	tot	fanatisch	schlecht	spielen	fair	loyal	retten	schlau	ehrlich	strafen	faul	lasch	rächen	schroff	eitel	1	blank2r.bmp	0	1	+	0	1	blank2r.bmp	500	1	GKQX	500	1	blank2r.bmp	880	3	helfen	880	1	!	1232	1	!	1282	0	0	0	0	0	0
2024-05-02	09:03:33	09:15:38	725177	6.6.1	4_exp_EVA_AWA_CON	4	B	A	Rpleas_acq	Oppo	Rpleas	2pleas	acq_US_unple_nomask	acq45_nomask	5	24	400	0	300	300	0	0	490	46	1	0	lachen	tolerant	helfen	treu	freundlich	schön	leiden	tyrannisch	hindern	tot	fanatisch	schlecht	spielen	fair	loyal	retten	schlau	ehrlich	strafen	faul	lasch	rächen	schroff	eitel	1	blank2r.bmp	0	1	+	0	1	blank2r.bmp	500	1	BMVZ	500	1	blank2r.bmp	880	3	hindern	880	1	!	1232	1	!	-1	0	0	0	0	0	0
2024-05-02	09:03:33	09:15:41	727649	6.6.1	4_exp_EVA_AWA_CON	4	B	A	Rpleas_acq	Oppo	Rpleas	2pleas	acq_US_unple_nomask	acq45_nomask	5	25	400	0	300	300	0	0	691	46	1	0	lachen	tolerant	helfen	treu	freundlich	schön	leiden	tyrannisch	hindern	tot	fanatisch	schlecht	spielen	fair	loyal	retten	schlau	ehrlich	strafen	faul	lasch	rächen	schroff	eitel	1	blank2r.bmp	0	1	+	0	1	blank2r.bmp	500	1	BMVZ	500	1	blank2r.bmp	880	4	tot	880	1	!	1232	1	!	-1	0	0	0	0	0	0
2024-05-02	09:03:33	09:15:43	729929	6.6.1	4_exp_EVA_AWA_CON	4	B	A	Rpleas_acq	Oppo	Rpleas	2pleas	acq_US_pleas_nomask	acq45_nomask	5	26	400	0	300	300	0	0	499	50	1	0	lachen	tolerant	helfen	treu	freundlich	schön	leiden	tyrannisch	hindern	tot	fanatisch	schlecht	spielen	fair	loyal	retten	schlau	ehrlich	strafen	faul	lasch	rächen	schroff	eitel	1	blank2r.bmp	0	1	+	0	1	blank2r.bmp	500	1	GKQX	500	1	blank2r.bmp	880	5	freundlich	880	1	!	1232	1	!	-1	0	0	0	0	0	0
2024-05-02	09:03:33	09:15:45	732232	6.6.1	4_exp_EVA_AWA_CON	4	B	A	Rpleas_acq	Oppo	Rpleas	2pleas	acq_US_pleas_nomask	acq45_nomask	5	27	400	0	300	300	0	0	522	50	1	0	lachen	tolerant	helfen	treu	freundlich	schön	leiden	tyrannisch	hindern	tot	fanatisch	schlecht	spielen	fair	loyal	retten	schlau	ehrlich	strafen	faul	lasch	rächen	schroff	eitel	1	blank2r.bmp	0	1	+	0	1	blank2r.bmp	500	1	GKQX	500	1	blank2r.bmp	880	4	treu	880	1	!	1232	1	!	-1	0	0	0	0	0	0
2024-05-02	09:03:33	09:15:48	734568	6.6.1	4_exp_EVA_AWA_CON	4	B	A	Rpleas_acq	Oppo	Rpleas	2pleas	acq_US_unple_nomask	acq45_nomask	5	28	400	0	300	300	0	0	556	50	0	0	lachen	tolerant	helfen	treu	freundlich	schön	leiden	tyrannisch	hindern	tot	fanatisch	schlecht	spielen	fair	loyal	retten	schlau	ehrlich	strafen	faul	lasch	rächen	schroff	eitel	1	blank2r.bmp	0	1	+	0	1	blank2r.bmp	500	1	BMVZ	500	1	blank2r.bmp	880	5	fanatisch	880	1	!	1232	1	!	-1	0	0	0	0	0	0
2024-05-02	09:03:33	09:15:50	736856	6.6.1	4_exp_EVA_AWA_CON	4	B	A	Rpleas_acq	Oppo	Rpleas	2pleas	acq_US_unple_nomask	acq45_nomask	5	29	400	0	300	300	0	0	513	46	1	0	lachen	tolerant	helfen	treu	freundlich	schön	leiden	tyrannisch	hindern	tot	fanatisch	schlecht	spielen	fair	loyal	retten	schlau	ehrlich	strafen	faul	lasch	rächen	schroff	eitel	1	blank2r.bmp	0	1	+	0	1	blank2r.bmp	500	1	BMVZ	500	1	blank2r.bmp	880	2	tyrannisch	880	1	!	1233	1	!	-1	0	0	0	0	0	0
2024-05-02	09:03:33	09:15:52	739120	6.6.1	4_exp_EVA_AWA_CON	4	B	A	Rpleas_acq	Oppo	Rpleas	2pleas	acq_US_unple_nomask	acq45_nomask	5	30	400	0	300	300	0	0	486	46	1	0	lachen	tolerant	helfen	treu	freundlich	schön	leiden	tyrannisch	hindern	tot	fanatisch	schlecht	spielen	fair	loyal	retten	schlau	ehrlich	strafen	faul	lasch	rächen	schroff	eitel	1	blank2r.bmp	0	1	+	0	1	blank2r.bmp	500	1	BMVZ	500	1	blank2r.bmp	880	3	hindern	880	1	!	1232	1	!	-1	0	0	0	0	0	0
2024-05-02	09:03:33	09:15:55	741592	6.6.1	4_exp_EVA_AWA_CON	4	B	A	Rpleas_acq	Oppo	Rpleas	2pleas	acq_US_unple_nomask	acq45_nomask	5	31	400	0	300	300	0	0	696	46	1	0	lachen	tolerant	helfen	treu	freundlich	schön	leiden	tyrannisch	hindern	tot	fanatisch	schlecht	spielen	fair	loyal	retten	schlau	ehrlich	strafen	faul	lasch	rächen	schroff	eitel	1	blank2r.bmp	0	1	+	0	1	blank2r.bmp	500	1	BMVZ	500	1	blank2r.bmp	880	1	leiden	880	1	!	1232	1	!	-1	0	0	0	0	0	0
2024-05-02	09:03:33	09:15:57	743811	6.6.1	4_exp_EVA_AWA_CON	4	B	A	Rpleas_acq	Oppo	Rpleas	2pleas	acq_US_unple_nomask	acq45_nomask	5	32	400	1	300	300	0	0	440	46	1	0	lachen	tolerant	helfen	treu	freundlich	schön	leiden	tyrannisch	hindern	tot	fanatisch	schlecht	spielen	fair	loyal	retten	schlau	ehrlich	strafen	faul	lasch	rächen	schroff	eitel	1	blank2r.bmp	0	1	+	0	1	blank2r.bmp	500	1	BMVZ	500	1	blank2r.bmp	880	6	schlecht	880	1	!	1232	1	!	1342	0	0	0	0	0	0
2024-05-02	09:03:33	09:15:59	746128	6.6.1	4_exp_EVA_AWA_CON	4	B	A	Rpleas_acq	Oppo	Rpleas	2pleas	acq_US_pleas_nomask	acq45_nomask	5	33	400	0	300	300	0	0	539	50	1	0	lachen	tolerant	helfen	treu	freundlich	schön	leiden	tyrannisch	hindern	tot	fanatisch	schlecht	spielen	fair	loyal	retten	schlau	ehrlich	strafen	faul	lasch	rächen	schroff	eitel	1	blank2r.bmp	0	1	+	0	1	blank2r.bmp	500	1	GKQX	500	1	blank2r.bmp	880	1	lachen	880	1	!	1232	1	!	-1	0	0	0	0	0	0
2024-05-02	09:03:33	09:16:01	748408	6.6.1	4_exp_EVA_AWA_CON	4	B	A	Rpleas_acq	Oppo	Rpleas	2pleas	acq_US_pleas_nomask	acq45_nomask	5	34	400	0	300	300	0	0	507	46	0	0	lachen	tolerant	helfen	treu	freundlich	schön	leiden	tyrannisch	hindern	tot	fanatisch	schlecht	spielen	fair	loyal	retten	schlau	ehrlich	strafen	faul	lasch	rächen	schroff	eitel	1	blank2r.bmp	0	1	+	0	1	blank2r.bmp	500	1	GKQX	500	1	blank2r.bmp	880	6	schön	880	1	!	1232	1	!	-1	0	0	0	0	0	0
2024-05-02	09:03:33	09:16:04	750643	6.6.1	4_exp_EVA_AWA_CON	4	B	A	Rpleas_acq	Oppo	Rpleas	2pleas	acq_US_unple_nomask	acq45_nomask	5	35	400	1	300	300	0	0	458	46	1	0	lachen	tolerant	helfen	treu	freundlich	schön	leiden	tyrannisch	hindern	tot	fanatisch	schlecht	spielen	fair	loyal	retten	schlau	ehrlich	strafen	faul	lasch	rächen	schroff	eitel	1	blank2r.bmp	0	1	+	0	1	blank2r.bmp	500	1	BMVZ	500	1	blank2r.bmp	880	4	tot	880	1	!	1232	1	!	1360	0	0	0	0	0	0
2024-05-02	09:03:33	09:16:06	752969	6.6.1	4_exp_EVA_AWA_CON	4	B	A	Rpleas_acq	Oppo	Rpleas	2pleas	acq_US_pleas_nomask	acq45_nomask	5	36	400	0	300	300	0	0	545	50	1	0	lachen	tolerant	helfen	treu	freundlich	schön	leiden	tyrannisch	hindern	tot	fanatisch	schlecht	spielen	fair	loyal	retten	schlau	ehrlich	strafen	faul	lasch	rächen	schroff	eitel	1	blank2r.bmp	0	1	+	0	1	blank2r.bmp	500	1	GKQX	500	1	blank2r.bmp	880	2	tolerant	880	1	!	1232	1	!	-1	0	0	0	0	0	0
2024-05-02	09:03:33	09:16:39	785893	6.6.1	4_exp_EVA_AWA_CON	4	B	A	Rpleas_acq	Oppo	Lpleas	2pleas	EvalRating_firsttwo	EvalRating_firsttwo	6	1	0	0	300	300	0	0	4731	line	0	-70,8333333333333285964pct	lachen	tolerant	helfen	treu	freundlich	schön	leiden	tyrannisch	hindern	tot	fanatisch	schlecht	spielen	fair	loyal	retten	schlau	ehrlich	strafen	faul	lasch	rächen	schroff	eitel	1		-8	1	Wie angenehm oder unangenehm finden Sie die  Buchstabenkette ZGVK?	-8	1		-8	1		-8	1		-8	1	Unangenehm	-8	1	Angenehm	-8	0	0	0	0	0	0	0	0	0
2024-05-02	09:03:33	09:16:45	792085	6.6.1	4_exp_EVA_AWA_CON	4	B	A	Rpleas_acq	Oppo	Lpleas	2pleas	EvalRating_lastfour	EvalRating_lastfour	7	1	0	0	300	300	0	0	3819	line	0	-53,2552083333333285964pct	lachen	tolerant	helfen	treu	freundlich	schön	leiden	tyrannisch	hindern	tot	fanatisch	schlecht	spielen	fair	loyal	retten	schlau	ehrlich	strafen	faul	lasch	rächen	schroff	eitel	1		-8	2	Wie angenehm oder unangenehm finden Sie die  Buchstabenkette GKQX?	-8	1		-8	1		-8	1		-8	1	Unangenehm	-8	1	Angenehm	-8	0	0	0	0	0	0	0	0	0
2024-05-02	09:03:33	09:16:48	794452	6.6.1	4_exp_EVA_AWA_CON	4	B	A	Rpleas_acq	Oppo	Lpleas	2pleas	blank_screen	EvalRating_lastfour	7	3	0	0	300	300	0	0	0	0	0	-53,2552083333333285964pct	lachen	tolerant	helfen	treu	freundlich	schön	leiden	tyrannisch	hindern	tot	fanatisch	schlecht	spielen	fair	loyal	retten	schlau	ehrlich	strafen	faul	lasch	rächen	schroff	eitel	1		-8	0	0	0	0	0	0	0	0	0	0	0	0	0	0	0	0	0	0	0	0	0	0	0	0	0	0	0
2024-05-02	09:03:33	09:16:51	797822	6.6.1	4_exp_EVA_AWA_CON	4	B	A	Rpleas_acq	Oppo	Lpleas	2pleas	EvalRating_lastfour	EvalRating_lastfour	7	4	0	0	300	300	0	0	2782	line	0	45,3125pct	lachen	tolerant	helfen	treu	freundlich	schön	leiden	tyrannisch	hindern	tot	fanatisch	schlecht	spielen	fair	loyal	retten	schlau	ehrlich	strafen	faul	lasch	rächen	schroff	eitel	1		-8	1	Wie angenehm oder unangenehm finden Sie die  Buchstabenkette BMVZ?	-8	1		-8	1		-8	1		-8	1	Unangenehm	-8	1	Angenehm	-8	0	0	0	0	0	0	0	0	0
2024-05-02	09:03:33	09:16:53	800196	6.6.1	4_exp_EVA_AWA_CON	4	B	A	Rpleas_acq	Oppo	Lpleas	2pleas	blank_screen	EvalRating_lastfour	7	6	0	0	300	300	0	0	0	0	0	45,3125pct	lachen	tolerant	helfen	treu	freundlich	schön	leiden	tyrannisch	hindern	tot	fanatisch	schlecht	spielen	fair	loyal	retten	schlau	ehrlich	strafen	faul	lasch	rächen	schroff	eitel	1		-8	0	0	0	0	0	0	0	0	0	0	0	0	0	0	0	0	0	0	0	0	0	0	0	0	0	0	0
2024-05-02	09:03:33	09:16:56	803308	6.6.1	4_exp_EVA_AWA_CON	4	B	A	Rpleas_acq	Oppo	Lpleas	2pleas	EvalRating_lastfour	EvalRating_lastfour	7	7	0	0	300	300	0	0	2525	line	0	-43,4895833333333285964pct	lachen	tolerant	helfen	treu	freundlich	schön	leiden	tyrannisch	hindern	tot	fanatisch	schlecht	spielen	fair	loyal	retten	schlau	ehrlich	strafen	faul	lasch	rächen	schroff	eitel	1		-8	3	Wie angenehm oder unangenehm finden Sie die  Buchstabenkette XBQM?	-8	1		-8	1		-8	1		-8	1	Unangenehm	-8	1	Angenehm	-8	0	0	0	0	0	0	0	0	0
2024-05-02	09:03:33	09:17:54	860963	6.6.1	4_exp_EVA_AWA_CON	4	B	A	Rpleas_acq	Oppo	Lpleas	2pleas	conawa_CS2_US2	conawa1_nomask	8	1	0	0	300	300	0	0	20804	tyrannisch	1	-43,4895833333333285964pct	lachen	tolerant	helfen	treu	freundlich	schön	leiden	tyrannisch	hindern	tot	fanatisch	schlecht	spielen	fair	loyal	retten	schlau	ehrlich	strafen	faul	lasch	rächen	schroff	eitel	0	0	0	0	0	0	0	0	0	0	0	0	0	0	0	0	0	0	0	0	0	0	0	0	0	0	0	0	0	0
2024-05-02	09:03:33	09:17:54	860965	6.6.1	4_exp_EVA_AWA_CON	4	B	A	Rpleas_acq	Oppo	Lpleas	2pleas	conawa_CS2_US2_confidence	conawa1_nomask	8	1	0	0	300	300	0	0	20804	probably	1	-43,4895833333333285964pct	lachen	tolerant	helfen	treu	freundlich	schön	leiden	tyrannisch	hindern	tot	fanatisch	schlecht	spielen	fair	loyal	retten	schlau	ehrlich	strafen	faul	lasch	rächen	schroff	eitel	0	0	0	0	0	0	0	0	0	0	0	0	0	0	0	0	0	0	0	0	0	0	0	0	0	0	0	0	0	0
2024-05-02	09:03:33	09:18:08	874842	6.6.1	4_exp_EVA_AWA_CON	4	B	A	Rpleas_acq	Oppo	Lpleas	2pleas	conawa_CS2_US5	conawa1_nomask	8	2	0	0	300	300	0	0	13258	fanatisch	1	-43,4895833333333285964pct	lachen	tolerant	helfen	treu	freundlich	schön	leiden	tyrannisch	hindern	tot	fanatisch	schlecht	spielen	fair	loyal	retten	schlau	ehrlich	strafen	faul	lasch	rächen	schroff	eitel	0	0	0	0	0	0	0	0	0	0	0	0	0	0	0	0	0	0	0	0	0	0	0	0	0	0	0	0	0	0
2024-05-02	09:03:33	09:18:08	874843	6.6.1	4_exp_EVA_AWA_CON	4	B	A	Rpleas_acq	Oppo	Lpleas	2pleas	conawa_CS2_US5_confidence	conawa1_nomask	8	2	0	0	300	300	0	0	13258	probably	1	-43,4895833333333285964pct	lachen	tolerant	helfen	treu	freundlich	schön	leiden	tyrannisch	hindern	tot	fanatisch	schlecht	spielen	fair	loyal	retten	schlau	ehrlich	strafen	faul	lasch	rächen	schroff	eitel	0	0	0	0	0	0	0	0	0	0	0	0	0	0	0	0	0	0	0	0	0	0	0	0	0	0	0	0	0	0
2024-05-02	09:03:33	09:18:19	885929	6.6.1	4_exp_EVA_AWA_CON	4	B	A	Rpleas_acq	Oppo	Lpleas	2pleas	conawa_CS2_US3	conawa1_nomask	8	3	0	0	300	300	0	0	10468	rächen	1	-43,4895833333333285964pct	lachen	tolerant	helfen	treu	freundlich	schön	leiden	tyrannisch	hindern	tot	fanatisch	schlecht	spielen	fair	loyal	retten	schlau	ehrlich	strafen	faul	lasch	rächen	schroff	eitel	0	0	0	0	0	0	0	0	0	0	0	0	0	0	0	0	0	0	0	0	0	0	0	0	0	0	0	0	0	0
2024-05-02	09:03:33	09:18:19	885931	6.6.1	4_exp_EVA_AWA_CON	4	B	A	Rpleas_acq	Oppo	Lpleas	2pleas	conawa_CS2_US3_confidence	conawa1_nomask	8	3	0	0	300	300	0	0	10468	probably	1	-43,4895833333333285964pct	lachen	tolerant	helfen	treu	freundlich	schön	leiden	tyrannisch	hindern	tot	fanatisch	schlecht	spielen	fair	loyal	retten	schlau	ehrlich	strafen	faul	lasch	rächen	schroff	eitel	0	0	0	0	0	0	0	0	0	0	0	0	0	0	0	0	0	0	0	0	0	0	0	0	0	0	0	0	0	0
2024-05-02	09:03:33	09:18:42	908584	6.6.1	4_exp_EVA_AWA_CON	4	B	A	Rpleas_acq	Oppo	Lpleas	2pleas	conawa_CS1_US6	conawa1_nomask	8	4	0	0	300	300	0	0	22035	schlecht	1	-43,4895833333333285964pct	lachen	tolerant	helfen	treu	freundlich	schön	leiden	tyrannisch	hindern	tot	fanatisch	schlecht	spielen	fair	loyal	retten	schlau	ehrlich	strafen	faul	lasch	rächen	schroff	eitel	0	0	0	0	0	0	0	0	0	0	0	0	0	0	0	0	0	0	0	0	0	0	0	0	0	0	0	0	0	0
2024-05-02	09:03:33	09:18:42	908585	6.6.1	4_exp_EVA_AWA_CON	4	B	A	Rpleas_acq	Oppo	Lpleas	2pleas	conawa_CS1_US6_confidence	conawa1_nomask	8	4	0	0	300	300	0	0	22035	guess	1	-43,4895833333333285964pct	lachen	tolerant	helfen	treu	freundlich	schön	leiden	tyrannisch	hindern	tot	fanatisch	schlecht	spielen	fair	loyal	retten	schlau	ehrlich	strafen	faul	lasch	rächen	schroff	eitel	0	0	0	0	0	0	0	0	0	0	0	0	0	0	0	0	0	0	0	0	0	0	0	0	0	0	0	0	0	0
2024-05-02	09:03:33	09:18:50	917019	6.6.1	4_exp_EVA_AWA_CON	4	B	A	Rpleas_acq	Oppo	Lpleas	2pleas	conawa_CS1_US1	conawa1_nomask	8	5	0	0	300	300	0	0	7821	leiden	1	-43,4895833333333285964pct	lachen	tolerant	helfen	treu	freundlich	schön	leiden	tyrannisch	hindern	tot	fanatisch	schlecht	spielen	fair	loyal	retten	schlau	ehrlich	strafen	faul	lasch	rächen	schroff	eitel	0	0	0	0	0	0	0	0	0	0	0	0	0	0	0	0	0	0	0	0	0	0	0	0	0	0	0	0	0	0
2024-05-02	09:03:33	09:18:50	917021	6.6.1	4_exp_EVA_AWA_CON	4	B	A	Rpleas_acq	Oppo	Lpleas	2pleas	conawa_CS1_US1_confidence	conawa1_nomask	8	5	0	0	300	300	0	0	7821	guess	1	-43,4895833333333285964pct	lachen	tolerant	helfen	treu	freundlich	schön	leiden	tyrannisch	hindern	tot	fanatisch	schlecht	spielen	fair	loyal	retten	schlau	ehrlich	strafen	faul	lasch	rächen	schroff	eitel	0	0	0	0	0	0	0	0	0	0	0	0	0	0	0	0	0	0	0	0	0	0	0	0	0	0	0	0	0	0
2024-05-02	09:03:33	09:18:57	924083	6.6.1	4_exp_EVA_AWA_CON	4	B	A	Rpleas_acq	Oppo	Lpleas	2pleas	conawa_CS2_US4	conawa1_nomask	8	6	0	0	300	300	0	0	6443	tot	1	-43,4895833333333285964pct	lachen	tolerant	helfen	treu	freundlich	schön	leiden	tyrannisch	hindern	tot	fanatisch	schlecht	spielen	fair	loyal	retten	schlau	ehrlich	strafen	faul	lasch	rächen	schroff	eitel	0	0	0	0	0	0	0	0	0	0	0	0	0	0	0	0	0	0	0	0	0	0	0	0	0	0	0	0	0	0
2024-05-02	09:03:33	09:18:57	924085	6.6.1	4_exp_EVA_AWA_CON	4	B	A	Rpleas_acq	Oppo	Lpleas	2pleas	conawa_CS2_US4_confidence	conawa1_nomask	8	6	0	0	300	300	0	0	6443	guess	1	-43,4895833333333285964pct	lachen	tolerant	helfen	treu	freundlich	schön	leiden	tyrannisch	hindern	tot	fanatisch	schlecht	spielen	fair	loyal	retten	schlau	ehrlich	strafen	faul	lasch	rächen	schroff	eitel	0	0	0	0	0	0	0	0	0	0	0	0	0	0	0	0	0	0	0	0	0	0	0	0	0	0	0	0	0	0
2024-05-02	09:03:33	09:19:03	929667	6.6.1	4_exp_EVA_AWA_CON	4	B	A	Rpleas_acq	Oppo	Lpleas	2pleas	conawa_CS2_US1	conawa1_nomask	8	7	0	0	300	300	0	0	4964	fair	1	-43,4895833333333285964pct	lachen	tolerant	helfen	treu	freundlich	schön	leiden	tyrannisch	hindern	tot	fanatisch	schlecht	spielen	fair	loyal	retten	schlau	ehrlich	strafen	faul	lasch	rächen	schroff	eitel	0	0	0	0	0	0	0	0	0	0	0	0	0	0	0	0	0	0	0	0	0	0	0	0	0	0	0	0	0	0
2024-05-02	09:03:33	09:19:03	929669	6.6.1	4_exp_EVA_AWA_CON	4	B	A	Rpleas_acq	Oppo	Lpleas	2pleas	conawa_CS2_US1_confidence	conawa1_nomask	8	7	0	0	300	300	0	0	4964	guess	1	-43,4895833333333285964pct	lachen	tolerant	helfen	treu	freundlich	schön	leiden	tyrannisch	hindern	tot	fanatisch	schlecht	spielen	fair	loyal	retten	schlau	ehrlich	strafen	faul	lasch	rächen	schroff	eitel	0	0	0	0	0	0	0	0	0	0	0	0	0	0	0	0	0	0	0	0	0	0	0	0	0	0	0	0	0	0
2024-05-02	09:03:33	09:19:12	939313	6.6.1	4_exp_EVA_AWA_CON	4	B	A	Rpleas_acq	Oppo	Lpleas	2pleas	conawa_CS2_US6	conawa1_nomask	8	8	0	0	300	300	0	0	9028	strafen	1	-43,4895833333333285964pct	lachen	tolerant	helfen	treu	freundlich	schön	leiden	tyrannisch	hindern	tot	fanatisch	schlecht	spielen	fair	loyal	retten	schlau	ehrlich	strafen	faul	lasch	rächen	schroff	eitel	0	0	0	0	0	0	0	0	0	0	0	0	0	0	0	0	0	0	0	0	0	0	0	0	0	0	0	0	0	0
2024-05-02	09:03:33	09:19:12	939315	6.6.1	4_exp_EVA_AWA_CON	4	B	A	Rpleas_acq	Oppo	Lpleas	2pleas	conawa_CS2_US6_confidence	conawa1_nomask	8	8	0	0	300	300	0	0	9028	guess	1	-43,4895833333333285964pct	lachen	tolerant	helfen	treu	freundlich	schön	leiden	tyrannisch	hindern	tot	fanatisch	schlecht	spielen	fair	loyal	retten	schlau	ehrlich	strafen	faul	lasch	rächen	schroff	eitel	0	0	0	0	0	0	0	0	0	0	0	0	0	0	0	0	0	0	0	0	0	0	0	0	0	0	0	0	0	0
2024-05-02	09:03:33	09:19:18	945378	6.6.1	4_exp_EVA_AWA_CON	4	B	A	Rpleas_acq	Oppo	Lpleas	2pleas	conawa_CS1_US4	conawa1_nomask	8	9	0	0	300	300	0	0	5444	tot	1	-43,4895833333333285964pct	lachen	tolerant	helfen	treu	freundlich	schön	leiden	tyrannisch	hindern	tot	fanatisch	schlecht	spielen	fair	loyal	retten	schlau	ehrlich	strafen	faul	lasch	rächen	schroff	eitel	0	0	0	0	0	0	0	0	0	0	0	0	0	0	0	0	0	0	0	0	0	0	0	0	0	0	0	0	0	0
2024-05-02	09:03:33	09:19:18	945379	6.6.1	4_exp_EVA_AWA_CON	4	B	A	Rpleas_acq	Oppo	Lpleas	2pleas	conawa_CS1_US4_confidence	conawa1_nomask	8	9	0	0	300	300	0	0	5444	guess	1	-43,4895833333333285964pct	lachen	tolerant	helfen	treu	freundlich	schön	leiden	tyrannisch	hindern	tot	fanatisch	schlecht	spielen	fair	loyal	retten	schlau	ehrlich	strafen	faul	lasch	rächen	schroff	eitel	0	0	0	0	0	0	0	0	0	0	0	0	0	0	0	0	0	0	0	0	0	0	0	0	0	0	0	0	0	0
2024-05-02	09:03:33	09:19:27	953752	6.6.1	4_exp_EVA_AWA_CON	4	B	A	Rpleas_acq	Oppo	Lpleas	2pleas	conawa_CS1_US3	conawa1_nomask	8	10	0	0	300	300	0	0	7757	loyal	1	-43,4895833333333285964pct	lachen	tolerant	helfen	treu	freundlich	schön	leiden	tyrannisch	hindern	tot	fanatisch	schlecht	spielen	fair	loyal	retten	schlau	ehrlich	strafen	faul	lasch	rächen	schroff	eitel	0	0	0	0	0	0	0	0	0	0	0	0	0	0	0	0	0	0	0	0	0	0	0	0	0	0	0	0	0	0
2024-05-02	09:03:33	09:19:27	953754	6.6.1	4_exp_EVA_AWA_CON	4	B	A	Rpleas_acq	Oppo	Lpleas	2pleas	conawa_CS1_US3_confidence	conawa1_nomask	8	10	0	0	300	300	0	0	7757	guess	1	-43,4895833333333285964pct	lachen	tolerant	helfen	treu	freundlich	schön	leiden	tyrannisch	hindern	tot	fanatisch	schlecht	spielen	fair	loyal	retten	schlau	ehrlich	strafen	faul	lasch	rächen	schroff	eitel	0	0	0	0	0	0	0	0	0	0	0	0	0	0	0	0	0	0	0	0	0	0	0	0	0	0	0	0	0	0
2024-05-02	09:03:33	09:19:34	960977	6.6.1	4_exp_EVA_AWA_CON	4	B	A	Rpleas_acq	Oppo	Lpleas	2pleas	conawa_CS1_US5	conawa1_nomask	8	11	0	0	300	300	0	0	6605	fanatisch	1	-43,4895833333333285964pct	lachen	tolerant	helfen	treu	freundlich	schön	leiden	tyrannisch	hindern	tot	fanatisch	schlecht	spielen	fair	loyal	retten	schlau	ehrlich	strafen	faul	lasch	rächen	schroff	eitel	0	0	0	0	0	0	0	0	0	0	0	0	0	0	0	0	0	0	0	0	0	0	0	0	0	0	0	0	0	0
2024-05-02	09:03:33	09:19:34	960979	6.6.1	4_exp_EVA_AWA_CON	4	B	A	Rpleas_acq	Oppo	Lpleas	2pleas	conawa_CS1_US5_confidence	conawa1_nomask	8	11	0	0	300	300	0	0	6605	guess	1	-43,4895833333333285964pct	lachen	tolerant	helfen	treu	freundlich	schön	leiden	tyrannisch	hindern	tot	fanatisch	schlecht	spielen	fair	loyal	retten	schlau	ehrlich	strafen	faul	lasch	rächen	schroff	eitel	0	0	0	0	0	0	0	0	0	0	0	0	0	0	0	0	0	0	0	0	0	0	0	0	0	0	0	0	0	0
2024-05-02	09:03:33	09:19:39	965561	6.6.1	4_exp_EVA_AWA_CON	4	B	A	Rpleas_acq	Oppo	Lpleas	2pleas	conawa_CS1_US2	conawa1_nomask	8	12	0	0	300	300	0	0	3964	fair	1	-43,4895833333333285964pct	lachen	tolerant	helfen	treu	freundlich	schön	leiden	tyrannisch	hindern	tot	fanatisch	schlecht	spielen	fair	loyal	retten	schlau	ehrlich	strafen	faul	lasch	rächen	schroff	eitel	0	0	0	0	0	0	0	0	0	0	0	0	0	0	0	0	0	0	0	0	0	0	0	0	0	0	0	0	0	0
2024-05-02	09:03:33	09:19:39	965562	6.6.1	4_exp_EVA_AWA_CON	4	B	A	Rpleas_acq	Oppo	Lpleas	2pleas	conawa_CS1_US2_confidence	conawa1_nomask	8	12	0	0	300	300	0	0	3964	guess	1	-43,4895833333333285964pct	lachen	tolerant	helfen	treu	freundlich	schön	leiden	tyrannisch	hindern	tot	fanatisch	schlecht	spielen	fair	loyal	retten	schlau	ehrlich	strafen	faul	lasch	rächen	schroff	eitel	0	0	0	0	0	0	0	0	0	0	0	0	0	0	0	0	0	0	0	0	0	0	0	0	0	0	0	0	0	0
2024-05-02	09:03:33	09:21:16	1062784	6.6.1	4_exp_EVA_AWA_CON	4	B	A	Rpleas_acq	Oppo	Lpleas	2pleas	cond_new_unple_456_nomask_CS1	condtest_nomask_1	11	1	400	0	300	300	0	0	1712	46	0	-43,4895833333333285964pct	lachen	tolerant	helfen	treu	freundlich	schön	leiden	tyrannisch	hindern	tot	fanatisch	schlecht	spielen	fair	loyal	retten	schlau	ehrlich	strafen	faul	lasch	rächen	schroff	eitel	1	blank2r.bmp	0	1	+	0	1	blank2r.bmp	500	1	BMVZ	500	1	blank2r.bmp	880	1	rächen	880	1	!	1233	1	!	-1	0	0	0	0	0	0
2024-05-02	09:03:33	09:21:19	1065856	6.6.1	4_exp_EVA_AWA_CON	4	B	A	Rpleas_acq	Oppo	Lpleas	2pleas	cond_US_pleas_123_nomask_CS2	condtest_nomask_1	11	2	400	0	300	300	0	0	1292	46	1	-43,4895833333333285964pct	lachen	tolerant	helfen	treu	freundlich	schön	leiden	tyrannisch	hindern	tot	fanatisch	schlecht	spielen	fair	loyal	retten	schlau	ehrlich	strafen	faul	lasch	rächen	schroff	eitel	1	blank2r.bmp	0	1	+	0	1	blank2r.bmp	500	1	GKQX	500	1	blank2r.bmp	880	2	lachen	880	1	!	1232	1	!	-1	0	0	0	0	0	0
2024-05-02	09:03:33	09:21:21	1068090	6.6.1	4_exp_EVA_AWA_CON	4	B	A	Rpleas_acq	Oppo	Lpleas	2pleas	cond_US_pleas_123_nomask_CS1	condtest_nomask_1	11	3	400	1	300	300	0	0	452	46	1	-43,4895833333333285964pct	lachen	tolerant	helfen	treu	freundlich	schön	leiden	tyrannisch	hindern	tot	fanatisch	schlecht	spielen	fair	loyal	retten	schlau	ehrlich	strafen	faul	lasch	rächen	schroff	eitel	1	blank2r.bmp	0	1	+	0	1	blank2r.bmp	500	1	BMVZ	500	1	blank2r.bmp	880	2	tolerant	880	1	!	1232	1	!	1353	0	0	0	0	0	0
2024-05-02	09:03:33	09:21:23	1070314	6.6.1	4_exp_EVA_AWA_CON	4	B	A	Rpleas_acq	Oppo	Lpleas	2pleas	cond_new_pleas_456_nomask_CS2	condtest_nomask_1	11	4	400	1	300	300	0	0	445	46	1	-43,4895833333333285964pct	lachen	tolerant	helfen	treu	freundlich	schön	leiden	tyrannisch	hindern	tot	fanatisch	schlecht	spielen	fair	loyal	retten	schlau	ehrlich	strafen	faul	lasch	rächen	schroff	eitel	1	blank2r.bmp	0	1	+	0	1	blank2r.bmp	500	1	GKQX	500	1	blank2r.bmp	880	1	ehrlich	880	1	!	1233	1	!	1346	0	0	0	0	0	0
2024-05-02	09:03:33	09:21:26	1072632	6.6.1	4_exp_EVA_AWA_CON	4	B	A	Rpleas_acq	Oppo	Lpleas	2pleas	cond_US_unple_123_nomask_CS2	condtest_nomask_1	11	5	400	0	300	300	0	0	543	50	1	-43,4895833333333285964pct	lachen	tolerant	helfen	treu	freundlich	schön	leiden	tyrannisch	hindern	tot	fanatisch	schlecht	spielen	fair	loyal	retten	schlau	ehrlich	strafen	faul	lasch	rächen	schroff	eitel	1	blank2r.bmp	0	1	+	0	1	blank2r.bmp	500	1	GKQX	500	1	blank2r.bmp	880	3	tyrannisch	880	1	!	1232	1	!	-1	0	0	0	0	0	0
2024-05-02	09:03:33	09:21:28	1075016	6.6.1	4_exp_EVA_AWA_CON	4	B	A	Rpleas_acq	Oppo	Lpleas	2pleas	cond_new_pleas_456_nomask_CS1	condtest_nomask_1	11	6	400	0	300	300	0	0	606	46	1	-43,4895833333333285964pct	lachen	tolerant	helfen	treu	freundlich	schön	leiden	tyrannisch	hindern	tot	fanatisch	schlecht	spielen	fair	loyal	retten	schlau	ehrlich	strafen	faul	lasch	rächen	schroff	eitel	1	blank2r.bmp	0	1	+	0	1	blank2r.bmp	500	1	BMVZ	500	1	blank2r.bmp	880	1	retten	880	1	!	1232	1	!	-1	0	0	0	0	0	0
2024-05-02	09:03:33	09:21:30	1077353	6.6.1	4_exp_EVA_AWA_CON	4	B	A	Rpleas_acq	Oppo	Lpleas	2pleas	cond_new_unple_456_nomask_CS2	condtest_nomask_1	11	7	400	0	300	300	0	0	560	50	1	-43,4895833333333285964pct	lachen	tolerant	helfen	treu	freundlich	schön	leiden	tyrannisch	hindern	tot	fanatisch	schlecht	spielen	fair	loyal	retten	schlau	ehrlich	strafen	faul	lasch	rächen	schroff	eitel	1	blank2r.bmp	0	1	+	0	1	blank2r.bmp	500	1	GKQX	500	1	blank2r.bmp	880	1	eitel	880	1	!	1232	1	!	-1	0	0	0	0	0	0
2024-05-02	09:03:33	09:21:33	1079648	6.6.1	4_exp_EVA_AWA_CON	4	B	A	Rpleas_acq	Oppo	Lpleas	2pleas	cond_US_unple_123_nomask_CS1	condtest_nomask_1	11	8	400	0	300	300	0	0	515	50	1	-43,4895833333333285964pct	lachen	tolerant	helfen	treu	freundlich	schön	leiden	tyrannisch	hindern	tot	fanatisch	schlecht	spielen	fair	loyal	retten	schlau	ehrlich	strafen	faul	lasch	rächen	schroff	eitel	1	blank2r.bmp	0	1	+	0	1	blank2r.bmp	500	1	BMVZ	500	1	blank2r.bmp	880	1	leiden	880	1	!	1233	1	!	-1	0	0	0	0	0	0
2024-05-02	09:03:33	09:21:48	1094680	6.6.1	4_exp_EVA_AWA_CON	4	B	A	Rpleas_acq	Oppo	Lpleas	2pleas	cond_US_unple_123_nomask_CS2	condtest_nomask_2	12	1	400	0	300	300	0	0	797	50	1	-43,4895833333333285964pct	lachen	tolerant	helfen	treu	freundlich	schön	leiden	tyrannisch	hindern	tot	fanatisch	schlecht	spielen	fair	loyal	retten	schlau	ehrlich	strafen	faul	lasch	rächen	schroff	eitel	1	blank2r.bmp	0	1	+	0	1	blank2r.bmp	500	1	GKQX	500	1	blank2r.bmp	880	2	leiden	880	1	!	1232	1	!	-1	0	0	0	0	0	0
