date	time	currenttime	elapsedtime	build	currentexpt	subject	CS_AB	US_AB	LRpleas_acq	SameOppo	condition_Lpleas	condition_1pleas	trialcode	blockcode	blocknum	trialnum	windowcenter	inwindow	pretrialpause	posttrialpause	trialduration	trialtimeout	latency	response	correct	correctedscore	US_nomask_pleas1	US_nomask_pleas2	US_nomask_pleas3	US_nomask_pleas4	US_nomask_pleas5	US_nomask_pleas6	US_nomask_unple1	US_nomask_unple2	US_nomask_unple3	US_nomask_unple4	US_nomask_unple5	US_nomask_unple6	new_nomask_pleas1	new_nomask_pleas2	new_nomask_pleas3	new_nomask_pleas4	new_nomask_pleas5	new_nomask_pleas6	new_nomask_unple1	new_nomask_unple2	new_nomask_unple3	new_nomask_unple4	new_nomask_unple5	new_nomask_unple6	stimulusnumber1	stimulusitem1	stimulusonset1	stimulusnumber2	stimulusitem2	stimulusonset2	stimulusnumber3	stimulusitem3	stimulusonset3	stimulusnumber4	stimulusitem4	stimulusonset4	stimulusnumber5	stimulusitem5	stimulusonset5	stimulusnumber6	stimulusitem6	stimulusonset6	stimulusnumber7	stimulusitem7	stimulusonset7	stimulusnumber8	stimulusitem8	stimulusonset8	stimulusnumber9	stimulusitem9	stimulusonset9	stimulusnumber10	stimulusitem10	stimulusonset10
2024-05-15	10:48:04	10:48:49	44172	6.6.1	4_exp_EVA_AWA_CON	31	A	B	Rpleas_acq	Same	Rpleas	2pleas	acq_new_unple_nomask	acq1_nomask	1	1	0	0	300	300	0	0	1164	46	1	0	anregung	träumen	vergnügt	sonnig	engagiert	vertrauen	ausrottung	töten	verbissen	sterben	engstirnig	versagen	besonnen	gütig	genießen	gesittet	kuss	kreativ	bange	gierig	gemein	geizig	krise	krank	1	blank2r.bmp	0	1	+	0	1	blank2r.bmp	500	8	C4r.bmp	500	1	blank2r.bmp	880	3	gemein	880	0	0	0	0	0	0	0	0	0	0	0	0
2024-05-15	10:48:04	10:48:52	46851	6.6.1	4_exp_EVA_AWA_CON	31	A	B	Rpleas_acq	Same	Rpleas	2pleas	acq_new_unple_nomask	acq1_nomask	1	2	0	0	300	300	0	0	1191	46	1	0	anregung	träumen	vergnügt	sonnig	engagiert	vertrauen	ausrottung	töten	verbissen	sterben	engstirnig	versagen	besonnen	gütig	genießen	gesittet	kuss	kreativ	bange	gierig	gemein	geizig	krise	krank	1	blank2r.bmp	0	1	+	0	1	blank2r.bmp	500	1	B1r.bmp	500	1	blank2r.bmp	880	6	krank	880	0	0	0	0	0	0	0	0	0	0	0	0
2024-05-15	10:48:04	10:48:55	49852	6.6.1	4_exp_EVA_AWA_CON	31	A	B	Rpleas_acq	Same	Rpleas	2pleas	acq_US_unple_nomask	acq1_nomask	1	3	0	0	300	300	0	0	1510	46	1	0	anregung	träumen	vergnügt	sonnig	engagiert	vertrauen	ausrottung	töten	verbissen	sterben	engstirnig	versagen	besonnen	gütig	genießen	gesittet	kuss	kreativ	bange	gierig	gemein	geizig	krise	krank	1	blank2r.bmp	0	1	+	0	1	blank2r.bmp	500	1	CPLW	500	1	blank2r.bmp	880	4	sterben	880	0	0	0	0	0	0	0	0	0	0	0	0
2024-05-15	10:48:04	10:48:57	52004	6.6.1	4_exp_EVA_AWA_CON	31	A	B	Rpleas_acq	Same	Rpleas	2pleas	acq_US_unple_nomask	acq1_nomask	1	4	0	0	300	300	0	0	670	46	1	0	anregung	träumen	vergnügt	sonnig	engagiert	vertrauen	ausrottung	töten	verbissen	sterben	engstirnig	versagen	besonnen	gütig	genießen	gesittet	kuss	kreativ	bange	gierig	gemein	geizig	krise	krank	1	blank2r.bmp	0	1	+	0	1	blank2r.bmp	500	1	CPLW	500	1	blank2r.bmp	880	1	ausrottung	880	0	0	0	0	0	0	0	0	0	0	0	0
2024-05-15	10:48:04	10:48:59	54299	6.6.1	4_exp_EVA_AWA_CON	31	A	B	Rpleas_acq	Same	Rpleas	2pleas	acq_new_pleas_nomask	acq1_nomask	1	5	0	0	300	300	0	0	814	50	1	0	anregung	träumen	vergnügt	sonnig	engagiert	vertrauen	ausrottung	töten	verbissen	sterben	engstirnig	versagen	besonnen	gütig	genießen	gesittet	kuss	kreativ	bange	gierig	gemein	geizig	krise	krank	1	blank2r.bmp	0	1	+	0	1	blank2r.bmp	500	7	C3r.bmp	500	1	blank2r.bmp	880	1	besonnen	880	0	0	0	0	0	0	0	0	0	0	0	0
2024-05-15	10:48:04	10:49:02	57068	6.6.1	4_exp_EVA_AWA_CON	31	A	B	Rpleas_acq	Same	Rpleas	2pleas	acq_US_unple_nomask	acq1_nomask	1	6	0	0	300	300	0	0	1281	46	1	0	anregung	träumen	vergnügt	sonnig	engagiert	vertrauen	ausrottung	töten	verbissen	sterben	engstirnig	versagen	besonnen	gütig	genießen	gesittet	kuss	kreativ	bange	gierig	gemein	geizig	krise	krank	1	blank2r.bmp	0	1	+	0	1	blank2r.bmp	500	1	CPLW	500	1	blank2r.bmp	880	5	engstirnig	880	0	0	0	0	0	0	0	0	0	0	0	0
2024-05-15	10:48:04	10:49:04	59363	6.6.1	4_exp_EVA_AWA_CON	31	A	B	Rpleas_acq	Same	Rpleas	2pleas	acq_new_pleas_nomask	acq1_nomask	1	7	0	0	300	300	0	0	815	50	1	0	anregung	träumen	vergnügt	sonnig	engagiert	vertrauen	ausrottung	töten	verbissen	sterben	engstirnig	versagen	besonnen	gütig	genießen	gesittet	kuss	kreativ	bange	gierig	gemein	geizig	krise	krank	1	blank2r.bmp	0	1	+	0	1	blank2r.bmp	500	6	C2r.bmp	500	1	blank2r.bmp	880	2	gütig	880	0	0	0	0	0	0	0	0	0	0	0	0
2024-05-15	10:48:04	10:49:06	61483	6.6.1	4_exp_EVA_AWA_CON	31	A	B	Rpleas_acq	Same	Rpleas	2pleas	acq_US_pleas_nomask	acq1_nomask	1	8	0	0	300	300	0	0	634	50	1	0	anregung	träumen	vergnügt	sonnig	engagiert	vertrauen	ausrottung	töten	verbissen	sterben	engstirnig	versagen	besonnen	gütig	genießen	gesittet	kuss	kreativ	bange	gierig	gemein	geizig	krise	krank	1	blank2r.bmp	0	1	+	0	1	blank2r.bmp	500	1	DHJF	500	1	blank2r.bmp	880	2	träumen	880	0	0	0	0	0	0	0	0	0	0	0	0
2024-05-15	10:48:04	10:49:09	64043	6.6.1	4_exp_EVA_AWA_CON	31	A	B	Rpleas_acq	Same	Rpleas	2pleas	acq_new_unple_nomask	acq1_nomask	1	9	0	0	300	300	0	0	1072	46	1	0	anregung	träumen	vergnügt	sonnig	engagiert	vertrauen	ausrottung	töten	verbissen	sterben	engstirnig	versagen	besonnen	gütig	genießen	gesittet	kuss	kreativ	bange	gierig	gemein	geizig	krise	krank	1	blank2r.bmp	0	1	+	0	1	blank2r.bmp	500	3	B3r.bmp	500	1	blank2r.bmp	880	2	gierig	880	0	0	0	0	0	0	0	0	0	0	0	0
2024-05-15	10:48:04	10:49:11	66171	6.6.1	4_exp_EVA_AWA_CON	31	A	B	Rpleas_acq	Same	Rpleas	2pleas	acq_US_pleas_nomask	acq1_nomask	1	10	0	0	300	300	0	0	639	50	1	0	anregung	träumen	vergnügt	sonnig	engagiert	vertrauen	ausrottung	töten	verbissen	sterben	engstirnig	versagen	besonnen	gütig	genießen	gesittet	kuss	kreativ	bange	gierig	gemein	geizig	krise	krank	1	blank2r.bmp	0	1	+	0	1	blank2r.bmp	500	1	DHJF	500	1	blank2r.bmp	880	3	vergnügt	880	0	0	0	0	0	0	0	0	0	0	0	0
2024-05-15	10:48:04	10:49:13	68435	6.6.1	4_exp_EVA_AWA_CON	31	A	B	Rpleas_acq	Same	Rpleas	2pleas	acq_US_pleas_nomask	acq1_nomask	1	11	0	0	300	300	0	0	781	50	1	0	anregung	träumen	vergnügt	sonnig	engagiert	vertrauen	ausrottung	töten	verbissen	sterben	engstirnig	versagen	besonnen	gütig	genießen	gesittet	kuss	kreativ	bange	gierig	gemein	geizig	krise	krank	1	blank2r.bmp	0	1	+	0	1	blank2r.bmp	500	1	DHJF	500	1	blank2r.bmp	880	1	anregung	880	0	0	0	0	0	0	0	0	0	0	0	0
2024-05-15	10:48:04	10:49:16	70563	6.6.1	4_exp_EVA_AWA_CON	31	A	B	Rpleas_acq	Same	Rpleas	2pleas	acq_new_pleas_nomask	acq1_nomask	1	12	0	0	300	300	0	0	638	50	1	0	anregung	träumen	vergnügt	sonnig	engagiert	vertrauen	ausrottung	töten	verbissen	sterben	engstirnig	versagen	besonnen	gütig	genießen	gesittet	kuss	kreativ	bange	gierig	gemein	geizig	krise	krank	1	blank2r.bmp	0	1	+	0	1	blank2r.bmp	500	2	B2r.bmp	500	1	blank2r.bmp	880	6	kreativ	880	0	0	0	0	0	0	0	0	0	0	0	0
2024-05-15	10:48:04	10:49:18	72571	6.6.1	4_exp_EVA_AWA_CON	31	A	B	Rpleas_acq	Same	Rpleas	2pleas	acq_US_pleas_nomask	acq1_nomask	1	13	0	0	300	300	0	0	524	50	1	0	anregung	träumen	vergnügt	sonnig	engagiert	vertrauen	ausrottung	töten	verbissen	sterben	engstirnig	versagen	besonnen	gütig	genießen	gesittet	kuss	kreativ	bange	gierig	gemein	geizig	krise	krank	1	blank2r.bmp	0	1	+	0	1	blank2r.bmp	500	1	DHJF	500	1	blank2r.bmp	880	5	engagiert	880	0	0	0	0	0	0	0	0	0	0	0	0
2024-05-15	10:48:04	10:49:20	74755	6.6.1	4_exp_EVA_AWA_CON	31	A	B	Rpleas_acq	Same	Rpleas	2pleas	acq_US_unple_nomask	acq1_nomask	1	14	0	0	300	300	0	0	697	46	1	0	anregung	träumen	vergnügt	sonnig	engagiert	vertrauen	ausrottung	töten	verbissen	sterben	engstirnig	versagen	besonnen	gütig	genießen	gesittet	kuss	kreativ	bange	gierig	gemein	geizig	krise	krank	1	blank2r.bmp	0	1	+	0	1	blank2r.bmp	500	1	CPLW	500	1	blank2r.bmp	880	3	verbissen	880	0	0	0	0	0	0	0	0	0	0	0	0
2024-05-15	10:48:04	10:49:22	77083	6.6.1	4_exp_EVA_AWA_CON	31	A	B	Rpleas_acq	Same	Rpleas	2pleas	acq_new_unple_nomask	acq1_nomask	1	15	0	0	300	300	0	0	844	46	1	0	anregung	träumen	vergnügt	sonnig	engagiert	vertrauen	ausrottung	töten	verbissen	sterben	engstirnig	versagen	besonnen	gütig	genießen	gesittet	kuss	kreativ	bange	gierig	gemein	geizig	krise	krank	1	blank2r.bmp	0	1	+	0	1	blank2r.bmp	500	5	C1r.bmp	500	1	blank2r.bmp	880	4	geizig	880	0	0	0	0	0	0	0	0	0	0	0	0
2024-05-15	10:48:04	10:49:24	79172	6.6.1	4_exp_EVA_AWA_CON	31	A	B	Rpleas_acq	Same	Rpleas	2pleas	acq_US_pleas_nomask	acq1_nomask	1	16	0	0	300	300	0	0	600	50	1	0	anregung	träumen	vergnügt	sonnig	engagiert	vertrauen	ausrottung	töten	verbissen	sterben	engstirnig	versagen	besonnen	gütig	genießen	gesittet	kuss	kreativ	bange	gierig	gemein	geizig	krise	krank	1	blank2r.bmp	0	1	+	0	1	blank2r.bmp	500	1	DHJF	500	1	blank2r.bmp	880	6	vertrauen	880	0	0	0	0	0	0	0	0	0	0	0	0
2024-05-15	10:48:04	10:49:27	81635	6.6.1	4_exp_EVA_AWA_CON	31	A	B	Rpleas_acq	Same	Rpleas	2pleas	acq_new_pleas_nomask	acq1_nomask	1	17	0	0	300	300	0	0	983	50	1	0	anregung	träumen	vergnügt	sonnig	engagiert	vertrauen	ausrottung	töten	verbissen	sterben	engstirnig	versagen	besonnen	gütig	genießen	gesittet	kuss	kreativ	bange	gierig	gemein	geizig	krise	krank	1	blank2r.bmp	0	1	+	0	1	blank2r.bmp	500	4	B4r.bmp	500	1	blank2r.bmp	880	5	kuss	880	0	0	0	0	0	0	0	0	0	0	0	0
2024-05-15	10:48:04	10:49:29	84243	6.6.1	4_exp_EVA_AWA_CON	31	A	B	Rpleas_acq	Same	Rpleas	2pleas	acq_new_pleas_nomask	acq1_nomask	1	18	0	0	300	300	0	0	1119	50	1	0	anregung	träumen	vergnügt	sonnig	engagiert	vertrauen	ausrottung	töten	verbissen	sterben	engstirnig	versagen	besonnen	gütig	genießen	gesittet	kuss	kreativ	bange	gierig	gemein	geizig	krise	krank	1	blank2r.bmp	0	1	+	0	1	blank2r.bmp	500	1	B1r.bmp	500	1	blank2r.bmp	880	4	gesittet	880	0	0	0	0	0	0	0	0	0	0	0	0
2024-05-15	10:48:04	10:49:31	86243	6.6.1	4_exp_EVA_AWA_CON	31	A	B	Rpleas_acq	Same	Rpleas	2pleas	acq_US_unple_nomask	acq1_nomask	1	19	0	0	300	300	0	0	518	46	1	0	anregung	träumen	vergnügt	sonnig	engagiert	vertrauen	ausrottung	töten	verbissen	sterben	engstirnig	versagen	besonnen	gütig	genießen	gesittet	kuss	kreativ	bange	gierig	gemein	geizig	krise	krank	1	blank2r.bmp	0	1	+	0	1	blank2r.bmp	500	1	CPLW	500	1	blank2r.bmp	880	2	töten	880	0	0	0	0	0	0	0	0	0	0	0	0
2024-05-15	10:48:04	10:49:33	88475	6.6.1	4_exp_EVA_AWA_CON	31	A	B	Rpleas_acq	Same	Rpleas	2pleas	acq_new_unple_nomask	acq1_nomask	1	20	0	0	300	300	0	0	748	46	1	0	anregung	träumen	vergnügt	sonnig	engagiert	vertrauen	ausrottung	töten	verbissen	sterben	engstirnig	versagen	besonnen	gütig	genießen	gesittet	kuss	kreativ	bange	gierig	gemein	geizig	krise	krank	1	blank2r.bmp	0	1	+	0	1	blank2r.bmp	500	4	B4r.bmp	500	1	blank2r.bmp	880	1	bange	880	0	0	0	0	0	0	0	0	0	0	0	0
2024-05-15	10:48:04	10:49:36	90627	6.6.1	4_exp_EVA_AWA_CON	31	A	B	Rpleas_acq	Same	Rpleas	2pleas	acq_US_pleas_nomask	acq1_nomask	1	21	0	0	300	300	0	0	669	50	1	0	anregung	träumen	vergnügt	sonnig	engagiert	vertrauen	ausrottung	töten	verbissen	sterben	engstirnig	versagen	besonnen	gütig	genießen	gesittet	kuss	kreativ	bange	gierig	gemein	geizig	krise	krank	1	blank2r.bmp	0	1	+	0	1	blank2r.bmp	500	1	DHJF	500	1	blank2r.bmp	880	4	sonnig	880	0	0	0	0	0	0	0	0	0	0	0	0
2024-05-15	10:48:04	10:49:38	92762	6.6.1	4_exp_EVA_AWA_CON	31	A	B	Rpleas_acq	Same	Rpleas	2pleas	acq_new_unple_nomask	acq1_nomask	1	22	0	0	300	300	0	0	654	46	1	0	anregung	träumen	vergnügt	sonnig	engagiert	vertrauen	ausrottung	töten	verbissen	sterben	engstirnig	versagen	besonnen	gütig	genießen	gesittet	kuss	kreativ	bange	gierig	gemein	geizig	krise	krank	1	blank2r.bmp	0	1	+	0	1	blank2r.bmp	500	2	B2r.bmp	500	1	blank2r.bmp	880	5	krise	880	0	0	0	0	0	0	0	0	0	0	0	0
2024-05-15	10:48:04	10:49:40	94850	6.6.1	4_exp_EVA_AWA_CON	31	A	B	Rpleas_acq	Same	Rpleas	2pleas	acq_new_pleas_nomask	acq1_nomask	1	23	0	0	300	300	0	0	600	50	1	0	anregung	träumen	vergnügt	sonnig	engagiert	vertrauen	ausrottung	töten	verbissen	sterben	engstirnig	versagen	besonnen	gütig	genießen	gesittet	kuss	kreativ	bange	gierig	gemein	geizig	krise	krank	1	blank2r.bmp	0	1	+	0	1	blank2r.bmp	500	7	C3r.bmp	500	1	blank2r.bmp	880	3	genießen	880	0	0	0	0	0	0	0	0	0	0	0	0
2024-05-15	10:48:04	10:49:42	96867	6.6.1	4_exp_EVA_AWA_CON	31	A	B	Rpleas_acq	Same	Rpleas	2pleas	acq_US_unple_nomask	acq1_nomask	1	24	0	0	300	300	0	0	535	46	1	0	anregung	träumen	vergnügt	sonnig	engagiert	vertrauen	ausrottung	töten	verbissen	sterben	engstirnig	versagen	besonnen	gütig	genießen	gesittet	kuss	kreativ	bange	gierig	gemein	geizig	krise	krank	1	blank2r.bmp	0	1	+	0	1	blank2r.bmp	500	1	CPLW	500	1	blank2r.bmp	880	6	versagen	880	0	0	0	0	0	0	0	0	0	0	0	0
2024-05-15	10:48:04	10:49:44	98899	6.6.1	4_exp_EVA_AWA_CON	31	A	B	Rpleas_acq	Same	Rpleas	2pleas	acq_new_pleas_nomask	acq1_nomask	1	25	0	0	300	300	0	0	545	50	1	0	anregung	träumen	vergnügt	sonnig	engagiert	vertrauen	ausrottung	töten	verbissen	sterben	engstirnig	versagen	besonnen	gütig	genießen	gesittet	kuss	kreativ	bange	gierig	gemein	geizig	krise	krank	1	blank2r.bmp	0	1	+	0	1	blank2r.bmp	500	6	C2r.bmp	500	1	blank2r.bmp	880	6	kreativ	880	0	0	0	0	0	0	0	0	0	0	0	0
2024-05-15	10:48:04	10:49:47	102036	6.6.1	4_exp_EVA_AWA_CON	31	A	B	Rpleas_acq	Same	Rpleas	2pleas	acq_US_pleas_nomask	acq1_nomask	1	26	0	0	300	300	0	0	1650	50	1	0	anregung	träumen	vergnügt	sonnig	engagiert	vertrauen	ausrottung	töten	verbissen	sterben	engstirnig	versagen	besonnen	gütig	genießen	gesittet	kuss	kreativ	bange	gierig	gemein	geizig	krise	krank	1	blank2r.bmp	0	1	+	0	1	blank2r.bmp	500	1	DHJF	500	1	blank2r.bmp	880	2	träumen	880	0	0	0	0	0	0	0	0	0	0	0	0
2024-05-15	10:48:04	10:49:49	104332	6.6.1	4_exp_EVA_AWA_CON	31	A	B	Rpleas_acq	Same	Rpleas	2pleas	acq_new_pleas_nomask	acq1_nomask	1	27	0	0	300	300	0	0	615	46	0	0	anregung	träumen	vergnügt	sonnig	engagiert	vertrauen	ausrottung	töten	verbissen	sterben	engstirnig	versagen	besonnen	gütig	genießen	gesittet	kuss	kreativ	bange	gierig	gemein	geizig	krise	krank	1	blank2r.bmp	0	1	+	0	1	blank2r.bmp	500	3	B3r.bmp	500	1	blank2r.bmp	880	3	genießen	880	1	FEHLER	1516	0	0	0	0	0	0	0	0	0
2024-05-15	10:48:04	10:49:51	106195	6.6.1	4_exp_EVA_AWA_CON	31	A	B	Rpleas_acq	Same	Rpleas	2pleas	acq_US_unple_nomask	acq1_nomask	1	28	0	0	300	300	0	0	577	46	1	0	anregung	träumen	vergnügt	sonnig	engagiert	vertrauen	ausrottung	töten	verbissen	sterben	engstirnig	versagen	besonnen	gütig	genießen	gesittet	kuss	kreativ	bange	gierig	gemein	geizig	krise	krank	1	blank2r.bmp	0	1	+	0	1	blank2r.bmp	500	1	CPLW	500	1	blank2r.bmp	880	2	töten	880	0	0	0	0	0	0	0	0	0	0	0	0
2024-05-15	10:48:04	10:49:53	108323	6.6.1	4_exp_EVA_AWA_CON	31	A	B	Rpleas_acq	Same	Rpleas	2pleas	acq_new_unple_nomask	acq1_nomask	1	29	0	0	300	300	0	0	644	46	1	0	anregung	träumen	vergnügt	sonnig	engagiert	vertrauen	ausrottung	töten	verbissen	sterben	engstirnig	versagen	besonnen	gütig	genießen	gesittet	kuss	kreativ	bange	gierig	gemein	geizig	krise	krank	1	blank2r.bmp	0	1	+	0	1	blank2r.bmp	500	5	C1r.bmp	500	1	blank2r.bmp	880	5	krise	880	0	0	0	0	0	0	0	0	0	0	0	0
2024-05-15	10:48:04	10:49:56	110667	6.6.1	4_exp_EVA_AWA_CON	31	A	B	Rpleas_acq	Same	Rpleas	2pleas	acq_US_pleas_nomask	acq1_nomask	1	30	0	0	300	300	0	0	856	50	1	0	anregung	träumen	vergnügt	sonnig	engagiert	vertrauen	ausrottung	töten	verbissen	sterben	engstirnig	versagen	besonnen	gütig	genießen	gesittet	kuss	kreativ	bange	gierig	gemein	geizig	krise	krank	1	blank2r.bmp	0	1	+	0	1	blank2r.bmp	500	1	DHJF	500	1	blank2r.bmp	880	3	vergnügt	880	0	0	0	0	0	0	0	0	0	0	0	0
2024-05-15	10:48:04	10:49:58	112755	6.6.1	4_exp_EVA_AWA_CON	31	A	B	Rpleas_acq	Same	Rpleas	2pleas	acq_new_unple_nomask	acq1_nomask	1	31	0	0	300	300	0	0	603	46	1	0	anregung	träumen	vergnügt	sonnig	engagiert	vertrauen	ausrottung	töten	verbissen	sterben	engstirnig	versagen	besonnen	gütig	genießen	gesittet	kuss	kreativ	bange	gierig	gemein	geizig	krise	krank	1	blank2r.bmp	0	1	+	0	1	blank2r.bmp	500	8	C4r.bmp	500	1	blank2r.bmp	880	1	bange	880	0	0	0	0	0	0	0	0	0	0	0	0
2024-05-15	10:48:04	10:50:00	114804	6.6.1	4_exp_EVA_AWA_CON	31	A	B	Rpleas_acq	Same	Rpleas	2pleas	acq_US_unple_nomask	acq1_nomask	1	32	0	0	300	300	0	0	559	46	1	0	anregung	träumen	vergnügt	sonnig	engagiert	vertrauen	ausrottung	töten	verbissen	sterben	engstirnig	versagen	besonnen	gütig	genießen	gesittet	kuss	kreativ	bange	gierig	gemein	geizig	krise	krank	1	blank2r.bmp	0	1	+	0	1	blank2r.bmp	500	1	CPLW	500	1	blank2r.bmp	880	6	versagen	880	0	0	0	0	0	0	0	0	0	0	0	0
2024-05-15	10:48:04	10:50:02	116963	6.6.1	4_exp_EVA_AWA_CON	31	A	B	Rpleas_acq	Same	Rpleas	2pleas	acq_new_pleas_nomask	acq1_nomask	1	33	0	0	300	300	0	0	678	50	1	0	anregung	träumen	vergnügt	sonnig	engagiert	vertrauen	ausrottung	töten	verbissen	sterben	engstirnig	versagen	besonnen	gütig	genießen	gesittet	kuss	kreativ	bange	gierig	gemein	geizig	krise	krank	1	blank2r.bmp	0	1	+	0	1	blank2r.bmp	500	7	C3r.bmp	500	1	blank2r.bmp	880	2	gütig	880	0	0	0	0	0	0	0	0	0	0	0	0
2024-05-15	10:48:04	10:50:04	118995	6.6.1	4_exp_EVA_AWA_CON	31	A	B	Rpleas_acq	Same	Rpleas	2pleas	acq_US_unple_nomask	acq1_nomask	1	34	0	0	300	300	0	0	549	46	1	0	anregung	träumen	vergnügt	sonnig	engagiert	vertrauen	ausrottung	töten	verbissen	sterben	engstirnig	versagen	besonnen	gütig	genießen	gesittet	kuss	kreativ	bange	gierig	gemein	geizig	krise	krank	1	blank2r.bmp	0	1	+	0	1	blank2r.bmp	500	1	CPLW	500	1	blank2r.bmp	880	1	ausrottung	880	0	0	0	0	0	0	0	0	0	0	0	0
2024-05-15	10:48:04	10:50:06	120979	6.6.1	4_exp_EVA_AWA_CON	31	A	B	Rpleas_acq	Same	Rpleas	2pleas	acq_new_unple_nomask	acq1_nomask	1	35	0	0	300	300	0	0	501	46	1	0	anregung	träumen	vergnügt	sonnig	engagiert	vertrauen	ausrottung	töten	verbissen	sterben	engstirnig	versagen	besonnen	gütig	genießen	gesittet	kuss	kreativ	bange	gierig	gemein	geizig	krise	krank	1	blank2r.bmp	0	1	+	0	1	blank2r.bmp	500	1	B1r.bmp	500	1	blank2r.bmp	880	3	gemein	880	0	0	0	0	0	0	0	0	0	0	0	0
2024-05-15	10:48:04	10:50:08	123245	6.6.1	4_exp_EVA_AWA_CON	31	A	B	Rpleas_acq	Same	Rpleas	2pleas	acq_US_pleas_nomask	acq1_nomask	1	36	0	0	300	300	0	0	574	46	0	0	anregung	träumen	vergnügt	sonnig	engagiert	vertrauen	ausrottung	töten	verbissen	sterben	engstirnig	versagen	besonnen	gütig	genießen	gesittet	kuss	kreativ	bange	gierig	gemein	geizig	krise	krank	1	blank2r.bmp	0	1	+	0	1	blank2r.bmp	500	1	DHJF	500	1	blank2r.bmp	880	1	anregung	880	1	FEHLER	1476	0	0	0	0	0	0	0	0	0
2024-05-15	10:48:04	10:50:33	147797	6.6.1	4_exp_EVA_AWA_CON	31	A	B	Rpleas_acq	Same	Rpleas	2pleas	acq_US_unple_nomask	acq2_nomask	2	1	480	0	300	300	0	0	902	46	1	0	anregung	träumen	vergnügt	sonnig	engagiert	vertrauen	ausrottung	töten	verbissen	sterben	engstirnig	versagen	besonnen	gütig	genießen	gesittet	kuss	kreativ	bange	gierig	gemein	geizig	krise	krank	1	blank2r.bmp	0	1	+	0	1	blank2r.bmp	500	1	CPLW	500	1	blank2r.bmp	880	4	sterben	880	1	!	1313	1	!	-1	0	0	0	0	0	0
2024-05-15	10:48:04	10:50:35	150405	6.6.1	4_exp_EVA_AWA_CON	31	A	B	Rpleas_acq	Same	Rpleas	2pleas	acq_US_unple_nomask	acq2_nomask	2	2	480	0	300	300	0	0	829	46	1	0	anregung	träumen	vergnügt	sonnig	engagiert	vertrauen	ausrottung	töten	verbissen	sterben	engstirnig	versagen	besonnen	gütig	genießen	gesittet	kuss	kreativ	bange	gierig	gemein	geizig	krise	krank	1	blank2r.bmp	0	1	+	0	1	blank2r.bmp	500	1	CPLW	500	1	blank2r.bmp	880	5	engstirnig	880	1	!	1313	1	!	-1	0	0	0	0	0	0
2024-05-15	10:48:04	10:50:38	152813	6.6.1	4_exp_EVA_AWA_CON	31	A	B	Rpleas_acq	Same	Rpleas	2pleas	acq_new_pleas_nomask	acq2_nomask	2	3	480	0	300	300	0	0	635	50	1	0	anregung	träumen	vergnügt	sonnig	engagiert	vertrauen	ausrottung	töten	verbissen	sterben	engstirnig	versagen	besonnen	gütig	genießen	gesittet	kuss	kreativ	bange	gierig	gemein	geizig	krise	krank	1	blank2r.bmp	0	1	+	0	1	blank2r.bmp	500	6	C2r.bmp	500	1	blank2r.bmp	880	5	kuss	880	1	!	1312	1	!	-1	0	0	0	0	0	0
2024-05-15	10:48:04	10:50:40	155350	6.6.1	4_exp_EVA_AWA_CON	31	A	B	Rpleas_acq	Same	Rpleas	2pleas	acq_new_unple_nomask	acq2_nomask	2	4	480	0	300	300	0	0	760	46	1	0	anregung	träumen	vergnügt	sonnig	engagiert	vertrauen	ausrottung	töten	verbissen	sterben	engstirnig	versagen	besonnen	gütig	genießen	gesittet	kuss	kreativ	bange	gierig	gemein	geizig	krise	krank	1	blank2r.bmp	0	1	+	0	1	blank2r.bmp	500	8	C4r.bmp	500	1	blank2r.bmp	880	4	geizig	880	1	!	1313	1	!	-1	0	0	0	0	0	0
2024-05-15	10:48:04	10:50:43	157829	6.6.1	4_exp_EVA_AWA_CON	31	A	B	Rpleas_acq	Same	Rpleas	2pleas	acq_new_unple_nomask	acq2_nomask	2	5	480	0	300	300	0	0	698	46	1	0	anregung	träumen	vergnügt	sonnig	engagiert	vertrauen	ausrottung	töten	verbissen	sterben	engstirnig	versagen	besonnen	gütig	genießen	gesittet	kuss	kreativ	bange	gierig	gemein	geizig	krise	krank	1	blank2r.bmp	0	1	+	0	1	blank2r.bmp	500	3	B3r.bmp	500	1	blank2r.bmp	880	2	gierig	880	1	!	1313	1	!	-1	0	0	0	0	0	0
2024-05-15	10:48:04	10:50:46	160640	6.6.1	4_exp_EVA_AWA_CON	31	A	B	Rpleas_acq	Same	Rpleas	2pleas	acq_US_pleas_nomask	acq2_nomask	2	6	480	0	300	300	0	0	834	46	0	0	anregung	träumen	vergnügt	sonnig	engagiert	vertrauen	ausrottung	töten	verbissen	sterben	engstirnig	versagen	besonnen	gütig	genießen	gesittet	kuss	kreativ	bange	gierig	gemein	geizig	krise	krank	1	blank2r.bmp	0	1	+	0	1	blank2r.bmp	500	1	DHJF	500	1	blank2r.bmp	880	5	engagiert	880	1	FEHLER	2028	1	!	1313	1	!	-1	0	0	0
2024-05-15	10:48:04	10:50:48	162893	6.6.1	4_exp_EVA_AWA_CON	31	A	B	Rpleas_acq	Same	Rpleas	2pleas	acq_US_pleas_nomask	acq2_nomask	2	7	480	0	300	300	0	0	679	50	1	0	anregung	träumen	vergnügt	sonnig	engagiert	vertrauen	ausrottung	töten	verbissen	sterben	engstirnig	versagen	besonnen	gütig	genießen	gesittet	kuss	kreativ	bange	gierig	gemein	geizig	krise	krank	1	blank2r.bmp	0	1	+	0	1	blank2r.bmp	500	1	DHJF	500	1	blank2r.bmp	880	4	sonnig	880	1	!	1313	1	!	-1	0	0	0	0	0	0
2024-05-15	10:48:04	10:50:50	165159	6.6.1	4_exp_EVA_AWA_CON	31	A	B	Rpleas_acq	Same	Rpleas	2pleas	acq_new_pleas_nomask	acq2_nomask	2	8	480	1	300	300	0	0	491	50	1	0	anregung	träumen	vergnügt	sonnig	engagiert	vertrauen	ausrottung	töten	verbissen	sterben	engstirnig	versagen	besonnen	gütig	genießen	gesittet	kuss	kreativ	bange	gierig	gemein	geizig	krise	krank	1	blank2r.bmp	0	1	+	0	1	blank2r.bmp	500	2	B2r.bmp	500	1	blank2r.bmp	880	1	besonnen	880	1	!	1312	1	!	1393	0	0	0	0	0	0
2024-05-15	10:48:04	10:50:52	167533	6.6.1	4_exp_EVA_AWA_CON	31	A	B	Rpleas_acq	Same	Rpleas	2pleas	acq_US_pleas_nomask	acq2_nomask	2	9	480	0	300	300	0	0	596	50	1	0	anregung	träumen	vergnügt	sonnig	engagiert	vertrauen	ausrottung	töten	verbissen	sterben	engstirnig	versagen	besonnen	gütig	genießen	gesittet	kuss	kreativ	bange	gierig	gemein	geizig	krise	krank	1	blank2r.bmp	0	1	+	0	1	blank2r.bmp	500	1	DHJF	500	1	blank2r.bmp	880	6	vertrauen	880	1	!	1313	1	!	-1	0	0	0	0	0	0
2024-05-15	10:48:04	10:50:55	169832	6.6.1	4_exp_EVA_AWA_CON	31	A	B	Rpleas_acq	Same	Rpleas	2pleas	acq_US_unple_nomask	acq2_nomask	2	10	480	1	300	300	0	0	520	46	1	0	anregung	träumen	vergnügt	sonnig	engagiert	vertrauen	ausrottung	töten	verbissen	sterben	engstirnig	versagen	besonnen	gütig	genießen	gesittet	kuss	kreativ	bange	gierig	gemein	geizig	krise	krank	1	blank2r.bmp	0	1	+	0	1	blank2r.bmp	500	1	CPLW	500	1	blank2r.bmp	880	3	verbissen	880	1	!	1313	1	!	1422	0	0	0	0	0	0
2024-05-15	10:48:04	10:50:57	172103	6.6.1	4_exp_EVA_AWA_CON	31	A	B	Rpleas_acq	Same	Rpleas	2pleas	acq_new_pleas_nomask	acq2_nomask	2	11	480	1	300	300	0	0	491	50	1	0	anregung	träumen	vergnügt	sonnig	engagiert	vertrauen	ausrottung	töten	verbissen	sterben	engstirnig	versagen	besonnen	gütig	genießen	gesittet	kuss	kreativ	bange	gierig	gemein	geizig	krise	krank	1	blank2r.bmp	0	1	+	0	1	blank2r.bmp	500	4	B4r.bmp	500	1	blank2r.bmp	880	4	gesittet	880	1	!	1313	1	!	1393	0	0	0	0	0	0
2024-05-15	10:48:04	10:50:59	174375	6.6.1	4_exp_EVA_AWA_CON	31	A	B	Rpleas_acq	Same	Rpleas	2pleas	acq_new_unple_nomask	acq2_nomask	2	12	480	1	300	300	0	0	492	46	1	0	anregung	träumen	vergnügt	sonnig	engagiert	vertrauen	ausrottung	töten	verbissen	sterben	engstirnig	versagen	besonnen	gütig	genießen	gesittet	kuss	kreativ	bange	gierig	gemein	geizig	krise	krank	1	blank2r.bmp	0	1	+	0	1	blank2r.bmp	500	5	C1r.bmp	500	1	blank2r.bmp	880	6	krank	880	1	!	1312	1	!	1393	0	0	0	0	0	0
2024-05-15	10:48:04	10:51:02	176639	6.6.1	4_exp_EVA_AWA_CON	31	A	B	Rpleas_acq	Same	Rpleas	2pleas	acq_new_unple_nomask	acq2_nomask	2	13	480	1	300	300	0	0	484	46	1	0	anregung	träumen	vergnügt	sonnig	engagiert	vertrauen	ausrottung	töten	verbissen	sterben	engstirnig	versagen	besonnen	gütig	genießen	gesittet	kuss	kreativ	bange	gierig	gemein	geizig	krise	krank	1	blank2r.bmp	0	1	+	0	1	blank2r.bmp	500	8	C4r.bmp	500	1	blank2r.bmp	880	2	gierig	880	1	!	1312	1	!	1385	0	0	0	0	0	0
2024-05-15	10:48:04	10:51:04	178790	6.6.1	4_exp_EVA_AWA_CON	31	A	B	Rpleas_acq	Same	Rpleas	2pleas	acq_US_pleas_nomask	acq2_nomask	2	14	480	0	300	300	0	0	374	50	1	0	anregung	träumen	vergnügt	sonnig	engagiert	vertrauen	ausrottung	töten	verbissen	sterben	engstirnig	versagen	besonnen	gütig	genießen	gesittet	kuss	kreativ	bange	gierig	gemein	geizig	krise	krank	1	blank2r.bmp	0	1	+	0	1	blank2r.bmp	500	1	DHJF	500	1	blank2r.bmp	880	2	träumen	880	1	!	-1	1	!	-1	0	0	0	0	0	0
2024-05-15	10:48:04	10:51:06	181095	6.6.1	4_exp_EVA_AWA_CON	31	A	B	Rpleas_acq	Same	Rpleas	2pleas	acq_new_pleas_nomask	acq2_nomask	2	15	480	1	300	300	0	0	527	50	1	0	anregung	träumen	vergnügt	sonnig	engagiert	vertrauen	ausrottung	töten	verbissen	sterben	engstirnig	versagen	besonnen	gütig	genießen	gesittet	kuss	kreativ	bange	gierig	gemein	geizig	krise	krank	1	blank2r.bmp	0	1	+	0	1	blank2r.bmp	500	3	B3r.bmp	500	1	blank2r.bmp	880	6	kreativ	880	1	!	1313	1	!	1429	0	0	0	0	0	0
2024-05-15	10:48:04	10:51:08	183541	6.6.1	4_exp_EVA_AWA_CON	31	A	B	Rpleas_acq	Same	Rpleas	2pleas	acq_US_pleas_nomask	acq2_nomask	2	16	480	0	300	300	0	0	663	50	1	0	anregung	träumen	vergnügt	sonnig	engagiert	vertrauen	ausrottung	töten	verbissen	sterben	engstirnig	versagen	besonnen	gütig	genießen	gesittet	kuss	kreativ	bange	gierig	gemein	geizig	krise	krank	1	blank2r.bmp	0	1	+	0	1	blank2r.bmp	500	1	DHJF	500	1	blank2r.bmp	880	3	vergnügt	880	1	!	1312	1	!	-1	0	0	0	0	0	0
2024-05-15	10:48:04	10:51:11	185832	6.6.1	4_exp_EVA_AWA_CON	31	A	B	Rpleas_acq	Same	Rpleas	2pleas	acq_new_unple_nomask	acq2_nomask	2	17	480	1	300	300	0	0	510	46	1	0	anregung	träumen	vergnügt	sonnig	engagiert	vertrauen	ausrottung	töten	verbissen	sterben	engstirnig	versagen	besonnen	gütig	genießen	gesittet	kuss	kreativ	bange	gierig	gemein	geizig	krise	krank	1	blank2r.bmp	0	1	+	0	1	blank2r.bmp	500	2	B2r.bmp	500	1	blank2r.bmp	880	4	geizig	880	1	!	1313	1	!	1412	0	0	0	0	0	0
2024-05-15	10:48:04	10:51:13	188269	6.6.1	4_exp_EVA_AWA_CON	31	A	B	Rpleas_acq	Same	Rpleas	2pleas	acq_US_unple_nomask	acq2_nomask	2	18	480	0	300	300	0	0	658	46	1	0	anregung	träumen	vergnügt	sonnig	engagiert	vertrauen	ausrottung	töten	verbissen	sterben	engstirnig	versagen	besonnen	gütig	genießen	gesittet	kuss	kreativ	bange	gierig	gemein	geizig	krise	krank	1	blank2r.bmp	0	1	+	0	1	blank2r.bmp	500	1	CPLW	500	1	blank2r.bmp	880	5	engstirnig	880	1	!	1312	1	!	-1	0	0	0	0	0	0
2024-05-15	10:48:04	10:51:16	190889	6.6.1	4_exp_EVA_AWA_CON	31	A	B	Rpleas_acq	Same	Rpleas	2pleas	acq_new_pleas_nomask	acq2_nomask	2	19	480	0	300	300	0	0	643	46	0	0	anregung	träumen	vergnügt	sonnig	engagiert	vertrauen	ausrottung	töten	verbissen	sterben	engstirnig	versagen	besonnen	gütig	genießen	gesittet	kuss	kreativ	bange	gierig	gemein	geizig	krise	krank	1	blank2r.bmp	0	1	+	0	1	blank2r.bmp	500	1	B1r.bmp	500	1	blank2r.bmp	880	2	gütig	880	1	FEHLER	1837	1	!	1312	1	!	-1	0	0	0
2024-05-15	10:48:04	10:51:18	193094	6.6.1	4_exp_EVA_AWA_CON	31	A	B	Rpleas_acq	Same	Rpleas	2pleas	acq_new_unple_nomask	acq2_nomask	2	20	480	0	300	300	0	0	629	46	1	0	anregung	träumen	vergnügt	sonnig	engagiert	vertrauen	ausrottung	töten	verbissen	sterben	engstirnig	versagen	besonnen	gütig	genießen	gesittet	kuss	kreativ	bange	gierig	gemein	geizig	krise	krank	1	blank2r.bmp	0	1	+	0	1	blank2r.bmp	500	7	C3r.bmp	500	1	blank2r.bmp	880	1	bange	880	1	!	1312	1	!	-1	0	0	0	0	0	0
2024-05-15	10:48:04	10:51:20	195478	6.6.1	4_exp_EVA_AWA_CON	31	A	B	Rpleas_acq	Same	Rpleas	2pleas	acq_US_unple_nomask	acq2_nomask	2	21	480	0	300	300	0	0	602	46	1	0	anregung	träumen	vergnügt	sonnig	engagiert	vertrauen	ausrottung	töten	verbissen	sterben	engstirnig	versagen	besonnen	gütig	genießen	gesittet	kuss	kreativ	bange	gierig	gemein	geizig	krise	krank	1	blank2r.bmp	0	1	+	0	1	blank2r.bmp	500	1	CPLW	500	1	blank2r.bmp	880	3	verbissen	880	1	!	1312	1	!	-1	0	0	0	0	0	0
2024-05-15	10:48:04	10:51:23	197909	6.6.1	4_exp_EVA_AWA_CON	31	A	B	Rpleas_acq	Same	Rpleas	2pleas	acq_new_pleas_nomask	acq2_nomask	2	22	480	0	300	300	0	0	652	50	1	0	anregung	träumen	vergnügt	sonnig	engagiert	vertrauen	ausrottung	töten	verbissen	sterben	engstirnig	versagen	besonnen	gütig	genießen	gesittet	kuss	kreativ	bange	gierig	gemein	geizig	krise	krank	1	blank2r.bmp	0	1	+	0	1	blank2r.bmp	500	6	C2r.bmp	500	1	blank2r.bmp	880	5	kuss	880	1	!	1313	1	!	-1	0	0	0	0	0	0
2024-05-15	10:48:04	10:51:25	200207	6.6.1	4_exp_EVA_AWA_CON	31	A	B	Rpleas_acq	Same	Rpleas	2pleas	acq_US_pleas_nomask	acq2_nomask	2	23	480	1	300	300	0	0	517	50	1	0	anregung	träumen	vergnügt	sonnig	engagiert	vertrauen	ausrottung	töten	verbissen	sterben	engstirnig	versagen	besonnen	gütig	genießen	gesittet	kuss	kreativ	bange	gierig	gemein	geizig	krise	krank	1	blank2r.bmp	0	1	+	0	1	blank2r.bmp	500	1	DHJF	500	1	blank2r.bmp	880	5	engagiert	880	1	!	1313	1	!	1419	0	0	0	0	0	0
2024-05-15	10:48:04	10:51:27	202527	6.6.1	4_exp_EVA_AWA_CON	31	A	B	Rpleas_acq	Same	Rpleas	2pleas	acq_US_unple_nomask	acq2_nomask	2	24	480	1	300	300	0	0	535	46	1	0	anregung	träumen	vergnügt	sonnig	engagiert	vertrauen	ausrottung	töten	verbissen	sterben	engstirnig	versagen	besonnen	gütig	genießen	gesittet	kuss	kreativ	bange	gierig	gemein	geizig	krise	krank	1	blank2r.bmp	0	1	+	0	1	blank2r.bmp	500	1	CPLW	500	1	blank2r.bmp	880	1	ausrottung	880	1	!	1313	1	!	1437	0	0	0	0	0	0
2024-05-15	10:48:04	10:51:30	205073	6.6.1	4_exp_EVA_AWA_CON	31	A	B	Rpleas_acq	Same	Rpleas	2pleas	acq_US_unple_nomask	acq2_nomask	2	25	480	0	300	300	0	0	568	50	0	0	anregung	träumen	vergnügt	sonnig	engagiert	vertrauen	ausrottung	töten	verbissen	sterben	engstirnig	versagen	besonnen	gütig	genießen	gesittet	kuss	kreativ	bange	gierig	gemein	geizig	krise	krank	1	blank2r.bmp	0	1	+	0	1	blank2r.bmp	500	1	CPLW	500	1	blank2r.bmp	880	6	versagen	880	1	FEHLER	1762	1	!	1313	1	!	-1	0	0	0
2024-05-15	10:48:04	10:51:32	207229	6.6.1	4_exp_EVA_AWA_CON	31	A	B	Rpleas_acq	Same	Rpleas	2pleas	acq_US_unple_nomask	acq2_nomask	2	26	480	0	300	300	0	0	586	46	1	0	anregung	träumen	vergnügt	sonnig	engagiert	vertrauen	ausrottung	töten	verbissen	sterben	engstirnig	versagen	besonnen	gütig	genießen	gesittet	kuss	kreativ	bange	gierig	gemein	geizig	krise	krank	1	blank2r.bmp	0	1	+	0	1	blank2r.bmp	500	1	CPLW	500	1	blank2r.bmp	880	4	sterben	880	1	!	1313	1	!	-1	0	0	0	0	0	0
2024-05-15	10:48:04	10:51:34	209341	6.6.1	4_exp_EVA_AWA_CON	31	A	B	Rpleas_acq	Same	Rpleas	2pleas	acq_new_unple_nomask	acq2_nomask	2	27	480	0	300	300	0	0	337	46	1	0	anregung	träumen	vergnügt	sonnig	engagiert	vertrauen	ausrottung	töten	verbissen	sterben	engstirnig	versagen	besonnen	gütig	genießen	gesittet	kuss	kreativ	bange	gierig	gemein	geizig	krise	krank	1	blank2r.bmp	0	1	+	0	1	blank2r.bmp	500	4	B4r.bmp	500	1	blank2r.bmp	880	3	gemein	880	1	!	-1	1	!	-1	0	0	0	0	0	0
2024-05-15	10:48:04	10:51:37	211597	6.6.1	4_exp_EVA_AWA_CON	31	A	B	Rpleas_acq	Same	Rpleas	2pleas	acq_US_unple_nomask	acq2_nomask	2	28	480	1	300	300	0	0	481	46	1	0	anregung	träumen	vergnügt	sonnig	engagiert	vertrauen	ausrottung	töten	verbissen	sterben	engstirnig	versagen	besonnen	gütig	genießen	gesittet	kuss	kreativ	bange	gierig	gemein	geizig	krise	krank	1	blank2r.bmp	0	1	+	0	1	blank2r.bmp	500	1	CPLW	500	1	blank2r.bmp	880	2	töten	880	1	!	1311	1	!	1382	0	0	0	0	0	0
2024-05-15	10:48:04	10:51:39	214012	6.6.1	4_exp_EVA_AWA_CON	31	A	B	Rpleas_acq	Same	Rpleas	2pleas	acq_US_pleas_nomask	acq2_nomask	2	29	480	0	300	300	0	0	636	50	1	0	anregung	träumen	vergnügt	sonnig	engagiert	vertrauen	ausrottung	töten	verbissen	sterben	engstirnig	versagen	besonnen	gütig	genießen	gesittet	kuss	kreativ	bange	gierig	gemein	geizig	krise	krank	1	blank2r.bmp	0	1	+	0	1	blank2r.bmp	500	1	DHJF	500	1	blank2r.bmp	880	4	sonnig	880	1	!	1312	1	!	-1	0	0	0	0	0	0
2024-05-15	10:48:04	10:51:41	216247	6.6.1	4_exp_EVA_AWA_CON	31	A	B	Rpleas_acq	Same	Rpleas	2pleas	acq_new_unple_nomask	acq2_nomask	2	30	480	1	300	300	0	0	456	46	1	0	anregung	träumen	vergnügt	sonnig	engagiert	vertrauen	ausrottung	töten	verbissen	sterben	engstirnig	versagen	besonnen	gütig	genießen	gesittet	kuss	kreativ	bange	gierig	gemein	geizig	krise	krank	1	blank2r.bmp	0	1	+	0	1	blank2r.bmp	500	5	C1r.bmp	500	1	blank2r.bmp	880	5	krise	880	1	!	1313	1	!	1358	0	0	0	0	0	0
2024-05-15	10:48:04	10:51:44	218849	6.6.1	4_exp_EVA_AWA_CON	31	A	B	Rpleas_acq	Same	Rpleas	2pleas	acq_new_pleas_nomask	acq2_nomask	2	31	480	0	300	300	0	0	625	46	0	0	anregung	träumen	vergnügt	sonnig	engagiert	vertrauen	ausrottung	töten	verbissen	sterben	engstirnig	versagen	besonnen	gütig	genießen	gesittet	kuss	kreativ	bange	gierig	gemein	geizig	krise	krank	1	blank2r.bmp	0	1	+	0	1	blank2r.bmp	500	8	C4r.bmp	500	1	blank2r.bmp	880	4	gesittet	880	1	FEHLER	1819	1	!	1313	1	!	-1	0	0	0
2024-05-15	10:48:04	10:51:46	221038	6.6.1	4_exp_EVA_AWA_CON	31	A	B	Rpleas_acq	Same	Rpleas	2pleas	acq_US_pleas_nomask	acq2_nomask	2	32	480	1	300	300	0	0	415	46	0	0	anregung	träumen	vergnügt	sonnig	engagiert	vertrauen	ausrottung	töten	verbissen	sterben	engstirnig	versagen	besonnen	gütig	genießen	gesittet	kuss	kreativ	bange	gierig	gemein	geizig	krise	krank	1	blank2r.bmp	0	1	+	0	1	blank2r.bmp	500	1	DHJF	500	1	blank2r.bmp	880	6	vertrauen	880	1	FEHLER	1607	1	!	1313	1	!	1315	0	0	0
2024-05-15	10:48:04	10:51:48	223214	6.6.1	4_exp_EVA_AWA_CON	31	A	B	Rpleas_acq	Same	Rpleas	2pleas	acq_US_pleas_nomask	acq2_nomask	2	33	480	0	300	300	0	0	600	50	1	0	anregung	träumen	vergnügt	sonnig	engagiert	vertrauen	ausrottung	töten	verbissen	sterben	engstirnig	versagen	besonnen	gütig	genießen	gesittet	kuss	kreativ	bange	gierig	gemein	geizig	krise	krank	1	blank2r.bmp	0	1	+	0	1	blank2r.bmp	500	1	DHJF	500	1	blank2r.bmp	880	1	anregung	880	1	!	1313	1	!	-1	0	0	0	0	0	0
2024-05-15	10:48:04	10:51:50	225471	6.6.1	4_exp_EVA_AWA_CON	31	A	B	Rpleas_acq	Same	Rpleas	2pleas	acq_new_unple_nomask	acq2_nomask	2	34	480	1	300	300	0	0	474	46	1	0	anregung	träumen	vergnügt	sonnig	engagiert	vertrauen	ausrottung	töten	verbissen	sterben	engstirnig	versagen	besonnen	gütig	genießen	gesittet	kuss	kreativ	bange	gierig	gemein	geizig	krise	krank	1	blank2r.bmp	0	1	+	0	1	blank2r.bmp	500	3	B3r.bmp	500	1	blank2r.bmp	880	6	krank	880	1	!	1313	1	!	1376	0	0	0	0	0	0
2024-05-15	10:48:04	10:51:53	227893	6.6.1	4_exp_EVA_AWA_CON	31	A	B	Rpleas_acq	Same	Rpleas	2pleas	acq_new_pleas_nomask	acq2_nomask	2	35	480	0	300	300	0	0	647	50	1	0	anregung	träumen	vergnügt	sonnig	engagiert	vertrauen	ausrottung	töten	verbissen	sterben	engstirnig	versagen	besonnen	gütig	genießen	gesittet	kuss	kreativ	bange	gierig	gemein	geizig	krise	krank	1	blank2r.bmp	0	1	+	0	1	blank2r.bmp	500	6	C2r.bmp	500	1	blank2r.bmp	880	1	besonnen	880	1	!	1313	1	!	-1	0	0	0	0	0	0
2024-05-15	10:48:04	10:51:55	230245	6.6.1	4_exp_EVA_AWA_CON	31	A	B	Rpleas_acq	Same	Rpleas	2pleas	acq_new_pleas_nomask	acq2_nomask	2	36	480	0	300	300	0	0	577	50	1	0	anregung	träumen	vergnügt	sonnig	engagiert	vertrauen	ausrottung	töten	verbissen	sterben	engstirnig	versagen	besonnen	gütig	genießen	gesittet	kuss	kreativ	bange	gierig	gemein	geizig	krise	krank	1	blank2r.bmp	0	1	+	0	1	blank2r.bmp	500	5	C1r.bmp	500	1	blank2r.bmp	880	3	genießen	880	1	!	1312	1	!	-1	0	0	0	0	0	0
2024-05-15	10:48:04	10:52:07	242237	6.6.1	4_exp_EVA_AWA_CON	31	A	B	Rpleas_acq	Same	Rpleas	2pleas	acq_US_pleas_nomask	acq3_nomask	3	1	453	0	300	300	0	0	562	50	1	0	anregung	träumen	vergnügt	sonnig	engagiert	vertrauen	ausrottung	töten	verbissen	sterben	engstirnig	versagen	besonnen	gütig	genießen	gesittet	kuss	kreativ	bange	gierig	gemein	geizig	krise	krank	1	blank2r.bmp	0	1	+	0	1	blank2r.bmp	500	1	DHJF	500	1	blank2r.bmp	880	4	sonnig	880	1	!	1293	1	!	-1	0	0	0	0	0	0
2024-05-15	10:48:04	10:52:09	244495	6.6.1	4_exp_EVA_AWA_CON	31	A	B	Rpleas_acq	Same	Rpleas	2pleas	acq_US_pleas_nomask	acq3_nomask	3	2	453	1	300	300	0	0	476	50	1	0	anregung	träumen	vergnügt	sonnig	engagiert	vertrauen	ausrottung	töten	verbissen	sterben	engstirnig	versagen	besonnen	gütig	genießen	gesittet	kuss	kreativ	bange	gierig	gemein	geizig	krise	krank	1	blank2r.bmp	0	1	+	0	1	blank2r.bmp	500	1	DHJF	500	1	blank2r.bmp	880	2	träumen	880	1	!	1292	1	!	1378	0	0	0	0	0	0
2024-05-15	10:48:04	10:52:12	246949	6.6.1	4_exp_EVA_AWA_CON	31	A	B	Rpleas_acq	Same	Rpleas	2pleas	acq_US_unple_nomask	acq3_nomask	3	3	453	0	300	300	0	0	681	46	1	0	anregung	träumen	vergnügt	sonnig	engagiert	vertrauen	ausrottung	töten	verbissen	sterben	engstirnig	versagen	besonnen	gütig	genießen	gesittet	kuss	kreativ	bange	gierig	gemein	geizig	krise	krank	1	blank2r.bmp	0	1	+	0	1	blank2r.bmp	500	1	CPLW	500	1	blank2r.bmp	880	5	engstirnig	880	1	!	1293	1	!	-1	0	0	0	0	0	0
2024-05-15	10:48:04	10:52:14	249293	6.6.1	4_exp_EVA_AWA_CON	31	A	B	Rpleas_acq	Same	Rpleas	2pleas	acq_US_unple_nomask	acq3_nomask	3	4	453	0	300	300	0	0	563	46	1	0	anregung	träumen	vergnügt	sonnig	engagiert	vertrauen	ausrottung	töten	verbissen	sterben	engstirnig	versagen	besonnen	gütig	genießen	gesittet	kuss	kreativ	bange	gierig	gemein	geizig	krise	krank	1	blank2r.bmp	0	1	+	0	1	blank2r.bmp	500	1	CPLW	500	1	blank2r.bmp	880	3	verbissen	880	1	!	1292	1	!	-1	0	0	0	0	0	0
2024-05-15	10:48:04	10:52:17	251613	6.6.1	4_exp_EVA_AWA_CON	31	A	B	Rpleas_acq	Same	Rpleas	2pleas	acq_US_pleas_nomask	acq3_nomask	3	5	453	0	300	300	0	0	542	50	1	0	anregung	träumen	vergnügt	sonnig	engagiert	vertrauen	ausrottung	töten	verbissen	sterben	engstirnig	versagen	besonnen	gütig	genießen	gesittet	kuss	kreativ	bange	gierig	gemein	geizig	krise	krank	1	blank2r.bmp	0	1	+	0	1	blank2r.bmp	500	1	DHJF	500	1	blank2r.bmp	880	5	engagiert	880	1	!	1293	1	!	-1	0	0	0	0	0	0
2024-05-15	10:48:04	10:52:19	253997	6.6.1	4_exp_EVA_AWA_CON	31	A	B	Rpleas_acq	Same	Rpleas	2pleas	acq_US_unple_nomask	acq3_nomask	3	6	453	0	300	300	0	0	604	46	1	0	anregung	träumen	vergnügt	sonnig	engagiert	vertrauen	ausrottung	töten	verbissen	sterben	engstirnig	versagen	besonnen	gütig	genießen	gesittet	kuss	kreativ	bange	gierig	gemein	geizig	krise	krank	1	blank2r.bmp	0	1	+	0	1	blank2r.bmp	500	1	CPLW	500	1	blank2r.bmp	880	4	sterben	880	1	!	1293	1	!	-1	0	0	0	0	0	0
2024-05-15	10:48:04	10:52:21	256333	6.6.1	4_exp_EVA_AWA_CON	31	A	B	Rpleas_acq	Same	Rpleas	2pleas	acq_US_unple_nomask	acq3_nomask	3	7	453	0	300	300	0	0	559	46	1	0	anregung	träumen	vergnügt	sonnig	engagiert	vertrauen	ausrottung	töten	verbissen	sterben	engstirnig	versagen	besonnen	gütig	genießen	gesittet	kuss	kreativ	bange	gierig	gemein	geizig	krise	krank	1	blank2r.bmp	0	1	+	0	1	blank2r.bmp	500	1	CPLW	500	1	blank2r.bmp	880	6	versagen	880	1	!	1293	1	!	-1	0	0	0	0	0	0
2024-05-15	10:48:04	10:52:23	258559	6.6.1	4_exp_EVA_AWA_CON	31	A	B	Rpleas_acq	Same	Rpleas	2pleas	acq_US_pleas_nomask	acq3_nomask	3	8	453	1	300	300	0	0	441	50	1	0	anregung	träumen	vergnügt	sonnig	engagiert	vertrauen	ausrottung	töten	verbissen	sterben	engstirnig	versagen	besonnen	gütig	genießen	gesittet	kuss	kreativ	bange	gierig	gemein	geizig	krise	krank	1	blank2r.bmp	0	1	+	0	1	blank2r.bmp	500	1	DHJF	500	1	blank2r.bmp	880	6	vertrauen	880	1	!	1292	1	!	1343	0	0	0	0	0	0
2024-05-15	10:48:04	10:52:26	260901	6.6.1	4_exp_EVA_AWA_CON	31	A	B	Rpleas_acq	Same	Rpleas	2pleas	acq_US_pleas_nomask	acq3_nomask	3	9	453	0	300	300	0	0	564	50	1	0	anregung	träumen	vergnügt	sonnig	engagiert	vertrauen	ausrottung	töten	verbissen	sterben	engstirnig	versagen	besonnen	gütig	genießen	gesittet	kuss	kreativ	bange	gierig	gemein	geizig	krise	krank	1	blank2r.bmp	0	1	+	0	1	blank2r.bmp	500	1	DHJF	500	1	blank2r.bmp	880	1	anregung	880	1	!	1292	1	!	-1	0	0	0	0	0	0
2024-05-15	10:48:04	10:52:28	263277	6.6.1	4_exp_EVA_AWA_CON	31	A	B	Rpleas_acq	Same	Rpleas	2pleas	acq_US_unple_nomask	acq3_nomask	3	10	453	0	300	300	0	0	598	46	1	0	anregung	träumen	vergnügt	sonnig	engagiert	vertrauen	ausrottung	töten	verbissen	sterben	engstirnig	versagen	besonnen	gütig	genießen	gesittet	kuss	kreativ	bange	gierig	gemein	geizig	krise	krank	1	blank2r.bmp	0	1	+	0	1	blank2r.bmp	500	1	CPLW	500	1	blank2r.bmp	880	1	ausrottung	880	1	!	1293	1	!	-1	0	0	0	0	0	0
2024-05-15	10:48:04	10:52:30	265519	6.6.1	4_exp_EVA_AWA_CON	31	A	B	Rpleas_acq	Same	Rpleas	2pleas	acq_US_unple_nomask	acq3_nomask	3	11	453	1	300	300	0	0	467	46	1	0	anregung	träumen	vergnügt	sonnig	engagiert	vertrauen	ausrottung	töten	verbissen	sterben	engstirnig	versagen	besonnen	gütig	genießen	gesittet	kuss	kreativ	bange	gierig	gemein	geizig	krise	krank	1	blank2r.bmp	0	1	+	0	1	blank2r.bmp	500	1	CPLW	500	1	blank2r.bmp	880	2	töten	880	1	!	1293	1	!	1368	0	0	0	0	0	0
2024-05-15	10:48:04	10:52:33	267825	6.6.1	4_exp_EVA_AWA_CON	31	A	B	Rpleas_acq	Same	Rpleas	2pleas	acq_US_pleas_nomask	acq3_nomask	3	12	453	0	300	300	0	0	329	46	0	0	anregung	träumen	vergnügt	sonnig	engagiert	vertrauen	ausrottung	töten	verbissen	sterben	engstirnig	versagen	besonnen	gütig	genießen	gesittet	kuss	kreativ	bange	gierig	gemein	geizig	krise	krank	1	blank2r.bmp	0	1	+	0	1	blank2r.bmp	500	1	DHJF	500	1	blank2r.bmp	880	3	vergnügt	880	1	FEHLER	1524	1	!	-1	1	!	-1	0	0	0
2024-05-15	10:48:04	10:52:35	269957	6.6.1	4_exp_EVA_AWA_CON	31	A	B	Rpleas_acq	Same	Rpleas	2pleas	acq_US_unple_nomask	acq3_nomask	3	13	453	0	300	300	0	0	554	46	1	0	anregung	träumen	vergnügt	sonnig	engagiert	vertrauen	ausrottung	töten	verbissen	sterben	engstirnig	versagen	besonnen	gütig	genießen	gesittet	kuss	kreativ	bange	gierig	gemein	geizig	krise	krank	1	blank2r.bmp	0	1	+	0	1	blank2r.bmp	500	1	CPLW	500	1	blank2r.bmp	880	2	töten	880	1	!	1293	1	!	-1	0	0	0	0	0	0
2024-05-15	10:48:04	10:52:37	272231	6.6.1	4_exp_EVA_AWA_CON	31	A	B	Rpleas_acq	Same	Rpleas	2pleas	acq_US_unple_nomask	acq3_nomask	3	14	453	1	300	300	0	0	495	46	1	0	anregung	träumen	vergnügt	sonnig	engagiert	vertrauen	ausrottung	töten	verbissen	sterben	engstirnig	versagen	besonnen	gütig	genießen	gesittet	kuss	kreativ	bange	gierig	gemein	geizig	krise	krank	1	blank2r.bmp	0	1	+	0	1	blank2r.bmp	500	1	CPLW	500	1	blank2r.bmp	880	6	versagen	880	1	!	1293	1	!	1396	0	0	0	0	0	0
2024-05-15	10:48:04	10:52:39	274541	6.6.1	4_exp_EVA_AWA_CON	31	A	B	Rpleas_acq	Same	Rpleas	2pleas	acq_US_pleas_nomask	acq3_nomask	3	15	453	0	300	300	0	0	536	50	1	0	anregung	träumen	vergnügt	sonnig	engagiert	vertrauen	ausrottung	töten	verbissen	sterben	engstirnig	versagen	besonnen	gütig	genießen	gesittet	kuss	kreativ	bange	gierig	gemein	geizig	krise	krank	1	blank2r.bmp	0	1	+	0	1	blank2r.bmp	500	1	DHJF	500	1	blank2r.bmp	880	6	vertrauen	880	1	!	1293	1	!	-1	0	0	0	0	0	0
2024-05-15	10:48:04	10:52:42	276949	6.6.1	4_exp_EVA_AWA_CON	31	A	B	Rpleas_acq	Same	Rpleas	2pleas	acq_US_pleas_nomask	acq3_nomask	3	16	453	0	300	300	0	0	632	50	1	0	anregung	träumen	vergnügt	sonnig	engagiert	vertrauen	ausrottung	töten	verbissen	sterben	engstirnig	versagen	besonnen	gütig	genießen	gesittet	kuss	kreativ	bange	gierig	gemein	geizig	krise	krank	1	blank2r.bmp	0	1	+	0	1	blank2r.bmp	500	1	DHJF	500	1	blank2r.bmp	880	5	engagiert	880	1	!	1293	1	!	-1	0	0	0	0	0	0
2024-05-15	10:48:04	10:52:44	279125	6.6.1	4_exp_EVA_AWA_CON	31	A	B	Rpleas_acq	Same	Rpleas	2pleas	acq_US_pleas_nomask	acq3_nomask	3	17	453	1	300	300	0	0	396	50	1	0	anregung	träumen	vergnügt	sonnig	engagiert	vertrauen	ausrottung	töten	verbissen	sterben	engstirnig	versagen	besonnen	gütig	genießen	gesittet	kuss	kreativ	bange	gierig	gemein	geizig	krise	krank	1	blank2r.bmp	0	1	+	0	1	blank2r.bmp	500	1	DHJF	500	1	blank2r.bmp	880	1	anregung	880	1	!	1293	1	!	1296	0	0	0	0	0	0
2024-05-15	10:48:04	10:52:46	281375	6.6.1	4_exp_EVA_AWA_CON	31	A	B	Rpleas_acq	Same	Rpleas	2pleas	acq_US_pleas_nomask	acq3_nomask	3	18	453	1	300	300	0	0	473	50	1	0	anregung	träumen	vergnügt	sonnig	engagiert	vertrauen	ausrottung	töten	verbissen	sterben	engstirnig	versagen	besonnen	gütig	genießen	gesittet	kuss	kreativ	bange	gierig	gemein	geizig	krise	krank	1	blank2r.bmp	0	1	+	0	1	blank2r.bmp	500	1	DHJF	500	1	blank2r.bmp	880	2	träumen	880	1	!	1292	1	!	1374	0	0	0	0	0	0
2024-05-15	10:48:04	10:52:49	283599	6.6.1	4_exp_EVA_AWA_CON	31	A	B	Rpleas_acq	Same	Rpleas	2pleas	acq_US_unple_nomask	acq3_nomask	3	19	453	1	300	300	0	0	445	46	1	0	anregung	träumen	vergnügt	sonnig	engagiert	vertrauen	ausrottung	töten	verbissen	sterben	engstirnig	versagen	besonnen	gütig	genießen	gesittet	kuss	kreativ	bange	gierig	gemein	geizig	krise	krank	1	blank2r.bmp	0	1	+	0	1	blank2r.bmp	500	1	CPLW	500	1	blank2r.bmp	880	3	verbissen	880	1	!	1293	1	!	1347	0	0	0	0	0	0
2024-05-15	10:48:04	10:52:51	285909	6.6.1	4_exp_EVA_AWA_CON	31	A	B	Rpleas_acq	Same	Rpleas	2pleas	acq_US_unple_nomask	acq3_nomask	3	20	453	0	300	300	0	0	536	46	1	0	anregung	träumen	vergnügt	sonnig	engagiert	vertrauen	ausrottung	töten	verbissen	sterben	engstirnig	versagen	besonnen	gütig	genießen	gesittet	kuss	kreativ	bange	gierig	gemein	geizig	krise	krank	1	blank2r.bmp	0	1	+	0	1	blank2r.bmp	500	1	CPLW	500	1	blank2r.bmp	880	1	ausrottung	880	1	!	1292	1	!	-1	0	0	0	0	0	0
2024-05-15	10:48:04	10:52:53	288143	6.6.1	4_exp_EVA_AWA_CON	31	A	B	Rpleas_acq	Same	Rpleas	2pleas	acq_US_unple_nomask	acq3_nomask	3	21	453	1	300	300	0	0	456	46	1	0	anregung	träumen	vergnügt	sonnig	engagiert	vertrauen	ausrottung	töten	verbissen	sterben	engstirnig	versagen	besonnen	gütig	genießen	gesittet	kuss	kreativ	bange	gierig	gemein	geizig	krise	krank	1	blank2r.bmp	0	1	+	0	1	blank2r.bmp	500	1	CPLW	500	1	blank2r.bmp	880	4	sterben	880	1	!	1293	1	!	1358	0	0	0	0	0	0
2024-05-15	10:48:04	10:52:55	290541	6.6.1	4_exp_EVA_AWA_CON	31	A	B	Rpleas_acq	Same	Rpleas	2pleas	acq_US_pleas_nomask	acq3_nomask	3	22	453	0	300	300	0	0	625	50	1	0	anregung	träumen	vergnügt	sonnig	engagiert	vertrauen	ausrottung	töten	verbissen	sterben	engstirnig	versagen	besonnen	gütig	genießen	gesittet	kuss	kreativ	bange	gierig	gemein	geizig	krise	krank	1	blank2r.bmp	0	1	+	0	1	blank2r.bmp	500	1	DHJF	500	1	blank2r.bmp	880	3	vergnügt	880	1	!	1293	1	!	-1	0	0	0	0	0	0
2024-05-15	10:48:04	10:52:58	293136	6.6.1	4_exp_EVA_AWA_CON	31	A	B	Rpleas_acq	Same	Rpleas	2pleas	acq_US_unple_nomask	acq3_nomask	3	23	453	0	300	300	0	0	615	50	0	0	anregung	träumen	vergnügt	sonnig	engagiert	vertrauen	ausrottung	töten	verbissen	sterben	engstirnig	versagen	besonnen	gütig	genießen	gesittet	kuss	kreativ	bange	gierig	gemein	geizig	krise	krank	1	blank2r.bmp	0	1	+	0	1	blank2r.bmp	500	1	CPLW	500	1	blank2r.bmp	880	5	engstirnig	880	1	FEHLER	1809	1	!	1292	1	!	-1	0	0	0
2024-05-15	10:48:04	10:53:00	295310	6.6.1	4_exp_EVA_AWA_CON	31	A	B	Rpleas_acq	Same	Rpleas	2pleas	acq_US_pleas_nomask	acq3_nomask	3	24	453	0	300	300	0	0	600	50	1	0	anregung	träumen	vergnügt	sonnig	engagiert	vertrauen	ausrottung	töten	verbissen	sterben	engstirnig	versagen	besonnen	gütig	genießen	gesittet	kuss	kreativ	bange	gierig	gemein	geizig	krise	krank	1	blank2r.bmp	0	1	+	0	1	blank2r.bmp	500	1	DHJF	500	1	blank2r.bmp	880	4	sonnig	880	1	!	1293	1	!	-1	0	0	0	0	0	0
2024-05-15	10:48:04	10:53:03	297664	6.6.1	4_exp_EVA_AWA_CON	31	A	B	Rpleas_acq	Same	Rpleas	2pleas	acq_US_pleas_nomask	acq3_nomask	3	25	453	0	300	300	0	0	370	46	0	0	anregung	träumen	vergnügt	sonnig	engagiert	vertrauen	ausrottung	töten	verbissen	sterben	engstirnig	versagen	besonnen	gütig	genießen	gesittet	kuss	kreativ	bange	gierig	gemein	geizig	krise	krank	1	blank2r.bmp	0	1	+	0	1	blank2r.bmp	500	1	DHJF	500	1	blank2r.bmp	880	2	träumen	880	1	FEHLER	1564	1	!	-1	1	!	-1	0	0	0
2024-05-15	10:48:04	10:53:04	299557	6.6.1	4_exp_EVA_AWA_CON	31	A	B	Rpleas_acq	Same	Rpleas	2pleas	acq_US_unple_nomask	acq3_nomask	3	26	453	0	300	300	0	0	315	46	1	0	anregung	träumen	vergnügt	sonnig	engagiert	vertrauen	ausrottung	töten	verbissen	sterben	engstirnig	versagen	besonnen	gütig	genießen	gesittet	kuss	kreativ	bange	gierig	gemein	geizig	krise	krank	1	blank2r.bmp	0	1	+	0	1	blank2r.bmp	500	1	CPLW	500	1	blank2r.bmp	880	5	engstirnig	880	1	!	-1	1	!	-1	0	0	0	0	0	0
2024-05-15	10:48:04	10:53:07	301605	6.6.1	4_exp_EVA_AWA_CON	31	A	B	Rpleas_acq	Same	Rpleas	2pleas	acq_US_pleas_nomask	acq3_nomask	3	27	453	0	300	300	0	0	272	50	1	0	anregung	träumen	vergnügt	sonnig	engagiert	vertrauen	ausrottung	töten	verbissen	sterben	engstirnig	versagen	besonnen	gütig	genießen	gesittet	kuss	kreativ	bange	gierig	gemein	geizig	krise	krank	1	blank2r.bmp	0	1	+	0	1	blank2r.bmp	500	1	DHJF	500	1	blank2r.bmp	880	4	sonnig	880	1	!	-1	1	!	-1	0	0	0	0	0	0
2024-05-15	10:48:04	10:53:09	303680	6.6.1	4_exp_EVA_AWA_CON	31	A	B	Rpleas_acq	Same	Rpleas	2pleas	acq_US_pleas_nomask	acq3_nomask	3	28	453	0	300	300	0	0	92	46	0	0	anregung	träumen	vergnügt	sonnig	engagiert	vertrauen	ausrottung	töten	verbissen	sterben	engstirnig	versagen	besonnen	gütig	genießen	gesittet	kuss	kreativ	bange	gierig	gemein	geizig	krise	krank	1	blank2r.bmp	0	1	+	0	1	blank2r.bmp	500	1	DHJF	500	1	blank2r.bmp	880	5	engagiert	880	1	FEHLER	1286	1	!	-1	1	!	-1	0	0	0
2024-05-15	10:48:04	10:53:11	305809	6.6.1	4_exp_EVA_AWA_CON	31	A	B	Rpleas_acq	Same	Rpleas	2pleas	acq_US_pleas_nomask	acq3_nomask	3	29	453	0	300	300	0	0	349	46	0	0	anregung	träumen	vergnügt	sonnig	engagiert	vertrauen	ausrottung	töten	verbissen	sterben	engstirnig	versagen	besonnen	gütig	genießen	gesittet	kuss	kreativ	bange	gierig	gemein	geizig	krise	krank	1	blank2r.bmp	0	1	+	0	1	blank2r.bmp	500	1	DHJF	500	1	blank2r.bmp	880	6	vertrauen	880	1	FEHLER	1543	1	!	-1	1	!	-1	0	0	0
2024-05-15	10:48:04	10:53:13	307989	6.6.1	4_exp_EVA_AWA_CON	31	A	B	Rpleas_acq	Same	Rpleas	2pleas	acq_US_unple_nomask	acq3_nomask	3	30	453	0	300	300	0	0	602	46	1	0	anregung	träumen	vergnügt	sonnig	engagiert	vertrauen	ausrottung	töten	verbissen	sterben	engstirnig	versagen	besonnen	gütig	genießen	gesittet	kuss	kreativ	bange	gierig	gemein	geizig	krise	krank	1	blank2r.bmp	0	1	+	0	1	blank2r.bmp	500	1	CPLW	500	1	blank2r.bmp	880	6	versagen	880	1	!	1292	1	!	-1	0	0	0	0	0	0
2024-05-15	10:48:04	10:53:15	310299	6.6.1	4_exp_EVA_AWA_CON	31	A	B	Rpleas_acq	Same	Rpleas	2pleas	acq_US_unple_nomask	acq3_nomask	3	31	453	0	300	300	0	0	532	46	1	0	anregung	träumen	vergnügt	sonnig	engagiert	vertrauen	ausrottung	töten	verbissen	sterben	engstirnig	versagen	besonnen	gütig	genießen	gesittet	kuss	kreativ	bange	gierig	gemein	geizig	krise	krank	1	blank2r.bmp	0	1	+	0	1	blank2r.bmp	500	1	CPLW	500	1	blank2r.bmp	880	1	ausrottung	880	1	!	1292	1	!	-1	0	0	0	0	0	0
2024-05-15	10:48:04	10:53:17	312503	6.6.1	4_exp_EVA_AWA_CON	31	A	B	Rpleas_acq	Same	Rpleas	2pleas	acq_US_unple_nomask	acq3_nomask	3	32	453	1	300	300	0	0	421	46	1	0	anregung	träumen	vergnügt	sonnig	engagiert	vertrauen	ausrottung	töten	verbissen	sterben	engstirnig	versagen	besonnen	gütig	genießen	gesittet	kuss	kreativ	bange	gierig	gemein	geizig	krise	krank	1	blank2r.bmp	0	1	+	0	1	blank2r.bmp	500	1	CPLW	500	1	blank2r.bmp	880	2	töten	880	1	!	1293	1	!	1323	0	0	0	0	0	0
2024-05-15	10:48:04	10:53:20	314767	6.6.1	4_exp_EVA_AWA_CON	31	A	B	Rpleas_acq	Same	Rpleas	2pleas	acq_US_pleas_nomask	acq3_nomask	3	33	453	1	300	300	0	0	483	50	1	0	anregung	träumen	vergnügt	sonnig	engagiert	vertrauen	ausrottung	töten	verbissen	sterben	engstirnig	versagen	besonnen	gütig	genießen	gesittet	kuss	kreativ	bange	gierig	gemein	geizig	krise	krank	1	blank2r.bmp	0	1	+	0	1	blank2r.bmp	500	1	DHJF	500	1	blank2r.bmp	880	1	anregung	880	1	!	1293	1	!	1385	0	0	0	0	0	0
2024-05-15	10:48:04	10:53:22	316934	6.6.1	4_exp_EVA_AWA_CON	31	A	B	Rpleas_acq	Same	Rpleas	2pleas	acq_US_pleas_nomask	acq3_nomask	3	34	453	0	300	300	0	0	390	50	1	0	anregung	träumen	vergnügt	sonnig	engagiert	vertrauen	ausrottung	töten	verbissen	sterben	engstirnig	versagen	besonnen	gütig	genießen	gesittet	kuss	kreativ	bange	gierig	gemein	geizig	krise	krank	1	blank2r.bmp	0	1	+	0	1	blank2r.bmp	500	1	DHJF	500	1	blank2r.bmp	880	3	vergnügt	880	1	!	-1	1	!	-1	0	0	0	0	0	0
2024-05-15	10:48:04	10:53:24	319005	6.6.1	4_exp_EVA_AWA_CON	31	A	B	Rpleas_acq	Same	Rpleas	2pleas	acq_US_unple_nomask	acq3_nomask	3	35	453	0	300	300	0	0	290	46	1	0	anregung	träumen	vergnügt	sonnig	engagiert	vertrauen	ausrottung	töten	verbissen	sterben	engstirnig	versagen	besonnen	gütig	genießen	gesittet	kuss	kreativ	bange	gierig	gemein	geizig	krise	krank	1	blank2r.bmp	0	1	+	0	1	blank2r.bmp	500	1	CPLW	500	1	blank2r.bmp	880	3	verbissen	880	1	!	-1	1	!	-1	0	0	0	0	0	0
2024-05-15	10:48:04	10:53:26	321437	6.6.1	4_exp_EVA_AWA_CON	31	A	B	Rpleas_acq	Same	Rpleas	2pleas	acq_US_unple_nomask	acq3_nomask	3	36	453	0	300	300	0	0	651	46	1	0	anregung	träumen	vergnügt	sonnig	engagiert	vertrauen	ausrottung	töten	verbissen	sterben	engstirnig	versagen	besonnen	gütig	genießen	gesittet	kuss	kreativ	bange	gierig	gemein	geizig	krise	krank	1	blank2r.bmp	0	1	+	0	1	blank2r.bmp	500	1	CPLW	500	1	blank2r.bmp	880	4	sterben	880	1	!	1293	1	!	-1	0	0	0	0	0	0
2024-05-15	10:48:04	10:53:40	334861	6.6.1	4_exp_EVA_AWA_CON	31	A	B	Rpleas_acq	Same	Rpleas	2pleas	acq_US_unple_nomask	acq45_nomask	4	1	400	0	300	300	0	0	286	50	0	0	anregung	träumen	vergnügt	sonnig	engagiert	vertrauen	ausrottung	töten	verbissen	sterben	engstirnig	versagen	besonnen	gütig	genießen	gesittet	kuss	kreativ	bange	gierig	gemein	geizig	krise	krank	1	blank2r.bmp	0	1	+	0	1	blank2r.bmp	500	1	CPLW	500	1	blank2r.bmp	880	3	verbissen	880	1	!	-1	1	!	-1	0	0	0	0	0	0
2024-05-15	10:48:04	10:53:42	337245	6.6.1	4_exp_EVA_AWA_CON	31	A	B	Rpleas_acq	Same	Rpleas	2pleas	acq_US_pleas_nomask	acq45_nomask	4	2	400	0	300	300	0	0	609	50	1	0	anregung	träumen	vergnügt	sonnig	engagiert	vertrauen	ausrottung	töten	verbissen	sterben	engstirnig	versagen	besonnen	gütig	genießen	gesittet	kuss	kreativ	bange	gierig	gemein	geizig	krise	krank	1	blank2r.bmp	0	1	+	0	1	blank2r.bmp	500	1	DHJF	500	1	blank2r.bmp	880	1	anregung	880	1	!	1233	1	!	-1	0	0	0	0	0	0
2024-05-15	10:48:04	10:53:44	339487	6.6.1	4_exp_EVA_AWA_CON	31	A	B	Rpleas_acq	Same	Rpleas	2pleas	acq_US_pleas_nomask	acq45_nomask	4	3	400	1	300	300	0	0	467	46	0	0	anregung	träumen	vergnügt	sonnig	engagiert	vertrauen	ausrottung	töten	verbissen	sterben	engstirnig	versagen	besonnen	gütig	genießen	gesittet	kuss	kreativ	bange	gierig	gemein	geizig	krise	krank	1	blank2r.bmp	0	1	+	0	1	blank2r.bmp	500	1	DHJF	500	1	blank2r.bmp	880	2	träumen	880	1	!	1232	1	!	1369	0	0	0	0	0	0
2024-05-15	10:48:04	10:53:47	342037	6.6.1	4_exp_EVA_AWA_CON	31	A	B	Rpleas_acq	Same	Rpleas	2pleas	acq_US_pleas_nomask	acq45_nomask	4	4	400	0	300	300	0	0	768	46	0	0	anregung	träumen	vergnügt	sonnig	engagiert	vertrauen	ausrottung	töten	verbissen	sterben	engstirnig	versagen	besonnen	gütig	genießen	gesittet	kuss	kreativ	bange	gierig	gemein	geizig	krise	krank	1	blank2r.bmp	0	1	+	0	1	blank2r.bmp	500	1	DHJF	500	1	blank2r.bmp	880	6	vertrauen	880	1	!	1232	1	!	-1	0	0	0	0	0	0
2024-05-15	10:48:04	10:53:49	344317	6.6.1	4_exp_EVA_AWA_CON	31	A	B	Rpleas_acq	Same	Rpleas	2pleas	acq_US_pleas_nomask	acq45_nomask	4	5	400	0	300	300	0	0	506	50	1	0	anregung	träumen	vergnügt	sonnig	engagiert	vertrauen	ausrottung	töten	verbissen	sterben	engstirnig	versagen	besonnen	gütig	genießen	gesittet	kuss	kreativ	bange	gierig	gemein	geizig	krise	krank	1	blank2r.bmp	0	1	+	0	1	blank2r.bmp	500	1	DHJF	500	1	blank2r.bmp	880	4	sonnig	880	1	!	1233	1	!	-1	0	0	0	0	0	0
2024-05-15	10:48:04	10:53:52	346677	6.6.1	4_exp_EVA_AWA_CON	31	A	B	Rpleas_acq	Same	Rpleas	2pleas	acq_US_unple_nomask	acq45_nomask	4	6	400	0	300	300	0	0	585	46	1	0	anregung	träumen	vergnügt	sonnig	engagiert	vertrauen	ausrottung	töten	verbissen	sterben	engstirnig	versagen	besonnen	gütig	genießen	gesittet	kuss	kreativ	bange	gierig	gemein	geizig	krise	krank	1	blank2r.bmp	0	1	+	0	1	blank2r.bmp	500	1	CPLW	500	1	blank2r.bmp	880	4	sterben	880	1	!	1232	1	!	-1	0	0	0	0	0	0
2024-05-15	10:48:04	10:53:54	349045	6.6.1	4_exp_EVA_AWA_CON	31	A	B	Rpleas_acq	Same	Rpleas	2pleas	acq_US_unple_nomask	acq45_nomask	4	7	400	0	300	300	0	0	591	50	0	0	anregung	träumen	vergnügt	sonnig	engagiert	vertrauen	ausrottung	töten	verbissen	sterben	engstirnig	versagen	besonnen	gütig	genießen	gesittet	kuss	kreativ	bange	gierig	gemein	geizig	krise	krank	1	blank2r.bmp	0	1	+	0	1	blank2r.bmp	500	1	CPLW	500	1	blank2r.bmp	880	1	ausrottung	880	1	!	1232	1	!	-1	0	0	0	0	0	0
2024-05-15	10:48:04	10:53:57	351686	6.6.1	4_exp_EVA_AWA_CON	31	A	B	Rpleas_acq	Same	Rpleas	2pleas	acq_US_unple_nomask	acq45_nomask	4	8	400	0	300	300	0	0	860	46	1	0	anregung	träumen	vergnügt	sonnig	engagiert	vertrauen	ausrottung	töten	verbissen	sterben	engstirnig	versagen	besonnen	gütig	genießen	gesittet	kuss	kreativ	bange	gierig	gemein	geizig	krise	krank	1	blank2r.bmp	0	1	+	0	1	blank2r.bmp	500	1	CPLW	500	1	blank2r.bmp	880	6	versagen	880	1	!	1232	1	!	-1	0	0	0	0	0	0
2024-05-15	10:48:04	10:53:59	354045	6.6.1	4_exp_EVA_AWA_CON	31	A	B	Rpleas_acq	Same	Rpleas	2pleas	acq_US_pleas_nomask	acq45_nomask	4	9	400	0	300	300	0	0	578	50	1	0	anregung	träumen	vergnügt	sonnig	engagiert	vertrauen	ausrottung	töten	verbissen	sterben	engstirnig	versagen	besonnen	gütig	genießen	gesittet	kuss	kreativ	bange	gierig	gemein	geizig	krise	krank	1	blank2r.bmp	0	1	+	0	1	blank2r.bmp	500	1	DHJF	500	1	blank2r.bmp	880	5	engagiert	880	1	!	1233	1	!	-1	0	0	0	0	0	0
2024-05-15	10:48:04	10:54:01	356239	6.6.1	4_exp_EVA_AWA_CON	31	A	B	Rpleas_acq	Same	Rpleas	2pleas	acq_US_pleas_nomask	acq45_nomask	4	10	400	1	300	300	0	0	419	50	1	0	anregung	träumen	vergnügt	sonnig	engagiert	vertrauen	ausrottung	töten	verbissen	sterben	engstirnig	versagen	besonnen	gütig	genießen	gesittet	kuss	kreativ	bange	gierig	gemein	geizig	krise	krank	1	blank2r.bmp	0	1	+	0	1	blank2r.bmp	500	1	DHJF	500	1	blank2r.bmp	880	3	vergnügt	880	1	!	1233	1	!	1320	0	0	0	0	0	0
2024-05-15	10:48:04	10:54:03	358399	6.6.1	4_exp_EVA_AWA_CON	31	A	B	Rpleas_acq	Same	Rpleas	2pleas	acq_US_unple_nomask	acq45_nomask	4	11	400	1	300	300	0	0	377	50	0	0	anregung	träumen	vergnügt	sonnig	engagiert	vertrauen	ausrottung	töten	verbissen	sterben	engstirnig	versagen	besonnen	gütig	genießen	gesittet	kuss	kreativ	bange	gierig	gemein	geizig	krise	krank	1	blank2r.bmp	0	1	+	0	1	blank2r.bmp	500	1	CPLW	500	1	blank2r.bmp	880	5	engstirnig	880	1	!	1233	1	!	1279	0	0	0	0	0	0
2024-05-15	10:48:04	10:54:06	360615	6.6.1	4_exp_EVA_AWA_CON	31	A	B	Rpleas_acq	Same	Rpleas	2pleas	acq_US_unple_nomask	acq45_nomask	4	12	400	1	300	300	0	0	432	46	1	0	anregung	träumen	vergnügt	sonnig	engagiert	vertrauen	ausrottung	töten	verbissen	sterben	engstirnig	versagen	besonnen	gütig	genießen	gesittet	kuss	kreativ	bange	gierig	gemein	geizig	krise	krank	1	blank2r.bmp	0	1	+	0	1	blank2r.bmp	500	1	CPLW	500	1	blank2r.bmp	880	2	töten	880	1	!	1233	1	!	1333	0	0	0	0	0	0
2024-05-15	10:48:04	10:54:08	362717	6.6.1	4_exp_EVA_AWA_CON	31	A	B	Rpleas_acq	Same	Rpleas	2pleas	acq_US_unple_nomask	acq45_nomask	4	13	400	0	300	300	0	0	324	46	1	0	anregung	träumen	vergnügt	sonnig	engagiert	vertrauen	ausrottung	töten	verbissen	sterben	engstirnig	versagen	besonnen	gütig	genießen	gesittet	kuss	kreativ	bange	gierig	gemein	geizig	krise	krank	1	blank2r.bmp	0	1	+	0	1	blank2r.bmp	500	1	CPLW	500	1	blank2r.bmp	880	4	sterben	880	1	!	-1	1	!	-1	0	0	0	0	0	0
2024-05-15	10:48:04	10:54:10	364989	6.6.1	4_exp_EVA_AWA_CON	31	A	B	Rpleas_acq	Same	Rpleas	2pleas	acq_US_pleas_nomask	acq45_nomask	4	14	400	0	300	300	0	0	495	50	1	0	anregung	träumen	vergnügt	sonnig	engagiert	vertrauen	ausrottung	töten	verbissen	sterben	engstirnig	versagen	besonnen	gütig	genießen	gesittet	kuss	kreativ	bange	gierig	gemein	geizig	krise	krank	1	blank2r.bmp	0	1	+	0	1	blank2r.bmp	500	1	DHJF	500	1	blank2r.bmp	880	3	vergnügt	880	1	!	1233	1	!	-1	0	0	0	0	0	0
2024-05-15	10:48:04	10:54:12	367243	6.6.1	4_exp_EVA_AWA_CON	31	A	B	Rpleas_acq	Same	Rpleas	2pleas	acq_US_pleas_nomask	acq45_nomask	4	15	400	0	300	300	0	0	480	50	1	0	anregung	träumen	vergnügt	sonnig	engagiert	vertrauen	ausrottung	töten	verbissen	sterben	engstirnig	versagen	besonnen	gütig	genießen	gesittet	kuss	kreativ	bange	gierig	gemein	geizig	krise	krank	1	blank2r.bmp	0	1	+	0	1	blank2r.bmp	500	1	DHJF	500	1	blank2r.bmp	880	1	anregung	880	1	!	1232	1	!	-1	0	0	0	0	0	0
2024-05-15	10:48:04	10:54:14	369488	6.6.1	4_exp_EVA_AWA_CON	31	A	B	Rpleas_acq	Same	Rpleas	2pleas	acq_US_pleas_nomask	acq45_nomask	4	16	400	1	300	300	0	0	468	50	1	0	anregung	träumen	vergnügt	sonnig	engagiert	vertrauen	ausrottung	töten	verbissen	sterben	engstirnig	versagen	besonnen	gütig	genießen	gesittet	kuss	kreativ	bange	gierig	gemein	geizig	krise	krank	1	blank2r.bmp	0	1	+	0	1	blank2r.bmp	500	1	DHJF	500	1	blank2r.bmp	880	5	engagiert	880	1	!	1233	1	!	1370	0	0	0	0	0	0
2024-05-15	10:48:04	10:54:17	371704	6.6.1	4_exp_EVA_AWA_CON	31	A	B	Rpleas_acq	Same	Rpleas	2pleas	acq_US_unple_nomask	acq45_nomask	4	17	400	1	300	300	0	0	433	46	1	0	anregung	träumen	vergnügt	sonnig	engagiert	vertrauen	ausrottung	töten	verbissen	sterben	engstirnig	versagen	besonnen	gütig	genießen	gesittet	kuss	kreativ	bange	gierig	gemein	geizig	krise	krank	1	blank2r.bmp	0	1	+	0	1	blank2r.bmp	500	1	CPLW	500	1	blank2r.bmp	880	2	töten	880	1	!	1232	1	!	1335	0	0	0	0	0	0
2024-05-15	10:48:04	10:54:19	373855	6.6.1	4_exp_EVA_AWA_CON	31	A	B	Rpleas_acq	Same	Rpleas	2pleas	acq_US_unple_nomask	acq45_nomask	4	18	400	1	300	300	0	0	373	46	1	0	anregung	träumen	vergnügt	sonnig	engagiert	vertrauen	ausrottung	töten	verbissen	sterben	engstirnig	versagen	besonnen	gütig	genießen	gesittet	kuss	kreativ	bange	gierig	gemein	geizig	krise	krank	1	blank2r.bmp	0	1	+	0	1	blank2r.bmp	500	1	CPLW	500	1	blank2r.bmp	880	3	verbissen	880	1	!	1232	1	!	1275	0	0	0	0	0	0
2024-05-15	10:48:04	10:54:21	376015	6.6.1	4_exp_EVA_AWA_CON	31	A	B	Rpleas_acq	Same	Rpleas	2pleas	acq_US_pleas_nomask	acq45_nomask	4	19	400	1	300	300	0	0	382	50	1	0	anregung	träumen	vergnügt	sonnig	engagiert	vertrauen	ausrottung	töten	verbissen	sterben	engstirnig	versagen	besonnen	gütig	genießen	gesittet	kuss	kreativ	bange	gierig	gemein	geizig	krise	krank	1	blank2r.bmp	0	1	+	0	1	blank2r.bmp	500	1	DHJF	500	1	blank2r.bmp	880	4	sonnig	880	1	!	1232	1	!	1283	0	0	0	0	0	0
2024-05-15	10:48:04	10:54:23	378159	6.6.1	4_exp_EVA_AWA_CON	31	A	B	Rpleas_acq	Same	Rpleas	2pleas	acq_US_pleas_nomask	acq45_nomask	4	20	400	1	300	300	0	0	364	46	0	0	anregung	träumen	vergnügt	sonnig	engagiert	vertrauen	ausrottung	töten	verbissen	sterben	engstirnig	versagen	besonnen	gütig	genießen	gesittet	kuss	kreativ	bange	gierig	gemein	geizig	krise	krank	1	blank2r.bmp	0	1	+	0	1	blank2r.bmp	500	1	DHJF	500	1	blank2r.bmp	880	2	träumen	880	1	!	1232	1	!	1266	0	0	0	0	0	0
2024-05-15	10:48:04	10:54:25	380477	6.6.1	4_exp_EVA_AWA_CON	31	A	B	Rpleas_acq	Same	Rpleas	2pleas	acq_US_unple_nomask	acq45_nomask	4	21	400	0	300	300	0	0	543	46	1	0	anregung	träumen	vergnügt	sonnig	engagiert	vertrauen	ausrottung	töten	verbissen	sterben	engstirnig	versagen	besonnen	gütig	genießen	gesittet	kuss	kreativ	bange	gierig	gemein	geizig	krise	krank	1	blank2r.bmp	0	1	+	0	1	blank2r.bmp	500	1	CPLW	500	1	blank2r.bmp	880	5	engstirnig	880	1	!	1232	1	!	-1	0	0	0	0	0	0
2024-05-15	10:48:04	10:54:28	382757	6.6.1	4_exp_EVA_AWA_CON	31	A	B	Rpleas_acq	Same	Rpleas	2pleas	acq_US_pleas_nomask	acq45_nomask	4	22	400	0	300	300	0	0	502	50	1	0	anregung	träumen	vergnügt	sonnig	engagiert	vertrauen	ausrottung	töten	verbissen	sterben	engstirnig	versagen	besonnen	gütig	genießen	gesittet	kuss	kreativ	bange	gierig	gemein	geizig	krise	krank	1	blank2r.bmp	0	1	+	0	1	blank2r.bmp	500	1	DHJF	500	1	blank2r.bmp	880	6	vertrauen	880	1	!	1233	1	!	-1	0	0	0	0	0	0
2024-05-15	10:48:04	10:54:30	384960	6.6.1	4_exp_EVA_AWA_CON	31	A	B	Rpleas_acq	Same	Rpleas	2pleas	acq_US_pleas_nomask	acq45_nomask	4	23	400	1	300	300	0	0	420	46	0	0	anregung	träumen	vergnügt	sonnig	engagiert	vertrauen	ausrottung	töten	verbissen	sterben	engstirnig	versagen	besonnen	gütig	genießen	gesittet	kuss	kreativ	bange	gierig	gemein	geizig	krise	krank	1	blank2r.bmp	0	1	+	0	1	blank2r.bmp	500	1	DHJF	500	1	blank2r.bmp	880	4	sonnig	880	1	!	1233	1	!	1322	0	0	0	0	0	0
2024-05-15	10:48:04	10:54:32	387183	6.6.1	4_exp_EVA_AWA_CON	31	A	B	Rpleas_acq	Same	Rpleas	2pleas	acq_US_pleas_nomask	acq45_nomask	4	24	400	1	300	300	0	0	443	50	1	0	anregung	träumen	vergnügt	sonnig	engagiert	vertrauen	ausrottung	töten	verbissen	sterben	engstirnig	versagen	besonnen	gütig	genießen	gesittet	kuss	kreativ	bange	gierig	gemein	geizig	krise	krank	1	blank2r.bmp	0	1	+	0	1	blank2r.bmp	500	1	DHJF	500	1	blank2r.bmp	880	5	engagiert	880	1	!	1232	1	!	1344	0	0	0	0	0	0
2024-05-15	10:48:04	10:54:34	389230	6.6.1	4_exp_EVA_AWA_CON	31	A	B	Rpleas_acq	Same	Rpleas	2pleas	acq_US_unple_nomask	acq45_nomask	4	25	400	0	300	300	0	0	269	46	1	0	anregung	träumen	vergnügt	sonnig	engagiert	vertrauen	ausrottung	töten	verbissen	sterben	engstirnig	versagen	besonnen	gütig	genießen	gesittet	kuss	kreativ	bange	gierig	gemein	geizig	krise	krank	1	blank2r.bmp	0	1	+	0	1	blank2r.bmp	500	1	CPLW	500	1	blank2r.bmp	880	1	ausrottung	880	1	!	-1	1	!	-1	0	0	0	0	0	0
2024-05-15	10:48:04	10:54:36	391549	6.6.1	4_exp_EVA_AWA_CON	31	A	B	Rpleas_acq	Same	Rpleas	2pleas	acq_US_pleas_nomask	acq45_nomask	4	26	400	0	300	300	0	0	538	50	1	0	anregung	träumen	vergnügt	sonnig	engagiert	vertrauen	ausrottung	töten	verbissen	sterben	engstirnig	versagen	besonnen	gütig	genießen	gesittet	kuss	kreativ	bange	gierig	gemein	geizig	krise	krank	1	blank2r.bmp	0	1	+	0	1	blank2r.bmp	500	1	DHJF	500	1	blank2r.bmp	880	6	vertrauen	880	1	!	1233	1	!	-1	0	0	0	0	0	0
2024-05-15	10:48:04	10:54:39	393813	6.6.1	4_exp_EVA_AWA_CON	31	A	B	Rpleas_acq	Same	Rpleas	2pleas	acq_US_unple_nomask	acq45_nomask	4	27	400	0	300	300	0	0	491	46	1	0	anregung	träumen	vergnügt	sonnig	engagiert	vertrauen	ausrottung	töten	verbissen	sterben	engstirnig	versagen	besonnen	gütig	genießen	gesittet	kuss	kreativ	bange	gierig	gemein	geizig	krise	krank	1	blank2r.bmp	0	1	+	0	1	blank2r.bmp	500	1	CPLW	500	1	blank2r.bmp	880	6	versagen	880	1	!	1233	1	!	-1	0	0	0	0	0	0
2024-05-15	10:48:04	10:54:41	396093	6.6.1	4_exp_EVA_AWA_CON	31	A	B	Rpleas_acq	Same	Rpleas	2pleas	acq_US_pleas_nomask	acq45_nomask	4	28	400	0	300	300	0	0	499	50	1	0	anregung	träumen	vergnügt	sonnig	engagiert	vertrauen	ausrottung	töten	verbissen	sterben	engstirnig	versagen	besonnen	gütig	genießen	gesittet	kuss	kreativ	bange	gierig	gemein	geizig	krise	krank	1	blank2r.bmp	0	1	+	0	1	blank2r.bmp	500	1	DHJF	500	1	blank2r.bmp	880	3	vergnügt	880	1	!	1233	1	!	-1	0	0	0	0	0	0
2024-05-15	10:48:04	10:54:43	398366	6.6.1	4_exp_EVA_AWA_CON	31	A	B	Rpleas_acq	Same	Rpleas	2pleas	acq_US_pleas_nomask	acq45_nomask	4	29	400	0	300	300	0	0	490	50	1	0	anregung	träumen	vergnügt	sonnig	engagiert	vertrauen	ausrottung	töten	verbissen	sterben	engstirnig	versagen	besonnen	gütig	genießen	gesittet	kuss	kreativ	bange	gierig	gemein	geizig	krise	krank	1	blank2r.bmp	0	1	+	0	1	blank2r.bmp	500	1	DHJF	500	1	blank2r.bmp	880	1	anregung	880	1	!	1233	1	!	-1	0	0	0	0	0	0
2024-05-15	10:48:04	10:54:46	400718	6.6.1	4_exp_EVA_AWA_CON	31	A	B	Rpleas_acq	Same	Rpleas	2pleas	acq_US_pleas_nomask	acq45_nomask	4	30	400	0	300	300	0	0	570	50	1	0	anregung	träumen	vergnügt	sonnig	engagiert	vertrauen	ausrottung	töten	verbissen	sterben	engstirnig	versagen	besonnen	gütig	genießen	gesittet	kuss	kreativ	bange	gierig	gemein	geizig	krise	krank	1	blank2r.bmp	0	1	+	0	1	blank2r.bmp	500	1	DHJF	500	1	blank2r.bmp	880	2	träumen	880	1	!	1233	1	!	-1	0	0	0	0	0	0
2024-05-15	10:48:04	10:54:48	402837	6.6.1	4_exp_EVA_AWA_CON	31	A	B	Rpleas_acq	Same	Rpleas	2pleas	acq_US_unple_nomask	acq45_nomask	4	31	400	1	300	300	0	0	339	50	0	0	anregung	träumen	vergnügt	sonnig	engagiert	vertrauen	ausrottung	töten	verbissen	sterben	engstirnig	versagen	besonnen	gütig	genießen	gesittet	kuss	kreativ	bange	gierig	gemein	geizig	krise	krank	1	blank2r.bmp	0	1	+	0	1	blank2r.bmp	500	1	CPLW	500	1	blank2r.bmp	880	1	ausrottung	880	1	!	1233	1	!	1239	0	0	0	0	0	0
2024-05-15	10:48:04	10:54:50	405039	6.6.1	4_exp_EVA_AWA_CON	31	A	B	Rpleas_acq	Same	Rpleas	2pleas	acq_US_unple_nomask	acq45_nomask	4	32	400	1	300	300	0	0	427	46	1	0	anregung	träumen	vergnügt	sonnig	engagiert	vertrauen	ausrottung	töten	verbissen	sterben	engstirnig	versagen	besonnen	gütig	genießen	gesittet	kuss	kreativ	bange	gierig	gemein	geizig	krise	krank	1	blank2r.bmp	0	1	+	0	1	blank2r.bmp	500	1	CPLW	500	1	blank2r.bmp	880	5	engstirnig	880	1	!	1233	1	!	1329	0	0	0	0	0	0
2024-05-15	10:48:04	10:54:52	407142	6.6.1	4_exp_EVA_AWA_CON	31	A	B	Rpleas_acq	Same	Rpleas	2pleas	acq_US_unple_nomask	acq45_nomask	4	33	400	0	300	300	0	0	320	46	1	0	anregung	träumen	vergnügt	sonnig	engagiert	vertrauen	ausrottung	töten	verbissen	sterben	engstirnig	versagen	besonnen	gütig	genießen	gesittet	kuss	kreativ	bange	gierig	gemein	geizig	krise	krank	1	blank2r.bmp	0	1	+	0	1	blank2r.bmp	500	1	CPLW	500	1	blank2r.bmp	880	2	töten	880	1	!	-1	1	!	-1	0	0	0	0	0	0
2024-05-15	10:48:04	10:54:54	409403	6.6.1	4_exp_EVA_AWA_CON	31	A	B	Rpleas_acq	Same	Rpleas	2pleas	acq_US_unple_nomask	acq45_nomask	4	34	400	0	300	300	0	0	482	50	0	0	anregung	träumen	vergnügt	sonnig	engagiert	vertrauen	ausrottung	töten	verbissen	sterben	engstirnig	versagen	besonnen	gütig	genießen	gesittet	kuss	kreativ	bange	gierig	gemein	geizig	krise	krank	1	blank2r.bmp	0	1	+	0	1	blank2r.bmp	500	1	CPLW	500	1	blank2r.bmp	880	3	verbissen	880	1	!	1233	1	!	-1	0	0	0	0	0	0
2024-05-15	10:48:04	10:54:56	411551	6.6.1	4_exp_EVA_AWA_CON	31	A	B	Rpleas_acq	Same	Rpleas	2pleas	acq_US_unple_nomask	acq45_nomask	4	35	400	1	300	300	0	0	365	46	1	0	anregung	träumen	vergnügt	sonnig	engagiert	vertrauen	ausrottung	töten	verbissen	sterben	engstirnig	versagen	besonnen	gütig	genießen	gesittet	kuss	kreativ	bange	gierig	gemein	geizig	krise	krank	1	blank2r.bmp	0	1	+	0	1	blank2r.bmp	500	1	CPLW	500	1	blank2r.bmp	880	4	sterben	880	1	!	1232	1	!	1267	0	0	0	0	0	0
2024-05-15	10:48:04	10:54:59	413813	6.6.1	4_exp_EVA_AWA_CON	31	A	B	Rpleas_acq	Same	Rpleas	2pleas	acq_US_unple_nomask	acq45_nomask	4	36	400	0	300	300	0	0	488	46	1	0	anregung	träumen	vergnügt	sonnig	engagiert	vertrauen	ausrottung	töten	verbissen	sterben	engstirnig	versagen	besonnen	gütig	genießen	gesittet	kuss	kreativ	bange	gierig	gemein	geizig	krise	krank	1	blank2r.bmp	0	1	+	0	1	blank2r.bmp	500	1	CPLW	500	1	blank2r.bmp	880	6	versagen	880	1	!	1232	1	!	-1	0	0	0	0	0	0
2024-05-15	10:48:04	10:55:09	424181	6.6.1	4_exp_EVA_AWA_CON	31	A	B	Rpleas_acq	Same	Rpleas	2pleas	acq_US_pleas_nomask	acq45_nomask	5	1	400	0	300	300	0	0	539	50	1	0	anregung	träumen	vergnügt	sonnig	engagiert	vertrauen	ausrottung	töten	verbissen	sterben	engstirnig	versagen	besonnen	gütig	genießen	gesittet	kuss	kreativ	bange	gierig	gemein	geizig	krise	krank	1	blank2r.bmp	0	1	+	0	1	blank2r.bmp	500	1	DHJF	500	1	blank2r.bmp	880	3	vergnügt	880	1	!	1232	1	!	-1	0	0	0	0	0	0
2024-05-15	10:48:04	10:55:11	426485	6.6.1	4_exp_EVA_AWA_CON	31	A	B	Rpleas_acq	Same	Rpleas	2pleas	acq_US_unple_nomask	acq45_nomask	5	2	400	0	300	300	0	0	531	46	1	0	anregung	träumen	vergnügt	sonnig	engagiert	vertrauen	ausrottung	töten	verbissen	sterben	engstirnig	versagen	besonnen	gütig	genießen	gesittet	kuss	kreativ	bange	gierig	gemein	geizig	krise	krank	1	blank2r.bmp	0	1	+	0	1	blank2r.bmp	500	1	CPLW	500	1	blank2r.bmp	880	3	verbissen	880	1	!	1232	1	!	-1	0	0	0	0	0	0
2024-05-15	10:48:04	10:55:14	428806	6.6.1	4_exp_EVA_AWA_CON	31	A	B	Rpleas_acq	Same	Rpleas	2pleas	acq_US_unple_nomask	acq45_nomask	5	3	400	0	300	300	0	0	540	46	1	0	anregung	träumen	vergnügt	sonnig	engagiert	vertrauen	ausrottung	töten	verbissen	sterben	engstirnig	versagen	besonnen	gütig	genießen	gesittet	kuss	kreativ	bange	gierig	gemein	geizig	krise	krank	1	blank2r.bmp	0	1	+	0	1	blank2r.bmp	500	1	CPLW	500	1	blank2r.bmp	880	6	versagen	880	1	!	1233	1	!	-1	0	0	0	0	0	0
2024-05-15	10:48:04	10:55:16	431277	6.6.1	4_exp_EVA_AWA_CON	31	A	B	Rpleas_acq	Same	Rpleas	2pleas	acq_US_unple_nomask	acq45_nomask	5	4	400	0	300	300	0	0	691	46	1	0	anregung	träumen	vergnügt	sonnig	engagiert	vertrauen	ausrottung	töten	verbissen	sterben	engstirnig	versagen	besonnen	gütig	genießen	gesittet	kuss	kreativ	bange	gierig	gemein	geizig	krise	krank	1	blank2r.bmp	0	1	+	0	1	blank2r.bmp	500	1	CPLW	500	1	blank2r.bmp	880	1	ausrottung	880	1	!	1233	1	!	-1	0	0	0	0	0	0
2024-05-15	10:48:04	10:55:20	435157	6.6.1	4_exp_EVA_AWA_CON	31	A	B	Rpleas_acq	Same	Rpleas	2pleas	acq_US_unple_nomask	acq45_nomask	5	5	400	0	300	300	0	0	2099	46	1	0	anregung	träumen	vergnügt	sonnig	engagiert	vertrauen	ausrottung	töten	verbissen	sterben	engstirnig	versagen	besonnen	gütig	genießen	gesittet	kuss	kreativ	bange	gierig	gemein	geizig	krise	krank	1	blank2r.bmp	0	1	+	0	1	blank2r.bmp	500	1	CPLW	500	1	blank2r.bmp	880	4	sterben	880	1	!	1233	1	!	-1	0	0	0	0	0	0
2024-05-15	10:48:04	10:55:23	437597	6.6.1	4_exp_EVA_AWA_CON	31	A	B	Rpleas_acq	Same	Rpleas	2pleas	acq_US_pleas_nomask	acq45_nomask	5	6	400	0	300	300	0	0	667	46	0	0	anregung	träumen	vergnügt	sonnig	engagiert	vertrauen	ausrottung	töten	verbissen	sterben	engstirnig	versagen	besonnen	gütig	genießen	gesittet	kuss	kreativ	bange	gierig	gemein	geizig	krise	krank	1	blank2r.bmp	0	1	+	0	1	blank2r.bmp	500	1	DHJF	500	1	blank2r.bmp	880	4	sonnig	880	1	!	1233	1	!	-1	0	0	0	0	0	0
2024-05-15	10:48:04	10:55:25	439851	6.6.1	4_exp_EVA_AWA_CON	31	A	B	Rpleas_acq	Same	Rpleas	2pleas	acq_US_pleas_nomask	acq45_nomask	5	7	400	0	300	300	0	0	481	50	1	0	anregung	träumen	vergnügt	sonnig	engagiert	vertrauen	ausrottung	töten	verbissen	sterben	engstirnig	versagen	besonnen	gütig	genießen	gesittet	kuss	kreativ	bange	gierig	gemein	geizig	krise	krank	1	blank2r.bmp	0	1	+	0	1	blank2r.bmp	500	1	DHJF	500	1	blank2r.bmp	880	5	engagiert	880	1	!	1232	1	!	-1	0	0	0	0	0	0
2024-05-15	10:48:04	10:55:27	442087	6.6.1	4_exp_EVA_AWA_CON	31	A	B	Rpleas_acq	Same	Rpleas	2pleas	acq_US_unple_nomask	acq45_nomask	5	8	400	1	300	300	0	0	452	46	1	0	anregung	träumen	vergnügt	sonnig	engagiert	vertrauen	ausrottung	töten	verbissen	sterben	engstirnig	versagen	besonnen	gütig	genießen	gesittet	kuss	kreativ	bange	gierig	gemein	geizig	krise	krank	1	blank2r.bmp	0	1	+	0	1	blank2r.bmp	500	1	CPLW	500	1	blank2r.bmp	880	2	töten	880	1	!	1233	1	!	1353	0	0	0	0	0	0
2024-05-15	10:48:04	10:55:29	444446	6.6.1	4_exp_EVA_AWA_CON	31	A	B	Rpleas_acq	Same	Rpleas	2pleas	acq_US_unple_nomask	acq45_nomask	5	9	400	0	300	300	0	0	580	46	1	0	anregung	träumen	vergnügt	sonnig	engagiert	vertrauen	ausrottung	töten	verbissen	sterben	engstirnig	versagen	besonnen	gütig	genießen	gesittet	kuss	kreativ	bange	gierig	gemein	geizig	krise	krank	1	blank2r.bmp	0	1	+	0	1	blank2r.bmp	500	1	CPLW	500	1	blank2r.bmp	880	5	engstirnig	880	1	!	1233	1	!	-1	0	0	0	0	0	0
2024-05-15	10:48:04	10:55:32	446655	6.6.1	4_exp_EVA_AWA_CON	31	A	B	Rpleas_acq	Same	Rpleas	2pleas	acq_US_unple_nomask	acq45_nomask	5	10	400	1	300	300	0	0	427	46	1	0	anregung	träumen	vergnügt	sonnig	engagiert	vertrauen	ausrottung	töten	verbissen	sterben	engstirnig	versagen	besonnen	gütig	genießen	gesittet	kuss	kreativ	bange	gierig	gemein	geizig	krise	krank	1	blank2r.bmp	0	1	+	0	1	blank2r.bmp	500	1	CPLW	500	1	blank2r.bmp	880	6	versagen	880	1	!	1233	1	!	1328	0	0	0	0	0	0
2024-05-15	10:48:04	10:55:34	448925	6.6.1	4_exp_EVA_AWA_CON	31	A	B	Rpleas_acq	Same	Rpleas	2pleas	acq_US_pleas_nomask	acq45_nomask	5	11	400	0	300	300	0	0	497	50	1	0	anregung	träumen	vergnügt	sonnig	engagiert	vertrauen	ausrottung	töten	verbissen	sterben	engstirnig	versagen	besonnen	gütig	genießen	gesittet	kuss	kreativ	bange	gierig	gemein	geizig	krise	krank	1	blank2r.bmp	0	1	+	0	1	blank2r.bmp	500	1	DHJF	500	1	blank2r.bmp	880	1	anregung	880	1	!	1233	1	!	-1	0	0	0	0	0	0
2024-05-15	10:48:04	10:55:36	451063	6.6.1	4_exp_EVA_AWA_CON	31	A	B	Rpleas_acq	Same	Rpleas	2pleas	acq_US_pleas_nomask	acq45_nomask	5	12	400	1	300	300	0	0	362	50	1	0	anregung	träumen	vergnügt	sonnig	engagiert	vertrauen	ausrottung	töten	verbissen	sterben	engstirnig	versagen	besonnen	gütig	genießen	gesittet	kuss	kreativ	bange	gierig	gemein	geizig	krise	krank	1	blank2r.bmp	0	1	+	0	1	blank2r.bmp	500	1	DHJF	500	1	blank2r.bmp	880	6	vertrauen	880	1	!	1233	1	!	1263	0	0	0	0	0	0
2024-05-15	10:48:04	10:55:38	453199	6.6.1	4_exp_EVA_AWA_CON	31	A	B	Rpleas_acq	Same	Rpleas	2pleas	acq_US_pleas_nomask	acq45_nomask	5	13	400	1	300	300	0	0	356	50	1	0	anregung	träumen	vergnügt	sonnig	engagiert	vertrauen	ausrottung	töten	verbissen	sterben	engstirnig	versagen	besonnen	gütig	genießen	gesittet	kuss	kreativ	bange	gierig	gemein	geizig	krise	krank	1	blank2r.bmp	0	1	+	0	1	blank2r.bmp	500	1	DHJF	500	1	blank2r.bmp	880	2	träumen	880	1	!	1232	1	!	1258	0	0	0	0	0	0
2024-05-15	10:48:04	10:55:40	455451	6.6.1	4_exp_EVA_AWA_CON	31	A	B	Rpleas_acq	Same	Rpleas	2pleas	acq_US_pleas_nomask	acq45_nomask	5	14	400	0	300	300	0	0	481	50	1	0	anregung	träumen	vergnügt	sonnig	engagiert	vertrauen	ausrottung	töten	verbissen	sterben	engstirnig	versagen	besonnen	gütig	genießen	gesittet	kuss	kreativ	bange	gierig	gemein	geizig	krise	krank	1	blank2r.bmp	0	1	+	0	1	blank2r.bmp	500	1	DHJF	500	1	blank2r.bmp	880	1	anregung	880	1	!	1233	1	!	-1	0	0	0	0	0	0
2024-05-15	10:48:04	10:55:43	457699	6.6.1	4_exp_EVA_AWA_CON	31	A	B	Rpleas_acq	Same	Rpleas	2pleas	acq_US_unple_nomask	acq45_nomask	5	15	400	0	300	300	0	0	477	46	1	0	anregung	träumen	vergnügt	sonnig	engagiert	vertrauen	ausrottung	töten	verbissen	sterben	engstirnig	versagen	besonnen	gütig	genießen	gesittet	kuss	kreativ	bange	gierig	gemein	geizig	krise	krank	1	blank2r.bmp	0	1	+	0	1	blank2r.bmp	500	1	CPLW	500	1	blank2r.bmp	880	4	sterben	880	1	!	1232	1	!	-1	0	0	0	0	0	0
2024-05-15	10:48:04	10:55:45	459823	6.6.1	4_exp_EVA_AWA_CON	31	A	B	Rpleas_acq	Same	Rpleas	2pleas	acq_US_pleas_nomask	acq45_nomask	5	16	400	1	300	300	0	0	346	50	1	0	anregung	träumen	vergnügt	sonnig	engagiert	vertrauen	ausrottung	töten	verbissen	sterben	engstirnig	versagen	besonnen	gütig	genießen	gesittet	kuss	kreativ	bange	gierig	gemein	geizig	krise	krank	1	blank2r.bmp	0	1	+	0	1	blank2r.bmp	500	1	DHJF	500	1	blank2r.bmp	880	6	vertrauen	880	1	!	1233	1	!	1248	0	0	0	0	0	0
2024-05-15	10:48:04	10:55:47	462157	6.6.1	4_exp_EVA_AWA_CON	31	A	B	Rpleas_acq	Same	Rpleas	2pleas	acq_US_unple_nomask	acq45_nomask	5	17	400	0	300	300	0	0	561	46	1	0	anregung	träumen	vergnügt	sonnig	engagiert	vertrauen	ausrottung	töten	verbissen	sterben	engstirnig	versagen	besonnen	gütig	genießen	gesittet	kuss	kreativ	bange	gierig	gemein	geizig	krise	krank	1	blank2r.bmp	0	1	+	0	1	blank2r.bmp	500	1	CPLW	500	1	blank2r.bmp	880	1	ausrottung	880	1	!	1233	1	!	-1	0	0	0	0	0	0
2024-05-15	10:48:04	10:55:49	464287	6.6.1	4_exp_EVA_AWA_CON	31	A	B	Rpleas_acq	Same	Rpleas	2pleas	acq_US_pleas_nomask	acq45_nomask	5	18	400	1	300	300	0	0	347	46	0	0	anregung	träumen	vergnügt	sonnig	engagiert	vertrauen	ausrottung	töten	verbissen	sterben	engstirnig	versagen	besonnen	gütig	genießen	gesittet	kuss	kreativ	bange	gierig	gemein	geizig	krise	krank	1	blank2r.bmp	0	1	+	0	1	blank2r.bmp	500	1	DHJF	500	1	blank2r.bmp	880	2	träumen	880	1	!	1232	1	!	1249	0	0	0	0	0	0
2024-05-15	10:48:04	10:55:51	466557	6.6.1	4_exp_EVA_AWA_CON	31	A	B	Rpleas_acq	Same	Rpleas	2pleas	acq_US_pleas_nomask	acq45_nomask	5	19	400	0	300	300	0	0	488	46	0	0	anregung	träumen	vergnügt	sonnig	engagiert	vertrauen	ausrottung	töten	verbissen	sterben	engstirnig	versagen	besonnen	gütig	genießen	gesittet	kuss	kreativ	bange	gierig	gemein	geizig	krise	krank	1	blank2r.bmp	0	1	+	0	1	blank2r.bmp	500	1	DHJF	500	1	blank2r.bmp	880	5	engagiert	880	1	!	1233	1	!	-1	0	0	0	0	0	0
2024-05-15	10:48:04	10:55:54	468957	6.6.1	4_exp_EVA_AWA_CON	31	A	B	Rpleas_acq	Same	Rpleas	2pleas	acq_US_unple_nomask	acq45_nomask	5	20	400	0	300	300	0	0	626	46	1	0	anregung	träumen	vergnügt	sonnig	engagiert	vertrauen	ausrottung	töten	verbissen	sterben	engstirnig	versagen	besonnen	gütig	genießen	gesittet	kuss	kreativ	bange	gierig	gemein	geizig	krise	krank	1	blank2r.bmp	0	1	+	0	1	blank2r.bmp	500	1	CPLW	500	1	blank2r.bmp	880	5	engstirnig	880	1	!	1233	1	!	-1	0	0	0	0	0	0
2024-05-15	10:48:04	10:55:56	471204	6.6.1	4_exp_EVA_AWA_CON	31	A	B	Rpleas_acq	Same	Rpleas	2pleas	acq_US_pleas_nomask	acq45_nomask	5	21	400	0	300	300	0	0	474	50	1	0	anregung	träumen	vergnügt	sonnig	engagiert	vertrauen	ausrottung	töten	verbissen	sterben	engstirnig	versagen	besonnen	gütig	genießen	gesittet	kuss	kreativ	bange	gierig	gemein	geizig	krise	krank	1	blank2r.bmp	0	1	+	0	1	blank2r.bmp	500	1	DHJF	500	1	blank2r.bmp	880	4	sonnig	880	1	!	1233	1	!	-1	0	0	0	0	0	0
2024-05-15	10:48:04	10:55:58	473456	6.6.1	4_exp_EVA_AWA_CON	31	A	B	Rpleas_acq	Same	Rpleas	2pleas	acq_US_pleas_nomask	acq45_nomask	5	22	400	1	300	300	0	0	469	50	1	0	anregung	träumen	vergnügt	sonnig	engagiert	vertrauen	ausrottung	töten	verbissen	sterben	engstirnig	versagen	besonnen	gütig	genießen	gesittet	kuss	kreativ	bange	gierig	gemein	geizig	krise	krank	1	blank2r.bmp	0	1	+	0	1	blank2r.bmp	500	1	DHJF	500	1	blank2r.bmp	880	3	vergnügt	880	1	!	1233	1	!	1372	0	0	0	0	0	0
2024-05-15	10:48:04	10:56:01	475631	6.6.1	4_exp_EVA_AWA_CON	31	A	B	Rpleas_acq	Same	Rpleas	2pleas	acq_US_pleas_nomask	acq45_nomask	5	23	400	1	300	300	0	0	394	50	1	0	anregung	träumen	vergnügt	sonnig	engagiert	vertrauen	ausrottung	töten	verbissen	sterben	engstirnig	versagen	besonnen	gütig	genießen	gesittet	kuss	kreativ	bange	gierig	gemein	geizig	krise	krank	1	blank2r.bmp	0	1	+	0	1	blank2r.bmp	500	1	DHJF	500	1	blank2r.bmp	880	4	sonnig	880	1	!	1233	1	!	1296	0	0	0	0	0	0
2024-05-15	10:48:04	10:56:03	477893	6.6.1	4_exp_EVA_AWA_CON	31	A	B	Rpleas_acq	Same	Rpleas	2pleas	acq_US_unple_nomask	acq45_nomask	5	24	400	0	300	300	0	0	487	46	1	0	anregung	träumen	vergnügt	sonnig	engagiert	vertrauen	ausrottung	töten	verbissen	sterben	engstirnig	versagen	besonnen	gütig	genießen	gesittet	kuss	kreativ	bange	gierig	gemein	geizig	krise	krank	1	blank2r.bmp	0	1	+	0	1	blank2r.bmp	500	1	CPLW	500	1	blank2r.bmp	880	3	verbissen	880	1	!	1233	1	!	-1	0	0	0	0	0	0
2024-05-15	10:48:04	10:56:05	480063	6.6.1	4_exp_EVA_AWA_CON	31	A	B	Rpleas_acq	Same	Rpleas	2pleas	acq_US_unple_nomask	acq45_nomask	5	25	400	1	300	300	0	0	393	46	1	0	anregung	träumen	vergnügt	sonnig	engagiert	vertrauen	ausrottung	töten	verbissen	sterben	engstirnig	versagen	besonnen	gütig	genießen	gesittet	kuss	kreativ	bange	gierig	gemein	geizig	krise	krank	1	blank2r.bmp	0	1	+	0	1	blank2r.bmp	500	1	CPLW	500	1	blank2r.bmp	880	2	töten	880	1	!	1233	1	!	1295	0	0	0	0	0	0
2024-05-15	10:48:04	10:56:07	482263	6.6.1	4_exp_EVA_AWA_CON	31	A	B	Rpleas_acq	Same	Rpleas	2pleas	acq_US_pleas_nomask	acq45_nomask	5	26	400	1	300	300	0	0	422	46	0	0	anregung	träumen	vergnügt	sonnig	engagiert	vertrauen	ausrottung	töten	verbissen	sterben	engstirnig	versagen	besonnen	gütig	genießen	gesittet	kuss	kreativ	bange	gierig	gemein	geizig	krise	krank	1	blank2r.bmp	0	1	+	0	1	blank2r.bmp	500	1	DHJF	500	1	blank2r.bmp	880	1	anregung	880	1	!	1233	1	!	1323	0	0	0	0	0	0
2024-05-15	10:48:04	10:56:09	484365	6.6.1	4_exp_EVA_AWA_CON	31	A	B	Rpleas_acq	Same	Rpleas	2pleas	acq_US_unple_nomask	acq45_nomask	5	27	400	0	300	300	0	0	324	50	0	0	anregung	träumen	vergnügt	sonnig	engagiert	vertrauen	ausrottung	töten	verbissen	sterben	engstirnig	versagen	besonnen	gütig	genießen	gesittet	kuss	kreativ	bange	gierig	gemein	geizig	krise	krank	1	blank2r.bmp	0	1	+	0	1	blank2r.bmp	500	1	CPLW	500	1	blank2r.bmp	880	4	sterben	880	1	!	-1	1	!	-1	0	0	0	0	0	0
2024-05-15	10:48:04	10:56:12	486701	6.6.1	4_exp_EVA_AWA_CON	31	A	B	Rpleas_acq	Same	Rpleas	2pleas	acq_US_unple_nomask	acq45_nomask	5	28	400	0	300	300	0	0	559	46	1	0	anregung	träumen	vergnügt	sonnig	engagiert	vertrauen	ausrottung	töten	verbissen	sterben	engstirnig	versagen	besonnen	gütig	genießen	gesittet	kuss	kreativ	bange	gierig	gemein	geizig	krise	krank	1	blank2r.bmp	0	1	+	0	1	blank2r.bmp	500	1	CPLW	500	1	blank2r.bmp	880	6	versagen	880	1	!	1232	1	!	-1	0	0	0	0	0	0
2024-05-15	10:48:04	10:56:14	488805	6.6.1	4_exp_EVA_AWA_CON	31	A	B	Rpleas_acq	Same	Rpleas	2pleas	acq_US_pleas_nomask	acq45_nomask	5	29	400	0	300	300	0	0	322	46	0	0	anregung	träumen	vergnügt	sonnig	engagiert	vertrauen	ausrottung	töten	verbissen	sterben	engstirnig	versagen	besonnen	gütig	genießen	gesittet	kuss	kreativ	bange	gierig	gemein	geizig	krise	krank	1	blank2r.bmp	0	1	+	0	1	blank2r.bmp	500	1	DHJF	500	1	blank2r.bmp	880	2	träumen	880	1	!	-1	1	!	-1	0	0	0	0	0	0
2024-05-15	10:48:04	10:56:16	491047	6.6.1	4_exp_EVA_AWA_CON	31	A	B	Rpleas_acq	Same	Rpleas	2pleas	acq_US_pleas_nomask	acq45_nomask	5	30	400	1	300	300	0	0	460	50	1	0	anregung	träumen	vergnügt	sonnig	engagiert	vertrauen	ausrottung	töten	verbissen	sterben	engstirnig	versagen	besonnen	gütig	genießen	gesittet	kuss	kreativ	bange	gierig	gemein	geizig	krise	krank	1	blank2r.bmp	0	1	+	0	1	blank2r.bmp	500	1	DHJF	500	1	blank2r.bmp	880	6	vertrauen	880	1	!	1233	1	!	1362	0	0	0	0	0	0
2024-05-15	10:48:04	10:56:18	493397	6.6.1	4_exp_EVA_AWA_CON	31	A	B	Rpleas_acq	Same	Rpleas	2pleas	acq_US_unple_nomask	acq45_nomask	5	31	400	0	300	300	0	0	571	50	0	0	anregung	träumen	vergnügt	sonnig	engagiert	vertrauen	ausrottung	töten	verbissen	sterben	engstirnig	versagen	besonnen	gütig	genießen	gesittet	kuss	kreativ	bange	gierig	gemein	geizig	krise	krank	1	blank2r.bmp	0	1	+	0	1	blank2r.bmp	500	1	CPLW	500	1	blank2r.bmp	880	5	engstirnig	880	1	!	1232	1	!	-1	0	0	0	0	0	0
2024-05-15	10:48:04	10:56:20	495511	6.6.1	4_exp_EVA_AWA_CON	31	A	B	Rpleas_acq	Same	Rpleas	2pleas	acq_US_unple_nomask	acq45_nomask	5	32	400	1	300	300	0	0	333	50	0	0	anregung	träumen	vergnügt	sonnig	engagiert	vertrauen	ausrottung	töten	verbissen	sterben	engstirnig	versagen	besonnen	gütig	genießen	gesittet	kuss	kreativ	bange	gierig	gemein	geizig	krise	krank	1	blank2r.bmp	0	1	+	0	1	blank2r.bmp	500	1	CPLW	500	1	blank2r.bmp	880	2	töten	880	1	!	1233	1	!	1233	0	0	0	0	0	0
2024-05-15	10:48:04	10:56:23	497695	6.6.1	4_exp_EVA_AWA_CON	31	A	B	Rpleas_acq	Same	Rpleas	2pleas	acq_US_unple_nomask	acq45_nomask	5	33	400	1	300	300	0	0	404	46	1	0	anregung	träumen	vergnügt	sonnig	engagiert	vertrauen	ausrottung	töten	verbissen	sterben	engstirnig	versagen	besonnen	gütig	genießen	gesittet	kuss	kreativ	bange	gierig	gemein	geizig	krise	krank	1	blank2r.bmp	0	1	+	0	1	blank2r.bmp	500	1	CPLW	500	1	blank2r.bmp	880	1	ausrottung	880	1	!	1233	1	!	1306	0	0	0	0	0	0
2024-05-15	10:48:04	10:56:25	499725	6.6.1	4_exp_EVA_AWA_CON	31	A	B	Rpleas_acq	Same	Rpleas	2pleas	acq_US_pleas_nomask	acq45_nomask	5	34	400	0	300	300	0	0	254	46	0	0	anregung	träumen	vergnügt	sonnig	engagiert	vertrauen	ausrottung	töten	verbissen	sterben	engstirnig	versagen	besonnen	gütig	genießen	gesittet	kuss	kreativ	bange	gierig	gemein	geizig	krise	krank	1	blank2r.bmp	0	1	+	0	1	blank2r.bmp	500	1	DHJF	500	1	blank2r.bmp	880	3	vergnügt	880	1	!	-1	1	!	-1	0	0	0	0	0	0
2024-05-15	10:48:04	10:56:27	501822	6.6.1	4_exp_EVA_AWA_CON	31	A	B	Rpleas_acq	Same	Rpleas	2pleas	acq_US_unple_nomask	acq45_nomask	5	35	400	0	300	300	0	0	319	50	0	0	anregung	träumen	vergnügt	sonnig	engagiert	vertrauen	ausrottung	töten	verbissen	sterben	engstirnig	versagen	besonnen	gütig	genießen	gesittet	kuss	kreativ	bange	gierig	gemein	geizig	krise	krank	1	blank2r.bmp	0	1	+	0	1	blank2r.bmp	500	1	CPLW	500	1	blank2r.bmp	880	3	verbissen	880	1	!	-1	1	!	-1	0	0	0	0	0	0
2024-05-15	10:48:04	10:56:29	504075	6.6.1	4_exp_EVA_AWA_CON	31	A	B	Rpleas_acq	Same	Rpleas	2pleas	acq_US_pleas_nomask	acq45_nomask	5	36	400	0	300	300	0	0	474	50	1	0	anregung	träumen	vergnügt	sonnig	engagiert	vertrauen	ausrottung	töten	verbissen	sterben	engstirnig	versagen	besonnen	gütig	genießen	gesittet	kuss	kreativ	bange	gierig	gemein	geizig	krise	krank	1	blank2r.bmp	0	1	+	0	1	blank2r.bmp	500	1	DHJF	500	1	blank2r.bmp	880	5	engagiert	880	1	!	1232	1	!	-1	0	0	0	0	0	0
2024-05-15	10:48:04	10:57:07	542108	6.6.1	4_exp_EVA_AWA_CON	31	A	B	Rpleas_acq	Same	Rpleas	2pleas	EvalRating_firsttwo	EvalRating_firsttwo	6	1	0	0	300	300	0	0	25921	line	0	-75,2604166666666571928pct	anregung	träumen	vergnügt	sonnig	engagiert	vertrauen	ausrottung	töten	verbissen	sterben	engstirnig	versagen	besonnen	gütig	genießen	gesittet	kuss	kreativ	bange	gierig	gemein	geizig	krise	krank	1		-8	1	Wie angenehm oder unangenehm finden Sie die  Buchstabenkette WDLH?	-8	1		-8	1		-8	1		-8	1	Unangenehm	-8	1	Angenehm	-8	0	0	0	0	0	0	0	0	0
2024-05-15	10:48:04	10:57:12	547427	6.6.1	4_exp_EVA_AWA_CON	31	A	B	Rpleas_acq	Same	Rpleas	2pleas	EvalRating_lastfour	EvalRating_lastfour	7	1	0	0	300	300	0	0	2967	line	0	54,5572916666666856145pct	anregung	träumen	vergnügt	sonnig	engagiert	vertrauen	ausrottung	töten	verbissen	sterben	engstirnig	versagen	besonnen	gütig	genießen	gesittet	kuss	kreativ	bange	gierig	gemein	geizig	krise	krank	1		-8	1	Wie angenehm oder unangenehm finden Sie die  Buchstabenkette CPLW?	-8	1		-8	1		-8	1		-8	1	Unangenehm	-8	1	Angenehm	-8	0	0	0	0	0	0	0	0	0
2024-05-15	10:48:04	10:57:15	549794	6.6.1	4_exp_EVA_AWA_CON	31	A	B	Rpleas_acq	Same	Rpleas	2pleas	blank_screen	EvalRating_lastfour	7	3	0	0	300	300	0	0	0	0	0	54,5572916666666856145pct	anregung	träumen	vergnügt	sonnig	engagiert	vertrauen	ausrottung	töten	verbissen	sterben	engstirnig	versagen	besonnen	gütig	genießen	gesittet	kuss	kreativ	bange	gierig	gemein	geizig	krise	krank	1		-8	0	0	0	0	0	0	0	0	0	0	0	0	0	0	0	0	0	0	0	0	0	0	0	0	0	0	0
2024-05-15	10:48:04	10:57:19	553761	6.6.1	4_exp_EVA_AWA_CON	31	A	B	Rpleas_acq	Same	Rpleas	2pleas	EvalRating_lastfour	EvalRating_lastfour	7	4	0	0	300	300	0	0	3379	line	0	-73,9583333333333285964pct	anregung	träumen	vergnügt	sonnig	engagiert	vertrauen	ausrottung	töten	verbissen	sterben	engstirnig	versagen	besonnen	gütig	genießen	gesittet	kuss	kreativ	bange	gierig	gemein	geizig	krise	krank	1		-8	3	Wie angenehm oder unangenehm finden Sie die  Buchstabenkette FCJP?	-8	1		-8	1		-8	1		-8	1	Unangenehm	-8	1	Angenehm	-8	0	0	0	0	0	0	0	0	0
2024-05-15	10:48:04	10:57:21	556128	6.6.1	4_exp_EVA_AWA_CON	31	A	B	Rpleas_acq	Same	Rpleas	2pleas	blank_screen	EvalRating_lastfour	7	6	0	0	300	300	0	0	0	0	0	-73,9583333333333285964pct	anregung	träumen	vergnügt	sonnig	engagiert	vertrauen	ausrottung	töten	verbissen	sterben	engstirnig	versagen	besonnen	gütig	genießen	gesittet	kuss	kreativ	bange	gierig	gemein	geizig	krise	krank	1		-8	0	0	0	0	0	0	0	0	0	0	0	0	0	0	0	0	0	0	0	0	0	0	0	0	0	0	0
2024-05-15	10:48:04	10:57:24	558874	6.6.1	4_exp_EVA_AWA_CON	31	A	B	Rpleas_acq	Same	Rpleas	2pleas	EvalRating_lastfour	EvalRating_lastfour	7	7	0	0	300	300	0	0	2158	line	0	-42,4479166666666642982pct	anregung	träumen	vergnügt	sonnig	engagiert	vertrauen	ausrottung	töten	verbissen	sterben	engstirnig	versagen	besonnen	gütig	genießen	gesittet	kuss	kreativ	bange	gierig	gemein	geizig	krise	krank	1		-8	2	Wie angenehm oder unangenehm finden Sie die  Buchstabenkette DHJF?	-8	1		-8	1		-8	1		-8	1	Unangenehm	-8	1	Angenehm	-8	0	0	0	0	0	0	0	0	0
2024-05-15	10:48:04	10:57:54	588647	6.6.1	4_exp_EVA_AWA_CON	31	A	B	Rpleas_acq	Same	Rpleas	2pleas	conawa_CS2_US2	conawa1_nomask	8	1	0	0	300	300	0	0	9483	töten	1	-42,4479166666666642982pct	anregung	träumen	vergnügt	sonnig	engagiert	vertrauen	ausrottung	töten	verbissen	sterben	engstirnig	versagen	besonnen	gütig	genießen	gesittet	kuss	kreativ	bange	gierig	gemein	geizig	krise	krank	0	0	0	0	0	0	0	0	0	0	0	0	0	0	0	0	0	0	0	0	0	0	0	0	0	0	0	0	0	0
2024-05-15	10:48:04	10:57:54	588649	6.6.1	4_exp_EVA_AWA_CON	31	A	B	Rpleas_acq	Same	Rpleas	2pleas	conawa_CS2_US2_confidence	conawa1_nomask	8	1	0	0	300	300	0	0	9483	sure	1	-42,4479166666666642982pct	anregung	träumen	vergnügt	sonnig	engagiert	vertrauen	ausrottung	töten	verbissen	sterben	engstirnig	versagen	besonnen	gütig	genießen	gesittet	kuss	kreativ	bange	gierig	gemein	geizig	krise	krank	0	0	0	0	0	0	0	0	0	0	0	0	0	0	0	0	0	0	0	0	0	0	0	0	0	0	0	0	0	0
2024-05-15	10:48:04	10:58:02	597543	6.6.1	4_exp_EVA_AWA_CON	31	A	B	Rpleas_acq	Same	Rpleas	2pleas	conawa_CS1_US1	conawa1_nomask	8	2	0	0	300	300	0	0	8216	anregung	1	-42,4479166666666642982pct	anregung	träumen	vergnügt	sonnig	engagiert	vertrauen	ausrottung	töten	verbissen	sterben	engstirnig	versagen	besonnen	gütig	genießen	gesittet	kuss	kreativ	bange	gierig	gemein	geizig	krise	krank	0	0	0	0	0	0	0	0	0	0	0	0	0	0	0	0	0	0	0	0	0	0	0	0	0	0	0	0	0	0
2024-05-15	10:48:04	10:58:02	597545	6.6.1	4_exp_EVA_AWA_CON	31	A	B	Rpleas_acq	Same	Rpleas	2pleas	conawa_CS1_US1_confidence	conawa1_nomask	8	2	0	0	300	300	0	0	8216	probably	1	-42,4479166666666642982pct	anregung	träumen	vergnügt	sonnig	engagiert	vertrauen	ausrottung	töten	verbissen	sterben	engstirnig	versagen	besonnen	gütig	genießen	gesittet	kuss	kreativ	bange	gierig	gemein	geizig	krise	krank	0	0	0	0	0	0	0	0	0	0	0	0	0	0	0	0	0	0	0	0	0	0	0	0	0	0	0	0	0	0
2024-05-15	10:48:04	10:58:09	603997	6.6.1	4_exp_EVA_AWA_CON	31	A	B	Rpleas_acq	Same	Rpleas	2pleas	conawa_CS2_US5	conawa1_nomask	8	3	0	0	300	300	0	0	5834	engagiert	1	-42,4479166666666642982pct	anregung	träumen	vergnügt	sonnig	engagiert	vertrauen	ausrottung	töten	verbissen	sterben	engstirnig	versagen	besonnen	gütig	genießen	gesittet	kuss	kreativ	bange	gierig	gemein	geizig	krise	krank	0	0	0	0	0	0	0	0	0	0	0	0	0	0	0	0	0	0	0	0	0	0	0	0	0	0	0	0	0	0
2024-05-15	10:48:04	10:58:09	603999	6.6.1	4_exp_EVA_AWA_CON	31	A	B	Rpleas_acq	Same	Rpleas	2pleas	conawa_CS2_US5_confidence	conawa1_nomask	8	3	0	0	300	300	0	0	5834	probably	1	-42,4479166666666642982pct	anregung	träumen	vergnügt	sonnig	engagiert	vertrauen	ausrottung	töten	verbissen	sterben	engstirnig	versagen	besonnen	gütig	genießen	gesittet	kuss	kreativ	bange	gierig	gemein	geizig	krise	krank	0	0	0	0	0	0	0	0	0	0	0	0	0	0	0	0	0	0	0	0	0	0	0	0	0	0	0	0	0	0
2024-05-15	10:48:04	10:58:15	610031	6.6.1	4_exp_EVA_AWA_CON	31	A	B	Rpleas_acq	Same	Rpleas	2pleas	conawa_CS2_US3	conawa1_nomask	8	4	0	0	300	300	0	0	5421	geizig	1	-42,4479166666666642982pct	anregung	träumen	vergnügt	sonnig	engagiert	vertrauen	ausrottung	töten	verbissen	sterben	engstirnig	versagen	besonnen	gütig	genießen	gesittet	kuss	kreativ	bange	gierig	gemein	geizig	krise	krank	0	0	0	0	0	0	0	0	0	0	0	0	0	0	0	0	0	0	0	0	0	0	0	0	0	0	0	0	0	0
2024-05-15	10:48:04	10:58:15	610032	6.6.1	4_exp_EVA_AWA_CON	31	A	B	Rpleas_acq	Same	Rpleas	2pleas	conawa_CS2_US3_confidence	conawa1_nomask	8	4	0	0	300	300	0	0	5421	probably	1	-42,4479166666666642982pct	anregung	träumen	vergnügt	sonnig	engagiert	vertrauen	ausrottung	töten	verbissen	sterben	engstirnig	versagen	besonnen	gütig	genießen	gesittet	kuss	kreativ	bange	gierig	gemein	geizig	krise	krank	0	0	0	0	0	0	0	0	0	0	0	0	0	0	0	0	0	0	0	0	0	0	0	0	0	0	0	0	0	0
2024-05-15	10:48:04	10:58:24	619268	6.6.1	4_exp_EVA_AWA_CON	31	A	B	Rpleas_acq	Same	Rpleas	2pleas	conawa_CS2_US4	conawa1_nomask	8	5	0	0	300	300	0	0	8622	sterben	1	-42,4479166666666642982pct	anregung	träumen	vergnügt	sonnig	engagiert	vertrauen	ausrottung	töten	verbissen	sterben	engstirnig	versagen	besonnen	gütig	genießen	gesittet	kuss	kreativ	bange	gierig	gemein	geizig	krise	krank	0	0	0	0	0	0	0	0	0	0	0	0	0	0	0	0	0	0	0	0	0	0	0	0	0	0	0	0	0	0
2024-05-15	10:48:04	10:58:24	619269	6.6.1	4_exp_EVA_AWA_CON	31	A	B	Rpleas_acq	Same	Rpleas	2pleas	conawa_CS2_US4_confidence	conawa1_nomask	8	5	0	0	300	300	0	0	8622	probably	1	-42,4479166666666642982pct	anregung	träumen	vergnügt	sonnig	engagiert	vertrauen	ausrottung	töten	verbissen	sterben	engstirnig	versagen	besonnen	gütig	genießen	gesittet	kuss	kreativ	bange	gierig	gemein	geizig	krise	krank	0	0	0	0	0	0	0	0	0	0	0	0	0	0	0	0	0	0	0	0	0	0	0	0	0	0	0	0	0	0
2024-05-15	10:48:04	10:58:30	625000	6.6.1	4_exp_EVA_AWA_CON	31	A	B	Rpleas_acq	Same	Rpleas	2pleas	conawa_CS2_US6	conawa1_nomask	8	6	0	0	300	300	0	0	5119	versagen	1	-42,4479166666666642982pct	anregung	träumen	vergnügt	sonnig	engagiert	vertrauen	ausrottung	töten	verbissen	sterben	engstirnig	versagen	besonnen	gütig	genießen	gesittet	kuss	kreativ	bange	gierig	gemein	geizig	krise	krank	0	0	0	0	0	0	0	0	0	0	0	0	0	0	0	0	0	0	0	0	0	0	0	0	0	0	0	0	0	0
2024-05-15	10:48:04	10:58:30	625002	6.6.1	4_exp_EVA_AWA_CON	31	A	B	Rpleas_acq	Same	Rpleas	2pleas	conawa_CS2_US6_confidence	conawa1_nomask	8	6	0	0	300	300	0	0	5119	probably	1	-42,4479166666666642982pct	anregung	träumen	vergnügt	sonnig	engagiert	vertrauen	ausrottung	töten	verbissen	sterben	engstirnig	versagen	besonnen	gütig	genießen	gesittet	kuss	kreativ	bange	gierig	gemein	geizig	krise	krank	0	0	0	0	0	0	0	0	0	0	0	0	0	0	0	0	0	0	0	0	0	0	0	0	0	0	0	0	0	0
2024-05-15	10:48:04	10:58:36	631355	6.6.1	4_exp_EVA_AWA_CON	31	A	B	Rpleas_acq	Same	Rpleas	2pleas	conawa_CS1_US3	conawa1_nomask	8	7	0	0	300	300	0	0	5739	genießen	1	-42,4479166666666642982pct	anregung	träumen	vergnügt	sonnig	engagiert	vertrauen	ausrottung	töten	verbissen	sterben	engstirnig	versagen	besonnen	gütig	genießen	gesittet	kuss	kreativ	bange	gierig	gemein	geizig	krise	krank	0	0	0	0	0	0	0	0	0	0	0	0	0	0	0	0	0	0	0	0	0	0	0	0	0	0	0	0	0	0
2024-05-15	10:48:04	10:58:36	631356	6.6.1	4_exp_EVA_AWA_CON	31	A	B	Rpleas_acq	Same	Rpleas	2pleas	conawa_CS1_US3_confidence	conawa1_nomask	8	7	0	0	300	300	0	0	5739	sure	1	-42,4479166666666642982pct	anregung	träumen	vergnügt	sonnig	engagiert	vertrauen	ausrottung	töten	verbissen	sterben	engstirnig	versagen	besonnen	gütig	genießen	gesittet	kuss	kreativ	bange	gierig	gemein	geizig	krise	krank	0	0	0	0	0	0	0	0	0	0	0	0	0	0	0	0	0	0	0	0	0	0	0	0	0	0	0	0	0	0
2024-05-15	10:48:04	10:58:41	635688	6.6.1	4_exp_EVA_AWA_CON	31	A	B	Rpleas_acq	Same	Rpleas	2pleas	conawa_CS1_US2	conawa1_nomask	8	8	0	0	300	300	0	0	3721	träumen	1	-42,4479166666666642982pct	anregung	träumen	vergnügt	sonnig	engagiert	vertrauen	ausrottung	töten	verbissen	sterben	engstirnig	versagen	besonnen	gütig	genießen	gesittet	kuss	kreativ	bange	gierig	gemein	geizig	krise	krank	0	0	0	0	0	0	0	0	0	0	0	0	0	0	0	0	0	0	0	0	0	0	0	0	0	0	0	0	0	0
2024-05-15	10:48:04	10:58:41	635689	6.6.1	4_exp_EVA_AWA_CON	31	A	B	Rpleas_acq	Same	Rpleas	2pleas	conawa_CS1_US2_confidence	conawa1_nomask	8	8	0	0	300	300	0	0	3721	sure	1	-42,4479166666666642982pct	anregung	träumen	vergnügt	sonnig	engagiert	vertrauen	ausrottung	töten	verbissen	sterben	engstirnig	versagen	besonnen	gütig	genießen	gesittet	kuss	kreativ	bange	gierig	gemein	geizig	krise	krank	0	0	0	0	0	0	0	0	0	0	0	0	0	0	0	0	0	0	0	0	0	0	0	0	0	0	0	0	0	0
2024-05-15	10:48:04	10:58:47	642172	6.6.1	4_exp_EVA_AWA_CON	31	A	B	Rpleas_acq	Same	Rpleas	2pleas	conawa_CS1_US4	conawa1_nomask	8	9	0	0	300	300	0	0	5867	sonnig	1	-42,4479166666666642982pct	anregung	träumen	vergnügt	sonnig	engagiert	vertrauen	ausrottung	töten	verbissen	sterben	engstirnig	versagen	besonnen	gütig	genießen	gesittet	kuss	kreativ	bange	gierig	gemein	geizig	krise	krank	0	0	0	0	0	0	0	0	0	0	0	0	0	0	0	0	0	0	0	0	0	0	0	0	0	0	0	0	0	0
2024-05-15	10:48:04	10:58:47	642173	6.6.1	4_exp_EVA_AWA_CON	31	A	B	Rpleas_acq	Same	Rpleas	2pleas	conawa_CS1_US4_confidence	conawa1_nomask	8	9	0	0	300	300	0	0	5867	probably	1	-42,4479166666666642982pct	anregung	träumen	vergnügt	sonnig	engagiert	vertrauen	ausrottung	töten	verbissen	sterben	engstirnig	versagen	besonnen	gütig	genießen	gesittet	kuss	kreativ	bange	gierig	gemein	geizig	krise	krank	0	0	0	0	0	0	0	0	0	0	0	0	0	0	0	0	0	0	0	0	0	0	0	0	0	0	0	0	0	0
2024-05-15	10:48:04	10:58:52	647405	6.6.1	4_exp_EVA_AWA_CON	31	A	B	Rpleas_acq	Same	Rpleas	2pleas	conawa_CS2_US1	conawa1_nomask	8	10	0	0	300	300	0	0	4616	gierig	1	-42,4479166666666642982pct	anregung	träumen	vergnügt	sonnig	engagiert	vertrauen	ausrottung	töten	verbissen	sterben	engstirnig	versagen	besonnen	gütig	genießen	gesittet	kuss	kreativ	bange	gierig	gemein	geizig	krise	krank	0	0	0	0	0	0	0	0	0	0	0	0	0	0	0	0	0	0	0	0	0	0	0	0	0	0	0	0	0	0
2024-05-15	10:48:04	10:58:52	647406	6.6.1	4_exp_EVA_AWA_CON	31	A	B	Rpleas_acq	Same	Rpleas	2pleas	conawa_CS2_US1_confidence	conawa1_nomask	8	10	0	0	300	300	0	0	4616	probably	1	-42,4479166666666642982pct	anregung	träumen	vergnügt	sonnig	engagiert	vertrauen	ausrottung	töten	verbissen	sterben	engstirnig	versagen	besonnen	gütig	genießen	gesittet	kuss	kreativ	bange	gierig	gemein	geizig	krise	krank	0	0	0	0	0	0	0	0	0	0	0	0	0	0	0	0	0	0	0	0	0	0	0	0	0	0	0	0	0	0
2024-05-15	10:48:04	10:58:58	652828	6.6.1	4_exp_EVA_AWA_CON	31	A	B	Rpleas_acq	Same	Rpleas	2pleas	conawa_CS1_US5	conawa1_nomask	8	11	0	0	300	300	0	0	4807	engagiert	1	-42,4479166666666642982pct	anregung	träumen	vergnügt	sonnig	engagiert	vertrauen	ausrottung	töten	verbissen	sterben	engstirnig	versagen	besonnen	gütig	genießen	gesittet	kuss	kreativ	bange	gierig	gemein	geizig	krise	krank	0	0	0	0	0	0	0	0	0	0	0	0	0	0	0	0	0	0	0	0	0	0	0	0	0	0	0	0	0	0
2024-05-15	10:48:04	10:58:58	652830	6.6.1	4_exp_EVA_AWA_CON	31	A	B	Rpleas_acq	Same	Rpleas	2pleas	conawa_CS1_US5_confidence	conawa1_nomask	8	11	0	0	300	300	0	0	4807	probably	1	-42,4479166666666642982pct	anregung	träumen	vergnügt	sonnig	engagiert	vertrauen	ausrottung	töten	verbissen	sterben	engstirnig	versagen	besonnen	gütig	genießen	gesittet	kuss	kreativ	bange	gierig	gemein	geizig	krise	krank	0	0	0	0	0	0	0	0	0	0	0	0	0	0	0	0	0	0	0	0	0	0	0	0	0	0	0	0	0	0
2024-05-15	10:48:04	10:59:04	659333	6.6.1	4_exp_EVA_AWA_CON	31	A	B	Rpleas_acq	Same	Rpleas	2pleas	conawa_CS1_US6	conawa1_nomask	8	12	0	0	300	300	0	0	5886	versagen	1	-42,4479166666666642982pct	anregung	träumen	vergnügt	sonnig	engagiert	vertrauen	ausrottung	töten	verbissen	sterben	engstirnig	versagen	besonnen	gütig	genießen	gesittet	kuss	kreativ	bange	gierig	gemein	geizig	krise	krank	0	0	0	0	0	0	0	0	0	0	0	0	0	0	0	0	0	0	0	0	0	0	0	0	0	0	0	0	0	0
2024-05-15	10:48:04	10:59:04	659334	6.6.1	4_exp_EVA_AWA_CON	31	A	B	Rpleas_acq	Same	Rpleas	2pleas	conawa_CS1_US6_confidence	conawa1_nomask	8	12	0	0	300	300	0	0	5886	sure	1	-42,4479166666666642982pct	anregung	träumen	vergnügt	sonnig	engagiert	vertrauen	ausrottung	töten	verbissen	sterben	engstirnig	versagen	besonnen	gütig	genießen	gesittet	kuss	kreativ	bange	gierig	gemein	geizig	krise	krank	0	0	0	0	0	0	0	0	0	0	0	0	0	0	0	0	0	0	0	0	0	0	0	0	0	0	0	0	0	0
2024-05-15	10:48:04	10:59:49	704333	6.6.1	4_exp_EVA_AWA_CON	31	A	B	Rpleas_acq	Same	Rpleas	2pleas	cond_US_unple_123_nomask_CS1	condtest_nomask_1	11	1	400	0	300	300	0	0	3413	46	1	-42,4479166666666642982pct	anregung	träumen	vergnügt	sonnig	engagiert	vertrauen	ausrottung	töten	verbissen	sterben	engstirnig	versagen	besonnen	gütig	genießen	gesittet	kuss	kreativ	bange	gierig	gemein	geizig	krise	krank	1	blank2r.bmp	0	1	+	0	1	blank2r.bmp	500	1	CPLW	500	1	blank2r.bmp	880	1	ausrottung	880	1	!	1232	1	!	-1	0	0	0	0	0	0
