date	time	currenttime	elapsedtime	build	currentexpt	subject	CS_AB	US_AB	LRpleas_acq	SameOppo	condition_Lpleas	condition_1pleas	trialcode	blockcode	blocknum	trialnum	windowcenter	inwindow	pretrialpause	posttrialpause	trialduration	trialtimeout	latency	response	correct	correctedscore	US_nomask_pleas1	US_nomask_pleas2	US_nomask_pleas3	US_nomask_pleas4	US_nomask_pleas5	US_nomask_pleas6	US_nomask_unple1	US_nomask_unple2	US_nomask_unple3	US_nomask_unple4	US_nomask_unple5	US_nomask_unple6	new_nomask_pleas1	new_nomask_pleas2	new_nomask_pleas3	new_nomask_pleas4	new_nomask_pleas5	new_nomask_pleas6	new_nomask_unple1	new_nomask_unple2	new_nomask_unple3	new_nomask_unple4	new_nomask_unple5	new_nomask_unple6	stimulusnumber1	stimulusitem1	stimulusonset1	stimulusnumber2	stimulusitem2	stimulusonset2	stimulusnumber3	stimulusitem3	stimulusonset3	stimulusnumber4	stimulusitem4	stimulusonset4	stimulusnumber5	stimulusitem5	stimulusonset5	stimulusnumber6	stimulusitem6	stimulusonset6	stimulusnumber7	stimulusitem7	stimulusonset7	stimulusnumber8	stimulusitem8	stimulusonset8	stimulusnumber9	stimulusitem9	stimulusonset9	stimulusnumber10	stimulusitem10	stimulusonset10
2024-05-23	11:14:06	11:18:54	287194	6.6.1	4_exp_EVA_AWA_CON	50	A	B	Rpleas_acq	Oppo	Rpleas	1pleas	acq_new_pleas_nomask	acq1_nomask	1	1	0	0	300	300	0	0	1270	50	1	0	träumen	kuss	besonnen	genießen	kreativ	anregung	töten	krise	bange	gemein	krank	ausrottung	gütig	engagiert	gesittet	vergnügt	vertrauen	sonnig	gierig	engstirnig	geizig	verbissen	versagen	sterben	1	blank2r.bmp	0	1	+	0	1	blank2r.bmp	500	8	C4r.bmp	500	1	blank2r.bmp	880	1	gütig	880	0	0	0	0	0	0	0	0	0	0	0	0
2024-05-23	11:14:06	11:18:56	289434	6.6.1	4_exp_EVA_AWA_CON	50	A	B	Rpleas_acq	Oppo	Rpleas	1pleas	acq_new_unple_nomask	acq1_nomask	1	2	0	0	300	300	0	0	759	46	1	0	träumen	kuss	besonnen	genießen	kreativ	anregung	töten	krise	bange	gemein	krank	ausrottung	gütig	engagiert	gesittet	vergnügt	vertrauen	sonnig	gierig	engstirnig	geizig	verbissen	versagen	sterben	1	blank2r.bmp	0	1	+	0	1	blank2r.bmp	500	6	C2r.bmp	500	1	blank2r.bmp	880	6	sterben	880	0	0	0	0	0	0	0	0	0	0	0	0
2024-05-23	11:14:06	11:18:59	291978	6.6.1	4_exp_EVA_AWA_CON	50	A	B	Rpleas_acq	Oppo	Rpleas	1pleas	acq_new_unple_nomask	acq1_nomask	1	3	0	0	300	300	0	0	1061	46	1	0	träumen	kuss	besonnen	genießen	kreativ	anregung	töten	krise	bange	gemein	krank	ausrottung	gütig	engagiert	gesittet	vergnügt	vertrauen	sonnig	gierig	engstirnig	geizig	verbissen	versagen	sterben	1	blank2r.bmp	0	1	+	0	1	blank2r.bmp	500	5	C1r.bmp	500	1	blank2r.bmp	880	2	engstirnig	880	0	0	0	0	0	0	0	0	0	0	0	0
2024-05-23	11:14:06	11:19:01	294202	6.6.1	4_exp_EVA_AWA_CON	50	A	B	Rpleas_acq	Oppo	Rpleas	1pleas	acq_US_pleas_nomask	acq1_nomask	1	4	0	0	300	300	0	0	733	50	1	0	träumen	kuss	besonnen	genießen	kreativ	anregung	töten	krise	bange	gemein	krank	ausrottung	gütig	engagiert	gesittet	vergnügt	vertrauen	sonnig	gierig	engstirnig	geizig	verbissen	versagen	sterben	1	blank2r.bmp	0	1	+	0	1	blank2r.bmp	500	1	CPLW	500	1	blank2r.bmp	880	4	genießen	880	0	0	0	0	0	0	0	0	0	0	0	0
2024-05-23	11:14:06	11:19:03	296554	6.6.1	4_exp_EVA_AWA_CON	50	A	B	Rpleas_acq	Oppo	Rpleas	1pleas	acq_new_pleas_nomask	acq1_nomask	1	5	0	0	300	300	0	0	864	50	1	0	träumen	kuss	besonnen	genießen	kreativ	anregung	töten	krise	bange	gemein	krank	ausrottung	gütig	engagiert	gesittet	vergnügt	vertrauen	sonnig	gierig	engstirnig	geizig	verbissen	versagen	sterben	1	blank2r.bmp	0	1	+	0	1	blank2r.bmp	500	7	C3r.bmp	500	1	blank2r.bmp	880	3	gesittet	880	0	0	0	0	0	0	0	0	0	0	0	0
2024-05-23	11:14:06	11:19:05	298786	6.6.1	4_exp_EVA_AWA_CON	50	A	B	Rpleas_acq	Oppo	Rpleas	1pleas	acq_new_unple_nomask	acq1_nomask	1	6	0	0	300	300	0	0	744	46	1	0	träumen	kuss	besonnen	genießen	kreativ	anregung	töten	krise	bange	gemein	krank	ausrottung	gütig	engagiert	gesittet	vergnügt	vertrauen	sonnig	gierig	engstirnig	geizig	verbissen	versagen	sterben	1	blank2r.bmp	0	1	+	0	1	blank2r.bmp	500	2	B2r.bmp	500	1	blank2r.bmp	880	4	verbissen	880	0	0	0	0	0	0	0	0	0	0	0	0
2024-05-23	11:14:06	11:19:08	301002	6.6.1	4_exp_EVA_AWA_CON	50	A	B	Rpleas_acq	Oppo	Rpleas	1pleas	acq_US_unple_nomask	acq1_nomask	1	7	0	0	300	300	0	0	729	46	1	0	träumen	kuss	besonnen	genießen	kreativ	anregung	töten	krise	bange	gemein	krank	ausrottung	gütig	engagiert	gesittet	vergnügt	vertrauen	sonnig	gierig	engstirnig	geizig	verbissen	versagen	sterben	1	blank2r.bmp	0	1	+	0	1	blank2r.bmp	500	1	DHJF	500	1	blank2r.bmp	880	4	gemein	880	0	0	0	0	0	0	0	0	0	0	0	0
2024-05-23	11:14:06	11:19:10	303066	6.6.1	4_exp_EVA_AWA_CON	50	A	B	Rpleas_acq	Oppo	Rpleas	1pleas	acq_US_pleas_nomask	acq1_nomask	1	8	0	0	300	300	0	0	581	50	1	0	träumen	kuss	besonnen	genießen	kreativ	anregung	töten	krise	bange	gemein	krank	ausrottung	gütig	engagiert	gesittet	vergnügt	vertrauen	sonnig	gierig	engstirnig	geizig	verbissen	versagen	sterben	1	blank2r.bmp	0	1	+	0	1	blank2r.bmp	500	1	CPLW	500	1	blank2r.bmp	880	2	kuss	880	0	0	0	0	0	0	0	0	0	0	0	0
2024-05-23	11:14:06	11:19:12	305314	6.6.1	4_exp_EVA_AWA_CON	50	A	B	Rpleas_acq	Oppo	Rpleas	1pleas	acq_US_pleas_nomask	acq1_nomask	1	9	0	0	300	300	0	0	758	50	1	0	träumen	kuss	besonnen	genießen	kreativ	anregung	töten	krise	bange	gemein	krank	ausrottung	gütig	engagiert	gesittet	vergnügt	vertrauen	sonnig	gierig	engstirnig	geizig	verbissen	versagen	sterben	1	blank2r.bmp	0	1	+	0	1	blank2r.bmp	500	1	CPLW	500	1	blank2r.bmp	880	6	anregung	880	0	0	0	0	0	0	0	0	0	0	0	0
2024-05-23	11:14:06	11:19:14	307401	6.6.1	4_exp_EVA_AWA_CON	50	A	B	Rpleas_acq	Oppo	Rpleas	1pleas	acq_US_unple_nomask	acq1_nomask	1	10	0	0	300	300	0	0	605	46	1	0	träumen	kuss	besonnen	genießen	kreativ	anregung	töten	krise	bange	gemein	krank	ausrottung	gütig	engagiert	gesittet	vergnügt	vertrauen	sonnig	gierig	engstirnig	geizig	verbissen	versagen	sterben	1	blank2r.bmp	0	1	+	0	1	blank2r.bmp	500	1	DHJF	500	1	blank2r.bmp	880	1	töten	880	0	0	0	0	0	0	0	0	0	0	0	0
2024-05-23	11:14:06	11:19:16	309609	6.6.1	4_exp_EVA_AWA_CON	50	A	B	Rpleas_acq	Oppo	Rpleas	1pleas	acq_new_pleas_nomask	acq1_nomask	1	11	0	0	300	300	0	0	721	50	1	0	träumen	kuss	besonnen	genießen	kreativ	anregung	töten	krise	bange	gemein	krank	ausrottung	gütig	engagiert	gesittet	vergnügt	vertrauen	sonnig	gierig	engstirnig	geizig	verbissen	versagen	sterben	1	blank2r.bmp	0	1	+	0	1	blank2r.bmp	500	1	B1r.bmp	500	1	blank2r.bmp	880	5	vertrauen	880	0	0	0	0	0	0	0	0	0	0	0	0
2024-05-23	11:14:06	11:19:18	311690	6.6.1	4_exp_EVA_AWA_CON	50	A	B	Rpleas_acq	Oppo	Rpleas	1pleas	acq_US_unple_nomask	acq1_nomask	1	12	0	0	300	300	0	0	590	46	1	0	träumen	kuss	besonnen	genießen	kreativ	anregung	töten	krise	bange	gemein	krank	ausrottung	gütig	engagiert	gesittet	vergnügt	vertrauen	sonnig	gierig	engstirnig	geizig	verbissen	versagen	sterben	1	blank2r.bmp	0	1	+	0	1	blank2r.bmp	500	1	DHJF	500	1	blank2r.bmp	880	5	krank	880	0	0	0	0	0	0	0	0	0	0	0	0
2024-05-23	11:14:06	11:19:20	313802	6.6.1	4_exp_EVA_AWA_CON	50	A	B	Rpleas_acq	Oppo	Rpleas	1pleas	acq_US_pleas_nomask	acq1_nomask	1	13	0	0	300	300	0	0	630	50	1	0	träumen	kuss	besonnen	genießen	kreativ	anregung	töten	krise	bange	gemein	krank	ausrottung	gütig	engagiert	gesittet	vergnügt	vertrauen	sonnig	gierig	engstirnig	geizig	verbissen	versagen	sterben	1	blank2r.bmp	0	1	+	0	1	blank2r.bmp	500	1	CPLW	500	1	blank2r.bmp	880	5	kreativ	880	0	0	0	0	0	0	0	0	0	0	0	0
2024-05-23	11:14:06	11:19:23	316018	6.6.1	4_exp_EVA_AWA_CON	50	A	B	Rpleas_acq	Oppo	Rpleas	1pleas	acq_new_unple_nomask	acq1_nomask	1	14	0	0	300	300	0	0	725	46	1	0	träumen	kuss	besonnen	genießen	kreativ	anregung	töten	krise	bange	gemein	krank	ausrottung	gütig	engagiert	gesittet	vergnügt	vertrauen	sonnig	gierig	engstirnig	geizig	verbissen	versagen	sterben	1	blank2r.bmp	0	1	+	0	1	blank2r.bmp	500	4	B4r.bmp	500	1	blank2r.bmp	880	1	gierig	880	0	0	0	0	0	0	0	0	0	0	0	0
2024-05-23	11:14:06	11:19:25	318058	6.6.1	4_exp_EVA_AWA_CON	50	A	B	Rpleas_acq	Oppo	Rpleas	1pleas	acq_new_pleas_nomask	acq1_nomask	1	15	0	0	300	300	0	0	554	50	1	0	träumen	kuss	besonnen	genießen	kreativ	anregung	töten	krise	bange	gemein	krank	ausrottung	gütig	engagiert	gesittet	vergnügt	vertrauen	sonnig	gierig	engstirnig	geizig	verbissen	versagen	sterben	1	blank2r.bmp	0	1	+	0	1	blank2r.bmp	500	3	B3r.bmp	500	1	blank2r.bmp	880	2	engagiert	880	0	0	0	0	0	0	0	0	0	0	0	0
2024-05-23	11:14:06	11:19:27	320554	6.6.1	4_exp_EVA_AWA_CON	50	A	B	Rpleas_acq	Oppo	Rpleas	1pleas	acq_US_unple_nomask	acq1_nomask	1	16	0	0	300	300	0	0	1008	46	1	0	träumen	kuss	besonnen	genießen	kreativ	anregung	töten	krise	bange	gemein	krank	ausrottung	gütig	engagiert	gesittet	vergnügt	vertrauen	sonnig	gierig	engstirnig	geizig	verbissen	versagen	sterben	1	blank2r.bmp	0	1	+	0	1	blank2r.bmp	500	1	DHJF	500	1	blank2r.bmp	880	6	ausrottung	880	0	0	0	0	0	0	0	0	0	0	0	0
2024-05-23	11:14:06	11:19:29	322554	6.6.1	4_exp_EVA_AWA_CON	50	A	B	Rpleas_acq	Oppo	Rpleas	1pleas	acq_US_pleas_nomask	acq1_nomask	1	17	0	0	300	300	0	0	517	50	1	0	träumen	kuss	besonnen	genießen	kreativ	anregung	töten	krise	bange	gemein	krank	ausrottung	gütig	engagiert	gesittet	vergnügt	vertrauen	sonnig	gierig	engstirnig	geizig	verbissen	versagen	sterben	1	blank2r.bmp	0	1	+	0	1	blank2r.bmp	500	1	CPLW	500	1	blank2r.bmp	880	3	besonnen	880	0	0	0	0	0	0	0	0	0	0	0	0
2024-05-23	11:14:06	11:19:31	324618	6.6.1	4_exp_EVA_AWA_CON	50	A	B	Rpleas_acq	Oppo	Rpleas	1pleas	acq_new_pleas_nomask	acq1_nomask	1	18	0	0	300	300	0	0	579	50	1	0	träumen	kuss	besonnen	genießen	kreativ	anregung	töten	krise	bange	gemein	krank	ausrottung	gütig	engagiert	gesittet	vergnügt	vertrauen	sonnig	gierig	engstirnig	geizig	verbissen	versagen	sterben	1	blank2r.bmp	0	1	+	0	1	blank2r.bmp	500	5	C1r.bmp	500	1	blank2r.bmp	880	6	sonnig	880	0	0	0	0	0	0	0	0	0	0	0	0
2024-05-23	11:14:06	11:19:33	326842	6.6.1	4_exp_EVA_AWA_CON	50	A	B	Rpleas_acq	Oppo	Rpleas	1pleas	acq_US_unple_nomask	acq1_nomask	1	19	0	0	300	300	0	0	742	46	1	0	träumen	kuss	besonnen	genießen	kreativ	anregung	töten	krise	bange	gemein	krank	ausrottung	gütig	engagiert	gesittet	vergnügt	vertrauen	sonnig	gierig	engstirnig	geizig	verbissen	versagen	sterben	1	blank2r.bmp	0	1	+	0	1	blank2r.bmp	500	1	DHJF	500	1	blank2r.bmp	880	2	krise	880	0	0	0	0	0	0	0	0	0	0	0	0
2024-05-23	11:14:06	11:19:36	329434	6.6.1	4_exp_EVA_AWA_CON	50	A	B	Rpleas_acq	Oppo	Rpleas	1pleas	acq_new_unple_nomask	acq1_nomask	1	20	0	0	300	300	0	0	1103	46	1	0	träumen	kuss	besonnen	genießen	kreativ	anregung	töten	krise	bange	gemein	krank	ausrottung	gütig	engagiert	gesittet	vergnügt	vertrauen	sonnig	gierig	engstirnig	geizig	verbissen	versagen	sterben	1	blank2r.bmp	0	1	+	0	1	blank2r.bmp	500	8	C4r.bmp	500	1	blank2r.bmp	880	3	geizig	880	0	0	0	0	0	0	0	0	0	0	0	0
2024-05-23	11:14:06	11:19:38	331482	6.6.1	4_exp_EVA_AWA_CON	50	A	B	Rpleas_acq	Oppo	Rpleas	1pleas	acq_US_pleas_nomask	acq1_nomask	1	21	0	0	300	300	0	0	559	50	1	0	träumen	kuss	besonnen	genießen	kreativ	anregung	töten	krise	bange	gemein	krank	ausrottung	gütig	engagiert	gesittet	vergnügt	vertrauen	sonnig	gierig	engstirnig	geizig	verbissen	versagen	sterben	1	blank2r.bmp	0	1	+	0	1	blank2r.bmp	500	1	CPLW	500	1	blank2r.bmp	880	1	träumen	880	0	0	0	0	0	0	0	0	0	0	0	0
2024-05-23	11:14:06	11:19:40	333818	6.6.1	4_exp_EVA_AWA_CON	50	A	B	Rpleas_acq	Oppo	Rpleas	1pleas	acq_new_unple_nomask	acq1_nomask	1	22	0	0	300	300	0	0	854	46	1	0	träumen	kuss	besonnen	genießen	kreativ	anregung	töten	krise	bange	gemein	krank	ausrottung	gütig	engagiert	gesittet	vergnügt	vertrauen	sonnig	gierig	engstirnig	geizig	verbissen	versagen	sterben	1	blank2r.bmp	0	1	+	0	1	blank2r.bmp	500	1	B1r.bmp	500	1	blank2r.bmp	880	5	versagen	880	0	0	0	0	0	0	0	0	0	0	0	0
2024-05-23	11:14:06	11:19:43	336010	6.6.1	4_exp_EVA_AWA_CON	50	A	B	Rpleas_acq	Oppo	Rpleas	1pleas	acq_new_pleas_nomask	acq1_nomask	1	23	0	0	300	300	0	0	704	50	1	0	träumen	kuss	besonnen	genießen	kreativ	anregung	töten	krise	bange	gemein	krank	ausrottung	gütig	engagiert	gesittet	vergnügt	vertrauen	sonnig	gierig	engstirnig	geizig	verbissen	versagen	sterben	1	blank2r.bmp	0	1	+	0	1	blank2r.bmp	500	6	C2r.bmp	500	1	blank2r.bmp	880	4	vergnügt	880	0	0	0	0	0	0	0	0	0	0	0	0
2024-05-23	11:14:06	11:19:45	338698	6.6.1	4_exp_EVA_AWA_CON	50	A	B	Rpleas_acq	Oppo	Rpleas	1pleas	acq_US_unple_nomask	acq1_nomask	1	24	0	0	300	300	0	0	1201	46	1	0	träumen	kuss	besonnen	genießen	kreativ	anregung	töten	krise	bange	gemein	krank	ausrottung	gütig	engagiert	gesittet	vergnügt	vertrauen	sonnig	gierig	engstirnig	geizig	verbissen	versagen	sterben	1	blank2r.bmp	0	1	+	0	1	blank2r.bmp	500	1	DHJF	500	1	blank2r.bmp	880	3	bange	880	0	0	0	0	0	0	0	0	0	0	0	0
2024-05-23	11:14:06	11:19:47	340794	6.6.1	4_exp_EVA_AWA_CON	50	A	B	Rpleas_acq	Oppo	Rpleas	1pleas	acq_new_pleas_nomask	acq1_nomask	1	25	0	0	300	300	0	0	615	50	1	0	träumen	kuss	besonnen	genießen	kreativ	anregung	töten	krise	bange	gemein	krank	ausrottung	gütig	engagiert	gesittet	vergnügt	vertrauen	sonnig	gierig	engstirnig	geizig	verbissen	versagen	sterben	1	blank2r.bmp	0	1	+	0	1	blank2r.bmp	500	3	B3r.bmp	500	1	blank2r.bmp	880	4	vergnügt	880	0	0	0	0	0	0	0	0	0	0	0	0
2024-05-23	11:14:06	11:19:49	342826	6.6.1	4_exp_EVA_AWA_CON	50	A	B	Rpleas_acq	Oppo	Rpleas	1pleas	acq_US_pleas_nomask	acq1_nomask	1	26	0	0	300	300	0	0	545	50	1	0	träumen	kuss	besonnen	genießen	kreativ	anregung	töten	krise	bange	gemein	krank	ausrottung	gütig	engagiert	gesittet	vergnügt	vertrauen	sonnig	gierig	engstirnig	geizig	verbissen	versagen	sterben	1	blank2r.bmp	0	1	+	0	1	blank2r.bmp	500	1	CPLW	500	1	blank2r.bmp	880	2	kuss	880	0	0	0	0	0	0	0	0	0	0	0	0
2024-05-23	11:14:06	11:19:52	344938	6.6.1	4_exp_EVA_AWA_CON	50	A	B	Rpleas_acq	Oppo	Rpleas	1pleas	acq_US_pleas_nomask	acq1_nomask	1	27	0	0	300	300	0	0	626	50	1	0	träumen	kuss	besonnen	genießen	kreativ	anregung	töten	krise	bange	gemein	krank	ausrottung	gütig	engagiert	gesittet	vergnügt	vertrauen	sonnig	gierig	engstirnig	geizig	verbissen	versagen	sterben	1	blank2r.bmp	0	1	+	0	1	blank2r.bmp	500	1	CPLW	500	1	blank2r.bmp	880	4	genießen	880	0	0	0	0	0	0	0	0	0	0	0	0
2024-05-23	11:14:06	11:19:54	347154	6.6.1	4_exp_EVA_AWA_CON	50	A	B	Rpleas_acq	Oppo	Rpleas	1pleas	acq_new_pleas_nomask	acq1_nomask	1	28	0	0	300	300	0	0	731	50	1	0	träumen	kuss	besonnen	genießen	kreativ	anregung	töten	krise	bange	gemein	krank	ausrottung	gütig	engagiert	gesittet	vergnügt	vertrauen	sonnig	gierig	engstirnig	geizig	verbissen	versagen	sterben	1	blank2r.bmp	0	1	+	0	1	blank2r.bmp	500	7	C3r.bmp	500	1	blank2r.bmp	880	1	gütig	880	0	0	0	0	0	0	0	0	0	0	0	0
2024-05-23	11:14:06	11:19:56	349225	6.6.1	4_exp_EVA_AWA_CON	50	A	B	Rpleas_acq	Oppo	Rpleas	1pleas	acq_US_unple_nomask	acq1_nomask	1	29	0	0	300	300	0	0	581	46	1	0	träumen	kuss	besonnen	genießen	kreativ	anregung	töten	krise	bange	gemein	krank	ausrottung	gütig	engagiert	gesittet	vergnügt	vertrauen	sonnig	gierig	engstirnig	geizig	verbissen	versagen	sterben	1	blank2r.bmp	0	1	+	0	1	blank2r.bmp	500	1	DHJF	500	1	blank2r.bmp	880	5	krank	880	0	0	0	0	0	0	0	0	0	0	0	0
2024-05-23	11:14:06	11:19:58	351354	6.6.1	4_exp_EVA_AWA_CON	50	A	B	Rpleas_acq	Oppo	Rpleas	1pleas	acq_new_unple_nomask	acq1_nomask	1	30	0	0	300	300	0	0	638	46	1	0	träumen	kuss	besonnen	genießen	kreativ	anregung	töten	krise	bange	gemein	krank	ausrottung	gütig	engagiert	gesittet	vergnügt	vertrauen	sonnig	gierig	engstirnig	geizig	verbissen	versagen	sterben	1	blank2r.bmp	0	1	+	0	1	blank2r.bmp	500	4	B4r.bmp	500	1	blank2r.bmp	880	5	versagen	880	0	0	0	0	0	0	0	0	0	0	0	0
2024-05-23	11:14:06	11:20:00	353490	6.6.1	4_exp_EVA_AWA_CON	50	A	B	Rpleas_acq	Oppo	Rpleas	1pleas	acq_US_pleas_nomask	acq1_nomask	1	31	0	0	300	300	0	0	653	50	1	0	träumen	kuss	besonnen	genießen	kreativ	anregung	töten	krise	bange	gemein	krank	ausrottung	gütig	engagiert	gesittet	vergnügt	vertrauen	sonnig	gierig	engstirnig	geizig	verbissen	versagen	sterben	1	blank2r.bmp	0	1	+	0	1	blank2r.bmp	500	1	CPLW	500	1	blank2r.bmp	880	6	anregung	880	0	0	0	0	0	0	0	0	0	0	0	0
2024-05-23	11:14:06	11:20:02	355538	6.6.1	4_exp_EVA_AWA_CON	50	A	B	Rpleas_acq	Oppo	Rpleas	1pleas	acq_US_unple_nomask	acq1_nomask	1	32	0	0	300	300	0	0	559	46	1	0	träumen	kuss	besonnen	genießen	kreativ	anregung	töten	krise	bange	gemein	krank	ausrottung	gütig	engagiert	gesittet	vergnügt	vertrauen	sonnig	gierig	engstirnig	geizig	verbissen	versagen	sterben	1	blank2r.bmp	0	1	+	0	1	blank2r.bmp	500	1	DHJF	500	1	blank2r.bmp	880	3	bange	880	0	0	0	0	0	0	0	0	0	0	0	0
2024-05-23	11:14:06	11:20:05	358090	6.6.1	4_exp_EVA_AWA_CON	50	A	B	Rpleas_acq	Oppo	Rpleas	1pleas	acq_new_unple_nomask	acq1_nomask	1	33	0	0	300	300	0	0	1070	46	1	0	träumen	kuss	besonnen	genießen	kreativ	anregung	töten	krise	bange	gemein	krank	ausrottung	gütig	engagiert	gesittet	vergnügt	vertrauen	sonnig	gierig	engstirnig	geizig	verbissen	versagen	sterben	1	blank2r.bmp	0	1	+	0	1	blank2r.bmp	500	2	B2r.bmp	500	1	blank2r.bmp	880	2	engstirnig	880	0	0	0	0	0	0	0	0	0	0	0	0
2024-05-23	11:14:06	11:20:07	360242	6.6.1	4_exp_EVA_AWA_CON	50	A	B	Rpleas_acq	Oppo	Rpleas	1pleas	acq_new_pleas_nomask	acq1_nomask	1	34	0	0	300	300	0	0	670	50	1	0	träumen	kuss	besonnen	genießen	kreativ	anregung	töten	krise	bange	gemein	krank	ausrottung	gütig	engagiert	gesittet	vergnügt	vertrauen	sonnig	gierig	engstirnig	geizig	verbissen	versagen	sterben	1	blank2r.bmp	0	1	+	0	1	blank2r.bmp	500	7	C3r.bmp	500	1	blank2r.bmp	880	5	vertrauen	880	0	0	0	0	0	0	0	0	0	0	0	0
2024-05-23	11:14:06	11:20:09	362554	6.6.1	4_exp_EVA_AWA_CON	50	A	B	Rpleas_acq	Oppo	Rpleas	1pleas	acq_US_unple_nomask	acq1_nomask	1	35	0	0	300	300	0	0	831	46	1	0	träumen	kuss	besonnen	genießen	kreativ	anregung	töten	krise	bange	gemein	krank	ausrottung	gütig	engagiert	gesittet	vergnügt	vertrauen	sonnig	gierig	engstirnig	geizig	verbissen	versagen	sterben	1	blank2r.bmp	0	1	+	0	1	blank2r.bmp	500	1	DHJF	500	1	blank2r.bmp	880	6	ausrottung	880	0	0	0	0	0	0	0	0	0	0	0	0
2024-05-23	11:14:06	11:20:11	364810	6.6.1	4_exp_EVA_AWA_CON	50	A	B	Rpleas_acq	Oppo	Rpleas	1pleas	acq_new_unple_nomask	acq1_nomask	1	36	0	0	300	300	0	0	765	46	1	0	träumen	kuss	besonnen	genießen	kreativ	anregung	töten	krise	bange	gemein	krank	ausrottung	gütig	engagiert	gesittet	vergnügt	vertrauen	sonnig	gierig	engstirnig	geizig	verbissen	versagen	sterben	1	blank2r.bmp	0	1	+	0	1	blank2r.bmp	500	5	C1r.bmp	500	1	blank2r.bmp	880	4	verbissen	880	0	0	0	0	0	0	0	0	0	0	0	0
2024-05-23	11:14:06	11:21:15	428700	6.6.1	4_exp_EVA_AWA_CON	50	A	B	Rpleas_acq	Oppo	Rpleas	1pleas	acq_new_unple_nomask	acq2_nomask	2	1	480	0	300	300	0	0	5487	46	1	0	träumen	kuss	besonnen	genießen	kreativ	anregung	töten	krise	bange	gemein	krank	ausrottung	gütig	engagiert	gesittet	vergnügt	vertrauen	sonnig	gierig	engstirnig	geizig	verbissen	versagen	sterben	1	blank2r.bmp	0	1	+	0	1	blank2r.bmp	500	6	C2r.bmp	500	1	blank2r.bmp	880	3	geizig	880	1	!	1312	1	!	-1	0	0	0	0	0	0
2024-05-23	11:14:06	11:21:18	431108	6.6.1	4_exp_EVA_AWA_CON	50	A	B	Rpleas_acq	Oppo	Rpleas	1pleas	acq_new_pleas_nomask	acq2_nomask	2	2	480	0	300	300	0	0	630	50	1	0	träumen	kuss	besonnen	genießen	kreativ	anregung	töten	krise	bange	gemein	krank	ausrottung	gütig	engagiert	gesittet	vergnügt	vertrauen	sonnig	gierig	engstirnig	geizig	verbissen	versagen	sterben	1	blank2r.bmp	0	1	+	0	1	blank2r.bmp	500	8	C4r.bmp	500	1	blank2r.bmp	880	2	engagiert	880	1	!	1313	1	!	-1	0	0	0	0	0	0
2024-05-23	11:14:06	11:21:20	433645	6.6.1	4_exp_EVA_AWA_CON	50	A	B	Rpleas_acq	Oppo	Rpleas	1pleas	acq_new_pleas_nomask	acq2_nomask	2	3	480	0	300	300	0	0	554	46	0	0	träumen	kuss	besonnen	genießen	kreativ	anregung	töten	krise	bange	gemein	krank	ausrottung	gütig	engagiert	gesittet	vergnügt	vertrauen	sonnig	gierig	engstirnig	geizig	verbissen	versagen	sterben	1	blank2r.bmp	0	1	+	0	1	blank2r.bmp	500	2	B2r.bmp	500	1	blank2r.bmp	880	3	gesittet	880	1	FEHLER	1746	1	!	1312	1	!	-1	0	0	0
2024-05-23	11:14:06	11:21:22	435717	6.6.1	4_exp_EVA_AWA_CON	50	A	B	Rpleas_acq	Oppo	Rpleas	1pleas	acq_US_pleas_nomask	acq2_nomask	2	4	480	1	300	300	0	0	495	50	1	0	träumen	kuss	besonnen	genießen	kreativ	anregung	töten	krise	bange	gemein	krank	ausrottung	gütig	engagiert	gesittet	vergnügt	vertrauen	sonnig	gierig	engstirnig	geizig	verbissen	versagen	sterben	1	blank2r.bmp	0	1	+	0	1	blank2r.bmp	500	1	CPLW	500	1	blank2r.bmp	880	1	träumen	880	1	!	1312	1	!	1397	0	0	0	0	0	0
2024-05-23	11:14:06	11:21:25	437941	6.6.1	4_exp_EVA_AWA_CON	50	A	B	Rpleas_acq	Oppo	Rpleas	1pleas	acq_new_pleas_nomask	acq2_nomask	2	5	480	1	300	300	0	0	447	50	1	0	träumen	kuss	besonnen	genießen	kreativ	anregung	töten	krise	bange	gemein	krank	ausrottung	gütig	engagiert	gesittet	vergnügt	vertrauen	sonnig	gierig	engstirnig	geizig	verbissen	versagen	sterben	1	blank2r.bmp	0	1	+	0	1	blank2r.bmp	500	4	B4r.bmp	500	1	blank2r.bmp	880	6	sonnig	880	1	!	1312	1	!	1349	0	0	0	0	0	0
2024-05-23	11:14:06	11:21:27	440477	6.6.1	4_exp_EVA_AWA_CON	50	A	B	Rpleas_acq	Oppo	Rpleas	1pleas	acq_new_unple_nomask	acq2_nomask	2	6	480	0	300	300	0	0	562	50	0	0	träumen	kuss	besonnen	genießen	kreativ	anregung	töten	krise	bange	gemein	krank	ausrottung	gütig	engagiert	gesittet	vergnügt	vertrauen	sonnig	gierig	engstirnig	geizig	verbissen	versagen	sterben	1	blank2r.bmp	0	1	+	0	1	blank2r.bmp	500	1	B1r.bmp	500	1	blank2r.bmp	880	1	gierig	880	1	FEHLER	1754	1	!	1312	1	!	-1	0	0	0
2024-05-23	11:14:06	11:21:29	442566	6.6.1	4_exp_EVA_AWA_CON	50	A	B	Rpleas_acq	Oppo	Rpleas	1pleas	acq_US_pleas_nomask	acq2_nomask	2	7	480	1	300	300	0	0	508	50	1	0	träumen	kuss	besonnen	genießen	kreativ	anregung	töten	krise	bange	gemein	krank	ausrottung	gütig	engagiert	gesittet	vergnügt	vertrauen	sonnig	gierig	engstirnig	geizig	verbissen	versagen	sterben	1	blank2r.bmp	0	1	+	0	1	blank2r.bmp	500	1	CPLW	500	1	blank2r.bmp	880	3	besonnen	880	1	!	1312	1	!	1410	0	0	0	0	0	0
2024-05-23	11:14:06	11:21:32	445084	6.6.1	4_exp_EVA_AWA_CON	50	A	B	Rpleas_acq	Oppo	Rpleas	1pleas	acq_US_unple_nomask	acq2_nomask	2	8	480	0	300	300	0	0	737	46	1	0	träumen	kuss	besonnen	genießen	kreativ	anregung	töten	krise	bange	gemein	krank	ausrottung	gütig	engagiert	gesittet	vergnügt	vertrauen	sonnig	gierig	engstirnig	geizig	verbissen	versagen	sterben	1	blank2r.bmp	0	1	+	0	1	blank2r.bmp	500	1	DHJF	500	1	blank2r.bmp	880	4	gemein	880	1	!	1312	1	!	-1	0	0	0	0	0	0
2024-05-23	11:14:06	11:21:34	447397	6.6.1	4_exp_EVA_AWA_CON	50	A	B	Rpleas_acq	Oppo	Rpleas	1pleas	acq_US_unple_nomask	acq2_nomask	2	9	480	1	300	300	0	0	537	46	1	0	träumen	kuss	besonnen	genießen	kreativ	anregung	töten	krise	bange	gemein	krank	ausrottung	gütig	engagiert	gesittet	vergnügt	vertrauen	sonnig	gierig	engstirnig	geizig	verbissen	versagen	sterben	1	blank2r.bmp	0	1	+	0	1	blank2r.bmp	500	1	DHJF	500	1	blank2r.bmp	880	2	krise	880	1	!	1313	1	!	1439	0	0	0	0	0	0
2024-05-23	11:14:06	11:21:36	449653	6.6.1	4_exp_EVA_AWA_CON	50	A	B	Rpleas_acq	Oppo	Rpleas	1pleas	acq_US_pleas_nomask	acq2_nomask	2	10	480	1	300	300	0	0	472	50	1	0	träumen	kuss	besonnen	genießen	kreativ	anregung	töten	krise	bange	gemein	krank	ausrottung	gütig	engagiert	gesittet	vergnügt	vertrauen	sonnig	gierig	engstirnig	geizig	verbissen	versagen	sterben	1	blank2r.bmp	0	1	+	0	1	blank2r.bmp	500	1	CPLW	500	1	blank2r.bmp	880	5	kreativ	880	1	!	1312	1	!	1373	0	0	0	0	0	0
2024-05-23	11:14:06	11:21:39	451852	6.6.1	4_exp_EVA_AWA_CON	50	A	B	Rpleas_acq	Oppo	Rpleas	1pleas	acq_US_unple_nomask	acq2_nomask	2	11	480	1	300	300	0	0	420	46	1	0	träumen	kuss	besonnen	genießen	kreativ	anregung	töten	krise	bange	gemein	krank	ausrottung	gütig	engagiert	gesittet	vergnügt	vertrauen	sonnig	gierig	engstirnig	geizig	verbissen	versagen	sterben	1	blank2r.bmp	0	1	+	0	1	blank2r.bmp	500	1	DHJF	500	1	blank2r.bmp	880	1	töten	880	1	!	1312	1	!	1320	0	0	0	0	0	0
2024-05-23	11:14:06	11:21:41	454310	6.6.1	4_exp_EVA_AWA_CON	50	A	B	Rpleas_acq	Oppo	Rpleas	1pleas	acq_new_unple_nomask	acq2_nomask	2	12	480	1	300	300	0	0	475	50	0	0	träumen	kuss	besonnen	genießen	kreativ	anregung	töten	krise	bange	gemein	krank	ausrottung	gütig	engagiert	gesittet	vergnügt	vertrauen	sonnig	gierig	engstirnig	geizig	verbissen	versagen	sterben	1	blank2r.bmp	0	1	+	0	1	blank2r.bmp	500	3	B3r.bmp	500	1	blank2r.bmp	880	6	sterben	880	1	FEHLER	1668	1	!	1313	1	!	1377	0	0	0
2024-05-23	11:14:06	11:21:43	456467	6.6.1	4_exp_EVA_AWA_CON	50	A	B	Rpleas_acq	Oppo	Rpleas	1pleas	acq_US_pleas_nomask	acq2_nomask	2	13	480	0	300	300	0	0	583	50	1	0	träumen	kuss	besonnen	genießen	kreativ	anregung	töten	krise	bange	gemein	krank	ausrottung	gütig	engagiert	gesittet	vergnügt	vertrauen	sonnig	gierig	engstirnig	geizig	verbissen	versagen	sterben	1	blank2r.bmp	0	1	+	0	1	blank2r.bmp	500	1	CPLW	500	1	blank2r.bmp	880	5	kreativ	880	1	!	1313	1	!	-1	0	0	0	0	0	0
2024-05-23	11:14:06	11:21:46	459054	6.6.1	4_exp_EVA_AWA_CON	50	A	B	Rpleas_acq	Oppo	Rpleas	1pleas	acq_new_pleas_nomask	acq2_nomask	2	14	480	0	300	300	0	0	606	46	0	0	träumen	kuss	besonnen	genießen	kreativ	anregung	töten	krise	bange	gemein	krank	ausrottung	gütig	engagiert	gesittet	vergnügt	vertrauen	sonnig	gierig	engstirnig	geizig	verbissen	versagen	sterben	1	blank2r.bmp	0	1	+	0	1	blank2r.bmp	500	1	B1r.bmp	500	1	blank2r.bmp	880	5	vertrauen	880	1	FEHLER	1799	1	!	1312	1	!	-1	0	0	0
2024-05-23	11:14:06	11:21:48	461125	6.6.1	4_exp_EVA_AWA_CON	50	A	B	Rpleas_acq	Oppo	Rpleas	1pleas	acq_new_pleas_nomask	acq2_nomask	2	15	480	1	300	300	0	0	496	50	1	0	träumen	kuss	besonnen	genießen	kreativ	anregung	töten	krise	bange	gemein	krank	ausrottung	gütig	engagiert	gesittet	vergnügt	vertrauen	sonnig	gierig	engstirnig	geizig	verbissen	versagen	sterben	1	blank2r.bmp	0	1	+	0	1	blank2r.bmp	500	4	B4r.bmp	500	1	blank2r.bmp	880	1	gütig	880	1	!	1313	1	!	1398	0	0	0	0	0	0
2024-05-23	11:14:06	11:21:50	463476	6.6.1	4_exp_EVA_AWA_CON	50	A	B	Rpleas_acq	Oppo	Rpleas	1pleas	acq_new_unple_nomask	acq2_nomask	2	16	480	0	300	300	0	0	577	46	1	0	träumen	kuss	besonnen	genießen	kreativ	anregung	töten	krise	bange	gemein	krank	ausrottung	gütig	engagiert	gesittet	vergnügt	vertrauen	sonnig	gierig	engstirnig	geizig	verbissen	versagen	sterben	1	blank2r.bmp	0	1	+	0	1	blank2r.bmp	500	3	B3r.bmp	500	1	blank2r.bmp	880	5	versagen	880	1	!	1312	1	!	-1	0	0	0	0	0	0
2024-05-23	11:14:06	11:21:52	465820	6.6.1	4_exp_EVA_AWA_CON	50	A	B	Rpleas_acq	Oppo	Rpleas	1pleas	acq_US_unple_nomask	acq2_nomask	2	17	480	0	300	300	0	0	569	46	1	0	träumen	kuss	besonnen	genießen	kreativ	anregung	töten	krise	bange	gemein	krank	ausrottung	gütig	engagiert	gesittet	vergnügt	vertrauen	sonnig	gierig	engstirnig	geizig	verbissen	versagen	sterben	1	blank2r.bmp	0	1	+	0	1	blank2r.bmp	500	1	DHJF	500	1	blank2r.bmp	880	1	töten	880	1	!	1313	1	!	-1	0	0	0	0	0	0
2024-05-23	11:14:06	11:21:55	468045	6.6.1	4_exp_EVA_AWA_CON	50	A	B	Rpleas_acq	Oppo	Rpleas	1pleas	acq_US_pleas_nomask	acq2_nomask	2	18	480	1	300	300	0	0	452	50	1	0	träumen	kuss	besonnen	genießen	kreativ	anregung	töten	krise	bange	gemein	krank	ausrottung	gütig	engagiert	gesittet	vergnügt	vertrauen	sonnig	gierig	engstirnig	geizig	verbissen	versagen	sterben	1	blank2r.bmp	0	1	+	0	1	blank2r.bmp	500	1	CPLW	500	1	blank2r.bmp	880	6	anregung	880	1	!	1312	1	!	1353	0	0	0	0	0	0
2024-05-23	11:14:06	11:21:57	470519	6.6.1	4_exp_EVA_AWA_CON	50	A	B	Rpleas_acq	Oppo	Rpleas	1pleas	acq_new_unple_nomask	acq2_nomask	2	19	480	1	300	300	0	0	492	50	0	0	träumen	kuss	besonnen	genießen	kreativ	anregung	töten	krise	bange	gemein	krank	ausrottung	gütig	engagiert	gesittet	vergnügt	vertrauen	sonnig	gierig	engstirnig	geizig	verbissen	versagen	sterben	1	blank2r.bmp	0	1	+	0	1	blank2r.bmp	500	7	C3r.bmp	500	1	blank2r.bmp	880	3	geizig	880	1	FEHLER	1686	1	!	1312	1	!	1394	0	0	0
2024-05-23	11:14:06	11:21:59	472646	6.6.1	4_exp_EVA_AWA_CON	50	A	B	Rpleas_acq	Oppo	Rpleas	1pleas	acq_US_unple_nomask	acq2_nomask	2	20	480	0	300	300	0	0	349	50	0	0	träumen	kuss	besonnen	genießen	kreativ	anregung	töten	krise	bange	gemein	krank	ausrottung	gütig	engagiert	gesittet	vergnügt	vertrauen	sonnig	gierig	engstirnig	geizig	verbissen	versagen	sterben	1	blank2r.bmp	0	1	+	0	1	blank2r.bmp	500	1	DHJF	500	1	blank2r.bmp	880	5	krank	880	1	FEHLER	1542	1	!	-1	1	!	-1	0	0	0
2024-05-23	11:14:06	11:22:02	475436	6.6.1	4_exp_EVA_AWA_CON	50	A	B	Rpleas_acq	Oppo	Rpleas	1pleas	acq_US_unple_nomask	acq2_nomask	2	21	480	0	300	300	0	0	1209	46	1	0	träumen	kuss	besonnen	genießen	kreativ	anregung	töten	krise	bange	gemein	krank	ausrottung	gütig	engagiert	gesittet	vergnügt	vertrauen	sonnig	gierig	engstirnig	geizig	verbissen	versagen	sterben	1	blank2r.bmp	0	1	+	0	1	blank2r.bmp	500	1	DHJF	500	1	blank2r.bmp	880	4	gemein	880	1	!	1313	1	!	-1	0	0	0	0	0	0
2024-05-23	11:14:06	11:22:04	477701	6.6.1	4_exp_EVA_AWA_CON	50	A	B	Rpleas_acq	Oppo	Rpleas	1pleas	acq_US_pleas_nomask	acq2_nomask	2	22	480	1	300	300	0	0	481	50	1	0	träumen	kuss	besonnen	genießen	kreativ	anregung	töten	krise	bange	gemein	krank	ausrottung	gütig	engagiert	gesittet	vergnügt	vertrauen	sonnig	gierig	engstirnig	geizig	verbissen	versagen	sterben	1	blank2r.bmp	0	1	+	0	1	blank2r.bmp	500	1	CPLW	500	1	blank2r.bmp	880	2	kuss	880	1	!	1312	1	!	1383	0	0	0	0	0	0
2024-05-23	11:14:06	11:22:07	479957	6.6.1	4_exp_EVA_AWA_CON	50	A	B	Rpleas_acq	Oppo	Rpleas	1pleas	acq_new_pleas_nomask	acq2_nomask	2	23	480	1	300	300	0	0	476	50	1	0	träumen	kuss	besonnen	genießen	kreativ	anregung	töten	krise	bange	gemein	krank	ausrottung	gütig	engagiert	gesittet	vergnügt	vertrauen	sonnig	gierig	engstirnig	geizig	verbissen	versagen	sterben	1	blank2r.bmp	0	1	+	0	1	blank2r.bmp	500	6	C2r.bmp	500	1	blank2r.bmp	880	6	sonnig	880	1	!	1313	1	!	1378	0	0	0	0	0	0
2024-05-23	11:14:06	11:22:09	482494	6.6.1	4_exp_EVA_AWA_CON	50	A	B	Rpleas_acq	Oppo	Rpleas	1pleas	acq_new_unple_nomask	acq2_nomask	2	24	480	0	300	300	0	0	560	50	0	0	träumen	kuss	besonnen	genießen	kreativ	anregung	töten	krise	bange	gemein	krank	ausrottung	gütig	engagiert	gesittet	vergnügt	vertrauen	sonnig	gierig	engstirnig	geizig	verbissen	versagen	sterben	1	blank2r.bmp	0	1	+	0	1	blank2r.bmp	500	2	B2r.bmp	500	1	blank2r.bmp	880	4	verbissen	880	1	FEHLER	1753	1	!	1313	1	!	-1	0	0	0
2024-05-23	11:14:06	11:22:11	484605	6.6.1	4_exp_EVA_AWA_CON	50	A	B	Rpleas_acq	Oppo	Rpleas	1pleas	acq_US_pleas_nomask	acq2_nomask	2	25	480	1	300	300	0	0	531	50	1	0	träumen	kuss	besonnen	genießen	kreativ	anregung	töten	krise	bange	gemein	krank	ausrottung	gütig	engagiert	gesittet	vergnügt	vertrauen	sonnig	gierig	engstirnig	geizig	verbissen	versagen	sterben	1	blank2r.bmp	0	1	+	0	1	blank2r.bmp	500	1	CPLW	500	1	blank2r.bmp	880	1	träumen	880	1	!	1313	1	!	1433	0	0	0	0	0	0
2024-05-23	11:14:06	11:22:14	486909	6.6.1	4_exp_EVA_AWA_CON	50	A	B	Rpleas_acq	Oppo	Rpleas	1pleas	acq_new_unple_nomask	acq2_nomask	2	26	480	1	300	300	0	0	523	46	1	0	träumen	kuss	besonnen	genießen	kreativ	anregung	töten	krise	bange	gemein	krank	ausrottung	gütig	engagiert	gesittet	vergnügt	vertrauen	sonnig	gierig	engstirnig	geizig	verbissen	versagen	sterben	1	blank2r.bmp	0	1	+	0	1	blank2r.bmp	500	5	C1r.bmp	500	1	blank2r.bmp	880	2	engstirnig	880	1	!	1313	1	!	1425	0	0	0	0	0	0
2024-05-23	11:14:06	11:22:16	489198	6.6.1	4_exp_EVA_AWA_CON	50	A	B	Rpleas_acq	Oppo	Rpleas	1pleas	acq_new_unple_nomask	acq2_nomask	2	27	480	1	300	300	0	0	510	46	1	0	träumen	kuss	besonnen	genießen	kreativ	anregung	töten	krise	bange	gemein	krank	ausrottung	gütig	engagiert	gesittet	vergnügt	vertrauen	sonnig	gierig	engstirnig	geizig	verbissen	versagen	sterben	1	blank2r.bmp	0	1	+	0	1	blank2r.bmp	500	8	C4r.bmp	500	1	blank2r.bmp	880	1	gierig	880	1	!	1313	1	!	1412	0	0	0	0	0	0
2024-05-23	11:14:06	11:22:18	491470	6.6.1	4_exp_EVA_AWA_CON	50	A	B	Rpleas_acq	Oppo	Rpleas	1pleas	acq_US_pleas_nomask	acq2_nomask	2	28	480	1	300	300	0	0	490	50	1	0	träumen	kuss	besonnen	genießen	kreativ	anregung	töten	krise	bange	gemein	krank	ausrottung	gütig	engagiert	gesittet	vergnügt	vertrauen	sonnig	gierig	engstirnig	geizig	verbissen	versagen	sterben	1	blank2r.bmp	0	1	+	0	1	blank2r.bmp	500	1	CPLW	500	1	blank2r.bmp	880	3	besonnen	880	1	!	1313	1	!	1392	0	0	0	0	0	0
2024-05-23	11:14:06	11:22:20	493797	6.6.1	4_exp_EVA_AWA_CON	50	A	B	Rpleas_acq	Oppo	Rpleas	1pleas	acq_US_unple_nomask	acq2_nomask	2	29	480	1	300	300	0	0	547	46	1	0	träumen	kuss	besonnen	genießen	kreativ	anregung	töten	krise	bange	gemein	krank	ausrottung	gütig	engagiert	gesittet	vergnügt	vertrauen	sonnig	gierig	engstirnig	geizig	verbissen	versagen	sterben	1	blank2r.bmp	0	1	+	0	1	blank2r.bmp	500	1	DHJF	500	1	blank2r.bmp	880	6	ausrottung	880	1	!	1313	1	!	1448	0	0	0	0	0	0
2024-05-23	11:14:06	11:22:23	496069	6.6.1	4_exp_EVA_AWA_CON	50	A	B	Rpleas_acq	Oppo	Rpleas	1pleas	acq_US_unple_nomask	acq2_nomask	2	30	480	1	300	300	0	0	498	46	1	0	träumen	kuss	besonnen	genießen	kreativ	anregung	töten	krise	bange	gemein	krank	ausrottung	gütig	engagiert	gesittet	vergnügt	vertrauen	sonnig	gierig	engstirnig	geizig	verbissen	versagen	sterben	1	blank2r.bmp	0	1	+	0	1	blank2r.bmp	500	1	DHJF	500	1	blank2r.bmp	880	3	bange	880	1	!	1313	1	!	1399	0	0	0	0	0	0
2024-05-23	11:14:06	11:22:25	498468	6.6.1	4_exp_EVA_AWA_CON	50	A	B	Rpleas_acq	Oppo	Rpleas	1pleas	acq_new_pleas_nomask	acq2_nomask	2	31	480	0	300	300	0	0	616	50	1	0	träumen	kuss	besonnen	genießen	kreativ	anregung	töten	krise	bange	gemein	krank	ausrottung	gütig	engagiert	gesittet	vergnügt	vertrauen	sonnig	gierig	engstirnig	geizig	verbissen	versagen	sterben	1	blank2r.bmp	0	1	+	0	1	blank2r.bmp	500	7	C3r.bmp	500	1	blank2r.bmp	880	2	engagiert	880	1	!	1313	1	!	-1	0	0	0	0	0	0
2024-05-23	11:14:06	11:22:27	500831	6.6.1	4_exp_EVA_AWA_CON	50	A	B	Rpleas_acq	Oppo	Rpleas	1pleas	acq_US_pleas_nomask	acq2_nomask	2	32	480	0	300	300	0	0	384	46	0	0	träumen	kuss	besonnen	genießen	kreativ	anregung	töten	krise	bange	gemein	krank	ausrottung	gütig	engagiert	gesittet	vergnügt	vertrauen	sonnig	gierig	engstirnig	geizig	verbissen	versagen	sterben	1	blank2r.bmp	0	1	+	0	1	blank2r.bmp	500	1	CPLW	500	1	blank2r.bmp	880	4	genießen	880	1	FEHLER	1578	1	!	-1	1	!	-1	0	0	0
2024-05-23	11:14:06	11:22:30	503220	6.6.1	4_exp_EVA_AWA_CON	50	A	B	Rpleas_acq	Oppo	Rpleas	1pleas	acq_US_unple_nomask	acq2_nomask	2	33	480	0	300	300	0	0	815	46	1	0	träumen	kuss	besonnen	genießen	kreativ	anregung	töten	krise	bange	gemein	krank	ausrottung	gütig	engagiert	gesittet	vergnügt	vertrauen	sonnig	gierig	engstirnig	geizig	verbissen	versagen	sterben	1	blank2r.bmp	0	1	+	0	1	blank2r.bmp	500	1	DHJF	500	1	blank2r.bmp	880	2	krise	880	1	!	1312	1	!	-1	0	0	0	0	0	0
2024-05-23	11:14:06	11:22:32	505596	6.6.1	4_exp_EVA_AWA_CON	50	A	B	Rpleas_acq	Oppo	Rpleas	1pleas	acq_new_pleas_nomask	acq2_nomask	2	34	480	0	300	300	0	0	599	50	1	0	träumen	kuss	besonnen	genießen	kreativ	anregung	töten	krise	bange	gemein	krank	ausrottung	gütig	engagiert	gesittet	vergnügt	vertrauen	sonnig	gierig	engstirnig	geizig	verbissen	versagen	sterben	1	blank2r.bmp	0	1	+	0	1	blank2r.bmp	500	4	B4r.bmp	500	1	blank2r.bmp	880	4	vergnügt	880	1	!	1313	1	!	-1	0	0	0	0	0	0
2024-05-23	11:14:06	11:22:35	508039	6.6.1	4_exp_EVA_AWA_CON	50	A	B	Rpleas_acq	Oppo	Rpleas	1pleas	acq_new_pleas_nomask	acq2_nomask	2	35	480	1	300	300	0	0	458	46	0	0	träumen	kuss	besonnen	genießen	kreativ	anregung	töten	krise	bange	gemein	krank	ausrottung	gütig	engagiert	gesittet	vergnügt	vertrauen	sonnig	gierig	engstirnig	geizig	verbissen	versagen	sterben	1	blank2r.bmp	0	1	+	0	1	blank2r.bmp	500	3	B3r.bmp	500	1	blank2r.bmp	880	3	gesittet	880	1	FEHLER	1651	1	!	1312	1	!	1359	0	0	0
2024-05-23	11:14:06	11:22:37	510279	6.6.1	4_exp_EVA_AWA_CON	50	A	B	Rpleas_acq	Oppo	Rpleas	1pleas	acq_new_unple_nomask	acq2_nomask	2	36	480	1	300	300	0	0	466	50	0	0	träumen	kuss	besonnen	genießen	kreativ	anregung	töten	krise	bange	gemein	krank	ausrottung	gütig	engagiert	gesittet	vergnügt	vertrauen	sonnig	gierig	engstirnig	geizig	verbissen	versagen	sterben	1	blank2r.bmp	0	1	+	0	1	blank2r.bmp	500	6	C2r.bmp	500	1	blank2r.bmp	880	6	sterben	880	1	FEHLER	1660	1	!	1313	1	!	1368	0	0	0
2024-05-23	11:14:06	11:23:05	538220	6.6.1	4_exp_EVA_AWA_CON	50	A	B	Rpleas_acq	Oppo	Rpleas	1pleas	acq_US_pleas_nomask	acq3_nomask	3	1	453	0	300	300	0	0	592	50	1	0	träumen	kuss	besonnen	genießen	kreativ	anregung	töten	krise	bange	gemein	krank	ausrottung	gütig	engagiert	gesittet	vergnügt	vertrauen	sonnig	gierig	engstirnig	geizig	verbissen	versagen	sterben	1	blank2r.bmp	0	1	+	0	1	blank2r.bmp	500	1	CPLW	500	1	blank2r.bmp	880	5	kreativ	880	1	!	1293	1	!	-1	0	0	0	0	0	0
2024-05-23	11:14:06	11:23:07	540405	6.6.1	4_exp_EVA_AWA_CON	50	A	B	Rpleas_acq	Oppo	Rpleas	1pleas	acq_US_unple_nomask	acq3_nomask	3	2	453	1	300	300	0	0	404	46	1	0	träumen	kuss	besonnen	genießen	kreativ	anregung	töten	krise	bange	gemein	krank	ausrottung	gütig	engagiert	gesittet	vergnügt	vertrauen	sonnig	gierig	engstirnig	geizig	verbissen	versagen	sterben	1	blank2r.bmp	0	1	+	0	1	blank2r.bmp	500	1	DHJF	500	1	blank2r.bmp	880	2	krise	880	1	!	1292	1	!	1306	0	0	0	0	0	0
2024-05-23	11:14:06	11:23:09	542685	6.6.1	4_exp_EVA_AWA_CON	50	A	B	Rpleas_acq	Oppo	Rpleas	1pleas	acq_US_unple_nomask	acq3_nomask	3	3	453	1	300	300	0	0	503	46	1	0	träumen	kuss	besonnen	genießen	kreativ	anregung	töten	krise	bange	gemein	krank	ausrottung	gütig	engagiert	gesittet	vergnügt	vertrauen	sonnig	gierig	engstirnig	geizig	verbissen	versagen	sterben	1	blank2r.bmp	0	1	+	0	1	blank2r.bmp	500	1	DHJF	500	1	blank2r.bmp	880	1	töten	880	1	!	1292	1	!	1405	0	0	0	0	0	0
2024-05-23	11:14:06	11:23:12	545056	6.6.1	4_exp_EVA_AWA_CON	50	A	B	Rpleas_acq	Oppo	Rpleas	1pleas	acq_US_pleas_nomask	acq3_nomask	3	4	453	0	300	300	0	0	389	46	0	0	träumen	kuss	besonnen	genießen	kreativ	anregung	töten	krise	bange	gemein	krank	ausrottung	gütig	engagiert	gesittet	vergnügt	vertrauen	sonnig	gierig	engstirnig	geizig	verbissen	versagen	sterben	1	blank2r.bmp	0	1	+	0	1	blank2r.bmp	500	1	CPLW	500	1	blank2r.bmp	880	1	träumen	880	1	FEHLER	1584	1	!	-1	1	!	-1	0	0	0
2024-05-23	11:14:06	11:23:14	547061	6.6.1	4_exp_EVA_AWA_CON	50	A	B	Rpleas_acq	Oppo	Rpleas	1pleas	acq_US_pleas_nomask	acq3_nomask	3	5	453	1	300	300	0	0	426	50	1	0	träumen	kuss	besonnen	genießen	kreativ	anregung	töten	krise	bange	gemein	krank	ausrottung	gütig	engagiert	gesittet	vergnügt	vertrauen	sonnig	gierig	engstirnig	geizig	verbissen	versagen	sterben	1	blank2r.bmp	0	1	+	0	1	blank2r.bmp	500	1	CPLW	500	1	blank2r.bmp	880	3	besonnen	880	1	!	1292	1	!	1328	0	0	0	0	0	0
2024-05-23	11:14:06	11:23:16	549438	6.6.1	4_exp_EVA_AWA_CON	50	A	B	Rpleas_acq	Oppo	Rpleas	1pleas	acq_US_unple_nomask	acq3_nomask	3	6	453	1	300	300	0	0	401	50	0	0	träumen	kuss	besonnen	genießen	kreativ	anregung	töten	krise	bange	gemein	krank	ausrottung	gütig	engagiert	gesittet	vergnügt	vertrauen	sonnig	gierig	engstirnig	geizig	verbissen	versagen	sterben	1	blank2r.bmp	0	1	+	0	1	blank2r.bmp	500	1	DHJF	500	1	blank2r.bmp	880	4	gemein	880	1	FEHLER	1593	1	!	1292	1	!	1300	0	0	0
2024-05-23	11:14:06	11:23:18	551533	6.6.1	4_exp_EVA_AWA_CON	50	A	B	Rpleas_acq	Oppo	Rpleas	1pleas	acq_US_unple_nomask	acq3_nomask	3	7	453	1	300	300	0	0	515	46	1	0	träumen	kuss	besonnen	genießen	kreativ	anregung	töten	krise	bange	gemein	krank	ausrottung	gütig	engagiert	gesittet	vergnügt	vertrauen	sonnig	gierig	engstirnig	geizig	verbissen	versagen	sterben	1	blank2r.bmp	0	1	+	0	1	blank2r.bmp	500	1	DHJF	500	1	blank2r.bmp	880	3	bange	880	1	!	1293	1	!	1417	0	0	0	0	0	0
2024-05-23	11:14:06	11:23:21	553982	6.6.1	4_exp_EVA_AWA_CON	50	A	B	Rpleas_acq	Oppo	Rpleas	1pleas	acq_US_unple_nomask	acq3_nomask	3	8	453	1	300	300	0	0	472	50	0	0	träumen	kuss	besonnen	genießen	kreativ	anregung	töten	krise	bange	gemein	krank	ausrottung	gütig	engagiert	gesittet	vergnügt	vertrauen	sonnig	gierig	engstirnig	geizig	verbissen	versagen	sterben	1	blank2r.bmp	0	1	+	0	1	blank2r.bmp	500	1	DHJF	500	1	blank2r.bmp	880	6	ausrottung	880	1	FEHLER	1665	1	!	1292	1	!	1373	0	0	0
2024-05-23	11:14:06	11:23:23	556100	6.6.1	4_exp_EVA_AWA_CON	50	A	B	Rpleas_acq	Oppo	Rpleas	1pleas	acq_US_pleas_nomask	acq3_nomask	3	9	453	0	300	300	0	0	540	50	1	0	träumen	kuss	besonnen	genießen	kreativ	anregung	töten	krise	bange	gemein	krank	ausrottung	gütig	engagiert	gesittet	vergnügt	vertrauen	sonnig	gierig	engstirnig	geizig	verbissen	versagen	sterben	1	blank2r.bmp	0	1	+	0	1	blank2r.bmp	500	1	CPLW	500	1	blank2r.bmp	880	4	genießen	880	1	!	1292	1	!	-1	0	0	0	0	0	0
2024-05-23	11:14:06	11:23:25	558397	6.6.1	4_exp_EVA_AWA_CON	50	A	B	Rpleas_acq	Oppo	Rpleas	1pleas	acq_US_unple_nomask	acq3_nomask	3	10	453	1	300	300	0	0	515	46	1	0	träumen	kuss	besonnen	genießen	kreativ	anregung	töten	krise	bange	gemein	krank	ausrottung	gütig	engagiert	gesittet	vergnügt	vertrauen	sonnig	gierig	engstirnig	geizig	verbissen	versagen	sterben	1	blank2r.bmp	0	1	+	0	1	blank2r.bmp	500	1	DHJF	500	1	blank2r.bmp	880	5	krank	880	1	!	1293	1	!	1416	0	0	0	0	0	0
2024-05-23	11:14:06	11:23:27	560661	6.6.1	4_exp_EVA_AWA_CON	50	A	B	Rpleas_acq	Oppo	Rpleas	1pleas	acq_US_pleas_nomask	acq3_nomask	3	11	453	1	300	300	0	0	487	50	1	0	träumen	kuss	besonnen	genießen	kreativ	anregung	töten	krise	bange	gemein	krank	ausrottung	gütig	engagiert	gesittet	vergnügt	vertrauen	sonnig	gierig	engstirnig	geizig	verbissen	versagen	sterben	1	blank2r.bmp	0	1	+	0	1	blank2r.bmp	500	1	CPLW	500	1	blank2r.bmp	880	6	anregung	880	1	!	1293	1	!	1389	0	0	0	0	0	0
2024-05-23	11:14:06	11:23:30	562877	6.6.1	4_exp_EVA_AWA_CON	50	A	B	Rpleas_acq	Oppo	Rpleas	1pleas	acq_US_pleas_nomask	acq3_nomask	3	12	453	1	300	300	0	0	442	50	1	0	träumen	kuss	besonnen	genießen	kreativ	anregung	töten	krise	bange	gemein	krank	ausrottung	gütig	engagiert	gesittet	vergnügt	vertrauen	sonnig	gierig	engstirnig	geizig	verbissen	versagen	sterben	1	blank2r.bmp	0	1	+	0	1	blank2r.bmp	500	1	CPLW	500	1	blank2r.bmp	880	2	kuss	880	1	!	1292	1	!	1343	0	0	0	0	0	0
2024-05-23	11:14:06	11:23:32	565044	6.6.1	4_exp_EVA_AWA_CON	50	A	B	Rpleas_acq	Oppo	Rpleas	1pleas	acq_US_unple_nomask	acq3_nomask	3	13	453	0	300	300	0	0	388	46	1	0	träumen	kuss	besonnen	genießen	kreativ	anregung	töten	krise	bange	gemein	krank	ausrottung	gütig	engagiert	gesittet	vergnügt	vertrauen	sonnig	gierig	engstirnig	geizig	verbissen	versagen	sterben	1	blank2r.bmp	0	1	+	0	1	blank2r.bmp	500	1	DHJF	500	1	blank2r.bmp	880	1	töten	880	1	!	-1	1	!	-1	0	0	0	0	0	0
2024-05-23	11:14:06	11:23:34	567564	6.6.1	4_exp_EVA_AWA_CON	50	A	B	Rpleas_acq	Oppo	Rpleas	1pleas	acq_US_unple_nomask	acq3_nomask	3	14	453	0	300	300	0	0	737	46	1	0	träumen	kuss	besonnen	genießen	kreativ	anregung	töten	krise	bange	gemein	krank	ausrottung	gütig	engagiert	gesittet	vergnügt	vertrauen	sonnig	gierig	engstirnig	geizig	verbissen	versagen	sterben	1	blank2r.bmp	0	1	+	0	1	blank2r.bmp	500	1	DHJF	500	1	blank2r.bmp	880	2	krise	880	1	!	1293	1	!	-1	0	0	0	0	0	0
2024-05-23	11:14:06	11:23:36	569821	6.6.1	4_exp_EVA_AWA_CON	50	A	B	Rpleas_acq	Oppo	Rpleas	1pleas	acq_US_pleas_nomask	acq3_nomask	3	15	453	1	300	300	0	0	481	50	1	0	träumen	kuss	besonnen	genießen	kreativ	anregung	töten	krise	bange	gemein	krank	ausrottung	gütig	engagiert	gesittet	vergnügt	vertrauen	sonnig	gierig	engstirnig	geizig	verbissen	versagen	sterben	1	blank2r.bmp	0	1	+	0	1	blank2r.bmp	500	1	CPLW	500	1	blank2r.bmp	880	6	anregung	880	1	!	1293	1	!	1383	0	0	0	0	0	0
2024-05-23	11:14:06	11:23:39	572037	6.6.1	4_exp_EVA_AWA_CON	50	A	B	Rpleas_acq	Oppo	Rpleas	1pleas	acq_US_pleas_nomask	acq3_nomask	3	16	453	1	300	300	0	0	436	50	1	0	träumen	kuss	besonnen	genießen	kreativ	anregung	töten	krise	bange	gemein	krank	ausrottung	gütig	engagiert	gesittet	vergnügt	vertrauen	sonnig	gierig	engstirnig	geizig	verbissen	versagen	sterben	1	blank2r.bmp	0	1	+	0	1	blank2r.bmp	500	1	CPLW	500	1	blank2r.bmp	880	3	besonnen	880	1	!	1292	1	!	1337	0	0	0	0	0	0
2024-05-23	11:14:06	11:23:41	574334	6.6.1	4_exp_EVA_AWA_CON	50	A	B	Rpleas_acq	Oppo	Rpleas	1pleas	acq_US_pleas_nomask	acq3_nomask	3	17	453	1	300	300	0	0	520	50	1	0	träumen	kuss	besonnen	genießen	kreativ	anregung	töten	krise	bange	gemein	krank	ausrottung	gütig	engagiert	gesittet	vergnügt	vertrauen	sonnig	gierig	engstirnig	geizig	verbissen	versagen	sterben	1	blank2r.bmp	0	1	+	0	1	blank2r.bmp	500	1	CPLW	500	1	blank2r.bmp	880	2	kuss	880	1	!	1292	1	!	1422	0	0	0	0	0	0
2024-05-23	11:14:06	11:23:43	576634	6.6.1	4_exp_EVA_AWA_CON	50	A	B	Rpleas_acq	Oppo	Rpleas	1pleas	acq_US_unple_nomask	acq3_nomask	3	18	453	0	300	300	0	0	523	46	1	0	träumen	kuss	besonnen	genießen	kreativ	anregung	töten	krise	bange	gemein	krank	ausrottung	gütig	engagiert	gesittet	vergnügt	vertrauen	sonnig	gierig	engstirnig	geizig	verbissen	versagen	sterben	1	blank2r.bmp	0	1	+	0	1	blank2r.bmp	500	1	DHJF	500	1	blank2r.bmp	880	4	gemein	880	1	!	1293	1	!	-1	0	0	0	0	0	0
2024-05-23	11:14:06	11:23:46	578938	6.6.1	4_exp_EVA_AWA_CON	50	A	B	Rpleas_acq	Oppo	Rpleas	1pleas	acq_US_unple_nomask	acq3_nomask	3	19	453	0	300	300	0	0	525	46	1	0	träumen	kuss	besonnen	genießen	kreativ	anregung	töten	krise	bange	gemein	krank	ausrottung	gütig	engagiert	gesittet	vergnügt	vertrauen	sonnig	gierig	engstirnig	geizig	verbissen	versagen	sterben	1	blank2r.bmp	0	1	+	0	1	blank2r.bmp	500	1	DHJF	500	1	blank2r.bmp	880	3	bange	880	1	!	1293	1	!	-1	0	0	0	0	0	0
2024-05-23	11:14:06	11:23:48	581284	6.6.1	4_exp_EVA_AWA_CON	50	A	B	Rpleas_acq	Oppo	Rpleas	1pleas	acq_US_pleas_nomask	acq3_nomask	3	20	453	0	300	300	0	0	568	50	1	0	träumen	kuss	besonnen	genießen	kreativ	anregung	töten	krise	bange	gemein	krank	ausrottung	gütig	engagiert	gesittet	vergnügt	vertrauen	sonnig	gierig	engstirnig	geizig	verbissen	versagen	sterben	1	blank2r.bmp	0	1	+	0	1	blank2r.bmp	500	1	CPLW	500	1	blank2r.bmp	880	5	kreativ	880	1	!	1293	1	!	-1	0	0	0	0	0	0
2024-05-23	11:14:06	11:23:50	583671	6.6.1	4_exp_EVA_AWA_CON	50	A	B	Rpleas_acq	Oppo	Rpleas	1pleas	acq_US_unple_nomask	acq3_nomask	3	21	453	1	300	300	0	0	410	50	0	0	träumen	kuss	besonnen	genießen	kreativ	anregung	töten	krise	bange	gemein	krank	ausrottung	gütig	engagiert	gesittet	vergnügt	vertrauen	sonnig	gierig	engstirnig	geizig	verbissen	versagen	sterben	1	blank2r.bmp	0	1	+	0	1	blank2r.bmp	500	1	DHJF	500	1	blank2r.bmp	880	5	krank	880	1	FEHLER	1604	1	!	1293	1	!	1313	0	0	0
2024-05-23	11:14:06	11:23:52	585796	6.6.1	4_exp_EVA_AWA_CON	50	A	B	Rpleas_acq	Oppo	Rpleas	1pleas	acq_US_pleas_nomask	acq3_nomask	3	22	453	0	300	300	0	0	547	50	1	0	träumen	kuss	besonnen	genießen	kreativ	anregung	töten	krise	bange	gemein	krank	ausrottung	gütig	engagiert	gesittet	vergnügt	vertrauen	sonnig	gierig	engstirnig	geizig	verbissen	versagen	sterben	1	blank2r.bmp	0	1	+	0	1	blank2r.bmp	500	1	CPLW	500	1	blank2r.bmp	880	4	genießen	880	1	!	1293	1	!	-1	0	0	0	0	0	0
2024-05-23	11:14:06	11:23:55	588077	6.6.1	4_exp_EVA_AWA_CON	50	A	B	Rpleas_acq	Oppo	Rpleas	1pleas	acq_US_pleas_nomask	acq3_nomask	3	23	453	1	300	300	0	0	505	50	1	0	träumen	kuss	besonnen	genießen	kreativ	anregung	töten	krise	bange	gemein	krank	ausrottung	gütig	engagiert	gesittet	vergnügt	vertrauen	sonnig	gierig	engstirnig	geizig	verbissen	versagen	sterben	1	blank2r.bmp	0	1	+	0	1	blank2r.bmp	500	1	CPLW	500	1	blank2r.bmp	880	1	träumen	880	1	!	1293	1	!	1407	0	0	0	0	0	0
2024-05-23	11:14:06	11:23:57	590325	6.6.1	4_exp_EVA_AWA_CON	50	A	B	Rpleas_acq	Oppo	Rpleas	1pleas	acq_US_unple_nomask	acq3_nomask	3	24	453	1	300	300	0	0	472	46	1	0	träumen	kuss	besonnen	genießen	kreativ	anregung	töten	krise	bange	gemein	krank	ausrottung	gütig	engagiert	gesittet	vergnügt	vertrauen	sonnig	gierig	engstirnig	geizig	verbissen	versagen	sterben	1	blank2r.bmp	0	1	+	0	1	blank2r.bmp	500	1	DHJF	500	1	blank2r.bmp	880	6	ausrottung	880	1	!	1292	1	!	1373	0	0	0	0	0	0
2024-05-23	11:14:06	11:23:59	592791	6.6.1	4_exp_EVA_AWA_CON	50	A	B	Rpleas_acq	Oppo	Rpleas	1pleas	acq_US_pleas_nomask	acq3_nomask	3	25	453	1	300	300	0	0	484	46	0	0	träumen	kuss	besonnen	genießen	kreativ	anregung	töten	krise	bange	gemein	krank	ausrottung	gütig	engagiert	gesittet	vergnügt	vertrauen	sonnig	gierig	engstirnig	geizig	verbissen	versagen	sterben	1	blank2r.bmp	0	1	+	0	1	blank2r.bmp	500	1	CPLW	500	1	blank2r.bmp	880	4	genießen	880	1	FEHLER	1678	1	!	1293	1	!	1386	0	0	0
2024-05-23	11:14:06	11:24:02	594853	6.6.1	4_exp_EVA_AWA_CON	50	A	B	Rpleas_acq	Oppo	Rpleas	1pleas	acq_US_pleas_nomask	acq3_nomask	3	26	453	1	300	300	0	0	487	50	1	0	träumen	kuss	besonnen	genießen	kreativ	anregung	töten	krise	bange	gemein	krank	ausrottung	gütig	engagiert	gesittet	vergnügt	vertrauen	sonnig	gierig	engstirnig	geizig	verbissen	versagen	sterben	1	blank2r.bmp	0	1	+	0	1	blank2r.bmp	500	1	CPLW	500	1	blank2r.bmp	880	2	kuss	880	1	!	1292	1	!	1388	0	0	0	0	0	0
2024-05-23	11:14:06	11:24:04	597171	6.6.1	4_exp_EVA_AWA_CON	50	A	B	Rpleas_acq	Oppo	Rpleas	1pleas	acq_US_unple_nomask	acq3_nomask	3	27	453	0	300	300	0	0	545	46	1	0	träumen	kuss	besonnen	genießen	kreativ	anregung	töten	krise	bange	gemein	krank	ausrottung	gütig	engagiert	gesittet	vergnügt	vertrauen	sonnig	gierig	engstirnig	geizig	verbissen	versagen	sterben	1	blank2r.bmp	0	1	+	0	1	blank2r.bmp	500	1	DHJF	500	1	blank2r.bmp	880	1	töten	880	1	!	1292	1	!	-1	0	0	0	0	0	0
2024-05-23	11:14:06	11:24:06	599413	6.6.1	4_exp_EVA_AWA_CON	50	A	B	Rpleas_acq	Oppo	Rpleas	1pleas	acq_US_unple_nomask	acq3_nomask	3	28	453	1	300	300	0	0	464	46	1	0	träumen	kuss	besonnen	genießen	kreativ	anregung	töten	krise	bange	gemein	krank	ausrottung	gütig	engagiert	gesittet	vergnügt	vertrauen	sonnig	gierig	engstirnig	geizig	verbissen	versagen	sterben	1	blank2r.bmp	0	1	+	0	1	blank2r.bmp	500	1	DHJF	500	1	blank2r.bmp	880	2	krise	880	1	!	1293	1	!	1365	0	0	0	0	0	0
2024-05-23	11:14:06	11:24:08	601677	6.6.1	4_exp_EVA_AWA_CON	50	A	B	Rpleas_acq	Oppo	Rpleas	1pleas	acq_US_unple_nomask	acq3_nomask	3	29	453	1	300	300	0	0	486	46	1	0	träumen	kuss	besonnen	genießen	kreativ	anregung	töten	krise	bange	gemein	krank	ausrottung	gütig	engagiert	gesittet	vergnügt	vertrauen	sonnig	gierig	engstirnig	geizig	verbissen	versagen	sterben	1	blank2r.bmp	0	1	+	0	1	blank2r.bmp	500	1	DHJF	500	1	blank2r.bmp	880	6	ausrottung	880	1	!	1293	1	!	1388	0	0	0	0	0	0
2024-05-23	11:14:06	11:24:11	603957	6.6.1	4_exp_EVA_AWA_CON	50	A	B	Rpleas_acq	Oppo	Rpleas	1pleas	acq_US_pleas_nomask	acq3_nomask	3	30	453	1	300	300	0	0	505	50	1	0	träumen	kuss	besonnen	genießen	kreativ	anregung	töten	krise	bange	gemein	krank	ausrottung	gütig	engagiert	gesittet	vergnügt	vertrauen	sonnig	gierig	engstirnig	geizig	verbissen	versagen	sterben	1	blank2r.bmp	0	1	+	0	1	blank2r.bmp	500	1	CPLW	500	1	blank2r.bmp	880	1	träumen	880	1	!	1292	1	!	1407	0	0	0	0	0	0
2024-05-23	11:14:06	11:24:13	606157	6.6.1	4_exp_EVA_AWA_CON	50	A	B	Rpleas_acq	Oppo	Rpleas	1pleas	acq_US_unple_nomask	acq3_nomask	3	31	453	1	300	300	0	0	423	46	1	0	träumen	kuss	besonnen	genießen	kreativ	anregung	töten	krise	bange	gemein	krank	ausrottung	gütig	engagiert	gesittet	vergnügt	vertrauen	sonnig	gierig	engstirnig	geizig	verbissen	versagen	sterben	1	blank2r.bmp	0	1	+	0	1	blank2r.bmp	500	1	DHJF	500	1	blank2r.bmp	880	4	gemein	880	1	!	1293	1	!	1325	0	0	0	0	0	0
2024-05-23	11:14:06	11:24:15	608414	6.6.1	4_exp_EVA_AWA_CON	50	A	B	Rpleas_acq	Oppo	Rpleas	1pleas	acq_US_pleas_nomask	acq3_nomask	3	32	453	1	300	300	0	0	478	50	1	0	träumen	kuss	besonnen	genießen	kreativ	anregung	töten	krise	bange	gemein	krank	ausrottung	gütig	engagiert	gesittet	vergnügt	vertrauen	sonnig	gierig	engstirnig	geizig	verbissen	versagen	sterben	1	blank2r.bmp	0	1	+	0	1	blank2r.bmp	500	1	CPLW	500	1	blank2r.bmp	880	5	kreativ	880	1	!	1292	1	!	1379	0	0	0	0	0	0
2024-05-23	11:14:06	11:24:17	610815	6.6.1	4_exp_EVA_AWA_CON	50	A	B	Rpleas_acq	Oppo	Rpleas	1pleas	acq_US_pleas_nomask	acq3_nomask	3	33	453	1	300	300	0	0	417	46	0	0	träumen	kuss	besonnen	genießen	kreativ	anregung	töten	krise	bange	gemein	krank	ausrottung	gütig	engagiert	gesittet	vergnügt	vertrauen	sonnig	gierig	engstirnig	geizig	verbissen	versagen	sterben	1	blank2r.bmp	0	1	+	0	1	blank2r.bmp	500	1	CPLW	500	1	blank2r.bmp	880	6	anregung	880	1	FEHLER	1610	1	!	1293	1	!	1318	0	0	0
2024-05-23	11:14:06	11:24:20	612869	6.6.1	4_exp_EVA_AWA_CON	50	A	B	Rpleas_acq	Oppo	Rpleas	1pleas	acq_US_pleas_nomask	acq3_nomask	3	34	453	1	300	300	0	0	481	50	1	0	träumen	kuss	besonnen	genießen	kreativ	anregung	töten	krise	bange	gemein	krank	ausrottung	gütig	engagiert	gesittet	vergnügt	vertrauen	sonnig	gierig	engstirnig	geizig	verbissen	versagen	sterben	1	blank2r.bmp	0	1	+	0	1	blank2r.bmp	500	1	CPLW	500	1	blank2r.bmp	880	3	besonnen	880	1	!	1293	1	!	1383	0	0	0	0	0	0
2024-05-23	11:14:06	11:24:22	615141	6.6.1	4_exp_EVA_AWA_CON	50	A	B	Rpleas_acq	Oppo	Rpleas	1pleas	acq_US_unple_nomask	acq3_nomask	3	35	453	1	300	300	0	0	492	46	1	0	träumen	kuss	besonnen	genießen	kreativ	anregung	töten	krise	bange	gemein	krank	ausrottung	gütig	engagiert	gesittet	vergnügt	vertrauen	sonnig	gierig	engstirnig	geizig	verbissen	versagen	sterben	1	blank2r.bmp	0	1	+	0	1	blank2r.bmp	500	1	DHJF	500	1	blank2r.bmp	880	3	bange	880	1	!	1292	1	!	1393	0	0	0	0	0	0
2024-05-23	11:14:06	11:24:24	617531	6.6.1	4_exp_EVA_AWA_CON	50	A	B	Rpleas_acq	Oppo	Rpleas	1pleas	acq_US_unple_nomask	acq3_nomask	3	36	453	0	300	300	0	0	612	46	1	0	träumen	kuss	besonnen	genießen	kreativ	anregung	töten	krise	bange	gemein	krank	ausrottung	gütig	engagiert	gesittet	vergnügt	vertrauen	sonnig	gierig	engstirnig	geizig	verbissen	versagen	sterben	1	blank2r.bmp	0	1	+	0	1	blank2r.bmp	500	1	DHJF	500	1	blank2r.bmp	880	5	krank	880	1	!	1293	1	!	-1	0	0	0	0	0	0
2024-05-23	11:14:06	11:24:51	644348	6.6.1	4_exp_EVA_AWA_CON	50	A	B	Rpleas_acq	Oppo	Rpleas	1pleas	acq_US_pleas_nomask	acq45_nomask	4	1	400	0	300	300	0	0	671	50	1	0	träumen	kuss	besonnen	genießen	kreativ	anregung	töten	krise	bange	gemein	krank	ausrottung	gütig	engagiert	gesittet	vergnügt	vertrauen	sonnig	gierig	engstirnig	geizig	verbissen	versagen	sterben	1	blank2r.bmp	0	1	+	0	1	blank2r.bmp	500	1	CPLW	500	1	blank2r.bmp	880	5	kreativ	880	1	!	1232	1	!	-1	0	0	0	0	0	0
2024-05-23	11:14:06	11:24:53	646557	6.6.1	4_exp_EVA_AWA_CON	50	A	B	Rpleas_acq	Oppo	Rpleas	1pleas	acq_US_unple_nomask	acq45_nomask	4	2	400	1	300	300	0	0	427	46	1	0	träumen	kuss	besonnen	genießen	kreativ	anregung	töten	krise	bange	gemein	krank	ausrottung	gütig	engagiert	gesittet	vergnügt	vertrauen	sonnig	gierig	engstirnig	geizig	verbissen	versagen	sterben	1	blank2r.bmp	0	1	+	0	1	blank2r.bmp	500	1	DHJF	500	1	blank2r.bmp	880	6	ausrottung	880	1	!	1233	1	!	1329	0	0	0	0	0	0
2024-05-23	11:14:06	11:24:55	648802	6.6.1	4_exp_EVA_AWA_CON	50	A	B	Rpleas_acq	Oppo	Rpleas	1pleas	acq_US_pleas_nomask	acq45_nomask	4	3	400	0	300	300	0	0	474	46	0	0	träumen	kuss	besonnen	genießen	kreativ	anregung	töten	krise	bange	gemein	krank	ausrottung	gütig	engagiert	gesittet	vergnügt	vertrauen	sonnig	gierig	engstirnig	geizig	verbissen	versagen	sterben	1	blank2r.bmp	0	1	+	0	1	blank2r.bmp	500	1	CPLW	500	1	blank2r.bmp	880	6	anregung	880	1	!	1232	1	!	-1	0	0	0	0	0	0
2024-05-23	11:14:06	11:24:58	650982	6.6.1	4_exp_EVA_AWA_CON	50	A	B	Rpleas_acq	Oppo	Rpleas	1pleas	acq_US_pleas_nomask	acq45_nomask	4	4	400	1	300	300	0	0	398	46	0	0	träumen	kuss	besonnen	genießen	kreativ	anregung	töten	krise	bange	gemein	krank	ausrottung	gütig	engagiert	gesittet	vergnügt	vertrauen	sonnig	gierig	engstirnig	geizig	verbissen	versagen	sterben	1	blank2r.bmp	0	1	+	0	1	blank2r.bmp	500	1	CPLW	500	1	blank2r.bmp	880	3	besonnen	880	1	!	1232	1	!	1300	0	0	0	0	0	0
2024-05-23	11:14:06	11:25:00	653284	6.6.1	4_exp_EVA_AWA_CON	50	A	B	Rpleas_acq	Oppo	Rpleas	1pleas	acq_US_pleas_nomask	acq45_nomask	4	5	400	0	300	300	0	0	521	50	1	0	träumen	kuss	besonnen	genießen	kreativ	anregung	töten	krise	bange	gemein	krank	ausrottung	gütig	engagiert	gesittet	vergnügt	vertrauen	sonnig	gierig	engstirnig	geizig	verbissen	versagen	sterben	1	blank2r.bmp	0	1	+	0	1	blank2r.bmp	500	1	CPLW	500	1	blank2r.bmp	880	2	kuss	880	1	!	1232	1	!	-1	0	0	0	0	0	0
2024-05-23	11:14:06	11:25:02	655538	6.6.1	4_exp_EVA_AWA_CON	50	A	B	Rpleas_acq	Oppo	Rpleas	1pleas	acq_US_unple_nomask	acq45_nomask	4	6	400	0	300	300	0	0	475	46	1	0	träumen	kuss	besonnen	genießen	kreativ	anregung	töten	krise	bange	gemein	krank	ausrottung	gütig	engagiert	gesittet	vergnügt	vertrauen	sonnig	gierig	engstirnig	geizig	verbissen	versagen	sterben	1	blank2r.bmp	0	1	+	0	1	blank2r.bmp	500	1	DHJF	500	1	blank2r.bmp	880	2	krise	880	1	!	1232	1	!	-1	0	0	0	0	0	0
2024-05-23	11:14:06	11:25:04	657733	6.6.1	4_exp_EVA_AWA_CON	50	A	B	Rpleas_acq	Oppo	Rpleas	1pleas	acq_US_unple_nomask	acq45_nomask	4	7	400	1	300	300	0	0	416	50	0	0	träumen	kuss	besonnen	genießen	kreativ	anregung	töten	krise	bange	gemein	krank	ausrottung	gütig	engagiert	gesittet	vergnügt	vertrauen	sonnig	gierig	engstirnig	geizig	verbissen	versagen	sterben	1	blank2r.bmp	0	1	+	0	1	blank2r.bmp	500	1	DHJF	500	1	blank2r.bmp	880	4	gemein	880	1	!	1232	1	!	1317	0	0	0	0	0	0
2024-05-23	11:14:06	11:25:07	659941	6.6.1	4_exp_EVA_AWA_CON	50	A	B	Rpleas_acq	Oppo	Rpleas	1pleas	acq_US_pleas_nomask	acq45_nomask	4	8	400	1	300	300	0	0	432	50	1	0	träumen	kuss	besonnen	genießen	kreativ	anregung	töten	krise	bange	gemein	krank	ausrottung	gütig	engagiert	gesittet	vergnügt	vertrauen	sonnig	gierig	engstirnig	geizig	verbissen	versagen	sterben	1	blank2r.bmp	0	1	+	0	1	blank2r.bmp	500	1	CPLW	500	1	blank2r.bmp	880	4	genießen	880	1	!	1233	1	!	1334	0	0	0	0	0	0
2024-05-23	11:14:06	11:25:09	662141	6.6.1	4_exp_EVA_AWA_CON	50	A	B	Rpleas_acq	Oppo	Rpleas	1pleas	acq_US_unple_nomask	acq45_nomask	4	9	400	1	300	300	0	0	421	46	1	0	träumen	kuss	besonnen	genießen	kreativ	anregung	töten	krise	bange	gemein	krank	ausrottung	gütig	engagiert	gesittet	vergnügt	vertrauen	sonnig	gierig	engstirnig	geizig	verbissen	versagen	sterben	1	blank2r.bmp	0	1	+	0	1	blank2r.bmp	500	1	DHJF	500	1	blank2r.bmp	880	1	töten	880	1	!	1233	1	!	1323	0	0	0	0	0	0
2024-05-23	11:14:06	11:25:11	664342	6.6.1	4_exp_EVA_AWA_CON	50	A	B	Rpleas_acq	Oppo	Rpleas	1pleas	acq_US_pleas_nomask	acq45_nomask	4	10	400	1	300	300	0	0	419	46	0	0	träumen	kuss	besonnen	genießen	kreativ	anregung	töten	krise	bange	gemein	krank	ausrottung	gütig	engagiert	gesittet	vergnügt	vertrauen	sonnig	gierig	engstirnig	geizig	verbissen	versagen	sterben	1	blank2r.bmp	0	1	+	0	1	blank2r.bmp	500	1	CPLW	500	1	blank2r.bmp	880	1	träumen	880	1	!	1232	1	!	1322	0	0	0	0	0	0
2024-05-23	11:14:06	11:25:13	666724	6.6.1	4_exp_EVA_AWA_CON	50	A	B	Rpleas_acq	Oppo	Rpleas	1pleas	acq_US_unple_nomask	acq45_nomask	4	11	400	0	300	300	0	0	602	46	1	0	träumen	kuss	besonnen	genießen	kreativ	anregung	töten	krise	bange	gemein	krank	ausrottung	gütig	engagiert	gesittet	vergnügt	vertrauen	sonnig	gierig	engstirnig	geizig	verbissen	versagen	sterben	1	blank2r.bmp	0	1	+	0	1	blank2r.bmp	500	1	DHJF	500	1	blank2r.bmp	880	5	krank	880	1	!	1232	1	!	-1	0	0	0	0	0	0
2024-05-23	11:14:06	11:25:16	668894	6.6.1	4_exp_EVA_AWA_CON	50	A	B	Rpleas_acq	Oppo	Rpleas	1pleas	acq_US_unple_nomask	acq45_nomask	4	12	400	1	300	300	0	0	389	50	0	0	träumen	kuss	besonnen	genießen	kreativ	anregung	töten	krise	bange	gemein	krank	ausrottung	gütig	engagiert	gesittet	vergnügt	vertrauen	sonnig	gierig	engstirnig	geizig	verbissen	versagen	sterben	1	blank2r.bmp	0	1	+	0	1	blank2r.bmp	500	1	DHJF	500	1	blank2r.bmp	880	3	bange	880	1	!	1233	1	!	1290	0	0	0	0	0	0
2024-05-23	11:14:06	11:25:18	671141	6.6.1	4_exp_EVA_AWA_CON	50	A	B	Rpleas_acq	Oppo	Rpleas	1pleas	acq_US_pleas_nomask	acq45_nomask	4	13	400	1	300	300	0	0	465	46	0	0	träumen	kuss	besonnen	genießen	kreativ	anregung	töten	krise	bange	gemein	krank	ausrottung	gütig	engagiert	gesittet	vergnügt	vertrauen	sonnig	gierig	engstirnig	geizig	verbissen	versagen	sterben	1	blank2r.bmp	0	1	+	0	1	blank2r.bmp	500	1	CPLW	500	1	blank2r.bmp	880	1	träumen	880	1	!	1232	1	!	1367	0	0	0	0	0	0
2024-05-23	11:14:06	11:25:20	673444	6.6.1	4_exp_EVA_AWA_CON	50	A	B	Rpleas_acq	Oppo	Rpleas	1pleas	acq_US_unple_nomask	acq45_nomask	4	14	400	0	300	300	0	0	528	46	1	0	träumen	kuss	besonnen	genießen	kreativ	anregung	töten	krise	bange	gemein	krank	ausrottung	gütig	engagiert	gesittet	vergnügt	vertrauen	sonnig	gierig	engstirnig	geizig	verbissen	versagen	sterben	1	blank2r.bmp	0	1	+	0	1	blank2r.bmp	500	1	DHJF	500	1	blank2r.bmp	880	2	krise	880	1	!	1232	1	!	-1	0	0	0	0	0	0
2024-05-23	11:14:06	11:25:22	675621	6.6.1	4_exp_EVA_AWA_CON	50	A	B	Rpleas_acq	Oppo	Rpleas	1pleas	acq_US_pleas_nomask	acq45_nomask	4	15	400	1	300	300	0	0	402	50	1	0	träumen	kuss	besonnen	genießen	kreativ	anregung	töten	krise	bange	gemein	krank	ausrottung	gütig	engagiert	gesittet	vergnügt	vertrauen	sonnig	gierig	engstirnig	geizig	verbissen	versagen	sterben	1	blank2r.bmp	0	1	+	0	1	blank2r.bmp	500	1	CPLW	500	1	blank2r.bmp	880	2	kuss	880	1	!	1233	1	!	1304	0	0	0	0	0	0
2024-05-23	11:14:06	11:25:25	677900	6.6.1	4_exp_EVA_AWA_CON	50	A	B	Rpleas_acq	Oppo	Rpleas	1pleas	acq_US_pleas_nomask	acq45_nomask	4	16	400	0	300	300	0	0	501	46	0	0	träumen	kuss	besonnen	genießen	kreativ	anregung	töten	krise	bange	gemein	krank	ausrottung	gütig	engagiert	gesittet	vergnügt	vertrauen	sonnig	gierig	engstirnig	geizig	verbissen	versagen	sterben	1	blank2r.bmp	0	1	+	0	1	blank2r.bmp	500	1	CPLW	500	1	blank2r.bmp	880	6	anregung	880	1	!	1232	1	!	-1	0	0	0	0	0	0
2024-05-23	11:14:06	11:25:27	680204	6.6.1	4_exp_EVA_AWA_CON	50	A	B	Rpleas_acq	Oppo	Rpleas	1pleas	acq_US_unple_nomask	acq45_nomask	4	17	400	0	300	300	0	0	523	46	1	0	träumen	kuss	besonnen	genießen	kreativ	anregung	töten	krise	bange	gemein	krank	ausrottung	gütig	engagiert	gesittet	vergnügt	vertrauen	sonnig	gierig	engstirnig	geizig	verbissen	versagen	sterben	1	blank2r.bmp	0	1	+	0	1	blank2r.bmp	500	1	DHJF	500	1	blank2r.bmp	880	5	krank	880	1	!	1232	1	!	-1	0	0	0	0	0	0
2024-05-23	11:14:06	11:25:29	682507	6.6.1	4_exp_EVA_AWA_CON	50	A	B	Rpleas_acq	Oppo	Rpleas	1pleas	acq_US_unple_nomask	acq45_nomask	4	18	400	0	300	300	0	0	526	46	1	0	träumen	kuss	besonnen	genießen	kreativ	anregung	töten	krise	bange	gemein	krank	ausrottung	gütig	engagiert	gesittet	vergnügt	vertrauen	sonnig	gierig	engstirnig	geizig	verbissen	versagen	sterben	1	blank2r.bmp	0	1	+	0	1	blank2r.bmp	500	1	DHJF	500	1	blank2r.bmp	880	1	töten	880	1	!	1232	1	!	-1	0	0	0	0	0	0
2024-05-23	11:14:06	11:25:31	684755	6.6.1	4_exp_EVA_AWA_CON	50	A	B	Rpleas_acq	Oppo	Rpleas	1pleas	acq_US_unple_nomask	acq45_nomask	4	19	400	0	300	300	0	0	473	46	1	0	träumen	kuss	besonnen	genießen	kreativ	anregung	töten	krise	bange	gemein	krank	ausrottung	gütig	engagiert	gesittet	vergnügt	vertrauen	sonnig	gierig	engstirnig	geizig	verbissen	versagen	sterben	1	blank2r.bmp	0	1	+	0	1	blank2r.bmp	500	1	DHJF	500	1	blank2r.bmp	880	3	bange	880	1	!	1232	1	!	-1	0	0	0	0	0	0
2024-05-23	11:14:06	11:25:34	687010	6.6.1	4_exp_EVA_AWA_CON	50	A	B	Rpleas_acq	Oppo	Rpleas	1pleas	acq_US_unple_nomask	acq45_nomask	4	20	400	0	300	300	0	0	477	46	1	0	träumen	kuss	besonnen	genießen	kreativ	anregung	töten	krise	bange	gemein	krank	ausrottung	gütig	engagiert	gesittet	vergnügt	vertrauen	sonnig	gierig	engstirnig	geizig	verbissen	versagen	sterben	1	blank2r.bmp	0	1	+	0	1	blank2r.bmp	500	1	DHJF	500	1	blank2r.bmp	880	6	ausrottung	880	1	!	1232	1	!	-1	0	0	0	0	0	0
2024-05-23	11:14:06	11:25:36	689276	6.6.1	4_exp_EVA_AWA_CON	50	A	B	Rpleas_acq	Oppo	Rpleas	1pleas	acq_US_pleas_nomask	acq45_nomask	4	21	400	0	300	300	0	0	489	50	1	0	träumen	kuss	besonnen	genießen	kreativ	anregung	töten	krise	bange	gemein	krank	ausrottung	gütig	engagiert	gesittet	vergnügt	vertrauen	sonnig	gierig	engstirnig	geizig	verbissen	versagen	sterben	1	blank2r.bmp	0	1	+	0	1	blank2r.bmp	500	1	CPLW	500	1	blank2r.bmp	880	4	genießen	880	1	!	1233	1	!	-1	0	0	0	0	0	0
2024-05-23	11:14:06	11:25:38	691470	6.6.1	4_exp_EVA_AWA_CON	50	A	B	Rpleas_acq	Oppo	Rpleas	1pleas	acq_US_pleas_nomask	acq45_nomask	4	22	400	1	300	300	0	0	410	50	1	0	träumen	kuss	besonnen	genießen	kreativ	anregung	töten	krise	bange	gemein	krank	ausrottung	gütig	engagiert	gesittet	vergnügt	vertrauen	sonnig	gierig	engstirnig	geizig	verbissen	versagen	sterben	1	blank2r.bmp	0	1	+	0	1	blank2r.bmp	500	1	CPLW	500	1	blank2r.bmp	880	5	kreativ	880	1	!	1232	1	!	1312	0	0	0	0	0	0
2024-05-23	11:14:06	11:25:40	693710	6.6.1	4_exp_EVA_AWA_CON	50	A	B	Rpleas_acq	Oppo	Rpleas	1pleas	acq_US_unple_nomask	acq45_nomask	4	23	400	1	300	300	0	0	458	50	0	0	träumen	kuss	besonnen	genießen	kreativ	anregung	töten	krise	bange	gemein	krank	ausrottung	gütig	engagiert	gesittet	vergnügt	vertrauen	sonnig	gierig	engstirnig	geizig	verbissen	versagen	sterben	1	blank2r.bmp	0	1	+	0	1	blank2r.bmp	500	1	DHJF	500	1	blank2r.bmp	880	4	gemein	880	1	!	1232	1	!	1360	0	0	0	0	0	0
2024-05-23	11:14:06	11:25:43	695942	6.6.1	4_exp_EVA_AWA_CON	50	A	B	Rpleas_acq	Oppo	Rpleas	1pleas	acq_US_unple_nomask	acq45_nomask	4	24	400	1	300	300	0	0	449	46	1	0	träumen	kuss	besonnen	genießen	kreativ	anregung	töten	krise	bange	gemein	krank	ausrottung	gütig	engagiert	gesittet	vergnügt	vertrauen	sonnig	gierig	engstirnig	geizig	verbissen	versagen	sterben	1	blank2r.bmp	0	1	+	0	1	blank2r.bmp	500	1	DHJF	500	1	blank2r.bmp	880	5	krank	880	1	!	1232	1	!	1350	0	0	0	0	0	0
2024-05-23	11:14:06	11:25:45	698202	6.6.1	4_exp_EVA_AWA_CON	50	A	B	Rpleas_acq	Oppo	Rpleas	1pleas	acq_US_unple_nomask	acq45_nomask	4	25	400	0	300	300	0	0	481	46	1	0	träumen	kuss	besonnen	genießen	kreativ	anregung	töten	krise	bange	gemein	krank	ausrottung	gütig	engagiert	gesittet	vergnügt	vertrauen	sonnig	gierig	engstirnig	geizig	verbissen	versagen	sterben	1	blank2r.bmp	0	1	+	0	1	blank2r.bmp	500	1	DHJF	500	1	blank2r.bmp	880	2	krise	880	1	!	1232	1	!	-1	0	0	0	0	0	0
2024-05-23	11:14:06	11:25:47	700437	6.6.1	4_exp_EVA_AWA_CON	50	A	B	Rpleas_acq	Oppo	Rpleas	1pleas	acq_US_pleas_nomask	acq45_nomask	4	26	400	1	300	300	0	0	452	50	1	0	träumen	kuss	besonnen	genießen	kreativ	anregung	töten	krise	bange	gemein	krank	ausrottung	gütig	engagiert	gesittet	vergnügt	vertrauen	sonnig	gierig	engstirnig	geizig	verbissen	versagen	sterben	1	blank2r.bmp	0	1	+	0	1	blank2r.bmp	500	1	CPLW	500	1	blank2r.bmp	880	3	besonnen	880	1	!	1232	1	!	1353	0	0	0	0	0	0
2024-05-23	11:14:06	11:25:49	702686	6.6.1	4_exp_EVA_AWA_CON	50	A	B	Rpleas_acq	Oppo	Rpleas	1pleas	acq_US_pleas_nomask	acq45_nomask	4	27	400	1	300	300	0	0	468	50	1	0	träumen	kuss	besonnen	genießen	kreativ	anregung	töten	krise	bange	gemein	krank	ausrottung	gütig	engagiert	gesittet	vergnügt	vertrauen	sonnig	gierig	engstirnig	geizig	verbissen	versagen	sterben	1	blank2r.bmp	0	1	+	0	1	blank2r.bmp	500	1	CPLW	500	1	blank2r.bmp	880	1	träumen	880	1	!	1232	1	!	1370	0	0	0	0	0	0
2024-05-23	11:14:06	11:25:52	704933	6.6.1	4_exp_EVA_AWA_CON	50	A	B	Rpleas_acq	Oppo	Rpleas	1pleas	acq_US_pleas_nomask	acq45_nomask	4	28	400	1	300	300	0	0	465	50	1	0	träumen	kuss	besonnen	genießen	kreativ	anregung	töten	krise	bange	gemein	krank	ausrottung	gütig	engagiert	gesittet	vergnügt	vertrauen	sonnig	gierig	engstirnig	geizig	verbissen	versagen	sterben	1	blank2r.bmp	0	1	+	0	1	blank2r.bmp	500	1	CPLW	500	1	blank2r.bmp	880	4	genießen	880	1	!	1232	1	!	1367	0	0	0	0	0	0
2024-05-23	11:14:06	11:25:54	707252	6.6.1	4_exp_EVA_AWA_CON	50	A	B	Rpleas_acq	Oppo	Rpleas	1pleas	acq_US_unple_nomask	acq45_nomask	4	29	400	0	300	300	0	0	543	50	0	0	träumen	kuss	besonnen	genießen	kreativ	anregung	töten	krise	bange	gemein	krank	ausrottung	gütig	engagiert	gesittet	vergnügt	vertrauen	sonnig	gierig	engstirnig	geizig	verbissen	versagen	sterben	1	blank2r.bmp	0	1	+	0	1	blank2r.bmp	500	1	DHJF	500	1	blank2r.bmp	880	4	gemein	880	1	!	1232	1	!	-1	0	0	0	0	0	0
2024-05-23	11:14:06	11:25:56	709477	6.6.1	4_exp_EVA_AWA_CON	50	A	B	Rpleas_acq	Oppo	Rpleas	1pleas	acq_US_pleas_nomask	acq45_nomask	4	30	400	1	300	300	0	0	446	50	1	0	träumen	kuss	besonnen	genießen	kreativ	anregung	töten	krise	bange	gemein	krank	ausrottung	gütig	engagiert	gesittet	vergnügt	vertrauen	sonnig	gierig	engstirnig	geizig	verbissen	versagen	sterben	1	blank2r.bmp	0	1	+	0	1	blank2r.bmp	500	1	CPLW	500	1	blank2r.bmp	880	6	anregung	880	1	!	1233	1	!	1348	0	0	0	0	0	0
2024-05-23	11:14:06	11:25:58	711772	6.6.1	4_exp_EVA_AWA_CON	50	A	B	Rpleas_acq	Oppo	Rpleas	1pleas	acq_US_unple_nomask	acq45_nomask	4	31	400	0	300	300	0	0	520	46	1	0	träumen	kuss	besonnen	genießen	kreativ	anregung	töten	krise	bange	gemein	krank	ausrottung	gütig	engagiert	gesittet	vergnügt	vertrauen	sonnig	gierig	engstirnig	geizig	verbissen	versagen	sterben	1	blank2r.bmp	0	1	+	0	1	blank2r.bmp	500	1	DHJF	500	1	blank2r.bmp	880	6	ausrottung	880	1	!	1232	1	!	-1	0	0	0	0	0	0
2024-05-23	11:14:06	11:26:01	713965	6.6.1	4_exp_EVA_AWA_CON	50	A	B	Rpleas_acq	Oppo	Rpleas	1pleas	acq_US_unple_nomask	acq45_nomask	4	32	400	1	300	300	0	0	411	46	1	0	träumen	kuss	besonnen	genießen	kreativ	anregung	töten	krise	bange	gemein	krank	ausrottung	gütig	engagiert	gesittet	vergnügt	vertrauen	sonnig	gierig	engstirnig	geizig	verbissen	versagen	sterben	1	blank2r.bmp	0	1	+	0	1	blank2r.bmp	500	1	DHJF	500	1	blank2r.bmp	880	1	töten	880	1	!	1232	1	!	1312	0	0	0	0	0	0
2024-05-23	11:14:06	11:26:03	716189	6.6.1	4_exp_EVA_AWA_CON	50	A	B	Rpleas_acq	Oppo	Rpleas	1pleas	acq_US_pleas_nomask	acq45_nomask	4	33	400	1	300	300	0	0	443	46	0	0	träumen	kuss	besonnen	genießen	kreativ	anregung	töten	krise	bange	gemein	krank	ausrottung	gütig	engagiert	gesittet	vergnügt	vertrauen	sonnig	gierig	engstirnig	geizig	verbissen	versagen	sterben	1	blank2r.bmp	0	1	+	0	1	blank2r.bmp	500	1	CPLW	500	1	blank2r.bmp	880	5	kreativ	880	1	!	1232	1	!	1345	0	0	0	0	0	0
2024-05-23	11:14:06	11:26:05	718438	6.6.1	4_exp_EVA_AWA_CON	50	A	B	Rpleas_acq	Oppo	Rpleas	1pleas	acq_US_pleas_nomask	acq45_nomask	4	34	400	1	300	300	0	0	470	50	1	0	träumen	kuss	besonnen	genießen	kreativ	anregung	töten	krise	bange	gemein	krank	ausrottung	gütig	engagiert	gesittet	vergnügt	vertrauen	sonnig	gierig	engstirnig	geizig	verbissen	versagen	sterben	1	blank2r.bmp	0	1	+	0	1	blank2r.bmp	500	1	CPLW	500	1	blank2r.bmp	880	3	besonnen	880	1	!	1232	1	!	1372	0	0	0	0	0	0
2024-05-23	11:14:06	11:26:07	720772	6.6.1	4_exp_EVA_AWA_CON	50	A	B	Rpleas_acq	Oppo	Rpleas	1pleas	acq_US_pleas_nomask	acq45_nomask	4	35	400	0	300	300	0	0	555	50	1	0	träumen	kuss	besonnen	genießen	kreativ	anregung	töten	krise	bange	gemein	krank	ausrottung	gütig	engagiert	gesittet	vergnügt	vertrauen	sonnig	gierig	engstirnig	geizig	verbissen	versagen	sterben	1	blank2r.bmp	0	1	+	0	1	blank2r.bmp	500	1	CPLW	500	1	blank2r.bmp	880	2	kuss	880	1	!	1232	1	!	-1	0	0	0	0	0	0
2024-05-23	11:14:06	11:26:10	722973	6.6.1	4_exp_EVA_AWA_CON	50	A	B	Rpleas_acq	Oppo	Rpleas	1pleas	acq_US_unple_nomask	acq45_nomask	4	36	400	1	300	300	0	0	423	46	1	0	träumen	kuss	besonnen	genießen	kreativ	anregung	töten	krise	bange	gemein	krank	ausrottung	gütig	engagiert	gesittet	vergnügt	vertrauen	sonnig	gierig	engstirnig	geizig	verbissen	versagen	sterben	1	blank2r.bmp	0	1	+	0	1	blank2r.bmp	500	1	DHJF	500	1	blank2r.bmp	880	3	bange	880	1	!	1232	1	!	1325	0	0	0	0	0	0
2024-05-23	11:14:06	11:26:27	740556	6.6.1	4_exp_EVA_AWA_CON	50	A	B	Rpleas_acq	Oppo	Rpleas	1pleas	acq_US_pleas_nomask	acq45_nomask	5	1	400	0	300	300	0	0	506	50	1	0	träumen	kuss	besonnen	genießen	kreativ	anregung	töten	krise	bange	gemein	krank	ausrottung	gütig	engagiert	gesittet	vergnügt	vertrauen	sonnig	gierig	engstirnig	geizig	verbissen	versagen	sterben	1	blank2r.bmp	0	1	+	0	1	blank2r.bmp	500	1	CPLW	500	1	blank2r.bmp	880	4	genießen	880	1	!	1232	1	!	-1	0	0	0	0	0	0
2024-05-23	11:14:06	11:26:29	742725	6.6.1	4_exp_EVA_AWA_CON	50	A	B	Rpleas_acq	Oppo	Rpleas	1pleas	acq_US_pleas_nomask	acq45_nomask	5	2	400	1	300	300	0	0	392	46	0	0	träumen	kuss	besonnen	genießen	kreativ	anregung	töten	krise	bange	gemein	krank	ausrottung	gütig	engagiert	gesittet	vergnügt	vertrauen	sonnig	gierig	engstirnig	geizig	verbissen	versagen	sterben	1	blank2r.bmp	0	1	+	0	1	blank2r.bmp	500	1	CPLW	500	1	blank2r.bmp	880	5	kreativ	880	1	!	1232	1	!	1294	0	0	0	0	0	0
2024-05-23	11:14:06	11:26:32	745052	6.6.1	4_exp_EVA_AWA_CON	50	A	B	Rpleas_acq	Oppo	Rpleas	1pleas	acq_US_unple_nomask	acq45_nomask	5	3	400	0	300	300	0	0	549	46	1	0	träumen	kuss	besonnen	genießen	kreativ	anregung	töten	krise	bange	gemein	krank	ausrottung	gütig	engagiert	gesittet	vergnügt	vertrauen	sonnig	gierig	engstirnig	geizig	verbissen	versagen	sterben	1	blank2r.bmp	0	1	+	0	1	blank2r.bmp	500	1	DHJF	500	1	blank2r.bmp	880	4	gemein	880	1	!	1232	1	!	-1	0	0	0	0	0	0
2024-05-23	11:14:06	11:26:34	747332	6.6.1	4_exp_EVA_AWA_CON	50	A	B	Rpleas_acq	Oppo	Rpleas	1pleas	acq_US_unple_nomask	acq45_nomask	5	4	400	0	300	300	0	0	507	46	1	0	träumen	kuss	besonnen	genießen	kreativ	anregung	töten	krise	bange	gemein	krank	ausrottung	gütig	engagiert	gesittet	vergnügt	vertrauen	sonnig	gierig	engstirnig	geizig	verbissen	versagen	sterben	1	blank2r.bmp	0	1	+	0	1	blank2r.bmp	500	1	DHJF	500	1	blank2r.bmp	880	1	töten	880	1	!	1233	1	!	-1	0	0	0	0	0	0
2024-05-23	11:14:06	11:26:36	749558	6.6.1	4_exp_EVA_AWA_CON	50	A	B	Rpleas_acq	Oppo	Rpleas	1pleas	acq_US_pleas_nomask	acq45_nomask	5	5	400	1	300	300	0	0	450	50	1	0	träumen	kuss	besonnen	genießen	kreativ	anregung	töten	krise	bange	gemein	krank	ausrottung	gütig	engagiert	gesittet	vergnügt	vertrauen	sonnig	gierig	engstirnig	geizig	verbissen	versagen	sterben	1	blank2r.bmp	0	1	+	0	1	blank2r.bmp	500	1	CPLW	500	1	blank2r.bmp	880	6	anregung	880	1	!	1232	1	!	1352	0	0	0	0	0	0
2024-05-23	11:14:06	11:26:38	751750	6.6.1	4_exp_EVA_AWA_CON	50	A	B	Rpleas_acq	Oppo	Rpleas	1pleas	acq_US_pleas_nomask	acq45_nomask	5	6	400	1	300	300	0	0	410	46	0	0	träumen	kuss	besonnen	genießen	kreativ	anregung	töten	krise	bange	gemein	krank	ausrottung	gütig	engagiert	gesittet	vergnügt	vertrauen	sonnig	gierig	engstirnig	geizig	verbissen	versagen	sterben	1	blank2r.bmp	0	1	+	0	1	blank2r.bmp	500	1	CPLW	500	1	blank2r.bmp	880	1	träumen	880	1	!	1233	1	!	1313	0	0	0	0	0	0
2024-05-23	11:14:06	11:26:41	754028	6.6.1	4_exp_EVA_AWA_CON	50	A	B	Rpleas_acq	Oppo	Rpleas	1pleas	acq_US_pleas_nomask	acq45_nomask	5	7	400	0	300	300	0	0	499	50	1	0	träumen	kuss	besonnen	genießen	kreativ	anregung	töten	krise	bange	gemein	krank	ausrottung	gütig	engagiert	gesittet	vergnügt	vertrauen	sonnig	gierig	engstirnig	geizig	verbissen	versagen	sterben	1	blank2r.bmp	0	1	+	0	1	blank2r.bmp	500	1	CPLW	500	1	blank2r.bmp	880	2	kuss	880	1	!	1232	1	!	-1	0	0	0	0	0	0
2024-05-23	11:14:06	11:26:43	756229	6.6.1	4_exp_EVA_AWA_CON	50	A	B	Rpleas_acq	Oppo	Rpleas	1pleas	acq_US_unple_nomask	acq45_nomask	5	8	400	1	300	300	0	0	417	46	1	0	träumen	kuss	besonnen	genießen	kreativ	anregung	töten	krise	bange	gemein	krank	ausrottung	gütig	engagiert	gesittet	vergnügt	vertrauen	sonnig	gierig	engstirnig	geizig	verbissen	versagen	sterben	1	blank2r.bmp	0	1	+	0	1	blank2r.bmp	500	1	DHJF	500	1	blank2r.bmp	880	6	ausrottung	880	1	!	1232	1	!	1319	0	0	0	0	0	0
2024-05-23	11:14:06	11:26:45	758483	6.6.1	4_exp_EVA_AWA_CON	50	A	B	Rpleas_acq	Oppo	Rpleas	1pleas	acq_US_unple_nomask	acq45_nomask	5	9	400	0	300	300	0	0	473	50	0	0	träumen	kuss	besonnen	genießen	kreativ	anregung	töten	krise	bange	gemein	krank	ausrottung	gütig	engagiert	gesittet	vergnügt	vertrauen	sonnig	gierig	engstirnig	geizig	verbissen	versagen	sterben	1	blank2r.bmp	0	1	+	0	1	blank2r.bmp	500	1	DHJF	500	1	blank2r.bmp	880	2	krise	880	1	!	1232	1	!	-1	0	0	0	0	0	0
2024-05-23	11:14:06	11:26:47	760764	6.6.1	4_exp_EVA_AWA_CON	50	A	B	Rpleas_acq	Oppo	Rpleas	1pleas	acq_US_unple_nomask	acq45_nomask	5	10	400	0	300	300	0	0	500	46	1	0	träumen	kuss	besonnen	genießen	kreativ	anregung	töten	krise	bange	gemein	krank	ausrottung	gütig	engagiert	gesittet	vergnügt	vertrauen	sonnig	gierig	engstirnig	geizig	verbissen	versagen	sterben	1	blank2r.bmp	0	1	+	0	1	blank2r.bmp	500	1	DHJF	500	1	blank2r.bmp	880	3	bange	880	1	!	1233	1	!	-1	0	0	0	0	0	0
2024-05-23	11:14:06	11:26:50	763018	6.6.1	4_exp_EVA_AWA_CON	50	A	B	Rpleas_acq	Oppo	Rpleas	1pleas	acq_US_unple_nomask	acq45_nomask	5	11	400	0	300	300	0	0	475	50	0	0	träumen	kuss	besonnen	genießen	kreativ	anregung	töten	krise	bange	gemein	krank	ausrottung	gütig	engagiert	gesittet	vergnügt	vertrauen	sonnig	gierig	engstirnig	geizig	verbissen	versagen	sterben	1	blank2r.bmp	0	1	+	0	1	blank2r.bmp	500	1	DHJF	500	1	blank2r.bmp	880	5	krank	880	1	!	1232	1	!	-1	0	0	0	0	0	0
2024-05-23	11:14:06	11:26:52	765213	6.6.1	4_exp_EVA_AWA_CON	50	A	B	Rpleas_acq	Oppo	Rpleas	1pleas	acq_US_pleas_nomask	acq45_nomask	5	12	400	1	300	300	0	0	416	50	1	0	träumen	kuss	besonnen	genießen	kreativ	anregung	töten	krise	bange	gemein	krank	ausrottung	gütig	engagiert	gesittet	vergnügt	vertrauen	sonnig	gierig	engstirnig	geizig	verbissen	versagen	sterben	1	blank2r.bmp	0	1	+	0	1	blank2r.bmp	500	1	CPLW	500	1	blank2r.bmp	880	3	besonnen	880	1	!	1233	1	!	1317	0	0	0	0	0	0
2024-05-23	11:14:06	11:26:54	767430	6.6.1	4_exp_EVA_AWA_CON	50	A	B	Rpleas_acq	Oppo	Rpleas	1pleas	acq_US_pleas_nomask	acq45_nomask	5	13	400	1	300	300	0	0	440	50	1	0	träumen	kuss	besonnen	genießen	kreativ	anregung	töten	krise	bange	gemein	krank	ausrottung	gütig	engagiert	gesittet	vergnügt	vertrauen	sonnig	gierig	engstirnig	geizig	verbissen	versagen	sterben	1	blank2r.bmp	0	1	+	0	1	blank2r.bmp	500	1	CPLW	500	1	blank2r.bmp	880	2	kuss	880	1	!	1232	1	!	1342	0	0	0	0	0	0
2024-05-23	11:14:06	11:26:56	769653	6.6.1	4_exp_EVA_AWA_CON	50	A	B	Rpleas_acq	Oppo	Rpleas	1pleas	acq_US_pleas_nomask	acq45_nomask	5	14	400	1	300	300	0	0	443	50	1	0	träumen	kuss	besonnen	genießen	kreativ	anregung	töten	krise	bange	gemein	krank	ausrottung	gütig	engagiert	gesittet	vergnügt	vertrauen	sonnig	gierig	engstirnig	geizig	verbissen	versagen	sterben	1	blank2r.bmp	0	1	+	0	1	blank2r.bmp	500	1	CPLW	500	1	blank2r.bmp	880	4	genießen	880	1	!	1232	1	!	1344	0	0	0	0	0	0
2024-05-23	11:14:06	11:26:59	771902	6.6.1	4_exp_EVA_AWA_CON	50	A	B	Rpleas_acq	Oppo	Rpleas	1pleas	acq_US_pleas_nomask	acq45_nomask	5	15	400	1	300	300	0	0	469	50	1	0	träumen	kuss	besonnen	genießen	kreativ	anregung	töten	krise	bange	gemein	krank	ausrottung	gütig	engagiert	gesittet	vergnügt	vertrauen	sonnig	gierig	engstirnig	geizig	verbissen	versagen	sterben	1	blank2r.bmp	0	1	+	0	1	blank2r.bmp	500	1	CPLW	500	1	blank2r.bmp	880	3	besonnen	880	1	!	1232	1	!	1371	0	0	0	0	0	0
2024-05-23	11:14:06	11:27:01	774069	6.6.1	4_exp_EVA_AWA_CON	50	A	B	Rpleas_acq	Oppo	Rpleas	1pleas	acq_US_unple_nomask	acq45_nomask	5	16	400	1	300	300	0	0	386	46	1	0	träumen	kuss	besonnen	genießen	kreativ	anregung	töten	krise	bange	gemein	krank	ausrottung	gütig	engagiert	gesittet	vergnügt	vertrauen	sonnig	gierig	engstirnig	geizig	verbissen	versagen	sterben	1	blank2r.bmp	0	1	+	0	1	blank2r.bmp	500	1	DHJF	500	1	blank2r.bmp	880	5	krank	880	1	!	1232	1	!	1287	0	0	0	0	0	0
2024-05-23	11:14:06	11:27:03	776294	6.6.1	4_exp_EVA_AWA_CON	50	A	B	Rpleas_acq	Oppo	Rpleas	1pleas	acq_US_unple_nomask	acq45_nomask	5	17	400	1	300	300	0	0	448	46	1	0	träumen	kuss	besonnen	genießen	kreativ	anregung	töten	krise	bange	gemein	krank	ausrottung	gütig	engagiert	gesittet	vergnügt	vertrauen	sonnig	gierig	engstirnig	geizig	verbissen	versagen	sterben	1	blank2r.bmp	0	1	+	0	1	blank2r.bmp	500	1	DHJF	500	1	blank2r.bmp	880	3	bange	880	1	!	1233	1	!	1350	0	0	0	0	0	0
2024-05-23	11:14:06	11:27:05	778517	6.6.1	4_exp_EVA_AWA_CON	50	A	B	Rpleas_acq	Oppo	Rpleas	1pleas	acq_US_unple_nomask	acq45_nomask	5	18	400	1	300	300	0	0	441	46	1	0	träumen	kuss	besonnen	genießen	kreativ	anregung	töten	krise	bange	gemein	krank	ausrottung	gütig	engagiert	gesittet	vergnügt	vertrauen	sonnig	gierig	engstirnig	geizig	verbissen	versagen	sterben	1	blank2r.bmp	0	1	+	0	1	blank2r.bmp	500	1	DHJF	500	1	blank2r.bmp	880	4	gemein	880	1	!	1233	1	!	1343	0	0	0	0	0	0
2024-05-23	11:14:06	11:27:07	780820	6.6.1	4_exp_EVA_AWA_CON	50	A	B	Rpleas_acq	Oppo	Rpleas	1pleas	acq_US_pleas_nomask	acq45_nomask	5	19	400	0	300	300	0	0	523	46	0	0	träumen	kuss	besonnen	genießen	kreativ	anregung	töten	krise	bange	gemein	krank	ausrottung	gütig	engagiert	gesittet	vergnügt	vertrauen	sonnig	gierig	engstirnig	geizig	verbissen	versagen	sterben	1	blank2r.bmp	0	1	+	0	1	blank2r.bmp	500	1	CPLW	500	1	blank2r.bmp	880	6	anregung	880	1	!	1233	1	!	-1	0	0	0	0	0	0
2024-05-23	11:14:06	11:27:10	783100	6.6.1	4_exp_EVA_AWA_CON	50	A	B	Rpleas_acq	Oppo	Rpleas	1pleas	acq_US_unple_nomask	acq45_nomask	5	20	400	0	300	300	0	0	502	46	1	0	träumen	kuss	besonnen	genießen	kreativ	anregung	töten	krise	bange	gemein	krank	ausrottung	gütig	engagiert	gesittet	vergnügt	vertrauen	sonnig	gierig	engstirnig	geizig	verbissen	versagen	sterben	1	blank2r.bmp	0	1	+	0	1	blank2r.bmp	500	1	DHJF	500	1	blank2r.bmp	880	1	töten	880	1	!	1232	1	!	-1	0	0	0	0	0	0
2024-05-23	11:14:06	11:27:12	785317	6.6.1	4_exp_EVA_AWA_CON	50	A	B	Rpleas_acq	Oppo	Rpleas	1pleas	acq_US_pleas_nomask	acq45_nomask	5	21	400	1	300	300	0	0	436	46	0	0	träumen	kuss	besonnen	genießen	kreativ	anregung	töten	krise	bange	gemein	krank	ausrottung	gütig	engagiert	gesittet	vergnügt	vertrauen	sonnig	gierig	engstirnig	geizig	verbissen	versagen	sterben	1	blank2r.bmp	0	1	+	0	1	blank2r.bmp	500	1	CPLW	500	1	blank2r.bmp	880	1	träumen	880	1	!	1232	1	!	1338	0	0	0	0	0	0
2024-05-23	11:14:06	11:27:14	787562	6.6.1	4_exp_EVA_AWA_CON	50	A	B	Rpleas_acq	Oppo	Rpleas	1pleas	acq_US_pleas_nomask	acq45_nomask	5	22	400	0	300	300	0	0	474	50	1	0	träumen	kuss	besonnen	genießen	kreativ	anregung	töten	krise	bange	gemein	krank	ausrottung	gütig	engagiert	gesittet	vergnügt	vertrauen	sonnig	gierig	engstirnig	geizig	verbissen	versagen	sterben	1	blank2r.bmp	0	1	+	0	1	blank2r.bmp	500	1	CPLW	500	1	blank2r.bmp	880	5	kreativ	880	1	!	1232	1	!	-1	0	0	0	0	0	0
2024-05-23	11:14:06	11:27:17	789814	6.6.1	4_exp_EVA_AWA_CON	50	A	B	Rpleas_acq	Oppo	Rpleas	1pleas	acq_US_pleas_nomask	acq45_nomask	5	23	400	1	300	300	0	0	469	46	0	0	träumen	kuss	besonnen	genießen	kreativ	anregung	töten	krise	bange	gemein	krank	ausrottung	gütig	engagiert	gesittet	vergnügt	vertrauen	sonnig	gierig	engstirnig	geizig	verbissen	versagen	sterben	1	blank2r.bmp	0	1	+	0	1	blank2r.bmp	500	1	CPLW	500	1	blank2r.bmp	880	6	anregung	880	1	!	1232	1	!	1372	0	0	0	0	0	0
2024-05-23	11:14:06	11:27:19	791981	6.6.1	4_exp_EVA_AWA_CON	50	A	B	Rpleas_acq	Oppo	Rpleas	1pleas	acq_US_unple_nomask	acq45_nomask	5	24	400	1	300	300	0	0	386	46	1	0	träumen	kuss	besonnen	genießen	kreativ	anregung	töten	krise	bange	gemein	krank	ausrottung	gütig	engagiert	gesittet	vergnügt	vertrauen	sonnig	gierig	engstirnig	geizig	verbissen	versagen	sterben	1	blank2r.bmp	0	1	+	0	1	blank2r.bmp	500	1	DHJF	500	1	blank2r.bmp	880	6	ausrottung	880	1	!	1232	1	!	1288	0	0	0	0	0	0
2024-05-23	11:14:06	11:27:21	794206	6.6.1	4_exp_EVA_AWA_CON	50	A	B	Rpleas_acq	Oppo	Rpleas	1pleas	acq_US_unple_nomask	acq45_nomask	5	25	400	1	300	300	0	0	448	50	0	0	träumen	kuss	besonnen	genießen	kreativ	anregung	töten	krise	bange	gemein	krank	ausrottung	gütig	engagiert	gesittet	vergnügt	vertrauen	sonnig	gierig	engstirnig	geizig	verbissen	versagen	sterben	1	blank2r.bmp	0	1	+	0	1	blank2r.bmp	500	1	DHJF	500	1	blank2r.bmp	880	2	krise	880	1	!	1232	1	!	1350	0	0	0	0	0	0
2024-05-23	11:14:06	11:27:23	796500	6.6.1	4_exp_EVA_AWA_CON	50	A	B	Rpleas_acq	Oppo	Rpleas	1pleas	acq_US_pleas_nomask	acq45_nomask	5	26	400	0	300	300	0	0	513	50	1	0	träumen	kuss	besonnen	genießen	kreativ	anregung	töten	krise	bange	gemein	krank	ausrottung	gütig	engagiert	gesittet	vergnügt	vertrauen	sonnig	gierig	engstirnig	geizig	verbissen	versagen	sterben	1	blank2r.bmp	0	1	+	0	1	blank2r.bmp	500	1	CPLW	500	1	blank2r.bmp	880	4	genießen	880	1	!	1233	1	!	-1	0	0	0	0	0	0
2024-05-23	11:14:06	11:27:25	798725	6.6.1	4_exp_EVA_AWA_CON	50	A	B	Rpleas_acq	Oppo	Rpleas	1pleas	acq_US_unple_nomask	acq45_nomask	5	27	400	1	300	300	0	0	446	46	1	0	träumen	kuss	besonnen	genießen	kreativ	anregung	töten	krise	bange	gemein	krank	ausrottung	gütig	engagiert	gesittet	vergnügt	vertrauen	sonnig	gierig	engstirnig	geizig	verbissen	versagen	sterben	1	blank2r.bmp	0	1	+	0	1	blank2r.bmp	500	1	DHJF	500	1	blank2r.bmp	880	1	töten	880	1	!	1232	1	!	1347	0	0	0	0	0	0
2024-05-23	11:14:06	11:27:28	800917	6.6.1	4_exp_EVA_AWA_CON	50	A	B	Rpleas_acq	Oppo	Rpleas	1pleas	acq_US_pleas_nomask	acq45_nomask	5	28	400	1	300	300	0	0	416	50	1	0	träumen	kuss	besonnen	genießen	kreativ	anregung	töten	krise	bange	gemein	krank	ausrottung	gütig	engagiert	gesittet	vergnügt	vertrauen	sonnig	gierig	engstirnig	geizig	verbissen	versagen	sterben	1	blank2r.bmp	0	1	+	0	1	blank2r.bmp	500	1	CPLW	500	1	blank2r.bmp	880	1	träumen	880	1	!	1233	1	!	1318	0	0	0	0	0	0
2024-05-23	11:14:06	11:27:30	803170	6.6.1	4_exp_EVA_AWA_CON	50	A	B	Rpleas_acq	Oppo	Rpleas	1pleas	acq_US_unple_nomask	acq45_nomask	5	29	400	0	300	300	0	0	481	46	1	0	träumen	kuss	besonnen	genießen	kreativ	anregung	töten	krise	bange	gemein	krank	ausrottung	gütig	engagiert	gesittet	vergnügt	vertrauen	sonnig	gierig	engstirnig	geizig	verbissen	versagen	sterben	1	blank2r.bmp	0	1	+	0	1	blank2r.bmp	500	1	DHJF	500	1	blank2r.bmp	880	3	bange	880	1	!	1232	1	!	-1	0	0	0	0	0	0
2024-05-23	11:14:06	11:27:32	805341	6.6.1	4_exp_EVA_AWA_CON	50	A	B	Rpleas_acq	Oppo	Rpleas	1pleas	acq_US_pleas_nomask	acq45_nomask	5	30	400	1	300	300	0	0	397	46	0	0	träumen	kuss	besonnen	genießen	kreativ	anregung	töten	krise	bange	gemein	krank	ausrottung	gütig	engagiert	gesittet	vergnügt	vertrauen	sonnig	gierig	engstirnig	geizig	verbissen	versagen	sterben	1	blank2r.bmp	0	1	+	0	1	blank2r.bmp	500	1	CPLW	500	1	blank2r.bmp	880	5	kreativ	880	1	!	1233	1	!	1299	0	0	0	0	0	0
2024-05-23	11:14:06	11:27:34	807574	6.6.1	4_exp_EVA_AWA_CON	50	A	B	Rpleas_acq	Oppo	Rpleas	1pleas	acq_US_pleas_nomask	acq45_nomask	5	31	400	1	300	300	0	0	458	50	1	0	träumen	kuss	besonnen	genießen	kreativ	anregung	töten	krise	bange	gemein	krank	ausrottung	gütig	engagiert	gesittet	vergnügt	vertrauen	sonnig	gierig	engstirnig	geizig	verbissen	versagen	sterben	1	blank2r.bmp	0	1	+	0	1	blank2r.bmp	500	1	CPLW	500	1	blank2r.bmp	880	3	besonnen	880	1	!	1233	1	!	1360	0	0	0	0	0	0
2024-05-23	11:14:06	11:27:37	809821	6.6.1	4_exp_EVA_AWA_CON	50	A	B	Rpleas_acq	Oppo	Rpleas	1pleas	acq_US_pleas_nomask	acq45_nomask	5	32	400	1	300	300	0	0	464	50	1	0	träumen	kuss	besonnen	genießen	kreativ	anregung	töten	krise	bange	gemein	krank	ausrottung	gütig	engagiert	gesittet	vergnügt	vertrauen	sonnig	gierig	engstirnig	geizig	verbissen	versagen	sterben	1	blank2r.bmp	0	1	+	0	1	blank2r.bmp	500	1	CPLW	500	1	blank2r.bmp	880	2	kuss	880	1	!	1232	1	!	1366	0	0	0	0	0	0
2024-05-23	11:14:06	11:27:39	812108	6.6.1	4_exp_EVA_AWA_CON	50	A	B	Rpleas_acq	Oppo	Rpleas	1pleas	acq_US_unple_nomask	acq45_nomask	5	33	400	0	300	300	0	0	511	50	0	0	träumen	kuss	besonnen	genießen	kreativ	anregung	töten	krise	bange	gemein	krank	ausrottung	gütig	engagiert	gesittet	vergnügt	vertrauen	sonnig	gierig	engstirnig	geizig	verbissen	versagen	sterben	1	blank2r.bmp	0	1	+	0	1	blank2r.bmp	500	1	DHJF	500	1	blank2r.bmp	880	4	gemein	880	1	!	1232	1	!	-1	0	0	0	0	0	0
2024-05-23	11:14:06	11:27:41	814372	6.6.1	4_exp_EVA_AWA_CON	50	A	B	Rpleas_acq	Oppo	Rpleas	1pleas	acq_US_unple_nomask	acq45_nomask	5	34	400	0	300	300	0	0	483	46	1	0	träumen	kuss	besonnen	genießen	kreativ	anregung	töten	krise	bange	gemein	krank	ausrottung	gütig	engagiert	gesittet	vergnügt	vertrauen	sonnig	gierig	engstirnig	geizig	verbissen	versagen	sterben	1	blank2r.bmp	0	1	+	0	1	blank2r.bmp	500	1	DHJF	500	1	blank2r.bmp	880	6	ausrottung	880	1	!	1233	1	!	-1	0	0	0	0	0	0
2024-05-23	11:14:06	11:27:43	816626	6.6.1	4_exp_EVA_AWA_CON	50	A	B	Rpleas_acq	Oppo	Rpleas	1pleas	acq_US_unple_nomask	acq45_nomask	5	35	400	0	300	300	0	0	478	46	1	0	träumen	kuss	besonnen	genießen	kreativ	anregung	töten	krise	bange	gemein	krank	ausrottung	gütig	engagiert	gesittet	vergnügt	vertrauen	sonnig	gierig	engstirnig	geizig	verbissen	versagen	sterben	1	blank2r.bmp	0	1	+	0	1	blank2r.bmp	500	1	DHJF	500	1	blank2r.bmp	880	2	krise	880	1	!	1232	1	!	-1	0	0	0	0	0	0
2024-05-23	11:14:06	11:27:45	818789	6.6.1	4_exp_EVA_AWA_CON	50	A	B	Rpleas_acq	Oppo	Rpleas	1pleas	acq_US_unple_nomask	acq45_nomask	5	36	400	1	300	300	0	0	386	46	1	0	träumen	kuss	besonnen	genießen	kreativ	anregung	töten	krise	bange	gemein	krank	ausrottung	gütig	engagiert	gesittet	vergnügt	vertrauen	sonnig	gierig	engstirnig	geizig	verbissen	versagen	sterben	1	blank2r.bmp	0	1	+	0	1	blank2r.bmp	500	1	DHJF	500	1	blank2r.bmp	880	5	krank	880	1	!	1232	1	!	1288	0	0	0	0	0	0
2024-05-23	11:14:06	11:28:36	869808	6.6.1	4_exp_EVA_AWA_CON	50	A	B	Rpleas_acq	Oppo	Lpleas	1pleas	EvalRating_firsttwo	EvalRating_firsttwo	6	1	0	0	300	300	0	0	23259	line	0	7,1614583333333428072pct	träumen	kuss	besonnen	genießen	kreativ	anregung	töten	krise	bange	gemein	krank	ausrottung	gütig	engagiert	gesittet	vergnügt	vertrauen	sonnig	gierig	engstirnig	geizig	verbissen	versagen	sterben	1		-7	1	Wie angenehm oder unangenehm finden Sie die  Buchstabenkette WDLH?	-7	1		-7	1		-7	1		-7	1	Unangenehm	-7	1	Angenehm	-7	0	0	0	0	0	0	0	0	0
2024-05-23	11:14:06	11:28:48	880952	6.6.1	4_exp_EVA_AWA_CON	50	A	B	Rpleas_acq	Oppo	Lpleas	1pleas	EvalRating_lastfour	EvalRating_lastfour	7	1	0	0	300	300	0	0	8766	line	0	-9,765625pct	träumen	kuss	besonnen	genießen	kreativ	anregung	töten	krise	bange	gemein	krank	ausrottung	gütig	engagiert	gesittet	vergnügt	vertrauen	sonnig	gierig	engstirnig	geizig	verbissen	versagen	sterben	1		-8	2	Wie angenehm oder unangenehm finden Sie die  Buchstabenkette DHJF?	-8	1		-8	1		-8	1		-8	1	Unangenehm	-8	1	Angenehm	-8	0	0	0	0	0	0	0	0	0
2024-05-23	11:14:06	11:28:50	883325	6.6.1	4_exp_EVA_AWA_CON	50	A	B	Rpleas_acq	Oppo	Lpleas	1pleas	blank_screen	EvalRating_lastfour	7	3	0	0	300	300	0	0	0	0	0	-9,765625pct	träumen	kuss	besonnen	genießen	kreativ	anregung	töten	krise	bange	gemein	krank	ausrottung	gütig	engagiert	gesittet	vergnügt	vertrauen	sonnig	gierig	engstirnig	geizig	verbissen	versagen	sterben	1		-8	0	0	0	0	0	0	0	0	0	0	0	0	0	0	0	0	0	0	0	0	0	0	0	0	0	0	0
2024-05-23	11:14:06	11:28:58	891473	6.6.1	4_exp_EVA_AWA_CON	50	A	B	Rpleas_acq	Oppo	Lpleas	1pleas	EvalRating_lastfour	EvalRating_lastfour	7	4	0	0	300	300	0	0	7560	line	0	12,6302083333333428072pct	träumen	kuss	besonnen	genießen	kreativ	anregung	töten	krise	bange	gemein	krank	ausrottung	gütig	engagiert	gesittet	vergnügt	vertrauen	sonnig	gierig	engstirnig	geizig	verbissen	versagen	sterben	1		-8	1	Wie angenehm oder unangenehm finden Sie die  Buchstabenkette CPLW?	-8	1		-8	1		-8	1		-8	1	Unangenehm	-8	1	Angenehm	-8	0	0	0	0	0	0	0	0	0
2024-05-23	11:14:06	11:29:01	893842	6.6.1	4_exp_EVA_AWA_CON	50	A	B	Rpleas_acq	Oppo	Lpleas	1pleas	blank_screen	EvalRating_lastfour	7	6	0	0	300	300	0	0	0	0	0	12,6302083333333428072pct	träumen	kuss	besonnen	genießen	kreativ	anregung	töten	krise	bange	gemein	krank	ausrottung	gütig	engagiert	gesittet	vergnügt	vertrauen	sonnig	gierig	engstirnig	geizig	verbissen	versagen	sterben	1		-8	0	0	0	0	0	0	0	0	0	0	0	0	0	0	0	0	0	0	0	0	0	0	0	0	0	0	0
2024-05-23	11:14:06	11:29:06	899744	6.6.1	4_exp_EVA_AWA_CON	50	A	B	Rpleas_acq	Oppo	Lpleas	1pleas	EvalRating_lastfour	EvalRating_lastfour	7	7	0	0	300	300	0	0	5314	line	0	-4,6875pct	träumen	kuss	besonnen	genießen	kreativ	anregung	töten	krise	bange	gemein	krank	ausrottung	gütig	engagiert	gesittet	vergnügt	vertrauen	sonnig	gierig	engstirnig	geizig	verbissen	versagen	sterben	1		-8	3	Wie angenehm oder unangenehm finden Sie die  Buchstabenkette FCJP?	-8	1		-8	1		-8	1		-8	1	Unangenehm	-8	1	Angenehm	-8	0	0	0	0	0	0	0	0	0
2024-05-23	11:14:06	11:30:19	972001	6.6.1	4_exp_EVA_AWA_CON	50	A	B	Rpleas_acq	Oppo	Lpleas	1pleas	conawa_CS2_US3	conawa1_nomask	8	1	0	0	300	300	0	0	26262	bange	1	-4,6875pct	träumen	kuss	besonnen	genießen	kreativ	anregung	töten	krise	bange	gemein	krank	ausrottung	gütig	engagiert	gesittet	vergnügt	vertrauen	sonnig	gierig	engstirnig	geizig	verbissen	versagen	sterben	0	0	0	0	0	0	0	0	0	0	0	0	0	0	0	0	0	0	0	0	0	0	0	0	0	0	0	0	0	0
2024-05-23	11:14:06	11:30:19	972002	6.6.1	4_exp_EVA_AWA_CON	50	A	B	Rpleas_acq	Oppo	Lpleas	1pleas	conawa_CS2_US3_confidence	conawa1_nomask	8	1	0	0	300	300	0	0	26262	guess	1	-4,6875pct	träumen	kuss	besonnen	genießen	kreativ	anregung	töten	krise	bange	gemein	krank	ausrottung	gütig	engagiert	gesittet	vergnügt	vertrauen	sonnig	gierig	engstirnig	geizig	verbissen	versagen	sterben	0	0	0	0	0	0	0	0	0	0	0	0	0	0	0	0	0	0	0	0	0	0	0	0	0	0	0	0	0	0
2024-05-23	11:14:06	11:30:29	982508	6.6.1	4_exp_EVA_AWA_CON	50	A	B	Rpleas_acq	Oppo	Lpleas	1pleas	conawa_CS2_US5	conawa1_nomask	8	2	0	0	300	300	0	0	9890	sterben	1	-4,6875pct	träumen	kuss	besonnen	genießen	kreativ	anregung	töten	krise	bange	gemein	krank	ausrottung	gütig	engagiert	gesittet	vergnügt	vertrauen	sonnig	gierig	engstirnig	geizig	verbissen	versagen	sterben	0	0	0	0	0	0	0	0	0	0	0	0	0	0	0	0	0	0	0	0	0	0	0	0	0	0	0	0	0	0
2024-05-23	11:14:06	11:30:29	982509	6.6.1	4_exp_EVA_AWA_CON	50	A	B	Rpleas_acq	Oppo	Lpleas	1pleas	conawa_CS2_US5_confidence	conawa1_nomask	8	2	0	0	300	300	0	0	9890	guess	1	-4,6875pct	träumen	kuss	besonnen	genießen	kreativ	anregung	töten	krise	bange	gemein	krank	ausrottung	gütig	engagiert	gesittet	vergnügt	vertrauen	sonnig	gierig	engstirnig	geizig	verbissen	versagen	sterben	0	0	0	0	0	0	0	0	0	0	0	0	0	0	0	0	0	0	0	0	0	0	0	0	0	0	0	0	0	0
2024-05-23	11:14:06	11:30:39	992254	6.6.1	4_exp_EVA_AWA_CON	50	A	B	Rpleas_acq	Oppo	Lpleas	1pleas	conawa_CS2_US6	conawa1_nomask	8	3	0	0	300	300	0	0	9127	gierig	1	-4,6875pct	träumen	kuss	besonnen	genießen	kreativ	anregung	töten	krise	bange	gemein	krank	ausrottung	gütig	engagiert	gesittet	vergnügt	vertrauen	sonnig	gierig	engstirnig	geizig	verbissen	versagen	sterben	0	0	0	0	0	0	0	0	0	0	0	0	0	0	0	0	0	0	0	0	0	0	0	0	0	0	0	0	0	0
2024-05-23	11:14:06	11:30:39	992255	6.6.1	4_exp_EVA_AWA_CON	50	A	B	Rpleas_acq	Oppo	Lpleas	1pleas	conawa_CS2_US6_confidence	conawa1_nomask	8	3	0	0	300	300	0	0	9127	guess	1	-4,6875pct	träumen	kuss	besonnen	genießen	kreativ	anregung	töten	krise	bange	gemein	krank	ausrottung	gütig	engagiert	gesittet	vergnügt	vertrauen	sonnig	gierig	engstirnig	geizig	verbissen	versagen	sterben	0	0	0	0	0	0	0	0	0	0	0	0	0	0	0	0	0	0	0	0	0	0	0	0	0	0	0	0	0	0
2024-05-23	11:14:06	11:30:47	1000630	6.6.1	4_exp_EVA_AWA_CON	50	A	B	Rpleas_acq	Oppo	Lpleas	1pleas	conawa_CS1_US1	conawa1_nomask	8	4	0	0	300	300	0	0	7762	töten	1	-4,6875pct	träumen	kuss	besonnen	genießen	kreativ	anregung	töten	krise	bange	gemein	krank	ausrottung	gütig	engagiert	gesittet	vergnügt	vertrauen	sonnig	gierig	engstirnig	geizig	verbissen	versagen	sterben	0	0	0	0	0	0	0	0	0	0	0	0	0	0	0	0	0	0	0	0	0	0	0	0	0	0	0	0	0	0
2024-05-23	11:14:06	11:30:47	1000631	6.6.1	4_exp_EVA_AWA_CON	50	A	B	Rpleas_acq	Oppo	Lpleas	1pleas	conawa_CS1_US1_confidence	conawa1_nomask	8	4	0	0	300	300	0	0	7762	probably	1	-4,6875pct	träumen	kuss	besonnen	genießen	kreativ	anregung	töten	krise	bange	gemein	krank	ausrottung	gütig	engagiert	gesittet	vergnügt	vertrauen	sonnig	gierig	engstirnig	geizig	verbissen	versagen	sterben	0	0	0	0	0	0	0	0	0	0	0	0	0	0	0	0	0	0	0	0	0	0	0	0	0	0	0	0	0	0
2024-05-23	11:14:06	11:30:57	1010586	6.6.1	4_exp_EVA_AWA_CON	50	A	B	Rpleas_acq	Oppo	Lpleas	1pleas	conawa_CS2_US4	conawa1_nomask	8	5	0	0	300	300	0	0	9340	gemein	1	-4,6875pct	träumen	kuss	besonnen	genießen	kreativ	anregung	töten	krise	bange	gemein	krank	ausrottung	gütig	engagiert	gesittet	vergnügt	vertrauen	sonnig	gierig	engstirnig	geizig	verbissen	versagen	sterben	0	0	0	0	0	0	0	0	0	0	0	0	0	0	0	0	0	0	0	0	0	0	0	0	0	0	0	0	0	0
2024-05-23	11:14:06	11:30:57	1010587	6.6.1	4_exp_EVA_AWA_CON	50	A	B	Rpleas_acq	Oppo	Lpleas	1pleas	conawa_CS2_US4_confidence	conawa1_nomask	8	5	0	0	300	300	0	0	9340	guess	1	-4,6875pct	träumen	kuss	besonnen	genießen	kreativ	anregung	töten	krise	bange	gemein	krank	ausrottung	gütig	engagiert	gesittet	vergnügt	vertrauen	sonnig	gierig	engstirnig	geizig	verbissen	versagen	sterben	0	0	0	0	0	0	0	0	0	0	0	0	0	0	0	0	0	0	0	0	0	0	0	0	0	0	0	0	0	0
2024-05-23	11:14:06	11:31:06	1019142	6.6.1	4_exp_EVA_AWA_CON	50	A	B	Rpleas_acq	Oppo	Lpleas	1pleas	conawa_CS1_US5	conawa1_nomask	8	6	0	0	300	300	0	0	7945	versagen	1	-4,6875pct	träumen	kuss	besonnen	genießen	kreativ	anregung	töten	krise	bange	gemein	krank	ausrottung	gütig	engagiert	gesittet	vergnügt	vertrauen	sonnig	gierig	engstirnig	geizig	verbissen	versagen	sterben	0	0	0	0	0	0	0	0	0	0	0	0	0	0	0	0	0	0	0	0	0	0	0	0	0	0	0	0	0	0
2024-05-23	11:14:06	11:31:06	1019143	6.6.1	4_exp_EVA_AWA_CON	50	A	B	Rpleas_acq	Oppo	Lpleas	1pleas	conawa_CS1_US5_confidence	conawa1_nomask	8	6	0	0	300	300	0	0	7945	guess	1	-4,6875pct	träumen	kuss	besonnen	genießen	kreativ	anregung	töten	krise	bange	gemein	krank	ausrottung	gütig	engagiert	gesittet	vergnügt	vertrauen	sonnig	gierig	engstirnig	geizig	verbissen	versagen	sterben	0	0	0	0	0	0	0	0	0	0	0	0	0	0	0	0	0	0	0	0	0	0	0	0	0	0	0	0	0	0
2024-05-23	11:14:06	11:31:17	1030029	6.6.1	4_exp_EVA_AWA_CON	50	A	B	Rpleas_acq	Oppo	Lpleas	1pleas	conawa_CS1_US2	conawa1_nomask	8	7	0	0	300	300	0	0	10277	engstirnig	1	-4,6875pct	träumen	kuss	besonnen	genießen	kreativ	anregung	töten	krise	bange	gemein	krank	ausrottung	gütig	engagiert	gesittet	vergnügt	vertrauen	sonnig	gierig	engstirnig	geizig	verbissen	versagen	sterben	0	0	0	0	0	0	0	0	0	0	0	0	0	0	0	0	0	0	0	0	0	0	0	0	0	0	0	0	0	0
2024-05-23	11:14:06	11:31:17	1030030	6.6.1	4_exp_EVA_AWA_CON	50	A	B	Rpleas_acq	Oppo	Lpleas	1pleas	conawa_CS1_US2_confidence	conawa1_nomask	8	7	0	0	300	300	0	0	10277	guess	1	-4,6875pct	träumen	kuss	besonnen	genießen	kreativ	anregung	töten	krise	bange	gemein	krank	ausrottung	gütig	engagiert	gesittet	vergnügt	vertrauen	sonnig	gierig	engstirnig	geizig	verbissen	versagen	sterben	0	0	0	0	0	0	0	0	0	0	0	0	0	0	0	0	0	0	0	0	0	0	0	0	0	0	0	0	0	0
2024-05-23	11:14:06	11:31:27	1039915	6.6.1	4_exp_EVA_AWA_CON	50	A	B	Rpleas_acq	Oppo	Lpleas	1pleas	conawa_CS1_US4	conawa1_nomask	8	8	0	0	300	300	0	0	9271	verbissen	1	-4,6875pct	träumen	kuss	besonnen	genießen	kreativ	anregung	töten	krise	bange	gemein	krank	ausrottung	gütig	engagiert	gesittet	vergnügt	vertrauen	sonnig	gierig	engstirnig	geizig	verbissen	versagen	sterben	0	0	0	0	0	0	0	0	0	0	0	0	0	0	0	0	0	0	0	0	0	0	0	0	0	0	0	0	0	0
2024-05-23	11:14:06	11:31:27	1039916	6.6.1	4_exp_EVA_AWA_CON	50	A	B	Rpleas_acq	Oppo	Lpleas	1pleas	conawa_CS1_US4_confidence	conawa1_nomask	8	8	0	0	300	300	0	0	9271	guess	1	-4,6875pct	träumen	kuss	besonnen	genießen	kreativ	anregung	töten	krise	bange	gemein	krank	ausrottung	gütig	engagiert	gesittet	vergnügt	vertrauen	sonnig	gierig	engstirnig	geizig	verbissen	versagen	sterben	0	0	0	0	0	0	0	0	0	0	0	0	0	0	0	0	0	0	0	0	0	0	0	0	0	0	0	0	0	0
2024-05-23	11:14:06	11:31:33	1046159	6.6.1	4_exp_EVA_AWA_CON	50	A	B	Rpleas_acq	Oppo	Lpleas	1pleas	conawa_CS2_US1	conawa1_nomask	8	9	0	0	300	300	0	0	5632	töten	1	-4,6875pct	träumen	kuss	besonnen	genießen	kreativ	anregung	töten	krise	bange	gemein	krank	ausrottung	gütig	engagiert	gesittet	vergnügt	vertrauen	sonnig	gierig	engstirnig	geizig	verbissen	versagen	sterben	0	0	0	0	0	0	0	0	0	0	0	0	0	0	0	0	0	0	0	0	0	0	0	0	0	0	0	0	0	0
2024-05-23	11:14:06	11:31:33	1046161	6.6.1	4_exp_EVA_AWA_CON	50	A	B	Rpleas_acq	Oppo	Lpleas	1pleas	conawa_CS2_US1_confidence	conawa1_nomask	8	9	0	0	300	300	0	0	5632	guess	1	-4,6875pct	träumen	kuss	besonnen	genießen	kreativ	anregung	töten	krise	bange	gemein	krank	ausrottung	gütig	engagiert	gesittet	vergnügt	vertrauen	sonnig	gierig	engstirnig	geizig	verbissen	versagen	sterben	0	0	0	0	0	0	0	0	0	0	0	0	0	0	0	0	0	0	0	0	0	0	0	0	0	0	0	0	0	0
2024-05-23	11:14:06	11:31:40	1052874	6.6.1	4_exp_EVA_AWA_CON	50	A	B	Rpleas_acq	Oppo	Lpleas	1pleas	conawa_CS1_US6	conawa1_nomask	8	10	0	0	300	300	0	0	6099	sterben	1	-4,6875pct	träumen	kuss	besonnen	genießen	kreativ	anregung	töten	krise	bange	gemein	krank	ausrottung	gütig	engagiert	gesittet	vergnügt	vertrauen	sonnig	gierig	engstirnig	geizig	verbissen	versagen	sterben	0	0	0	0	0	0	0	0	0	0	0	0	0	0	0	0	0	0	0	0	0	0	0	0	0	0	0	0	0	0
2024-05-23	11:14:06	11:31:40	1052875	6.6.1	4_exp_EVA_AWA_CON	50	A	B	Rpleas_acq	Oppo	Lpleas	1pleas	conawa_CS1_US6_confidence	conawa1_nomask	8	10	0	0	300	300	0	0	6099	guess	1	-4,6875pct	träumen	kuss	besonnen	genießen	kreativ	anregung	töten	krise	bange	gemein	krank	ausrottung	gütig	engagiert	gesittet	vergnügt	vertrauen	sonnig	gierig	engstirnig	geizig	verbissen	versagen	sterben	0	0	0	0	0	0	0	0	0	0	0	0	0	0	0	0	0	0	0	0	0	0	0	0	0	0	0	0	0	0
2024-05-23	11:14:06	11:31:49	1061870	6.6.1	4_exp_EVA_AWA_CON	50	A	B	Rpleas_acq	Oppo	Lpleas	1pleas	conawa_CS1_US3	conawa1_nomask	8	11	0	0	300	300	0	0	8387	bange	1	-4,6875pct	träumen	kuss	besonnen	genießen	kreativ	anregung	töten	krise	bange	gemein	krank	ausrottung	gütig	engagiert	gesittet	vergnügt	vertrauen	sonnig	gierig	engstirnig	geizig	verbissen	versagen	sterben	0	0	0	0	0	0	0	0	0	0	0	0	0	0	0	0	0	0	0	0	0	0	0	0	0	0	0	0	0	0
2024-05-23	11:14:06	11:31:49	1061871	6.6.1	4_exp_EVA_AWA_CON	50	A	B	Rpleas_acq	Oppo	Lpleas	1pleas	conawa_CS1_US3_confidence	conawa1_nomask	8	11	0	0	300	300	0	0	8387	guess	1	-4,6875pct	träumen	kuss	besonnen	genießen	kreativ	anregung	töten	krise	bange	gemein	krank	ausrottung	gütig	engagiert	gesittet	vergnügt	vertrauen	sonnig	gierig	engstirnig	geizig	verbissen	versagen	sterben	0	0	0	0	0	0	0	0	0	0	0	0	0	0	0	0	0	0	0	0	0	0	0	0	0	0	0	0	0	0
2024-05-23	11:14:06	11:31:55	1068384	6.6.1	4_exp_EVA_AWA_CON	50	A	B	Rpleas_acq	Oppo	Lpleas	1pleas	conawa_CS2_US2	conawa1_nomask	8	12	0	0	300	300	0	0	5900	geizig	1	-4,6875pct	träumen	kuss	besonnen	genießen	kreativ	anregung	töten	krise	bange	gemein	krank	ausrottung	gütig	engagiert	gesittet	vergnügt	vertrauen	sonnig	gierig	engstirnig	geizig	verbissen	versagen	sterben	0	0	0	0	0	0	0	0	0	0	0	0	0	0	0	0	0	0	0	0	0	0	0	0	0	0	0	0	0	0
2024-05-23	11:14:06	11:31:55	1068385	6.6.1	4_exp_EVA_AWA_CON	50	A	B	Rpleas_acq	Oppo	Lpleas	1pleas	conawa_CS2_US2_confidence	conawa1_nomask	8	12	0	0	300	300	0	0	5900	guess	1	-4,6875pct	träumen	kuss	besonnen	genießen	kreativ	anregung	töten	krise	bange	gemein	krank	ausrottung	gütig	engagiert	gesittet	vergnügt	vertrauen	sonnig	gierig	engstirnig	geizig	verbissen	versagen	sterben	0	0	0	0	0	0	0	0	0	0	0	0	0	0	0	0	0	0	0	0	0	0	0	0	0	0	0	0	0	0
2024-05-23	11:14:06	11:33:27	1160188	6.6.1	4_exp_EVA_AWA_CON	50	A	B	Rpleas_acq	Oppo	Lpleas	1pleas	cond_new_unple_456_nomask_CS2	condtest_nomask_1	11	1	400	0	300	300	0	0	774	50	1	-4,6875pct	träumen	kuss	besonnen	genießen	kreativ	anregung	töten	krise	bange	gemein	krank	ausrottung	gütig	engagiert	gesittet	vergnügt	vertrauen	sonnig	gierig	engstirnig	geizig	verbissen	versagen	sterben	1	blank2r.bmp	0	1	+	0	1	blank2r.bmp	500	1	DHJF	500	1	blank2r.bmp	880	1	sterben	880	1	!	1233	1	!	-1	0	0	0	0	0	0
2024-05-23	11:14:06	11:33:29	1162308	6.6.1	4_exp_EVA_AWA_CON	50	A	B	Rpleas_acq	Oppo	Lpleas	1pleas	cond_US_pleas_123_nomask_CS1	condtest_nomask_1	11	2	400	1	300	300	0	0	343	46	1	-4,6875pct	träumen	kuss	besonnen	genießen	kreativ	anregung	töten	krise	bange	gemein	krank	ausrottung	gütig	engagiert	gesittet	vergnügt	vertrauen	sonnig	gierig	engstirnig	geizig	verbissen	versagen	sterben	1	blank2r.bmp	0	1	+	0	1	blank2r.bmp	500	1	CPLW	500	1	blank2r.bmp	880	2	kuss	880	1	!	1233	1	!	1242	0	0	0	0	0	0
