date	time	currenttime	elapsedtime	build	currentexpt	subject	CS_AB	US_AB	LRpleas_acq	SameOppo	condition_Lpleas	condition_1pleas	trialcode	blockcode	blocknum	trialnum	windowcenter	inwindow	pretrialpause	posttrialpause	trialduration	trialtimeout	latency	response	correct	correctedscore	US_nomask_pleas1	US_nomask_pleas2	US_nomask_pleas3	US_nomask_pleas4	US_nomask_pleas5	US_nomask_pleas6	US_nomask_unple1	US_nomask_unple2	US_nomask_unple3	US_nomask_unple4	US_nomask_unple5	US_nomask_unple6	new_nomask_pleas1	new_nomask_pleas2	new_nomask_pleas3	new_nomask_pleas4	new_nomask_pleas5	new_nomask_pleas6	new_nomask_unple1	new_nomask_unple2	new_nomask_unple3	new_nomask_unple4	new_nomask_unple5	new_nomask_unple6	stimulusnumber1	stimulusitem1	stimulusonset1	stimulusnumber2	stimulusitem2	stimulusonset2	stimulusnumber3	stimulusitem3	stimulusonset3	stimulusnumber4	stimulusitem4	stimulusonset4	stimulusnumber5	stimulusitem5	stimulusonset5	stimulusnumber6	stimulusitem6	stimulusonset6	stimulusnumber7	stimulusitem7	stimulusonset7	stimulusnumber8	stimulusitem8	stimulusonset8	stimulusnumber9	stimulusitem9	stimulusonset9	stimulusnumber10	stimulusitem10	stimulusonset10
2024-06-11	11:32:29	11:33:38	67905	6.6.1	4_exp_EVA_AWA_CON	79	A	B	Rpleas_acq	Same	Rpleas	2pleas	acq_US_pleas_nomask	acq1_nomask	1	1	0	0	300	300	0	0	1270	50	1	0	gütig	sonnig	besonnen	kreativ	engagiert	kuss	gierig	sterben	bange	krank	engstirnig	krise	vertrauen	träumen	anregung	gesittet	genießen	vergnügt	versagen	töten	ausrottung	geizig	gemein	verbissen	1	blank2r.bmp	0	1	+	0	1	blank2r.bmp	500	1	DHJF	500	1	blank2r.bmp	880	2	sonnig	880	0	0	0	0	0	0	0	0	0	0	0	0
2024-06-11	11:32:29	11:33:40	70153	6.6.1	4_exp_EVA_AWA_CON	79	A	B	Rpleas_acq	Same	Rpleas	2pleas	acq_US_unple_nomask	acq1_nomask	1	2	0	0	300	300	0	0	766	46	1	0	gütig	sonnig	besonnen	kreativ	engagiert	kuss	gierig	sterben	bange	krank	engstirnig	krise	vertrauen	träumen	anregung	gesittet	genießen	vergnügt	versagen	töten	ausrottung	geizig	gemein	verbissen	1	blank2r.bmp	0	1	+	0	1	blank2r.bmp	500	1	CPLW	500	1	blank2r.bmp	880	4	krank	880	0	0	0	0	0	0	0	0	0	0	0	0
2024-06-11	11:32:29	11:33:42	72369	6.6.1	4_exp_EVA_AWA_CON	79	A	B	Rpleas_acq	Same	Rpleas	2pleas	acq_new_unple_nomask	acq1_nomask	1	3	0	0	300	300	0	0	730	46	1	0	gütig	sonnig	besonnen	kreativ	engagiert	kuss	gierig	sterben	bange	krank	engstirnig	krise	vertrauen	träumen	anregung	gesittet	genießen	vergnügt	versagen	töten	ausrottung	geizig	gemein	verbissen	1	blank2r.bmp	0	1	+	0	1	blank2r.bmp	500	4	B4r.bmp	500	1	blank2r.bmp	880	6	verbissen	880	0	0	0	0	0	0	0	0	0	0	0	0
2024-06-11	11:32:29	11:33:45	74929	6.6.1	4_exp_EVA_AWA_CON	79	A	B	Rpleas_acq	Same	Rpleas	2pleas	acq_new_unple_nomask	acq1_nomask	1	4	0	0	300	300	0	0	1079	46	1	0	gütig	sonnig	besonnen	kreativ	engagiert	kuss	gierig	sterben	bange	krank	engstirnig	krise	vertrauen	träumen	anregung	gesittet	genießen	vergnügt	versagen	töten	ausrottung	geizig	gemein	verbissen	1	blank2r.bmp	0	1	+	0	1	blank2r.bmp	500	6	C2r.bmp	500	1	blank2r.bmp	880	3	ausrottung	880	0	0	0	0	0	0	0	0	0	0	0	0
2024-06-11	11:32:29	11:33:47	77185	6.6.1	4_exp_EVA_AWA_CON	79	A	B	Rpleas_acq	Same	Rpleas	2pleas	acq_new_unple_nomask	acq1_nomask	1	5	0	0	300	300	0	0	774	46	1	0	gütig	sonnig	besonnen	kreativ	engagiert	kuss	gierig	sterben	bange	krank	engstirnig	krise	vertrauen	träumen	anregung	gesittet	genießen	vergnügt	versagen	töten	ausrottung	geizig	gemein	verbissen	1	blank2r.bmp	0	1	+	0	1	blank2r.bmp	500	5	C1r.bmp	500	1	blank2r.bmp	880	4	geizig	880	0	0	0	0	0	0	0	0	0	0	0	0
2024-06-11	11:32:29	11:33:49	79377	6.6.1	4_exp_EVA_AWA_CON	79	A	B	Rpleas_acq	Same	Rpleas	2pleas	acq_new_pleas_nomask	acq1_nomask	1	6	0	0	300	300	0	0	703	50	1	0	gütig	sonnig	besonnen	kreativ	engagiert	kuss	gierig	sterben	bange	krank	engstirnig	krise	vertrauen	träumen	anregung	gesittet	genießen	vergnügt	versagen	töten	ausrottung	geizig	gemein	verbissen	1	blank2r.bmp	0	1	+	0	1	blank2r.bmp	500	1	B1r.bmp	500	1	blank2r.bmp	880	4	gesittet	880	0	0	0	0	0	0	0	0	0	0	0	0
2024-06-11	11:32:29	11:33:51	81361	6.6.1	4_exp_EVA_AWA_CON	79	A	B	Rpleas_acq	Same	Rpleas	2pleas	acq_US_pleas_nomask	acq1_nomask	1	7	0	0	300	300	0	0	497	50	1	0	gütig	sonnig	besonnen	kreativ	engagiert	kuss	gierig	sterben	bange	krank	engstirnig	krise	vertrauen	träumen	anregung	gesittet	genießen	vergnügt	versagen	töten	ausrottung	geizig	gemein	verbissen	1	blank2r.bmp	0	1	+	0	1	blank2r.bmp	500	1	DHJF	500	1	blank2r.bmp	880	6	kuss	880	0	0	0	0	0	0	0	0	0	0	0	0
2024-06-11	11:32:29	11:33:53	83401	6.6.1	4_exp_EVA_AWA_CON	79	A	B	Rpleas_acq	Same	Rpleas	2pleas	acq_new_pleas_nomask	acq1_nomask	1	8	0	0	300	300	0	0	556	50	1	0	gütig	sonnig	besonnen	kreativ	engagiert	kuss	gierig	sterben	bange	krank	engstirnig	krise	vertrauen	träumen	anregung	gesittet	genießen	vergnügt	versagen	töten	ausrottung	geizig	gemein	verbissen	1	blank2r.bmp	0	1	+	0	1	blank2r.bmp	500	2	B2r.bmp	500	1	blank2r.bmp	880	2	träumen	880	0	0	0	0	0	0	0	0	0	0	0	0
2024-06-11	11:32:29	11:33:55	85513	6.6.1	4_exp_EVA_AWA_CON	79	A	B	Rpleas_acq	Same	Rpleas	2pleas	acq_US_unple_nomask	acq1_nomask	1	9	0	0	300	300	0	0	626	46	1	0	gütig	sonnig	besonnen	kreativ	engagiert	kuss	gierig	sterben	bange	krank	engstirnig	krise	vertrauen	träumen	anregung	gesittet	genießen	vergnügt	versagen	töten	ausrottung	geizig	gemein	verbissen	1	blank2r.bmp	0	1	+	0	1	blank2r.bmp	500	1	CPLW	500	1	blank2r.bmp	880	2	sterben	880	0	0	0	0	0	0	0	0	0	0	0	0
2024-06-11	11:32:29	11:33:57	87585	6.6.1	4_exp_EVA_AWA_CON	79	A	B	Rpleas_acq	Same	Rpleas	2pleas	acq_US_pleas_nomask	acq1_nomask	1	10	0	0	300	300	0	0	586	50	1	0	gütig	sonnig	besonnen	kreativ	engagiert	kuss	gierig	sterben	bange	krank	engstirnig	krise	vertrauen	träumen	anregung	gesittet	genießen	vergnügt	versagen	töten	ausrottung	geizig	gemein	verbissen	1	blank2r.bmp	0	1	+	0	1	blank2r.bmp	500	1	DHJF	500	1	blank2r.bmp	880	5	engagiert	880	0	0	0	0	0	0	0	0	0	0	0	0
2024-06-11	11:32:29	11:33:59	89681	6.6.1	4_exp_EVA_AWA_CON	79	A	B	Rpleas_acq	Same	Rpleas	2pleas	acq_US_unple_nomask	acq1_nomask	1	11	0	0	300	300	0	0	610	46	1	0	gütig	sonnig	besonnen	kreativ	engagiert	kuss	gierig	sterben	bange	krank	engstirnig	krise	vertrauen	träumen	anregung	gesittet	genießen	vergnügt	versagen	töten	ausrottung	geizig	gemein	verbissen	1	blank2r.bmp	0	1	+	0	1	blank2r.bmp	500	1	CPLW	500	1	blank2r.bmp	880	5	engstirnig	880	0	0	0	0	0	0	0	0	0	0	0	0
2024-06-11	11:32:29	11:34:01	91697	6.6.1	4_exp_EVA_AWA_CON	79	A	B	Rpleas_acq	Same	Rpleas	2pleas	acq_new_pleas_nomask	acq1_nomask	1	12	0	0	300	300	0	0	536	50	1	0	gütig	sonnig	besonnen	kreativ	engagiert	kuss	gierig	sterben	bange	krank	engstirnig	krise	vertrauen	träumen	anregung	gesittet	genießen	vergnügt	versagen	töten	ausrottung	geizig	gemein	verbissen	1	blank2r.bmp	0	1	+	0	1	blank2r.bmp	500	3	B3r.bmp	500	1	blank2r.bmp	880	6	vergnügt	880	0	0	0	0	0	0	0	0	0	0	0	0
2024-06-11	11:32:29	11:34:04	93873	6.6.1	4_exp_EVA_AWA_CON	79	A	B	Rpleas_acq	Same	Rpleas	2pleas	acq_new_pleas_nomask	acq1_nomask	1	13	0	0	300	300	0	0	690	50	1	0	gütig	sonnig	besonnen	kreativ	engagiert	kuss	gierig	sterben	bange	krank	engstirnig	krise	vertrauen	träumen	anregung	gesittet	genießen	vergnügt	versagen	töten	ausrottung	geizig	gemein	verbissen	1	blank2r.bmp	0	1	+	0	1	blank2r.bmp	500	7	C3r.bmp	500	1	blank2r.bmp	880	3	anregung	880	0	0	0	0	0	0	0	0	0	0	0	0
2024-06-11	11:32:29	11:34:06	95785	6.6.1	4_exp_EVA_AWA_CON	79	A	B	Rpleas_acq	Same	Rpleas	2pleas	acq_US_unple_nomask	acq1_nomask	1	14	0	0	300	300	0	0	431	46	1	0	gütig	sonnig	besonnen	kreativ	engagiert	kuss	gierig	sterben	bange	krank	engstirnig	krise	vertrauen	träumen	anregung	gesittet	genießen	vergnügt	versagen	töten	ausrottung	geizig	gemein	verbissen	1	blank2r.bmp	0	1	+	0	1	blank2r.bmp	500	1	CPLW	500	1	blank2r.bmp	880	1	gierig	880	0	0	0	0	0	0	0	0	0	0	0	0
2024-06-11	11:32:29	11:34:08	97826	6.6.1	4_exp_EVA_AWA_CON	79	A	B	Rpleas_acq	Same	Rpleas	2pleas	acq_US_pleas_nomask	acq1_nomask	1	15	0	0	300	300	0	0	550	50	1	0	gütig	sonnig	besonnen	kreativ	engagiert	kuss	gierig	sterben	bange	krank	engstirnig	krise	vertrauen	träumen	anregung	gesittet	genießen	vergnügt	versagen	töten	ausrottung	geizig	gemein	verbissen	1	blank2r.bmp	0	1	+	0	1	blank2r.bmp	500	1	DHJF	500	1	blank2r.bmp	880	1	gütig	880	0	0	0	0	0	0	0	0	0	0	0	0
2024-06-11	11:32:29	11:34:10	99921	6.6.1	4_exp_EVA_AWA_CON	79	A	B	Rpleas_acq	Same	Rpleas	2pleas	acq_new_unple_nomask	acq1_nomask	1	16	0	0	300	300	0	0	615	46	1	0	gütig	sonnig	besonnen	kreativ	engagiert	kuss	gierig	sterben	bange	krank	engstirnig	krise	vertrauen	träumen	anregung	gesittet	genießen	vergnügt	versagen	töten	ausrottung	geizig	gemein	verbissen	1	blank2r.bmp	0	1	+	0	1	blank2r.bmp	500	8	C4r.bmp	500	1	blank2r.bmp	880	1	versagen	880	0	0	0	0	0	0	0	0	0	0	0	0
2024-06-11	11:32:29	11:34:12	102057	6.6.1	4_exp_EVA_AWA_CON	79	A	B	Rpleas_acq	Same	Rpleas	2pleas	acq_new_unple_nomask	acq1_nomask	1	17	0	0	300	300	0	0	649	46	1	0	gütig	sonnig	besonnen	kreativ	engagiert	kuss	gierig	sterben	bange	krank	engstirnig	krise	vertrauen	träumen	anregung	gesittet	genießen	vergnügt	versagen	töten	ausrottung	geizig	gemein	verbissen	1	blank2r.bmp	0	1	+	0	1	blank2r.bmp	500	5	C1r.bmp	500	1	blank2r.bmp	880	5	gemein	880	0	0	0	0	0	0	0	0	0	0	0	0
2024-06-11	11:32:29	11:34:14	104081	6.6.1	4_exp_EVA_AWA_CON	79	A	B	Rpleas_acq	Same	Rpleas	2pleas	acq_US_pleas_nomask	acq1_nomask	1	18	0	0	300	300	0	0	542	50	1	0	gütig	sonnig	besonnen	kreativ	engagiert	kuss	gierig	sterben	bange	krank	engstirnig	krise	vertrauen	träumen	anregung	gesittet	genießen	vergnügt	versagen	töten	ausrottung	geizig	gemein	verbissen	1	blank2r.bmp	0	1	+	0	1	blank2r.bmp	500	1	DHJF	500	1	blank2r.bmp	880	4	kreativ	880	0	0	0	0	0	0	0	0	0	0	0	0
2024-06-11	11:32:29	11:34:16	106145	6.6.1	4_exp_EVA_AWA_CON	79	A	B	Rpleas_acq	Same	Rpleas	2pleas	acq_new_pleas_nomask	acq1_nomask	1	19	0	0	300	300	0	0	574	50	1	0	gütig	sonnig	besonnen	kreativ	engagiert	kuss	gierig	sterben	bange	krank	engstirnig	krise	vertrauen	träumen	anregung	gesittet	genießen	vergnügt	versagen	töten	ausrottung	geizig	gemein	verbissen	1	blank2r.bmp	0	1	+	0	1	blank2r.bmp	500	7	C3r.bmp	500	1	blank2r.bmp	880	1	vertrauen	880	0	0	0	0	0	0	0	0	0	0	0	0
2024-06-11	11:32:29	11:34:19	108889	6.6.1	4_exp_EVA_AWA_CON	79	A	B	Rpleas_acq	Same	Rpleas	2pleas	acq_US_unple_nomask	acq1_nomask	1	20	0	0	300	300	0	0	1257	46	1	0	gütig	sonnig	besonnen	kreativ	engagiert	kuss	gierig	sterben	bange	krank	engstirnig	krise	vertrauen	träumen	anregung	gesittet	genießen	vergnügt	versagen	töten	ausrottung	geizig	gemein	verbissen	1	blank2r.bmp	0	1	+	0	1	blank2r.bmp	500	1	CPLW	500	1	blank2r.bmp	880	3	bange	880	0	0	0	0	0	0	0	0	0	0	0	0
2024-06-11	11:32:29	11:34:21	110921	6.6.1	4_exp_EVA_AWA_CON	79	A	B	Rpleas_acq	Same	Rpleas	2pleas	acq_new_pleas_nomask	acq1_nomask	1	21	0	0	300	300	0	0	548	50	1	0	gütig	sonnig	besonnen	kreativ	engagiert	kuss	gierig	sterben	bange	krank	engstirnig	krise	vertrauen	träumen	anregung	gesittet	genießen	vergnügt	versagen	töten	ausrottung	geizig	gemein	verbissen	1	blank2r.bmp	0	1	+	0	1	blank2r.bmp	500	1	B1r.bmp	500	1	blank2r.bmp	880	5	genießen	880	0	0	0	0	0	0	0	0	0	0	0	0
2024-06-11	11:32:29	11:34:23	112913	6.6.1	4_exp_EVA_AWA_CON	79	A	B	Rpleas_acq	Same	Rpleas	2pleas	acq_US_unple_nomask	acq1_nomask	1	22	0	0	300	300	0	0	508	46	1	0	gütig	sonnig	besonnen	kreativ	engagiert	kuss	gierig	sterben	bange	krank	engstirnig	krise	vertrauen	träumen	anregung	gesittet	genießen	vergnügt	versagen	töten	ausrottung	geizig	gemein	verbissen	1	blank2r.bmp	0	1	+	0	1	blank2r.bmp	500	1	CPLW	500	1	blank2r.bmp	880	6	krise	880	0	0	0	0	0	0	0	0	0	0	0	0
2024-06-11	11:32:29	11:34:25	114969	6.6.1	4_exp_EVA_AWA_CON	79	A	B	Rpleas_acq	Same	Rpleas	2pleas	acq_new_unple_nomask	acq1_nomask	1	23	0	0	300	300	0	0	573	46	1	0	gütig	sonnig	besonnen	kreativ	engagiert	kuss	gierig	sterben	bange	krank	engstirnig	krise	vertrauen	träumen	anregung	gesittet	genießen	vergnügt	versagen	töten	ausrottung	geizig	gemein	verbissen	1	blank2r.bmp	0	1	+	0	1	blank2r.bmp	500	8	C4r.bmp	500	1	blank2r.bmp	880	2	töten	880	0	0	0	0	0	0	0	0	0	0	0	0
2024-06-11	11:32:29	11:34:27	116921	6.6.1	4_exp_EVA_AWA_CON	79	A	B	Rpleas_acq	Same	Rpleas	2pleas	acq_US_pleas_nomask	acq1_nomask	1	24	0	0	300	300	0	0	464	50	1	0	gütig	sonnig	besonnen	kreativ	engagiert	kuss	gierig	sterben	bange	krank	engstirnig	krise	vertrauen	träumen	anregung	gesittet	genießen	vergnügt	versagen	töten	ausrottung	geizig	gemein	verbissen	1	blank2r.bmp	0	1	+	0	1	blank2r.bmp	500	1	DHJF	500	1	blank2r.bmp	880	3	besonnen	880	0	0	0	0	0	0	0	0	0	0	0	0
2024-06-11	11:32:29	11:34:29	119049	6.6.1	4_exp_EVA_AWA_CON	79	A	B	Rpleas_acq	Same	Rpleas	2pleas	acq_new_pleas_nomask	acq1_nomask	1	25	0	0	300	300	0	0	641	50	1	0	gütig	sonnig	besonnen	kreativ	engagiert	kuss	gierig	sterben	bange	krank	engstirnig	krise	vertrauen	träumen	anregung	gesittet	genießen	vergnügt	versagen	töten	ausrottung	geizig	gemein	verbissen	1	blank2r.bmp	0	1	+	0	1	blank2r.bmp	500	2	B2r.bmp	500	1	blank2r.bmp	880	2	träumen	880	0	0	0	0	0	0	0	0	0	0	0	0
2024-06-11	11:32:29	11:34:31	121049	6.6.1	4_exp_EVA_AWA_CON	79	A	B	Rpleas_acq	Same	Rpleas	2pleas	acq_new_pleas_nomask	acq1_nomask	1	26	0	0	300	300	0	0	518	50	1	0	gütig	sonnig	besonnen	kreativ	engagiert	kuss	gierig	sterben	bange	krank	engstirnig	krise	vertrauen	träumen	anregung	gesittet	genießen	vergnügt	versagen	töten	ausrottung	geizig	gemein	verbissen	1	blank2r.bmp	0	1	+	0	1	blank2r.bmp	500	6	C2r.bmp	500	1	blank2r.bmp	880	5	genießen	880	0	0	0	0	0	0	0	0	0	0	0	0
2024-06-11	11:32:29	11:34:33	123121	6.6.1	4_exp_EVA_AWA_CON	79	A	B	Rpleas_acq	Same	Rpleas	2pleas	acq_US_unple_nomask	acq1_nomask	1	27	0	0	300	300	0	0	589	46	1	0	gütig	sonnig	besonnen	kreativ	engagiert	kuss	gierig	sterben	bange	krank	engstirnig	krise	vertrauen	träumen	anregung	gesittet	genießen	vergnügt	versagen	töten	ausrottung	geizig	gemein	verbissen	1	blank2r.bmp	0	1	+	0	1	blank2r.bmp	500	1	CPLW	500	1	blank2r.bmp	880	4	krank	880	0	0	0	0	0	0	0	0	0	0	0	0
2024-06-11	11:32:29	11:34:35	125097	6.6.1	4_exp_EVA_AWA_CON	79	A	B	Rpleas_acq	Same	Rpleas	2pleas	acq_US_unple_nomask	acq1_nomask	1	28	0	0	300	300	0	0	495	46	1	0	gütig	sonnig	besonnen	kreativ	engagiert	kuss	gierig	sterben	bange	krank	engstirnig	krise	vertrauen	träumen	anregung	gesittet	genießen	vergnügt	versagen	töten	ausrottung	geizig	gemein	verbissen	1	blank2r.bmp	0	1	+	0	1	blank2r.bmp	500	1	CPLW	500	1	blank2r.bmp	880	3	bange	880	0	0	0	0	0	0	0	0	0	0	0	0
2024-06-11	11:32:29	11:34:37	127321	6.6.1	4_exp_EVA_AWA_CON	79	A	B	Rpleas_acq	Same	Rpleas	2pleas	acq_US_unple_nomask	acq1_nomask	1	29	0	0	300	300	0	0	736	46	1	0	gütig	sonnig	besonnen	kreativ	engagiert	kuss	gierig	sterben	bange	krank	engstirnig	krise	vertrauen	träumen	anregung	gesittet	genießen	vergnügt	versagen	töten	ausrottung	geizig	gemein	verbissen	1	blank2r.bmp	0	1	+	0	1	blank2r.bmp	500	1	CPLW	500	1	blank2r.bmp	880	5	engstirnig	880	0	0	0	0	0	0	0	0	0	0	0	0
2024-06-11	11:32:29	11:34:39	129682	6.6.1	4_exp_EVA_AWA_CON	79	A	B	Rpleas_acq	Same	Rpleas	2pleas	acq_US_pleas_nomask	acq1_nomask	1	30	0	0	300	300	0	0	676	46	0	0	gütig	sonnig	besonnen	kreativ	engagiert	kuss	gierig	sterben	bange	krank	engstirnig	krise	vertrauen	träumen	anregung	gesittet	genießen	vergnügt	versagen	töten	ausrottung	geizig	gemein	verbissen	1	blank2r.bmp	0	1	+	0	1	blank2r.bmp	500	1	DHJF	500	1	blank2r.bmp	880	3	besonnen	880	1	FEHLER	1577	0	0	0	0	0	0	0	0	0
2024-06-11	11:32:29	11:34:42	131898	6.6.1	4_exp_EVA_AWA_CON	79	A	B	Rpleas_acq	Same	Rpleas	2pleas	acq_new_pleas_nomask	acq1_nomask	1	31	0	0	300	300	0	0	930	50	1	0	gütig	sonnig	besonnen	kreativ	engagiert	kuss	gierig	sterben	bange	krank	engstirnig	krise	vertrauen	träumen	anregung	gesittet	genießen	vergnügt	versagen	töten	ausrottung	geizig	gemein	verbissen	1	blank2r.bmp	0	1	+	0	1	blank2r.bmp	500	4	B4r.bmp	500	1	blank2r.bmp	880	6	vergnügt	880	0	0	0	0	0	0	0	0	0	0	0	0
2024-06-11	11:32:29	11:34:44	134009	6.6.1	4_exp_EVA_AWA_CON	79	A	B	Rpleas_acq	Same	Rpleas	2pleas	acq_new_unple_nomask	acq1_nomask	1	32	0	0	300	300	0	0	631	46	1	0	gütig	sonnig	besonnen	kreativ	engagiert	kuss	gierig	sterben	bange	krank	engstirnig	krise	vertrauen	träumen	anregung	gesittet	genießen	vergnügt	versagen	töten	ausrottung	geizig	gemein	verbissen	1	blank2r.bmp	0	1	+	0	1	blank2r.bmp	500	3	B3r.bmp	500	1	blank2r.bmp	880	2	töten	880	0	0	0	0	0	0	0	0	0	0	0	0
2024-06-11	11:32:29	11:34:46	136017	6.6.1	4_exp_EVA_AWA_CON	79	A	B	Rpleas_acq	Same	Rpleas	2pleas	acq_US_pleas_nomask	acq1_nomask	1	33	0	0	300	300	0	0	528	50	1	0	gütig	sonnig	besonnen	kreativ	engagiert	kuss	gierig	sterben	bange	krank	engstirnig	krise	vertrauen	träumen	anregung	gesittet	genießen	vergnügt	versagen	töten	ausrottung	geizig	gemein	verbissen	1	blank2r.bmp	0	1	+	0	1	blank2r.bmp	500	1	DHJF	500	1	blank2r.bmp	880	4	kreativ	880	0	0	0	0	0	0	0	0	0	0	0	0
2024-06-11	11:32:29	11:34:48	138122	6.6.1	4_exp_EVA_AWA_CON	79	A	B	Rpleas_acq	Same	Rpleas	2pleas	acq_US_pleas_nomask	acq1_nomask	1	34	0	0	300	300	0	0	620	50	1	0	gütig	sonnig	besonnen	kreativ	engagiert	kuss	gierig	sterben	bange	krank	engstirnig	krise	vertrauen	träumen	anregung	gesittet	genießen	vergnügt	versagen	töten	ausrottung	geizig	gemein	verbissen	1	blank2r.bmp	0	1	+	0	1	blank2r.bmp	500	1	DHJF	500	1	blank2r.bmp	880	1	gütig	880	0	0	0	0	0	0	0	0	0	0	0	0
2024-06-11	11:32:29	11:34:50	140185	6.6.1	4_exp_EVA_AWA_CON	79	A	B	Rpleas_acq	Same	Rpleas	2pleas	acq_new_unple_nomask	acq1_nomask	1	35	0	0	300	300	0	0	583	46	1	0	gütig	sonnig	besonnen	kreativ	engagiert	kuss	gierig	sterben	bange	krank	engstirnig	krise	vertrauen	träumen	anregung	gesittet	genießen	vergnügt	versagen	töten	ausrottung	geizig	gemein	verbissen	1	blank2r.bmp	0	1	+	0	1	blank2r.bmp	500	7	C3r.bmp	500	1	blank2r.bmp	880	5	gemein	880	0	0	0	0	0	0	0	0	0	0	0	0
2024-06-11	11:32:29	11:34:52	142193	6.6.1	4_exp_EVA_AWA_CON	79	A	B	Rpleas_acq	Same	Rpleas	2pleas	acq_new_unple_nomask	acq1_nomask	1	36	0	0	300	300	0	0	520	46	1	0	gütig	sonnig	besonnen	kreativ	engagiert	kuss	gierig	sterben	bange	krank	engstirnig	krise	vertrauen	träumen	anregung	gesittet	genießen	vergnügt	versagen	töten	ausrottung	geizig	gemein	verbissen	1	blank2r.bmp	0	1	+	0	1	blank2r.bmp	500	4	B4r.bmp	500	1	blank2r.bmp	880	6	verbissen	880	0	0	0	0	0	0	0	0	0	0	0	0
2024-06-11	11:32:29	11:35:17	167155	6.6.1	4_exp_EVA_AWA_CON	79	A	B	Rpleas_acq	Same	Rpleas	2pleas	acq_US_pleas_nomask	acq2_nomask	2	1	480	0	300	300	0	0	716	50	1	0	gütig	sonnig	besonnen	kreativ	engagiert	kuss	gierig	sterben	bange	krank	engstirnig	krise	vertrauen	träumen	anregung	gesittet	genießen	vergnügt	versagen	töten	ausrottung	geizig	gemein	verbissen	1	blank2r.bmp	0	1	+	0	1	blank2r.bmp	500	1	DHJF	500	1	blank2r.bmp	880	6	kuss	880	1	!	1312	1	!	-1	0	0	0	0	0	0
2024-06-11	11:32:29	11:35:35	185502	6.6.1	4_exp_EVA_AWA_CON	79	A	B	Rpleas_acq	Same	Rpleas	2pleas	acq_US_unple_nomask	acq2_nomask	2	2	480	0	300	300	0	0	16367	50	0	0	gütig	sonnig	besonnen	kreativ	engagiert	kuss	gierig	sterben	bange	krank	engstirnig	krise	vertrauen	träumen	anregung	gesittet	genießen	vergnügt	versagen	töten	ausrottung	geizig	gemein	verbissen	1	blank2r.bmp	0	1	+	0	1	blank2r.bmp	500	1	CPLW	500	1	blank2r.bmp	880	2	sterben	880	1	FEHLER	17561	1	!	1313	1	!	-1	0	0	0
2024-06-11	11:32:29	11:35:45	194750	6.6.1	4_exp_EVA_AWA_CON	79	A	B	Rpleas_acq	Same	Rpleas	2pleas	acq_new_unple_nomask	acq2_nomask	2	3	480	0	300	300	0	0	7474	50	0	0	gütig	sonnig	besonnen	kreativ	engagiert	kuss	gierig	sterben	bange	krank	engstirnig	krise	vertrauen	träumen	anregung	gesittet	genießen	vergnügt	versagen	töten	ausrottung	geizig	gemein	verbissen	1	blank2r.bmp	0	1	+	0	1	blank2r.bmp	500	3	B3r.bmp	500	1	blank2r.bmp	880	1	versagen	880	1	FEHLER	8668	1	!	1312	1	!	-1	0	0	0
2024-06-11	11:32:29	11:35:47	197003	6.6.1	4_exp_EVA_AWA_CON	79	A	B	Rpleas_acq	Same	Rpleas	2pleas	acq_US_pleas_nomask	acq2_nomask	2	4	480	0	300	300	0	0	674	50	1	0	gütig	sonnig	besonnen	kreativ	engagiert	kuss	gierig	sterben	bange	krank	engstirnig	krise	vertrauen	träumen	anregung	gesittet	genießen	vergnügt	versagen	töten	ausrottung	geizig	gemein	verbissen	1	blank2r.bmp	0	1	+	0	1	blank2r.bmp	500	1	DHJF	500	1	blank2r.bmp	880	5	engagiert	880	1	!	1312	1	!	-1	0	0	0	0	0	0
2024-06-11	11:32:29	11:35:58	208110	6.6.1	4_exp_EVA_AWA_CON	79	A	B	Rpleas_acq	Same	Rpleas	2pleas	acq_new_unple_nomask	acq2_nomask	2	5	480	0	300	300	0	0	9126	50	0	0	gütig	sonnig	besonnen	kreativ	engagiert	kuss	gierig	sterben	bange	krank	engstirnig	krise	vertrauen	träumen	anregung	gesittet	genießen	vergnügt	versagen	töten	ausrottung	geizig	gemein	verbissen	1	blank2r.bmp	0	1	+	0	1	blank2r.bmp	500	6	C2r.bmp	500	1	blank2r.bmp	880	4	geizig	880	1	FEHLER	10320	1	!	1313	1	!	-1	0	0	0
2024-06-11	11:32:29	11:36:04	214486	6.6.1	4_exp_EVA_AWA_CON	79	A	B	Rpleas_acq	Same	Rpleas	2pleas	acq_US_unple_nomask	acq2_nomask	2	6	480	0	300	300	0	0	4595	50	0	0	gütig	sonnig	besonnen	kreativ	engagiert	kuss	gierig	sterben	bange	krank	engstirnig	krise	vertrauen	träumen	anregung	gesittet	genießen	vergnügt	versagen	töten	ausrottung	geizig	gemein	verbissen	1	blank2r.bmp	0	1	+	0	1	blank2r.bmp	500	1	CPLW	500	1	blank2r.bmp	880	1	gierig	880	1	FEHLER	5789	1	!	1313	1	!	-1	0	0	0
2024-06-11	11:32:29	11:36:10	219982	6.6.1	4_exp_EVA_AWA_CON	79	A	B	Rpleas_acq	Same	Rpleas	2pleas	acq_new_unple_nomask	acq2_nomask	2	7	480	0	300	300	0	0	3718	50	0	0	gütig	sonnig	besonnen	kreativ	engagiert	kuss	gierig	sterben	bange	krank	engstirnig	krise	vertrauen	träumen	anregung	gesittet	genießen	vergnügt	versagen	töten	ausrottung	geizig	gemein	verbissen	1	blank2r.bmp	0	1	+	0	1	blank2r.bmp	500	2	B2r.bmp	500	1	blank2r.bmp	880	3	ausrottung	880	1	FEHLER	4911	1	!	1312	1	!	-1	0	0	0
2024-06-11	11:32:29	11:36:12	222021	6.6.1	4_exp_EVA_AWA_CON	79	A	B	Rpleas_acq	Same	Rpleas	2pleas	acq_new_pleas_nomask	acq2_nomask	2	8	480	1	300	300	0	0	465	50	1	0	gütig	sonnig	besonnen	kreativ	engagiert	kuss	gierig	sterben	bange	krank	engstirnig	krise	vertrauen	träumen	anregung	gesittet	genießen	vergnügt	versagen	töten	ausrottung	geizig	gemein	verbissen	1	blank2r.bmp	0	1	+	0	1	blank2r.bmp	500	1	B1r.bmp	500	1	blank2r.bmp	880	1	vertrauen	880	1	!	1312	1	!	1365	0	0	0	0	0	0
2024-06-11	11:32:29	11:36:14	224229	6.6.1	4_exp_EVA_AWA_CON	79	A	B	Rpleas_acq	Same	Rpleas	2pleas	acq_new_pleas_nomask	acq2_nomask	2	9	480	1	300	300	0	0	431	50	1	0	gütig	sonnig	besonnen	kreativ	engagiert	kuss	gierig	sterben	bange	krank	engstirnig	krise	vertrauen	träumen	anregung	gesittet	genießen	vergnügt	versagen	töten	ausrottung	geizig	gemein	verbissen	1	blank2r.bmp	0	1	+	0	1	blank2r.bmp	500	8	C4r.bmp	500	1	blank2r.bmp	880	4	gesittet	880	1	!	1313	1	!	1333	0	0	0	0	0	0
2024-06-11	11:32:29	11:36:17	226739	6.6.1	4_exp_EVA_AWA_CON	79	A	B	Rpleas_acq	Same	Rpleas	2pleas	acq_new_pleas_nomask	acq2_nomask	2	10	480	0	300	300	0	0	731	50	1	0	gütig	sonnig	besonnen	kreativ	engagiert	kuss	gierig	sterben	bange	krank	engstirnig	krise	vertrauen	träumen	anregung	gesittet	genießen	vergnügt	versagen	töten	ausrottung	geizig	gemein	verbissen	1	blank2r.bmp	0	1	+	0	1	blank2r.bmp	500	5	C1r.bmp	500	1	blank2r.bmp	880	3	anregung	880	1	!	1312	1	!	-1	0	0	0	0	0	0
2024-06-11	11:32:29	11:36:21	231102	6.6.1	4_exp_EVA_AWA_CON	79	A	B	Rpleas_acq	Same	Rpleas	2pleas	acq_US_unple_nomask	acq2_nomask	2	11	480	0	300	300	0	0	2379	50	0	0	gütig	sonnig	besonnen	kreativ	engagiert	kuss	gierig	sterben	bange	krank	engstirnig	krise	vertrauen	träumen	anregung	gesittet	genießen	vergnügt	versagen	töten	ausrottung	geizig	gemein	verbissen	1	blank2r.bmp	0	1	+	0	1	blank2r.bmp	500	1	CPLW	500	1	blank2r.bmp	880	6	krise	880	1	FEHLER	3573	1	!	1312	1	!	-1	0	0	0
2024-06-11	11:32:29	11:36:23	233108	6.6.1	4_exp_EVA_AWA_CON	79	A	B	Rpleas_acq	Same	Rpleas	2pleas	acq_US_pleas_nomask	acq2_nomask	2	12	480	1	300	300	0	0	436	50	1	0	gütig	sonnig	besonnen	kreativ	engagiert	kuss	gierig	sterben	bange	krank	engstirnig	krise	vertrauen	träumen	anregung	gesittet	genießen	vergnügt	versagen	töten	ausrottung	geizig	gemein	verbissen	1	blank2r.bmp	0	1	+	0	1	blank2r.bmp	500	1	DHJF	500	1	blank2r.bmp	880	2	sonnig	880	1	!	1313	1	!	1336	0	0	0	0	0	0
2024-06-11	11:32:29	11:36:29	239030	6.6.1	4_exp_EVA_AWA_CON	79	A	B	Rpleas_acq	Same	Rpleas	2pleas	acq_US_unple_nomask	acq2_nomask	2	13	480	0	300	300	0	0	3943	50	0	0	gütig	sonnig	besonnen	kreativ	engagiert	kuss	gierig	sterben	bange	krank	engstirnig	krise	vertrauen	träumen	anregung	gesittet	genießen	vergnügt	versagen	töten	ausrottung	geizig	gemein	verbissen	1	blank2r.bmp	0	1	+	0	1	blank2r.bmp	500	1	CPLW	500	1	blank2r.bmp	880	6	krise	880	1	FEHLER	5137	1	!	1312	1	!	-1	0	0	0
2024-06-11	11:32:29	11:36:31	241187	6.6.1	4_exp_EVA_AWA_CON	79	A	B	Rpleas_acq	Same	Rpleas	2pleas	acq_US_pleas_nomask	acq2_nomask	2	14	480	0	300	300	0	0	579	50	1	0	gütig	sonnig	besonnen	kreativ	engagiert	kuss	gierig	sterben	bange	krank	engstirnig	krise	vertrauen	träumen	anregung	gesittet	genießen	vergnügt	versagen	töten	ausrottung	geizig	gemein	verbissen	1	blank2r.bmp	0	1	+	0	1	blank2r.bmp	500	1	DHJF	500	1	blank2r.bmp	880	6	kuss	880	1	!	1312	1	!	-1	0	0	0	0	0	0
2024-06-11	11:32:29	11:36:35	244966	6.6.1	4_exp_EVA_AWA_CON	79	A	B	Rpleas_acq	Same	Rpleas	2pleas	acq_new_unple_nomask	acq2_nomask	2	15	480	0	300	300	0	0	1794	50	0	0	gütig	sonnig	besonnen	kreativ	engagiert	kuss	gierig	sterben	bange	krank	engstirnig	krise	vertrauen	träumen	anregung	gesittet	genießen	vergnügt	versagen	töten	ausrottung	geizig	gemein	verbissen	1	blank2r.bmp	0	1	+	0	1	blank2r.bmp	500	5	C1r.bmp	500	1	blank2r.bmp	880	2	töten	880	1	FEHLER	2988	1	!	1312	1	!	-1	0	0	0
2024-06-11	11:32:29	11:36:40	250287	6.6.1	4_exp_EVA_AWA_CON	79	A	B	Rpleas_acq	Same	Rpleas	2pleas	acq_US_unple_nomask	acq2_nomask	2	16	480	0	300	300	0	0	3542	50	0	0	gütig	sonnig	besonnen	kreativ	engagiert	kuss	gierig	sterben	bange	krank	engstirnig	krise	vertrauen	träumen	anregung	gesittet	genießen	vergnügt	versagen	töten	ausrottung	geizig	gemein	verbissen	1	blank2r.bmp	0	1	+	0	1	blank2r.bmp	500	1	CPLW	500	1	blank2r.bmp	880	3	bange	880	1	FEHLER	4736	1	!	1312	1	!	-1	0	0	0
2024-06-11	11:32:29	11:36:44	254086	6.6.1	4_exp_EVA_AWA_CON	79	A	B	Rpleas_acq	Same	Rpleas	2pleas	acq_US_unple_nomask	acq2_nomask	2	17	480	0	300	300	0	0	2018	50	0	0	gütig	sonnig	besonnen	kreativ	engagiert	kuss	gierig	sterben	bange	krank	engstirnig	krise	vertrauen	träumen	anregung	gesittet	genießen	vergnügt	versagen	töten	ausrottung	geizig	gemein	verbissen	1	blank2r.bmp	0	1	+	0	1	blank2r.bmp	500	1	CPLW	500	1	blank2r.bmp	880	4	krank	880	1	FEHLER	3212	1	!	1312	1	!	-1	0	0	0
2024-06-11	11:32:29	11:36:50	259862	6.6.1	4_exp_EVA_AWA_CON	79	A	B	Rpleas_acq	Same	Rpleas	2pleas	acq_new_unple_nomask	acq2_nomask	2	18	480	0	300	300	0	0	4003	50	0	0	gütig	sonnig	besonnen	kreativ	engagiert	kuss	gierig	sterben	bange	krank	engstirnig	krise	vertrauen	träumen	anregung	gesittet	genießen	vergnügt	versagen	töten	ausrottung	geizig	gemein	verbissen	1	blank2r.bmp	0	1	+	0	1	blank2r.bmp	500	3	B3r.bmp	500	1	blank2r.bmp	880	1	versagen	880	1	FEHLER	5196	1	!	1312	1	!	-1	0	0	0
2024-06-11	11:32:29	11:36:52	261851	6.6.1	4_exp_EVA_AWA_CON	79	A	B	Rpleas_acq	Same	Rpleas	2pleas	acq_new_pleas_nomask	acq2_nomask	2	19	480	0	300	300	0	0	411	50	1	0	gütig	sonnig	besonnen	kreativ	engagiert	kuss	gierig	sterben	bange	krank	engstirnig	krise	vertrauen	träumen	anregung	gesittet	genießen	vergnügt	versagen	töten	ausrottung	geizig	gemein	verbissen	1	blank2r.bmp	0	1	+	0	1	blank2r.bmp	500	6	C2r.bmp	500	1	blank2r.bmp	880	2	träumen	880	1	!	-1	1	!	-1	0	0	0	0	0	0
2024-06-11	11:32:29	11:36:54	264419	6.6.1	4_exp_EVA_AWA_CON	79	A	B	Rpleas_acq	Same	Rpleas	2pleas	acq_US_pleas_nomask	acq2_nomask	2	20	480	0	300	300	0	0	787	50	1	0	gütig	sonnig	besonnen	kreativ	engagiert	kuss	gierig	sterben	bange	krank	engstirnig	krise	vertrauen	träumen	anregung	gesittet	genießen	vergnügt	versagen	töten	ausrottung	geizig	gemein	verbissen	1	blank2r.bmp	0	1	+	0	1	blank2r.bmp	500	1	DHJF	500	1	blank2r.bmp	880	1	gütig	880	1	!	1312	1	!	-1	0	0	0	0	0	0
2024-06-11	11:32:29	11:36:56	266379	6.6.1	4_exp_EVA_AWA_CON	79	A	B	Rpleas_acq	Same	Rpleas	2pleas	acq_new_pleas_nomask	acq2_nomask	2	21	480	0	300	300	0	0	185	50	1	0	gütig	sonnig	besonnen	kreativ	engagiert	kuss	gierig	sterben	bange	krank	engstirnig	krise	vertrauen	träumen	anregung	gesittet	genießen	vergnügt	versagen	töten	ausrottung	geizig	gemein	verbissen	1	blank2r.bmp	0	1	+	0	1	blank2r.bmp	500	1	B1r.bmp	500	1	blank2r.bmp	880	4	gesittet	880	1	!	-1	1	!	-1	0	0	0	0	0	0
2024-06-11	11:32:29	11:36:59	268787	6.6.1	4_exp_EVA_AWA_CON	79	A	B	Rpleas_acq	Same	Rpleas	2pleas	acq_US_pleas_nomask	acq2_nomask	2	22	480	0	300	300	0	0	633	50	1	0	gütig	sonnig	besonnen	kreativ	engagiert	kuss	gierig	sterben	bange	krank	engstirnig	krise	vertrauen	träumen	anregung	gesittet	genießen	vergnügt	versagen	töten	ausrottung	geizig	gemein	verbissen	1	blank2r.bmp	0	1	+	0	1	blank2r.bmp	500	1	DHJF	500	1	blank2r.bmp	880	5	engagiert	880	1	!	1312	1	!	-1	0	0	0	0	0	0
2024-06-11	11:32:29	11:37:01	271547	6.6.1	4_exp_EVA_AWA_CON	79	A	B	Rpleas_acq	Same	Rpleas	2pleas	acq_new_pleas_nomask	acq2_nomask	2	23	480	0	300	300	0	0	980	50	1	0	gütig	sonnig	besonnen	kreativ	engagiert	kuss	gierig	sterben	bange	krank	engstirnig	krise	vertrauen	träumen	anregung	gesittet	genießen	vergnügt	versagen	töten	ausrottung	geizig	gemein	verbissen	1	blank2r.bmp	0	1	+	0	1	blank2r.bmp	500	8	C4r.bmp	500	1	blank2r.bmp	880	5	genießen	880	1	!	1313	1	!	-1	0	0	0	0	0	0
2024-06-11	11:32:29	11:37:04	273861	6.6.1	4_exp_EVA_AWA_CON	79	A	B	Rpleas_acq	Same	Rpleas	2pleas	acq_new_unple_nomask	acq2_nomask	2	24	480	1	300	300	0	0	530	46	1	0	gütig	sonnig	besonnen	kreativ	engagiert	kuss	gierig	sterben	bange	krank	engstirnig	krise	vertrauen	träumen	anregung	gesittet	genießen	vergnügt	versagen	töten	ausrottung	geizig	gemein	verbissen	1	blank2r.bmp	0	1	+	0	1	blank2r.bmp	500	7	C3r.bmp	500	1	blank2r.bmp	880	6	verbissen	880	1	!	1313	1	!	1433	0	0	0	0	0	0
2024-06-11	11:32:29	11:37:06	276084	6.6.1	4_exp_EVA_AWA_CON	79	A	B	Rpleas_acq	Same	Rpleas	2pleas	acq_US_pleas_nomask	acq2_nomask	2	25	480	1	300	300	0	0	443	50	1	0	gütig	sonnig	besonnen	kreativ	engagiert	kuss	gierig	sterben	bange	krank	engstirnig	krise	vertrauen	träumen	anregung	gesittet	genießen	vergnügt	versagen	töten	ausrottung	geizig	gemein	verbissen	1	blank2r.bmp	0	1	+	0	1	blank2r.bmp	500	1	DHJF	500	1	blank2r.bmp	880	3	besonnen	880	1	!	1312	1	!	1345	0	0	0	0	0	0
2024-06-11	11:32:29	11:37:08	278293	6.6.1	4_exp_EVA_AWA_CON	79	A	B	Rpleas_acq	Same	Rpleas	2pleas	acq_new_pleas_nomask	acq2_nomask	2	26	480	1	300	300	0	0	431	50	1	0	gütig	sonnig	besonnen	kreativ	engagiert	kuss	gierig	sterben	bange	krank	engstirnig	krise	vertrauen	träumen	anregung	gesittet	genießen	vergnügt	versagen	töten	ausrottung	geizig	gemein	verbissen	1	blank2r.bmp	0	1	+	0	1	blank2r.bmp	500	2	B2r.bmp	500	1	blank2r.bmp	880	6	vergnügt	880	1	!	1312	1	!	1332	0	0	0	0	0	0
2024-06-11	11:32:29	11:37:10	280675	6.6.1	4_exp_EVA_AWA_CON	79	A	B	Rpleas_acq	Same	Rpleas	2pleas	acq_new_unple_nomask	acq2_nomask	2	27	480	0	300	300	0	0	603	46	1	0	gütig	sonnig	besonnen	kreativ	engagiert	kuss	gierig	sterben	bange	krank	engstirnig	krise	vertrauen	träumen	anregung	gesittet	genießen	vergnügt	versagen	töten	ausrottung	geizig	gemein	verbissen	1	blank2r.bmp	0	1	+	0	1	blank2r.bmp	500	4	B4r.bmp	500	1	blank2r.bmp	880	5	gemein	880	1	!	1312	1	!	-1	0	0	0	0	0	0
2024-06-11	11:32:29	11:37:13	283155	6.6.1	4_exp_EVA_AWA_CON	79	A	B	Rpleas_acq	Same	Rpleas	2pleas	acq_new_unple_nomask	acq2_nomask	2	28	480	0	300	300	0	0	701	46	1	0	gütig	sonnig	besonnen	kreativ	engagiert	kuss	gierig	sterben	bange	krank	engstirnig	krise	vertrauen	träumen	anregung	gesittet	genießen	vergnügt	versagen	töten	ausrottung	geizig	gemein	verbissen	1	blank2r.bmp	0	1	+	0	1	blank2r.bmp	500	1	B1r.bmp	500	1	blank2r.bmp	880	4	geizig	880	1	!	1313	1	!	-1	0	0	0	0	0	0
2024-06-11	11:32:29	11:37:15	285727	6.6.1	4_exp_EVA_AWA_CON	79	A	B	Rpleas_acq	Same	Rpleas	2pleas	acq_US_unple_nomask	acq2_nomask	2	29	480	0	300	300	0	0	588	50	0	0	gütig	sonnig	besonnen	kreativ	engagiert	kuss	gierig	sterben	bange	krank	engstirnig	krise	vertrauen	träumen	anregung	gesittet	genießen	vergnügt	versagen	töten	ausrottung	geizig	gemein	verbissen	1	blank2r.bmp	0	1	+	0	1	blank2r.bmp	500	1	CPLW	500	1	blank2r.bmp	880	2	sterben	880	1	FEHLER	1781	1	!	1312	1	!	-1	0	0	0
2024-06-11	11:32:29	11:37:18	288371	6.6.1	4_exp_EVA_AWA_CON	79	A	B	Rpleas_acq	Same	Rpleas	2pleas	acq_new_pleas_nomask	acq2_nomask	2	30	480	0	300	300	0	0	1074	50	1	0	gütig	sonnig	besonnen	kreativ	engagiert	kuss	gierig	sterben	bange	krank	engstirnig	krise	vertrauen	träumen	anregung	gesittet	genießen	vergnügt	versagen	töten	ausrottung	geizig	gemein	verbissen	1	blank2r.bmp	0	1	+	0	1	blank2r.bmp	500	4	B4r.bmp	500	1	blank2r.bmp	880	3	anregung	880	1	!	1312	1	!	-1	0	0	0	0	0	0
2024-06-11	11:32:29	11:37:21	290795	6.6.1	4_exp_EVA_AWA_CON	79	A	B	Rpleas_acq	Same	Rpleas	2pleas	acq_new_pleas_nomask	acq2_nomask	2	31	480	0	300	300	0	0	647	50	1	0	gütig	sonnig	besonnen	kreativ	engagiert	kuss	gierig	sterben	bange	krank	engstirnig	krise	vertrauen	träumen	anregung	gesittet	genießen	vergnügt	versagen	töten	ausrottung	geizig	gemein	verbissen	1	blank2r.bmp	0	1	+	0	1	blank2r.bmp	500	8	C4r.bmp	500	1	blank2r.bmp	880	1	vertrauen	880	1	!	1312	1	!	-1	0	0	0	0	0	0
2024-06-11	11:32:29	11:37:23	292963	6.6.1	4_exp_EVA_AWA_CON	79	A	B	Rpleas_acq	Same	Rpleas	2pleas	acq_US_unple_nomask	acq2_nomask	2	32	480	0	300	300	0	0	392	46	1	0	gütig	sonnig	besonnen	kreativ	engagiert	kuss	gierig	sterben	bange	krank	engstirnig	krise	vertrauen	träumen	anregung	gesittet	genießen	vergnügt	versagen	töten	ausrottung	geizig	gemein	verbissen	1	blank2r.bmp	0	1	+	0	1	blank2r.bmp	500	1	CPLW	500	1	blank2r.bmp	880	1	gierig	880	1	!	-1	1	!	-1	0	0	0	0	0	0
2024-06-11	11:32:29	11:37:25	295196	6.6.1	4_exp_EVA_AWA_CON	79	A	B	Rpleas_acq	Same	Rpleas	2pleas	acq_US_pleas_nomask	acq2_nomask	2	33	480	1	300	300	0	0	454	50	1	0	gütig	sonnig	besonnen	kreativ	engagiert	kuss	gierig	sterben	bange	krank	engstirnig	krise	vertrauen	träumen	anregung	gesittet	genießen	vergnügt	versagen	töten	ausrottung	geizig	gemein	verbissen	1	blank2r.bmp	0	1	+	0	1	blank2r.bmp	500	1	DHJF	500	1	blank2r.bmp	880	2	sonnig	880	1	!	1312	1	!	1354	0	0	0	0	0	0
2024-06-11	11:32:29	11:37:27	297420	6.6.1	4_exp_EVA_AWA_CON	79	A	B	Rpleas_acq	Same	Rpleas	2pleas	acq_new_unple_nomask	acq2_nomask	2	34	480	1	300	300	0	0	445	46	1	0	gütig	sonnig	besonnen	kreativ	engagiert	kuss	gierig	sterben	bange	krank	engstirnig	krise	vertrauen	träumen	anregung	gesittet	genießen	vergnügt	versagen	töten	ausrottung	geizig	gemein	verbissen	1	blank2r.bmp	0	1	+	0	1	blank2r.bmp	500	7	C3r.bmp	500	1	blank2r.bmp	880	3	ausrottung	880	1	!	1312	1	!	1347	0	0	0	0	0	0
2024-06-11	11:32:29	11:37:29	299645	6.6.1	4_exp_EVA_AWA_CON	79	A	B	Rpleas_acq	Same	Rpleas	2pleas	acq_US_pleas_nomask	acq2_nomask	2	35	480	1	300	300	0	0	449	50	1	0	gütig	sonnig	besonnen	kreativ	engagiert	kuss	gierig	sterben	bange	krank	engstirnig	krise	vertrauen	träumen	anregung	gesittet	genießen	vergnügt	versagen	töten	ausrottung	geizig	gemein	verbissen	1	blank2r.bmp	0	1	+	0	1	blank2r.bmp	500	1	DHJF	500	1	blank2r.bmp	880	4	kreativ	880	1	!	1313	1	!	1350	0	0	0	0	0	0
2024-06-11	11:32:29	11:37:32	301972	6.6.1	4_exp_EVA_AWA_CON	79	A	B	Rpleas_acq	Same	Rpleas	2pleas	acq_US_unple_nomask	acq2_nomask	2	36	480	1	300	300	0	0	544	46	1	0	gütig	sonnig	besonnen	kreativ	engagiert	kuss	gierig	sterben	bange	krank	engstirnig	krise	vertrauen	träumen	anregung	gesittet	genießen	vergnügt	versagen	töten	ausrottung	geizig	gemein	verbissen	1	blank2r.bmp	0	1	+	0	1	blank2r.bmp	500	1	CPLW	500	1	blank2r.bmp	880	5	engstirnig	880	1	!	1312	1	!	1446	0	0	0	0	0	0
2024-06-11	11:32:29	11:37:58	327787	6.6.1	4_exp_EVA_AWA_CON	79	A	B	Rpleas_acq	Same	Rpleas	2pleas	acq_US_pleas_nomask	acq3_nomask	3	1	453	0	300	300	0	0	2955	50	1	0	gütig	sonnig	besonnen	kreativ	engagiert	kuss	gierig	sterben	bange	krank	engstirnig	krise	vertrauen	träumen	anregung	gesittet	genießen	vergnügt	versagen	töten	ausrottung	geizig	gemein	verbissen	1	blank2r.bmp	0	1	+	0	1	blank2r.bmp	500	1	DHJF	500	1	blank2r.bmp	880	1	gütig	880	1	!	1292	1	!	-1	0	0	0	0	0	0
2024-06-11	11:32:29	11:38:00	329997	6.6.1	4_exp_EVA_AWA_CON	79	A	B	Rpleas_acq	Same	Rpleas	2pleas	acq_US_pleas_nomask	acq3_nomask	3	2	453	1	300	300	0	0	431	50	1	0	gütig	sonnig	besonnen	kreativ	engagiert	kuss	gierig	sterben	bange	krank	engstirnig	krise	vertrauen	träumen	anregung	gesittet	genießen	vergnügt	versagen	töten	ausrottung	geizig	gemein	verbissen	1	blank2r.bmp	0	1	+	0	1	blank2r.bmp	500	1	DHJF	500	1	blank2r.bmp	880	2	sonnig	880	1	!	1292	1	!	1332	0	0	0	0	0	0
2024-06-11	11:32:29	11:38:02	332204	6.6.1	4_exp_EVA_AWA_CON	79	A	B	Rpleas_acq	Same	Rpleas	2pleas	acq_US_unple_nomask	acq3_nomask	3	3	453	1	300	300	0	0	427	46	1	0	gütig	sonnig	besonnen	kreativ	engagiert	kuss	gierig	sterben	bange	krank	engstirnig	krise	vertrauen	träumen	anregung	gesittet	genießen	vergnügt	versagen	töten	ausrottung	geizig	gemein	verbissen	1	blank2r.bmp	0	1	+	0	1	blank2r.bmp	500	1	CPLW	500	1	blank2r.bmp	880	5	engstirnig	880	1	!	1292	1	!	1329	0	0	0	0	0	0
2024-06-11	11:32:29	11:38:04	334436	6.6.1	4_exp_EVA_AWA_CON	79	A	B	Rpleas_acq	Same	Rpleas	2pleas	acq_US_pleas_nomask	acq3_nomask	3	4	453	1	300	300	0	0	458	50	1	0	gütig	sonnig	besonnen	kreativ	engagiert	kuss	gierig	sterben	bange	krank	engstirnig	krise	vertrauen	träumen	anregung	gesittet	genießen	vergnügt	versagen	töten	ausrottung	geizig	gemein	verbissen	1	blank2r.bmp	0	1	+	0	1	blank2r.bmp	500	1	DHJF	500	1	blank2r.bmp	880	4	kreativ	880	1	!	1292	1	!	1359	0	0	0	0	0	0
2024-06-11	11:32:29	11:38:06	336724	6.6.1	4_exp_EVA_AWA_CON	79	A	B	Rpleas_acq	Same	Rpleas	2pleas	acq_US_unple_nomask	acq3_nomask	3	5	453	1	300	300	0	0	504	46	1	0	gütig	sonnig	besonnen	kreativ	engagiert	kuss	gierig	sterben	bange	krank	engstirnig	krise	vertrauen	träumen	anregung	gesittet	genießen	vergnügt	versagen	töten	ausrottung	geizig	gemein	verbissen	1	blank2r.bmp	0	1	+	0	1	blank2r.bmp	500	1	CPLW	500	1	blank2r.bmp	880	2	sterben	880	1	!	1293	1	!	1406	0	0	0	0	0	0
2024-06-11	11:32:29	11:38:09	339004	6.6.1	4_exp_EVA_AWA_CON	79	A	B	Rpleas_acq	Same	Rpleas	2pleas	acq_US_pleas_nomask	acq3_nomask	3	6	453	1	300	300	0	0	503	50	1	0	gütig	sonnig	besonnen	kreativ	engagiert	kuss	gierig	sterben	bange	krank	engstirnig	krise	vertrauen	träumen	anregung	gesittet	genießen	vergnügt	versagen	töten	ausrottung	geizig	gemein	verbissen	1	blank2r.bmp	0	1	+	0	1	blank2r.bmp	500	1	DHJF	500	1	blank2r.bmp	880	5	engagiert	880	1	!	1292	1	!	1404	0	0	0	0	0	0
2024-06-11	11:32:29	11:38:11	341284	6.6.1	4_exp_EVA_AWA_CON	79	A	B	Rpleas_acq	Same	Rpleas	2pleas	acq_US_pleas_nomask	acq3_nomask	3	7	453	1	300	300	0	0	501	50	1	0	gütig	sonnig	besonnen	kreativ	engagiert	kuss	gierig	sterben	bange	krank	engstirnig	krise	vertrauen	träumen	anregung	gesittet	genießen	vergnügt	versagen	töten	ausrottung	geizig	gemein	verbissen	1	blank2r.bmp	0	1	+	0	1	blank2r.bmp	500	1	DHJF	500	1	blank2r.bmp	880	6	kuss	880	1	!	1292	1	!	1403	0	0	0	0	0	0
2024-06-11	11:32:29	11:38:13	343540	6.6.1	4_exp_EVA_AWA_CON	79	A	B	Rpleas_acq	Same	Rpleas	2pleas	acq_US_unple_nomask	acq3_nomask	3	8	453	1	300	300	0	0	476	46	1	0	gütig	sonnig	besonnen	kreativ	engagiert	kuss	gierig	sterben	bange	krank	engstirnig	krise	vertrauen	träumen	anregung	gesittet	genießen	vergnügt	versagen	töten	ausrottung	geizig	gemein	verbissen	1	blank2r.bmp	0	1	+	0	1	blank2r.bmp	500	1	CPLW	500	1	blank2r.bmp	880	6	krise	880	1	!	1292	1	!	1377	0	0	0	0	0	0
2024-06-11	11:32:29	11:38:16	345748	6.6.1	4_exp_EVA_AWA_CON	79	A	B	Rpleas_acq	Same	Rpleas	2pleas	acq_US_pleas_nomask	acq3_nomask	3	9	453	1	300	300	0	0	433	50	1	0	gütig	sonnig	besonnen	kreativ	engagiert	kuss	gierig	sterben	bange	krank	engstirnig	krise	vertrauen	träumen	anregung	gesittet	genießen	vergnügt	versagen	töten	ausrottung	geizig	gemein	verbissen	1	blank2r.bmp	0	1	+	0	1	blank2r.bmp	500	1	DHJF	500	1	blank2r.bmp	880	3	besonnen	880	1	!	1293	1	!	1334	0	0	0	0	0	0
2024-06-11	11:32:29	11:38:18	347899	6.6.1	4_exp_EVA_AWA_CON	79	A	B	Rpleas_acq	Same	Rpleas	2pleas	acq_US_unple_nomask	acq3_nomask	3	10	453	0	300	300	0	0	373	46	1	0	gütig	sonnig	besonnen	kreativ	engagiert	kuss	gierig	sterben	bange	krank	engstirnig	krise	vertrauen	träumen	anregung	gesittet	genießen	vergnügt	versagen	töten	ausrottung	geizig	gemein	verbissen	1	blank2r.bmp	0	1	+	0	1	blank2r.bmp	500	1	CPLW	500	1	blank2r.bmp	880	4	krank	880	1	!	-1	1	!	-1	0	0	0	0	0	0
2024-06-11	11:32:29	11:38:20	350196	6.6.1	4_exp_EVA_AWA_CON	79	A	B	Rpleas_acq	Same	Rpleas	2pleas	acq_US_unple_nomask	acq3_nomask	3	11	453	1	300	300	0	0	517	46	1	0	gütig	sonnig	besonnen	kreativ	engagiert	kuss	gierig	sterben	bange	krank	engstirnig	krise	vertrauen	träumen	anregung	gesittet	genießen	vergnügt	versagen	töten	ausrottung	geizig	gemein	verbissen	1	blank2r.bmp	0	1	+	0	1	blank2r.bmp	500	1	CPLW	500	1	blank2r.bmp	880	3	bange	880	1	!	1293	1	!	1419	0	0	0	0	0	0
2024-06-11	11:32:29	11:38:22	352437	6.6.1	4_exp_EVA_AWA_CON	79	A	B	Rpleas_acq	Same	Rpleas	2pleas	acq_US_unple_nomask	acq3_nomask	3	12	453	1	300	300	0	0	456	46	1	0	gütig	sonnig	besonnen	kreativ	engagiert	kuss	gierig	sterben	bange	krank	engstirnig	krise	vertrauen	träumen	anregung	gesittet	genießen	vergnügt	versagen	töten	ausrottung	geizig	gemein	verbissen	1	blank2r.bmp	0	1	+	0	1	blank2r.bmp	500	1	CPLW	500	1	blank2r.bmp	880	1	gierig	880	1	!	1292	1	!	1358	0	0	0	0	0	0
2024-06-11	11:32:29	11:38:25	354819	6.6.1	4_exp_EVA_AWA_CON	79	A	B	Rpleas_acq	Same	Rpleas	2pleas	acq_US_unple_nomask	acq3_nomask	3	13	453	0	300	300	0	0	609	46	1	0	gütig	sonnig	besonnen	kreativ	engagiert	kuss	gierig	sterben	bange	krank	engstirnig	krise	vertrauen	träumen	anregung	gesittet	genießen	vergnügt	versagen	töten	ausrottung	geizig	gemein	verbissen	1	blank2r.bmp	0	1	+	0	1	blank2r.bmp	500	1	CPLW	500	1	blank2r.bmp	880	2	sterben	880	1	!	1293	1	!	-1	0	0	0	0	0	0
2024-06-11	11:32:29	11:38:27	357171	6.6.1	4_exp_EVA_AWA_CON	79	A	B	Rpleas_acq	Same	Rpleas	2pleas	acq_US_pleas_nomask	acq3_nomask	3	14	453	0	300	300	0	0	579	50	1	0	gütig	sonnig	besonnen	kreativ	engagiert	kuss	gierig	sterben	bange	krank	engstirnig	krise	vertrauen	träumen	anregung	gesittet	genießen	vergnügt	versagen	töten	ausrottung	geizig	gemein	verbissen	1	blank2r.bmp	0	1	+	0	1	blank2r.bmp	500	1	DHJF	500	1	blank2r.bmp	880	5	engagiert	880	1	!	1293	1	!	-1	0	0	0	0	0	0
2024-06-11	11:32:29	11:38:29	359396	6.6.1	4_exp_EVA_AWA_CON	79	A	B	Rpleas_acq	Same	Rpleas	2pleas	acq_US_pleas_nomask	acq3_nomask	3	15	453	1	300	300	0	0	441	50	1	0	gütig	sonnig	besonnen	kreativ	engagiert	kuss	gierig	sterben	bange	krank	engstirnig	krise	vertrauen	träumen	anregung	gesittet	genießen	vergnügt	versagen	töten	ausrottung	geizig	gemein	verbissen	1	blank2r.bmp	0	1	+	0	1	blank2r.bmp	500	1	DHJF	500	1	blank2r.bmp	880	1	gütig	880	1	!	1292	1	!	1343	0	0	0	0	0	0
2024-06-11	11:32:29	11:38:31	361571	6.6.1	4_exp_EVA_AWA_CON	79	A	B	Rpleas_acq	Same	Rpleas	2pleas	acq_US_unple_nomask	acq3_nomask	3	16	453	1	300	300	0	0	396	46	1	0	gütig	sonnig	besonnen	kreativ	engagiert	kuss	gierig	sterben	bange	krank	engstirnig	krise	vertrauen	träumen	anregung	gesittet	genießen	vergnügt	versagen	töten	ausrottung	geizig	gemein	verbissen	1	blank2r.bmp	0	1	+	0	1	blank2r.bmp	500	1	CPLW	500	1	blank2r.bmp	880	4	krank	880	1	!	1292	1	!	1296	0	0	0	0	0	0
2024-06-11	11:32:29	11:38:34	363979	6.6.1	4_exp_EVA_AWA_CON	79	A	B	Rpleas_acq	Same	Rpleas	2pleas	acq_US_unple_nomask	acq3_nomask	3	17	453	0	300	300	0	0	633	46	1	0	gütig	sonnig	besonnen	kreativ	engagiert	kuss	gierig	sterben	bange	krank	engstirnig	krise	vertrauen	träumen	anregung	gesittet	genießen	vergnügt	versagen	töten	ausrottung	geizig	gemein	verbissen	1	blank2r.bmp	0	1	+	0	1	blank2r.bmp	500	1	CPLW	500	1	blank2r.bmp	880	3	bange	880	1	!	1292	1	!	-1	0	0	0	0	0	0
2024-06-11	11:32:29	11:38:36	366462	6.6.1	4_exp_EVA_AWA_CON	79	A	B	Rpleas_acq	Same	Rpleas	2pleas	acq_US_pleas_nomask	acq3_nomask	3	18	453	1	300	300	0	0	502	46	0	0	gütig	sonnig	besonnen	kreativ	engagiert	kuss	gierig	sterben	bange	krank	engstirnig	krise	vertrauen	träumen	anregung	gesittet	genießen	vergnügt	versagen	töten	ausrottung	geizig	gemein	verbissen	1	blank2r.bmp	0	1	+	0	1	blank2r.bmp	500	1	DHJF	500	1	blank2r.bmp	880	4	kreativ	880	1	FEHLER	1695	1	!	1292	1	!	1403	0	0	0
2024-06-11	11:32:29	11:38:38	368667	6.6.1	4_exp_EVA_AWA_CON	79	A	B	Rpleas_acq	Same	Rpleas	2pleas	acq_US_unple_nomask	acq3_nomask	3	19	453	0	300	300	0	0	628	46	1	0	gütig	sonnig	besonnen	kreativ	engagiert	kuss	gierig	sterben	bange	krank	engstirnig	krise	vertrauen	träumen	anregung	gesittet	genießen	vergnügt	versagen	töten	ausrottung	geizig	gemein	verbissen	1	blank2r.bmp	0	1	+	0	1	blank2r.bmp	500	1	CPLW	500	1	blank2r.bmp	880	6	krise	880	1	!	1292	1	!	-1	0	0	0	0	0	0
2024-06-11	11:32:29	11:38:41	371069	6.6.1	4_exp_EVA_AWA_CON	79	A	B	Rpleas_acq	Same	Rpleas	2pleas	acq_US_unple_nomask	acq3_nomask	3	20	453	1	300	300	0	0	426	50	0	0	gütig	sonnig	besonnen	kreativ	engagiert	kuss	gierig	sterben	bange	krank	engstirnig	krise	vertrauen	träumen	anregung	gesittet	genießen	vergnügt	versagen	töten	ausrottung	geizig	gemein	verbissen	1	blank2r.bmp	0	1	+	0	1	blank2r.bmp	500	1	CPLW	500	1	blank2r.bmp	880	1	gierig	880	1	FEHLER	1619	1	!	1292	1	!	1328	0	0	0
2024-06-11	11:32:29	11:38:44	373987	6.6.1	4_exp_EVA_AWA_CON	79	A	B	Rpleas_acq	Same	Rpleas	2pleas	acq_US_pleas_nomask	acq3_nomask	3	21	453	0	300	300	0	0	1345	50	1	0	gütig	sonnig	besonnen	kreativ	engagiert	kuss	gierig	sterben	bange	krank	engstirnig	krise	vertrauen	träumen	anregung	gesittet	genießen	vergnügt	versagen	töten	ausrottung	geizig	gemein	verbissen	1	blank2r.bmp	0	1	+	0	1	blank2r.bmp	500	1	DHJF	500	1	blank2r.bmp	880	6	kuss	880	1	!	1293	1	!	-1	0	0	0	0	0	0
2024-06-11	11:32:29	11:38:46	376147	6.6.1	4_exp_EVA_AWA_CON	79	A	B	Rpleas_acq	Same	Rpleas	2pleas	acq_US_unple_nomask	acq3_nomask	3	22	453	0	300	300	0	0	383	46	1	0	gütig	sonnig	besonnen	kreativ	engagiert	kuss	gierig	sterben	bange	krank	engstirnig	krise	vertrauen	träumen	anregung	gesittet	genießen	vergnügt	versagen	töten	ausrottung	geizig	gemein	verbissen	1	blank2r.bmp	0	1	+	0	1	blank2r.bmp	500	1	CPLW	500	1	blank2r.bmp	880	5	engstirnig	880	1	!	-1	1	!	-1	0	0	0	0	0	0
2024-06-11	11:32:29	11:38:50	380051	6.6.1	4_exp_EVA_AWA_CON	79	A	B	Rpleas_acq	Same	Rpleas	2pleas	acq_US_pleas_nomask	acq3_nomask	3	23	453	0	300	300	0	0	2125	50	1	0	gütig	sonnig	besonnen	kreativ	engagiert	kuss	gierig	sterben	bange	krank	engstirnig	krise	vertrauen	träumen	anregung	gesittet	genießen	vergnügt	versagen	töten	ausrottung	geizig	gemein	verbissen	1	blank2r.bmp	0	1	+	0	1	blank2r.bmp	500	1	DHJF	500	1	blank2r.bmp	880	3	besonnen	880	1	!	1293	1	!	-1	0	0	0	0	0	0
2024-06-11	11:32:29	11:38:52	382363	6.6.1	4_exp_EVA_AWA_CON	79	A	B	Rpleas_acq	Same	Rpleas	2pleas	acq_US_pleas_nomask	acq3_nomask	3	24	453	0	300	300	0	0	536	50	1	0	gütig	sonnig	besonnen	kreativ	engagiert	kuss	gierig	sterben	bange	krank	engstirnig	krise	vertrauen	träumen	anregung	gesittet	genießen	vergnügt	versagen	töten	ausrottung	geizig	gemein	verbissen	1	blank2r.bmp	0	1	+	0	1	blank2r.bmp	500	1	DHJF	500	1	blank2r.bmp	880	2	sonnig	880	1	!	1292	1	!	-1	0	0	0	0	0	0
2024-06-11	11:32:29	11:38:54	384661	6.6.1	4_exp_EVA_AWA_CON	79	A	B	Rpleas_acq	Same	Rpleas	2pleas	acq_US_unple_nomask	acq3_nomask	3	25	453	1	300	300	0	0	520	46	1	0	gütig	sonnig	besonnen	kreativ	engagiert	kuss	gierig	sterben	bange	krank	engstirnig	krise	vertrauen	träumen	anregung	gesittet	genießen	vergnügt	versagen	töten	ausrottung	geizig	gemein	verbissen	1	blank2r.bmp	0	1	+	0	1	blank2r.bmp	500	1	CPLW	500	1	blank2r.bmp	880	4	krank	880	1	!	1293	1	!	1422	0	0	0	0	0	0
2024-06-11	11:32:29	11:38:57	386885	6.6.1	4_exp_EVA_AWA_CON	79	A	B	Rpleas_acq	Same	Rpleas	2pleas	acq_US_unple_nomask	acq3_nomask	3	26	453	0	300	300	0	0	242	50	0	0	gütig	sonnig	besonnen	kreativ	engagiert	kuss	gierig	sterben	bange	krank	engstirnig	krise	vertrauen	träumen	anregung	gesittet	genießen	vergnügt	versagen	töten	ausrottung	geizig	gemein	verbissen	1	blank2r.bmp	0	1	+	0	1	blank2r.bmp	500	1	CPLW	500	1	blank2r.bmp	880	3	bange	880	1	FEHLER	1435	1	!	-1	1	!	-1	0	0	0
2024-06-11	11:32:29	11:39:00	390187	6.6.1	4_exp_EVA_AWA_CON	79	A	B	Rpleas_acq	Same	Rpleas	2pleas	acq_US_pleas_nomask	acq3_nomask	3	27	453	0	300	300	0	0	1726	50	1	0	gütig	sonnig	besonnen	kreativ	engagiert	kuss	gierig	sterben	bange	krank	engstirnig	krise	vertrauen	träumen	anregung	gesittet	genießen	vergnügt	versagen	töten	ausrottung	geizig	gemein	verbissen	1	blank2r.bmp	0	1	+	0	1	blank2r.bmp	500	1	DHJF	500	1	blank2r.bmp	880	1	gütig	880	1	!	1292	1	!	-1	0	0	0	0	0	0
2024-06-11	11:32:29	11:39:02	392707	6.6.1	4_exp_EVA_AWA_CON	79	A	B	Rpleas_acq	Same	Rpleas	2pleas	acq_US_pleas_nomask	acq3_nomask	3	28	453	0	300	300	0	0	742	50	1	0	gütig	sonnig	besonnen	kreativ	engagiert	kuss	gierig	sterben	bange	krank	engstirnig	krise	vertrauen	träumen	anregung	gesittet	genießen	vergnügt	versagen	töten	ausrottung	geizig	gemein	verbissen	1	blank2r.bmp	0	1	+	0	1	blank2r.bmp	500	1	DHJF	500	1	blank2r.bmp	880	5	engagiert	880	1	!	1292	1	!	-1	0	0	0	0	0	0
2024-06-11	11:32:29	11:39:05	395004	6.6.1	4_exp_EVA_AWA_CON	79	A	B	Rpleas_acq	Same	Rpleas	2pleas	acq_US_pleas_nomask	acq3_nomask	3	29	453	1	300	300	0	0	517	50	1	0	gütig	sonnig	besonnen	kreativ	engagiert	kuss	gierig	sterben	bange	krank	engstirnig	krise	vertrauen	träumen	anregung	gesittet	genießen	vergnügt	versagen	töten	ausrottung	geizig	gemein	verbissen	1	blank2r.bmp	0	1	+	0	1	blank2r.bmp	500	1	DHJF	500	1	blank2r.bmp	880	4	kreativ	880	1	!	1293	1	!	1418	0	0	0	0	0	0
2024-06-11	11:32:29	11:39:07	397196	6.6.1	4_exp_EVA_AWA_CON	79	A	B	Rpleas_acq	Same	Rpleas	2pleas	acq_US_unple_nomask	acq3_nomask	3	30	453	1	300	300	0	0	417	46	1	0	gütig	sonnig	besonnen	kreativ	engagiert	kuss	gierig	sterben	bange	krank	engstirnig	krise	vertrauen	träumen	anregung	gesittet	genießen	vergnügt	versagen	töten	ausrottung	geizig	gemein	verbissen	1	blank2r.bmp	0	1	+	0	1	blank2r.bmp	500	1	CPLW	500	1	blank2r.bmp	880	1	gierig	880	1	!	1292	1	!	1319	0	0	0	0	0	0
2024-06-11	11:32:29	11:39:09	399299	6.6.1	4_exp_EVA_AWA_CON	79	A	B	Rpleas_acq	Same	Rpleas	2pleas	acq_US_pleas_nomask	acq3_nomask	3	31	453	0	300	300	0	0	330	50	1	0	gütig	sonnig	besonnen	kreativ	engagiert	kuss	gierig	sterben	bange	krank	engstirnig	krise	vertrauen	träumen	anregung	gesittet	genießen	vergnügt	versagen	töten	ausrottung	geizig	gemein	verbissen	1	blank2r.bmp	0	1	+	0	1	blank2r.bmp	500	1	DHJF	500	1	blank2r.bmp	880	6	kuss	880	1	!	-1	1	!	-1	0	0	0	0	0	0
2024-06-11	11:32:29	11:39:11	401670	6.6.1	4_exp_EVA_AWA_CON	79	A	B	Rpleas_acq	Same	Rpleas	2pleas	acq_US_pleas_nomask	acq3_nomask	3	32	453	0	300	300	0	0	386	46	0	0	gütig	sonnig	besonnen	kreativ	engagiert	kuss	gierig	sterben	bange	krank	engstirnig	krise	vertrauen	träumen	anregung	gesittet	genießen	vergnügt	versagen	töten	ausrottung	geizig	gemein	verbissen	1	blank2r.bmp	0	1	+	0	1	blank2r.bmp	500	1	DHJF	500	1	blank2r.bmp	880	3	besonnen	880	1	FEHLER	1580	1	!	-1	1	!	-1	0	0	0
2024-06-11	11:32:29	11:39:14	404051	6.6.1	4_exp_EVA_AWA_CON	79	A	B	Rpleas_acq	Same	Rpleas	2pleas	acq_US_unple_nomask	acq3_nomask	3	33	453	0	300	300	0	0	809	46	1	0	gütig	sonnig	besonnen	kreativ	engagiert	kuss	gierig	sterben	bange	krank	engstirnig	krise	vertrauen	träumen	anregung	gesittet	genießen	vergnügt	versagen	töten	ausrottung	geizig	gemein	verbissen	1	blank2r.bmp	0	1	+	0	1	blank2r.bmp	500	1	CPLW	500	1	blank2r.bmp	880	5	engstirnig	880	1	!	1293	1	!	-1	0	0	0	0	0	0
2024-06-11	11:32:29	11:39:16	406361	6.6.1	4_exp_EVA_AWA_CON	79	A	B	Rpleas_acq	Same	Rpleas	2pleas	acq_US_unple_nomask	acq3_nomask	3	34	453	0	300	300	0	0	529	46	1	0	gütig	sonnig	besonnen	kreativ	engagiert	kuss	gierig	sterben	bange	krank	engstirnig	krise	vertrauen	träumen	anregung	gesittet	genießen	vergnügt	versagen	töten	ausrottung	geizig	gemein	verbissen	1	blank2r.bmp	0	1	+	0	1	blank2r.bmp	500	1	CPLW	500	1	blank2r.bmp	880	2	sterben	880	1	!	1292	1	!	-1	0	0	0	0	0	0
2024-06-11	11:32:29	11:39:18	408573	6.6.1	4_exp_EVA_AWA_CON	79	A	B	Rpleas_acq	Same	Rpleas	2pleas	acq_US_pleas_nomask	acq3_nomask	3	35	453	1	300	300	0	0	437	50	1	0	gütig	sonnig	besonnen	kreativ	engagiert	kuss	gierig	sterben	bange	krank	engstirnig	krise	vertrauen	träumen	anregung	gesittet	genießen	vergnügt	versagen	töten	ausrottung	geizig	gemein	verbissen	1	blank2r.bmp	0	1	+	0	1	blank2r.bmp	500	1	DHJF	500	1	blank2r.bmp	880	2	sonnig	880	1	!	1292	1	!	1338	0	0	0	0	0	0
2024-06-11	11:32:29	11:39:21	411043	6.6.1	4_exp_EVA_AWA_CON	79	A	B	Rpleas_acq	Same	Rpleas	2pleas	acq_US_unple_nomask	acq3_nomask	3	36	453	0	300	300	0	0	697	46	1	0	gütig	sonnig	besonnen	kreativ	engagiert	kuss	gierig	sterben	bange	krank	engstirnig	krise	vertrauen	träumen	anregung	gesittet	genießen	vergnügt	versagen	töten	ausrottung	geizig	gemein	verbissen	1	blank2r.bmp	0	1	+	0	1	blank2r.bmp	500	1	CPLW	500	1	blank2r.bmp	880	6	krise	880	1	!	1292	1	!	-1	0	0	0	0	0	0
2024-06-11	11:32:29	11:39:37	427549	6.6.1	4_exp_EVA_AWA_CON	79	A	B	Rpleas_acq	Same	Rpleas	2pleas	acq_US_pleas_nomask	acq45_nomask	4	1	400	1	300	300	0	0	440	50	1	0	gütig	sonnig	besonnen	kreativ	engagiert	kuss	gierig	sterben	bange	krank	engstirnig	krise	vertrauen	träumen	anregung	gesittet	genießen	vergnügt	versagen	töten	ausrottung	geizig	gemein	verbissen	1	blank2r.bmp	0	1	+	0	1	blank2r.bmp	500	1	DHJF	500	1	blank2r.bmp	880	3	besonnen	880	1	!	1232	1	!	1342	0	0	0	0	0	0
2024-06-11	11:32:29	11:39:40	429819	6.6.1	4_exp_EVA_AWA_CON	79	A	B	Rpleas_acq	Same	Rpleas	2pleas	acq_US_pleas_nomask	acq45_nomask	4	2	400	0	300	300	0	0	490	50	1	0	gütig	sonnig	besonnen	kreativ	engagiert	kuss	gierig	sterben	bange	krank	engstirnig	krise	vertrauen	träumen	anregung	gesittet	genießen	vergnügt	versagen	töten	ausrottung	geizig	gemein	verbissen	1	blank2r.bmp	0	1	+	0	1	blank2r.bmp	500	1	DHJF	500	1	blank2r.bmp	880	5	engagiert	880	1	!	1232	1	!	-1	0	0	0	0	0	0
2024-06-11	11:32:29	11:39:42	432068	6.6.1	4_exp_EVA_AWA_CON	79	A	B	Rpleas_acq	Same	Rpleas	2pleas	acq_US_unple_nomask	acq45_nomask	4	3	400	1	300	300	0	0	467	46	1	0	gütig	sonnig	besonnen	kreativ	engagiert	kuss	gierig	sterben	bange	krank	engstirnig	krise	vertrauen	träumen	anregung	gesittet	genießen	vergnügt	versagen	töten	ausrottung	geizig	gemein	verbissen	1	blank2r.bmp	0	1	+	0	1	blank2r.bmp	500	1	CPLW	500	1	blank2r.bmp	880	6	krise	880	1	!	1232	1	!	1369	0	0	0	0	0	0
2024-06-11	11:32:29	11:39:44	434268	6.6.1	4_exp_EVA_AWA_CON	79	A	B	Rpleas_acq	Same	Rpleas	2pleas	acq_US_pleas_nomask	acq45_nomask	4	4	400	1	300	300	0	0	425	50	1	0	gütig	sonnig	besonnen	kreativ	engagiert	kuss	gierig	sterben	bange	krank	engstirnig	krise	vertrauen	träumen	anregung	gesittet	genießen	vergnügt	versagen	töten	ausrottung	geizig	gemein	verbissen	1	blank2r.bmp	0	1	+	0	1	blank2r.bmp	500	1	DHJF	500	1	blank2r.bmp	880	1	gütig	880	1	!	1232	1	!	1327	0	0	0	0	0	0
2024-06-11	11:32:29	11:39:46	436539	6.6.1	4_exp_EVA_AWA_CON	79	A	B	Rpleas_acq	Same	Rpleas	2pleas	acq_US_unple_nomask	acq45_nomask	4	5	400	0	300	300	0	0	496	46	1	0	gütig	sonnig	besonnen	kreativ	engagiert	kuss	gierig	sterben	bange	krank	engstirnig	krise	vertrauen	träumen	anregung	gesittet	genießen	vergnügt	versagen	töten	ausrottung	geizig	gemein	verbissen	1	blank2r.bmp	0	1	+	0	1	blank2r.bmp	500	1	CPLW	500	1	blank2r.bmp	880	5	engstirnig	880	1	!	1232	1	!	-1	0	0	0	0	0	0
2024-06-11	11:32:29	11:39:49	438780	6.6.1	4_exp_EVA_AWA_CON	79	A	B	Rpleas_acq	Same	Rpleas	2pleas	acq_US_unple_nomask	acq45_nomask	4	6	400	1	300	300	0	0	465	46	1	0	gütig	sonnig	besonnen	kreativ	engagiert	kuss	gierig	sterben	bange	krank	engstirnig	krise	vertrauen	träumen	anregung	gesittet	genießen	vergnügt	versagen	töten	ausrottung	geizig	gemein	verbissen	1	blank2r.bmp	0	1	+	0	1	blank2r.bmp	500	1	CPLW	500	1	blank2r.bmp	880	3	bange	880	1	!	1232	1	!	1366	0	0	0	0	0	0
2024-06-11	11:32:29	11:39:51	441187	6.6.1	4_exp_EVA_AWA_CON	79	A	B	Rpleas_acq	Same	Rpleas	2pleas	acq_US_unple_nomask	acq45_nomask	4	7	400	0	300	300	0	0	631	46	1	0	gütig	sonnig	besonnen	kreativ	engagiert	kuss	gierig	sterben	bange	krank	engstirnig	krise	vertrauen	träumen	anregung	gesittet	genießen	vergnügt	versagen	töten	ausrottung	geizig	gemein	verbissen	1	blank2r.bmp	0	1	+	0	1	blank2r.bmp	500	1	CPLW	500	1	blank2r.bmp	880	2	sterben	880	1	!	1232	1	!	-1	0	0	0	0	0	0
2024-06-11	11:32:29	11:39:53	443507	6.6.1	4_exp_EVA_AWA_CON	79	A	B	Rpleas_acq	Same	Rpleas	2pleas	acq_US_unple_nomask	acq45_nomask	4	8	400	0	300	300	0	0	540	50	0	0	gütig	sonnig	besonnen	kreativ	engagiert	kuss	gierig	sterben	bange	krank	engstirnig	krise	vertrauen	träumen	anregung	gesittet	genießen	vergnügt	versagen	töten	ausrottung	geizig	gemein	verbissen	1	blank2r.bmp	0	1	+	0	1	blank2r.bmp	500	1	CPLW	500	1	blank2r.bmp	880	1	gierig	880	1	!	1232	1	!	-1	0	0	0	0	0	0
2024-06-11	11:32:29	11:39:56	445732	6.6.1	4_exp_EVA_AWA_CON	79	A	B	Rpleas_acq	Same	Rpleas	2pleas	acq_US_pleas_nomask	acq45_nomask	4	9	400	1	300	300	0	0	442	50	1	0	gütig	sonnig	besonnen	kreativ	engagiert	kuss	gierig	sterben	bange	krank	engstirnig	krise	vertrauen	träumen	anregung	gesittet	genießen	vergnügt	versagen	töten	ausrottung	geizig	gemein	verbissen	1	blank2r.bmp	0	1	+	0	1	blank2r.bmp	500	1	DHJF	500	1	blank2r.bmp	880	6	kuss	880	1	!	1232	1	!	1344	0	0	0	0	0	0
2024-06-11	11:32:29	11:39:58	448091	6.6.1	4_exp_EVA_AWA_CON	79	A	B	Rpleas_acq	Same	Rpleas	2pleas	acq_US_unple_nomask	acq45_nomask	4	10	400	0	300	300	0	0	581	46	1	0	gütig	sonnig	besonnen	kreativ	engagiert	kuss	gierig	sterben	bange	krank	engstirnig	krise	vertrauen	träumen	anregung	gesittet	genießen	vergnügt	versagen	töten	ausrottung	geizig	gemein	verbissen	1	blank2r.bmp	0	1	+	0	1	blank2r.bmp	500	1	CPLW	500	1	blank2r.bmp	880	4	krank	880	1	!	1232	1	!	-1	0	0	0	0	0	0
2024-06-11	11:32:29	11:40:00	450308	6.6.1	4_exp_EVA_AWA_CON	79	A	B	Rpleas_acq	Same	Rpleas	2pleas	acq_US_unple_nomask	acq45_nomask	4	11	400	1	300	300	0	0	435	46	1	0	gütig	sonnig	besonnen	kreativ	engagiert	kuss	gierig	sterben	bange	krank	engstirnig	krise	vertrauen	träumen	anregung	gesittet	genießen	vergnügt	versagen	töten	ausrottung	geizig	gemein	verbissen	1	blank2r.bmp	0	1	+	0	1	blank2r.bmp	500	1	CPLW	500	1	blank2r.bmp	880	2	sterben	880	1	!	1232	1	!	1337	0	0	0	0	0	0
2024-06-11	11:32:29	11:40:02	452611	6.6.1	4_exp_EVA_AWA_CON	79	A	B	Rpleas_acq	Same	Rpleas	2pleas	acq_US_pleas_nomask	acq45_nomask	4	12	400	0	300	300	0	0	528	50	1	0	gütig	sonnig	besonnen	kreativ	engagiert	kuss	gierig	sterben	bange	krank	engstirnig	krise	vertrauen	träumen	anregung	gesittet	genießen	vergnügt	versagen	töten	ausrottung	geizig	gemein	verbissen	1	blank2r.bmp	0	1	+	0	1	blank2r.bmp	500	1	DHJF	500	1	blank2r.bmp	880	4	kreativ	880	1	!	1232	1	!	-1	0	0	0	0	0	0
2024-06-11	11:32:29	11:40:05	454845	6.6.1	4_exp_EVA_AWA_CON	79	A	B	Rpleas_acq	Same	Rpleas	2pleas	acq_US_pleas_nomask	acq45_nomask	4	13	400	1	300	300	0	0	458	50	1	0	gütig	sonnig	besonnen	kreativ	engagiert	kuss	gierig	sterben	bange	krank	engstirnig	krise	vertrauen	träumen	anregung	gesittet	genießen	vergnügt	versagen	töten	ausrottung	geizig	gemein	verbissen	1	blank2r.bmp	0	1	+	0	1	blank2r.bmp	500	1	DHJF	500	1	blank2r.bmp	880	2	sonnig	880	1	!	1232	1	!	1360	0	0	0	0	0	0
2024-06-11	11:32:29	11:40:07	457123	6.6.1	4_exp_EVA_AWA_CON	79	A	B	Rpleas_acq	Same	Rpleas	2pleas	acq_US_pleas_nomask	acq45_nomask	4	14	400	0	300	300	0	0	497	50	1	0	gütig	sonnig	besonnen	kreativ	engagiert	kuss	gierig	sterben	bange	krank	engstirnig	krise	vertrauen	träumen	anregung	gesittet	genießen	vergnügt	versagen	töten	ausrottung	geizig	gemein	verbissen	1	blank2r.bmp	0	1	+	0	1	blank2r.bmp	500	1	DHJF	500	1	blank2r.bmp	880	6	kuss	880	1	!	1232	1	!	-1	0	0	0	0	0	0
2024-06-11	11:32:29	11:40:09	459276	6.6.1	4_exp_EVA_AWA_CON	79	A	B	Rpleas_acq	Same	Rpleas	2pleas	acq_US_pleas_nomask	acq45_nomask	4	15	400	1	300	300	0	0	378	46	0	0	gütig	sonnig	besonnen	kreativ	engagiert	kuss	gierig	sterben	bange	krank	engstirnig	krise	vertrauen	träumen	anregung	gesittet	genießen	vergnügt	versagen	töten	ausrottung	geizig	gemein	verbissen	1	blank2r.bmp	0	1	+	0	1	blank2r.bmp	500	1	DHJF	500	1	blank2r.bmp	880	2	sonnig	880	1	!	1232	1	!	1279	0	0	0	0	0	0
2024-06-11	11:32:29	11:40:11	461555	6.6.1	4_exp_EVA_AWA_CON	79	A	B	Rpleas_acq	Same	Rpleas	2pleas	acq_US_unple_nomask	acq45_nomask	4	16	400	0	300	300	0	0	496	46	1	0	gütig	sonnig	besonnen	kreativ	engagiert	kuss	gierig	sterben	bange	krank	engstirnig	krise	vertrauen	träumen	anregung	gesittet	genießen	vergnügt	versagen	töten	ausrottung	geizig	gemein	verbissen	1	blank2r.bmp	0	1	+	0	1	blank2r.bmp	500	1	CPLW	500	1	blank2r.bmp	880	1	gierig	880	1	!	1232	1	!	-1	0	0	0	0	0	0
2024-06-11	11:32:29	11:40:14	463801	6.6.1	4_exp_EVA_AWA_CON	79	A	B	Rpleas_acq	Same	Rpleas	2pleas	acq_US_pleas_nomask	acq45_nomask	4	17	400	0	300	300	0	0	473	50	1	0	gütig	sonnig	besonnen	kreativ	engagiert	kuss	gierig	sterben	bange	krank	engstirnig	krise	vertrauen	träumen	anregung	gesittet	genießen	vergnügt	versagen	töten	ausrottung	geizig	gemein	verbissen	1	blank2r.bmp	0	1	+	0	1	blank2r.bmp	500	1	DHJF	500	1	blank2r.bmp	880	3	besonnen	880	1	!	1232	1	!	-1	0	0	0	0	0	0
2024-06-11	11:32:29	11:40:16	466122	6.6.1	4_exp_EVA_AWA_CON	79	A	B	Rpleas_acq	Same	Rpleas	2pleas	acq_US_unple_nomask	acq45_nomask	4	18	400	0	300	300	0	0	541	46	1	0	gütig	sonnig	besonnen	kreativ	engagiert	kuss	gierig	sterben	bange	krank	engstirnig	krise	vertrauen	träumen	anregung	gesittet	genießen	vergnügt	versagen	töten	ausrottung	geizig	gemein	verbissen	1	blank2r.bmp	0	1	+	0	1	blank2r.bmp	500	1	CPLW	500	1	blank2r.bmp	880	4	krank	880	1	!	1232	1	!	-1	0	0	0	0	0	0
2024-06-11	11:32:29	11:40:18	468316	6.6.1	4_exp_EVA_AWA_CON	79	A	B	Rpleas_acq	Same	Rpleas	2pleas	acq_US_pleas_nomask	acq45_nomask	4	19	400	1	300	300	0	0	412	50	1	0	gütig	sonnig	besonnen	kreativ	engagiert	kuss	gierig	sterben	bange	krank	engstirnig	krise	vertrauen	träumen	anregung	gesittet	genießen	vergnügt	versagen	töten	ausrottung	geizig	gemein	verbissen	1	blank2r.bmp	0	1	+	0	1	blank2r.bmp	500	1	DHJF	500	1	blank2r.bmp	880	1	gütig	880	1	!	1232	1	!	1313	0	0	0	0	0	0
2024-06-11	11:32:29	11:40:20	470587	6.6.1	4_exp_EVA_AWA_CON	79	A	B	Rpleas_acq	Same	Rpleas	2pleas	acq_US_pleas_nomask	acq45_nomask	4	20	400	0	300	300	0	0	492	50	1	0	gütig	sonnig	besonnen	kreativ	engagiert	kuss	gierig	sterben	bange	krank	engstirnig	krise	vertrauen	träumen	anregung	gesittet	genießen	vergnügt	versagen	töten	ausrottung	geizig	gemein	verbissen	1	blank2r.bmp	0	1	+	0	1	blank2r.bmp	500	1	DHJF	500	1	blank2r.bmp	880	4	kreativ	880	1	!	1232	1	!	-1	0	0	0	0	0	0
2024-06-11	11:32:29	11:40:23	472987	6.6.1	4_exp_EVA_AWA_CON	79	A	B	Rpleas_acq	Same	Rpleas	2pleas	acq_US_unple_nomask	acq45_nomask	4	21	400	0	300	300	0	0	621	46	1	0	gütig	sonnig	besonnen	kreativ	engagiert	kuss	gierig	sterben	bange	krank	engstirnig	krise	vertrauen	träumen	anregung	gesittet	genießen	vergnügt	versagen	töten	ausrottung	geizig	gemein	verbissen	1	blank2r.bmp	0	1	+	0	1	blank2r.bmp	500	1	CPLW	500	1	blank2r.bmp	880	3	bange	880	1	!	1232	1	!	-1	0	0	0	0	0	0
2024-06-11	11:32:29	11:40:25	475172	6.6.1	4_exp_EVA_AWA_CON	79	A	B	Rpleas_acq	Same	Rpleas	2pleas	acq_US_pleas_nomask	acq45_nomask	4	22	400	1	300	300	0	0	403	46	0	0	gütig	sonnig	besonnen	kreativ	engagiert	kuss	gierig	sterben	bange	krank	engstirnig	krise	vertrauen	träumen	anregung	gesittet	genießen	vergnügt	versagen	töten	ausrottung	geizig	gemein	verbissen	1	blank2r.bmp	0	1	+	0	1	blank2r.bmp	500	1	DHJF	500	1	blank2r.bmp	880	5	engagiert	880	1	!	1233	1	!	1305	0	0	0	0	0	0
2024-06-11	11:32:29	11:40:27	477475	6.6.1	4_exp_EVA_AWA_CON	79	A	B	Rpleas_acq	Same	Rpleas	2pleas	acq_US_pleas_nomask	acq45_nomask	4	23	400	0	300	300	0	0	526	50	1	0	gütig	sonnig	besonnen	kreativ	engagiert	kuss	gierig	sterben	bange	krank	engstirnig	krise	vertrauen	träumen	anregung	gesittet	genießen	vergnügt	versagen	töten	ausrottung	geizig	gemein	verbissen	1	blank2r.bmp	0	1	+	0	1	blank2r.bmp	500	1	DHJF	500	1	blank2r.bmp	880	3	besonnen	880	1	!	1233	1	!	-1	0	0	0	0	0	0
2024-06-11	11:32:29	11:40:30	479819	6.6.1	4_exp_EVA_AWA_CON	79	A	B	Rpleas_acq	Same	Rpleas	2pleas	acq_US_unple_nomask	acq45_nomask	4	24	400	0	300	300	0	0	568	46	1	0	gütig	sonnig	besonnen	kreativ	engagiert	kuss	gierig	sterben	bange	krank	engstirnig	krise	vertrauen	träumen	anregung	gesittet	genießen	vergnügt	versagen	töten	ausrottung	geizig	gemein	verbissen	1	blank2r.bmp	0	1	+	0	1	blank2r.bmp	500	1	CPLW	500	1	blank2r.bmp	880	5	engstirnig	880	1	!	1232	1	!	-1	0	0	0	0	0	0
2024-06-11	11:32:29	11:40:32	481875	6.6.1	4_exp_EVA_AWA_CON	79	A	B	Rpleas_acq	Same	Rpleas	2pleas	acq_US_unple_nomask	acq45_nomask	4	25	400	0	300	300	0	0	283	50	0	0	gütig	sonnig	besonnen	kreativ	engagiert	kuss	gierig	sterben	bange	krank	engstirnig	krise	vertrauen	träumen	anregung	gesittet	genießen	vergnügt	versagen	töten	ausrottung	geizig	gemein	verbissen	1	blank2r.bmp	0	1	+	0	1	blank2r.bmp	500	1	CPLW	500	1	blank2r.bmp	880	6	krise	880	1	!	-1	1	!	-1	0	0	0	0	0	0
2024-06-11	11:32:29	11:40:34	484100	6.6.1	4_exp_EVA_AWA_CON	79	A	B	Rpleas_acq	Same	Rpleas	2pleas	acq_US_pleas_nomask	acq45_nomask	4	26	400	1	300	300	0	0	445	50	1	0	gütig	sonnig	besonnen	kreativ	engagiert	kuss	gierig	sterben	bange	krank	engstirnig	krise	vertrauen	träumen	anregung	gesittet	genießen	vergnügt	versagen	töten	ausrottung	geizig	gemein	verbissen	1	blank2r.bmp	0	1	+	0	1	blank2r.bmp	500	1	DHJF	500	1	blank2r.bmp	880	5	engagiert	880	1	!	1232	1	!	1347	0	0	0	0	0	0
2024-06-11	11:32:29	11:40:36	486353	6.6.1	4_exp_EVA_AWA_CON	79	A	B	Rpleas_acq	Same	Rpleas	2pleas	acq_US_pleas_nomask	acq45_nomask	4	27	400	0	300	300	0	0	480	50	1	0	gütig	sonnig	besonnen	kreativ	engagiert	kuss	gierig	sterben	bange	krank	engstirnig	krise	vertrauen	träumen	anregung	gesittet	genießen	vergnügt	versagen	töten	ausrottung	geizig	gemein	verbissen	1	blank2r.bmp	0	1	+	0	1	blank2r.bmp	500	1	DHJF	500	1	blank2r.bmp	880	6	kuss	880	1	!	1233	1	!	-1	0	0	0	0	0	0
2024-06-11	11:32:29	11:40:38	488659	6.6.1	4_exp_EVA_AWA_CON	79	A	B	Rpleas_acq	Same	Rpleas	2pleas	acq_US_pleas_nomask	acq45_nomask	4	28	400	0	300	300	0	0	533	50	1	0	gütig	sonnig	besonnen	kreativ	engagiert	kuss	gierig	sterben	bange	krank	engstirnig	krise	vertrauen	träumen	anregung	gesittet	genießen	vergnügt	versagen	töten	ausrottung	geizig	gemein	verbissen	1	blank2r.bmp	0	1	+	0	1	blank2r.bmp	500	1	DHJF	500	1	blank2r.bmp	880	4	kreativ	880	1	!	1232	1	!	-1	0	0	0	0	0	0
2024-06-11	11:32:29	11:40:41	490844	6.6.1	4_exp_EVA_AWA_CON	79	A	B	Rpleas_acq	Same	Rpleas	2pleas	acq_US_unple_nomask	acq45_nomask	4	29	400	1	300	300	0	0	405	46	1	0	gütig	sonnig	besonnen	kreativ	engagiert	kuss	gierig	sterben	bange	krank	engstirnig	krise	vertrauen	träumen	anregung	gesittet	genießen	vergnügt	versagen	töten	ausrottung	geizig	gemein	verbissen	1	blank2r.bmp	0	1	+	0	1	blank2r.bmp	500	1	CPLW	500	1	blank2r.bmp	880	1	gierig	880	1	!	1232	1	!	1307	0	0	0	0	0	0
2024-06-11	11:32:29	11:40:43	493147	6.6.1	4_exp_EVA_AWA_CON	79	A	B	Rpleas_acq	Same	Rpleas	2pleas	acq_US_pleas_nomask	acq45_nomask	4	30	400	0	300	300	0	0	529	50	1	0	gütig	sonnig	besonnen	kreativ	engagiert	kuss	gierig	sterben	bange	krank	engstirnig	krise	vertrauen	träumen	anregung	gesittet	genießen	vergnügt	versagen	töten	ausrottung	geizig	gemein	verbissen	1	blank2r.bmp	0	1	+	0	1	blank2r.bmp	500	1	DHJF	500	1	blank2r.bmp	880	1	gütig	880	1	!	1232	1	!	-1	0	0	0	0	0	0
2024-06-11	11:32:29	11:40:45	495388	6.6.1	4_exp_EVA_AWA_CON	79	A	B	Rpleas_acq	Same	Rpleas	2pleas	acq_US_unple_nomask	acq45_nomask	4	31	400	1	300	300	0	0	466	46	1	0	gütig	sonnig	besonnen	kreativ	engagiert	kuss	gierig	sterben	bange	krank	engstirnig	krise	vertrauen	träumen	anregung	gesittet	genießen	vergnügt	versagen	töten	ausrottung	geizig	gemein	verbissen	1	blank2r.bmp	0	1	+	0	1	blank2r.bmp	500	1	CPLW	500	1	blank2r.bmp	880	5	engstirnig	880	1	!	1232	1	!	1368	0	0	0	0	0	0
2024-06-11	11:32:29	11:40:47	497683	6.6.1	4_exp_EVA_AWA_CON	79	A	B	Rpleas_acq	Same	Rpleas	2pleas	acq_US_unple_nomask	acq45_nomask	4	32	400	0	300	300	0	0	521	46	1	0	gütig	sonnig	besonnen	kreativ	engagiert	kuss	gierig	sterben	bange	krank	engstirnig	krise	vertrauen	träumen	anregung	gesittet	genießen	vergnügt	versagen	töten	ausrottung	geizig	gemein	verbissen	1	blank2r.bmp	0	1	+	0	1	blank2r.bmp	500	1	CPLW	500	1	blank2r.bmp	880	4	krank	880	1	!	1232	1	!	-1	0	0	0	0	0	0
2024-06-11	11:32:29	11:40:50	499908	6.6.1	4_exp_EVA_AWA_CON	79	A	B	Rpleas_acq	Same	Rpleas	2pleas	acq_US_unple_nomask	acq45_nomask	4	33	400	1	300	300	0	0	443	46	1	0	gütig	sonnig	besonnen	kreativ	engagiert	kuss	gierig	sterben	bange	krank	engstirnig	krise	vertrauen	träumen	anregung	gesittet	genießen	vergnügt	versagen	töten	ausrottung	geizig	gemein	verbissen	1	blank2r.bmp	0	1	+	0	1	blank2r.bmp	500	1	CPLW	500	1	blank2r.bmp	880	2	sterben	880	1	!	1232	1	!	1345	0	0	0	0	0	0
2024-06-11	11:32:29	11:40:52	502157	6.6.1	4_exp_EVA_AWA_CON	79	A	B	Rpleas_acq	Same	Rpleas	2pleas	acq_US_pleas_nomask	acq45_nomask	4	34	400	1	300	300	0	0	470	50	1	0	gütig	sonnig	besonnen	kreativ	engagiert	kuss	gierig	sterben	bange	krank	engstirnig	krise	vertrauen	träumen	anregung	gesittet	genießen	vergnügt	versagen	töten	ausrottung	geizig	gemein	verbissen	1	blank2r.bmp	0	1	+	0	1	blank2r.bmp	500	1	DHJF	500	1	blank2r.bmp	880	2	sonnig	880	1	!	1232	1	!	1372	0	0	0	0	0	0
2024-06-11	11:32:29	11:40:54	504380	6.6.1	4_exp_EVA_AWA_CON	79	A	B	Rpleas_acq	Same	Rpleas	2pleas	acq_US_unple_nomask	acq45_nomask	4	35	400	1	300	300	0	0	442	46	1	0	gütig	sonnig	besonnen	kreativ	engagiert	kuss	gierig	sterben	bange	krank	engstirnig	krise	vertrauen	träumen	anregung	gesittet	genießen	vergnügt	versagen	töten	ausrottung	geizig	gemein	verbissen	1	blank2r.bmp	0	1	+	0	1	blank2r.bmp	500	1	CPLW	500	1	blank2r.bmp	880	3	bange	880	1	!	1232	1	!	1344	0	0	0	0	0	0
2024-06-11	11:32:29	11:40:57	506787	6.6.1	4_exp_EVA_AWA_CON	79	A	B	Rpleas_acq	Same	Rpleas	2pleas	acq_US_unple_nomask	acq45_nomask	4	36	400	0	300	300	0	0	629	46	1	0	gütig	sonnig	besonnen	kreativ	engagiert	kuss	gierig	sterben	bange	krank	engstirnig	krise	vertrauen	träumen	anregung	gesittet	genießen	vergnügt	versagen	töten	ausrottung	geizig	gemein	verbissen	1	blank2r.bmp	0	1	+	0	1	blank2r.bmp	500	1	CPLW	500	1	blank2r.bmp	880	6	krise	880	1	!	1232	1	!	-1	0	0	0	0	0	0
2024-06-11	11:32:29	11:41:12	522115	6.6.1	4_exp_EVA_AWA_CON	79	A	B	Rpleas_acq	Same	Rpleas	2pleas	acq_US_pleas_nomask	acq45_nomask	5	1	400	0	300	300	0	0	487	50	1	0	gütig	sonnig	besonnen	kreativ	engagiert	kuss	gierig	sterben	bange	krank	engstirnig	krise	vertrauen	träumen	anregung	gesittet	genießen	vergnügt	versagen	töten	ausrottung	geizig	gemein	verbissen	1	blank2r.bmp	0	1	+	0	1	blank2r.bmp	500	1	DHJF	500	1	blank2r.bmp	880	3	besonnen	880	1	!	1232	1	!	-1	0	0	0	0	0	0
2024-06-11	11:32:29	11:41:14	524292	6.6.1	4_exp_EVA_AWA_CON	79	A	B	Rpleas_acq	Same	Rpleas	2pleas	acq_US_unple_nomask	acq45_nomask	5	2	400	1	300	300	0	0	402	46	1	0	gütig	sonnig	besonnen	kreativ	engagiert	kuss	gierig	sterben	bange	krank	engstirnig	krise	vertrauen	träumen	anregung	gesittet	genießen	vergnügt	versagen	töten	ausrottung	geizig	gemein	verbissen	1	blank2r.bmp	0	1	+	0	1	blank2r.bmp	500	1	CPLW	500	1	blank2r.bmp	880	6	krise	880	1	!	1233	1	!	1303	0	0	0	0	0	0
2024-06-11	11:32:29	11:41:16	526421	6.6.1	4_exp_EVA_AWA_CON	79	A	B	Rpleas_acq	Same	Rpleas	2pleas	acq_US_pleas_nomask	acq45_nomask	5	3	400	1	300	300	0	0	348	50	1	0	gütig	sonnig	besonnen	kreativ	engagiert	kuss	gierig	sterben	bange	krank	engstirnig	krise	vertrauen	träumen	anregung	gesittet	genießen	vergnügt	versagen	töten	ausrottung	geizig	gemein	verbissen	1	blank2r.bmp	0	1	+	0	1	blank2r.bmp	500	1	DHJF	500	1	blank2r.bmp	880	6	kuss	880	1	!	1232	1	!	1250	0	0	0	0	0	0
2024-06-11	11:32:29	11:41:18	528715	6.6.1	4_exp_EVA_AWA_CON	79	A	B	Rpleas_acq	Same	Rpleas	2pleas	acq_US_pleas_nomask	acq45_nomask	5	4	400	0	300	300	0	0	513	46	0	0	gütig	sonnig	besonnen	kreativ	engagiert	kuss	gierig	sterben	bange	krank	engstirnig	krise	vertrauen	träumen	anregung	gesittet	genießen	vergnügt	versagen	töten	ausrottung	geizig	gemein	verbissen	1	blank2r.bmp	0	1	+	0	1	blank2r.bmp	500	1	DHJF	500	1	blank2r.bmp	880	2	sonnig	880	1	!	1232	1	!	-1	0	0	0	0	0	0
2024-06-11	11:32:29	11:41:21	531043	6.6.1	4_exp_EVA_AWA_CON	79	A	B	Rpleas_acq	Same	Rpleas	2pleas	acq_US_unple_nomask	acq45_nomask	5	5	400	0	300	300	0	0	549	46	1	0	gütig	sonnig	besonnen	kreativ	engagiert	kuss	gierig	sterben	bange	krank	engstirnig	krise	vertrauen	träumen	anregung	gesittet	genießen	vergnügt	versagen	töten	ausrottung	geizig	gemein	verbissen	1	blank2r.bmp	0	1	+	0	1	blank2r.bmp	500	1	CPLW	500	1	blank2r.bmp	880	1	gierig	880	1	!	1232	1	!	-1	0	0	0	0	0	0
2024-06-11	11:32:29	11:41:23	533339	6.6.1	4_exp_EVA_AWA_CON	79	A	B	Rpleas_acq	Same	Rpleas	2pleas	acq_US_unple_nomask	acq45_nomask	5	6	400	0	300	300	0	0	514	46	1	0	gütig	sonnig	besonnen	kreativ	engagiert	kuss	gierig	sterben	bange	krank	engstirnig	krise	vertrauen	träumen	anregung	gesittet	genießen	vergnügt	versagen	töten	ausrottung	geizig	gemein	verbissen	1	blank2r.bmp	0	1	+	0	1	blank2r.bmp	500	1	CPLW	500	1	blank2r.bmp	880	2	sterben	880	1	!	1232	1	!	-1	0	0	0	0	0	0
2024-06-11	11:32:29	11:41:25	535635	6.6.1	4_exp_EVA_AWA_CON	79	A	B	Rpleas_acq	Same	Rpleas	2pleas	acq_US_unple_nomask	acq45_nomask	5	7	400	0	300	300	0	0	518	46	1	0	gütig	sonnig	besonnen	kreativ	engagiert	kuss	gierig	sterben	bange	krank	engstirnig	krise	vertrauen	träumen	anregung	gesittet	genießen	vergnügt	versagen	töten	ausrottung	geizig	gemein	verbissen	1	blank2r.bmp	0	1	+	0	1	blank2r.bmp	500	1	CPLW	500	1	blank2r.bmp	880	4	krank	880	1	!	1232	1	!	-1	0	0	0	0	0	0
2024-06-11	11:32:29	11:41:28	537780	6.6.1	4_exp_EVA_AWA_CON	79	A	B	Rpleas_acq	Same	Rpleas	2pleas	acq_US_pleas_nomask	acq45_nomask	5	8	400	1	300	300	0	0	371	50	1	0	gütig	sonnig	besonnen	kreativ	engagiert	kuss	gierig	sterben	bange	krank	engstirnig	krise	vertrauen	träumen	anregung	gesittet	genießen	vergnügt	versagen	töten	ausrottung	geizig	gemein	verbissen	1	blank2r.bmp	0	1	+	0	1	blank2r.bmp	500	1	DHJF	500	1	blank2r.bmp	880	5	engagiert	880	1	!	1233	1	!	1273	0	0	0	0	0	0
2024-06-11	11:32:29	11:41:30	539932	6.6.1	4_exp_EVA_AWA_CON	79	A	B	Rpleas_acq	Same	Rpleas	2pleas	acq_US_pleas_nomask	acq45_nomask	5	9	400	1	300	300	0	0	372	50	1	0	gütig	sonnig	besonnen	kreativ	engagiert	kuss	gierig	sterben	bange	krank	engstirnig	krise	vertrauen	träumen	anregung	gesittet	genießen	vergnügt	versagen	töten	ausrottung	geizig	gemein	verbissen	1	blank2r.bmp	0	1	+	0	1	blank2r.bmp	500	1	DHJF	500	1	blank2r.bmp	880	1	gütig	880	1	!	1232	1	!	1273	0	0	0	0	0	0
2024-06-11	11:32:29	11:41:32	542051	6.6.1	4_exp_EVA_AWA_CON	79	A	B	Rpleas_acq	Same	Rpleas	2pleas	acq_US_pleas_nomask	acq45_nomask	5	10	400	1	300	300	0	0	340	50	1	0	gütig	sonnig	besonnen	kreativ	engagiert	kuss	gierig	sterben	bange	krank	engstirnig	krise	vertrauen	träumen	anregung	gesittet	genießen	vergnügt	versagen	töten	ausrottung	geizig	gemein	verbissen	1	blank2r.bmp	0	1	+	0	1	blank2r.bmp	500	1	DHJF	500	1	blank2r.bmp	880	4	kreativ	880	1	!	1232	1	!	1240	0	0	0	0	0	0
2024-06-11	11:32:29	11:41:34	544313	6.6.1	4_exp_EVA_AWA_CON	79	A	B	Rpleas_acq	Same	Rpleas	2pleas	acq_US_unple_nomask	acq45_nomask	5	11	400	0	300	300	0	0	483	46	1	0	gütig	sonnig	besonnen	kreativ	engagiert	kuss	gierig	sterben	bange	krank	engstirnig	krise	vertrauen	träumen	anregung	gesittet	genießen	vergnügt	versagen	töten	ausrottung	geizig	gemein	verbissen	1	blank2r.bmp	0	1	+	0	1	blank2r.bmp	500	1	CPLW	500	1	blank2r.bmp	880	3	bange	880	1	!	1232	1	!	-1	0	0	0	0	0	0
2024-06-11	11:32:29	11:41:36	546516	6.6.1	4_exp_EVA_AWA_CON	79	A	B	Rpleas_acq	Same	Rpleas	2pleas	acq_US_unple_nomask	acq45_nomask	5	12	400	1	300	300	0	0	421	46	1	0	gütig	sonnig	besonnen	kreativ	engagiert	kuss	gierig	sterben	bange	krank	engstirnig	krise	vertrauen	träumen	anregung	gesittet	genießen	vergnügt	versagen	töten	ausrottung	geizig	gemein	verbissen	1	blank2r.bmp	0	1	+	0	1	blank2r.bmp	500	1	CPLW	500	1	blank2r.bmp	880	5	engstirnig	880	1	!	1232	1	!	1323	0	0	0	0	0	0
2024-06-11	11:32:29	11:41:39	548748	6.6.1	4_exp_EVA_AWA_CON	79	A	B	Rpleas_acq	Same	Rpleas	2pleas	acq_US_pleas_nomask	acq45_nomask	5	13	400	1	300	300	0	0	453	50	1	0	gütig	sonnig	besonnen	kreativ	engagiert	kuss	gierig	sterben	bange	krank	engstirnig	krise	vertrauen	träumen	anregung	gesittet	genießen	vergnügt	versagen	töten	ausrottung	geizig	gemein	verbissen	1	blank2r.bmp	0	1	+	0	1	blank2r.bmp	500	1	DHJF	500	1	blank2r.bmp	880	2	sonnig	880	1	!	1232	1	!	1354	0	0	0	0	0	0
2024-06-11	11:32:29	11:41:41	551019	6.6.1	4_exp_EVA_AWA_CON	79	A	B	Rpleas_acq	Same	Rpleas	2pleas	acq_US_unple_nomask	acq45_nomask	5	14	400	0	300	300	0	0	493	46	1	0	gütig	sonnig	besonnen	kreativ	engagiert	kuss	gierig	sterben	bange	krank	engstirnig	krise	vertrauen	träumen	anregung	gesittet	genießen	vergnügt	versagen	töten	ausrottung	geizig	gemein	verbissen	1	blank2r.bmp	0	1	+	0	1	blank2r.bmp	500	1	CPLW	500	1	blank2r.bmp	880	4	krank	880	1	!	1233	1	!	-1	0	0	0	0	0	0
2024-06-11	11:32:29	11:41:43	553269	6.6.1	4_exp_EVA_AWA_CON	79	A	B	Rpleas_acq	Same	Rpleas	2pleas	acq_US_pleas_nomask	acq45_nomask	5	15	400	1	300	300	0	0	469	50	1	0	gütig	sonnig	besonnen	kreativ	engagiert	kuss	gierig	sterben	bange	krank	engstirnig	krise	vertrauen	träumen	anregung	gesittet	genießen	vergnügt	versagen	töten	ausrottung	geizig	gemein	verbissen	1	blank2r.bmp	0	1	+	0	1	blank2r.bmp	500	1	DHJF	500	1	blank2r.bmp	880	3	besonnen	880	1	!	1232	1	!	1371	0	0	0	0	0	0
2024-06-11	11:32:29	11:41:45	555484	6.6.1	4_exp_EVA_AWA_CON	79	A	B	Rpleas_acq	Same	Rpleas	2pleas	acq_US_unple_nomask	acq45_nomask	5	16	400	1	300	300	0	0	434	46	1	0	gütig	sonnig	besonnen	kreativ	engagiert	kuss	gierig	sterben	bange	krank	engstirnig	krise	vertrauen	träumen	anregung	gesittet	genießen	vergnügt	versagen	töten	ausrottung	geizig	gemein	verbissen	1	blank2r.bmp	0	1	+	0	1	blank2r.bmp	500	1	CPLW	500	1	blank2r.bmp	880	1	gierig	880	1	!	1233	1	!	1335	0	0	0	0	0	0
2024-06-11	11:32:29	11:41:48	557771	6.6.1	4_exp_EVA_AWA_CON	79	A	B	Rpleas_acq	Same	Rpleas	2pleas	acq_US_unple_nomask	acq45_nomask	5	17	400	0	300	300	0	0	510	46	1	0	gütig	sonnig	besonnen	kreativ	engagiert	kuss	gierig	sterben	bange	krank	engstirnig	krise	vertrauen	träumen	anregung	gesittet	genießen	vergnügt	versagen	töten	ausrottung	geizig	gemein	verbissen	1	blank2r.bmp	0	1	+	0	1	blank2r.bmp	500	1	CPLW	500	1	blank2r.bmp	880	2	sterben	880	1	!	1232	1	!	-1	0	0	0	0	0	0
2024-06-11	11:32:29	11:41:50	559925	6.6.1	4_exp_EVA_AWA_CON	79	A	B	Rpleas_acq	Same	Rpleas	2pleas	acq_US_pleas_nomask	acq45_nomask	5	18	400	1	300	300	0	0	371	46	0	0	gütig	sonnig	besonnen	kreativ	engagiert	kuss	gierig	sterben	bange	krank	engstirnig	krise	vertrauen	träumen	anregung	gesittet	genießen	vergnügt	versagen	töten	ausrottung	geizig	gemein	verbissen	1	blank2r.bmp	0	1	+	0	1	blank2r.bmp	500	1	DHJF	500	1	blank2r.bmp	880	5	engagiert	880	1	!	1232	1	!	1272	0	0	0	0	0	0
2024-06-11	11:32:29	11:41:52	562187	6.6.1	4_exp_EVA_AWA_CON	79	A	B	Rpleas_acq	Same	Rpleas	2pleas	acq_US_pleas_nomask	acq45_nomask	5	19	400	0	300	300	0	0	483	50	1	0	gütig	sonnig	besonnen	kreativ	engagiert	kuss	gierig	sterben	bange	krank	engstirnig	krise	vertrauen	träumen	anregung	gesittet	genießen	vergnügt	versagen	töten	ausrottung	geizig	gemein	verbissen	1	blank2r.bmp	0	1	+	0	1	blank2r.bmp	500	1	DHJF	500	1	blank2r.bmp	880	1	gütig	880	1	!	1232	1	!	-1	0	0	0	0	0	0
2024-06-11	11:32:29	11:41:54	564357	6.6.1	4_exp_EVA_AWA_CON	79	A	B	Rpleas_acq	Same	Rpleas	2pleas	acq_US_pleas_nomask	acq45_nomask	5	20	400	1	300	300	0	0	390	50	1	0	gütig	sonnig	besonnen	kreativ	engagiert	kuss	gierig	sterben	bange	krank	engstirnig	krise	vertrauen	träumen	anregung	gesittet	genießen	vergnügt	versagen	töten	ausrottung	geizig	gemein	verbissen	1	blank2r.bmp	0	1	+	0	1	blank2r.bmp	500	1	DHJF	500	1	blank2r.bmp	880	4	kreativ	880	1	!	1232	1	!	1292	0	0	0	0	0	0
2024-06-11	11:32:29	11:41:56	566540	6.6.1	4_exp_EVA_AWA_CON	79	A	B	Rpleas_acq	Same	Rpleas	2pleas	acq_US_pleas_nomask	acq45_nomask	5	21	400	1	300	300	0	0	403	50	1	0	gütig	sonnig	besonnen	kreativ	engagiert	kuss	gierig	sterben	bange	krank	engstirnig	krise	vertrauen	träumen	anregung	gesittet	genießen	vergnügt	versagen	töten	ausrottung	geizig	gemein	verbissen	1	blank2r.bmp	0	1	+	0	1	blank2r.bmp	500	1	DHJF	500	1	blank2r.bmp	880	6	kuss	880	1	!	1232	1	!	1304	0	0	0	0	0	0
2024-06-11	11:32:29	11:41:59	568811	6.6.1	4_exp_EVA_AWA_CON	79	A	B	Rpleas_acq	Same	Rpleas	2pleas	acq_US_pleas_nomask	acq45_nomask	5	22	400	0	300	300	0	0	493	50	1	0	gütig	sonnig	besonnen	kreativ	engagiert	kuss	gierig	sterben	bange	krank	engstirnig	krise	vertrauen	träumen	anregung	gesittet	genießen	vergnügt	versagen	töten	ausrottung	geizig	gemein	verbissen	1	blank2r.bmp	0	1	+	0	1	blank2r.bmp	500	1	DHJF	500	1	blank2r.bmp	880	6	kuss	880	1	!	1232	1	!	-1	0	0	0	0	0	0
2024-06-11	11:32:29	11:42:01	571065	6.6.1	4_exp_EVA_AWA_CON	79	A	B	Rpleas_acq	Same	Rpleas	2pleas	acq_US_unple_nomask	acq45_nomask	5	23	400	0	300	300	0	0	479	46	1	0	gütig	sonnig	besonnen	kreativ	engagiert	kuss	gierig	sterben	bange	krank	engstirnig	krise	vertrauen	träumen	anregung	gesittet	genießen	vergnügt	versagen	töten	ausrottung	geizig	gemein	verbissen	1	blank2r.bmp	0	1	+	0	1	blank2r.bmp	500	1	CPLW	500	1	blank2r.bmp	880	3	bange	880	1	!	1232	1	!	-1	0	0	0	0	0	0
2024-06-11	11:32:29	11:42:03	573253	6.6.1	4_exp_EVA_AWA_CON	79	A	B	Rpleas_acq	Same	Rpleas	2pleas	acq_US_pleas_nomask	acq45_nomask	5	24	400	1	300	300	0	0	410	50	1	0	gütig	sonnig	besonnen	kreativ	engagiert	kuss	gierig	sterben	bange	krank	engstirnig	krise	vertrauen	träumen	anregung	gesittet	genießen	vergnügt	versagen	töten	ausrottung	geizig	gemein	verbissen	1	blank2r.bmp	0	1	+	0	1	blank2r.bmp	500	1	DHJF	500	1	blank2r.bmp	880	5	engagiert	880	1	!	1232	1	!	1312	0	0	0	0	0	0
2024-06-11	11:32:29	11:42:05	575460	6.6.1	4_exp_EVA_AWA_CON	79	A	B	Rpleas_acq	Same	Rpleas	2pleas	acq_US_unple_nomask	acq45_nomask	5	25	400	1	300	300	0	0	427	46	1	0	gütig	sonnig	besonnen	kreativ	engagiert	kuss	gierig	sterben	bange	krank	engstirnig	krise	vertrauen	träumen	anregung	gesittet	genießen	vergnügt	versagen	töten	ausrottung	geizig	gemein	verbissen	1	blank2r.bmp	0	1	+	0	1	blank2r.bmp	500	1	CPLW	500	1	blank2r.bmp	880	6	krise	880	1	!	1233	1	!	1328	0	0	0	0	0	0
2024-06-11	11:32:29	11:42:07	577668	6.6.1	4_exp_EVA_AWA_CON	79	A	B	Rpleas_acq	Same	Rpleas	2pleas	acq_US_pleas_nomask	acq45_nomask	5	26	400	1	300	300	0	0	433	50	1	0	gütig	sonnig	besonnen	kreativ	engagiert	kuss	gierig	sterben	bange	krank	engstirnig	krise	vertrauen	träumen	anregung	gesittet	genießen	vergnügt	versagen	töten	ausrottung	geizig	gemein	verbissen	1	blank2r.bmp	0	1	+	0	1	blank2r.bmp	500	1	DHJF	500	1	blank2r.bmp	880	4	kreativ	880	1	!	1232	1	!	1335	0	0	0	0	0	0
2024-06-11	11:32:29	11:42:10	579845	6.6.1	4_exp_EVA_AWA_CON	79	A	B	Rpleas_acq	Same	Rpleas	2pleas	acq_US_unple_nomask	acq45_nomask	5	27	400	1	300	300	0	0	398	46	1	0	gütig	sonnig	besonnen	kreativ	engagiert	kuss	gierig	sterben	bange	krank	engstirnig	krise	vertrauen	träumen	anregung	gesittet	genießen	vergnügt	versagen	töten	ausrottung	geizig	gemein	verbissen	1	blank2r.bmp	0	1	+	0	1	blank2r.bmp	500	1	CPLW	500	1	blank2r.bmp	880	5	engstirnig	880	1	!	1232	1	!	1300	0	0	0	0	0	0
2024-06-11	11:32:29	11:42:12	582020	6.6.1	4_exp_EVA_AWA_CON	79	A	B	Rpleas_acq	Same	Rpleas	2pleas	acq_US_pleas_nomask	acq45_nomask	5	28	400	1	300	300	0	0	393	50	1	0	gütig	sonnig	besonnen	kreativ	engagiert	kuss	gierig	sterben	bange	krank	engstirnig	krise	vertrauen	träumen	anregung	gesittet	genießen	vergnügt	versagen	töten	ausrottung	geizig	gemein	verbissen	1	blank2r.bmp	0	1	+	0	1	blank2r.bmp	500	1	DHJF	500	1	blank2r.bmp	880	2	sonnig	880	1	!	1232	1	!	1294	0	0	0	0	0	0
2024-06-11	11:32:29	11:42:14	584260	6.6.1	4_exp_EVA_AWA_CON	79	A	B	Rpleas_acq	Same	Rpleas	2pleas	acq_US_unple_nomask	acq45_nomask	5	29	400	1	300	300	0	0	461	46	1	0	gütig	sonnig	besonnen	kreativ	engagiert	kuss	gierig	sterben	bange	krank	engstirnig	krise	vertrauen	träumen	anregung	gesittet	genießen	vergnügt	versagen	töten	ausrottung	geizig	gemein	verbissen	1	blank2r.bmp	0	1	+	0	1	blank2r.bmp	500	1	CPLW	500	1	blank2r.bmp	880	5	engstirnig	880	1	!	1232	1	!	1363	0	0	0	0	0	0
2024-06-11	11:32:29	11:42:16	586501	6.6.1	4_exp_EVA_AWA_CON	79	A	B	Rpleas_acq	Same	Rpleas	2pleas	acq_US_pleas_nomask	acq45_nomask	5	30	400	1	300	300	0	0	460	50	1	0	gütig	sonnig	besonnen	kreativ	engagiert	kuss	gierig	sterben	bange	krank	engstirnig	krise	vertrauen	träumen	anregung	gesittet	genießen	vergnügt	versagen	töten	ausrottung	geizig	gemein	verbissen	1	blank2r.bmp	0	1	+	0	1	blank2r.bmp	500	1	DHJF	500	1	blank2r.bmp	880	3	besonnen	880	1	!	1232	1	!	1362	0	0	0	0	0	0
2024-06-11	11:32:29	11:42:18	588684	6.6.1	4_exp_EVA_AWA_CON	79	A	B	Rpleas_acq	Same	Rpleas	2pleas	acq_US_unple_nomask	acq45_nomask	5	31	400	1	300	300	0	0	402	46	1	0	gütig	sonnig	besonnen	kreativ	engagiert	kuss	gierig	sterben	bange	krank	engstirnig	krise	vertrauen	träumen	anregung	gesittet	genießen	vergnügt	versagen	töten	ausrottung	geizig	gemein	verbissen	1	blank2r.bmp	0	1	+	0	1	blank2r.bmp	500	1	CPLW	500	1	blank2r.bmp	880	1	gierig	880	1	!	1232	1	!	1304	0	0	0	0	0	0
2024-06-11	11:32:29	11:42:21	590893	6.6.1	4_exp_EVA_AWA_CON	79	A	B	Rpleas_acq	Same	Rpleas	2pleas	acq_US_unple_nomask	acq45_nomask	5	32	400	1	300	300	0	0	429	46	1	0	gütig	sonnig	besonnen	kreativ	engagiert	kuss	gierig	sterben	bange	krank	engstirnig	krise	vertrauen	träumen	anregung	gesittet	genießen	vergnügt	versagen	töten	ausrottung	geizig	gemein	verbissen	1	blank2r.bmp	0	1	+	0	1	blank2r.bmp	500	1	CPLW	500	1	blank2r.bmp	880	2	sterben	880	1	!	1232	1	!	1331	0	0	0	0	0	0
2024-06-11	11:32:29	11:42:23	593052	6.6.1	4_exp_EVA_AWA_CON	79	A	B	Rpleas_acq	Same	Rpleas	2pleas	acq_US_pleas_nomask	acq45_nomask	5	33	400	1	300	300	0	0	377	50	1	0	gütig	sonnig	besonnen	kreativ	engagiert	kuss	gierig	sterben	bange	krank	engstirnig	krise	vertrauen	träumen	anregung	gesittet	genießen	vergnügt	versagen	töten	ausrottung	geizig	gemein	verbissen	1	blank2r.bmp	0	1	+	0	1	blank2r.bmp	500	1	DHJF	500	1	blank2r.bmp	880	1	gütig	880	1	!	1232	1	!	1279	0	0	0	0	0	0
2024-06-11	11:32:29	11:42:25	595331	6.6.1	4_exp_EVA_AWA_CON	79	A	B	Rpleas_acq	Same	Rpleas	2pleas	acq_US_unple_nomask	acq45_nomask	5	34	400	0	300	300	0	0	506	46	1	0	gütig	sonnig	besonnen	kreativ	engagiert	kuss	gierig	sterben	bange	krank	engstirnig	krise	vertrauen	träumen	anregung	gesittet	genießen	vergnügt	versagen	töten	ausrottung	geizig	gemein	verbissen	1	blank2r.bmp	0	1	+	0	1	blank2r.bmp	500	1	CPLW	500	1	blank2r.bmp	880	3	bange	880	1	!	1232	1	!	-1	0	0	0	0	0	0
2024-06-11	11:32:29	11:42:27	597564	6.6.1	4_exp_EVA_AWA_CON	79	A	B	Rpleas_acq	Same	Rpleas	2pleas	acq_US_unple_nomask	acq45_nomask	5	35	400	1	300	300	0	0	457	46	1	0	gütig	sonnig	besonnen	kreativ	engagiert	kuss	gierig	sterben	bange	krank	engstirnig	krise	vertrauen	träumen	anregung	gesittet	genießen	vergnügt	versagen	töten	ausrottung	geizig	gemein	verbissen	1	blank2r.bmp	0	1	+	0	1	blank2r.bmp	500	1	CPLW	500	1	blank2r.bmp	880	6	krise	880	1	!	1232	1	!	1358	0	0	0	0	0	0
2024-06-11	11:32:29	11:42:29	599709	6.6.1	4_exp_EVA_AWA_CON	79	A	B	Rpleas_acq	Same	Rpleas	2pleas	acq_US_unple_nomask	acq45_nomask	5	36	400	1	300	300	0	0	369	46	1	0	gütig	sonnig	besonnen	kreativ	engagiert	kuss	gierig	sterben	bange	krank	engstirnig	krise	vertrauen	träumen	anregung	gesittet	genießen	vergnügt	versagen	töten	ausrottung	geizig	gemein	verbissen	1	blank2r.bmp	0	1	+	0	1	blank2r.bmp	500	1	CPLW	500	1	blank2r.bmp	880	4	krank	880	1	!	1232	1	!	1271	0	0	0	0	0	0
2024-06-11	11:32:29	11:42:48	617879	6.6.1	4_exp_EVA_AWA_CON	79	A	B	Rpleas_acq	Same	Rpleas	2pleas	EvalRating_firsttwo	EvalRating_firsttwo	6	1	0	0	300	300	0	0	2912	line	0	-51,5625pct	gütig	sonnig	besonnen	kreativ	engagiert	kuss	gierig	sterben	bange	krank	engstirnig	krise	vertrauen	träumen	anregung	gesittet	genießen	vergnügt	versagen	töten	ausrottung	geizig	gemein	verbissen	1		-8	1	Wie angenehm oder unangenehm finden Sie die  Buchstabenkette WDLH?	-8	1		-8	1		-8	1		-8	1	Unangenehm	-8	1	Angenehm	-8	0	0	0	0	0	0	0	0	0
2024-06-11	11:32:29	11:42:52	622103	6.6.1	4_exp_EVA_AWA_CON	79	A	B	Rpleas_acq	Same	Rpleas	2pleas	EvalRating_lastfour	EvalRating_lastfour	7	1	0	0	300	300	0	0	1843	line	0	9,2447916666666714036pct	gütig	sonnig	besonnen	kreativ	engagiert	kuss	gierig	sterben	bange	krank	engstirnig	krise	vertrauen	träumen	anregung	gesittet	genießen	vergnügt	versagen	töten	ausrottung	geizig	gemein	verbissen	1		-8	1	Wie angenehm oder unangenehm finden Sie die  Buchstabenkette CPLW?	-8	1		-8	1		-8	1		-8	1	Unangenehm	-8	1	Angenehm	-8	0	0	0	0	0	0	0	0	0
2024-06-11	11:32:29	11:42:54	624475	6.6.1	4_exp_EVA_AWA_CON	79	A	B	Rpleas_acq	Same	Rpleas	2pleas	blank_screen	EvalRating_lastfour	7	3	0	0	300	300	0	0	0	0	0	9,2447916666666714036pct	gütig	sonnig	besonnen	kreativ	engagiert	kuss	gierig	sterben	bange	krank	engstirnig	krise	vertrauen	träumen	anregung	gesittet	genießen	vergnügt	versagen	töten	ausrottung	geizig	gemein	verbissen	1		-8	0	0	0	0	0	0	0	0	0	0	0	0	0	0	0	0	0	0	0	0	0	0	0	0	0	0	0
2024-06-11	11:32:29	11:42:56	626615	6.6.1	4_exp_EVA_AWA_CON	79	A	B	Rpleas_acq	Same	Rpleas	2pleas	EvalRating_lastfour	EvalRating_lastfour	7	4	0	0	300	300	0	0	1552	line	0	-39,9739583333333285964pct	gütig	sonnig	besonnen	kreativ	engagiert	kuss	gierig	sterben	bange	krank	engstirnig	krise	vertrauen	träumen	anregung	gesittet	genießen	vergnügt	versagen	töten	ausrottung	geizig	gemein	verbissen	1		-8	3	Wie angenehm oder unangenehm finden Sie die  Buchstabenkette FCJP?	-8	1		-8	1		-8	1		-8	1	Unangenehm	-8	1	Angenehm	-8	0	0	0	0	0	0	0	0	0
2024-06-11	11:32:29	11:42:59	628988	6.6.1	4_exp_EVA_AWA_CON	79	A	B	Rpleas_acq	Same	Rpleas	2pleas	blank_screen	EvalRating_lastfour	7	6	0	0	300	300	0	0	0	0	0	-39,9739583333333285964pct	gütig	sonnig	besonnen	kreativ	engagiert	kuss	gierig	sterben	bange	krank	engstirnig	krise	vertrauen	träumen	anregung	gesittet	genießen	vergnügt	versagen	töten	ausrottung	geizig	gemein	verbissen	1		-8	0	0	0	0	0	0	0	0	0	0	0	0	0	0	0	0	0	0	0	0	0	0	0	0	0	0	0
2024-06-11	11:32:29	11:43:01	631471	6.6.1	4_exp_EVA_AWA_CON	79	A	B	Rpleas_acq	Same	Rpleas	2pleas	EvalRating_lastfour	EvalRating_lastfour	7	7	0	0	300	300	0	0	1895	line	0	-5,9895833333333285964pct	gütig	sonnig	besonnen	kreativ	engagiert	kuss	gierig	sterben	bange	krank	engstirnig	krise	vertrauen	träumen	anregung	gesittet	genießen	vergnügt	versagen	töten	ausrottung	geizig	gemein	verbissen	1		-8	2	Wie angenehm oder unangenehm finden Sie die  Buchstabenkette DHJF?	-8	1		-8	1		-8	1		-8	1	Unangenehm	-8	1	Angenehm	-8	0	0	0	0	0	0	0	0	0
2024-06-11	11:32:29	11:43:31	661407	6.6.1	4_exp_EVA_AWA_CON	79	A	B	Rpleas_acq	Same	Rpleas	2pleas	conawa_CS1_US3	conawa1_nomask	8	1	0	0	300	300	0	0	10301	bange	1	-5,9895833333333285964pct	gütig	sonnig	besonnen	kreativ	engagiert	kuss	gierig	sterben	bange	krank	engstirnig	krise	vertrauen	träumen	anregung	gesittet	genießen	vergnügt	versagen	töten	ausrottung	geizig	gemein	verbissen	0	0	0	0	0	0	0	0	0	0	0	0	0	0	0	0	0	0	0	0	0	0	0	0	0	0	0	0	0	0
2024-06-11	11:32:29	11:43:31	661409	6.6.1	4_exp_EVA_AWA_CON	79	A	B	Rpleas_acq	Same	Rpleas	2pleas	conawa_CS1_US3_confidence	conawa1_nomask	8	1	0	0	300	300	0	0	10301	guess	1	-5,9895833333333285964pct	gütig	sonnig	besonnen	kreativ	engagiert	kuss	gierig	sterben	bange	krank	engstirnig	krise	vertrauen	träumen	anregung	gesittet	genießen	vergnügt	versagen	töten	ausrottung	geizig	gemein	verbissen	0	0	0	0	0	0	0	0	0	0	0	0	0	0	0	0	0	0	0	0	0	0	0	0	0	0	0	0	0	0
2024-06-11	11:32:29	11:43:38	668702	6.6.1	4_exp_EVA_AWA_CON	79	A	B	Rpleas_acq	Same	Rpleas	2pleas	conawa_CS2_US3	conawa1_nomask	8	2	0	0	300	300	0	0	6672	besonnen	1	-5,9895833333333285964pct	gütig	sonnig	besonnen	kreativ	engagiert	kuss	gierig	sterben	bange	krank	engstirnig	krise	vertrauen	träumen	anregung	gesittet	genießen	vergnügt	versagen	töten	ausrottung	geizig	gemein	verbissen	0	0	0	0	0	0	0	0	0	0	0	0	0	0	0	0	0	0	0	0	0	0	0	0	0	0	0	0	0	0
2024-06-11	11:32:29	11:43:38	668703	6.6.1	4_exp_EVA_AWA_CON	79	A	B	Rpleas_acq	Same	Rpleas	2pleas	conawa_CS2_US3_confidence	conawa1_nomask	8	2	0	0	300	300	0	0	6672	guess	1	-5,9895833333333285964pct	gütig	sonnig	besonnen	kreativ	engagiert	kuss	gierig	sterben	bange	krank	engstirnig	krise	vertrauen	träumen	anregung	gesittet	genießen	vergnügt	versagen	töten	ausrottung	geizig	gemein	verbissen	0	0	0	0	0	0	0	0	0	0	0	0	0	0	0	0	0	0	0	0	0	0	0	0	0	0	0	0	0	0
2024-06-11	11:32:29	11:43:45	674985	6.6.1	4_exp_EVA_AWA_CON	79	A	B	Rpleas_acq	Same	Rpleas	2pleas	conawa_CS1_US1	conawa1_nomask	8	3	0	0	300	300	0	0	5668	gütig	1	-5,9895833333333285964pct	gütig	sonnig	besonnen	kreativ	engagiert	kuss	gierig	sterben	bange	krank	engstirnig	krise	vertrauen	träumen	anregung	gesittet	genießen	vergnügt	versagen	töten	ausrottung	geizig	gemein	verbissen	0	0	0	0	0	0	0	0	0	0	0	0	0	0	0	0	0	0	0	0	0	0	0	0	0	0	0	0	0	0
2024-06-11	11:32:29	11:43:45	674987	6.6.1	4_exp_EVA_AWA_CON	79	A	B	Rpleas_acq	Same	Rpleas	2pleas	conawa_CS1_US1_confidence	conawa1_nomask	8	3	0	0	300	300	0	0	5668	guess	1	-5,9895833333333285964pct	gütig	sonnig	besonnen	kreativ	engagiert	kuss	gierig	sterben	bange	krank	engstirnig	krise	vertrauen	träumen	anregung	gesittet	genießen	vergnügt	versagen	töten	ausrottung	geizig	gemein	verbissen	0	0	0	0	0	0	0	0	0	0	0	0	0	0	0	0	0	0	0	0	0	0	0	0	0	0	0	0	0	0
2024-06-11	11:32:29	11:43:53	682950	6.6.1	4_exp_EVA_AWA_CON	79	A	B	Rpleas_acq	Same	Rpleas	2pleas	conawa_CS2_US5	conawa1_nomask	8	4	0	0	300	300	0	0	7353	vergnügt	1	-5,9895833333333285964pct	gütig	sonnig	besonnen	kreativ	engagiert	kuss	gierig	sterben	bange	krank	engstirnig	krise	vertrauen	träumen	anregung	gesittet	genießen	vergnügt	versagen	töten	ausrottung	geizig	gemein	verbissen	0	0	0	0	0	0	0	0	0	0	0	0	0	0	0	0	0	0	0	0	0	0	0	0	0	0	0	0	0	0
2024-06-11	11:32:29	11:43:53	682952	6.6.1	4_exp_EVA_AWA_CON	79	A	B	Rpleas_acq	Same	Rpleas	2pleas	conawa_CS2_US5_confidence	conawa1_nomask	8	4	0	0	300	300	0	0	7353	guess	1	-5,9895833333333285964pct	gütig	sonnig	besonnen	kreativ	engagiert	kuss	gierig	sterben	bange	krank	engstirnig	krise	vertrauen	träumen	anregung	gesittet	genießen	vergnügt	versagen	töten	ausrottung	geizig	gemein	verbissen	0	0	0	0	0	0	0	0	0	0	0	0	0	0	0	0	0	0	0	0	0	0	0	0	0	0	0	0	0	0
2024-06-11	11:32:29	11:43:58	688305	6.6.1	4_exp_EVA_AWA_CON	79	A	B	Rpleas_acq	Same	Rpleas	2pleas	conawa_CS2_US6	conawa1_nomask	8	5	0	0	300	300	0	0	4739	kuss	1	-5,9895833333333285964pct	gütig	sonnig	besonnen	kreativ	engagiert	kuss	gierig	sterben	bange	krank	engstirnig	krise	vertrauen	träumen	anregung	gesittet	genießen	vergnügt	versagen	töten	ausrottung	geizig	gemein	verbissen	0	0	0	0	0	0	0	0	0	0	0	0	0	0	0	0	0	0	0	0	0	0	0	0	0	0	0	0	0	0
2024-06-11	11:32:29	11:43:58	688306	6.6.1	4_exp_EVA_AWA_CON	79	A	B	Rpleas_acq	Same	Rpleas	2pleas	conawa_CS2_US6_confidence	conawa1_nomask	8	5	0	0	300	300	0	0	4739	guess	1	-5,9895833333333285964pct	gütig	sonnig	besonnen	kreativ	engagiert	kuss	gierig	sterben	bange	krank	engstirnig	krise	vertrauen	träumen	anregung	gesittet	genießen	vergnügt	versagen	töten	ausrottung	geizig	gemein	verbissen	0	0	0	0	0	0	0	0	0	0	0	0	0	0	0	0	0	0	0	0	0	0	0	0	0	0	0	0	0	0
2024-06-11	11:32:29	11:44:04	694168	6.6.1	4_exp_EVA_AWA_CON	79	A	B	Rpleas_acq	Same	Rpleas	2pleas	conawa_CS1_US6	conawa1_nomask	8	6	0	0	300	300	0	0	5250	kuss	1	-5,9895833333333285964pct	gütig	sonnig	besonnen	kreativ	engagiert	kuss	gierig	sterben	bange	krank	engstirnig	krise	vertrauen	träumen	anregung	gesittet	genießen	vergnügt	versagen	töten	ausrottung	geizig	gemein	verbissen	0	0	0	0	0	0	0	0	0	0	0	0	0	0	0	0	0	0	0	0	0	0	0	0	0	0	0	0	0	0
2024-06-11	11:32:29	11:44:04	694169	6.6.1	4_exp_EVA_AWA_CON	79	A	B	Rpleas_acq	Same	Rpleas	2pleas	conawa_CS1_US6_confidence	conawa1_nomask	8	6	0	0	300	300	0	0	5250	guess	1	-5,9895833333333285964pct	gütig	sonnig	besonnen	kreativ	engagiert	kuss	gierig	sterben	bange	krank	engstirnig	krise	vertrauen	träumen	anregung	gesittet	genießen	vergnügt	versagen	töten	ausrottung	geizig	gemein	verbissen	0	0	0	0	0	0	0	0	0	0	0	0	0	0	0	0	0	0	0	0	0	0	0	0	0	0	0	0	0	0
2024-06-11	11:32:29	11:44:10	700252	6.6.1	4_exp_EVA_AWA_CON	79	A	B	Rpleas_acq	Same	Rpleas	2pleas	conawa_CS2_US1	conawa1_nomask	8	7	0	0	300	300	0	0	5464	gütig	1	-5,9895833333333285964pct	gütig	sonnig	besonnen	kreativ	engagiert	kuss	gierig	sterben	bange	krank	engstirnig	krise	vertrauen	träumen	anregung	gesittet	genießen	vergnügt	versagen	töten	ausrottung	geizig	gemein	verbissen	0	0	0	0	0	0	0	0	0	0	0	0	0	0	0	0	0	0	0	0	0	0	0	0	0	0	0	0	0	0
2024-06-11	11:32:29	11:44:10	700253	6.6.1	4_exp_EVA_AWA_CON	79	A	B	Rpleas_acq	Same	Rpleas	2pleas	conawa_CS2_US1_confidence	conawa1_nomask	8	7	0	0	300	300	0	0	5464	guess	1	-5,9895833333333285964pct	gütig	sonnig	besonnen	kreativ	engagiert	kuss	gierig	sterben	bange	krank	engstirnig	krise	vertrauen	träumen	anregung	gesittet	genießen	vergnügt	versagen	töten	ausrottung	geizig	gemein	verbissen	0	0	0	0	0	0	0	0	0	0	0	0	0	0	0	0	0	0	0	0	0	0	0	0	0	0	0	0	0	0
2024-06-11	11:32:29	11:44:15	704975	6.6.1	4_exp_EVA_AWA_CON	79	A	B	Rpleas_acq	Same	Rpleas	2pleas	conawa_CS1_US2	conawa1_nomask	8	8	0	0	300	300	0	0	4111	sonnig	1	-5,9895833333333285964pct	gütig	sonnig	besonnen	kreativ	engagiert	kuss	gierig	sterben	bange	krank	engstirnig	krise	vertrauen	träumen	anregung	gesittet	genießen	vergnügt	versagen	töten	ausrottung	geizig	gemein	verbissen	0	0	0	0	0	0	0	0	0	0	0	0	0	0	0	0	0	0	0	0	0	0	0	0	0	0	0	0	0	0
2024-06-11	11:32:29	11:44:15	704976	6.6.1	4_exp_EVA_AWA_CON	79	A	B	Rpleas_acq	Same	Rpleas	2pleas	conawa_CS1_US2_confidence	conawa1_nomask	8	8	0	0	300	300	0	0	4111	guess	1	-5,9895833333333285964pct	gütig	sonnig	besonnen	kreativ	engagiert	kuss	gierig	sterben	bange	krank	engstirnig	krise	vertrauen	träumen	anregung	gesittet	genießen	vergnügt	versagen	töten	ausrottung	geizig	gemein	verbissen	0	0	0	0	0	0	0	0	0	0	0	0	0	0	0	0	0	0	0	0	0	0	0	0	0	0	0	0	0	0
2024-06-11	11:32:29	11:44:26	715941	6.6.1	4_exp_EVA_AWA_CON	79	A	B	Rpleas_acq	Same	Rpleas	2pleas	conawa_CS1_US5	conawa1_nomask	8	9	0	0	300	300	0	0	10354	genießen	1	-5,9895833333333285964pct	gütig	sonnig	besonnen	kreativ	engagiert	kuss	gierig	sterben	bange	krank	engstirnig	krise	vertrauen	träumen	anregung	gesittet	genießen	vergnügt	versagen	töten	ausrottung	geizig	gemein	verbissen	0	0	0	0	0	0	0	0	0	0	0	0	0	0	0	0	0	0	0	0	0	0	0	0	0	0	0	0	0	0
2024-06-11	11:32:29	11:44:26	715943	6.6.1	4_exp_EVA_AWA_CON	79	A	B	Rpleas_acq	Same	Rpleas	2pleas	conawa_CS1_US5_confidence	conawa1_nomask	8	9	0	0	300	300	0	0	10354	guess	1	-5,9895833333333285964pct	gütig	sonnig	besonnen	kreativ	engagiert	kuss	gierig	sterben	bange	krank	engstirnig	krise	vertrauen	träumen	anregung	gesittet	genießen	vergnügt	versagen	töten	ausrottung	geizig	gemein	verbissen	0	0	0	0	0	0	0	0	0	0	0	0	0	0	0	0	0	0	0	0	0	0	0	0	0	0	0	0	0	0
2024-06-11	11:32:29	11:44:33	723356	6.6.1	4_exp_EVA_AWA_CON	79	A	B	Rpleas_acq	Same	Rpleas	2pleas	conawa_CS1_US4	conawa1_nomask	8	10	0	0	300	300	0	0	6795	geizig	1	-5,9895833333333285964pct	gütig	sonnig	besonnen	kreativ	engagiert	kuss	gierig	sterben	bange	krank	engstirnig	krise	vertrauen	träumen	anregung	gesittet	genießen	vergnügt	versagen	töten	ausrottung	geizig	gemein	verbissen	0	0	0	0	0	0	0	0	0	0	0	0	0	0	0	0	0	0	0	0	0	0	0	0	0	0	0	0	0	0
2024-06-11	11:32:29	11:44:33	723358	6.6.1	4_exp_EVA_AWA_CON	79	A	B	Rpleas_acq	Same	Rpleas	2pleas	conawa_CS1_US4_confidence	conawa1_nomask	8	10	0	0	300	300	0	0	6795	guess	1	-5,9895833333333285964pct	gütig	sonnig	besonnen	kreativ	engagiert	kuss	gierig	sterben	bange	krank	engstirnig	krise	vertrauen	träumen	anregung	gesittet	genießen	vergnügt	versagen	töten	ausrottung	geizig	gemein	verbissen	0	0	0	0	0	0	0	0	0	0	0	0	0	0	0	0	0	0	0	0	0	0	0	0	0	0	0	0	0	0
2024-06-11	11:32:29	11:44:38	728049	6.6.1	4_exp_EVA_AWA_CON	79	A	B	Rpleas_acq	Same	Rpleas	2pleas	conawa_CS2_US4	conawa1_nomask	8	11	0	0	300	300	0	0	4079	genießen	1	-5,9895833333333285964pct	gütig	sonnig	besonnen	kreativ	engagiert	kuss	gierig	sterben	bange	krank	engstirnig	krise	vertrauen	träumen	anregung	gesittet	genießen	vergnügt	versagen	töten	ausrottung	geizig	gemein	verbissen	0	0	0	0	0	0	0	0	0	0	0	0	0	0	0	0	0	0	0	0	0	0	0	0	0	0	0	0	0	0
2024-06-11	11:32:29	11:44:38	728051	6.6.1	4_exp_EVA_AWA_CON	79	A	B	Rpleas_acq	Same	Rpleas	2pleas	conawa_CS2_US4_confidence	conawa1_nomask	8	11	0	0	300	300	0	0	4079	guess	1	-5,9895833333333285964pct	gütig	sonnig	besonnen	kreativ	engagiert	kuss	gierig	sterben	bange	krank	engstirnig	krise	vertrauen	träumen	anregung	gesittet	genießen	vergnügt	versagen	töten	ausrottung	geizig	gemein	verbissen	0	0	0	0	0	0	0	0	0	0	0	0	0	0	0	0	0	0	0	0	0	0	0	0	0	0	0	0	0	0
2024-06-11	11:32:29	11:44:44	734134	6.6.1	4_exp_EVA_AWA_CON	79	A	B	Rpleas_acq	Same	Rpleas	2pleas	conawa_CS2_US2	conawa1_nomask	8	12	0	0	300	300	0	0	5465	sonnig	1	-5,9895833333333285964pct	gütig	sonnig	besonnen	kreativ	engagiert	kuss	gierig	sterben	bange	krank	engstirnig	krise	vertrauen	träumen	anregung	gesittet	genießen	vergnügt	versagen	töten	ausrottung	geizig	gemein	verbissen	0	0	0	0	0	0	0	0	0	0	0	0	0	0	0	0	0	0	0	0	0	0	0	0	0	0	0	0	0	0
2024-06-11	11:32:29	11:44:44	734135	6.6.1	4_exp_EVA_AWA_CON	79	A	B	Rpleas_acq	Same	Rpleas	2pleas	conawa_CS2_US2_confidence	conawa1_nomask	8	12	0	0	300	300	0	0	5465	guess	1	-5,9895833333333285964pct	gütig	sonnig	besonnen	kreativ	engagiert	kuss	gierig	sterben	bange	krank	engstirnig	krise	vertrauen	träumen	anregung	gesittet	genießen	vergnügt	versagen	töten	ausrottung	geizig	gemein	verbissen	0	0	0	0	0	0	0	0	0	0	0	0	0	0	0	0	0	0	0	0	0	0	0	0	0	0	0	0	0	0
2024-06-11	11:32:29	11:45:33	783357	6.6.1	4_exp_EVA_AWA_CON	79	A	B	Rpleas_acq	Same	Rpleas	2pleas	cond_new_unple_456_nomask_CS1	condtest_nomask_1	11	1	400	1	300	300	0	0	399	46	1	-5,9895833333333285964pct	gütig	sonnig	besonnen	kreativ	engagiert	kuss	gierig	sterben	bange	krank	engstirnig	krise	vertrauen	träumen	anregung	gesittet	genießen	vergnügt	versagen	töten	ausrottung	geizig	gemein	verbissen	1	blank2r.bmp	0	1	+	0	1	blank2r.bmp	500	1	CPLW	500	1	blank2r.bmp	880	2	gemein	880	1	!	1233	1	!	1302	0	0	0	0	0	0
