date	time	currenttime	elapsedtime	build	currentexpt	subject	CS_AB	US_AB	LRpleas_acq	SameOppo	condition_Lpleas	condition_1pleas	trialcode	blockcode	blocknum	trialnum	windowcenter	inwindow	pretrialpause	posttrialpause	trialduration	trialtimeout	latency	response	correct	correctedscore	US_nomask_pleas1	US_nomask_pleas2	US_nomask_pleas3	US_nomask_pleas4	US_nomask_pleas5	US_nomask_pleas6	US_nomask_unple1	US_nomask_unple2	US_nomask_unple3	US_nomask_unple4	US_nomask_unple5	US_nomask_unple6	new_nomask_pleas1	new_nomask_pleas2	new_nomask_pleas3	new_nomask_pleas4	new_nomask_pleas5	new_nomask_pleas6	new_nomask_unple1	new_nomask_unple2	new_nomask_unple3	new_nomask_unple4	new_nomask_unple5	new_nomask_unple6	stimulusnumber1	stimulusitem1	stimulusonset1	stimulusnumber2	stimulusitem2	stimulusonset2	stimulusnumber3	stimulusitem3	stimulusonset3	stimulusnumber4	stimulusitem4	stimulusonset4	stimulusnumber5	stimulusitem5	stimulusonset5	stimulusnumber6	stimulusitem6	stimulusonset6	stimulusnumber7	stimulusitem7	stimulusonset7	stimulusnumber8	stimulusitem8	stimulusonset8	stimulusnumber9	stimulusitem9	stimulusonset9	stimulusnumber10	stimulusitem10	stimulusonset10
2024-05-02	12:49:48	12:52:25	156469	6.6.1	4_exp_EVA_AWA_CON	10	A	B	Rpleas_acq	Oppo	Rpleas	1pleas	acq_new_pleas_nomask	acq1_nomask	1	1	0	0	300	300	0	0	1905	50	1	0	kreativ	kuss	vertrauen	sonnig	träumen	engagiert	krank	krise	versagen	sterben	töten	engstirnig	gütig	besonnen	anregung	genießen	gesittet	vergnügt	gierig	bange	ausrottung	gemein	geizig	verbissen	1	blank2r.bmp	0	1	+	0	1	blank2r.bmp	500	3	B3r.bmp	500	1	blank2r.bmp	880	6	vergnügt	880	0	0	0	0	0	0	0	0	0	0	0	0
2024-05-02	12:49:48	12:52:28	159157	6.6.1	4_exp_EVA_AWA_CON	10	A	B	Rpleas_acq	Oppo	Rpleas	1pleas	acq_US_pleas_nomask	acq1_nomask	1	2	0	0	300	300	0	0	1201	50	1	0	kreativ	kuss	vertrauen	sonnig	träumen	engagiert	krank	krise	versagen	sterben	töten	engstirnig	gütig	besonnen	anregung	genießen	gesittet	vergnügt	gierig	bange	ausrottung	gemein	geizig	verbissen	1	blank2r.bmp	0	1	+	0	1	blank2r.bmp	500	1	CPLW	500	1	blank2r.bmp	880	3	vertrauen	880	0	0	0	0	0	0	0	0	0	0	0	0
2024-05-02	12:49:48	12:52:31	161981	6.6.1	4_exp_EVA_AWA_CON	10	A	B	Rpleas_acq	Oppo	Rpleas	1pleas	acq_new_pleas_nomask	acq1_nomask	1	3	0	0	300	300	0	0	1343	50	1	0	kreativ	kuss	vertrauen	sonnig	träumen	engagiert	krank	krise	versagen	sterben	töten	engstirnig	gütig	besonnen	anregung	genießen	gesittet	vergnügt	gierig	bange	ausrottung	gemein	geizig	verbissen	1	blank2r.bmp	0	1	+	0	1	blank2r.bmp	500	1	B1r.bmp	500	1	blank2r.bmp	880	3	anregung	880	0	0	0	0	0	0	0	0	0	0	0	0
2024-05-02	12:49:48	12:52:33	164117	6.6.1	4_exp_EVA_AWA_CON	10	A	B	Rpleas_acq	Oppo	Rpleas	1pleas	acq_US_pleas_nomask	acq1_nomask	1	4	0	0	300	300	0	0	647	50	1	0	kreativ	kuss	vertrauen	sonnig	träumen	engagiert	krank	krise	versagen	sterben	töten	engstirnig	gütig	besonnen	anregung	genießen	gesittet	vergnügt	gierig	bange	ausrottung	gemein	geizig	verbissen	1	blank2r.bmp	0	1	+	0	1	blank2r.bmp	500	1	CPLW	500	1	blank2r.bmp	880	4	sonnig	880	0	0	0	0	0	0	0	0	0	0	0	0
2024-05-02	12:49:48	12:52:35	166165	6.6.1	4_exp_EVA_AWA_CON	10	A	B	Rpleas_acq	Oppo	Rpleas	1pleas	acq_US_pleas_nomask	acq1_nomask	1	5	0	0	300	300	0	0	564	50	1	0	kreativ	kuss	vertrauen	sonnig	träumen	engagiert	krank	krise	versagen	sterben	töten	engstirnig	gütig	besonnen	anregung	genießen	gesittet	vergnügt	gierig	bange	ausrottung	gemein	geizig	verbissen	1	blank2r.bmp	0	1	+	0	1	blank2r.bmp	500	1	CPLW	500	1	blank2r.bmp	880	2	kuss	880	0	0	0	0	0	0	0	0	0	0	0	0
2024-05-02	12:49:48	12:52:37	168317	6.6.1	4_exp_EVA_AWA_CON	10	A	B	Rpleas_acq	Oppo	Rpleas	1pleas	acq_new_unple_nomask	acq1_nomask	1	6	0	0	300	300	0	0	664	46	1	0	kreativ	kuss	vertrauen	sonnig	träumen	engagiert	krank	krise	versagen	sterben	töten	engstirnig	gütig	besonnen	anregung	genießen	gesittet	vergnügt	gierig	bange	ausrottung	gemein	geizig	verbissen	1	blank2r.bmp	0	1	+	0	1	blank2r.bmp	500	4	B4r.bmp	500	1	blank2r.bmp	880	2	bange	880	0	0	0	0	0	0	0	0	0	0	0	0
2024-05-02	12:49:48	12:52:39	170485	6.6.1	4_exp_EVA_AWA_CON	10	A	B	Rpleas_acq	Oppo	Rpleas	1pleas	acq_US_unple_nomask	acq1_nomask	1	7	0	0	300	300	0	0	681	46	1	0	kreativ	kuss	vertrauen	sonnig	träumen	engagiert	krank	krise	versagen	sterben	töten	engstirnig	gütig	besonnen	anregung	genießen	gesittet	vergnügt	gierig	bange	ausrottung	gemein	geizig	verbissen	1	blank2r.bmp	0	1	+	0	1	blank2r.bmp	500	1	DHJF	500	1	blank2r.bmp	880	3	versagen	880	0	0	0	0	0	0	0	0	0	0	0	0
2024-05-02	12:49:48	12:52:42	172893	6.6.1	4_exp_EVA_AWA_CON	10	A	B	Rpleas_acq	Oppo	Rpleas	1pleas	acq_new_unple_nomask	acq1_nomask	1	8	0	0	300	300	0	0	918	46	1	0	kreativ	kuss	vertrauen	sonnig	träumen	engagiert	krank	krise	versagen	sterben	töten	engstirnig	gütig	besonnen	anregung	genießen	gesittet	vergnügt	gierig	bange	ausrottung	gemein	geizig	verbissen	1	blank2r.bmp	0	1	+	0	1	blank2r.bmp	500	2	B2r.bmp	500	1	blank2r.bmp	880	4	gemein	880	0	0	0	0	0	0	0	0	0	0	0	0
2024-05-02	12:49:48	12:52:44	175245	6.6.1	4_exp_EVA_AWA_CON	10	A	B	Rpleas_acq	Oppo	Rpleas	1pleas	acq_new_pleas_nomask	acq1_nomask	1	9	0	0	300	300	0	0	868	50	1	0	kreativ	kuss	vertrauen	sonnig	träumen	engagiert	krank	krise	versagen	sterben	töten	engstirnig	gütig	besonnen	anregung	genießen	gesittet	vergnügt	gierig	bange	ausrottung	gemein	geizig	verbissen	1	blank2r.bmp	0	1	+	0	1	blank2r.bmp	500	7	C3r.bmp	500	1	blank2r.bmp	880	4	genießen	880	0	0	0	0	0	0	0	0	0	0	0	0
2024-05-02	12:49:48	12:52:47	178149	6.6.1	4_exp_EVA_AWA_CON	10	A	B	Rpleas_acq	Oppo	Rpleas	1pleas	acq_new_unple_nomask	acq1_nomask	1	10	0	0	300	300	0	0	1420	46	1	0	kreativ	kuss	vertrauen	sonnig	träumen	engagiert	krank	krise	versagen	sterben	töten	engstirnig	gütig	besonnen	anregung	genießen	gesittet	vergnügt	gierig	bange	ausrottung	gemein	geizig	verbissen	1	blank2r.bmp	0	1	+	0	1	blank2r.bmp	500	5	C1r.bmp	500	1	blank2r.bmp	880	3	ausrottung	880	0	0	0	0	0	0	0	0	0	0	0	0
2024-05-02	12:49:48	12:52:49	180301	6.6.1	4_exp_EVA_AWA_CON	10	A	B	Rpleas_acq	Oppo	Rpleas	1pleas	acq_US_unple_nomask	acq1_nomask	1	11	0	0	300	300	0	0	671	46	1	0	kreativ	kuss	vertrauen	sonnig	träumen	engagiert	krank	krise	versagen	sterben	töten	engstirnig	gütig	besonnen	anregung	genießen	gesittet	vergnügt	gierig	bange	ausrottung	gemein	geizig	verbissen	1	blank2r.bmp	0	1	+	0	1	blank2r.bmp	500	1	DHJF	500	1	blank2r.bmp	880	5	töten	880	0	0	0	0	0	0	0	0	0	0	0	0
2024-05-02	12:49:48	12:52:51	182397	6.6.1	4_exp_EVA_AWA_CON	10	A	B	Rpleas_acq	Oppo	Rpleas	1pleas	acq_US_unple_nomask	acq1_nomask	1	12	0	0	300	300	0	0	615	46	1	0	kreativ	kuss	vertrauen	sonnig	träumen	engagiert	krank	krise	versagen	sterben	töten	engstirnig	gütig	besonnen	anregung	genießen	gesittet	vergnügt	gierig	bange	ausrottung	gemein	geizig	verbissen	1	blank2r.bmp	0	1	+	0	1	blank2r.bmp	500	1	DHJF	500	1	blank2r.bmp	880	2	krise	880	0	0	0	0	0	0	0	0	0	0	0	0
2024-05-02	12:49:48	12:52:53	184525	6.6.1	4_exp_EVA_AWA_CON	10	A	B	Rpleas_acq	Oppo	Rpleas	1pleas	acq_US_pleas_nomask	acq1_nomask	1	13	0	0	300	300	0	0	642	50	1	0	kreativ	kuss	vertrauen	sonnig	träumen	engagiert	krank	krise	versagen	sterben	töten	engstirnig	gütig	besonnen	anregung	genießen	gesittet	vergnügt	gierig	bange	ausrottung	gemein	geizig	verbissen	1	blank2r.bmp	0	1	+	0	1	blank2r.bmp	500	1	CPLW	500	1	blank2r.bmp	880	1	kreativ	880	0	0	0	0	0	0	0	0	0	0	0	0
2024-05-02	12:49:48	12:52:55	186637	6.6.1	4_exp_EVA_AWA_CON	10	A	B	Rpleas_acq	Oppo	Rpleas	1pleas	acq_new_pleas_nomask	acq1_nomask	1	14	0	0	300	300	0	0	623	50	1	0	kreativ	kuss	vertrauen	sonnig	träumen	engagiert	krank	krise	versagen	sterben	töten	engstirnig	gütig	besonnen	anregung	genießen	gesittet	vergnügt	gierig	bange	ausrottung	gemein	geizig	verbissen	1	blank2r.bmp	0	1	+	0	1	blank2r.bmp	500	6	C2r.bmp	500	1	blank2r.bmp	880	2	besonnen	880	0	0	0	0	0	0	0	0	0	0	0	0
2024-05-02	12:49:48	12:52:59	189965	6.6.1	4_exp_EVA_AWA_CON	10	A	B	Rpleas_acq	Oppo	Rpleas	1pleas	acq_new_pleas_nomask	acq1_nomask	1	15	0	0	300	300	0	0	1839	50	1	0	kreativ	kuss	vertrauen	sonnig	träumen	engagiert	krank	krise	versagen	sterben	töten	engstirnig	gütig	besonnen	anregung	genießen	gesittet	vergnügt	gierig	bange	ausrottung	gemein	geizig	verbissen	1	blank2r.bmp	0	1	+	0	1	blank2r.bmp	500	8	C4r.bmp	500	1	blank2r.bmp	880	5	gesittet	880	0	0	0	0	0	0	0	0	0	0	0	0
2024-05-02	12:49:48	12:53:01	192165	6.6.1	4_exp_EVA_AWA_CON	10	A	B	Rpleas_acq	Oppo	Rpleas	1pleas	acq_US_pleas_nomask	acq1_nomask	1	16	0	0	300	300	0	0	717	50	1	0	kreativ	kuss	vertrauen	sonnig	träumen	engagiert	krank	krise	versagen	sterben	töten	engstirnig	gütig	besonnen	anregung	genießen	gesittet	vergnügt	gierig	bange	ausrottung	gemein	geizig	verbissen	1	blank2r.bmp	0	1	+	0	1	blank2r.bmp	500	1	CPLW	500	1	blank2r.bmp	880	5	träumen	880	0	0	0	0	0	0	0	0	0	0	0	0
2024-05-02	12:49:48	12:53:03	194477	6.6.1	4_exp_EVA_AWA_CON	10	A	B	Rpleas_acq	Oppo	Rpleas	1pleas	acq_US_pleas_nomask	acq1_nomask	1	17	0	0	300	300	0	0	828	50	1	0	kreativ	kuss	vertrauen	sonnig	träumen	engagiert	krank	krise	versagen	sterben	töten	engstirnig	gütig	besonnen	anregung	genießen	gesittet	vergnügt	gierig	bange	ausrottung	gemein	geizig	verbissen	1	blank2r.bmp	0	1	+	0	1	blank2r.bmp	500	1	CPLW	500	1	blank2r.bmp	880	6	engagiert	880	0	0	0	0	0	0	0	0	0	0	0	0
2024-05-02	12:49:48	12:53:06	196782	6.6.1	4_exp_EVA_AWA_CON	10	A	B	Rpleas_acq	Oppo	Rpleas	1pleas	acq_new_unple_nomask	acq1_nomask	1	18	0	0	300	300	0	0	820	46	1	0	kreativ	kuss	vertrauen	sonnig	träumen	engagiert	krank	krise	versagen	sterben	töten	engstirnig	gütig	besonnen	anregung	genießen	gesittet	vergnügt	gierig	bange	ausrottung	gemein	geizig	verbissen	1	blank2r.bmp	0	1	+	0	1	blank2r.bmp	500	4	B4r.bmp	500	1	blank2r.bmp	880	1	gierig	880	0	0	0	0	0	0	0	0	0	0	0	0
2024-05-02	12:49:48	12:53:08	198797	6.6.1	4_exp_EVA_AWA_CON	10	A	B	Rpleas_acq	Oppo	Rpleas	1pleas	acq_US_unple_nomask	acq1_nomask	1	19	0	0	300	300	0	0	535	46	1	0	kreativ	kuss	vertrauen	sonnig	träumen	engagiert	krank	krise	versagen	sterben	töten	engstirnig	gütig	besonnen	anregung	genießen	gesittet	vergnügt	gierig	bange	ausrottung	gemein	geizig	verbissen	1	blank2r.bmp	0	1	+	0	1	blank2r.bmp	500	1	DHJF	500	1	blank2r.bmp	880	1	krank	880	0	0	0	0	0	0	0	0	0	0	0	0
2024-05-02	12:49:48	12:53:10	200917	6.6.1	4_exp_EVA_AWA_CON	10	A	B	Rpleas_acq	Oppo	Rpleas	1pleas	acq_new_unple_nomask	acq1_nomask	1	20	0	0	300	300	0	0	633	46	1	0	kreativ	kuss	vertrauen	sonnig	träumen	engagiert	krank	krise	versagen	sterben	töten	engstirnig	gütig	besonnen	anregung	genießen	gesittet	vergnügt	gierig	bange	ausrottung	gemein	geizig	verbissen	1	blank2r.bmp	0	1	+	0	1	blank2r.bmp	500	3	B3r.bmp	500	1	blank2r.bmp	880	6	verbissen	880	0	0	0	0	0	0	0	0	0	0	0	0
2024-05-02	12:49:48	12:53:12	203349	6.6.1	4_exp_EVA_AWA_CON	10	A	B	Rpleas_acq	Oppo	Rpleas	1pleas	acq_new_unple_nomask	acq1_nomask	1	21	0	0	300	300	0	0	944	46	1	0	kreativ	kuss	vertrauen	sonnig	träumen	engagiert	krank	krise	versagen	sterben	töten	engstirnig	gütig	besonnen	anregung	genießen	gesittet	vergnügt	gierig	bange	ausrottung	gemein	geizig	verbissen	1	blank2r.bmp	0	1	+	0	1	blank2r.bmp	500	7	C3r.bmp	500	1	blank2r.bmp	880	5	geizig	880	0	0	0	0	0	0	0	0	0	0	0	0
2024-05-02	12:49:48	12:53:14	205749	6.6.1	4_exp_EVA_AWA_CON	10	A	B	Rpleas_acq	Oppo	Rpleas	1pleas	acq_US_unple_nomask	acq1_nomask	1	22	0	0	300	300	0	0	912	46	1	0	kreativ	kuss	vertrauen	sonnig	träumen	engagiert	krank	krise	versagen	sterben	töten	engstirnig	gütig	besonnen	anregung	genießen	gesittet	vergnügt	gierig	bange	ausrottung	gemein	geizig	verbissen	1	blank2r.bmp	0	1	+	0	1	blank2r.bmp	500	1	DHJF	500	1	blank2r.bmp	880	4	sterben	880	0	0	0	0	0	0	0	0	0	0	0	0
2024-05-02	12:49:48	12:53:17	208045	6.6.1	4_exp_EVA_AWA_CON	10	A	B	Rpleas_acq	Oppo	Rpleas	1pleas	acq_US_unple_nomask	acq1_nomask	1	23	0	0	300	300	0	0	807	46	1	0	kreativ	kuss	vertrauen	sonnig	träumen	engagiert	krank	krise	versagen	sterben	töten	engstirnig	gütig	besonnen	anregung	genießen	gesittet	vergnügt	gierig	bange	ausrottung	gemein	geizig	verbissen	1	blank2r.bmp	0	1	+	0	1	blank2r.bmp	500	1	DHJF	500	1	blank2r.bmp	880	6	engstirnig	880	0	0	0	0	0	0	0	0	0	0	0	0
2024-05-02	12:49:48	12:53:19	210245	6.6.1	4_exp_EVA_AWA_CON	10	A	B	Rpleas_acq	Oppo	Rpleas	1pleas	acq_new_pleas_nomask	acq1_nomask	1	24	0	0	300	300	0	0	715	50	1	0	kreativ	kuss	vertrauen	sonnig	träumen	engagiert	krank	krise	versagen	sterben	töten	engstirnig	gütig	besonnen	anregung	genießen	gesittet	vergnügt	gierig	bange	ausrottung	gemein	geizig	verbissen	1	blank2r.bmp	0	1	+	0	1	blank2r.bmp	500	5	C1r.bmp	500	1	blank2r.bmp	880	1	gütig	880	0	0	0	0	0	0	0	0	0	0	0	0
2024-05-02	12:49:48	12:53:21	212365	6.6.1	4_exp_EVA_AWA_CON	10	A	B	Rpleas_acq	Oppo	Rpleas	1pleas	acq_US_pleas_nomask	acq1_nomask	1	25	0	0	300	300	0	0	634	50	1	0	kreativ	kuss	vertrauen	sonnig	träumen	engagiert	krank	krise	versagen	sterben	töten	engstirnig	gütig	besonnen	anregung	genießen	gesittet	vergnügt	gierig	bange	ausrottung	gemein	geizig	verbissen	1	blank2r.bmp	0	1	+	0	1	blank2r.bmp	500	1	CPLW	500	1	blank2r.bmp	880	3	vertrauen	880	0	0	0	0	0	0	0	0	0	0	0	0
2024-05-02	12:49:48	12:53:23	214549	6.6.1	4_exp_EVA_AWA_CON	10	A	B	Rpleas_acq	Oppo	Rpleas	1pleas	acq_new_unple_nomask	acq1_nomask	1	26	0	0	300	300	0	0	697	46	1	0	kreativ	kuss	vertrauen	sonnig	träumen	engagiert	krank	krise	versagen	sterben	töten	engstirnig	gütig	besonnen	anregung	genießen	gesittet	vergnügt	gierig	bange	ausrottung	gemein	geizig	verbissen	1	blank2r.bmp	0	1	+	0	1	blank2r.bmp	500	6	C2r.bmp	500	1	blank2r.bmp	880	1	gierig	880	0	0	0	0	0	0	0	0	0	0	0	0
2024-05-02	12:49:48	12:53:25	216597	6.6.1	4_exp_EVA_AWA_CON	10	A	B	Rpleas_acq	Oppo	Rpleas	1pleas	acq_US_unple_nomask	acq1_nomask	1	27	0	0	300	300	0	0	563	46	1	0	kreativ	kuss	vertrauen	sonnig	träumen	engagiert	krank	krise	versagen	sterben	töten	engstirnig	gütig	besonnen	anregung	genießen	gesittet	vergnügt	gierig	bange	ausrottung	gemein	geizig	verbissen	1	blank2r.bmp	0	1	+	0	1	blank2r.bmp	500	1	DHJF	500	1	blank2r.bmp	880	4	sterben	880	0	0	0	0	0	0	0	0	0	0	0	0
2024-05-02	12:49:48	12:53:27	218765	6.6.1	4_exp_EVA_AWA_CON	10	A	B	Rpleas_acq	Oppo	Rpleas	1pleas	acq_US_pleas_nomask	acq1_nomask	1	28	0	0	300	300	0	0	680	50	1	0	kreativ	kuss	vertrauen	sonnig	träumen	engagiert	krank	krise	versagen	sterben	töten	engstirnig	gütig	besonnen	anregung	genießen	gesittet	vergnügt	gierig	bange	ausrottung	gemein	geizig	verbissen	1	blank2r.bmp	0	1	+	0	1	blank2r.bmp	500	1	CPLW	500	1	blank2r.bmp	880	6	engagiert	880	0	0	0	0	0	0	0	0	0	0	0	0
2024-05-02	12:49:48	12:53:31	221989	6.6.1	4_exp_EVA_AWA_CON	10	A	B	Rpleas_acq	Oppo	Rpleas	1pleas	acq_new_pleas_nomask	acq1_nomask	1	29	0	0	300	300	0	0	1743	50	1	0	kreativ	kuss	vertrauen	sonnig	träumen	engagiert	krank	krise	versagen	sterben	töten	engstirnig	gütig	besonnen	anregung	genießen	gesittet	vergnügt	gierig	bange	ausrottung	gemein	geizig	verbissen	1	blank2r.bmp	0	1	+	0	1	blank2r.bmp	500	2	B2r.bmp	500	1	blank2r.bmp	880	5	gesittet	880	0	0	0	0	0	0	0	0	0	0	0	0
2024-05-02	12:49:48	12:53:34	225517	6.6.1	4_exp_EVA_AWA_CON	10	A	B	Rpleas_acq	Oppo	Rpleas	1pleas	acq_new_pleas_nomask	acq1_nomask	1	30	0	0	300	300	0	0	2038	50	1	0	kreativ	kuss	vertrauen	sonnig	träumen	engagiert	krank	krise	versagen	sterben	töten	engstirnig	gütig	besonnen	anregung	genießen	gesittet	vergnügt	gierig	bange	ausrottung	gemein	geizig	verbissen	1	blank2r.bmp	0	1	+	0	1	blank2r.bmp	500	1	B1r.bmp	500	1	blank2r.bmp	880	3	anregung	880	0	0	0	0	0	0	0	0	0	0	0	0
2024-05-02	12:49:48	12:53:36	227661	6.6.1	4_exp_EVA_AWA_CON	10	A	B	Rpleas_acq	Oppo	Rpleas	1pleas	acq_new_pleas_nomask	acq1_nomask	1	31	0	0	300	300	0	0	660	50	1	0	kreativ	kuss	vertrauen	sonnig	träumen	engagiert	krank	krise	versagen	sterben	töten	engstirnig	gütig	besonnen	anregung	genießen	gesittet	vergnügt	gierig	bange	ausrottung	gemein	geizig	verbissen	1	blank2r.bmp	0	1	+	0	1	blank2r.bmp	500	8	C4r.bmp	500	1	blank2r.bmp	880	4	genießen	880	0	0	0	0	0	0	0	0	0	0	0	0
2024-05-02	12:49:48	12:53:38	229629	6.6.1	4_exp_EVA_AWA_CON	10	A	B	Rpleas_acq	Oppo	Rpleas	1pleas	acq_US_pleas_nomask	acq1_nomask	1	32	0	0	300	300	0	0	487	50	1	0	kreativ	kuss	vertrauen	sonnig	träumen	engagiert	krank	krise	versagen	sterben	töten	engstirnig	gütig	besonnen	anregung	genießen	gesittet	vergnügt	gierig	bange	ausrottung	gemein	geizig	verbissen	1	blank2r.bmp	0	1	+	0	1	blank2r.bmp	500	1	CPLW	500	1	blank2r.bmp	880	2	kuss	880	0	0	0	0	0	0	0	0	0	0	0	0
2024-05-02	12:49:48	12:53:40	231701	6.6.1	4_exp_EVA_AWA_CON	10	A	B	Rpleas_acq	Oppo	Rpleas	1pleas	acq_US_unple_nomask	acq1_nomask	1	33	0	0	300	300	0	0	588	46	1	0	kreativ	kuss	vertrauen	sonnig	träumen	engagiert	krank	krise	versagen	sterben	töten	engstirnig	gütig	besonnen	anregung	genießen	gesittet	vergnügt	gierig	bange	ausrottung	gemein	geizig	verbissen	1	blank2r.bmp	0	1	+	0	1	blank2r.bmp	500	1	DHJF	500	1	blank2r.bmp	880	2	krise	880	0	0	0	0	0	0	0	0	0	0	0	0
2024-05-02	12:49:48	12:53:43	233925	6.6.1	4_exp_EVA_AWA_CON	10	A	B	Rpleas_acq	Oppo	Rpleas	1pleas	acq_new_unple_nomask	acq1_nomask	1	34	0	0	300	300	0	0	740	46	1	0	kreativ	kuss	vertrauen	sonnig	träumen	engagiert	krank	krise	versagen	sterben	töten	engstirnig	gütig	besonnen	anregung	genießen	gesittet	vergnügt	gierig	bange	ausrottung	gemein	geizig	verbissen	1	blank2r.bmp	0	1	+	0	1	blank2r.bmp	500	2	B2r.bmp	500	1	blank2r.bmp	880	3	ausrottung	880	0	0	0	0	0	0	0	0	0	0	0	0
2024-05-02	12:49:48	12:53:45	236133	6.6.1	4_exp_EVA_AWA_CON	10	A	B	Rpleas_acq	Oppo	Rpleas	1pleas	acq_new_unple_nomask	acq1_nomask	1	35	0	0	300	300	0	0	727	46	1	0	kreativ	kuss	vertrauen	sonnig	träumen	engagiert	krank	krise	versagen	sterben	töten	engstirnig	gütig	besonnen	anregung	genießen	gesittet	vergnügt	gierig	bange	ausrottung	gemein	geizig	verbissen	1	blank2r.bmp	0	1	+	0	1	blank2r.bmp	500	8	C4r.bmp	500	1	blank2r.bmp	880	2	bange	880	0	0	0	0	0	0	0	0	0	0	0	0
2024-05-02	12:49:48	12:53:47	238109	6.6.1	4_exp_EVA_AWA_CON	10	A	B	Rpleas_acq	Oppo	Rpleas	1pleas	acq_US_unple_nomask	acq1_nomask	1	36	0	0	300	300	0	0	491	46	1	0	kreativ	kuss	vertrauen	sonnig	träumen	engagiert	krank	krise	versagen	sterben	töten	engstirnig	gütig	besonnen	anregung	genießen	gesittet	vergnügt	gierig	bange	ausrottung	gemein	geizig	verbissen	1	blank2r.bmp	0	1	+	0	1	blank2r.bmp	500	1	DHJF	500	1	blank2r.bmp	880	5	töten	880	0	0	0	0	0	0	0	0	0	0	0	0
2024-05-02	12:49:48	12:54:27	278351	6.6.1	4_exp_EVA_AWA_CON	10	A	B	Rpleas_acq	Oppo	Rpleas	1pleas	acq_US_unple_nomask	acq2_nomask	2	1	480	0	300	300	0	0	2359	46	1	0	kreativ	kuss	vertrauen	sonnig	träumen	engagiert	krank	krise	versagen	sterben	töten	engstirnig	gütig	besonnen	anregung	genießen	gesittet	vergnügt	gierig	bange	ausrottung	gemein	geizig	verbissen	1	blank2r.bmp	0	1	+	0	1	blank2r.bmp	500	1	DHJF	500	1	blank2r.bmp	880	1	krank	880	1	!	1313	1	!	-1	0	0	0	0	0	0
2024-05-02	12:49:48	12:54:30	280839	6.6.1	4_exp_EVA_AWA_CON	10	A	B	Rpleas_acq	Oppo	Rpleas	1pleas	acq_new_pleas_nomask	acq2_nomask	2	2	480	0	300	300	0	0	714	50	1	0	kreativ	kuss	vertrauen	sonnig	träumen	engagiert	krank	krise	versagen	sterben	töten	engstirnig	gütig	besonnen	anregung	genießen	gesittet	vergnügt	gierig	bange	ausrottung	gemein	geizig	verbissen	1	blank2r.bmp	0	1	+	0	1	blank2r.bmp	500	3	B3r.bmp	500	1	blank2r.bmp	880	6	vergnügt	880	1	!	1313	1	!	-1	0	0	0	0	0	0
2024-05-02	12:49:48	12:54:32	283303	6.6.1	4_exp_EVA_AWA_CON	10	A	B	Rpleas_acq	Oppo	Rpleas	1pleas	acq_new_pleas_nomask	acq2_nomask	2	3	480	0	300	300	0	0	687	50	1	0	kreativ	kuss	vertrauen	sonnig	träumen	engagiert	krank	krise	versagen	sterben	töten	engstirnig	gütig	besonnen	anregung	genießen	gesittet	vergnügt	gierig	bange	ausrottung	gemein	geizig	verbissen	1	blank2r.bmp	0	1	+	0	1	blank2r.bmp	500	7	C3r.bmp	500	1	blank2r.bmp	880	2	besonnen	880	1	!	1313	1	!	-1	0	0	0	0	0	0
2024-05-02	12:49:48	12:54:34	285487	6.6.1	4_exp_EVA_AWA_CON	10	A	B	Rpleas_acq	Oppo	Rpleas	1pleas	acq_new_unple_nomask	acq2_nomask	2	4	480	0	300	300	0	0	409	46	1	0	kreativ	kuss	vertrauen	sonnig	träumen	engagiert	krank	krise	versagen	sterben	töten	engstirnig	gütig	besonnen	anregung	genießen	gesittet	vergnügt	gierig	bange	ausrottung	gemein	geizig	verbissen	1	blank2r.bmp	0	1	+	0	1	blank2r.bmp	500	5	C1r.bmp	500	1	blank2r.bmp	880	5	geizig	880	1	!	-1	1	!	-1	0	0	0	0	0	0
2024-05-02	12:49:48	12:54:36	287655	6.6.1	4_exp_EVA_AWA_CON	10	A	B	Rpleas_acq	Oppo	Rpleas	1pleas	acq_new_unple_nomask	acq2_nomask	2	5	480	0	300	300	0	0	386	46	1	0	kreativ	kuss	vertrauen	sonnig	träumen	engagiert	krank	krise	versagen	sterben	töten	engstirnig	gütig	besonnen	anregung	genießen	gesittet	vergnügt	gierig	bange	ausrottung	gemein	geizig	verbissen	1	blank2r.bmp	0	1	+	0	1	blank2r.bmp	500	6	C2r.bmp	500	1	blank2r.bmp	880	6	verbissen	880	1	!	-1	1	!	-1	0	0	0	0	0	0
2024-05-02	12:49:48	12:54:39	290087	6.6.1	4_exp_EVA_AWA_CON	10	A	B	Rpleas_acq	Oppo	Rpleas	1pleas	acq_new_pleas_nomask	acq2_nomask	2	6	480	0	300	300	0	0	656	50	1	0	kreativ	kuss	vertrauen	sonnig	träumen	engagiert	krank	krise	versagen	sterben	töten	engstirnig	gütig	besonnen	anregung	genießen	gesittet	vergnügt	gierig	bange	ausrottung	gemein	geizig	verbissen	1	blank2r.bmp	0	1	+	0	1	blank2r.bmp	500	4	B4r.bmp	500	1	blank2r.bmp	880	1	gütig	880	1	!	1313	1	!	-1	0	0	0	0	0	0
2024-05-02	12:49:48	12:54:41	292434	6.6.1	4_exp_EVA_AWA_CON	10	A	B	Rpleas_acq	Oppo	Rpleas	1pleas	acq_US_unple_nomask	acq2_nomask	2	7	480	0	300	300	0	0	369	50	0	0	kreativ	kuss	vertrauen	sonnig	träumen	engagiert	krank	krise	versagen	sterben	töten	engstirnig	gütig	besonnen	anregung	genießen	gesittet	vergnügt	gierig	bange	ausrottung	gemein	geizig	verbissen	1	blank2r.bmp	0	1	+	0	1	blank2r.bmp	500	1	DHJF	500	1	blank2r.bmp	880	3	versagen	880	1	FEHLER	1562	1	!	-1	1	!	-1	0	0	0
2024-05-02	12:49:48	12:54:43	294618	6.6.1	4_exp_EVA_AWA_CON	10	A	B	Rpleas_acq	Oppo	Rpleas	1pleas	acq_US_pleas_nomask	acq2_nomask	2	8	480	1	300	300	0	0	413	46	0	0	kreativ	kuss	vertrauen	sonnig	träumen	engagiert	krank	krise	versagen	sterben	töten	engstirnig	gütig	besonnen	anregung	genießen	gesittet	vergnügt	gierig	bange	ausrottung	gemein	geizig	verbissen	1	blank2r.bmp	0	1	+	0	1	blank2r.bmp	500	1	CPLW	500	1	blank2r.bmp	880	5	träumen	880	1	FEHLER	1605	1	!	1313	1	!	1313	0	0	0
2024-05-02	12:49:48	12:54:48	299419	6.6.1	4_exp_EVA_AWA_CON	10	A	B	Rpleas_acq	Oppo	Rpleas	1pleas	acq_US_unple_nomask	acq2_nomask	2	9	480	0	300	300	0	0	3020	50	0	0	kreativ	kuss	vertrauen	sonnig	träumen	engagiert	krank	krise	versagen	sterben	töten	engstirnig	gütig	besonnen	anregung	genießen	gesittet	vergnügt	gierig	bange	ausrottung	gemein	geizig	verbissen	1	blank2r.bmp	0	1	+	0	1	blank2r.bmp	500	1	DHJF	500	1	blank2r.bmp	880	6	engstirnig	880	1	FEHLER	4214	1	!	1313	1	!	-1	0	0	0
2024-05-02	12:49:48	12:54:50	301607	6.6.1	4_exp_EVA_AWA_CON	10	A	B	Rpleas_acq	Oppo	Rpleas	1pleas	acq_new_unple_nomask	acq2_nomask	2	10	480	0	300	300	0	0	619	46	1	0	kreativ	kuss	vertrauen	sonnig	träumen	engagiert	krank	krise	versagen	sterben	töten	engstirnig	gütig	besonnen	anregung	genießen	gesittet	vergnügt	gierig	bange	ausrottung	gemein	geizig	verbissen	1	blank2r.bmp	0	1	+	0	1	blank2r.bmp	500	1	B1r.bmp	500	1	blank2r.bmp	880	4	gemein	880	1	!	1312	1	!	-1	0	0	0	0	0	0
2024-05-02	12:49:48	12:54:53	303904	6.6.1	4_exp_EVA_AWA_CON	10	A	B	Rpleas_acq	Oppo	Rpleas	1pleas	acq_US_pleas_nomask	acq2_nomask	2	11	480	1	300	300	0	0	513	50	1	0	kreativ	kuss	vertrauen	sonnig	träumen	engagiert	krank	krise	versagen	sterben	töten	engstirnig	gütig	besonnen	anregung	genießen	gesittet	vergnügt	gierig	bange	ausrottung	gemein	geizig	verbissen	1	blank2r.bmp	0	1	+	0	1	blank2r.bmp	500	1	CPLW	500	1	blank2r.bmp	880	1	kreativ	880	1	!	1312	1	!	1415	0	0	0	0	0	0
2024-05-02	12:49:48	12:54:55	306136	6.6.1	4_exp_EVA_AWA_CON	10	A	B	Rpleas_acq	Oppo	Rpleas	1pleas	acq_US_pleas_nomask	acq2_nomask	2	12	480	1	300	300	0	0	454	50	1	0	kreativ	kuss	vertrauen	sonnig	träumen	engagiert	krank	krise	versagen	sterben	töten	engstirnig	gütig	besonnen	anregung	genießen	gesittet	vergnügt	gierig	bange	ausrottung	gemein	geizig	verbissen	1	blank2r.bmp	0	1	+	0	1	blank2r.bmp	500	1	CPLW	500	1	blank2r.bmp	880	4	sonnig	880	1	!	1312	1	!	1355	0	0	0	0	0	0
2024-05-02	12:49:48	12:54:57	308526	6.6.1	4_exp_EVA_AWA_CON	10	A	B	Rpleas_acq	Oppo	Rpleas	1pleas	acq_new_pleas_nomask	acq2_nomask	2	13	480	0	300	300	0	0	614	50	1	0	kreativ	kuss	vertrauen	sonnig	träumen	engagiert	krank	krise	versagen	sterben	töten	engstirnig	gütig	besonnen	anregung	genießen	gesittet	vergnügt	gierig	bange	ausrottung	gemein	geizig	verbissen	1	blank2r.bmp	0	1	+	0	1	blank2r.bmp	500	3	B3r.bmp	500	1	blank2r.bmp	880	6	vergnügt	880	1	!	1312	1	!	-1	0	0	0	0	0	0
2024-05-02	12:49:48	12:54:59	310695	6.6.1	4_exp_EVA_AWA_CON	10	A	B	Rpleas_acq	Oppo	Rpleas	1pleas	acq_US_unple_nomask	acq2_nomask	2	14	480	0	300	300	0	0	391	46	1	0	kreativ	kuss	vertrauen	sonnig	träumen	engagiert	krank	krise	versagen	sterben	töten	engstirnig	gütig	besonnen	anregung	genießen	gesittet	vergnügt	gierig	bange	ausrottung	gemein	geizig	verbissen	1	blank2r.bmp	0	1	+	0	1	blank2r.bmp	500	1	DHJF	500	1	blank2r.bmp	880	5	töten	880	1	!	-1	1	!	-1	0	0	0	0	0	0
2024-05-02	12:49:48	12:55:02	313008	6.6.1	4_exp_EVA_AWA_CON	10	A	B	Rpleas_acq	Oppo	Rpleas	1pleas	acq_new_unple_nomask	acq2_nomask	2	15	480	1	300	300	0	0	532	46	1	0	kreativ	kuss	vertrauen	sonnig	träumen	engagiert	krank	krise	versagen	sterben	töten	engstirnig	gütig	besonnen	anregung	genießen	gesittet	vergnügt	gierig	bange	ausrottung	gemein	geizig	verbissen	1	blank2r.bmp	0	1	+	0	1	blank2r.bmp	500	4	B4r.bmp	500	1	blank2r.bmp	880	4	gemein	880	1	!	1313	1	!	1433	0	0	0	0	0	0
2024-05-02	12:49:48	12:55:04	315351	6.6.1	4_exp_EVA_AWA_CON	10	A	B	Rpleas_acq	Oppo	Rpleas	1pleas	acq_new_pleas_nomask	acq2_nomask	2	16	480	0	300	300	0	0	564	50	1	0	kreativ	kuss	vertrauen	sonnig	träumen	engagiert	krank	krise	versagen	sterben	töten	engstirnig	gütig	besonnen	anregung	genießen	gesittet	vergnügt	gierig	bange	ausrottung	gemein	geizig	verbissen	1	blank2r.bmp	0	1	+	0	1	blank2r.bmp	500	6	C2r.bmp	500	1	blank2r.bmp	880	2	besonnen	880	1	!	1312	1	!	-1	0	0	0	0	0	0
2024-05-02	12:49:48	12:55:06	317569	6.6.1	4_exp_EVA_AWA_CON	10	A	B	Rpleas_acq	Oppo	Rpleas	1pleas	acq_US_unple_nomask	acq2_nomask	2	17	480	1	300	300	0	0	439	46	1	0	kreativ	kuss	vertrauen	sonnig	träumen	engagiert	krank	krise	versagen	sterben	töten	engstirnig	gütig	besonnen	anregung	genießen	gesittet	vergnügt	gierig	bange	ausrottung	gemein	geizig	verbissen	1	blank2r.bmp	0	1	+	0	1	blank2r.bmp	500	1	DHJF	500	1	blank2r.bmp	880	2	krise	880	1	!	1313	1	!	1340	0	0	0	0	0	0
2024-05-02	12:49:48	12:55:09	319968	6.6.1	4_exp_EVA_AWA_CON	10	A	B	Rpleas_acq	Oppo	Rpleas	1pleas	acq_new_unple_nomask	acq2_nomask	2	18	480	1	300	300	0	0	417	50	0	0	kreativ	kuss	vertrauen	sonnig	träumen	engagiert	krank	krise	versagen	sterben	töten	engstirnig	gütig	besonnen	anregung	genießen	gesittet	vergnügt	gierig	bange	ausrottung	gemein	geizig	verbissen	1	blank2r.bmp	0	1	+	0	1	blank2r.bmp	500	1	B1r.bmp	500	1	blank2r.bmp	880	5	geizig	880	1	FEHLER	1608	1	!	1313	1	!	1316	0	0	0
2024-05-02	12:49:48	12:55:11	322170	6.6.1	4_exp_EVA_AWA_CON	10	A	B	Rpleas_acq	Oppo	Rpleas	1pleas	acq_US_pleas_nomask	acq2_nomask	2	19	480	1	300	300	0	0	426	46	0	0	kreativ	kuss	vertrauen	sonnig	träumen	engagiert	krank	krise	versagen	sterben	töten	engstirnig	gütig	besonnen	anregung	genießen	gesittet	vergnügt	gierig	bange	ausrottung	gemein	geizig	verbissen	1	blank2r.bmp	0	1	+	0	1	blank2r.bmp	500	1	CPLW	500	1	blank2r.bmp	880	5	träumen	880	1	FEHLER	1619	1	!	1312	1	!	1327	0	0	0
2024-05-02	12:49:48	12:55:13	324439	6.6.1	4_exp_EVA_AWA_CON	10	A	B	Rpleas_acq	Oppo	Rpleas	1pleas	acq_US_pleas_nomask	acq2_nomask	2	20	480	0	300	300	0	0	696	50	1	0	kreativ	kuss	vertrauen	sonnig	träumen	engagiert	krank	krise	versagen	sterben	töten	engstirnig	gütig	besonnen	anregung	genießen	gesittet	vergnügt	gierig	bange	ausrottung	gemein	geizig	verbissen	1	blank2r.bmp	0	1	+	0	1	blank2r.bmp	500	1	CPLW	500	1	blank2r.bmp	880	6	engagiert	880	1	!	1313	1	!	-1	0	0	0	0	0	0
2024-05-02	12:49:48	12:55:16	326760	6.6.1	4_exp_EVA_AWA_CON	10	A	B	Rpleas_acq	Oppo	Rpleas	1pleas	acq_US_unple_nomask	acq2_nomask	2	21	480	1	300	300	0	0	545	46	1	0	kreativ	kuss	vertrauen	sonnig	träumen	engagiert	krank	krise	versagen	sterben	töten	engstirnig	gütig	besonnen	anregung	genießen	gesittet	vergnügt	gierig	bange	ausrottung	gemein	geizig	verbissen	1	blank2r.bmp	0	1	+	0	1	blank2r.bmp	500	1	DHJF	500	1	blank2r.bmp	880	3	versagen	880	1	!	1313	1	!	1446	0	0	0	0	0	0
2024-05-02	12:49:48	12:55:18	329072	6.6.1	4_exp_EVA_AWA_CON	10	A	B	Rpleas_acq	Oppo	Rpleas	1pleas	acq_US_pleas_nomask	acq2_nomask	2	22	480	1	300	300	0	0	535	50	1	0	kreativ	kuss	vertrauen	sonnig	träumen	engagiert	krank	krise	versagen	sterben	töten	engstirnig	gütig	besonnen	anregung	genießen	gesittet	vergnügt	gierig	bange	ausrottung	gemein	geizig	verbissen	1	blank2r.bmp	0	1	+	0	1	blank2r.bmp	500	1	CPLW	500	1	blank2r.bmp	880	4	sonnig	880	1	!	1312	1	!	1436	0	0	0	0	0	0
2024-05-02	12:49:48	12:55:20	331423	6.6.1	4_exp_EVA_AWA_CON	10	A	B	Rpleas_acq	Oppo	Rpleas	1pleas	acq_new_pleas_nomask	acq2_nomask	2	23	480	0	300	300	0	0	576	50	1	0	kreativ	kuss	vertrauen	sonnig	träumen	engagiert	krank	krise	versagen	sterben	töten	engstirnig	gütig	besonnen	anregung	genießen	gesittet	vergnügt	gierig	bange	ausrottung	gemein	geizig	verbissen	1	blank2r.bmp	0	1	+	0	1	blank2r.bmp	500	7	C3r.bmp	500	1	blank2r.bmp	880	4	genießen	880	1	!	1313	1	!	-1	0	0	0	0	0	0
2024-05-02	12:49:48	12:55:23	333799	6.6.1	4_exp_EVA_AWA_CON	10	A	B	Rpleas_acq	Oppo	Rpleas	1pleas	acq_new_unple_nomask	acq2_nomask	2	24	480	0	300	300	0	0	600	46	1	0	kreativ	kuss	vertrauen	sonnig	träumen	engagiert	krank	krise	versagen	sterben	töten	engstirnig	gütig	besonnen	anregung	genießen	gesittet	vergnügt	gierig	bange	ausrottung	gemein	geizig	verbissen	1	blank2r.bmp	0	1	+	0	1	blank2r.bmp	500	2	B2r.bmp	500	1	blank2r.bmp	880	3	ausrottung	880	1	!	1312	1	!	-1	0	0	0	0	0	0
2024-05-02	12:49:48	12:55:25	335967	6.6.1	4_exp_EVA_AWA_CON	10	A	B	Rpleas_acq	Oppo	Rpleas	1pleas	acq_US_pleas_nomask	acq2_nomask	2	25	480	0	300	300	0	0	387	50	1	0	kreativ	kuss	vertrauen	sonnig	träumen	engagiert	krank	krise	versagen	sterben	töten	engstirnig	gütig	besonnen	anregung	genießen	gesittet	vergnügt	gierig	bange	ausrottung	gemein	geizig	verbissen	1	blank2r.bmp	0	1	+	0	1	blank2r.bmp	500	1	CPLW	500	1	blank2r.bmp	880	2	kuss	880	1	!	-1	1	!	-1	0	0	0	0	0	0
2024-05-02	12:49:48	12:55:27	338311	6.6.1	4_exp_EVA_AWA_CON	10	A	B	Rpleas_acq	Oppo	Rpleas	1pleas	acq_US_pleas_nomask	acq2_nomask	2	26	480	0	300	300	0	0	569	50	1	0	kreativ	kuss	vertrauen	sonnig	träumen	engagiert	krank	krise	versagen	sterben	töten	engstirnig	gütig	besonnen	anregung	genießen	gesittet	vergnügt	gierig	bange	ausrottung	gemein	geizig	verbissen	1	blank2r.bmp	0	1	+	0	1	blank2r.bmp	500	1	CPLW	500	1	blank2r.bmp	880	3	vertrauen	880	1	!	1312	1	!	-1	0	0	0	0	0	0
2024-05-02	12:49:48	12:55:30	340770	6.6.1	4_exp_EVA_AWA_CON	10	A	B	Rpleas_acq	Oppo	Rpleas	1pleas	acq_new_unple_nomask	acq2_nomask	2	27	480	1	300	300	0	0	474	50	0	0	kreativ	kuss	vertrauen	sonnig	träumen	engagiert	krank	krise	versagen	sterben	töten	engstirnig	gütig	besonnen	anregung	genießen	gesittet	vergnügt	gierig	bange	ausrottung	gemein	geizig	verbissen	1	blank2r.bmp	0	1	+	0	1	blank2r.bmp	500	5	C1r.bmp	500	1	blank2r.bmp	880	2	bange	880	1	FEHLER	1667	1	!	1313	1	!	1375	0	0	0
2024-05-02	12:49:48	12:55:32	343104	6.6.1	4_exp_EVA_AWA_CON	10	A	B	Rpleas_acq	Oppo	Rpleas	1pleas	acq_new_pleas_nomask	acq2_nomask	2	28	480	0	300	300	0	0	558	46	0	0	kreativ	kuss	vertrauen	sonnig	träumen	engagiert	krank	krise	versagen	sterben	töten	engstirnig	gütig	besonnen	anregung	genießen	gesittet	vergnügt	gierig	bange	ausrottung	gemein	geizig	verbissen	1	blank2r.bmp	0	1	+	0	1	blank2r.bmp	500	8	C4r.bmp	500	1	blank2r.bmp	880	3	anregung	880	1	FEHLER	1750	1	!	1313	1	!	-1	0	0	0
2024-05-02	12:49:48	12:55:34	345423	6.6.1	4_exp_EVA_AWA_CON	10	A	B	Rpleas_acq	Oppo	Rpleas	1pleas	acq_new_unple_nomask	acq2_nomask	2	29	480	0	300	300	0	0	747	46	1	0	kreativ	kuss	vertrauen	sonnig	träumen	engagiert	krank	krise	versagen	sterben	töten	engstirnig	gütig	besonnen	anregung	genießen	gesittet	vergnügt	gierig	bange	ausrottung	gemein	geizig	verbissen	1	blank2r.bmp	0	1	+	0	1	blank2r.bmp	500	7	C3r.bmp	500	1	blank2r.bmp	880	1	gierig	880	1	!	1312	1	!	-1	0	0	0	0	0	0
2024-05-02	12:49:48	12:55:37	347935	6.6.1	4_exp_EVA_AWA_CON	10	A	B	Rpleas_acq	Oppo	Rpleas	1pleas	acq_US_unple_nomask	acq2_nomask	2	30	480	0	300	300	0	0	737	46	1	0	kreativ	kuss	vertrauen	sonnig	träumen	engagiert	krank	krise	versagen	sterben	töten	engstirnig	gütig	besonnen	anregung	genießen	gesittet	vergnügt	gierig	bange	ausrottung	gemein	geizig	verbissen	1	blank2r.bmp	0	1	+	0	1	blank2r.bmp	500	1	DHJF	500	1	blank2r.bmp	880	6	engstirnig	880	1	!	1312	1	!	-1	0	0	0	0	0	0
2024-05-02	12:49:48	12:55:39	350119	6.6.1	4_exp_EVA_AWA_CON	10	A	B	Rpleas_acq	Oppo	Rpleas	1pleas	acq_US_pleas_nomask	acq2_nomask	2	31	480	0	300	300	0	0	410	50	1	0	kreativ	kuss	vertrauen	sonnig	träumen	engagiert	krank	krise	versagen	sterben	töten	engstirnig	gütig	besonnen	anregung	genießen	gesittet	vergnügt	gierig	bange	ausrottung	gemein	geizig	verbissen	1	blank2r.bmp	0	1	+	0	1	blank2r.bmp	500	1	CPLW	500	1	blank2r.bmp	880	1	kreativ	880	1	!	-1	1	!	-1	0	0	0	0	0	0
2024-05-02	12:49:48	12:55:41	352515	6.6.1	4_exp_EVA_AWA_CON	10	A	B	Rpleas_acq	Oppo	Rpleas	1pleas	acq_US_unple_nomask	acq2_nomask	2	32	480	0	300	300	0	0	410	50	0	0	kreativ	kuss	vertrauen	sonnig	träumen	engagiert	krank	krise	versagen	sterben	töten	engstirnig	gütig	besonnen	anregung	genießen	gesittet	vergnügt	gierig	bange	ausrottung	gemein	geizig	verbissen	1	blank2r.bmp	0	1	+	0	1	blank2r.bmp	500	1	DHJF	500	1	blank2r.bmp	880	1	krank	880	1	FEHLER	1604	1	!	-1	1	!	-1	0	0	0
2024-05-02	12:49:48	12:55:44	355122	6.6.1	4_exp_EVA_AWA_CON	10	A	B	Rpleas_acq	Oppo	Rpleas	1pleas	acq_new_pleas_nomask	acq2_nomask	2	33	480	0	300	300	0	0	827	46	0	0	kreativ	kuss	vertrauen	sonnig	träumen	engagiert	krank	krise	versagen	sterben	töten	engstirnig	gütig	besonnen	anregung	genießen	gesittet	vergnügt	gierig	bange	ausrottung	gemein	geizig	verbissen	1	blank2r.bmp	0	1	+	0	1	blank2r.bmp	500	6	C2r.bmp	500	1	blank2r.bmp	880	5	gesittet	880	1	FEHLER	2020	1	!	1313	1	!	-1	0	0	0
2024-05-02	12:49:48	12:55:46	357551	6.6.1	4_exp_EVA_AWA_CON	10	A	B	Rpleas_acq	Oppo	Rpleas	1pleas	acq_new_unple_nomask	acq2_nomask	2	34	480	0	300	300	0	0	857	46	1	0	kreativ	kuss	vertrauen	sonnig	träumen	engagiert	krank	krise	versagen	sterben	töten	engstirnig	gütig	besonnen	anregung	genießen	gesittet	vergnügt	gierig	bange	ausrottung	gemein	geizig	verbissen	1	blank2r.bmp	0	1	+	0	1	blank2r.bmp	500	8	C4r.bmp	500	1	blank2r.bmp	880	6	verbissen	880	1	!	1312	1	!	-1	0	0	0	0	0	0
2024-05-02	12:49:48	12:55:49	359958	6.6.1	4_exp_EVA_AWA_CON	10	A	B	Rpleas_acq	Oppo	Rpleas	1pleas	acq_new_pleas_nomask	acq2_nomask	2	35	480	0	300	300	0	0	634	50	1	0	kreativ	kuss	vertrauen	sonnig	träumen	engagiert	krank	krise	versagen	sterben	töten	engstirnig	gütig	besonnen	anregung	genießen	gesittet	vergnügt	gierig	bange	ausrottung	gemein	geizig	verbissen	1	blank2r.bmp	0	1	+	0	1	blank2r.bmp	500	3	B3r.bmp	500	1	blank2r.bmp	880	1	gütig	880	1	!	1313	1	!	-1	0	0	0	0	0	0
2024-05-02	12:49:48	12:55:51	362224	6.6.1	4_exp_EVA_AWA_CON	10	A	B	Rpleas_acq	Oppo	Rpleas	1pleas	acq_US_unple_nomask	acq2_nomask	2	36	480	1	300	300	0	0	486	46	1	0	kreativ	kuss	vertrauen	sonnig	träumen	engagiert	krank	krise	versagen	sterben	töten	engstirnig	gütig	besonnen	anregung	genießen	gesittet	vergnügt	gierig	bange	ausrottung	gemein	geizig	verbissen	1	blank2r.bmp	0	1	+	0	1	blank2r.bmp	500	1	DHJF	500	1	blank2r.bmp	880	4	sterben	880	1	!	1312	1	!	1387	0	0	0	0	0	0
2024-05-02	12:49:48	12:56:11	382433	6.6.1	4_exp_EVA_AWA_CON	10	A	B	Rpleas_acq	Oppo	Rpleas	1pleas	acq_US_pleas_nomask	acq3_nomask	3	1	453	1	300	300	0	0	511	50	1	0	kreativ	kuss	vertrauen	sonnig	träumen	engagiert	krank	krise	versagen	sterben	töten	engstirnig	gütig	besonnen	anregung	genießen	gesittet	vergnügt	gierig	bange	ausrottung	gemein	geizig	verbissen	1	blank2r.bmp	0	1	+	0	1	blank2r.bmp	500	1	CPLW	500	1	blank2r.bmp	880	5	träumen	880	1	!	1293	1	!	1412	0	0	0	0	0	0
2024-05-02	12:49:48	12:56:13	384688	6.6.1	4_exp_EVA_AWA_CON	10	A	B	Rpleas_acq	Oppo	Rpleas	1pleas	acq_US_unple_nomask	acq3_nomask	3	2	453	1	300	300	0	0	475	46	1	0	kreativ	kuss	vertrauen	sonnig	träumen	engagiert	krank	krise	versagen	sterben	töten	engstirnig	gütig	besonnen	anregung	genießen	gesittet	vergnügt	gierig	bange	ausrottung	gemein	geizig	verbissen	1	blank2r.bmp	0	1	+	0	1	blank2r.bmp	500	1	DHJF	500	1	blank2r.bmp	880	1	krank	880	1	!	1293	1	!	1376	0	0	0	0	0	0
2024-05-02	12:49:48	12:56:16	386998	6.6.1	4_exp_EVA_AWA_CON	10	A	B	Rpleas_acq	Oppo	Rpleas	1pleas	acq_US_pleas_nomask	acq3_nomask	3	3	453	0	300	300	0	0	536	50	1	0	kreativ	kuss	vertrauen	sonnig	träumen	engagiert	krank	krise	versagen	sterben	töten	engstirnig	gütig	besonnen	anregung	genießen	gesittet	vergnügt	gierig	bange	ausrottung	gemein	geizig	verbissen	1	blank2r.bmp	0	1	+	0	1	blank2r.bmp	500	1	CPLW	500	1	blank2r.bmp	880	1	kreativ	880	1	!	1293	1	!	-1	0	0	0	0	0	0
2024-05-02	12:49:48	12:56:18	389143	6.6.1	4_exp_EVA_AWA_CON	10	A	B	Rpleas_acq	Oppo	Rpleas	1pleas	acq_US_pleas_nomask	acq3_nomask	3	4	453	0	300	300	0	0	368	50	1	0	kreativ	kuss	vertrauen	sonnig	träumen	engagiert	krank	krise	versagen	sterben	töten	engstirnig	gütig	besonnen	anregung	genießen	gesittet	vergnügt	gierig	bange	ausrottung	gemein	geizig	verbissen	1	blank2r.bmp	0	1	+	0	1	blank2r.bmp	500	1	CPLW	500	1	blank2r.bmp	880	4	sonnig	880	1	!	-1	1	!	-1	0	0	0	0	0	0
2024-05-02	12:49:48	12:56:20	391518	6.6.1	4_exp_EVA_AWA_CON	10	A	B	Rpleas_acq	Oppo	Rpleas	1pleas	acq_US_pleas_nomask	acq3_nomask	3	5	453	0	300	300	0	0	603	50	1	0	kreativ	kuss	vertrauen	sonnig	träumen	engagiert	krank	krise	versagen	sterben	töten	engstirnig	gütig	besonnen	anregung	genießen	gesittet	vergnügt	gierig	bange	ausrottung	gemein	geizig	verbissen	1	blank2r.bmp	0	1	+	0	1	blank2r.bmp	500	1	CPLW	500	1	blank2r.bmp	880	3	vertrauen	880	1	!	1292	1	!	-1	0	0	0	0	0	0
2024-05-02	12:49:48	12:56:22	393720	6.6.1	4_exp_EVA_AWA_CON	10	A	B	Rpleas_acq	Oppo	Rpleas	1pleas	acq_US_unple_nomask	acq3_nomask	3	6	453	1	300	300	0	0	422	46	1	0	kreativ	kuss	vertrauen	sonnig	träumen	engagiert	krank	krise	versagen	sterben	töten	engstirnig	gütig	besonnen	anregung	genießen	gesittet	vergnügt	gierig	bange	ausrottung	gemein	geizig	verbissen	1	blank2r.bmp	0	1	+	0	1	blank2r.bmp	500	1	DHJF	500	1	blank2r.bmp	880	4	sterben	880	1	!	1292	1	!	1322	0	0	0	0	0	0
2024-05-02	12:49:48	12:56:25	396094	6.6.1	4_exp_EVA_AWA_CON	10	A	B	Rpleas_acq	Oppo	Rpleas	1pleas	acq_US_pleas_nomask	acq3_nomask	3	7	453	0	300	300	0	0	596	50	1	0	kreativ	kuss	vertrauen	sonnig	träumen	engagiert	krank	krise	versagen	sterben	töten	engstirnig	gütig	besonnen	anregung	genießen	gesittet	vergnügt	gierig	bange	ausrottung	gemein	geizig	verbissen	1	blank2r.bmp	0	1	+	0	1	blank2r.bmp	500	1	CPLW	500	1	blank2r.bmp	880	6	engagiert	880	1	!	1293	1	!	-1	0	0	0	0	0	0
2024-05-02	12:49:48	12:56:27	398618	6.6.1	4_exp_EVA_AWA_CON	10	A	B	Rpleas_acq	Oppo	Rpleas	1pleas	acq_US_unple_nomask	acq3_nomask	3	8	453	0	300	300	0	0	545	50	0	0	kreativ	kuss	vertrauen	sonnig	träumen	engagiert	krank	krise	versagen	sterben	töten	engstirnig	gütig	besonnen	anregung	genießen	gesittet	vergnügt	gierig	bange	ausrottung	gemein	geizig	verbissen	1	blank2r.bmp	0	1	+	0	1	blank2r.bmp	500	1	DHJF	500	1	blank2r.bmp	880	6	engstirnig	880	1	FEHLER	1738	1	!	1293	1	!	-1	0	0	0
2024-05-02	12:49:48	12:56:29	400583	6.6.1	4_exp_EVA_AWA_CON	10	A	B	Rpleas_acq	Oppo	Rpleas	1pleas	acq_US_pleas_nomask	acq3_nomask	3	9	453	0	300	300	0	0	391	50	1	0	kreativ	kuss	vertrauen	sonnig	träumen	engagiert	krank	krise	versagen	sterben	töten	engstirnig	gütig	besonnen	anregung	genießen	gesittet	vergnügt	gierig	bange	ausrottung	gemein	geizig	verbissen	1	blank2r.bmp	0	1	+	0	1	blank2r.bmp	500	1	CPLW	500	1	blank2r.bmp	880	2	kuss	880	1	!	-1	1	!	-1	0	0	0	0	0	0
2024-05-02	12:49:48	12:56:32	402840	6.6.1	4_exp_EVA_AWA_CON	10	A	B	Rpleas_acq	Oppo	Rpleas	1pleas	acq_US_unple_nomask	acq3_nomask	3	10	453	1	300	300	0	0	476	46	1	0	kreativ	kuss	vertrauen	sonnig	träumen	engagiert	krank	krise	versagen	sterben	töten	engstirnig	gütig	besonnen	anregung	genießen	gesittet	vergnügt	gierig	bange	ausrottung	gemein	geizig	verbissen	1	blank2r.bmp	0	1	+	0	1	blank2r.bmp	500	1	DHJF	500	1	blank2r.bmp	880	5	töten	880	1	!	1293	1	!	1377	0	0	0	0	0	0
2024-05-02	12:49:48	12:56:34	405223	6.6.1	4_exp_EVA_AWA_CON	10	A	B	Rpleas_acq	Oppo	Rpleas	1pleas	acq_US_unple_nomask	acq3_nomask	3	11	453	0	300	300	0	0	608	46	1	0	kreativ	kuss	vertrauen	sonnig	träumen	engagiert	krank	krise	versagen	sterben	töten	engstirnig	gütig	besonnen	anregung	genießen	gesittet	vergnügt	gierig	bange	ausrottung	gemein	geizig	verbissen	1	blank2r.bmp	0	1	+	0	1	blank2r.bmp	500	1	DHJF	500	1	blank2r.bmp	880	3	versagen	880	1	!	1293	1	!	-1	0	0	0	0	0	0
2024-05-02	12:49:48	12:56:36	407721	6.6.1	4_exp_EVA_AWA_CON	10	A	B	Rpleas_acq	Oppo	Rpleas	1pleas	acq_US_unple_nomask	acq3_nomask	3	12	453	0	300	300	0	0	524	50	0	0	kreativ	kuss	vertrauen	sonnig	träumen	engagiert	krank	krise	versagen	sterben	töten	engstirnig	gütig	besonnen	anregung	genießen	gesittet	vergnügt	gierig	bange	ausrottung	gemein	geizig	verbissen	1	blank2r.bmp	0	1	+	0	1	blank2r.bmp	500	1	DHJF	500	1	blank2r.bmp	880	2	krise	880	1	FEHLER	1715	1	!	1293	1	!	-1	0	0	0
2024-05-02	12:49:48	12:56:39	410090	6.6.1	4_exp_EVA_AWA_CON	10	A	B	Rpleas_acq	Oppo	Rpleas	1pleas	acq_US_unple_nomask	acq3_nomask	3	13	453	0	300	300	0	0	589	50	0	0	kreativ	kuss	vertrauen	sonnig	träumen	engagiert	krank	krise	versagen	sterben	töten	engstirnig	gütig	besonnen	anregung	genießen	gesittet	vergnügt	gierig	bange	ausrottung	gemein	geizig	verbissen	1	blank2r.bmp	0	1	+	0	1	blank2r.bmp	500	1	DHJF	500	1	blank2r.bmp	880	6	engstirnig	880	1	FEHLER	1783	1	!	1293	1	!	-1	0	0	0
2024-05-02	12:49:48	12:56:41	412263	6.6.1	4_exp_EVA_AWA_CON	10	A	B	Rpleas_acq	Oppo	Rpleas	1pleas	acq_US_pleas_nomask	acq3_nomask	3	14	453	0	300	300	0	0	604	50	1	0	kreativ	kuss	vertrauen	sonnig	träumen	engagiert	krank	krise	versagen	sterben	töten	engstirnig	gütig	besonnen	anregung	genießen	gesittet	vergnügt	gierig	bange	ausrottung	gemein	geizig	verbissen	1	blank2r.bmp	0	1	+	0	1	blank2r.bmp	500	1	CPLW	500	1	blank2r.bmp	880	6	engagiert	880	1	!	1293	1	!	-1	0	0	0	0	0	0
2024-05-02	12:49:48	12:56:43	414553	6.6.1	4_exp_EVA_AWA_CON	10	A	B	Rpleas_acq	Oppo	Rpleas	1pleas	acq_US_unple_nomask	acq3_nomask	3	15	453	1	300	300	0	0	510	46	1	0	kreativ	kuss	vertrauen	sonnig	träumen	engagiert	krank	krise	versagen	sterben	töten	engstirnig	gütig	besonnen	anregung	genießen	gesittet	vergnügt	gierig	bange	ausrottung	gemein	geizig	verbissen	1	blank2r.bmp	0	1	+	0	1	blank2r.bmp	500	1	DHJF	500	1	blank2r.bmp	880	1	krank	880	1	!	1293	1	!	1412	0	0	0	0	0	0
2024-05-02	12:49:48	12:56:46	416760	6.6.1	4_exp_EVA_AWA_CON	10	A	B	Rpleas_acq	Oppo	Rpleas	1pleas	acq_US_pleas_nomask	acq3_nomask	3	16	453	1	300	300	0	0	427	50	1	0	kreativ	kuss	vertrauen	sonnig	träumen	engagiert	krank	krise	versagen	sterben	töten	engstirnig	gütig	besonnen	anregung	genießen	gesittet	vergnügt	gierig	bange	ausrottung	gemein	geizig	verbissen	1	blank2r.bmp	0	1	+	0	1	blank2r.bmp	500	1	CPLW	500	1	blank2r.bmp	880	5	träumen	880	1	!	1293	1	!	1328	0	0	0	0	0	0
2024-05-02	12:49:48	12:56:48	418831	6.6.1	4_exp_EVA_AWA_CON	10	A	B	Rpleas_acq	Oppo	Rpleas	1pleas	acq_US_unple_nomask	acq3_nomask	3	17	453	0	300	300	0	0	297	46	1	0	kreativ	kuss	vertrauen	sonnig	träumen	engagiert	krank	krise	versagen	sterben	töten	engstirnig	gütig	besonnen	anregung	genießen	gesittet	vergnügt	gierig	bange	ausrottung	gemein	geizig	verbissen	1	blank2r.bmp	0	1	+	0	1	blank2r.bmp	500	1	DHJF	500	1	blank2r.bmp	880	3	versagen	880	1	!	-1	1	!	-1	0	0	0	0	0	0
2024-05-02	12:49:48	12:56:50	421599	6.6.1	4_exp_EVA_AWA_CON	10	A	B	Rpleas_acq	Oppo	Rpleas	1pleas	acq_US_unple_nomask	acq3_nomask	3	18	453	0	300	300	0	0	994	46	1	0	kreativ	kuss	vertrauen	sonnig	träumen	engagiert	krank	krise	versagen	sterben	töten	engstirnig	gütig	besonnen	anregung	genießen	gesittet	vergnügt	gierig	bange	ausrottung	gemein	geizig	verbissen	1	blank2r.bmp	0	1	+	0	1	blank2r.bmp	500	1	DHJF	500	1	blank2r.bmp	880	5	töten	880	1	!	1292	1	!	-1	0	0	0	0	0	0
2024-05-02	12:49:48	12:56:52	423727	6.6.1	4_exp_EVA_AWA_CON	10	A	B	Rpleas_acq	Oppo	Rpleas	1pleas	acq_US_pleas_nomask	acq3_nomask	3	19	453	0	300	300	0	0	350	50	1	0	kreativ	kuss	vertrauen	sonnig	träumen	engagiert	krank	krise	versagen	sterben	töten	engstirnig	gütig	besonnen	anregung	genießen	gesittet	vergnügt	gierig	bange	ausrottung	gemein	geizig	verbissen	1	blank2r.bmp	0	1	+	0	1	blank2r.bmp	500	1	CPLW	500	1	blank2r.bmp	880	4	sonnig	880	1	!	-1	1	!	-1	0	0	0	0	0	0
2024-05-02	12:49:48	12:56:55	426094	6.6.1	4_exp_EVA_AWA_CON	10	A	B	Rpleas_acq	Oppo	Rpleas	1pleas	acq_US_unple_nomask	acq3_nomask	3	20	453	0	300	300	0	0	587	46	1	0	kreativ	kuss	vertrauen	sonnig	träumen	engagiert	krank	krise	versagen	sterben	töten	engstirnig	gütig	besonnen	anregung	genießen	gesittet	vergnügt	gierig	bange	ausrottung	gemein	geizig	verbissen	1	blank2r.bmp	0	1	+	0	1	blank2r.bmp	500	1	DHJF	500	1	blank2r.bmp	880	4	sterben	880	1	!	1293	1	!	-1	0	0	0	0	0	0
2024-05-02	12:49:48	12:56:57	428223	6.6.1	4_exp_EVA_AWA_CON	10	A	B	Rpleas_acq	Oppo	Rpleas	1pleas	acq_US_pleas_nomask	acq3_nomask	3	21	453	0	300	300	0	0	353	50	1	0	kreativ	kuss	vertrauen	sonnig	träumen	engagiert	krank	krise	versagen	sterben	töten	engstirnig	gütig	besonnen	anregung	genießen	gesittet	vergnügt	gierig	bange	ausrottung	gemein	geizig	verbissen	1	blank2r.bmp	0	1	+	0	1	blank2r.bmp	500	1	CPLW	500	1	blank2r.bmp	880	2	kuss	880	1	!	-1	1	!	-1	0	0	0	0	0	0
2024-05-02	12:49:48	12:56:59	430614	6.6.1	4_exp_EVA_AWA_CON	10	A	B	Rpleas_acq	Oppo	Rpleas	1pleas	acq_US_pleas_nomask	acq3_nomask	3	22	453	0	300	300	0	0	614	50	1	0	kreativ	kuss	vertrauen	sonnig	träumen	engagiert	krank	krise	versagen	sterben	töten	engstirnig	gütig	besonnen	anregung	genießen	gesittet	vergnügt	gierig	bange	ausrottung	gemein	geizig	verbissen	1	blank2r.bmp	0	1	+	0	1	blank2r.bmp	500	1	CPLW	500	1	blank2r.bmp	880	1	kreativ	880	1	!	1292	1	!	-1	0	0	0	0	0	0
2024-05-02	12:49:48	12:57:02	432905	6.6.1	4_exp_EVA_AWA_CON	10	A	B	Rpleas_acq	Oppo	Rpleas	1pleas	acq_US_pleas_nomask	acq3_nomask	3	23	453	1	300	300	0	0	511	50	1	0	kreativ	kuss	vertrauen	sonnig	träumen	engagiert	krank	krise	versagen	sterben	töten	engstirnig	gütig	besonnen	anregung	genießen	gesittet	vergnügt	gierig	bange	ausrottung	gemein	geizig	verbissen	1	blank2r.bmp	0	1	+	0	1	blank2r.bmp	500	1	CPLW	500	1	blank2r.bmp	880	3	vertrauen	880	1	!	1293	1	!	1412	0	0	0	0	0	0
2024-05-02	12:49:48	12:57:04	435258	6.6.1	4_exp_EVA_AWA_CON	10	A	B	Rpleas_acq	Oppo	Rpleas	1pleas	acq_US_unple_nomask	acq3_nomask	3	24	453	0	300	300	0	0	371	50	0	0	kreativ	kuss	vertrauen	sonnig	träumen	engagiert	krank	krise	versagen	sterben	töten	engstirnig	gütig	besonnen	anregung	genießen	gesittet	vergnügt	gierig	bange	ausrottung	gemein	geizig	verbissen	1	blank2r.bmp	0	1	+	0	1	blank2r.bmp	500	1	DHJF	500	1	blank2r.bmp	880	2	krise	880	1	FEHLER	1564	1	!	-1	1	!	-1	0	0	0
2024-05-02	12:49:48	12:57:06	437272	6.6.1	4_exp_EVA_AWA_CON	10	A	B	Rpleas_acq	Oppo	Rpleas	1pleas	acq_US_pleas_nomask	acq3_nomask	3	25	453	1	300	300	0	0	436	50	1	0	kreativ	kuss	vertrauen	sonnig	träumen	engagiert	krank	krise	versagen	sterben	töten	engstirnig	gütig	besonnen	anregung	genießen	gesittet	vergnügt	gierig	bange	ausrottung	gemein	geizig	verbissen	1	blank2r.bmp	0	1	+	0	1	blank2r.bmp	500	1	CPLW	500	1	blank2r.bmp	880	5	träumen	880	1	!	1292	1	!	1337	0	0	0	0	0	0
2024-05-02	12:49:48	12:57:08	439552	6.6.1	4_exp_EVA_AWA_CON	10	A	B	Rpleas_acq	Oppo	Rpleas	1pleas	acq_US_pleas_nomask	acq3_nomask	3	26	453	1	300	300	0	0	504	50	1	0	kreativ	kuss	vertrauen	sonnig	träumen	engagiert	krank	krise	versagen	sterben	töten	engstirnig	gütig	besonnen	anregung	genießen	gesittet	vergnügt	gierig	bange	ausrottung	gemein	geizig	verbissen	1	blank2r.bmp	0	1	+	0	1	blank2r.bmp	500	1	CPLW	500	1	blank2r.bmp	880	6	engagiert	880	1	!	1292	1	!	1405	0	0	0	0	0	0
2024-05-02	12:49:48	12:57:11	441887	6.6.1	4_exp_EVA_AWA_CON	10	A	B	Rpleas_acq	Oppo	Rpleas	1pleas	acq_US_unple_nomask	acq3_nomask	3	27	453	0	300	300	0	0	559	46	1	0	kreativ	kuss	vertrauen	sonnig	träumen	engagiert	krank	krise	versagen	sterben	töten	engstirnig	gütig	besonnen	anregung	genießen	gesittet	vergnügt	gierig	bange	ausrottung	gemein	geizig	verbissen	1	blank2r.bmp	0	1	+	0	1	blank2r.bmp	500	1	DHJF	500	1	blank2r.bmp	880	2	krise	880	1	!	1292	1	!	-1	0	0	0	0	0	0
2024-05-02	12:49:48	12:57:13	444214	6.6.1	4_exp_EVA_AWA_CON	10	A	B	Rpleas_acq	Oppo	Rpleas	1pleas	acq_US_pleas_nomask	acq3_nomask	3	28	453	0	300	300	0	0	545	50	1	0	kreativ	kuss	vertrauen	sonnig	träumen	engagiert	krank	krise	versagen	sterben	töten	engstirnig	gütig	besonnen	anregung	genießen	gesittet	vergnügt	gierig	bange	ausrottung	gemein	geizig	verbissen	1	blank2r.bmp	0	1	+	0	1	blank2r.bmp	500	1	CPLW	500	1	blank2r.bmp	880	1	kreativ	880	1	!	1292	1	!	-1	0	0	0	0	0	0
2024-05-02	12:49:48	12:57:15	446385	6.6.1	4_exp_EVA_AWA_CON	10	A	B	Rpleas_acq	Oppo	Rpleas	1pleas	acq_US_unple_nomask	acq3_nomask	3	29	453	1	300	300	0	0	394	46	1	0	kreativ	kuss	vertrauen	sonnig	träumen	engagiert	krank	krise	versagen	sterben	töten	engstirnig	gütig	besonnen	anregung	genießen	gesittet	vergnügt	gierig	bange	ausrottung	gemein	geizig	verbissen	1	blank2r.bmp	0	1	+	0	1	blank2r.bmp	500	1	DHJF	500	1	blank2r.bmp	880	3	versagen	880	1	!	1292	1	!	1293	0	0	0	0	0	0
2024-05-02	12:49:48	12:57:17	448527	6.6.1	4_exp_EVA_AWA_CON	10	A	B	Rpleas_acq	Oppo	Rpleas	1pleas	acq_US_pleas_nomask	acq3_nomask	3	30	453	0	300	300	0	0	364	50	1	0	kreativ	kuss	vertrauen	sonnig	träumen	engagiert	krank	krise	versagen	sterben	töten	engstirnig	gütig	besonnen	anregung	genießen	gesittet	vergnügt	gierig	bange	ausrottung	gemein	geizig	verbissen	1	blank2r.bmp	0	1	+	0	1	blank2r.bmp	500	1	CPLW	500	1	blank2r.bmp	880	2	kuss	880	1	!	-1	1	!	-1	0	0	0	0	0	0
2024-05-02	12:49:48	12:57:20	450777	6.6.1	4_exp_EVA_AWA_CON	10	A	B	Rpleas_acq	Oppo	Rpleas	1pleas	acq_US_unple_nomask	acq3_nomask	3	31	453	1	300	300	0	0	471	46	1	0	kreativ	kuss	vertrauen	sonnig	träumen	engagiert	krank	krise	versagen	sterben	töten	engstirnig	gütig	besonnen	anregung	genießen	gesittet	vergnügt	gierig	bange	ausrottung	gemein	geizig	verbissen	1	blank2r.bmp	0	1	+	0	1	blank2r.bmp	500	1	DHJF	500	1	blank2r.bmp	880	1	krank	880	1	!	1292	1	!	1373	0	0	0	0	0	0
2024-05-02	12:49:48	12:57:22	453209	6.6.1	4_exp_EVA_AWA_CON	10	A	B	Rpleas_acq	Oppo	Rpleas	1pleas	acq_US_pleas_nomask	acq3_nomask	3	32	453	1	300	300	0	0	452	46	0	0	kreativ	kuss	vertrauen	sonnig	träumen	engagiert	krank	krise	versagen	sterben	töten	engstirnig	gütig	besonnen	anregung	genießen	gesittet	vergnügt	gierig	bange	ausrottung	gemein	geizig	verbissen	1	blank2r.bmp	0	1	+	0	1	blank2r.bmp	500	1	CPLW	500	1	blank2r.bmp	880	4	sonnig	880	1	FEHLER	1644	1	!	1293	1	!	1353	0	0	0
2024-05-02	12:49:48	12:57:24	455317	6.6.1	4_exp_EVA_AWA_CON	10	A	B	Rpleas_acq	Oppo	Rpleas	1pleas	acq_US_unple_nomask	acq3_nomask	3	33	453	0	300	300	0	0	532	46	1	0	kreativ	kuss	vertrauen	sonnig	träumen	engagiert	krank	krise	versagen	sterben	töten	engstirnig	gütig	besonnen	anregung	genießen	gesittet	vergnügt	gierig	bange	ausrottung	gemein	geizig	verbissen	1	blank2r.bmp	0	1	+	0	1	blank2r.bmp	500	1	DHJF	500	1	blank2r.bmp	880	5	töten	880	1	!	1292	1	!	-1	0	0	0	0	0	0
2024-05-02	12:49:48	12:57:27	457863	6.6.1	4_exp_EVA_AWA_CON	10	A	B	Rpleas_acq	Oppo	Rpleas	1pleas	acq_US_unple_nomask	acq3_nomask	3	34	453	0	300	300	0	0	765	46	1	0	kreativ	kuss	vertrauen	sonnig	träumen	engagiert	krank	krise	versagen	sterben	töten	engstirnig	gütig	besonnen	anregung	genießen	gesittet	vergnügt	gierig	bange	ausrottung	gemein	geizig	verbissen	1	blank2r.bmp	0	1	+	0	1	blank2r.bmp	500	1	DHJF	500	1	blank2r.bmp	880	6	engstirnig	880	1	!	1292	1	!	-1	0	0	0	0	0	0
2024-05-02	12:49:48	12:57:29	460271	6.6.1	4_exp_EVA_AWA_CON	10	A	B	Rpleas_acq	Oppo	Rpleas	1pleas	acq_US_unple_nomask	acq3_nomask	3	35	453	0	300	300	0	0	631	46	1	0	kreativ	kuss	vertrauen	sonnig	träumen	engagiert	krank	krise	versagen	sterben	töten	engstirnig	gütig	besonnen	anregung	genießen	gesittet	vergnügt	gierig	bange	ausrottung	gemein	geizig	verbissen	1	blank2r.bmp	0	1	+	0	1	blank2r.bmp	500	1	DHJF	500	1	blank2r.bmp	880	4	sterben	880	1	!	1293	1	!	-1	0	0	0	0	0	0
2024-05-02	12:49:48	12:57:31	462480	6.6.1	4_exp_EVA_AWA_CON	10	A	B	Rpleas_acq	Oppo	Rpleas	1pleas	acq_US_pleas_nomask	acq3_nomask	3	36	453	1	300	300	0	0	428	50	1	0	kreativ	kuss	vertrauen	sonnig	träumen	engagiert	krank	krise	versagen	sterben	töten	engstirnig	gütig	besonnen	anregung	genießen	gesittet	vergnügt	gierig	bange	ausrottung	gemein	geizig	verbissen	1	blank2r.bmp	0	1	+	0	1	blank2r.bmp	500	1	CPLW	500	1	blank2r.bmp	880	3	vertrauen	880	1	!	1293	1	!	1329	0	0	0	0	0	0
2024-05-02	12:49:48	12:57:51	482327	6.6.1	4_exp_EVA_AWA_CON	10	A	B	Rpleas_acq	Oppo	Rpleas	1pleas	acq_US_unple_nomask	acq45_nomask	4	1	400	0	300	300	0	0	643	46	1	0	kreativ	kuss	vertrauen	sonnig	träumen	engagiert	krank	krise	versagen	sterben	töten	engstirnig	gütig	besonnen	anregung	genießen	gesittet	vergnügt	gierig	bange	ausrottung	gemein	geizig	verbissen	1	blank2r.bmp	0	1	+	0	1	blank2r.bmp	500	1	DHJF	500	1	blank2r.bmp	880	6	engstirnig	880	1	!	1232	1	!	-1	0	0	0	0	0	0
2024-05-02	12:49:48	12:57:53	484711	6.6.1	4_exp_EVA_AWA_CON	10	A	B	Rpleas_acq	Oppo	Rpleas	1pleas	acq_US_pleas_nomask	acq45_nomask	4	2	400	0	300	300	0	0	605	50	1	0	kreativ	kuss	vertrauen	sonnig	träumen	engagiert	krank	krise	versagen	sterben	töten	engstirnig	gütig	besonnen	anregung	genießen	gesittet	vergnügt	gierig	bange	ausrottung	gemein	geizig	verbissen	1	blank2r.bmp	0	1	+	0	1	blank2r.bmp	500	1	CPLW	500	1	blank2r.bmp	880	3	vertrauen	880	1	!	1232	1	!	-1	0	0	0	0	0	0
2024-05-02	12:49:48	12:57:56	486920	6.6.1	4_exp_EVA_AWA_CON	10	A	B	Rpleas_acq	Oppo	Rpleas	1pleas	acq_US_pleas_nomask	acq45_nomask	4	3	400	1	300	300	0	0	432	50	1	0	kreativ	kuss	vertrauen	sonnig	träumen	engagiert	krank	krise	versagen	sterben	töten	engstirnig	gütig	besonnen	anregung	genießen	gesittet	vergnügt	gierig	bange	ausrottung	gemein	geizig	verbissen	1	blank2r.bmp	0	1	+	0	1	blank2r.bmp	500	1	CPLW	500	1	blank2r.bmp	880	2	kuss	880	1	!	1232	1	!	1333	0	0	0	0	0	0
2024-05-02	12:49:48	12:57:58	489161	6.6.1	4_exp_EVA_AWA_CON	10	A	B	Rpleas_acq	Oppo	Rpleas	1pleas	acq_US_unple_nomask	acq45_nomask	4	4	400	1	300	300	0	0	460	46	1	0	kreativ	kuss	vertrauen	sonnig	träumen	engagiert	krank	krise	versagen	sterben	töten	engstirnig	gütig	besonnen	anregung	genießen	gesittet	vergnügt	gierig	bange	ausrottung	gemein	geizig	verbissen	1	blank2r.bmp	0	1	+	0	1	blank2r.bmp	500	1	DHJF	500	1	blank2r.bmp	880	1	krank	880	1	!	1232	1	!	1362	0	0	0	0	0	0
2024-05-02	12:49:48	12:58:00	491408	6.6.1	4_exp_EVA_AWA_CON	10	A	B	Rpleas_acq	Oppo	Rpleas	1pleas	acq_US_unple_nomask	acq45_nomask	4	5	400	1	300	300	0	0	467	46	1	0	kreativ	kuss	vertrauen	sonnig	träumen	engagiert	krank	krise	versagen	sterben	töten	engstirnig	gütig	besonnen	anregung	genießen	gesittet	vergnügt	gierig	bange	ausrottung	gemein	geizig	verbissen	1	blank2r.bmp	0	1	+	0	1	blank2r.bmp	500	1	DHJF	500	1	blank2r.bmp	880	4	sterben	880	1	!	1232	1	!	1368	0	0	0	0	0	0
2024-05-02	12:49:48	12:58:02	493678	6.6.1	4_exp_EVA_AWA_CON	10	A	B	Rpleas_acq	Oppo	Rpleas	1pleas	acq_US_unple_nomask	acq45_nomask	4	6	400	0	300	300	0	0	498	50	0	0	kreativ	kuss	vertrauen	sonnig	träumen	engagiert	krank	krise	versagen	sterben	töten	engstirnig	gütig	besonnen	anregung	genießen	gesittet	vergnügt	gierig	bange	ausrottung	gemein	geizig	verbissen	1	blank2r.bmp	0	1	+	0	1	blank2r.bmp	500	1	DHJF	500	1	blank2r.bmp	880	2	krise	880	1	!	1232	1	!	-1	0	0	0	0	0	0
2024-05-02	12:49:48	12:58:05	495880	6.6.1	4_exp_EVA_AWA_CON	10	A	B	Rpleas_acq	Oppo	Rpleas	1pleas	acq_US_unple_nomask	acq45_nomask	4	7	400	1	300	300	0	0	426	46	1	0	kreativ	kuss	vertrauen	sonnig	träumen	engagiert	krank	krise	versagen	sterben	töten	engstirnig	gütig	besonnen	anregung	genießen	gesittet	vergnügt	gierig	bange	ausrottung	gemein	geizig	verbissen	1	blank2r.bmp	0	1	+	0	1	blank2r.bmp	500	1	DHJF	500	1	blank2r.bmp	880	5	töten	880	1	!	1233	1	!	1327	0	0	0	0	0	0
2024-05-02	12:49:48	12:58:07	498126	6.6.1	4_exp_EVA_AWA_CON	10	A	B	Rpleas_acq	Oppo	Rpleas	1pleas	acq_US_unple_nomask	acq45_nomask	4	8	400	0	300	300	0	0	474	46	1	0	kreativ	kuss	vertrauen	sonnig	träumen	engagiert	krank	krise	versagen	sterben	töten	engstirnig	gütig	besonnen	anregung	genießen	gesittet	vergnügt	gierig	bange	ausrottung	gemein	geizig	verbissen	1	blank2r.bmp	0	1	+	0	1	blank2r.bmp	500	1	DHJF	500	1	blank2r.bmp	880	3	versagen	880	1	!	1233	1	!	-1	0	0	0	0	0	0
2024-05-02	12:49:48	12:58:09	500337	6.6.1	4_exp_EVA_AWA_CON	10	A	B	Rpleas_acq	Oppo	Rpleas	1pleas	acq_US_unple_nomask	acq45_nomask	4	9	400	1	300	300	0	0	429	46	1	0	kreativ	kuss	vertrauen	sonnig	träumen	engagiert	krank	krise	versagen	sterben	töten	engstirnig	gütig	besonnen	anregung	genießen	gesittet	vergnügt	gierig	bange	ausrottung	gemein	geizig	verbissen	1	blank2r.bmp	0	1	+	0	1	blank2r.bmp	500	1	DHJF	500	1	blank2r.bmp	880	1	krank	880	1	!	1232	1	!	1330	0	0	0	0	0	0
2024-05-02	12:49:48	12:58:11	502544	6.6.1	4_exp_EVA_AWA_CON	10	A	B	Rpleas_acq	Oppo	Rpleas	1pleas	acq_US_unple_nomask	acq45_nomask	4	10	400	1	300	300	0	0	426	46	1	0	kreativ	kuss	vertrauen	sonnig	träumen	engagiert	krank	krise	versagen	sterben	töten	engstirnig	gütig	besonnen	anregung	genießen	gesittet	vergnügt	gierig	bange	ausrottung	gemein	geizig	verbissen	1	blank2r.bmp	0	1	+	0	1	blank2r.bmp	500	1	DHJF	500	1	blank2r.bmp	880	3	versagen	880	1	!	1232	1	!	1327	0	0	0	0	0	0
2024-05-02	12:49:48	12:58:13	504696	6.6.1	4_exp_EVA_AWA_CON	10	A	B	Rpleas_acq	Oppo	Rpleas	1pleas	acq_US_pleas_nomask	acq45_nomask	4	11	400	1	300	300	0	0	376	50	1	0	kreativ	kuss	vertrauen	sonnig	träumen	engagiert	krank	krise	versagen	sterben	töten	engstirnig	gütig	besonnen	anregung	genießen	gesittet	vergnügt	gierig	bange	ausrottung	gemein	geizig	verbissen	1	blank2r.bmp	0	1	+	0	1	blank2r.bmp	500	1	CPLW	500	1	blank2r.bmp	880	4	sonnig	880	1	!	1232	1	!	1277	0	0	0	0	0	0
2024-05-02	12:49:48	12:58:16	507062	6.6.1	4_exp_EVA_AWA_CON	10	A	B	Rpleas_acq	Oppo	Rpleas	1pleas	acq_US_pleas_nomask	acq45_nomask	4	12	400	0	300	300	0	0	593	50	1	0	kreativ	kuss	vertrauen	sonnig	träumen	engagiert	krank	krise	versagen	sterben	töten	engstirnig	gütig	besonnen	anregung	genießen	gesittet	vergnügt	gierig	bange	ausrottung	gemein	geizig	verbissen	1	blank2r.bmp	0	1	+	0	1	blank2r.bmp	500	1	CPLW	500	1	blank2r.bmp	880	5	träumen	880	1	!	1233	1	!	-1	0	0	0	0	0	0
2024-05-02	12:49:48	12:58:18	509399	6.6.1	4_exp_EVA_AWA_CON	10	A	B	Rpleas_acq	Oppo	Rpleas	1pleas	acq_US_unple_nomask	acq45_nomask	4	13	400	0	300	300	0	0	558	50	0	0	kreativ	kuss	vertrauen	sonnig	träumen	engagiert	krank	krise	versagen	sterben	töten	engstirnig	gütig	besonnen	anregung	genießen	gesittet	vergnügt	gierig	bange	ausrottung	gemein	geizig	verbissen	1	blank2r.bmp	0	1	+	0	1	blank2r.bmp	500	1	DHJF	500	1	blank2r.bmp	880	6	engstirnig	880	1	!	1232	1	!	-1	0	0	0	0	0	0
2024-05-02	12:49:48	12:58:20	511640	6.6.1	4_exp_EVA_AWA_CON	10	A	B	Rpleas_acq	Oppo	Rpleas	1pleas	acq_US_pleas_nomask	acq45_nomask	4	14	400	1	300	300	0	0	466	46	0	0	kreativ	kuss	vertrauen	sonnig	träumen	engagiert	krank	krise	versagen	sterben	töten	engstirnig	gütig	besonnen	anregung	genießen	gesittet	vergnügt	gierig	bange	ausrottung	gemein	geizig	verbissen	1	blank2r.bmp	0	1	+	0	1	blank2r.bmp	500	1	CPLW	500	1	blank2r.bmp	880	1	kreativ	880	1	!	1233	1	!	1367	0	0	0	0	0	0
2024-05-02	12:49:48	12:58:23	514095	6.6.1	4_exp_EVA_AWA_CON	10	A	B	Rpleas_acq	Oppo	Rpleas	1pleas	acq_US_pleas_nomask	acq45_nomask	4	15	400	0	300	300	0	0	681	50	1	0	kreativ	kuss	vertrauen	sonnig	träumen	engagiert	krank	krise	versagen	sterben	töten	engstirnig	gütig	besonnen	anregung	genießen	gesittet	vergnügt	gierig	bange	ausrottung	gemein	geizig	verbissen	1	blank2r.bmp	0	1	+	0	1	blank2r.bmp	500	1	CPLW	500	1	blank2r.bmp	880	6	engagiert	880	1	!	1232	1	!	-1	0	0	0	0	0	0
2024-05-02	12:49:48	12:58:25	516312	6.6.1	4_exp_EVA_AWA_CON	10	A	B	Rpleas_acq	Oppo	Rpleas	1pleas	acq_US_pleas_nomask	acq45_nomask	4	16	400	1	300	300	0	0	435	50	1	0	kreativ	kuss	vertrauen	sonnig	träumen	engagiert	krank	krise	versagen	sterben	töten	engstirnig	gütig	besonnen	anregung	genießen	gesittet	vergnügt	gierig	bange	ausrottung	gemein	geizig	verbissen	1	blank2r.bmp	0	1	+	0	1	blank2r.bmp	500	1	CPLW	500	1	blank2r.bmp	880	4	sonnig	880	1	!	1232	1	!	1336	0	0	0	0	0	0
2024-05-02	12:49:48	12:58:27	518488	6.6.1	4_exp_EVA_AWA_CON	10	A	B	Rpleas_acq	Oppo	Rpleas	1pleas	acq_US_pleas_nomask	acq45_nomask	4	17	400	1	300	300	0	0	400	50	1	0	kreativ	kuss	vertrauen	sonnig	träumen	engagiert	krank	krise	versagen	sterben	töten	engstirnig	gütig	besonnen	anregung	genießen	gesittet	vergnügt	gierig	bange	ausrottung	gemein	geizig	verbissen	1	blank2r.bmp	0	1	+	0	1	blank2r.bmp	500	1	CPLW	500	1	blank2r.bmp	880	2	kuss	880	1	!	1233	1	!	1301	0	0	0	0	0	0
2024-05-02	12:49:48	12:58:29	520712	6.6.1	4_exp_EVA_AWA_CON	10	A	B	Rpleas_acq	Oppo	Rpleas	1pleas	acq_US_pleas_nomask	acq45_nomask	4	18	400	1	300	300	0	0	442	50	1	0	kreativ	kuss	vertrauen	sonnig	träumen	engagiert	krank	krise	versagen	sterben	töten	engstirnig	gütig	besonnen	anregung	genießen	gesittet	vergnügt	gierig	bange	ausrottung	gemein	geizig	verbissen	1	blank2r.bmp	0	1	+	0	1	blank2r.bmp	500	1	CPLW	500	1	blank2r.bmp	880	1	kreativ	880	1	!	1232	1	!	1343	0	0	0	0	0	0
2024-05-02	12:49:48	12:58:32	523102	6.6.1	4_exp_EVA_AWA_CON	10	A	B	Rpleas_acq	Oppo	Rpleas	1pleas	acq_US_unple_nomask	acq45_nomask	4	19	400	0	300	300	0	0	613	46	1	0	kreativ	kuss	vertrauen	sonnig	träumen	engagiert	krank	krise	versagen	sterben	töten	engstirnig	gütig	besonnen	anregung	genießen	gesittet	vergnügt	gierig	bange	ausrottung	gemein	geizig	verbissen	1	blank2r.bmp	0	1	+	0	1	blank2r.bmp	500	1	DHJF	500	1	blank2r.bmp	880	2	krise	880	1	!	1232	1	!	-1	0	0	0	0	0	0
2024-05-02	12:49:48	12:58:34	525366	6.6.1	4_exp_EVA_AWA_CON	10	A	B	Rpleas_acq	Oppo	Rpleas	1pleas	acq_US_unple_nomask	acq45_nomask	4	20	400	0	300	300	0	0	485	46	1	0	kreativ	kuss	vertrauen	sonnig	träumen	engagiert	krank	krise	versagen	sterben	töten	engstirnig	gütig	besonnen	anregung	genießen	gesittet	vergnügt	gierig	bange	ausrottung	gemein	geizig	verbissen	1	blank2r.bmp	0	1	+	0	1	blank2r.bmp	500	1	DHJF	500	1	blank2r.bmp	880	5	töten	880	1	!	1232	1	!	-1	0	0	0	0	0	0
2024-05-02	12:49:48	12:58:36	527621	6.6.1	4_exp_EVA_AWA_CON	10	A	B	Rpleas_acq	Oppo	Rpleas	1pleas	acq_US_unple_nomask	acq45_nomask	4	21	400	0	300	300	0	0	480	46	1	0	kreativ	kuss	vertrauen	sonnig	träumen	engagiert	krank	krise	versagen	sterben	töten	engstirnig	gütig	besonnen	anregung	genießen	gesittet	vergnügt	gierig	bange	ausrottung	gemein	geizig	verbissen	1	blank2r.bmp	0	1	+	0	1	blank2r.bmp	500	1	DHJF	500	1	blank2r.bmp	880	4	sterben	880	1	!	1232	1	!	-1	0	0	0	0	0	0
2024-05-02	12:49:48	12:58:39	529902	6.6.1	4_exp_EVA_AWA_CON	10	A	B	Rpleas_acq	Oppo	Rpleas	1pleas	acq_US_pleas_nomask	acq45_nomask	4	22	400	0	300	300	0	0	508	50	1	0	kreativ	kuss	vertrauen	sonnig	träumen	engagiert	krank	krise	versagen	sterben	töten	engstirnig	gütig	besonnen	anregung	genießen	gesittet	vergnügt	gierig	bange	ausrottung	gemein	geizig	verbissen	1	blank2r.bmp	0	1	+	0	1	blank2r.bmp	500	1	CPLW	500	1	blank2r.bmp	880	5	träumen	880	1	!	1232	1	!	-1	0	0	0	0	0	0
2024-05-02	12:49:48	12:58:41	532129	6.6.1	4_exp_EVA_AWA_CON	10	A	B	Rpleas_acq	Oppo	Rpleas	1pleas	acq_US_pleas_nomask	acq45_nomask	4	23	400	1	300	300	0	0	451	50	1	0	kreativ	kuss	vertrauen	sonnig	träumen	engagiert	krank	krise	versagen	sterben	töten	engstirnig	gütig	besonnen	anregung	genießen	gesittet	vergnügt	gierig	bange	ausrottung	gemein	geizig	verbissen	1	blank2r.bmp	0	1	+	0	1	blank2r.bmp	500	1	CPLW	500	1	blank2r.bmp	880	3	vertrauen	880	1	!	1232	1	!	1352	0	0	0	0	0	0
2024-05-02	12:49:48	12:58:43	534695	6.6.1	4_exp_EVA_AWA_CON	10	A	B	Rpleas_acq	Oppo	Rpleas	1pleas	acq_US_unple_nomask	acq45_nomask	4	24	400	0	300	300	0	0	787	46	1	0	kreativ	kuss	vertrauen	sonnig	träumen	engagiert	krank	krise	versagen	sterben	töten	engstirnig	gütig	besonnen	anregung	genießen	gesittet	vergnügt	gierig	bange	ausrottung	gemein	geizig	verbissen	1	blank2r.bmp	0	1	+	0	1	blank2r.bmp	500	1	DHJF	500	1	blank2r.bmp	880	1	krank	880	1	!	1232	1	!	-1	0	0	0	0	0	0
2024-05-02	12:49:48	12:58:46	537022	6.6.1	4_exp_EVA_AWA_CON	10	A	B	Rpleas_acq	Oppo	Rpleas	1pleas	acq_US_pleas_nomask	acq45_nomask	4	25	400	0	300	300	0	0	554	50	1	0	kreativ	kuss	vertrauen	sonnig	träumen	engagiert	krank	krise	versagen	sterben	töten	engstirnig	gütig	besonnen	anregung	genießen	gesittet	vergnügt	gierig	bange	ausrottung	gemein	geizig	verbissen	1	blank2r.bmp	0	1	+	0	1	blank2r.bmp	500	1	CPLW	500	1	blank2r.bmp	880	6	engagiert	880	1	!	1233	1	!	-1	0	0	0	0	0	0
2024-05-02	12:49:48	12:58:48	539224	6.6.1	4_exp_EVA_AWA_CON	10	A	B	Rpleas_acq	Oppo	Rpleas	1pleas	acq_US_pleas_nomask	acq45_nomask	4	26	400	1	300	300	0	0	422	50	1	0	kreativ	kuss	vertrauen	sonnig	träumen	engagiert	krank	krise	versagen	sterben	töten	engstirnig	gütig	besonnen	anregung	genießen	gesittet	vergnügt	gierig	bange	ausrottung	gemein	geizig	verbissen	1	blank2r.bmp	0	1	+	0	1	blank2r.bmp	500	1	CPLW	500	1	blank2r.bmp	880	4	sonnig	880	1	!	1232	1	!	1323	0	0	0	0	0	0
2024-05-02	12:49:48	12:58:50	541510	6.6.1	4_exp_EVA_AWA_CON	10	A	B	Rpleas_acq	Oppo	Rpleas	1pleas	acq_US_unple_nomask	acq45_nomask	4	27	400	0	300	300	0	0	509	46	1	0	kreativ	kuss	vertrauen	sonnig	träumen	engagiert	krank	krise	versagen	sterben	töten	engstirnig	gütig	besonnen	anregung	genießen	gesittet	vergnügt	gierig	bange	ausrottung	gemein	geizig	verbissen	1	blank2r.bmp	0	1	+	0	1	blank2r.bmp	500	1	DHJF	500	1	blank2r.bmp	880	3	versagen	880	1	!	1232	1	!	-1	0	0	0	0	0	0
2024-05-02	12:49:48	12:58:52	543672	6.6.1	4_exp_EVA_AWA_CON	10	A	B	Rpleas_acq	Oppo	Rpleas	1pleas	acq_US_unple_nomask	acq45_nomask	4	28	400	1	300	300	0	0	387	46	1	0	kreativ	kuss	vertrauen	sonnig	träumen	engagiert	krank	krise	versagen	sterben	töten	engstirnig	gütig	besonnen	anregung	genießen	gesittet	vergnügt	gierig	bange	ausrottung	gemein	geizig	verbissen	1	blank2r.bmp	0	1	+	0	1	blank2r.bmp	500	1	DHJF	500	1	blank2r.bmp	880	2	krise	880	1	!	1232	1	!	1288	0	0	0	0	0	0
2024-05-02	12:49:48	12:58:55	545817	6.6.1	4_exp_EVA_AWA_CON	10	A	B	Rpleas_acq	Oppo	Rpleas	1pleas	acq_US_pleas_nomask	acq45_nomask	4	29	400	1	300	300	0	0	370	46	0	0	kreativ	kuss	vertrauen	sonnig	träumen	engagiert	krank	krise	versagen	sterben	töten	engstirnig	gütig	besonnen	anregung	genießen	gesittet	vergnügt	gierig	bange	ausrottung	gemein	geizig	verbissen	1	blank2r.bmp	0	1	+	0	1	blank2r.bmp	500	1	CPLW	500	1	blank2r.bmp	880	6	engagiert	880	1	!	1232	1	!	1272	0	0	0	0	0	0
2024-05-02	12:49:48	12:58:57	548247	6.6.1	4_exp_EVA_AWA_CON	10	A	B	Rpleas_acq	Oppo	Rpleas	1pleas	acq_US_pleas_nomask	acq45_nomask	4	30	400	0	300	300	0	0	651	50	1	0	kreativ	kuss	vertrauen	sonnig	träumen	engagiert	krank	krise	versagen	sterben	töten	engstirnig	gütig	besonnen	anregung	genießen	gesittet	vergnügt	gierig	bange	ausrottung	gemein	geizig	verbissen	1	blank2r.bmp	0	1	+	0	1	blank2r.bmp	500	1	CPLW	500	1	blank2r.bmp	880	3	vertrauen	880	1	!	1232	1	!	-1	0	0	0	0	0	0
2024-05-02	12:49:48	12:58:59	550509	6.6.1	4_exp_EVA_AWA_CON	10	A	B	Rpleas_acq	Oppo	Rpleas	1pleas	acq_US_unple_nomask	acq45_nomask	4	31	400	0	300	300	0	0	483	46	1	0	kreativ	kuss	vertrauen	sonnig	träumen	engagiert	krank	krise	versagen	sterben	töten	engstirnig	gütig	besonnen	anregung	genießen	gesittet	vergnügt	gierig	bange	ausrottung	gemein	geizig	verbissen	1	blank2r.bmp	0	1	+	0	1	blank2r.bmp	500	1	DHJF	500	1	blank2r.bmp	880	5	töten	880	1	!	1232	1	!	-1	0	0	0	0	0	0
2024-05-02	12:49:48	12:59:02	552870	6.6.1	4_exp_EVA_AWA_CON	10	A	B	Rpleas_acq	Oppo	Rpleas	1pleas	acq_US_unple_nomask	acq45_nomask	4	32	400	0	300	300	0	0	582	46	1	0	kreativ	kuss	vertrauen	sonnig	träumen	engagiert	krank	krise	versagen	sterben	töten	engstirnig	gütig	besonnen	anregung	genießen	gesittet	vergnügt	gierig	bange	ausrottung	gemein	geizig	verbissen	1	blank2r.bmp	0	1	+	0	1	blank2r.bmp	500	1	DHJF	500	1	blank2r.bmp	880	4	sterben	880	1	!	1232	1	!	-1	0	0	0	0	0	0
2024-05-02	12:49:48	12:59:04	555125	6.6.1	4_exp_EVA_AWA_CON	10	A	B	Rpleas_acq	Oppo	Rpleas	1pleas	acq_US_pleas_nomask	acq45_nomask	4	33	400	0	300	300	0	0	476	50	1	0	kreativ	kuss	vertrauen	sonnig	träumen	engagiert	krank	krise	versagen	sterben	töten	engstirnig	gütig	besonnen	anregung	genießen	gesittet	vergnügt	gierig	bange	ausrottung	gemein	geizig	verbissen	1	blank2r.bmp	0	1	+	0	1	blank2r.bmp	500	1	CPLW	500	1	blank2r.bmp	880	2	kuss	880	1	!	1232	1	!	-1	0	0	0	0	0	0
2024-05-02	12:49:48	12:59:06	557345	6.6.1	4_exp_EVA_AWA_CON	10	A	B	Rpleas_acq	Oppo	Rpleas	1pleas	acq_US_pleas_nomask	acq45_nomask	4	34	400	1	300	300	0	0	441	46	0	0	kreativ	kuss	vertrauen	sonnig	träumen	engagiert	krank	krise	versagen	sterben	töten	engstirnig	gütig	besonnen	anregung	genießen	gesittet	vergnügt	gierig	bange	ausrottung	gemein	geizig	verbissen	1	blank2r.bmp	0	1	+	0	1	blank2r.bmp	500	1	CPLW	500	1	blank2r.bmp	880	5	träumen	880	1	!	1232	1	!	1342	0	0	0	0	0	0
2024-05-02	12:49:48	12:59:09	559935	6.6.1	4_exp_EVA_AWA_CON	10	A	B	Rpleas_acq	Oppo	Rpleas	1pleas	acq_US_unple_nomask	acq45_nomask	4	35	400	0	300	300	0	0	811	46	1	0	kreativ	kuss	vertrauen	sonnig	träumen	engagiert	krank	krise	versagen	sterben	töten	engstirnig	gütig	besonnen	anregung	genießen	gesittet	vergnügt	gierig	bange	ausrottung	gemein	geizig	verbissen	1	blank2r.bmp	0	1	+	0	1	blank2r.bmp	500	1	DHJF	500	1	blank2r.bmp	880	6	engstirnig	880	1	!	1232	1	!	-1	0	0	0	0	0	0
2024-05-02	12:49:48	12:59:11	562231	6.6.1	4_exp_EVA_AWA_CON	10	A	B	Rpleas_acq	Oppo	Rpleas	1pleas	acq_US_pleas_nomask	acq45_nomask	4	36	400	0	300	300	0	0	516	50	1	0	kreativ	kuss	vertrauen	sonnig	träumen	engagiert	krank	krise	versagen	sterben	töten	engstirnig	gütig	besonnen	anregung	genießen	gesittet	vergnügt	gierig	bange	ausrottung	gemein	geizig	verbissen	1	blank2r.bmp	0	1	+	0	1	blank2r.bmp	500	1	CPLW	500	1	blank2r.bmp	880	1	kreativ	880	1	!	1233	1	!	-1	0	0	0	0	0	0
2024-05-02	12:49:48	12:59:26	577527	6.6.1	4_exp_EVA_AWA_CON	10	A	B	Rpleas_acq	Oppo	Rpleas	1pleas	acq_US_pleas_nomask	acq45_nomask	5	1	400	0	300	300	0	0	1572	50	1	0	kreativ	kuss	vertrauen	sonnig	träumen	engagiert	krank	krise	versagen	sterben	töten	engstirnig	gütig	besonnen	anregung	genießen	gesittet	vergnügt	gierig	bange	ausrottung	gemein	geizig	verbissen	1	blank2r.bmp	0	1	+	0	1	blank2r.bmp	500	1	CPLW	500	1	blank2r.bmp	880	2	kuss	880	1	!	1232	1	!	-1	0	0	0	0	0	0
2024-05-02	12:49:48	12:59:29	579830	6.6.1	4_exp_EVA_AWA_CON	10	A	B	Rpleas_acq	Oppo	Rpleas	1pleas	acq_US_pleas_nomask	acq45_nomask	5	2	400	0	300	300	0	0	524	50	1	0	kreativ	kuss	vertrauen	sonnig	träumen	engagiert	krank	krise	versagen	sterben	töten	engstirnig	gütig	besonnen	anregung	genießen	gesittet	vergnügt	gierig	bange	ausrottung	gemein	geizig	verbissen	1	blank2r.bmp	0	1	+	0	1	blank2r.bmp	500	1	CPLW	500	1	blank2r.bmp	880	4	sonnig	880	1	!	1232	1	!	-1	0	0	0	0	0	0
2024-05-02	12:49:48	12:59:31	582041	6.6.1	4_exp_EVA_AWA_CON	10	A	B	Rpleas_acq	Oppo	Rpleas	1pleas	acq_US_pleas_nomask	acq45_nomask	5	3	400	1	300	300	0	0	431	46	0	0	kreativ	kuss	vertrauen	sonnig	träumen	engagiert	krank	krise	versagen	sterben	töten	engstirnig	gütig	besonnen	anregung	genießen	gesittet	vergnügt	gierig	bange	ausrottung	gemein	geizig	verbissen	1	blank2r.bmp	0	1	+	0	1	blank2r.bmp	500	1	CPLW	500	1	blank2r.bmp	880	6	engagiert	880	1	!	1233	1	!	1332	0	0	0	0	0	0
2024-05-02	12:49:48	12:59:33	584326	6.6.1	4_exp_EVA_AWA_CON	10	A	B	Rpleas_acq	Oppo	Rpleas	1pleas	acq_US_unple_nomask	acq45_nomask	5	4	400	0	300	300	0	0	507	46	1	0	kreativ	kuss	vertrauen	sonnig	träumen	engagiert	krank	krise	versagen	sterben	töten	engstirnig	gütig	besonnen	anregung	genießen	gesittet	vergnügt	gierig	bange	ausrottung	gemein	geizig	verbissen	1	blank2r.bmp	0	1	+	0	1	blank2r.bmp	500	1	DHJF	500	1	blank2r.bmp	880	1	krank	880	1	!	1232	1	!	-1	0	0	0	0	0	0
2024-05-02	12:49:48	12:59:35	586591	6.6.1	4_exp_EVA_AWA_CON	10	A	B	Rpleas_acq	Oppo	Rpleas	1pleas	acq_US_pleas_nomask	acq45_nomask	5	5	400	0	300	300	0	0	490	46	0	0	kreativ	kuss	vertrauen	sonnig	träumen	engagiert	krank	krise	versagen	sterben	töten	engstirnig	gütig	besonnen	anregung	genießen	gesittet	vergnügt	gierig	bange	ausrottung	gemein	geizig	verbissen	1	blank2r.bmp	0	1	+	0	1	blank2r.bmp	500	1	CPLW	500	1	blank2r.bmp	880	3	vertrauen	880	1	!	1232	1	!	-1	0	0	0	0	0	0
2024-05-02	12:49:48	12:59:38	588910	6.6.1	4_exp_EVA_AWA_CON	10	A	B	Rpleas_acq	Oppo	Rpleas	1pleas	acq_US_pleas_nomask	acq45_nomask	5	6	400	0	300	300	0	0	538	50	1	0	kreativ	kuss	vertrauen	sonnig	träumen	engagiert	krank	krise	versagen	sterben	töten	engstirnig	gütig	besonnen	anregung	genießen	gesittet	vergnügt	gierig	bange	ausrottung	gemein	geizig	verbissen	1	blank2r.bmp	0	1	+	0	1	blank2r.bmp	500	1	CPLW	500	1	blank2r.bmp	880	5	träumen	880	1	!	1232	1	!	-1	0	0	0	0	0	0
2024-05-02	12:49:48	12:59:40	591175	6.6.1	4_exp_EVA_AWA_CON	10	A	B	Rpleas_acq	Oppo	Rpleas	1pleas	acq_US_pleas_nomask	acq45_nomask	5	7	400	0	300	300	0	0	491	50	1	0	kreativ	kuss	vertrauen	sonnig	träumen	engagiert	krank	krise	versagen	sterben	töten	engstirnig	gütig	besonnen	anregung	genießen	gesittet	vergnügt	gierig	bange	ausrottung	gemein	geizig	verbissen	1	blank2r.bmp	0	1	+	0	1	blank2r.bmp	500	1	CPLW	500	1	blank2r.bmp	880	1	kreativ	880	1	!	1232	1	!	-1	0	0	0	0	0	0
2024-05-02	12:49:48	12:59:42	593424	6.6.1	4_exp_EVA_AWA_CON	10	A	B	Rpleas_acq	Oppo	Rpleas	1pleas	acq_US_unple_nomask	acq45_nomask	5	8	400	1	300	300	0	0	468	46	1	0	kreativ	kuss	vertrauen	sonnig	träumen	engagiert	krank	krise	versagen	sterben	töten	engstirnig	gütig	besonnen	anregung	genießen	gesittet	vergnügt	gierig	bange	ausrottung	gemein	geizig	verbissen	1	blank2r.bmp	0	1	+	0	1	blank2r.bmp	500	1	DHJF	500	1	blank2r.bmp	880	3	versagen	880	1	!	1232	1	!	1368	0	0	0	0	0	0
2024-05-02	12:49:48	12:59:45	595799	6.6.1	4_exp_EVA_AWA_CON	10	A	B	Rpleas_acq	Oppo	Rpleas	1pleas	acq_US_unple_nomask	acq45_nomask	5	9	400	0	300	300	0	0	602	46	1	0	kreativ	kuss	vertrauen	sonnig	träumen	engagiert	krank	krise	versagen	sterben	töten	engstirnig	gütig	besonnen	anregung	genießen	gesittet	vergnügt	gierig	bange	ausrottung	gemein	geizig	verbissen	1	blank2r.bmp	0	1	+	0	1	blank2r.bmp	500	1	DHJF	500	1	blank2r.bmp	880	4	sterben	880	1	!	1233	1	!	-1	0	0	0	0	0	0
2024-05-02	12:49:48	12:59:47	598024	6.6.1	4_exp_EVA_AWA_CON	10	A	B	Rpleas_acq	Oppo	Rpleas	1pleas	acq_US_unple_nomask	acq45_nomask	5	10	400	1	300	300	0	0	445	50	0	0	kreativ	kuss	vertrauen	sonnig	träumen	engagiert	krank	krise	versagen	sterben	töten	engstirnig	gütig	besonnen	anregung	genießen	gesittet	vergnügt	gierig	bange	ausrottung	gemein	geizig	verbissen	1	blank2r.bmp	0	1	+	0	1	blank2r.bmp	500	1	DHJF	500	1	blank2r.bmp	880	2	krise	880	1	!	1232	1	!	1345	0	0	0	0	0	0
2024-05-02	12:49:48	12:59:49	600302	6.6.1	4_exp_EVA_AWA_CON	10	A	B	Rpleas_acq	Oppo	Rpleas	1pleas	acq_US_unple_nomask	acq45_nomask	5	11	400	0	300	300	0	0	503	50	0	0	kreativ	kuss	vertrauen	sonnig	träumen	engagiert	krank	krise	versagen	sterben	töten	engstirnig	gütig	besonnen	anregung	genießen	gesittet	vergnügt	gierig	bange	ausrottung	gemein	geizig	verbissen	1	blank2r.bmp	0	1	+	0	1	blank2r.bmp	500	1	DHJF	500	1	blank2r.bmp	880	6	engstirnig	880	1	!	1233	1	!	-1	0	0	0	0	0	0
2024-05-02	12:49:48	12:59:52	603007	6.6.1	4_exp_EVA_AWA_CON	10	A	B	Rpleas_acq	Oppo	Rpleas	1pleas	acq_US_unple_nomask	acq45_nomask	5	12	400	0	300	300	0	0	926	46	1	0	kreativ	kuss	vertrauen	sonnig	träumen	engagiert	krank	krise	versagen	sterben	töten	engstirnig	gütig	besonnen	anregung	genießen	gesittet	vergnügt	gierig	bange	ausrottung	gemein	geizig	verbissen	1	blank2r.bmp	0	1	+	0	1	blank2r.bmp	500	1	DHJF	500	1	blank2r.bmp	880	5	töten	880	1	!	1232	1	!	-1	0	0	0	0	0	0
2024-05-02	12:49:48	12:59:54	605176	6.6.1	4_exp_EVA_AWA_CON	10	A	B	Rpleas_acq	Oppo	Rpleas	1pleas	acq_US_unple_nomask	acq45_nomask	5	13	400	1	300	300	0	0	392	46	1	0	kreativ	kuss	vertrauen	sonnig	träumen	engagiert	krank	krise	versagen	sterben	töten	engstirnig	gütig	besonnen	anregung	genießen	gesittet	vergnügt	gierig	bange	ausrottung	gemein	geizig	verbissen	1	blank2r.bmp	0	1	+	0	1	blank2r.bmp	500	1	DHJF	500	1	blank2r.bmp	880	5	töten	880	1	!	1233	1	!	1293	0	0	0	0	0	0
2024-05-02	12:49:48	12:59:56	607463	6.6.1	4_exp_EVA_AWA_CON	10	A	B	Rpleas_acq	Oppo	Rpleas	1pleas	acq_US_pleas_nomask	acq45_nomask	5	14	400	0	300	300	0	0	509	50	1	0	kreativ	kuss	vertrauen	sonnig	träumen	engagiert	krank	krise	versagen	sterben	töten	engstirnig	gütig	besonnen	anregung	genießen	gesittet	vergnügt	gierig	bange	ausrottung	gemein	geizig	verbissen	1	blank2r.bmp	0	1	+	0	1	blank2r.bmp	500	1	CPLW	500	1	blank2r.bmp	880	4	sonnig	880	1	!	1232	1	!	-1	0	0	0	0	0	0
2024-05-02	12:49:48	12:59:58	609743	6.6.1	4_exp_EVA_AWA_CON	10	A	B	Rpleas_acq	Oppo	Rpleas	1pleas	acq_US_pleas_nomask	acq45_nomask	5	15	400	0	300	300	0	0	507	50	1	0	kreativ	kuss	vertrauen	sonnig	träumen	engagiert	krank	krise	versagen	sterben	töten	engstirnig	gütig	besonnen	anregung	genießen	gesittet	vergnügt	gierig	bange	ausrottung	gemein	geizig	verbissen	1	blank2r.bmp	0	1	+	0	1	blank2r.bmp	500	1	CPLW	500	1	blank2r.bmp	880	3	vertrauen	880	1	!	1232	1	!	-1	0	0	0	0	0	0
2024-05-02	12:49:48	13:00:01	612014	6.6.1	4_exp_EVA_AWA_CON	10	A	B	Rpleas_acq	Oppo	Rpleas	1pleas	acq_US_pleas_nomask	acq45_nomask	5	16	400	0	300	300	0	0	498	50	1	0	kreativ	kuss	vertrauen	sonnig	träumen	engagiert	krank	krise	versagen	sterben	töten	engstirnig	gütig	besonnen	anregung	genießen	gesittet	vergnügt	gierig	bange	ausrottung	gemein	geizig	verbissen	1	blank2r.bmp	0	1	+	0	1	blank2r.bmp	500	1	CPLW	500	1	blank2r.bmp	880	6	engagiert	880	1	!	1232	1	!	-1	0	0	0	0	0	0
2024-05-02	12:49:48	13:00:03	614326	6.6.1	4_exp_EVA_AWA_CON	10	A	B	Rpleas_acq	Oppo	Rpleas	1pleas	acq_US_unple_nomask	acq45_nomask	5	17	400	0	300	300	0	0	538	46	1	0	kreativ	kuss	vertrauen	sonnig	träumen	engagiert	krank	krise	versagen	sterben	töten	engstirnig	gütig	besonnen	anregung	genießen	gesittet	vergnügt	gierig	bange	ausrottung	gemein	geizig	verbissen	1	blank2r.bmp	0	1	+	0	1	blank2r.bmp	500	1	DHJF	500	1	blank2r.bmp	880	2	krise	880	1	!	1232	1	!	-1	0	0	0	0	0	0
2024-05-02	12:49:48	13:00:05	616568	6.6.1	4_exp_EVA_AWA_CON	10	A	B	Rpleas_acq	Oppo	Rpleas	1pleas	acq_US_unple_nomask	acq45_nomask	5	18	400	1	300	300	0	0	467	46	1	0	kreativ	kuss	vertrauen	sonnig	träumen	engagiert	krank	krise	versagen	sterben	töten	engstirnig	gütig	besonnen	anregung	genießen	gesittet	vergnügt	gierig	bange	ausrottung	gemein	geizig	verbissen	1	blank2r.bmp	0	1	+	0	1	blank2r.bmp	500	1	DHJF	500	1	blank2r.bmp	880	4	sterben	880	1	!	1232	1	!	1368	0	0	0	0	0	0
2024-05-02	12:49:48	13:00:08	618793	6.6.1	4_exp_EVA_AWA_CON	10	A	B	Rpleas_acq	Oppo	Rpleas	1pleas	acq_US_pleas_nomask	acq45_nomask	5	19	400	1	300	300	0	0	449	50	1	0	kreativ	kuss	vertrauen	sonnig	träumen	engagiert	krank	krise	versagen	sterben	töten	engstirnig	gütig	besonnen	anregung	genießen	gesittet	vergnügt	gierig	bange	ausrottung	gemein	geizig	verbissen	1	blank2r.bmp	0	1	+	0	1	blank2r.bmp	500	1	CPLW	500	1	blank2r.bmp	880	2	kuss	880	1	!	1232	1	!	1350	0	0	0	0	0	0
2024-05-02	12:49:48	13:00:10	621078	6.6.1	4_exp_EVA_AWA_CON	10	A	B	Rpleas_acq	Oppo	Rpleas	1pleas	acq_US_pleas_nomask	acq45_nomask	5	20	400	0	300	300	0	0	506	50	1	0	kreativ	kuss	vertrauen	sonnig	träumen	engagiert	krank	krise	versagen	sterben	töten	engstirnig	gütig	besonnen	anregung	genießen	gesittet	vergnügt	gierig	bange	ausrottung	gemein	geizig	verbissen	1	blank2r.bmp	0	1	+	0	1	blank2r.bmp	500	1	CPLW	500	1	blank2r.bmp	880	5	träumen	880	1	!	1232	1	!	-1	0	0	0	0	0	0
2024-05-02	12:49:48	13:00:12	623232	6.6.1	4_exp_EVA_AWA_CON	10	A	B	Rpleas_acq	Oppo	Rpleas	1pleas	acq_US_unple_nomask	acq45_nomask	5	21	400	1	300	300	0	0	376	50	0	0	kreativ	kuss	vertrauen	sonnig	träumen	engagiert	krank	krise	versagen	sterben	töten	engstirnig	gütig	besonnen	anregung	genießen	gesittet	vergnügt	gierig	bange	ausrottung	gemein	geizig	verbissen	1	blank2r.bmp	0	1	+	0	1	blank2r.bmp	500	1	DHJF	500	1	blank2r.bmp	880	1	krank	880	1	!	1232	1	!	1277	0	0	0	0	0	0
2024-05-02	12:49:48	13:00:14	625542	6.6.1	4_exp_EVA_AWA_CON	10	A	B	Rpleas_acq	Oppo	Rpleas	1pleas	acq_US_pleas_nomask	acq45_nomask	5	22	400	0	300	300	0	0	537	50	1	0	kreativ	kuss	vertrauen	sonnig	träumen	engagiert	krank	krise	versagen	sterben	töten	engstirnig	gütig	besonnen	anregung	genießen	gesittet	vergnügt	gierig	bange	ausrottung	gemein	geizig	verbissen	1	blank2r.bmp	0	1	+	0	1	blank2r.bmp	500	1	CPLW	500	1	blank2r.bmp	880	1	kreativ	880	1	!	1232	1	!	-1	0	0	0	0	0	0
2024-05-02	12:49:48	13:00:17	627789	6.6.1	4_exp_EVA_AWA_CON	10	A	B	Rpleas_acq	Oppo	Rpleas	1pleas	acq_US_pleas_nomask	acq45_nomask	5	23	400	0	300	300	0	0	473	50	1	0	kreativ	kuss	vertrauen	sonnig	träumen	engagiert	krank	krise	versagen	sterben	töten	engstirnig	gütig	besonnen	anregung	genießen	gesittet	vergnügt	gierig	bange	ausrottung	gemein	geizig	verbissen	1	blank2r.bmp	0	1	+	0	1	blank2r.bmp	500	1	CPLW	500	1	blank2r.bmp	880	2	kuss	880	1	!	1232	1	!	-1	0	0	0	0	0	0
2024-05-02	12:49:48	13:00:19	630008	6.6.1	4_exp_EVA_AWA_CON	10	A	B	Rpleas_acq	Oppo	Rpleas	1pleas	acq_US_pleas_nomask	acq45_nomask	5	24	400	1	300	300	0	0	438	50	1	0	kreativ	kuss	vertrauen	sonnig	träumen	engagiert	krank	krise	versagen	sterben	töten	engstirnig	gütig	besonnen	anregung	genießen	gesittet	vergnügt	gierig	bange	ausrottung	gemein	geizig	verbissen	1	blank2r.bmp	0	1	+	0	1	blank2r.bmp	500	1	CPLW	500	1	blank2r.bmp	880	5	träumen	880	1	!	1232	1	!	1339	0	0	0	0	0	0
2024-05-02	12:49:48	13:00:21	632511	6.6.1	4_exp_EVA_AWA_CON	10	A	B	Rpleas_acq	Oppo	Rpleas	1pleas	acq_US_unple_nomask	acq45_nomask	5	25	400	0	300	300	0	0	720	46	1	0	kreativ	kuss	vertrauen	sonnig	träumen	engagiert	krank	krise	versagen	sterben	töten	engstirnig	gütig	besonnen	anregung	genießen	gesittet	vergnügt	gierig	bange	ausrottung	gemein	geizig	verbissen	1	blank2r.bmp	0	1	+	0	1	blank2r.bmp	500	1	DHJF	500	1	blank2r.bmp	880	6	engstirnig	880	1	!	1232	1	!	-1	0	0	0	0	0	0
2024-05-02	12:49:48	13:00:24	634790	6.6.1	4_exp_EVA_AWA_CON	10	A	B	Rpleas_acq	Oppo	Rpleas	1pleas	acq_US_unple_nomask	acq45_nomask	5	26	400	0	300	300	0	0	499	46	1	0	kreativ	kuss	vertrauen	sonnig	träumen	engagiert	krank	krise	versagen	sterben	töten	engstirnig	gütig	besonnen	anregung	genießen	gesittet	vergnügt	gierig	bange	ausrottung	gemein	geizig	verbissen	1	blank2r.bmp	0	1	+	0	1	blank2r.bmp	500	1	DHJF	500	1	blank2r.bmp	880	3	versagen	880	1	!	1232	1	!	-1	0	0	0	0	0	0
2024-05-02	12:49:48	13:00:26	637008	6.6.1	4_exp_EVA_AWA_CON	10	A	B	Rpleas_acq	Oppo	Rpleas	1pleas	acq_US_pleas_nomask	acq45_nomask	5	27	400	1	300	300	0	0	444	46	0	0	kreativ	kuss	vertrauen	sonnig	träumen	engagiert	krank	krise	versagen	sterben	töten	engstirnig	gütig	besonnen	anregung	genießen	gesittet	vergnügt	gierig	bange	ausrottung	gemein	geizig	verbissen	1	blank2r.bmp	0	1	+	0	1	blank2r.bmp	500	1	CPLW	500	1	blank2r.bmp	880	6	engagiert	880	1	!	1232	1	!	1345	0	0	0	0	0	0
2024-05-02	12:49:48	13:00:28	639335	6.6.1	4_exp_EVA_AWA_CON	10	A	B	Rpleas_acq	Oppo	Rpleas	1pleas	acq_US_pleas_nomask	acq45_nomask	5	28	400	0	300	300	0	0	550	50	1	0	kreativ	kuss	vertrauen	sonnig	träumen	engagiert	krank	krise	versagen	sterben	töten	engstirnig	gütig	besonnen	anregung	genießen	gesittet	vergnügt	gierig	bange	ausrottung	gemein	geizig	verbissen	1	blank2r.bmp	0	1	+	0	1	blank2r.bmp	500	1	CPLW	500	1	blank2r.bmp	880	4	sonnig	880	1	!	1232	1	!	-1	0	0	0	0	0	0
2024-05-02	12:49:48	13:00:30	641638	6.6.1	4_exp_EVA_AWA_CON	10	A	B	Rpleas_acq	Oppo	Rpleas	1pleas	acq_US_unple_nomask	acq45_nomask	5	29	400	0	300	300	0	0	523	46	1	0	kreativ	kuss	vertrauen	sonnig	träumen	engagiert	krank	krise	versagen	sterben	töten	engstirnig	gütig	besonnen	anregung	genießen	gesittet	vergnügt	gierig	bange	ausrottung	gemein	geizig	verbissen	1	blank2r.bmp	0	1	+	0	1	blank2r.bmp	500	1	DHJF	500	1	blank2r.bmp	880	5	töten	880	1	!	1232	1	!	-1	0	0	0	0	0	0
2024-05-02	12:49:48	13:00:34	644959	6.6.1	4_exp_EVA_AWA_CON	10	A	B	Rpleas_acq	Oppo	Rpleas	1pleas	acq_US_pleas_nomask	acq45_nomask	5	30	400	0	300	300	0	0	1541	50	1	0	kreativ	kuss	vertrauen	sonnig	träumen	engagiert	krank	krise	versagen	sterben	töten	engstirnig	gütig	besonnen	anregung	genießen	gesittet	vergnügt	gierig	bange	ausrottung	gemein	geizig	verbissen	1	blank2r.bmp	0	1	+	0	1	blank2r.bmp	500	1	CPLW	500	1	blank2r.bmp	880	3	vertrauen	880	1	!	1232	1	!	-1	0	0	0	0	0	0
2024-05-02	12:49:48	13:00:36	647366	6.6.1	4_exp_EVA_AWA_CON	10	A	B	Rpleas_acq	Oppo	Rpleas	1pleas	acq_US_unple_nomask	acq45_nomask	5	31	400	0	300	300	0	0	627	46	1	0	kreativ	kuss	vertrauen	sonnig	träumen	engagiert	krank	krise	versagen	sterben	töten	engstirnig	gütig	besonnen	anregung	genießen	gesittet	vergnügt	gierig	bange	ausrottung	gemein	geizig	verbissen	1	blank2r.bmp	0	1	+	0	1	blank2r.bmp	500	1	DHJF	500	1	blank2r.bmp	880	6	engstirnig	880	1	!	1232	1	!	-1	0	0	0	0	0	0
2024-05-02	12:49:48	13:00:38	649654	6.6.1	4_exp_EVA_AWA_CON	10	A	B	Rpleas_acq	Oppo	Rpleas	1pleas	acq_US_unple_nomask	acq45_nomask	5	32	400	0	300	300	0	0	513	46	1	0	kreativ	kuss	vertrauen	sonnig	träumen	engagiert	krank	krise	versagen	sterben	töten	engstirnig	gütig	besonnen	anregung	genießen	gesittet	vergnügt	gierig	bange	ausrottung	gemein	geizig	verbissen	1	blank2r.bmp	0	1	+	0	1	blank2r.bmp	500	1	DHJF	500	1	blank2r.bmp	880	2	krise	880	1	!	1232	1	!	-1	0	0	0	0	0	0
2024-05-02	12:49:48	13:00:41	652046	6.6.1	4_exp_EVA_AWA_CON	10	A	B	Rpleas_acq	Oppo	Rpleas	1pleas	acq_US_unple_nomask	acq45_nomask	5	33	400	0	300	300	0	0	614	46	1	0	kreativ	kuss	vertrauen	sonnig	träumen	engagiert	krank	krise	versagen	sterben	töten	engstirnig	gütig	besonnen	anregung	genießen	gesittet	vergnügt	gierig	bange	ausrottung	gemein	geizig	verbissen	1	blank2r.bmp	0	1	+	0	1	blank2r.bmp	500	1	DHJF	500	1	blank2r.bmp	880	3	versagen	880	1	!	1232	1	!	-1	0	0	0	0	0	0
2024-05-02	12:49:48	13:00:43	654358	6.6.1	4_exp_EVA_AWA_CON	10	A	B	Rpleas_acq	Oppo	Rpleas	1pleas	acq_US_unple_nomask	acq45_nomask	5	34	400	0	300	300	0	0	534	46	1	0	kreativ	kuss	vertrauen	sonnig	träumen	engagiert	krank	krise	versagen	sterben	töten	engstirnig	gütig	besonnen	anregung	genießen	gesittet	vergnügt	gierig	bange	ausrottung	gemein	geizig	verbissen	1	blank2r.bmp	0	1	+	0	1	blank2r.bmp	500	1	DHJF	500	1	blank2r.bmp	880	4	sterben	880	1	!	1232	1	!	-1	0	0	0	0	0	0
2024-05-02	12:49:48	13:00:45	656584	6.6.1	4_exp_EVA_AWA_CON	10	A	B	Rpleas_acq	Oppo	Rpleas	1pleas	acq_US_pleas_nomask	acq45_nomask	5	35	400	1	300	300	0	0	447	50	1	0	kreativ	kuss	vertrauen	sonnig	träumen	engagiert	krank	krise	versagen	sterben	töten	engstirnig	gütig	besonnen	anregung	genießen	gesittet	vergnügt	gierig	bange	ausrottung	gemein	geizig	verbissen	1	blank2r.bmp	0	1	+	0	1	blank2r.bmp	500	1	CPLW	500	1	blank2r.bmp	880	1	kreativ	880	1	!	1232	1	!	1348	0	0	0	0	0	0
2024-05-02	12:49:48	13:00:48	658829	6.6.1	4_exp_EVA_AWA_CON	10	A	B	Rpleas_acq	Oppo	Rpleas	1pleas	acq_US_unple_nomask	acq45_nomask	5	36	400	0	300	300	0	0	474	46	1	0	kreativ	kuss	vertrauen	sonnig	träumen	engagiert	krank	krise	versagen	sterben	töten	engstirnig	gütig	besonnen	anregung	genießen	gesittet	vergnügt	gierig	bange	ausrottung	gemein	geizig	verbissen	1	blank2r.bmp	0	1	+	0	1	blank2r.bmp	500	1	DHJF	500	1	blank2r.bmp	880	1	krank	880	1	!	1232	1	!	-1	0	0	0	0	0	0
2024-05-02	12:49:48	13:01:20	691531	6.6.1	4_exp_EVA_AWA_CON	10	A	B	Rpleas_acq	Oppo	Lpleas	1pleas	EvalRating_firsttwo	EvalRating_firsttwo	6	1	0	0	300	300	0	0	7498	line	0	-44,6614583333333285964pct	kreativ	kuss	vertrauen	sonnig	träumen	engagiert	krank	krise	versagen	sterben	töten	engstirnig	gütig	besonnen	anregung	genießen	gesittet	vergnügt	gierig	bange	ausrottung	gemein	geizig	verbissen	1		-7	1	Wie angenehm oder unangenehm finden Sie die  Buchstabenkette WDLH?	-7	1		-7	1		-7	1		-7	1	Unangenehm	-7	1	Angenehm	-7	0	0	0	0	0	0	0	0	0
2024-05-02	12:49:48	13:01:30	701283	6.6.1	4_exp_EVA_AWA_CON	10	A	B	Rpleas_acq	Oppo	Lpleas	1pleas	EvalRating_lastfour	EvalRating_lastfour	7	1	0	0	300	300	0	0	7374	line	0	-24,8697916666666571928pct	kreativ	kuss	vertrauen	sonnig	träumen	engagiert	krank	krise	versagen	sterben	töten	engstirnig	gütig	besonnen	anregung	genießen	gesittet	vergnügt	gierig	bange	ausrottung	gemein	geizig	verbissen	1		-8	2	Wie angenehm oder unangenehm finden Sie die  Buchstabenkette DHJF?	-8	1		-8	1		-8	1		-8	1	Unangenehm	-8	1	Angenehm	-8	0	0	0	0	0	0	0	0	0
2024-05-02	12:49:48	13:01:32	703648	6.6.1	4_exp_EVA_AWA_CON	10	A	B	Rpleas_acq	Oppo	Lpleas	1pleas	blank_screen	EvalRating_lastfour	7	3	0	0	300	300	0	0	0	0	0	-24,8697916666666571928pct	kreativ	kuss	vertrauen	sonnig	träumen	engagiert	krank	krise	versagen	sterben	töten	engstirnig	gütig	besonnen	anregung	genießen	gesittet	vergnügt	gierig	bange	ausrottung	gemein	geizig	verbissen	1		-8	0	0	0	0	0	0	0	0	0	0	0	0	0	0	0	0	0	0	0	0	0	0	0	0	0	0	0
2024-05-02	12:49:48	13:01:39	709970	6.6.1	4_exp_EVA_AWA_CON	10	A	B	Rpleas_acq	Oppo	Lpleas	1pleas	EvalRating_lastfour	EvalRating_lastfour	7	4	0	0	300	300	0	0	5734	line	0	-2,4739583333333285964pct	kreativ	kuss	vertrauen	sonnig	träumen	engagiert	krank	krise	versagen	sterben	töten	engstirnig	gütig	besonnen	anregung	genießen	gesittet	vergnügt	gierig	bange	ausrottung	gemein	geizig	verbissen	1		-7	1	Wie angenehm oder unangenehm finden Sie die  Buchstabenkette CPLW?	-7	1		-7	1		-7	1		-7	1	Unangenehm	-7	1	Angenehm	-7	0	0	0	0	0	0	0	0	0
2024-05-02	12:49:48	13:01:41	712343	6.6.1	4_exp_EVA_AWA_CON	10	A	B	Rpleas_acq	Oppo	Lpleas	1pleas	blank_screen	EvalRating_lastfour	7	6	0	0	300	300	0	0	0	0	0	-2,4739583333333285964pct	kreativ	kuss	vertrauen	sonnig	träumen	engagiert	krank	krise	versagen	sterben	töten	engstirnig	gütig	besonnen	anregung	genießen	gesittet	vergnügt	gierig	bange	ausrottung	gemein	geizig	verbissen	1		-8	0	0	0	0	0	0	0	0	0	0	0	0	0	0	0	0	0	0	0	0	0	0	0	0	0	0	0
2024-05-02	12:49:48	13:01:47	718563	6.6.1	4_exp_EVA_AWA_CON	10	A	B	Rpleas_acq	Oppo	Lpleas	1pleas	EvalRating_lastfour	EvalRating_lastfour	7	7	0	0	300	300	0	0	5632	line	0	-19,4010416666666571928pct	kreativ	kuss	vertrauen	sonnig	träumen	engagiert	krank	krise	versagen	sterben	töten	engstirnig	gütig	besonnen	anregung	genießen	gesittet	vergnügt	gierig	bange	ausrottung	gemein	geizig	verbissen	1		-8	3	Wie angenehm oder unangenehm finden Sie die  Buchstabenkette FCJP?	-8	1		-8	1		-8	1		-8	1	Unangenehm	-8	1	Angenehm	-8	0	0	0	0	0	0	0	0	0
2024-05-02	12:49:48	13:02:48	779344	6.6.1	4_exp_EVA_AWA_CON	10	A	B	Rpleas_acq	Oppo	Lpleas	1pleas	conawa_CS2_US1	conawa1_nomask	8	1	0	0	300	300	0	0	17484	krank	1	-19,4010416666666571928pct	kreativ	kuss	vertrauen	sonnig	träumen	engagiert	krank	krise	versagen	sterben	töten	engstirnig	gütig	besonnen	anregung	genießen	gesittet	vergnügt	gierig	bange	ausrottung	gemein	geizig	verbissen	0	0	0	0	0	0	0	0	0	0	0	0	0	0	0	0	0	0	0	0	0	0	0	0	0	0	0	0	0	0
2024-05-02	12:49:48	13:02:48	779346	6.6.1	4_exp_EVA_AWA_CON	10	A	B	Rpleas_acq	Oppo	Lpleas	1pleas	conawa_CS2_US1_confidence	conawa1_nomask	8	1	0	0	300	300	0	0	17484	probably	1	-19,4010416666666571928pct	kreativ	kuss	vertrauen	sonnig	träumen	engagiert	krank	krise	versagen	sterben	töten	engstirnig	gütig	besonnen	anregung	genießen	gesittet	vergnügt	gierig	bange	ausrottung	gemein	geizig	verbissen	0	0	0	0	0	0	0	0	0	0	0	0	0	0	0	0	0	0	0	0	0	0	0	0	0	0	0	0	0	0
2024-05-02	12:49:48	13:03:08	799547	6.6.1	4_exp_EVA_AWA_CON	10	A	B	Rpleas_acq	Oppo	Lpleas	1pleas	conawa_CS2_US2	conawa1_nomask	8	2	0	0	300	300	0	0	19587	ausrottung	1	-19,4010416666666571928pct	kreativ	kuss	vertrauen	sonnig	träumen	engagiert	krank	krise	versagen	sterben	töten	engstirnig	gütig	besonnen	anregung	genießen	gesittet	vergnügt	gierig	bange	ausrottung	gemein	geizig	verbissen	0	0	0	0	0	0	0	0	0	0	0	0	0	0	0	0	0	0	0	0	0	0	0	0	0	0	0	0	0	0
2024-05-02	12:49:48	13:03:08	799549	6.6.1	4_exp_EVA_AWA_CON	10	A	B	Rpleas_acq	Oppo	Lpleas	1pleas	conawa_CS2_US2_confidence	conawa1_nomask	8	2	0	0	300	300	0	0	19587	guess	1	-19,4010416666666571928pct	kreativ	kuss	vertrauen	sonnig	träumen	engagiert	krank	krise	versagen	sterben	töten	engstirnig	gütig	besonnen	anregung	genießen	gesittet	vergnügt	gierig	bange	ausrottung	gemein	geizig	verbissen	0	0	0	0	0	0	0	0	0	0	0	0	0	0	0	0	0	0	0	0	0	0	0	0	0	0	0	0	0	0
2024-05-02	12:49:48	13:03:29	819961	6.6.1	4_exp_EVA_AWA_CON	10	A	B	Rpleas_acq	Oppo	Lpleas	1pleas	conawa_CS1_US1	conawa1_nomask	8	3	0	0	300	300	0	0	19797	gierig	1	-19,4010416666666571928pct	kreativ	kuss	vertrauen	sonnig	träumen	engagiert	krank	krise	versagen	sterben	töten	engstirnig	gütig	besonnen	anregung	genießen	gesittet	vergnügt	gierig	bange	ausrottung	gemein	geizig	verbissen	0	0	0	0	0	0	0	0	0	0	0	0	0	0	0	0	0	0	0	0	0	0	0	0	0	0	0	0	0	0
2024-05-02	12:49:48	13:03:29	819962	6.6.1	4_exp_EVA_AWA_CON	10	A	B	Rpleas_acq	Oppo	Lpleas	1pleas	conawa_CS1_US1_confidence	conawa1_nomask	8	3	0	0	300	300	0	0	19797	guess	1	-19,4010416666666571928pct	kreativ	kuss	vertrauen	sonnig	träumen	engagiert	krank	krise	versagen	sterben	töten	engstirnig	gütig	besonnen	anregung	genießen	gesittet	vergnügt	gierig	bange	ausrottung	gemein	geizig	verbissen	0	0	0	0	0	0	0	0	0	0	0	0	0	0	0	0	0	0	0	0	0	0	0	0	0	0	0	0	0	0
2024-05-02	12:49:48	13:03:40	830958	6.6.1	4_exp_EVA_AWA_CON	10	A	B	Rpleas_acq	Oppo	Lpleas	1pleas	conawa_CS2_US3	conawa1_nomask	8	4	0	0	300	300	0	0	10378	vertrauen	1	-19,4010416666666571928pct	kreativ	kuss	vertrauen	sonnig	träumen	engagiert	krank	krise	versagen	sterben	töten	engstirnig	gütig	besonnen	anregung	genießen	gesittet	vergnügt	gierig	bange	ausrottung	gemein	geizig	verbissen	0	0	0	0	0	0	0	0	0	0	0	0	0	0	0	0	0	0	0	0	0	0	0	0	0	0	0	0	0	0
2024-05-02	12:49:48	13:03:40	830959	6.6.1	4_exp_EVA_AWA_CON	10	A	B	Rpleas_acq	Oppo	Lpleas	1pleas	conawa_CS2_US3_confidence	conawa1_nomask	8	4	0	0	300	300	0	0	10378	guess	1	-19,4010416666666571928pct	kreativ	kuss	vertrauen	sonnig	träumen	engagiert	krank	krise	versagen	sterben	töten	engstirnig	gütig	besonnen	anregung	genießen	gesittet	vergnügt	gierig	bange	ausrottung	gemein	geizig	verbissen	0	0	0	0	0	0	0	0	0	0	0	0	0	0	0	0	0	0	0	0	0	0	0	0	0	0	0	0	0	0
2024-05-02	12:49:48	13:03:53	844657	6.6.1	4_exp_EVA_AWA_CON	10	A	B	Rpleas_acq	Oppo	Lpleas	1pleas	conawa_CS1_US2	conawa1_nomask	8	5	0	0	300	300	0	0	13085	bange	1	-19,4010416666666571928pct	kreativ	kuss	vertrauen	sonnig	träumen	engagiert	krank	krise	versagen	sterben	töten	engstirnig	gütig	besonnen	anregung	genießen	gesittet	vergnügt	gierig	bange	ausrottung	gemein	geizig	verbissen	0	0	0	0	0	0	0	0	0	0	0	0	0	0	0	0	0	0	0	0	0	0	0	0	0	0	0	0	0	0
2024-05-02	12:49:48	13:03:53	844658	6.6.1	4_exp_EVA_AWA_CON	10	A	B	Rpleas_acq	Oppo	Lpleas	1pleas	conawa_CS1_US2_confidence	conawa1_nomask	8	5	0	0	300	300	0	0	13085	guess	1	-19,4010416666666571928pct	kreativ	kuss	vertrauen	sonnig	träumen	engagiert	krank	krise	versagen	sterben	töten	engstirnig	gütig	besonnen	anregung	genießen	gesittet	vergnügt	gierig	bange	ausrottung	gemein	geizig	verbissen	0	0	0	0	0	0	0	0	0	0	0	0	0	0	0	0	0	0	0	0	0	0	0	0	0	0	0	0	0	0
2024-05-02	12:49:48	13:04:08	859676	6.6.1	4_exp_EVA_AWA_CON	10	A	B	Rpleas_acq	Oppo	Lpleas	1pleas	conawa_CS1_US5	conawa1_nomask	8	6	0	0	300	300	0	0	14403	träumen	1	-19,4010416666666571928pct	kreativ	kuss	vertrauen	sonnig	träumen	engagiert	krank	krise	versagen	sterben	töten	engstirnig	gütig	besonnen	anregung	genießen	gesittet	vergnügt	gierig	bange	ausrottung	gemein	geizig	verbissen	0	0	0	0	0	0	0	0	0	0	0	0	0	0	0	0	0	0	0	0	0	0	0	0	0	0	0	0	0	0
2024-05-02	12:49:48	13:04:08	859677	6.6.1	4_exp_EVA_AWA_CON	10	A	B	Rpleas_acq	Oppo	Lpleas	1pleas	conawa_CS1_US5_confidence	conawa1_nomask	8	6	0	0	300	300	0	0	14403	probably	1	-19,4010416666666571928pct	kreativ	kuss	vertrauen	sonnig	träumen	engagiert	krank	krise	versagen	sterben	töten	engstirnig	gütig	besonnen	anregung	genießen	gesittet	vergnügt	gierig	bange	ausrottung	gemein	geizig	verbissen	0	0	0	0	0	0	0	0	0	0	0	0	0	0	0	0	0	0	0	0	0	0	0	0	0	0	0	0	0	0
2024-05-02	12:49:48	13:04:20	871554	6.6.1	4_exp_EVA_AWA_CON	10	A	B	Rpleas_acq	Oppo	Lpleas	1pleas	conawa_CS1_US3	conawa1_nomask	8	7	0	0	300	300	0	0	11264	anregung	1	-19,4010416666666571928pct	kreativ	kuss	vertrauen	sonnig	träumen	engagiert	krank	krise	versagen	sterben	töten	engstirnig	gütig	besonnen	anregung	genießen	gesittet	vergnügt	gierig	bange	ausrottung	gemein	geizig	verbissen	0	0	0	0	0	0	0	0	0	0	0	0	0	0	0	0	0	0	0	0	0	0	0	0	0	0	0	0	0	0
2024-05-02	12:49:48	13:04:20	871555	6.6.1	4_exp_EVA_AWA_CON	10	A	B	Rpleas_acq	Oppo	Lpleas	1pleas	conawa_CS1_US3_confidence	conawa1_nomask	8	7	0	0	300	300	0	0	11264	probably	1	-19,4010416666666571928pct	kreativ	kuss	vertrauen	sonnig	träumen	engagiert	krank	krise	versagen	sterben	töten	engstirnig	gütig	besonnen	anregung	genießen	gesittet	vergnügt	gierig	bange	ausrottung	gemein	geizig	verbissen	0	0	0	0	0	0	0	0	0	0	0	0	0	0	0	0	0	0	0	0	0	0	0	0	0	0	0	0	0	0
2024-05-02	12:49:48	13:04:33	884152	6.6.1	4_exp_EVA_AWA_CON	10	A	B	Rpleas_acq	Oppo	Lpleas	1pleas	conawa_CS1_US4	conawa1_nomask	8	8	0	0	300	300	0	0	11978	gemein	1	-19,4010416666666571928pct	kreativ	kuss	vertrauen	sonnig	träumen	engagiert	krank	krise	versagen	sterben	töten	engstirnig	gütig	besonnen	anregung	genießen	gesittet	vergnügt	gierig	bange	ausrottung	gemein	geizig	verbissen	0	0	0	0	0	0	0	0	0	0	0	0	0	0	0	0	0	0	0	0	0	0	0	0	0	0	0	0	0	0
2024-05-02	12:49:48	13:04:33	884153	6.6.1	4_exp_EVA_AWA_CON	10	A	B	Rpleas_acq	Oppo	Lpleas	1pleas	conawa_CS1_US4_confidence	conawa1_nomask	8	8	0	0	300	300	0	0	11978	guess	1	-19,4010416666666571928pct	kreativ	kuss	vertrauen	sonnig	träumen	engagiert	krank	krise	versagen	sterben	töten	engstirnig	gütig	besonnen	anregung	genießen	gesittet	vergnügt	gierig	bange	ausrottung	gemein	geizig	verbissen	0	0	0	0	0	0	0	0	0	0	0	0	0	0	0	0	0	0	0	0	0	0	0	0	0	0	0	0	0	0
2024-05-02	12:49:48	13:04:50	901113	6.6.1	4_exp_EVA_AWA_CON	10	A	B	Rpleas_acq	Oppo	Lpleas	1pleas	conawa_CS2_US5	conawa1_nomask	8	9	0	0	300	300	0	0	16341	verbissen	1	-19,4010416666666571928pct	kreativ	kuss	vertrauen	sonnig	träumen	engagiert	krank	krise	versagen	sterben	töten	engstirnig	gütig	besonnen	anregung	genießen	gesittet	vergnügt	gierig	bange	ausrottung	gemein	geizig	verbissen	0	0	0	0	0	0	0	0	0	0	0	0	0	0	0	0	0	0	0	0	0	0	0	0	0	0	0	0	0	0
2024-05-02	12:49:48	13:04:50	901114	6.6.1	4_exp_EVA_AWA_CON	10	A	B	Rpleas_acq	Oppo	Lpleas	1pleas	conawa_CS2_US5_confidence	conawa1_nomask	8	9	0	0	300	300	0	0	16341	guess	1	-19,4010416666666571928pct	kreativ	kuss	vertrauen	sonnig	träumen	engagiert	krank	krise	versagen	sterben	töten	engstirnig	gütig	besonnen	anregung	genießen	gesittet	vergnügt	gierig	bange	ausrottung	gemein	geizig	verbissen	0	0	0	0	0	0	0	0	0	0	0	0	0	0	0	0	0	0	0	0	0	0	0	0	0	0	0	0	0	0
2024-05-02	12:49:48	13:05:07	917864	6.6.1	4_exp_EVA_AWA_CON	10	A	B	Rpleas_acq	Oppo	Lpleas	1pleas	conawa_CS2_US4	conawa1_nomask	8	10	0	0	300	300	0	0	16130	geizig	1	-19,4010416666666571928pct	kreativ	kuss	vertrauen	sonnig	träumen	engagiert	krank	krise	versagen	sterben	töten	engstirnig	gütig	besonnen	anregung	genießen	gesittet	vergnügt	gierig	bange	ausrottung	gemein	geizig	verbissen	0	0	0	0	0	0	0	0	0	0	0	0	0	0	0	0	0	0	0	0	0	0	0	0	0	0	0	0	0	0
2024-05-02	12:49:48	13:05:07	917865	6.6.1	4_exp_EVA_AWA_CON	10	A	B	Rpleas_acq	Oppo	Lpleas	1pleas	conawa_CS2_US4_confidence	conawa1_nomask	8	10	0	0	300	300	0	0	16130	guess	1	-19,4010416666666571928pct	kreativ	kuss	vertrauen	sonnig	träumen	engagiert	krank	krise	versagen	sterben	töten	engstirnig	gütig	besonnen	anregung	genießen	gesittet	vergnügt	gierig	bange	ausrottung	gemein	geizig	verbissen	0	0	0	0	0	0	0	0	0	0	0	0	0	0	0	0	0	0	0	0	0	0	0	0	0	0	0	0	0	0
2024-05-02	12:49:48	13:05:19	929801	6.6.1	4_exp_EVA_AWA_CON	10	A	B	Rpleas_acq	Oppo	Lpleas	1pleas	conawa_CS2_US6	conawa1_nomask	8	11	0	0	300	300	0	0	11324	gierig	1	-19,4010416666666571928pct	kreativ	kuss	vertrauen	sonnig	träumen	engagiert	krank	krise	versagen	sterben	töten	engstirnig	gütig	besonnen	anregung	genießen	gesittet	vergnügt	gierig	bange	ausrottung	gemein	geizig	verbissen	0	0	0	0	0	0	0	0	0	0	0	0	0	0	0	0	0	0	0	0	0	0	0	0	0	0	0	0	0	0
2024-05-02	12:49:48	13:05:19	929803	6.6.1	4_exp_EVA_AWA_CON	10	A	B	Rpleas_acq	Oppo	Lpleas	1pleas	conawa_CS2_US6_confidence	conawa1_nomask	8	11	0	0	300	300	0	0	11324	guess	1	-19,4010416666666571928pct	kreativ	kuss	vertrauen	sonnig	träumen	engagiert	krank	krise	versagen	sterben	töten	engstirnig	gütig	besonnen	anregung	genießen	gesittet	vergnügt	gierig	bange	ausrottung	gemein	geizig	verbissen	0	0	0	0	0	0	0	0	0	0	0	0	0	0	0	0	0	0	0	0	0	0	0	0	0	0	0	0	0	0
2024-05-02	12:49:48	13:05:33	943770	6.6.1	4_exp_EVA_AWA_CON	10	A	B	Rpleas_acq	Oppo	Lpleas	1pleas	conawa_CS1_US6	conawa1_nomask	8	12	0	0	300	300	0	0	13355	verbissen	1	-19,4010416666666571928pct	kreativ	kuss	vertrauen	sonnig	träumen	engagiert	krank	krise	versagen	sterben	töten	engstirnig	gütig	besonnen	anregung	genießen	gesittet	vergnügt	gierig	bange	ausrottung	gemein	geizig	verbissen	0	0	0	0	0	0	0	0	0	0	0	0	0	0	0	0	0	0	0	0	0	0	0	0	0	0	0	0	0	0
2024-05-02	12:49:48	13:05:33	943771	6.6.1	4_exp_EVA_AWA_CON	10	A	B	Rpleas_acq	Oppo	Lpleas	1pleas	conawa_CS1_US6_confidence	conawa1_nomask	8	12	0	0	300	300	0	0	13355	guess	1	-19,4010416666666571928pct	kreativ	kuss	vertrauen	sonnig	träumen	engagiert	krank	krise	versagen	sterben	töten	engstirnig	gütig	besonnen	anregung	genießen	gesittet	vergnügt	gierig	bange	ausrottung	gemein	geizig	verbissen	0	0	0	0	0	0	0	0	0	0	0	0	0	0	0	0	0	0	0	0	0	0	0	0	0	0	0	0	0	0
2024-05-02	12:49:48	13:07:01	1031998	6.6.1	4_exp_EVA_AWA_CON	10	A	B	Rpleas_acq	Oppo	Lpleas	1pleas	cond_US_pleas_123_nomask_CS1	condtest_nomask_1	11	1	400	0	300	300	0	0	651	46	1	-19,4010416666666571928pct	kreativ	kuss	vertrauen	sonnig	träumen	engagiert	krank	krise	versagen	sterben	töten	engstirnig	gütig	besonnen	anregung	genießen	gesittet	vergnügt	gierig	bange	ausrottung	gemein	geizig	verbissen	1	blank2r.bmp	0	1	+	0	1	blank2r.bmp	500	1	CPLW	500	1	blank2r.bmp	880	2	kuss	880	1	!	1233	1	!	-1	0	0	0	0	0	0
