date	time	currenttime	elapsedtime	build	currentexpt	subject	CS_AB	US_AB	LRpleas_acq	SameOppo	condition_Lpleas	condition_1pleas	trialcode	blockcode	blocknum	trialnum	windowcenter	inwindow	pretrialpause	posttrialpause	trialduration	trialtimeout	latency	response	correct	correctedscore	US_nomask_pleas1	US_nomask_pleas2	US_nomask_pleas3	US_nomask_pleas4	US_nomask_pleas5	US_nomask_pleas6	US_nomask_unple1	US_nomask_unple2	US_nomask_unple3	US_nomask_unple4	US_nomask_unple5	US_nomask_unple6	new_nomask_pleas1	new_nomask_pleas2	new_nomask_pleas3	new_nomask_pleas4	new_nomask_pleas5	new_nomask_pleas6	new_nomask_unple1	new_nomask_unple2	new_nomask_unple3	new_nomask_unple4	new_nomask_unple5	new_nomask_unple6	stimulusnumber1	stimulusitem1	stimulusonset1	stimulusnumber2	stimulusitem2	stimulusonset2	stimulusnumber3	stimulusitem3	stimulusonset3	stimulusnumber4	stimulusitem4	stimulusonset4	stimulusnumber5	stimulusitem5	stimulusonset5	stimulusnumber6	stimulusitem6	stimulusonset6	stimulusnumber7	stimulusitem7	stimulusonset7	stimulusnumber8	stimulusitem8	stimulusonset8	stimulusnumber9	stimulusitem9	stimulusonset9	stimulusnumber10	stimulusitem10	stimulusonset10
2024-05-08	11:20:33	11:24:11	217400	6.6.1	4_exp_EVA_AWA_CON	17	A	B	Rpleas_acq	Same	Rpleas	1pleas	acq_new_pleas_nomask	acq1_nomask	1	1	0	0	300	300	0	0	1374	50	1	0	anregung	vertrauen	sonnig	vergnügt	kuss	träumen	ausrottung	versagen	sterben	verbissen	krise	töten	kreativ	genießen	gesittet	engagiert	besonnen	gütig	krank	gemein	geizig	engstirnig	bange	gierig	1	blank2r.bmp	0	1	+	0	1	blank2r.bmp	500	3	B3r.bmp	500	1	blank2r.bmp	880	2	genießen	880	0	0	0	0	0	0	0	0	0	0	0	0
2024-05-08	11:20:33	11:24:13	219576	6.6.1	4_exp_EVA_AWA_CON	17	A	B	Rpleas_acq	Same	Rpleas	1pleas	acq_new_pleas_nomask	acq1_nomask	1	2	0	0	300	300	0	0	688	50	1	0	anregung	vertrauen	sonnig	vergnügt	kuss	träumen	ausrottung	versagen	sterben	verbissen	krise	töten	kreativ	genießen	gesittet	engagiert	besonnen	gütig	krank	gemein	geizig	engstirnig	bange	gierig	1	blank2r.bmp	0	1	+	0	1	blank2r.bmp	500	5	C1r.bmp	500	1	blank2r.bmp	880	1	kreativ	880	0	0	0	0	0	0	0	0	0	0	0	0
2024-05-08	11:20:33	11:24:15	221776	6.6.1	4_exp_EVA_AWA_CON	17	A	B	Rpleas_acq	Same	Rpleas	1pleas	acq_US_unple_nomask	acq1_nomask	1	3	0	0	300	300	0	0	716	46	1	0	anregung	vertrauen	sonnig	vergnügt	kuss	träumen	ausrottung	versagen	sterben	verbissen	krise	töten	kreativ	genießen	gesittet	engagiert	besonnen	gütig	krank	gemein	geizig	engstirnig	bange	gierig	1	blank2r.bmp	0	1	+	0	1	blank2r.bmp	500	1	DHJF	500	1	blank2r.bmp	880	2	versagen	880	0	0	0	0	0	0	0	0	0	0	0	0
2024-05-08	11:20:33	11:24:17	223832	6.6.1	4_exp_EVA_AWA_CON	17	A	B	Rpleas_acq	Same	Rpleas	1pleas	acq_new_pleas_nomask	acq1_nomask	1	4	0	0	300	300	0	0	571	50	1	0	anregung	vertrauen	sonnig	vergnügt	kuss	träumen	ausrottung	versagen	sterben	verbissen	krise	töten	kreativ	genießen	gesittet	engagiert	besonnen	gütig	krank	gemein	geizig	engstirnig	bange	gierig	1	blank2r.bmp	0	1	+	0	1	blank2r.bmp	500	6	C2r.bmp	500	1	blank2r.bmp	880	6	gütig	880	0	0	0	0	0	0	0	0	0	0	0	0
2024-05-08	11:20:33	11:24:20	226544	6.6.1	4_exp_EVA_AWA_CON	17	A	B	Rpleas_acq	Same	Rpleas	1pleas	acq_new_unple_nomask	acq1_nomask	1	5	0	0	300	300	0	0	1222	46	1	0	anregung	vertrauen	sonnig	vergnügt	kuss	träumen	ausrottung	versagen	sterben	verbissen	krise	töten	kreativ	genießen	gesittet	engagiert	besonnen	gütig	krank	gemein	geizig	engstirnig	bange	gierig	1	blank2r.bmp	0	1	+	0	1	blank2r.bmp	500	1	B1r.bmp	500	1	blank2r.bmp	880	1	krank	880	0	0	0	0	0	0	0	0	0	0	0	0
2024-05-08	11:20:33	11:24:22	228800	6.6.1	4_exp_EVA_AWA_CON	17	A	B	Rpleas_acq	Same	Rpleas	1pleas	acq_new_unple_nomask	acq1_nomask	1	6	0	0	300	300	0	0	766	46	1	0	anregung	vertrauen	sonnig	vergnügt	kuss	träumen	ausrottung	versagen	sterben	verbissen	krise	töten	kreativ	genießen	gesittet	engagiert	besonnen	gütig	krank	gemein	geizig	engstirnig	bange	gierig	1	blank2r.bmp	0	1	+	0	1	blank2r.bmp	500	8	C4r.bmp	500	1	blank2r.bmp	880	4	engstirnig	880	0	0	0	0	0	0	0	0	0	0	0	0
2024-05-08	11:20:33	11:24:24	230808	6.6.1	4_exp_EVA_AWA_CON	17	A	B	Rpleas_acq	Same	Rpleas	1pleas	acq_US_pleas_nomask	acq1_nomask	1	7	0	0	300	300	0	0	523	50	1	0	anregung	vertrauen	sonnig	vergnügt	kuss	träumen	ausrottung	versagen	sterben	verbissen	krise	töten	kreativ	genießen	gesittet	engagiert	besonnen	gütig	krank	gemein	geizig	engstirnig	bange	gierig	1	blank2r.bmp	0	1	+	0	1	blank2r.bmp	500	1	CPLW	500	1	blank2r.bmp	880	3	sonnig	880	0	0	0	0	0	0	0	0	0	0	0	0
2024-05-08	11:20:33	11:24:26	233049	6.6.1	4_exp_EVA_AWA_CON	17	A	B	Rpleas_acq	Same	Rpleas	1pleas	acq_US_pleas_nomask	acq1_nomask	1	8	0	0	300	300	0	0	551	46	0	0	anregung	vertrauen	sonnig	vergnügt	kuss	träumen	ausrottung	versagen	sterben	verbissen	krise	töten	kreativ	genießen	gesittet	engagiert	besonnen	gütig	krank	gemein	geizig	engstirnig	bange	gierig	1	blank2r.bmp	0	1	+	0	1	blank2r.bmp	500	1	CPLW	500	1	blank2r.bmp	880	2	vertrauen	880	1	FEHLER	1453	0	0	0	0	0	0	0	0	0
2024-05-08	11:20:33	11:24:28	235136	6.6.1	4_exp_EVA_AWA_CON	17	A	B	Rpleas_acq	Same	Rpleas	1pleas	acq_new_unple_nomask	acq1_nomask	1	9	0	0	300	300	0	0	798	46	1	0	anregung	vertrauen	sonnig	vergnügt	kuss	träumen	ausrottung	versagen	sterben	verbissen	krise	töten	kreativ	genießen	gesittet	engagiert	besonnen	gütig	krank	gemein	geizig	engstirnig	bange	gierig	1	blank2r.bmp	0	1	+	0	1	blank2r.bmp	500	2	B2r.bmp	500	1	blank2r.bmp	880	6	gierig	880	0	0	0	0	0	0	0	0	0	0	0	0
2024-05-08	11:20:33	11:24:30	237192	6.6.1	4_exp_EVA_AWA_CON	17	A	B	Rpleas_acq	Same	Rpleas	1pleas	acq_US_unple_nomask	acq1_nomask	1	10	0	0	300	300	0	0	572	46	1	0	anregung	vertrauen	sonnig	vergnügt	kuss	träumen	ausrottung	versagen	sterben	verbissen	krise	töten	kreativ	genießen	gesittet	engagiert	besonnen	gütig	krank	gemein	geizig	engstirnig	bange	gierig	1	blank2r.bmp	0	1	+	0	1	blank2r.bmp	500	1	DHJF	500	1	blank2r.bmp	880	6	töten	880	0	0	0	0	0	0	0	0	0	0	0	0
2024-05-08	11:20:33	11:24:32	239232	6.6.1	4_exp_EVA_AWA_CON	17	A	B	Rpleas_acq	Same	Rpleas	1pleas	acq_US_pleas_nomask	acq1_nomask	1	11	0	0	300	300	0	0	551	50	1	0	anregung	vertrauen	sonnig	vergnügt	kuss	träumen	ausrottung	versagen	sterben	verbissen	krise	töten	kreativ	genießen	gesittet	engagiert	besonnen	gütig	krank	gemein	geizig	engstirnig	bange	gierig	1	blank2r.bmp	0	1	+	0	1	blank2r.bmp	500	1	CPLW	500	1	blank2r.bmp	880	6	träumen	880	0	0	0	0	0	0	0	0	0	0	0	0
2024-05-08	11:20:33	11:24:35	241273	6.6.1	4_exp_EVA_AWA_CON	17	A	B	Rpleas_acq	Same	Rpleas	1pleas	acq_US_unple_nomask	acq1_nomask	1	12	0	0	300	300	0	0	560	46	1	0	anregung	vertrauen	sonnig	vergnügt	kuss	träumen	ausrottung	versagen	sterben	verbissen	krise	töten	kreativ	genießen	gesittet	engagiert	besonnen	gütig	krank	gemein	geizig	engstirnig	bange	gierig	1	blank2r.bmp	0	1	+	0	1	blank2r.bmp	500	1	DHJF	500	1	blank2r.bmp	880	1	ausrottung	880	0	0	0	0	0	0	0	0	0	0	0	0
2024-05-08	11:20:33	11:24:37	243312	6.6.1	4_exp_EVA_AWA_CON	17	A	B	Rpleas_acq	Same	Rpleas	1pleas	acq_new_pleas_nomask	acq1_nomask	1	13	0	0	300	300	0	0	559	50	1	0	anregung	vertrauen	sonnig	vergnügt	kuss	träumen	ausrottung	versagen	sterben	verbissen	krise	töten	kreativ	genießen	gesittet	engagiert	besonnen	gütig	krank	gemein	geizig	engstirnig	bange	gierig	1	blank2r.bmp	0	1	+	0	1	blank2r.bmp	500	7	C3r.bmp	500	1	blank2r.bmp	880	5	besonnen	880	0	0	0	0	0	0	0	0	0	0	0	0
2024-05-08	11:20:33	11:24:39	245328	6.6.1	4_exp_EVA_AWA_CON	17	A	B	Rpleas_acq	Same	Rpleas	1pleas	acq_US_pleas_nomask	acq1_nomask	1	14	0	0	300	300	0	0	533	50	1	0	anregung	vertrauen	sonnig	vergnügt	kuss	träumen	ausrottung	versagen	sterben	verbissen	krise	töten	kreativ	genießen	gesittet	engagiert	besonnen	gütig	krank	gemein	geizig	engstirnig	bange	gierig	1	blank2r.bmp	0	1	+	0	1	blank2r.bmp	500	1	CPLW	500	1	blank2r.bmp	880	5	kuss	880	0	0	0	0	0	0	0	0	0	0	0	0
2024-05-08	11:20:33	11:24:41	247432	6.6.1	4_exp_EVA_AWA_CON	17	A	B	Rpleas_acq	Same	Rpleas	1pleas	acq_US_unple_nomask	acq1_nomask	1	15	0	0	300	300	0	0	616	46	1	0	anregung	vertrauen	sonnig	vergnügt	kuss	träumen	ausrottung	versagen	sterben	verbissen	krise	töten	kreativ	genießen	gesittet	engagiert	besonnen	gütig	krank	gemein	geizig	engstirnig	bange	gierig	1	blank2r.bmp	0	1	+	0	1	blank2r.bmp	500	1	DHJF	500	1	blank2r.bmp	880	3	sterben	880	0	0	0	0	0	0	0	0	0	0	0	0
2024-05-08	11:20:33	11:24:43	249480	6.6.1	4_exp_EVA_AWA_CON	17	A	B	Rpleas_acq	Same	Rpleas	1pleas	acq_US_pleas_nomask	acq1_nomask	1	16	0	0	300	300	0	0	563	50	1	0	anregung	vertrauen	sonnig	vergnügt	kuss	träumen	ausrottung	versagen	sterben	verbissen	krise	töten	kreativ	genießen	gesittet	engagiert	besonnen	gütig	krank	gemein	geizig	engstirnig	bange	gierig	1	blank2r.bmp	0	1	+	0	1	blank2r.bmp	500	1	CPLW	500	1	blank2r.bmp	880	1	anregung	880	0	0	0	0	0	0	0	0	0	0	0	0
2024-05-08	11:20:33	11:24:45	251720	6.6.1	4_exp_EVA_AWA_CON	17	A	B	Rpleas_acq	Same	Rpleas	1pleas	acq_new_unple_nomask	acq1_nomask	1	17	0	0	300	300	0	0	751	46	1	0	anregung	vertrauen	sonnig	vergnügt	kuss	träumen	ausrottung	versagen	sterben	verbissen	krise	töten	kreativ	genießen	gesittet	engagiert	besonnen	gütig	krank	gemein	geizig	engstirnig	bange	gierig	1	blank2r.bmp	0	1	+	0	1	blank2r.bmp	500	4	B4r.bmp	500	1	blank2r.bmp	880	5	bange	880	0	0	0	0	0	0	0	0	0	0	0	0
2024-05-08	11:20:33	11:24:47	253768	6.6.1	4_exp_EVA_AWA_CON	17	A	B	Rpleas_acq	Same	Rpleas	1pleas	acq_new_unple_nomask	acq1_nomask	1	18	0	0	300	300	0	0	558	46	1	0	anregung	vertrauen	sonnig	vergnügt	kuss	träumen	ausrottung	versagen	sterben	verbissen	krise	töten	kreativ	genießen	gesittet	engagiert	besonnen	gütig	krank	gemein	geizig	engstirnig	bange	gierig	1	blank2r.bmp	0	1	+	0	1	blank2r.bmp	500	5	C1r.bmp	500	1	blank2r.bmp	880	3	geizig	880	0	0	0	0	0	0	0	0	0	0	0	0
2024-05-08	11:20:33	11:24:49	255720	6.6.1	4_exp_EVA_AWA_CON	17	A	B	Rpleas_acq	Same	Rpleas	1pleas	acq_new_unple_nomask	acq1_nomask	1	19	0	0	300	300	0	0	468	46	1	0	anregung	vertrauen	sonnig	vergnügt	kuss	träumen	ausrottung	versagen	sterben	verbissen	krise	töten	kreativ	genießen	gesittet	engagiert	besonnen	gütig	krank	gemein	geizig	engstirnig	bange	gierig	1	blank2r.bmp	0	1	+	0	1	blank2r.bmp	500	7	C3r.bmp	500	1	blank2r.bmp	880	2	gemein	880	0	0	0	0	0	0	0	0	0	0	0	0
2024-05-08	11:20:33	11:24:51	257680	6.6.1	4_exp_EVA_AWA_CON	17	A	B	Rpleas_acq	Same	Rpleas	1pleas	acq_US_pleas_nomask	acq1_nomask	1	20	0	0	300	300	0	0	477	50	1	0	anregung	vertrauen	sonnig	vergnügt	kuss	träumen	ausrottung	versagen	sterben	verbissen	krise	töten	kreativ	genießen	gesittet	engagiert	besonnen	gütig	krank	gemein	geizig	engstirnig	bange	gierig	1	blank2r.bmp	0	1	+	0	1	blank2r.bmp	500	1	CPLW	500	1	blank2r.bmp	880	4	vergnügt	880	0	0	0	0	0	0	0	0	0	0	0	0
2024-05-08	11:20:33	11:24:53	259912	6.6.1	4_exp_EVA_AWA_CON	17	A	B	Rpleas_acq	Same	Rpleas	1pleas	acq_new_pleas_nomask	acq1_nomask	1	21	0	0	300	300	0	0	748	50	1	0	anregung	vertrauen	sonnig	vergnügt	kuss	träumen	ausrottung	versagen	sterben	verbissen	krise	töten	kreativ	genießen	gesittet	engagiert	besonnen	gütig	krank	gemein	geizig	engstirnig	bange	gierig	1	blank2r.bmp	0	1	+	0	1	blank2r.bmp	500	2	B2r.bmp	500	1	blank2r.bmp	880	4	engagiert	880	0	0	0	0	0	0	0	0	0	0	0	0
2024-05-08	11:20:33	11:24:55	262064	6.6.1	4_exp_EVA_AWA_CON	17	A	B	Rpleas_acq	Same	Rpleas	1pleas	acq_US_unple_nomask	acq1_nomask	1	22	0	0	300	300	0	0	668	46	1	0	anregung	vertrauen	sonnig	vergnügt	kuss	träumen	ausrottung	versagen	sterben	verbissen	krise	töten	kreativ	genießen	gesittet	engagiert	besonnen	gütig	krank	gemein	geizig	engstirnig	bange	gierig	1	blank2r.bmp	0	1	+	0	1	blank2r.bmp	500	1	DHJF	500	1	blank2r.bmp	880	5	krise	880	0	0	0	0	0	0	0	0	0	0	0	0
2024-05-08	11:20:33	11:24:57	264072	6.6.1	4_exp_EVA_AWA_CON	17	A	B	Rpleas_acq	Same	Rpleas	1pleas	acq_US_unple_nomask	acq1_nomask	1	23	0	0	300	300	0	0	525	46	1	0	anregung	vertrauen	sonnig	vergnügt	kuss	träumen	ausrottung	versagen	sterben	verbissen	krise	töten	kreativ	genießen	gesittet	engagiert	besonnen	gütig	krank	gemein	geizig	engstirnig	bange	gierig	1	blank2r.bmp	0	1	+	0	1	blank2r.bmp	500	1	DHJF	500	1	blank2r.bmp	880	4	verbissen	880	0	0	0	0	0	0	0	0	0	0	0	0
2024-05-08	11:20:33	11:25:00	266481	6.6.1	4_exp_EVA_AWA_CON	17	A	B	Rpleas_acq	Same	Rpleas	1pleas	acq_new_pleas_nomask	acq1_nomask	1	24	0	0	300	300	0	0	722	46	0	0	anregung	vertrauen	sonnig	vergnügt	kuss	träumen	ausrottung	versagen	sterben	verbissen	krise	töten	kreativ	genießen	gesittet	engagiert	besonnen	gütig	krank	gemein	geizig	engstirnig	bange	gierig	1	blank2r.bmp	0	1	+	0	1	blank2r.bmp	500	1	B1r.bmp	500	1	blank2r.bmp	880	3	gesittet	880	1	FEHLER	1623	0	0	0	0	0	0	0	0	0
2024-05-08	11:20:33	11:25:02	268408	6.6.1	4_exp_EVA_AWA_CON	17	A	B	Rpleas_acq	Same	Rpleas	1pleas	acq_new_unple_nomask	acq1_nomask	1	25	0	0	300	300	0	0	638	46	1	0	anregung	vertrauen	sonnig	vergnügt	kuss	träumen	ausrottung	versagen	sterben	verbissen	krise	töten	kreativ	genießen	gesittet	engagiert	besonnen	gütig	krank	gemein	geizig	engstirnig	bange	gierig	1	blank2r.bmp	0	1	+	0	1	blank2r.bmp	500	3	B3r.bmp	500	1	blank2r.bmp	880	3	geizig	880	0	0	0	0	0	0	0	0	0	0	0	0
2024-05-08	11:20:33	11:25:04	270496	6.6.1	4_exp_EVA_AWA_CON	17	A	B	Rpleas_acq	Same	Rpleas	1pleas	acq_US_unple_nomask	acq1_nomask	1	26	0	0	300	300	0	0	605	46	1	0	anregung	vertrauen	sonnig	vergnügt	kuss	träumen	ausrottung	versagen	sterben	verbissen	krise	töten	kreativ	genießen	gesittet	engagiert	besonnen	gütig	krank	gemein	geizig	engstirnig	bange	gierig	1	blank2r.bmp	0	1	+	0	1	blank2r.bmp	500	1	DHJF	500	1	blank2r.bmp	880	3	sterben	880	0	0	0	0	0	0	0	0	0	0	0	0
2024-05-08	11:20:33	11:25:06	272440	6.6.1	4_exp_EVA_AWA_CON	17	A	B	Rpleas_acq	Same	Rpleas	1pleas	acq_new_pleas_nomask	acq1_nomask	1	27	0	0	300	300	0	0	458	50	1	0	anregung	vertrauen	sonnig	vergnügt	kuss	träumen	ausrottung	versagen	sterben	verbissen	krise	töten	kreativ	genießen	gesittet	engagiert	besonnen	gütig	krank	gemein	geizig	engstirnig	bange	gierig	1	blank2r.bmp	0	1	+	0	1	blank2r.bmp	500	8	C4r.bmp	500	1	blank2r.bmp	880	4	engagiert	880	0	0	0	0	0	0	0	0	0	0	0	0
2024-05-08	11:20:33	11:25:08	274576	6.6.1	4_exp_EVA_AWA_CON	17	A	B	Rpleas_acq	Same	Rpleas	1pleas	acq_new_unple_nomask	acq1_nomask	1	28	0	0	300	300	0	0	652	46	1	0	anregung	vertrauen	sonnig	vergnügt	kuss	träumen	ausrottung	versagen	sterben	verbissen	krise	töten	kreativ	genießen	gesittet	engagiert	besonnen	gütig	krank	gemein	geizig	engstirnig	bange	gierig	1	blank2r.bmp	0	1	+	0	1	blank2r.bmp	500	4	B4r.bmp	500	1	blank2r.bmp	880	1	krank	880	0	0	0	0	0	0	0	0	0	0	0	0
2024-05-08	11:20:33	11:25:10	276552	6.6.1	4_exp_EVA_AWA_CON	17	A	B	Rpleas_acq	Same	Rpleas	1pleas	acq_US_pleas_nomask	acq1_nomask	1	29	0	0	300	300	0	0	487	50	1	0	anregung	vertrauen	sonnig	vergnügt	kuss	träumen	ausrottung	versagen	sterben	verbissen	krise	töten	kreativ	genießen	gesittet	engagiert	besonnen	gütig	krank	gemein	geizig	engstirnig	bange	gierig	1	blank2r.bmp	0	1	+	0	1	blank2r.bmp	500	1	CPLW	500	1	blank2r.bmp	880	5	kuss	880	0	0	0	0	0	0	0	0	0	0	0	0
2024-05-08	11:20:33	11:25:12	278552	6.6.1	4_exp_EVA_AWA_CON	17	A	B	Rpleas_acq	Same	Rpleas	1pleas	acq_new_unple_nomask	acq1_nomask	1	30	0	0	300	300	0	0	516	46	1	0	anregung	vertrauen	sonnig	vergnügt	kuss	träumen	ausrottung	versagen	sterben	verbissen	krise	töten	kreativ	genießen	gesittet	engagiert	besonnen	gütig	krank	gemein	geizig	engstirnig	bange	gierig	1	blank2r.bmp	0	1	+	0	1	blank2r.bmp	500	6	C2r.bmp	500	1	blank2r.bmp	880	6	gierig	880	0	0	0	0	0	0	0	0	0	0	0	0
2024-05-08	11:20:33	11:25:14	280656	6.6.1	4_exp_EVA_AWA_CON	17	A	B	Rpleas_acq	Same	Rpleas	1pleas	acq_US_pleas_nomask	acq1_nomask	1	31	0	0	300	300	0	0	618	50	1	0	anregung	vertrauen	sonnig	vergnügt	kuss	träumen	ausrottung	versagen	sterben	verbissen	krise	töten	kreativ	genießen	gesittet	engagiert	besonnen	gütig	krank	gemein	geizig	engstirnig	bange	gierig	1	blank2r.bmp	0	1	+	0	1	blank2r.bmp	500	1	CPLW	500	1	blank2r.bmp	880	1	anregung	880	0	0	0	0	0	0	0	0	0	0	0	0
2024-05-08	11:20:33	11:25:16	282648	6.6.1	4_exp_EVA_AWA_CON	17	A	B	Rpleas_acq	Same	Rpleas	1pleas	acq_new_pleas_nomask	acq1_nomask	1	32	0	0	300	300	0	0	509	50	1	0	anregung	vertrauen	sonnig	vergnügt	kuss	träumen	ausrottung	versagen	sterben	verbissen	krise	töten	kreativ	genießen	gesittet	engagiert	besonnen	gütig	krank	gemein	geizig	engstirnig	bange	gierig	1	blank2r.bmp	0	1	+	0	1	blank2r.bmp	500	2	B2r.bmp	500	1	blank2r.bmp	880	5	besonnen	880	0	0	0	0	0	0	0	0	0	0	0	0
2024-05-08	11:20:33	11:25:18	284704	6.6.1	4_exp_EVA_AWA_CON	17	A	B	Rpleas_acq	Same	Rpleas	1pleas	acq_US_pleas_nomask	acq1_nomask	1	33	0	0	300	300	0	0	574	50	1	0	anregung	vertrauen	sonnig	vergnügt	kuss	träumen	ausrottung	versagen	sterben	verbissen	krise	töten	kreativ	genießen	gesittet	engagiert	besonnen	gütig	krank	gemein	geizig	engstirnig	bange	gierig	1	blank2r.bmp	0	1	+	0	1	blank2r.bmp	500	1	CPLW	500	1	blank2r.bmp	880	6	träumen	880	0	0	0	0	0	0	0	0	0	0	0	0
2024-05-08	11:20:33	11:25:20	286744	6.6.1	4_exp_EVA_AWA_CON	17	A	B	Rpleas_acq	Same	Rpleas	1pleas	acq_new_pleas_nomask	acq1_nomask	1	34	0	0	300	300	0	0	553	50	1	0	anregung	vertrauen	sonnig	vergnügt	kuss	träumen	ausrottung	versagen	sterben	verbissen	krise	töten	kreativ	genießen	gesittet	engagiert	besonnen	gütig	krank	gemein	geizig	engstirnig	bange	gierig	1	blank2r.bmp	0	1	+	0	1	blank2r.bmp	500	8	C4r.bmp	500	1	blank2r.bmp	880	6	gütig	880	0	0	0	0	0	0	0	0	0	0	0	0
2024-05-08	11:20:33	11:25:22	288664	6.6.1	4_exp_EVA_AWA_CON	17	A	B	Rpleas_acq	Same	Rpleas	1pleas	acq_US_unple_nomask	acq1_nomask	1	35	0	0	300	300	0	0	431	46	1	0	anregung	vertrauen	sonnig	vergnügt	kuss	träumen	ausrottung	versagen	sterben	verbissen	krise	töten	kreativ	genießen	gesittet	engagiert	besonnen	gütig	krank	gemein	geizig	engstirnig	bange	gierig	1	blank2r.bmp	0	1	+	0	1	blank2r.bmp	500	1	DHJF	500	1	blank2r.bmp	880	1	ausrottung	880	0	0	0	0	0	0	0	0	0	0	0	0
2024-05-08	11:20:33	11:25:24	290712	6.6.1	4_exp_EVA_AWA_CON	17	A	B	Rpleas_acq	Same	Rpleas	1pleas	acq_US_unple_nomask	acq1_nomask	1	36	0	0	300	300	0	0	558	46	1	0	anregung	vertrauen	sonnig	vergnügt	kuss	träumen	ausrottung	versagen	sterben	verbissen	krise	töten	kreativ	genießen	gesittet	engagiert	besonnen	gütig	krank	gemein	geizig	engstirnig	bange	gierig	1	blank2r.bmp	0	1	+	0	1	blank2r.bmp	500	1	DHJF	500	1	blank2r.bmp	880	4	verbissen	880	0	0	0	0	0	0	0	0	0	0	0	0
2024-05-08	11:20:33	11:25:52	318883	6.6.1	4_exp_EVA_AWA_CON	17	A	B	Rpleas_acq	Same	Rpleas	1pleas	acq_US_unple_nomask	acq2_nomask	2	1	480	0	300	300	0	0	2601	46	1	0	anregung	vertrauen	sonnig	vergnügt	kuss	träumen	ausrottung	versagen	sterben	verbissen	krise	töten	kreativ	genießen	gesittet	engagiert	besonnen	gütig	krank	gemein	geizig	engstirnig	bange	gierig	1	blank2r.bmp	0	1	+	0	1	blank2r.bmp	500	1	DHJF	500	1	blank2r.bmp	880	5	krise	880	1	!	1313	1	!	-1	0	0	0	0	0	0
2024-05-08	11:20:33	11:25:55	321309	6.6.1	4_exp_EVA_AWA_CON	17	A	B	Rpleas_acq	Same	Rpleas	1pleas	acq_new_unple_nomask	acq2_nomask	2	2	480	1	300	300	0	0	443	50	0	0	anregung	vertrauen	sonnig	vergnügt	kuss	träumen	ausrottung	versagen	sterben	verbissen	krise	töten	kreativ	genießen	gesittet	engagiert	besonnen	gütig	krank	gemein	geizig	engstirnig	bange	gierig	1	blank2r.bmp	0	1	+	0	1	blank2r.bmp	500	1	B1r.bmp	500	1	blank2r.bmp	880	5	bange	880	1	FEHLER	1636	1	!	1312	1	!	1344	0	0	0
2024-05-08	11:20:33	11:25:57	323498	6.6.1	4_exp_EVA_AWA_CON	17	A	B	Rpleas_acq	Same	Rpleas	1pleas	acq_US_unple_nomask	acq2_nomask	2	3	480	0	300	300	0	0	613	46	1	0	anregung	vertrauen	sonnig	vergnügt	kuss	träumen	ausrottung	versagen	sterben	verbissen	krise	töten	kreativ	genießen	gesittet	engagiert	besonnen	gütig	krank	gemein	geizig	engstirnig	bange	gierig	1	blank2r.bmp	0	1	+	0	1	blank2r.bmp	500	1	DHJF	500	1	blank2r.bmp	880	6	töten	880	1	!	1313	1	!	-1	0	0	0	0	0	0
2024-05-08	11:20:33	11:25:59	325906	6.6.1	4_exp_EVA_AWA_CON	17	A	B	Rpleas_acq	Same	Rpleas	1pleas	acq_new_pleas_nomask	acq2_nomask	2	4	480	0	300	300	0	0	630	50	1	0	anregung	vertrauen	sonnig	vergnügt	kuss	träumen	ausrottung	versagen	sterben	verbissen	krise	töten	kreativ	genießen	gesittet	engagiert	besonnen	gütig	krank	gemein	geizig	engstirnig	bange	gierig	1	blank2r.bmp	0	1	+	0	1	blank2r.bmp	500	4	B4r.bmp	500	1	blank2r.bmp	880	1	kreativ	880	1	!	1312	1	!	-1	0	0	0	0	0	0
2024-05-08	11:20:33	11:26:02	328442	6.6.1	4_exp_EVA_AWA_CON	17	A	B	Rpleas_acq	Same	Rpleas	1pleas	acq_new_pleas_nomask	acq2_nomask	2	5	480	0	300	300	0	0	754	50	1	0	anregung	vertrauen	sonnig	vergnügt	kuss	träumen	ausrottung	versagen	sterben	verbissen	krise	töten	kreativ	genießen	gesittet	engagiert	besonnen	gütig	krank	gemein	geizig	engstirnig	bange	gierig	1	blank2r.bmp	0	1	+	0	1	blank2r.bmp	500	5	C1r.bmp	500	1	blank2r.bmp	880	3	gesittet	880	1	!	1312	1	!	-1	0	0	0	0	0	0
2024-05-08	11:20:33	11:26:04	330882	6.6.1	4_exp_EVA_AWA_CON	17	A	B	Rpleas_acq	Same	Rpleas	1pleas	acq_new_unple_nomask	acq2_nomask	2	6	480	0	300	300	0	0	663	46	1	0	anregung	vertrauen	sonnig	vergnügt	kuss	träumen	ausrottung	versagen	sterben	verbissen	krise	töten	kreativ	genießen	gesittet	engagiert	besonnen	gütig	krank	gemein	geizig	engstirnig	bange	gierig	1	blank2r.bmp	0	1	+	0	1	blank2r.bmp	500	7	C3r.bmp	500	1	blank2r.bmp	880	4	engstirnig	880	1	!	1313	1	!	-1	0	0	0	0	0	0
2024-05-08	11:20:33	11:26:07	333386	6.6.1	4_exp_EVA_AWA_CON	17	A	B	Rpleas_acq	Same	Rpleas	1pleas	acq_new_pleas_nomask	acq2_nomask	2	7	480	0	300	300	0	0	725	50	1	0	anregung	vertrauen	sonnig	vergnügt	kuss	träumen	ausrottung	versagen	sterben	verbissen	krise	töten	kreativ	genießen	gesittet	engagiert	besonnen	gütig	krank	gemein	geizig	engstirnig	bange	gierig	1	blank2r.bmp	0	1	+	0	1	blank2r.bmp	500	3	B3r.bmp	500	1	blank2r.bmp	880	2	genießen	880	1	!	1312	1	!	-1	0	0	0	0	0	0
2024-05-08	11:20:33	11:26:09	335842	6.6.1	4_exp_EVA_AWA_CON	17	A	B	Rpleas_acq	Same	Rpleas	1pleas	acq_US_pleas_nomask	acq2_nomask	2	8	480	0	300	300	0	0	679	50	1	0	anregung	vertrauen	sonnig	vergnügt	kuss	träumen	ausrottung	versagen	sterben	verbissen	krise	töten	kreativ	genießen	gesittet	engagiert	besonnen	gütig	krank	gemein	geizig	engstirnig	bange	gierig	1	blank2r.bmp	0	1	+	0	1	blank2r.bmp	500	1	CPLW	500	1	blank2r.bmp	880	3	sonnig	880	1	!	1313	1	!	-1	0	0	0	0	0	0
2024-05-08	11:20:33	11:26:12	338290	6.6.1	4_exp_EVA_AWA_CON	17	A	B	Rpleas_acq	Same	Rpleas	1pleas	acq_US_unple_nomask	acq2_nomask	2	9	480	0	300	300	0	0	666	46	1	0	anregung	vertrauen	sonnig	vergnügt	kuss	träumen	ausrottung	versagen	sterben	verbissen	krise	töten	kreativ	genießen	gesittet	engagiert	besonnen	gütig	krank	gemein	geizig	engstirnig	bange	gierig	1	blank2r.bmp	0	1	+	0	1	blank2r.bmp	500	1	DHJF	500	1	blank2r.bmp	880	2	versagen	880	1	!	1312	1	!	-1	0	0	0	0	0	0
2024-05-08	11:20:33	11:26:14	340794	6.6.1	4_exp_EVA_AWA_CON	17	A	B	Rpleas_acq	Same	Rpleas	1pleas	acq_US_pleas_nomask	acq2_nomask	2	10	480	0	300	300	0	0	728	50	1	0	anregung	vertrauen	sonnig	vergnügt	kuss	träumen	ausrottung	versagen	sterben	verbissen	krise	töten	kreativ	genießen	gesittet	engagiert	besonnen	gütig	krank	gemein	geizig	engstirnig	bange	gierig	1	blank2r.bmp	0	1	+	0	1	blank2r.bmp	500	1	CPLW	500	1	blank2r.bmp	880	2	vertrauen	880	1	!	1312	1	!	-1	0	0	0	0	0	0
2024-05-08	11:20:33	11:26:17	343306	6.6.1	4_exp_EVA_AWA_CON	17	A	B	Rpleas_acq	Same	Rpleas	1pleas	acq_US_pleas_nomask	acq2_nomask	2	11	480	0	300	300	0	0	738	50	1	0	anregung	vertrauen	sonnig	vergnügt	kuss	träumen	ausrottung	versagen	sterben	verbissen	krise	töten	kreativ	genießen	gesittet	engagiert	besonnen	gütig	krank	gemein	geizig	engstirnig	bange	gierig	1	blank2r.bmp	0	1	+	0	1	blank2r.bmp	500	1	CPLW	500	1	blank2r.bmp	880	4	vergnügt	880	1	!	1312	1	!	-1	0	0	0	0	0	0
2024-05-08	11:20:33	11:26:19	345786	6.6.1	4_exp_EVA_AWA_CON	17	A	B	Rpleas_acq	Same	Rpleas	1pleas	acq_new_unple_nomask	acq2_nomask	2	12	480	0	300	300	0	0	707	46	1	0	anregung	vertrauen	sonnig	vergnügt	kuss	träumen	ausrottung	versagen	sterben	verbissen	krise	töten	kreativ	genießen	gesittet	engagiert	besonnen	gütig	krank	gemein	geizig	engstirnig	bange	gierig	1	blank2r.bmp	0	1	+	0	1	blank2r.bmp	500	6	C2r.bmp	500	1	blank2r.bmp	880	2	gemein	880	1	!	1312	1	!	-1	0	0	0	0	0	0
2024-05-08	11:20:33	11:26:21	348218	6.6.1	4_exp_EVA_AWA_CON	17	A	B	Rpleas_acq	Same	Rpleas	1pleas	acq_new_pleas_nomask	acq2_nomask	2	13	480	0	300	300	0	0	657	50	1	0	anregung	vertrauen	sonnig	vergnügt	kuss	träumen	ausrottung	versagen	sterben	verbissen	krise	töten	kreativ	genießen	gesittet	engagiert	besonnen	gütig	krank	gemein	geizig	engstirnig	bange	gierig	1	blank2r.bmp	0	1	+	0	1	blank2r.bmp	500	3	B3r.bmp	500	1	blank2r.bmp	880	5	besonnen	880	1	!	1312	1	!	-1	0	0	0	0	0	0
2024-05-08	11:20:33	11:26:24	350763	6.6.1	4_exp_EVA_AWA_CON	17	A	B	Rpleas_acq	Same	Rpleas	1pleas	acq_new_pleas_nomask	acq2_nomask	2	14	480	0	300	300	0	0	770	50	1	0	anregung	vertrauen	sonnig	vergnügt	kuss	träumen	ausrottung	versagen	sterben	verbissen	krise	töten	kreativ	genießen	gesittet	engagiert	besonnen	gütig	krank	gemein	geizig	engstirnig	bange	gierig	1	blank2r.bmp	0	1	+	0	1	blank2r.bmp	500	2	B2r.bmp	500	1	blank2r.bmp	880	2	genießen	880	1	!	1312	1	!	-1	0	0	0	0	0	0
2024-05-08	11:20:33	11:26:27	353258	6.6.1	4_exp_EVA_AWA_CON	17	A	B	Rpleas_acq	Same	Rpleas	1pleas	acq_new_unple_nomask	acq2_nomask	2	15	480	0	300	300	0	0	714	46	1	0	anregung	vertrauen	sonnig	vergnügt	kuss	träumen	ausrottung	versagen	sterben	verbissen	krise	töten	kreativ	genießen	gesittet	engagiert	besonnen	gütig	krank	gemein	geizig	engstirnig	bange	gierig	1	blank2r.bmp	0	1	+	0	1	blank2r.bmp	500	7	C3r.bmp	500	1	blank2r.bmp	880	2	gemein	880	1	!	1312	1	!	-1	0	0	0	0	0	0
2024-05-08	11:20:33	11:26:29	355810	6.6.1	4_exp_EVA_AWA_CON	17	A	B	Rpleas_acq	Same	Rpleas	1pleas	acq_US_unple_nomask	acq2_nomask	2	16	480	0	300	300	0	0	775	46	1	0	anregung	vertrauen	sonnig	vergnügt	kuss	träumen	ausrottung	versagen	sterben	verbissen	krise	töten	kreativ	genießen	gesittet	engagiert	besonnen	gütig	krank	gemein	geizig	engstirnig	bange	gierig	1	blank2r.bmp	0	1	+	0	1	blank2r.bmp	500	1	DHJF	500	1	blank2r.bmp	880	4	verbissen	880	1	!	1313	1	!	-1	0	0	0	0	0	0
2024-05-08	11:20:33	11:26:31	358076	6.6.1	4_exp_EVA_AWA_CON	17	A	B	Rpleas_acq	Same	Rpleas	1pleas	acq_new_unple_nomask	acq2_nomask	2	17	480	1	300	300	0	0	487	46	1	0	anregung	vertrauen	sonnig	vergnügt	kuss	träumen	ausrottung	versagen	sterben	verbissen	krise	töten	kreativ	genießen	gesittet	engagiert	besonnen	gütig	krank	gemein	geizig	engstirnig	bange	gierig	1	blank2r.bmp	0	1	+	0	1	blank2r.bmp	500	5	C1r.bmp	500	1	blank2r.bmp	880	4	engstirnig	880	1	!	1313	1	!	1388	0	0	0	0	0	0
2024-05-08	11:20:33	11:26:34	360372	6.6.1	4_exp_EVA_AWA_CON	17	A	B	Rpleas_acq	Same	Rpleas	1pleas	acq_new_pleas_nomask	acq2_nomask	2	18	480	1	300	300	0	0	521	50	1	0	anregung	vertrauen	sonnig	vergnügt	kuss	träumen	ausrottung	versagen	sterben	verbissen	krise	töten	kreativ	genießen	gesittet	engagiert	besonnen	gütig	krank	gemein	geizig	engstirnig	bange	gierig	1	blank2r.bmp	0	1	+	0	1	blank2r.bmp	500	8	C4r.bmp	500	1	blank2r.bmp	880	1	kreativ	880	1	!	1312	1	!	1423	0	0	0	0	0	0
2024-05-08	11:20:33	11:26:36	362771	6.6.1	4_exp_EVA_AWA_CON	17	A	B	Rpleas_acq	Same	Rpleas	1pleas	acq_US_pleas_nomask	acq2_nomask	2	19	480	0	300	300	0	0	620	50	1	0	anregung	vertrauen	sonnig	vergnügt	kuss	träumen	ausrottung	versagen	sterben	verbissen	krise	töten	kreativ	genießen	gesittet	engagiert	besonnen	gütig	krank	gemein	geizig	engstirnig	bange	gierig	1	blank2r.bmp	0	1	+	0	1	blank2r.bmp	500	1	CPLW	500	1	blank2r.bmp	880	4	vergnügt	880	1	!	1313	1	!	-1	0	0	0	0	0	0
2024-05-08	11:20:33	11:26:38	365194	6.6.1	4_exp_EVA_AWA_CON	17	A	B	Rpleas_acq	Same	Rpleas	1pleas	acq_new_unple_nomask	acq2_nomask	2	20	480	0	300	300	0	0	642	46	1	0	anregung	vertrauen	sonnig	vergnügt	kuss	träumen	ausrottung	versagen	sterben	verbissen	krise	töten	kreativ	genießen	gesittet	engagiert	besonnen	gütig	krank	gemein	geizig	engstirnig	bange	gierig	1	blank2r.bmp	0	1	+	0	1	blank2r.bmp	500	1	B1r.bmp	500	1	blank2r.bmp	880	6	gierig	880	1	!	1313	1	!	-1	0	0	0	0	0	0
2024-05-08	11:20:33	11:26:41	367602	6.6.1	4_exp_EVA_AWA_CON	17	A	B	Rpleas_acq	Same	Rpleas	1pleas	acq_US_pleas_nomask	acq2_nomask	2	21	480	0	300	300	0	0	629	50	1	0	anregung	vertrauen	sonnig	vergnügt	kuss	träumen	ausrottung	versagen	sterben	verbissen	krise	töten	kreativ	genießen	gesittet	engagiert	besonnen	gütig	krank	gemein	geizig	engstirnig	bange	gierig	1	blank2r.bmp	0	1	+	0	1	blank2r.bmp	500	1	CPLW	500	1	blank2r.bmp	880	5	kuss	880	1	!	1312	1	!	-1	0	0	0	0	0	0
2024-05-08	11:20:33	11:26:43	369762	6.6.1	4_exp_EVA_AWA_CON	17	A	B	Rpleas_acq	Same	Rpleas	1pleas	acq_US_pleas_nomask	acq2_nomask	2	22	480	0	300	300	0	0	387	50	1	0	anregung	vertrauen	sonnig	vergnügt	kuss	träumen	ausrottung	versagen	sterben	verbissen	krise	töten	kreativ	genießen	gesittet	engagiert	besonnen	gütig	krank	gemein	geizig	engstirnig	bange	gierig	1	blank2r.bmp	0	1	+	0	1	blank2r.bmp	500	1	CPLW	500	1	blank2r.bmp	880	2	vertrauen	880	1	!	-1	1	!	-1	0	0	0	0	0	0
2024-05-08	11:20:33	11:26:45	372202	6.6.1	4_exp_EVA_AWA_CON	17	A	B	Rpleas_acq	Same	Rpleas	1pleas	acq_US_unple_nomask	acq2_nomask	2	23	480	0	300	300	0	0	666	46	1	0	anregung	vertrauen	sonnig	vergnügt	kuss	träumen	ausrottung	versagen	sterben	verbissen	krise	töten	kreativ	genießen	gesittet	engagiert	besonnen	gütig	krank	gemein	geizig	engstirnig	bange	gierig	1	blank2r.bmp	0	1	+	0	1	blank2r.bmp	500	1	DHJF	500	1	blank2r.bmp	880	6	töten	880	1	!	1312	1	!	-1	0	0	0	0	0	0
2024-05-08	11:20:33	11:26:48	374634	6.6.1	4_exp_EVA_AWA_CON	17	A	B	Rpleas_acq	Same	Rpleas	1pleas	acq_US_unple_nomask	acq2_nomask	2	24	480	0	300	300	0	0	656	46	1	0	anregung	vertrauen	sonnig	vergnügt	kuss	träumen	ausrottung	versagen	sterben	verbissen	krise	töten	kreativ	genießen	gesittet	engagiert	besonnen	gütig	krank	gemein	geizig	engstirnig	bange	gierig	1	blank2r.bmp	0	1	+	0	1	blank2r.bmp	500	1	DHJF	500	1	blank2r.bmp	880	3	sterben	880	1	!	1313	1	!	-1	0	0	0	0	0	0
2024-05-08	11:20:33	11:26:50	377018	6.6.1	4_exp_EVA_AWA_CON	17	A	B	Rpleas_acq	Same	Rpleas	1pleas	acq_US_pleas_nomask	acq2_nomask	2	25	480	0	300	300	0	0	609	50	1	0	anregung	vertrauen	sonnig	vergnügt	kuss	träumen	ausrottung	versagen	sterben	verbissen	krise	töten	kreativ	genießen	gesittet	engagiert	besonnen	gütig	krank	gemein	geizig	engstirnig	bange	gierig	1	blank2r.bmp	0	1	+	0	1	blank2r.bmp	500	1	CPLW	500	1	blank2r.bmp	880	3	sonnig	880	1	!	1312	1	!	-1	0	0	0	0	0	0
2024-05-08	11:20:33	11:26:53	379434	6.6.1	4_exp_EVA_AWA_CON	17	A	B	Rpleas_acq	Same	Rpleas	1pleas	acq_new_unple_nomask	acq2_nomask	2	26	480	0	300	300	0	0	643	46	1	0	anregung	vertrauen	sonnig	vergnügt	kuss	träumen	ausrottung	versagen	sterben	verbissen	krise	töten	kreativ	genießen	gesittet	engagiert	besonnen	gütig	krank	gemein	geizig	engstirnig	bange	gierig	1	blank2r.bmp	0	1	+	0	1	blank2r.bmp	500	4	B4r.bmp	500	1	blank2r.bmp	880	3	geizig	880	1	!	1312	1	!	-1	0	0	0	0	0	0
2024-05-08	11:20:33	11:26:55	381691	6.6.1	4_exp_EVA_AWA_CON	17	A	B	Rpleas_acq	Same	Rpleas	1pleas	acq_new_pleas_nomask	acq2_nomask	2	27	480	1	300	300	0	0	478	50	1	0	anregung	vertrauen	sonnig	vergnügt	kuss	träumen	ausrottung	versagen	sterben	verbissen	krise	töten	kreativ	genießen	gesittet	engagiert	besonnen	gütig	krank	gemein	geizig	engstirnig	bange	gierig	1	blank2r.bmp	0	1	+	0	1	blank2r.bmp	500	6	C2r.bmp	500	1	blank2r.bmp	880	6	gütig	880	1	!	1312	1	!	1379	0	0	0	0	0	0
2024-05-08	11:20:33	11:26:57	384034	6.6.1	4_exp_EVA_AWA_CON	17	A	B	Rpleas_acq	Same	Rpleas	1pleas	acq_new_unple_nomask	acq2_nomask	2	28	480	0	300	300	0	0	570	46	1	0	anregung	vertrauen	sonnig	vergnügt	kuss	träumen	ausrottung	versagen	sterben	verbissen	krise	töten	kreativ	genießen	gesittet	engagiert	besonnen	gütig	krank	gemein	geizig	engstirnig	bange	gierig	1	blank2r.bmp	0	1	+	0	1	blank2r.bmp	500	7	C3r.bmp	500	1	blank2r.bmp	880	1	krank	880	1	!	1313	1	!	-1	0	0	0	0	0	0
2024-05-08	11:20:33	11:27:00	386418	6.6.1	4_exp_EVA_AWA_CON	17	A	B	Rpleas_acq	Same	Rpleas	1pleas	acq_US_unple_nomask	acq2_nomask	2	29	480	0	300	300	0	0	603	46	1	0	anregung	vertrauen	sonnig	vergnügt	kuss	träumen	ausrottung	versagen	sterben	verbissen	krise	töten	kreativ	genießen	gesittet	engagiert	besonnen	gütig	krank	gemein	geizig	engstirnig	bange	gierig	1	blank2r.bmp	0	1	+	0	1	blank2r.bmp	500	1	DHJF	500	1	blank2r.bmp	880	1	ausrottung	880	1	!	1313	1	!	-1	0	0	0	0	0	0
2024-05-08	11:20:33	11:27:02	388636	6.6.1	4_exp_EVA_AWA_CON	17	A	B	Rpleas_acq	Same	Rpleas	1pleas	acq_US_unple_nomask	acq2_nomask	2	30	480	1	300	300	0	0	437	46	1	0	anregung	vertrauen	sonnig	vergnügt	kuss	träumen	ausrottung	versagen	sterben	verbissen	krise	töten	kreativ	genießen	gesittet	engagiert	besonnen	gütig	krank	gemein	geizig	engstirnig	bange	gierig	1	blank2r.bmp	0	1	+	0	1	blank2r.bmp	500	1	DHJF	500	1	blank2r.bmp	880	5	krise	880	1	!	1312	1	!	1338	0	0	0	0	0	0
2024-05-08	11:20:33	11:27:04	390932	6.6.1	4_exp_EVA_AWA_CON	17	A	B	Rpleas_acq	Same	Rpleas	1pleas	acq_US_unple_nomask	acq2_nomask	2	31	480	1	300	300	0	0	522	46	1	0	anregung	vertrauen	sonnig	vergnügt	kuss	träumen	ausrottung	versagen	sterben	verbissen	krise	töten	kreativ	genießen	gesittet	engagiert	besonnen	gütig	krank	gemein	geizig	engstirnig	bange	gierig	1	blank2r.bmp	0	1	+	0	1	blank2r.bmp	500	1	DHJF	500	1	blank2r.bmp	880	2	versagen	880	1	!	1312	1	!	1423	0	0	0	0	0	0
2024-05-08	11:20:33	11:27:07	393298	6.6.1	4_exp_EVA_AWA_CON	17	A	B	Rpleas_acq	Same	Rpleas	1pleas	acq_new_pleas_nomask	acq2_nomask	2	32	480	0	300	300	0	0	588	50	1	0	anregung	vertrauen	sonnig	vergnügt	kuss	träumen	ausrottung	versagen	sterben	verbissen	krise	töten	kreativ	genießen	gesittet	engagiert	besonnen	gütig	krank	gemein	geizig	engstirnig	bange	gierig	1	blank2r.bmp	0	1	+	0	1	blank2r.bmp	500	5	C1r.bmp	500	1	blank2r.bmp	880	4	engagiert	880	1	!	1312	1	!	-1	0	0	0	0	0	0
2024-05-08	11:20:33	11:27:09	395741	6.6.1	4_exp_EVA_AWA_CON	17	A	B	Rpleas_acq	Same	Rpleas	1pleas	acq_new_pleas_nomask	acq2_nomask	2	33	480	1	300	300	0	0	467	46	0	0	anregung	vertrauen	sonnig	vergnügt	kuss	träumen	ausrottung	versagen	sterben	verbissen	krise	töten	kreativ	genießen	gesittet	engagiert	besonnen	gütig	krank	gemein	geizig	engstirnig	bange	gierig	1	blank2r.bmp	0	1	+	0	1	blank2r.bmp	500	8	C4r.bmp	500	1	blank2r.bmp	880	3	gesittet	880	1	FEHLER	1660	1	!	1313	1	!	1368	0	0	0
2024-05-08	11:20:33	11:27:11	397795	6.6.1	4_exp_EVA_AWA_CON	17	A	B	Rpleas_acq	Same	Rpleas	1pleas	acq_new_unple_nomask	acq2_nomask	2	34	480	1	300	300	0	0	481	46	1	0	anregung	vertrauen	sonnig	vergnügt	kuss	träumen	ausrottung	versagen	sterben	verbissen	krise	töten	kreativ	genießen	gesittet	engagiert	besonnen	gütig	krank	gemein	geizig	engstirnig	bange	gierig	1	blank2r.bmp	0	1	+	0	1	blank2r.bmp	500	3	B3r.bmp	500	1	blank2r.bmp	880	5	bange	880	1	!	1312	1	!	1382	0	0	0	0	0	0
2024-05-08	11:20:33	11:27:13	400128	6.6.1	4_exp_EVA_AWA_CON	17	A	B	Rpleas_acq	Same	Rpleas	1pleas	acq_US_pleas_nomask	acq2_nomask	2	35	480	0	300	300	0	0	556	50	1	0	anregung	vertrauen	sonnig	vergnügt	kuss	träumen	ausrottung	versagen	sterben	verbissen	krise	töten	kreativ	genießen	gesittet	engagiert	besonnen	gütig	krank	gemein	geizig	engstirnig	bange	gierig	1	blank2r.bmp	0	1	+	0	1	blank2r.bmp	500	1	CPLW	500	1	blank2r.bmp	880	6	träumen	880	1	!	1313	1	!	-1	0	0	0	0	0	0
2024-05-08	11:20:33	11:27:16	402733	6.6.1	4_exp_EVA_AWA_CON	17	A	B	Rpleas_acq	Same	Rpleas	1pleas	acq_US_pleas_nomask	acq2_nomask	2	36	480	0	300	300	0	0	624	46	0	0	anregung	vertrauen	sonnig	vergnügt	kuss	träumen	ausrottung	versagen	sterben	verbissen	krise	töten	kreativ	genießen	gesittet	engagiert	besonnen	gütig	krank	gemein	geizig	engstirnig	bange	gierig	1	blank2r.bmp	0	1	+	0	1	blank2r.bmp	500	1	CPLW	500	1	blank2r.bmp	880	1	anregung	880	1	FEHLER	1818	1	!	1312	1	!	-1	0	0	0
2024-05-08	11:20:33	11:27:33	419780	6.6.1	4_exp_EVA_AWA_CON	17	A	B	Rpleas_acq	Same	Rpleas	1pleas	acq_US_pleas_nomask	acq3_nomask	3	1	453	1	300	300	0	0	471	50	1	0	anregung	vertrauen	sonnig	vergnügt	kuss	träumen	ausrottung	versagen	sterben	verbissen	krise	töten	kreativ	genießen	gesittet	engagiert	besonnen	gütig	krank	gemein	geizig	engstirnig	bange	gierig	1	blank2r.bmp	0	1	+	0	1	blank2r.bmp	500	1	CPLW	500	1	blank2r.bmp	880	4	vergnügt	880	1	!	1292	1	!	1372	0	0	0	0	0	0
2024-05-08	11:20:33	11:27:35	422051	6.6.1	4_exp_EVA_AWA_CON	17	A	B	Rpleas_acq	Same	Rpleas	1pleas	acq_US_unple_nomask	acq3_nomask	3	2	453	1	300	300	0	0	492	46	1	0	anregung	vertrauen	sonnig	vergnügt	kuss	träumen	ausrottung	versagen	sterben	verbissen	krise	töten	kreativ	genießen	gesittet	engagiert	besonnen	gütig	krank	gemein	geizig	engstirnig	bange	gierig	1	blank2r.bmp	0	1	+	0	1	blank2r.bmp	500	1	DHJF	500	1	blank2r.bmp	880	6	töten	880	1	!	1292	1	!	1393	0	0	0	0	0	0
2024-05-08	11:20:33	11:27:38	424308	6.6.1	4_exp_EVA_AWA_CON	17	A	B	Rpleas_acq	Same	Rpleas	1pleas	acq_US_pleas_nomask	acq3_nomask	3	3	453	1	300	300	0	0	476	50	1	0	anregung	vertrauen	sonnig	vergnügt	kuss	träumen	ausrottung	versagen	sterben	verbissen	krise	töten	kreativ	genießen	gesittet	engagiert	besonnen	gütig	krank	gemein	geizig	engstirnig	bange	gierig	1	blank2r.bmp	0	1	+	0	1	blank2r.bmp	500	1	CPLW	500	1	blank2r.bmp	880	2	vertrauen	880	1	!	1292	1	!	1378	0	0	0	0	0	0
2024-05-08	11:20:33	11:27:40	426602	6.6.1	4_exp_EVA_AWA_CON	17	A	B	Rpleas_acq	Same	Rpleas	1pleas	acq_US_unple_nomask	acq3_nomask	3	4	453	0	300	300	0	0	521	46	1	0	anregung	vertrauen	sonnig	vergnügt	kuss	träumen	ausrottung	versagen	sterben	verbissen	krise	töten	kreativ	genießen	gesittet	engagiert	besonnen	gütig	krank	gemein	geizig	engstirnig	bange	gierig	1	blank2r.bmp	0	1	+	0	1	blank2r.bmp	500	1	DHJF	500	1	blank2r.bmp	880	2	versagen	880	1	!	1293	1	!	-1	0	0	0	0	0	0
2024-05-08	11:20:33	11:27:42	428904	6.6.1	4_exp_EVA_AWA_CON	17	A	B	Rpleas_acq	Same	Rpleas	1pleas	acq_US_unple_nomask	acq3_nomask	3	5	453	0	300	300	0	0	523	46	1	0	anregung	vertrauen	sonnig	vergnügt	kuss	träumen	ausrottung	versagen	sterben	verbissen	krise	töten	kreativ	genießen	gesittet	engagiert	besonnen	gütig	krank	gemein	geizig	engstirnig	bange	gierig	1	blank2r.bmp	0	1	+	0	1	blank2r.bmp	500	1	DHJF	500	1	blank2r.bmp	880	4	verbissen	880	1	!	1292	1	!	-1	0	0	0	0	0	0
2024-05-08	11:20:33	11:27:44	431124	6.6.1	4_exp_EVA_AWA_CON	17	A	B	Rpleas_acq	Same	Rpleas	1pleas	acq_US_pleas_nomask	acq3_nomask	3	6	453	1	300	300	0	0	438	50	1	0	anregung	vertrauen	sonnig	vergnügt	kuss	träumen	ausrottung	versagen	sterben	verbissen	krise	töten	kreativ	genießen	gesittet	engagiert	besonnen	gütig	krank	gemein	geizig	engstirnig	bange	gierig	1	blank2r.bmp	0	1	+	0	1	blank2r.bmp	500	1	CPLW	500	1	blank2r.bmp	880	6	träumen	880	1	!	1292	1	!	1339	0	0	0	0	0	0
2024-05-08	11:20:33	11:27:47	433396	6.6.1	4_exp_EVA_AWA_CON	17	A	B	Rpleas_acq	Same	Rpleas	1pleas	acq_US_pleas_nomask	acq3_nomask	3	7	453	1	300	300	0	0	489	50	1	0	anregung	vertrauen	sonnig	vergnügt	kuss	träumen	ausrottung	versagen	sterben	verbissen	krise	töten	kreativ	genießen	gesittet	engagiert	besonnen	gütig	krank	gemein	geizig	engstirnig	bange	gierig	1	blank2r.bmp	0	1	+	0	1	blank2r.bmp	500	1	CPLW	500	1	blank2r.bmp	880	3	sonnig	880	1	!	1292	1	!	1390	0	0	0	0	0	0
2024-05-08	11:20:33	11:27:49	435698	6.6.1	4_exp_EVA_AWA_CON	17	A	B	Rpleas_acq	Same	Rpleas	1pleas	acq_US_pleas_nomask	acq3_nomask	3	8	453	0	300	300	0	0	521	50	1	0	anregung	vertrauen	sonnig	vergnügt	kuss	träumen	ausrottung	versagen	sterben	verbissen	krise	töten	kreativ	genießen	gesittet	engagiert	besonnen	gütig	krank	gemein	geizig	engstirnig	bange	gierig	1	blank2r.bmp	0	1	+	0	1	blank2r.bmp	500	1	CPLW	500	1	blank2r.bmp	880	5	kuss	880	1	!	1293	1	!	-1	0	0	0	0	0	0
2024-05-08	11:20:33	11:27:51	438141	6.6.1	4_exp_EVA_AWA_CON	17	A	B	Rpleas_acq	Same	Rpleas	1pleas	acq_US_unple_nomask	acq3_nomask	3	9	453	1	300	300	0	0	460	50	0	0	anregung	vertrauen	sonnig	vergnügt	kuss	träumen	ausrottung	versagen	sterben	verbissen	krise	töten	kreativ	genießen	gesittet	engagiert	besonnen	gütig	krank	gemein	geizig	engstirnig	bange	gierig	1	blank2r.bmp	0	1	+	0	1	blank2r.bmp	500	1	DHJF	500	1	blank2r.bmp	880	3	sterben	880	1	FEHLER	1653	1	!	1292	1	!	1361	0	0	0
2024-05-08	11:20:33	11:27:53	440196	6.6.1	4_exp_EVA_AWA_CON	17	A	B	Rpleas_acq	Same	Rpleas	1pleas	acq_US_unple_nomask	acq3_nomask	3	10	453	1	300	300	0	0	474	46	1	0	anregung	vertrauen	sonnig	vergnügt	kuss	träumen	ausrottung	versagen	sterben	verbissen	krise	töten	kreativ	genießen	gesittet	engagiert	besonnen	gütig	krank	gemein	geizig	engstirnig	bange	gierig	1	blank2r.bmp	0	1	+	0	1	blank2r.bmp	500	1	DHJF	500	1	blank2r.bmp	880	5	krise	880	1	!	1292	1	!	1375	0	0	0	0	0	0
2024-05-08	11:20:33	11:27:56	442514	6.6.1	4_exp_EVA_AWA_CON	17	A	B	Rpleas_acq	Same	Rpleas	1pleas	acq_US_pleas_nomask	acq3_nomask	3	11	453	0	300	300	0	0	543	50	1	0	anregung	vertrauen	sonnig	vergnügt	kuss	träumen	ausrottung	versagen	sterben	verbissen	krise	töten	kreativ	genießen	gesittet	engagiert	besonnen	gütig	krank	gemein	geizig	engstirnig	bange	gierig	1	blank2r.bmp	0	1	+	0	1	blank2r.bmp	500	1	CPLW	500	1	blank2r.bmp	880	1	anregung	880	1	!	1292	1	!	-1	0	0	0	0	0	0
2024-05-08	11:20:33	11:27:58	444795	6.6.1	4_exp_EVA_AWA_CON	17	A	B	Rpleas_acq	Same	Rpleas	1pleas	acq_US_unple_nomask	acq3_nomask	3	12	453	1	300	300	0	0	501	46	1	0	anregung	vertrauen	sonnig	vergnügt	kuss	träumen	ausrottung	versagen	sterben	verbissen	krise	töten	kreativ	genießen	gesittet	engagiert	besonnen	gütig	krank	gemein	geizig	engstirnig	bange	gierig	1	blank2r.bmp	0	1	+	0	1	blank2r.bmp	500	1	DHJF	500	1	blank2r.bmp	880	1	ausrottung	880	1	!	1292	1	!	1402	0	0	0	0	0	0
2024-05-08	11:20:33	11:28:00	447092	6.6.1	4_exp_EVA_AWA_CON	17	A	B	Rpleas_acq	Same	Rpleas	1pleas	acq_US_unple_nomask	acq3_nomask	3	13	453	1	300	300	0	0	516	46	1	0	anregung	vertrauen	sonnig	vergnügt	kuss	träumen	ausrottung	versagen	sterben	verbissen	krise	töten	kreativ	genießen	gesittet	engagiert	besonnen	gütig	krank	gemein	geizig	engstirnig	bange	gierig	1	blank2r.bmp	0	1	+	0	1	blank2r.bmp	500	1	DHJF	500	1	blank2r.bmp	880	1	ausrottung	880	1	!	1293	1	!	1417	0	0	0	0	0	0
2024-05-08	11:20:33	11:28:03	449402	6.6.1	4_exp_EVA_AWA_CON	17	A	B	Rpleas_acq	Same	Rpleas	1pleas	acq_US_pleas_nomask	acq3_nomask	3	14	453	0	300	300	0	0	536	50	1	0	anregung	vertrauen	sonnig	vergnügt	kuss	träumen	ausrottung	versagen	sterben	verbissen	krise	töten	kreativ	genießen	gesittet	engagiert	besonnen	gütig	krank	gemein	geizig	engstirnig	bange	gierig	1	blank2r.bmp	0	1	+	0	1	blank2r.bmp	500	1	CPLW	500	1	blank2r.bmp	880	1	anregung	880	1	!	1292	1	!	-1	0	0	0	0	0	0
2024-05-08	11:20:33	11:28:05	451754	6.6.1	4_exp_EVA_AWA_CON	17	A	B	Rpleas_acq	Same	Rpleas	1pleas	acq_US_pleas_nomask	acq3_nomask	3	15	453	0	300	300	0	0	577	50	1	0	anregung	vertrauen	sonnig	vergnügt	kuss	träumen	ausrottung	versagen	sterben	verbissen	krise	töten	kreativ	genießen	gesittet	engagiert	besonnen	gütig	krank	gemein	geizig	engstirnig	bange	gierig	1	blank2r.bmp	0	1	+	0	1	blank2r.bmp	500	1	CPLW	500	1	blank2r.bmp	880	5	kuss	880	1	!	1293	1	!	-1	0	0	0	0	0	0
2024-05-08	11:20:33	11:28:07	453898	6.6.1	4_exp_EVA_AWA_CON	17	A	B	Rpleas_acq	Same	Rpleas	1pleas	acq_US_unple_nomask	acq3_nomask	3	16	453	0	300	300	0	0	369	46	1	0	anregung	vertrauen	sonnig	vergnügt	kuss	träumen	ausrottung	versagen	sterben	verbissen	krise	töten	kreativ	genießen	gesittet	engagiert	besonnen	gütig	krank	gemein	geizig	engstirnig	bange	gierig	1	blank2r.bmp	0	1	+	0	1	blank2r.bmp	500	1	DHJF	500	1	blank2r.bmp	880	3	sterben	880	1	!	-1	1	!	-1	0	0	0	0	0	0
2024-05-08	11:20:33	11:28:09	456107	6.6.1	4_exp_EVA_AWA_CON	17	A	B	Rpleas_acq	Same	Rpleas	1pleas	acq_US_unple_nomask	acq3_nomask	3	17	453	1	300	300	0	0	436	46	1	0	anregung	vertrauen	sonnig	vergnügt	kuss	träumen	ausrottung	versagen	sterben	verbissen	krise	töten	kreativ	genießen	gesittet	engagiert	besonnen	gütig	krank	gemein	geizig	engstirnig	bange	gierig	1	blank2r.bmp	0	1	+	0	1	blank2r.bmp	500	1	DHJF	500	1	blank2r.bmp	880	4	verbissen	880	1	!	1293	1	!	1337	0	0	0	0	0	0
2024-05-08	11:20:33	11:28:12	458474	6.6.1	4_exp_EVA_AWA_CON	17	A	B	Rpleas_acq	Same	Rpleas	1pleas	acq_US_pleas_nomask	acq3_nomask	3	18	453	0	300	300	0	0	593	50	1	0	anregung	vertrauen	sonnig	vergnügt	kuss	träumen	ausrottung	versagen	sterben	verbissen	krise	töten	kreativ	genießen	gesittet	engagiert	besonnen	gütig	krank	gemein	geizig	engstirnig	bange	gierig	1	blank2r.bmp	0	1	+	0	1	blank2r.bmp	500	1	CPLW	500	1	blank2r.bmp	880	6	träumen	880	1	!	1292	1	!	-1	0	0	0	0	0	0
2024-05-08	11:20:33	11:28:14	460846	6.6.1	4_exp_EVA_AWA_CON	17	A	B	Rpleas_acq	Same	Rpleas	1pleas	acq_US_pleas_nomask	acq3_nomask	3	19	453	0	300	300	0	0	389	46	0	0	anregung	vertrauen	sonnig	vergnügt	kuss	träumen	ausrottung	versagen	sterben	verbissen	krise	töten	kreativ	genießen	gesittet	engagiert	besonnen	gütig	krank	gemein	geizig	engstirnig	bange	gierig	1	blank2r.bmp	0	1	+	0	1	blank2r.bmp	500	1	CPLW	500	1	blank2r.bmp	880	4	vergnügt	880	1	FEHLER	1583	1	!	-1	1	!	-1	0	0	0
2024-05-08	11:20:33	11:28:17	463298	6.6.1	4_exp_EVA_AWA_CON	17	A	B	Rpleas_acq	Same	Rpleas	1pleas	acq_US_unple_nomask	acq3_nomask	3	20	453	0	300	300	0	0	874	46	1	0	anregung	vertrauen	sonnig	vergnügt	kuss	träumen	ausrottung	versagen	sterben	verbissen	krise	töten	kreativ	genießen	gesittet	engagiert	besonnen	gütig	krank	gemein	geizig	engstirnig	bange	gierig	1	blank2r.bmp	0	1	+	0	1	blank2r.bmp	500	1	DHJF	500	1	blank2r.bmp	880	2	versagen	880	1	!	1292	1	!	-1	0	0	0	0	0	0
2024-05-08	11:20:33	11:28:19	465706	6.6.1	4_exp_EVA_AWA_CON	17	A	B	Rpleas_acq	Same	Rpleas	1pleas	acq_US_unple_nomask	acq3_nomask	3	21	453	0	300	300	0	0	630	46	1	0	anregung	vertrauen	sonnig	vergnügt	kuss	träumen	ausrottung	versagen	sterben	verbissen	krise	töten	kreativ	genießen	gesittet	engagiert	besonnen	gütig	krank	gemein	geizig	engstirnig	bange	gierig	1	blank2r.bmp	0	1	+	0	1	blank2r.bmp	500	1	DHJF	500	1	blank2r.bmp	880	5	krise	880	1	!	1292	1	!	-1	0	0	0	0	0	0
2024-05-08	11:20:33	11:28:21	468009	6.6.1	4_exp_EVA_AWA_CON	17	A	B	Rpleas_acq	Same	Rpleas	1pleas	acq_US_unple_nomask	acq3_nomask	3	22	453	0	300	300	0	0	523	46	1	0	anregung	vertrauen	sonnig	vergnügt	kuss	träumen	ausrottung	versagen	sterben	verbissen	krise	töten	kreativ	genießen	gesittet	engagiert	besonnen	gütig	krank	gemein	geizig	engstirnig	bange	gierig	1	blank2r.bmp	0	1	+	0	1	blank2r.bmp	500	1	DHJF	500	1	blank2r.bmp	880	6	töten	880	1	!	1293	1	!	-1	0	0	0	0	0	0
2024-05-08	11:20:33	11:28:23	470138	6.6.1	4_exp_EVA_AWA_CON	17	A	B	Rpleas_acq	Same	Rpleas	1pleas	acq_US_pleas_nomask	acq3_nomask	3	23	453	0	300	300	0	0	349	50	1	0	anregung	vertrauen	sonnig	vergnügt	kuss	träumen	ausrottung	versagen	sterben	verbissen	krise	töten	kreativ	genießen	gesittet	engagiert	besonnen	gütig	krank	gemein	geizig	engstirnig	bange	gierig	1	blank2r.bmp	0	1	+	0	1	blank2r.bmp	500	1	CPLW	500	1	blank2r.bmp	880	3	sonnig	880	1	!	-1	1	!	-1	0	0	0	0	0	0
2024-05-08	11:20:33	11:28:26	472602	6.6.1	4_exp_EVA_AWA_CON	17	A	B	Rpleas_acq	Same	Rpleas	1pleas	acq_US_pleas_nomask	acq3_nomask	3	24	453	0	300	300	0	0	692	50	1	0	anregung	vertrauen	sonnig	vergnügt	kuss	träumen	ausrottung	versagen	sterben	verbissen	krise	töten	kreativ	genießen	gesittet	engagiert	besonnen	gütig	krank	gemein	geizig	engstirnig	bange	gierig	1	blank2r.bmp	0	1	+	0	1	blank2r.bmp	500	1	CPLW	500	1	blank2r.bmp	880	2	vertrauen	880	1	!	1292	1	!	-1	0	0	0	0	0	0
2024-05-08	11:20:33	11:28:28	474930	6.6.1	4_exp_EVA_AWA_CON	17	A	B	Rpleas_acq	Same	Rpleas	1pleas	acq_US_unple_nomask	acq3_nomask	3	25	453	0	300	300	0	0	548	46	1	0	anregung	vertrauen	sonnig	vergnügt	kuss	träumen	ausrottung	versagen	sterben	verbissen	krise	töten	kreativ	genießen	gesittet	engagiert	besonnen	gütig	krank	gemein	geizig	engstirnig	bange	gierig	1	blank2r.bmp	0	1	+	0	1	blank2r.bmp	500	1	DHJF	500	1	blank2r.bmp	880	2	versagen	880	1	!	1292	1	!	-1	0	0	0	0	0	0
2024-05-08	11:20:33	11:28:30	477172	6.6.1	4_exp_EVA_AWA_CON	17	A	B	Rpleas_acq	Same	Rpleas	1pleas	acq_US_pleas_nomask	acq3_nomask	3	26	453	1	300	300	0	0	466	50	1	0	anregung	vertrauen	sonnig	vergnügt	kuss	träumen	ausrottung	versagen	sterben	verbissen	krise	töten	kreativ	genießen	gesittet	engagiert	besonnen	gütig	krank	gemein	geizig	engstirnig	bange	gierig	1	blank2r.bmp	0	1	+	0	1	blank2r.bmp	500	1	CPLW	500	1	blank2r.bmp	880	5	kuss	880	1	!	1292	1	!	1368	0	0	0	0	0	0
2024-05-08	11:20:33	11:28:33	479490	6.6.1	4_exp_EVA_AWA_CON	17	A	B	Rpleas_acq	Same	Rpleas	1pleas	acq_US_pleas_nomask	acq3_nomask	3	27	453	0	300	300	0	0	545	50	1	0	anregung	vertrauen	sonnig	vergnügt	kuss	träumen	ausrottung	versagen	sterben	verbissen	krise	töten	kreativ	genießen	gesittet	engagiert	besonnen	gütig	krank	gemein	geizig	engstirnig	bange	gierig	1	blank2r.bmp	0	1	+	0	1	blank2r.bmp	500	1	CPLW	500	1	blank2r.bmp	880	1	anregung	880	1	!	1292	1	!	-1	0	0	0	0	0	0
2024-05-08	11:20:33	11:28:35	481755	6.6.1	4_exp_EVA_AWA_CON	17	A	B	Rpleas_acq	Same	Rpleas	1pleas	acq_US_unple_nomask	acq3_nomask	3	28	453	1	300	300	0	0	487	46	1	0	anregung	vertrauen	sonnig	vergnügt	kuss	träumen	ausrottung	versagen	sterben	verbissen	krise	töten	kreativ	genießen	gesittet	engagiert	besonnen	gütig	krank	gemein	geizig	engstirnig	bange	gierig	1	blank2r.bmp	0	1	+	0	1	blank2r.bmp	500	1	DHJF	500	1	blank2r.bmp	880	5	krise	880	1	!	1292	1	!	1389	0	0	0	0	0	0
2024-05-08	11:20:33	11:28:37	483995	6.6.1	4_exp_EVA_AWA_CON	17	A	B	Rpleas_acq	Same	Rpleas	1pleas	acq_US_unple_nomask	acq3_nomask	3	29	453	1	300	300	0	0	466	46	1	0	anregung	vertrauen	sonnig	vergnügt	kuss	träumen	ausrottung	versagen	sterben	verbissen	krise	töten	kreativ	genießen	gesittet	engagiert	besonnen	gütig	krank	gemein	geizig	engstirnig	bange	gierig	1	blank2r.bmp	0	1	+	0	1	blank2r.bmp	500	1	DHJF	500	1	blank2r.bmp	880	1	ausrottung	880	1	!	1292	1	!	1367	0	0	0	0	0	0
2024-05-08	11:20:33	11:28:40	486362	6.6.1	4_exp_EVA_AWA_CON	17	A	B	Rpleas_acq	Same	Rpleas	1pleas	acq_US_unple_nomask	acq3_nomask	3	30	453	0	300	300	0	0	593	46	1	0	anregung	vertrauen	sonnig	vergnügt	kuss	träumen	ausrottung	versagen	sterben	verbissen	krise	töten	kreativ	genießen	gesittet	engagiert	besonnen	gütig	krank	gemein	geizig	engstirnig	bange	gierig	1	blank2r.bmp	0	1	+	0	1	blank2r.bmp	500	1	DHJF	500	1	blank2r.bmp	880	6	töten	880	1	!	1292	1	!	-1	0	0	0	0	0	0
2024-05-08	11:20:33	11:28:42	488714	6.6.1	4_exp_EVA_AWA_CON	17	A	B	Rpleas_acq	Same	Rpleas	1pleas	acq_US_unple_nomask	acq3_nomask	3	31	453	0	300	300	0	0	573	46	1	0	anregung	vertrauen	sonnig	vergnügt	kuss	träumen	ausrottung	versagen	sterben	verbissen	krise	töten	kreativ	genießen	gesittet	engagiert	besonnen	gütig	krank	gemein	geizig	engstirnig	bange	gierig	1	blank2r.bmp	0	1	+	0	1	blank2r.bmp	500	1	DHJF	500	1	blank2r.bmp	880	3	sterben	880	1	!	1292	1	!	-1	0	0	0	0	0	0
2024-05-08	11:20:33	11:28:44	490931	6.6.1	4_exp_EVA_AWA_CON	17	A	B	Rpleas_acq	Same	Rpleas	1pleas	acq_US_pleas_nomask	acq3_nomask	3	32	453	1	300	300	0	0	438	50	1	0	anregung	vertrauen	sonnig	vergnügt	kuss	träumen	ausrottung	versagen	sterben	verbissen	krise	töten	kreativ	genießen	gesittet	engagiert	besonnen	gütig	krank	gemein	geizig	engstirnig	bange	gierig	1	blank2r.bmp	0	1	+	0	1	blank2r.bmp	500	1	CPLW	500	1	blank2r.bmp	880	4	vergnügt	880	1	!	1293	1	!	1339	0	0	0	0	0	0
2024-05-08	11:20:33	11:28:46	493090	6.6.1	4_exp_EVA_AWA_CON	17	A	B	Rpleas_acq	Same	Rpleas	1pleas	acq_US_pleas_nomask	acq3_nomask	3	33	453	0	300	300	0	0	386	50	1	0	anregung	vertrauen	sonnig	vergnügt	kuss	träumen	ausrottung	versagen	sterben	verbissen	krise	töten	kreativ	genießen	gesittet	engagiert	besonnen	gütig	krank	gemein	geizig	engstirnig	bange	gierig	1	blank2r.bmp	0	1	+	0	1	blank2r.bmp	500	1	CPLW	500	1	blank2r.bmp	880	6	träumen	880	1	!	-1	1	!	-1	0	0	0	0	0	0
2024-05-08	11:20:33	11:28:49	495565	6.6.1	4_exp_EVA_AWA_CON	17	A	B	Rpleas_acq	Same	Rpleas	1pleas	acq_US_pleas_nomask	acq3_nomask	3	34	453	1	300	300	0	0	497	46	0	0	anregung	vertrauen	sonnig	vergnügt	kuss	träumen	ausrottung	versagen	sterben	verbissen	krise	töten	kreativ	genießen	gesittet	engagiert	besonnen	gütig	krank	gemein	geizig	engstirnig	bange	gierig	1	blank2r.bmp	0	1	+	0	1	blank2r.bmp	500	1	CPLW	500	1	blank2r.bmp	880	2	vertrauen	880	1	FEHLER	1690	1	!	1292	1	!	1398	0	0	0
2024-05-08	11:20:33	11:28:51	497628	6.6.1	4_exp_EVA_AWA_CON	17	A	B	Rpleas_acq	Same	Rpleas	1pleas	acq_US_unple_nomask	acq3_nomask	3	35	453	1	300	300	0	0	489	46	1	0	anregung	vertrauen	sonnig	vergnügt	kuss	träumen	ausrottung	versagen	sterben	verbissen	krise	töten	kreativ	genießen	gesittet	engagiert	besonnen	gütig	krank	gemein	geizig	engstirnig	bange	gierig	1	blank2r.bmp	0	1	+	0	1	blank2r.bmp	500	1	DHJF	500	1	blank2r.bmp	880	4	verbissen	880	1	!	1293	1	!	1391	0	0	0	0	0	0
2024-05-08	11:20:33	11:28:53	500058	6.6.1	4_exp_EVA_AWA_CON	17	A	B	Rpleas_acq	Same	Rpleas	1pleas	acq_US_pleas_nomask	acq3_nomask	3	36	453	0	300	300	0	0	650	50	1	0	anregung	vertrauen	sonnig	vergnügt	kuss	träumen	ausrottung	versagen	sterben	verbissen	krise	töten	kreativ	genießen	gesittet	engagiert	besonnen	gütig	krank	gemein	geizig	engstirnig	bange	gierig	1	blank2r.bmp	0	1	+	0	1	blank2r.bmp	500	1	CPLW	500	1	blank2r.bmp	880	3	sonnig	880	1	!	1292	1	!	-1	0	0	0	0	0	0
2024-05-08	11:20:33	11:29:09	515250	6.6.1	4_exp_EVA_AWA_CON	17	A	B	Rpleas_acq	Same	Rpleas	1pleas	acq_US_pleas_nomask	acq45_nomask	4	1	400	0	300	300	0	0	502	50	1	0	anregung	vertrauen	sonnig	vergnügt	kuss	träumen	ausrottung	versagen	sterben	verbissen	krise	töten	kreativ	genießen	gesittet	engagiert	besonnen	gütig	krank	gemein	geizig	engstirnig	bange	gierig	1	blank2r.bmp	0	1	+	0	1	blank2r.bmp	500	1	CPLW	500	1	blank2r.bmp	880	6	träumen	880	1	!	1233	1	!	-1	0	0	0	0	0	0
2024-05-08	11:20:33	11:29:11	517404	6.6.1	4_exp_EVA_AWA_CON	17	A	B	Rpleas_acq	Same	Rpleas	1pleas	acq_US_unple_nomask	acq45_nomask	4	2	400	1	300	300	0	0	372	46	1	0	anregung	vertrauen	sonnig	vergnügt	kuss	träumen	ausrottung	versagen	sterben	verbissen	krise	töten	kreativ	genießen	gesittet	engagiert	besonnen	gütig	krank	gemein	geizig	engstirnig	bange	gierig	1	blank2r.bmp	0	1	+	0	1	blank2r.bmp	500	1	DHJF	500	1	blank2r.bmp	880	2	versagen	880	1	!	1232	1	!	1274	0	0	0	0	0	0
2024-05-08	11:20:33	11:29:13	519794	6.6.1	4_exp_EVA_AWA_CON	17	A	B	Rpleas_acq	Same	Rpleas	1pleas	acq_US_pleas_nomask	acq45_nomask	4	3	400	0	300	300	0	0	613	50	1	0	anregung	vertrauen	sonnig	vergnügt	kuss	träumen	ausrottung	versagen	sterben	verbissen	krise	töten	kreativ	genießen	gesittet	engagiert	besonnen	gütig	krank	gemein	geizig	engstirnig	bange	gierig	1	blank2r.bmp	0	1	+	0	1	blank2r.bmp	500	1	CPLW	500	1	blank2r.bmp	880	2	vertrauen	880	1	!	1233	1	!	-1	0	0	0	0	0	0
2024-05-08	11:20:33	11:29:15	522066	6.6.1	4_exp_EVA_AWA_CON	17	A	B	Rpleas_acq	Same	Rpleas	1pleas	acq_US_unple_nomask	acq45_nomask	4	4	400	0	300	300	0	0	494	50	0	0	anregung	vertrauen	sonnig	vergnügt	kuss	träumen	ausrottung	versagen	sterben	verbissen	krise	töten	kreativ	genießen	gesittet	engagiert	besonnen	gütig	krank	gemein	geizig	engstirnig	bange	gierig	1	blank2r.bmp	0	1	+	0	1	blank2r.bmp	500	1	DHJF	500	1	blank2r.bmp	880	1	ausrottung	880	1	!	1232	1	!	-1	0	0	0	0	0	0
2024-05-08	11:20:33	11:29:18	524410	6.6.1	4_exp_EVA_AWA_CON	17	A	B	Rpleas_acq	Same	Rpleas	1pleas	acq_US_unple_nomask	acq45_nomask	4	5	400	0	300	300	0	0	566	46	1	0	anregung	vertrauen	sonnig	vergnügt	kuss	träumen	ausrottung	versagen	sterben	verbissen	krise	töten	kreativ	genießen	gesittet	engagiert	besonnen	gütig	krank	gemein	geizig	engstirnig	bange	gierig	1	blank2r.bmp	0	1	+	0	1	blank2r.bmp	500	1	DHJF	500	1	blank2r.bmp	880	4	verbissen	880	1	!	1232	1	!	-1	0	0	0	0	0	0
2024-05-08	11:20:33	11:29:20	526571	6.6.1	4_exp_EVA_AWA_CON	17	A	B	Rpleas_acq	Same	Rpleas	1pleas	acq_US_pleas_nomask	acq45_nomask	4	6	400	1	300	300	0	0	385	50	1	0	anregung	vertrauen	sonnig	vergnügt	kuss	träumen	ausrottung	versagen	sterben	verbissen	krise	töten	kreativ	genießen	gesittet	engagiert	besonnen	gütig	krank	gemein	geizig	engstirnig	bange	gierig	1	blank2r.bmp	0	1	+	0	1	blank2r.bmp	500	1	CPLW	500	1	blank2r.bmp	880	4	vergnügt	880	1	!	1232	1	!	1286	0	0	0	0	0	0
2024-05-08	11:20:33	11:29:22	528882	6.6.1	4_exp_EVA_AWA_CON	17	A	B	Rpleas_acq	Same	Rpleas	1pleas	acq_US_unple_nomask	acq45_nomask	4	7	400	0	300	300	0	0	535	46	1	0	anregung	vertrauen	sonnig	vergnügt	kuss	träumen	ausrottung	versagen	sterben	verbissen	krise	töten	kreativ	genießen	gesittet	engagiert	besonnen	gütig	krank	gemein	geizig	engstirnig	bange	gierig	1	blank2r.bmp	0	1	+	0	1	blank2r.bmp	500	1	DHJF	500	1	blank2r.bmp	880	5	krise	880	1	!	1232	1	!	-1	0	0	0	0	0	0
2024-05-08	11:20:33	11:29:24	531146	6.6.1	4_exp_EVA_AWA_CON	17	A	B	Rpleas_acq	Same	Rpleas	1pleas	acq_US_pleas_nomask	acq45_nomask	4	8	400	0	300	300	0	0	488	50	1	0	anregung	vertrauen	sonnig	vergnügt	kuss	träumen	ausrottung	versagen	sterben	verbissen	krise	töten	kreativ	genießen	gesittet	engagiert	besonnen	gütig	krank	gemein	geizig	engstirnig	bange	gierig	1	blank2r.bmp	0	1	+	0	1	blank2r.bmp	500	1	CPLW	500	1	blank2r.bmp	880	1	anregung	880	1	!	1232	1	!	-1	0	0	0	0	0	0
2024-05-08	11:20:33	11:29:27	533258	6.6.1	4_exp_EVA_AWA_CON	17	A	B	Rpleas_acq	Same	Rpleas	1pleas	acq_US_pleas_nomask	acq45_nomask	4	9	400	1	300	300	0	0	338	50	1	0	anregung	vertrauen	sonnig	vergnügt	kuss	träumen	ausrottung	versagen	sterben	verbissen	krise	töten	kreativ	genießen	gesittet	engagiert	besonnen	gütig	krank	gemein	geizig	engstirnig	bange	gierig	1	blank2r.bmp	0	1	+	0	1	blank2r.bmp	500	1	CPLW	500	1	blank2r.bmp	880	3	sonnig	880	1	!	1233	1	!	1238	0	0	0	0	0	0
2024-05-08	11:20:33	11:29:29	535538	6.6.1	4_exp_EVA_AWA_CON	17	A	B	Rpleas_acq	Same	Rpleas	1pleas	acq_US_unple_nomask	acq45_nomask	4	10	400	0	300	300	0	0	507	46	1	0	anregung	vertrauen	sonnig	vergnügt	kuss	träumen	ausrottung	versagen	sterben	verbissen	krise	töten	kreativ	genießen	gesittet	engagiert	besonnen	gütig	krank	gemein	geizig	engstirnig	bange	gierig	1	blank2r.bmp	0	1	+	0	1	blank2r.bmp	500	1	DHJF	500	1	blank2r.bmp	880	6	töten	880	1	!	1232	1	!	-1	0	0	0	0	0	0
2024-05-08	11:20:33	11:29:31	537691	6.6.1	4_exp_EVA_AWA_CON	17	A	B	Rpleas_acq	Same	Rpleas	1pleas	acq_US_pleas_nomask	acq45_nomask	4	11	400	1	300	300	0	0	377	46	0	0	anregung	vertrauen	sonnig	vergnügt	kuss	träumen	ausrottung	versagen	sterben	verbissen	krise	töten	kreativ	genießen	gesittet	engagiert	besonnen	gütig	krank	gemein	geizig	engstirnig	bange	gierig	1	blank2r.bmp	0	1	+	0	1	blank2r.bmp	500	1	CPLW	500	1	blank2r.bmp	880	5	kuss	880	1	!	1232	1	!	1279	0	0	0	0	0	0
2024-05-08	11:20:33	11:29:33	539932	6.6.1	4_exp_EVA_AWA_CON	17	A	B	Rpleas_acq	Same	Rpleas	1pleas	acq_US_unple_nomask	acq45_nomask	4	12	400	1	300	300	0	0	466	46	1	0	anregung	vertrauen	sonnig	vergnügt	kuss	träumen	ausrottung	versagen	sterben	verbissen	krise	töten	kreativ	genießen	gesittet	engagiert	besonnen	gütig	krank	gemein	geizig	engstirnig	bange	gierig	1	blank2r.bmp	0	1	+	0	1	blank2r.bmp	500	1	DHJF	500	1	blank2r.bmp	880	3	sterben	880	1	!	1232	1	!	1367	0	0	0	0	0	0
2024-05-08	11:20:33	11:29:35	542164	6.6.1	4_exp_EVA_AWA_CON	17	A	B	Rpleas_acq	Same	Rpleas	1pleas	acq_US_unple_nomask	acq45_nomask	4	13	400	1	300	300	0	0	457	46	1	0	anregung	vertrauen	sonnig	vergnügt	kuss	träumen	ausrottung	versagen	sterben	verbissen	krise	töten	kreativ	genießen	gesittet	engagiert	besonnen	gütig	krank	gemein	geizig	engstirnig	bange	gierig	1	blank2r.bmp	0	1	+	0	1	blank2r.bmp	500	1	DHJF	500	1	blank2r.bmp	880	1	ausrottung	880	1	!	1233	1	!	1358	0	0	0	0	0	0
2024-05-08	11:20:33	11:29:38	544498	6.6.1	4_exp_EVA_AWA_CON	17	A	B	Rpleas_acq	Same	Rpleas	1pleas	acq_US_pleas_nomask	acq45_nomask	4	14	400	0	300	300	0	0	561	50	1	0	anregung	vertrauen	sonnig	vergnügt	kuss	träumen	ausrottung	versagen	sterben	verbissen	krise	töten	kreativ	genießen	gesittet	engagiert	besonnen	gütig	krank	gemein	geizig	engstirnig	bange	gierig	1	blank2r.bmp	0	1	+	0	1	blank2r.bmp	500	1	CPLW	500	1	blank2r.bmp	880	1	anregung	880	1	!	1233	1	!	-1	0	0	0	0	0	0
2024-05-08	11:20:33	11:29:40	546779	6.6.1	4_exp_EVA_AWA_CON	17	A	B	Rpleas_acq	Same	Rpleas	1pleas	acq_US_unple_nomask	acq45_nomask	4	15	400	0	300	300	0	0	500	46	1	0	anregung	vertrauen	sonnig	vergnügt	kuss	träumen	ausrottung	versagen	sterben	verbissen	krise	töten	kreativ	genießen	gesittet	engagiert	besonnen	gütig	krank	gemein	geizig	engstirnig	bange	gierig	1	blank2r.bmp	0	1	+	0	1	blank2r.bmp	500	1	DHJF	500	1	blank2r.bmp	880	5	krise	880	1	!	1232	1	!	-1	0	0	0	0	0	0
2024-05-08	11:20:33	11:29:42	548874	6.6.1	4_exp_EVA_AWA_CON	17	A	B	Rpleas_acq	Same	Rpleas	1pleas	acq_US_pleas_nomask	acq45_nomask	4	16	400	0	300	300	0	0	314	50	1	0	anregung	vertrauen	sonnig	vergnügt	kuss	träumen	ausrottung	versagen	sterben	verbissen	krise	töten	kreativ	genießen	gesittet	engagiert	besonnen	gütig	krank	gemein	geizig	engstirnig	bange	gierig	1	blank2r.bmp	0	1	+	0	1	blank2r.bmp	500	1	CPLW	500	1	blank2r.bmp	880	2	vertrauen	880	1	!	-1	1	!	-1	0	0	0	0	0	0
2024-05-08	11:20:33	11:29:44	551162	6.6.1	4_exp_EVA_AWA_CON	17	A	B	Rpleas_acq	Same	Rpleas	1pleas	acq_US_unple_nomask	acq45_nomask	4	17	400	0	300	300	0	0	511	46	1	0	anregung	vertrauen	sonnig	vergnügt	kuss	träumen	ausrottung	versagen	sterben	verbissen	krise	töten	kreativ	genießen	gesittet	engagiert	besonnen	gütig	krank	gemein	geizig	engstirnig	bange	gierig	1	blank2r.bmp	0	1	+	0	1	blank2r.bmp	500	1	DHJF	500	1	blank2r.bmp	880	6	töten	880	1	!	1232	1	!	-1	0	0	0	0	0	0
2024-05-08	11:20:33	11:29:47	553411	6.6.1	4_exp_EVA_AWA_CON	17	A	B	Rpleas_acq	Same	Rpleas	1pleas	acq_US_pleas_nomask	acq45_nomask	4	18	400	1	300	300	0	0	467	46	0	0	anregung	vertrauen	sonnig	vergnügt	kuss	träumen	ausrottung	versagen	sterben	verbissen	krise	töten	kreativ	genießen	gesittet	engagiert	besonnen	gütig	krank	gemein	geizig	engstirnig	bange	gierig	1	blank2r.bmp	0	1	+	0	1	blank2r.bmp	500	1	CPLW	500	1	blank2r.bmp	880	6	träumen	880	1	!	1232	1	!	1369	0	0	0	0	0	0
2024-05-08	11:20:33	11:29:49	555674	6.6.1	4_exp_EVA_AWA_CON	17	A	B	Rpleas_acq	Same	Rpleas	1pleas	acq_US_pleas_nomask	acq45_nomask	4	19	400	0	300	300	0	0	490	50	1	0	anregung	vertrauen	sonnig	vergnügt	kuss	träumen	ausrottung	versagen	sterben	verbissen	krise	töten	kreativ	genießen	gesittet	engagiert	besonnen	gütig	krank	gemein	geizig	engstirnig	bange	gierig	1	blank2r.bmp	0	1	+	0	1	blank2r.bmp	500	1	CPLW	500	1	blank2r.bmp	880	5	kuss	880	1	!	1233	1	!	-1	0	0	0	0	0	0
2024-05-08	11:20:33	11:29:51	557970	6.6.1	4_exp_EVA_AWA_CON	17	A	B	Rpleas_acq	Same	Rpleas	1pleas	acq_US_unple_nomask	acq45_nomask	4	20	400	0	300	300	0	0	515	46	1	0	anregung	vertrauen	sonnig	vergnügt	kuss	träumen	ausrottung	versagen	sterben	verbissen	krise	töten	kreativ	genießen	gesittet	engagiert	besonnen	gütig	krank	gemein	geizig	engstirnig	bange	gierig	1	blank2r.bmp	0	1	+	0	1	blank2r.bmp	500	1	DHJF	500	1	blank2r.bmp	880	3	sterben	880	1	!	1232	1	!	-1	0	0	0	0	0	0
2024-05-08	11:20:33	11:29:53	560224	6.6.1	4_exp_EVA_AWA_CON	17	A	B	Rpleas_acq	Same	Rpleas	1pleas	acq_US_pleas_nomask	acq45_nomask	4	21	400	0	300	300	0	0	479	50	1	0	anregung	vertrauen	sonnig	vergnügt	kuss	träumen	ausrottung	versagen	sterben	verbissen	krise	töten	kreativ	genießen	gesittet	engagiert	besonnen	gütig	krank	gemein	geizig	engstirnig	bange	gierig	1	blank2r.bmp	0	1	+	0	1	blank2r.bmp	500	1	CPLW	500	1	blank2r.bmp	880	4	vergnügt	880	1	!	1233	1	!	-1	0	0	0	0	0	0
2024-05-08	11:20:33	11:29:56	562451	6.6.1	4_exp_EVA_AWA_CON	17	A	B	Rpleas_acq	Same	Rpleas	1pleas	acq_US_unple_nomask	acq45_nomask	4	22	400	1	300	300	0	0	452	46	1	0	anregung	vertrauen	sonnig	vergnügt	kuss	träumen	ausrottung	versagen	sterben	verbissen	krise	töten	kreativ	genießen	gesittet	engagiert	besonnen	gütig	krank	gemein	geizig	engstirnig	bange	gierig	1	blank2r.bmp	0	1	+	0	1	blank2r.bmp	500	1	DHJF	500	1	blank2r.bmp	880	4	verbissen	880	1	!	1232	1	!	1353	0	0	0	0	0	0
2024-05-08	11:20:33	11:29:58	564714	6.6.1	4_exp_EVA_AWA_CON	17	A	B	Rpleas_acq	Same	Rpleas	1pleas	acq_US_unple_nomask	acq45_nomask	4	23	400	0	300	300	0	0	484	50	0	0	anregung	vertrauen	sonnig	vergnügt	kuss	träumen	ausrottung	versagen	sterben	verbissen	krise	töten	kreativ	genießen	gesittet	engagiert	besonnen	gütig	krank	gemein	geizig	engstirnig	bange	gierig	1	blank2r.bmp	0	1	+	0	1	blank2r.bmp	500	1	DHJF	500	1	blank2r.bmp	880	2	versagen	880	1	!	1232	1	!	-1	0	0	0	0	0	0
2024-05-08	11:20:33	11:30:00	567002	6.6.1	4_exp_EVA_AWA_CON	17	A	B	Rpleas_acq	Same	Rpleas	1pleas	acq_US_unple_nomask	acq45_nomask	4	24	400	0	300	300	0	0	511	46	1	0	anregung	vertrauen	sonnig	vergnügt	kuss	träumen	ausrottung	versagen	sterben	verbissen	krise	töten	kreativ	genießen	gesittet	engagiert	besonnen	gütig	krank	gemein	geizig	engstirnig	bange	gierig	1	blank2r.bmp	0	1	+	0	1	blank2r.bmp	500	1	DHJF	500	1	blank2r.bmp	880	5	krise	880	1	!	1232	1	!	-1	0	0	0	0	0	0
2024-05-08	11:20:33	11:30:02	569171	6.6.1	4_exp_EVA_AWA_CON	17	A	B	Rpleas_acq	Same	Rpleas	1pleas	acq_US_pleas_nomask	acq45_nomask	4	25	400	1	300	300	0	0	387	50	1	0	anregung	vertrauen	sonnig	vergnügt	kuss	träumen	ausrottung	versagen	sterben	verbissen	krise	töten	kreativ	genießen	gesittet	engagiert	besonnen	gütig	krank	gemein	geizig	engstirnig	bange	gierig	1	blank2r.bmp	0	1	+	0	1	blank2r.bmp	500	1	CPLW	500	1	blank2r.bmp	880	3	sonnig	880	1	!	1232	1	!	1288	0	0	0	0	0	0
2024-05-08	11:20:33	11:30:05	571372	6.6.1	4_exp_EVA_AWA_CON	17	A	B	Rpleas_acq	Same	Rpleas	1pleas	acq_US_unple_nomask	acq45_nomask	4	26	400	1	300	300	0	0	426	46	1	0	anregung	vertrauen	sonnig	vergnügt	kuss	träumen	ausrottung	versagen	sterben	verbissen	krise	töten	kreativ	genießen	gesittet	engagiert	besonnen	gütig	krank	gemein	geizig	engstirnig	bange	gierig	1	blank2r.bmp	0	1	+	0	1	blank2r.bmp	500	1	DHJF	500	1	blank2r.bmp	880	6	töten	880	1	!	1233	1	!	1327	0	0	0	0	0	0
2024-05-08	11:20:33	11:30:07	573604	6.6.1	4_exp_EVA_AWA_CON	17	A	B	Rpleas_acq	Same	Rpleas	1pleas	acq_US_pleas_nomask	acq45_nomask	4	27	400	1	300	300	0	0	457	50	1	0	anregung	vertrauen	sonnig	vergnügt	kuss	träumen	ausrottung	versagen	sterben	verbissen	krise	töten	kreativ	genießen	gesittet	engagiert	besonnen	gütig	krank	gemein	geizig	engstirnig	bange	gierig	1	blank2r.bmp	0	1	+	0	1	blank2r.bmp	500	1	CPLW	500	1	blank2r.bmp	880	4	vergnügt	880	1	!	1232	1	!	1358	0	0	0	0	0	0
2024-05-08	11:20:33	11:30:09	575772	6.6.1	4_exp_EVA_AWA_CON	17	A	B	Rpleas_acq	Same	Rpleas	1pleas	acq_US_pleas_nomask	acq45_nomask	4	28	400	1	300	300	0	0	393	50	1	0	anregung	vertrauen	sonnig	vergnügt	kuss	träumen	ausrottung	versagen	sterben	verbissen	krise	töten	kreativ	genießen	gesittet	engagiert	besonnen	gütig	krank	gemein	geizig	engstirnig	bange	gierig	1	blank2r.bmp	0	1	+	0	1	blank2r.bmp	500	1	CPLW	500	1	blank2r.bmp	880	5	kuss	880	1	!	1232	1	!	1294	0	0	0	0	0	0
2024-05-08	11:20:33	11:30:11	578024	6.6.1	4_exp_EVA_AWA_CON	17	A	B	Rpleas_acq	Same	Rpleas	1pleas	acq_US_pleas_nomask	acq45_nomask	4	29	400	0	300	300	0	0	478	50	1	0	anregung	vertrauen	sonnig	vergnügt	kuss	träumen	ausrottung	versagen	sterben	verbissen	krise	töten	kreativ	genießen	gesittet	engagiert	besonnen	gütig	krank	gemein	geizig	engstirnig	bange	gierig	1	blank2r.bmp	0	1	+	0	1	blank2r.bmp	500	1	CPLW	500	1	blank2r.bmp	880	6	träumen	880	1	!	1233	1	!	-1	0	0	0	0	0	0
2024-05-08	11:20:33	11:30:14	580306	6.6.1	4_exp_EVA_AWA_CON	17	A	B	Rpleas_acq	Same	Rpleas	1pleas	acq_US_unple_nomask	acq45_nomask	4	30	400	0	300	300	0	0	506	46	1	0	anregung	vertrauen	sonnig	vergnügt	kuss	träumen	ausrottung	versagen	sterben	verbissen	krise	töten	kreativ	genießen	gesittet	engagiert	besonnen	gütig	krank	gemein	geizig	engstirnig	bange	gierig	1	blank2r.bmp	0	1	+	0	1	blank2r.bmp	500	1	DHJF	500	1	blank2r.bmp	880	4	verbissen	880	1	!	1233	1	!	-1	0	0	0	0	0	0
2024-05-08	11:20:33	11:30:16	582560	6.6.1	4_exp_EVA_AWA_CON	17	A	B	Rpleas_acq	Same	Rpleas	1pleas	acq_US_unple_nomask	acq45_nomask	4	31	400	0	300	300	0	0	481	46	1	0	anregung	vertrauen	sonnig	vergnügt	kuss	träumen	ausrottung	versagen	sterben	verbissen	krise	töten	kreativ	genießen	gesittet	engagiert	besonnen	gütig	krank	gemein	geizig	engstirnig	bange	gierig	1	blank2r.bmp	0	1	+	0	1	blank2r.bmp	500	1	DHJF	500	1	blank2r.bmp	880	2	versagen	880	1	!	1232	1	!	-1	0	0	0	0	0	0
2024-05-08	11:20:33	11:30:18	584826	6.6.1	4_exp_EVA_AWA_CON	17	A	B	Rpleas_acq	Same	Rpleas	1pleas	acq_US_pleas_nomask	acq45_nomask	4	32	400	0	300	300	0	0	493	50	1	0	anregung	vertrauen	sonnig	vergnügt	kuss	träumen	ausrottung	versagen	sterben	verbissen	krise	töten	kreativ	genießen	gesittet	engagiert	besonnen	gütig	krank	gemein	geizig	engstirnig	bange	gierig	1	blank2r.bmp	0	1	+	0	1	blank2r.bmp	500	1	CPLW	500	1	blank2r.bmp	880	2	vertrauen	880	1	!	1232	1	!	-1	0	0	0	0	0	0
2024-05-08	11:20:33	11:30:20	586956	6.6.1	4_exp_EVA_AWA_CON	17	A	B	Rpleas_acq	Same	Rpleas	1pleas	acq_US_pleas_nomask	acq45_nomask	4	33	400	1	300	300	0	0	350	50	1	0	anregung	vertrauen	sonnig	vergnügt	kuss	träumen	ausrottung	versagen	sterben	verbissen	krise	töten	kreativ	genießen	gesittet	engagiert	besonnen	gütig	krank	gemein	geizig	engstirnig	bange	gierig	1	blank2r.bmp	0	1	+	0	1	blank2r.bmp	500	1	CPLW	500	1	blank2r.bmp	880	3	sonnig	880	1	!	1232	1	!	1252	0	0	0	0	0	0
2024-05-08	11:20:33	11:30:22	589242	6.6.1	4_exp_EVA_AWA_CON	17	A	B	Rpleas_acq	Same	Rpleas	1pleas	acq_US_pleas_nomask	acq45_nomask	4	34	400	0	300	300	0	0	506	50	1	0	anregung	vertrauen	sonnig	vergnügt	kuss	träumen	ausrottung	versagen	sterben	verbissen	krise	töten	kreativ	genießen	gesittet	engagiert	besonnen	gütig	krank	gemein	geizig	engstirnig	bange	gierig	1	blank2r.bmp	0	1	+	0	1	blank2r.bmp	500	1	CPLW	500	1	blank2r.bmp	880	1	anregung	880	1	!	1233	1	!	-1	0	0	0	0	0	0
2024-05-08	11:20:33	11:30:25	591443	6.6.1	4_exp_EVA_AWA_CON	17	A	B	Rpleas_acq	Same	Rpleas	1pleas	acq_US_unple_nomask	acq45_nomask	4	35	400	1	300	300	0	0	425	46	1	0	anregung	vertrauen	sonnig	vergnügt	kuss	träumen	ausrottung	versagen	sterben	verbissen	krise	töten	kreativ	genießen	gesittet	engagiert	besonnen	gütig	krank	gemein	geizig	engstirnig	bange	gierig	1	blank2r.bmp	0	1	+	0	1	blank2r.bmp	500	1	DHJF	500	1	blank2r.bmp	880	1	ausrottung	880	1	!	1232	1	!	1326	0	0	0	0	0	0
2024-05-08	11:20:33	11:30:27	593826	6.6.1	4_exp_EVA_AWA_CON	17	A	B	Rpleas_acq	Same	Rpleas	1pleas	acq_US_unple_nomask	acq45_nomask	4	36	400	0	300	300	0	0	608	46	1	0	anregung	vertrauen	sonnig	vergnügt	kuss	träumen	ausrottung	versagen	sterben	verbissen	krise	töten	kreativ	genießen	gesittet	engagiert	besonnen	gütig	krank	gemein	geizig	engstirnig	bange	gierig	1	blank2r.bmp	0	1	+	0	1	blank2r.bmp	500	1	DHJF	500	1	blank2r.bmp	880	3	sterben	880	1	!	1232	1	!	-1	0	0	0	0	0	0
2024-05-08	11:20:33	11:30:39	605464	6.6.1	4_exp_EVA_AWA_CON	17	A	B	Rpleas_acq	Same	Rpleas	1pleas	acq_US_unple_nomask	acq45_nomask	5	1	400	0	300	300	0	0	480	46	1	0	anregung	vertrauen	sonnig	vergnügt	kuss	träumen	ausrottung	versagen	sterben	verbissen	krise	töten	kreativ	genießen	gesittet	engagiert	besonnen	gütig	krank	gemein	geizig	engstirnig	bange	gierig	1	blank2r.bmp	0	1	+	0	1	blank2r.bmp	500	1	DHJF	500	1	blank2r.bmp	880	5	krise	880	1	!	1232	1	!	-1	0	0	0	0	0	0
2024-05-08	11:20:33	11:30:41	607611	6.6.1	4_exp_EVA_AWA_CON	17	A	B	Rpleas_acq	Same	Rpleas	1pleas	acq_US_pleas_nomask	acq45_nomask	5	2	400	1	300	300	0	0	373	50	1	0	anregung	vertrauen	sonnig	vergnügt	kuss	träumen	ausrottung	versagen	sterben	verbissen	krise	töten	kreativ	genießen	gesittet	engagiert	besonnen	gütig	krank	gemein	geizig	engstirnig	bange	gierig	1	blank2r.bmp	0	1	+	0	1	blank2r.bmp	500	1	CPLW	500	1	blank2r.bmp	880	3	sonnig	880	1	!	1232	1	!	1274	0	0	0	0	0	0
2024-05-08	11:20:33	11:30:43	609922	6.6.1	4_exp_EVA_AWA_CON	17	A	B	Rpleas_acq	Same	Rpleas	1pleas	acq_US_pleas_nomask	acq45_nomask	5	3	400	0	300	300	0	0	533	50	1	0	anregung	vertrauen	sonnig	vergnügt	kuss	träumen	ausrottung	versagen	sterben	verbissen	krise	töten	kreativ	genießen	gesittet	engagiert	besonnen	gütig	krank	gemein	geizig	engstirnig	bange	gierig	1	blank2r.bmp	0	1	+	0	1	blank2r.bmp	500	1	CPLW	500	1	blank2r.bmp	880	1	anregung	880	1	!	1232	1	!	-1	0	0	0	0	0	0
2024-05-08	11:20:33	11:30:45	612210	6.6.1	4_exp_EVA_AWA_CON	17	A	B	Rpleas_acq	Same	Rpleas	1pleas	acq_US_unple_nomask	acq45_nomask	5	4	400	0	300	300	0	0	510	46	1	0	anregung	vertrauen	sonnig	vergnügt	kuss	träumen	ausrottung	versagen	sterben	verbissen	krise	töten	kreativ	genießen	gesittet	engagiert	besonnen	gütig	krank	gemein	geizig	engstirnig	bange	gierig	1	blank2r.bmp	0	1	+	0	1	blank2r.bmp	500	1	DHJF	500	1	blank2r.bmp	880	3	sterben	880	1	!	1232	1	!	-1	0	0	0	0	0	0
2024-05-08	11:20:33	11:30:48	614459	6.6.1	4_exp_EVA_AWA_CON	17	A	B	Rpleas_acq	Same	Rpleas	1pleas	acq_US_pleas_nomask	acq45_nomask	5	5	400	1	300	300	0	0	466	50	1	0	anregung	vertrauen	sonnig	vergnügt	kuss	träumen	ausrottung	versagen	sterben	verbissen	krise	töten	kreativ	genießen	gesittet	engagiert	besonnen	gütig	krank	gemein	geizig	engstirnig	bange	gierig	1	blank2r.bmp	0	1	+	0	1	blank2r.bmp	500	1	CPLW	500	1	blank2r.bmp	880	2	vertrauen	880	1	!	1232	1	!	1368	0	0	0	0	0	0
2024-05-08	11:20:33	11:30:50	616667	6.6.1	4_exp_EVA_AWA_CON	17	A	B	Rpleas_acq	Same	Rpleas	1pleas	acq_US_unple_nomask	acq45_nomask	5	6	400	1	300	300	0	0	433	46	1	0	anregung	vertrauen	sonnig	vergnügt	kuss	träumen	ausrottung	versagen	sterben	verbissen	krise	töten	kreativ	genießen	gesittet	engagiert	besonnen	gütig	krank	gemein	geizig	engstirnig	bange	gierig	1	blank2r.bmp	0	1	+	0	1	blank2r.bmp	500	1	DHJF	500	1	blank2r.bmp	880	1	ausrottung	880	1	!	1232	1	!	1334	0	0	0	0	0	0
2024-05-08	11:20:33	11:30:52	618938	6.6.1	4_exp_EVA_AWA_CON	17	A	B	Rpleas_acq	Same	Rpleas	1pleas	acq_US_unple_nomask	acq45_nomask	5	7	400	0	300	300	0	0	493	50	0	0	anregung	vertrauen	sonnig	vergnügt	kuss	träumen	ausrottung	versagen	sterben	verbissen	krise	töten	kreativ	genießen	gesittet	engagiert	besonnen	gütig	krank	gemein	geizig	engstirnig	bange	gierig	1	blank2r.bmp	0	1	+	0	1	blank2r.bmp	500	1	DHJF	500	1	blank2r.bmp	880	2	versagen	880	1	!	1232	1	!	-1	0	0	0	0	0	0
2024-05-08	11:20:33	11:30:54	621218	6.6.1	4_exp_EVA_AWA_CON	17	A	B	Rpleas_acq	Same	Rpleas	1pleas	acq_US_pleas_nomask	acq45_nomask	5	8	400	0	300	300	0	0	502	50	1	0	anregung	vertrauen	sonnig	vergnügt	kuss	träumen	ausrottung	versagen	sterben	verbissen	krise	töten	kreativ	genießen	gesittet	engagiert	besonnen	gütig	krank	gemein	geizig	engstirnig	bange	gierig	1	blank2r.bmp	0	1	+	0	1	blank2r.bmp	500	1	CPLW	500	1	blank2r.bmp	880	6	träumen	880	1	!	1233	1	!	-1	0	0	0	0	0	0
2024-05-08	11:20:33	11:30:57	623468	6.6.1	4_exp_EVA_AWA_CON	17	A	B	Rpleas_acq	Same	Rpleas	1pleas	acq_US_unple_nomask	acq45_nomask	5	9	400	1	300	300	0	0	468	46	1	0	anregung	vertrauen	sonnig	vergnügt	kuss	träumen	ausrottung	versagen	sterben	verbissen	krise	töten	kreativ	genießen	gesittet	engagiert	besonnen	gütig	krank	gemein	geizig	engstirnig	bange	gierig	1	blank2r.bmp	0	1	+	0	1	blank2r.bmp	500	1	DHJF	500	1	blank2r.bmp	880	4	verbissen	880	1	!	1232	1	!	1369	0	0	0	0	0	0
2024-05-08	11:20:33	11:30:59	625746	6.6.1	4_exp_EVA_AWA_CON	17	A	B	Rpleas_acq	Same	Rpleas	1pleas	acq_US_pleas_nomask	acq45_nomask	5	10	400	0	300	300	0	0	497	50	1	0	anregung	vertrauen	sonnig	vergnügt	kuss	träumen	ausrottung	versagen	sterben	verbissen	krise	töten	kreativ	genießen	gesittet	engagiert	besonnen	gütig	krank	gemein	geizig	engstirnig	bange	gierig	1	blank2r.bmp	0	1	+	0	1	blank2r.bmp	500	1	CPLW	500	1	blank2r.bmp	880	4	vergnügt	880	1	!	1232	1	!	-1	0	0	0	0	0	0
2024-05-08	11:20:33	11:31:01	627955	6.6.1	4_exp_EVA_AWA_CON	17	A	B	Rpleas_acq	Same	Rpleas	1pleas	acq_US_pleas_nomask	acq45_nomask	5	11	400	1	300	300	0	0	434	46	0	0	anregung	vertrauen	sonnig	vergnügt	kuss	träumen	ausrottung	versagen	sterben	verbissen	krise	töten	kreativ	genießen	gesittet	engagiert	besonnen	gütig	krank	gemein	geizig	engstirnig	bange	gierig	1	blank2r.bmp	0	1	+	0	1	blank2r.bmp	500	1	CPLW	500	1	blank2r.bmp	880	5	kuss	880	1	!	1233	1	!	1335	0	0	0	0	0	0
2024-05-08	11:20:33	11:31:04	630266	6.6.1	4_exp_EVA_AWA_CON	17	A	B	Rpleas_acq	Same	Rpleas	1pleas	acq_US_pleas_nomask	acq45_nomask	5	12	400	0	300	300	0	0	534	50	1	0	anregung	vertrauen	sonnig	vergnügt	kuss	träumen	ausrottung	versagen	sterben	verbissen	krise	töten	kreativ	genießen	gesittet	engagiert	besonnen	gütig	krank	gemein	geizig	engstirnig	bange	gierig	1	blank2r.bmp	0	1	+	0	1	blank2r.bmp	500	1	CPLW	500	1	blank2r.bmp	880	4	vergnügt	880	1	!	1232	1	!	-1	0	0	0	0	0	0
2024-05-08	11:20:33	11:31:06	632520	6.6.1	4_exp_EVA_AWA_CON	17	A	B	Rpleas_acq	Same	Rpleas	1pleas	acq_US_pleas_nomask	acq45_nomask	5	13	400	0	300	300	0	0	479	50	1	0	anregung	vertrauen	sonnig	vergnügt	kuss	träumen	ausrottung	versagen	sterben	verbissen	krise	töten	kreativ	genießen	gesittet	engagiert	besonnen	gütig	krank	gemein	geizig	engstirnig	bange	gierig	1	blank2r.bmp	0	1	+	0	1	blank2r.bmp	500	1	CPLW	500	1	blank2r.bmp	880	6	träumen	880	1	!	1232	1	!	-1	0	0	0	0	0	0
2024-05-08	11:20:33	11:31:08	634768	6.6.1	4_exp_EVA_AWA_CON	17	A	B	Rpleas_acq	Same	Rpleas	1pleas	acq_US_unple_nomask	acq45_nomask	5	14	400	0	300	300	0	0	475	46	1	0	anregung	vertrauen	sonnig	vergnügt	kuss	träumen	ausrottung	versagen	sterben	verbissen	krise	töten	kreativ	genießen	gesittet	engagiert	besonnen	gütig	krank	gemein	geizig	engstirnig	bange	gierig	1	blank2r.bmp	0	1	+	0	1	blank2r.bmp	500	1	DHJF	500	1	blank2r.bmp	880	6	töten	880	1	!	1232	1	!	-1	0	0	0	0	0	0
2024-05-08	11:20:33	11:31:10	636923	6.6.1	4_exp_EVA_AWA_CON	17	A	B	Rpleas_acq	Same	Rpleas	1pleas	acq_US_unple_nomask	acq45_nomask	5	15	400	1	300	300	0	0	376	46	1	0	anregung	vertrauen	sonnig	vergnügt	kuss	träumen	ausrottung	versagen	sterben	verbissen	krise	töten	kreativ	genießen	gesittet	engagiert	besonnen	gütig	krank	gemein	geizig	engstirnig	bange	gierig	1	blank2r.bmp	0	1	+	0	1	blank2r.bmp	500	1	DHJF	500	1	blank2r.bmp	880	6	töten	880	1	!	1232	1	!	1277	0	0	0	0	0	0
2024-05-08	11:20:33	11:31:12	639169	6.6.1	4_exp_EVA_AWA_CON	17	A	B	Rpleas_acq	Same	Rpleas	1pleas	acq_US_unple_nomask	acq45_nomask	5	16	400	0	300	300	0	0	473	50	0	0	anregung	vertrauen	sonnig	vergnügt	kuss	träumen	ausrottung	versagen	sterben	verbissen	krise	töten	kreativ	genießen	gesittet	engagiert	besonnen	gütig	krank	gemein	geizig	engstirnig	bange	gierig	1	blank2r.bmp	0	1	+	0	1	blank2r.bmp	500	1	DHJF	500	1	blank2r.bmp	880	3	sterben	880	1	!	1232	1	!	-1	0	0	0	0	0	0
2024-05-08	11:20:33	11:31:15	641602	6.6.1	4_exp_EVA_AWA_CON	17	A	B	Rpleas_acq	Same	Rpleas	1pleas	acq_US_unple_nomask	acq45_nomask	5	17	400	0	300	300	0	0	653	46	1	0	anregung	vertrauen	sonnig	vergnügt	kuss	träumen	ausrottung	versagen	sterben	verbissen	krise	töten	kreativ	genießen	gesittet	engagiert	besonnen	gütig	krank	gemein	geizig	engstirnig	bange	gierig	1	blank2r.bmp	0	1	+	0	1	blank2r.bmp	500	1	DHJF	500	1	blank2r.bmp	880	5	krise	880	1	!	1232	1	!	-1	0	0	0	0	0	0
2024-05-08	11:20:33	11:31:17	643986	6.6.1	4_exp_EVA_AWA_CON	17	A	B	Rpleas_acq	Same	Rpleas	1pleas	acq_US_pleas_nomask	acq45_nomask	5	18	400	0	300	300	0	0	605	50	1	0	anregung	vertrauen	sonnig	vergnügt	kuss	träumen	ausrottung	versagen	sterben	verbissen	krise	töten	kreativ	genießen	gesittet	engagiert	besonnen	gütig	krank	gemein	geizig	engstirnig	bange	gierig	1	blank2r.bmp	0	1	+	0	1	blank2r.bmp	500	1	CPLW	500	1	blank2r.bmp	880	2	vertrauen	880	1	!	1232	1	!	-1	0	0	0	0	0	0
2024-05-08	11:20:33	11:31:19	646204	6.6.1	4_exp_EVA_AWA_CON	17	A	B	Rpleas_acq	Same	Rpleas	1pleas	acq_US_pleas_nomask	acq45_nomask	5	19	400	1	300	300	0	0	440	46	0	0	anregung	vertrauen	sonnig	vergnügt	kuss	träumen	ausrottung	versagen	sterben	verbissen	krise	töten	kreativ	genießen	gesittet	engagiert	besonnen	gütig	krank	gemein	geizig	engstirnig	bange	gierig	1	blank2r.bmp	0	1	+	0	1	blank2r.bmp	500	1	CPLW	500	1	blank2r.bmp	880	1	anregung	880	1	!	1232	1	!	1342	0	0	0	0	0	0
2024-05-08	11:20:33	11:31:22	648456	6.6.1	4_exp_EVA_AWA_CON	17	A	B	Rpleas_acq	Same	Rpleas	1pleas	acq_US_pleas_nomask	acq45_nomask	5	20	400	0	300	300	0	0	474	50	1	0	anregung	vertrauen	sonnig	vergnügt	kuss	träumen	ausrottung	versagen	sterben	verbissen	krise	töten	kreativ	genießen	gesittet	engagiert	besonnen	gütig	krank	gemein	geizig	engstirnig	bange	gierig	1	blank2r.bmp	0	1	+	0	1	blank2r.bmp	500	1	CPLW	500	1	blank2r.bmp	880	3	sonnig	880	1	!	1233	1	!	-1	0	0	0	0	0	0
2024-05-08	11:20:33	11:31:24	650619	6.6.1	4_exp_EVA_AWA_CON	17	A	B	Rpleas_acq	Same	Rpleas	1pleas	acq_US_pleas_nomask	acq45_nomask	5	21	400	1	300	300	0	0	383	50	1	0	anregung	vertrauen	sonnig	vergnügt	kuss	träumen	ausrottung	versagen	sterben	verbissen	krise	töten	kreativ	genießen	gesittet	engagiert	besonnen	gütig	krank	gemein	geizig	engstirnig	bange	gierig	1	blank2r.bmp	0	1	+	0	1	blank2r.bmp	500	1	CPLW	500	1	blank2r.bmp	880	5	kuss	880	1	!	1233	1	!	1284	0	0	0	0	0	0
2024-05-08	11:20:33	11:31:26	653154	6.6.1	4_exp_EVA_AWA_CON	17	A	B	Rpleas_acq	Same	Rpleas	1pleas	acq_US_unple_nomask	acq45_nomask	5	22	400	0	300	300	0	0	758	46	1	0	anregung	vertrauen	sonnig	vergnügt	kuss	träumen	ausrottung	versagen	sterben	verbissen	krise	töten	kreativ	genießen	gesittet	engagiert	besonnen	gütig	krank	gemein	geizig	engstirnig	bange	gierig	1	blank2r.bmp	0	1	+	0	1	blank2r.bmp	500	1	DHJF	500	1	blank2r.bmp	880	2	versagen	880	1	!	1232	1	!	-1	0	0	0	0	0	0
2024-05-08	11:20:33	11:31:29	655490	6.6.1	4_exp_EVA_AWA_CON	17	A	B	Rpleas_acq	Same	Rpleas	1pleas	acq_US_unple_nomask	acq45_nomask	5	23	400	0	300	300	0	0	562	46	1	0	anregung	vertrauen	sonnig	vergnügt	kuss	träumen	ausrottung	versagen	sterben	verbissen	krise	töten	kreativ	genießen	gesittet	engagiert	besonnen	gütig	krank	gemein	geizig	engstirnig	bange	gierig	1	blank2r.bmp	0	1	+	0	1	blank2r.bmp	500	1	DHJF	500	1	blank2r.bmp	880	1	ausrottung	880	1	!	1232	1	!	-1	0	0	0	0	0	0
2024-05-08	11:20:33	11:31:31	657683	6.6.1	4_exp_EVA_AWA_CON	17	A	B	Rpleas_acq	Same	Rpleas	1pleas	acq_US_unple_nomask	acq45_nomask	5	24	400	1	300	300	0	0	412	46	1	0	anregung	vertrauen	sonnig	vergnügt	kuss	träumen	ausrottung	versagen	sterben	verbissen	krise	töten	kreativ	genießen	gesittet	engagiert	besonnen	gütig	krank	gemein	geizig	engstirnig	bange	gierig	1	blank2r.bmp	0	1	+	0	1	blank2r.bmp	500	1	DHJF	500	1	blank2r.bmp	880	4	verbissen	880	1	!	1232	1	!	1314	0	0	0	0	0	0
2024-05-08	11:20:33	11:31:33	659835	6.6.1	4_exp_EVA_AWA_CON	17	A	B	Rpleas_acq	Same	Rpleas	1pleas	acq_US_unple_nomask	acq45_nomask	5	25	400	1	300	300	0	0	373	50	0	0	anregung	vertrauen	sonnig	vergnügt	kuss	träumen	ausrottung	versagen	sterben	verbissen	krise	töten	kreativ	genießen	gesittet	engagiert	besonnen	gütig	krank	gemein	geizig	engstirnig	bange	gierig	1	blank2r.bmp	0	1	+	0	1	blank2r.bmp	500	1	DHJF	500	1	blank2r.bmp	880	4	verbissen	880	1	!	1232	1	!	1274	0	0	0	0	0	0
2024-05-08	11:20:33	11:31:35	662011	6.6.1	4_exp_EVA_AWA_CON	17	A	B	Rpleas_acq	Same	Rpleas	1pleas	acq_US_pleas_nomask	acq45_nomask	5	26	400	1	300	300	0	0	398	50	1	0	anregung	vertrauen	sonnig	vergnügt	kuss	träumen	ausrottung	versagen	sterben	verbissen	krise	töten	kreativ	genießen	gesittet	engagiert	besonnen	gütig	krank	gemein	geizig	engstirnig	bange	gierig	1	blank2r.bmp	0	1	+	0	1	blank2r.bmp	500	1	CPLW	500	1	blank2r.bmp	880	5	kuss	880	1	!	1232	1	!	1299	0	0	0	0	0	0
2024-05-08	11:20:33	11:31:38	664252	6.6.1	4_exp_EVA_AWA_CON	17	A	B	Rpleas_acq	Same	Rpleas	1pleas	acq_US_unple_nomask	acq45_nomask	5	27	400	1	300	300	0	0	466	46	1	0	anregung	vertrauen	sonnig	vergnügt	kuss	träumen	ausrottung	versagen	sterben	verbissen	krise	töten	kreativ	genießen	gesittet	engagiert	besonnen	gütig	krank	gemein	geizig	engstirnig	bange	gierig	1	blank2r.bmp	0	1	+	0	1	blank2r.bmp	500	1	DHJF	500	1	blank2r.bmp	880	5	krise	880	1	!	1232	1	!	1367	0	0	0	0	0	0
2024-05-08	11:20:33	11:31:40	666562	6.6.1	4_exp_EVA_AWA_CON	17	A	B	Rpleas_acq	Same	Rpleas	1pleas	acq_US_pleas_nomask	acq45_nomask	5	28	400	0	300	300	0	0	537	50	1	0	anregung	vertrauen	sonnig	vergnügt	kuss	träumen	ausrottung	versagen	sterben	verbissen	krise	töten	kreativ	genießen	gesittet	engagiert	besonnen	gütig	krank	gemein	geizig	engstirnig	bange	gierig	1	blank2r.bmp	0	1	+	0	1	blank2r.bmp	500	1	CPLW	500	1	blank2r.bmp	880	2	vertrauen	880	1	!	1232	1	!	-1	0	0	0	0	0	0
2024-05-08	11:20:33	11:31:42	668874	6.6.1	4_exp_EVA_AWA_CON	17	A	B	Rpleas_acq	Same	Rpleas	1pleas	acq_US_pleas_nomask	acq45_nomask	5	29	400	0	300	300	0	0	537	50	1	0	anregung	vertrauen	sonnig	vergnügt	kuss	träumen	ausrottung	versagen	sterben	verbissen	krise	töten	kreativ	genießen	gesittet	engagiert	besonnen	gütig	krank	gemein	geizig	engstirnig	bange	gierig	1	blank2r.bmp	0	1	+	0	1	blank2r.bmp	500	1	CPLW	500	1	blank2r.bmp	880	6	träumen	880	1	!	1233	1	!	-1	0	0	0	0	0	0
2024-05-08	11:20:33	11:31:44	671226	6.6.1	4_exp_EVA_AWA_CON	17	A	B	Rpleas_acq	Same	Rpleas	1pleas	acq_US_unple_nomask	acq45_nomask	5	30	400	0	300	300	0	0	578	46	1	0	anregung	vertrauen	sonnig	vergnügt	kuss	träumen	ausrottung	versagen	sterben	verbissen	krise	töten	kreativ	genießen	gesittet	engagiert	besonnen	gütig	krank	gemein	geizig	engstirnig	bange	gierig	1	blank2r.bmp	0	1	+	0	1	blank2r.bmp	500	1	DHJF	500	1	blank2r.bmp	880	2	versagen	880	1	!	1232	1	!	-1	0	0	0	0	0	0
2024-05-08	11:20:33	11:31:47	673554	6.6.1	4_exp_EVA_AWA_CON	17	A	B	Rpleas_acq	Same	Rpleas	1pleas	acq_US_unple_nomask	acq45_nomask	5	31	400	0	300	300	0	0	554	46	1	0	anregung	vertrauen	sonnig	vergnügt	kuss	träumen	ausrottung	versagen	sterben	verbissen	krise	töten	kreativ	genießen	gesittet	engagiert	besonnen	gütig	krank	gemein	geizig	engstirnig	bange	gierig	1	blank2r.bmp	0	1	+	0	1	blank2r.bmp	500	1	DHJF	500	1	blank2r.bmp	880	3	sterben	880	1	!	1232	1	!	-1	0	0	0	0	0	0
2024-05-08	11:20:33	11:31:49	675808	6.6.1	4_exp_EVA_AWA_CON	17	A	B	Rpleas_acq	Same	Rpleas	1pleas	acq_US_unple_nomask	acq45_nomask	5	32	400	0	300	300	0	0	479	46	1	0	anregung	vertrauen	sonnig	vergnügt	kuss	träumen	ausrottung	versagen	sterben	verbissen	krise	töten	kreativ	genießen	gesittet	engagiert	besonnen	gütig	krank	gemein	geizig	engstirnig	bange	gierig	1	blank2r.bmp	0	1	+	0	1	blank2r.bmp	500	1	DHJF	500	1	blank2r.bmp	880	6	töten	880	1	!	1233	1	!	-1	0	0	0	0	0	0
2024-05-08	11:20:33	11:31:51	677948	6.6.1	4_exp_EVA_AWA_CON	17	A	B	Rpleas_acq	Same	Rpleas	1pleas	acq_US_pleas_nomask	acq45_nomask	5	33	400	1	300	300	0	0	363	50	1	0	anregung	vertrauen	sonnig	vergnügt	kuss	träumen	ausrottung	versagen	sterben	verbissen	krise	töten	kreativ	genießen	gesittet	engagiert	besonnen	gütig	krank	gemein	geizig	engstirnig	bange	gierig	1	blank2r.bmp	0	1	+	0	1	blank2r.bmp	500	1	CPLW	500	1	blank2r.bmp	880	1	anregung	880	1	!	1232	1	!	1265	0	0	0	0	0	0
2024-05-08	11:20:33	11:31:53	680210	6.6.1	4_exp_EVA_AWA_CON	17	A	B	Rpleas_acq	Same	Rpleas	1pleas	acq_US_unple_nomask	acq45_nomask	5	34	400	0	300	300	0	0	486	46	1	0	anregung	vertrauen	sonnig	vergnügt	kuss	träumen	ausrottung	versagen	sterben	verbissen	krise	töten	kreativ	genießen	gesittet	engagiert	besonnen	gütig	krank	gemein	geizig	engstirnig	bange	gierig	1	blank2r.bmp	0	1	+	0	1	blank2r.bmp	500	1	DHJF	500	1	blank2r.bmp	880	1	ausrottung	880	1	!	1232	1	!	-1	0	0	0	0	0	0
2024-05-08	11:20:33	11:31:56	682419	6.6.1	4_exp_EVA_AWA_CON	17	A	B	Rpleas_acq	Same	Rpleas	1pleas	acq_US_pleas_nomask	acq45_nomask	5	35	400	1	300	300	0	0	433	50	1	0	anregung	vertrauen	sonnig	vergnügt	kuss	träumen	ausrottung	versagen	sterben	verbissen	krise	töten	kreativ	genießen	gesittet	engagiert	besonnen	gütig	krank	gemein	geizig	engstirnig	bange	gierig	1	blank2r.bmp	0	1	+	0	1	blank2r.bmp	500	1	CPLW	500	1	blank2r.bmp	880	3	sonnig	880	1	!	1232	1	!	1334	0	0	0	0	0	0
2024-05-08	11:20:33	11:31:58	684603	6.6.1	4_exp_EVA_AWA_CON	17	A	B	Rpleas_acq	Same	Rpleas	1pleas	acq_US_pleas_nomask	acq45_nomask	5	36	400	1	300	300	0	0	405	50	1	0	anregung	vertrauen	sonnig	vergnügt	kuss	träumen	ausrottung	versagen	sterben	verbissen	krise	töten	kreativ	genießen	gesittet	engagiert	besonnen	gütig	krank	gemein	geizig	engstirnig	bange	gierig	1	blank2r.bmp	0	1	+	0	1	blank2r.bmp	500	1	CPLW	500	1	blank2r.bmp	880	4	vergnügt	880	1	!	1232	1	!	1306	0	0	0	0	0	0
2024-05-08	11:20:33	11:32:24	711014	6.6.1	4_exp_EVA_AWA_CON	17	A	B	Rpleas_acq	Same	Rpleas	1pleas	EvalRating_firsttwo	EvalRating_firsttwo	6	1	0	0	300	300	0	0	6235	line	0	-27,4739583333333285964pct	anregung	vertrauen	sonnig	vergnügt	kuss	träumen	ausrottung	versagen	sterben	verbissen	krise	töten	kreativ	genießen	gesittet	engagiert	besonnen	gütig	krank	gemein	geizig	engstirnig	bange	gierig	1		-7	1	Wie angenehm oder unangenehm finden Sie die  Buchstabenkette WDLH?	-7	1		-7	1		-7	1		-7	1	Unangenehm	-7	1	Angenehm	-7	0	0	0	0	0	0	0	0	0
2024-05-08	11:20:33	11:32:29	715423	6.6.1	4_exp_EVA_AWA_CON	17	A	B	Rpleas_acq	Same	Rpleas	1pleas	EvalRating_lastfour	EvalRating_lastfour	7	1	0	0	300	300	0	0	2028	line	0	19,4010416666666714036pct	anregung	vertrauen	sonnig	vergnügt	kuss	träumen	ausrottung	versagen	sterben	verbissen	krise	töten	kreativ	genießen	gesittet	engagiert	besonnen	gütig	krank	gemein	geizig	engstirnig	bange	gierig	1		-8	1	Wie angenehm oder unangenehm finden Sie die  Buchstabenkette CPLW?	-8	1		-8	1		-8	1		-8	1	Unangenehm	-8	1	Angenehm	-8	0	0	0	0	0	0	0	0	0
2024-05-08	11:20:33	11:32:31	717790	6.6.1	4_exp_EVA_AWA_CON	17	A	B	Rpleas_acq	Same	Rpleas	1pleas	blank_screen	EvalRating_lastfour	7	3	0	0	300	300	0	0	0	0	0	19,4010416666666714036pct	anregung	vertrauen	sonnig	vergnügt	kuss	träumen	ausrottung	versagen	sterben	verbissen	krise	töten	kreativ	genießen	gesittet	engagiert	besonnen	gütig	krank	gemein	geizig	engstirnig	bange	gierig	1		-8	0	0	0	0	0	0	0	0	0	0	0	0	0	0	0	0	0	0	0	0	0	0	0	0	0	0	0
2024-05-08	11:20:33	11:32:33	719598	6.6.1	4_exp_EVA_AWA_CON	17	A	B	Rpleas_acq	Same	Rpleas	1pleas	EvalRating_lastfour	EvalRating_lastfour	7	4	0	0	300	300	0	0	1221	line	0	22,65625pct	anregung	vertrauen	sonnig	vergnügt	kuss	träumen	ausrottung	versagen	sterben	verbissen	krise	töten	kreativ	genießen	gesittet	engagiert	besonnen	gütig	krank	gemein	geizig	engstirnig	bange	gierig	1		-8	2	Wie angenehm oder unangenehm finden Sie die  Buchstabenkette DHJF?	-8	1		-8	1		-8	1		-8	1	Unangenehm	-8	1	Angenehm	-8	0	0	0	0	0	0	0	0	0
2024-05-08	11:20:33	11:32:35	721962	6.6.1	4_exp_EVA_AWA_CON	17	A	B	Rpleas_acq	Same	Rpleas	1pleas	blank_screen	EvalRating_lastfour	7	6	0	0	300	300	0	0	0	0	0	22,65625pct	anregung	vertrauen	sonnig	vergnügt	kuss	träumen	ausrottung	versagen	sterben	verbissen	krise	töten	kreativ	genießen	gesittet	engagiert	besonnen	gütig	krank	gemein	geizig	engstirnig	bange	gierig	1		-8	0	0	0	0	0	0	0	0	0	0	0	0	0	0	0	0	0	0	0	0	0	0	0	0	0	0	0
2024-05-08	11:20:33	11:32:38	724350	6.6.1	4_exp_EVA_AWA_CON	17	A	B	Rpleas_acq	Same	Rpleas	1pleas	EvalRating_lastfour	EvalRating_lastfour	7	7	0	0	300	300	0	0	1800	line	0	11,9791666666666714036pct	anregung	vertrauen	sonnig	vergnügt	kuss	träumen	ausrottung	versagen	sterben	verbissen	krise	töten	kreativ	genießen	gesittet	engagiert	besonnen	gütig	krank	gemein	geizig	engstirnig	bange	gierig	1		-8	3	Wie angenehm oder unangenehm finden Sie die  Buchstabenkette FCJP?	-8	1		-8	1		-8	1		-8	1	Unangenehm	-8	1	Angenehm	-8	0	0	0	0	0	0	0	0	0
2024-05-08	11:20:33	11:33:18	765018	6.6.1	4_exp_EVA_AWA_CON	17	A	B	Rpleas_acq	Same	Rpleas	1pleas	conawa_CS1_US3	conawa1_nomask	8	1	0	0	300	300	0	0	7549	geizig	1	11,9791666666666714036pct	anregung	vertrauen	sonnig	vergnügt	kuss	träumen	ausrottung	versagen	sterben	verbissen	krise	töten	kreativ	genießen	gesittet	engagiert	besonnen	gütig	krank	gemein	geizig	engstirnig	bange	gierig	0	0	0	0	0	0	0	0	0	0	0	0	0	0	0	0	0	0	0	0	0	0	0	0	0	0	0	0	0	0
2024-05-08	11:20:33	11:33:18	765019	6.6.1	4_exp_EVA_AWA_CON	17	A	B	Rpleas_acq	Same	Rpleas	1pleas	conawa_CS1_US3_confidence	conawa1_nomask	8	1	0	0	300	300	0	0	7549	guess	1	11,9791666666666714036pct	anregung	vertrauen	sonnig	vergnügt	kuss	träumen	ausrottung	versagen	sterben	verbissen	krise	töten	kreativ	genießen	gesittet	engagiert	besonnen	gütig	krank	gemein	geizig	engstirnig	bange	gierig	0	0	0	0	0	0	0	0	0	0	0	0	0	0	0	0	0	0	0	0	0	0	0	0	0	0	0	0	0	0
2024-05-08	11:20:33	11:33:23	770192	6.6.1	4_exp_EVA_AWA_CON	17	A	B	Rpleas_acq	Same	Rpleas	1pleas	conawa_CS2_US4	conawa1_nomask	8	2	0	0	300	300	0	0	4553	vergnügt	1	11,9791666666666714036pct	anregung	vertrauen	sonnig	vergnügt	kuss	träumen	ausrottung	versagen	sterben	verbissen	krise	töten	kreativ	genießen	gesittet	engagiert	besonnen	gütig	krank	gemein	geizig	engstirnig	bange	gierig	0	0	0	0	0	0	0	0	0	0	0	0	0	0	0	0	0	0	0	0	0	0	0	0	0	0	0	0	0	0
2024-05-08	11:20:33	11:33:23	770193	6.6.1	4_exp_EVA_AWA_CON	17	A	B	Rpleas_acq	Same	Rpleas	1pleas	conawa_CS2_US4_confidence	conawa1_nomask	8	2	0	0	300	300	0	0	4553	guess	1	11,9791666666666714036pct	anregung	vertrauen	sonnig	vergnügt	kuss	träumen	ausrottung	versagen	sterben	verbissen	krise	töten	kreativ	genießen	gesittet	engagiert	besonnen	gütig	krank	gemein	geizig	engstirnig	bange	gierig	0	0	0	0	0	0	0	0	0	0	0	0	0	0	0	0	0	0	0	0	0	0	0	0	0	0	0	0	0	0
2024-05-08	11:20:33	11:33:31	777666	6.6.1	4_exp_EVA_AWA_CON	17	A	B	Rpleas_acq	Same	Rpleas	1pleas	conawa_CS1_US6	conawa1_nomask	8	3	0	0	300	300	0	0	6855	gierig	1	11,9791666666666714036pct	anregung	vertrauen	sonnig	vergnügt	kuss	träumen	ausrottung	versagen	sterben	verbissen	krise	töten	kreativ	genießen	gesittet	engagiert	besonnen	gütig	krank	gemein	geizig	engstirnig	bange	gierig	0	0	0	0	0	0	0	0	0	0	0	0	0	0	0	0	0	0	0	0	0	0	0	0	0	0	0	0	0	0
2024-05-08	11:20:33	11:33:31	777667	6.6.1	4_exp_EVA_AWA_CON	17	A	B	Rpleas_acq	Same	Rpleas	1pleas	conawa_CS1_US6_confidence	conawa1_nomask	8	3	0	0	300	300	0	0	6855	guess	1	11,9791666666666714036pct	anregung	vertrauen	sonnig	vergnügt	kuss	träumen	ausrottung	versagen	sterben	verbissen	krise	töten	kreativ	genießen	gesittet	engagiert	besonnen	gütig	krank	gemein	geizig	engstirnig	bange	gierig	0	0	0	0	0	0	0	0	0	0	0	0	0	0	0	0	0	0	0	0	0	0	0	0	0	0	0	0	0	0
2024-05-08	11:20:33	11:33:38	784721	6.6.1	4_exp_EVA_AWA_CON	17	A	B	Rpleas_acq	Same	Rpleas	1pleas	conawa_CS1_US1	conawa1_nomask	8	4	0	0	300	300	0	0	6437	ausrottung	1	11,9791666666666714036pct	anregung	vertrauen	sonnig	vergnügt	kuss	träumen	ausrottung	versagen	sterben	verbissen	krise	töten	kreativ	genießen	gesittet	engagiert	besonnen	gütig	krank	gemein	geizig	engstirnig	bange	gierig	0	0	0	0	0	0	0	0	0	0	0	0	0	0	0	0	0	0	0	0	0	0	0	0	0	0	0	0	0	0
2024-05-08	11:20:33	11:33:38	784722	6.6.1	4_exp_EVA_AWA_CON	17	A	B	Rpleas_acq	Same	Rpleas	1pleas	conawa_CS1_US1_confidence	conawa1_nomask	8	4	0	0	300	300	0	0	6437	guess	1	11,9791666666666714036pct	anregung	vertrauen	sonnig	vergnügt	kuss	träumen	ausrottung	versagen	sterben	verbissen	krise	töten	kreativ	genießen	gesittet	engagiert	besonnen	gütig	krank	gemein	geizig	engstirnig	bange	gierig	0	0	0	0	0	0	0	0	0	0	0	0	0	0	0	0	0	0	0	0	0	0	0	0	0	0	0	0	0	0
2024-05-08	11:20:33	11:33:45	791916	6.6.1	4_exp_EVA_AWA_CON	17	A	B	Rpleas_acq	Same	Rpleas	1pleas	conawa_CS1_US5	conawa1_nomask	8	5	0	0	300	300	0	0	6583	kuss	1	11,9791666666666714036pct	anregung	vertrauen	sonnig	vergnügt	kuss	träumen	ausrottung	versagen	sterben	verbissen	krise	töten	kreativ	genießen	gesittet	engagiert	besonnen	gütig	krank	gemein	geizig	engstirnig	bange	gierig	0	0	0	0	0	0	0	0	0	0	0	0	0	0	0	0	0	0	0	0	0	0	0	0	0	0	0	0	0	0
2024-05-08	11:20:33	11:33:45	791917	6.6.1	4_exp_EVA_AWA_CON	17	A	B	Rpleas_acq	Same	Rpleas	1pleas	conawa_CS1_US5_confidence	conawa1_nomask	8	5	0	0	300	300	0	0	6583	guess	1	11,9791666666666714036pct	anregung	vertrauen	sonnig	vergnügt	kuss	träumen	ausrottung	versagen	sterben	verbissen	krise	töten	kreativ	genießen	gesittet	engagiert	besonnen	gütig	krank	gemein	geizig	engstirnig	bange	gierig	0	0	0	0	0	0	0	0	0	0	0	0	0	0	0	0	0	0	0	0	0	0	0	0	0	0	0	0	0	0
2024-05-08	11:20:33	11:33:51	798020	6.6.1	4_exp_EVA_AWA_CON	17	A	B	Rpleas_acq	Same	Rpleas	1pleas	conawa_CS1_US2	conawa1_nomask	8	6	0	0	300	300	0	0	5491	versagen	1	11,9791666666666714036pct	anregung	vertrauen	sonnig	vergnügt	kuss	träumen	ausrottung	versagen	sterben	verbissen	krise	töten	kreativ	genießen	gesittet	engagiert	besonnen	gütig	krank	gemein	geizig	engstirnig	bange	gierig	0	0	0	0	0	0	0	0	0	0	0	0	0	0	0	0	0	0	0	0	0	0	0	0	0	0	0	0	0	0
2024-05-08	11:20:33	11:33:51	798020	6.6.1	4_exp_EVA_AWA_CON	17	A	B	Rpleas_acq	Same	Rpleas	1pleas	conawa_CS1_US2_confidence	conawa1_nomask	8	6	0	0	300	300	0	0	5491	guess	1	11,9791666666666714036pct	anregung	vertrauen	sonnig	vergnügt	kuss	träumen	ausrottung	versagen	sterben	verbissen	krise	töten	kreativ	genießen	gesittet	engagiert	besonnen	gütig	krank	gemein	geizig	engstirnig	bange	gierig	0	0	0	0	0	0	0	0	0	0	0	0	0	0	0	0	0	0	0	0	0	0	0	0	0	0	0	0	0	0
2024-05-08	11:20:33	11:33:56	802642	6.6.1	4_exp_EVA_AWA_CON	17	A	B	Rpleas_acq	Same	Rpleas	1pleas	conawa_CS2_US1	conawa1_nomask	8	7	0	0	300	300	0	0	4005	genießen	1	11,9791666666666714036pct	anregung	vertrauen	sonnig	vergnügt	kuss	träumen	ausrottung	versagen	sterben	verbissen	krise	töten	kreativ	genießen	gesittet	engagiert	besonnen	gütig	krank	gemein	geizig	engstirnig	bange	gierig	0	0	0	0	0	0	0	0	0	0	0	0	0	0	0	0	0	0	0	0	0	0	0	0	0	0	0	0	0	0
2024-05-08	11:20:33	11:33:56	802643	6.6.1	4_exp_EVA_AWA_CON	17	A	B	Rpleas_acq	Same	Rpleas	1pleas	conawa_CS2_US1_confidence	conawa1_nomask	8	7	0	0	300	300	0	0	4005	guess	1	11,9791666666666714036pct	anregung	vertrauen	sonnig	vergnügt	kuss	träumen	ausrottung	versagen	sterben	verbissen	krise	töten	kreativ	genießen	gesittet	engagiert	besonnen	gütig	krank	gemein	geizig	engstirnig	bange	gierig	0	0	0	0	0	0	0	0	0	0	0	0	0	0	0	0	0	0	0	0	0	0	0	0	0	0	0	0	0	0
2024-05-08	11:20:33	11:34:00	806325	6.6.1	4_exp_EVA_AWA_CON	17	A	B	Rpleas_acq	Same	Rpleas	1pleas	conawa_CS2_US5	conawa1_nomask	8	8	0	0	300	300	0	0	3070	kuss	1	11,9791666666666714036pct	anregung	vertrauen	sonnig	vergnügt	kuss	träumen	ausrottung	versagen	sterben	verbissen	krise	töten	kreativ	genießen	gesittet	engagiert	besonnen	gütig	krank	gemein	geizig	engstirnig	bange	gierig	0	0	0	0	0	0	0	0	0	0	0	0	0	0	0	0	0	0	0	0	0	0	0	0	0	0	0	0	0	0
2024-05-08	11:20:33	11:34:00	806326	6.6.1	4_exp_EVA_AWA_CON	17	A	B	Rpleas_acq	Same	Rpleas	1pleas	conawa_CS2_US5_confidence	conawa1_nomask	8	8	0	0	300	300	0	0	3070	guess	1	11,9791666666666714036pct	anregung	vertrauen	sonnig	vergnügt	kuss	träumen	ausrottung	versagen	sterben	verbissen	krise	töten	kreativ	genießen	gesittet	engagiert	besonnen	gütig	krank	gemein	geizig	engstirnig	bange	gierig	0	0	0	0	0	0	0	0	0	0	0	0	0	0	0	0	0	0	0	0	0	0	0	0	0	0	0	0	0	0
2024-05-08	11:20:33	11:34:04	811028	6.6.1	4_exp_EVA_AWA_CON	17	A	B	Rpleas_acq	Same	Rpleas	1pleas	conawa_CS2_US2	conawa1_nomask	8	9	0	0	300	300	0	0	4084	gesittet	1	11,9791666666666714036pct	anregung	vertrauen	sonnig	vergnügt	kuss	träumen	ausrottung	versagen	sterben	verbissen	krise	töten	kreativ	genießen	gesittet	engagiert	besonnen	gütig	krank	gemein	geizig	engstirnig	bange	gierig	0	0	0	0	0	0	0	0	0	0	0	0	0	0	0	0	0	0	0	0	0	0	0	0	0	0	0	0	0	0
2024-05-08	11:20:33	11:34:04	811029	6.6.1	4_exp_EVA_AWA_CON	17	A	B	Rpleas_acq	Same	Rpleas	1pleas	conawa_CS2_US2_confidence	conawa1_nomask	8	9	0	0	300	300	0	0	4084	guess	1	11,9791666666666714036pct	anregung	vertrauen	sonnig	vergnügt	kuss	träumen	ausrottung	versagen	sterben	verbissen	krise	töten	kreativ	genießen	gesittet	engagiert	besonnen	gütig	krank	gemein	geizig	engstirnig	bange	gierig	0	0	0	0	0	0	0	0	0	0	0	0	0	0	0	0	0	0	0	0	0	0	0	0	0	0	0	0	0	0
2024-05-08	11:20:33	11:34:08	814900	6.6.1	4_exp_EVA_AWA_CON	17	A	B	Rpleas_acq	Same	Rpleas	1pleas	conawa_CS2_US6	conawa1_nomask	8	10	0	0	300	300	0	0	3254	kreativ	1	11,9791666666666714036pct	anregung	vertrauen	sonnig	vergnügt	kuss	träumen	ausrottung	versagen	sterben	verbissen	krise	töten	kreativ	genießen	gesittet	engagiert	besonnen	gütig	krank	gemein	geizig	engstirnig	bange	gierig	0	0	0	0	0	0	0	0	0	0	0	0	0	0	0	0	0	0	0	0	0	0	0	0	0	0	0	0	0	0
2024-05-08	11:20:33	11:34:08	814901	6.6.1	4_exp_EVA_AWA_CON	17	A	B	Rpleas_acq	Same	Rpleas	1pleas	conawa_CS2_US6_confidence	conawa1_nomask	8	10	0	0	300	300	0	0	3254	guess	1	11,9791666666666714036pct	anregung	vertrauen	sonnig	vergnügt	kuss	träumen	ausrottung	versagen	sterben	verbissen	krise	töten	kreativ	genießen	gesittet	engagiert	besonnen	gütig	krank	gemein	geizig	engstirnig	bange	gierig	0	0	0	0	0	0	0	0	0	0	0	0	0	0	0	0	0	0	0	0	0	0	0	0	0	0	0	0	0	0
2024-05-08	11:20:33	11:34:13	819474	6.6.1	4_exp_EVA_AWA_CON	17	A	B	Rpleas_acq	Same	Rpleas	1pleas	conawa_CS1_US4	conawa1_nomask	8	11	0	0	300	300	0	0	3957	engstirnig	1	11,9791666666666714036pct	anregung	vertrauen	sonnig	vergnügt	kuss	träumen	ausrottung	versagen	sterben	verbissen	krise	töten	kreativ	genießen	gesittet	engagiert	besonnen	gütig	krank	gemein	geizig	engstirnig	bange	gierig	0	0	0	0	0	0	0	0	0	0	0	0	0	0	0	0	0	0	0	0	0	0	0	0	0	0	0	0	0	0
2024-05-08	11:20:33	11:34:13	819475	6.6.1	4_exp_EVA_AWA_CON	17	A	B	Rpleas_acq	Same	Rpleas	1pleas	conawa_CS1_US4_confidence	conawa1_nomask	8	11	0	0	300	300	0	0	3957	guess	1	11,9791666666666714036pct	anregung	vertrauen	sonnig	vergnügt	kuss	träumen	ausrottung	versagen	sterben	verbissen	krise	töten	kreativ	genießen	gesittet	engagiert	besonnen	gütig	krank	gemein	geizig	engstirnig	bange	gierig	0	0	0	0	0	0	0	0	0	0	0	0	0	0	0	0	0	0	0	0	0	0	0	0	0	0	0	0	0	0
2024-05-08	11:20:33	11:34:20	827118	6.6.1	4_exp_EVA_AWA_CON	17	A	B	Rpleas_acq	Same	Rpleas	1pleas	conawa_CS2_US3	conawa1_nomask	8	12	0	0	300	300	0	0	7030	sterben	1	11,9791666666666714036pct	anregung	vertrauen	sonnig	vergnügt	kuss	träumen	ausrottung	versagen	sterben	verbissen	krise	töten	kreativ	genießen	gesittet	engagiert	besonnen	gütig	krank	gemein	geizig	engstirnig	bange	gierig	0	0	0	0	0	0	0	0	0	0	0	0	0	0	0	0	0	0	0	0	0	0	0	0	0	0	0	0	0	0
2024-05-08	11:20:33	11:34:20	827119	6.6.1	4_exp_EVA_AWA_CON	17	A	B	Rpleas_acq	Same	Rpleas	1pleas	conawa_CS2_US3_confidence	conawa1_nomask	8	12	0	0	300	300	0	0	7030	guess	1	11,9791666666666714036pct	anregung	vertrauen	sonnig	vergnügt	kuss	träumen	ausrottung	versagen	sterben	verbissen	krise	töten	kreativ	genießen	gesittet	engagiert	besonnen	gütig	krank	gemein	geizig	engstirnig	bange	gierig	0	0	0	0	0	0	0	0	0	0	0	0	0	0	0	0	0	0	0	0	0	0	0	0	0	0	0	0	0	0
2024-05-08	11:20:33	11:35:34	900842	6.6.1	4_exp_EVA_AWA_CON	17	A	B	Rpleas_acq	Same	Rpleas	1pleas	cond_new_unple_456_nomask_CS2	condtest_nomask_1	11	1	400	0	300	300	0	0	526	46	1	11,9791666666666714036pct	anregung	vertrauen	sonnig	vergnügt	kuss	träumen	ausrottung	versagen	sterben	verbissen	krise	töten	kreativ	genießen	gesittet	engagiert	besonnen	gütig	krank	gemein	geizig	engstirnig	bange	gierig	1	blank2r.bmp	0	1	+	0	1	blank2r.bmp	500	1	DHJF	500	1	blank2r.bmp	880	3	bange	880	1	!	1232	1	!	-1	0	0	0	0	0	0
