date	time	currenttime	elapsedtime	build	currentexpt	subject	CS_AB	US_AB	LRpleas_acq	SameOppo	condition_Lpleas	condition_1pleas	trialcode	blockcode	blocknum	trialnum	windowcenter	inwindow	pretrialpause	posttrialpause	trialduration	trialtimeout	latency	response	correct	correctedscore	US_nomask_pleas1	US_nomask_pleas2	US_nomask_pleas3	US_nomask_pleas4	US_nomask_pleas5	US_nomask_pleas6	US_nomask_unple1	US_nomask_unple2	US_nomask_unple3	US_nomask_unple4	US_nomask_unple5	US_nomask_unple6	new_nomask_pleas1	new_nomask_pleas2	new_nomask_pleas3	new_nomask_pleas4	new_nomask_pleas5	new_nomask_pleas6	new_nomask_unple1	new_nomask_unple2	new_nomask_unple3	new_nomask_unple4	new_nomask_unple5	new_nomask_unple6	stimulusnumber1	stimulusitem1	stimulusonset1	stimulusnumber2	stimulusitem2	stimulusonset2	stimulusnumber3	stimulusitem3	stimulusonset3	stimulusnumber4	stimulusitem4	stimulusonset4	stimulusnumber5	stimulusitem5	stimulusonset5	stimulusnumber6	stimulusitem6	stimulusonset6	stimulusnumber7	stimulusitem7	stimulusonset7	stimulusnumber8	stimulusitem8	stimulusonset8	stimulusnumber9	stimulusitem9	stimulusonset9	stimulusnumber10	stimulusitem10	stimulusonset10
2024-05-02	09:03:24	09:07:59	275199	6.6.1	4_exp_EVA_AWA_CON	5	B	A	Rpleas_acq	Same	Rpleas	1pleas	acq_new_unple_nomask	acq1_nomask	1	1	0	0	300	300	0	0	1371	46	1	0	fair	lachen	spielen	freundlich	ehrlich	schön	faul	leiden	strafen	fanatisch	eitel	schlecht	loyal	helfen	schlau	treu	tolerant	retten	lasch	hindern	schroff	tot	tyrannisch	rächen	1	blank2r.bmp	0	1	+	0	1	blank2r.bmp	500	1	B1r.bmp	500	1	blank2r.bmp	880	2	hindern	880	0	0	0	0	0	0	0	0	0	0	0	0
2024-05-02	09:03:24	09:08:02	278206	6.6.1	4_exp_EVA_AWA_CON	5	B	A	Rpleas_acq	Same	Rpleas	1pleas	acq_new_pleas_nomask	acq1_nomask	1	2	0	0	300	300	0	0	1527	50	1	0	fair	lachen	spielen	freundlich	ehrlich	schön	faul	leiden	strafen	fanatisch	eitel	schlecht	loyal	helfen	schlau	treu	tolerant	retten	lasch	hindern	schroff	tot	tyrannisch	rächen	1	blank2r.bmp	0	1	+	0	1	blank2r.bmp	500	7	C3r.bmp	500	1	blank2r.bmp	880	1	loyal	880	0	0	0	0	0	0	0	0	0	0	0	0
2024-05-02	09:03:24	09:08:06	281654	6.6.1	4_exp_EVA_AWA_CON	5	B	A	Rpleas_acq	Same	Rpleas	1pleas	acq_US_unple_nomask	acq1_nomask	1	3	0	0	300	300	0	0	1963	46	1	0	fair	lachen	spielen	freundlich	ehrlich	schön	faul	leiden	strafen	fanatisch	eitel	schlecht	loyal	helfen	schlau	treu	tolerant	retten	lasch	hindern	schroff	tot	tyrannisch	rächen	1	blank2r.bmp	0	1	+	0	1	blank2r.bmp	500	1	GKQX	500	1	blank2r.bmp	880	1	faul	880	0	0	0	0	0	0	0	0	0	0	0	0
2024-05-02	09:03:24	09:08:08	284062	6.6.1	4_exp_EVA_AWA_CON	5	B	A	Rpleas_acq	Same	Rpleas	1pleas	acq_US_pleas_nomask	acq1_nomask	1	4	0	0	300	300	0	0	919	50	1	0	fair	lachen	spielen	freundlich	ehrlich	schön	faul	leiden	strafen	fanatisch	eitel	schlecht	loyal	helfen	schlau	treu	tolerant	retten	lasch	hindern	schroff	tot	tyrannisch	rächen	1	blank2r.bmp	0	1	+	0	1	blank2r.bmp	500	1	BMVZ	500	1	blank2r.bmp	880	1	fair	880	0	0	0	0	0	0	0	0	0	0	0	0
2024-05-02	09:03:24	09:08:11	286270	6.6.1	4_exp_EVA_AWA_CON	5	B	A	Rpleas_acq	Same	Rpleas	1pleas	acq_new_unple_nomask	acq1_nomask	1	5	0	0	300	300	0	0	725	46	1	0	fair	lachen	spielen	freundlich	ehrlich	schön	faul	leiden	strafen	fanatisch	eitel	schlecht	loyal	helfen	schlau	treu	tolerant	retten	lasch	hindern	schroff	tot	tyrannisch	rächen	1	blank2r.bmp	0	1	+	0	1	blank2r.bmp	500	4	B4r.bmp	500	1	blank2r.bmp	880	3	schroff	880	0	0	0	0	0	0	0	0	0	0	0	0
2024-05-02	09:03:24	09:08:13	288718	6.6.1	4_exp_EVA_AWA_CON	5	B	A	Rpleas_acq	Same	Rpleas	1pleas	acq_US_unple_nomask	acq1_nomask	1	6	0	0	300	300	0	0	962	46	1	0	fair	lachen	spielen	freundlich	ehrlich	schön	faul	leiden	strafen	fanatisch	eitel	schlecht	loyal	helfen	schlau	treu	tolerant	retten	lasch	hindern	schroff	tot	tyrannisch	rächen	1	blank2r.bmp	0	1	+	0	1	blank2r.bmp	500	1	GKQX	500	1	blank2r.bmp	880	5	eitel	880	0	0	0	0	0	0	0	0	0	0	0	0
2024-05-02	09:03:24	09:08:15	290902	6.6.1	4_exp_EVA_AWA_CON	5	B	A	Rpleas_acq	Same	Rpleas	1pleas	acq_US_pleas_nomask	acq1_nomask	1	7	0	0	300	300	0	0	704	50	1	0	fair	lachen	spielen	freundlich	ehrlich	schön	faul	leiden	strafen	fanatisch	eitel	schlecht	loyal	helfen	schlau	treu	tolerant	retten	lasch	hindern	schroff	tot	tyrannisch	rächen	1	blank2r.bmp	0	1	+	0	1	blank2r.bmp	500	1	BMVZ	500	1	blank2r.bmp	880	5	ehrlich	880	0	0	0	0	0	0	0	0	0	0	0	0
2024-05-02	09:03:24	09:08:17	293118	6.6.1	4_exp_EVA_AWA_CON	5	B	A	Rpleas_acq	Same	Rpleas	1pleas	acq_new_unple_nomask	acq1_nomask	1	8	0	0	300	300	0	0	729	46	1	0	fair	lachen	spielen	freundlich	ehrlich	schön	faul	leiden	strafen	fanatisch	eitel	schlecht	loyal	helfen	schlau	treu	tolerant	retten	lasch	hindern	schroff	tot	tyrannisch	rächen	1	blank2r.bmp	0	1	+	0	1	blank2r.bmp	500	5	C1r.bmp	500	1	blank2r.bmp	880	1	lasch	880	0	0	0	0	0	0	0	0	0	0	0	0
2024-05-02	09:03:24	09:08:20	295342	6.6.1	4_exp_EVA_AWA_CON	5	B	A	Rpleas_acq	Same	Rpleas	1pleas	acq_US_pleas_nomask	acq1_nomask	1	9	0	0	300	300	0	0	741	50	1	0	fair	lachen	spielen	freundlich	ehrlich	schön	faul	leiden	strafen	fanatisch	eitel	schlecht	loyal	helfen	schlau	treu	tolerant	retten	lasch	hindern	schroff	tot	tyrannisch	rächen	1	blank2r.bmp	0	1	+	0	1	blank2r.bmp	500	1	BMVZ	500	1	blank2r.bmp	880	3	spielen	880	0	0	0	0	0	0	0	0	0	0	0	0
2024-05-02	09:03:24	09:08:22	297454	6.6.1	4_exp_EVA_AWA_CON	5	B	A	Rpleas_acq	Same	Rpleas	1pleas	acq_new_pleas_nomask	acq1_nomask	1	10	0	0	300	300	0	0	632	50	1	0	fair	lachen	spielen	freundlich	ehrlich	schön	faul	leiden	strafen	fanatisch	eitel	schlecht	loyal	helfen	schlau	treu	tolerant	retten	lasch	hindern	schroff	tot	tyrannisch	rächen	1	blank2r.bmp	0	1	+	0	1	blank2r.bmp	500	8	C4r.bmp	500	1	blank2r.bmp	880	4	treu	880	0	0	0	0	0	0	0	0	0	0	0	0
2024-05-02	09:03:24	09:08:24	299590	6.6.1	4_exp_EVA_AWA_CON	5	B	A	Rpleas_acq	Same	Rpleas	1pleas	acq_US_unple_nomask	acq1_nomask	1	11	0	0	300	300	0	0	646	46	1	0	fair	lachen	spielen	freundlich	ehrlich	schön	faul	leiden	strafen	fanatisch	eitel	schlecht	loyal	helfen	schlau	treu	tolerant	retten	lasch	hindern	schroff	tot	tyrannisch	rächen	1	blank2r.bmp	0	1	+	0	1	blank2r.bmp	500	1	GKQX	500	1	blank2r.bmp	880	6	schlecht	880	0	0	0	0	0	0	0	0	0	0	0	0
2024-05-02	09:03:24	09:08:26	301934	6.6.1	4_exp_EVA_AWA_CON	5	B	A	Rpleas_acq	Same	Rpleas	1pleas	acq_new_pleas_nomask	acq1_nomask	1	12	0	0	300	300	0	0	859	50	1	0	fair	lachen	spielen	freundlich	ehrlich	schön	faul	leiden	strafen	fanatisch	eitel	schlecht	loyal	helfen	schlau	treu	tolerant	retten	lasch	hindern	schroff	tot	tyrannisch	rächen	1	blank2r.bmp	0	1	+	0	1	blank2r.bmp	500	2	B2r.bmp	500	1	blank2r.bmp	880	2	helfen	880	0	0	0	0	0	0	0	0	0	0	0	0
2024-05-02	09:03:24	09:08:28	304062	6.6.1	4_exp_EVA_AWA_CON	5	B	A	Rpleas_acq	Same	Rpleas	1pleas	acq_new_unple_nomask	acq1_nomask	1	13	0	0	300	300	0	0	646	46	1	0	fair	lachen	spielen	freundlich	ehrlich	schön	faul	leiden	strafen	fanatisch	eitel	schlecht	loyal	helfen	schlau	treu	tolerant	retten	lasch	hindern	schroff	tot	tyrannisch	rächen	1	blank2r.bmp	0	1	+	0	1	blank2r.bmp	500	6	C2r.bmp	500	1	blank2r.bmp	880	5	tyrannisch	880	0	0	0	0	0	0	0	0	0	0	0	0
2024-05-02	09:03:24	09:08:30	306086	6.6.1	4_exp_EVA_AWA_CON	5	B	A	Rpleas_acq	Same	Rpleas	1pleas	acq_US_pleas_nomask	acq1_nomask	1	14	0	0	300	300	0	0	538	50	1	0	fair	lachen	spielen	freundlich	ehrlich	schön	faul	leiden	strafen	fanatisch	eitel	schlecht	loyal	helfen	schlau	treu	tolerant	retten	lasch	hindern	schroff	tot	tyrannisch	rächen	1	blank2r.bmp	0	1	+	0	1	blank2r.bmp	500	1	BMVZ	500	1	blank2r.bmp	880	6	schön	880	0	0	0	0	0	0	0	0	0	0	0	0
2024-05-02	09:03:24	09:08:33	308303	6.6.1	4_exp_EVA_AWA_CON	5	B	A	Rpleas_acq	Same	Rpleas	1pleas	acq_new_pleas_nomask	acq1_nomask	1	15	0	0	300	300	0	0	533	46	0	0	fair	lachen	spielen	freundlich	ehrlich	schön	faul	leiden	strafen	fanatisch	eitel	schlecht	loyal	helfen	schlau	treu	tolerant	retten	lasch	hindern	schroff	tot	tyrannisch	rächen	1	blank2r.bmp	0	1	+	0	1	blank2r.bmp	500	3	B3r.bmp	500	1	blank2r.bmp	880	5	tolerant	880	1	FEHLER	1434	0	0	0	0	0	0	0	0	0
2024-05-02	09:03:24	09:08:35	310278	6.6.1	4_exp_EVA_AWA_CON	5	B	A	Rpleas_acq	Same	Rpleas	1pleas	acq_US_unple_nomask	acq1_nomask	1	16	0	0	300	300	0	0	687	46	1	0	fair	lachen	spielen	freundlich	ehrlich	schön	faul	leiden	strafen	fanatisch	eitel	schlecht	loyal	helfen	schlau	treu	tolerant	retten	lasch	hindern	schroff	tot	tyrannisch	rächen	1	blank2r.bmp	0	1	+	0	1	blank2r.bmp	500	1	GKQX	500	1	blank2r.bmp	880	3	strafen	880	0	0	0	0	0	0	0	0	0	0	0	0
2024-05-02	09:03:24	09:08:37	312286	6.6.1	4_exp_EVA_AWA_CON	5	B	A	Rpleas_acq	Same	Rpleas	1pleas	acq_new_pleas_nomask	acq1_nomask	1	17	0	0	300	300	0	0	524	50	1	0	fair	lachen	spielen	freundlich	ehrlich	schön	faul	leiden	strafen	fanatisch	eitel	schlecht	loyal	helfen	schlau	treu	tolerant	retten	lasch	hindern	schroff	tot	tyrannisch	rächen	1	blank2r.bmp	0	1	+	0	1	blank2r.bmp	500	7	C3r.bmp	500	1	blank2r.bmp	880	3	schlau	880	0	0	0	0	0	0	0	0	0	0	0	0
2024-05-02	09:03:24	09:08:39	314278	6.6.1	4_exp_EVA_AWA_CON	5	B	A	Rpleas_acq	Same	Rpleas	1pleas	acq_US_pleas_nomask	acq1_nomask	1	18	0	0	300	300	0	0	505	50	1	0	fair	lachen	spielen	freundlich	ehrlich	schön	faul	leiden	strafen	fanatisch	eitel	schlecht	loyal	helfen	schlau	treu	tolerant	retten	lasch	hindern	schroff	tot	tyrannisch	rächen	1	blank2r.bmp	0	1	+	0	1	blank2r.bmp	500	1	BMVZ	500	1	blank2r.bmp	880	2	lachen	880	0	0	0	0	0	0	0	0	0	0	0	0
2024-05-02	09:03:24	09:08:41	316496	6.6.1	4_exp_EVA_AWA_CON	5	B	A	Rpleas_acq	Same	Rpleas	1pleas	acq_US_unple_nomask	acq1_nomask	1	19	0	0	300	300	0	0	529	50	0	0	fair	lachen	spielen	freundlich	ehrlich	schön	faul	leiden	strafen	fanatisch	eitel	schlecht	loyal	helfen	schlau	treu	tolerant	retten	lasch	hindern	schroff	tot	tyrannisch	rächen	1	blank2r.bmp	0	1	+	0	1	blank2r.bmp	500	1	GKQX	500	1	blank2r.bmp	880	4	fanatisch	880	1	FEHLER	1431	0	0	0	0	0	0	0	0	0
2024-05-02	09:03:24	09:08:43	318798	6.6.1	4_exp_EVA_AWA_CON	5	B	A	Rpleas_acq	Same	Rpleas	1pleas	acq_new_unple_nomask	acq1_nomask	1	20	0	0	300	300	0	0	1022	46	1	0	fair	lachen	spielen	freundlich	ehrlich	schön	faul	leiden	strafen	fanatisch	eitel	schlecht	loyal	helfen	schlau	treu	tolerant	retten	lasch	hindern	schroff	tot	tyrannisch	rächen	1	blank2r.bmp	0	1	+	0	1	blank2r.bmp	500	8	C4r.bmp	500	1	blank2r.bmp	880	4	tot	880	0	0	0	0	0	0	0	0	0	0	0	0
2024-05-02	09:03:24	09:08:46	321350	6.6.1	4_exp_EVA_AWA_CON	5	B	A	Rpleas_acq	Same	Rpleas	1pleas	acq_US_pleas_nomask	acq1_nomask	1	21	0	0	300	300	0	0	1073	50	1	0	fair	lachen	spielen	freundlich	ehrlich	schön	faul	leiden	strafen	fanatisch	eitel	schlecht	loyal	helfen	schlau	treu	tolerant	retten	lasch	hindern	schroff	tot	tyrannisch	rächen	1	blank2r.bmp	0	1	+	0	1	blank2r.bmp	500	1	BMVZ	500	1	blank2r.bmp	880	4	freundlich	880	0	0	0	0	0	0	0	0	0	0	0	0
2024-05-02	09:03:24	09:08:49	324718	6.6.1	4_exp_EVA_AWA_CON	5	B	A	Rpleas_acq	Same	Rpleas	1pleas	acq_US_unple_nomask	acq1_nomask	1	22	0	0	300	300	0	0	1879	46	1	0	fair	lachen	spielen	freundlich	ehrlich	schön	faul	leiden	strafen	fanatisch	eitel	schlecht	loyal	helfen	schlau	treu	tolerant	retten	lasch	hindern	schroff	tot	tyrannisch	rächen	1	blank2r.bmp	0	1	+	0	1	blank2r.bmp	500	1	GKQX	500	1	blank2r.bmp	880	2	leiden	880	0	0	0	0	0	0	0	0	0	0	0	0
2024-05-02	09:03:24	09:08:51	326806	6.6.1	4_exp_EVA_AWA_CON	5	B	A	Rpleas_acq	Same	Rpleas	1pleas	acq_new_unple_nomask	acq1_nomask	1	23	0	0	300	300	0	0	605	46	1	0	fair	lachen	spielen	freundlich	ehrlich	schön	faul	leiden	strafen	fanatisch	eitel	schlecht	loyal	helfen	schlau	treu	tolerant	retten	lasch	hindern	schroff	tot	tyrannisch	rächen	1	blank2r.bmp	0	1	+	0	1	blank2r.bmp	500	4	B4r.bmp	500	1	blank2r.bmp	880	6	rächen	880	0	0	0	0	0	0	0	0	0	0	0	0
2024-05-02	09:03:24	09:08:53	329038	6.6.1	4_exp_EVA_AWA_CON	5	B	A	Rpleas_acq	Same	Rpleas	1pleas	acq_new_pleas_nomask	acq1_nomask	1	24	0	0	300	300	0	0	745	50	1	0	fair	lachen	spielen	freundlich	ehrlich	schön	faul	leiden	strafen	fanatisch	eitel	schlecht	loyal	helfen	schlau	treu	tolerant	retten	lasch	hindern	schroff	tot	tyrannisch	rächen	1	blank2r.bmp	0	1	+	0	1	blank2r.bmp	500	3	B3r.bmp	500	1	blank2r.bmp	880	6	retten	880	0	0	0	0	0	0	0	0	0	0	0	0
2024-05-02	09:03:24	09:08:56	331294	6.6.1	4_exp_EVA_AWA_CON	5	B	A	Rpleas_acq	Same	Rpleas	1pleas	acq_new_unple_nomask	acq1_nomask	1	25	0	0	300	300	0	0	770	46	1	0	fair	lachen	spielen	freundlich	ehrlich	schön	faul	leiden	strafen	fanatisch	eitel	schlecht	loyal	helfen	schlau	treu	tolerant	retten	lasch	hindern	schroff	tot	tyrannisch	rächen	1	blank2r.bmp	0	1	+	0	1	blank2r.bmp	500	6	C2r.bmp	500	1	blank2r.bmp	880	2	hindern	880	0	0	0	0	0	0	0	0	0	0	0	0
2024-05-02	09:03:24	09:08:58	333310	6.6.1	4_exp_EVA_AWA_CON	5	B	A	Rpleas_acq	Same	Rpleas	1pleas	acq_US_pleas_nomask	acq1_nomask	1	26	0	0	300	300	0	0	534	50	1	0	fair	lachen	spielen	freundlich	ehrlich	schön	faul	leiden	strafen	fanatisch	eitel	schlecht	loyal	helfen	schlau	treu	tolerant	retten	lasch	hindern	schroff	tot	tyrannisch	rächen	1	blank2r.bmp	0	1	+	0	1	blank2r.bmp	500	1	BMVZ	500	1	blank2r.bmp	880	1	fair	880	0	0	0	0	0	0	0	0	0	0	0	0
2024-05-02	09:03:24	09:09:00	335550	6.6.1	4_exp_EVA_AWA_CON	5	B	A	Rpleas_acq	Same	Rpleas	1pleas	acq_US_unple_nomask	acq1_nomask	1	27	0	0	300	300	0	0	753	46	1	0	fair	lachen	spielen	freundlich	ehrlich	schön	faul	leiden	strafen	fanatisch	eitel	schlecht	loyal	helfen	schlau	treu	tolerant	retten	lasch	hindern	schroff	tot	tyrannisch	rächen	1	blank2r.bmp	0	1	+	0	1	blank2r.bmp	500	1	GKQX	500	1	blank2r.bmp	880	5	eitel	880	0	0	0	0	0	0	0	0	0	0	0	0
2024-05-02	09:03:24	09:09:02	337726	6.6.1	4_exp_EVA_AWA_CON	5	B	A	Rpleas_acq	Same	Rpleas	1pleas	acq_new_pleas_nomask	acq1_nomask	1	28	0	0	300	300	0	0	687	50	1	0	fair	lachen	spielen	freundlich	ehrlich	schön	faul	leiden	strafen	fanatisch	eitel	schlecht	loyal	helfen	schlau	treu	tolerant	retten	lasch	hindern	schroff	tot	tyrannisch	rächen	1	blank2r.bmp	0	1	+	0	1	blank2r.bmp	500	5	C1r.bmp	500	1	blank2r.bmp	880	2	helfen	880	0	0	0	0	0	0	0	0	0	0	0	0
2024-05-02	09:03:24	09:09:04	339758	6.6.1	4_exp_EVA_AWA_CON	5	B	A	Rpleas_acq	Same	Rpleas	1pleas	acq_US_unple_nomask	acq1_nomask	1	29	0	0	300	300	0	0	548	46	1	0	fair	lachen	spielen	freundlich	ehrlich	schön	faul	leiden	strafen	fanatisch	eitel	schlecht	loyal	helfen	schlau	treu	tolerant	retten	lasch	hindern	schroff	tot	tyrannisch	rächen	1	blank2r.bmp	0	1	+	0	1	blank2r.bmp	500	1	GKQX	500	1	blank2r.bmp	880	3	strafen	880	0	0	0	0	0	0	0	0	0	0	0	0
2024-05-02	09:03:24	09:09:06	341750	6.6.1	4_exp_EVA_AWA_CON	5	B	A	Rpleas_acq	Same	Rpleas	1pleas	acq_US_pleas_nomask	acq1_nomask	1	30	0	0	300	300	0	0	509	50	1	0	fair	lachen	spielen	freundlich	ehrlich	schön	faul	leiden	strafen	fanatisch	eitel	schlecht	loyal	helfen	schlau	treu	tolerant	retten	lasch	hindern	schroff	tot	tyrannisch	rächen	1	blank2r.bmp	0	1	+	0	1	blank2r.bmp	500	1	BMVZ	500	1	blank2r.bmp	880	5	ehrlich	880	0	0	0	0	0	0	0	0	0	0	0	0
2024-05-02	09:03:24	09:09:08	343734	6.6.1	4_exp_EVA_AWA_CON	5	B	A	Rpleas_acq	Same	Rpleas	1pleas	acq_new_unple_nomask	acq1_nomask	1	31	0	0	300	300	0	0	501	46	1	0	fair	lachen	spielen	freundlich	ehrlich	schön	faul	leiden	strafen	fanatisch	eitel	schlecht	loyal	helfen	schlau	treu	tolerant	retten	lasch	hindern	schroff	tot	tyrannisch	rächen	1	blank2r.bmp	0	1	+	0	1	blank2r.bmp	500	2	B2r.bmp	500	1	blank2r.bmp	880	1	lasch	880	0	0	0	0	0	0	0	0	0	0	0	0
2024-05-02	09:03:24	09:09:10	345766	6.6.1	4_exp_EVA_AWA_CON	5	B	A	Rpleas_acq	Same	Rpleas	1pleas	acq_US_unple_nomask	acq1_nomask	1	32	0	0	300	300	0	0	552	46	1	0	fair	lachen	spielen	freundlich	ehrlich	schön	faul	leiden	strafen	fanatisch	eitel	schlecht	loyal	helfen	schlau	treu	tolerant	retten	lasch	hindern	schroff	tot	tyrannisch	rächen	1	blank2r.bmp	0	1	+	0	1	blank2r.bmp	500	1	GKQX	500	1	blank2r.bmp	880	6	schlecht	880	0	0	0	0	0	0	0	0	0	0	0	0
2024-05-02	09:03:24	09:09:12	347726	6.6.1	4_exp_EVA_AWA_CON	5	B	A	Rpleas_acq	Same	Rpleas	1pleas	acq_new_pleas_nomask	acq1_nomask	1	33	0	0	300	300	0	0	471	50	1	0	fair	lachen	spielen	freundlich	ehrlich	schön	faul	leiden	strafen	fanatisch	eitel	schlecht	loyal	helfen	schlau	treu	tolerant	retten	lasch	hindern	schroff	tot	tyrannisch	rächen	1	blank2r.bmp	0	1	+	0	1	blank2r.bmp	500	1	B1r.bmp	500	1	blank2r.bmp	880	6	retten	880	0	0	0	0	0	0	0	0	0	0	0	0
2024-05-02	09:03:24	09:09:14	349766	6.6.1	4_exp_EVA_AWA_CON	5	B	A	Rpleas_acq	Same	Rpleas	1pleas	acq_new_pleas_nomask	acq1_nomask	1	34	0	0	300	300	0	0	559	50	1	0	fair	lachen	spielen	freundlich	ehrlich	schön	faul	leiden	strafen	fanatisch	eitel	schlecht	loyal	helfen	schlau	treu	tolerant	retten	lasch	hindern	schroff	tot	tyrannisch	rächen	1	blank2r.bmp	0	1	+	0	1	blank2r.bmp	500	2	B2r.bmp	500	1	blank2r.bmp	880	5	tolerant	880	0	0	0	0	0	0	0	0	0	0	0	0
2024-05-02	09:03:24	09:09:16	351719	6.6.1	4_exp_EVA_AWA_CON	5	B	A	Rpleas_acq	Same	Rpleas	1pleas	acq_US_pleas_nomask	acq1_nomask	1	35	0	0	300	300	0	0	470	50	1	0	fair	lachen	spielen	freundlich	ehrlich	schön	faul	leiden	strafen	fanatisch	eitel	schlecht	loyal	helfen	schlau	treu	tolerant	retten	lasch	hindern	schroff	tot	tyrannisch	rächen	1	blank2r.bmp	0	1	+	0	1	blank2r.bmp	500	1	BMVZ	500	1	blank2r.bmp	880	4	freundlich	880	0	0	0	0	0	0	0	0	0	0	0	0
2024-05-02	09:03:24	09:09:18	353694	6.6.1	4_exp_EVA_AWA_CON	5	B	A	Rpleas_acq	Same	Rpleas	1pleas	acq_new_unple_nomask	acq1_nomask	1	36	0	0	300	300	0	0	495	46	1	0	fair	lachen	spielen	freundlich	ehrlich	schön	faul	leiden	strafen	fanatisch	eitel	schlecht	loyal	helfen	schlau	treu	tolerant	retten	lasch	hindern	schroff	tot	tyrannisch	rächen	1	blank2r.bmp	0	1	+	0	1	blank2r.bmp	500	8	C4r.bmp	500	1	blank2r.bmp	880	4	tot	880	0	0	0	0	0	0	0	0	0	0	0	0
2024-05-02	09:03:24	09:09:40	375720	6.6.1	4_exp_EVA_AWA_CON	5	B	A	Rpleas_acq	Same	Rpleas	1pleas	acq_new_unple_nomask	acq2_nomask	2	1	480	0	300	300	0	0	687	46	1	0	fair	lachen	spielen	freundlich	ehrlich	schön	faul	leiden	strafen	fanatisch	eitel	schlecht	loyal	helfen	schlau	treu	tolerant	retten	lasch	hindern	schroff	tot	tyrannisch	rächen	1	blank2r.bmp	0	1	+	0	1	blank2r.bmp	500	7	C3r.bmp	500	1	blank2r.bmp	880	3	schroff	880	1	!	1312	1	!	-1	0	0	0	0	0	0
2024-05-02	09:03:24	09:09:42	377946	6.6.1	4_exp_EVA_AWA_CON	5	B	A	Rpleas_acq	Same	Rpleas	1pleas	acq_US_pleas_nomask	acq2_nomask	2	2	480	1	300	300	0	0	449	50	1	0	fair	lachen	spielen	freundlich	ehrlich	schön	faul	leiden	strafen	fanatisch	eitel	schlecht	loyal	helfen	schlau	treu	tolerant	retten	lasch	hindern	schroff	tot	tyrannisch	rächen	1	blank2r.bmp	0	1	+	0	1	blank2r.bmp	500	1	BMVZ	500	1	blank2r.bmp	880	3	spielen	880	1	!	1313	1	!	1350	0	0	0	0	0	0
2024-05-02	09:03:24	09:09:44	380170	6.6.1	4_exp_EVA_AWA_CON	5	B	A	Rpleas_acq	Same	Rpleas	1pleas	acq_US_unple_nomask	acq2_nomask	2	3	480	1	300	300	0	0	442	46	1	0	fair	lachen	spielen	freundlich	ehrlich	schön	faul	leiden	strafen	fanatisch	eitel	schlecht	loyal	helfen	schlau	treu	tolerant	retten	lasch	hindern	schroff	tot	tyrannisch	rächen	1	blank2r.bmp	0	1	+	0	1	blank2r.bmp	500	1	GKQX	500	1	blank2r.bmp	880	1	faul	880	1	!	1313	1	!	1343	0	0	0	0	0	0
2024-05-02	09:03:24	09:09:47	382459	6.6.1	4_exp_EVA_AWA_CON	5	B	A	Rpleas_acq	Same	Rpleas	1pleas	acq_new_pleas_nomask	acq2_nomask	2	4	480	1	300	300	0	0	508	50	1	0	fair	lachen	spielen	freundlich	ehrlich	schön	faul	leiden	strafen	fanatisch	eitel	schlecht	loyal	helfen	schlau	treu	tolerant	retten	lasch	hindern	schroff	tot	tyrannisch	rächen	1	blank2r.bmp	0	1	+	0	1	blank2r.bmp	500	1	B1r.bmp	500	1	blank2r.bmp	880	3	schlau	880	1	!	1312	1	!	1409	0	0	0	0	0	0
2024-05-02	09:03:24	09:09:49	384979	6.6.1	4_exp_EVA_AWA_CON	5	B	A	Rpleas_acq	Same	Rpleas	1pleas	acq_US_unple_nomask	acq2_nomask	2	5	480	1	300	300	0	0	537	50	0	0	fair	lachen	spielen	freundlich	ehrlich	schön	faul	leiden	strafen	fanatisch	eitel	schlecht	loyal	helfen	schlau	treu	tolerant	retten	lasch	hindern	schroff	tot	tyrannisch	rächen	1	blank2r.bmp	0	1	+	0	1	blank2r.bmp	500	1	GKQX	500	1	blank2r.bmp	880	4	fanatisch	880	1	FEHLER	1730	1	!	1312	1	!	1438	0	0	0
2024-05-02	09:03:24	09:09:51	387050	6.6.1	4_exp_EVA_AWA_CON	5	B	A	Rpleas_acq	Same	Rpleas	1pleas	acq_US_unple_nomask	acq2_nomask	2	6	480	1	300	300	0	0	497	46	1	0	fair	lachen	spielen	freundlich	ehrlich	schön	faul	leiden	strafen	fanatisch	eitel	schlecht	loyal	helfen	schlau	treu	tolerant	retten	lasch	hindern	schroff	tot	tyrannisch	rächen	1	blank2r.bmp	0	1	+	0	1	blank2r.bmp	500	1	GKQX	500	1	blank2r.bmp	880	2	leiden	880	1	!	1313	1	!	1398	0	0	0	0	0	0
2024-05-02	09:03:24	09:09:54	389547	6.6.1	4_exp_EVA_AWA_CON	5	B	A	Rpleas_acq	Same	Rpleas	1pleas	acq_new_unple_nomask	acq2_nomask	2	7	480	1	300	300	0	0	522	50	0	0	fair	lachen	spielen	freundlich	ehrlich	schön	faul	leiden	strafen	fanatisch	eitel	schlecht	loyal	helfen	schlau	treu	tolerant	retten	lasch	hindern	schroff	tot	tyrannisch	rächen	1	blank2r.bmp	0	1	+	0	1	blank2r.bmp	500	6	C2r.bmp	500	1	blank2r.bmp	880	5	tyrannisch	880	1	FEHLER	1715	1	!	1312	1	!	1423	0	0	0
2024-05-02	09:03:24	09:09:56	391808	6.6.1	4_exp_EVA_AWA_CON	5	B	A	Rpleas_acq	Same	Rpleas	1pleas	acq_new_pleas_nomask	acq2_nomask	2	8	480	0	300	300	0	0	684	50	1	0	fair	lachen	spielen	freundlich	ehrlich	schön	faul	leiden	strafen	fanatisch	eitel	schlecht	loyal	helfen	schlau	treu	tolerant	retten	lasch	hindern	schroff	tot	tyrannisch	rächen	1	blank2r.bmp	0	1	+	0	1	blank2r.bmp	500	4	B4r.bmp	500	1	blank2r.bmp	880	4	treu	880	1	!	1313	1	!	-1	0	0	0	0	0	0
2024-05-02	09:03:24	09:09:58	394184	6.6.1	4_exp_EVA_AWA_CON	5	B	A	Rpleas_acq	Same	Rpleas	1pleas	acq_new_unple_nomask	acq2_nomask	2	9	480	0	300	300	0	0	599	46	1	0	fair	lachen	spielen	freundlich	ehrlich	schön	faul	leiden	strafen	fanatisch	eitel	schlecht	loyal	helfen	schlau	treu	tolerant	retten	lasch	hindern	schroff	tot	tyrannisch	rächen	1	blank2r.bmp	0	1	+	0	1	blank2r.bmp	500	3	B3r.bmp	500	1	blank2r.bmp	880	6	rächen	880	1	!	1313	1	!	-1	0	0	0	0	0	0
2024-05-02	09:03:24	09:10:01	396434	6.6.1	4_exp_EVA_AWA_CON	5	B	A	Rpleas_acq	Same	Rpleas	1pleas	acq_new_pleas_nomask	acq2_nomask	2	10	480	1	300	300	0	0	475	50	1	0	fair	lachen	spielen	freundlich	ehrlich	schön	faul	leiden	strafen	fanatisch	eitel	schlecht	loyal	helfen	schlau	treu	tolerant	retten	lasch	hindern	schroff	tot	tyrannisch	rächen	1	blank2r.bmp	0	1	+	0	1	blank2r.bmp	500	5	C1r.bmp	500	1	blank2r.bmp	880	1	loyal	880	1	!	1313	1	!	1376	0	0	0	0	0	0
2024-05-02	09:03:24	09:10:03	398682	6.6.1	4_exp_EVA_AWA_CON	5	B	A	Rpleas_acq	Same	Rpleas	1pleas	acq_US_pleas_nomask	acq2_nomask	2	11	480	1	300	300	0	0	472	50	1	0	fair	lachen	spielen	freundlich	ehrlich	schön	faul	leiden	strafen	fanatisch	eitel	schlecht	loyal	helfen	schlau	treu	tolerant	retten	lasch	hindern	schroff	tot	tyrannisch	rächen	1	blank2r.bmp	0	1	+	0	1	blank2r.bmp	500	1	BMVZ	500	1	blank2r.bmp	880	6	schön	880	1	!	1312	1	!	1373	0	0	0	0	0	0
2024-05-02	09:03:24	09:10:05	400962	6.6.1	4_exp_EVA_AWA_CON	5	B	A	Rpleas_acq	Same	Rpleas	1pleas	acq_US_pleas_nomask	acq2_nomask	2	12	480	1	300	300	0	0	500	50	1	0	fair	lachen	spielen	freundlich	ehrlich	schön	faul	leiden	strafen	fanatisch	eitel	schlecht	loyal	helfen	schlau	treu	tolerant	retten	lasch	hindern	schroff	tot	tyrannisch	rächen	1	blank2r.bmp	0	1	+	0	1	blank2r.bmp	500	1	BMVZ	500	1	blank2r.bmp	880	2	lachen	880	1	!	1313	1	!	1402	0	0	0	0	0	0
2024-05-02	09:03:24	09:10:07	403178	6.6.1	4_exp_EVA_AWA_CON	5	B	A	Rpleas_acq	Same	Rpleas	1pleas	acq_US_unple_nomask	acq2_nomask	2	13	480	1	300	300	0	0	435	46	1	0	fair	lachen	spielen	freundlich	ehrlich	schön	faul	leiden	strafen	fanatisch	eitel	schlecht	loyal	helfen	schlau	treu	tolerant	retten	lasch	hindern	schroff	tot	tyrannisch	rächen	1	blank2r.bmp	0	1	+	0	1	blank2r.bmp	500	1	GKQX	500	1	blank2r.bmp	880	1	faul	880	1	!	1313	1	!	1336	0	0	0	0	0	0
2024-05-02	09:03:24	09:10:10	405360	6.6.1	4_exp_EVA_AWA_CON	5	B	A	Rpleas_acq	Same	Rpleas	1pleas	acq_US_pleas_nomask	acq2_nomask	2	14	480	0	300	300	0	0	407	50	1	0	fair	lachen	spielen	freundlich	ehrlich	schön	faul	leiden	strafen	fanatisch	eitel	schlecht	loyal	helfen	schlau	treu	tolerant	retten	lasch	hindern	schroff	tot	tyrannisch	rächen	1	blank2r.bmp	0	1	+	0	1	blank2r.bmp	500	1	BMVZ	500	1	blank2r.bmp	880	4	freundlich	880	1	!	-1	1	!	-1	0	0	0	0	0	0
2024-05-02	09:03:24	09:10:12	407682	6.6.1	4_exp_EVA_AWA_CON	5	B	A	Rpleas_acq	Same	Rpleas	1pleas	acq_new_unple_nomask	acq2_nomask	2	15	480	1	300	300	0	0	546	46	1	0	fair	lachen	spielen	freundlich	ehrlich	schön	faul	leiden	strafen	fanatisch	eitel	schlecht	loyal	helfen	schlau	treu	tolerant	retten	lasch	hindern	schroff	tot	tyrannisch	rächen	1	blank2r.bmp	0	1	+	0	1	blank2r.bmp	500	5	C1r.bmp	500	1	blank2r.bmp	880	2	hindern	880	1	!	1313	1	!	1447	0	0	0	0	0	0
2024-05-02	09:03:24	09:10:14	409882	6.6.1	4_exp_EVA_AWA_CON	5	B	A	Rpleas_acq	Same	Rpleas	1pleas	acq_US_pleas_nomask	acq2_nomask	2	16	480	1	300	300	0	0	424	50	1	0	fair	lachen	spielen	freundlich	ehrlich	schön	faul	leiden	strafen	fanatisch	eitel	schlecht	loyal	helfen	schlau	treu	tolerant	retten	lasch	hindern	schroff	tot	tyrannisch	rächen	1	blank2r.bmp	0	1	+	0	1	blank2r.bmp	500	1	BMVZ	500	1	blank2r.bmp	880	2	lachen	880	1	!	1312	1	!	1325	0	0	0	0	0	0
2024-05-02	09:03:24	09:10:17	412331	6.6.1	4_exp_EVA_AWA_CON	5	B	A	Rpleas_acq	Same	Rpleas	1pleas	acq_new_pleas_nomask	acq2_nomask	2	17	480	1	300	300	0	0	471	46	0	0	fair	lachen	spielen	freundlich	ehrlich	schön	faul	leiden	strafen	fanatisch	eitel	schlecht	loyal	helfen	schlau	treu	tolerant	retten	lasch	hindern	schroff	tot	tyrannisch	rächen	1	blank2r.bmp	0	1	+	0	1	blank2r.bmp	500	3	B3r.bmp	500	1	blank2r.bmp	880	4	treu	880	1	FEHLER	1664	1	!	1312	1	!	1372	0	0	0
2024-05-02	09:03:24	09:10:19	414488	6.6.1	4_exp_EVA_AWA_CON	5	B	A	Rpleas_acq	Same	Rpleas	1pleas	acq_new_unple_nomask	acq2_nomask	2	18	480	0	300	300	0	0	579	46	1	0	fair	lachen	spielen	freundlich	ehrlich	schön	faul	leiden	strafen	fanatisch	eitel	schlecht	loyal	helfen	schlau	treu	tolerant	retten	lasch	hindern	schroff	tot	tyrannisch	rächen	1	blank2r.bmp	0	1	+	0	1	blank2r.bmp	500	6	C2r.bmp	500	1	blank2r.bmp	880	3	schroff	880	1	!	1312	1	!	-1	0	0	0	0	0	0
2024-05-02	09:03:24	09:10:21	416907	6.6.1	4_exp_EVA_AWA_CON	5	B	A	Rpleas_acq	Same	Rpleas	1pleas	acq_US_pleas_nomask	acq2_nomask	2	19	480	1	300	300	0	0	444	46	0	0	fair	lachen	spielen	freundlich	ehrlich	schön	faul	leiden	strafen	fanatisch	eitel	schlecht	loyal	helfen	schlau	treu	tolerant	retten	lasch	hindern	schroff	tot	tyrannisch	rächen	1	blank2r.bmp	0	1	+	0	1	blank2r.bmp	500	1	BMVZ	500	1	blank2r.bmp	880	5	ehrlich	880	1	FEHLER	1637	1	!	1313	1	!	1345	0	0	0
2024-05-02	09:03:24	09:10:23	419056	6.6.1	4_exp_EVA_AWA_CON	5	B	A	Rpleas_acq	Same	Rpleas	1pleas	acq_new_pleas_nomask	acq2_nomask	2	20	480	0	300	300	0	0	575	50	1	0	fair	lachen	spielen	freundlich	ehrlich	schön	faul	leiden	strafen	fanatisch	eitel	schlecht	loyal	helfen	schlau	treu	tolerant	retten	lasch	hindern	schroff	tot	tyrannisch	rächen	1	blank2r.bmp	0	1	+	0	1	blank2r.bmp	500	2	B2r.bmp	500	1	blank2r.bmp	880	2	helfen	880	1	!	1313	1	!	-1	0	0	0	0	0	0
2024-05-02	09:03:24	09:10:26	421378	6.6.1	4_exp_EVA_AWA_CON	5	B	A	Rpleas_acq	Same	Rpleas	1pleas	acq_US_unple_nomask	acq2_nomask	2	21	480	1	300	300	0	0	543	46	1	0	fair	lachen	spielen	freundlich	ehrlich	schön	faul	leiden	strafen	fanatisch	eitel	schlecht	loyal	helfen	schlau	treu	tolerant	retten	lasch	hindern	schroff	tot	tyrannisch	rächen	1	blank2r.bmp	0	1	+	0	1	blank2r.bmp	500	1	GKQX	500	1	blank2r.bmp	880	5	eitel	880	1	!	1313	1	!	1444	0	0	0	0	0	0
2024-05-02	09:03:24	09:10:28	423883	6.6.1	4_exp_EVA_AWA_CON	5	B	A	Rpleas_acq	Same	Rpleas	1pleas	acq_new_pleas_nomask	acq2_nomask	2	22	480	1	300	300	0	0	525	46	0	0	fair	lachen	spielen	freundlich	ehrlich	schön	faul	leiden	strafen	fanatisch	eitel	schlecht	loyal	helfen	schlau	treu	tolerant	retten	lasch	hindern	schroff	tot	tyrannisch	rächen	1	blank2r.bmp	0	1	+	0	1	blank2r.bmp	500	7	C3r.bmp	500	1	blank2r.bmp	880	6	retten	880	1	FEHLER	1718	1	!	1313	1	!	1426	0	0	0
2024-05-02	09:03:24	09:10:30	425922	6.6.1	4_exp_EVA_AWA_CON	5	B	A	Rpleas_acq	Same	Rpleas	1pleas	acq_US_unple_nomask	acq2_nomask	2	23	480	1	300	300	0	0	464	46	1	0	fair	lachen	spielen	freundlich	ehrlich	schön	faul	leiden	strafen	fanatisch	eitel	schlecht	loyal	helfen	schlau	treu	tolerant	retten	lasch	hindern	schroff	tot	tyrannisch	rächen	1	blank2r.bmp	0	1	+	0	1	blank2r.bmp	500	1	GKQX	500	1	blank2r.bmp	880	3	strafen	880	1	!	1313	1	!	1365	0	0	0	0	0	0
2024-05-02	09:03:24	09:10:33	428254	6.6.1	4_exp_EVA_AWA_CON	5	B	A	Rpleas_acq	Same	Rpleas	1pleas	acq_new_unple_nomask	acq2_nomask	2	24	480	0	300	300	0	0	558	46	1	0	fair	lachen	spielen	freundlich	ehrlich	schön	faul	leiden	strafen	fanatisch	eitel	schlecht	loyal	helfen	schlau	treu	tolerant	retten	lasch	hindern	schroff	tot	tyrannisch	rächen	1	blank2r.bmp	0	1	+	0	1	blank2r.bmp	500	4	B4r.bmp	500	1	blank2r.bmp	880	6	rächen	880	1	!	1313	1	!	-1	0	0	0	0	0	0
2024-05-02	09:03:24	09:10:35	430582	6.6.1	4_exp_EVA_AWA_CON	5	B	A	Rpleas_acq	Same	Rpleas	1pleas	acq_new_pleas_nomask	acq2_nomask	2	25	480	0	300	300	0	0	555	50	1	0	fair	lachen	spielen	freundlich	ehrlich	schön	faul	leiden	strafen	fanatisch	eitel	schlecht	loyal	helfen	schlau	treu	tolerant	retten	lasch	hindern	schroff	tot	tyrannisch	rächen	1	blank2r.bmp	0	1	+	0	1	blank2r.bmp	500	1	B1r.bmp	500	1	blank2r.bmp	880	1	loyal	880	1	!	1313	1	!	-1	0	0	0	0	0	0
2024-05-02	09:03:24	09:10:37	432947	6.6.1	4_exp_EVA_AWA_CON	5	B	A	Rpleas_acq	Same	Rpleas	1pleas	acq_US_pleas_nomask	acq2_nomask	2	26	480	0	300	300	0	0	383	46	0	0	fair	lachen	spielen	freundlich	ehrlich	schön	faul	leiden	strafen	fanatisch	eitel	schlecht	loyal	helfen	schlau	treu	tolerant	retten	lasch	hindern	schroff	tot	tyrannisch	rächen	1	blank2r.bmp	0	1	+	0	1	blank2r.bmp	500	1	BMVZ	500	1	blank2r.bmp	880	3	spielen	880	1	FEHLER	1576	1	!	-1	1	!	-1	0	0	0
2024-05-02	09:03:24	09:10:39	435026	6.6.1	4_exp_EVA_AWA_CON	5	B	A	Rpleas_acq	Same	Rpleas	1pleas	acq_new_unple_nomask	acq2_nomask	2	27	480	1	300	300	0	0	502	46	1	0	fair	lachen	spielen	freundlich	ehrlich	schön	faul	leiden	strafen	fanatisch	eitel	schlecht	loyal	helfen	schlau	treu	tolerant	retten	lasch	hindern	schroff	tot	tyrannisch	rächen	1	blank2r.bmp	0	1	+	0	1	blank2r.bmp	500	8	C4r.bmp	500	1	blank2r.bmp	880	1	lasch	880	1	!	1313	1	!	1403	0	0	0	0	0	0
2024-05-02	09:03:24	09:10:42	437368	6.6.1	4_exp_EVA_AWA_CON	5	B	A	Rpleas_acq	Same	Rpleas	1pleas	acq_new_pleas_nomask	acq2_nomask	2	28	480	0	300	300	0	0	565	50	1	0	fair	lachen	spielen	freundlich	ehrlich	schön	faul	leiden	strafen	fanatisch	eitel	schlecht	loyal	helfen	schlau	treu	tolerant	retten	lasch	hindern	schroff	tot	tyrannisch	rächen	1	blank2r.bmp	0	1	+	0	1	blank2r.bmp	500	1	B1r.bmp	500	1	blank2r.bmp	880	3	schlau	880	1	!	1312	1	!	-1	0	0	0	0	0	0
2024-05-02	09:03:24	09:10:44	439851	6.6.1	4_exp_EVA_AWA_CON	5	B	A	Rpleas_acq	Same	Rpleas	1pleas	acq_new_pleas_nomask	acq2_nomask	2	29	480	1	300	300	0	0	503	46	0	0	fair	lachen	spielen	freundlich	ehrlich	schön	faul	leiden	strafen	fanatisch	eitel	schlecht	loyal	helfen	schlau	treu	tolerant	retten	lasch	hindern	schroff	tot	tyrannisch	rächen	1	blank2r.bmp	0	1	+	0	1	blank2r.bmp	500	8	C4r.bmp	500	1	blank2r.bmp	880	5	tolerant	880	1	FEHLER	1696	1	!	1312	1	!	1404	0	0	0
2024-05-02	09:03:24	09:10:46	441962	6.6.1	4_exp_EVA_AWA_CON	5	B	A	Rpleas_acq	Same	Rpleas	1pleas	acq_US_pleas_nomask	acq2_nomask	2	30	480	1	300	300	0	0	533	50	1	0	fair	lachen	spielen	freundlich	ehrlich	schön	faul	leiden	strafen	fanatisch	eitel	schlecht	loyal	helfen	schlau	treu	tolerant	retten	lasch	hindern	schroff	tot	tyrannisch	rächen	1	blank2r.bmp	0	1	+	0	1	blank2r.bmp	500	1	BMVZ	500	1	blank2r.bmp	880	1	fair	880	1	!	1313	1	!	1434	0	0	0	0	0	0
2024-05-02	09:03:24	09:10:49	444251	6.6.1	4_exp_EVA_AWA_CON	5	B	A	Rpleas_acq	Same	Rpleas	1pleas	acq_US_pleas_nomask	acq2_nomask	2	31	480	1	300	300	0	0	510	50	1	0	fair	lachen	spielen	freundlich	ehrlich	schön	faul	leiden	strafen	fanatisch	eitel	schlecht	loyal	helfen	schlau	treu	tolerant	retten	lasch	hindern	schroff	tot	tyrannisch	rächen	1	blank2r.bmp	0	1	+	0	1	blank2r.bmp	500	1	BMVZ	500	1	blank2r.bmp	880	6	schön	880	1	!	1313	1	!	1412	0	0	0	0	0	0
2024-05-02	09:03:24	09:10:51	446724	6.6.1	4_exp_EVA_AWA_CON	5	B	A	Rpleas_acq	Same	Rpleas	1pleas	acq_US_unple_nomask	acq2_nomask	2	32	480	1	300	300	0	0	490	50	0	0	fair	lachen	spielen	freundlich	ehrlich	schön	faul	leiden	strafen	fanatisch	eitel	schlecht	loyal	helfen	schlau	treu	tolerant	retten	lasch	hindern	schroff	tot	tyrannisch	rächen	1	blank2r.bmp	0	1	+	0	1	blank2r.bmp	500	1	GKQX	500	1	blank2r.bmp	880	4	fanatisch	880	1	FEHLER	1684	1	!	1312	1	!	1392	0	0	0
2024-05-02	09:03:24	09:10:53	448810	6.6.1	4_exp_EVA_AWA_CON	5	B	A	Rpleas_acq	Same	Rpleas	1pleas	acq_US_unple_nomask	acq2_nomask	2	33	480	1	300	300	0	0	507	46	1	0	fair	lachen	spielen	freundlich	ehrlich	schön	faul	leiden	strafen	fanatisch	eitel	schlecht	loyal	helfen	schlau	treu	tolerant	retten	lasch	hindern	schroff	tot	tyrannisch	rächen	1	blank2r.bmp	0	1	+	0	1	blank2r.bmp	500	1	GKQX	500	1	blank2r.bmp	880	6	schlecht	880	1	!	1312	1	!	1408	0	0	0	0	0	0
2024-05-02	09:03:24	09:10:55	451176	6.6.1	4_exp_EVA_AWA_CON	5	B	A	Rpleas_acq	Same	Rpleas	1pleas	acq_new_unple_nomask	acq2_nomask	2	34	480	0	300	300	0	0	593	46	1	0	fair	lachen	spielen	freundlich	ehrlich	schön	faul	leiden	strafen	fanatisch	eitel	schlecht	loyal	helfen	schlau	treu	tolerant	retten	lasch	hindern	schroff	tot	tyrannisch	rächen	1	blank2r.bmp	0	1	+	0	1	blank2r.bmp	500	7	C3r.bmp	500	1	blank2r.bmp	880	5	tyrannisch	880	1	!	1313	1	!	-1	0	0	0	0	0	0
2024-05-02	09:03:24	09:10:58	453410	6.6.1	4_exp_EVA_AWA_CON	5	B	A	Rpleas_acq	Same	Rpleas	1pleas	acq_new_unple_nomask	acq2_nomask	2	35	480	1	300	300	0	0	454	46	1	0	fair	lachen	spielen	freundlich	ehrlich	schön	faul	leiden	strafen	fanatisch	eitel	schlecht	loyal	helfen	schlau	treu	tolerant	retten	lasch	hindern	schroff	tot	tyrannisch	rächen	1	blank2r.bmp	0	1	+	0	1	blank2r.bmp	500	2	B2r.bmp	500	1	blank2r.bmp	880	4	tot	880	1	!	1312	1	!	1355	0	0	0	0	0	0
2024-05-02	09:03:24	09:11:00	455690	6.6.1	4_exp_EVA_AWA_CON	5	B	A	Rpleas_acq	Same	Rpleas	1pleas	acq_US_unple_nomask	acq2_nomask	2	36	480	1	300	300	0	0	502	46	1	0	fair	lachen	spielen	freundlich	ehrlich	schön	faul	leiden	strafen	fanatisch	eitel	schlecht	loyal	helfen	schlau	treu	tolerant	retten	lasch	hindern	schroff	tot	tyrannisch	rächen	1	blank2r.bmp	0	1	+	0	1	blank2r.bmp	500	1	GKQX	500	1	blank2r.bmp	880	2	leiden	880	1	!	1313	1	!	1404	0	0	0	0	0	0
2024-05-02	09:03:24	09:11:19	474914	6.6.1	4_exp_EVA_AWA_CON	5	B	A	Rpleas_acq	Same	Rpleas	1pleas	acq_US_pleas_nomask	acq3_nomask	3	1	453	1	300	300	0	0	444	50	1	0	fair	lachen	spielen	freundlich	ehrlich	schön	faul	leiden	strafen	fanatisch	eitel	schlecht	loyal	helfen	schlau	treu	tolerant	retten	lasch	hindern	schroff	tot	tyrannisch	rächen	1	blank2r.bmp	0	1	+	0	1	blank2r.bmp	500	1	BMVZ	500	1	blank2r.bmp	880	2	lachen	880	1	!	1293	1	!	1345	0	0	0	0	0	0
2024-05-02	09:03:24	09:11:21	477122	6.6.1	4_exp_EVA_AWA_CON	5	B	A	Rpleas_acq	Same	Rpleas	1pleas	acq_US_unple_nomask	acq3_nomask	3	2	453	1	300	300	0	0	430	46	1	0	fair	lachen	spielen	freundlich	ehrlich	schön	faul	leiden	strafen	fanatisch	eitel	schlecht	loyal	helfen	schlau	treu	tolerant	retten	lasch	hindern	schroff	tot	tyrannisch	rächen	1	blank2r.bmp	0	1	+	0	1	blank2r.bmp	500	1	GKQX	500	1	blank2r.bmp	880	5	eitel	880	1	!	1293	1	!	1332	0	0	0	0	0	0
2024-05-02	09:03:24	09:11:24	479555	6.6.1	4_exp_EVA_AWA_CON	5	B	A	Rpleas_acq	Same	Rpleas	1pleas	acq_US_unple_nomask	acq3_nomask	3	3	453	1	300	300	0	0	451	50	0	0	fair	lachen	spielen	freundlich	ehrlich	schön	faul	leiden	strafen	fanatisch	eitel	schlecht	loyal	helfen	schlau	treu	tolerant	retten	lasch	hindern	schroff	tot	tyrannisch	rächen	1	blank2r.bmp	0	1	+	0	1	blank2r.bmp	500	1	GKQX	500	1	blank2r.bmp	880	3	strafen	880	1	FEHLER	1644	1	!	1292	1	!	1353	0	0	0
2024-05-02	09:03:24	09:11:26	481707	6.6.1	4_exp_EVA_AWA_CON	5	B	A	Rpleas_acq	Same	Rpleas	1pleas	acq_US_pleas_nomask	acq3_nomask	3	4	453	0	300	300	0	0	372	46	0	0	fair	lachen	spielen	freundlich	ehrlich	schön	faul	leiden	strafen	fanatisch	eitel	schlecht	loyal	helfen	schlau	treu	tolerant	retten	lasch	hindern	schroff	tot	tyrannisch	rächen	1	blank2r.bmp	0	1	+	0	1	blank2r.bmp	500	1	BMVZ	500	1	blank2r.bmp	880	3	spielen	880	1	FEHLER	1564	1	!	-1	1	!	-1	0	0	0
2024-05-02	09:03:24	09:11:28	483856	6.6.1	4_exp_EVA_AWA_CON	5	B	A	Rpleas_acq	Same	Rpleas	1pleas	acq_US_pleas_nomask	acq3_nomask	3	5	453	0	300	300	0	0	572	50	1	0	fair	lachen	spielen	freundlich	ehrlich	schön	faul	leiden	strafen	fanatisch	eitel	schlecht	loyal	helfen	schlau	treu	tolerant	retten	lasch	hindern	schroff	tot	tyrannisch	rächen	1	blank2r.bmp	0	1	+	0	1	blank2r.bmp	500	1	BMVZ	500	1	blank2r.bmp	880	1	fair	880	1	!	1293	1	!	-1	0	0	0	0	0	0
2024-05-02	09:03:24	09:11:30	486098	6.6.1	4_exp_EVA_AWA_CON	5	B	A	Rpleas_acq	Same	Rpleas	1pleas	acq_US_pleas_nomask	acq3_nomask	3	6	453	1	300	300	0	0	461	50	1	0	fair	lachen	spielen	freundlich	ehrlich	schön	faul	leiden	strafen	fanatisch	eitel	schlecht	loyal	helfen	schlau	treu	tolerant	retten	lasch	hindern	schroff	tot	tyrannisch	rächen	1	blank2r.bmp	0	1	+	0	1	blank2r.bmp	500	1	BMVZ	500	1	blank2r.bmp	880	6	schön	880	1	!	1292	1	!	1362	0	0	0	0	0	0
2024-05-02	09:03:24	09:11:33	488480	6.6.1	4_exp_EVA_AWA_CON	5	B	A	Rpleas_acq	Same	Rpleas	1pleas	acq_US_unple_nomask	acq3_nomask	3	7	453	0	300	300	0	0	603	46	1	0	fair	lachen	spielen	freundlich	ehrlich	schön	faul	leiden	strafen	fanatisch	eitel	schlecht	loyal	helfen	schlau	treu	tolerant	retten	lasch	hindern	schroff	tot	tyrannisch	rächen	1	blank2r.bmp	0	1	+	0	1	blank2r.bmp	500	1	GKQX	500	1	blank2r.bmp	880	4	fanatisch	880	1	!	1293	1	!	-1	0	0	0	0	0	0
2024-05-02	09:03:24	09:11:35	490754	6.6.1	4_exp_EVA_AWA_CON	5	B	A	Rpleas_acq	Same	Rpleas	1pleas	acq_US_pleas_nomask	acq3_nomask	3	8	453	1	300	300	0	0	494	50	1	0	fair	lachen	spielen	freundlich	ehrlich	schön	faul	leiden	strafen	fanatisch	eitel	schlecht	loyal	helfen	schlau	treu	tolerant	retten	lasch	hindern	schroff	tot	tyrannisch	rächen	1	blank2r.bmp	0	1	+	0	1	blank2r.bmp	500	1	BMVZ	500	1	blank2r.bmp	880	4	freundlich	880	1	!	1293	1	!	1395	0	0	0	0	0	0
2024-05-02	09:03:24	09:11:38	493248	6.6.1	4_exp_EVA_AWA_CON	5	B	A	Rpleas_acq	Same	Rpleas	1pleas	acq_US_unple_nomask	acq3_nomask	3	9	453	0	300	300	0	0	718	46	1	0	fair	lachen	spielen	freundlich	ehrlich	schön	faul	leiden	strafen	fanatisch	eitel	schlecht	loyal	helfen	schlau	treu	tolerant	retten	lasch	hindern	schroff	tot	tyrannisch	rächen	1	blank2r.bmp	0	1	+	0	1	blank2r.bmp	500	1	GKQX	500	1	blank2r.bmp	880	2	leiden	880	1	!	1293	1	!	-1	0	0	0	0	0	0
2024-05-02	09:03:24	09:11:40	495754	6.6.1	4_exp_EVA_AWA_CON	5	B	A	Rpleas_acq	Same	Rpleas	1pleas	acq_US_unple_nomask	acq3_nomask	3	10	453	0	300	300	0	0	530	50	0	0	fair	lachen	spielen	freundlich	ehrlich	schön	faul	leiden	strafen	fanatisch	eitel	schlecht	loyal	helfen	schlau	treu	tolerant	retten	lasch	hindern	schroff	tot	tyrannisch	rächen	1	blank2r.bmp	0	1	+	0	1	blank2r.bmp	500	1	GKQX	500	1	blank2r.bmp	880	1	faul	880	1	FEHLER	1722	1	!	1293	1	!	-1	0	0	0
2024-05-02	09:03:24	09:11:42	497762	6.6.1	4_exp_EVA_AWA_CON	5	B	A	Rpleas_acq	Same	Rpleas	1pleas	acq_US_pleas_nomask	acq3_nomask	3	11	453	1	300	300	0	0	437	50	1	0	fair	lachen	spielen	freundlich	ehrlich	schön	faul	leiden	strafen	fanatisch	eitel	schlecht	loyal	helfen	schlau	treu	tolerant	retten	lasch	hindern	schroff	tot	tyrannisch	rächen	1	blank2r.bmp	0	1	+	0	1	blank2r.bmp	500	1	BMVZ	500	1	blank2r.bmp	880	5	ehrlich	880	1	!	1293	1	!	1338	0	0	0	0	0	0
2024-05-02	09:03:24	09:11:44	499936	6.6.1	4_exp_EVA_AWA_CON	5	B	A	Rpleas_acq	Same	Rpleas	1pleas	acq_US_unple_nomask	acq3_nomask	3	12	453	1	300	300	0	0	401	46	1	0	fair	lachen	spielen	freundlich	ehrlich	schön	faul	leiden	strafen	fanatisch	eitel	schlecht	loyal	helfen	schlau	treu	tolerant	retten	lasch	hindern	schroff	tot	tyrannisch	rächen	1	blank2r.bmp	0	1	+	0	1	blank2r.bmp	500	1	GKQX	500	1	blank2r.bmp	880	6	schlecht	880	1	!	1292	1	!	1301	0	0	0	0	0	0
2024-05-02	09:03:24	09:11:47	502441	6.6.1	4_exp_EVA_AWA_CON	5	B	A	Rpleas_acq	Same	Rpleas	1pleas	acq_US_unple_nomask	acq3_nomask	3	13	453	0	300	300	0	0	524	50	0	0	fair	lachen	spielen	freundlich	ehrlich	schön	faul	leiden	strafen	fanatisch	eitel	schlecht	loyal	helfen	schlau	treu	tolerant	retten	lasch	hindern	schroff	tot	tyrannisch	rächen	1	blank2r.bmp	0	1	+	0	1	blank2r.bmp	500	1	GKQX	500	1	blank2r.bmp	880	5	eitel	880	1	FEHLER	1715	1	!	1293	1	!	-1	0	0	0
2024-05-02	09:03:24	09:11:49	504760	6.6.1	4_exp_EVA_AWA_CON	5	B	A	Rpleas_acq	Same	Rpleas	1pleas	acq_US_unple_nomask	acq3_nomask	3	14	453	0	300	300	0	0	742	46	1	0	fair	lachen	spielen	freundlich	ehrlich	schön	faul	leiden	strafen	fanatisch	eitel	schlecht	loyal	helfen	schlau	treu	tolerant	retten	lasch	hindern	schroff	tot	tyrannisch	rächen	1	blank2r.bmp	0	1	+	0	1	blank2r.bmp	500	1	GKQX	500	1	blank2r.bmp	880	2	leiden	880	1	!	1292	1	!	-1	0	0	0	0	0	0
2024-05-02	09:03:24	09:11:52	507251	6.6.1	4_exp_EVA_AWA_CON	5	B	A	Rpleas_acq	Same	Rpleas	1pleas	acq_US_unple_nomask	acq3_nomask	3	15	453	1	300	300	0	0	509	50	0	0	fair	lachen	spielen	freundlich	ehrlich	schön	faul	leiden	strafen	fanatisch	eitel	schlecht	loyal	helfen	schlau	treu	tolerant	retten	lasch	hindern	schroff	tot	tyrannisch	rächen	1	blank2r.bmp	0	1	+	0	1	blank2r.bmp	500	1	GKQX	500	1	blank2r.bmp	880	6	schlecht	880	1	FEHLER	1702	1	!	1292	1	!	1410	0	0	0
2024-05-02	09:03:24	09:11:54	509440	6.6.1	4_exp_EVA_AWA_CON	5	B	A	Rpleas_acq	Same	Rpleas	1pleas	acq_US_unple_nomask	acq3_nomask	3	16	453	0	300	300	0	0	609	46	1	0	fair	lachen	spielen	freundlich	ehrlich	schön	faul	leiden	strafen	fanatisch	eitel	schlecht	loyal	helfen	schlau	treu	tolerant	retten	lasch	hindern	schroff	tot	tyrannisch	rächen	1	blank2r.bmp	0	1	+	0	1	blank2r.bmp	500	1	GKQX	500	1	blank2r.bmp	880	3	strafen	880	1	!	1293	1	!	-1	0	0	0	0	0	0
2024-05-02	09:03:24	09:11:56	511800	6.6.1	4_exp_EVA_AWA_CON	5	B	A	Rpleas_acq	Same	Rpleas	1pleas	acq_US_pleas_nomask	acq3_nomask	3	17	453	0	300	300	0	0	588	50	1	0	fair	lachen	spielen	freundlich	ehrlich	schön	faul	leiden	strafen	fanatisch	eitel	schlecht	loyal	helfen	schlau	treu	tolerant	retten	lasch	hindern	schroff	tot	tyrannisch	rächen	1	blank2r.bmp	0	1	+	0	1	blank2r.bmp	500	1	BMVZ	500	1	blank2r.bmp	880	6	schön	880	1	!	1292	1	!	-1	0	0	0	0	0	0
2024-05-02	09:03:24	09:11:58	514136	6.6.1	4_exp_EVA_AWA_CON	5	B	A	Rpleas_acq	Same	Rpleas	1pleas	acq_US_pleas_nomask	acq3_nomask	3	18	453	0	300	300	0	0	562	50	1	0	fair	lachen	spielen	freundlich	ehrlich	schön	faul	leiden	strafen	fanatisch	eitel	schlecht	loyal	helfen	schlau	treu	tolerant	retten	lasch	hindern	schroff	tot	tyrannisch	rächen	1	blank2r.bmp	0	1	+	0	1	blank2r.bmp	500	1	BMVZ	500	1	blank2r.bmp	880	5	ehrlich	880	1	!	1293	1	!	-1	0	0	0	0	0	0
2024-05-02	09:03:24	09:12:01	516354	6.6.1	4_exp_EVA_AWA_CON	5	B	A	Rpleas_acq	Same	Rpleas	1pleas	acq_US_pleas_nomask	acq3_nomask	3	19	453	1	300	300	0	0	437	50	1	0	fair	lachen	spielen	freundlich	ehrlich	schön	faul	leiden	strafen	fanatisch	eitel	schlecht	loyal	helfen	schlau	treu	tolerant	retten	lasch	hindern	schroff	tot	tyrannisch	rächen	1	blank2r.bmp	0	1	+	0	1	blank2r.bmp	500	1	BMVZ	500	1	blank2r.bmp	880	3	spielen	880	1	!	1293	1	!	1338	0	0	0	0	0	0
2024-05-02	09:03:24	09:12:03	518570	6.6.1	4_exp_EVA_AWA_CON	5	B	A	Rpleas_acq	Same	Rpleas	1pleas	acq_US_pleas_nomask	acq3_nomask	3	20	453	1	300	300	0	0	441	50	1	0	fair	lachen	spielen	freundlich	ehrlich	schön	faul	leiden	strafen	fanatisch	eitel	schlecht	loyal	helfen	schlau	treu	tolerant	retten	lasch	hindern	schroff	tot	tyrannisch	rächen	1	blank2r.bmp	0	1	+	0	1	blank2r.bmp	500	1	BMVZ	500	1	blank2r.bmp	880	2	lachen	880	1	!	1292	1	!	1343	0	0	0	0	0	0
2024-05-02	09:03:24	09:12:05	520818	6.6.1	4_exp_EVA_AWA_CON	5	B	A	Rpleas_acq	Same	Rpleas	1pleas	acq_US_unple_nomask	acq3_nomask	3	21	453	1	300	300	0	0	468	46	1	0	fair	lachen	spielen	freundlich	ehrlich	schön	faul	leiden	strafen	fanatisch	eitel	schlecht	loyal	helfen	schlau	treu	tolerant	retten	lasch	hindern	schroff	tot	tyrannisch	rächen	1	blank2r.bmp	0	1	+	0	1	blank2r.bmp	500	1	GKQX	500	1	blank2r.bmp	880	1	faul	880	1	!	1292	1	!	1369	0	0	0	0	0	0
2024-05-02	09:03:24	09:12:08	523307	6.6.1	4_exp_EVA_AWA_CON	5	B	A	Rpleas_acq	Same	Rpleas	1pleas	acq_US_unple_nomask	acq3_nomask	3	22	453	1	300	300	0	0	514	50	0	0	fair	lachen	spielen	freundlich	ehrlich	schön	faul	leiden	strafen	fanatisch	eitel	schlecht	loyal	helfen	schlau	treu	tolerant	retten	lasch	hindern	schroff	tot	tyrannisch	rächen	1	blank2r.bmp	0	1	+	0	1	blank2r.bmp	500	1	GKQX	500	1	blank2r.bmp	880	4	fanatisch	880	1	FEHLER	1707	1	!	1293	1	!	1415	0	0	0
2024-05-02	09:03:24	09:12:10	525523	6.6.1	4_exp_EVA_AWA_CON	5	B	A	Rpleas_acq	Same	Rpleas	1pleas	acq_US_pleas_nomask	acq3_nomask	3	23	453	1	300	300	0	0	439	46	0	0	fair	lachen	spielen	freundlich	ehrlich	schön	faul	leiden	strafen	fanatisch	eitel	schlecht	loyal	helfen	schlau	treu	tolerant	retten	lasch	hindern	schroff	tot	tyrannisch	rächen	1	blank2r.bmp	0	1	+	0	1	blank2r.bmp	500	1	BMVZ	500	1	blank2r.bmp	880	4	freundlich	880	1	FEHLER	1632	1	!	1293	1	!	1340	0	0	0
2024-05-02	09:03:24	09:12:12	527867	6.6.1	4_exp_EVA_AWA_CON	5	B	A	Rpleas_acq	Same	Rpleas	1pleas	acq_US_pleas_nomask	acq3_nomask	3	24	453	0	300	300	0	0	561	46	0	0	fair	lachen	spielen	freundlich	ehrlich	schön	faul	leiden	strafen	fanatisch	eitel	schlecht	loyal	helfen	schlau	treu	tolerant	retten	lasch	hindern	schroff	tot	tyrannisch	rächen	1	blank2r.bmp	0	1	+	0	1	blank2r.bmp	500	1	BMVZ	500	1	blank2r.bmp	880	1	fair	880	1	FEHLER	1754	1	!	1292	1	!	-1	0	0	0
2024-05-02	09:03:24	09:12:14	529914	6.6.1	4_exp_EVA_AWA_CON	5	B	A	Rpleas_acq	Same	Rpleas	1pleas	acq_US_pleas_nomask	acq3_nomask	3	25	453	1	300	300	0	0	468	50	1	0	fair	lachen	spielen	freundlich	ehrlich	schön	faul	leiden	strafen	fanatisch	eitel	schlecht	loyal	helfen	schlau	treu	tolerant	retten	lasch	hindern	schroff	tot	tyrannisch	rächen	1	blank2r.bmp	0	1	+	0	1	blank2r.bmp	500	1	BMVZ	500	1	blank2r.bmp	880	5	ehrlich	880	1	!	1293	1	!	1369	0	0	0	0	0	0
2024-05-02	09:03:24	09:12:17	532232	6.6.1	4_exp_EVA_AWA_CON	5	B	A	Rpleas_acq	Same	Rpleas	1pleas	acq_US_unple_nomask	acq3_nomask	3	26	453	0	300	300	0	0	536	46	1	0	fair	lachen	spielen	freundlich	ehrlich	schön	faul	leiden	strafen	fanatisch	eitel	schlecht	loyal	helfen	schlau	treu	tolerant	retten	lasch	hindern	schroff	tot	tyrannisch	rächen	1	blank2r.bmp	0	1	+	0	1	blank2r.bmp	500	1	GKQX	500	1	blank2r.bmp	880	5	eitel	880	1	!	1293	1	!	-1	0	0	0	0	0	0
2024-05-02	09:03:24	09:12:19	534715	6.6.1	4_exp_EVA_AWA_CON	5	B	A	Rpleas_acq	Same	Rpleas	1pleas	acq_US_unple_nomask	acq3_nomask	3	27	453	1	300	300	0	0	505	50	0	0	fair	lachen	spielen	freundlich	ehrlich	schön	faul	leiden	strafen	fanatisch	eitel	schlecht	loyal	helfen	schlau	treu	tolerant	retten	lasch	hindern	schroff	tot	tyrannisch	rächen	1	blank2r.bmp	0	1	+	0	1	blank2r.bmp	500	1	GKQX	500	1	blank2r.bmp	880	3	strafen	880	1	FEHLER	1698	1	!	1293	1	!	1406	0	0	0
2024-05-02	09:03:24	09:12:21	536864	6.6.1	4_exp_EVA_AWA_CON	5	B	A	Rpleas_acq	Same	Rpleas	1pleas	acq_US_pleas_nomask	acq3_nomask	3	28	453	0	300	300	0	0	575	50	1	0	fair	lachen	spielen	freundlich	ehrlich	schön	faul	leiden	strafen	fanatisch	eitel	schlecht	loyal	helfen	schlau	treu	tolerant	retten	lasch	hindern	schroff	tot	tyrannisch	rächen	1	blank2r.bmp	0	1	+	0	1	blank2r.bmp	500	1	BMVZ	500	1	blank2r.bmp	880	6	schön	880	1	!	1293	1	!	-1	0	0	0	0	0	0
2024-05-02	09:03:24	09:12:24	539307	6.6.1	4_exp_EVA_AWA_CON	5	B	A	Rpleas_acq	Same	Rpleas	1pleas	acq_US_pleas_nomask	acq3_nomask	3	29	453	1	300	300	0	0	464	46	0	0	fair	lachen	spielen	freundlich	ehrlich	schön	faul	leiden	strafen	fanatisch	eitel	schlecht	loyal	helfen	schlau	treu	tolerant	retten	lasch	hindern	schroff	tot	tyrannisch	rächen	1	blank2r.bmp	0	1	+	0	1	blank2r.bmp	500	1	BMVZ	500	1	blank2r.bmp	880	2	lachen	880	1	FEHLER	1657	1	!	1292	1	!	1365	0	0	0
2024-05-02	09:03:24	09:12:26	541496	6.6.1	4_exp_EVA_AWA_CON	5	B	A	Rpleas_acq	Same	Rpleas	1pleas	acq_US_pleas_nomask	acq3_nomask	3	30	453	0	300	300	0	0	614	50	1	0	fair	lachen	spielen	freundlich	ehrlich	schön	faul	leiden	strafen	fanatisch	eitel	schlecht	loyal	helfen	schlau	treu	tolerant	retten	lasch	hindern	schroff	tot	tyrannisch	rächen	1	blank2r.bmp	0	1	+	0	1	blank2r.bmp	500	1	BMVZ	500	1	blank2r.bmp	880	1	fair	880	1	!	1293	1	!	-1	0	0	0	0	0	0
2024-05-02	09:03:24	09:12:28	543730	6.6.1	4_exp_EVA_AWA_CON	5	B	A	Rpleas_acq	Same	Rpleas	1pleas	acq_US_pleas_nomask	acq3_nomask	3	31	453	1	300	300	0	0	455	50	1	0	fair	lachen	spielen	freundlich	ehrlich	schön	faul	leiden	strafen	fanatisch	eitel	schlecht	loyal	helfen	schlau	treu	tolerant	retten	lasch	hindern	schroff	tot	tyrannisch	rächen	1	blank2r.bmp	0	1	+	0	1	blank2r.bmp	500	1	BMVZ	500	1	blank2r.bmp	880	3	spielen	880	1	!	1293	1	!	1356	0	0	0	0	0	0
2024-05-02	09:03:24	09:12:30	545986	6.6.1	4_exp_EVA_AWA_CON	5	B	A	Rpleas_acq	Same	Rpleas	1pleas	acq_US_pleas_nomask	acq3_nomask	3	32	453	1	300	300	0	0	479	50	1	0	fair	lachen	spielen	freundlich	ehrlich	schön	faul	leiden	strafen	fanatisch	eitel	schlecht	loyal	helfen	schlau	treu	tolerant	retten	lasch	hindern	schroff	tot	tyrannisch	rächen	1	blank2r.bmp	0	1	+	0	1	blank2r.bmp	500	1	BMVZ	500	1	blank2r.bmp	880	4	freundlich	880	1	!	1293	1	!	1380	0	0	0	0	0	0
2024-05-02	09:03:24	09:12:32	548178	6.6.1	4_exp_EVA_AWA_CON	5	B	A	Rpleas_acq	Same	Rpleas	1pleas	acq_US_unple_nomask	acq3_nomask	3	33	453	1	300	300	0	0	410	46	1	0	fair	lachen	spielen	freundlich	ehrlich	schön	faul	leiden	strafen	fanatisch	eitel	schlecht	loyal	helfen	schlau	treu	tolerant	retten	lasch	hindern	schroff	tot	tyrannisch	rächen	1	blank2r.bmp	0	1	+	0	1	blank2r.bmp	500	1	GKQX	500	1	blank2r.bmp	880	6	schlecht	880	1	!	1293	1	!	1312	0	0	0	0	0	0
2024-05-02	09:03:24	09:12:35	550512	6.6.1	4_exp_EVA_AWA_CON	5	B	A	Rpleas_acq	Same	Rpleas	1pleas	acq_US_unple_nomask	acq3_nomask	3	34	453	0	300	300	0	0	554	46	1	0	fair	lachen	spielen	freundlich	ehrlich	schön	faul	leiden	strafen	fanatisch	eitel	schlecht	loyal	helfen	schlau	treu	tolerant	retten	lasch	hindern	schroff	tot	tyrannisch	rächen	1	blank2r.bmp	0	1	+	0	1	blank2r.bmp	500	1	GKQX	500	1	blank2r.bmp	880	4	fanatisch	880	1	!	1292	1	!	-1	0	0	0	0	0	0
2024-05-02	09:03:24	09:12:37	552810	6.6.1	4_exp_EVA_AWA_CON	5	B	A	Rpleas_acq	Same	Rpleas	1pleas	acq_US_unple_nomask	acq3_nomask	3	35	453	1	300	300	0	0	519	46	1	0	fair	lachen	spielen	freundlich	ehrlich	schön	faul	leiden	strafen	fanatisch	eitel	schlecht	loyal	helfen	schlau	treu	tolerant	retten	lasch	hindern	schroff	tot	tyrannisch	rächen	1	blank2r.bmp	0	1	+	0	1	blank2r.bmp	500	1	GKQX	500	1	blank2r.bmp	880	2	leiden	880	1	!	1292	1	!	1420	0	0	0	0	0	0
2024-05-02	09:03:24	09:12:39	555058	6.6.1	4_exp_EVA_AWA_CON	5	B	A	Rpleas_acq	Same	Rpleas	1pleas	acq_US_unple_nomask	acq3_nomask	3	36	453	1	300	300	0	0	466	46	1	0	fair	lachen	spielen	freundlich	ehrlich	schön	faul	leiden	strafen	fanatisch	eitel	schlecht	loyal	helfen	schlau	treu	tolerant	retten	lasch	hindern	schroff	tot	tyrannisch	rächen	1	blank2r.bmp	0	1	+	0	1	blank2r.bmp	500	1	GKQX	500	1	blank2r.bmp	880	1	faul	880	1	!	1292	1	!	1366	0	0	0	0	0	0
2024-05-02	09:03:24	09:12:49	564706	6.6.1	4_exp_EVA_AWA_CON	5	B	A	Rpleas_acq	Same	Rpleas	1pleas	acq_US_unple_nomask	acq45_nomask	4	1	400	1	300	300	0	0	427	46	1	0	fair	lachen	spielen	freundlich	ehrlich	schön	faul	leiden	strafen	fanatisch	eitel	schlecht	loyal	helfen	schlau	treu	tolerant	retten	lasch	hindern	schroff	tot	tyrannisch	rächen	1	blank2r.bmp	0	1	+	0	1	blank2r.bmp	500	1	GKQX	500	1	blank2r.bmp	880	6	schlecht	880	1	!	1232	1	!	1328	0	0	0	0	0	0
2024-05-02	09:03:24	09:12:51	566922	6.6.1	4_exp_EVA_AWA_CON	5	B	A	Rpleas_acq	Same	Rpleas	1pleas	acq_US_unple_nomask	acq45_nomask	4	2	400	1	300	300	0	0	432	46	1	0	fair	lachen	spielen	freundlich	ehrlich	schön	faul	leiden	strafen	fanatisch	eitel	schlecht	loyal	helfen	schlau	treu	tolerant	retten	lasch	hindern	schroff	tot	tyrannisch	rächen	1	blank2r.bmp	0	1	+	0	1	blank2r.bmp	500	1	GKQX	500	1	blank2r.bmp	880	1	faul	880	1	!	1232	1	!	1333	0	0	0	0	0	0
2024-05-02	09:03:24	09:12:53	569154	6.6.1	4_exp_EVA_AWA_CON	5	B	A	Rpleas_acq	Same	Rpleas	1pleas	acq_US_pleas_nomask	acq45_nomask	4	3	400	1	300	300	0	0	452	50	1	0	fair	lachen	spielen	freundlich	ehrlich	schön	faul	leiden	strafen	fanatisch	eitel	schlecht	loyal	helfen	schlau	treu	tolerant	retten	lasch	hindern	schroff	tot	tyrannisch	rächen	1	blank2r.bmp	0	1	+	0	1	blank2r.bmp	500	1	BMVZ	500	1	blank2r.bmp	880	2	lachen	880	1	!	1232	1	!	1353	0	0	0	0	0	0
2024-05-02	09:03:24	09:12:56	571433	6.6.1	4_exp_EVA_AWA_CON	5	B	A	Rpleas_acq	Same	Rpleas	1pleas	acq_US_unple_nomask	acq45_nomask	4	4	400	0	300	300	0	0	501	46	1	0	fair	lachen	spielen	freundlich	ehrlich	schön	faul	leiden	strafen	fanatisch	eitel	schlecht	loyal	helfen	schlau	treu	tolerant	retten	lasch	hindern	schroff	tot	tyrannisch	rächen	1	blank2r.bmp	0	1	+	0	1	blank2r.bmp	500	1	GKQX	500	1	blank2r.bmp	880	3	strafen	880	1	!	1233	1	!	-1	0	0	0	0	0	0
2024-05-02	09:03:24	09:12:58	573752	6.6.1	4_exp_EVA_AWA_CON	5	B	A	Rpleas_acq	Same	Rpleas	1pleas	acq_US_unple_nomask	acq45_nomask	4	5	400	0	300	300	0	0	539	50	0	0	fair	lachen	spielen	freundlich	ehrlich	schön	faul	leiden	strafen	fanatisch	eitel	schlecht	loyal	helfen	schlau	treu	tolerant	retten	lasch	hindern	schroff	tot	tyrannisch	rächen	1	blank2r.bmp	0	1	+	0	1	blank2r.bmp	500	1	GKQX	500	1	blank2r.bmp	880	4	fanatisch	880	1	!	1232	1	!	-1	0	0	0	0	0	0
2024-05-02	09:03:24	09:13:00	576088	6.6.1	4_exp_EVA_AWA_CON	5	B	A	Rpleas_acq	Same	Rpleas	1pleas	acq_US_unple_nomask	acq45_nomask	4	6	400	0	300	300	0	0	564	46	1	0	fair	lachen	spielen	freundlich	ehrlich	schön	faul	leiden	strafen	fanatisch	eitel	schlecht	loyal	helfen	schlau	treu	tolerant	retten	lasch	hindern	schroff	tot	tyrannisch	rächen	1	blank2r.bmp	0	1	+	0	1	blank2r.bmp	500	1	GKQX	500	1	blank2r.bmp	880	2	leiden	880	1	!	1233	1	!	-1	0	0	0	0	0	0
2024-05-02	09:03:24	09:13:03	578330	6.6.1	4_exp_EVA_AWA_CON	5	B	A	Rpleas_acq	Same	Rpleas	1pleas	acq_US_pleas_nomask	acq45_nomask	4	7	400	1	300	300	0	0	462	50	1	0	fair	lachen	spielen	freundlich	ehrlich	schön	faul	leiden	strafen	fanatisch	eitel	schlecht	loyal	helfen	schlau	treu	tolerant	retten	lasch	hindern	schroff	tot	tyrannisch	rächen	1	blank2r.bmp	0	1	+	0	1	blank2r.bmp	500	1	BMVZ	500	1	blank2r.bmp	880	6	schön	880	1	!	1233	1	!	1363	0	0	0	0	0	0
2024-05-02	09:03:24	09:13:05	580640	6.6.1	4_exp_EVA_AWA_CON	5	B	A	Rpleas_acq	Same	Rpleas	1pleas	acq_US_pleas_nomask	acq45_nomask	4	8	400	0	300	300	0	0	533	50	1	0	fair	lachen	spielen	freundlich	ehrlich	schön	faul	leiden	strafen	fanatisch	eitel	schlecht	loyal	helfen	schlau	treu	tolerant	retten	lasch	hindern	schroff	tot	tyrannisch	rächen	1	blank2r.bmp	0	1	+	0	1	blank2r.bmp	500	1	BMVZ	500	1	blank2r.bmp	880	4	freundlich	880	1	!	1232	1	!	-1	0	0	0	0	0	0
2024-05-02	09:03:24	09:13:07	582866	6.6.1	4_exp_EVA_AWA_CON	5	B	A	Rpleas_acq	Same	Rpleas	1pleas	acq_US_pleas_nomask	acq45_nomask	4	9	400	1	300	300	0	0	445	50	1	0	fair	lachen	spielen	freundlich	ehrlich	schön	faul	leiden	strafen	fanatisch	eitel	schlecht	loyal	helfen	schlau	treu	tolerant	retten	lasch	hindern	schroff	tot	tyrannisch	rächen	1	blank2r.bmp	0	1	+	0	1	blank2r.bmp	500	1	BMVZ	500	1	blank2r.bmp	880	1	fair	880	1	!	1233	1	!	1346	0	0	0	0	0	0
2024-05-02	09:03:24	09:13:09	585034	6.6.1	4_exp_EVA_AWA_CON	5	B	A	Rpleas_acq	Same	Rpleas	1pleas	acq_US_unple_nomask	acq45_nomask	4	10	400	1	300	300	0	0	392	50	0	0	fair	lachen	spielen	freundlich	ehrlich	schön	faul	leiden	strafen	fanatisch	eitel	schlecht	loyal	helfen	schlau	treu	tolerant	retten	lasch	hindern	schroff	tot	tyrannisch	rächen	1	blank2r.bmp	0	1	+	0	1	blank2r.bmp	500	1	GKQX	500	1	blank2r.bmp	880	5	eitel	880	1	!	1233	1	!	1293	0	0	0	0	0	0
2024-05-02	09:03:24	09:13:12	587408	6.6.1	4_exp_EVA_AWA_CON	5	B	A	Rpleas_acq	Same	Rpleas	1pleas	acq_US_pleas_nomask	acq45_nomask	4	11	400	0	300	300	0	0	596	50	1	0	fair	lachen	spielen	freundlich	ehrlich	schön	faul	leiden	strafen	fanatisch	eitel	schlecht	loyal	helfen	schlau	treu	tolerant	retten	lasch	hindern	schroff	tot	tyrannisch	rächen	1	blank2r.bmp	0	1	+	0	1	blank2r.bmp	500	1	BMVZ	500	1	blank2r.bmp	880	5	ehrlich	880	1	!	1233	1	!	-1	0	0	0	0	0	0
2024-05-02	09:03:24	09:13:14	589634	6.6.1	4_exp_EVA_AWA_CON	5	B	A	Rpleas_acq	Same	Rpleas	1pleas	acq_US_pleas_nomask	acq45_nomask	4	12	400	1	300	300	0	0	449	50	1	0	fair	lachen	spielen	freundlich	ehrlich	schön	faul	leiden	strafen	fanatisch	eitel	schlecht	loyal	helfen	schlau	treu	tolerant	retten	lasch	hindern	schroff	tot	tyrannisch	rächen	1	blank2r.bmp	0	1	+	0	1	blank2r.bmp	500	1	BMVZ	500	1	blank2r.bmp	880	3	spielen	880	1	!	1232	1	!	1350	0	0	0	0	0	0
2024-05-02	09:03:24	09:13:16	591858	6.6.1	4_exp_EVA_AWA_CON	5	B	A	Rpleas_acq	Same	Rpleas	1pleas	acq_US_pleas_nomask	acq45_nomask	4	13	400	1	300	300	0	0	441	50	1	0	fair	lachen	spielen	freundlich	ehrlich	schön	faul	leiden	strafen	fanatisch	eitel	schlecht	loyal	helfen	schlau	treu	tolerant	retten	lasch	hindern	schroff	tot	tyrannisch	rächen	1	blank2r.bmp	0	1	+	0	1	blank2r.bmp	500	1	BMVZ	500	1	blank2r.bmp	880	1	fair	880	1	!	1233	1	!	1343	0	0	0	0	0	0
2024-05-02	09:03:24	09:13:18	594098	6.6.1	4_exp_EVA_AWA_CON	5	B	A	Rpleas_acq	Same	Rpleas	1pleas	acq_US_unple_nomask	acq45_nomask	4	14	400	1	300	300	0	0	460	46	1	0	fair	lachen	spielen	freundlich	ehrlich	schön	faul	leiden	strafen	fanatisch	eitel	schlecht	loyal	helfen	schlau	treu	tolerant	retten	lasch	hindern	schroff	tot	tyrannisch	rächen	1	blank2r.bmp	0	1	+	0	1	blank2r.bmp	500	1	GKQX	500	1	blank2r.bmp	880	3	strafen	880	1	!	1233	1	!	1362	0	0	0	0	0	0
2024-05-02	09:03:24	09:13:21	596339	6.6.1	4_exp_EVA_AWA_CON	5	B	A	Rpleas_acq	Same	Rpleas	1pleas	acq_US_unple_nomask	acq45_nomask	4	15	400	1	300	300	0	0	459	46	1	0	fair	lachen	spielen	freundlich	ehrlich	schön	faul	leiden	strafen	fanatisch	eitel	schlecht	loyal	helfen	schlau	treu	tolerant	retten	lasch	hindern	schroff	tot	tyrannisch	rächen	1	blank2r.bmp	0	1	+	0	1	blank2r.bmp	500	1	GKQX	500	1	blank2r.bmp	880	6	schlecht	880	1	!	1233	1	!	1360	0	0	0	0	0	0
2024-05-02	09:03:24	09:13:23	598562	6.6.1	4_exp_EVA_AWA_CON	5	B	A	Rpleas_acq	Same	Rpleas	1pleas	acq_US_pleas_nomask	acq45_nomask	4	16	400	1	300	300	0	0	441	50	1	0	fair	lachen	spielen	freundlich	ehrlich	schön	faul	leiden	strafen	fanatisch	eitel	schlecht	loyal	helfen	schlau	treu	tolerant	retten	lasch	hindern	schroff	tot	tyrannisch	rächen	1	blank2r.bmp	0	1	+	0	1	blank2r.bmp	500	1	BMVZ	500	1	blank2r.bmp	880	4	freundlich	880	1	!	1232	1	!	1342	0	0	0	0	0	0
2024-05-02	09:03:24	09:13:25	600864	6.6.1	4_exp_EVA_AWA_CON	5	B	A	Rpleas_acq	Same	Rpleas	1pleas	acq_US_pleas_nomask	acq45_nomask	4	17	400	0	300	300	0	0	524	50	1	0	fair	lachen	spielen	freundlich	ehrlich	schön	faul	leiden	strafen	fanatisch	eitel	schlecht	loyal	helfen	schlau	treu	tolerant	retten	lasch	hindern	schroff	tot	tyrannisch	rächen	1	blank2r.bmp	0	1	+	0	1	blank2r.bmp	500	1	BMVZ	500	1	blank2r.bmp	880	5	ehrlich	880	1	!	1232	1	!	-1	0	0	0	0	0	0
2024-05-02	09:03:24	09:13:27	603115	6.6.1	4_exp_EVA_AWA_CON	5	B	A	Rpleas_acq	Same	Rpleas	1pleas	acq_US_unple_nomask	acq45_nomask	4	18	400	1	300	300	0	0	470	46	1	0	fair	lachen	spielen	freundlich	ehrlich	schön	faul	leiden	strafen	fanatisch	eitel	schlecht	loyal	helfen	schlau	treu	tolerant	retten	lasch	hindern	schroff	tot	tyrannisch	rächen	1	blank2r.bmp	0	1	+	0	1	blank2r.bmp	500	1	GKQX	500	1	blank2r.bmp	880	2	leiden	880	1	!	1232	1	!	1372	0	0	0	0	0	0
2024-05-02	09:03:24	09:13:30	605250	6.6.1	4_exp_EVA_AWA_CON	5	B	A	Rpleas_acq	Same	Rpleas	1pleas	acq_US_unple_nomask	acq45_nomask	4	19	400	1	300	300	0	0	355	46	1	0	fair	lachen	spielen	freundlich	ehrlich	schön	faul	leiden	strafen	fanatisch	eitel	schlecht	loyal	helfen	schlau	treu	tolerant	retten	lasch	hindern	schroff	tot	tyrannisch	rächen	1	blank2r.bmp	0	1	+	0	1	blank2r.bmp	500	1	GKQX	500	1	blank2r.bmp	880	1	faul	880	1	!	1233	1	!	1256	0	0	0	0	0	0
2024-05-02	09:03:24	09:13:32	607544	6.6.1	4_exp_EVA_AWA_CON	5	B	A	Rpleas_acq	Same	Rpleas	1pleas	acq_US_pleas_nomask	acq45_nomask	4	20	400	0	300	300	0	0	519	50	1	0	fair	lachen	spielen	freundlich	ehrlich	schön	faul	leiden	strafen	fanatisch	eitel	schlecht	loyal	helfen	schlau	treu	tolerant	retten	lasch	hindern	schroff	tot	tyrannisch	rächen	1	blank2r.bmp	0	1	+	0	1	blank2r.bmp	500	1	BMVZ	500	1	blank2r.bmp	880	2	lachen	880	1	!	1232	1	!	-1	0	0	0	0	0	0
2024-05-02	09:03:24	09:13:34	609896	6.6.1	4_exp_EVA_AWA_CON	5	B	A	Rpleas_acq	Same	Rpleas	1pleas	acq_US_pleas_nomask	acq45_nomask	4	21	400	0	300	300	0	0	580	50	1	0	fair	lachen	spielen	freundlich	ehrlich	schön	faul	leiden	strafen	fanatisch	eitel	schlecht	loyal	helfen	schlau	treu	tolerant	retten	lasch	hindern	schroff	tot	tyrannisch	rächen	1	blank2r.bmp	0	1	+	0	1	blank2r.bmp	500	1	BMVZ	500	1	blank2r.bmp	880	6	schön	880	1	!	1232	1	!	-1	0	0	0	0	0	0
2024-05-02	09:03:24	09:13:36	612158	6.6.1	4_exp_EVA_AWA_CON	5	B	A	Rpleas_acq	Same	Rpleas	1pleas	acq_US_unple_nomask	acq45_nomask	4	22	400	0	300	300	0	0	482	50	0	0	fair	lachen	spielen	freundlich	ehrlich	schön	faul	leiden	strafen	fanatisch	eitel	schlecht	loyal	helfen	schlau	treu	tolerant	retten	lasch	hindern	schroff	tot	tyrannisch	rächen	1	blank2r.bmp	0	1	+	0	1	blank2r.bmp	500	1	GKQX	500	1	blank2r.bmp	880	4	fanatisch	880	1	!	1232	1	!	-1	0	0	0	0	0	0
2024-05-02	09:03:24	09:13:39	614306	6.6.1	4_exp_EVA_AWA_CON	5	B	A	Rpleas_acq	Same	Rpleas	1pleas	acq_US_pleas_nomask	acq45_nomask	4	23	400	1	300	300	0	0	365	46	0	0	fair	lachen	spielen	freundlich	ehrlich	schön	faul	leiden	strafen	fanatisch	eitel	schlecht	loyal	helfen	schlau	treu	tolerant	retten	lasch	hindern	schroff	tot	tyrannisch	rächen	1	blank2r.bmp	0	1	+	0	1	blank2r.bmp	500	1	BMVZ	500	1	blank2r.bmp	880	3	spielen	880	1	!	1232	1	!	1266	0	0	0	0	0	0
2024-05-02	09:03:24	09:13:41	616546	6.6.1	4_exp_EVA_AWA_CON	5	B	A	Rpleas_acq	Same	Rpleas	1pleas	acq_US_pleas_nomask	acq45_nomask	4	24	400	1	300	300	0	0	463	46	0	0	fair	lachen	spielen	freundlich	ehrlich	schön	faul	leiden	strafen	fanatisch	eitel	schlecht	loyal	helfen	schlau	treu	tolerant	retten	lasch	hindern	schroff	tot	tyrannisch	rächen	1	blank2r.bmp	0	1	+	0	1	blank2r.bmp	500	1	BMVZ	500	1	blank2r.bmp	880	3	spielen	880	1	!	1233	1	!	1364	0	0	0	0	0	0
2024-05-02	09:03:24	09:13:43	619000	6.6.1	4_exp_EVA_AWA_CON	5	B	A	Rpleas_acq	Same	Rpleas	1pleas	acq_US_unple_nomask	acq45_nomask	4	25	400	0	300	300	0	0	678	46	1	0	fair	lachen	spielen	freundlich	ehrlich	schön	faul	leiden	strafen	fanatisch	eitel	schlecht	loyal	helfen	schlau	treu	tolerant	retten	lasch	hindern	schroff	tot	tyrannisch	rächen	1	blank2r.bmp	0	1	+	0	1	blank2r.bmp	500	1	GKQX	500	1	blank2r.bmp	880	5	eitel	880	1	!	1232	1	!	-1	0	0	0	0	0	0
2024-05-02	09:03:24	09:13:46	621234	6.6.1	4_exp_EVA_AWA_CON	5	B	A	Rpleas_acq	Same	Rpleas	1pleas	acq_US_unple_nomask	acq45_nomask	4	26	400	1	300	300	0	0	458	46	1	0	fair	lachen	spielen	freundlich	ehrlich	schön	faul	leiden	strafen	fanatisch	eitel	schlecht	loyal	helfen	schlau	treu	tolerant	retten	lasch	hindern	schroff	tot	tyrannisch	rächen	1	blank2r.bmp	0	1	+	0	1	blank2r.bmp	500	1	GKQX	500	1	blank2r.bmp	880	6	schlecht	880	1	!	1233	1	!	1359	0	0	0	0	0	0
2024-05-02	09:03:24	09:13:48	623494	6.6.1	4_exp_EVA_AWA_CON	5	B	A	Rpleas_acq	Same	Rpleas	1pleas	acq_US_unple_nomask	acq45_nomask	4	27	400	0	300	300	0	0	481	50	0	0	fair	lachen	spielen	freundlich	ehrlich	schön	faul	leiden	strafen	fanatisch	eitel	schlecht	loyal	helfen	schlau	treu	tolerant	retten	lasch	hindern	schroff	tot	tyrannisch	rächen	1	blank2r.bmp	0	1	+	0	1	blank2r.bmp	500	1	GKQX	500	1	blank2r.bmp	880	4	fanatisch	880	1	!	1232	1	!	-1	0	0	0	0	0	0
2024-05-02	09:03:24	09:13:50	625690	6.6.1	4_exp_EVA_AWA_CON	5	B	A	Rpleas_acq	Same	Rpleas	1pleas	acq_US_pleas_nomask	acq45_nomask	4	28	400	1	300	300	0	0	421	50	1	0	fair	lachen	spielen	freundlich	ehrlich	schön	faul	leiden	strafen	fanatisch	eitel	schlecht	loyal	helfen	schlau	treu	tolerant	retten	lasch	hindern	schroff	tot	tyrannisch	rächen	1	blank2r.bmp	0	1	+	0	1	blank2r.bmp	500	1	BMVZ	500	1	blank2r.bmp	880	5	ehrlich	880	1	!	1232	1	!	1323	0	0	0	0	0	0
2024-05-02	09:03:24	09:13:52	627976	6.6.1	4_exp_EVA_AWA_CON	5	B	A	Rpleas_acq	Same	Rpleas	1pleas	acq_US_pleas_nomask	acq45_nomask	4	29	400	0	300	300	0	0	508	50	1	0	fair	lachen	spielen	freundlich	ehrlich	schön	faul	leiden	strafen	fanatisch	eitel	schlecht	loyal	helfen	schlau	treu	tolerant	retten	lasch	hindern	schroff	tot	tyrannisch	rächen	1	blank2r.bmp	0	1	+	0	1	blank2r.bmp	500	1	BMVZ	500	1	blank2r.bmp	880	1	fair	880	1	!	1232	1	!	-1	0	0	0	0	0	0
2024-05-02	09:03:24	09:13:55	630401	6.6.1	4_exp_EVA_AWA_CON	5	B	A	Rpleas_acq	Same	Rpleas	1pleas	acq_US_unple_nomask	acq45_nomask	4	30	400	0	300	300	0	0	650	46	1	0	fair	lachen	spielen	freundlich	ehrlich	schön	faul	leiden	strafen	fanatisch	eitel	schlecht	loyal	helfen	schlau	treu	tolerant	retten	lasch	hindern	schroff	tot	tyrannisch	rächen	1	blank2r.bmp	0	1	+	0	1	blank2r.bmp	500	1	GKQX	500	1	blank2r.bmp	880	1	faul	880	1	!	1232	1	!	-1	0	0	0	0	0	0
2024-05-02	09:03:24	09:13:57	632610	6.6.1	4_exp_EVA_AWA_CON	5	B	A	Rpleas_acq	Same	Rpleas	1pleas	acq_US_pleas_nomask	acq45_nomask	4	31	400	1	300	300	0	0	427	46	0	0	fair	lachen	spielen	freundlich	ehrlich	schön	faul	leiden	strafen	fanatisch	eitel	schlecht	loyal	helfen	schlau	treu	tolerant	retten	lasch	hindern	schroff	tot	tyrannisch	rächen	1	blank2r.bmp	0	1	+	0	1	blank2r.bmp	500	1	BMVZ	500	1	blank2r.bmp	880	4	freundlich	880	1	!	1233	1	!	1328	0	0	0	0	0	0
2024-05-02	09:03:24	09:13:59	634810	6.6.1	4_exp_EVA_AWA_CON	5	B	A	Rpleas_acq	Same	Rpleas	1pleas	acq_US_unple_nomask	acq45_nomask	4	32	400	1	300	300	0	0	425	46	1	0	fair	lachen	spielen	freundlich	ehrlich	schön	faul	leiden	strafen	fanatisch	eitel	schlecht	loyal	helfen	schlau	treu	tolerant	retten	lasch	hindern	schroff	tot	tyrannisch	rächen	1	blank2r.bmp	0	1	+	0	1	blank2r.bmp	500	1	GKQX	500	1	blank2r.bmp	880	2	leiden	880	1	!	1232	1	!	1326	0	0	0	0	0	0
2024-05-02	09:03:24	09:14:02	637265	6.6.1	4_exp_EVA_AWA_CON	5	B	A	Rpleas_acq	Same	Rpleas	1pleas	acq_US_unple_nomask	acq45_nomask	4	33	400	0	300	300	0	0	680	46	1	0	fair	lachen	spielen	freundlich	ehrlich	schön	faul	leiden	strafen	fanatisch	eitel	schlecht	loyal	helfen	schlau	treu	tolerant	retten	lasch	hindern	schroff	tot	tyrannisch	rächen	1	blank2r.bmp	0	1	+	0	1	blank2r.bmp	500	1	GKQX	500	1	blank2r.bmp	880	5	eitel	880	1	!	1232	1	!	-1	0	0	0	0	0	0
2024-05-02	09:03:24	09:14:04	639518	6.6.1	4_exp_EVA_AWA_CON	5	B	A	Rpleas_acq	Same	Rpleas	1pleas	acq_US_pleas_nomask	acq45_nomask	4	34	400	0	300	300	0	0	474	50	1	0	fair	lachen	spielen	freundlich	ehrlich	schön	faul	leiden	strafen	fanatisch	eitel	schlecht	loyal	helfen	schlau	treu	tolerant	retten	lasch	hindern	schroff	tot	tyrannisch	rächen	1	blank2r.bmp	0	1	+	0	1	blank2r.bmp	500	1	BMVZ	500	1	blank2r.bmp	880	6	schön	880	1	!	1232	1	!	-1	0	0	0	0	0	0
2024-05-02	09:03:24	09:14:06	641872	6.6.1	4_exp_EVA_AWA_CON	5	B	A	Rpleas_acq	Same	Rpleas	1pleas	acq_US_pleas_nomask	acq45_nomask	4	35	400	0	300	300	0	0	575	50	1	0	fair	lachen	spielen	freundlich	ehrlich	schön	faul	leiden	strafen	fanatisch	eitel	schlecht	loyal	helfen	schlau	treu	tolerant	retten	lasch	hindern	schroff	tot	tyrannisch	rächen	1	blank2r.bmp	0	1	+	0	1	blank2r.bmp	500	1	BMVZ	500	1	blank2r.bmp	880	2	lachen	880	1	!	1232	1	!	-1	0	0	0	0	0	0
2024-05-02	09:03:24	09:14:08	644090	6.6.1	4_exp_EVA_AWA_CON	5	B	A	Rpleas_acq	Same	Rpleas	1pleas	acq_US_unple_nomask	acq45_nomask	4	36	400	1	300	300	0	0	439	46	1	0	fair	lachen	spielen	freundlich	ehrlich	schön	faul	leiden	strafen	fanatisch	eitel	schlecht	loyal	helfen	schlau	treu	tolerant	retten	lasch	hindern	schroff	tot	tyrannisch	rächen	1	blank2r.bmp	0	1	+	0	1	blank2r.bmp	500	1	GKQX	500	1	blank2r.bmp	880	3	strafen	880	1	!	1232	1	!	1340	0	0	0	0	0	0
2024-05-02	09:03:24	09:14:27	663154	6.6.1	4_exp_EVA_AWA_CON	5	B	A	Rpleas_acq	Same	Rpleas	1pleas	acq_US_unple_nomask	acq45_nomask	5	1	400	1	300	300	0	0	461	46	1	0	fair	lachen	spielen	freundlich	ehrlich	schön	faul	leiden	strafen	fanatisch	eitel	schlecht	loyal	helfen	schlau	treu	tolerant	retten	lasch	hindern	schroff	tot	tyrannisch	rächen	1	blank2r.bmp	0	1	+	0	1	blank2r.bmp	500	1	GKQX	500	1	blank2r.bmp	880	3	strafen	880	1	!	1233	1	!	1362	0	0	0	0	0	0
2024-05-02	09:03:24	09:14:30	665338	6.6.1	4_exp_EVA_AWA_CON	5	B	A	Rpleas_acq	Same	Rpleas	1pleas	acq_US_pleas_nomask	acq45_nomask	5	2	400	1	300	300	0	0	403	50	1	0	fair	lachen	spielen	freundlich	ehrlich	schön	faul	leiden	strafen	fanatisch	eitel	schlecht	loyal	helfen	schlau	treu	tolerant	retten	lasch	hindern	schroff	tot	tyrannisch	rächen	1	blank2r.bmp	0	1	+	0	1	blank2r.bmp	500	1	BMVZ	500	1	blank2r.bmp	880	5	ehrlich	880	1	!	1232	1	!	1305	0	0	0	0	0	0
2024-05-02	09:03:24	09:14:32	667570	6.6.1	4_exp_EVA_AWA_CON	5	B	A	Rpleas_acq	Same	Rpleas	1pleas	acq_US_pleas_nomask	acq45_nomask	5	3	400	1	300	300	0	0	454	46	0	0	fair	lachen	spielen	freundlich	ehrlich	schön	faul	leiden	strafen	fanatisch	eitel	schlecht	loyal	helfen	schlau	treu	tolerant	retten	lasch	hindern	schroff	tot	tyrannisch	rächen	1	blank2r.bmp	0	1	+	0	1	blank2r.bmp	500	1	BMVZ	500	1	blank2r.bmp	880	6	schön	880	1	!	1232	1	!	1355	0	0	0	0	0	0
2024-05-02	09:03:24	09:14:34	669848	6.6.1	4_exp_EVA_AWA_CON	5	B	A	Rpleas_acq	Same	Rpleas	1pleas	acq_US_unple_nomask	acq45_nomask	5	4	400	0	300	300	0	0	502	46	1	0	fair	lachen	spielen	freundlich	ehrlich	schön	faul	leiden	strafen	fanatisch	eitel	schlecht	loyal	helfen	schlau	treu	tolerant	retten	lasch	hindern	schroff	tot	tyrannisch	rächen	1	blank2r.bmp	0	1	+	0	1	blank2r.bmp	500	1	GKQX	500	1	blank2r.bmp	880	5	eitel	880	1	!	1232	1	!	-1	0	0	0	0	0	0
2024-05-02	09:03:24	09:14:36	672129	6.6.1	4_exp_EVA_AWA_CON	5	B	A	Rpleas_acq	Same	Rpleas	1pleas	acq_US_unple_nomask	acq45_nomask	5	5	400	0	300	300	0	0	501	46	1	0	fair	lachen	spielen	freundlich	ehrlich	schön	faul	leiden	strafen	fanatisch	eitel	schlecht	loyal	helfen	schlau	treu	tolerant	retten	lasch	hindern	schroff	tot	tyrannisch	rächen	1	blank2r.bmp	0	1	+	0	1	blank2r.bmp	500	1	GKQX	500	1	blank2r.bmp	880	6	schlecht	880	1	!	1232	1	!	-1	0	0	0	0	0	0
2024-05-02	09:03:24	09:14:39	674362	6.6.1	4_exp_EVA_AWA_CON	5	B	A	Rpleas_acq	Same	Rpleas	1pleas	acq_US_pleas_nomask	acq45_nomask	5	6	400	1	300	300	0	0	451	50	1	0	fair	lachen	spielen	freundlich	ehrlich	schön	faul	leiden	strafen	fanatisch	eitel	schlecht	loyal	helfen	schlau	treu	tolerant	retten	lasch	hindern	schroff	tot	tyrannisch	rächen	1	blank2r.bmp	0	1	+	0	1	blank2r.bmp	500	1	BMVZ	500	1	blank2r.bmp	880	3	spielen	880	1	!	1232	1	!	1352	0	0	0	0	0	0
2024-05-02	09:03:24	09:14:41	676648	6.6.1	4_exp_EVA_AWA_CON	5	B	A	Rpleas_acq	Same	Rpleas	1pleas	acq_US_unple_nomask	acq45_nomask	5	7	400	0	300	300	0	0	508	46	1	0	fair	lachen	spielen	freundlich	ehrlich	schön	faul	leiden	strafen	fanatisch	eitel	schlecht	loyal	helfen	schlau	treu	tolerant	retten	lasch	hindern	schroff	tot	tyrannisch	rächen	1	blank2r.bmp	0	1	+	0	1	blank2r.bmp	500	1	GKQX	500	1	blank2r.bmp	880	1	faul	880	1	!	1233	1	!	-1	0	0	0	0	0	0
2024-05-02	09:03:24	09:14:43	678786	6.6.1	4_exp_EVA_AWA_CON	5	B	A	Rpleas_acq	Same	Rpleas	1pleas	acq_US_pleas_nomask	acq45_nomask	5	8	400	1	300	300	0	0	363	50	1	0	fair	lachen	spielen	freundlich	ehrlich	schön	faul	leiden	strafen	fanatisch	eitel	schlecht	loyal	helfen	schlau	treu	tolerant	retten	lasch	hindern	schroff	tot	tyrannisch	rächen	1	blank2r.bmp	0	1	+	0	1	blank2r.bmp	500	1	BMVZ	500	1	blank2r.bmp	880	4	freundlich	880	1	!	1232	1	!	1264	0	0	0	0	0	0
2024-05-02	09:03:24	09:14:45	680904	6.6.1	4_exp_EVA_AWA_CON	5	B	A	Rpleas_acq	Same	Rpleas	1pleas	acq_US_pleas_nomask	acq45_nomask	5	9	400	1	300	300	0	0	341	46	0	0	fair	lachen	spielen	freundlich	ehrlich	schön	faul	leiden	strafen	fanatisch	eitel	schlecht	loyal	helfen	schlau	treu	tolerant	retten	lasch	hindern	schroff	tot	tyrannisch	rächen	1	blank2r.bmp	0	1	+	0	1	blank2r.bmp	500	1	BMVZ	500	1	blank2r.bmp	880	1	fair	880	1	!	1233	1	!	1241	0	0	0	0	0	0
2024-05-02	09:03:24	09:14:47	683154	6.6.1	4_exp_EVA_AWA_CON	5	B	A	Rpleas_acq	Same	Rpleas	1pleas	acq_US_unple_nomask	acq45_nomask	5	10	400	1	300	300	0	0	468	46	1	0	fair	lachen	spielen	freundlich	ehrlich	schön	faul	leiden	strafen	fanatisch	eitel	schlecht	loyal	helfen	schlau	treu	tolerant	retten	lasch	hindern	schroff	tot	tyrannisch	rächen	1	blank2r.bmp	0	1	+	0	1	blank2r.bmp	500	1	GKQX	500	1	blank2r.bmp	880	2	leiden	880	1	!	1232	1	!	1369	0	0	0	0	0	0
2024-05-02	09:03:24	09:14:50	685432	6.6.1	4_exp_EVA_AWA_CON	5	B	A	Rpleas_acq	Same	Rpleas	1pleas	acq_US_pleas_nomask	acq45_nomask	5	11	400	0	300	300	0	0	496	50	1	0	fair	lachen	spielen	freundlich	ehrlich	schön	faul	leiden	strafen	fanatisch	eitel	schlecht	loyal	helfen	schlau	treu	tolerant	retten	lasch	hindern	schroff	tot	tyrannisch	rächen	1	blank2r.bmp	0	1	+	0	1	blank2r.bmp	500	1	BMVZ	500	1	blank2r.bmp	880	2	lachen	880	1	!	1232	1	!	-1	0	0	0	0	0	0
2024-05-02	09:03:24	09:14:52	687936	6.6.1	4_exp_EVA_AWA_CON	5	B	A	Rpleas_acq	Same	Rpleas	1pleas	acq_US_unple_nomask	acq45_nomask	5	12	400	0	300	300	0	0	729	46	1	0	fair	lachen	spielen	freundlich	ehrlich	schön	faul	leiden	strafen	fanatisch	eitel	schlecht	loyal	helfen	schlau	treu	tolerant	retten	lasch	hindern	schroff	tot	tyrannisch	rächen	1	blank2r.bmp	0	1	+	0	1	blank2r.bmp	500	1	GKQX	500	1	blank2r.bmp	880	4	fanatisch	880	1	!	1232	1	!	-1	0	0	0	0	0	0
2024-05-02	09:03:24	09:14:54	690182	6.6.1	4_exp_EVA_AWA_CON	5	B	A	Rpleas_acq	Same	Rpleas	1pleas	acq_US_unple_nomask	acq45_nomask	5	13	400	0	300	300	0	0	475	46	1	0	fair	lachen	spielen	freundlich	ehrlich	schön	faul	leiden	strafen	fanatisch	eitel	schlecht	loyal	helfen	schlau	treu	tolerant	retten	lasch	hindern	schroff	tot	tyrannisch	rächen	1	blank2r.bmp	0	1	+	0	1	blank2r.bmp	500	1	GKQX	500	1	blank2r.bmp	880	2	leiden	880	1	!	1232	1	!	-1	0	0	0	0	0	0
2024-05-02	09:03:24	09:14:57	692314	6.6.1	4_exp_EVA_AWA_CON	5	B	A	Rpleas_acq	Same	Rpleas	1pleas	acq_US_unple_nomask	acq45_nomask	5	14	400	1	300	300	0	0	352	46	1	0	fair	lachen	spielen	freundlich	ehrlich	schön	faul	leiden	strafen	fanatisch	eitel	schlecht	loyal	helfen	schlau	treu	tolerant	retten	lasch	hindern	schroff	tot	tyrannisch	rächen	1	blank2r.bmp	0	1	+	0	1	blank2r.bmp	500	1	GKQX	500	1	blank2r.bmp	880	6	schlecht	880	1	!	1232	1	!	1253	0	0	0	0	0	0
2024-05-02	09:03:24	09:14:59	694616	6.6.1	4_exp_EVA_AWA_CON	5	B	A	Rpleas_acq	Same	Rpleas	1pleas	acq_US_pleas_nomask	acq45_nomask	5	15	400	0	300	300	0	0	524	50	1	0	fair	lachen	spielen	freundlich	ehrlich	schön	faul	leiden	strafen	fanatisch	eitel	schlecht	loyal	helfen	schlau	treu	tolerant	retten	lasch	hindern	schroff	tot	tyrannisch	rächen	1	blank2r.bmp	0	1	+	0	1	blank2r.bmp	500	1	BMVZ	500	1	blank2r.bmp	880	5	ehrlich	880	1	!	1233	1	!	-1	0	0	0	0	0	0
2024-05-02	09:03:24	09:15:01	696794	6.6.1	4_exp_EVA_AWA_CON	5	B	A	Rpleas_acq	Same	Rpleas	1pleas	acq_US_pleas_nomask	acq45_nomask	5	16	400	1	300	300	0	0	399	46	0	0	fair	lachen	spielen	freundlich	ehrlich	schön	faul	leiden	strafen	fanatisch	eitel	schlecht	loyal	helfen	schlau	treu	tolerant	retten	lasch	hindern	schroff	tot	tyrannisch	rächen	1	blank2r.bmp	0	1	+	0	1	blank2r.bmp	500	1	BMVZ	500	1	blank2r.bmp	880	2	lachen	880	1	!	1232	1	!	1300	0	0	0	0	0	0
2024-05-02	09:03:24	09:15:03	699026	6.6.1	4_exp_EVA_AWA_CON	5	B	A	Rpleas_acq	Same	Rpleas	1pleas	acq_US_pleas_nomask	acq45_nomask	5	17	400	1	300	300	0	0	449	50	1	0	fair	lachen	spielen	freundlich	ehrlich	schön	faul	leiden	strafen	fanatisch	eitel	schlecht	loyal	helfen	schlau	treu	tolerant	retten	lasch	hindern	schroff	tot	tyrannisch	rächen	1	blank2r.bmp	0	1	+	0	1	blank2r.bmp	500	1	BMVZ	500	1	blank2r.bmp	880	4	freundlich	880	1	!	1232	1	!	1350	0	0	0	0	0	0
2024-05-02	09:03:24	09:15:06	701408	6.6.1	4_exp_EVA_AWA_CON	5	B	A	Rpleas_acq	Same	Rpleas	1pleas	acq_US_unple_nomask	acq45_nomask	5	18	400	0	300	300	0	0	602	46	1	0	fair	lachen	spielen	freundlich	ehrlich	schön	faul	leiden	strafen	fanatisch	eitel	schlecht	loyal	helfen	schlau	treu	tolerant	retten	lasch	hindern	schroff	tot	tyrannisch	rächen	1	blank2r.bmp	0	1	+	0	1	blank2r.bmp	500	1	GKQX	500	1	blank2r.bmp	880	3	strafen	880	1	!	1232	1	!	-1	0	0	0	0	0	0
2024-05-02	09:03:24	09:15:08	703496	6.6.1	4_exp_EVA_AWA_CON	5	B	A	Rpleas_acq	Same	Rpleas	1pleas	acq_US_unple_nomask	acq45_nomask	5	19	400	0	300	300	0	0	308	50	0	0	fair	lachen	spielen	freundlich	ehrlich	schön	faul	leiden	strafen	fanatisch	eitel	schlecht	loyal	helfen	schlau	treu	tolerant	retten	lasch	hindern	schroff	tot	tyrannisch	rächen	1	blank2r.bmp	0	1	+	0	1	blank2r.bmp	500	1	GKQX	500	1	blank2r.bmp	880	4	fanatisch	880	1	!	-1	1	!	-1	0	0	0	0	0	0
2024-05-02	09:03:24	09:15:10	705742	6.6.1	4_exp_EVA_AWA_CON	5	B	A	Rpleas_acq	Same	Rpleas	1pleas	acq_US_unple_nomask	acq45_nomask	5	20	400	0	300	300	0	0	475	46	1	0	fair	lachen	spielen	freundlich	ehrlich	schön	faul	leiden	strafen	fanatisch	eitel	schlecht	loyal	helfen	schlau	treu	tolerant	retten	lasch	hindern	schroff	tot	tyrannisch	rächen	1	blank2r.bmp	0	1	+	0	1	blank2r.bmp	500	1	GKQX	500	1	blank2r.bmp	880	1	faul	880	1	!	1232	1	!	-1	0	0	0	0	0	0
2024-05-02	09:03:24	09:15:12	707954	6.6.1	4_exp_EVA_AWA_CON	5	B	A	Rpleas_acq	Same	Rpleas	1pleas	acq_US_unple_nomask	acq45_nomask	5	21	400	1	300	300	0	0	432	46	1	0	fair	lachen	spielen	freundlich	ehrlich	schön	faul	leiden	strafen	fanatisch	eitel	schlecht	loyal	helfen	schlau	treu	tolerant	retten	lasch	hindern	schroff	tot	tyrannisch	rächen	1	blank2r.bmp	0	1	+	0	1	blank2r.bmp	500	1	GKQX	500	1	blank2r.bmp	880	5	eitel	880	1	!	1233	1	!	1333	0	0	0	0	0	0
2024-05-02	09:03:24	09:15:15	710233	6.6.1	4_exp_EVA_AWA_CON	5	B	A	Rpleas_acq	Same	Rpleas	1pleas	acq_US_unple_nomask	acq45_nomask	5	22	400	0	300	300	0	0	500	46	1	0	fair	lachen	spielen	freundlich	ehrlich	schön	faul	leiden	strafen	fanatisch	eitel	schlecht	loyal	helfen	schlau	treu	tolerant	retten	lasch	hindern	schroff	tot	tyrannisch	rächen	1	blank2r.bmp	0	1	+	0	1	blank2r.bmp	500	1	GKQX	500	1	blank2r.bmp	880	2	leiden	880	1	!	1232	1	!	-1	0	0	0	0	0	0
2024-05-02	09:03:24	09:15:17	712458	6.6.1	4_exp_EVA_AWA_CON	5	B	A	Rpleas_acq	Same	Rpleas	1pleas	acq_US_unple_nomask	acq45_nomask	5	23	400	1	300	300	0	0	443	46	1	0	fair	lachen	spielen	freundlich	ehrlich	schön	faul	leiden	strafen	fanatisch	eitel	schlecht	loyal	helfen	schlau	treu	tolerant	retten	lasch	hindern	schroff	tot	tyrannisch	rächen	1	blank2r.bmp	0	1	+	0	1	blank2r.bmp	500	1	GKQX	500	1	blank2r.bmp	880	6	schlecht	880	1	!	1232	1	!	1343	0	0	0	0	0	0
2024-05-02	09:03:24	09:15:19	714658	6.6.1	4_exp_EVA_AWA_CON	5	B	A	Rpleas_acq	Same	Rpleas	1pleas	acq_US_pleas_nomask	acq45_nomask	5	24	400	1	300	300	0	0	421	50	1	0	fair	lachen	spielen	freundlich	ehrlich	schön	faul	leiden	strafen	fanatisch	eitel	schlecht	loyal	helfen	schlau	treu	tolerant	retten	lasch	hindern	schroff	tot	tyrannisch	rächen	1	blank2r.bmp	0	1	+	0	1	blank2r.bmp	500	1	BMVZ	500	1	blank2r.bmp	880	3	spielen	880	1	!	1232	1	!	1322	0	0	0	0	0	0
2024-05-02	09:03:24	09:15:21	716802	6.6.1	4_exp_EVA_AWA_CON	5	B	A	Rpleas_acq	Same	Rpleas	1pleas	acq_US_pleas_nomask	acq45_nomask	5	25	400	1	300	300	0	0	364	46	0	0	fair	lachen	spielen	freundlich	ehrlich	schön	faul	leiden	strafen	fanatisch	eitel	schlecht	loyal	helfen	schlau	treu	tolerant	retten	lasch	hindern	schroff	tot	tyrannisch	rächen	1	blank2r.bmp	0	1	+	0	1	blank2r.bmp	500	1	BMVZ	500	1	blank2r.bmp	880	1	fair	880	1	!	1233	1	!	1265	0	0	0	0	0	0
2024-05-02	09:03:24	09:15:23	719042	6.6.1	4_exp_EVA_AWA_CON	5	B	A	Rpleas_acq	Same	Rpleas	1pleas	acq_US_unple_nomask	acq45_nomask	5	26	400	1	300	300	0	0	462	46	1	0	fair	lachen	spielen	freundlich	ehrlich	schön	faul	leiden	strafen	fanatisch	eitel	schlecht	loyal	helfen	schlau	treu	tolerant	retten	lasch	hindern	schroff	tot	tyrannisch	rächen	1	blank2r.bmp	0	1	+	0	1	blank2r.bmp	500	1	GKQX	500	1	blank2r.bmp	880	3	strafen	880	1	!	1232	1	!	1363	0	0	0	0	0	0
2024-05-02	09:03:24	09:15:26	721250	6.6.1	4_exp_EVA_AWA_CON	5	B	A	Rpleas_acq	Same	Rpleas	1pleas	acq_US_pleas_nomask	acq45_nomask	5	27	400	1	300	300	0	0	429	50	1	0	fair	lachen	spielen	freundlich	ehrlich	schön	faul	leiden	strafen	fanatisch	eitel	schlecht	loyal	helfen	schlau	treu	tolerant	retten	lasch	hindern	schroff	tot	tyrannisch	rächen	1	blank2r.bmp	0	1	+	0	1	blank2r.bmp	500	1	BMVZ	500	1	blank2r.bmp	880	6	schön	880	1	!	1232	1	!	1330	0	0	0	0	0	0
2024-05-02	09:03:24	09:15:28	723434	6.6.1	4_exp_EVA_AWA_CON	5	B	A	Rpleas_acq	Same	Rpleas	1pleas	acq_US_pleas_nomask	acq45_nomask	5	28	400	1	300	300	0	0	401	46	0	0	fair	lachen	spielen	freundlich	ehrlich	schön	faul	leiden	strafen	fanatisch	eitel	schlecht	loyal	helfen	schlau	treu	tolerant	retten	lasch	hindern	schroff	tot	tyrannisch	rächen	1	blank2r.bmp	0	1	+	0	1	blank2r.bmp	500	1	BMVZ	500	1	blank2r.bmp	880	3	spielen	880	1	!	1232	1	!	1303	0	0	0	0	0	0
2024-05-02	09:03:24	09:15:30	725682	6.6.1	4_exp_EVA_AWA_CON	5	B	A	Rpleas_acq	Same	Rpleas	1pleas	acq_US_unple_nomask	acq45_nomask	5	29	400	1	300	300	0	0	468	46	1	0	fair	lachen	spielen	freundlich	ehrlich	schön	faul	leiden	strafen	fanatisch	eitel	schlecht	loyal	helfen	schlau	treu	tolerant	retten	lasch	hindern	schroff	tot	tyrannisch	rächen	1	blank2r.bmp	0	1	+	0	1	blank2r.bmp	500	1	GKQX	500	1	blank2r.bmp	880	1	faul	880	1	!	1232	1	!	1369	0	0	0	0	0	0
2024-05-02	09:03:24	09:15:32	727874	6.6.1	4_exp_EVA_AWA_CON	5	B	A	Rpleas_acq	Same	Rpleas	1pleas	acq_US_unple_nomask	acq45_nomask	5	30	400	1	300	300	0	0	408	46	1	0	fair	lachen	spielen	freundlich	ehrlich	schön	faul	leiden	strafen	fanatisch	eitel	schlecht	loyal	helfen	schlau	treu	tolerant	retten	lasch	hindern	schroff	tot	tyrannisch	rächen	1	blank2r.bmp	0	1	+	0	1	blank2r.bmp	500	1	GKQX	500	1	blank2r.bmp	880	5	eitel	880	1	!	1232	1	!	1309	0	0	0	0	0	0
2024-05-02	09:03:24	09:15:34	730074	6.6.1	4_exp_EVA_AWA_CON	5	B	A	Rpleas_acq	Same	Rpleas	1pleas	acq_US_pleas_nomask	acq45_nomask	5	31	400	1	300	300	0	0	417	50	1	0	fair	lachen	spielen	freundlich	ehrlich	schön	faul	leiden	strafen	fanatisch	eitel	schlecht	loyal	helfen	schlau	treu	tolerant	retten	lasch	hindern	schroff	tot	tyrannisch	rächen	1	blank2r.bmp	0	1	+	0	1	blank2r.bmp	500	1	BMVZ	500	1	blank2r.bmp	880	6	schön	880	1	!	1232	1	!	1318	0	0	0	0	0	0
2024-05-02	09:03:24	09:15:36	732177	6.6.1	4_exp_EVA_AWA_CON	5	B	A	Rpleas_acq	Same	Rpleas	1pleas	acq_US_pleas_nomask	acq45_nomask	5	32	400	0	300	300	0	0	330	46	0	0	fair	lachen	spielen	freundlich	ehrlich	schön	faul	leiden	strafen	fanatisch	eitel	schlecht	loyal	helfen	schlau	treu	tolerant	retten	lasch	hindern	schroff	tot	tyrannisch	rächen	1	blank2r.bmp	0	1	+	0	1	blank2r.bmp	500	1	BMVZ	500	1	blank2r.bmp	880	5	ehrlich	880	1	!	-1	1	!	-1	0	0	0	0	0	0
2024-05-02	09:03:24	09:15:39	734418	6.6.1	4_exp_EVA_AWA_CON	5	B	A	Rpleas_acq	Same	Rpleas	1pleas	acq_US_unple_nomask	acq45_nomask	5	33	400	1	300	300	0	0	458	46	1	0	fair	lachen	spielen	freundlich	ehrlich	schön	faul	leiden	strafen	fanatisch	eitel	schlecht	loyal	helfen	schlau	treu	tolerant	retten	lasch	hindern	schroff	tot	tyrannisch	rächen	1	blank2r.bmp	0	1	+	0	1	blank2r.bmp	500	1	GKQX	500	1	blank2r.bmp	880	4	fanatisch	880	1	!	1232	1	!	1359	0	0	0	0	0	0
2024-05-02	09:03:24	09:15:41	736602	6.6.1	4_exp_EVA_AWA_CON	5	B	A	Rpleas_acq	Same	Rpleas	1pleas	acq_US_pleas_nomask	acq45_nomask	5	34	400	1	300	300	0	0	401	50	1	0	fair	lachen	spielen	freundlich	ehrlich	schön	faul	leiden	strafen	fanatisch	eitel	schlecht	loyal	helfen	schlau	treu	tolerant	retten	lasch	hindern	schroff	tot	tyrannisch	rächen	1	blank2r.bmp	0	1	+	0	1	blank2r.bmp	500	1	BMVZ	500	1	blank2r.bmp	880	4	freundlich	880	1	!	1232	1	!	1302	0	0	0	0	0	0
2024-05-02	09:03:24	09:15:43	738904	6.6.1	4_exp_EVA_AWA_CON	5	B	A	Rpleas_acq	Same	Rpleas	1pleas	acq_US_pleas_nomask	acq45_nomask	5	35	400	0	300	300	0	0	523	50	1	0	fair	lachen	spielen	freundlich	ehrlich	schön	faul	leiden	strafen	fanatisch	eitel	schlecht	loyal	helfen	schlau	treu	tolerant	retten	lasch	hindern	schroff	tot	tyrannisch	rächen	1	blank2r.bmp	0	1	+	0	1	blank2r.bmp	500	1	BMVZ	500	1	blank2r.bmp	880	1	fair	880	1	!	1232	1	!	-1	0	0	0	0	0	0
2024-05-02	09:03:24	09:15:45	741090	6.6.1	4_exp_EVA_AWA_CON	5	B	A	Rpleas_acq	Same	Rpleas	1pleas	acq_US_pleas_nomask	acq45_nomask	5	36	400	1	300	300	0	0	406	50	1	0	fair	lachen	spielen	freundlich	ehrlich	schön	faul	leiden	strafen	fanatisch	eitel	schlecht	loyal	helfen	schlau	treu	tolerant	retten	lasch	hindern	schroff	tot	tyrannisch	rächen	1	blank2r.bmp	0	1	+	0	1	blank2r.bmp	500	1	BMVZ	500	1	blank2r.bmp	880	2	lachen	880	1	!	1232	1	!	1307	0	0	0	0	0	0
2024-05-02	09:03:24	09:16:11	767180	6.6.1	4_exp_EVA_AWA_CON	5	B	A	Rpleas_acq	Same	Rpleas	1pleas	EvalRating_firsttwo	EvalRating_firsttwo	6	1	0	0	300	300	0	0	7847	line	0	-17,3177083333333285964pct	fair	lachen	spielen	freundlich	ehrlich	schön	faul	leiden	strafen	fanatisch	eitel	schlecht	loyal	helfen	schlau	treu	tolerant	retten	lasch	hindern	schroff	tot	tyrannisch	rächen	1		-7	1	Wie angenehm oder unangenehm finden Sie die  Buchstabenkette ZGVK?	-7	1		-7	1		-7	1		-7	1	Unangenehm	-7	1	Angenehm	-7	0	0	0	0	0	0	0	0	0
2024-05-02	09:03:24	09:16:18	774109	6.6.1	4_exp_EVA_AWA_CON	5	B	A	Rpleas_acq	Same	Rpleas	1pleas	EvalRating_lastfour	EvalRating_lastfour	7	1	0	0	300	300	0	0	4548	line	0	-76,5625pct	fair	lachen	spielen	freundlich	ehrlich	schön	faul	leiden	strafen	fanatisch	eitel	schlecht	loyal	helfen	schlau	treu	tolerant	retten	lasch	hindern	schroff	tot	tyrannisch	rächen	1		-8	3	Wie angenehm oder unangenehm finden Sie die  Buchstabenkette XBQM?	-8	1		-8	1		-8	1		-8	1	Unangenehm	-8	1	Angenehm	-8	0	0	0	0	0	0	0	0	0
2024-05-02	09:03:24	09:16:21	776477	6.6.1	4_exp_EVA_AWA_CON	5	B	A	Rpleas_acq	Same	Rpleas	1pleas	blank_screen	EvalRating_lastfour	7	3	0	0	300	300	0	0	0	0	0	-76,5625pct	fair	lachen	spielen	freundlich	ehrlich	schön	faul	leiden	strafen	fanatisch	eitel	schlecht	loyal	helfen	schlau	treu	tolerant	retten	lasch	hindern	schroff	tot	tyrannisch	rächen	1		-8	0	0	0	0	0	0	0	0	0	0	0	0	0	0	0	0	0	0	0	0	0	0	0	0	0	0	0
2024-05-02	09:03:24	09:16:23	779212	6.6.1	4_exp_EVA_AWA_CON	5	B	A	Rpleas_acq	Same	Rpleas	1pleas	EvalRating_lastfour	EvalRating_lastfour	7	4	0	0	300	300	0	0	2147	line	0	-81,25pct	fair	lachen	spielen	freundlich	ehrlich	schön	faul	leiden	strafen	fanatisch	eitel	schlecht	loyal	helfen	schlau	treu	tolerant	retten	lasch	hindern	schroff	tot	tyrannisch	rächen	1		-8	2	Wie angenehm oder unangenehm finden Sie die  Buchstabenkette GKQX?	-8	1		-8	1		-8	1		-8	1	Unangenehm	-8	1	Angenehm	-8	0	0	0	0	0	0	0	0	0
2024-05-02	09:03:24	09:16:26	781581	6.6.1	4_exp_EVA_AWA_CON	5	B	A	Rpleas_acq	Same	Rpleas	1pleas	blank_screen	EvalRating_lastfour	7	6	0	0	300	300	0	0	0	0	0	-81,25pct	fair	lachen	spielen	freundlich	ehrlich	schön	faul	leiden	strafen	fanatisch	eitel	schlecht	loyal	helfen	schlau	treu	tolerant	retten	lasch	hindern	schroff	tot	tyrannisch	rächen	1		-8	0	0	0	0	0	0	0	0	0	0	0	0	0	0	0	0	0	0	0	0	0	0	0	0	0	0	0
2024-05-02	09:03:24	09:16:29	784564	6.6.1	4_exp_EVA_AWA_CON	5	B	A	Rpleas_acq	Same	Rpleas	1pleas	EvalRating_lastfour	EvalRating_lastfour	7	7	0	0	300	300	0	0	2396	line	0	41,1458333333333428072pct	fair	lachen	spielen	freundlich	ehrlich	schön	faul	leiden	strafen	fanatisch	eitel	schlecht	loyal	helfen	schlau	treu	tolerant	retten	lasch	hindern	schroff	tot	tyrannisch	rächen	1		-7	1	Wie angenehm oder unangenehm finden Sie die  Buchstabenkette BMVZ?	-7	1		-7	1		-7	1		-7	1	Unangenehm	-7	1	Angenehm	-7	0	0	0	0	0	0	0	0	0
2024-05-02	09:03:24	09:17:07	822706	6.6.1	4_exp_EVA_AWA_CON	5	B	A	Rpleas_acq	Same	Rpleas	1pleas	conawa_CS1_US6	conawa1_nomask	8	1	0	0	300	300	0	0	15893	schön	1	41,1458333333333428072pct	fair	lachen	spielen	freundlich	ehrlich	schön	faul	leiden	strafen	fanatisch	eitel	schlecht	loyal	helfen	schlau	treu	tolerant	retten	lasch	hindern	schroff	tot	tyrannisch	rächen	0	0	0	0	0	0	0	0	0	0	0	0	0	0	0	0	0	0	0	0	0	0	0	0	0	0	0	0	0	0
2024-05-02	09:03:24	09:17:07	822707	6.6.1	4_exp_EVA_AWA_CON	5	B	A	Rpleas_acq	Same	Rpleas	1pleas	conawa_CS1_US6_confidence	conawa1_nomask	8	1	0	0	300	300	0	0	15893	probably	1	41,1458333333333428072pct	fair	lachen	spielen	freundlich	ehrlich	schön	faul	leiden	strafen	fanatisch	eitel	schlecht	loyal	helfen	schlau	treu	tolerant	retten	lasch	hindern	schroff	tot	tyrannisch	rächen	0	0	0	0	0	0	0	0	0	0	0	0	0	0	0	0	0	0	0	0	0	0	0	0	0	0	0	0	0	0
2024-05-02	09:03:24	09:17:23	838986	6.6.1	4_exp_EVA_AWA_CON	5	B	A	Rpleas_acq	Same	Rpleas	1pleas	conawa_CS1_US5	conawa1_nomask	8	2	0	0	300	300	0	0	15660	ehrlich	1	41,1458333333333428072pct	fair	lachen	spielen	freundlich	ehrlich	schön	faul	leiden	strafen	fanatisch	eitel	schlecht	loyal	helfen	schlau	treu	tolerant	retten	lasch	hindern	schroff	tot	tyrannisch	rächen	0	0	0	0	0	0	0	0	0	0	0	0	0	0	0	0	0	0	0	0	0	0	0	0	0	0	0	0	0	0
2024-05-02	09:03:24	09:17:23	838988	6.6.1	4_exp_EVA_AWA_CON	5	B	A	Rpleas_acq	Same	Rpleas	1pleas	conawa_CS1_US5_confidence	conawa1_nomask	8	2	0	0	300	300	0	0	15660	probably	1	41,1458333333333428072pct	fair	lachen	spielen	freundlich	ehrlich	schön	faul	leiden	strafen	fanatisch	eitel	schlecht	loyal	helfen	schlau	treu	tolerant	retten	lasch	hindern	schroff	tot	tyrannisch	rächen	0	0	0	0	0	0	0	0	0	0	0	0	0	0	0	0	0	0	0	0	0	0	0	0	0	0	0	0	0	0
2024-05-02	09:03:24	09:17:34	850124	6.6.1	4_exp_EVA_AWA_CON	5	B	A	Rpleas_acq	Same	Rpleas	1pleas	conawa_CS2_US2	conawa1_nomask	8	3	0	0	300	300	0	0	10524	schlau	1	41,1458333333333428072pct	fair	lachen	spielen	freundlich	ehrlich	schön	faul	leiden	strafen	fanatisch	eitel	schlecht	loyal	helfen	schlau	treu	tolerant	retten	lasch	hindern	schroff	tot	tyrannisch	rächen	0	0	0	0	0	0	0	0	0	0	0	0	0	0	0	0	0	0	0	0	0	0	0	0	0	0	0	0	0	0
2024-05-02	09:03:24	09:17:34	850125	6.6.1	4_exp_EVA_AWA_CON	5	B	A	Rpleas_acq	Same	Rpleas	1pleas	conawa_CS2_US2_confidence	conawa1_nomask	8	3	0	0	300	300	0	0	10524	probably	1	41,1458333333333428072pct	fair	lachen	spielen	freundlich	ehrlich	schön	faul	leiden	strafen	fanatisch	eitel	schlecht	loyal	helfen	schlau	treu	tolerant	retten	lasch	hindern	schroff	tot	tyrannisch	rächen	0	0	0	0	0	0	0	0	0	0	0	0	0	0	0	0	0	0	0	0	0	0	0	0	0	0	0	0	0	0
2024-05-02	09:03:24	09:17:40	855697	6.6.1	4_exp_EVA_AWA_CON	5	B	A	Rpleas_acq	Same	Rpleas	1pleas	conawa_CS1_US2	conawa1_nomask	8	4	0	0	300	300	0	0	4955	helfen	1	41,1458333333333428072pct	fair	lachen	spielen	freundlich	ehrlich	schön	faul	leiden	strafen	fanatisch	eitel	schlecht	loyal	helfen	schlau	treu	tolerant	retten	lasch	hindern	schroff	tot	tyrannisch	rächen	0	0	0	0	0	0	0	0	0	0	0	0	0	0	0	0	0	0	0	0	0	0	0	0	0	0	0	0	0	0
2024-05-02	09:03:24	09:17:40	855699	6.6.1	4_exp_EVA_AWA_CON	5	B	A	Rpleas_acq	Same	Rpleas	1pleas	conawa_CS1_US2_confidence	conawa1_nomask	8	4	0	0	300	300	0	0	4955	probably	1	41,1458333333333428072pct	fair	lachen	spielen	freundlich	ehrlich	schön	faul	leiden	strafen	fanatisch	eitel	schlecht	loyal	helfen	schlau	treu	tolerant	retten	lasch	hindern	schroff	tot	tyrannisch	rächen	0	0	0	0	0	0	0	0	0	0	0	0	0	0	0	0	0	0	0	0	0	0	0	0	0	0	0	0	0	0
2024-05-02	09:03:24	09:17:48	864043	6.6.1	4_exp_EVA_AWA_CON	5	B	A	Rpleas_acq	Same	Rpleas	1pleas	conawa_CS1_US3	conawa1_nomask	8	5	0	0	300	300	0	0	7733	schlau	1	41,1458333333333428072pct	fair	lachen	spielen	freundlich	ehrlich	schön	faul	leiden	strafen	fanatisch	eitel	schlecht	loyal	helfen	schlau	treu	tolerant	retten	lasch	hindern	schroff	tot	tyrannisch	rächen	0	0	0	0	0	0	0	0	0	0	0	0	0	0	0	0	0	0	0	0	0	0	0	0	0	0	0	0	0	0
2024-05-02	09:03:24	09:17:48	864045	6.6.1	4_exp_EVA_AWA_CON	5	B	A	Rpleas_acq	Same	Rpleas	1pleas	conawa_CS1_US3_confidence	conawa1_nomask	8	5	0	0	300	300	0	0	7733	probably	1	41,1458333333333428072pct	fair	lachen	spielen	freundlich	ehrlich	schön	faul	leiden	strafen	fanatisch	eitel	schlecht	loyal	helfen	schlau	treu	tolerant	retten	lasch	hindern	schroff	tot	tyrannisch	rächen	0	0	0	0	0	0	0	0	0	0	0	0	0	0	0	0	0	0	0	0	0	0	0	0	0	0	0	0	0	0
2024-05-02	09:03:24	09:17:54	870177	6.6.1	4_exp_EVA_AWA_CON	5	B	A	Rpleas_acq	Same	Rpleas	1pleas	conawa_CS2_US6	conawa1_nomask	8	6	0	0	300	300	0	0	5518	schlecht	1	41,1458333333333428072pct	fair	lachen	spielen	freundlich	ehrlich	schön	faul	leiden	strafen	fanatisch	eitel	schlecht	loyal	helfen	schlau	treu	tolerant	retten	lasch	hindern	schroff	tot	tyrannisch	rächen	0	0	0	0	0	0	0	0	0	0	0	0	0	0	0	0	0	0	0	0	0	0	0	0	0	0	0	0	0	0
2024-05-02	09:03:24	09:17:54	870178	6.6.1	4_exp_EVA_AWA_CON	5	B	A	Rpleas_acq	Same	Rpleas	1pleas	conawa_CS2_US6_confidence	conawa1_nomask	8	6	0	0	300	300	0	0	5518	probably	1	41,1458333333333428072pct	fair	lachen	spielen	freundlich	ehrlich	schön	faul	leiden	strafen	fanatisch	eitel	schlecht	loyal	helfen	schlau	treu	tolerant	retten	lasch	hindern	schroff	tot	tyrannisch	rächen	0	0	0	0	0	0	0	0	0	0	0	0	0	0	0	0	0	0	0	0	0	0	0	0	0	0	0	0	0	0
2024-05-02	09:03:24	09:18:05	880823	6.6.1	4_exp_EVA_AWA_CON	5	B	A	Rpleas_acq	Same	Rpleas	1pleas	conawa_CS2_US4	conawa1_nomask	8	7	0	0	300	300	0	0	10029	fanatisch	1	41,1458333333333428072pct	fair	lachen	spielen	freundlich	ehrlich	schön	faul	leiden	strafen	fanatisch	eitel	schlecht	loyal	helfen	schlau	treu	tolerant	retten	lasch	hindern	schroff	tot	tyrannisch	rächen	0	0	0	0	0	0	0	0	0	0	0	0	0	0	0	0	0	0	0	0	0	0	0	0	0	0	0	0	0	0
2024-05-02	09:03:24	09:18:05	880825	6.6.1	4_exp_EVA_AWA_CON	5	B	A	Rpleas_acq	Same	Rpleas	1pleas	conawa_CS2_US4_confidence	conawa1_nomask	8	7	0	0	300	300	0	0	10029	probably	1	41,1458333333333428072pct	fair	lachen	spielen	freundlich	ehrlich	schön	faul	leiden	strafen	fanatisch	eitel	schlecht	loyal	helfen	schlau	treu	tolerant	retten	lasch	hindern	schroff	tot	tyrannisch	rächen	0	0	0	0	0	0	0	0	0	0	0	0	0	0	0	0	0	0	0	0	0	0	0	0	0	0	0	0	0	0
2024-05-02	09:03:24	09:18:12	887258	6.6.1	4_exp_EVA_AWA_CON	5	B	A	Rpleas_acq	Same	Rpleas	1pleas	conawa_CS1_US4	conawa1_nomask	8	8	0	0	300	300	0	0	5823	treu	1	41,1458333333333428072pct	fair	lachen	spielen	freundlich	ehrlich	schön	faul	leiden	strafen	fanatisch	eitel	schlecht	loyal	helfen	schlau	treu	tolerant	retten	lasch	hindern	schroff	tot	tyrannisch	rächen	0	0	0	0	0	0	0	0	0	0	0	0	0	0	0	0	0	0	0	0	0	0	0	0	0	0	0	0	0	0
2024-05-02	09:03:24	09:18:12	887259	6.6.1	4_exp_EVA_AWA_CON	5	B	A	Rpleas_acq	Same	Rpleas	1pleas	conawa_CS1_US4_confidence	conawa1_nomask	8	8	0	0	300	300	0	0	5823	probably	1	41,1458333333333428072pct	fair	lachen	spielen	freundlich	ehrlich	schön	faul	leiden	strafen	fanatisch	eitel	schlecht	loyal	helfen	schlau	treu	tolerant	retten	lasch	hindern	schroff	tot	tyrannisch	rächen	0	0	0	0	0	0	0	0	0	0	0	0	0	0	0	0	0	0	0	0	0	0	0	0	0	0	0	0	0	0
2024-05-02	09:03:24	09:18:20	896224	6.6.1	4_exp_EVA_AWA_CON	5	B	A	Rpleas_acq	Same	Rpleas	1pleas	conawa_CS2_US3	conawa1_nomask	8	9	0	0	300	300	0	0	8350	strafen	1	41,1458333333333428072pct	fair	lachen	spielen	freundlich	ehrlich	schön	faul	leiden	strafen	fanatisch	eitel	schlecht	loyal	helfen	schlau	treu	tolerant	retten	lasch	hindern	schroff	tot	tyrannisch	rächen	0	0	0	0	0	0	0	0	0	0	0	0	0	0	0	0	0	0	0	0	0	0	0	0	0	0	0	0	0	0
2024-05-02	09:03:24	09:18:20	896225	6.6.1	4_exp_EVA_AWA_CON	5	B	A	Rpleas_acq	Same	Rpleas	1pleas	conawa_CS2_US3_confidence	conawa1_nomask	8	9	0	0	300	300	0	0	8350	probably	1	41,1458333333333428072pct	fair	lachen	spielen	freundlich	ehrlich	schön	faul	leiden	strafen	fanatisch	eitel	schlecht	loyal	helfen	schlau	treu	tolerant	retten	lasch	hindern	schroff	tot	tyrannisch	rächen	0	0	0	0	0	0	0	0	0	0	0	0	0	0	0	0	0	0	0	0	0	0	0	0	0	0	0	0	0	0
2024-05-02	09:03:24	09:18:28	904189	6.6.1	4_exp_EVA_AWA_CON	5	B	A	Rpleas_acq	Same	Rpleas	1pleas	conawa_CS2_US5	conawa1_nomask	8	10	0	0	300	300	0	0	7350	rächen	1	41,1458333333333428072pct	fair	lachen	spielen	freundlich	ehrlich	schön	faul	leiden	strafen	fanatisch	eitel	schlecht	loyal	helfen	schlau	treu	tolerant	retten	lasch	hindern	schroff	tot	tyrannisch	rächen	0	0	0	0	0	0	0	0	0	0	0	0	0	0	0	0	0	0	0	0	0	0	0	0	0	0	0	0	0	0
2024-05-02	09:03:24	09:18:28	904191	6.6.1	4_exp_EVA_AWA_CON	5	B	A	Rpleas_acq	Same	Rpleas	1pleas	conawa_CS2_US5_confidence	conawa1_nomask	8	10	0	0	300	300	0	0	7350	guess	1	41,1458333333333428072pct	fair	lachen	spielen	freundlich	ehrlich	schön	faul	leiden	strafen	fanatisch	eitel	schlecht	loyal	helfen	schlau	treu	tolerant	retten	lasch	hindern	schroff	tot	tyrannisch	rächen	0	0	0	0	0	0	0	0	0	0	0	0	0	0	0	0	0	0	0	0	0	0	0	0	0	0	0	0	0	0
2024-05-02	09:03:24	09:18:38	913665	6.6.1	4_exp_EVA_AWA_CON	5	B	A	Rpleas_acq	Same	Rpleas	1pleas	conawa_CS2_US1	conawa1_nomask	8	11	0	0	300	300	0	0	8857	faul	1	41,1458333333333428072pct	fair	lachen	spielen	freundlich	ehrlich	schön	faul	leiden	strafen	fanatisch	eitel	schlecht	loyal	helfen	schlau	treu	tolerant	retten	lasch	hindern	schroff	tot	tyrannisch	rächen	0	0	0	0	0	0	0	0	0	0	0	0	0	0	0	0	0	0	0	0	0	0	0	0	0	0	0	0	0	0
2024-05-02	09:03:24	09:18:38	913667	6.6.1	4_exp_EVA_AWA_CON	5	B	A	Rpleas_acq	Same	Rpleas	1pleas	conawa_CS2_US1_confidence	conawa1_nomask	8	11	0	0	300	300	0	0	8857	guess	1	41,1458333333333428072pct	fair	lachen	spielen	freundlich	ehrlich	schön	faul	leiden	strafen	fanatisch	eitel	schlecht	loyal	helfen	schlau	treu	tolerant	retten	lasch	hindern	schroff	tot	tyrannisch	rächen	0	0	0	0	0	0	0	0	0	0	0	0	0	0	0	0	0	0	0	0	0	0	0	0	0	0	0	0	0	0
2024-05-02	09:03:24	09:18:43	919109	6.6.1	4_exp_EVA_AWA_CON	5	B	A	Rpleas_acq	Same	Rpleas	1pleas	conawa_CS1_US1	conawa1_nomask	8	12	0	0	300	300	0	0	4829	fair	1	41,1458333333333428072pct	fair	lachen	spielen	freundlich	ehrlich	schön	faul	leiden	strafen	fanatisch	eitel	schlecht	loyal	helfen	schlau	treu	tolerant	retten	lasch	hindern	schroff	tot	tyrannisch	rächen	0	0	0	0	0	0	0	0	0	0	0	0	0	0	0	0	0	0	0	0	0	0	0	0	0	0	0	0	0	0
2024-05-02	09:03:24	09:18:43	919111	6.6.1	4_exp_EVA_AWA_CON	5	B	A	Rpleas_acq	Same	Rpleas	1pleas	conawa_CS1_US1_confidence	conawa1_nomask	8	12	0	0	300	300	0	0	4829	guess	1	41,1458333333333428072pct	fair	lachen	spielen	freundlich	ehrlich	schön	faul	leiden	strafen	fanatisch	eitel	schlecht	loyal	helfen	schlau	treu	tolerant	retten	lasch	hindern	schroff	tot	tyrannisch	rächen	0	0	0	0	0	0	0	0	0	0	0	0	0	0	0	0	0	0	0	0	0	0	0	0	0	0	0	0	0	0
2024-05-02	09:03:24	09:20:03	998992	6.6.1	4_exp_EVA_AWA_CON	5	B	A	Rpleas_acq	Same	Rpleas	1pleas	cond_US_unple_123_nomask_CS1	condtest_nomask_1	11	1	400	0	300	300	0	0	1202	46	1	41,1458333333333428072pct	fair	lachen	spielen	freundlich	ehrlich	schön	faul	leiden	strafen	fanatisch	eitel	schlecht	loyal	helfen	schlau	treu	tolerant	retten	lasch	hindern	schroff	tot	tyrannisch	rächen	1	blank2r.bmp	0	1	+	0	1	blank2r.bmp	500	1	BMVZ	500	1	blank2r.bmp	880	1	faul	880	1	!	1232	1	!	-1	0	0	0	0	0	0
2024-05-02	09:03:24	09:20:06	1001320	6.6.1	4_exp_EVA_AWA_CON	5	B	A	Rpleas_acq	Same	Rpleas	1pleas	cond_US_unple_123_nomask_CS2	condtest_nomask_1	11	2	400	0	300	300	0	0	548	46	1	41,1458333333333428072pct	fair	lachen	spielen	freundlich	ehrlich	schön	faul	leiden	strafen	fanatisch	eitel	schlecht	loyal	helfen	schlau	treu	tolerant	retten	lasch	hindern	schroff	tot	tyrannisch	rächen	1	blank2r.bmp	0	1	+	0	1	blank2r.bmp	500	1	GKQX	500	1	blank2r.bmp	880	2	faul	880	1	!	1233	1	!	-1	0	0	0	0	0	0
2024-05-02	09:03:24	09:20:08	1003672	6.6.1	4_exp_EVA_AWA_CON	5	B	A	Rpleas_acq	Same	Rpleas	1pleas	cond_new_pleas_456_nomask_CS1	condtest_nomask_1	11	3	400	0	300	300	0	0	578	50	1	41,1458333333333428072pct	fair	lachen	spielen	freundlich	ehrlich	schön	faul	leiden	strafen	fanatisch	eitel	schlecht	loyal	helfen	schlau	treu	tolerant	retten	lasch	hindern	schroff	tot	tyrannisch	rächen	1	blank2r.bmp	0	1	+	0	1	blank2r.bmp	500	1	BMVZ	500	1	blank2r.bmp	880	1	treu	880	1	!	1233	1	!	-1	0	0	0	0	0	0
2024-05-02	09:03:24	09:20:10	1005850	6.6.1	4_exp_EVA_AWA_CON	5	B	A	Rpleas_acq	Same	Rpleas	1pleas	cond_new_pleas_456_nomask_CS2	condtest_nomask_1	11	4	400	1	300	300	0	0	403	46	0	41,1458333333333428072pct	fair	lachen	spielen	freundlich	ehrlich	schön	faul	leiden	strafen	fanatisch	eitel	schlecht	loyal	helfen	schlau	treu	tolerant	retten	lasch	hindern	schroff	tot	tyrannisch	rächen	1	blank2r.bmp	0	1	+	0	1	blank2r.bmp	500	1	GKQX	500	1	blank2r.bmp	880	3	tolerant	880	1	!	1232	1	!	1304	0	0	0	0	0	0
2024-05-02	09:03:24	09:20:13	1008288	6.6.1	4_exp_EVA_AWA_CON	5	B	A	Rpleas_acq	Same	Rpleas	1pleas	cond_US_pleas_123_nomask_CS1	condtest_nomask_1	11	5	400	0	300	300	0	0	661	46	0	41,1458333333333428072pct	fair	lachen	spielen	freundlich	ehrlich	schön	faul	leiden	strafen	fanatisch	eitel	schlecht	loyal	helfen	schlau	treu	tolerant	retten	lasch	hindern	schroff	tot	tyrannisch	rächen	1	blank2r.bmp	0	1	+	0	1	blank2r.bmp	500	1	BMVZ	500	1	blank2r.bmp	880	3	spielen	880	1	!	1232	1	!	-1	0	0	0	0	0	0
2024-05-02	09:03:24	09:20:15	1010569	6.6.1	4_exp_EVA_AWA_CON	5	B	A	Rpleas_acq	Same	Rpleas	1pleas	cond_new_unple_456_nomask_CS1	condtest_nomask_1	11	6	400	0	300	300	0	0	500	46	1	41,1458333333333428072pct	fair	lachen	spielen	freundlich	ehrlich	schön	faul	leiden	strafen	fanatisch	eitel	schlecht	loyal	helfen	schlau	treu	tolerant	retten	lasch	hindern	schroff	tot	tyrannisch	rächen	1	blank2r.bmp	0	1	+	0	1	blank2r.bmp	500	1	BMVZ	500	1	blank2r.bmp	880	1	tot	880	1	!	1232	1	!	-1	0	0	0	0	0	0
2024-05-02	09:03:24	09:20:17	1012961	6.6.1	4_exp_EVA_AWA_CON	5	B	A	Rpleas_acq	Same	Rpleas	1pleas	cond_US_pleas_123_nomask_CS2	condtest_nomask_1	11	7	400	0	300	300	0	0	610	50	1	41,1458333333333428072pct	fair	lachen	spielen	freundlich	ehrlich	schön	faul	leiden	strafen	fanatisch	eitel	schlecht	loyal	helfen	schlau	treu	tolerant	retten	lasch	hindern	schroff	tot	tyrannisch	rächen	1	blank2r.bmp	0	1	+	0	1	blank2r.bmp	500	1	GKQX	500	1	blank2r.bmp	880	1	spielen	880	1	!	1232	1	!	-1	0	0	0	0	0	0
2024-05-02	09:03:24	09:20:20	1015233	6.6.1	4_exp_EVA_AWA_CON	5	B	A	Rpleas_acq	Same	Rpleas	1pleas	cond_new_unple_456_nomask_CS2	condtest_nomask_1	11	8	400	0	300	300	0	0	491	46	1	41,1458333333333428072pct	fair	lachen	spielen	freundlich	ehrlich	schön	faul	leiden	strafen	fanatisch	eitel	schlecht	loyal	helfen	schlau	treu	tolerant	retten	lasch	hindern	schroff	tot	tyrannisch	rächen	1	blank2r.bmp	0	1	+	0	1	blank2r.bmp	500	1	GKQX	500	1	blank2r.bmp	880	1	rächen	880	1	!	1232	1	!	-1	0	0	0	0	0	0
2024-05-02	09:03:24	09:20:31	1026328	6.6.1	4_exp_EVA_AWA_CON	5	B	A	Rpleas_acq	Same	Rpleas	1pleas	cond_new_pleas_456_nomask_CS2	condtest_nomask_2	12	1	400	0	300	300	0	0	680	50	1	41,1458333333333428072pct	fair	lachen	spielen	freundlich	ehrlich	schön	faul	leiden	strafen	fanatisch	eitel	schlecht	loyal	helfen	schlau	treu	tolerant	retten	lasch	hindern	schroff	tot	tyrannisch	rächen	1	blank2r.bmp	0	1	+	0	1	blank2r.bmp	500	1	GKQX	500	1	blank2r.bmp	880	1	retten	880	1	!	1232	1	!	-1	0	0	0	0	0	0
