date	time	currenttime	elapsedtime	build	currentexpt	subject	CS_AB	US_AB	LRpleas_acq	SameOppo	condition_Lpleas	condition_1pleas	trialcode	blockcode	blocknum	trialnum	windowcenter	inwindow	pretrialpause	posttrialpause	trialduration	trialtimeout	latency	response	correct	correctedscore	US_nomask_pleas1	US_nomask_pleas2	US_nomask_pleas3	US_nomask_pleas4	US_nomask_pleas5	US_nomask_pleas6	US_nomask_unple1	US_nomask_unple2	US_nomask_unple3	US_nomask_unple4	US_nomask_unple5	US_nomask_unple6	new_nomask_pleas1	new_nomask_pleas2	new_nomask_pleas3	new_nomask_pleas4	new_nomask_pleas5	new_nomask_pleas6	new_nomask_unple1	new_nomask_unple2	new_nomask_unple3	new_nomask_unple4	new_nomask_unple5	new_nomask_unple6	stimulusnumber1	stimulusitem1	stimulusonset1	stimulusnumber2	stimulusitem2	stimulusonset2	stimulusnumber3	stimulusitem3	stimulusonset3	stimulusnumber4	stimulusitem4	stimulusonset4	stimulusnumber5	stimulusitem5	stimulusonset5	stimulusnumber6	stimulusitem6	stimulusonset6	stimulusnumber7	stimulusitem7	stimulusonset7	stimulusnumber8	stimulusitem8	stimulusonset8	stimulusnumber9	stimulusitem9	stimulusonset9	stimulusnumber10	stimulusitem10	stimulusonset10
2024-05-29	15:31:18	15:33:49	149921	6.6.1	4_exp_EVA_AWA_CON	61	B	A	Rpleas_acq	Same	Rpleas	1pleas	acq_new_unple_nomask	acq1_nomask	1	1	0	0	300	300	0	0	1492	50	0	0	helfen	ehrlich	tolerant	spielen	fair	loyal	hindern	eitel	tyrannisch	strafen	faul	lasch	schlau	schön	retten	lachen	freundlich	treu	schroff	schlecht	rächen	leiden	fanatisch	tot	1	blank2r.bmp	0	1	+	0	1	blank2r.bmp	500	8	C4r.bmp	500	1	blank2r.bmp	880	5	fanatisch	880	1	FEHLER	2394	0	0	0	0	0	0	0	0	0
2024-05-29	15:31:18	15:33:52	152913	6.6.1	4_exp_EVA_AWA_CON	61	B	A	Rpleas_acq	Same	Rpleas	1pleas	acq_US_pleas_nomask	acq1_nomask	1	2	0	0	300	300	0	0	1502	46	0	0	helfen	ehrlich	tolerant	spielen	fair	loyal	hindern	eitel	tyrannisch	strafen	faul	lasch	schlau	schön	retten	lachen	freundlich	treu	schroff	schlecht	rächen	leiden	fanatisch	tot	1	blank2r.bmp	0	1	+	0	1	blank2r.bmp	500	1	BMVZ	500	1	blank2r.bmp	880	2	ehrlich	880	1	FEHLER	2404	0	0	0	0	0	0	0	0	0
2024-05-29	15:31:18	15:33:54	155119	6.6.1	4_exp_EVA_AWA_CON	61	B	A	Rpleas_acq	Same	Rpleas	1pleas	acq_US_unple_nomask	acq1_nomask	1	3	0	0	300	300	0	0	928	46	1	0	helfen	ehrlich	tolerant	spielen	fair	loyal	hindern	eitel	tyrannisch	strafen	faul	lasch	schlau	schön	retten	lachen	freundlich	treu	schroff	schlecht	rächen	leiden	fanatisch	tot	1	blank2r.bmp	0	1	+	0	1	blank2r.bmp	500	1	GKQX	500	1	blank2r.bmp	880	3	tyrannisch	880	0	0	0	0	0	0	0	0	0	0	0	0
2024-05-29	15:31:18	15:33:56	157551	6.6.1	4_exp_EVA_AWA_CON	61	B	A	Rpleas_acq	Same	Rpleas	1pleas	acq_US_unple_nomask	acq1_nomask	1	4	0	0	300	300	0	0	949	46	1	0	helfen	ehrlich	tolerant	spielen	fair	loyal	hindern	eitel	tyrannisch	strafen	faul	lasch	schlau	schön	retten	lachen	freundlich	treu	schroff	schlecht	rächen	leiden	fanatisch	tot	1	blank2r.bmp	0	1	+	0	1	blank2r.bmp	500	1	GKQX	500	1	blank2r.bmp	880	2	eitel	880	0	0	0	0	0	0	0	0	0	0	0	0
2024-05-29	15:31:18	15:33:58	159703	6.6.1	4_exp_EVA_AWA_CON	61	B	A	Rpleas_acq	Same	Rpleas	1pleas	acq_new_pleas_nomask	acq1_nomask	1	5	0	0	300	300	0	0	669	50	1	0	helfen	ehrlich	tolerant	spielen	fair	loyal	hindern	eitel	tyrannisch	strafen	faul	lasch	schlau	schön	retten	lachen	freundlich	treu	schroff	schlecht	rächen	leiden	fanatisch	tot	1	blank2r.bmp	0	1	+	0	1	blank2r.bmp	500	1	B1r.bmp	500	1	blank2r.bmp	880	2	schön	880	0	0	0	0	0	0	0	0	0	0	0	0
2024-05-29	15:31:18	15:34:01	162128	6.6.1	4_exp_EVA_AWA_CON	61	B	A	Rpleas_acq	Same	Rpleas	1pleas	acq_US_pleas_nomask	acq1_nomask	1	6	0	0	300	300	0	0	742	46	0	0	helfen	ehrlich	tolerant	spielen	fair	loyal	hindern	eitel	tyrannisch	strafen	faul	lasch	schlau	schön	retten	lachen	freundlich	treu	schroff	schlecht	rächen	leiden	fanatisch	tot	1	blank2r.bmp	0	1	+	0	1	blank2r.bmp	500	1	BMVZ	500	1	blank2r.bmp	880	6	loyal	880	1	FEHLER	1643	0	0	0	0	0	0	0	0	0
2024-05-29	15:31:18	15:34:03	164111	6.6.1	4_exp_EVA_AWA_CON	61	B	A	Rpleas_acq	Same	Rpleas	1pleas	acq_new_pleas_nomask	acq1_nomask	1	7	0	0	300	300	0	0	694	50	1	0	helfen	ehrlich	tolerant	spielen	fair	loyal	hindern	eitel	tyrannisch	strafen	faul	lasch	schlau	schön	retten	lachen	freundlich	treu	schroff	schlecht	rächen	leiden	fanatisch	tot	1	blank2r.bmp	0	1	+	0	1	blank2r.bmp	500	4	B4r.bmp	500	1	blank2r.bmp	880	3	retten	880	0	0	0	0	0	0	0	0	0	0	0	0
2024-05-29	15:31:18	15:34:05	166279	6.6.1	4_exp_EVA_AWA_CON	61	B	A	Rpleas_acq	Same	Rpleas	1pleas	acq_US_pleas_nomask	acq1_nomask	1	8	0	0	300	300	0	0	681	50	1	0	helfen	ehrlich	tolerant	spielen	fair	loyal	hindern	eitel	tyrannisch	strafen	faul	lasch	schlau	schön	retten	lachen	freundlich	treu	schroff	schlecht	rächen	leiden	fanatisch	tot	1	blank2r.bmp	0	1	+	0	1	blank2r.bmp	500	1	BMVZ	500	1	blank2r.bmp	880	1	helfen	880	0	0	0	0	0	0	0	0	0	0	0	0
2024-05-29	15:31:18	15:34:08	168823	6.6.1	4_exp_EVA_AWA_CON	61	B	A	Rpleas_acq	Same	Rpleas	1pleas	acq_new_pleas_nomask	acq1_nomask	1	9	0	0	300	300	0	0	1064	50	1	0	helfen	ehrlich	tolerant	spielen	fair	loyal	hindern	eitel	tyrannisch	strafen	faul	lasch	schlau	schön	retten	lachen	freundlich	treu	schroff	schlecht	rächen	leiden	fanatisch	tot	1	blank2r.bmp	0	1	+	0	1	blank2r.bmp	500	3	B3r.bmp	500	1	blank2r.bmp	880	6	treu	880	0	0	0	0	0	0	0	0	0	0	0	0
2024-05-29	15:31:18	15:34:10	171063	6.6.1	4_exp_EVA_AWA_CON	61	B	A	Rpleas_acq	Same	Rpleas	1pleas	acq_new_unple_nomask	acq1_nomask	1	10	0	0	300	300	0	0	752	46	1	0	helfen	ehrlich	tolerant	spielen	fair	loyal	hindern	eitel	tyrannisch	strafen	faul	lasch	schlau	schön	retten	lachen	freundlich	treu	schroff	schlecht	rächen	leiden	fanatisch	tot	1	blank2r.bmp	0	1	+	0	1	blank2r.bmp	500	7	C3r.bmp	500	1	blank2r.bmp	880	3	rächen	880	0	0	0	0	0	0	0	0	0	0	0	0
2024-05-29	15:31:18	15:34:12	173264	6.6.1	4_exp_EVA_AWA_CON	61	B	A	Rpleas_acq	Same	Rpleas	1pleas	acq_new_unple_nomask	acq1_nomask	1	11	0	0	300	300	0	0	711	46	1	0	helfen	ehrlich	tolerant	spielen	fair	loyal	hindern	eitel	tyrannisch	strafen	faul	lasch	schlau	schön	retten	lachen	freundlich	treu	schroff	schlecht	rächen	leiden	fanatisch	tot	1	blank2r.bmp	0	1	+	0	1	blank2r.bmp	500	6	C2r.bmp	500	1	blank2r.bmp	880	4	leiden	880	0	0	0	0	0	0	0	0	0	0	0	0
2024-05-29	15:31:18	15:34:14	175471	6.6.1	4_exp_EVA_AWA_CON	61	B	A	Rpleas_acq	Same	Rpleas	1pleas	acq_US_unple_nomask	acq1_nomask	1	12	0	0	300	300	0	0	727	46	1	0	helfen	ehrlich	tolerant	spielen	fair	loyal	hindern	eitel	tyrannisch	strafen	faul	lasch	schlau	schön	retten	lachen	freundlich	treu	schroff	schlecht	rächen	leiden	fanatisch	tot	1	blank2r.bmp	0	1	+	0	1	blank2r.bmp	500	1	GKQX	500	1	blank2r.bmp	880	5	faul	880	0	0	0	0	0	0	0	0	0	0	0	0
2024-05-29	15:31:18	15:34:17	177743	6.6.1	4_exp_EVA_AWA_CON	61	B	A	Rpleas_acq	Same	Rpleas	1pleas	acq_new_unple_nomask	acq1_nomask	1	13	0	0	300	300	0	0	788	46	1	0	helfen	ehrlich	tolerant	spielen	fair	loyal	hindern	eitel	tyrannisch	strafen	faul	lasch	schlau	schön	retten	lachen	freundlich	treu	schroff	schlecht	rächen	leiden	fanatisch	tot	1	blank2r.bmp	0	1	+	0	1	blank2r.bmp	500	2	B2r.bmp	500	1	blank2r.bmp	880	6	tot	880	0	0	0	0	0	0	0	0	0	0	0	0
2024-05-29	15:31:18	15:34:19	180697	6.6.1	4_exp_EVA_AWA_CON	61	B	A	Rpleas_acq	Same	Rpleas	1pleas	acq_US_pleas_nomask	acq1_nomask	1	14	0	0	300	300	0	0	1268	46	0	0	helfen	ehrlich	tolerant	spielen	fair	loyal	hindern	eitel	tyrannisch	strafen	faul	lasch	schlau	schön	retten	lachen	freundlich	treu	schroff	schlecht	rächen	leiden	fanatisch	tot	1	blank2r.bmp	0	1	+	0	1	blank2r.bmp	500	1	BMVZ	500	1	blank2r.bmp	880	5	fair	880	1	FEHLER	2170	0	0	0	0	0	0	0	0	0
2024-05-29	15:31:18	15:34:21	182511	6.6.1	4_exp_EVA_AWA_CON	61	B	A	Rpleas_acq	Same	Rpleas	1pleas	acq_new_unple_nomask	acq1_nomask	1	15	0	0	300	300	0	0	532	46	1	0	helfen	ehrlich	tolerant	spielen	fair	loyal	hindern	eitel	tyrannisch	strafen	faul	lasch	schlau	schön	retten	lachen	freundlich	treu	schroff	schlecht	rächen	leiden	fanatisch	tot	1	blank2r.bmp	0	1	+	0	1	blank2r.bmp	500	5	C1r.bmp	500	1	blank2r.bmp	880	2	schlecht	880	0	0	0	0	0	0	0	0	0	0	0	0
2024-05-29	15:31:18	15:34:23	184623	6.6.1	4_exp_EVA_AWA_CON	61	B	A	Rpleas_acq	Same	Rpleas	1pleas	acq_US_pleas_nomask	acq1_nomask	1	16	0	0	300	300	0	0	623	50	1	0	helfen	ehrlich	tolerant	spielen	fair	loyal	hindern	eitel	tyrannisch	strafen	faul	lasch	schlau	schön	retten	lachen	freundlich	treu	schroff	schlecht	rächen	leiden	fanatisch	tot	1	blank2r.bmp	0	1	+	0	1	blank2r.bmp	500	1	BMVZ	500	1	blank2r.bmp	880	3	tolerant	880	0	0	0	0	0	0	0	0	0	0	0	0
2024-05-29	15:31:18	15:34:26	186959	6.6.1	4_exp_EVA_AWA_CON	61	B	A	Rpleas_acq	Same	Rpleas	1pleas	acq_US_unple_nomask	acq1_nomask	1	17	0	0	300	300	0	0	848	46	1	0	helfen	ehrlich	tolerant	spielen	fair	loyal	hindern	eitel	tyrannisch	strafen	faul	lasch	schlau	schön	retten	lachen	freundlich	treu	schroff	schlecht	rächen	leiden	fanatisch	tot	1	blank2r.bmp	0	1	+	0	1	blank2r.bmp	500	1	GKQX	500	1	blank2r.bmp	880	4	strafen	880	0	0	0	0	0	0	0	0	0	0	0	0
2024-05-29	15:31:18	15:34:28	189015	6.6.1	4_exp_EVA_AWA_CON	61	B	A	Rpleas_acq	Same	Rpleas	1pleas	acq_new_unple_nomask	acq1_nomask	1	18	0	0	300	300	0	0	572	46	1	0	helfen	ehrlich	tolerant	spielen	fair	loyal	hindern	eitel	tyrannisch	strafen	faul	lasch	schlau	schön	retten	lachen	freundlich	treu	schroff	schlecht	rächen	leiden	fanatisch	tot	1	blank2r.bmp	0	1	+	0	1	blank2r.bmp	500	5	C1r.bmp	500	1	blank2r.bmp	880	1	schroff	880	0	0	0	0	0	0	0	0	0	0	0	0
2024-05-29	15:31:18	15:34:30	191031	6.6.1	4_exp_EVA_AWA_CON	61	B	A	Rpleas_acq	Same	Rpleas	1pleas	acq_US_unple_nomask	acq1_nomask	1	19	0	0	300	300	0	0	527	46	1	0	helfen	ehrlich	tolerant	spielen	fair	loyal	hindern	eitel	tyrannisch	strafen	faul	lasch	schlau	schön	retten	lachen	freundlich	treu	schroff	schlecht	rächen	leiden	fanatisch	tot	1	blank2r.bmp	0	1	+	0	1	blank2r.bmp	500	1	GKQX	500	1	blank2r.bmp	880	1	hindern	880	0	0	0	0	0	0	0	0	0	0	0	0
2024-05-29	15:31:18	15:34:32	193111	6.6.1	4_exp_EVA_AWA_CON	61	B	A	Rpleas_acq	Same	Rpleas	1pleas	acq_US_unple_nomask	acq1_nomask	1	20	0	0	300	300	0	0	596	46	1	0	helfen	ehrlich	tolerant	spielen	fair	loyal	hindern	eitel	tyrannisch	strafen	faul	lasch	schlau	schön	retten	lachen	freundlich	treu	schroff	schlecht	rächen	leiden	fanatisch	tot	1	blank2r.bmp	0	1	+	0	1	blank2r.bmp	500	1	GKQX	500	1	blank2r.bmp	880	6	lasch	880	0	0	0	0	0	0	0	0	0	0	0	0
2024-05-29	15:31:18	15:34:34	195279	6.6.1	4_exp_EVA_AWA_CON	61	B	A	Rpleas_acq	Same	Rpleas	1pleas	acq_new_pleas_nomask	acq1_nomask	1	21	0	0	300	300	0	0	682	50	1	0	helfen	ehrlich	tolerant	spielen	fair	loyal	hindern	eitel	tyrannisch	strafen	faul	lasch	schlau	schön	retten	lachen	freundlich	treu	schroff	schlecht	rächen	leiden	fanatisch	tot	1	blank2r.bmp	0	1	+	0	1	blank2r.bmp	500	7	C3r.bmp	500	1	blank2r.bmp	880	5	freundlich	880	0	0	0	0	0	0	0	0	0	0	0	0
2024-05-29	15:31:18	15:34:36	197391	6.6.1	4_exp_EVA_AWA_CON	61	B	A	Rpleas_acq	Same	Rpleas	1pleas	acq_US_pleas_nomask	acq1_nomask	1	22	0	0	300	300	0	0	623	50	1	0	helfen	ehrlich	tolerant	spielen	fair	loyal	hindern	eitel	tyrannisch	strafen	faul	lasch	schlau	schön	retten	lachen	freundlich	treu	schroff	schlecht	rächen	leiden	fanatisch	tot	1	blank2r.bmp	0	1	+	0	1	blank2r.bmp	500	1	BMVZ	500	1	blank2r.bmp	880	4	spielen	880	0	0	0	0	0	0	0	0	0	0	0	0
2024-05-29	15:31:18	15:34:39	199768	6.6.1	4_exp_EVA_AWA_CON	61	B	A	Rpleas_acq	Same	Rpleas	1pleas	acq_new_pleas_nomask	acq1_nomask	1	23	0	0	300	300	0	0	688	46	0	0	helfen	ehrlich	tolerant	spielen	fair	loyal	hindern	eitel	tyrannisch	strafen	faul	lasch	schlau	schön	retten	lachen	freundlich	treu	schroff	schlecht	rächen	leiden	fanatisch	tot	1	blank2r.bmp	0	1	+	0	1	blank2r.bmp	500	2	B2r.bmp	500	1	blank2r.bmp	880	1	schlau	880	1	FEHLER	1589	0	0	0	0	0	0	0	0	0
2024-05-29	15:31:18	15:34:40	201607	6.6.1	4_exp_EVA_AWA_CON	61	B	A	Rpleas_acq	Same	Rpleas	1pleas	acq_new_pleas_nomask	acq1_nomask	1	24	0	0	300	300	0	0	556	50	1	0	helfen	ehrlich	tolerant	spielen	fair	loyal	hindern	eitel	tyrannisch	strafen	faul	lasch	schlau	schön	retten	lachen	freundlich	treu	schroff	schlecht	rächen	leiden	fanatisch	tot	1	blank2r.bmp	0	1	+	0	1	blank2r.bmp	500	6	C2r.bmp	500	1	blank2r.bmp	880	4	lachen	880	0	0	0	0	0	0	0	0	0	0	0	0
2024-05-29	15:31:18	15:34:42	203695	6.6.1	4_exp_EVA_AWA_CON	61	B	A	Rpleas_acq	Same	Rpleas	1pleas	acq_new_pleas_nomask	acq1_nomask	1	25	0	0	300	300	0	0	603	50	1	0	helfen	ehrlich	tolerant	spielen	fair	loyal	hindern	eitel	tyrannisch	strafen	faul	lasch	schlau	schön	retten	lachen	freundlich	treu	schroff	schlecht	rächen	leiden	fanatisch	tot	1	blank2r.bmp	0	1	+	0	1	blank2r.bmp	500	3	B3r.bmp	500	1	blank2r.bmp	880	1	schlau	880	0	0	0	0	0	0	0	0	0	0	0	0
2024-05-29	15:31:18	15:34:45	205784	6.6.1	4_exp_EVA_AWA_CON	61	B	A	Rpleas_acq	Same	Rpleas	1pleas	acq_US_pleas_nomask	acq1_nomask	1	26	0	0	300	300	0	0	600	50	1	0	helfen	ehrlich	tolerant	spielen	fair	loyal	hindern	eitel	tyrannisch	strafen	faul	lasch	schlau	schön	retten	lachen	freundlich	treu	schroff	schlecht	rächen	leiden	fanatisch	tot	1	blank2r.bmp	0	1	+	0	1	blank2r.bmp	500	1	BMVZ	500	1	blank2r.bmp	880	3	tolerant	880	0	0	0	0	0	0	0	0	0	0	0	0
2024-05-29	15:31:18	15:34:47	208007	6.6.1	4_exp_EVA_AWA_CON	61	B	A	Rpleas_acq	Same	Rpleas	1pleas	acq_US_pleas_nomask	acq1_nomask	1	27	0	0	300	300	0	0	742	50	1	0	helfen	ehrlich	tolerant	spielen	fair	loyal	hindern	eitel	tyrannisch	strafen	faul	lasch	schlau	schön	retten	lachen	freundlich	treu	schroff	schlecht	rächen	leiden	fanatisch	tot	1	blank2r.bmp	0	1	+	0	1	blank2r.bmp	500	1	BMVZ	500	1	blank2r.bmp	880	1	helfen	880	0	0	0	0	0	0	0	0	0	0	0	0
2024-05-29	15:31:18	15:34:49	210183	6.6.1	4_exp_EVA_AWA_CON	61	B	A	Rpleas_acq	Same	Rpleas	1pleas	acq_US_unple_nomask	acq1_nomask	1	28	0	0	300	300	0	0	687	46	1	0	helfen	ehrlich	tolerant	spielen	fair	loyal	hindern	eitel	tyrannisch	strafen	faul	lasch	schlau	schön	retten	lachen	freundlich	treu	schroff	schlecht	rächen	leiden	fanatisch	tot	1	blank2r.bmp	0	1	+	0	1	blank2r.bmp	500	1	GKQX	500	1	blank2r.bmp	880	5	faul	880	0	0	0	0	0	0	0	0	0	0	0	0
2024-05-29	15:31:18	15:34:51	212431	6.6.1	4_exp_EVA_AWA_CON	61	B	A	Rpleas_acq	Same	Rpleas	1pleas	acq_US_unple_nomask	acq1_nomask	1	29	0	0	300	300	0	0	763	46	1	0	helfen	ehrlich	tolerant	spielen	fair	loyal	hindern	eitel	tyrannisch	strafen	faul	lasch	schlau	schön	retten	lachen	freundlich	treu	schroff	schlecht	rächen	leiden	fanatisch	tot	1	blank2r.bmp	0	1	+	0	1	blank2r.bmp	500	1	GKQX	500	1	blank2r.bmp	880	4	strafen	880	0	0	0	0	0	0	0	0	0	0	0	0
2024-05-29	15:31:18	15:34:53	214567	6.6.1	4_exp_EVA_AWA_CON	61	B	A	Rpleas_acq	Same	Rpleas	1pleas	acq_new_pleas_nomask	acq1_nomask	1	30	0	0	300	300	0	0	648	50	1	0	helfen	ehrlich	tolerant	spielen	fair	loyal	hindern	eitel	tyrannisch	strafen	faul	lasch	schlau	schön	retten	lachen	freundlich	treu	schroff	schlecht	rächen	leiden	fanatisch	tot	1	blank2r.bmp	0	1	+	0	1	blank2r.bmp	500	4	B4r.bmp	500	1	blank2r.bmp	880	5	freundlich	880	0	0	0	0	0	0	0	0	0	0	0	0
2024-05-29	15:31:18	15:34:56	216808	6.6.1	4_exp_EVA_AWA_CON	61	B	A	Rpleas_acq	Same	Rpleas	1pleas	acq_new_unple_nomask	acq1_nomask	1	31	0	0	300	300	0	0	557	50	0	0	helfen	ehrlich	tolerant	spielen	fair	loyal	hindern	eitel	tyrannisch	strafen	faul	lasch	schlau	schön	retten	lachen	freundlich	treu	schroff	schlecht	rächen	leiden	fanatisch	tot	1	blank2r.bmp	0	1	+	0	1	blank2r.bmp	500	1	B1r.bmp	500	1	blank2r.bmp	880	5	fanatisch	880	1	FEHLER	1458	0	0	0	0	0	0	0	0	0
2024-05-29	15:31:18	15:34:57	218703	6.6.1	4_exp_EVA_AWA_CON	61	B	A	Rpleas_acq	Same	Rpleas	1pleas	acq_US_pleas_nomask	acq1_nomask	1	32	0	0	300	300	0	0	611	50	1	0	helfen	ehrlich	tolerant	spielen	fair	loyal	hindern	eitel	tyrannisch	strafen	faul	lasch	schlau	schön	retten	lachen	freundlich	treu	schroff	schlecht	rächen	leiden	fanatisch	tot	1	blank2r.bmp	0	1	+	0	1	blank2r.bmp	500	1	BMVZ	500	1	blank2r.bmp	880	4	spielen	880	0	0	0	0	0	0	0	0	0	0	0	0
2024-05-29	15:31:18	15:35:00	220839	6.6.1	4_exp_EVA_AWA_CON	61	B	A	Rpleas_acq	Same	Rpleas	1pleas	acq_new_unple_nomask	acq1_nomask	1	33	0	0	300	300	0	0	656	46	1	0	helfen	ehrlich	tolerant	spielen	fair	loyal	hindern	eitel	tyrannisch	strafen	faul	lasch	schlau	schön	retten	lachen	freundlich	treu	schroff	schlecht	rächen	leiden	fanatisch	tot	1	blank2r.bmp	0	1	+	0	1	blank2r.bmp	500	8	C4r.bmp	500	1	blank2r.bmp	880	2	schlecht	880	0	0	0	0	0	0	0	0	0	0	0	0
2024-05-29	15:31:18	15:35:02	222991	6.6.1	4_exp_EVA_AWA_CON	61	B	A	Rpleas_acq	Same	Rpleas	1pleas	acq_US_unple_nomask	acq1_nomask	1	34	0	0	300	300	0	0	667	46	1	0	helfen	ehrlich	tolerant	spielen	fair	loyal	hindern	eitel	tyrannisch	strafen	faul	lasch	schlau	schön	retten	lachen	freundlich	treu	schroff	schlecht	rächen	leiden	fanatisch	tot	1	blank2r.bmp	0	1	+	0	1	blank2r.bmp	500	1	GKQX	500	1	blank2r.bmp	880	1	hindern	880	0	0	0	0	0	0	0	0	0	0	0	0
2024-05-29	15:31:18	15:35:04	225671	6.6.1	4_exp_EVA_AWA_CON	61	B	A	Rpleas_acq	Same	Rpleas	1pleas	acq_new_unple_nomask	acq1_nomask	1	35	0	0	300	300	0	0	1195	46	1	0	helfen	ehrlich	tolerant	spielen	fair	loyal	hindern	eitel	tyrannisch	strafen	faul	lasch	schlau	schön	retten	lachen	freundlich	treu	schroff	schlecht	rächen	leiden	fanatisch	tot	1	blank2r.bmp	0	1	+	0	1	blank2r.bmp	500	8	C4r.bmp	500	1	blank2r.bmp	880	3	rächen	880	0	0	0	0	0	0	0	0	0	0	0	0
2024-05-29	15:31:18	15:35:07	227943	6.6.1	4_exp_EVA_AWA_CON	61	B	A	Rpleas_acq	Same	Rpleas	1pleas	acq_new_pleas_nomask	acq1_nomask	1	36	0	0	300	300	0	0	786	50	1	0	helfen	ehrlich	tolerant	spielen	fair	loyal	hindern	eitel	tyrannisch	strafen	faul	lasch	schlau	schön	retten	lachen	freundlich	treu	schroff	schlecht	rächen	leiden	fanatisch	tot	1	blank2r.bmp	0	1	+	0	1	blank2r.bmp	500	5	C1r.bmp	500	1	blank2r.bmp	880	6	treu	880	0	0	0	0	0	0	0	0	0	0	0	0
2024-05-29	15:31:18	15:35:36	257313	6.6.1	4_exp_EVA_AWA_CON	61	B	A	Rpleas_acq	Same	Rpleas	1pleas	acq_new_unple_nomask	acq2_nomask	2	1	480	0	300	300	0	0	907	46	1	0	helfen	ehrlich	tolerant	spielen	fair	loyal	hindern	eitel	tyrannisch	strafen	faul	lasch	schlau	schön	retten	lachen	freundlich	treu	schroff	schlecht	rächen	leiden	fanatisch	tot	1	blank2r.bmp	0	1	+	0	1	blank2r.bmp	500	2	B2r.bmp	500	1	blank2r.bmp	880	6	tot	880	1	!	1313	1	!	-1	0	0	0	0	0	0
2024-05-29	15:31:18	15:35:39	259761	6.6.1	4_exp_EVA_AWA_CON	61	B	A	Rpleas_acq	Same	Rpleas	1pleas	acq_new_pleas_nomask	acq2_nomask	2	2	480	0	300	300	0	0	673	50	1	0	helfen	ehrlich	tolerant	spielen	fair	loyal	hindern	eitel	tyrannisch	strafen	faul	lasch	schlau	schön	retten	lachen	freundlich	treu	schroff	schlecht	rächen	leiden	fanatisch	tot	1	blank2r.bmp	0	1	+	0	1	blank2r.bmp	500	1	B1r.bmp	500	1	blank2r.bmp	880	4	lachen	880	1	!	1312	1	!	-1	0	0	0	0	0	0
2024-05-29	15:31:18	15:35:41	262137	6.6.1	4_exp_EVA_AWA_CON	61	B	A	Rpleas_acq	Same	Rpleas	1pleas	acq_US_pleas_nomask	acq2_nomask	2	3	480	0	300	300	0	0	598	50	1	0	helfen	ehrlich	tolerant	spielen	fair	loyal	hindern	eitel	tyrannisch	strafen	faul	lasch	schlau	schön	retten	lachen	freundlich	treu	schroff	schlecht	rächen	leiden	fanatisch	tot	1	blank2r.bmp	0	1	+	0	1	blank2r.bmp	500	1	BMVZ	500	1	blank2r.bmp	880	6	loyal	880	1	!	1312	1	!	-1	0	0	0	0	0	0
2024-05-29	15:31:18	15:35:43	264505	6.6.1	4_exp_EVA_AWA_CON	61	B	A	Rpleas_acq	Same	Rpleas	1pleas	acq_US_unple_nomask	acq2_nomask	2	4	480	0	300	300	0	0	594	46	1	0	helfen	ehrlich	tolerant	spielen	fair	loyal	hindern	eitel	tyrannisch	strafen	faul	lasch	schlau	schön	retten	lachen	freundlich	treu	schroff	schlecht	rächen	leiden	fanatisch	tot	1	blank2r.bmp	0	1	+	0	1	blank2r.bmp	500	1	GKQX	500	1	blank2r.bmp	880	6	lasch	880	1	!	1312	1	!	-1	0	0	0	0	0	0
2024-05-29	15:31:18	15:35:46	266839	6.6.1	4_exp_EVA_AWA_CON	61	B	A	Rpleas_acq	Same	Rpleas	1pleas	acq_new_unple_nomask	acq2_nomask	2	5	480	0	300	300	0	0	559	46	1	0	helfen	ehrlich	tolerant	spielen	fair	loyal	hindern	eitel	tyrannisch	strafen	faul	lasch	schlau	schön	retten	lachen	freundlich	treu	schroff	schlecht	rächen	leiden	fanatisch	tot	1	blank2r.bmp	0	1	+	0	1	blank2r.bmp	500	7	C3r.bmp	500	1	blank2r.bmp	880	4	leiden	880	1	!	1313	1	!	-1	0	0	0	0	0	0
2024-05-29	15:31:18	15:35:48	269225	6.6.1	4_exp_EVA_AWA_CON	61	B	A	Rpleas_acq	Same	Rpleas	1pleas	acq_new_unple_nomask	acq2_nomask	2	6	480	0	300	300	0	0	611	46	1	0	helfen	ehrlich	tolerant	spielen	fair	loyal	hindern	eitel	tyrannisch	strafen	faul	lasch	schlau	schön	retten	lachen	freundlich	treu	schroff	schlecht	rächen	leiden	fanatisch	tot	1	blank2r.bmp	0	1	+	0	1	blank2r.bmp	500	6	C2r.bmp	500	1	blank2r.bmp	880	1	schroff	880	1	!	1312	1	!	-1	0	0	0	0	0	0
2024-05-29	15:31:18	15:35:50	271547	6.6.1	4_exp_EVA_AWA_CON	61	B	A	Rpleas_acq	Same	Rpleas	1pleas	acq_US_pleas_nomask	acq2_nomask	2	7	480	1	300	300	0	0	540	50	1	0	helfen	ehrlich	tolerant	spielen	fair	loyal	hindern	eitel	tyrannisch	strafen	faul	lasch	schlau	schön	retten	lachen	freundlich	treu	schroff	schlecht	rächen	leiden	fanatisch	tot	1	blank2r.bmp	0	1	+	0	1	blank2r.bmp	500	1	BMVZ	500	1	blank2r.bmp	880	2	ehrlich	880	1	!	1312	1	!	1441	0	0	0	0	0	0
2024-05-29	15:31:18	15:35:53	273827	6.6.1	4_exp_EVA_AWA_CON	61	B	A	Rpleas_acq	Same	Rpleas	1pleas	acq_US_unple_nomask	acq2_nomask	2	8	480	1	300	300	0	0	498	46	1	0	helfen	ehrlich	tolerant	spielen	fair	loyal	hindern	eitel	tyrannisch	strafen	faul	lasch	schlau	schön	retten	lachen	freundlich	treu	schroff	schlecht	rächen	leiden	fanatisch	tot	1	blank2r.bmp	0	1	+	0	1	blank2r.bmp	500	1	GKQX	500	1	blank2r.bmp	880	2	eitel	880	1	!	1312	1	!	1399	0	0	0	0	0	0
2024-05-29	15:31:18	15:35:55	276107	6.6.1	4_exp_EVA_AWA_CON	61	B	A	Rpleas_acq	Same	Rpleas	1pleas	acq_new_pleas_nomask	acq2_nomask	2	9	480	1	300	300	0	0	497	50	1	0	helfen	ehrlich	tolerant	spielen	fair	loyal	hindern	eitel	tyrannisch	strafen	faul	lasch	schlau	schön	retten	lachen	freundlich	treu	schroff	schlecht	rächen	leiden	fanatisch	tot	1	blank2r.bmp	0	1	+	0	1	blank2r.bmp	500	4	B4r.bmp	500	1	blank2r.bmp	880	2	schön	880	1	!	1313	1	!	1398	0	0	0	0	0	0
2024-05-29	15:31:18	15:35:57	278529	6.6.1	4_exp_EVA_AWA_CON	61	B	A	Rpleas_acq	Same	Rpleas	1pleas	acq_new_pleas_nomask	acq2_nomask	2	10	480	0	300	300	0	0	649	50	1	0	helfen	ehrlich	tolerant	spielen	fair	loyal	hindern	eitel	tyrannisch	strafen	faul	lasch	schlau	schön	retten	lachen	freundlich	treu	schroff	schlecht	rächen	leiden	fanatisch	tot	1	blank2r.bmp	0	1	+	0	1	blank2r.bmp	500	3	B3r.bmp	500	1	blank2r.bmp	880	3	retten	880	1	!	1312	1	!	-1	0	0	0	0	0	0
2024-05-29	15:31:18	15:36:00	280819	6.6.1	4_exp_EVA_AWA_CON	61	B	A	Rpleas_acq	Same	Rpleas	1pleas	acq_US_pleas_nomask	acq2_nomask	2	11	480	1	300	300	0	0	516	50	1	0	helfen	ehrlich	tolerant	spielen	fair	loyal	hindern	eitel	tyrannisch	strafen	faul	lasch	schlau	schön	retten	lachen	freundlich	treu	schroff	schlecht	rächen	leiden	fanatisch	tot	1	blank2r.bmp	0	1	+	0	1	blank2r.bmp	500	1	BMVZ	500	1	blank2r.bmp	880	5	fair	880	1	!	1313	1	!	1417	0	0	0	0	0	0
2024-05-29	15:31:18	15:36:02	283043	6.6.1	4_exp_EVA_AWA_CON	61	B	A	Rpleas_acq	Same	Rpleas	1pleas	acq_US_unple_nomask	acq2_nomask	2	12	480	1	300	300	0	0	448	46	1	0	helfen	ehrlich	tolerant	spielen	fair	loyal	hindern	eitel	tyrannisch	strafen	faul	lasch	schlau	schön	retten	lachen	freundlich	treu	schroff	schlecht	rächen	leiden	fanatisch	tot	1	blank2r.bmp	0	1	+	0	1	blank2r.bmp	500	1	GKQX	500	1	blank2r.bmp	880	3	tyrannisch	880	1	!	1312	1	!	1349	0	0	0	0	0	0
2024-05-29	15:31:18	15:36:04	285355	6.6.1	4_exp_EVA_AWA_CON	61	B	A	Rpleas_acq	Same	Rpleas	1pleas	acq_new_unple_nomask	acq2_nomask	2	13	480	1	300	300	0	0	529	46	1	0	helfen	ehrlich	tolerant	spielen	fair	loyal	hindern	eitel	tyrannisch	strafen	faul	lasch	schlau	schön	retten	lachen	freundlich	treu	schroff	schlecht	rächen	leiden	fanatisch	tot	1	blank2r.bmp	0	1	+	0	1	blank2r.bmp	500	6	C2r.bmp	500	1	blank2r.bmp	880	6	tot	880	1	!	1313	1	!	1430	0	0	0	0	0	0
2024-05-29	15:31:18	15:36:06	287579	6.6.1	4_exp_EVA_AWA_CON	61	B	A	Rpleas_acq	Same	Rpleas	1pleas	acq_US_unple_nomask	acq2_nomask	2	14	480	1	300	300	0	0	441	46	1	0	helfen	ehrlich	tolerant	spielen	fair	loyal	hindern	eitel	tyrannisch	strafen	faul	lasch	schlau	schön	retten	lachen	freundlich	treu	schroff	schlecht	rächen	leiden	fanatisch	tot	1	blank2r.bmp	0	1	+	0	1	blank2r.bmp	500	1	GKQX	500	1	blank2r.bmp	880	3	tyrannisch	880	1	!	1312	1	!	1342	0	0	0	0	0	0
2024-05-29	15:31:18	15:36:09	289891	6.6.1	4_exp_EVA_AWA_CON	61	B	A	Rpleas_acq	Same	Rpleas	1pleas	acq_US_pleas_nomask	acq2_nomask	2	15	480	1	300	300	0	0	532	50	1	0	helfen	ehrlich	tolerant	spielen	fair	loyal	hindern	eitel	tyrannisch	strafen	faul	lasch	schlau	schön	retten	lachen	freundlich	treu	schroff	schlecht	rächen	leiden	fanatisch	tot	1	blank2r.bmp	0	1	+	0	1	blank2r.bmp	500	1	BMVZ	500	1	blank2r.bmp	880	3	tolerant	880	1	!	1312	1	!	1433	0	0	0	0	0	0
2024-05-29	15:31:18	15:36:11	292316	6.6.1	4_exp_EVA_AWA_CON	61	B	A	Rpleas_acq	Same	Rpleas	1pleas	acq_new_pleas_nomask	acq2_nomask	2	16	480	1	300	300	0	0	444	46	0	0	helfen	ehrlich	tolerant	spielen	fair	loyal	hindern	eitel	tyrannisch	strafen	faul	lasch	schlau	schön	retten	lachen	freundlich	treu	schroff	schlecht	rächen	leiden	fanatisch	tot	1	blank2r.bmp	0	1	+	0	1	blank2r.bmp	500	7	C3r.bmp	500	1	blank2r.bmp	880	6	treu	880	1	FEHLER	1637	1	!	1312	1	!	1346	0	0	0
2024-05-29	15:31:18	15:36:13	294363	6.6.1	4_exp_EVA_AWA_CON	61	B	A	Rpleas_acq	Same	Rpleas	1pleas	acq_US_unple_nomask	acq2_nomask	2	17	480	1	300	300	0	0	471	46	1	0	helfen	ehrlich	tolerant	spielen	fair	loyal	hindern	eitel	tyrannisch	strafen	faul	lasch	schlau	schön	retten	lachen	freundlich	treu	schroff	schlecht	rächen	leiden	fanatisch	tot	1	blank2r.bmp	0	1	+	0	1	blank2r.bmp	500	1	GKQX	500	1	blank2r.bmp	880	6	lasch	880	1	!	1313	1	!	1373	0	0	0	0	0	0
2024-05-29	15:31:18	15:36:16	296761	6.6.1	4_exp_EVA_AWA_CON	61	B	A	Rpleas_acq	Same	Rpleas	1pleas	acq_US_pleas_nomask	acq2_nomask	2	18	480	0	300	300	0	0	619	50	1	0	helfen	ehrlich	tolerant	spielen	fair	loyal	hindern	eitel	tyrannisch	strafen	faul	lasch	schlau	schön	retten	lachen	freundlich	treu	schroff	schlecht	rächen	leiden	fanatisch	tot	1	blank2r.bmp	0	1	+	0	1	blank2r.bmp	500	1	BMVZ	500	1	blank2r.bmp	880	2	ehrlich	880	1	!	1312	1	!	-1	0	0	0	0	0	0
2024-05-29	15:31:18	15:36:18	299097	6.6.1	4_exp_EVA_AWA_CON	61	B	A	Rpleas_acq	Same	Rpleas	1pleas	acq_new_unple_nomask	acq2_nomask	2	19	480	0	300	300	0	0	564	46	1	0	helfen	ehrlich	tolerant	spielen	fair	loyal	hindern	eitel	tyrannisch	strafen	faul	lasch	schlau	schön	retten	lachen	freundlich	treu	schroff	schlecht	rächen	leiden	fanatisch	tot	1	blank2r.bmp	0	1	+	0	1	blank2r.bmp	500	8	C4r.bmp	500	1	blank2r.bmp	880	3	rächen	880	1	!	1312	1	!	-1	0	0	0	0	0	0
2024-05-29	15:31:18	15:36:20	301403	6.6.1	4_exp_EVA_AWA_CON	61	B	A	Rpleas_acq	Same	Rpleas	1pleas	acq_new_pleas_nomask	acq2_nomask	2	20	480	1	300	300	0	0	526	50	1	0	helfen	ehrlich	tolerant	spielen	fair	loyal	hindern	eitel	tyrannisch	strafen	faul	lasch	schlau	schön	retten	lachen	freundlich	treu	schroff	schlecht	rächen	leiden	fanatisch	tot	1	blank2r.bmp	0	1	+	0	1	blank2r.bmp	500	1	B1r.bmp	500	1	blank2r.bmp	880	2	schön	880	1	!	1312	1	!	1428	0	0	0	0	0	0
2024-05-29	15:31:18	15:36:22	303603	6.6.1	4_exp_EVA_AWA_CON	61	B	A	Rpleas_acq	Same	Rpleas	1pleas	acq_new_pleas_nomask	acq2_nomask	2	21	480	1	300	300	0	0	425	50	1	0	helfen	ehrlich	tolerant	spielen	fair	loyal	hindern	eitel	tyrannisch	strafen	faul	lasch	schlau	schön	retten	lachen	freundlich	treu	schroff	schlecht	rächen	leiden	fanatisch	tot	1	blank2r.bmp	0	1	+	0	1	blank2r.bmp	500	2	B2r.bmp	500	1	blank2r.bmp	880	1	schlau	880	1	!	1312	1	!	1326	0	0	0	0	0	0
2024-05-29	15:31:18	15:36:25	305859	6.6.1	4_exp_EVA_AWA_CON	61	B	A	Rpleas_acq	Same	Rpleas	1pleas	acq_US_unple_nomask	acq2_nomask	2	22	480	1	300	300	0	0	480	46	1	0	helfen	ehrlich	tolerant	spielen	fair	loyal	hindern	eitel	tyrannisch	strafen	faul	lasch	schlau	schön	retten	lachen	freundlich	treu	schroff	schlecht	rächen	leiden	fanatisch	tot	1	blank2r.bmp	0	1	+	0	1	blank2r.bmp	500	1	GKQX	500	1	blank2r.bmp	880	4	strafen	880	1	!	1312	1	!	1381	0	0	0	0	0	0
2024-05-29	15:31:18	15:36:27	308123	6.6.1	4_exp_EVA_AWA_CON	61	B	A	Rpleas_acq	Same	Rpleas	1pleas	acq_US_pleas_nomask	acq2_nomask	2	23	480	1	300	300	0	0	482	50	1	0	helfen	ehrlich	tolerant	spielen	fair	loyal	hindern	eitel	tyrannisch	strafen	faul	lasch	schlau	schön	retten	lachen	freundlich	treu	schroff	schlecht	rächen	leiden	fanatisch	tot	1	blank2r.bmp	0	1	+	0	1	blank2r.bmp	500	1	BMVZ	500	1	blank2r.bmp	880	5	fair	880	1	!	1312	1	!	1383	0	0	0	0	0	0
2024-05-29	15:31:18	15:36:29	310556	6.6.1	4_exp_EVA_AWA_CON	61	B	A	Rpleas_acq	Same	Rpleas	1pleas	acq_new_unple_nomask	acq2_nomask	2	24	480	1	300	300	0	0	453	50	0	0	helfen	ehrlich	tolerant	spielen	fair	loyal	hindern	eitel	tyrannisch	strafen	faul	lasch	schlau	schön	retten	lachen	freundlich	treu	schroff	schlecht	rächen	leiden	fanatisch	tot	1	blank2r.bmp	0	1	+	0	1	blank2r.bmp	500	5	C1r.bmp	500	1	blank2r.bmp	880	5	fanatisch	880	1	FEHLER	1646	1	!	1313	1	!	1354	0	0	0
2024-05-29	15:31:18	15:36:31	312611	6.6.1	4_exp_EVA_AWA_CON	61	B	A	Rpleas_acq	Same	Rpleas	1pleas	acq_new_unple_nomask	acq2_nomask	2	25	480	1	300	300	0	0	477	46	1	0	helfen	ehrlich	tolerant	spielen	fair	loyal	hindern	eitel	tyrannisch	strafen	faul	lasch	schlau	schön	retten	lachen	freundlich	treu	schroff	schlecht	rächen	leiden	fanatisch	tot	1	blank2r.bmp	0	1	+	0	1	blank2r.bmp	500	3	B3r.bmp	500	1	blank2r.bmp	880	2	schlecht	880	1	!	1312	1	!	1378	0	0	0	0	0	0
2024-05-29	15:31:18	15:36:34	314931	6.6.1	4_exp_EVA_AWA_CON	61	B	A	Rpleas_acq	Same	Rpleas	1pleas	acq_new_unple_nomask	acq2_nomask	2	26	480	1	300	300	0	0	546	46	1	0	helfen	ehrlich	tolerant	spielen	fair	loyal	hindern	eitel	tyrannisch	strafen	faul	lasch	schlau	schön	retten	lachen	freundlich	treu	schroff	schlecht	rächen	leiden	fanatisch	tot	1	blank2r.bmp	0	1	+	0	1	blank2r.bmp	500	4	B4r.bmp	500	1	blank2r.bmp	880	1	schroff	880	1	!	1313	1	!	1447	0	0	0	0	0	0
2024-05-29	15:31:18	15:36:36	317256	6.6.1	4_exp_EVA_AWA_CON	61	B	A	Rpleas_acq	Same	Rpleas	1pleas	acq_US_unple_nomask	acq2_nomask	2	27	480	0	300	300	0	0	553	46	1	0	helfen	ehrlich	tolerant	spielen	fair	loyal	hindern	eitel	tyrannisch	strafen	faul	lasch	schlau	schön	retten	lachen	freundlich	treu	schroff	schlecht	rächen	leiden	fanatisch	tot	1	blank2r.bmp	0	1	+	0	1	blank2r.bmp	500	1	GKQX	500	1	blank2r.bmp	880	1	hindern	880	1	!	1312	1	!	-1	0	0	0	0	0	0
2024-05-29	15:31:18	15:36:38	319475	6.6.1	4_exp_EVA_AWA_CON	61	B	A	Rpleas_acq	Same	Rpleas	1pleas	acq_new_pleas_nomask	acq2_nomask	2	28	480	1	300	300	0	0	437	50	1	0	helfen	ehrlich	tolerant	spielen	fair	loyal	hindern	eitel	tyrannisch	strafen	faul	lasch	schlau	schön	retten	lachen	freundlich	treu	schroff	schlecht	rächen	leiden	fanatisch	tot	1	blank2r.bmp	0	1	+	0	1	blank2r.bmp	500	7	C3r.bmp	500	1	blank2r.bmp	880	4	lachen	880	1	!	1312	1	!	1338	0	0	0	0	0	0
2024-05-29	15:31:18	15:36:41	321771	6.6.1	4_exp_EVA_AWA_CON	61	B	A	Rpleas_acq	Same	Rpleas	1pleas	acq_new_pleas_nomask	acq2_nomask	2	29	480	1	300	300	0	0	521	50	1	0	helfen	ehrlich	tolerant	spielen	fair	loyal	hindern	eitel	tyrannisch	strafen	faul	lasch	schlau	schön	retten	lachen	freundlich	treu	schroff	schlecht	rächen	leiden	fanatisch	tot	1	blank2r.bmp	0	1	+	0	1	blank2r.bmp	500	2	B2r.bmp	500	1	blank2r.bmp	880	3	retten	880	1	!	1312	1	!	1423	0	0	0	0	0	0
2024-05-29	15:31:18	15:36:43	324091	6.6.1	4_exp_EVA_AWA_CON	61	B	A	Rpleas_acq	Same	Rpleas	1pleas	acq_US_pleas_nomask	acq2_nomask	2	30	480	1	300	300	0	0	540	50	1	0	helfen	ehrlich	tolerant	spielen	fair	loyal	hindern	eitel	tyrannisch	strafen	faul	lasch	schlau	schön	retten	lachen	freundlich	treu	schroff	schlecht	rächen	leiden	fanatisch	tot	1	blank2r.bmp	0	1	+	0	1	blank2r.bmp	500	1	BMVZ	500	1	blank2r.bmp	880	6	loyal	880	1	!	1312	1	!	1442	0	0	0	0	0	0
2024-05-29	15:31:18	15:36:45	326379	6.6.1	4_exp_EVA_AWA_CON	61	B	A	Rpleas_acq	Same	Rpleas	1pleas	acq_US_unple_nomask	acq2_nomask	2	31	480	1	300	300	0	0	506	46	1	0	helfen	ehrlich	tolerant	spielen	fair	loyal	hindern	eitel	tyrannisch	strafen	faul	lasch	schlau	schön	retten	lachen	freundlich	treu	schroff	schlecht	rächen	leiden	fanatisch	tot	1	blank2r.bmp	0	1	+	0	1	blank2r.bmp	500	1	GKQX	500	1	blank2r.bmp	880	5	faul	880	1	!	1312	1	!	1408	0	0	0	0	0	0
2024-05-29	15:31:18	15:36:47	328683	6.6.1	4_exp_EVA_AWA_CON	61	B	A	Rpleas_acq	Same	Rpleas	1pleas	acq_new_unple_nomask	acq2_nomask	2	32	480	1	300	300	0	0	529	46	1	0	helfen	ehrlich	tolerant	spielen	fair	loyal	hindern	eitel	tyrannisch	strafen	faul	lasch	schlau	schön	retten	lachen	freundlich	treu	schroff	schlecht	rächen	leiden	fanatisch	tot	1	blank2r.bmp	0	1	+	0	1	blank2r.bmp	500	6	C2r.bmp	500	1	blank2r.bmp	880	4	leiden	880	1	!	1313	1	!	1430	0	0	0	0	0	0
2024-05-29	15:31:18	15:36:50	330955	6.6.1	4_exp_EVA_AWA_CON	61	B	A	Rpleas_acq	Same	Rpleas	1pleas	acq_US_pleas_nomask	acq2_nomask	2	33	480	1	300	300	0	0	489	50	1	0	helfen	ehrlich	tolerant	spielen	fair	loyal	hindern	eitel	tyrannisch	strafen	faul	lasch	schlau	schön	retten	lachen	freundlich	treu	schroff	schlecht	rächen	leiden	fanatisch	tot	1	blank2r.bmp	0	1	+	0	1	blank2r.bmp	500	1	BMVZ	500	1	blank2r.bmp	880	4	spielen	880	1	!	1313	1	!	1391	0	0	0	0	0	0
2024-05-29	15:31:18	15:36:52	333267	6.6.1	4_exp_EVA_AWA_CON	61	B	A	Rpleas_acq	Same	Rpleas	1pleas	acq_US_unple_nomask	acq2_nomask	2	34	480	1	300	300	0	0	530	46	1	0	helfen	ehrlich	tolerant	spielen	fair	loyal	hindern	eitel	tyrannisch	strafen	faul	lasch	schlau	schön	retten	lachen	freundlich	treu	schroff	schlecht	rächen	leiden	fanatisch	tot	1	blank2r.bmp	0	1	+	0	1	blank2r.bmp	500	1	GKQX	500	1	blank2r.bmp	880	2	eitel	880	1	!	1312	1	!	1432	0	0	0	0	0	0
2024-05-29	15:31:18	15:36:54	335507	6.6.1	4_exp_EVA_AWA_CON	61	B	A	Rpleas_acq	Same	Rpleas	1pleas	acq_new_pleas_nomask	acq2_nomask	2	35	480	1	300	300	0	0	458	50	1	0	helfen	ehrlich	tolerant	spielen	fair	loyal	hindern	eitel	tyrannisch	strafen	faul	lasch	schlau	schön	retten	lachen	freundlich	treu	schroff	schlecht	rächen	leiden	fanatisch	tot	1	blank2r.bmp	0	1	+	0	1	blank2r.bmp	500	3	B3r.bmp	500	1	blank2r.bmp	880	5	freundlich	880	1	!	1312	1	!	1360	0	0	0	0	0	0
2024-05-29	15:31:18	15:36:57	337763	6.6.1	4_exp_EVA_AWA_CON	61	B	A	Rpleas_acq	Same	Rpleas	1pleas	acq_US_pleas_nomask	acq2_nomask	2	36	480	1	300	300	0	0	473	50	1	0	helfen	ehrlich	tolerant	spielen	fair	loyal	hindern	eitel	tyrannisch	strafen	faul	lasch	schlau	schön	retten	lachen	freundlich	treu	schroff	schlecht	rächen	leiden	fanatisch	tot	1	blank2r.bmp	0	1	+	0	1	blank2r.bmp	500	1	BMVZ	500	1	blank2r.bmp	880	1	helfen	880	1	!	1312	1	!	1374	0	0	0	0	0	0
2024-05-29	15:31:18	15:37:16	357602	6.6.1	4_exp_EVA_AWA_CON	61	B	A	Rpleas_acq	Same	Rpleas	1pleas	acq_US_unple_nomask	acq3_nomask	3	1	453	0	300	300	0	0	2181	46	1	0	helfen	ehrlich	tolerant	spielen	fair	loyal	hindern	eitel	tyrannisch	strafen	faul	lasch	schlau	schön	retten	lachen	freundlich	treu	schroff	schlecht	rächen	leiden	fanatisch	tot	1	blank2r.bmp	0	1	+	0	1	blank2r.bmp	500	1	GKQX	500	1	blank2r.bmp	880	1	hindern	880	1	!	1292	1	!	-1	0	0	0	0	0	0
2024-05-29	15:31:18	15:37:19	359811	6.6.1	4_exp_EVA_AWA_CON	61	B	A	Rpleas_acq	Same	Rpleas	1pleas	acq_US_pleas_nomask	acq3_nomask	3	2	453	1	300	300	0	0	427	50	1	0	helfen	ehrlich	tolerant	spielen	fair	loyal	hindern	eitel	tyrannisch	strafen	faul	lasch	schlau	schön	retten	lachen	freundlich	treu	schroff	schlecht	rächen	leiden	fanatisch	tot	1	blank2r.bmp	0	1	+	0	1	blank2r.bmp	500	1	BMVZ	500	1	blank2r.bmp	880	6	loyal	880	1	!	1293	1	!	1328	0	0	0	0	0	0
2024-05-29	15:31:18	15:37:21	361954	6.6.1	4_exp_EVA_AWA_CON	61	B	A	Rpleas_acq	Same	Rpleas	1pleas	acq_US_pleas_nomask	acq3_nomask	3	3	453	0	300	300	0	0	369	50	1	0	helfen	ehrlich	tolerant	spielen	fair	loyal	hindern	eitel	tyrannisch	strafen	faul	lasch	schlau	schön	retten	lachen	freundlich	treu	schroff	schlecht	rächen	leiden	fanatisch	tot	1	blank2r.bmp	0	1	+	0	1	blank2r.bmp	500	1	BMVZ	500	1	blank2r.bmp	880	5	fair	880	1	!	-1	1	!	-1	0	0	0	0	0	0
2024-05-29	15:31:18	15:37:23	364269	6.6.1	4_exp_EVA_AWA_CON	61	B	A	Rpleas_acq	Same	Rpleas	1pleas	acq_US_unple_nomask	acq3_nomask	3	4	453	0	300	300	0	0	330	50	0	0	helfen	ehrlich	tolerant	spielen	fair	loyal	hindern	eitel	tyrannisch	strafen	faul	lasch	schlau	schön	retten	lachen	freundlich	treu	schroff	schlecht	rächen	leiden	fanatisch	tot	1	blank2r.bmp	0	1	+	0	1	blank2r.bmp	500	1	GKQX	500	1	blank2r.bmp	880	2	eitel	880	1	FEHLER	1524	1	!	-1	1	!	-1	0	0	0
2024-05-29	15:31:18	15:37:25	366375	6.6.1	4_exp_EVA_AWA_CON	61	B	A	Rpleas_acq	Same	Rpleas	1pleas	acq_US_pleas_nomask	acq3_nomask	3	5	453	0	300	300	0	0	531	50	1	0	helfen	ehrlich	tolerant	spielen	fair	loyal	hindern	eitel	tyrannisch	strafen	faul	lasch	schlau	schön	retten	lachen	freundlich	treu	schroff	schlecht	rächen	leiden	fanatisch	tot	1	blank2r.bmp	0	1	+	0	1	blank2r.bmp	500	1	BMVZ	500	1	blank2r.bmp	880	1	helfen	880	1	!	1292	1	!	-1	0	0	0	0	0	0
2024-05-29	15:31:18	15:37:27	368545	6.6.1	4_exp_EVA_AWA_CON	61	B	A	Rpleas_acq	Same	Rpleas	1pleas	acq_US_pleas_nomask	acq3_nomask	3	6	453	1	300	300	0	0	397	50	1	0	helfen	ehrlich	tolerant	spielen	fair	loyal	hindern	eitel	tyrannisch	strafen	faul	lasch	schlau	schön	retten	lachen	freundlich	treu	schroff	schlecht	rächen	leiden	fanatisch	tot	1	blank2r.bmp	0	1	+	0	1	blank2r.bmp	500	1	BMVZ	500	1	blank2r.bmp	880	4	spielen	880	1	!	1292	1	!	1297	0	0	0	0	0	0
2024-05-29	15:31:18	15:37:30	370841	6.6.1	4_exp_EVA_AWA_CON	61	B	A	Rpleas_acq	Same	Rpleas	1pleas	acq_US_pleas_nomask	acq3_nomask	3	7	453	0	300	300	0	0	523	50	1	0	helfen	ehrlich	tolerant	spielen	fair	loyal	hindern	eitel	tyrannisch	strafen	faul	lasch	schlau	schön	retten	lachen	freundlich	treu	schroff	schlecht	rächen	leiden	fanatisch	tot	1	blank2r.bmp	0	1	+	0	1	blank2r.bmp	500	1	BMVZ	500	1	blank2r.bmp	880	3	tolerant	880	1	!	1292	1	!	-1	0	0	0	0	0	0
2024-05-29	15:31:18	15:37:32	373091	6.6.1	4_exp_EVA_AWA_CON	61	B	A	Rpleas_acq	Same	Rpleas	1pleas	acq_US_unple_nomask	acq3_nomask	3	8	453	1	300	300	0	0	468	46	1	0	helfen	ehrlich	tolerant	spielen	fair	loyal	hindern	eitel	tyrannisch	strafen	faul	lasch	schlau	schön	retten	lachen	freundlich	treu	schroff	schlecht	rächen	leiden	fanatisch	tot	1	blank2r.bmp	0	1	+	0	1	blank2r.bmp	500	1	GKQX	500	1	blank2r.bmp	880	3	tyrannisch	880	1	!	1292	1	!	1370	0	0	0	0	0	0
2024-05-29	15:31:18	15:37:34	375209	6.6.1	4_exp_EVA_AWA_CON	61	B	A	Rpleas_acq	Same	Rpleas	1pleas	acq_US_pleas_nomask	acq3_nomask	3	9	453	0	300	300	0	0	337	50	1	0	helfen	ehrlich	tolerant	spielen	fair	loyal	hindern	eitel	tyrannisch	strafen	faul	lasch	schlau	schön	retten	lachen	freundlich	treu	schroff	schlecht	rächen	leiden	fanatisch	tot	1	blank2r.bmp	0	1	+	0	1	blank2r.bmp	500	1	BMVZ	500	1	blank2r.bmp	880	2	ehrlich	880	1	!	-1	1	!	-1	0	0	0	0	0	0
2024-05-29	15:31:18	15:37:36	377645	6.6.1	4_exp_EVA_AWA_CON	61	B	A	Rpleas_acq	Same	Rpleas	1pleas	acq_US_unple_nomask	acq3_nomask	3	10	453	1	300	300	0	0	458	50	0	0	helfen	ehrlich	tolerant	spielen	fair	loyal	hindern	eitel	tyrannisch	strafen	faul	lasch	schlau	schön	retten	lachen	freundlich	treu	schroff	schlecht	rächen	leiden	fanatisch	tot	1	blank2r.bmp	0	1	+	0	1	blank2r.bmp	500	1	GKQX	500	1	blank2r.bmp	880	5	faul	880	1	FEHLER	1651	1	!	1292	1	!	1359	0	0	0
2024-05-29	15:31:18	15:37:39	380513	6.6.1	4_exp_EVA_AWA_CON	61	B	A	Rpleas_acq	Same	Rpleas	1pleas	acq_US_unple_nomask	acq3_nomask	3	11	453	0	300	300	0	0	1298	46	1	0	helfen	ehrlich	tolerant	spielen	fair	loyal	hindern	eitel	tyrannisch	strafen	faul	lasch	schlau	schön	retten	lachen	freundlich	treu	schroff	schlecht	rächen	leiden	fanatisch	tot	1	blank2r.bmp	0	1	+	0	1	blank2r.bmp	500	1	GKQX	500	1	blank2r.bmp	880	6	lasch	880	1	!	1292	1	!	-1	0	0	0	0	0	0
2024-05-29	15:31:18	15:37:42	382787	6.6.1	4_exp_EVA_AWA_CON	61	B	A	Rpleas_acq	Same	Rpleas	1pleas	acq_US_unple_nomask	acq3_nomask	3	12	453	1	300	300	0	0	498	46	1	0	helfen	ehrlich	tolerant	spielen	fair	loyal	hindern	eitel	tyrannisch	strafen	faul	lasch	schlau	schön	retten	lachen	freundlich	treu	schroff	schlecht	rächen	leiden	fanatisch	tot	1	blank2r.bmp	0	1	+	0	1	blank2r.bmp	500	1	GKQX	500	1	blank2r.bmp	880	4	strafen	880	1	!	1292	1	!	1399	0	0	0	0	0	0
2024-05-29	15:31:18	15:37:44	385027	6.6.1	4_exp_EVA_AWA_CON	61	B	A	Rpleas_acq	Same	Rpleas	1pleas	acq_US_pleas_nomask	acq3_nomask	3	13	453	1	300	300	0	0	457	50	1	0	helfen	ehrlich	tolerant	spielen	fair	loyal	hindern	eitel	tyrannisch	strafen	faul	lasch	schlau	schön	retten	lachen	freundlich	treu	schroff	schlecht	rächen	leiden	fanatisch	tot	1	blank2r.bmp	0	1	+	0	1	blank2r.bmp	500	1	BMVZ	500	1	blank2r.bmp	880	3	tolerant	880	1	!	1292	1	!	1358	0	0	0	0	0	0
2024-05-29	15:31:18	15:37:46	387433	6.6.1	4_exp_EVA_AWA_CON	61	B	A	Rpleas_acq	Same	Rpleas	1pleas	acq_US_unple_nomask	acq3_nomask	3	14	453	0	300	300	0	0	633	46	1	0	helfen	ehrlich	tolerant	spielen	fair	loyal	hindern	eitel	tyrannisch	strafen	faul	lasch	schlau	schön	retten	lachen	freundlich	treu	schroff	schlecht	rächen	leiden	fanatisch	tot	1	blank2r.bmp	0	1	+	0	1	blank2r.bmp	500	1	GKQX	500	1	blank2r.bmp	880	4	strafen	880	1	!	1292	1	!	-1	0	0	0	0	0	0
2024-05-29	15:31:18	15:37:48	389675	6.6.1	4_exp_EVA_AWA_CON	61	B	A	Rpleas_acq	Same	Rpleas	1pleas	acq_US_pleas_nomask	acq3_nomask	3	15	453	1	300	300	0	0	462	50	1	0	helfen	ehrlich	tolerant	spielen	fair	loyal	hindern	eitel	tyrannisch	strafen	faul	lasch	schlau	schön	retten	lachen	freundlich	treu	schroff	schlecht	rächen	leiden	fanatisch	tot	1	blank2r.bmp	0	1	+	0	1	blank2r.bmp	500	1	BMVZ	500	1	blank2r.bmp	880	4	spielen	880	1	!	1292	1	!	1363	0	0	0	0	0	0
2024-05-29	15:31:18	15:37:51	391867	6.6.1	4_exp_EVA_AWA_CON	61	B	A	Rpleas_acq	Same	Rpleas	1pleas	acq_US_unple_nomask	acq3_nomask	3	16	453	1	300	300	0	0	412	46	1	0	helfen	ehrlich	tolerant	spielen	fair	loyal	hindern	eitel	tyrannisch	strafen	faul	lasch	schlau	schön	retten	lachen	freundlich	treu	schroff	schlecht	rächen	leiden	fanatisch	tot	1	blank2r.bmp	0	1	+	0	1	blank2r.bmp	500	1	GKQX	500	1	blank2r.bmp	880	1	hindern	880	1	!	1292	1	!	1313	0	0	0	0	0	0
2024-05-29	15:31:18	15:37:53	394252	6.6.1	4_exp_EVA_AWA_CON	61	B	A	Rpleas_acq	Same	Rpleas	1pleas	acq_US_unple_nomask	acq3_nomask	3	17	453	1	300	300	0	0	405	50	0	0	helfen	ehrlich	tolerant	spielen	fair	loyal	hindern	eitel	tyrannisch	strafen	faul	lasch	schlau	schön	retten	lachen	freundlich	treu	schroff	schlecht	rächen	leiden	fanatisch	tot	1	blank2r.bmp	0	1	+	0	1	blank2r.bmp	500	1	GKQX	500	1	blank2r.bmp	880	5	faul	880	1	FEHLER	1598	1	!	1292	1	!	1306	0	0	0
2024-05-29	15:31:18	15:37:55	396476	6.6.1	4_exp_EVA_AWA_CON	61	B	A	Rpleas_acq	Same	Rpleas	1pleas	acq_US_pleas_nomask	acq3_nomask	3	18	453	1	300	300	0	0	447	46	0	0	helfen	ehrlich	tolerant	spielen	fair	loyal	hindern	eitel	tyrannisch	strafen	faul	lasch	schlau	schön	retten	lachen	freundlich	treu	schroff	schlecht	rächen	leiden	fanatisch	tot	1	blank2r.bmp	0	1	+	0	1	blank2r.bmp	500	1	BMVZ	500	1	blank2r.bmp	880	6	loyal	880	1	FEHLER	1640	1	!	1293	1	!	1349	0	0	0
2024-05-29	15:31:18	15:37:57	398483	6.6.1	4_exp_EVA_AWA_CON	61	B	A	Rpleas_acq	Same	Rpleas	1pleas	acq_US_pleas_nomask	acq3_nomask	3	19	453	1	300	300	0	0	424	50	1	0	helfen	ehrlich	tolerant	spielen	fair	loyal	hindern	eitel	tyrannisch	strafen	faul	lasch	schlau	schön	retten	lachen	freundlich	treu	schroff	schlecht	rächen	leiden	fanatisch	tot	1	blank2r.bmp	0	1	+	0	1	blank2r.bmp	500	1	BMVZ	500	1	blank2r.bmp	880	1	helfen	880	1	!	1292	1	!	1325	0	0	0	0	0	0
2024-05-29	15:31:18	15:37:59	400723	6.6.1	4_exp_EVA_AWA_CON	61	B	A	Rpleas_acq	Same	Rpleas	1pleas	acq_US_unple_nomask	acq3_nomask	3	20	453	1	300	300	0	0	463	46	1	0	helfen	ehrlich	tolerant	spielen	fair	loyal	hindern	eitel	tyrannisch	strafen	faul	lasch	schlau	schön	retten	lachen	freundlich	treu	schroff	schlecht	rächen	leiden	fanatisch	tot	1	blank2r.bmp	0	1	+	0	1	blank2r.bmp	500	1	GKQX	500	1	blank2r.bmp	880	3	tyrannisch	880	1	!	1292	1	!	1364	0	0	0	0	0	0
2024-05-29	15:31:18	15:38:02	402923	6.6.1	4_exp_EVA_AWA_CON	61	B	A	Rpleas_acq	Same	Rpleas	1pleas	acq_US_pleas_nomask	acq3_nomask	3	21	453	1	300	300	0	0	421	50	1	0	helfen	ehrlich	tolerant	spielen	fair	loyal	hindern	eitel	tyrannisch	strafen	faul	lasch	schlau	schön	retten	lachen	freundlich	treu	schroff	schlecht	rächen	leiden	fanatisch	tot	1	blank2r.bmp	0	1	+	0	1	blank2r.bmp	500	1	BMVZ	500	1	blank2r.bmp	880	5	fair	880	1	!	1292	1	!	1323	0	0	0	0	0	0
2024-05-29	15:31:18	15:38:04	405356	6.6.1	4_exp_EVA_AWA_CON	61	B	A	Rpleas_acq	Same	Rpleas	1pleas	acq_US_unple_nomask	acq3_nomask	3	22	453	1	300	300	0	0	452	50	0	0	helfen	ehrlich	tolerant	spielen	fair	loyal	hindern	eitel	tyrannisch	strafen	faul	lasch	schlau	schön	retten	lachen	freundlich	treu	schroff	schlecht	rächen	leiden	fanatisch	tot	1	blank2r.bmp	0	1	+	0	1	blank2r.bmp	500	1	GKQX	500	1	blank2r.bmp	880	6	lasch	880	1	FEHLER	1645	1	!	1292	1	!	1353	0	0	0
2024-05-29	15:31:18	15:38:06	407597	6.6.1	4_exp_EVA_AWA_CON	61	B	A	Rpleas_acq	Same	Rpleas	1pleas	acq_US_pleas_nomask	acq3_nomask	3	23	453	1	300	300	0	0	460	46	0	0	helfen	ehrlich	tolerant	spielen	fair	loyal	hindern	eitel	tyrannisch	strafen	faul	lasch	schlau	schön	retten	lachen	freundlich	treu	schroff	schlecht	rächen	leiden	fanatisch	tot	1	blank2r.bmp	0	1	+	0	1	blank2r.bmp	500	1	BMVZ	500	1	blank2r.bmp	880	2	ehrlich	880	1	FEHLER	1654	1	!	1292	1	!	1362	0	0	0
2024-05-29	15:31:18	15:38:09	409785	6.6.1	4_exp_EVA_AWA_CON	61	B	A	Rpleas_acq	Same	Rpleas	1pleas	acq_US_unple_nomask	acq3_nomask	3	24	453	0	300	300	0	0	611	46	1	0	helfen	ehrlich	tolerant	spielen	fair	loyal	hindern	eitel	tyrannisch	strafen	faul	lasch	schlau	schön	retten	lachen	freundlich	treu	schroff	schlecht	rächen	leiden	fanatisch	tot	1	blank2r.bmp	0	1	+	0	1	blank2r.bmp	500	1	GKQX	500	1	blank2r.bmp	880	2	eitel	880	1	!	1292	1	!	-1	0	0	0	0	0	0
2024-05-29	15:31:18	15:38:11	412251	6.6.1	4_exp_EVA_AWA_CON	61	B	A	Rpleas_acq	Same	Rpleas	1pleas	acq_US_pleas_nomask	acq3_nomask	3	25	453	1	300	300	0	0	483	46	0	0	helfen	ehrlich	tolerant	spielen	fair	loyal	hindern	eitel	tyrannisch	strafen	faul	lasch	schlau	schön	retten	lachen	freundlich	treu	schroff	schlecht	rächen	leiden	fanatisch	tot	1	blank2r.bmp	0	1	+	0	1	blank2r.bmp	500	1	BMVZ	500	1	blank2r.bmp	880	3	tolerant	880	1	FEHLER	1676	1	!	1292	1	!	1385	0	0	0
2024-05-29	15:31:18	15:38:13	414476	6.6.1	4_exp_EVA_AWA_CON	61	B	A	Rpleas_acq	Same	Rpleas	1pleas	acq_US_unple_nomask	acq3_nomask	3	26	453	1	300	300	0	0	446	50	0	0	helfen	ehrlich	tolerant	spielen	fair	loyal	hindern	eitel	tyrannisch	strafen	faul	lasch	schlau	schön	retten	lachen	freundlich	treu	schroff	schlecht	rächen	leiden	fanatisch	tot	1	blank2r.bmp	0	1	+	0	1	blank2r.bmp	500	1	GKQX	500	1	blank2r.bmp	880	1	hindern	880	1	FEHLER	1639	1	!	1292	1	!	1347	0	0	0
2024-05-29	15:31:18	15:38:15	416523	6.6.1	4_exp_EVA_AWA_CON	61	B	A	Rpleas_acq	Same	Rpleas	1pleas	acq_US_pleas_nomask	acq3_nomask	3	27	453	1	300	300	0	0	472	50	1	0	helfen	ehrlich	tolerant	spielen	fair	loyal	hindern	eitel	tyrannisch	strafen	faul	lasch	schlau	schön	retten	lachen	freundlich	treu	schroff	schlecht	rächen	leiden	fanatisch	tot	1	blank2r.bmp	0	1	+	0	1	blank2r.bmp	500	1	BMVZ	500	1	blank2r.bmp	880	5	fair	880	1	!	1292	1	!	1374	0	0	0	0	0	0
2024-05-29	15:31:18	15:38:18	418841	6.6.1	4_exp_EVA_AWA_CON	61	B	A	Rpleas_acq	Same	Rpleas	1pleas	acq_US_unple_nomask	acq3_nomask	3	28	453	0	300	300	0	0	541	46	1	0	helfen	ehrlich	tolerant	spielen	fair	loyal	hindern	eitel	tyrannisch	strafen	faul	lasch	schlau	schön	retten	lachen	freundlich	treu	schroff	schlecht	rächen	leiden	fanatisch	tot	1	blank2r.bmp	0	1	+	0	1	blank2r.bmp	500	1	GKQX	500	1	blank2r.bmp	880	5	faul	880	1	!	1292	1	!	-1	0	0	0	0	0	0
2024-05-29	15:31:18	15:38:20	421017	6.6.1	4_exp_EVA_AWA_CON	61	B	A	Rpleas_acq	Same	Rpleas	1pleas	acq_US_unple_nomask	acq3_nomask	3	29	453	1	300	300	0	0	396	46	1	0	helfen	ehrlich	tolerant	spielen	fair	loyal	hindern	eitel	tyrannisch	strafen	faul	lasch	schlau	schön	retten	lachen	freundlich	treu	schroff	schlecht	rächen	leiden	fanatisch	tot	1	blank2r.bmp	0	1	+	0	1	blank2r.bmp	500	1	GKQX	500	1	blank2r.bmp	880	2	eitel	880	1	!	1292	1	!	1295	0	0	0	0	0	0
2024-05-29	15:31:18	15:38:22	423572	6.6.1	4_exp_EVA_AWA_CON	61	B	A	Rpleas_acq	Same	Rpleas	1pleas	acq_US_pleas_nomask	acq3_nomask	3	30	453	0	300	300	0	0	576	46	0	0	helfen	ehrlich	tolerant	spielen	fair	loyal	hindern	eitel	tyrannisch	strafen	faul	lasch	schlau	schön	retten	lachen	freundlich	treu	schroff	schlecht	rächen	leiden	fanatisch	tot	1	blank2r.bmp	0	1	+	0	1	blank2r.bmp	500	1	BMVZ	500	1	blank2r.bmp	880	6	loyal	880	1	FEHLER	1769	1	!	1292	1	!	-1	0	0	0
2024-05-29	15:31:18	15:38:24	425587	6.6.1	4_exp_EVA_AWA_CON	61	B	A	Rpleas_acq	Same	Rpleas	1pleas	acq_US_pleas_nomask	acq3_nomask	3	31	453	1	300	300	0	0	441	50	1	0	helfen	ehrlich	tolerant	spielen	fair	loyal	hindern	eitel	tyrannisch	strafen	faul	lasch	schlau	schön	retten	lachen	freundlich	treu	schroff	schlecht	rächen	leiden	fanatisch	tot	1	blank2r.bmp	0	1	+	0	1	blank2r.bmp	500	1	BMVZ	500	1	blank2r.bmp	880	4	spielen	880	1	!	1292	1	!	1342	0	0	0	0	0	0
2024-05-29	15:31:18	15:38:27	427875	6.6.1	4_exp_EVA_AWA_CON	61	B	A	Rpleas_acq	Same	Rpleas	1pleas	acq_US_unple_nomask	acq3_nomask	3	32	453	1	300	300	0	0	507	46	1	0	helfen	ehrlich	tolerant	spielen	fair	loyal	hindern	eitel	tyrannisch	strafen	faul	lasch	schlau	schön	retten	lachen	freundlich	treu	schroff	schlecht	rächen	leiden	fanatisch	tot	1	blank2r.bmp	0	1	+	0	1	blank2r.bmp	500	1	GKQX	500	1	blank2r.bmp	880	6	lasch	880	1	!	1292	1	!	1408	0	0	0	0	0	0
2024-05-29	15:31:18	15:38:29	430309	6.6.1	4_exp_EVA_AWA_CON	61	B	A	Rpleas_acq	Same	Rpleas	1pleas	acq_US_unple_nomask	acq3_nomask	3	33	453	1	300	300	0	0	458	50	0	0	helfen	ehrlich	tolerant	spielen	fair	loyal	hindern	eitel	tyrannisch	strafen	faul	lasch	schlau	schön	retten	lachen	freundlich	treu	schroff	schlecht	rächen	leiden	fanatisch	tot	1	blank2r.bmp	0	1	+	0	1	blank2r.bmp	500	1	GKQX	500	1	blank2r.bmp	880	3	tyrannisch	880	1	FEHLER	1651	1	!	1292	1	!	1359	0	0	0
2024-05-29	15:31:18	15:38:31	432540	6.6.1	4_exp_EVA_AWA_CON	61	B	A	Rpleas_acq	Same	Rpleas	1pleas	acq_US_pleas_nomask	acq3_nomask	3	34	453	1	300	300	0	0	448	46	0	0	helfen	ehrlich	tolerant	spielen	fair	loyal	hindern	eitel	tyrannisch	strafen	faul	lasch	schlau	schön	retten	lachen	freundlich	treu	schroff	schlecht	rächen	leiden	fanatisch	tot	1	blank2r.bmp	0	1	+	0	1	blank2r.bmp	500	1	BMVZ	500	1	blank2r.bmp	880	2	ehrlich	880	1	FEHLER	1642	1	!	1292	1	!	1349	0	0	0
2024-05-29	15:31:18	15:38:34	434769	6.6.1	4_exp_EVA_AWA_CON	61	B	A	Rpleas_acq	Same	Rpleas	1pleas	acq_US_unple_nomask	acq3_nomask	3	35	453	0	300	300	0	0	649	46	1	0	helfen	ehrlich	tolerant	spielen	fair	loyal	hindern	eitel	tyrannisch	strafen	faul	lasch	schlau	schön	retten	lachen	freundlich	treu	schroff	schlecht	rächen	leiden	fanatisch	tot	1	blank2r.bmp	0	1	+	0	1	blank2r.bmp	500	1	GKQX	500	1	blank2r.bmp	880	4	strafen	880	1	!	1292	1	!	-1	0	0	0	0	0	0
2024-05-29	15:31:18	15:38:36	437113	6.6.1	4_exp_EVA_AWA_CON	61	B	A	Rpleas_acq	Same	Rpleas	1pleas	acq_US_pleas_nomask	acq3_nomask	3	36	453	0	300	300	0	0	571	50	1	0	helfen	ehrlich	tolerant	spielen	fair	loyal	hindern	eitel	tyrannisch	strafen	faul	lasch	schlau	schön	retten	lachen	freundlich	treu	schroff	schlecht	rächen	leiden	fanatisch	tot	1	blank2r.bmp	0	1	+	0	1	blank2r.bmp	500	1	BMVZ	500	1	blank2r.bmp	880	1	helfen	880	1	!	1292	1	!	-1	0	0	0	0	0	0
2024-05-29	15:31:18	15:38:52	452921	6.6.1	4_exp_EVA_AWA_CON	61	B	A	Rpleas_acq	Same	Rpleas	1pleas	acq_US_unple_nomask	acq45_nomask	4	1	400	0	300	300	0	0	689	46	1	0	helfen	ehrlich	tolerant	spielen	fair	loyal	hindern	eitel	tyrannisch	strafen	faul	lasch	schlau	schön	retten	lachen	freundlich	treu	schroff	schlecht	rächen	leiden	fanatisch	tot	1	blank2r.bmp	0	1	+	0	1	blank2r.bmp	500	1	GKQX	500	1	blank2r.bmp	880	4	strafen	880	1	!	1232	1	!	-1	0	0	0	0	0	0
2024-05-29	15:31:18	15:38:54	455083	6.6.1	4_exp_EVA_AWA_CON	61	B	A	Rpleas_acq	Same	Rpleas	1pleas	acq_US_pleas_nomask	acq45_nomask	4	2	400	1	300	300	0	0	378	50	1	0	helfen	ehrlich	tolerant	spielen	fair	loyal	hindern	eitel	tyrannisch	strafen	faul	lasch	schlau	schön	retten	lachen	freundlich	treu	schroff	schlecht	rächen	leiden	fanatisch	tot	1	blank2r.bmp	0	1	+	0	1	blank2r.bmp	500	1	BMVZ	500	1	blank2r.bmp	880	4	spielen	880	1	!	1232	1	!	1279	0	0	0	0	0	0
2024-05-29	15:31:18	15:38:56	457275	6.6.1	4_exp_EVA_AWA_CON	61	B	A	Rpleas_acq	Same	Rpleas	1pleas	acq_US_pleas_nomask	acq45_nomask	4	3	400	1	300	300	0	0	408	46	0	0	helfen	ehrlich	tolerant	spielen	fair	loyal	hindern	eitel	tyrannisch	strafen	faul	lasch	schlau	schön	retten	lachen	freundlich	treu	schroff	schlecht	rächen	leiden	fanatisch	tot	1	blank2r.bmp	0	1	+	0	1	blank2r.bmp	500	1	BMVZ	500	1	blank2r.bmp	880	2	ehrlich	880	1	!	1232	1	!	1309	0	0	0	0	0	0
2024-05-29	15:31:18	15:38:58	459507	6.6.1	4_exp_EVA_AWA_CON	61	B	A	Rpleas_acq	Same	Rpleas	1pleas	acq_US_unple_nomask	acq45_nomask	4	4	400	1	300	300	0	0	449	46	1	0	helfen	ehrlich	tolerant	spielen	fair	loyal	hindern	eitel	tyrannisch	strafen	faul	lasch	schlau	schön	retten	lachen	freundlich	treu	schroff	schlecht	rächen	leiden	fanatisch	tot	1	blank2r.bmp	0	1	+	0	1	blank2r.bmp	500	1	GKQX	500	1	blank2r.bmp	880	1	hindern	880	1	!	1232	1	!	1350	0	0	0	0	0	0
2024-05-29	15:31:18	15:39:00	461707	6.6.1	4_exp_EVA_AWA_CON	61	B	A	Rpleas_acq	Same	Rpleas	1pleas	acq_US_unple_nomask	acq45_nomask	4	5	400	1	300	300	0	0	417	50	0	0	helfen	ehrlich	tolerant	spielen	fair	loyal	hindern	eitel	tyrannisch	strafen	faul	lasch	schlau	schön	retten	lachen	freundlich	treu	schroff	schlecht	rächen	leiden	fanatisch	tot	1	blank2r.bmp	0	1	+	0	1	blank2r.bmp	500	1	GKQX	500	1	blank2r.bmp	880	2	eitel	880	1	!	1232	1	!	1319	0	0	0	0	0	0
2024-05-29	15:31:18	15:39:03	464065	6.6.1	4_exp_EVA_AWA_CON	61	B	A	Rpleas_acq	Same	Rpleas	1pleas	acq_US_pleas_nomask	acq45_nomask	4	6	400	0	300	300	0	0	586	50	1	0	helfen	ehrlich	tolerant	spielen	fair	loyal	hindern	eitel	tyrannisch	strafen	faul	lasch	schlau	schön	retten	lachen	freundlich	treu	schroff	schlecht	rächen	leiden	fanatisch	tot	1	blank2r.bmp	0	1	+	0	1	blank2r.bmp	500	1	BMVZ	500	1	blank2r.bmp	880	3	tolerant	880	1	!	1232	1	!	-1	0	0	0	0	0	0
2024-05-29	15:31:18	15:39:05	466219	6.6.1	4_exp_EVA_AWA_CON	61	B	A	Rpleas_acq	Same	Rpleas	1pleas	acq_US_pleas_nomask	acq45_nomask	4	7	400	1	300	300	0	0	377	46	0	0	helfen	ehrlich	tolerant	spielen	fair	loyal	hindern	eitel	tyrannisch	strafen	faul	lasch	schlau	schön	retten	lachen	freundlich	treu	schroff	schlecht	rächen	leiden	fanatisch	tot	1	blank2r.bmp	0	1	+	0	1	blank2r.bmp	500	1	BMVZ	500	1	blank2r.bmp	880	1	helfen	880	1	!	1232	1	!	1278	0	0	0	0	0	0
2024-05-29	15:31:18	15:39:07	468537	6.6.1	4_exp_EVA_AWA_CON	61	B	A	Rpleas_acq	Same	Rpleas	1pleas	acq_US_pleas_nomask	acq45_nomask	4	8	400	0	300	300	0	0	545	50	1	0	helfen	ehrlich	tolerant	spielen	fair	loyal	hindern	eitel	tyrannisch	strafen	faul	lasch	schlau	schön	retten	lachen	freundlich	treu	schroff	schlecht	rächen	leiden	fanatisch	tot	1	blank2r.bmp	0	1	+	0	1	blank2r.bmp	500	1	BMVZ	500	1	blank2r.bmp	880	6	loyal	880	1	!	1232	1	!	-1	0	0	0	0	0	0
2024-05-29	15:31:18	15:39:10	470785	6.6.1	4_exp_EVA_AWA_CON	61	B	A	Rpleas_acq	Same	Rpleas	1pleas	acq_US_pleas_nomask	acq45_nomask	4	9	400	0	300	300	0	0	473	50	1	0	helfen	ehrlich	tolerant	spielen	fair	loyal	hindern	eitel	tyrannisch	strafen	faul	lasch	schlau	schön	retten	lachen	freundlich	treu	schroff	schlecht	rächen	leiden	fanatisch	tot	1	blank2r.bmp	0	1	+	0	1	blank2r.bmp	500	1	BMVZ	500	1	blank2r.bmp	880	5	fair	880	1	!	1232	1	!	-1	0	0	0	0	0	0
2024-05-29	15:31:18	15:39:12	473039	6.6.1	4_exp_EVA_AWA_CON	61	B	A	Rpleas_acq	Same	Rpleas	1pleas	acq_US_unple_nomask	acq45_nomask	4	10	400	0	300	300	0	0	476	46	1	0	helfen	ehrlich	tolerant	spielen	fair	loyal	hindern	eitel	tyrannisch	strafen	faul	lasch	schlau	schön	retten	lachen	freundlich	treu	schroff	schlecht	rächen	leiden	fanatisch	tot	1	blank2r.bmp	0	1	+	0	1	blank2r.bmp	500	1	GKQX	500	1	blank2r.bmp	880	5	faul	880	1	!	1232	1	!	-1	0	0	0	0	0	0
2024-05-29	15:31:18	15:39:14	475227	6.6.1	4_exp_EVA_AWA_CON	61	B	A	Rpleas_acq	Same	Rpleas	1pleas	acq_US_unple_nomask	acq45_nomask	4	11	400	1	300	300	0	0	409	50	0	0	helfen	ehrlich	tolerant	spielen	fair	loyal	hindern	eitel	tyrannisch	strafen	faul	lasch	schlau	schön	retten	lachen	freundlich	treu	schroff	schlecht	rächen	leiden	fanatisch	tot	1	blank2r.bmp	0	1	+	0	1	blank2r.bmp	500	1	GKQX	500	1	blank2r.bmp	880	3	tyrannisch	880	1	!	1232	1	!	1310	0	0	0	0	0	0
2024-05-29	15:31:18	15:39:16	477451	6.6.1	4_exp_EVA_AWA_CON	61	B	A	Rpleas_acq	Same	Rpleas	1pleas	acq_US_unple_nomask	acq45_nomask	4	12	400	1	300	300	0	0	441	50	0	0	helfen	ehrlich	tolerant	spielen	fair	loyal	hindern	eitel	tyrannisch	strafen	faul	lasch	schlau	schön	retten	lachen	freundlich	treu	schroff	schlecht	rächen	leiden	fanatisch	tot	1	blank2r.bmp	0	1	+	0	1	blank2r.bmp	500	1	GKQX	500	1	blank2r.bmp	880	6	lasch	880	1	!	1232	1	!	1342	0	0	0	0	0	0
2024-05-29	15:31:18	15:39:18	479595	6.6.1	4_exp_EVA_AWA_CON	61	B	A	Rpleas_acq	Same	Rpleas	1pleas	acq_US_pleas_nomask	acq45_nomask	4	13	400	1	300	300	0	0	364	46	0	0	helfen	ehrlich	tolerant	spielen	fair	loyal	hindern	eitel	tyrannisch	strafen	faul	lasch	schlau	schön	retten	lachen	freundlich	treu	schroff	schlecht	rächen	leiden	fanatisch	tot	1	blank2r.bmp	0	1	+	0	1	blank2r.bmp	500	1	BMVZ	500	1	blank2r.bmp	880	4	spielen	880	1	!	1232	1	!	1265	0	0	0	0	0	0
2024-05-29	15:31:18	15:39:21	481843	6.6.1	4_exp_EVA_AWA_CON	61	B	A	Rpleas_acq	Same	Rpleas	1pleas	acq_US_pleas_nomask	acq45_nomask	4	14	400	1	300	300	0	0	471	46	0	0	helfen	ehrlich	tolerant	spielen	fair	loyal	hindern	eitel	tyrannisch	strafen	faul	lasch	schlau	schön	retten	lachen	freundlich	treu	schroff	schlecht	rächen	leiden	fanatisch	tot	1	blank2r.bmp	0	1	+	0	1	blank2r.bmp	500	1	BMVZ	500	1	blank2r.bmp	880	2	ehrlich	880	1	!	1232	1	!	1372	0	0	0	0	0	0
2024-05-29	15:31:18	15:39:23	484129	6.6.1	4_exp_EVA_AWA_CON	61	B	A	Rpleas_acq	Same	Rpleas	1pleas	acq_US_unple_nomask	acq45_nomask	4	15	400	0	300	300	0	0	507	46	1	0	helfen	ehrlich	tolerant	spielen	fair	loyal	hindern	eitel	tyrannisch	strafen	faul	lasch	schlau	schön	retten	lachen	freundlich	treu	schroff	schlecht	rächen	leiden	fanatisch	tot	1	blank2r.bmp	0	1	+	0	1	blank2r.bmp	500	1	GKQX	500	1	blank2r.bmp	880	1	hindern	880	1	!	1232	1	!	-1	0	0	0	0	0	0
2024-05-29	15:31:18	15:39:25	486465	6.6.1	4_exp_EVA_AWA_CON	61	B	A	Rpleas_acq	Same	Rpleas	1pleas	acq_US_unple_nomask	acq45_nomask	4	16	400	0	300	300	0	0	562	46	1	0	helfen	ehrlich	tolerant	spielen	fair	loyal	hindern	eitel	tyrannisch	strafen	faul	lasch	schlau	schön	retten	lachen	freundlich	treu	schroff	schlecht	rächen	leiden	fanatisch	tot	1	blank2r.bmp	0	1	+	0	1	blank2r.bmp	500	1	GKQX	500	1	blank2r.bmp	880	3	tyrannisch	880	1	!	1232	1	!	-1	0	0	0	0	0	0
2024-05-29	15:31:18	15:39:27	488719	6.6.1	4_exp_EVA_AWA_CON	61	B	A	Rpleas_acq	Same	Rpleas	1pleas	acq_US_pleas_nomask	acq45_nomask	4	17	400	0	300	300	0	0	476	50	1	0	helfen	ehrlich	tolerant	spielen	fair	loyal	hindern	eitel	tyrannisch	strafen	faul	lasch	schlau	schön	retten	lachen	freundlich	treu	schroff	schlecht	rächen	leiden	fanatisch	tot	1	blank2r.bmp	0	1	+	0	1	blank2r.bmp	500	1	BMVZ	500	1	blank2r.bmp	880	1	helfen	880	1	!	1232	1	!	-1	0	0	0	0	0	0
2024-05-29	15:31:18	15:39:30	490993	6.6.1	4_exp_EVA_AWA_CON	61	B	A	Rpleas_acq	Same	Rpleas	1pleas	acq_US_unple_nomask	acq45_nomask	4	18	400	0	300	300	0	0	497	46	1	0	helfen	ehrlich	tolerant	spielen	fair	loyal	hindern	eitel	tyrannisch	strafen	faul	lasch	schlau	schön	retten	lachen	freundlich	treu	schroff	schlecht	rächen	leiden	fanatisch	tot	1	blank2r.bmp	0	1	+	0	1	blank2r.bmp	500	1	GKQX	500	1	blank2r.bmp	880	4	strafen	880	1	!	1232	1	!	-1	0	0	0	0	0	0
2024-05-29	15:31:18	15:39:32	493337	6.6.1	4_exp_EVA_AWA_CON	61	B	A	Rpleas_acq	Same	Rpleas	1pleas	acq_US_pleas_nomask	acq45_nomask	4	19	400	0	300	300	0	0	569	50	1	0	helfen	ehrlich	tolerant	spielen	fair	loyal	hindern	eitel	tyrannisch	strafen	faul	lasch	schlau	schön	retten	lachen	freundlich	treu	schroff	schlecht	rächen	leiden	fanatisch	tot	1	blank2r.bmp	0	1	+	0	1	blank2r.bmp	500	1	BMVZ	500	1	blank2r.bmp	880	3	tolerant	880	1	!	1232	1	!	-1	0	0	0	0	0	0
2024-05-29	15:31:18	15:39:34	495641	6.6.1	4_exp_EVA_AWA_CON	61	B	A	Rpleas_acq	Same	Rpleas	1pleas	acq_US_unple_nomask	acq45_nomask	4	20	400	0	300	300	0	0	522	46	1	0	helfen	ehrlich	tolerant	spielen	fair	loyal	hindern	eitel	tyrannisch	strafen	faul	lasch	schlau	schön	retten	lachen	freundlich	treu	schroff	schlecht	rächen	leiden	fanatisch	tot	1	blank2r.bmp	0	1	+	0	1	blank2r.bmp	500	1	GKQX	500	1	blank2r.bmp	880	2	eitel	880	1	!	1232	1	!	-1	0	0	0	0	0	0
2024-05-29	15:31:18	15:39:37	497827	6.6.1	4_exp_EVA_AWA_CON	61	B	A	Rpleas_acq	Same	Rpleas	1pleas	acq_US_unple_nomask	acq45_nomask	4	21	400	1	300	300	0	0	404	50	0	0	helfen	ehrlich	tolerant	spielen	fair	loyal	hindern	eitel	tyrannisch	strafen	faul	lasch	schlau	schön	retten	lachen	freundlich	treu	schroff	schlecht	rächen	leiden	fanatisch	tot	1	blank2r.bmp	0	1	+	0	1	blank2r.bmp	500	1	GKQX	500	1	blank2r.bmp	880	5	faul	880	1	!	1232	1	!	1305	0	0	0	0	0	0
2024-05-29	15:31:18	15:39:39	500043	6.6.1	4_exp_EVA_AWA_CON	61	B	A	Rpleas_acq	Same	Rpleas	1pleas	acq_US_unple_nomask	acq45_nomask	4	22	400	1	300	300	0	0	439	46	1	0	helfen	ehrlich	tolerant	spielen	fair	loyal	hindern	eitel	tyrannisch	strafen	faul	lasch	schlau	schön	retten	lachen	freundlich	treu	schroff	schlecht	rächen	leiden	fanatisch	tot	1	blank2r.bmp	0	1	+	0	1	blank2r.bmp	500	1	GKQX	500	1	blank2r.bmp	880	6	lasch	880	1	!	1232	1	!	1340	0	0	0	0	0	0
2024-05-29	15:31:18	15:39:41	502321	6.6.1	4_exp_EVA_AWA_CON	61	B	A	Rpleas_acq	Same	Rpleas	1pleas	acq_US_unple_nomask	acq45_nomask	4	23	400	0	300	300	0	0	497	46	1	0	helfen	ehrlich	tolerant	spielen	fair	loyal	hindern	eitel	tyrannisch	strafen	faul	lasch	schlau	schön	retten	lachen	freundlich	treu	schroff	schlecht	rächen	leiden	fanatisch	tot	1	blank2r.bmp	0	1	+	0	1	blank2r.bmp	500	1	GKQX	500	1	blank2r.bmp	880	4	strafen	880	1	!	1232	1	!	-1	0	0	0	0	0	0
2024-05-29	15:31:18	15:39:43	504547	6.6.1	4_exp_EVA_AWA_CON	61	B	A	Rpleas_acq	Same	Rpleas	1pleas	acq_US_pleas_nomask	acq45_nomask	4	24	400	1	300	300	0	0	450	50	1	0	helfen	ehrlich	tolerant	spielen	fair	loyal	hindern	eitel	tyrannisch	strafen	faul	lasch	schlau	schön	retten	lachen	freundlich	treu	schroff	schlecht	rächen	leiden	fanatisch	tot	1	blank2r.bmp	0	1	+	0	1	blank2r.bmp	500	1	BMVZ	500	1	blank2r.bmp	880	5	fair	880	1	!	1232	1	!	1352	0	0	0	0	0	0
2024-05-29	15:31:18	15:39:46	506747	6.6.1	4_exp_EVA_AWA_CON	61	B	A	Rpleas_acq	Same	Rpleas	1pleas	acq_US_pleas_nomask	acq45_nomask	4	25	400	1	300	300	0	0	419	50	1	0	helfen	ehrlich	tolerant	spielen	fair	loyal	hindern	eitel	tyrannisch	strafen	faul	lasch	schlau	schön	retten	lachen	freundlich	treu	schroff	schlecht	rächen	leiden	fanatisch	tot	1	blank2r.bmp	0	1	+	0	1	blank2r.bmp	500	1	BMVZ	500	1	blank2r.bmp	880	6	loyal	880	1	!	1232	1	!	1320	0	0	0	0	0	0
2024-05-29	15:31:18	15:39:48	509025	6.6.1	4_exp_EVA_AWA_CON	61	B	A	Rpleas_acq	Same	Rpleas	1pleas	acq_US_unple_nomask	acq45_nomask	4	26	400	0	300	300	0	0	497	46	1	0	helfen	ehrlich	tolerant	spielen	fair	loyal	hindern	eitel	tyrannisch	strafen	faul	lasch	schlau	schön	retten	lachen	freundlich	treu	schroff	schlecht	rächen	leiden	fanatisch	tot	1	blank2r.bmp	0	1	+	0	1	blank2r.bmp	500	1	GKQX	500	1	blank2r.bmp	880	1	hindern	880	1	!	1232	1	!	-1	0	0	0	0	0	0
2024-05-29	15:31:18	15:39:50	511259	6.6.1	4_exp_EVA_AWA_CON	61	B	A	Rpleas_acq	Same	Rpleas	1pleas	acq_US_pleas_nomask	acq45_nomask	4	27	400	1	300	300	0	0	458	46	0	0	helfen	ehrlich	tolerant	spielen	fair	loyal	hindern	eitel	tyrannisch	strafen	faul	lasch	schlau	schön	retten	lachen	freundlich	treu	schroff	schlecht	rächen	leiden	fanatisch	tot	1	blank2r.bmp	0	1	+	0	1	blank2r.bmp	500	1	BMVZ	500	1	blank2r.bmp	880	5	fair	880	1	!	1232	1	!	1359	0	0	0	0	0	0
2024-05-29	15:31:18	15:39:52	513529	6.6.1	4_exp_EVA_AWA_CON	61	B	A	Rpleas_acq	Same	Rpleas	1pleas	acq_US_unple_nomask	acq45_nomask	4	28	400	0	300	300	0	0	488	46	1	0	helfen	ehrlich	tolerant	spielen	fair	loyal	hindern	eitel	tyrannisch	strafen	faul	lasch	schlau	schön	retten	lachen	freundlich	treu	schroff	schlecht	rächen	leiden	fanatisch	tot	1	blank2r.bmp	0	1	+	0	1	blank2r.bmp	500	1	GKQX	500	1	blank2r.bmp	880	3	tyrannisch	880	1	!	1232	1	!	-1	0	0	0	0	0	0
2024-05-29	15:31:18	15:39:55	515865	6.6.1	4_exp_EVA_AWA_CON	61	B	A	Rpleas_acq	Same	Rpleas	1pleas	acq_US_unple_nomask	acq45_nomask	4	29	400	0	300	300	0	0	563	46	1	0	helfen	ehrlich	tolerant	spielen	fair	loyal	hindern	eitel	tyrannisch	strafen	faul	lasch	schlau	schön	retten	lachen	freundlich	treu	schroff	schlecht	rächen	leiden	fanatisch	tot	1	blank2r.bmp	0	1	+	0	1	blank2r.bmp	500	1	GKQX	500	1	blank2r.bmp	880	2	eitel	880	1	!	1232	1	!	-1	0	0	0	0	0	0
2024-05-29	15:31:18	15:39:57	518059	6.6.1	4_exp_EVA_AWA_CON	61	B	A	Rpleas_acq	Same	Rpleas	1pleas	acq_US_pleas_nomask	acq45_nomask	4	30	400	1	300	300	0	0	413	50	1	0	helfen	ehrlich	tolerant	spielen	fair	loyal	hindern	eitel	tyrannisch	strafen	faul	lasch	schlau	schön	retten	lachen	freundlich	treu	schroff	schlecht	rächen	leiden	fanatisch	tot	1	blank2r.bmp	0	1	+	0	1	blank2r.bmp	500	1	BMVZ	500	1	blank2r.bmp	880	6	loyal	880	1	!	1232	1	!	1314	0	0	0	0	0	0
2024-05-29	15:31:18	15:39:59	520337	6.6.1	4_exp_EVA_AWA_CON	61	B	A	Rpleas_acq	Same	Rpleas	1pleas	acq_US_unple_nomask	acq45_nomask	4	31	400	0	300	300	0	0	502	46	1	0	helfen	ehrlich	tolerant	spielen	fair	loyal	hindern	eitel	tyrannisch	strafen	faul	lasch	schlau	schön	retten	lachen	freundlich	treu	schroff	schlecht	rächen	leiden	fanatisch	tot	1	blank2r.bmp	0	1	+	0	1	blank2r.bmp	500	1	GKQX	500	1	blank2r.bmp	880	5	faul	880	1	!	1232	1	!	-1	0	0	0	0	0	0
2024-05-29	15:31:18	15:40:01	522563	6.6.1	4_exp_EVA_AWA_CON	61	B	A	Rpleas_acq	Same	Rpleas	1pleas	acq_US_pleas_nomask	acq45_nomask	4	32	400	1	300	300	0	0	444	46	0	0	helfen	ehrlich	tolerant	spielen	fair	loyal	hindern	eitel	tyrannisch	strafen	faul	lasch	schlau	schön	retten	lachen	freundlich	treu	schroff	schlecht	rächen	leiden	fanatisch	tot	1	blank2r.bmp	0	1	+	0	1	blank2r.bmp	500	1	BMVZ	500	1	blank2r.bmp	880	1	helfen	880	1	!	1232	1	!	1346	0	0	0	0	0	0
2024-05-29	15:31:18	15:40:04	525113	6.6.1	4_exp_EVA_AWA_CON	61	B	A	Rpleas_acq	Same	Rpleas	1pleas	acq_US_pleas_nomask	acq45_nomask	4	33	400	0	300	300	0	0	775	50	1	0	helfen	ehrlich	tolerant	spielen	fair	loyal	hindern	eitel	tyrannisch	strafen	faul	lasch	schlau	schön	retten	lachen	freundlich	treu	schroff	schlecht	rächen	leiden	fanatisch	tot	1	blank2r.bmp	0	1	+	0	1	blank2r.bmp	500	1	BMVZ	500	1	blank2r.bmp	880	2	ehrlich	880	1	!	1232	1	!	-1	0	0	0	0	0	0
2024-05-29	15:31:18	15:40:06	527449	6.6.1	4_exp_EVA_AWA_CON	61	B	A	Rpleas_acq	Same	Rpleas	1pleas	acq_US_pleas_nomask	acq45_nomask	4	34	400	0	300	300	0	0	559	50	1	0	helfen	ehrlich	tolerant	spielen	fair	loyal	hindern	eitel	tyrannisch	strafen	faul	lasch	schlau	schön	retten	lachen	freundlich	treu	schroff	schlecht	rächen	leiden	fanatisch	tot	1	blank2r.bmp	0	1	+	0	1	blank2r.bmp	500	1	BMVZ	500	1	blank2r.bmp	880	3	tolerant	880	1	!	1232	1	!	-1	0	0	0	0	0	0
2024-05-29	15:31:18	15:40:08	529691	6.6.1	4_exp_EVA_AWA_CON	61	B	A	Rpleas_acq	Same	Rpleas	1pleas	acq_US_pleas_nomask	acq45_nomask	4	35	400	1	300	300	0	0	468	50	1	0	helfen	ehrlich	tolerant	spielen	fair	loyal	hindern	eitel	tyrannisch	strafen	faul	lasch	schlau	schön	retten	lachen	freundlich	treu	schroff	schlecht	rächen	leiden	fanatisch	tot	1	blank2r.bmp	0	1	+	0	1	blank2r.bmp	500	1	BMVZ	500	1	blank2r.bmp	880	4	spielen	880	1	!	1232	1	!	1369	0	0	0	0	0	0
2024-05-29	15:31:18	15:40:11	532034	6.6.1	4_exp_EVA_AWA_CON	61	B	A	Rpleas_acq	Same	Rpleas	1pleas	acq_US_unple_nomask	acq45_nomask	4	36	400	0	300	300	0	0	560	46	1	0	helfen	ehrlich	tolerant	spielen	fair	loyal	hindern	eitel	tyrannisch	strafen	faul	lasch	schlau	schön	retten	lachen	freundlich	treu	schroff	schlecht	rächen	leiden	fanatisch	tot	1	blank2r.bmp	0	1	+	0	1	blank2r.bmp	500	1	GKQX	500	1	blank2r.bmp	880	6	lasch	880	1	!	1232	1	!	-1	0	0	0	0	0	0
2024-05-29	15:31:18	15:40:24	545009	6.6.1	4_exp_EVA_AWA_CON	61	B	A	Rpleas_acq	Same	Rpleas	1pleas	acq_US_unple_nomask	acq45_nomask	5	1	400	0	300	300	0	0	488	46	1	0	helfen	ehrlich	tolerant	spielen	fair	loyal	hindern	eitel	tyrannisch	strafen	faul	lasch	schlau	schön	retten	lachen	freundlich	treu	schroff	schlecht	rächen	leiden	fanatisch	tot	1	blank2r.bmp	0	1	+	0	1	blank2r.bmp	500	1	GKQX	500	1	blank2r.bmp	880	1	hindern	880	1	!	1232	1	!	-1	0	0	0	0	0	0
2024-05-29	15:31:18	15:40:26	547251	6.6.1	4_exp_EVA_AWA_CON	61	B	A	Rpleas_acq	Same	Rpleas	1pleas	acq_US_unple_nomask	acq45_nomask	5	2	400	1	300	300	0	0	467	50	0	0	helfen	ehrlich	tolerant	spielen	fair	loyal	hindern	eitel	tyrannisch	strafen	faul	lasch	schlau	schön	retten	lachen	freundlich	treu	schroff	schlecht	rächen	leiden	fanatisch	tot	1	blank2r.bmp	0	1	+	0	1	blank2r.bmp	500	1	GKQX	500	1	blank2r.bmp	880	6	lasch	880	1	!	1232	1	!	1368	0	0	0	0	0	0
2024-05-29	15:31:18	15:40:28	549577	6.6.1	4_exp_EVA_AWA_CON	61	B	A	Rpleas_acq	Same	Rpleas	1pleas	acq_US_pleas_nomask	acq45_nomask	5	3	400	0	300	300	0	0	553	50	1	0	helfen	ehrlich	tolerant	spielen	fair	loyal	hindern	eitel	tyrannisch	strafen	faul	lasch	schlau	schön	retten	lachen	freundlich	treu	schroff	schlecht	rächen	leiden	fanatisch	tot	1	blank2r.bmp	0	1	+	0	1	blank2r.bmp	500	1	BMVZ	500	1	blank2r.bmp	880	3	tolerant	880	1	!	1232	1	!	-1	0	0	0	0	0	0
2024-05-29	15:31:18	15:40:31	551849	6.6.1	4_exp_EVA_AWA_CON	61	B	A	Rpleas_acq	Same	Rpleas	1pleas	acq_US_unple_nomask	acq45_nomask	5	4	400	0	300	300	0	0	494	46	1	0	helfen	ehrlich	tolerant	spielen	fair	loyal	hindern	eitel	tyrannisch	strafen	faul	lasch	schlau	schön	retten	lachen	freundlich	treu	schroff	schlecht	rächen	leiden	fanatisch	tot	1	blank2r.bmp	0	1	+	0	1	blank2r.bmp	500	1	GKQX	500	1	blank2r.bmp	880	4	strafen	880	1	!	1232	1	!	-1	0	0	0	0	0	0
2024-05-29	15:31:18	15:40:33	554138	6.6.1	4_exp_EVA_AWA_CON	61	B	A	Rpleas_acq	Same	Rpleas	1pleas	acq_US_pleas_nomask	acq45_nomask	5	5	400	0	300	300	0	0	510	46	0	0	helfen	ehrlich	tolerant	spielen	fair	loyal	hindern	eitel	tyrannisch	strafen	faul	lasch	schlau	schön	retten	lachen	freundlich	treu	schroff	schlecht	rächen	leiden	fanatisch	tot	1	blank2r.bmp	0	1	+	0	1	blank2r.bmp	500	1	BMVZ	500	1	blank2r.bmp	880	6	loyal	880	1	!	1232	1	!	-1	0	0	0	0	0	0
2024-05-29	15:31:18	15:40:35	556399	6.6.1	4_exp_EVA_AWA_CON	61	B	A	Rpleas_acq	Same	Rpleas	1pleas	acq_US_pleas_nomask	acq45_nomask	5	6	400	0	300	300	0	0	483	50	1	0	helfen	ehrlich	tolerant	spielen	fair	loyal	hindern	eitel	tyrannisch	strafen	faul	lasch	schlau	schön	retten	lachen	freundlich	treu	schroff	schlecht	rächen	leiden	fanatisch	tot	1	blank2r.bmp	0	1	+	0	1	blank2r.bmp	500	1	BMVZ	500	1	blank2r.bmp	880	2	ehrlich	880	1	!	1233	1	!	-1	0	0	0	0	0	0
2024-05-29	15:31:18	15:40:37	558579	6.6.1	4_exp_EVA_AWA_CON	61	B	A	Rpleas_acq	Same	Rpleas	1pleas	acq_US_pleas_nomask	acq45_nomask	5	7	400	1	300	300	0	0	397	50	1	0	helfen	ehrlich	tolerant	spielen	fair	loyal	hindern	eitel	tyrannisch	strafen	faul	lasch	schlau	schön	retten	lachen	freundlich	treu	schroff	schlecht	rächen	leiden	fanatisch	tot	1	blank2r.bmp	0	1	+	0	1	blank2r.bmp	500	1	BMVZ	500	1	blank2r.bmp	880	1	helfen	880	1	!	1232	1	!	1298	0	0	0	0	0	0
2024-05-29	15:31:18	15:40:40	560739	6.6.1	4_exp_EVA_AWA_CON	61	B	A	Rpleas_acq	Same	Rpleas	1pleas	acq_US_pleas_nomask	acq45_nomask	5	8	400	1	300	300	0	0	386	50	1	0	helfen	ehrlich	tolerant	spielen	fair	loyal	hindern	eitel	tyrannisch	strafen	faul	lasch	schlau	schön	retten	lachen	freundlich	treu	schroff	schlecht	rächen	leiden	fanatisch	tot	1	blank2r.bmp	0	1	+	0	1	blank2r.bmp	500	1	BMVZ	500	1	blank2r.bmp	880	4	spielen	880	1	!	1232	1	!	1287	0	0	0	0	0	0
2024-05-29	15:31:18	15:40:42	562939	6.6.1	4_exp_EVA_AWA_CON	61	B	A	Rpleas_acq	Same	Rpleas	1pleas	acq_US_unple_nomask	acq45_nomask	5	9	400	1	300	300	0	0	424	46	1	0	helfen	ehrlich	tolerant	spielen	fair	loyal	hindern	eitel	tyrannisch	strafen	faul	lasch	schlau	schön	retten	lachen	freundlich	treu	schroff	schlecht	rächen	leiden	fanatisch	tot	1	blank2r.bmp	0	1	+	0	1	blank2r.bmp	500	1	GKQX	500	1	blank2r.bmp	880	3	tyrannisch	880	1	!	1232	1	!	1326	0	0	0	0	0	0
2024-05-29	15:31:18	15:40:44	565217	6.6.1	4_exp_EVA_AWA_CON	61	B	A	Rpleas_acq	Same	Rpleas	1pleas	acq_US_unple_nomask	acq45_nomask	5	10	400	0	300	300	0	0	503	50	0	0	helfen	ehrlich	tolerant	spielen	fair	loyal	hindern	eitel	tyrannisch	strafen	faul	lasch	schlau	schön	retten	lachen	freundlich	treu	schroff	schlecht	rächen	leiden	fanatisch	tot	1	blank2r.bmp	0	1	+	0	1	blank2r.bmp	500	1	GKQX	500	1	blank2r.bmp	880	2	eitel	880	1	!	1232	1	!	-1	0	0	0	0	0	0
2024-05-29	15:31:18	15:40:46	567403	6.6.1	4_exp_EVA_AWA_CON	61	B	A	Rpleas_acq	Same	Rpleas	1pleas	acq_US_unple_nomask	acq45_nomask	5	11	400	1	300	300	0	0	406	46	1	0	helfen	ehrlich	tolerant	spielen	fair	loyal	hindern	eitel	tyrannisch	strafen	faul	lasch	schlau	schön	retten	lachen	freundlich	treu	schroff	schlecht	rächen	leiden	fanatisch	tot	1	blank2r.bmp	0	1	+	0	1	blank2r.bmp	500	1	GKQX	500	1	blank2r.bmp	880	5	faul	880	1	!	1232	1	!	1307	0	0	0	0	0	0
2024-05-29	15:31:18	15:40:48	569655	6.6.1	4_exp_EVA_AWA_CON	61	B	A	Rpleas_acq	Same	Rpleas	1pleas	acq_US_unple_nomask	acq45_nomask	5	12	400	0	300	300	0	0	480	50	0	0	helfen	ehrlich	tolerant	spielen	fair	loyal	hindern	eitel	tyrannisch	strafen	faul	lasch	schlau	schön	retten	lachen	freundlich	treu	schroff	schlecht	rächen	leiden	fanatisch	tot	1	blank2r.bmp	0	1	+	0	1	blank2r.bmp	500	1	GKQX	500	1	blank2r.bmp	880	2	eitel	880	1	!	1232	1	!	-1	0	0	0	0	0	0
2024-05-29	15:31:18	15:40:51	571835	6.6.1	4_exp_EVA_AWA_CON	61	B	A	Rpleas_acq	Same	Rpleas	1pleas	acq_US_pleas_nomask	acq45_nomask	5	13	400	1	300	300	0	0	405	46	0	0	helfen	ehrlich	tolerant	spielen	fair	loyal	hindern	eitel	tyrannisch	strafen	faul	lasch	schlau	schön	retten	lachen	freundlich	treu	schroff	schlecht	rächen	leiden	fanatisch	tot	1	blank2r.bmp	0	1	+	0	1	blank2r.bmp	500	1	BMVZ	500	1	blank2r.bmp	880	5	fair	880	1	!	1232	1	!	1306	0	0	0	0	0	0
2024-05-29	15:31:18	15:40:53	574105	6.6.1	4_exp_EVA_AWA_CON	61	B	A	Rpleas_acq	Same	Rpleas	1pleas	acq_US_unple_nomask	acq45_nomask	5	14	400	0	300	300	0	0	495	46	1	0	helfen	ehrlich	tolerant	spielen	fair	loyal	hindern	eitel	tyrannisch	strafen	faul	lasch	schlau	schön	retten	lachen	freundlich	treu	schroff	schlecht	rächen	leiden	fanatisch	tot	1	blank2r.bmp	0	1	+	0	1	blank2r.bmp	500	1	GKQX	500	1	blank2r.bmp	880	4	strafen	880	1	!	1232	1	!	-1	0	0	0	0	0	0
2024-05-29	15:31:18	15:40:55	576323	6.6.1	4_exp_EVA_AWA_CON	61	B	A	Rpleas_acq	Same	Rpleas	1pleas	acq_US_pleas_nomask	acq45_nomask	5	15	400	1	300	300	0	0	440	50	1	0	helfen	ehrlich	tolerant	spielen	fair	loyal	hindern	eitel	tyrannisch	strafen	faul	lasch	schlau	schön	retten	lachen	freundlich	treu	schroff	schlecht	rächen	leiden	fanatisch	tot	1	blank2r.bmp	0	1	+	0	1	blank2r.bmp	500	1	BMVZ	500	1	blank2r.bmp	880	4	spielen	880	1	!	1232	1	!	1342	0	0	0	0	0	0
2024-05-29	15:31:18	15:40:57	578609	6.6.1	4_exp_EVA_AWA_CON	61	B	A	Rpleas_acq	Same	Rpleas	1pleas	acq_US_pleas_nomask	acq45_nomask	5	16	400	0	300	300	0	0	506	50	1	0	helfen	ehrlich	tolerant	spielen	fair	loyal	hindern	eitel	tyrannisch	strafen	faul	lasch	schlau	schön	retten	lachen	freundlich	treu	schroff	schlecht	rächen	leiden	fanatisch	tot	1	blank2r.bmp	0	1	+	0	1	blank2r.bmp	500	1	BMVZ	500	1	blank2r.bmp	880	3	tolerant	880	1	!	1232	1	!	-1	0	0	0	0	0	0
2024-05-29	15:31:18	15:41:00	580835	6.6.1	4_exp_EVA_AWA_CON	61	B	A	Rpleas_acq	Same	Rpleas	1pleas	acq_US_unple_nomask	acq45_nomask	5	17	400	1	300	300	0	0	449	46	1	0	helfen	ehrlich	tolerant	spielen	fair	loyal	hindern	eitel	tyrannisch	strafen	faul	lasch	schlau	schön	retten	lachen	freundlich	treu	schroff	schlecht	rächen	leiden	fanatisch	tot	1	blank2r.bmp	0	1	+	0	1	blank2r.bmp	500	1	GKQX	500	1	blank2r.bmp	880	1	hindern	880	1	!	1232	1	!	1350	0	0	0	0	0	0
2024-05-29	15:31:18	15:41:02	582987	6.6.1	4_exp_EVA_AWA_CON	61	B	A	Rpleas_acq	Same	Rpleas	1pleas	acq_US_pleas_nomask	acq45_nomask	5	18	400	1	300	300	0	0	370	50	1	0	helfen	ehrlich	tolerant	spielen	fair	loyal	hindern	eitel	tyrannisch	strafen	faul	lasch	schlau	schön	retten	lachen	freundlich	treu	schroff	schlecht	rächen	leiden	fanatisch	tot	1	blank2r.bmp	0	1	+	0	1	blank2r.bmp	500	1	BMVZ	500	1	blank2r.bmp	880	5	fair	880	1	!	1232	1	!	1271	0	0	0	0	0	0
2024-05-29	15:31:18	15:41:04	585219	6.6.1	4_exp_EVA_AWA_CON	61	B	A	Rpleas_acq	Same	Rpleas	1pleas	acq_US_unple_nomask	acq45_nomask	5	19	400	1	300	300	0	0	450	46	1	0	helfen	ehrlich	tolerant	spielen	fair	loyal	hindern	eitel	tyrannisch	strafen	faul	lasch	schlau	schön	retten	lachen	freundlich	treu	schroff	schlecht	rächen	leiden	fanatisch	tot	1	blank2r.bmp	0	1	+	0	1	blank2r.bmp	500	1	GKQX	500	1	blank2r.bmp	880	5	faul	880	1	!	1232	1	!	1352	0	0	0	0	0	0
2024-05-29	15:31:18	15:41:06	587395	6.6.1	4_exp_EVA_AWA_CON	61	B	A	Rpleas_acq	Same	Rpleas	1pleas	acq_US_pleas_nomask	acq45_nomask	5	20	400	1	300	300	0	0	395	50	1	0	helfen	ehrlich	tolerant	spielen	fair	loyal	hindern	eitel	tyrannisch	strafen	faul	lasch	schlau	schön	retten	lachen	freundlich	treu	schroff	schlecht	rächen	leiden	fanatisch	tot	1	blank2r.bmp	0	1	+	0	1	blank2r.bmp	500	1	BMVZ	500	1	blank2r.bmp	880	1	helfen	880	1	!	1232	1	!	1296	0	0	0	0	0	0
2024-05-29	15:31:18	15:41:08	589635	6.6.1	4_exp_EVA_AWA_CON	61	B	A	Rpleas_acq	Same	Rpleas	1pleas	acq_US_pleas_nomask	acq45_nomask	5	21	400	1	300	300	0	0	463	50	1	0	helfen	ehrlich	tolerant	spielen	fair	loyal	hindern	eitel	tyrannisch	strafen	faul	lasch	schlau	schön	retten	lachen	freundlich	treu	schroff	schlecht	rächen	leiden	fanatisch	tot	1	blank2r.bmp	0	1	+	0	1	blank2r.bmp	500	1	BMVZ	500	1	blank2r.bmp	880	2	ehrlich	880	1	!	1232	1	!	1365	0	0	0	0	0	0
2024-05-29	15:31:18	15:41:11	591779	6.6.1	4_exp_EVA_AWA_CON	61	B	A	Rpleas_acq	Same	Rpleas	1pleas	acq_US_unple_nomask	acq45_nomask	5	22	400	1	300	300	0	0	366	46	1	0	helfen	ehrlich	tolerant	spielen	fair	loyal	hindern	eitel	tyrannisch	strafen	faul	lasch	schlau	schön	retten	lachen	freundlich	treu	schroff	schlecht	rächen	leiden	fanatisch	tot	1	blank2r.bmp	0	1	+	0	1	blank2r.bmp	500	1	GKQX	500	1	blank2r.bmp	880	6	lasch	880	1	!	1232	1	!	1267	0	0	0	0	0	0
2024-05-29	15:31:18	15:41:13	593915	6.6.1	4_exp_EVA_AWA_CON	61	B	A	Rpleas_acq	Same	Rpleas	1pleas	acq_US_unple_nomask	acq45_nomask	5	23	400	1	300	300	0	0	361	46	1	0	helfen	ehrlich	tolerant	spielen	fair	loyal	hindern	eitel	tyrannisch	strafen	faul	lasch	schlau	schön	retten	lachen	freundlich	treu	schroff	schlecht	rächen	leiden	fanatisch	tot	1	blank2r.bmp	0	1	+	0	1	blank2r.bmp	500	1	GKQX	500	1	blank2r.bmp	880	3	tyrannisch	880	1	!	1232	1	!	1262	0	0	0	0	0	0
2024-05-29	15:31:18	15:41:15	596051	6.6.1	4_exp_EVA_AWA_CON	61	B	A	Rpleas_acq	Same	Rpleas	1pleas	acq_US_pleas_nomask	acq45_nomask	5	24	400	1	300	300	0	0	355	50	1	0	helfen	ehrlich	tolerant	spielen	fair	loyal	hindern	eitel	tyrannisch	strafen	faul	lasch	schlau	schön	retten	lachen	freundlich	treu	schroff	schlecht	rächen	leiden	fanatisch	tot	1	blank2r.bmp	0	1	+	0	1	blank2r.bmp	500	1	BMVZ	500	1	blank2r.bmp	880	6	loyal	880	1	!	1232	1	!	1256	0	0	0	0	0	0
2024-05-29	15:31:18	15:41:17	598219	6.6.1	4_exp_EVA_AWA_CON	61	B	A	Rpleas_acq	Same	Rpleas	1pleas	acq_US_unple_nomask	acq45_nomask	5	25	400	1	300	300	0	0	392	46	1	0	helfen	ehrlich	tolerant	spielen	fair	loyal	hindern	eitel	tyrannisch	strafen	faul	lasch	schlau	schön	retten	lachen	freundlich	treu	schroff	schlecht	rächen	leiden	fanatisch	tot	1	blank2r.bmp	0	1	+	0	1	blank2r.bmp	500	1	GKQX	500	1	blank2r.bmp	880	1	hindern	880	1	!	1232	1	!	1293	0	0	0	0	0	0
2024-05-29	15:31:18	15:41:19	600395	6.6.1	4_exp_EVA_AWA_CON	61	B	A	Rpleas_acq	Same	Rpleas	1pleas	acq_US_pleas_nomask	acq45_nomask	5	26	400	1	300	300	0	0	396	50	1	0	helfen	ehrlich	tolerant	spielen	fair	loyal	hindern	eitel	tyrannisch	strafen	faul	lasch	schlau	schön	retten	lachen	freundlich	treu	schroff	schlecht	rächen	leiden	fanatisch	tot	1	blank2r.bmp	0	1	+	0	1	blank2r.bmp	500	1	BMVZ	500	1	blank2r.bmp	880	1	helfen	880	1	!	1232	1	!	1298	0	0	0	0	0	0
2024-05-29	15:31:18	15:41:21	602531	6.6.1	4_exp_EVA_AWA_CON	61	B	A	Rpleas_acq	Same	Rpleas	1pleas	acq_US_pleas_nomask	acq45_nomask	5	27	400	1	300	300	0	0	361	50	1	0	helfen	ehrlich	tolerant	spielen	fair	loyal	hindern	eitel	tyrannisch	strafen	faul	lasch	schlau	schön	retten	lachen	freundlich	treu	schroff	schlecht	rächen	leiden	fanatisch	tot	1	blank2r.bmp	0	1	+	0	1	blank2r.bmp	500	1	BMVZ	500	1	blank2r.bmp	880	2	ehrlich	880	1	!	1232	1	!	1262	0	0	0	0	0	0
2024-05-29	15:31:18	15:41:23	604707	6.6.1	4_exp_EVA_AWA_CON	61	B	A	Rpleas_acq	Same	Rpleas	1pleas	acq_US_unple_nomask	acq45_nomask	5	28	400	1	300	300	0	0	396	46	1	0	helfen	ehrlich	tolerant	spielen	fair	loyal	hindern	eitel	tyrannisch	strafen	faul	lasch	schlau	schön	retten	lachen	freundlich	treu	schroff	schlecht	rächen	leiden	fanatisch	tot	1	blank2r.bmp	0	1	+	0	1	blank2r.bmp	500	1	GKQX	500	1	blank2r.bmp	880	3	tyrannisch	880	1	!	1232	1	!	1297	0	0	0	0	0	0
2024-05-29	15:31:18	15:41:26	606835	6.6.1	4_exp_EVA_AWA_CON	61	B	A	Rpleas_acq	Same	Rpleas	1pleas	acq_US_unple_nomask	acq45_nomask	5	29	400	1	300	300	0	0	352	50	0	0	helfen	ehrlich	tolerant	spielen	fair	loyal	hindern	eitel	tyrannisch	strafen	faul	lasch	schlau	schön	retten	lachen	freundlich	treu	schroff	schlecht	rächen	leiden	fanatisch	tot	1	blank2r.bmp	0	1	+	0	1	blank2r.bmp	500	1	GKQX	500	1	blank2r.bmp	880	5	faul	880	1	!	1232	1	!	1253	0	0	0	0	0	0
2024-05-29	15:31:18	15:41:28	609019	6.6.1	4_exp_EVA_AWA_CON	61	B	A	Rpleas_acq	Same	Rpleas	1pleas	acq_US_pleas_nomask	acq45_nomask	5	30	400	1	300	300	0	0	405	50	1	0	helfen	ehrlich	tolerant	spielen	fair	loyal	hindern	eitel	tyrannisch	strafen	faul	lasch	schlau	schön	retten	lachen	freundlich	treu	schroff	schlecht	rächen	leiden	fanatisch	tot	1	blank2r.bmp	0	1	+	0	1	blank2r.bmp	500	1	BMVZ	500	1	blank2r.bmp	880	6	loyal	880	1	!	1232	1	!	1306	0	0	0	0	0	0
2024-05-29	15:31:18	15:41:30	611211	6.6.1	4_exp_EVA_AWA_CON	61	B	A	Rpleas_acq	Same	Rpleas	1pleas	acq_US_pleas_nomask	acq45_nomask	5	31	400	1	300	300	0	0	415	50	1	0	helfen	ehrlich	tolerant	spielen	fair	loyal	hindern	eitel	tyrannisch	strafen	faul	lasch	schlau	schön	retten	lachen	freundlich	treu	schroff	schlecht	rächen	leiden	fanatisch	tot	1	blank2r.bmp	0	1	+	0	1	blank2r.bmp	500	1	BMVZ	500	1	blank2r.bmp	880	4	spielen	880	1	!	1232	1	!	1317	0	0	0	0	0	0
2024-05-29	15:31:18	15:41:32	613403	6.6.1	4_exp_EVA_AWA_CON	61	B	A	Rpleas_acq	Same	Rpleas	1pleas	acq_US_unple_nomask	acq45_nomask	5	32	400	1	300	300	0	0	416	46	1	0	helfen	ehrlich	tolerant	spielen	fair	loyal	hindern	eitel	tyrannisch	strafen	faul	lasch	schlau	schön	retten	lachen	freundlich	treu	schroff	schlecht	rächen	leiden	fanatisch	tot	1	blank2r.bmp	0	1	+	0	1	blank2r.bmp	500	1	GKQX	500	1	blank2r.bmp	880	4	strafen	880	1	!	1232	1	!	1317	0	0	0	0	0	0
2024-05-29	15:31:18	15:41:34	615611	6.6.1	4_exp_EVA_AWA_CON	61	B	A	Rpleas_acq	Same	Rpleas	1pleas	acq_US_unple_nomask	acq45_nomask	5	33	400	1	300	300	0	0	433	46	1	0	helfen	ehrlich	tolerant	spielen	fair	loyal	hindern	eitel	tyrannisch	strafen	faul	lasch	schlau	schön	retten	lachen	freundlich	treu	schroff	schlecht	rächen	leiden	fanatisch	tot	1	blank2r.bmp	0	1	+	0	1	blank2r.bmp	500	1	GKQX	500	1	blank2r.bmp	880	2	eitel	880	1	!	1232	1	!	1334	0	0	0	0	0	0
2024-05-29	15:31:18	15:41:37	617851	6.6.1	4_exp_EVA_AWA_CON	61	B	A	Rpleas_acq	Same	Rpleas	1pleas	acq_US_pleas_nomask	acq45_nomask	5	34	400	1	300	300	0	0	461	50	1	0	helfen	ehrlich	tolerant	spielen	fair	loyal	hindern	eitel	tyrannisch	strafen	faul	lasch	schlau	schön	retten	lachen	freundlich	treu	schroff	schlecht	rächen	leiden	fanatisch	tot	1	blank2r.bmp	0	1	+	0	1	blank2r.bmp	500	1	BMVZ	500	1	blank2r.bmp	880	3	tolerant	880	1	!	1232	1	!	1362	0	0	0	0	0	0
2024-05-29	15:31:18	15:41:39	620067	6.6.1	4_exp_EVA_AWA_CON	61	B	A	Rpleas_acq	Same	Rpleas	1pleas	acq_US_pleas_nomask	acq45_nomask	5	35	400	1	300	300	0	0	436	46	0	0	helfen	ehrlich	tolerant	spielen	fair	loyal	hindern	eitel	tyrannisch	strafen	faul	lasch	schlau	schön	retten	lachen	freundlich	treu	schroff	schlecht	rächen	leiden	fanatisch	tot	1	blank2r.bmp	0	1	+	0	1	blank2r.bmp	500	1	BMVZ	500	1	blank2r.bmp	880	5	fair	880	1	!	1232	1	!	1337	0	0	0	0	0	0
2024-05-29	15:31:18	15:41:41	622312	6.6.1	4_exp_EVA_AWA_CON	61	B	A	Rpleas_acq	Same	Rpleas	1pleas	acq_US_unple_nomask	acq45_nomask	5	36	400	0	300	300	0	0	473	50	0	0	helfen	ehrlich	tolerant	spielen	fair	loyal	hindern	eitel	tyrannisch	strafen	faul	lasch	schlau	schön	retten	lachen	freundlich	treu	schroff	schlecht	rächen	leiden	fanatisch	tot	1	blank2r.bmp	0	1	+	0	1	blank2r.bmp	500	1	GKQX	500	1	blank2r.bmp	880	6	lasch	880	1	!	1232	1	!	-1	0	0	0	0	0	0
2024-05-29	15:31:18	15:42:03	643893	6.6.1	4_exp_EVA_AWA_CON	61	B	A	Rpleas_acq	Same	Rpleas	1pleas	EvalRating_firsttwo	EvalRating_firsttwo	6	1	0	0	300	300	0	0	5983	line	0	-3,6458333333333285964pct	helfen	ehrlich	tolerant	spielen	fair	loyal	hindern	eitel	tyrannisch	strafen	faul	lasch	schlau	schön	retten	lachen	freundlich	treu	schroff	schlecht	rächen	leiden	fanatisch	tot	1		-8	1	Wie angenehm oder unangenehm finden Sie die  Buchstabenkette ZGVK?	-8	1		-8	1		-8	1		-8	1	Unangenehm	-8	1	Angenehm	-8	0	0	0	0	0	0	0	0	0
2024-05-29	15:31:18	15:42:10	651157	6.6.1	4_exp_EVA_AWA_CON	61	B	A	Rpleas_acq	Same	Rpleas	1pleas	EvalRating_lastfour	EvalRating_lastfour	7	1	0	0	300	300	0	0	4892	line	0	-3,90625pct	helfen	ehrlich	tolerant	spielen	fair	loyal	hindern	eitel	tyrannisch	strafen	faul	lasch	schlau	schön	retten	lachen	freundlich	treu	schroff	schlecht	rächen	leiden	fanatisch	tot	1		-7	3	Wie angenehm oder unangenehm finden Sie die  Buchstabenkette XBQM?	-7	1		-7	1		-7	1		-7	1	Unangenehm	-7	1	Angenehm	-7	0	0	0	0	0	0	0	0	0
2024-05-29	15:31:18	15:42:12	653522	6.6.1	4_exp_EVA_AWA_CON	61	B	A	Rpleas_acq	Same	Rpleas	1pleas	blank_screen	EvalRating_lastfour	7	3	0	0	300	300	0	0	0	0	0	-3,90625pct	helfen	ehrlich	tolerant	spielen	fair	loyal	hindern	eitel	tyrannisch	strafen	faul	lasch	schlau	schön	retten	lachen	freundlich	treu	schroff	schlecht	rächen	leiden	fanatisch	tot	1		-8	0	0	0	0	0	0	0	0	0	0	0	0	0	0	0	0	0	0	0	0	0	0	0	0	0	0	0
2024-05-29	15:31:18	15:42:19	660333	6.6.1	4_exp_EVA_AWA_CON	61	B	A	Rpleas_acq	Same	Rpleas	1pleas	EvalRating_lastfour	EvalRating_lastfour	7	4	0	0	300	300	0	0	6223	line	0	-4,296875pct	helfen	ehrlich	tolerant	spielen	fair	loyal	hindern	eitel	tyrannisch	strafen	faul	lasch	schlau	schön	retten	lachen	freundlich	treu	schroff	schlecht	rächen	leiden	fanatisch	tot	1		-8	1	Wie angenehm oder unangenehm finden Sie die  Buchstabenkette BMVZ?	-8	1		-8	1		-8	1		-8	1	Unangenehm	-8	1	Angenehm	-8	0	0	0	0	0	0	0	0	0
2024-05-29	15:31:18	15:42:21	662698	6.6.1	4_exp_EVA_AWA_CON	61	B	A	Rpleas_acq	Same	Rpleas	1pleas	blank_screen	EvalRating_lastfour	7	6	0	0	300	300	0	0	0	0	0	-4,296875pct	helfen	ehrlich	tolerant	spielen	fair	loyal	hindern	eitel	tyrannisch	strafen	faul	lasch	schlau	schön	retten	lachen	freundlich	treu	schroff	schlecht	rächen	leiden	fanatisch	tot	1		-8	0	0	0	0	0	0	0	0	0	0	0	0	0	0	0	0	0	0	0	0	0	0	0	0	0	0	0
2024-05-29	15:31:18	15:42:25	666149	6.6.1	4_exp_EVA_AWA_CON	61	B	A	Rpleas_acq	Same	Rpleas	1pleas	EvalRating_lastfour	EvalRating_lastfour	7	7	0	0	300	300	0	0	2863	line	0	-4,6875pct	helfen	ehrlich	tolerant	spielen	fair	loyal	hindern	eitel	tyrannisch	strafen	faul	lasch	schlau	schön	retten	lachen	freundlich	treu	schroff	schlecht	rächen	leiden	fanatisch	tot	1		-8	2	Wie angenehm oder unangenehm finden Sie die  Buchstabenkette GKQX?	-8	1		-8	1		-8	1		-8	1	Unangenehm	-8	1	Angenehm	-8	0	0	0	0	0	0	0	0	0
2024-05-29	15:31:18	15:43:12	713469	6.6.1	4_exp_EVA_AWA_CON	61	B	A	Rpleas_acq	Same	Rpleas	1pleas	conawa_CS1_US2	conawa1_nomask	8	1	0	0	300	300	0	0	10124	ehrlich	1	-4,6875pct	helfen	ehrlich	tolerant	spielen	fair	loyal	hindern	eitel	tyrannisch	strafen	faul	lasch	schlau	schön	retten	lachen	freundlich	treu	schroff	schlecht	rächen	leiden	fanatisch	tot	0	0	0	0	0	0	0	0	0	0	0	0	0	0	0	0	0	0	0	0	0	0	0	0	0	0	0	0	0	0
2024-05-29	15:31:18	15:43:12	713471	6.6.1	4_exp_EVA_AWA_CON	61	B	A	Rpleas_acq	Same	Rpleas	1pleas	conawa_CS1_US2_confidence	conawa1_nomask	8	1	0	0	300	300	0	0	10124	guess	1	-4,6875pct	helfen	ehrlich	tolerant	spielen	fair	loyal	hindern	eitel	tyrannisch	strafen	faul	lasch	schlau	schön	retten	lachen	freundlich	treu	schroff	schlecht	rächen	leiden	fanatisch	tot	0	0	0	0	0	0	0	0	0	0	0	0	0	0	0	0	0	0	0	0	0	0	0	0	0	0	0	0	0	0
2024-05-29	15:31:18	15:43:22	723085	6.6.1	4_exp_EVA_AWA_CON	61	B	A	Rpleas_acq	Same	Rpleas	1pleas	conawa_CS2_US2	conawa1_nomask	8	2	0	0	300	300	0	0	8999	eitel	1	-4,6875pct	helfen	ehrlich	tolerant	spielen	fair	loyal	hindern	eitel	tyrannisch	strafen	faul	lasch	schlau	schön	retten	lachen	freundlich	treu	schroff	schlecht	rächen	leiden	fanatisch	tot	0	0	0	0	0	0	0	0	0	0	0	0	0	0	0	0	0	0	0	0	0	0	0	0	0	0	0	0	0	0
2024-05-29	15:31:18	15:43:22	723087	6.6.1	4_exp_EVA_AWA_CON	61	B	A	Rpleas_acq	Same	Rpleas	1pleas	conawa_CS2_US2_confidence	conawa1_nomask	8	2	0	0	300	300	0	0	8999	guess	1	-4,6875pct	helfen	ehrlich	tolerant	spielen	fair	loyal	hindern	eitel	tyrannisch	strafen	faul	lasch	schlau	schön	retten	lachen	freundlich	treu	schroff	schlecht	rächen	leiden	fanatisch	tot	0	0	0	0	0	0	0	0	0	0	0	0	0	0	0	0	0	0	0	0	0	0	0	0	0	0	0	0	0	0
2024-05-29	15:31:18	15:43:29	730420	6.6.1	4_exp_EVA_AWA_CON	61	B	A	Rpleas_acq	Same	Rpleas	1pleas	conawa_CS2_US3	conawa1_nomask	8	3	0	0	300	300	0	0	6713	leiden	1	-4,6875pct	helfen	ehrlich	tolerant	spielen	fair	loyal	hindern	eitel	tyrannisch	strafen	faul	lasch	schlau	schön	retten	lachen	freundlich	treu	schroff	schlecht	rächen	leiden	fanatisch	tot	0	0	0	0	0	0	0	0	0	0	0	0	0	0	0	0	0	0	0	0	0	0	0	0	0	0	0	0	0	0
2024-05-29	15:31:18	15:43:29	730422	6.6.1	4_exp_EVA_AWA_CON	61	B	A	Rpleas_acq	Same	Rpleas	1pleas	conawa_CS2_US3_confidence	conawa1_nomask	8	3	0	0	300	300	0	0	6713	guess	1	-4,6875pct	helfen	ehrlich	tolerant	spielen	fair	loyal	hindern	eitel	tyrannisch	strafen	faul	lasch	schlau	schön	retten	lachen	freundlich	treu	schroff	schlecht	rächen	leiden	fanatisch	tot	0	0	0	0	0	0	0	0	0	0	0	0	0	0	0	0	0	0	0	0	0	0	0	0	0	0	0	0	0	0
2024-05-29	15:31:18	15:43:38	738835	6.6.1	4_exp_EVA_AWA_CON	61	B	A	Rpleas_acq	Same	Rpleas	1pleas	conawa_CS1_US6	conawa1_nomask	8	4	0	0	300	300	0	0	7795	loyal	1	-4,6875pct	helfen	ehrlich	tolerant	spielen	fair	loyal	hindern	eitel	tyrannisch	strafen	faul	lasch	schlau	schön	retten	lachen	freundlich	treu	schroff	schlecht	rächen	leiden	fanatisch	tot	0	0	0	0	0	0	0	0	0	0	0	0	0	0	0	0	0	0	0	0	0	0	0	0	0	0	0	0	0	0
2024-05-29	15:31:18	15:43:38	738837	6.6.1	4_exp_EVA_AWA_CON	61	B	A	Rpleas_acq	Same	Rpleas	1pleas	conawa_CS1_US6_confidence	conawa1_nomask	8	4	0	0	300	300	0	0	7795	guess	1	-4,6875pct	helfen	ehrlich	tolerant	spielen	fair	loyal	hindern	eitel	tyrannisch	strafen	faul	lasch	schlau	schön	retten	lachen	freundlich	treu	schroff	schlecht	rächen	leiden	fanatisch	tot	0	0	0	0	0	0	0	0	0	0	0	0	0	0	0	0	0	0	0	0	0	0	0	0	0	0	0	0	0	0
2024-05-29	15:31:18	15:43:53	754485	6.6.1	4_exp_EVA_AWA_CON	61	B	A	Rpleas_acq	Same	Rpleas	1pleas	conawa_CS2_US6	conawa1_nomask	8	5	0	0	300	300	0	0	15034	lasch	1	-4,6875pct	helfen	ehrlich	tolerant	spielen	fair	loyal	hindern	eitel	tyrannisch	strafen	faul	lasch	schlau	schön	retten	lachen	freundlich	treu	schroff	schlecht	rächen	leiden	fanatisch	tot	0	0	0	0	0	0	0	0	0	0	0	0	0	0	0	0	0	0	0	0	0	0	0	0	0	0	0	0	0	0
2024-05-29	15:31:18	15:43:53	754488	6.6.1	4_exp_EVA_AWA_CON	61	B	A	Rpleas_acq	Same	Rpleas	1pleas	conawa_CS2_US6_confidence	conawa1_nomask	8	5	0	0	300	300	0	0	15034	guess	1	-4,6875pct	helfen	ehrlich	tolerant	spielen	fair	loyal	hindern	eitel	tyrannisch	strafen	faul	lasch	schlau	schön	retten	lachen	freundlich	treu	schroff	schlecht	rächen	leiden	fanatisch	tot	0	0	0	0	0	0	0	0	0	0	0	0	0	0	0	0	0	0	0	0	0	0	0	0	0	0	0	0	0	0
2024-05-29	15:31:18	15:44:03	763861	6.6.1	4_exp_EVA_AWA_CON	61	B	A	Rpleas_acq	Same	Rpleas	1pleas	conawa_CS1_US4	conawa1_nomask	8	6	0	0	300	300	0	0	8762	lachen	1	-4,6875pct	helfen	ehrlich	tolerant	spielen	fair	loyal	hindern	eitel	tyrannisch	strafen	faul	lasch	schlau	schön	retten	lachen	freundlich	treu	schroff	schlecht	rächen	leiden	fanatisch	tot	0	0	0	0	0	0	0	0	0	0	0	0	0	0	0	0	0	0	0	0	0	0	0	0	0	0	0	0	0	0
2024-05-29	15:31:18	15:44:03	763863	6.6.1	4_exp_EVA_AWA_CON	61	B	A	Rpleas_acq	Same	Rpleas	1pleas	conawa_CS1_US4_confidence	conawa1_nomask	8	6	0	0	300	300	0	0	8762	guess	1	-4,6875pct	helfen	ehrlich	tolerant	spielen	fair	loyal	hindern	eitel	tyrannisch	strafen	faul	lasch	schlau	schön	retten	lachen	freundlich	treu	schroff	schlecht	rächen	leiden	fanatisch	tot	0	0	0	0	0	0	0	0	0	0	0	0	0	0	0	0	0	0	0	0	0	0	0	0	0	0	0	0	0	0
2024-05-29	15:31:18	15:44:11	772427	6.6.1	4_exp_EVA_AWA_CON	61	B	A	Rpleas_acq	Same	Rpleas	1pleas	conawa_CS1_US5	conawa1_nomask	8	7	0	0	300	300	0	0	7952	freundlich	1	-4,6875pct	helfen	ehrlich	tolerant	spielen	fair	loyal	hindern	eitel	tyrannisch	strafen	faul	lasch	schlau	schön	retten	lachen	freundlich	treu	schroff	schlecht	rächen	leiden	fanatisch	tot	0	0	0	0	0	0	0	0	0	0	0	0	0	0	0	0	0	0	0	0	0	0	0	0	0	0	0	0	0	0
2024-05-29	15:31:18	15:44:11	772429	6.6.1	4_exp_EVA_AWA_CON	61	B	A	Rpleas_acq	Same	Rpleas	1pleas	conawa_CS1_US5_confidence	conawa1_nomask	8	7	0	0	300	300	0	0	7952	guess	1	-4,6875pct	helfen	ehrlich	tolerant	spielen	fair	loyal	hindern	eitel	tyrannisch	strafen	faul	lasch	schlau	schön	retten	lachen	freundlich	treu	schroff	schlecht	rächen	leiden	fanatisch	tot	0	0	0	0	0	0	0	0	0	0	0	0	0	0	0	0	0	0	0	0	0	0	0	0	0	0	0	0	0	0
2024-05-29	15:31:18	15:44:18	779051	6.6.1	4_exp_EVA_AWA_CON	61	B	A	Rpleas_acq	Same	Rpleas	1pleas	conawa_CS1_US1	conawa1_nomask	8	8	0	0	300	300	0	0	6013	helfen	1	-4,6875pct	helfen	ehrlich	tolerant	spielen	fair	loyal	hindern	eitel	tyrannisch	strafen	faul	lasch	schlau	schön	retten	lachen	freundlich	treu	schroff	schlecht	rächen	leiden	fanatisch	tot	0	0	0	0	0	0	0	0	0	0	0	0	0	0	0	0	0	0	0	0	0	0	0	0	0	0	0	0	0	0
2024-05-29	15:31:18	15:44:18	779053	6.6.1	4_exp_EVA_AWA_CON	61	B	A	Rpleas_acq	Same	Rpleas	1pleas	conawa_CS1_US1_confidence	conawa1_nomask	8	8	0	0	300	300	0	0	6013	guess	1	-4,6875pct	helfen	ehrlich	tolerant	spielen	fair	loyal	hindern	eitel	tyrannisch	strafen	faul	lasch	schlau	schön	retten	lachen	freundlich	treu	schroff	schlecht	rächen	leiden	fanatisch	tot	0	0	0	0	0	0	0	0	0	0	0	0	0	0	0	0	0	0	0	0	0	0	0	0	0	0	0	0	0	0
2024-05-29	15:31:18	15:44:26	786926	6.6.1	4_exp_EVA_AWA_CON	61	B	A	Rpleas_acq	Same	Rpleas	1pleas	conawa_CS2_US1	conawa1_nomask	8	9	0	0	300	300	0	0	7260	hindern	1	-4,6875pct	helfen	ehrlich	tolerant	spielen	fair	loyal	hindern	eitel	tyrannisch	strafen	faul	lasch	schlau	schön	retten	lachen	freundlich	treu	schroff	schlecht	rächen	leiden	fanatisch	tot	0	0	0	0	0	0	0	0	0	0	0	0	0	0	0	0	0	0	0	0	0	0	0	0	0	0	0	0	0	0
2024-05-29	15:31:18	15:44:26	786928	6.6.1	4_exp_EVA_AWA_CON	61	B	A	Rpleas_acq	Same	Rpleas	1pleas	conawa_CS2_US1_confidence	conawa1_nomask	8	9	0	0	300	300	0	0	7260	guess	1	-4,6875pct	helfen	ehrlich	tolerant	spielen	fair	loyal	hindern	eitel	tyrannisch	strafen	faul	lasch	schlau	schön	retten	lachen	freundlich	treu	schroff	schlecht	rächen	leiden	fanatisch	tot	0	0	0	0	0	0	0	0	0	0	0	0	0	0	0	0	0	0	0	0	0	0	0	0	0	0	0	0	0	0
2024-05-29	15:31:18	15:44:32	793450	6.6.1	4_exp_EVA_AWA_CON	61	B	A	Rpleas_acq	Same	Rpleas	1pleas	conawa_CS1_US3	conawa1_nomask	8	10	0	0	300	300	0	0	5903	tolerant	1	-4,6875pct	helfen	ehrlich	tolerant	spielen	fair	loyal	hindern	eitel	tyrannisch	strafen	faul	lasch	schlau	schön	retten	lachen	freundlich	treu	schroff	schlecht	rächen	leiden	fanatisch	tot	0	0	0	0	0	0	0	0	0	0	0	0	0	0	0	0	0	0	0	0	0	0	0	0	0	0	0	0	0	0
2024-05-29	15:31:18	15:44:32	793452	6.6.1	4_exp_EVA_AWA_CON	61	B	A	Rpleas_acq	Same	Rpleas	1pleas	conawa_CS1_US3_confidence	conawa1_nomask	8	10	0	0	300	300	0	0	5903	guess	1	-4,6875pct	helfen	ehrlich	tolerant	spielen	fair	loyal	hindern	eitel	tyrannisch	strafen	faul	lasch	schlau	schön	retten	lachen	freundlich	treu	schroff	schlecht	rächen	leiden	fanatisch	tot	0	0	0	0	0	0	0	0	0	0	0	0	0	0	0	0	0	0	0	0	0	0	0	0	0	0	0	0	0	0
2024-05-29	15:31:18	15:44:40	801676	6.6.1	4_exp_EVA_AWA_CON	61	B	A	Rpleas_acq	Same	Rpleas	1pleas	conawa_CS2_US4	conawa1_nomask	8	11	0	0	300	300	0	0	7613	fanatisch	1	-4,6875pct	helfen	ehrlich	tolerant	spielen	fair	loyal	hindern	eitel	tyrannisch	strafen	faul	lasch	schlau	schön	retten	lachen	freundlich	treu	schroff	schlecht	rächen	leiden	fanatisch	tot	0	0	0	0	0	0	0	0	0	0	0	0	0	0	0	0	0	0	0	0	0	0	0	0	0	0	0	0	0	0
2024-05-29	15:31:18	15:44:40	801678	6.6.1	4_exp_EVA_AWA_CON	61	B	A	Rpleas_acq	Same	Rpleas	1pleas	conawa_CS2_US4_confidence	conawa1_nomask	8	11	0	0	300	300	0	0	7613	guess	1	-4,6875pct	helfen	ehrlich	tolerant	spielen	fair	loyal	hindern	eitel	tyrannisch	strafen	faul	lasch	schlau	schön	retten	lachen	freundlich	treu	schroff	schlecht	rächen	leiden	fanatisch	tot	0	0	0	0	0	0	0	0	0	0	0	0	0	0	0	0	0	0	0	0	0	0	0	0	0	0	0	0	0	0
2024-05-29	15:31:18	15:44:48	808780	6.6.1	4_exp_EVA_AWA_CON	61	B	A	Rpleas_acq	Same	Rpleas	1pleas	conawa_CS2_US5	conawa1_nomask	8	12	0	0	300	300	0	0	6492	faul	1	-4,6875pct	helfen	ehrlich	tolerant	spielen	fair	loyal	hindern	eitel	tyrannisch	strafen	faul	lasch	schlau	schön	retten	lachen	freundlich	treu	schroff	schlecht	rächen	leiden	fanatisch	tot	0	0	0	0	0	0	0	0	0	0	0	0	0	0	0	0	0	0	0	0	0	0	0	0	0	0	0	0	0	0
2024-05-29	15:31:18	15:44:48	808782	6.6.1	4_exp_EVA_AWA_CON	61	B	A	Rpleas_acq	Same	Rpleas	1pleas	conawa_CS2_US5_confidence	conawa1_nomask	8	12	0	0	300	300	0	0	6492	guess	1	-4,6875pct	helfen	ehrlich	tolerant	spielen	fair	loyal	hindern	eitel	tyrannisch	strafen	faul	lasch	schlau	schön	retten	lachen	freundlich	treu	schroff	schlecht	rächen	leiden	fanatisch	tot	0	0	0	0	0	0	0	0	0	0	0	0	0	0	0	0	0	0	0	0	0	0	0	0	0	0	0	0	0	0
2024-05-29	15:31:18	15:45:52	873097	6.6.1	4_exp_EVA_AWA_CON	61	B	A	Rpleas_acq	Same	Rpleas	1pleas	cond_US_unple_123_nomask_CS1	condtest_nomask_1	11	1	400	0	300	300	0	0	686	46	1	-4,6875pct	helfen	ehrlich	tolerant	spielen	fair	loyal	hindern	eitel	tyrannisch	strafen	faul	lasch	schlau	schön	retten	lachen	freundlich	treu	schroff	schlecht	rächen	leiden	fanatisch	tot	1	blank2r.bmp	0	1	+	0	1	blank2r.bmp	500	1	BMVZ	500	1	blank2r.bmp	880	1	hindern	880	1	!	1232	1	!	-1	0	0	0	0	0	0
2024-05-29	15:31:18	15:45:54	875323	6.6.1	4_exp_EVA_AWA_CON	61	B	A	Rpleas_acq	Same	Rpleas	1pleas	cond_new_unple_456_nomask_CS2	condtest_nomask_1	11	2	400	1	300	300	0	0	448	46	1	-4,6875pct	helfen	ehrlich	tolerant	spielen	fair	loyal	hindern	eitel	tyrannisch	strafen	faul	lasch	schlau	schön	retten	lachen	freundlich	treu	schroff	schlecht	rächen	leiden	fanatisch	tot	1	blank2r.bmp	0	1	+	0	1	blank2r.bmp	500	1	GKQX	500	1	blank2r.bmp	880	2	leiden	880	1	!	1232	1	!	1349	0	0	0	0	0	0
2024-05-29	15:31:18	15:45:56	877515	6.6.1	4_exp_EVA_AWA_CON	61	B	A	Rpleas_acq	Same	Rpleas	1pleas	cond_new_unple_456_nomask_CS1	condtest_nomask_1	11	3	400	1	300	300	0	0	419	46	1	-4,6875pct	helfen	ehrlich	tolerant	spielen	fair	loyal	hindern	eitel	tyrannisch	strafen	faul	lasch	schlau	schön	retten	lachen	freundlich	treu	schroff	schlecht	rächen	leiden	fanatisch	tot	1	blank2r.bmp	0	1	+	0	1	blank2r.bmp	500	1	BMVZ	500	1	blank2r.bmp	880	3	tot	880	1	!	1232	1	!	1320	0	0	0	0	0	0
2024-05-29	15:31:18	15:45:59	879763	6.6.1	4_exp_EVA_AWA_CON	61	B	A	Rpleas_acq	Same	Rpleas	1pleas	cond_US_unple_123_nomask_CS2	condtest_nomask_1	11	4	400	1	300	300	0	0	465	46	1	-4,6875pct	helfen	ehrlich	tolerant	spielen	fair	loyal	hindern	eitel	tyrannisch	strafen	faul	lasch	schlau	schön	retten	lachen	freundlich	treu	schroff	schlecht	rächen	leiden	fanatisch	tot	1	blank2r.bmp	0	1	+	0	1	blank2r.bmp	500	1	GKQX	500	1	blank2r.bmp	880	2	hindern	880	1	!	1232	1	!	1366	0	0	0	0	0	0
2024-05-29	15:31:18	15:46:01	882003	6.6.1	4_exp_EVA_AWA_CON	61	B	A	Rpleas_acq	Same	Rpleas	1pleas	cond_US_pleas_123_nomask_CS2	condtest_nomask_1	11	5	400	1	300	300	0	0	464	46	0	-4,6875pct	helfen	ehrlich	tolerant	spielen	fair	loyal	hindern	eitel	tyrannisch	strafen	faul	lasch	schlau	schön	retten	lachen	freundlich	treu	schroff	schlecht	rächen	leiden	fanatisch	tot	1	blank2r.bmp	0	1	+	0	1	blank2r.bmp	500	1	GKQX	500	1	blank2r.bmp	880	2	helfen	880	1	!	1232	1	!	1365	0	0	0	0	0	0
2024-05-29	15:31:18	15:46:03	884251	6.6.1	4_exp_EVA_AWA_CON	61	B	A	Rpleas_acq	Same	Rpleas	1pleas	cond_US_pleas_123_nomask_CS1	condtest_nomask_1	11	6	400	1	300	300	0	0	470	50	1	-4,6875pct	helfen	ehrlich	tolerant	spielen	fair	loyal	hindern	eitel	tyrannisch	strafen	faul	lasch	schlau	schön	retten	lachen	freundlich	treu	schroff	schlecht	rächen	leiden	fanatisch	tot	1	blank2r.bmp	0	1	+	0	1	blank2r.bmp	500	1	BMVZ	500	1	blank2r.bmp	880	1	helfen	880	1	!	1232	1	!	1372	0	0	0	0	0	0
2024-05-29	15:31:18	15:46:05	886503	6.6.1	4_exp_EVA_AWA_CON	61	B	A	Rpleas_acq	Same	Rpleas	1pleas	cond_new_pleas_456_nomask_CS2	condtest_nomask_1	11	7	400	0	300	300	0	0	475	46	0	-4,6875pct	helfen	ehrlich	tolerant	spielen	fair	loyal	hindern	eitel	tyrannisch	strafen	faul	lasch	schlau	schön	retten	lachen	freundlich	treu	schroff	schlecht	rächen	leiden	fanatisch	tot	1	blank2r.bmp	0	1	+	0	1	blank2r.bmp	500	1	GKQX	500	1	blank2r.bmp	880	1	treu	880	1	!	1232	1	!	-1	0	0	0	0	0	0
2024-05-29	15:31:18	15:46:07	888691	6.6.1	4_exp_EVA_AWA_CON	61	B	A	Rpleas_acq	Same	Rpleas	1pleas	cond_new_pleas_456_nomask_CS1	condtest_nomask_1	11	8	400	1	300	300	0	0	407	50	1	-4,6875pct	helfen	ehrlich	tolerant	spielen	fair	loyal	hindern	eitel	tyrannisch	strafen	faul	lasch	schlau	schön	retten	lachen	freundlich	treu	schroff	schlecht	rächen	leiden	fanatisch	tot	1	blank2r.bmp	0	1	+	0	1	blank2r.bmp	500	1	BMVZ	500	1	blank2r.bmp	880	1	lachen	880	1	!	1233	1	!	1308	0	0	0	0	0	0
2024-05-29	15:31:18	15:46:15	895839	6.6.1	4_exp_EVA_AWA_CON	61	B	A	Rpleas_acq	Same	Rpleas	1pleas	cond_US_unple_123_nomask_CS2	condtest_nomask_2	12	1	400	0	300	300	0	0	475	50	0	-4,6875pct	helfen	ehrlich	tolerant	spielen	fair	loyal	hindern	eitel	tyrannisch	strafen	faul	lasch	schlau	schön	retten	lachen	freundlich	treu	schroff	schlecht	rächen	leiden	fanatisch	tot	1	blank2r.bmp	0	1	+	0	1	blank2r.bmp	500	1	GKQX	500	1	blank2r.bmp	880	3	eitel	880	1	!	1232	1	!	-1	0	0	0	0	0	0
2024-05-29	15:31:18	15:46:17	898051	6.6.1	4_exp_EVA_AWA_CON	61	B	A	Rpleas_acq	Same	Rpleas	1pleas	cond_new_pleas_456_nomask_CS1	condtest_nomask_2	12	2	400	1	300	300	0	0	431	50	1	-4,6875pct	helfen	ehrlich	tolerant	spielen	fair	loyal	hindern	eitel	tyrannisch	strafen	faul	lasch	schlau	schön	retten	lachen	freundlich	treu	schroff	schlecht	rächen	leiden	fanatisch	tot	1	blank2r.bmp	0	1	+	0	1	blank2r.bmp	500	1	BMVZ	500	1	blank2r.bmp	880	2	freundlich	880	1	!	1232	1	!	1332	0	0	0	0	0	0
