date	time	currenttime	elapsedtime	build	currentexpt	subject	CS_AB	US_AB	LRpleas_acq	SameOppo	condition_Lpleas	condition_1pleas	trialcode	blockcode	blocknum	trialnum	windowcenter	inwindow	pretrialpause	posttrialpause	trialduration	trialtimeout	latency	response	correct	correctedscore	US_nomask_pleas1	US_nomask_pleas2	US_nomask_pleas3	US_nomask_pleas4	US_nomask_pleas5	US_nomask_pleas6	US_nomask_unple1	US_nomask_unple2	US_nomask_unple3	US_nomask_unple4	US_nomask_unple5	US_nomask_unple6	new_nomask_pleas1	new_nomask_pleas2	new_nomask_pleas3	new_nomask_pleas4	new_nomask_pleas5	new_nomask_pleas6	new_nomask_unple1	new_nomask_unple2	new_nomask_unple3	new_nomask_unple4	new_nomask_unple5	new_nomask_unple6	stimulusnumber1	stimulusitem1	stimulusonset1	stimulusnumber2	stimulusitem2	stimulusonset2	stimulusnumber3	stimulusitem3	stimulusonset3	stimulusnumber4	stimulusitem4	stimulusonset4	stimulusnumber5	stimulusitem5	stimulusonset5	stimulusnumber6	stimulusitem6	stimulusonset6	stimulusnumber7	stimulusitem7	stimulusonset7	stimulusnumber8	stimulusitem8	stimulusonset8	stimulusnumber9	stimulusitem9	stimulusonset9	stimulusnumber10	stimulusitem10	stimulusonset10
2024-06-20	12:03:44	12:07:19	213668	6.6.1	4_exp_EVA_AWA_CON	92	B	A	Rpleas_acq	Oppo	Rpleas	2pleas	acq_new_unple_nomask	acq1_nomask	1	1	0	0	300	300	0	0	1916	46	1	0	helfen	ehrlich	schlau	lachen	treu	freundlich	hindern	eitel	schroff	leiden	tot	fanatisch	retten	spielen	schön	loyal	tolerant	fair	rächen	strafen	schlecht	lasch	tyrannisch	faul	1	blank2r.bmp	0	1	+	0	1	blank2r.bmp	500	2	B2r.bmp	500	1	blank2r.bmp	880	1	rächen	880	0	0	0	0	0	0	0	0	0	0	0	0
2024-06-20	12:03:44	12:07:22	216756	6.6.1	4_exp_EVA_AWA_CON	92	B	A	Rpleas_acq	Oppo	Rpleas	2pleas	acq_new_unple_nomask	acq1_nomask	1	2	0	0	300	300	0	0	1602	46	1	0	helfen	ehrlich	schlau	lachen	treu	freundlich	hindern	eitel	schroff	leiden	tot	fanatisch	retten	spielen	schön	loyal	tolerant	fair	rächen	strafen	schlecht	lasch	tyrannisch	faul	1	blank2r.bmp	0	1	+	0	1	blank2r.bmp	500	7	C3r.bmp	500	1	blank2r.bmp	880	3	schlecht	880	0	0	0	0	0	0	0	0	0	0	0	0
2024-06-20	12:03:44	12:07:24	219100	6.6.1	4_exp_EVA_AWA_CON	92	B	A	Rpleas_acq	Oppo	Rpleas	2pleas	acq_new_pleas_nomask	acq1_nomask	1	3	0	0	300	300	0	0	854	50	1	0	helfen	ehrlich	schlau	lachen	treu	freundlich	hindern	eitel	schroff	leiden	tot	fanatisch	retten	spielen	schön	loyal	tolerant	fair	rächen	strafen	schlecht	lasch	tyrannisch	faul	1	blank2r.bmp	0	1	+	0	1	blank2r.bmp	500	4	B4r.bmp	500	1	blank2r.bmp	880	2	spielen	880	0	0	0	0	0	0	0	0	0	0	0	0
2024-06-20	12:03:44	12:07:27	221924	6.6.1	4_exp_EVA_AWA_CON	92	B	A	Rpleas_acq	Oppo	Rpleas	2pleas	acq_US_unple_nomask	acq1_nomask	1	4	0	0	300	300	0	0	1337	46	1	0	helfen	ehrlich	schlau	lachen	treu	freundlich	hindern	eitel	schroff	leiden	tot	fanatisch	retten	spielen	schön	loyal	tolerant	fair	rächen	strafen	schlecht	lasch	tyrannisch	faul	1	blank2r.bmp	0	1	+	0	1	blank2r.bmp	500	1	BMVZ	500	1	blank2r.bmp	880	6	fanatisch	880	0	0	0	0	0	0	0	0	0	0	0	0
2024-06-20	12:03:44	12:07:30	224476	6.6.1	4_exp_EVA_AWA_CON	92	B	A	Rpleas_acq	Oppo	Rpleas	2pleas	acq_US_unple_nomask	acq1_nomask	1	5	0	0	300	300	0	0	1068	46	1	0	helfen	ehrlich	schlau	lachen	treu	freundlich	hindern	eitel	schroff	leiden	tot	fanatisch	retten	spielen	schön	loyal	tolerant	fair	rächen	strafen	schlecht	lasch	tyrannisch	faul	1	blank2r.bmp	0	1	+	0	1	blank2r.bmp	500	1	BMVZ	500	1	blank2r.bmp	880	2	eitel	880	0	0	0	0	0	0	0	0	0	0	0	0
2024-06-20	12:03:44	12:07:32	227116	6.6.1	4_exp_EVA_AWA_CON	92	B	A	Rpleas_acq	Oppo	Rpleas	2pleas	acq_new_unple_nomask	acq1_nomask	1	6	0	0	300	300	0	0	1155	46	1	0	helfen	ehrlich	schlau	lachen	treu	freundlich	hindern	eitel	schroff	leiden	tot	fanatisch	retten	spielen	schön	loyal	tolerant	fair	rächen	strafen	schlecht	lasch	tyrannisch	faul	1	blank2r.bmp	0	1	+	0	1	blank2r.bmp	500	6	C2r.bmp	500	1	blank2r.bmp	880	4	lasch	880	0	0	0	0	0	0	0	0	0	0	0	0
2024-06-20	12:03:44	12:07:35	229428	6.6.1	4_exp_EVA_AWA_CON	92	B	A	Rpleas_acq	Oppo	Rpleas	2pleas	acq_US_unple_nomask	acq1_nomask	1	7	0	0	300	300	0	0	827	46	1	0	helfen	ehrlich	schlau	lachen	treu	freundlich	hindern	eitel	schroff	leiden	tot	fanatisch	retten	spielen	schön	loyal	tolerant	fair	rächen	strafen	schlecht	lasch	tyrannisch	faul	1	blank2r.bmp	0	1	+	0	1	blank2r.bmp	500	1	BMVZ	500	1	blank2r.bmp	880	1	hindern	880	0	0	0	0	0	0	0	0	0	0	0	0
2024-06-20	12:03:44	12:07:37	231660	6.6.1	4_exp_EVA_AWA_CON	92	B	A	Rpleas_acq	Oppo	Rpleas	2pleas	acq_new_pleas_nomask	acq1_nomask	1	8	0	0	300	300	0	0	747	50	1	0	helfen	ehrlich	schlau	lachen	treu	freundlich	hindern	eitel	schroff	leiden	tot	fanatisch	retten	spielen	schön	loyal	tolerant	fair	rächen	strafen	schlecht	lasch	tyrannisch	faul	1	blank2r.bmp	0	1	+	0	1	blank2r.bmp	500	5	C1r.bmp	500	1	blank2r.bmp	880	6	fair	880	0	0	0	0	0	0	0	0	0	0	0	0
2024-06-20	12:03:44	12:07:39	233884	6.6.1	4_exp_EVA_AWA_CON	92	B	A	Rpleas_acq	Oppo	Rpleas	2pleas	acq_new_pleas_nomask	acq1_nomask	1	9	0	0	300	300	0	0	739	50	1	0	helfen	ehrlich	schlau	lachen	treu	freundlich	hindern	eitel	schroff	leiden	tot	fanatisch	retten	spielen	schön	loyal	tolerant	fair	rächen	strafen	schlecht	lasch	tyrannisch	faul	1	blank2r.bmp	0	1	+	0	1	blank2r.bmp	500	3	B3r.bmp	500	1	blank2r.bmp	880	5	tolerant	880	0	0	0	0	0	0	0	0	0	0	0	0
2024-06-20	12:03:44	12:07:41	235917	6.6.1	4_exp_EVA_AWA_CON	92	B	A	Rpleas_acq	Oppo	Rpleas	2pleas	acq_US_pleas_nomask	acq1_nomask	1	10	0	0	300	300	0	0	550	50	1	0	helfen	ehrlich	schlau	lachen	treu	freundlich	hindern	eitel	schroff	leiden	tot	fanatisch	retten	spielen	schön	loyal	tolerant	fair	rächen	strafen	schlecht	lasch	tyrannisch	faul	1	blank2r.bmp	0	1	+	0	1	blank2r.bmp	500	1	GKQX	500	1	blank2r.bmp	880	1	helfen	880	0	0	0	0	0	0	0	0	0	0	0	0
2024-06-20	12:03:44	12:07:43	238116	6.6.1	4_exp_EVA_AWA_CON	92	B	A	Rpleas_acq	Oppo	Rpleas	2pleas	acq_US_pleas_nomask	acq1_nomask	1	11	0	0	300	300	0	0	719	50	1	0	helfen	ehrlich	schlau	lachen	treu	freundlich	hindern	eitel	schroff	leiden	tot	fanatisch	retten	spielen	schön	loyal	tolerant	fair	rächen	strafen	schlecht	lasch	tyrannisch	faul	1	blank2r.bmp	0	1	+	0	1	blank2r.bmp	500	1	GKQX	500	1	blank2r.bmp	880	5	treu	880	0	0	0	0	0	0	0	0	0	0	0	0
2024-06-20	12:03:44	12:07:46	240356	6.6.1	4_exp_EVA_AWA_CON	92	B	A	Rpleas_acq	Oppo	Rpleas	2pleas	acq_US_pleas_nomask	acq1_nomask	1	12	0	0	300	300	0	0	757	50	1	0	helfen	ehrlich	schlau	lachen	treu	freundlich	hindern	eitel	schroff	leiden	tot	fanatisch	retten	spielen	schön	loyal	tolerant	fair	rächen	strafen	schlecht	lasch	tyrannisch	faul	1	blank2r.bmp	0	1	+	0	1	blank2r.bmp	500	1	GKQX	500	1	blank2r.bmp	880	4	lachen	880	0	0	0	0	0	0	0	0	0	0	0	0
2024-06-20	12:03:44	12:07:48	242484	6.6.1	4_exp_EVA_AWA_CON	92	B	A	Rpleas_acq	Oppo	Rpleas	2pleas	acq_new_pleas_nomask	acq1_nomask	1	13	0	0	300	300	0	0	643	50	1	0	helfen	ehrlich	schlau	lachen	treu	freundlich	hindern	eitel	schroff	leiden	tot	fanatisch	retten	spielen	schön	loyal	tolerant	fair	rächen	strafen	schlecht	lasch	tyrannisch	faul	1	blank2r.bmp	0	1	+	0	1	blank2r.bmp	500	1	B1r.bmp	500	1	blank2r.bmp	880	3	schön	880	0	0	0	0	0	0	0	0	0	0	0	0
2024-06-20	12:03:44	12:07:50	244868	6.6.1	4_exp_EVA_AWA_CON	92	B	A	Rpleas_acq	Oppo	Rpleas	2pleas	acq_US_unple_nomask	acq1_nomask	1	14	0	0	300	300	0	0	896	46	1	0	helfen	ehrlich	schlau	lachen	treu	freundlich	hindern	eitel	schroff	leiden	tot	fanatisch	retten	spielen	schön	loyal	tolerant	fair	rächen	strafen	schlecht	lasch	tyrannisch	faul	1	blank2r.bmp	0	1	+	0	1	blank2r.bmp	500	1	BMVZ	500	1	blank2r.bmp	880	3	schroff	880	0	0	0	0	0	0	0	0	0	0	0	0
2024-06-20	12:03:44	12:07:53	247428	6.6.1	4_exp_EVA_AWA_CON	92	B	A	Rpleas_acq	Oppo	Rpleas	2pleas	acq_US_pleas_nomask	acq1_nomask	1	15	0	0	300	300	0	0	1074	50	1	0	helfen	ehrlich	schlau	lachen	treu	freundlich	hindern	eitel	schroff	leiden	tot	fanatisch	retten	spielen	schön	loyal	tolerant	fair	rächen	strafen	schlecht	lasch	tyrannisch	faul	1	blank2r.bmp	0	1	+	0	1	blank2r.bmp	500	1	GKQX	500	1	blank2r.bmp	880	3	schlau	880	0	0	0	0	0	0	0	0	0	0	0	0
2024-06-20	12:03:44	12:07:55	249652	6.6.1	4_exp_EVA_AWA_CON	92	B	A	Rpleas_acq	Oppo	Rpleas	2pleas	acq_US_pleas_nomask	acq1_nomask	1	16	0	0	300	300	0	0	737	50	1	0	helfen	ehrlich	schlau	lachen	treu	freundlich	hindern	eitel	schroff	leiden	tot	fanatisch	retten	spielen	schön	loyal	tolerant	fair	rächen	strafen	schlecht	lasch	tyrannisch	faul	1	blank2r.bmp	0	1	+	0	1	blank2r.bmp	500	1	GKQX	500	1	blank2r.bmp	880	6	freundlich	880	0	0	0	0	0	0	0	0	0	0	0	0
2024-06-20	12:03:44	12:07:57	251940	6.6.1	4_exp_EVA_AWA_CON	92	B	A	Rpleas_acq	Oppo	Rpleas	2pleas	acq_US_unple_nomask	acq1_nomask	1	17	0	0	300	300	0	0	804	46	1	0	helfen	ehrlich	schlau	lachen	treu	freundlich	hindern	eitel	schroff	leiden	tot	fanatisch	retten	spielen	schön	loyal	tolerant	fair	rächen	strafen	schlecht	lasch	tyrannisch	faul	1	blank2r.bmp	0	1	+	0	1	blank2r.bmp	500	1	BMVZ	500	1	blank2r.bmp	880	4	leiden	880	0	0	0	0	0	0	0	0	0	0	0	0
2024-06-20	12:03:44	12:08:00	254340	6.6.1	4_exp_EVA_AWA_CON	92	B	A	Rpleas_acq	Oppo	Rpleas	2pleas	acq_new_unple_nomask	acq1_nomask	1	18	0	0	300	300	0	0	913	46	1	0	helfen	ehrlich	schlau	lachen	treu	freundlich	hindern	eitel	schroff	leiden	tot	fanatisch	retten	spielen	schön	loyal	tolerant	fair	rächen	strafen	schlecht	lasch	tyrannisch	faul	1	blank2r.bmp	0	1	+	0	1	blank2r.bmp	500	8	C4r.bmp	500	1	blank2r.bmp	880	2	strafen	880	0	0	0	0	0	0	0	0	0	0	0	0
2024-06-20	12:03:44	12:08:02	256781	6.6.1	4_exp_EVA_AWA_CON	92	B	A	Rpleas_acq	Oppo	Rpleas	2pleas	acq_new_pleas_nomask	acq1_nomask	1	19	0	0	300	300	0	0	951	50	1	0	helfen	ehrlich	schlau	lachen	treu	freundlich	hindern	eitel	schroff	leiden	tot	fanatisch	retten	spielen	schön	loyal	tolerant	fair	rächen	strafen	schlecht	lasch	tyrannisch	faul	1	blank2r.bmp	0	1	+	0	1	blank2r.bmp	500	1	B1r.bmp	500	1	blank2r.bmp	880	4	loyal	880	0	0	0	0	0	0	0	0	0	0	0	0
2024-06-20	12:03:44	12:08:04	259020	6.6.1	4_exp_EVA_AWA_CON	92	B	A	Rpleas_acq	Oppo	Rpleas	2pleas	acq_new_pleas_nomask	acq1_nomask	1	20	0	0	300	300	0	0	759	50	1	0	helfen	ehrlich	schlau	lachen	treu	freundlich	hindern	eitel	schroff	leiden	tot	fanatisch	retten	spielen	schön	loyal	tolerant	fair	rächen	strafen	schlecht	lasch	tyrannisch	faul	1	blank2r.bmp	0	1	+	0	1	blank2r.bmp	500	2	B2r.bmp	500	1	blank2r.bmp	880	1	retten	880	0	0	0	0	0	0	0	0	0	0	0	0
2024-06-20	12:03:44	12:08:07	261868	6.6.1	4_exp_EVA_AWA_CON	92	B	A	Rpleas_acq	Oppo	Rpleas	2pleas	acq_US_pleas_nomask	acq1_nomask	1	21	0	0	300	300	0	0	1365	50	1	0	helfen	ehrlich	schlau	lachen	treu	freundlich	hindern	eitel	schroff	leiden	tot	fanatisch	retten	spielen	schön	loyal	tolerant	fair	rächen	strafen	schlecht	lasch	tyrannisch	faul	1	blank2r.bmp	0	1	+	0	1	blank2r.bmp	500	1	GKQX	500	1	blank2r.bmp	880	2	ehrlich	880	0	0	0	0	0	0	0	0	0	0	0	0
2024-06-20	12:03:44	12:08:09	264052	6.6.1	4_exp_EVA_AWA_CON	92	B	A	Rpleas_acq	Oppo	Rpleas	2pleas	acq_new_unple_nomask	acq1_nomask	1	22	0	0	300	300	0	0	698	46	1	0	helfen	ehrlich	schlau	lachen	treu	freundlich	hindern	eitel	schroff	leiden	tot	fanatisch	retten	spielen	schön	loyal	tolerant	fair	rächen	strafen	schlecht	lasch	tyrannisch	faul	1	blank2r.bmp	0	1	+	0	1	blank2r.bmp	500	4	B4r.bmp	500	1	blank2r.bmp	880	6	faul	880	0	0	0	0	0	0	0	0	0	0	0	0
2024-06-20	12:03:44	12:08:13	267988	6.6.1	4_exp_EVA_AWA_CON	92	B	A	Rpleas_acq	Oppo	Rpleas	2pleas	acq_US_unple_nomask	acq1_nomask	1	23	0	0	300	300	0	0	2452	46	1	0	helfen	ehrlich	schlau	lachen	treu	freundlich	hindern	eitel	schroff	leiden	tot	fanatisch	retten	spielen	schön	loyal	tolerant	fair	rächen	strafen	schlecht	lasch	tyrannisch	faul	1	blank2r.bmp	0	1	+	0	1	blank2r.bmp	500	1	BMVZ	500	1	blank2r.bmp	880	5	tot	880	0	0	0	0	0	0	0	0	0	0	0	0
2024-06-20	12:03:44	12:08:15	270172	6.6.1	4_exp_EVA_AWA_CON	92	B	A	Rpleas_acq	Oppo	Rpleas	2pleas	acq_new_unple_nomask	acq1_nomask	1	24	0	0	300	300	0	0	703	46	1	0	helfen	ehrlich	schlau	lachen	treu	freundlich	hindern	eitel	schroff	leiden	tot	fanatisch	retten	spielen	schön	loyal	tolerant	fair	rächen	strafen	schlecht	lasch	tyrannisch	faul	1	blank2r.bmp	0	1	+	0	1	blank2r.bmp	500	6	C2r.bmp	500	1	blank2r.bmp	880	5	tyrannisch	880	0	0	0	0	0	0	0	0	0	0	0	0
2024-06-20	12:03:44	12:08:18	272404	6.6.1	4_exp_EVA_AWA_CON	92	B	A	Rpleas_acq	Oppo	Rpleas	2pleas	acq_new_pleas_nomask	acq1_nomask	1	25	0	0	300	300	0	0	744	50	1	0	helfen	ehrlich	schlau	lachen	treu	freundlich	hindern	eitel	schroff	leiden	tot	fanatisch	retten	spielen	schön	loyal	tolerant	fair	rächen	strafen	schlecht	lasch	tyrannisch	faul	1	blank2r.bmp	0	1	+	0	1	blank2r.bmp	500	5	C1r.bmp	500	1	blank2r.bmp	880	5	tolerant	880	0	0	0	0	0	0	0	0	0	0	0	0
2024-06-20	12:03:44	12:08:20	274653	6.6.1	4_exp_EVA_AWA_CON	92	B	A	Rpleas_acq	Oppo	Rpleas	2pleas	acq_US_unple_nomask	acq1_nomask	1	26	0	0	300	300	0	0	761	46	1	0	helfen	ehrlich	schlau	lachen	treu	freundlich	hindern	eitel	schroff	leiden	tot	fanatisch	retten	spielen	schön	loyal	tolerant	fair	rächen	strafen	schlecht	lasch	tyrannisch	faul	1	blank2r.bmp	0	1	+	0	1	blank2r.bmp	500	1	BMVZ	500	1	blank2r.bmp	880	4	leiden	880	0	0	0	0	0	0	0	0	0	0	0	0
2024-06-20	12:03:44	12:08:22	276796	6.6.1	4_exp_EVA_AWA_CON	92	B	A	Rpleas_acq	Oppo	Rpleas	2pleas	acq_new_unple_nomask	acq1_nomask	1	27	0	0	300	300	0	0	664	46	1	0	helfen	ehrlich	schlau	lachen	treu	freundlich	hindern	eitel	schroff	leiden	tot	fanatisch	retten	spielen	schön	loyal	tolerant	fair	rächen	strafen	schlecht	lasch	tyrannisch	faul	1	blank2r.bmp	0	1	+	0	1	blank2r.bmp	500	3	B3r.bmp	500	1	blank2r.bmp	880	1	rächen	880	0	0	0	0	0	0	0	0	0	0	0	0
2024-06-20	12:03:44	12:08:25	279740	6.6.1	4_exp_EVA_AWA_CON	92	B	A	Rpleas_acq	Oppo	Rpleas	2pleas	acq_US_pleas_nomask	acq1_nomask	1	28	0	0	300	300	0	0	1456	50	1	0	helfen	ehrlich	schlau	lachen	treu	freundlich	hindern	eitel	schroff	leiden	tot	fanatisch	retten	spielen	schön	loyal	tolerant	fair	rächen	strafen	schlecht	lasch	tyrannisch	faul	1	blank2r.bmp	0	1	+	0	1	blank2r.bmp	500	1	GKQX	500	1	blank2r.bmp	880	2	ehrlich	880	0	0	0	0	0	0	0	0	0	0	0	0
2024-06-20	12:03:44	12:08:27	281804	6.6.1	4_exp_EVA_AWA_CON	92	B	A	Rpleas_acq	Oppo	Rpleas	2pleas	acq_US_unple_nomask	acq1_nomask	1	29	0	0	300	300	0	0	578	46	1	0	helfen	ehrlich	schlau	lachen	treu	freundlich	hindern	eitel	schroff	leiden	tot	fanatisch	retten	spielen	schön	loyal	tolerant	fair	rächen	strafen	schlecht	lasch	tyrannisch	faul	1	blank2r.bmp	0	1	+	0	1	blank2r.bmp	500	1	BMVZ	500	1	blank2r.bmp	880	1	hindern	880	0	0	0	0	0	0	0	0	0	0	0	0
2024-06-20	12:03:44	12:08:30	284292	6.6.1	4_exp_EVA_AWA_CON	92	B	A	Rpleas_acq	Oppo	Rpleas	2pleas	acq_US_pleas_nomask	acq1_nomask	1	30	0	0	300	300	0	0	1004	50	1	0	helfen	ehrlich	schlau	lachen	treu	freundlich	hindern	eitel	schroff	leiden	tot	fanatisch	retten	spielen	schön	loyal	tolerant	fair	rächen	strafen	schlecht	lasch	tyrannisch	faul	1	blank2r.bmp	0	1	+	0	1	blank2r.bmp	500	1	GKQX	500	1	blank2r.bmp	880	6	freundlich	880	0	0	0	0	0	0	0	0	0	0	0	0
2024-06-20	12:03:44	12:08:32	286460	6.6.1	4_exp_EVA_AWA_CON	92	B	A	Rpleas_acq	Oppo	Rpleas	2pleas	acq_new_pleas_nomask	acq1_nomask	1	31	0	0	300	300	0	0	682	50	1	0	helfen	ehrlich	schlau	lachen	treu	freundlich	hindern	eitel	schroff	leiden	tot	fanatisch	retten	spielen	schön	loyal	tolerant	fair	rächen	strafen	schlecht	lasch	tyrannisch	faul	1	blank2r.bmp	0	1	+	0	1	blank2r.bmp	500	8	C4r.bmp	500	1	blank2r.bmp	880	6	fair	880	0	0	0	0	0	0	0	0	0	0	0	0
2024-06-20	12:03:44	12:08:34	288581	6.6.1	4_exp_EVA_AWA_CON	92	B	A	Rpleas_acq	Oppo	Rpleas	2pleas	acq_new_unple_nomask	acq1_nomask	1	32	0	0	300	300	0	0	640	46	1	0	helfen	ehrlich	schlau	lachen	treu	freundlich	hindern	eitel	schroff	leiden	tot	fanatisch	retten	spielen	schön	loyal	tolerant	fair	rächen	strafen	schlecht	lasch	tyrannisch	faul	1	blank2r.bmp	0	1	+	0	1	blank2r.bmp	500	7	C3r.bmp	500	1	blank2r.bmp	880	6	faul	880	0	0	0	0	0	0	0	0	0	0	0	0
2024-06-20	12:03:44	12:08:36	290853	6.6.1	4_exp_EVA_AWA_CON	92	B	A	Rpleas_acq	Oppo	Rpleas	2pleas	acq_US_unple_nomask	acq1_nomask	1	33	0	0	300	300	0	0	790	46	1	0	helfen	ehrlich	schlau	lachen	treu	freundlich	hindern	eitel	schroff	leiden	tot	fanatisch	retten	spielen	schön	loyal	tolerant	fair	rächen	strafen	schlecht	lasch	tyrannisch	faul	1	blank2r.bmp	0	1	+	0	1	blank2r.bmp	500	1	BMVZ	500	1	blank2r.bmp	880	2	eitel	880	0	0	0	0	0	0	0	0	0	0	0	0
2024-06-20	12:03:44	12:08:38	293084	6.6.1	4_exp_EVA_AWA_CON	92	B	A	Rpleas_acq	Oppo	Rpleas	2pleas	acq_new_pleas_nomask	acq1_nomask	1	34	0	0	300	300	0	0	751	50	1	0	helfen	ehrlich	schlau	lachen	treu	freundlich	hindern	eitel	schroff	leiden	tot	fanatisch	retten	spielen	schön	loyal	tolerant	fair	rächen	strafen	schlecht	lasch	tyrannisch	faul	1	blank2r.bmp	0	1	+	0	1	blank2r.bmp	500	8	C4r.bmp	500	1	blank2r.bmp	880	2	spielen	880	0	0	0	0	0	0	0	0	0	0	0	0
2024-06-20	12:03:44	12:08:40	295156	6.6.1	4_exp_EVA_AWA_CON	92	B	A	Rpleas_acq	Oppo	Rpleas	2pleas	acq_US_pleas_nomask	acq1_nomask	1	35	0	0	300	300	0	0	591	50	1	0	helfen	ehrlich	schlau	lachen	treu	freundlich	hindern	eitel	schroff	leiden	tot	fanatisch	retten	spielen	schön	loyal	tolerant	fair	rächen	strafen	schlecht	lasch	tyrannisch	faul	1	blank2r.bmp	0	1	+	0	1	blank2r.bmp	500	1	GKQX	500	1	blank2r.bmp	880	3	schlau	880	0	0	0	0	0	0	0	0	0	0	0	0
2024-06-20	12:03:44	12:08:44	298308	6.6.1	4_exp_EVA_AWA_CON	92	B	A	Rpleas_acq	Oppo	Rpleas	2pleas	acq_new_unple_nomask	acq1_nomask	1	36	0	0	300	300	0	0	1662	46	1	0	helfen	ehrlich	schlau	lachen	treu	freundlich	hindern	eitel	schroff	leiden	tot	fanatisch	retten	spielen	schön	loyal	tolerant	fair	rächen	strafen	schlecht	lasch	tyrannisch	faul	1	blank2r.bmp	0	1	+	0	1	blank2r.bmp	500	5	C1r.bmp	500	1	blank2r.bmp	880	3	schlecht	880	0	0	0	0	0	0	0	0	0	0	0	0
2024-06-20	12:03:44	12:09:09	324086	6.6.1	4_exp_EVA_AWA_CON	92	B	A	Rpleas_acq	Oppo	Rpleas	2pleas	acq_US_unple_nomask	acq2_nomask	2	1	480	0	300	300	0	0	783	46	1	0	helfen	ehrlich	schlau	lachen	treu	freundlich	hindern	eitel	schroff	leiden	tot	fanatisch	retten	spielen	schön	loyal	tolerant	fair	rächen	strafen	schlecht	lasch	tyrannisch	faul	1	blank2r.bmp	0	1	+	0	1	blank2r.bmp	500	1	BMVZ	500	1	blank2r.bmp	880	5	tot	880	1	!	1312	1	!	-1	0	0	0	0	0	0
2024-06-20	12:03:44	12:09:12	326495	6.6.1	4_exp_EVA_AWA_CON	92	B	A	Rpleas_acq	Oppo	Rpleas	2pleas	acq_US_pleas_nomask	acq2_nomask	2	2	480	0	300	300	0	0	629	50	1	0	helfen	ehrlich	schlau	lachen	treu	freundlich	hindern	eitel	schroff	leiden	tot	fanatisch	retten	spielen	schön	loyal	tolerant	fair	rächen	strafen	schlecht	lasch	tyrannisch	faul	1	blank2r.bmp	0	1	+	0	1	blank2r.bmp	500	1	GKQX	500	1	blank2r.bmp	880	4	lachen	880	1	!	1312	1	!	-1	0	0	0	0	0	0
2024-06-20	12:03:44	12:09:14	328784	6.6.1	4_exp_EVA_AWA_CON	92	B	A	Rpleas_acq	Oppo	Rpleas	2pleas	acq_new_pleas_nomask	acq2_nomask	2	3	480	1	300	300	0	0	506	50	1	0	helfen	ehrlich	schlau	lachen	treu	freundlich	hindern	eitel	schroff	leiden	tot	fanatisch	retten	spielen	schön	loyal	tolerant	fair	rächen	strafen	schlecht	lasch	tyrannisch	faul	1	blank2r.bmp	0	1	+	0	1	blank2r.bmp	500	3	B3r.bmp	500	1	blank2r.bmp	880	1	retten	880	1	!	1312	1	!	1407	0	0	0	0	0	0
2024-06-20	12:03:44	12:09:16	331225	6.6.1	4_exp_EVA_AWA_CON	92	B	A	Rpleas_acq	Oppo	Rpleas	2pleas	acq_new_unple_nomask	acq2_nomask	2	4	480	1	300	300	0	0	464	50	0	0	helfen	ehrlich	schlau	lachen	treu	freundlich	hindern	eitel	schroff	leiden	tot	fanatisch	retten	spielen	schön	loyal	tolerant	fair	rächen	strafen	schlecht	lasch	tyrannisch	faul	1	blank2r.bmp	0	1	+	0	1	blank2r.bmp	500	1	B1r.bmp	500	1	blank2r.bmp	880	2	strafen	880	1	FEHLER	1658	1	!	1312	1	!	1366	0	0	0
2024-06-20	12:03:44	12:09:19	333272	6.6.1	4_exp_EVA_AWA_CON	92	B	A	Rpleas_acq	Oppo	Rpleas	2pleas	acq_new_pleas_nomask	acq2_nomask	2	5	480	1	300	300	0	0	471	50	1	0	helfen	ehrlich	schlau	lachen	treu	freundlich	hindern	eitel	schroff	leiden	tot	fanatisch	retten	spielen	schön	loyal	tolerant	fair	rächen	strafen	schlecht	lasch	tyrannisch	faul	1	blank2r.bmp	0	1	+	0	1	blank2r.bmp	500	4	B4r.bmp	500	1	blank2r.bmp	880	4	loyal	880	1	!	1312	1	!	1373	0	0	0	0	0	0
2024-06-20	12:03:44	12:09:21	335568	6.6.1	4_exp_EVA_AWA_CON	92	B	A	Rpleas_acq	Oppo	Rpleas	2pleas	acq_US_pleas_nomask	acq2_nomask	2	6	480	1	300	300	0	0	515	50	1	0	helfen	ehrlich	schlau	lachen	treu	freundlich	hindern	eitel	schroff	leiden	tot	fanatisch	retten	spielen	schön	loyal	tolerant	fair	rächen	strafen	schlecht	lasch	tyrannisch	faul	1	blank2r.bmp	0	1	+	0	1	blank2r.bmp	500	1	GKQX	500	1	blank2r.bmp	880	5	treu	880	1	!	1313	1	!	1417	0	0	0	0	0	0
2024-06-20	12:03:44	12:09:23	337872	6.6.1	4_exp_EVA_AWA_CON	92	B	A	Rpleas_acq	Oppo	Rpleas	2pleas	acq_US_pleas_nomask	acq2_nomask	2	7	480	1	300	300	0	0	528	50	1	0	helfen	ehrlich	schlau	lachen	treu	freundlich	hindern	eitel	schroff	leiden	tot	fanatisch	retten	spielen	schön	loyal	tolerant	fair	rächen	strafen	schlecht	lasch	tyrannisch	faul	1	blank2r.bmp	0	1	+	0	1	blank2r.bmp	500	1	GKQX	500	1	blank2r.bmp	880	1	helfen	880	1	!	1312	1	!	1430	0	0	0	0	0	0
2024-06-20	12:03:44	12:09:25	340184	6.6.1	4_exp_EVA_AWA_CON	92	B	A	Rpleas_acq	Oppo	Rpleas	2pleas	acq_new_unple_nomask	acq2_nomask	2	8	480	1	300	300	0	0	529	46	1	0	helfen	ehrlich	schlau	lachen	treu	freundlich	hindern	eitel	schroff	leiden	tot	fanatisch	retten	spielen	schön	loyal	tolerant	fair	rächen	strafen	schlecht	lasch	tyrannisch	faul	1	blank2r.bmp	0	1	+	0	1	blank2r.bmp	500	7	C3r.bmp	500	1	blank2r.bmp	880	5	tyrannisch	880	1	!	1312	1	!	1430	0	0	0	0	0	0
2024-06-20	12:03:44	12:09:28	342712	6.6.1	4_exp_EVA_AWA_CON	92	B	A	Rpleas_acq	Oppo	Rpleas	2pleas	acq_new_unple_nomask	acq2_nomask	2	9	480	1	300	300	0	0	545	50	0	0	helfen	ehrlich	schlau	lachen	treu	freundlich	hindern	eitel	schroff	leiden	tot	fanatisch	retten	spielen	schön	loyal	tolerant	fair	rächen	strafen	schlecht	lasch	tyrannisch	faul	1	blank2r.bmp	0	1	+	0	1	blank2r.bmp	500	2	B2r.bmp	500	1	blank2r.bmp	880	4	lasch	880	1	FEHLER	1738	1	!	1312	1	!	1447	0	0	0
2024-06-20	12:03:44	12:09:30	344953	6.6.1	4_exp_EVA_AWA_CON	92	B	A	Rpleas_acq	Oppo	Rpleas	2pleas	acq_US_unple_nomask	acq2_nomask	2	10	480	1	300	300	0	0	464	50	0	0	helfen	ehrlich	schlau	lachen	treu	freundlich	hindern	eitel	schroff	leiden	tot	fanatisch	retten	spielen	schön	loyal	tolerant	fair	rächen	strafen	schlecht	lasch	tyrannisch	faul	1	blank2r.bmp	0	1	+	0	1	blank2r.bmp	500	1	BMVZ	500	1	blank2r.bmp	880	6	fanatisch	880	1	FEHLER	1657	1	!	1312	1	!	1365	0	0	0
2024-06-20	12:03:44	12:09:32	347174	6.6.1	4_exp_EVA_AWA_CON	92	B	A	Rpleas_acq	Oppo	Rpleas	2pleas	acq_US_unple_nomask	acq2_nomask	2	11	480	0	300	300	0	0	646	46	1	0	helfen	ehrlich	schlau	lachen	treu	freundlich	hindern	eitel	schroff	leiden	tot	fanatisch	retten	spielen	schön	loyal	tolerant	fair	rächen	strafen	schlecht	lasch	tyrannisch	faul	1	blank2r.bmp	0	1	+	0	1	blank2r.bmp	500	1	BMVZ	500	1	blank2r.bmp	880	3	schroff	880	1	!	1312	1	!	-1	0	0	0	0	0	0
2024-06-20	12:03:44	12:09:35	349376	6.6.1	4_exp_EVA_AWA_CON	92	B	A	Rpleas_acq	Oppo	Rpleas	2pleas	acq_new_pleas_nomask	acq2_nomask	2	12	480	1	300	300	0	0	424	50	1	0	helfen	ehrlich	schlau	lachen	treu	freundlich	hindern	eitel	schroff	leiden	tot	fanatisch	retten	spielen	schön	loyal	tolerant	fair	rächen	strafen	schlecht	lasch	tyrannisch	faul	1	blank2r.bmp	0	1	+	0	1	blank2r.bmp	500	6	C2r.bmp	500	1	blank2r.bmp	880	3	schön	880	1	!	1312	1	!	1326	0	0	0	0	0	0
2024-06-20	12:03:44	12:09:37	351600	6.6.1	4_exp_EVA_AWA_CON	92	B	A	Rpleas_acq	Oppo	Rpleas	2pleas	acq_US_unple_nomask	acq2_nomask	2	13	480	1	300	300	0	0	447	46	1	0	helfen	ehrlich	schlau	lachen	treu	freundlich	hindern	eitel	schroff	leiden	tot	fanatisch	retten	spielen	schön	loyal	tolerant	fair	rächen	strafen	schlecht	lasch	tyrannisch	faul	1	blank2r.bmp	0	1	+	0	1	blank2r.bmp	500	1	BMVZ	500	1	blank2r.bmp	880	1	hindern	880	1	!	1312	1	!	1349	0	0	0	0	0	0
2024-06-20	12:03:44	12:09:39	353880	6.6.1	4_exp_EVA_AWA_CON	92	B	A	Rpleas_acq	Oppo	Rpleas	2pleas	acq_new_unple_nomask	acq2_nomask	2	14	480	1	300	300	0	0	506	46	1	0	helfen	ehrlich	schlau	lachen	treu	freundlich	hindern	eitel	schroff	leiden	tot	fanatisch	retten	spielen	schön	loyal	tolerant	fair	rächen	strafen	schlecht	lasch	tyrannisch	faul	1	blank2r.bmp	0	1	+	0	1	blank2r.bmp	500	6	C2r.bmp	500	1	blank2r.bmp	880	1	rächen	880	1	!	1313	1	!	1407	0	0	0	0	0	0
2024-06-20	12:03:44	12:09:42	356302	6.6.1	4_exp_EVA_AWA_CON	92	B	A	Rpleas_acq	Oppo	Rpleas	2pleas	acq_US_pleas_nomask	acq2_nomask	2	15	480	0	300	300	0	0	648	50	1	0	helfen	ehrlich	schlau	lachen	treu	freundlich	hindern	eitel	schroff	leiden	tot	fanatisch	retten	spielen	schön	loyal	tolerant	fair	rächen	strafen	schlecht	lasch	tyrannisch	faul	1	blank2r.bmp	0	1	+	0	1	blank2r.bmp	500	1	GKQX	500	1	blank2r.bmp	880	4	lachen	880	1	!	1312	1	!	-1	0	0	0	0	0	0
2024-06-20	12:03:44	12:09:44	358745	6.6.1	4_exp_EVA_AWA_CON	92	B	A	Rpleas_acq	Oppo	Rpleas	2pleas	acq_US_unple_nomask	acq2_nomask	2	16	480	1	300	300	0	0	467	50	0	0	helfen	ehrlich	schlau	lachen	treu	freundlich	hindern	eitel	schroff	leiden	tot	fanatisch	retten	spielen	schön	loyal	tolerant	fair	rächen	strafen	schlecht	lasch	tyrannisch	faul	1	blank2r.bmp	0	1	+	0	1	blank2r.bmp	500	1	BMVZ	500	1	blank2r.bmp	880	3	schroff	880	1	FEHLER	1660	1	!	1312	1	!	1368	0	0	0
2024-06-20	12:03:44	12:09:46	360990	6.6.1	4_exp_EVA_AWA_CON	92	B	A	Rpleas_acq	Oppo	Rpleas	2pleas	acq_US_unple_nomask	acq2_nomask	2	17	480	0	300	300	0	0	673	46	1	0	helfen	ehrlich	schlau	lachen	treu	freundlich	hindern	eitel	schroff	leiden	tot	fanatisch	retten	spielen	schön	loyal	tolerant	fair	rächen	strafen	schlecht	lasch	tyrannisch	faul	1	blank2r.bmp	0	1	+	0	1	blank2r.bmp	500	1	BMVZ	500	1	blank2r.bmp	880	5	tot	880	1	!	1313	1	!	-1	0	0	0	0	0	0
2024-06-20	12:03:44	12:09:48	363240	6.6.1	4_exp_EVA_AWA_CON	92	B	A	Rpleas_acq	Oppo	Rpleas	2pleas	acq_new_unple_nomask	acq2_nomask	2	18	480	1	300	300	0	0	470	46	1	0	helfen	ehrlich	schlau	lachen	treu	freundlich	hindern	eitel	schroff	leiden	tot	fanatisch	retten	spielen	schön	loyal	tolerant	fair	rächen	strafen	schlecht	lasch	tyrannisch	faul	1	blank2r.bmp	0	1	+	0	1	blank2r.bmp	500	4	B4r.bmp	500	1	blank2r.bmp	880	2	strafen	880	1	!	1313	1	!	1372	0	0	0	0	0	0
2024-06-20	12:03:44	12:09:51	365702	6.6.1	4_exp_EVA_AWA_CON	92	B	A	Rpleas_acq	Oppo	Rpleas	2pleas	acq_new_unple_nomask	acq2_nomask	2	19	480	0	300	300	0	0	682	46	1	0	helfen	ehrlich	schlau	lachen	treu	freundlich	hindern	eitel	schroff	leiden	tot	fanatisch	retten	spielen	schön	loyal	tolerant	fair	rächen	strafen	schlecht	lasch	tyrannisch	faul	1	blank2r.bmp	0	1	+	0	1	blank2r.bmp	500	7	C3r.bmp	500	1	blank2r.bmp	880	5	tyrannisch	880	1	!	1312	1	!	-1	0	0	0	0	0	0
2024-06-20	12:03:44	12:09:53	367895	6.6.1	4_exp_EVA_AWA_CON	92	B	A	Rpleas_acq	Oppo	Rpleas	2pleas	acq_US_pleas_nomask	acq2_nomask	2	20	480	1	300	300	0	0	414	50	1	0	helfen	ehrlich	schlau	lachen	treu	freundlich	hindern	eitel	schroff	leiden	tot	fanatisch	retten	spielen	schön	loyal	tolerant	fair	rächen	strafen	schlecht	lasch	tyrannisch	faul	1	blank2r.bmp	0	1	+	0	1	blank2r.bmp	500	1	GKQX	500	1	blank2r.bmp	880	5	treu	880	1	!	1313	1	!	1313	0	0	0	0	0	0
2024-06-20	12:03:44	12:09:56	370270	6.6.1	4_exp_EVA_AWA_CON	92	B	A	Rpleas_acq	Oppo	Rpleas	2pleas	acq_new_pleas_nomask	acq2_nomask	2	21	480	0	300	300	0	0	597	50	1	0	helfen	ehrlich	schlau	lachen	treu	freundlich	hindern	eitel	schroff	leiden	tot	fanatisch	retten	spielen	schön	loyal	tolerant	fair	rächen	strafen	schlecht	lasch	tyrannisch	faul	1	blank2r.bmp	0	1	+	0	1	blank2r.bmp	500	5	C1r.bmp	500	1	blank2r.bmp	880	5	tolerant	880	1	!	1312	1	!	-1	0	0	0	0	0	0
2024-06-20	12:03:44	12:09:58	372615	6.6.1	4_exp_EVA_AWA_CON	92	B	A	Rpleas_acq	Oppo	Rpleas	2pleas	acq_new_pleas_nomask	acq2_nomask	2	22	480	0	300	300	0	0	570	50	1	0	helfen	ehrlich	schlau	lachen	treu	freundlich	hindern	eitel	schroff	leiden	tot	fanatisch	retten	spielen	schön	loyal	tolerant	fair	rächen	strafen	schlecht	lasch	tyrannisch	faul	1	blank2r.bmp	0	1	+	0	1	blank2r.bmp	500	3	B3r.bmp	500	1	blank2r.bmp	880	6	fair	880	1	!	1312	1	!	-1	0	0	0	0	0	0
2024-06-20	12:03:44	12:10:00	374936	6.6.1	4_exp_EVA_AWA_CON	92	B	A	Rpleas_acq	Oppo	Rpleas	2pleas	acq_US_pleas_nomask	acq2_nomask	2	23	480	1	300	300	0	0	538	50	1	0	helfen	ehrlich	schlau	lachen	treu	freundlich	hindern	eitel	schroff	leiden	tot	fanatisch	retten	spielen	schön	loyal	tolerant	fair	rächen	strafen	schlecht	lasch	tyrannisch	faul	1	blank2r.bmp	0	1	+	0	1	blank2r.bmp	500	1	GKQX	500	1	blank2r.bmp	880	1	helfen	880	1	!	1312	1	!	1440	0	0	0	0	0	0
2024-06-20	12:03:44	12:10:02	377256	6.6.1	4_exp_EVA_AWA_CON	92	B	A	Rpleas_acq	Oppo	Rpleas	2pleas	acq_new_pleas_nomask	acq2_nomask	2	24	480	1	300	300	0	0	537	50	1	0	helfen	ehrlich	schlau	lachen	treu	freundlich	hindern	eitel	schroff	leiden	tot	fanatisch	retten	spielen	schön	loyal	tolerant	fair	rächen	strafen	schlecht	lasch	tyrannisch	faul	1	blank2r.bmp	0	1	+	0	1	blank2r.bmp	500	2	B2r.bmp	500	1	blank2r.bmp	880	2	spielen	880	1	!	1313	1	!	1438	0	0	0	0	0	0
2024-06-20	12:03:44	12:10:05	379777	6.6.1	4_exp_EVA_AWA_CON	92	B	A	Rpleas_acq	Oppo	Rpleas	2pleas	acq_new_unple_nomask	acq2_nomask	2	25	480	1	300	300	0	0	545	50	0	0	helfen	ehrlich	schlau	lachen	treu	freundlich	hindern	eitel	schroff	leiden	tot	fanatisch	retten	spielen	schön	loyal	tolerant	fair	rächen	strafen	schlecht	lasch	tyrannisch	faul	1	blank2r.bmp	0	1	+	0	1	blank2r.bmp	500	8	C4r.bmp	500	1	blank2r.bmp	880	4	lasch	880	1	FEHLER	1739	1	!	1313	1	!	1447	0	0	0
2024-06-20	12:03:44	12:10:07	381881	6.6.1	4_exp_EVA_AWA_CON	92	B	A	Rpleas_acq	Oppo	Rpleas	2pleas	acq_new_pleas_nomask	acq2_nomask	2	26	480	1	300	300	0	0	528	50	1	0	helfen	ehrlich	schlau	lachen	treu	freundlich	hindern	eitel	schroff	leiden	tot	fanatisch	retten	spielen	schön	loyal	tolerant	fair	rächen	strafen	schlecht	lasch	tyrannisch	faul	1	blank2r.bmp	0	1	+	0	1	blank2r.bmp	500	1	B1r.bmp	500	1	blank2r.bmp	880	1	retten	880	1	!	1313	1	!	1430	0	0	0	0	0	0
2024-06-20	12:03:44	12:10:09	384213	6.6.1	4_exp_EVA_AWA_CON	92	B	A	Rpleas_acq	Oppo	Rpleas	2pleas	acq_US_pleas_nomask	acq2_nomask	2	27	480	0	300	300	0	0	553	50	1	0	helfen	ehrlich	schlau	lachen	treu	freundlich	hindern	eitel	schroff	leiden	tot	fanatisch	retten	spielen	schön	loyal	tolerant	fair	rächen	strafen	schlecht	lasch	tyrannisch	faul	1	blank2r.bmp	0	1	+	0	1	blank2r.bmp	500	1	GKQX	500	1	blank2r.bmp	880	3	schlau	880	1	!	1313	1	!	-1	0	0	0	0	0	0
2024-06-20	12:03:44	12:10:12	386520	6.6.1	4_exp_EVA_AWA_CON	92	B	A	Rpleas_acq	Oppo	Rpleas	2pleas	acq_US_pleas_nomask	acq2_nomask	2	28	480	1	300	300	0	0	525	50	1	0	helfen	ehrlich	schlau	lachen	treu	freundlich	hindern	eitel	schroff	leiden	tot	fanatisch	retten	spielen	schön	loyal	tolerant	fair	rächen	strafen	schlecht	lasch	tyrannisch	faul	1	blank2r.bmp	0	1	+	0	1	blank2r.bmp	500	1	GKQX	500	1	blank2r.bmp	880	2	ehrlich	880	1	!	1312	1	!	1426	0	0	0	0	0	0
2024-06-20	12:03:44	12:10:14	388895	6.6.1	4_exp_EVA_AWA_CON	92	B	A	Rpleas_acq	Oppo	Rpleas	2pleas	acq_new_pleas_nomask	acq2_nomask	2	29	480	0	300	300	0	0	599	50	1	0	helfen	ehrlich	schlau	lachen	treu	freundlich	hindern	eitel	schroff	leiden	tot	fanatisch	retten	spielen	schön	loyal	tolerant	fair	rächen	strafen	schlecht	lasch	tyrannisch	faul	1	blank2r.bmp	0	1	+	0	1	blank2r.bmp	500	1	B1r.bmp	500	1	blank2r.bmp	880	4	loyal	880	1	!	1312	1	!	-1	0	0	0	0	0	0
2024-06-20	12:03:44	12:10:17	391278	6.6.1	4_exp_EVA_AWA_CON	92	B	A	Rpleas_acq	Oppo	Rpleas	2pleas	acq_new_unple_nomask	acq2_nomask	2	30	480	0	300	300	0	0	602	46	1	0	helfen	ehrlich	schlau	lachen	treu	freundlich	hindern	eitel	schroff	leiden	tot	fanatisch	retten	spielen	schön	loyal	tolerant	fair	rächen	strafen	schlecht	lasch	tyrannisch	faul	1	blank2r.bmp	0	1	+	0	1	blank2r.bmp	500	4	B4r.bmp	500	1	blank2r.bmp	880	6	faul	880	1	!	1312	1	!	-1	0	0	0	0	0	0
2024-06-20	12:03:44	12:10:19	393552	6.6.1	4_exp_EVA_AWA_CON	92	B	A	Rpleas_acq	Oppo	Rpleas	2pleas	acq_US_pleas_nomask	acq2_nomask	2	31	480	1	300	300	0	0	492	50	1	0	helfen	ehrlich	schlau	lachen	treu	freundlich	hindern	eitel	schroff	leiden	tot	fanatisch	retten	spielen	schön	loyal	tolerant	fair	rächen	strafen	schlecht	lasch	tyrannisch	faul	1	blank2r.bmp	0	1	+	0	1	blank2r.bmp	500	1	GKQX	500	1	blank2r.bmp	880	6	freundlich	880	1	!	1312	1	!	1394	0	0	0	0	0	0
2024-06-20	12:03:44	12:10:21	395808	6.6.1	4_exp_EVA_AWA_CON	92	B	A	Rpleas_acq	Oppo	Rpleas	2pleas	acq_new_unple_nomask	acq2_nomask	2	32	480	1	300	300	0	0	477	46	1	0	helfen	ehrlich	schlau	lachen	treu	freundlich	hindern	eitel	schroff	leiden	tot	fanatisch	retten	spielen	schön	loyal	tolerant	fair	rächen	strafen	schlecht	lasch	tyrannisch	faul	1	blank2r.bmp	0	1	+	0	1	blank2r.bmp	500	2	B2r.bmp	500	1	blank2r.bmp	880	3	schlecht	880	1	!	1313	1	!	1378	0	0	0	0	0	0
2024-06-20	12:03:44	12:10:23	398128	6.6.1	4_exp_EVA_AWA_CON	92	B	A	Rpleas_acq	Oppo	Rpleas	2pleas	acq_US_unple_nomask	acq2_nomask	2	33	480	1	300	300	0	0	545	46	1	0	helfen	ehrlich	schlau	lachen	treu	freundlich	hindern	eitel	schroff	leiden	tot	fanatisch	retten	spielen	schön	loyal	tolerant	fair	rächen	strafen	schlecht	lasch	tyrannisch	faul	1	blank2r.bmp	0	1	+	0	1	blank2r.bmp	500	1	BMVZ	500	1	blank2r.bmp	880	2	eitel	880	1	!	1312	1	!	1447	0	0	0	0	0	0
2024-06-20	12:03:44	12:10:26	400460	6.6.1	4_exp_EVA_AWA_CON	92	B	A	Rpleas_acq	Oppo	Rpleas	2pleas	acq_US_unple_nomask	acq2_nomask	2	34	480	0	300	300	0	0	560	46	1	0	helfen	ehrlich	schlau	lachen	treu	freundlich	hindern	eitel	schroff	leiden	tot	fanatisch	retten	spielen	schön	loyal	tolerant	fair	rächen	strafen	schlecht	lasch	tyrannisch	faul	1	blank2r.bmp	0	1	+	0	1	blank2r.bmp	500	1	BMVZ	500	1	blank2r.bmp	880	4	leiden	880	1	!	1313	1	!	-1	0	0	0	0	0	0
2024-06-20	12:03:44	12:10:28	402760	6.6.1	4_exp_EVA_AWA_CON	92	B	A	Rpleas_acq	Oppo	Rpleas	2pleas	acq_new_pleas_nomask	acq2_nomask	2	35	480	1	300	300	0	0	524	50	1	0	helfen	ehrlich	schlau	lachen	treu	freundlich	hindern	eitel	schroff	leiden	tot	fanatisch	retten	spielen	schön	loyal	tolerant	fair	rächen	strafen	schlecht	lasch	tyrannisch	faul	1	blank2r.bmp	0	1	+	0	1	blank2r.bmp	500	8	C4r.bmp	500	1	blank2r.bmp	880	3	schön	880	1	!	1312	1	!	1426	0	0	0	0	0	0
2024-06-20	12:03:44	12:10:30	405262	6.6.1	4_exp_EVA_AWA_CON	92	B	A	Rpleas_acq	Oppo	Rpleas	2pleas	acq_US_unple_nomask	acq2_nomask	2	36	480	0	300	300	0	0	727	46	1	0	helfen	ehrlich	schlau	lachen	treu	freundlich	hindern	eitel	schroff	leiden	tot	fanatisch	retten	spielen	schön	loyal	tolerant	fair	rächen	strafen	schlecht	lasch	tyrannisch	faul	1	blank2r.bmp	0	1	+	0	1	blank2r.bmp	500	1	BMVZ	500	1	blank2r.bmp	880	6	fanatisch	880	1	!	1312	1	!	-1	0	0	0	0	0	0
2024-06-20	12:03:44	12:10:52	426758	6.6.1	4_exp_EVA_AWA_CON	92	B	A	Rpleas_acq	Oppo	Rpleas	2pleas	acq_US_pleas_nomask	acq3_nomask	3	1	453	0	300	300	0	0	579	50	1	0	helfen	ehrlich	schlau	lachen	treu	freundlich	hindern	eitel	schroff	leiden	tot	fanatisch	retten	spielen	schön	loyal	tolerant	fair	rächen	strafen	schlecht	lasch	tyrannisch	faul	1	blank2r.bmp	0	1	+	0	1	blank2r.bmp	500	1	GKQX	500	1	blank2r.bmp	880	6	freundlich	880	1	!	1293	1	!	-1	0	0	0	0	0	0
2024-06-20	12:03:44	12:10:54	429154	6.6.1	4_exp_EVA_AWA_CON	92	B	A	Rpleas_acq	Oppo	Rpleas	2pleas	acq_US_pleas_nomask	acq3_nomask	3	2	453	1	300	300	0	0	420	46	0	0	helfen	ehrlich	schlau	lachen	treu	freundlich	hindern	eitel	schroff	leiden	tot	fanatisch	retten	spielen	schön	loyal	tolerant	fair	rächen	strafen	schlecht	lasch	tyrannisch	faul	1	blank2r.bmp	0	1	+	0	1	blank2r.bmp	500	1	GKQX	500	1	blank2r.bmp	880	1	helfen	880	1	FEHLER	1614	1	!	1293	1	!	1322	0	0	0
2024-06-20	12:03:44	12:10:56	431240	6.6.1	4_exp_EVA_AWA_CON	92	B	A	Rpleas_acq	Oppo	Rpleas	2pleas	acq_US_unple_nomask	acq3_nomask	3	3	453	1	300	300	0	0	506	46	1	0	helfen	ehrlich	schlau	lachen	treu	freundlich	hindern	eitel	schroff	leiden	tot	fanatisch	retten	spielen	schön	loyal	tolerant	fair	rächen	strafen	schlecht	lasch	tyrannisch	faul	1	blank2r.bmp	0	1	+	0	1	blank2r.bmp	500	1	BMVZ	500	1	blank2r.bmp	880	3	schroff	880	1	!	1292	1	!	1407	0	0	0	0	0	0
2024-06-20	12:03:44	12:10:59	433582	6.6.1	4_exp_EVA_AWA_CON	92	B	A	Rpleas_acq	Oppo	Rpleas	2pleas	acq_US_unple_nomask	acq3_nomask	3	4	453	0	300	300	0	0	569	46	1	0	helfen	ehrlich	schlau	lachen	treu	freundlich	hindern	eitel	schroff	leiden	tot	fanatisch	retten	spielen	schön	loyal	tolerant	fair	rächen	strafen	schlecht	lasch	tyrannisch	faul	1	blank2r.bmp	0	1	+	0	1	blank2r.bmp	500	1	BMVZ	500	1	blank2r.bmp	880	6	fanatisch	880	1	!	1292	1	!	-1	0	0	0	0	0	0
2024-06-20	12:03:44	12:11:01	436009	6.6.1	4_exp_EVA_AWA_CON	92	B	A	Rpleas_acq	Oppo	Rpleas	2pleas	acq_US_unple_nomask	acq3_nomask	3	5	453	1	300	300	0	0	451	50	0	0	helfen	ehrlich	schlau	lachen	treu	freundlich	hindern	eitel	schroff	leiden	tot	fanatisch	retten	spielen	schön	loyal	tolerant	fair	rächen	strafen	schlecht	lasch	tyrannisch	faul	1	blank2r.bmp	0	1	+	0	1	blank2r.bmp	500	1	BMVZ	500	1	blank2r.bmp	880	2	eitel	880	1	FEHLER	1645	1	!	1293	1	!	1353	0	0	0
2024-06-20	12:03:44	12:11:03	438116	6.6.1	4_exp_EVA_AWA_CON	92	B	A	Rpleas_acq	Oppo	Rpleas	2pleas	acq_US_pleas_nomask	acq3_nomask	3	6	453	0	300	300	0	0	532	50	1	0	helfen	ehrlich	schlau	lachen	treu	freundlich	hindern	eitel	schroff	leiden	tot	fanatisch	retten	spielen	schön	loyal	tolerant	fair	rächen	strafen	schlecht	lasch	tyrannisch	faul	1	blank2r.bmp	0	1	+	0	1	blank2r.bmp	500	1	GKQX	500	1	blank2r.bmp	880	3	schlau	880	1	!	1292	1	!	-1	0	0	0	0	0	0
2024-06-20	12:03:44	12:11:06	440376	6.6.1	4_exp_EVA_AWA_CON	92	B	A	Rpleas_acq	Oppo	Rpleas	2pleas	acq_US_unple_nomask	acq3_nomask	3	7	453	1	300	300	0	0	476	46	1	0	helfen	ehrlich	schlau	lachen	treu	freundlich	hindern	eitel	schroff	leiden	tot	fanatisch	retten	spielen	schön	loyal	tolerant	fair	rächen	strafen	schlecht	lasch	tyrannisch	faul	1	blank2r.bmp	0	1	+	0	1	blank2r.bmp	500	1	BMVZ	500	1	blank2r.bmp	880	5	tot	880	1	!	1293	1	!	1378	0	0	0	0	0	0
2024-06-20	12:03:44	12:11:08	442742	6.6.1	4_exp_EVA_AWA_CON	92	B	A	Rpleas_acq	Oppo	Rpleas	2pleas	acq_US_unple_nomask	acq3_nomask	3	8	453	0	300	300	0	0	593	46	1	0	helfen	ehrlich	schlau	lachen	treu	freundlich	hindern	eitel	schroff	leiden	tot	fanatisch	retten	spielen	schön	loyal	tolerant	fair	rächen	strafen	schlecht	lasch	tyrannisch	faul	1	blank2r.bmp	0	1	+	0	1	blank2r.bmp	500	1	BMVZ	500	1	blank2r.bmp	880	1	hindern	880	1	!	1292	1	!	-1	0	0	0	0	0	0
2024-06-20	12:03:44	12:11:10	445062	6.6.1	4_exp_EVA_AWA_CON	92	B	A	Rpleas_acq	Oppo	Rpleas	2pleas	acq_US_pleas_nomask	acq3_nomask	3	9	453	0	300	300	0	0	541	50	1	0	helfen	ehrlich	schlau	lachen	treu	freundlich	hindern	eitel	schroff	leiden	tot	fanatisch	retten	spielen	schön	loyal	tolerant	fair	rächen	strafen	schlecht	lasch	tyrannisch	faul	1	blank2r.bmp	0	1	+	0	1	blank2r.bmp	500	1	GKQX	500	1	blank2r.bmp	880	2	ehrlich	880	1	!	1292	1	!	-1	0	0	0	0	0	0
2024-06-20	12:03:44	12:11:13	447364	6.6.1	4_exp_EVA_AWA_CON	92	B	A	Rpleas_acq	Oppo	Rpleas	2pleas	acq_US_unple_nomask	acq3_nomask	3	10	453	0	300	300	0	0	524	46	1	0	helfen	ehrlich	schlau	lachen	treu	freundlich	hindern	eitel	schroff	leiden	tot	fanatisch	retten	spielen	schön	loyal	tolerant	fair	rächen	strafen	schlecht	lasch	tyrannisch	faul	1	blank2r.bmp	0	1	+	0	1	blank2r.bmp	500	1	BMVZ	500	1	blank2r.bmp	880	4	leiden	880	1	!	1292	1	!	-1	0	0	0	0	0	0
2024-06-20	12:03:44	12:11:15	449600	6.6.1	4_exp_EVA_AWA_CON	92	B	A	Rpleas_acq	Oppo	Rpleas	2pleas	acq_US_pleas_nomask	acq3_nomask	3	11	453	1	300	300	0	0	454	50	1	0	helfen	ehrlich	schlau	lachen	treu	freundlich	hindern	eitel	schroff	leiden	tot	fanatisch	retten	spielen	schön	loyal	tolerant	fair	rächen	strafen	schlecht	lasch	tyrannisch	faul	1	blank2r.bmp	0	1	+	0	1	blank2r.bmp	500	1	GKQX	500	1	blank2r.bmp	880	5	treu	880	1	!	1292	1	!	1356	0	0	0	0	0	0
2024-06-20	12:03:44	12:11:17	452014	6.6.1	4_exp_EVA_AWA_CON	92	B	A	Rpleas_acq	Oppo	Rpleas	2pleas	acq_US_pleas_nomask	acq3_nomask	3	12	453	0	300	300	0	0	639	50	1	0	helfen	ehrlich	schlau	lachen	treu	freundlich	hindern	eitel	schroff	leiden	tot	fanatisch	retten	spielen	schön	loyal	tolerant	fair	rächen	strafen	schlecht	lasch	tyrannisch	faul	1	blank2r.bmp	0	1	+	0	1	blank2r.bmp	500	1	GKQX	500	1	blank2r.bmp	880	4	lachen	880	1	!	1292	1	!	-1	0	0	0	0	0	0
2024-06-20	12:03:44	12:11:20	454465	6.6.1	4_exp_EVA_AWA_CON	92	B	A	Rpleas_acq	Oppo	Rpleas	2pleas	acq_US_pleas_nomask	acq3_nomask	3	13	453	1	300	300	0	0	475	46	0	0	helfen	ehrlich	schlau	lachen	treu	freundlich	hindern	eitel	schroff	leiden	tot	fanatisch	retten	spielen	schön	loyal	tolerant	fair	rächen	strafen	schlecht	lasch	tyrannisch	faul	1	blank2r.bmp	0	1	+	0	1	blank2r.bmp	500	1	GKQX	500	1	blank2r.bmp	880	6	freundlich	880	1	FEHLER	1669	1	!	1292	1	!	1377	0	0	0
2024-06-20	12:03:44	12:11:22	456753	6.6.1	4_exp_EVA_AWA_CON	92	B	A	Rpleas_acq	Oppo	Rpleas	2pleas	acq_US_pleas_nomask	acq3_nomask	3	14	453	1	300	300	0	0	512	46	0	0	helfen	ehrlich	schlau	lachen	treu	freundlich	hindern	eitel	schroff	leiden	tot	fanatisch	retten	spielen	schön	loyal	tolerant	fair	rächen	strafen	schlecht	lasch	tyrannisch	faul	1	blank2r.bmp	0	1	+	0	1	blank2r.bmp	500	1	GKQX	500	1	blank2r.bmp	880	4	lachen	880	1	FEHLER	1705	1	!	1293	1	!	1413	0	0	0
2024-06-20	12:03:44	12:11:24	458878	6.6.1	4_exp_EVA_AWA_CON	92	B	A	Rpleas_acq	Oppo	Rpleas	2pleas	acq_US_unple_nomask	acq3_nomask	3	15	453	0	300	300	0	0	548	46	1	0	helfen	ehrlich	schlau	lachen	treu	freundlich	hindern	eitel	schroff	leiden	tot	fanatisch	retten	spielen	schön	loyal	tolerant	fair	rächen	strafen	schlecht	lasch	tyrannisch	faul	1	blank2r.bmp	0	1	+	0	1	blank2r.bmp	500	1	BMVZ	500	1	blank2r.bmp	880	6	fanatisch	880	1	!	1292	1	!	-1	0	0	0	0	0	0
2024-06-20	12:03:44	12:11:27	461424	6.6.1	4_exp_EVA_AWA_CON	92	B	A	Rpleas_acq	Oppo	Rpleas	2pleas	acq_US_pleas_nomask	acq3_nomask	3	16	453	0	300	300	0	0	571	46	0	0	helfen	ehrlich	schlau	lachen	treu	freundlich	hindern	eitel	schroff	leiden	tot	fanatisch	retten	spielen	schön	loyal	tolerant	fair	rächen	strafen	schlecht	lasch	tyrannisch	faul	1	blank2r.bmp	0	1	+	0	1	blank2r.bmp	500	1	GKQX	500	1	blank2r.bmp	880	2	ehrlich	880	1	FEHLER	1764	1	!	1293	1	!	-1	0	0	0
2024-06-20	12:03:44	12:11:29	463511	6.6.1	4_exp_EVA_AWA_CON	92	B	A	Rpleas_acq	Oppo	Rpleas	2pleas	acq_US_unple_nomask	acq3_nomask	3	17	453	1	300	300	0	0	507	46	1	0	helfen	ehrlich	schlau	lachen	treu	freundlich	hindern	eitel	schroff	leiden	tot	fanatisch	retten	spielen	schön	loyal	tolerant	fair	rächen	strafen	schlecht	lasch	tyrannisch	faul	1	blank2r.bmp	0	1	+	0	1	blank2r.bmp	500	1	BMVZ	500	1	blank2r.bmp	880	5	tot	880	1	!	1293	1	!	1409	0	0	0	0	0	0
2024-06-20	12:03:44	12:11:31	465838	6.6.1	4_exp_EVA_AWA_CON	92	B	A	Rpleas_acq	Oppo	Rpleas	2pleas	acq_US_pleas_nomask	acq3_nomask	3	18	453	0	300	300	0	0	554	50	1	0	helfen	ehrlich	schlau	lachen	treu	freundlich	hindern	eitel	schroff	leiden	tot	fanatisch	retten	spielen	schön	loyal	tolerant	fair	rächen	strafen	schlecht	lasch	tyrannisch	faul	1	blank2r.bmp	0	1	+	0	1	blank2r.bmp	500	1	GKQX	500	1	blank2r.bmp	880	5	treu	880	1	!	1293	1	!	-1	0	0	0	0	0	0
2024-06-20	12:03:44	12:11:33	468072	6.6.1	4_exp_EVA_AWA_CON	92	B	A	Rpleas_acq	Oppo	Rpleas	2pleas	acq_US_pleas_nomask	acq3_nomask	3	19	453	1	300	300	0	0	454	50	1	0	helfen	ehrlich	schlau	lachen	treu	freundlich	hindern	eitel	schroff	leiden	tot	fanatisch	retten	spielen	schön	loyal	tolerant	fair	rächen	strafen	schlecht	lasch	tyrannisch	faul	1	blank2r.bmp	0	1	+	0	1	blank2r.bmp	500	1	GKQX	500	1	blank2r.bmp	880	3	schlau	880	1	!	1292	1	!	1356	0	0	0	0	0	0
2024-06-20	12:03:44	12:11:36	470406	6.6.1	4_exp_EVA_AWA_CON	92	B	A	Rpleas_acq	Oppo	Rpleas	2pleas	acq_US_unple_nomask	acq3_nomask	3	20	453	0	300	300	0	0	559	46	1	0	helfen	ehrlich	schlau	lachen	treu	freundlich	hindern	eitel	schroff	leiden	tot	fanatisch	retten	spielen	schön	loyal	tolerant	fair	rächen	strafen	schlecht	lasch	tyrannisch	faul	1	blank2r.bmp	0	1	+	0	1	blank2r.bmp	500	1	BMVZ	500	1	blank2r.bmp	880	4	leiden	880	1	!	1293	1	!	-1	0	0	0	0	0	0
2024-06-20	12:03:44	12:11:38	472716	6.6.1	4_exp_EVA_AWA_CON	92	B	A	Rpleas_acq	Oppo	Rpleas	2pleas	acq_US_unple_nomask	acq3_nomask	3	21	453	0	300	300	0	0	530	46	1	0	helfen	ehrlich	schlau	lachen	treu	freundlich	hindern	eitel	schroff	leiden	tot	fanatisch	retten	spielen	schön	loyal	tolerant	fair	rächen	strafen	schlecht	lasch	tyrannisch	faul	1	blank2r.bmp	0	1	+	0	1	blank2r.bmp	500	1	BMVZ	500	1	blank2r.bmp	880	3	schroff	880	1	!	1292	1	!	-1	0	0	0	0	0	0
2024-06-20	12:03:44	12:11:40	475191	6.6.1	4_exp_EVA_AWA_CON	92	B	A	Rpleas_acq	Oppo	Rpleas	2pleas	acq_US_pleas_nomask	acq3_nomask	3	22	453	0	300	300	0	0	700	50	1	0	helfen	ehrlich	schlau	lachen	treu	freundlich	hindern	eitel	schroff	leiden	tot	fanatisch	retten	spielen	schön	loyal	tolerant	fair	rächen	strafen	schlecht	lasch	tyrannisch	faul	1	blank2r.bmp	0	1	+	0	1	blank2r.bmp	500	1	GKQX	500	1	blank2r.bmp	880	1	helfen	880	1	!	1292	1	!	-1	0	0	0	0	0	0
2024-06-20	12:03:44	12:11:43	477464	6.6.1	4_exp_EVA_AWA_CON	92	B	A	Rpleas_acq	Oppo	Rpleas	2pleas	acq_US_unple_nomask	acq3_nomask	3	23	453	1	300	300	0	0	490	46	1	0	helfen	ehrlich	schlau	lachen	treu	freundlich	hindern	eitel	schroff	leiden	tot	fanatisch	retten	spielen	schön	loyal	tolerant	fair	rächen	strafen	schlecht	lasch	tyrannisch	faul	1	blank2r.bmp	0	1	+	0	1	blank2r.bmp	500	1	BMVZ	500	1	blank2r.bmp	880	1	hindern	880	1	!	1292	1	!	1392	0	0	0	0	0	0
2024-06-20	12:03:44	12:11:45	479846	6.6.1	4_exp_EVA_AWA_CON	92	B	A	Rpleas_acq	Oppo	Rpleas	2pleas	acq_US_unple_nomask	acq3_nomask	3	24	453	0	300	300	0	0	603	46	1	0	helfen	ehrlich	schlau	lachen	treu	freundlich	hindern	eitel	schroff	leiden	tot	fanatisch	retten	spielen	schön	loyal	tolerant	fair	rächen	strafen	schlecht	lasch	tyrannisch	faul	1	blank2r.bmp	0	1	+	0	1	blank2r.bmp	500	1	BMVZ	500	1	blank2r.bmp	880	2	eitel	880	1	!	1293	1	!	-1	0	0	0	0	0	0
2024-06-20	12:03:44	12:11:47	482128	6.6.1	4_exp_EVA_AWA_CON	92	B	A	Rpleas_acq	Oppo	Rpleas	2pleas	acq_US_pleas_nomask	acq3_nomask	3	25	453	1	300	300	0	0	501	50	1	0	helfen	ehrlich	schlau	lachen	treu	freundlich	hindern	eitel	schroff	leiden	tot	fanatisch	retten	spielen	schön	loyal	tolerant	fair	rächen	strafen	schlecht	lasch	tyrannisch	faul	1	blank2r.bmp	0	1	+	0	1	blank2r.bmp	500	1	GKQX	500	1	blank2r.bmp	880	3	schlau	880	1	!	1292	1	!	1403	0	0	0	0	0	0
2024-06-20	12:03:44	12:11:50	484391	6.6.1	4_exp_EVA_AWA_CON	92	B	A	Rpleas_acq	Oppo	Rpleas	2pleas	acq_US_unple_nomask	acq3_nomask	3	26	453	1	300	300	0	0	484	46	1	0	helfen	ehrlich	schlau	lachen	treu	freundlich	hindern	eitel	schroff	leiden	tot	fanatisch	retten	spielen	schön	loyal	tolerant	fair	rächen	strafen	schlecht	lasch	tyrannisch	faul	1	blank2r.bmp	0	1	+	0	1	blank2r.bmp	500	1	BMVZ	500	1	blank2r.bmp	880	1	hindern	880	1	!	1292	1	!	1385	0	0	0	0	0	0
2024-06-20	12:03:44	12:11:52	486640	6.6.1	4_exp_EVA_AWA_CON	92	B	A	Rpleas_acq	Oppo	Rpleas	2pleas	acq_US_unple_nomask	acq3_nomask	3	27	453	1	300	300	0	0	471	46	1	0	helfen	ehrlich	schlau	lachen	treu	freundlich	hindern	eitel	schroff	leiden	tot	fanatisch	retten	spielen	schön	loyal	tolerant	fair	rächen	strafen	schlecht	lasch	tyrannisch	faul	1	blank2r.bmp	0	1	+	0	1	blank2r.bmp	500	1	BMVZ	500	1	blank2r.bmp	880	2	eitel	880	1	!	1292	1	!	1372	0	0	0	0	0	0
2024-06-20	12:03:44	12:11:54	489056	6.6.1	4_exp_EVA_AWA_CON	92	B	A	Rpleas_acq	Oppo	Rpleas	2pleas	acq_US_pleas_nomask	acq3_nomask	3	28	453	1	300	300	0	0	435	46	0	0	helfen	ehrlich	schlau	lachen	treu	freundlich	hindern	eitel	schroff	leiden	tot	fanatisch	retten	spielen	schön	loyal	tolerant	fair	rächen	strafen	schlecht	lasch	tyrannisch	faul	1	blank2r.bmp	0	1	+	0	1	blank2r.bmp	500	1	GKQX	500	1	blank2r.bmp	880	2	ehrlich	880	1	FEHLER	1628	1	!	1292	1	!	1336	0	0	0
2024-06-20	12:03:44	12:11:56	491063	6.6.1	4_exp_EVA_AWA_CON	92	B	A	Rpleas_acq	Oppo	Rpleas	2pleas	acq_US_pleas_nomask	acq3_nomask	3	29	453	1	300	300	0	0	432	50	1	0	helfen	ehrlich	schlau	lachen	treu	freundlich	hindern	eitel	schroff	leiden	tot	fanatisch	retten	spielen	schön	loyal	tolerant	fair	rächen	strafen	schlecht	lasch	tyrannisch	faul	1	blank2r.bmp	0	1	+	0	1	blank2r.bmp	500	1	GKQX	500	1	blank2r.bmp	880	6	freundlich	880	1	!	1292	1	!	1333	0	0	0	0	0	0
2024-06-20	12:03:44	12:11:59	493360	6.6.1	4_exp_EVA_AWA_CON	92	B	A	Rpleas_acq	Oppo	Rpleas	2pleas	acq_US_pleas_nomask	acq3_nomask	3	30	453	1	300	300	0	0	516	50	1	0	helfen	ehrlich	schlau	lachen	treu	freundlich	hindern	eitel	schroff	leiden	tot	fanatisch	retten	spielen	schön	loyal	tolerant	fair	rächen	strafen	schlecht	lasch	tyrannisch	faul	1	blank2r.bmp	0	1	+	0	1	blank2r.bmp	500	1	GKQX	500	1	blank2r.bmp	880	4	lachen	880	1	!	1292	1	!	1418	0	0	0	0	0	0
2024-06-20	12:03:44	12:12:01	495624	6.6.1	4_exp_EVA_AWA_CON	92	B	A	Rpleas_acq	Oppo	Rpleas	2pleas	acq_US_unple_nomask	acq3_nomask	3	31	453	1	300	300	0	0	489	46	1	0	helfen	ehrlich	schlau	lachen	treu	freundlich	hindern	eitel	schroff	leiden	tot	fanatisch	retten	spielen	schön	loyal	tolerant	fair	rächen	strafen	schlecht	lasch	tyrannisch	faul	1	blank2r.bmp	0	1	+	0	1	blank2r.bmp	500	1	BMVZ	500	1	blank2r.bmp	880	5	tot	880	1	!	1292	1	!	1390	0	0	0	0	0	0
2024-06-20	12:03:44	12:12:03	497982	6.6.1	4_exp_EVA_AWA_CON	92	B	A	Rpleas_acq	Oppo	Rpleas	2pleas	acq_US_pleas_nomask	acq3_nomask	3	32	453	0	300	300	0	0	577	50	1	0	helfen	ehrlich	schlau	lachen	treu	freundlich	hindern	eitel	schroff	leiden	tot	fanatisch	retten	spielen	schön	loyal	tolerant	fair	rächen	strafen	schlecht	lasch	tyrannisch	faul	1	blank2r.bmp	0	1	+	0	1	blank2r.bmp	500	1	GKQX	500	1	blank2r.bmp	880	5	treu	880	1	!	1293	1	!	-1	0	0	0	0	0	0
2024-06-20	12:03:44	12:12:06	500377	6.6.1	4_exp_EVA_AWA_CON	92	B	A	Rpleas_acq	Oppo	Rpleas	2pleas	acq_US_pleas_nomask	acq3_nomask	3	33	453	1	300	300	0	0	418	46	0	0	helfen	ehrlich	schlau	lachen	treu	freundlich	hindern	eitel	schroff	leiden	tot	fanatisch	retten	spielen	schön	loyal	tolerant	fair	rächen	strafen	schlecht	lasch	tyrannisch	faul	1	blank2r.bmp	0	1	+	0	1	blank2r.bmp	500	1	GKQX	500	1	blank2r.bmp	880	1	helfen	880	1	FEHLER	1611	1	!	1292	1	!	1319	0	0	0
2024-06-20	12:03:44	12:12:08	502431	6.6.1	4_exp_EVA_AWA_CON	92	B	A	Rpleas_acq	Oppo	Rpleas	2pleas	acq_US_unple_nomask	acq3_nomask	3	34	453	1	300	300	0	0	483	46	1	0	helfen	ehrlich	schlau	lachen	treu	freundlich	hindern	eitel	schroff	leiden	tot	fanatisch	retten	spielen	schön	loyal	tolerant	fair	rächen	strafen	schlecht	lasch	tyrannisch	faul	1	blank2r.bmp	0	1	+	0	1	blank2r.bmp	500	1	BMVZ	500	1	blank2r.bmp	880	3	schroff	880	1	!	1293	1	!	1384	0	0	0	0	0	0
2024-06-20	12:03:44	12:12:10	504766	6.6.1	4_exp_EVA_AWA_CON	92	B	A	Rpleas_acq	Oppo	Rpleas	2pleas	acq_US_unple_nomask	acq3_nomask	3	35	453	0	300	300	0	0	557	46	1	0	helfen	ehrlich	schlau	lachen	treu	freundlich	hindern	eitel	schroff	leiden	tot	fanatisch	retten	spielen	schön	loyal	tolerant	fair	rächen	strafen	schlecht	lasch	tyrannisch	faul	1	blank2r.bmp	0	1	+	0	1	blank2r.bmp	500	1	BMVZ	500	1	blank2r.bmp	880	4	leiden	880	1	!	1292	1	!	-1	0	0	0	0	0	0
2024-06-20	12:03:44	12:12:12	507257	6.6.1	4_exp_EVA_AWA_CON	92	B	A	Rpleas_acq	Oppo	Rpleas	2pleas	acq_US_unple_nomask	acq3_nomask	3	36	453	1	300	300	0	0	514	50	0	0	helfen	ehrlich	schlau	lachen	treu	freundlich	hindern	eitel	schroff	leiden	tot	fanatisch	retten	spielen	schön	loyal	tolerant	fair	rächen	strafen	schlecht	lasch	tyrannisch	faul	1	blank2r.bmp	0	1	+	0	1	blank2r.bmp	500	1	BMVZ	500	1	blank2r.bmp	880	6	fanatisch	880	1	FEHLER	1707	1	!	1293	1	!	1415	0	0	0
2024-06-20	12:03:44	12:12:26	521150	6.6.1	4_exp_EVA_AWA_CON	92	B	A	Rpleas_acq	Oppo	Rpleas	2pleas	acq_US_unple_nomask	acq45_nomask	4	1	400	0	300	300	0	0	510	46	1	0	helfen	ehrlich	schlau	lachen	treu	freundlich	hindern	eitel	schroff	leiden	tot	fanatisch	retten	spielen	schön	loyal	tolerant	fair	rächen	strafen	schlecht	lasch	tyrannisch	faul	1	blank2r.bmp	0	1	+	0	1	blank2r.bmp	500	1	BMVZ	500	1	blank2r.bmp	880	1	hindern	880	1	!	1232	1	!	-1	0	0	0	0	0	0
2024-06-20	12:03:44	12:12:29	523438	6.6.1	4_exp_EVA_AWA_CON	92	B	A	Rpleas_acq	Oppo	Rpleas	2pleas	acq_US_unple_nomask	acq45_nomask	4	2	400	0	300	300	0	0	507	46	1	0	helfen	ehrlich	schlau	lachen	treu	freundlich	hindern	eitel	schroff	leiden	tot	fanatisch	retten	spielen	schön	loyal	tolerant	fair	rächen	strafen	schlecht	lasch	tyrannisch	faul	1	blank2r.bmp	0	1	+	0	1	blank2r.bmp	500	1	BMVZ	500	1	blank2r.bmp	880	2	eitel	880	1	!	1232	1	!	-1	0	0	0	0	0	0
2024-06-20	12:03:44	12:12:31	525684	6.6.1	4_exp_EVA_AWA_CON	92	B	A	Rpleas_acq	Oppo	Rpleas	2pleas	acq_US_unple_nomask	acq45_nomask	4	3	400	0	300	300	0	0	474	46	1	0	helfen	ehrlich	schlau	lachen	treu	freundlich	hindern	eitel	schroff	leiden	tot	fanatisch	retten	spielen	schön	loyal	tolerant	fair	rächen	strafen	schlecht	lasch	tyrannisch	faul	1	blank2r.bmp	0	1	+	0	1	blank2r.bmp	500	1	BMVZ	500	1	blank2r.bmp	880	3	schroff	880	1	!	1232	1	!	-1	0	0	0	0	0	0
2024-06-20	12:03:44	12:12:33	527856	6.6.1	4_exp_EVA_AWA_CON	92	B	A	Rpleas_acq	Oppo	Rpleas	2pleas	acq_US_pleas_nomask	acq45_nomask	4	4	400	1	300	300	0	0	390	50	1	0	helfen	ehrlich	schlau	lachen	treu	freundlich	hindern	eitel	schroff	leiden	tot	fanatisch	retten	spielen	schön	loyal	tolerant	fair	rächen	strafen	schlecht	lasch	tyrannisch	faul	1	blank2r.bmp	0	1	+	0	1	blank2r.bmp	500	1	GKQX	500	1	blank2r.bmp	880	4	lachen	880	1	!	1233	1	!	1292	0	0	0	0	0	0
2024-06-20	12:03:44	12:12:35	530024	6.6.1	4_exp_EVA_AWA_CON	92	B	A	Rpleas_acq	Oppo	Rpleas	2pleas	acq_US_unple_nomask	acq45_nomask	4	5	400	1	300	300	0	0	387	46	1	0	helfen	ehrlich	schlau	lachen	treu	freundlich	hindern	eitel	schroff	leiden	tot	fanatisch	retten	spielen	schön	loyal	tolerant	fair	rächen	strafen	schlecht	lasch	tyrannisch	faul	1	blank2r.bmp	0	1	+	0	1	blank2r.bmp	500	1	BMVZ	500	1	blank2r.bmp	880	5	tot	880	1	!	1232	1	!	1288	0	0	0	0	0	0
2024-06-20	12:03:44	12:12:38	532398	6.6.1	4_exp_EVA_AWA_CON	92	B	A	Rpleas_acq	Oppo	Rpleas	2pleas	acq_US_pleas_nomask	acq45_nomask	4	6	400	0	300	300	0	0	601	50	1	0	helfen	ehrlich	schlau	lachen	treu	freundlich	hindern	eitel	schroff	leiden	tot	fanatisch	retten	spielen	schön	loyal	tolerant	fair	rächen	strafen	schlecht	lasch	tyrannisch	faul	1	blank2r.bmp	0	1	+	0	1	blank2r.bmp	500	1	GKQX	500	1	blank2r.bmp	880	2	ehrlich	880	1	!	1233	1	!	-1	0	0	0	0	0	0
2024-06-20	12:03:44	12:12:40	534652	6.6.1	4_exp_EVA_AWA_CON	92	B	A	Rpleas_acq	Oppo	Rpleas	2pleas	acq_US_pleas_nomask	acq45_nomask	4	7	400	0	300	300	0	0	476	50	1	0	helfen	ehrlich	schlau	lachen	treu	freundlich	hindern	eitel	schroff	leiden	tot	fanatisch	retten	spielen	schön	loyal	tolerant	fair	rächen	strafen	schlecht	lasch	tyrannisch	faul	1	blank2r.bmp	0	1	+	0	1	blank2r.bmp	500	1	GKQX	500	1	blank2r.bmp	880	3	schlau	880	1	!	1232	1	!	-1	0	0	0	0	0	0
2024-06-20	12:03:44	12:12:42	537062	6.6.1	4_exp_EVA_AWA_CON	92	B	A	Rpleas_acq	Oppo	Rpleas	2pleas	acq_US_unple_nomask	acq45_nomask	4	8	400	0	300	300	0	0	632	46	1	0	helfen	ehrlich	schlau	lachen	treu	freundlich	hindern	eitel	schroff	leiden	tot	fanatisch	retten	spielen	schön	loyal	tolerant	fair	rächen	strafen	schlecht	lasch	tyrannisch	faul	1	blank2r.bmp	0	1	+	0	1	blank2r.bmp	500	1	BMVZ	500	1	blank2r.bmp	880	6	fanatisch	880	1	!	1233	1	!	-1	0	0	0	0	0	0
2024-06-20	12:03:44	12:12:45	539312	6.6.1	4_exp_EVA_AWA_CON	92	B	A	Rpleas_acq	Oppo	Rpleas	2pleas	acq_US_unple_nomask	acq45_nomask	4	9	400	1	300	300	0	0	469	46	1	0	helfen	ehrlich	schlau	lachen	treu	freundlich	hindern	eitel	schroff	leiden	tot	fanatisch	retten	spielen	schön	loyal	tolerant	fair	rächen	strafen	schlecht	lasch	tyrannisch	faul	1	blank2r.bmp	0	1	+	0	1	blank2r.bmp	500	1	BMVZ	500	1	blank2r.bmp	880	4	leiden	880	1	!	1232	1	!	1370	0	0	0	0	0	0
2024-06-20	12:03:44	12:12:47	541511	6.6.1	4_exp_EVA_AWA_CON	92	B	A	Rpleas_acq	Oppo	Rpleas	2pleas	acq_US_pleas_nomask	acq45_nomask	4	10	400	1	300	300	0	0	417	50	1	0	helfen	ehrlich	schlau	lachen	treu	freundlich	hindern	eitel	schroff	leiden	tot	fanatisch	retten	spielen	schön	loyal	tolerant	fair	rächen	strafen	schlecht	lasch	tyrannisch	faul	1	blank2r.bmp	0	1	+	0	1	blank2r.bmp	500	1	GKQX	500	1	blank2r.bmp	880	1	helfen	880	1	!	1232	1	!	1319	0	0	0	0	0	0
2024-06-20	12:03:44	12:12:49	543798	6.6.1	4_exp_EVA_AWA_CON	92	B	A	Rpleas_acq	Oppo	Rpleas	2pleas	acq_US_pleas_nomask	acq45_nomask	4	11	400	0	300	300	0	0	514	50	1	0	helfen	ehrlich	schlau	lachen	treu	freundlich	hindern	eitel	schroff	leiden	tot	fanatisch	retten	spielen	schön	loyal	tolerant	fair	rächen	strafen	schlecht	lasch	tyrannisch	faul	1	blank2r.bmp	0	1	+	0	1	blank2r.bmp	500	1	GKQX	500	1	blank2r.bmp	880	6	freundlich	880	1	!	1232	1	!	-1	0	0	0	0	0	0
2024-06-20	12:03:44	12:12:51	545976	6.6.1	4_exp_EVA_AWA_CON	92	B	A	Rpleas_acq	Oppo	Rpleas	2pleas	acq_US_pleas_nomask	acq45_nomask	4	12	400	1	300	300	0	0	398	50	1	0	helfen	ehrlich	schlau	lachen	treu	freundlich	hindern	eitel	schroff	leiden	tot	fanatisch	retten	spielen	schön	loyal	tolerant	fair	rächen	strafen	schlecht	lasch	tyrannisch	faul	1	blank2r.bmp	0	1	+	0	1	blank2r.bmp	500	1	GKQX	500	1	blank2r.bmp	880	5	treu	880	1	!	1232	1	!	1300	0	0	0	0	0	0
2024-06-20	12:03:44	12:12:53	548135	6.6.1	4_exp_EVA_AWA_CON	92	B	A	Rpleas_acq	Oppo	Rpleas	2pleas	acq_US_pleas_nomask	acq45_nomask	4	13	400	1	300	300	0	0	377	50	1	0	helfen	ehrlich	schlau	lachen	treu	freundlich	hindern	eitel	schroff	leiden	tot	fanatisch	retten	spielen	schön	loyal	tolerant	fair	rächen	strafen	schlecht	lasch	tyrannisch	faul	1	blank2r.bmp	0	1	+	0	1	blank2r.bmp	500	1	GKQX	500	1	blank2r.bmp	880	5	treu	880	1	!	1232	1	!	1278	0	0	0	0	0	0
2024-06-20	12:03:44	12:12:56	550367	6.6.1	4_exp_EVA_AWA_CON	92	B	A	Rpleas_acq	Oppo	Rpleas	2pleas	acq_US_pleas_nomask	acq45_nomask	4	14	400	1	300	300	0	0	458	50	1	0	helfen	ehrlich	schlau	lachen	treu	freundlich	hindern	eitel	schroff	leiden	tot	fanatisch	retten	spielen	schön	loyal	tolerant	fair	rächen	strafen	schlecht	lasch	tyrannisch	faul	1	blank2r.bmp	0	1	+	0	1	blank2r.bmp	500	1	GKQX	500	1	blank2r.bmp	880	3	schlau	880	1	!	1232	1	!	1359	0	0	0	0	0	0
2024-06-20	12:03:44	12:12:58	552520	6.6.1	4_exp_EVA_AWA_CON	92	B	A	Rpleas_acq	Oppo	Rpleas	2pleas	acq_US_unple_nomask	acq45_nomask	4	15	400	1	300	300	0	0	378	46	1	0	helfen	ehrlich	schlau	lachen	treu	freundlich	hindern	eitel	schroff	leiden	tot	fanatisch	retten	spielen	schön	loyal	tolerant	fair	rächen	strafen	schlecht	lasch	tyrannisch	faul	1	blank2r.bmp	0	1	+	0	1	blank2r.bmp	500	1	BMVZ	500	1	blank2r.bmp	880	3	schroff	880	1	!	1233	1	!	1280	0	0	0	0	0	0
2024-06-20	12:03:44	12:13:00	554735	6.6.1	4_exp_EVA_AWA_CON	92	B	A	Rpleas_acq	Oppo	Rpleas	2pleas	acq_US_unple_nomask	acq45_nomask	4	16	400	1	300	300	0	0	433	46	1	0	helfen	ehrlich	schlau	lachen	treu	freundlich	hindern	eitel	schroff	leiden	tot	fanatisch	retten	spielen	schön	loyal	tolerant	fair	rächen	strafen	schlecht	lasch	tyrannisch	faul	1	blank2r.bmp	0	1	+	0	1	blank2r.bmp	500	1	BMVZ	500	1	blank2r.bmp	880	4	leiden	880	1	!	1232	1	!	1334	0	0	0	0	0	0
2024-06-20	12:03:44	12:13:02	556927	6.6.1	4_exp_EVA_AWA_CON	92	B	A	Rpleas_acq	Oppo	Rpleas	2pleas	acq_US_pleas_nomask	acq45_nomask	4	17	400	1	300	300	0	0	413	50	1	0	helfen	ehrlich	schlau	lachen	treu	freundlich	hindern	eitel	schroff	leiden	tot	fanatisch	retten	spielen	schön	loyal	tolerant	fair	rächen	strafen	schlecht	lasch	tyrannisch	faul	1	blank2r.bmp	0	1	+	0	1	blank2r.bmp	500	1	GKQX	500	1	blank2r.bmp	880	4	lachen	880	1	!	1232	1	!	1315	0	0	0	0	0	0
2024-06-20	12:03:44	12:13:04	559206	6.6.1	4_exp_EVA_AWA_CON	92	B	A	Rpleas_acq	Oppo	Rpleas	2pleas	acq_US_unple_nomask	acq45_nomask	4	18	400	0	300	300	0	0	502	46	1	0	helfen	ehrlich	schlau	lachen	treu	freundlich	hindern	eitel	schroff	leiden	tot	fanatisch	retten	spielen	schön	loyal	tolerant	fair	rächen	strafen	schlecht	lasch	tyrannisch	faul	1	blank2r.bmp	0	1	+	0	1	blank2r.bmp	500	1	BMVZ	500	1	blank2r.bmp	880	6	fanatisch	880	1	!	1232	1	!	-1	0	0	0	0	0	0
2024-06-20	12:03:44	12:13:07	561391	6.6.1	4_exp_EVA_AWA_CON	92	B	A	Rpleas_acq	Oppo	Rpleas	2pleas	acq_US_pleas_nomask	acq45_nomask	4	19	400	1	300	300	0	0	404	50	1	0	helfen	ehrlich	schlau	lachen	treu	freundlich	hindern	eitel	schroff	leiden	tot	fanatisch	retten	spielen	schön	loyal	tolerant	fair	rächen	strafen	schlecht	lasch	tyrannisch	faul	1	blank2r.bmp	0	1	+	0	1	blank2r.bmp	500	1	GKQX	500	1	blank2r.bmp	880	6	freundlich	880	1	!	1232	1	!	1306	0	0	0	0	0	0
2024-06-20	12:03:44	12:13:09	563651	6.6.1	4_exp_EVA_AWA_CON	92	B	A	Rpleas_acq	Oppo	Rpleas	2pleas	acq_US_pleas_nomask	acq45_nomask	4	20	400	0	300	300	0	0	473	50	1	0	helfen	ehrlich	schlau	lachen	treu	freundlich	hindern	eitel	schroff	leiden	tot	fanatisch	retten	spielen	schön	loyal	tolerant	fair	rächen	strafen	schlecht	lasch	tyrannisch	faul	1	blank2r.bmp	0	1	+	0	1	blank2r.bmp	500	1	GKQX	500	1	blank2r.bmp	880	1	helfen	880	1	!	1232	1	!	-1	0	0	0	0	0	0
2024-06-20	12:03:44	12:13:11	565908	6.6.1	4_exp_EVA_AWA_CON	92	B	A	Rpleas_acq	Oppo	Rpleas	2pleas	acq_US_pleas_nomask	acq45_nomask	4	21	400	0	300	300	0	0	482	50	1	0	helfen	ehrlich	schlau	lachen	treu	freundlich	hindern	eitel	schroff	leiden	tot	fanatisch	retten	spielen	schön	loyal	tolerant	fair	rächen	strafen	schlecht	lasch	tyrannisch	faul	1	blank2r.bmp	0	1	+	0	1	blank2r.bmp	500	1	GKQX	500	1	blank2r.bmp	880	2	ehrlich	880	1	!	1232	1	!	-1	0	0	0	0	0	0
2024-06-20	12:03:44	12:13:13	568112	6.6.1	4_exp_EVA_AWA_CON	92	B	A	Rpleas_acq	Oppo	Rpleas	2pleas	acq_US_unple_nomask	acq45_nomask	4	22	400	1	300	300	0	0	420	46	1	0	helfen	ehrlich	schlau	lachen	treu	freundlich	hindern	eitel	schroff	leiden	tot	fanatisch	retten	spielen	schön	loyal	tolerant	fair	rächen	strafen	schlecht	lasch	tyrannisch	faul	1	blank2r.bmp	0	1	+	0	1	blank2r.bmp	500	1	BMVZ	500	1	blank2r.bmp	880	2	eitel	880	1	!	1232	1	!	1322	0	0	0	0	0	0
2024-06-20	12:03:44	12:13:16	570430	6.6.1	4_exp_EVA_AWA_CON	92	B	A	Rpleas_acq	Oppo	Rpleas	2pleas	acq_US_unple_nomask	acq45_nomask	4	23	400	0	300	300	0	0	539	46	1	0	helfen	ehrlich	schlau	lachen	treu	freundlich	hindern	eitel	schroff	leiden	tot	fanatisch	retten	spielen	schön	loyal	tolerant	fair	rächen	strafen	schlecht	lasch	tyrannisch	faul	1	blank2r.bmp	0	1	+	0	1	blank2r.bmp	500	1	BMVZ	500	1	blank2r.bmp	880	5	tot	880	1	!	1232	1	!	-1	0	0	0	0	0	0
2024-06-20	12:03:44	12:13:18	572718	6.6.1	4_exp_EVA_AWA_CON	92	B	A	Rpleas_acq	Oppo	Rpleas	2pleas	acq_US_unple_nomask	acq45_nomask	4	24	400	0	300	300	0	0	515	50	0	0	helfen	ehrlich	schlau	lachen	treu	freundlich	hindern	eitel	schroff	leiden	tot	fanatisch	retten	spielen	schön	loyal	tolerant	fair	rächen	strafen	schlecht	lasch	tyrannisch	faul	1	blank2r.bmp	0	1	+	0	1	blank2r.bmp	500	1	BMVZ	500	1	blank2r.bmp	880	1	hindern	880	1	!	1232	1	!	-1	0	0	0	0	0	0
2024-06-20	12:03:44	12:13:20	574965	6.6.1	4_exp_EVA_AWA_CON	92	B	A	Rpleas_acq	Oppo	Rpleas	2pleas	acq_US_unple_nomask	acq45_nomask	4	25	400	0	300	300	0	0	473	46	1	0	helfen	ehrlich	schlau	lachen	treu	freundlich	hindern	eitel	schroff	leiden	tot	fanatisch	retten	spielen	schön	loyal	tolerant	fair	rächen	strafen	schlecht	lasch	tyrannisch	faul	1	blank2r.bmp	0	1	+	0	1	blank2r.bmp	500	1	BMVZ	500	1	blank2r.bmp	880	3	schroff	880	1	!	1232	1	!	-1	0	0	0	0	0	0
2024-06-20	12:03:44	12:13:23	577286	6.6.1	4_exp_EVA_AWA_CON	92	B	A	Rpleas_acq	Oppo	Rpleas	2pleas	acq_US_unple_nomask	acq45_nomask	4	26	400	0	300	300	0	0	540	46	1	0	helfen	ehrlich	schlau	lachen	treu	freundlich	hindern	eitel	schroff	leiden	tot	fanatisch	retten	spielen	schön	loyal	tolerant	fair	rächen	strafen	schlecht	lasch	tyrannisch	faul	1	blank2r.bmp	0	1	+	0	1	blank2r.bmp	500	1	BMVZ	500	1	blank2r.bmp	880	1	hindern	880	1	!	1232	1	!	-1	0	0	0	0	0	0
2024-06-20	12:03:44	12:13:25	579540	6.6.1	4_exp_EVA_AWA_CON	92	B	A	Rpleas_acq	Oppo	Rpleas	2pleas	acq_US_pleas_nomask	acq45_nomask	4	27	400	0	300	300	0	0	475	50	1	0	helfen	ehrlich	schlau	lachen	treu	freundlich	hindern	eitel	schroff	leiden	tot	fanatisch	retten	spielen	schön	loyal	tolerant	fair	rächen	strafen	schlecht	lasch	tyrannisch	faul	1	blank2r.bmp	0	1	+	0	1	blank2r.bmp	500	1	GKQX	500	1	blank2r.bmp	880	6	freundlich	880	1	!	1232	1	!	-1	0	0	0	0	0	0
2024-06-20	12:03:44	12:13:27	581775	6.6.1	4_exp_EVA_AWA_CON	92	B	A	Rpleas_acq	Oppo	Rpleas	2pleas	acq_US_unple_nomask	acq45_nomask	4	28	400	1	300	300	0	0	456	46	1	0	helfen	ehrlich	schlau	lachen	treu	freundlich	hindern	eitel	schroff	leiden	tot	fanatisch	retten	spielen	schön	loyal	tolerant	fair	rächen	strafen	schlecht	lasch	tyrannisch	faul	1	blank2r.bmp	0	1	+	0	1	blank2r.bmp	500	1	BMVZ	500	1	blank2r.bmp	880	5	tot	880	1	!	1232	1	!	1357	0	0	0	0	0	0
2024-06-20	12:03:44	12:13:29	583975	6.6.1	4_exp_EVA_AWA_CON	92	B	A	Rpleas_acq	Oppo	Rpleas	2pleas	acq_US_unple_nomask	acq45_nomask	4	29	400	1	300	300	0	0	424	46	1	0	helfen	ehrlich	schlau	lachen	treu	freundlich	hindern	eitel	schroff	leiden	tot	fanatisch	retten	spielen	schön	loyal	tolerant	fair	rächen	strafen	schlecht	lasch	tyrannisch	faul	1	blank2r.bmp	0	1	+	0	1	blank2r.bmp	500	1	BMVZ	500	1	blank2r.bmp	880	4	leiden	880	1	!	1232	1	!	1325	0	0	0	0	0	0
2024-06-20	12:03:44	12:13:31	586207	6.6.1	4_exp_EVA_AWA_CON	92	B	A	Rpleas_acq	Oppo	Rpleas	2pleas	acq_US_unple_nomask	acq45_nomask	4	30	400	1	300	300	0	0	455	46	1	0	helfen	ehrlich	schlau	lachen	treu	freundlich	hindern	eitel	schroff	leiden	tot	fanatisch	retten	spielen	schön	loyal	tolerant	fair	rächen	strafen	schlecht	lasch	tyrannisch	faul	1	blank2r.bmp	0	1	+	0	1	blank2r.bmp	500	1	BMVZ	500	1	blank2r.bmp	880	2	eitel	880	1	!	1232	1	!	1356	0	0	0	0	0	0
2024-06-20	12:03:44	12:13:34	588392	6.6.1	4_exp_EVA_AWA_CON	92	B	A	Rpleas_acq	Oppo	Rpleas	2pleas	acq_US_unple_nomask	acq45_nomask	4	31	400	1	300	300	0	0	407	50	0	0	helfen	ehrlich	schlau	lachen	treu	freundlich	hindern	eitel	schroff	leiden	tot	fanatisch	retten	spielen	schön	loyal	tolerant	fair	rächen	strafen	schlecht	lasch	tyrannisch	faul	1	blank2r.bmp	0	1	+	0	1	blank2r.bmp	500	1	BMVZ	500	1	blank2r.bmp	880	6	fanatisch	880	1	!	1233	1	!	1309	0	0	0	0	0	0
2024-06-20	12:03:44	12:13:36	590591	6.6.1	4_exp_EVA_AWA_CON	92	B	A	Rpleas_acq	Oppo	Rpleas	2pleas	acq_US_pleas_nomask	acq45_nomask	4	32	400	1	300	300	0	0	426	46	0	0	helfen	ehrlich	schlau	lachen	treu	freundlich	hindern	eitel	schroff	leiden	tot	fanatisch	retten	spielen	schön	loyal	tolerant	fair	rächen	strafen	schlecht	lasch	tyrannisch	faul	1	blank2r.bmp	0	1	+	0	1	blank2r.bmp	500	1	GKQX	500	1	blank2r.bmp	880	2	ehrlich	880	1	!	1233	1	!	1327	0	0	0	0	0	0
2024-06-20	12:03:44	12:13:38	592837	6.6.1	4_exp_EVA_AWA_CON	92	B	A	Rpleas_acq	Oppo	Rpleas	2pleas	acq_US_pleas_nomask	acq45_nomask	4	33	400	0	300	300	0	0	473	50	1	0	helfen	ehrlich	schlau	lachen	treu	freundlich	hindern	eitel	schroff	leiden	tot	fanatisch	retten	spielen	schön	loyal	tolerant	fair	rächen	strafen	schlecht	lasch	tyrannisch	faul	1	blank2r.bmp	0	1	+	0	1	blank2r.bmp	500	1	GKQX	500	1	blank2r.bmp	880	5	treu	880	1	!	1232	1	!	-1	0	0	0	0	0	0
2024-06-20	12:03:44	12:13:40	595056	6.6.1	4_exp_EVA_AWA_CON	92	B	A	Rpleas_acq	Oppo	Rpleas	2pleas	acq_US_pleas_nomask	acq45_nomask	4	34	400	1	300	300	0	0	437	50	1	0	helfen	ehrlich	schlau	lachen	treu	freundlich	hindern	eitel	schroff	leiden	tot	fanatisch	retten	spielen	schön	loyal	tolerant	fair	rächen	strafen	schlecht	lasch	tyrannisch	faul	1	blank2r.bmp	0	1	+	0	1	blank2r.bmp	500	1	GKQX	500	1	blank2r.bmp	880	4	lachen	880	1	!	1232	1	!	1338	0	0	0	0	0	0
2024-06-20	12:03:44	12:13:42	597240	6.6.1	4_exp_EVA_AWA_CON	92	B	A	Rpleas_acq	Oppo	Rpleas	2pleas	acq_US_pleas_nomask	acq45_nomask	4	35	400	1	300	300	0	0	410	50	1	0	helfen	ehrlich	schlau	lachen	treu	freundlich	hindern	eitel	schroff	leiden	tot	fanatisch	retten	spielen	schön	loyal	tolerant	fair	rächen	strafen	schlecht	lasch	tyrannisch	faul	1	blank2r.bmp	0	1	+	0	1	blank2r.bmp	500	1	GKQX	500	1	blank2r.bmp	880	1	helfen	880	1	!	1232	1	!	1312	0	0	0	0	0	0
2024-06-20	12:03:44	12:13:45	599400	6.6.1	4_exp_EVA_AWA_CON	92	B	A	Rpleas_acq	Oppo	Rpleas	2pleas	acq_US_pleas_nomask	acq45_nomask	4	36	400	1	300	300	0	0	378	50	1	0	helfen	ehrlich	schlau	lachen	treu	freundlich	hindern	eitel	schroff	leiden	tot	fanatisch	retten	spielen	schön	loyal	tolerant	fair	rächen	strafen	schlecht	lasch	tyrannisch	faul	1	blank2r.bmp	0	1	+	0	1	blank2r.bmp	500	1	GKQX	500	1	blank2r.bmp	880	3	schlau	880	1	!	1232	1	!	1280	0	0	0	0	0	0
2024-06-20	12:03:44	12:13:58	612520	6.6.1	4_exp_EVA_AWA_CON	92	B	A	Rpleas_acq	Oppo	Rpleas	2pleas	acq_US_unple_nomask	acq45_nomask	5	1	400	1	300	300	0	0	410	46	1	0	helfen	ehrlich	schlau	lachen	treu	freundlich	hindern	eitel	schroff	leiden	tot	fanatisch	retten	spielen	schön	loyal	tolerant	fair	rächen	strafen	schlecht	lasch	tyrannisch	faul	1	blank2r.bmp	0	1	+	0	1	blank2r.bmp	500	1	BMVZ	500	1	blank2r.bmp	880	3	schroff	880	1	!	1232	1	!	1312	0	0	0	0	0	0
2024-06-20	12:03:44	12:14:00	614910	6.6.1	4_exp_EVA_AWA_CON	92	B	A	Rpleas_acq	Oppo	Rpleas	2pleas	acq_US_unple_nomask	acq45_nomask	5	2	400	0	300	300	0	0	610	46	1	0	helfen	ehrlich	schlau	lachen	treu	freundlich	hindern	eitel	schroff	leiden	tot	fanatisch	retten	spielen	schön	loyal	tolerant	fair	rächen	strafen	schlecht	lasch	tyrannisch	faul	1	blank2r.bmp	0	1	+	0	1	blank2r.bmp	500	1	BMVZ	500	1	blank2r.bmp	880	1	hindern	880	1	!	1233	1	!	-1	0	0	0	0	0	0
2024-06-20	12:03:44	12:14:02	617064	6.6.1	4_exp_EVA_AWA_CON	92	B	A	Rpleas_acq	Oppo	Rpleas	2pleas	acq_US_pleas_nomask	acq45_nomask	5	3	400	1	300	300	0	0	371	50	1	0	helfen	ehrlich	schlau	lachen	treu	freundlich	hindern	eitel	schroff	leiden	tot	fanatisch	retten	spielen	schön	loyal	tolerant	fair	rächen	strafen	schlecht	lasch	tyrannisch	faul	1	blank2r.bmp	0	1	+	0	1	blank2r.bmp	500	1	GKQX	500	1	blank2r.bmp	880	1	helfen	880	1	!	1232	1	!	1272	0	0	0	0	0	0
2024-06-20	12:03:44	12:14:04	619231	6.6.1	4_exp_EVA_AWA_CON	92	B	A	Rpleas_acq	Oppo	Rpleas	2pleas	acq_US_pleas_nomask	acq45_nomask	5	4	400	1	300	300	0	0	387	50	1	0	helfen	ehrlich	schlau	lachen	treu	freundlich	hindern	eitel	schroff	leiden	tot	fanatisch	retten	spielen	schön	loyal	tolerant	fair	rächen	strafen	schlecht	lasch	tyrannisch	faul	1	blank2r.bmp	0	1	+	0	1	blank2r.bmp	500	1	GKQX	500	1	blank2r.bmp	880	5	treu	880	1	!	1232	1	!	1289	0	0	0	0	0	0
2024-06-20	12:03:44	12:14:07	621359	6.6.1	4_exp_EVA_AWA_CON	92	B	A	Rpleas_acq	Oppo	Rpleas	2pleas	acq_US_unple_nomask	acq45_nomask	5	5	400	1	300	300	0	0	354	46	1	0	helfen	ehrlich	schlau	lachen	treu	freundlich	hindern	eitel	schroff	leiden	tot	fanatisch	retten	spielen	schön	loyal	tolerant	fair	rächen	strafen	schlecht	lasch	tyrannisch	faul	1	blank2r.bmp	0	1	+	0	1	blank2r.bmp	500	1	BMVZ	500	1	blank2r.bmp	880	5	tot	880	1	!	1232	1	!	1255	0	0	0	0	0	0
2024-06-20	12:03:44	12:14:09	623630	6.6.1	4_exp_EVA_AWA_CON	92	B	A	Rpleas_acq	Oppo	Rpleas	2pleas	acq_US_pleas_nomask	acq45_nomask	5	6	400	0	300	300	0	0	495	46	0	0	helfen	ehrlich	schlau	lachen	treu	freundlich	hindern	eitel	schroff	leiden	tot	fanatisch	retten	spielen	schön	loyal	tolerant	fair	rächen	strafen	schlecht	lasch	tyrannisch	faul	1	blank2r.bmp	0	1	+	0	1	blank2r.bmp	500	1	GKQX	500	1	blank2r.bmp	880	6	freundlich	880	1	!	1232	1	!	-1	0	0	0	0	0	0
2024-06-20	12:03:44	12:14:11	625910	6.6.1	4_exp_EVA_AWA_CON	92	B	A	Rpleas_acq	Oppo	Rpleas	2pleas	acq_US_unple_nomask	acq45_nomask	5	7	400	0	300	300	0	0	503	46	1	0	helfen	ehrlich	schlau	lachen	treu	freundlich	hindern	eitel	schroff	leiden	tot	fanatisch	retten	spielen	schön	loyal	tolerant	fair	rächen	strafen	schlecht	lasch	tyrannisch	faul	1	blank2r.bmp	0	1	+	0	1	blank2r.bmp	500	1	BMVZ	500	1	blank2r.bmp	880	2	eitel	880	1	!	1232	1	!	-1	0	0	0	0	0	0
2024-06-20	12:03:44	12:14:13	628095	6.6.1	4_exp_EVA_AWA_CON	92	B	A	Rpleas_acq	Oppo	Rpleas	2pleas	acq_US_pleas_nomask	acq45_nomask	5	8	400	1	300	300	0	0	406	50	1	0	helfen	ehrlich	schlau	lachen	treu	freundlich	hindern	eitel	schroff	leiden	tot	fanatisch	retten	spielen	schön	loyal	tolerant	fair	rächen	strafen	schlecht	lasch	tyrannisch	faul	1	blank2r.bmp	0	1	+	0	1	blank2r.bmp	500	1	GKQX	500	1	blank2r.bmp	880	3	schlau	880	1	!	1232	1	!	1307	0	0	0	0	0	0
2024-06-20	12:03:44	12:14:16	630462	6.6.1	4_exp_EVA_AWA_CON	92	B	A	Rpleas_acq	Oppo	Rpleas	2pleas	acq_US_unple_nomask	acq45_nomask	5	9	400	0	300	300	0	0	592	46	1	0	helfen	ehrlich	schlau	lachen	treu	freundlich	hindern	eitel	schroff	leiden	tot	fanatisch	retten	spielen	schön	loyal	tolerant	fair	rächen	strafen	schlecht	lasch	tyrannisch	faul	1	blank2r.bmp	0	1	+	0	1	blank2r.bmp	500	1	BMVZ	500	1	blank2r.bmp	880	6	fanatisch	880	1	!	1232	1	!	-1	0	0	0	0	0	0
2024-06-20	12:03:44	12:14:18	632704	6.6.1	4_exp_EVA_AWA_CON	92	B	A	Rpleas_acq	Oppo	Rpleas	2pleas	acq_US_pleas_nomask	acq45_nomask	5	10	400	1	300	300	0	0	461	50	1	0	helfen	ehrlich	schlau	lachen	treu	freundlich	hindern	eitel	schroff	leiden	tot	fanatisch	retten	spielen	schön	loyal	tolerant	fair	rächen	strafen	schlecht	lasch	tyrannisch	faul	1	blank2r.bmp	0	1	+	0	1	blank2r.bmp	500	1	GKQX	500	1	blank2r.bmp	880	2	ehrlich	880	1	!	1232	1	!	1362	0	0	0	0	0	0
2024-06-20	12:03:44	12:14:20	635014	6.6.1	4_exp_EVA_AWA_CON	92	B	A	Rpleas_acq	Oppo	Rpleas	2pleas	acq_US_pleas_nomask	acq45_nomask	5	11	400	0	300	300	0	0	531	50	1	0	helfen	ehrlich	schlau	lachen	treu	freundlich	hindern	eitel	schroff	leiden	tot	fanatisch	retten	spielen	schön	loyal	tolerant	fair	rächen	strafen	schlecht	lasch	tyrannisch	faul	1	blank2r.bmp	0	1	+	0	1	blank2r.bmp	500	1	GKQX	500	1	blank2r.bmp	880	4	lachen	880	1	!	1232	1	!	-1	0	0	0	0	0	0
2024-06-20	12:03:44	12:14:23	637294	6.6.1	4_exp_EVA_AWA_CON	92	B	A	Rpleas_acq	Oppo	Rpleas	2pleas	acq_US_unple_nomask	acq45_nomask	5	12	400	0	300	300	0	0	500	46	1	0	helfen	ehrlich	schlau	lachen	treu	freundlich	hindern	eitel	schroff	leiden	tot	fanatisch	retten	spielen	schön	loyal	tolerant	fair	rächen	strafen	schlecht	lasch	tyrannisch	faul	1	blank2r.bmp	0	1	+	0	1	blank2r.bmp	500	1	BMVZ	500	1	blank2r.bmp	880	4	leiden	880	1	!	1232	1	!	-1	0	0	0	0	0	0
2024-06-20	12:03:44	12:14:25	639496	6.6.1	4_exp_EVA_AWA_CON	92	B	A	Rpleas_acq	Oppo	Rpleas	2pleas	acq_US_pleas_nomask	acq45_nomask	5	13	400	1	300	300	0	0	418	50	1	0	helfen	ehrlich	schlau	lachen	treu	freundlich	hindern	eitel	schroff	leiden	tot	fanatisch	retten	spielen	schön	loyal	tolerant	fair	rächen	strafen	schlecht	lasch	tyrannisch	faul	1	blank2r.bmp	0	1	+	0	1	blank2r.bmp	500	1	GKQX	500	1	blank2r.bmp	880	3	schlau	880	1	!	1232	1	!	1320	0	0	0	0	0	0
2024-06-20	12:03:44	12:14:27	641918	6.6.1	4_exp_EVA_AWA_CON	92	B	A	Rpleas_acq	Oppo	Rpleas	2pleas	acq_US_unple_nomask	acq45_nomask	5	14	400	0	300	300	0	0	641	46	1	0	helfen	ehrlich	schlau	lachen	treu	freundlich	hindern	eitel	schroff	leiden	tot	fanatisch	retten	spielen	schön	loyal	tolerant	fair	rächen	strafen	schlecht	lasch	tyrannisch	faul	1	blank2r.bmp	0	1	+	0	1	blank2r.bmp	500	1	BMVZ	500	1	blank2r.bmp	880	6	fanatisch	880	1	!	1232	1	!	-1	0	0	0	0	0	0
2024-06-20	12:03:44	12:14:29	644119	6.6.1	4_exp_EVA_AWA_CON	92	B	A	Rpleas_acq	Oppo	Rpleas	2pleas	acq_US_pleas_nomask	acq45_nomask	5	15	400	1	300	300	0	0	420	50	1	0	helfen	ehrlich	schlau	lachen	treu	freundlich	hindern	eitel	schroff	leiden	tot	fanatisch	retten	spielen	schön	loyal	tolerant	fair	rächen	strafen	schlecht	lasch	tyrannisch	faul	1	blank2r.bmp	0	1	+	0	1	blank2r.bmp	500	1	GKQX	500	1	blank2r.bmp	880	6	freundlich	880	1	!	1232	1	!	1321	0	0	0	0	0	0
2024-06-20	12:03:44	12:14:32	646360	6.6.1	4_exp_EVA_AWA_CON	92	B	A	Rpleas_acq	Oppo	Rpleas	2pleas	acq_US_unple_nomask	acq45_nomask	5	16	400	1	300	300	0	0	458	46	1	0	helfen	ehrlich	schlau	lachen	treu	freundlich	hindern	eitel	schroff	leiden	tot	fanatisch	retten	spielen	schön	loyal	tolerant	fair	rächen	strafen	schlecht	lasch	tyrannisch	faul	1	blank2r.bmp	0	1	+	0	1	blank2r.bmp	500	1	BMVZ	500	1	blank2r.bmp	880	2	eitel	880	1	!	1232	1	!	1359	0	0	0	0	0	0
2024-06-20	12:03:44	12:14:34	648584	6.6.1	4_exp_EVA_AWA_CON	92	B	A	Rpleas_acq	Oppo	Rpleas	2pleas	acq_US_pleas_nomask	acq45_nomask	5	17	400	1	300	300	0	0	441	50	1	0	helfen	ehrlich	schlau	lachen	treu	freundlich	hindern	eitel	schroff	leiden	tot	fanatisch	retten	spielen	schön	loyal	tolerant	fair	rächen	strafen	schlecht	lasch	tyrannisch	faul	1	blank2r.bmp	0	1	+	0	1	blank2r.bmp	500	1	GKQX	500	1	blank2r.bmp	880	1	helfen	880	1	!	1232	1	!	1342	0	0	0	0	0	0
2024-06-20	12:03:44	12:14:36	650799	6.6.1	4_exp_EVA_AWA_CON	92	B	A	Rpleas_acq	Oppo	Rpleas	2pleas	acq_US_unple_nomask	acq45_nomask	5	18	400	1	300	300	0	0	435	46	1	0	helfen	ehrlich	schlau	lachen	treu	freundlich	hindern	eitel	schroff	leiden	tot	fanatisch	retten	spielen	schön	loyal	tolerant	fair	rächen	strafen	schlecht	lasch	tyrannisch	faul	1	blank2r.bmp	0	1	+	0	1	blank2r.bmp	500	1	BMVZ	500	1	blank2r.bmp	880	1	hindern	880	1	!	1232	1	!	1337	0	0	0	0	0	0
2024-06-20	12:03:44	12:14:38	652976	6.6.1	4_exp_EVA_AWA_CON	92	B	A	Rpleas_acq	Oppo	Rpleas	2pleas	acq_US_pleas_nomask	acq45_nomask	5	19	400	1	300	300	0	0	400	50	1	0	helfen	ehrlich	schlau	lachen	treu	freundlich	hindern	eitel	schroff	leiden	tot	fanatisch	retten	spielen	schön	loyal	tolerant	fair	rächen	strafen	schlecht	lasch	tyrannisch	faul	1	blank2r.bmp	0	1	+	0	1	blank2r.bmp	500	1	GKQX	500	1	blank2r.bmp	880	4	lachen	880	1	!	1232	1	!	1302	0	0	0	0	0	0
2024-06-20	12:03:44	12:14:40	655159	6.6.1	4_exp_EVA_AWA_CON	92	B	A	Rpleas_acq	Oppo	Rpleas	2pleas	acq_US_pleas_nomask	acq45_nomask	5	20	400	1	300	300	0	0	402	46	0	0	helfen	ehrlich	schlau	lachen	treu	freundlich	hindern	eitel	schroff	leiden	tot	fanatisch	retten	spielen	schön	loyal	tolerant	fair	rächen	strafen	schlecht	lasch	tyrannisch	faul	1	blank2r.bmp	0	1	+	0	1	blank2r.bmp	500	1	GKQX	500	1	blank2r.bmp	880	2	ehrlich	880	1	!	1232	1	!	1304	0	0	0	0	0	0
2024-06-20	12:03:44	12:14:43	657430	6.6.1	4_exp_EVA_AWA_CON	92	B	A	Rpleas_acq	Oppo	Rpleas	2pleas	acq_US_unple_nomask	acq45_nomask	5	21	400	0	300	300	0	0	493	46	1	0	helfen	ehrlich	schlau	lachen	treu	freundlich	hindern	eitel	schroff	leiden	tot	fanatisch	retten	spielen	schön	loyal	tolerant	fair	rächen	strafen	schlecht	lasch	tyrannisch	faul	1	blank2r.bmp	0	1	+	0	1	blank2r.bmp	500	1	BMVZ	500	1	blank2r.bmp	880	3	schroff	880	1	!	1232	1	!	-1	0	0	0	0	0	0
2024-06-20	12:03:44	12:14:45	659631	6.6.1	4_exp_EVA_AWA_CON	92	B	A	Rpleas_acq	Oppo	Rpleas	2pleas	acq_US_unple_nomask	acq45_nomask	5	22	400	1	300	300	0	0	421	50	0	0	helfen	ehrlich	schlau	lachen	treu	freundlich	hindern	eitel	schroff	leiden	tot	fanatisch	retten	spielen	schön	loyal	tolerant	fair	rächen	strafen	schlecht	lasch	tyrannisch	faul	1	blank2r.bmp	0	1	+	0	1	blank2r.bmp	500	1	BMVZ	500	1	blank2r.bmp	880	5	tot	880	1	!	1232	1	!	1323	0	0	0	0	0	0
2024-06-20	12:03:44	12:14:47	661872	6.6.1	4_exp_EVA_AWA_CON	92	B	A	Rpleas_acq	Oppo	Rpleas	2pleas	acq_US_pleas_nomask	acq45_nomask	5	23	400	1	300	300	0	0	460	50	1	0	helfen	ehrlich	schlau	lachen	treu	freundlich	hindern	eitel	schroff	leiden	tot	fanatisch	retten	spielen	schön	loyal	tolerant	fair	rächen	strafen	schlecht	lasch	tyrannisch	faul	1	blank2r.bmp	0	1	+	0	1	blank2r.bmp	500	1	GKQX	500	1	blank2r.bmp	880	5	treu	880	1	!	1232	1	!	1362	0	0	0	0	0	0
2024-06-20	12:03:44	12:14:49	664132	6.6.1	4_exp_EVA_AWA_CON	92	B	A	Rpleas_acq	Oppo	Rpleas	2pleas	acq_US_unple_nomask	acq45_nomask	5	24	400	0	300	300	0	0	483	46	1	0	helfen	ehrlich	schlau	lachen	treu	freundlich	hindern	eitel	schroff	leiden	tot	fanatisch	retten	spielen	schön	loyal	tolerant	fair	rächen	strafen	schlecht	lasch	tyrannisch	faul	1	blank2r.bmp	0	1	+	0	1	blank2r.bmp	500	1	BMVZ	500	1	blank2r.bmp	880	4	leiden	880	1	!	1232	1	!	-1	0	0	0	0	0	0
2024-06-20	12:03:44	12:14:52	666438	6.6.1	4_exp_EVA_AWA_CON	92	B	A	Rpleas_acq	Oppo	Rpleas	2pleas	acq_US_unple_nomask	acq45_nomask	5	25	400	0	300	300	0	0	525	46	1	0	helfen	ehrlich	schlau	lachen	treu	freundlich	hindern	eitel	schroff	leiden	tot	fanatisch	retten	spielen	schön	loyal	tolerant	fair	rächen	strafen	schlecht	lasch	tyrannisch	faul	1	blank2r.bmp	0	1	+	0	1	blank2r.bmp	500	1	BMVZ	500	1	blank2r.bmp	880	4	leiden	880	1	!	1232	1	!	-1	0	0	0	0	0	0
2024-06-20	12:03:44	12:14:54	668692	6.6.1	4_exp_EVA_AWA_CON	92	B	A	Rpleas_acq	Oppo	Rpleas	2pleas	acq_US_unple_nomask	acq45_nomask	5	26	400	0	300	300	0	0	480	46	1	0	helfen	ehrlich	schlau	lachen	treu	freundlich	hindern	eitel	schroff	leiden	tot	fanatisch	retten	spielen	schön	loyal	tolerant	fair	rächen	strafen	schlecht	lasch	tyrannisch	faul	1	blank2r.bmp	0	1	+	0	1	blank2r.bmp	500	1	BMVZ	500	1	blank2r.bmp	880	5	tot	880	1	!	1232	1	!	-1	0	0	0	0	0	0
2024-06-20	12:03:44	12:14:56	670816	6.6.1	4_exp_EVA_AWA_CON	92	B	A	Rpleas_acq	Oppo	Rpleas	2pleas	acq_US_pleas_nomask	acq45_nomask	5	27	400	1	300	300	0	0	348	46	0	0	helfen	ehrlich	schlau	lachen	treu	freundlich	hindern	eitel	schroff	leiden	tot	fanatisch	retten	spielen	schön	loyal	tolerant	fair	rächen	strafen	schlecht	lasch	tyrannisch	faul	1	blank2r.bmp	0	1	+	0	1	blank2r.bmp	500	1	GKQX	500	1	blank2r.bmp	880	3	schlau	880	1	!	1232	1	!	1250	0	0	0	0	0	0
2024-06-20	12:03:44	12:14:58	673023	6.6.1	4_exp_EVA_AWA_CON	92	B	A	Rpleas_acq	Oppo	Rpleas	2pleas	acq_US_unple_nomask	acq45_nomask	5	28	400	1	300	300	0	0	425	46	1	0	helfen	ehrlich	schlau	lachen	treu	freundlich	hindern	eitel	schroff	leiden	tot	fanatisch	retten	spielen	schön	loyal	tolerant	fair	rächen	strafen	schlecht	lasch	tyrannisch	faul	1	blank2r.bmp	0	1	+	0	1	blank2r.bmp	500	1	BMVZ	500	1	blank2r.bmp	880	1	hindern	880	1	!	1232	1	!	1326	0	0	0	0	0	0
2024-06-20	12:03:44	12:15:00	675215	6.6.1	4_exp_EVA_AWA_CON	92	B	A	Rpleas_acq	Oppo	Rpleas	2pleas	acq_US_pleas_nomask	acq45_nomask	5	29	400	1	300	300	0	0	416	50	1	0	helfen	ehrlich	schlau	lachen	treu	freundlich	hindern	eitel	schroff	leiden	tot	fanatisch	retten	spielen	schön	loyal	tolerant	fair	rächen	strafen	schlecht	lasch	tyrannisch	faul	1	blank2r.bmp	0	1	+	0	1	blank2r.bmp	500	1	GKQX	500	1	blank2r.bmp	880	5	treu	880	1	!	1233	1	!	1317	0	0	0	0	0	0
2024-06-20	12:03:44	12:15:03	677407	6.6.1	4_exp_EVA_AWA_CON	92	B	A	Rpleas_acq	Oppo	Rpleas	2pleas	acq_US_unple_nomask	acq45_nomask	5	30	400	1	300	300	0	0	416	46	1	0	helfen	ehrlich	schlau	lachen	treu	freundlich	hindern	eitel	schroff	leiden	tot	fanatisch	retten	spielen	schön	loyal	tolerant	fair	rächen	strafen	schlecht	lasch	tyrannisch	faul	1	blank2r.bmp	0	1	+	0	1	blank2r.bmp	500	1	BMVZ	500	1	blank2r.bmp	880	3	schroff	880	1	!	1232	1	!	1317	0	0	0	0	0	0
2024-06-20	12:03:44	12:15:05	679639	6.6.1	4_exp_EVA_AWA_CON	92	B	A	Rpleas_acq	Oppo	Rpleas	2pleas	acq_US_pleas_nomask	acq45_nomask	5	31	400	1	300	300	0	0	457	50	1	0	helfen	ehrlich	schlau	lachen	treu	freundlich	hindern	eitel	schroff	leiden	tot	fanatisch	retten	spielen	schön	loyal	tolerant	fair	rächen	strafen	schlecht	lasch	tyrannisch	faul	1	blank2r.bmp	0	1	+	0	1	blank2r.bmp	500	1	GKQX	500	1	blank2r.bmp	880	4	lachen	880	1	!	1233	1	!	1358	0	0	0	0	0	0
2024-06-20	12:03:44	12:15:07	681807	6.6.1	4_exp_EVA_AWA_CON	92	B	A	Rpleas_acq	Oppo	Rpleas	2pleas	acq_US_pleas_nomask	acq45_nomask	5	32	400	1	300	300	0	0	393	50	1	0	helfen	ehrlich	schlau	lachen	treu	freundlich	hindern	eitel	schroff	leiden	tot	fanatisch	retten	spielen	schön	loyal	tolerant	fair	rächen	strafen	schlecht	lasch	tyrannisch	faul	1	blank2r.bmp	0	1	+	0	1	blank2r.bmp	500	1	GKQX	500	1	blank2r.bmp	880	2	ehrlich	880	1	!	1232	1	!	1295	0	0	0	0	0	0
2024-06-20	12:03:44	12:15:09	684039	6.6.1	4_exp_EVA_AWA_CON	92	B	A	Rpleas_acq	Oppo	Rpleas	2pleas	acq_US_pleas_nomask	acq45_nomask	5	33	400	1	300	300	0	0	454	50	1	0	helfen	ehrlich	schlau	lachen	treu	freundlich	hindern	eitel	schroff	leiden	tot	fanatisch	retten	spielen	schön	loyal	tolerant	fair	rächen	strafen	schlecht	lasch	tyrannisch	faul	1	blank2r.bmp	0	1	+	0	1	blank2r.bmp	500	1	GKQX	500	1	blank2r.bmp	880	1	helfen	880	1	!	1233	1	!	1355	0	0	0	0	0	0
2024-06-20	12:03:44	12:15:11	686176	6.6.1	4_exp_EVA_AWA_CON	92	B	A	Rpleas_acq	Oppo	Rpleas	2pleas	acq_US_pleas_nomask	acq45_nomask	5	34	400	1	300	300	0	0	358	50	1	0	helfen	ehrlich	schlau	lachen	treu	freundlich	hindern	eitel	schroff	leiden	tot	fanatisch	retten	spielen	schön	loyal	tolerant	fair	rächen	strafen	schlecht	lasch	tyrannisch	faul	1	blank2r.bmp	0	1	+	0	1	blank2r.bmp	500	1	GKQX	500	1	blank2r.bmp	880	6	freundlich	880	1	!	1232	1	!	1260	0	0	0	0	0	0
2024-06-20	12:03:44	12:15:14	688351	6.6.1	4_exp_EVA_AWA_CON	92	B	A	Rpleas_acq	Oppo	Rpleas	2pleas	acq_US_unple_nomask	acq45_nomask	5	35	400	1	300	300	0	0	393	46	1	0	helfen	ehrlich	schlau	lachen	treu	freundlich	hindern	eitel	schroff	leiden	tot	fanatisch	retten	spielen	schön	loyal	tolerant	fair	rächen	strafen	schlecht	lasch	tyrannisch	faul	1	blank2r.bmp	0	1	+	0	1	blank2r.bmp	500	1	BMVZ	500	1	blank2r.bmp	880	6	fanatisch	880	1	!	1232	1	!	1294	0	0	0	0	0	0
2024-06-20	12:03:44	12:15:16	690535	6.6.1	4_exp_EVA_AWA_CON	92	B	A	Rpleas_acq	Oppo	Rpleas	2pleas	acq_US_unple_nomask	acq45_nomask	5	36	400	1	300	300	0	0	406	50	0	0	helfen	ehrlich	schlau	lachen	treu	freundlich	hindern	eitel	schroff	leiden	tot	fanatisch	retten	spielen	schön	loyal	tolerant	fair	rächen	strafen	schlecht	lasch	tyrannisch	faul	1	blank2r.bmp	0	1	+	0	1	blank2r.bmp	500	1	BMVZ	500	1	blank2r.bmp	880	2	eitel	880	1	!	1232	1	!	1307	0	0	0	0	0	0
2024-06-20	12:03:44	12:15:36	710578	6.6.1	4_exp_EVA_AWA_CON	92	B	A	Rpleas_acq	Oppo	Lpleas	2pleas	EvalRating_firsttwo	EvalRating_firsttwo	6	1	0	0	300	300	0	0	5071	line	0	-40,1041666666666642982pct	helfen	ehrlich	schlau	lachen	treu	freundlich	hindern	eitel	schroff	leiden	tot	fanatisch	retten	spielen	schön	loyal	tolerant	fair	rächen	strafen	schlecht	lasch	tyrannisch	faul	1		-7	1	Wie angenehm oder unangenehm finden Sie die  Buchstabenkette ZGVK?	-7	1		-7	1		-7	1		-7	1	Unangenehm	-7	1	Angenehm	-7	0	0	0	0	0	0	0	0	0
2024-06-20	12:03:44	12:15:43	717451	6.6.1	4_exp_EVA_AWA_CON	92	B	A	Rpleas_acq	Oppo	Lpleas	2pleas	EvalRating_lastfour	EvalRating_lastfour	7	1	0	0	300	300	0	0	4499	line	0	-32,5520833333333285964pct	helfen	ehrlich	schlau	lachen	treu	freundlich	hindern	eitel	schroff	leiden	tot	fanatisch	retten	spielen	schön	loyal	tolerant	fair	rächen	strafen	schlecht	lasch	tyrannisch	faul	1		-7	3	Wie angenehm oder unangenehm finden Sie die  Buchstabenkette XBQM?	-7	1		-7	1		-7	1		-7	1	Unangenehm	-7	1	Angenehm	-7	0	0	0	0	0	0	0	0	0
2024-06-20	12:03:44	12:15:45	719818	6.6.1	4_exp_EVA_AWA_CON	92	B	A	Rpleas_acq	Oppo	Lpleas	2pleas	blank_screen	EvalRating_lastfour	7	3	0	0	300	300	0	0	0	0	0	-32,5520833333333285964pct	helfen	ehrlich	schlau	lachen	treu	freundlich	hindern	eitel	schroff	leiden	tot	fanatisch	retten	spielen	schön	loyal	tolerant	fair	rächen	strafen	schlecht	lasch	tyrannisch	faul	1		-8	0	0	0	0	0	0	0	0	0	0	0	0	0	0	0	0	0	0	0	0	0	0	0	0	0	0	0
2024-06-20	12:03:44	12:15:49	723603	6.6.1	4_exp_EVA_AWA_CON	92	B	A	Rpleas_acq	Oppo	Lpleas	2pleas	EvalRating_lastfour	EvalRating_lastfour	7	4	0	0	300	300	0	0	3196	line	0	-61,0677083333333285964pct	helfen	ehrlich	schlau	lachen	treu	freundlich	hindern	eitel	schroff	leiden	tot	fanatisch	retten	spielen	schön	loyal	tolerant	fair	rächen	strafen	schlecht	lasch	tyrannisch	faul	1		-8	2	Wie angenehm oder unangenehm finden Sie die  Buchstabenkette GKQX?	-8	1		-8	1		-8	1		-8	1	Unangenehm	-8	1	Angenehm	-8	0	0	0	0	0	0	0	0	0
2024-06-20	12:03:44	12:15:51	725972	6.6.1	4_exp_EVA_AWA_CON	92	B	A	Rpleas_acq	Oppo	Lpleas	2pleas	blank_screen	EvalRating_lastfour	7	6	0	0	300	300	0	0	0	0	0	-61,0677083333333285964pct	helfen	ehrlich	schlau	lachen	treu	freundlich	hindern	eitel	schroff	leiden	tot	fanatisch	retten	spielen	schön	loyal	tolerant	fair	rächen	strafen	schlecht	lasch	tyrannisch	faul	1		-8	0	0	0	0	0	0	0	0	0	0	0	0	0	0	0	0	0	0	0	0	0	0	0	0	0	0	0
2024-06-20	12:03:44	12:15:55	729539	6.6.1	4_exp_EVA_AWA_CON	92	B	A	Rpleas_acq	Oppo	Lpleas	2pleas	EvalRating_lastfour	EvalRating_lastfour	7	7	0	0	300	300	0	0	2978	line	0	-1,6927083333333285964pct	helfen	ehrlich	schlau	lachen	treu	freundlich	hindern	eitel	schroff	leiden	tot	fanatisch	retten	spielen	schön	loyal	tolerant	fair	rächen	strafen	schlecht	lasch	tyrannisch	faul	1		-7	1	Wie angenehm oder unangenehm finden Sie die  Buchstabenkette BMVZ?	-7	1		-7	1		-7	1		-7	1	Unangenehm	-7	1	Angenehm	-7	0	0	0	0	0	0	0	0	0
2024-06-20	12:03:44	12:16:57	792138	6.6.1	4_exp_EVA_AWA_CON	92	B	A	Rpleas_acq	Oppo	Lpleas	2pleas	conawa_CS1_US6	conawa1_nomask	8	1	0	0	300	300	0	0	14922	freundlich	1	-1,6927083333333285964pct	helfen	ehrlich	schlau	lachen	treu	freundlich	hindern	eitel	schroff	leiden	tot	fanatisch	retten	spielen	schön	loyal	tolerant	fair	rächen	strafen	schlecht	lasch	tyrannisch	faul	0	0	0	0	0	0	0	0	0	0	0	0	0	0	0	0	0	0	0	0	0	0	0	0	0	0	0	0	0	0
2024-06-20	12:03:44	12:16:57	792139	6.6.1	4_exp_EVA_AWA_CON	92	B	A	Rpleas_acq	Oppo	Lpleas	2pleas	conawa_CS1_US6_confidence	conawa1_nomask	8	1	0	0	300	300	0	0	14922	guess	1	-1,6927083333333285964pct	helfen	ehrlich	schlau	lachen	treu	freundlich	hindern	eitel	schroff	leiden	tot	fanatisch	retten	spielen	schön	loyal	tolerant	fair	rächen	strafen	schlecht	lasch	tyrannisch	faul	0	0	0	0	0	0	0	0	0	0	0	0	0	0	0	0	0	0	0	0	0	0	0	0	0	0	0	0	0	0
2024-06-20	12:03:44	12:17:07	801779	6.6.1	4_exp_EVA_AWA_CON	92	B	A	Rpleas_acq	Oppo	Lpleas	2pleas	conawa_CS1_US1	conawa1_nomask	8	2	0	0	300	300	0	0	9025	helfen	1	-1,6927083333333285964pct	helfen	ehrlich	schlau	lachen	treu	freundlich	hindern	eitel	schroff	leiden	tot	fanatisch	retten	spielen	schön	loyal	tolerant	fair	rächen	strafen	schlecht	lasch	tyrannisch	faul	0	0	0	0	0	0	0	0	0	0	0	0	0	0	0	0	0	0	0	0	0	0	0	0	0	0	0	0	0	0
2024-06-20	12:03:44	12:17:07	801781	6.6.1	4_exp_EVA_AWA_CON	92	B	A	Rpleas_acq	Oppo	Lpleas	2pleas	conawa_CS1_US1_confidence	conawa1_nomask	8	2	0	0	300	300	0	0	9025	guess	1	-1,6927083333333285964pct	helfen	ehrlich	schlau	lachen	treu	freundlich	hindern	eitel	schroff	leiden	tot	fanatisch	retten	spielen	schön	loyal	tolerant	fair	rächen	strafen	schlecht	lasch	tyrannisch	faul	0	0	0	0	0	0	0	0	0	0	0	0	0	0	0	0	0	0	0	0	0	0	0	0	0	0	0	0	0	0
2024-06-20	12:03:44	12:17:16	810655	6.6.1	4_exp_EVA_AWA_CON	92	B	A	Rpleas_acq	Oppo	Lpleas	2pleas	conawa_CS2_US6	conawa1_nomask	8	3	0	0	300	300	0	0	8254	fanatisch	1	-1,6927083333333285964pct	helfen	ehrlich	schlau	lachen	treu	freundlich	hindern	eitel	schroff	leiden	tot	fanatisch	retten	spielen	schön	loyal	tolerant	fair	rächen	strafen	schlecht	lasch	tyrannisch	faul	0	0	0	0	0	0	0	0	0	0	0	0	0	0	0	0	0	0	0	0	0	0	0	0	0	0	0	0	0	0
2024-06-20	12:03:44	12:17:16	810656	6.6.1	4_exp_EVA_AWA_CON	92	B	A	Rpleas_acq	Oppo	Lpleas	2pleas	conawa_CS2_US6_confidence	conawa1_nomask	8	3	0	0	300	300	0	0	8254	guess	1	-1,6927083333333285964pct	helfen	ehrlich	schlau	lachen	treu	freundlich	hindern	eitel	schroff	leiden	tot	fanatisch	retten	spielen	schön	loyal	tolerant	fair	rächen	strafen	schlecht	lasch	tyrannisch	faul	0	0	0	0	0	0	0	0	0	0	0	0	0	0	0	0	0	0	0	0	0	0	0	0	0	0	0	0	0	0
2024-06-20	12:03:44	12:17:22	816969	6.6.1	4_exp_EVA_AWA_CON	92	B	A	Rpleas_acq	Oppo	Lpleas	2pleas	conawa_CS1_US5	conawa1_nomask	8	4	0	0	300	300	0	0	5700	tot	1	-1,6927083333333285964pct	helfen	ehrlich	schlau	lachen	treu	freundlich	hindern	eitel	schroff	leiden	tot	fanatisch	retten	spielen	schön	loyal	tolerant	fair	rächen	strafen	schlecht	lasch	tyrannisch	faul	0	0	0	0	0	0	0	0	0	0	0	0	0	0	0	0	0	0	0	0	0	0	0	0	0	0	0	0	0	0
2024-06-20	12:03:44	12:17:22	816971	6.6.1	4_exp_EVA_AWA_CON	92	B	A	Rpleas_acq	Oppo	Lpleas	2pleas	conawa_CS1_US5_confidence	conawa1_nomask	8	4	0	0	300	300	0	0	5700	guess	1	-1,6927083333333285964pct	helfen	ehrlich	schlau	lachen	treu	freundlich	hindern	eitel	schroff	leiden	tot	fanatisch	retten	spielen	schön	loyal	tolerant	fair	rächen	strafen	schlecht	lasch	tyrannisch	faul	0	0	0	0	0	0	0	0	0	0	0	0	0	0	0	0	0	0	0	0	0	0	0	0	0	0	0	0	0	0
2024-06-20	12:03:44	12:17:35	829677	6.6.1	4_exp_EVA_AWA_CON	92	B	A	Rpleas_acq	Oppo	Lpleas	2pleas	conawa_CS2_US4	conawa1_nomask	8	5	0	0	300	300	0	0	12089	tolerant	1	-1,6927083333333285964pct	helfen	ehrlich	schlau	lachen	treu	freundlich	hindern	eitel	schroff	leiden	tot	fanatisch	retten	spielen	schön	loyal	tolerant	fair	rächen	strafen	schlecht	lasch	tyrannisch	faul	0	0	0	0	0	0	0	0	0	0	0	0	0	0	0	0	0	0	0	0	0	0	0	0	0	0	0	0	0	0
2024-06-20	12:03:44	12:17:35	829679	6.6.1	4_exp_EVA_AWA_CON	92	B	A	Rpleas_acq	Oppo	Lpleas	2pleas	conawa_CS2_US4_confidence	conawa1_nomask	8	5	0	0	300	300	0	0	12089	guess	1	-1,6927083333333285964pct	helfen	ehrlich	schlau	lachen	treu	freundlich	hindern	eitel	schroff	leiden	tot	fanatisch	retten	spielen	schön	loyal	tolerant	fair	rächen	strafen	schlecht	lasch	tyrannisch	faul	0	0	0	0	0	0	0	0	0	0	0	0	0	0	0	0	0	0	0	0	0	0	0	0	0	0	0	0	0	0
2024-06-20	12:03:44	12:17:42	836552	6.6.1	4_exp_EVA_AWA_CON	92	B	A	Rpleas_acq	Oppo	Lpleas	2pleas	conawa_CS2_US5	conawa1_nomask	8	6	0	0	300	300	0	0	6255	tot	1	-1,6927083333333285964pct	helfen	ehrlich	schlau	lachen	treu	freundlich	hindern	eitel	schroff	leiden	tot	fanatisch	retten	spielen	schön	loyal	tolerant	fair	rächen	strafen	schlecht	lasch	tyrannisch	faul	0	0	0	0	0	0	0	0	0	0	0	0	0	0	0	0	0	0	0	0	0	0	0	0	0	0	0	0	0	0
2024-06-20	12:03:44	12:17:42	836553	6.6.1	4_exp_EVA_AWA_CON	92	B	A	Rpleas_acq	Oppo	Lpleas	2pleas	conawa_CS2_US5_confidence	conawa1_nomask	8	6	0	0	300	300	0	0	6255	guess	1	-1,6927083333333285964pct	helfen	ehrlich	schlau	lachen	treu	freundlich	hindern	eitel	schroff	leiden	tot	fanatisch	retten	spielen	schön	loyal	tolerant	fair	rächen	strafen	schlecht	lasch	tyrannisch	faul	0	0	0	0	0	0	0	0	0	0	0	0	0	0	0	0	0	0	0	0	0	0	0	0	0	0	0	0	0	0
2024-06-20	12:03:44	12:17:48	843216	6.6.1	4_exp_EVA_AWA_CON	92	B	A	Rpleas_acq	Oppo	Lpleas	2pleas	conawa_CS1_US3	conawa1_nomask	8	7	0	0	300	300	0	0	6051	schlau	1	-1,6927083333333285964pct	helfen	ehrlich	schlau	lachen	treu	freundlich	hindern	eitel	schroff	leiden	tot	fanatisch	retten	spielen	schön	loyal	tolerant	fair	rächen	strafen	schlecht	lasch	tyrannisch	faul	0	0	0	0	0	0	0	0	0	0	0	0	0	0	0	0	0	0	0	0	0	0	0	0	0	0	0	0	0	0
2024-06-20	12:03:44	12:17:48	843218	6.6.1	4_exp_EVA_AWA_CON	92	B	A	Rpleas_acq	Oppo	Lpleas	2pleas	conawa_CS1_US3_confidence	conawa1_nomask	8	7	0	0	300	300	0	0	6051	guess	1	-1,6927083333333285964pct	helfen	ehrlich	schlau	lachen	treu	freundlich	hindern	eitel	schroff	leiden	tot	fanatisch	retten	spielen	schön	loyal	tolerant	fair	rächen	strafen	schlecht	lasch	tyrannisch	faul	0	0	0	0	0	0	0	0	0	0	0	0	0	0	0	0	0	0	0	0	0	0	0	0	0	0	0	0	0	0
2024-06-20	12:03:44	12:17:55	849720	6.6.1	4_exp_EVA_AWA_CON	92	B	A	Rpleas_acq	Oppo	Lpleas	2pleas	conawa_CS2_US1	conawa1_nomask	8	8	0	0	300	300	0	0	5892	strafen	1	-1,6927083333333285964pct	helfen	ehrlich	schlau	lachen	treu	freundlich	hindern	eitel	schroff	leiden	tot	fanatisch	retten	spielen	schön	loyal	tolerant	fair	rächen	strafen	schlecht	lasch	tyrannisch	faul	0	0	0	0	0	0	0	0	0	0	0	0	0	0	0	0	0	0	0	0	0	0	0	0	0	0	0	0	0	0
2024-06-20	12:03:44	12:17:55	849721	6.6.1	4_exp_EVA_AWA_CON	92	B	A	Rpleas_acq	Oppo	Lpleas	2pleas	conawa_CS2_US1_confidence	conawa1_nomask	8	8	0	0	300	300	0	0	5892	guess	1	-1,6927083333333285964pct	helfen	ehrlich	schlau	lachen	treu	freundlich	hindern	eitel	schroff	leiden	tot	fanatisch	retten	spielen	schön	loyal	tolerant	fair	rächen	strafen	schlecht	lasch	tyrannisch	faul	0	0	0	0	0	0	0	0	0	0	0	0	0	0	0	0	0	0	0	0	0	0	0	0	0	0	0	0	0	0
2024-06-20	12:03:44	12:18:02	856974	6.6.1	4_exp_EVA_AWA_CON	92	B	A	Rpleas_acq	Oppo	Lpleas	2pleas	conawa_CS1_US2	conawa1_nomask	8	9	0	0	300	300	0	0	6637	ehrlich	1	-1,6927083333333285964pct	helfen	ehrlich	schlau	lachen	treu	freundlich	hindern	eitel	schroff	leiden	tot	fanatisch	retten	spielen	schön	loyal	tolerant	fair	rächen	strafen	schlecht	lasch	tyrannisch	faul	0	0	0	0	0	0	0	0	0	0	0	0	0	0	0	0	0	0	0	0	0	0	0	0	0	0	0	0	0	0
2024-06-20	12:03:44	12:18:02	856977	6.6.1	4_exp_EVA_AWA_CON	92	B	A	Rpleas_acq	Oppo	Lpleas	2pleas	conawa_CS1_US2_confidence	conawa1_nomask	8	9	0	0	300	300	0	0	6637	guess	1	-1,6927083333333285964pct	helfen	ehrlich	schlau	lachen	treu	freundlich	hindern	eitel	schroff	leiden	tot	fanatisch	retten	spielen	schön	loyal	tolerant	fair	rächen	strafen	schlecht	lasch	tyrannisch	faul	0	0	0	0	0	0	0	0	0	0	0	0	0	0	0	0	0	0	0	0	0	0	0	0	0	0	0	0	0	0
2024-06-20	12:03:44	12:18:10	864980	6.6.1	4_exp_EVA_AWA_CON	92	B	A	Rpleas_acq	Oppo	Lpleas	2pleas	conawa_CS2_US2	conawa1_nomask	8	10	0	0	300	300	0	0	7388	eitel	1	-1,6927083333333285964pct	helfen	ehrlich	schlau	lachen	treu	freundlich	hindern	eitel	schroff	leiden	tot	fanatisch	retten	spielen	schön	loyal	tolerant	fair	rächen	strafen	schlecht	lasch	tyrannisch	faul	0	0	0	0	0	0	0	0	0	0	0	0	0	0	0	0	0	0	0	0	0	0	0	0	0	0	0	0	0	0
2024-06-20	12:03:44	12:18:10	864981	6.6.1	4_exp_EVA_AWA_CON	92	B	A	Rpleas_acq	Oppo	Lpleas	2pleas	conawa_CS2_US2_confidence	conawa1_nomask	8	10	0	0	300	300	0	0	7388	guess	1	-1,6927083333333285964pct	helfen	ehrlich	schlau	lachen	treu	freundlich	hindern	eitel	schroff	leiden	tot	fanatisch	retten	spielen	schön	loyal	tolerant	fair	rächen	strafen	schlecht	lasch	tyrannisch	faul	0	0	0	0	0	0	0	0	0	0	0	0	0	0	0	0	0	0	0	0	0	0	0	0	0	0	0	0	0	0
2024-06-20	12:03:44	12:18:15	870023	6.6.1	4_exp_EVA_AWA_CON	92	B	A	Rpleas_acq	Oppo	Lpleas	2pleas	conawa_CS2_US3	conawa1_nomask	8	11	0	0	300	300	0	0	4433	lasch	1	-1,6927083333333285964pct	helfen	ehrlich	schlau	lachen	treu	freundlich	hindern	eitel	schroff	leiden	tot	fanatisch	retten	spielen	schön	loyal	tolerant	fair	rächen	strafen	schlecht	lasch	tyrannisch	faul	0	0	0	0	0	0	0	0	0	0	0	0	0	0	0	0	0	0	0	0	0	0	0	0	0	0	0	0	0	0
2024-06-20	12:03:44	12:18:15	870025	6.6.1	4_exp_EVA_AWA_CON	92	B	A	Rpleas_acq	Oppo	Lpleas	2pleas	conawa_CS2_US3_confidence	conawa1_nomask	8	11	0	0	300	300	0	0	4433	guess	1	-1,6927083333333285964pct	helfen	ehrlich	schlau	lachen	treu	freundlich	hindern	eitel	schroff	leiden	tot	fanatisch	retten	spielen	schön	loyal	tolerant	fair	rächen	strafen	schlecht	lasch	tyrannisch	faul	0	0	0	0	0	0	0	0	0	0	0	0	0	0	0	0	0	0	0	0	0	0	0	0	0	0	0	0	0	0
2024-06-20	12:03:44	12:18:20	874816	6.6.1	4_exp_EVA_AWA_CON	92	B	A	Rpleas_acq	Oppo	Lpleas	2pleas	conawa_CS1_US4	conawa1_nomask	8	12	0	0	300	300	0	0	4181	lachen	1	-1,6927083333333285964pct	helfen	ehrlich	schlau	lachen	treu	freundlich	hindern	eitel	schroff	leiden	tot	fanatisch	retten	spielen	schön	loyal	tolerant	fair	rächen	strafen	schlecht	lasch	tyrannisch	faul	0	0	0	0	0	0	0	0	0	0	0	0	0	0	0	0	0	0	0	0	0	0	0	0	0	0	0	0	0	0
2024-06-20	12:03:44	12:18:20	874818	6.6.1	4_exp_EVA_AWA_CON	92	B	A	Rpleas_acq	Oppo	Lpleas	2pleas	conawa_CS1_US4_confidence	conawa1_nomask	8	12	0	0	300	300	0	0	4181	guess	1	-1,6927083333333285964pct	helfen	ehrlich	schlau	lachen	treu	freundlich	hindern	eitel	schroff	leiden	tot	fanatisch	retten	spielen	schön	loyal	tolerant	fair	rächen	strafen	schlecht	lasch	tyrannisch	faul	0	0	0	0	0	0	0	0	0	0	0	0	0	0	0	0	0	0	0	0	0	0	0	0	0	0	0	0	0	0
2024-06-20	12:03:44	12:19:36	950933	6.6.1	4_exp_EVA_AWA_CON	92	B	A	Rpleas_acq	Oppo	Lpleas	2pleas	cond_new_pleas_456_nomask_CS2	condtest_nomask_1	11	1	400	0	300	300	0	0	499	46	1	-1,6927083333333285964pct	helfen	ehrlich	schlau	lachen	treu	freundlich	hindern	eitel	schroff	leiden	tot	fanatisch	retten	spielen	schön	loyal	tolerant	fair	rächen	strafen	schlecht	lasch	tyrannisch	faul	1	blank2r.bmp	0	1	+	0	1	blank2r.bmp	500	1	GKQX	500	1	blank2r.bmp	880	2	loyal	880	1	!	1232	1	!	-1	0	0	0	0	0	0
2024-06-20	12:03:44	12:19:38	953175	6.6.1	4_exp_EVA_AWA_CON	92	B	A	Rpleas_acq	Oppo	Lpleas	2pleas	cond_US_pleas_123_nomask_CS1	condtest_nomask_1	11	2	400	1	300	300	0	0	467	46	1	-1,6927083333333285964pct	helfen	ehrlich	schlau	lachen	treu	freundlich	hindern	eitel	schroff	leiden	tot	fanatisch	retten	spielen	schön	loyal	tolerant	fair	rächen	strafen	schlecht	lasch	tyrannisch	faul	1	blank2r.bmp	0	1	+	0	1	blank2r.bmp	500	1	BMVZ	500	1	blank2r.bmp	880	1	helfen	880	1	!	1232	1	!	1368	0	0	0	0	0	0
2024-06-20	12:03:44	12:19:41	955375	6.6.1	4_exp_EVA_AWA_CON	92	B	A	Rpleas_acq	Oppo	Lpleas	2pleas	cond_new_unple_456_nomask_CS1	condtest_nomask_1	11	3	400	1	300	300	0	0	426	46	0	-1,6927083333333285964pct	helfen	ehrlich	schlau	lachen	treu	freundlich	hindern	eitel	schroff	leiden	tot	fanatisch	retten	spielen	schön	loyal	tolerant	fair	rächen	strafen	schlecht	lasch	tyrannisch	faul	1	blank2r.bmp	0	1	+	0	1	blank2r.bmp	500	1	BMVZ	500	1	blank2r.bmp	880	1	lasch	880	1	!	1232	1	!	1327	0	0	0	0	0	0
2024-06-20	12:03:44	12:19:43	957725	6.6.1	4_exp_EVA_AWA_CON	92	B	A	Rpleas_acq	Oppo	Lpleas	2pleas	cond_new_unple_456_nomask_CS2	condtest_nomask_1	11	4	400	0	300	300	0	0	577	50	1	-1,6927083333333285964pct	helfen	ehrlich	schlau	lachen	treu	freundlich	hindern	eitel	schroff	leiden	tot	fanatisch	retten	spielen	schön	loyal	tolerant	fair	rächen	strafen	schlecht	lasch	tyrannisch	faul	1	blank2r.bmp	0	1	+	0	1	blank2r.bmp	500	1	GKQX	500	1	blank2r.bmp	880	3	tyrannisch	880	1	!	1232	1	!	-1	0	0	0	0	0	0
2024-06-20	12:03:44	12:19:45	960029	6.6.1	4_exp_EVA_AWA_CON	92	B	A	Rpleas_acq	Oppo	Lpleas	2pleas	cond_US_unple_123_nomask_CS1	condtest_nomask_1	11	5	400	0	300	300	0	0	529	50	1	-1,6927083333333285964pct	helfen	ehrlich	schlau	lachen	treu	freundlich	hindern	eitel	schroff	leiden	tot	fanatisch	retten	spielen	schön	loyal	tolerant	fair	rächen	strafen	schlecht	lasch	tyrannisch	faul	1	blank2r.bmp	0	1	+	0	1	blank2r.bmp	500	1	BMVZ	500	1	blank2r.bmp	880	2	eitel	880	1	!	1233	1	!	-1	0	0	0	0	0	0
2024-06-20	12:03:44	12:19:47	962175	6.6.1	4_exp_EVA_AWA_CON	92	B	A	Rpleas_acq	Oppo	Lpleas	2pleas	cond_US_unple_123_nomask_CS2	condtest_nomask_1	11	6	400	1	300	300	0	0	372	50	1	-1,6927083333333285964pct	helfen	ehrlich	schlau	lachen	treu	freundlich	hindern	eitel	schroff	leiden	tot	fanatisch	retten	spielen	schön	loyal	tolerant	fair	rächen	strafen	schlecht	lasch	tyrannisch	faul	1	blank2r.bmp	0	1	+	0	1	blank2r.bmp	500	1	GKQX	500	1	blank2r.bmp	880	3	eitel	880	1	!	1233	1	!	1272	0	0	0	0	0	0
2024-06-20	12:03:44	12:19:50	964477	6.6.1	4_exp_EVA_AWA_CON	92	B	A	Rpleas_acq	Oppo	Lpleas	2pleas	cond_new_pleas_456_nomask_CS1	condtest_nomask_1	11	7	400	0	300	300	0	0	524	46	1	-1,6927083333333285964pct	helfen	ehrlich	schlau	lachen	treu	freundlich	hindern	eitel	schroff	leiden	tot	fanatisch	retten	spielen	schön	loyal	tolerant	fair	rächen	strafen	schlecht	lasch	tyrannisch	faul	1	blank2r.bmp	0	1	+	0	1	blank2r.bmp	500	1	BMVZ	500	1	blank2r.bmp	880	3	fair	880	1	!	1232	1	!	-1	0	0	0	0	0	0
2024-06-20	12:03:44	12:19:52	966703	6.6.1	4_exp_EVA_AWA_CON	92	B	A	Rpleas_acq	Oppo	Lpleas	2pleas	cond_US_pleas_123_nomask_CS2	condtest_nomask_1	11	8	400	1	300	300	0	0	447	50	0	-1,6927083333333285964pct	helfen	ehrlich	schlau	lachen	treu	freundlich	hindern	eitel	schroff	leiden	tot	fanatisch	retten	spielen	schön	loyal	tolerant	fair	rächen	strafen	schlecht	lasch	tyrannisch	faul	1	blank2r.bmp	0	1	+	0	1	blank2r.bmp	500	1	GKQX	500	1	blank2r.bmp	880	2	helfen	880	1	!	1232	1	!	1348	0	0	0	0	0	0
2024-06-20	12:03:44	12:20:11	985918	6.6.1	4_exp_EVA_AWA_CON	92	B	A	Rpleas_acq	Oppo	Lpleas	2pleas	cond_new_pleas_456_nomask_CS2	condtest_nomask_2	12	1	400	0	300	300	0	0	500	46	1	-1,6927083333333285964pct	helfen	ehrlich	schlau	lachen	treu	freundlich	hindern	eitel	schroff	leiden	tot	fanatisch	retten	spielen	schön	loyal	tolerant	fair	rächen	strafen	schlecht	lasch	tyrannisch	faul	1	blank2r.bmp	0	1	+	0	1	blank2r.bmp	500	1	GKQX	500	1	blank2r.bmp	880	1	fair	880	1	!	1232	1	!	-1	0	0	0	0	0	0
