date	time	currenttime	elapsedtime	build	currentexpt	subject	CS_AB	US_AB	LRpleas_acq	SameOppo	condition_Lpleas	condition_1pleas	trialcode	blockcode	blocknum	trialnum	windowcenter	inwindow	pretrialpause	posttrialpause	trialduration	trialtimeout	latency	response	correct	correctedscore	US_nomask_pleas1	US_nomask_pleas2	US_nomask_pleas3	US_nomask_pleas4	US_nomask_pleas5	US_nomask_pleas6	US_nomask_unple1	US_nomask_unple2	US_nomask_unple3	US_nomask_unple4	US_nomask_unple5	US_nomask_unple6	new_nomask_pleas1	new_nomask_pleas2	new_nomask_pleas3	new_nomask_pleas4	new_nomask_pleas5	new_nomask_pleas6	new_nomask_unple1	new_nomask_unple2	new_nomask_unple3	new_nomask_unple4	new_nomask_unple5	new_nomask_unple6	stimulusnumber1	stimulusitem1	stimulusonset1	stimulusnumber2	stimulusitem2	stimulusonset2	stimulusnumber3	stimulusitem3	stimulusonset3	stimulusnumber4	stimulusitem4	stimulusonset4	stimulusnumber5	stimulusitem5	stimulusonset5	stimulusnumber6	stimulusitem6	stimulusonset6	stimulusnumber7	stimulusitem7	stimulusonset7	stimulusnumber8	stimulusitem8	stimulusonset8	stimulusnumber9	stimulusitem9	stimulusonset9	stimulusnumber10	stimulusitem10	stimulusonset10
2024-06-06	11:39:02	11:40:11	66811	6.6.1	4_exp_EVA_AWA_CON	73	A	B	Rpleas_acq	Same	Rpleas	1pleas	acq_new_unple_nomask	acq1_nomask	1	1	0	0	300	300	0	0	1310	46	1	0	anregung	engagiert	besonnen	vertrauen	sonnig	träumen	ausrottung	engstirnig	bange	versagen	sterben	töten	kreativ	gütig	gesittet	vergnügt	kuss	genießen	krank	gierig	geizig	verbissen	krise	gemein	1	blank2r.bmp	0	1	+	0	1	blank2r.bmp	500	5	C1r.bmp	500	1	blank2r.bmp	880	3	geizig	880	0	0	0	0	0	0	0	0	0	0	0	0
2024-06-06	11:39:02	11:40:14	69744	6.6.1	4_exp_EVA_AWA_CON	73	A	B	Rpleas_acq	Same	Rpleas	1pleas	acq_new_pleas_nomask	acq1_nomask	1	2	0	0	300	300	0	0	1453	50	1	0	anregung	engagiert	besonnen	vertrauen	sonnig	träumen	ausrottung	engstirnig	bange	versagen	sterben	töten	kreativ	gütig	gesittet	vergnügt	kuss	genießen	krank	gierig	geizig	verbissen	krise	gemein	1	blank2r.bmp	0	1	+	0	1	blank2r.bmp	500	2	B2r.bmp	500	1	blank2r.bmp	880	3	gesittet	880	0	0	0	0	0	0	0	0	0	0	0	0
2024-06-06	11:39:02	11:40:17	73032	6.6.1	4_exp_EVA_AWA_CON	73	A	B	Rpleas_acq	Same	Rpleas	1pleas	acq_new_pleas_nomask	acq1_nomask	1	3	0	0	300	300	0	0	1799	50	1	0	anregung	engagiert	besonnen	vertrauen	sonnig	träumen	ausrottung	engstirnig	bange	versagen	sterben	töten	kreativ	gütig	gesittet	vergnügt	kuss	genießen	krank	gierig	geizig	verbissen	krise	gemein	1	blank2r.bmp	0	1	+	0	1	blank2r.bmp	500	3	B3r.bmp	500	1	blank2r.bmp	880	4	vergnügt	880	0	0	0	0	0	0	0	0	0	0	0	0
2024-06-06	11:39:02	11:40:20	75648	6.6.1	4_exp_EVA_AWA_CON	73	A	B	Rpleas_acq	Same	Rpleas	1pleas	acq_US_pleas_nomask	acq1_nomask	1	4	0	0	300	300	0	0	1132	50	1	0	anregung	engagiert	besonnen	vertrauen	sonnig	träumen	ausrottung	engstirnig	bange	versagen	sterben	töten	kreativ	gütig	gesittet	vergnügt	kuss	genießen	krank	gierig	geizig	verbissen	krise	gemein	1	blank2r.bmp	0	1	+	0	1	blank2r.bmp	500	1	CPLW	500	1	blank2r.bmp	880	3	besonnen	880	0	0	0	0	0	0	0	0	0	0	0	0
2024-06-06	11:39:02	11:40:22	78032	6.6.1	4_exp_EVA_AWA_CON	73	A	B	Rpleas_acq	Same	Rpleas	1pleas	acq_US_unple_nomask	acq1_nomask	1	5	0	0	300	300	0	0	895	46	1	0	anregung	engagiert	besonnen	vertrauen	sonnig	träumen	ausrottung	engstirnig	bange	versagen	sterben	töten	kreativ	gütig	gesittet	vergnügt	kuss	genießen	krank	gierig	geizig	verbissen	krise	gemein	1	blank2r.bmp	0	1	+	0	1	blank2r.bmp	500	1	DHJF	500	1	blank2r.bmp	880	5	sterben	880	0	0	0	0	0	0	0	0	0	0	0	0
2024-06-06	11:39:02	11:40:24	80368	6.6.1	4_exp_EVA_AWA_CON	73	A	B	Rpleas_acq	Same	Rpleas	1pleas	acq_US_unple_nomask	acq1_nomask	1	6	0	0	300	300	0	0	849	46	1	0	anregung	engagiert	besonnen	vertrauen	sonnig	träumen	ausrottung	engstirnig	bange	versagen	sterben	töten	kreativ	gütig	gesittet	vergnügt	kuss	genießen	krank	gierig	geizig	verbissen	krise	gemein	1	blank2r.bmp	0	1	+	0	1	blank2r.bmp	500	1	DHJF	500	1	blank2r.bmp	880	6	töten	880	0	0	0	0	0	0	0	0	0	0	0	0
2024-06-06	11:39:02	11:40:27	82768	6.6.1	4_exp_EVA_AWA_CON	73	A	B	Rpleas_acq	Same	Rpleas	1pleas	acq_US_pleas_nomask	acq1_nomask	1	7	0	0	300	300	0	0	918	50	1	0	anregung	engagiert	besonnen	vertrauen	sonnig	träumen	ausrottung	engstirnig	bange	versagen	sterben	töten	kreativ	gütig	gesittet	vergnügt	kuss	genießen	krank	gierig	geizig	verbissen	krise	gemein	1	blank2r.bmp	0	1	+	0	1	blank2r.bmp	500	1	CPLW	500	1	blank2r.bmp	880	6	träumen	880	0	0	0	0	0	0	0	0	0	0	0	0
2024-06-06	11:39:02	11:40:29	84920	6.6.1	4_exp_EVA_AWA_CON	73	A	B	Rpleas_acq	Same	Rpleas	1pleas	acq_US_pleas_nomask	acq1_nomask	1	8	0	0	300	300	0	0	668	50	1	0	anregung	engagiert	besonnen	vertrauen	sonnig	träumen	ausrottung	engstirnig	bange	versagen	sterben	töten	kreativ	gütig	gesittet	vergnügt	kuss	genießen	krank	gierig	geizig	verbissen	krise	gemein	1	blank2r.bmp	0	1	+	0	1	blank2r.bmp	500	1	CPLW	500	1	blank2r.bmp	880	4	vertrauen	880	0	0	0	0	0	0	0	0	0	0	0	0
2024-06-06	11:39:02	11:40:31	87280	6.6.1	4_exp_EVA_AWA_CON	73	A	B	Rpleas_acq	Same	Rpleas	1pleas	acq_new_unple_nomask	acq1_nomask	1	9	0	0	300	300	0	0	877	46	1	0	anregung	engagiert	besonnen	vertrauen	sonnig	träumen	ausrottung	engstirnig	bange	versagen	sterben	töten	kreativ	gütig	gesittet	vergnügt	kuss	genießen	krank	gierig	geizig	verbissen	krise	gemein	1	blank2r.bmp	0	1	+	0	1	blank2r.bmp	500	6	C2r.bmp	500	1	blank2r.bmp	880	1	krank	880	0	0	0	0	0	0	0	0	0	0	0	0
2024-06-06	11:39:02	11:40:34	90288	6.6.1	4_exp_EVA_AWA_CON	73	A	B	Rpleas_acq	Same	Rpleas	1pleas	acq_new_pleas_nomask	acq1_nomask	1	10	0	0	300	300	0	0	1523	50	1	0	anregung	engagiert	besonnen	vertrauen	sonnig	träumen	ausrottung	engstirnig	bange	versagen	sterben	töten	kreativ	gütig	gesittet	vergnügt	kuss	genießen	krank	gierig	geizig	verbissen	krise	gemein	1	blank2r.bmp	0	1	+	0	1	blank2r.bmp	500	8	C4r.bmp	500	1	blank2r.bmp	880	2	gütig	880	0	0	0	0	0	0	0	0	0	0	0	0
2024-06-06	11:39:02	11:40:37	92632	6.6.1	4_exp_EVA_AWA_CON	73	A	B	Rpleas_acq	Same	Rpleas	1pleas	acq_US_unple_nomask	acq1_nomask	1	11	0	0	300	300	0	0	855	46	1	0	anregung	engagiert	besonnen	vertrauen	sonnig	träumen	ausrottung	engstirnig	bange	versagen	sterben	töten	kreativ	gütig	gesittet	vergnügt	kuss	genießen	krank	gierig	geizig	verbissen	krise	gemein	1	blank2r.bmp	0	1	+	0	1	blank2r.bmp	500	1	DHJF	500	1	blank2r.bmp	880	4	versagen	880	0	0	0	0	0	0	0	0	0	0	0	0
2024-06-06	11:39:02	11:40:40	95592	6.6.1	4_exp_EVA_AWA_CON	73	A	B	Rpleas_acq	Same	Rpleas	1pleas	acq_new_unple_nomask	acq1_nomask	1	12	0	0	300	300	0	0	1474	46	1	0	anregung	engagiert	besonnen	vertrauen	sonnig	träumen	ausrottung	engstirnig	bange	versagen	sterben	töten	kreativ	gütig	gesittet	vergnügt	kuss	genießen	krank	gierig	geizig	verbissen	krise	gemein	1	blank2r.bmp	0	1	+	0	1	blank2r.bmp	503	1	B1r.bmp	503	1	blank2r.bmp	880	4	verbissen	880	0	0	0	0	0	0	0	0	0	0	0	0
2024-06-06	11:39:02	11:40:42	98176	6.6.1	4_exp_EVA_AWA_CON	73	A	B	Rpleas_acq	Same	Rpleas	1pleas	acq_US_pleas_nomask	acq1_nomask	1	13	0	0	300	300	0	0	1096	50	1	0	anregung	engagiert	besonnen	vertrauen	sonnig	träumen	ausrottung	engstirnig	bange	versagen	sterben	töten	kreativ	gütig	gesittet	vergnügt	kuss	genießen	krank	gierig	geizig	verbissen	krise	gemein	1	blank2r.bmp	0	1	+	0	1	blank2r.bmp	500	1	CPLW	500	1	blank2r.bmp	880	1	anregung	880	0	0	0	0	0	0	0	0	0	0	0	0
2024-06-06	11:39:02	11:40:46	101752	6.6.1	4_exp_EVA_AWA_CON	73	A	B	Rpleas_acq	Same	Rpleas	1pleas	acq_US_unple_nomask	acq1_nomask	1	14	0	0	300	300	0	0	2090	46	1	0	anregung	engagiert	besonnen	vertrauen	sonnig	träumen	ausrottung	engstirnig	bange	versagen	sterben	töten	kreativ	gütig	gesittet	vergnügt	kuss	genießen	krank	gierig	geizig	verbissen	krise	gemein	1	blank2r.bmp	0	1	+	0	1	blank2r.bmp	500	1	DHJF	500	1	blank2r.bmp	880	2	engstirnig	880	0	0	0	0	0	0	0	0	0	0	0	0
2024-06-06	11:39:02	11:40:48	103928	6.6.1	4_exp_EVA_AWA_CON	73	A	B	Rpleas_acq	Same	Rpleas	1pleas	acq_US_pleas_nomask	acq1_nomask	1	15	0	0	300	300	0	0	694	50	1	0	anregung	engagiert	besonnen	vertrauen	sonnig	träumen	ausrottung	engstirnig	bange	versagen	sterben	töten	kreativ	gütig	gesittet	vergnügt	kuss	genießen	krank	gierig	geizig	verbissen	krise	gemein	1	blank2r.bmp	0	1	+	0	1	blank2r.bmp	500	1	CPLW	500	1	blank2r.bmp	880	5	sonnig	880	0	0	0	0	0	0	0	0	0	0	0	0
2024-06-06	11:39:02	11:40:50	106264	6.6.1	4_exp_EVA_AWA_CON	73	A	B	Rpleas_acq	Same	Rpleas	1pleas	acq_new_pleas_nomask	acq1_nomask	1	16	0	0	300	300	0	0	848	50	1	0	anregung	engagiert	besonnen	vertrauen	sonnig	träumen	ausrottung	engstirnig	bange	versagen	sterben	töten	kreativ	gütig	gesittet	vergnügt	kuss	genießen	krank	gierig	geizig	verbissen	krise	gemein	1	blank2r.bmp	0	1	+	0	1	blank2r.bmp	500	4	B4r.bmp	500	1	blank2r.bmp	880	6	genießen	880	0	0	0	0	0	0	0	0	0	0	0	0
2024-06-06	11:39:02	11:40:53	108664	6.6.1	4_exp_EVA_AWA_CON	73	A	B	Rpleas_acq	Same	Rpleas	1pleas	acq_US_unple_nomask	acq1_nomask	1	17	0	0	300	300	0	0	917	46	1	0	anregung	engagiert	besonnen	vertrauen	sonnig	träumen	ausrottung	engstirnig	bange	versagen	sterben	töten	kreativ	gütig	gesittet	vergnügt	kuss	genießen	krank	gierig	geizig	verbissen	krise	gemein	1	blank2r.bmp	0	1	+	0	1	blank2r.bmp	500	1	DHJF	500	1	blank2r.bmp	880	1	ausrottung	880	0	0	0	0	0	0	0	0	0	0	0	0
2024-06-06	11:39:02	11:40:56	111632	6.6.1	4_exp_EVA_AWA_CON	73	A	B	Rpleas_acq	Same	Rpleas	1pleas	acq_new_unple_nomask	acq1_nomask	1	18	0	0	300	300	0	0	1483	46	1	0	anregung	engagiert	besonnen	vertrauen	sonnig	träumen	ausrottung	engstirnig	bange	versagen	sterben	töten	kreativ	gütig	gesittet	vergnügt	kuss	genießen	krank	gierig	geizig	verbissen	krise	gemein	1	blank2r.bmp	0	1	+	0	1	blank2r.bmp	500	7	C3r.bmp	500	1	blank2r.bmp	880	6	gemein	880	0	0	0	0	0	0	0	0	0	0	0	0
2024-06-06	11:39:02	11:40:58	113856	6.6.1	4_exp_EVA_AWA_CON	73	A	B	Rpleas_acq	Same	Rpleas	1pleas	acq_new_pleas_nomask	acq1_nomask	1	19	0	0	300	300	0	0	735	50	1	0	anregung	engagiert	besonnen	vertrauen	sonnig	träumen	ausrottung	engstirnig	bange	versagen	sterben	töten	kreativ	gütig	gesittet	vergnügt	kuss	genießen	krank	gierig	geizig	verbissen	krise	gemein	1	blank2r.bmp	0	1	+	0	1	blank2r.bmp	500	4	B4r.bmp	500	1	blank2r.bmp	880	5	kuss	880	0	0	0	0	0	0	0	0	0	0	0	0
2024-06-06	11:39:02	11:41:01	116578	6.6.1	4_exp_EVA_AWA_CON	73	A	B	Rpleas_acq	Same	Rpleas	1pleas	acq_US_unple_nomask	acq1_nomask	1	20	0	0	300	300	0	0	1034	50	0	0	anregung	engagiert	besonnen	vertrauen	sonnig	träumen	ausrottung	engstirnig	bange	versagen	sterben	töten	kreativ	gütig	gesittet	vergnügt	kuss	genießen	krank	gierig	geizig	verbissen	krise	gemein	1	blank2r.bmp	0	1	+	0	1	blank2r.bmp	500	1	DHJF	500	1	blank2r.bmp	880	3	bange	880	1	FEHLER	1936	0	0	0	0	0	0	0	0	0
2024-06-06	11:39:02	11:41:03	118799	6.6.1	4_exp_EVA_AWA_CON	73	A	B	Rpleas_acq	Same	Rpleas	1pleas	acq_new_pleas_nomask	acq1_nomask	1	21	0	0	300	300	0	0	936	50	1	0	anregung	engagiert	besonnen	vertrauen	sonnig	träumen	ausrottung	engstirnig	bange	versagen	sterben	töten	kreativ	gütig	gesittet	vergnügt	kuss	genießen	krank	gierig	geizig	verbissen	krise	gemein	1	blank2r.bmp	0	1	+	0	1	blank2r.bmp	500	6	C2r.bmp	500	1	blank2r.bmp	880	1	kreativ	880	0	0	0	0	0	0	0	0	0	0	0	0
2024-06-06	11:39:02	11:41:05	121119	6.6.1	4_exp_EVA_AWA_CON	73	A	B	Rpleas_acq	Same	Rpleas	1pleas	acq_new_unple_nomask	acq1_nomask	1	22	0	0	300	300	0	0	835	46	1	0	anregung	engagiert	besonnen	vertrauen	sonnig	träumen	ausrottung	engstirnig	bange	versagen	sterben	töten	kreativ	gütig	gesittet	vergnügt	kuss	genießen	krank	gierig	geizig	verbissen	krise	gemein	1	blank2r.bmp	0	1	+	0	1	blank2r.bmp	500	2	B2r.bmp	500	1	blank2r.bmp	880	2	gierig	880	0	0	0	0	0	0	0	0	0	0	0	0
2024-06-06	11:39:02	11:41:08	123719	6.6.1	4_exp_EVA_AWA_CON	73	A	B	Rpleas_acq	Same	Rpleas	1pleas	acq_new_unple_nomask	acq1_nomask	1	23	0	0	300	300	0	0	1113	46	1	0	anregung	engagiert	besonnen	vertrauen	sonnig	träumen	ausrottung	engstirnig	bange	versagen	sterben	töten	kreativ	gütig	gesittet	vergnügt	kuss	genießen	krank	gierig	geizig	verbissen	krise	gemein	1	blank2r.bmp	0	1	+	0	1	blank2r.bmp	500	7	C3r.bmp	500	1	blank2r.bmp	880	5	krise	880	0	0	0	0	0	0	0	0	0	0	0	0
2024-06-06	11:39:02	11:41:10	126128	6.6.1	4_exp_EVA_AWA_CON	73	A	B	Rpleas_acq	Same	Rpleas	1pleas	acq_US_pleas_nomask	acq1_nomask	1	24	0	0	300	300	0	0	919	50	1	0	anregung	engagiert	besonnen	vertrauen	sonnig	träumen	ausrottung	engstirnig	bange	versagen	sterben	töten	kreativ	gütig	gesittet	vergnügt	kuss	genießen	krank	gierig	geizig	verbissen	krise	gemein	1	blank2r.bmp	0	1	+	0	1	blank2r.bmp	500	1	CPLW	500	1	blank2r.bmp	880	2	engagiert	880	0	0	0	0	0	0	0	0	0	0	0	0
2024-06-06	11:39:02	11:41:12	128184	6.6.1	4_exp_EVA_AWA_CON	73	A	B	Rpleas_acq	Same	Rpleas	1pleas	acq_US_pleas_nomask	acq1_nomask	1	25	0	0	300	300	0	0	574	50	1	0	anregung	engagiert	besonnen	vertrauen	sonnig	träumen	ausrottung	engstirnig	bange	versagen	sterben	töten	kreativ	gütig	gesittet	vergnügt	kuss	genießen	krank	gierig	geizig	verbissen	krise	gemein	1	blank2r.bmp	0	1	+	0	1	blank2r.bmp	500	1	CPLW	500	1	blank2r.bmp	880	6	träumen	880	0	0	0	0	0	0	0	0	0	0	0	0
2024-06-06	11:39:02	11:41:14	130152	6.6.1	4_exp_EVA_AWA_CON	73	A	B	Rpleas_acq	Same	Rpleas	1pleas	acq_US_pleas_nomask	acq1_nomask	1	26	0	0	300	300	0	0	480	50	1	0	anregung	engagiert	besonnen	vertrauen	sonnig	träumen	ausrottung	engstirnig	bange	versagen	sterben	töten	kreativ	gütig	gesittet	vergnügt	kuss	genießen	krank	gierig	geizig	verbissen	krise	gemein	1	blank2r.bmp	0	1	+	0	1	blank2r.bmp	500	1	CPLW	500	1	blank2r.bmp	880	5	sonnig	880	0	0	0	0	0	0	0	0	0	0	0	0
2024-06-06	11:39:02	11:41:16	132248	6.6.1	4_exp_EVA_AWA_CON	73	A	B	Rpleas_acq	Same	Rpleas	1pleas	acq_US_unple_nomask	acq1_nomask	1	27	0	0	300	300	0	0	615	46	1	0	anregung	engagiert	besonnen	vertrauen	sonnig	träumen	ausrottung	engstirnig	bange	versagen	sterben	töten	kreativ	gütig	gesittet	vergnügt	kuss	genießen	krank	gierig	geizig	verbissen	krise	gemein	1	blank2r.bmp	0	1	+	0	1	blank2r.bmp	500	1	DHJF	500	1	blank2r.bmp	880	5	sterben	880	0	0	0	0	0	0	0	0	0	0	0	0
2024-06-06	11:39:02	11:41:18	134312	6.6.1	4_exp_EVA_AWA_CON	73	A	B	Rpleas_acq	Same	Rpleas	1pleas	acq_new_unple_nomask	acq1_nomask	1	28	0	0	300	300	0	0	578	46	1	0	anregung	engagiert	besonnen	vertrauen	sonnig	träumen	ausrottung	engstirnig	bange	versagen	sterben	töten	kreativ	gütig	gesittet	vergnügt	kuss	genießen	krank	gierig	geizig	verbissen	krise	gemein	1	blank2r.bmp	0	1	+	0	1	blank2r.bmp	500	8	C4r.bmp	500	1	blank2r.bmp	880	1	krank	880	0	0	0	0	0	0	0	0	0	0	0	0
2024-06-06	11:39:02	11:41:20	136432	6.6.1	4_exp_EVA_AWA_CON	73	A	B	Rpleas_acq	Same	Rpleas	1pleas	acq_US_pleas_nomask	acq1_nomask	1	29	0	0	300	300	0	0	636	50	1	0	anregung	engagiert	besonnen	vertrauen	sonnig	träumen	ausrottung	engstirnig	bange	versagen	sterben	töten	kreativ	gütig	gesittet	vergnügt	kuss	genießen	krank	gierig	geizig	verbissen	krise	gemein	1	blank2r.bmp	0	1	+	0	1	blank2r.bmp	500	1	CPLW	500	1	blank2r.bmp	880	2	engagiert	880	0	0	0	0	0	0	0	0	0	0	0	0
2024-06-06	11:39:02	11:41:23	138600	6.6.1	4_exp_EVA_AWA_CON	73	A	B	Rpleas_acq	Same	Rpleas	1pleas	acq_US_unple_nomask	acq1_nomask	1	30	0	0	300	300	0	0	683	46	1	0	anregung	engagiert	besonnen	vertrauen	sonnig	träumen	ausrottung	engstirnig	bange	versagen	sterben	töten	kreativ	gütig	gesittet	vergnügt	kuss	genießen	krank	gierig	geizig	verbissen	krise	gemein	1	blank2r.bmp	0	1	+	0	1	blank2r.bmp	500	1	DHJF	500	1	blank2r.bmp	880	1	ausrottung	880	0	0	0	0	0	0	0	0	0	0	0	0
2024-06-06	11:39:02	11:41:25	140632	6.6.1	4_exp_EVA_AWA_CON	73	A	B	Rpleas_acq	Same	Rpleas	1pleas	acq_new_pleas_nomask	acq1_nomask	1	31	0	0	300	300	0	0	544	50	1	0	anregung	engagiert	besonnen	vertrauen	sonnig	träumen	ausrottung	engstirnig	bange	versagen	sterben	töten	kreativ	gütig	gesittet	vergnügt	kuss	genießen	krank	gierig	geizig	verbissen	krise	gemein	1	blank2r.bmp	0	1	+	0	1	blank2r.bmp	500	3	B3r.bmp	500	1	blank2r.bmp	880	1	kreativ	880	0	0	0	0	0	0	0	0	0	0	0	0
2024-06-06	11:39:02	11:41:27	142752	6.6.1	4_exp_EVA_AWA_CON	73	A	B	Rpleas_acq	Same	Rpleas	1pleas	acq_US_unple_nomask	acq1_nomask	1	32	0	0	300	300	0	0	632	46	1	0	anregung	engagiert	besonnen	vertrauen	sonnig	träumen	ausrottung	engstirnig	bange	versagen	sterben	töten	kreativ	gütig	gesittet	vergnügt	kuss	genießen	krank	gierig	geizig	verbissen	krise	gemein	1	blank2r.bmp	0	1	+	0	1	blank2r.bmp	500	1	DHJF	500	1	blank2r.bmp	880	4	versagen	880	0	0	0	0	0	0	0	0	0	0	0	0
2024-06-06	11:39:02	11:41:29	144960	6.6.1	4_exp_EVA_AWA_CON	73	A	B	Rpleas_acq	Same	Rpleas	1pleas	acq_new_unple_nomask	acq1_nomask	1	33	0	0	300	300	0	0	719	46	1	0	anregung	engagiert	besonnen	vertrauen	sonnig	träumen	ausrottung	engstirnig	bange	versagen	sterben	töten	kreativ	gütig	gesittet	vergnügt	kuss	genießen	krank	gierig	geizig	verbissen	krise	gemein	1	blank2r.bmp	0	1	+	0	1	blank2r.bmp	500	1	B1r.bmp	500	1	blank2r.bmp	880	2	gierig	880	0	0	0	0	0	0	0	0	0	0	0	0
2024-06-06	11:39:02	11:41:31	147024	6.6.1	4_exp_EVA_AWA_CON	73	A	B	Rpleas_acq	Same	Rpleas	1pleas	acq_new_pleas_nomask	acq1_nomask	1	34	0	0	300	300	0	0	582	50	1	0	anregung	engagiert	besonnen	vertrauen	sonnig	träumen	ausrottung	engstirnig	bange	versagen	sterben	töten	kreativ	gütig	gesittet	vergnügt	kuss	genießen	krank	gierig	geizig	verbissen	krise	gemein	1	blank2r.bmp	0	1	+	0	1	blank2r.bmp	500	5	C1r.bmp	500	1	blank2r.bmp	880	2	gütig	880	0	0	0	0	0	0	0	0	0	0	0	0
2024-06-06	11:39:02	11:41:33	149160	6.6.1	4_exp_EVA_AWA_CON	73	A	B	Rpleas_acq	Same	Rpleas	1pleas	acq_new_pleas_nomask	acq1_nomask	1	35	0	0	300	300	0	0	646	50	1	0	anregung	engagiert	besonnen	vertrauen	sonnig	träumen	ausrottung	engstirnig	bange	versagen	sterben	töten	kreativ	gütig	gesittet	vergnügt	kuss	genießen	krank	gierig	geizig	verbissen	krise	gemein	1	blank2r.bmp	0	1	+	0	1	blank2r.bmp	500	7	C3r.bmp	500	1	blank2r.bmp	880	4	vergnügt	880	0	0	0	0	0	0	0	0	0	0	0	0
2024-06-06	11:39:02	11:41:35	151336	6.6.1	4_exp_EVA_AWA_CON	73	A	B	Rpleas_acq	Same	Rpleas	1pleas	acq_new_unple_nomask	acq1_nomask	1	36	0	0	300	300	0	0	691	46	1	0	anregung	engagiert	besonnen	vertrauen	sonnig	träumen	ausrottung	engstirnig	bange	versagen	sterben	töten	kreativ	gütig	gesittet	vergnügt	kuss	genießen	krank	gierig	geizig	verbissen	krise	gemein	1	blank2r.bmp	0	1	+	0	1	blank2r.bmp	500	2	B2r.bmp	500	1	blank2r.bmp	880	6	gemein	880	0	0	0	0	0	0	0	0	0	0	0	0
2024-06-06	11:39:02	11:42:19	195282	6.6.1	4_exp_EVA_AWA_CON	73	A	B	Rpleas_acq	Same	Rpleas	1pleas	acq_new_unple_nomask	acq2_nomask	2	1	480	0	300	300	0	0	778	46	1	0	anregung	engagiert	besonnen	vertrauen	sonnig	träumen	ausrottung	engstirnig	bange	versagen	sterben	töten	kreativ	gütig	gesittet	vergnügt	kuss	genießen	krank	gierig	geizig	verbissen	krise	gemein	1	blank2r.bmp	0	1	+	0	1	blank2r.bmp	500	6	C2r.bmp	500	1	blank2r.bmp	880	5	krise	880	1	!	1312	1	!	-1	0	0	0	0	0	0
2024-06-06	11:39:02	11:42:22	197706	6.6.1	4_exp_EVA_AWA_CON	73	A	B	Rpleas_acq	Same	Rpleas	1pleas	acq_new_pleas_nomask	acq2_nomask	2	2	480	0	300	300	0	0	651	50	1	0	anregung	engagiert	besonnen	vertrauen	sonnig	träumen	ausrottung	engstirnig	bange	versagen	sterben	töten	kreativ	gütig	gesittet	vergnügt	kuss	genießen	krank	gierig	geizig	verbissen	krise	gemein	1	blank2r.bmp	0	1	+	0	1	blank2r.bmp	500	5	C1r.bmp	500	1	blank2r.bmp	880	5	kuss	880	1	!	1312	1	!	-1	0	0	0	0	0	0
2024-06-06	11:39:02	11:42:24	200090	6.6.1	4_exp_EVA_AWA_CON	73	A	B	Rpleas_acq	Same	Rpleas	1pleas	acq_US_pleas_nomask	acq2_nomask	2	3	480	0	300	300	0	0	603	50	1	0	anregung	engagiert	besonnen	vertrauen	sonnig	träumen	ausrottung	engstirnig	bange	versagen	sterben	töten	kreativ	gütig	gesittet	vergnügt	kuss	genießen	krank	gierig	geizig	verbissen	krise	gemein	1	blank2r.bmp	0	1	+	0	1	blank2r.bmp	500	1	CPLW	500	1	blank2r.bmp	880	4	vertrauen	880	1	!	1313	1	!	-1	0	0	0	0	0	0
2024-06-06	11:39:02	11:42:26	202340	6.6.1	4_exp_EVA_AWA_CON	73	A	B	Rpleas_acq	Same	Rpleas	1pleas	acq_US_pleas_nomask	acq2_nomask	2	4	480	1	300	300	0	0	469	50	1	0	anregung	engagiert	besonnen	vertrauen	sonnig	träumen	ausrottung	engstirnig	bange	versagen	sterben	töten	kreativ	gütig	gesittet	vergnügt	kuss	genießen	krank	gierig	geizig	verbissen	krise	gemein	1	blank2r.bmp	0	1	+	0	1	blank2r.bmp	500	1	CPLW	500	1	blank2r.bmp	880	3	besonnen	880	1	!	1313	1	!	1372	0	0	0	0	0	0
2024-06-06	11:39:02	11:42:29	204612	6.6.1	4_exp_EVA_AWA_CON	73	A	B	Rpleas_acq	Same	Rpleas	1pleas	acq_new_unple_nomask	acq2_nomask	2	5	480	1	300	300	0	0	490	46	1	0	anregung	engagiert	besonnen	vertrauen	sonnig	träumen	ausrottung	engstirnig	bange	versagen	sterben	töten	kreativ	gütig	gesittet	vergnügt	kuss	genießen	krank	gierig	geizig	verbissen	krise	gemein	1	blank2r.bmp	0	1	+	0	1	blank2r.bmp	500	4	B4r.bmp	500	1	blank2r.bmp	880	4	verbissen	880	1	!	1313	1	!	1392	0	0	0	0	0	0
2024-06-06	11:39:02	11:42:31	206738	6.6.1	4_exp_EVA_AWA_CON	73	A	B	Rpleas_acq	Same	Rpleas	1pleas	acq_US_pleas_nomask	acq2_nomask	2	6	480	0	300	300	0	0	346	50	1	0	anregung	engagiert	besonnen	vertrauen	sonnig	träumen	ausrottung	engstirnig	bange	versagen	sterben	töten	kreativ	gütig	gesittet	vergnügt	kuss	genießen	krank	gierig	geizig	verbissen	krise	gemein	1	blank2r.bmp	0	1	+	0	1	blank2r.bmp	500	1	CPLW	500	1	blank2r.bmp	880	1	anregung	880	1	!	-1	1	!	-1	0	0	0	0	0	0
2024-06-06	11:39:02	11:42:33	209205	6.6.1	4_exp_EVA_AWA_CON	73	A	B	Rpleas_acq	Same	Rpleas	1pleas	acq_US_unple_nomask	acq2_nomask	2	7	480	1	300	300	0	0	489	50	0	0	anregung	engagiert	besonnen	vertrauen	sonnig	träumen	ausrottung	engstirnig	bange	versagen	sterben	töten	kreativ	gütig	gesittet	vergnügt	kuss	genießen	krank	gierig	geizig	verbissen	krise	gemein	1	blank2r.bmp	0	1	+	0	1	blank2r.bmp	500	1	DHJF	500	1	blank2r.bmp	880	3	bange	880	1	FEHLER	1683	1	!	1313	1	!	1391	0	0	0
2024-06-06	11:39:02	11:42:35	211212	6.6.1	4_exp_EVA_AWA_CON	73	A	B	Rpleas_acq	Same	Rpleas	1pleas	acq_US_unple_nomask	acq2_nomask	2	8	480	1	300	300	0	0	426	46	1	0	anregung	engagiert	besonnen	vertrauen	sonnig	träumen	ausrottung	engstirnig	bange	versagen	sterben	töten	kreativ	gütig	gesittet	vergnügt	kuss	genießen	krank	gierig	geizig	verbissen	krise	gemein	1	blank2r.bmp	0	1	+	0	1	blank2r.bmp	500	1	DHJF	500	1	blank2r.bmp	880	6	töten	880	1	!	1313	1	!	1327	0	0	0	0	0	0
2024-06-06	11:39:02	11:42:38	213505	6.6.1	4_exp_EVA_AWA_CON	73	A	B	Rpleas_acq	Same	Rpleas	1pleas	acq_new_pleas_nomask	acq2_nomask	2	9	480	1	300	300	0	0	520	50	1	0	anregung	engagiert	besonnen	vertrauen	sonnig	träumen	ausrottung	engstirnig	bange	versagen	sterben	töten	kreativ	gütig	gesittet	vergnügt	kuss	genießen	krank	gierig	geizig	verbissen	krise	gemein	1	blank2r.bmp	0	1	+	0	1	blank2r.bmp	500	8	C4r.bmp	500	1	blank2r.bmp	880	6	genießen	880	1	!	1311	1	!	1421	0	0	0	0	0	0
2024-06-06	11:39:02	11:42:40	216083	6.6.1	4_exp_EVA_AWA_CON	73	A	B	Rpleas_acq	Same	Rpleas	1pleas	acq_US_unple_nomask	acq2_nomask	2	10	480	0	300	300	0	0	595	50	0	0	anregung	engagiert	besonnen	vertrauen	sonnig	träumen	ausrottung	engstirnig	bange	versagen	sterben	töten	kreativ	gütig	gesittet	vergnügt	kuss	genießen	krank	gierig	geizig	verbissen	krise	gemein	1	blank2r.bmp	0	1	+	0	1	blank2r.bmp	500	1	DHJF	500	1	blank2r.bmp	880	2	engstirnig	880	1	FEHLER	1787	1	!	1312	1	!	-1	0	0	0
2024-06-06	11:39:02	11:42:43	218630	6.6.1	4_exp_EVA_AWA_CON	73	A	B	Rpleas_acq	Same	Rpleas	1pleas	acq_new_pleas_nomask	acq2_nomask	2	11	480	0	300	300	0	0	767	46	0	0	anregung	engagiert	besonnen	vertrauen	sonnig	träumen	ausrottung	engstirnig	bange	versagen	sterben	töten	kreativ	gütig	gesittet	vergnügt	kuss	genießen	krank	gierig	geizig	verbissen	krise	gemein	1	blank2r.bmp	0	1	+	0	1	blank2r.bmp	500	1	B1r.bmp	500	1	blank2r.bmp	880	3	gesittet	880	1	FEHLER	1961	1	!	1313	1	!	-1	0	0	0
2024-06-06	11:39:02	11:42:45	220654	6.6.1	4_exp_EVA_AWA_CON	73	A	B	Rpleas_acq	Same	Rpleas	1pleas	acq_new_unple_nomask	acq2_nomask	2	12	480	0	300	300	0	0	250	50	0	0	anregung	engagiert	besonnen	vertrauen	sonnig	träumen	ausrottung	engstirnig	bange	versagen	sterben	töten	kreativ	gütig	gesittet	vergnügt	kuss	genießen	krank	gierig	geizig	verbissen	krise	gemein	1	blank2r.bmp	0	1	+	0	1	blank2r.bmp	500	3	B3r.bmp	500	1	blank2r.bmp	880	3	geizig	880	1	FEHLER	1444	1	!	-1	1	!	-1	0	0	0
2024-06-06	11:39:02	11:42:47	222858	6.6.1	4_exp_EVA_AWA_CON	73	A	B	Rpleas_acq	Same	Rpleas	1pleas	acq_new_unple_nomask	acq2_nomask	2	13	480	0	300	300	0	0	626	46	1	0	anregung	engagiert	besonnen	vertrauen	sonnig	träumen	ausrottung	engstirnig	bange	versagen	sterben	töten	kreativ	gütig	gesittet	vergnügt	kuss	genießen	krank	gierig	geizig	verbissen	krise	gemein	1	blank2r.bmp	0	1	+	0	1	blank2r.bmp	500	6	C2r.bmp	500	1	blank2r.bmp	880	5	krise	880	1	!	1313	1	!	-1	0	0	0	0	0	0
2024-06-06	11:39:02	11:42:49	225285	6.6.1	4_exp_EVA_AWA_CON	73	A	B	Rpleas_acq	Same	Rpleas	1pleas	acq_new_pleas_nomask	acq2_nomask	2	14	480	1	300	300	0	0	449	46	0	0	anregung	engagiert	besonnen	vertrauen	sonnig	träumen	ausrottung	engstirnig	bange	versagen	sterben	töten	kreativ	gütig	gesittet	vergnügt	kuss	genießen	krank	gierig	geizig	verbissen	krise	gemein	1	blank2r.bmp	0	1	+	0	1	blank2r.bmp	500	1	B1r.bmp	500	1	blank2r.bmp	880	4	vergnügt	880	1	FEHLER	1642	1	!	1313	1	!	1350	0	0	0
2024-06-06	11:39:02	11:42:51	227340	6.6.1	4_exp_EVA_AWA_CON	73	A	B	Rpleas_acq	Same	Rpleas	1pleas	acq_new_pleas_nomask	acq2_nomask	2	15	480	1	300	300	0	0	473	50	1	0	anregung	engagiert	besonnen	vertrauen	sonnig	träumen	ausrottung	engstirnig	bange	versagen	sterben	töten	kreativ	gütig	gesittet	vergnügt	kuss	genießen	krank	gierig	geizig	verbissen	krise	gemein	1	blank2r.bmp	0	1	+	0	1	blank2r.bmp	500	4	B4r.bmp	500	1	blank2r.bmp	880	1	kreativ	880	1	!	1313	1	!	1375	0	0	0	0	0	0
2024-06-06	11:39:02	11:42:54	229690	6.6.1	4_exp_EVA_AWA_CON	73	A	B	Rpleas_acq	Same	Rpleas	1pleas	acq_US_unple_nomask	acq2_nomask	2	16	480	0	300	300	0	0	574	46	1	0	anregung	engagiert	besonnen	vertrauen	sonnig	träumen	ausrottung	engstirnig	bange	versagen	sterben	töten	kreativ	gütig	gesittet	vergnügt	kuss	genießen	krank	gierig	geizig	verbissen	krise	gemein	1	blank2r.bmp	0	1	+	0	1	blank2r.bmp	500	1	DHJF	500	1	blank2r.bmp	880	6	töten	880	1	!	1313	1	!	-1	0	0	0	0	0	0
2024-06-06	11:39:02	11:42:56	232165	6.6.1	4_exp_EVA_AWA_CON	73	A	B	Rpleas_acq	Same	Rpleas	1pleas	acq_US_unple_nomask	acq2_nomask	2	17	480	1	300	300	0	0	494	50	0	0	anregung	engagiert	besonnen	vertrauen	sonnig	träumen	ausrottung	engstirnig	bange	versagen	sterben	töten	kreativ	gütig	gesittet	vergnügt	kuss	genießen	krank	gierig	geizig	verbissen	krise	gemein	1	blank2r.bmp	0	1	+	0	1	blank2r.bmp	500	1	DHJF	500	1	blank2r.bmp	880	4	versagen	880	1	FEHLER	1688	1	!	1313	1	!	1396	0	0	0
2024-06-06	11:39:02	11:42:58	234296	6.6.1	4_exp_EVA_AWA_CON	73	A	B	Rpleas_acq	Same	Rpleas	1pleas	acq_US_pleas_nomask	acq2_nomask	2	18	480	0	300	300	0	0	559	50	1	0	anregung	engagiert	besonnen	vertrauen	sonnig	träumen	ausrottung	engstirnig	bange	versagen	sterben	töten	kreativ	gütig	gesittet	vergnügt	kuss	genießen	krank	gierig	geizig	verbissen	krise	gemein	1	blank2r.bmp	0	1	+	0	1	blank2r.bmp	500	1	CPLW	500	1	blank2r.bmp	880	2	engagiert	880	1	!	1313	1	!	-1	0	0	0	0	0	0
2024-06-06	11:39:02	11:43:01	236749	6.6.1	4_exp_EVA_AWA_CON	73	A	B	Rpleas_acq	Same	Rpleas	1pleas	acq_US_unple_nomask	acq2_nomask	2	19	480	1	300	300	0	0	475	50	0	0	anregung	engagiert	besonnen	vertrauen	sonnig	träumen	ausrottung	engstirnig	bange	versagen	sterben	töten	kreativ	gütig	gesittet	vergnügt	kuss	genießen	krank	gierig	geizig	verbissen	krise	gemein	1	blank2r.bmp	0	1	+	0	1	blank2r.bmp	500	1	DHJF	500	1	blank2r.bmp	880	3	bange	880	1	FEHLER	1669	1	!	1313	1	!	1377	0	0	0
2024-06-06	11:39:02	11:43:03	238796	6.6.1	4_exp_EVA_AWA_CON	73	A	B	Rpleas_acq	Same	Rpleas	1pleas	acq_new_unple_nomask	acq2_nomask	2	20	480	1	300	300	0	0	472	46	1	0	anregung	engagiert	besonnen	vertrauen	sonnig	träumen	ausrottung	engstirnig	bange	versagen	sterben	töten	kreativ	gütig	gesittet	vergnügt	kuss	genießen	krank	gierig	geizig	verbissen	krise	gemein	1	blank2r.bmp	0	1	+	0	1	blank2r.bmp	500	2	B2r.bmp	500	1	blank2r.bmp	880	4	verbissen	880	1	!	1313	1	!	1373	0	0	0	0	0	0
2024-06-06	11:39:02	11:43:05	241044	6.6.1	4_exp_EVA_AWA_CON	73	A	B	Rpleas_acq	Same	Rpleas	1pleas	acq_new_pleas_nomask	acq2_nomask	2	21	480	1	300	300	0	0	468	50	1	0	anregung	engagiert	besonnen	vertrauen	sonnig	träumen	ausrottung	engstirnig	bange	versagen	sterben	töten	kreativ	gütig	gesittet	vergnügt	kuss	genießen	krank	gierig	geizig	verbissen	krise	gemein	1	blank2r.bmp	0	1	+	0	1	blank2r.bmp	500	5	C1r.bmp	500	1	blank2r.bmp	880	5	kuss	880	1	!	1313	1	!	1370	0	0	0	0	0	0
2024-06-06	11:39:02	11:43:07	243251	6.6.1	4_exp_EVA_AWA_CON	73	A	B	Rpleas_acq	Same	Rpleas	1pleas	acq_US_pleas_nomask	acq2_nomask	2	22	480	1	300	300	0	0	425	50	1	0	anregung	engagiert	besonnen	vertrauen	sonnig	träumen	ausrottung	engstirnig	bange	versagen	sterben	töten	kreativ	gütig	gesittet	vergnügt	kuss	genießen	krank	gierig	geizig	verbissen	krise	gemein	1	blank2r.bmp	0	1	+	0	1	blank2r.bmp	500	1	CPLW	500	1	blank2r.bmp	880	1	anregung	880	1	!	1312	1	!	1326	0	0	0	0	0	0
2024-06-06	11:39:02	11:43:10	245651	6.6.1	4_exp_EVA_AWA_CON	73	A	B	Rpleas_acq	Same	Rpleas	1pleas	acq_new_unple_nomask	acq2_nomask	2	23	480	1	300	300	0	0	423	50	0	0	anregung	engagiert	besonnen	vertrauen	sonnig	träumen	ausrottung	engstirnig	bange	versagen	sterben	töten	kreativ	gütig	gesittet	vergnügt	kuss	genießen	krank	gierig	geizig	verbissen	krise	gemein	1	blank2r.bmp	0	1	+	0	1	blank2r.bmp	500	3	B3r.bmp	500	1	blank2r.bmp	880	3	geizig	880	1	FEHLER	1615	1	!	1313	1	!	1323	0	0	0
2024-06-06	11:39:02	11:43:12	247700	6.6.1	4_exp_EVA_AWA_CON	73	A	B	Rpleas_acq	Same	Rpleas	1pleas	acq_US_pleas_nomask	acq2_nomask	2	24	480	1	300	300	0	0	470	50	1	0	anregung	engagiert	besonnen	vertrauen	sonnig	träumen	ausrottung	engstirnig	bange	versagen	sterben	töten	kreativ	gütig	gesittet	vergnügt	kuss	genießen	krank	gierig	geizig	verbissen	krise	gemein	1	blank2r.bmp	0	1	+	0	1	blank2r.bmp	500	1	CPLW	500	1	blank2r.bmp	880	5	sonnig	880	1	!	1313	1	!	1372	0	0	0	0	0	0
2024-06-06	11:39:02	11:43:14	250157	6.6.1	4_exp_EVA_AWA_CON	73	A	B	Rpleas_acq	Same	Rpleas	1pleas	acq_US_pleas_nomask	acq2_nomask	2	25	480	1	300	300	0	0	474	46	0	0	anregung	engagiert	besonnen	vertrauen	sonnig	träumen	ausrottung	engstirnig	bange	versagen	sterben	töten	kreativ	gütig	gesittet	vergnügt	kuss	genießen	krank	gierig	geizig	verbissen	krise	gemein	1	blank2r.bmp	0	1	+	0	1	blank2r.bmp	500	1	CPLW	500	1	blank2r.bmp	880	3	besonnen	880	1	FEHLER	1668	1	!	1312	1	!	1376	0	0	0
2024-06-06	11:39:02	11:43:16	252236	6.6.1	4_exp_EVA_AWA_CON	73	A	B	Rpleas_acq	Same	Rpleas	1pleas	acq_US_unple_nomask	acq2_nomask	2	26	480	1	300	300	0	0	503	46	1	0	anregung	engagiert	besonnen	vertrauen	sonnig	träumen	ausrottung	engstirnig	bange	versagen	sterben	töten	kreativ	gütig	gesittet	vergnügt	kuss	genießen	krank	gierig	geizig	verbissen	krise	gemein	1	blank2r.bmp	0	1	+	0	1	blank2r.bmp	500	1	DHJF	500	1	blank2r.bmp	880	1	ausrottung	880	1	!	1313	1	!	1404	0	0	0	0	0	0
2024-06-06	11:39:02	11:43:19	254613	6.6.1	4_exp_EVA_AWA_CON	73	A	B	Rpleas_acq	Same	Rpleas	1pleas	acq_new_unple_nomask	acq2_nomask	2	27	480	0	300	300	0	0	397	50	0	0	anregung	engagiert	besonnen	vertrauen	sonnig	träumen	ausrottung	engstirnig	bange	versagen	sterben	töten	kreativ	gütig	gesittet	vergnügt	kuss	genießen	krank	gierig	geizig	verbissen	krise	gemein	1	blank2r.bmp	0	1	+	0	1	blank2r.bmp	500	8	C4r.bmp	500	1	blank2r.bmp	880	1	krank	880	1	FEHLER	1591	1	!	-1	1	!	-1	0	0	0
2024-06-06	11:39:02	11:43:21	256612	6.6.1	4_exp_EVA_AWA_CON	73	A	B	Rpleas_acq	Same	Rpleas	1pleas	acq_new_unple_nomask	acq2_nomask	2	28	480	1	300	300	0	0	426	46	1	0	anregung	engagiert	besonnen	vertrauen	sonnig	träumen	ausrottung	engstirnig	bange	versagen	sterben	töten	kreativ	gütig	gesittet	vergnügt	kuss	genießen	krank	gierig	geizig	verbissen	krise	gemein	1	blank2r.bmp	0	1	+	0	1	blank2r.bmp	500	7	C3r.bmp	500	1	blank2r.bmp	880	2	gierig	880	1	!	1313	1	!	1328	0	0	0	0	0	0
2024-06-06	11:39:02	11:43:23	259069	6.6.1	4_exp_EVA_AWA_CON	73	A	B	Rpleas_acq	Same	Rpleas	1pleas	acq_new_pleas_nomask	acq2_nomask	2	29	480	1	300	300	0	0	480	46	0	0	anregung	engagiert	besonnen	vertrauen	sonnig	träumen	ausrottung	engstirnig	bange	versagen	sterben	töten	kreativ	gütig	gesittet	vergnügt	kuss	genießen	krank	gierig	geizig	verbissen	krise	gemein	1	blank2r.bmp	0	1	+	0	1	blank2r.bmp	500	1	B1r.bmp	500	1	blank2r.bmp	880	3	gesittet	880	1	FEHLER	1674	1	!	1312	1	!	1383	0	0	0
2024-06-06	11:39:02	11:43:25	261091	6.6.1	4_exp_EVA_AWA_CON	73	A	B	Rpleas_acq	Same	Rpleas	1pleas	acq_US_unple_nomask	acq2_nomask	2	30	480	1	300	300	0	0	443	46	1	0	anregung	engagiert	besonnen	vertrauen	sonnig	träumen	ausrottung	engstirnig	bange	versagen	sterben	töten	kreativ	gütig	gesittet	vergnügt	kuss	genießen	krank	gierig	geizig	verbissen	krise	gemein	1	blank2r.bmp	0	1	+	0	1	blank2r.bmp	500	1	DHJF	500	1	blank2r.bmp	880	5	sterben	880	1	!	1313	1	!	1345	0	0	0	0	0	0
2024-06-06	11:39:02	11:43:28	263466	6.6.1	4_exp_EVA_AWA_CON	73	A	B	Rpleas_acq	Same	Rpleas	1pleas	acq_new_pleas_nomask	acq2_nomask	2	31	480	0	300	300	0	0	598	50	1	0	anregung	engagiert	besonnen	vertrauen	sonnig	träumen	ausrottung	engstirnig	bange	versagen	sterben	töten	kreativ	gütig	gesittet	vergnügt	kuss	genießen	krank	gierig	geizig	verbissen	krise	gemein	1	blank2r.bmp	0	1	+	0	1	blank2r.bmp	500	5	C1r.bmp	500	1	blank2r.bmp	880	2	gütig	880	1	!	1313	1	!	-1	0	0	0	0	0	0
2024-06-06	11:39:02	11:43:30	265868	6.6.1	4_exp_EVA_AWA_CON	73	A	B	Rpleas_acq	Same	Rpleas	1pleas	acq_US_pleas_nomask	acq2_nomask	2	32	480	1	300	300	0	0	426	46	0	0	anregung	engagiert	besonnen	vertrauen	sonnig	träumen	ausrottung	engstirnig	bange	versagen	sterben	töten	kreativ	gütig	gesittet	vergnügt	kuss	genießen	krank	gierig	geizig	verbissen	krise	gemein	1	blank2r.bmp	0	1	+	0	1	blank2r.bmp	500	1	CPLW	500	1	blank2r.bmp	880	6	träumen	880	1	FEHLER	1619	1	!	1313	1	!	1328	0	0	0
2024-06-06	11:39:02	11:43:32	268174	6.6.1	4_exp_EVA_AWA_CON	73	A	B	Rpleas_acq	Same	Rpleas	1pleas	acq_US_pleas_nomask	acq2_nomask	2	33	480	1	300	300	0	0	529	46	0	0	anregung	engagiert	besonnen	vertrauen	sonnig	träumen	ausrottung	engstirnig	bange	versagen	sterben	töten	kreativ	gütig	gesittet	vergnügt	kuss	genießen	krank	gierig	geizig	verbissen	krise	gemein	1	blank2r.bmp	0	1	+	0	1	blank2r.bmp	500	1	CPLW	500	1	blank2r.bmp	880	4	vertrauen	880	1	FEHLER	1723	1	!	1312	1	!	1430	0	0	0
2024-06-06	11:39:02	11:43:34	270346	6.6.1	4_exp_EVA_AWA_CON	73	A	B	Rpleas_acq	Same	Rpleas	1pleas	acq_new_pleas_nomask	acq2_nomask	2	34	480	0	300	300	0	0	593	50	1	0	anregung	engagiert	besonnen	vertrauen	sonnig	träumen	ausrottung	engstirnig	bange	versagen	sterben	töten	kreativ	gütig	gesittet	vergnügt	kuss	genießen	krank	gierig	geizig	verbissen	krise	gemein	1	blank2r.bmp	0	1	+	0	1	blank2r.bmp	500	7	C3r.bmp	500	1	blank2r.bmp	880	6	genießen	880	1	!	1313	1	!	-1	0	0	0	0	0	0
2024-06-06	11:39:02	11:43:37	272714	6.6.1	4_exp_EVA_AWA_CON	73	A	B	Rpleas_acq	Same	Rpleas	1pleas	acq_new_unple_nomask	acq2_nomask	2	35	480	0	300	300	0	0	590	46	1	0	anregung	engagiert	besonnen	vertrauen	sonnig	träumen	ausrottung	engstirnig	bange	versagen	sterben	töten	kreativ	gütig	gesittet	vergnügt	kuss	genießen	krank	gierig	geizig	verbissen	krise	gemein	1	blank2r.bmp	0	1	+	0	1	blank2r.bmp	500	8	C4r.bmp	500	1	blank2r.bmp	880	6	gemein	880	1	!	1313	1	!	-1	0	0	0	0	0	0
2024-06-06	11:39:02	11:43:39	274956	6.6.1	4_exp_EVA_AWA_CON	73	A	B	Rpleas_acq	Same	Rpleas	1pleas	acq_US_unple_nomask	acq2_nomask	2	36	480	1	300	300	0	0	458	46	1	0	anregung	engagiert	besonnen	vertrauen	sonnig	träumen	ausrottung	engstirnig	bange	versagen	sterben	töten	kreativ	gütig	gesittet	vergnügt	kuss	genießen	krank	gierig	geizig	verbissen	krise	gemein	1	blank2r.bmp	0	1	+	0	1	blank2r.bmp	500	1	DHJF	500	1	blank2r.bmp	880	2	engstirnig	880	1	!	1313	1	!	1360	0	0	0	0	0	0
2024-06-06	11:39:02	11:44:02	298338	6.6.1	4_exp_EVA_AWA_CON	73	A	B	Rpleas_acq	Same	Rpleas	1pleas	acq_US_pleas_nomask	acq3_nomask	3	1	453	0	300	300	0	0	607	50	1	0	anregung	engagiert	besonnen	vertrauen	sonnig	träumen	ausrottung	engstirnig	bange	versagen	sterben	töten	kreativ	gütig	gesittet	vergnügt	kuss	genießen	krank	gierig	geizig	verbissen	krise	gemein	1	blank2r.bmp	0	1	+	0	1	blank2r.bmp	500	1	CPLW	500	1	blank2r.bmp	880	1	anregung	880	1	!	1293	1	!	-1	0	0	0	0	0	0
2024-06-06	11:39:02	11:44:05	300706	6.6.1	4_exp_EVA_AWA_CON	73	A	B	Rpleas_acq	Same	Rpleas	1pleas	acq_US_unple_nomask	acq3_nomask	3	2	453	0	300	300	0	0	593	46	1	0	anregung	engagiert	besonnen	vertrauen	sonnig	träumen	ausrottung	engstirnig	bange	versagen	sterben	töten	kreativ	gütig	gesittet	vergnügt	kuss	genießen	krank	gierig	geizig	verbissen	krise	gemein	1	blank2r.bmp	0	1	+	0	1	blank2r.bmp	500	1	DHJF	500	1	blank2r.bmp	880	2	engstirnig	880	1	!	1293	1	!	-1	0	0	0	0	0	0
2024-06-06	11:39:02	11:44:07	303082	6.6.1	4_exp_EVA_AWA_CON	73	A	B	Rpleas_acq	Same	Rpleas	1pleas	acq_US_unple_nomask	acq3_nomask	3	3	453	0	300	300	0	0	598	46	1	0	anregung	engagiert	besonnen	vertrauen	sonnig	träumen	ausrottung	engstirnig	bange	versagen	sterben	töten	kreativ	gütig	gesittet	vergnügt	kuss	genießen	krank	gierig	geizig	verbissen	krise	gemein	1	blank2r.bmp	0	1	+	0	1	blank2r.bmp	500	1	DHJF	500	1	blank2r.bmp	880	5	sterben	880	1	!	1293	1	!	-1	0	0	0	0	0	0
2024-06-06	11:39:02	11:44:10	305474	6.6.1	4_exp_EVA_AWA_CON	73	A	B	Rpleas_acq	Same	Rpleas	1pleas	acq_US_pleas_nomask	acq3_nomask	3	4	453	0	300	300	0	0	618	50	1	0	anregung	engagiert	besonnen	vertrauen	sonnig	träumen	ausrottung	engstirnig	bange	versagen	sterben	töten	kreativ	gütig	gesittet	vergnügt	kuss	genießen	krank	gierig	geizig	verbissen	krise	gemein	1	blank2r.bmp	0	1	+	0	1	blank2r.bmp	500	1	CPLW	500	1	blank2r.bmp	880	2	engagiert	880	1	!	1293	1	!	-1	0	0	0	0	0	0
2024-06-06	11:39:02	11:44:12	307668	6.6.1	4_exp_EVA_AWA_CON	73	A	B	Rpleas_acq	Same	Rpleas	1pleas	acq_US_unple_nomask	acq3_nomask	3	5	453	1	300	300	0	0	419	46	1	0	anregung	engagiert	besonnen	vertrauen	sonnig	träumen	ausrottung	engstirnig	bange	versagen	sterben	töten	kreativ	gütig	gesittet	vergnügt	kuss	genießen	krank	gierig	geizig	verbissen	krise	gemein	1	blank2r.bmp	0	1	+	0	1	blank2r.bmp	500	1	DHJF	500	1	blank2r.bmp	880	4	versagen	880	1	!	1293	1	!	1320	0	0	0	0	0	0
2024-06-06	11:39:02	11:44:14	309884	6.6.1	4_exp_EVA_AWA_CON	73	A	B	Rpleas_acq	Same	Rpleas	1pleas	acq_US_pleas_nomask	acq3_nomask	3	6	453	1	300	300	0	0	433	50	1	0	anregung	engagiert	besonnen	vertrauen	sonnig	träumen	ausrottung	engstirnig	bange	versagen	sterben	töten	kreativ	gütig	gesittet	vergnügt	kuss	genießen	krank	gierig	geizig	verbissen	krise	gemein	1	blank2r.bmp	0	1	+	0	1	blank2r.bmp	500	1	CPLW	500	1	blank2r.bmp	880	5	sonnig	880	1	!	1293	1	!	1335	0	0	0	0	0	0
2024-06-06	11:39:02	11:44:16	312365	6.6.1	4_exp_EVA_AWA_CON	73	A	B	Rpleas_acq	Same	Rpleas	1pleas	acq_US_pleas_nomask	acq3_nomask	3	7	453	1	300	300	0	0	502	46	0	0	anregung	engagiert	besonnen	vertrauen	sonnig	träumen	ausrottung	engstirnig	bange	versagen	sterben	töten	kreativ	gütig	gesittet	vergnügt	kuss	genießen	krank	gierig	geizig	verbissen	krise	gemein	1	blank2r.bmp	0	1	+	0	1	blank2r.bmp	500	1	CPLW	500	1	blank2r.bmp	880	3	besonnen	880	1	FEHLER	1695	1	!	1293	1	!	1403	0	0	0
2024-06-06	11:39:02	11:44:19	314514	6.6.1	4_exp_EVA_AWA_CON	73	A	B	Rpleas_acq	Same	Rpleas	1pleas	acq_US_unple_nomask	acq3_nomask	3	8	453	0	300	300	0	0	572	46	1	0	anregung	engagiert	besonnen	vertrauen	sonnig	träumen	ausrottung	engstirnig	bange	versagen	sterben	töten	kreativ	gütig	gesittet	vergnügt	kuss	genießen	krank	gierig	geizig	verbissen	krise	gemein	1	blank2r.bmp	0	1	+	0	1	blank2r.bmp	500	1	DHJF	500	1	blank2r.bmp	880	6	töten	880	1	!	1293	1	!	-1	0	0	0	0	0	0
2024-06-06	11:39:02	11:44:21	316764	6.6.1	4_exp_EVA_AWA_CON	73	A	B	Rpleas_acq	Same	Rpleas	1pleas	acq_US_unple_nomask	acq3_nomask	3	9	453	1	300	300	0	0	469	46	1	0	anregung	engagiert	besonnen	vertrauen	sonnig	träumen	ausrottung	engstirnig	bange	versagen	sterben	töten	kreativ	gütig	gesittet	vergnügt	kuss	genießen	krank	gierig	geizig	verbissen	krise	gemein	1	blank2r.bmp	0	1	+	0	1	blank2r.bmp	500	1	DHJF	500	1	blank2r.bmp	880	3	bange	880	1	!	1293	1	!	1370	0	0	0	0	0	0
2024-06-06	11:39:02	11:44:23	319012	6.6.1	4_exp_EVA_AWA_CON	73	A	B	Rpleas_acq	Same	Rpleas	1pleas	acq_US_pleas_nomask	acq3_nomask	3	10	453	1	300	300	0	0	465	50	1	0	anregung	engagiert	besonnen	vertrauen	sonnig	träumen	ausrottung	engstirnig	bange	versagen	sterben	töten	kreativ	gütig	gesittet	vergnügt	kuss	genießen	krank	gierig	geizig	verbissen	krise	gemein	1	blank2r.bmp	0	1	+	0	1	blank2r.bmp	500	1	CPLW	500	1	blank2r.bmp	880	4	vertrauen	880	1	!	1293	1	!	1367	0	0	0	0	0	0
2024-06-06	11:39:02	11:44:25	321276	6.6.1	4_exp_EVA_AWA_CON	73	A	B	Rpleas_acq	Same	Rpleas	1pleas	acq_US_unple_nomask	acq3_nomask	3	11	453	1	300	300	0	0	488	46	1	0	anregung	engagiert	besonnen	vertrauen	sonnig	träumen	ausrottung	engstirnig	bange	versagen	sterben	töten	kreativ	gütig	gesittet	vergnügt	kuss	genießen	krank	gierig	geizig	verbissen	krise	gemein	1	blank2r.bmp	0	1	+	0	1	blank2r.bmp	500	1	DHJF	500	1	blank2r.bmp	880	1	ausrottung	880	1	!	1293	1	!	1389	0	0	0	0	0	0
2024-06-06	11:39:02	11:44:28	323746	6.6.1	4_exp_EVA_AWA_CON	73	A	B	Rpleas_acq	Same	Rpleas	1pleas	acq_US_pleas_nomask	acq3_nomask	3	12	453	1	300	300	0	0	480	46	0	0	anregung	engagiert	besonnen	vertrauen	sonnig	träumen	ausrottung	engstirnig	bange	versagen	sterben	töten	kreativ	gütig	gesittet	vergnügt	kuss	genießen	krank	gierig	geizig	verbissen	krise	gemein	1	blank2r.bmp	0	1	+	0	1	blank2r.bmp	512	1	CPLW	512	1	blank2r.bmp	886	6	träumen	886	1	FEHLER	1678	1	!	1293	1	!	1382	0	0	0
2024-06-06	11:39:02	11:44:30	325921	6.6.1	4_exp_EVA_AWA_CON	73	A	B	Rpleas_acq	Same	Rpleas	1pleas	acq_US_unple_nomask	acq3_nomask	3	13	453	0	300	300	0	0	579	46	1	0	anregung	engagiert	besonnen	vertrauen	sonnig	träumen	ausrottung	engstirnig	bange	versagen	sterben	töten	kreativ	gütig	gesittet	vergnügt	kuss	genießen	krank	gierig	geizig	verbissen	krise	gemein	1	blank2r.bmp	0	1	+	0	1	blank2r.bmp	500	1	DHJF	500	1	blank2r.bmp	880	5	sterben	880	1	!	1300	1	!	-1	0	0	0	0	0	0
2024-06-06	11:39:02	11:44:32	328346	6.6.1	4_exp_EVA_AWA_CON	73	A	B	Rpleas_acq	Same	Rpleas	1pleas	acq_US_unple_nomask	acq3_nomask	3	14	453	0	300	300	0	0	645	46	1	0	anregung	engagiert	besonnen	vertrauen	sonnig	träumen	ausrottung	engstirnig	bange	versagen	sterben	töten	kreativ	gütig	gesittet	vergnügt	kuss	genießen	krank	gierig	geizig	verbissen	krise	gemein	1	blank2r.bmp	0	1	+	0	1	blank2r.bmp	500	1	DHJF	500	1	blank2r.bmp	880	3	bange	880	1	!	1293	1	!	-1	0	0	0	0	0	0
2024-06-06	11:39:02	11:44:35	330925	6.6.1	4_exp_EVA_AWA_CON	73	A	B	Rpleas_acq	Same	Rpleas	1pleas	acq_US_pleas_nomask	acq3_nomask	3	15	453	0	300	300	0	0	600	46	0	0	anregung	engagiert	besonnen	vertrauen	sonnig	träumen	ausrottung	engstirnig	bange	versagen	sterben	töten	kreativ	gütig	gesittet	vergnügt	kuss	genießen	krank	gierig	geizig	verbissen	krise	gemein	1	blank2r.bmp	0	1	+	0	1	blank2r.bmp	500	1	CPLW	500	1	blank2r.bmp	880	1	anregung	880	1	FEHLER	1794	1	!	1293	1	!	-1	0	0	0
2024-06-06	11:39:02	11:44:37	333334	6.6.1	4_exp_EVA_AWA_CON	73	A	B	Rpleas_acq	Same	Rpleas	1pleas	acq_US_unple_nomask	acq3_nomask	3	16	453	0	300	300	0	0	626	50	0	0	anregung	engagiert	besonnen	vertrauen	sonnig	träumen	ausrottung	engstirnig	bange	versagen	sterben	töten	kreativ	gütig	gesittet	vergnügt	kuss	genießen	krank	gierig	geizig	verbissen	krise	gemein	1	blank2r.bmp	0	1	+	0	1	blank2r.bmp	500	1	DHJF	500	1	blank2r.bmp	880	2	engstirnig	880	1	FEHLER	1820	1	!	1292	1	!	-1	0	0	0
2024-06-06	11:39:02	11:44:39	335453	6.6.1	4_exp_EVA_AWA_CON	73	A	B	Rpleas_acq	Same	Rpleas	1pleas	acq_US_pleas_nomask	acq3_nomask	3	17	453	0	300	300	0	0	345	46	0	0	anregung	engagiert	besonnen	vertrauen	sonnig	träumen	ausrottung	engstirnig	bange	versagen	sterben	töten	kreativ	gütig	gesittet	vergnügt	kuss	genießen	krank	gierig	geizig	verbissen	krise	gemein	1	blank2r.bmp	0	1	+	0	1	blank2r.bmp	500	1	CPLW	500	1	blank2r.bmp	880	3	besonnen	880	1	FEHLER	1538	1	!	-1	1	!	-1	0	0	0
2024-06-06	11:39:02	11:44:41	337460	6.6.1	4_exp_EVA_AWA_CON	73	A	B	Rpleas_acq	Same	Rpleas	1pleas	acq_US_pleas_nomask	acq3_nomask	3	18	453	1	300	300	0	0	431	50	1	0	anregung	engagiert	besonnen	vertrauen	sonnig	träumen	ausrottung	engstirnig	bange	versagen	sterben	töten	kreativ	gütig	gesittet	vergnügt	kuss	genießen	krank	gierig	geizig	verbissen	krise	gemein	1	blank2r.bmp	0	1	+	0	1	blank2r.bmp	500	1	CPLW	500	1	blank2r.bmp	880	2	engagiert	880	1	!	1293	1	!	1333	0	0	0	0	0	0
2024-06-06	11:39:02	11:44:44	339794	6.6.1	4_exp_EVA_AWA_CON	73	A	B	Rpleas_acq	Same	Rpleas	1pleas	acq_US_unple_nomask	acq3_nomask	3	19	453	0	300	300	0	0	556	46	1	0	anregung	engagiert	besonnen	vertrauen	sonnig	träumen	ausrottung	engstirnig	bange	versagen	sterben	töten	kreativ	gütig	gesittet	vergnügt	kuss	genießen	krank	gierig	geizig	verbissen	krise	gemein	1	blank2r.bmp	0	1	+	0	1	blank2r.bmp	500	1	DHJF	500	1	blank2r.bmp	880	4	versagen	880	1	!	1292	1	!	-1	0	0	0	0	0	0
2024-06-06	11:39:02	11:44:46	342106	6.6.1	4_exp_EVA_AWA_CON	73	A	B	Rpleas_acq	Same	Rpleas	1pleas	acq_US_pleas_nomask	acq3_nomask	3	20	453	0	300	300	0	0	536	50	1	0	anregung	engagiert	besonnen	vertrauen	sonnig	träumen	ausrottung	engstirnig	bange	versagen	sterben	töten	kreativ	gütig	gesittet	vergnügt	kuss	genießen	krank	gierig	geizig	verbissen	krise	gemein	1	blank2r.bmp	0	1	+	0	1	blank2r.bmp	500	1	CPLW	500	1	blank2r.bmp	880	5	sonnig	880	1	!	1292	1	!	-1	0	0	0	0	0	0
2024-06-06	11:39:02	11:44:48	344347	6.6.1	4_exp_EVA_AWA_CON	73	A	B	Rpleas_acq	Same	Rpleas	1pleas	acq_US_pleas_nomask	acq3_nomask	3	21	453	1	300	300	0	0	465	50	1	0	anregung	engagiert	besonnen	vertrauen	sonnig	träumen	ausrottung	engstirnig	bange	versagen	sterben	töten	kreativ	gütig	gesittet	vergnügt	kuss	genießen	krank	gierig	geizig	verbissen	krise	gemein	1	blank2r.bmp	0	1	+	0	1	blank2r.bmp	500	1	CPLW	500	1	blank2r.bmp	880	6	träumen	880	1	!	1293	1	!	1366	0	0	0	0	0	0
2024-06-06	11:39:02	11:44:51	346658	6.6.1	4_exp_EVA_AWA_CON	73	A	B	Rpleas_acq	Same	Rpleas	1pleas	acq_US_unple_nomask	acq3_nomask	3	22	453	0	300	300	0	0	535	46	1	0	anregung	engagiert	besonnen	vertrauen	sonnig	träumen	ausrottung	engstirnig	bange	versagen	sterben	töten	kreativ	gütig	gesittet	vergnügt	kuss	genießen	krank	gierig	geizig	verbissen	krise	gemein	1	blank2r.bmp	0	1	+	0	1	blank2r.bmp	500	1	DHJF	500	1	blank2r.bmp	880	6	töten	880	1	!	1293	1	!	-1	0	0	0	0	0	0
2024-06-06	11:39:02	11:44:53	348976	6.6.1	4_exp_EVA_AWA_CON	73	A	B	Rpleas_acq	Same	Rpleas	1pleas	acq_US_pleas_nomask	acq3_nomask	3	23	453	0	300	300	0	0	544	50	1	0	anregung	engagiert	besonnen	vertrauen	sonnig	träumen	ausrottung	engstirnig	bange	versagen	sterben	töten	kreativ	gütig	gesittet	vergnügt	kuss	genießen	krank	gierig	geizig	verbissen	krise	gemein	1	blank2r.bmp	0	1	+	0	1	blank2r.bmp	500	1	CPLW	500	1	blank2r.bmp	880	4	vertrauen	880	1	!	1291	1	!	-1	0	0	0	0	0	0
2024-06-06	11:39:02	11:44:55	351266	6.6.1	4_exp_EVA_AWA_CON	73	A	B	Rpleas_acq	Same	Rpleas	1pleas	acq_US_unple_nomask	acq3_nomask	3	24	453	1	300	300	0	0	510	46	1	0	anregung	engagiert	besonnen	vertrauen	sonnig	träumen	ausrottung	engstirnig	bange	versagen	sterben	töten	kreativ	gütig	gesittet	vergnügt	kuss	genießen	krank	gierig	geizig	verbissen	krise	gemein	1	blank2r.bmp	0	1	+	0	1	blank2r.bmp	500	1	DHJF	500	1	blank2r.bmp	880	1	ausrottung	880	1	!	1291	1	!	1411	0	0	0	0	0	0
2024-06-06	11:39:02	11:44:58	353651	6.6.1	4_exp_EVA_AWA_CON	73	A	B	Rpleas_acq	Same	Rpleas	1pleas	acq_US_unple_nomask	acq3_nomask	3	25	453	1	300	300	0	0	403	50	0	0	anregung	engagiert	besonnen	vertrauen	sonnig	träumen	ausrottung	engstirnig	bange	versagen	sterben	töten	kreativ	gütig	gesittet	vergnügt	kuss	genießen	krank	gierig	geizig	verbissen	krise	gemein	1	blank2r.bmp	0	1	+	0	1	blank2r.bmp	500	1	DHJF	500	1	blank2r.bmp	880	4	versagen	880	1	FEHLER	1595	1	!	1293	1	!	1303	0	0	0
2024-06-06	11:39:02	11:45:00	355925	6.6.1	4_exp_EVA_AWA_CON	73	A	B	Rpleas_acq	Same	Rpleas	1pleas	acq_US_pleas_nomask	acq3_nomask	3	26	453	1	300	300	0	0	493	46	0	0	anregung	engagiert	besonnen	vertrauen	sonnig	träumen	ausrottung	engstirnig	bange	versagen	sterben	töten	kreativ	gütig	gesittet	vergnügt	kuss	genießen	krank	gierig	geizig	verbissen	krise	gemein	1	blank2r.bmp	0	1	+	0	1	blank2r.bmp	500	1	CPLW	500	1	blank2r.bmp	880	1	anregung	880	1	FEHLER	1687	1	!	1293	1	!	1395	0	0	0
2024-06-06	11:39:02	11:45:02	357987	6.6.1	4_exp_EVA_AWA_CON	73	A	B	Rpleas_acq	Same	Rpleas	1pleas	acq_US_pleas_nomask	acq3_nomask	3	27	453	1	300	300	0	0	486	50	1	0	anregung	engagiert	besonnen	vertrauen	sonnig	träumen	ausrottung	engstirnig	bange	versagen	sterben	töten	kreativ	gütig	gesittet	vergnügt	kuss	genießen	krank	gierig	geizig	verbissen	krise	gemein	1	blank2r.bmp	0	1	+	0	1	blank2r.bmp	500	1	CPLW	500	1	blank2r.bmp	880	5	sonnig	880	1	!	1292	1	!	1387	0	0	0	0	0	0
2024-06-06	11:39:02	11:45:04	360354	6.6.1	4_exp_EVA_AWA_CON	73	A	B	Rpleas_acq	Same	Rpleas	1pleas	acq_US_unple_nomask	acq3_nomask	3	28	453	0	300	300	0	0	592	46	1	0	anregung	engagiert	besonnen	vertrauen	sonnig	träumen	ausrottung	engstirnig	bange	versagen	sterben	töten	kreativ	gütig	gesittet	vergnügt	kuss	genießen	krank	gierig	geizig	verbissen	krise	gemein	1	blank2r.bmp	0	1	+	0	1	blank2r.bmp	500	1	DHJF	500	1	blank2r.bmp	880	2	engstirnig	880	1	!	1293	1	!	-1	0	0	0	0	0	0
2024-06-06	11:39:02	11:45:07	362564	6.6.1	4_exp_EVA_AWA_CON	73	A	B	Rpleas_acq	Same	Rpleas	1pleas	acq_US_pleas_nomask	acq3_nomask	3	29	453	1	300	300	0	0	429	50	1	0	anregung	engagiert	besonnen	vertrauen	sonnig	träumen	ausrottung	engstirnig	bange	versagen	sterben	töten	kreativ	gütig	gesittet	vergnügt	kuss	genießen	krank	gierig	geizig	verbissen	krise	gemein	1	blank2r.bmp	0	1	+	0	1	blank2r.bmp	500	1	CPLW	500	1	blank2r.bmp	880	4	vertrauen	880	1	!	1292	1	!	1330	0	0	0	0	0	0
2024-06-06	11:39:02	11:45:09	364947	6.6.1	4_exp_EVA_AWA_CON	73	A	B	Rpleas_acq	Same	Rpleas	1pleas	acq_US_pleas_nomask	acq3_nomask	3	30	453	1	300	300	0	0	401	46	0	0	anregung	engagiert	besonnen	vertrauen	sonnig	träumen	ausrottung	engstirnig	bange	versagen	sterben	töten	kreativ	gütig	gesittet	vergnügt	kuss	genießen	krank	gierig	geizig	verbissen	krise	gemein	1	blank2r.bmp	0	1	+	0	1	blank2r.bmp	500	1	CPLW	500	1	blank2r.bmp	880	3	besonnen	880	1	FEHLER	1593	1	!	1293	1	!	1301	0	0	0
2024-06-06	11:39:02	11:45:11	367157	6.6.1	4_exp_EVA_AWA_CON	73	A	B	Rpleas_acq	Same	Rpleas	1pleas	acq_US_unple_nomask	acq3_nomask	3	31	453	1	300	300	0	0	428	50	0	0	anregung	engagiert	besonnen	vertrauen	sonnig	träumen	ausrottung	engstirnig	bange	versagen	sterben	töten	kreativ	gütig	gesittet	vergnügt	kuss	genießen	krank	gierig	geizig	verbissen	krise	gemein	1	blank2r.bmp	0	1	+	0	1	blank2r.bmp	500	1	DHJF	500	1	blank2r.bmp	880	3	bange	880	1	FEHLER	1621	1	!	1292	1	!	1329	0	0	0
2024-06-06	11:39:02	11:45:13	369203	6.6.1	4_exp_EVA_AWA_CON	73	A	B	Rpleas_acq	Same	Rpleas	1pleas	acq_US_unple_nomask	acq3_nomask	3	32	453	1	300	300	0	0	465	46	1	0	anregung	engagiert	besonnen	vertrauen	sonnig	träumen	ausrottung	engstirnig	bange	versagen	sterben	töten	kreativ	gütig	gesittet	vergnügt	kuss	genießen	krank	gierig	geizig	verbissen	krise	gemein	1	blank2r.bmp	0	1	+	0	1	blank2r.bmp	500	1	DHJF	500	1	blank2r.bmp	880	1	ausrottung	880	1	!	1292	1	!	1366	0	0	0	0	0	0
2024-06-06	11:39:02	11:45:16	371602	6.6.1	4_exp_EVA_AWA_CON	73	A	B	Rpleas_acq	Same	Rpleas	1pleas	acq_US_pleas_nomask	acq3_nomask	3	33	453	0	300	300	0	0	623	50	1	0	anregung	engagiert	besonnen	vertrauen	sonnig	träumen	ausrottung	engstirnig	bange	versagen	sterben	töten	kreativ	gütig	gesittet	vergnügt	kuss	genießen	krank	gierig	geizig	verbissen	krise	gemein	1	blank2r.bmp	0	1	+	0	1	blank2r.bmp	500	1	CPLW	500	1	blank2r.bmp	880	6	träumen	880	1	!	1292	1	!	-1	0	0	0	0	0	0
2024-06-06	11:39:02	11:45:18	373938	6.6.1	4_exp_EVA_AWA_CON	73	A	B	Rpleas_acq	Same	Rpleas	1pleas	acq_US_unple_nomask	acq3_nomask	3	34	453	0	300	300	0	0	557	46	1	0	anregung	engagiert	besonnen	vertrauen	sonnig	träumen	ausrottung	engstirnig	bange	versagen	sterben	töten	kreativ	gütig	gesittet	vergnügt	kuss	genießen	krank	gierig	geizig	verbissen	krise	gemein	1	blank2r.bmp	0	1	+	0	1	blank2r.bmp	500	1	DHJF	500	1	blank2r.bmp	880	6	töten	880	1	!	1292	1	!	-1	0	0	0	0	0	0
2024-06-06	11:39:02	11:45:20	376204	6.6.1	4_exp_EVA_AWA_CON	73	A	B	Rpleas_acq	Same	Rpleas	1pleas	acq_US_unple_nomask	acq3_nomask	3	35	453	1	300	300	0	0	490	46	1	0	anregung	engagiert	besonnen	vertrauen	sonnig	träumen	ausrottung	engstirnig	bange	versagen	sterben	töten	kreativ	gütig	gesittet	vergnügt	kuss	genießen	krank	gierig	geizig	verbissen	krise	gemein	1	blank2r.bmp	0	1	+	0	1	blank2r.bmp	500	1	DHJF	500	1	blank2r.bmp	880	5	sterben	880	1	!	1293	1	!	1392	0	0	0	0	0	0
2024-06-06	11:39:02	11:45:23	378637	6.6.1	4_exp_EVA_AWA_CON	73	A	B	Rpleas_acq	Same	Rpleas	1pleas	acq_US_pleas_nomask	acq3_nomask	3	36	453	1	300	300	0	0	451	46	0	0	anregung	engagiert	besonnen	vertrauen	sonnig	träumen	ausrottung	engstirnig	bange	versagen	sterben	töten	kreativ	gütig	gesittet	vergnügt	kuss	genießen	krank	gierig	geizig	verbissen	krise	gemein	1	blank2r.bmp	0	1	+	0	1	blank2r.bmp	500	1	CPLW	500	1	blank2r.bmp	880	2	engagiert	880	1	FEHLER	1644	1	!	1292	1	!	1352	0	0	0
2024-06-06	11:39:02	11:45:40	395904	6.6.1	4_exp_EVA_AWA_CON	73	A	B	Rpleas_acq	Same	Rpleas	1pleas	acq_US_pleas_nomask	acq45_nomask	4	1	400	0	300	300	0	0	481	50	1	0	anregung	engagiert	besonnen	vertrauen	sonnig	träumen	ausrottung	engstirnig	bange	versagen	sterben	töten	kreativ	gütig	gesittet	vergnügt	kuss	genießen	krank	gierig	geizig	verbissen	krise	gemein	1	blank2r.bmp	0	1	+	0	1	blank2r.bmp	500	1	CPLW	500	1	blank2r.bmp	880	1	anregung	880	1	!	1232	1	!	-1	0	0	0	0	0	0
2024-06-06	11:39:02	11:45:42	398242	6.6.1	4_exp_EVA_AWA_CON	73	A	B	Rpleas_acq	Same	Rpleas	1pleas	acq_US_unple_nomask	acq45_nomask	4	2	400	0	300	300	0	0	556	46	1	0	anregung	engagiert	besonnen	vertrauen	sonnig	träumen	ausrottung	engstirnig	bange	versagen	sterben	töten	kreativ	gütig	gesittet	vergnügt	kuss	genießen	krank	gierig	geizig	verbissen	krise	gemein	1	blank2r.bmp	0	1	+	0	1	blank2r.bmp	500	1	DHJF	500	1	blank2r.bmp	880	2	engstirnig	880	1	!	1232	1	!	-1	0	0	0	0	0	0
2024-06-06	11:39:02	11:45:45	400602	6.6.1	4_exp_EVA_AWA_CON	73	A	B	Rpleas_acq	Same	Rpleas	1pleas	acq_US_unple_nomask	acq45_nomask	4	3	400	0	300	300	0	0	584	46	1	0	anregung	engagiert	besonnen	vertrauen	sonnig	träumen	ausrottung	engstirnig	bange	versagen	sterben	töten	kreativ	gütig	gesittet	vergnügt	kuss	genießen	krank	gierig	geizig	verbissen	krise	gemein	1	blank2r.bmp	0	1	+	0	1	blank2r.bmp	500	1	DHJF	500	1	blank2r.bmp	880	3	bange	880	1	!	1233	1	!	-1	0	0	0	0	0	0
2024-06-06	11:39:02	11:45:47	402906	6.6.1	4_exp_EVA_AWA_CON	73	A	B	Rpleas_acq	Same	Rpleas	1pleas	acq_US_unple_nomask	acq45_nomask	4	4	400	0	300	300	0	0	527	46	1	0	anregung	engagiert	besonnen	vertrauen	sonnig	träumen	ausrottung	engstirnig	bange	versagen	sterben	töten	kreativ	gütig	gesittet	vergnügt	kuss	genießen	krank	gierig	geizig	verbissen	krise	gemein	1	blank2r.bmp	0	1	+	0	1	blank2r.bmp	500	1	DHJF	500	1	blank2r.bmp	880	6	töten	880	1	!	1233	1	!	-1	0	0	0	0	0	0
2024-06-06	11:39:02	11:45:49	405210	6.6.1	4_exp_EVA_AWA_CON	73	A	B	Rpleas_acq	Same	Rpleas	1pleas	acq_US_pleas_nomask	acq45_nomask	4	5	400	0	300	300	0	0	529	50	1	0	anregung	engagiert	besonnen	vertrauen	sonnig	träumen	ausrottung	engstirnig	bange	versagen	sterben	töten	kreativ	gütig	gesittet	vergnügt	kuss	genießen	krank	gierig	geizig	verbissen	krise	gemein	1	blank2r.bmp	0	1	+	0	1	blank2r.bmp	500	1	CPLW	500	1	blank2r.bmp	880	2	engagiert	880	1	!	1232	1	!	-1	0	0	0	0	0	0
2024-06-06	11:39:02	11:45:51	407427	6.6.1	4_exp_EVA_AWA_CON	73	A	B	Rpleas_acq	Same	Rpleas	1pleas	acq_US_unple_nomask	acq45_nomask	4	6	400	1	300	300	0	0	443	46	1	0	anregung	engagiert	besonnen	vertrauen	sonnig	träumen	ausrottung	engstirnig	bange	versagen	sterben	töten	kreativ	gütig	gesittet	vergnügt	kuss	genießen	krank	gierig	geizig	verbissen	krise	gemein	1	blank2r.bmp	0	1	+	0	1	blank2r.bmp	500	1	DHJF	500	1	blank2r.bmp	880	4	versagen	880	1	!	1232	1	!	1345	0	0	0	0	0	0
2024-06-06	11:39:02	11:45:54	409636	6.6.1	4_exp_EVA_AWA_CON	73	A	B	Rpleas_acq	Same	Rpleas	1pleas	acq_US_unple_nomask	acq45_nomask	4	7	400	1	300	300	0	0	430	46	1	0	anregung	engagiert	besonnen	vertrauen	sonnig	träumen	ausrottung	engstirnig	bange	versagen	sterben	töten	kreativ	gütig	gesittet	vergnügt	kuss	genießen	krank	gierig	geizig	verbissen	krise	gemein	1	blank2r.bmp	0	1	+	0	1	blank2r.bmp	500	1	DHJF	500	1	blank2r.bmp	880	5	sterben	880	1	!	1232	1	!	1332	0	0	0	0	0	0
2024-06-06	11:39:02	11:45:56	411827	6.6.1	4_exp_EVA_AWA_CON	73	A	B	Rpleas_acq	Same	Rpleas	1pleas	acq_US_unple_nomask	acq45_nomask	4	8	400	1	300	300	0	0	411	46	1	0	anregung	engagiert	besonnen	vertrauen	sonnig	träumen	ausrottung	engstirnig	bange	versagen	sterben	töten	kreativ	gütig	gesittet	vergnügt	kuss	genießen	krank	gierig	geizig	verbissen	krise	gemein	1	blank2r.bmp	0	1	+	0	1	blank2r.bmp	500	1	DHJF	500	1	blank2r.bmp	880	1	ausrottung	880	1	!	1232	1	!	1312	0	0	0	0	0	0
2024-06-06	11:39:02	11:45:58	414122	6.6.1	4_exp_EVA_AWA_CON	73	A	B	Rpleas_acq	Same	Rpleas	1pleas	acq_US_pleas_nomask	acq45_nomask	4	9	400	0	300	300	0	0	515	50	1	0	anregung	engagiert	besonnen	vertrauen	sonnig	träumen	ausrottung	engstirnig	bange	versagen	sterben	töten	kreativ	gütig	gesittet	vergnügt	kuss	genießen	krank	gierig	geizig	verbissen	krise	gemein	1	blank2r.bmp	0	1	+	0	1	blank2r.bmp	500	1	CPLW	500	1	blank2r.bmp	880	3	besonnen	880	1	!	1232	1	!	-1	0	0	0	0	0	0
2024-06-06	11:39:02	11:46:00	416426	6.6.1	4_exp_EVA_AWA_CON	73	A	B	Rpleas_acq	Same	Rpleas	1pleas	acq_US_pleas_nomask	acq45_nomask	4	10	400	0	300	300	0	0	528	50	1	0	anregung	engagiert	besonnen	vertrauen	sonnig	träumen	ausrottung	engstirnig	bange	versagen	sterben	töten	kreativ	gütig	gesittet	vergnügt	kuss	genießen	krank	gierig	geizig	verbissen	krise	gemein	1	blank2r.bmp	0	1	+	0	1	blank2r.bmp	500	1	CPLW	500	1	blank2r.bmp	880	5	sonnig	880	1	!	1232	1	!	-1	0	0	0	0	0	0
2024-06-06	11:39:02	11:46:03	418627	6.6.1	4_exp_EVA_AWA_CON	73	A	B	Rpleas_acq	Same	Rpleas	1pleas	acq_US_unple_nomask	acq45_nomask	4	11	400	1	300	300	0	0	426	46	1	0	anregung	engagiert	besonnen	vertrauen	sonnig	träumen	ausrottung	engstirnig	bange	versagen	sterben	töten	kreativ	gütig	gesittet	vergnügt	kuss	genießen	krank	gierig	geizig	verbissen	krise	gemein	1	blank2r.bmp	0	1	+	0	1	blank2r.bmp	500	1	DHJF	500	1	blank2r.bmp	880	5	sterben	880	1	!	1233	1	!	1328	0	0	0	0	0	0
2024-06-06	11:39:02	11:46:05	420898	6.6.1	4_exp_EVA_AWA_CON	73	A	B	Rpleas_acq	Same	Rpleas	1pleas	acq_US_unple_nomask	acq45_nomask	4	12	400	0	300	300	0	0	497	46	1	0	anregung	engagiert	besonnen	vertrauen	sonnig	träumen	ausrottung	engstirnig	bange	versagen	sterben	töten	kreativ	gütig	gesittet	vergnügt	kuss	genießen	krank	gierig	geizig	verbissen	krise	gemein	1	blank2r.bmp	0	1	+	0	1	blank2r.bmp	500	1	DHJF	500	1	blank2r.bmp	880	4	versagen	880	1	!	1232	1	!	-1	0	0	0	0	0	0
2024-06-06	11:39:02	11:46:07	423010	6.6.1	4_exp_EVA_AWA_CON	73	A	B	Rpleas_acq	Same	Rpleas	1pleas	acq_US_pleas_nomask	acq45_nomask	4	13	400	1	300	300	0	0	337	50	1	0	anregung	engagiert	besonnen	vertrauen	sonnig	träumen	ausrottung	engstirnig	bange	versagen	sterben	töten	kreativ	gütig	gesittet	vergnügt	kuss	genießen	krank	gierig	geizig	verbissen	krise	gemein	1	blank2r.bmp	0	1	+	0	1	blank2r.bmp	500	1	CPLW	500	1	blank2r.bmp	880	4	vertrauen	880	1	!	1232	1	!	1237	0	0	0	0	0	0
2024-06-06	11:39:02	11:46:09	425147	6.6.1	4_exp_EVA_AWA_CON	73	A	B	Rpleas_acq	Same	Rpleas	1pleas	acq_US_pleas_nomask	acq45_nomask	4	14	400	1	300	300	0	0	362	46	0	0	anregung	engagiert	besonnen	vertrauen	sonnig	träumen	ausrottung	engstirnig	bange	versagen	sterben	töten	kreativ	gütig	gesittet	vergnügt	kuss	genießen	krank	gierig	geizig	verbissen	krise	gemein	1	blank2r.bmp	0	1	+	0	1	blank2r.bmp	500	1	CPLW	500	1	blank2r.bmp	880	6	träumen	880	1	!	1232	1	!	1263	0	0	0	0	0	0
2024-06-06	11:39:02	11:46:11	427323	6.6.1	4_exp_EVA_AWA_CON	73	A	B	Rpleas_acq	Same	Rpleas	1pleas	acq_US_pleas_nomask	acq45_nomask	4	15	400	1	300	300	0	0	397	50	1	0	anregung	engagiert	besonnen	vertrauen	sonnig	träumen	ausrottung	engstirnig	bange	versagen	sterben	töten	kreativ	gütig	gesittet	vergnügt	kuss	genießen	krank	gierig	geizig	verbissen	krise	gemein	1	blank2r.bmp	0	1	+	0	1	blank2r.bmp	500	1	CPLW	500	1	blank2r.bmp	880	6	träumen	880	1	!	1232	1	!	1298	0	0	0	0	0	0
2024-06-06	11:39:02	11:46:14	429610	6.6.1	4_exp_EVA_AWA_CON	73	A	B	Rpleas_acq	Same	Rpleas	1pleas	acq_US_unple_nomask	acq45_nomask	4	16	400	0	300	300	0	0	513	46	1	0	anregung	engagiert	besonnen	vertrauen	sonnig	träumen	ausrottung	engstirnig	bange	versagen	sterben	töten	kreativ	gütig	gesittet	vergnügt	kuss	genießen	krank	gierig	geizig	verbissen	krise	gemein	1	blank2r.bmp	0	1	+	0	1	blank2r.bmp	500	1	DHJF	500	1	blank2r.bmp	880	1	ausrottung	880	1	!	1233	1	!	-1	0	0	0	0	0	0
2024-06-06	11:39:02	11:46:16	431836	6.6.1	4_exp_EVA_AWA_CON	73	A	B	Rpleas_acq	Same	Rpleas	1pleas	acq_US_pleas_nomask	acq45_nomask	4	17	400	1	300	300	0	0	446	46	0	0	anregung	engagiert	besonnen	vertrauen	sonnig	träumen	ausrottung	engstirnig	bange	versagen	sterben	töten	kreativ	gütig	gesittet	vergnügt	kuss	genießen	krank	gierig	geizig	verbissen	krise	gemein	1	blank2r.bmp	0	1	+	0	1	blank2r.bmp	500	1	CPLW	500	1	blank2r.bmp	880	2	engagiert	880	1	!	1233	1	!	1347	0	0	0	0	0	0
2024-06-06	11:39:02	11:46:18	434226	6.6.1	4_exp_EVA_AWA_CON	73	A	B	Rpleas_acq	Same	Rpleas	1pleas	acq_US_pleas_nomask	acq45_nomask	4	18	400	0	300	300	0	0	616	50	1	0	anregung	engagiert	besonnen	vertrauen	sonnig	träumen	ausrottung	engstirnig	bange	versagen	sterben	töten	kreativ	gütig	gesittet	vergnügt	kuss	genießen	krank	gierig	geizig	verbissen	krise	gemein	1	blank2r.bmp	0	1	+	0	1	blank2r.bmp	500	1	CPLW	500	1	blank2r.bmp	880	4	vertrauen	880	1	!	1233	1	!	-1	0	0	0	0	0	0
2024-06-06	11:39:02	11:46:21	436489	6.6.1	4_exp_EVA_AWA_CON	73	A	B	Rpleas_acq	Same	Rpleas	1pleas	acq_US_pleas_nomask	acq45_nomask	4	19	400	0	300	300	0	0	489	50	1	0	anregung	engagiert	besonnen	vertrauen	sonnig	träumen	ausrottung	engstirnig	bange	versagen	sterben	töten	kreativ	gütig	gesittet	vergnügt	kuss	genießen	krank	gierig	geizig	verbissen	krise	gemein	1	blank2r.bmp	0	1	+	0	1	blank2r.bmp	500	1	CPLW	500	1	blank2r.bmp	880	3	besonnen	880	1	!	1233	1	!	-1	0	0	0	0	0	0
2024-06-06	11:39:02	11:46:23	438754	6.6.1	4_exp_EVA_AWA_CON	73	A	B	Rpleas_acq	Same	Rpleas	1pleas	acq_US_unple_nomask	acq45_nomask	4	20	400	0	300	300	0	0	491	46	1	0	anregung	engagiert	besonnen	vertrauen	sonnig	träumen	ausrottung	engstirnig	bange	versagen	sterben	töten	kreativ	gütig	gesittet	vergnügt	kuss	genießen	krank	gierig	geizig	verbissen	krise	gemein	1	blank2r.bmp	0	1	+	0	1	blank2r.bmp	500	1	DHJF	500	1	blank2r.bmp	880	6	töten	880	1	!	1233	1	!	-1	0	0	0	0	0	0
2024-06-06	11:39:02	11:46:25	440899	6.6.1	4_exp_EVA_AWA_CON	73	A	B	Rpleas_acq	Same	Rpleas	1pleas	acq_US_pleas_nomask	acq45_nomask	4	21	400	1	300	300	0	0	364	50	1	0	anregung	engagiert	besonnen	vertrauen	sonnig	träumen	ausrottung	engstirnig	bange	versagen	sterben	töten	kreativ	gütig	gesittet	vergnügt	kuss	genießen	krank	gierig	geizig	verbissen	krise	gemein	1	blank2r.bmp	0	1	+	0	1	blank2r.bmp	500	1	CPLW	500	1	blank2r.bmp	880	1	anregung	880	1	!	1232	1	!	1265	0	0	0	0	0	0
2024-06-06	11:39:02	11:46:27	443099	6.6.1	4_exp_EVA_AWA_CON	73	A	B	Rpleas_acq	Same	Rpleas	1pleas	acq_US_pleas_nomask	acq45_nomask	4	22	400	1	300	300	0	0	422	50	1	0	anregung	engagiert	besonnen	vertrauen	sonnig	träumen	ausrottung	engstirnig	bange	versagen	sterben	töten	kreativ	gütig	gesittet	vergnügt	kuss	genießen	krank	gierig	geizig	verbissen	krise	gemein	1	blank2r.bmp	0	1	+	0	1	blank2r.bmp	500	1	CPLW	500	1	blank2r.bmp	880	5	sonnig	880	1	!	1232	1	!	1324	0	0	0	0	0	0
2024-06-06	11:39:02	11:46:29	445339	6.6.1	4_exp_EVA_AWA_CON	73	A	B	Rpleas_acq	Same	Rpleas	1pleas	acq_US_unple_nomask	acq45_nomask	4	23	400	1	300	300	0	0	461	50	0	0	anregung	engagiert	besonnen	vertrauen	sonnig	träumen	ausrottung	engstirnig	bange	versagen	sterben	töten	kreativ	gütig	gesittet	vergnügt	kuss	genießen	krank	gierig	geizig	verbissen	krise	gemein	1	blank2r.bmp	0	1	+	0	1	blank2r.bmp	500	1	DHJF	500	1	blank2r.bmp	880	3	bange	880	1	!	1232	1	!	1362	0	0	0	0	0	0
2024-06-06	11:39:02	11:46:32	447531	6.6.1	4_exp_EVA_AWA_CON	73	A	B	Rpleas_acq	Same	Rpleas	1pleas	acq_US_pleas_nomask	acq45_nomask	4	24	400	1	300	300	0	0	411	46	0	0	anregung	engagiert	besonnen	vertrauen	sonnig	träumen	ausrottung	engstirnig	bange	versagen	sterben	töten	kreativ	gütig	gesittet	vergnügt	kuss	genießen	krank	gierig	geizig	verbissen	krise	gemein	1	blank2r.bmp	0	1	+	0	1	blank2r.bmp	500	1	CPLW	500	1	blank2r.bmp	880	6	träumen	880	1	!	1233	1	!	1313	0	0	0	0	0	0
2024-06-06	11:39:02	11:46:34	449865	6.6.1	4_exp_EVA_AWA_CON	73	A	B	Rpleas_acq	Same	Rpleas	1pleas	acq_US_unple_nomask	acq45_nomask	4	25	400	0	300	300	0	0	556	46	1	0	anregung	engagiert	besonnen	vertrauen	sonnig	träumen	ausrottung	engstirnig	bange	versagen	sterben	töten	kreativ	gütig	gesittet	vergnügt	kuss	genießen	krank	gierig	geizig	verbissen	krise	gemein	1	blank2r.bmp	0	1	+	0	1	blank2r.bmp	500	1	DHJF	500	1	blank2r.bmp	880	2	engstirnig	880	1	!	1232	1	!	-1	0	0	0	0	0	0
2024-06-06	11:39:02	11:46:36	452044	6.6.1	4_exp_EVA_AWA_CON	73	A	B	Rpleas_acq	Same	Rpleas	1pleas	acq_US_pleas_nomask	acq45_nomask	4	26	400	1	300	300	0	0	400	50	1	0	anregung	engagiert	besonnen	vertrauen	sonnig	träumen	ausrottung	engstirnig	bange	versagen	sterben	töten	kreativ	gütig	gesittet	vergnügt	kuss	genießen	krank	gierig	geizig	verbissen	krise	gemein	1	blank2r.bmp	0	1	+	0	1	blank2r.bmp	500	1	CPLW	500	1	blank2r.bmp	880	5	sonnig	880	1	!	1233	1	!	1302	0	0	0	0	0	0
2024-06-06	11:39:02	11:46:38	454409	6.6.1	4_exp_EVA_AWA_CON	73	A	B	Rpleas_acq	Same	Rpleas	1pleas	acq_US_pleas_nomask	acq45_nomask	4	27	400	0	300	300	0	0	587	46	0	0	anregung	engagiert	besonnen	vertrauen	sonnig	träumen	ausrottung	engstirnig	bange	versagen	sterben	töten	kreativ	gütig	gesittet	vergnügt	kuss	genießen	krank	gierig	geizig	verbissen	krise	gemein	1	blank2r.bmp	0	1	+	0	1	blank2r.bmp	500	1	CPLW	500	1	blank2r.bmp	880	1	anregung	880	1	!	1232	1	!	-1	0	0	0	0	0	0
2024-06-06	11:39:02	11:46:41	456579	6.6.1	4_exp_EVA_AWA_CON	73	A	B	Rpleas_acq	Same	Rpleas	1pleas	acq_US_unple_nomask	acq45_nomask	4	28	400	1	300	300	0	0	394	50	0	0	anregung	engagiert	besonnen	vertrauen	sonnig	träumen	ausrottung	engstirnig	bange	versagen	sterben	töten	kreativ	gütig	gesittet	vergnügt	kuss	genießen	krank	gierig	geizig	verbissen	krise	gemein	1	blank2r.bmp	0	1	+	0	1	blank2r.bmp	500	1	DHJF	500	1	blank2r.bmp	880	3	bange	880	1	!	1233	1	!	1295	0	0	0	0	0	0
2024-06-06	11:39:02	11:46:43	458819	6.6.1	4_exp_EVA_AWA_CON	73	A	B	Rpleas_acq	Same	Rpleas	1pleas	acq_US_pleas_nomask	acq45_nomask	4	29	400	1	300	300	0	0	462	46	0	0	anregung	engagiert	besonnen	vertrauen	sonnig	träumen	ausrottung	engstirnig	bange	versagen	sterben	töten	kreativ	gütig	gesittet	vergnügt	kuss	genießen	krank	gierig	geizig	verbissen	krise	gemein	1	blank2r.bmp	0	1	+	0	1	blank2r.bmp	500	1	CPLW	500	1	blank2r.bmp	880	4	vertrauen	880	1	!	1232	1	!	1363	0	0	0	0	0	0
2024-06-06	11:39:02	11:46:45	461218	6.6.1	4_exp_EVA_AWA_CON	73	A	B	Rpleas_acq	Same	Rpleas	1pleas	acq_US_pleas_nomask	acq45_nomask	4	30	400	0	300	300	0	0	620	50	1	0	anregung	engagiert	besonnen	vertrauen	sonnig	träumen	ausrottung	engstirnig	bange	versagen	sterben	töten	kreativ	gütig	gesittet	vergnügt	kuss	genießen	krank	gierig	geizig	verbissen	krise	gemein	1	blank2r.bmp	0	1	+	0	1	blank2r.bmp	500	1	CPLW	500	1	blank2r.bmp	880	2	engagiert	880	1	!	1232	1	!	-1	0	0	0	0	0	0
2024-06-06	11:39:02	11:46:48	463610	6.6.1	4_exp_EVA_AWA_CON	73	A	B	Rpleas_acq	Same	Rpleas	1pleas	acq_US_unple_nomask	acq45_nomask	4	31	400	0	300	300	0	0	611	46	1	0	anregung	engagiert	besonnen	vertrauen	sonnig	träumen	ausrottung	engstirnig	bange	versagen	sterben	töten	kreativ	gütig	gesittet	vergnügt	kuss	genießen	krank	gierig	geizig	verbissen	krise	gemein	1	blank2r.bmp	0	1	+	0	1	blank2r.bmp	500	1	DHJF	500	1	blank2r.bmp	880	4	versagen	880	1	!	1232	1	!	-1	0	0	0	0	0	0
2024-06-06	11:39:02	11:46:50	465843	6.6.1	4_exp_EVA_AWA_CON	73	A	B	Rpleas_acq	Same	Rpleas	1pleas	acq_US_unple_nomask	acq45_nomask	4	32	400	1	300	300	0	0	451	46	1	0	anregung	engagiert	besonnen	vertrauen	sonnig	träumen	ausrottung	engstirnig	bange	versagen	sterben	töten	kreativ	gütig	gesittet	vergnügt	kuss	genießen	krank	gierig	geizig	verbissen	krise	gemein	1	blank2r.bmp	0	1	+	0	1	blank2r.bmp	500	1	DHJF	500	1	blank2r.bmp	880	1	ausrottung	880	1	!	1232	1	!	1353	0	0	0	0	0	0
2024-06-06	11:39:02	11:46:52	468138	6.6.1	4_exp_EVA_AWA_CON	73	A	B	Rpleas_acq	Same	Rpleas	1pleas	acq_US_unple_nomask	acq45_nomask	4	33	400	0	300	300	0	0	516	46	1	0	anregung	engagiert	besonnen	vertrauen	sonnig	träumen	ausrottung	engstirnig	bange	versagen	sterben	töten	kreativ	gütig	gesittet	vergnügt	kuss	genießen	krank	gierig	geizig	verbissen	krise	gemein	1	blank2r.bmp	0	1	+	0	1	blank2r.bmp	500	1	DHJF	500	1	blank2r.bmp	880	5	sterben	880	1	!	1233	1	!	-1	0	0	0	0	0	0
2024-06-06	11:39:02	11:46:54	470339	6.6.1	4_exp_EVA_AWA_CON	73	A	B	Rpleas_acq	Same	Rpleas	1pleas	acq_US_unple_nomask	acq45_nomask	4	34	400	1	300	300	0	0	425	46	1	0	anregung	engagiert	besonnen	vertrauen	sonnig	träumen	ausrottung	engstirnig	bange	versagen	sterben	töten	kreativ	gütig	gesittet	vergnügt	kuss	genießen	krank	gierig	geizig	verbissen	krise	gemein	1	blank2r.bmp	0	1	+	0	1	blank2r.bmp	500	1	DHJF	500	1	blank2r.bmp	880	6	töten	880	1	!	1232	1	!	1326	0	0	0	0	0	0
2024-06-06	11:39:02	11:46:57	472556	6.6.1	4_exp_EVA_AWA_CON	73	A	B	Rpleas_acq	Same	Rpleas	1pleas	acq_US_pleas_nomask	acq45_nomask	4	35	400	1	300	300	0	0	439	46	0	0	anregung	engagiert	besonnen	vertrauen	sonnig	träumen	ausrottung	engstirnig	bange	versagen	sterben	töten	kreativ	gütig	gesittet	vergnügt	kuss	genießen	krank	gierig	geizig	verbissen	krise	gemein	1	blank2r.bmp	0	1	+	0	1	blank2r.bmp	500	1	CPLW	500	1	blank2r.bmp	880	3	besonnen	880	1	!	1233	1	!	1340	0	0	0	0	0	0
2024-06-06	11:39:02	11:46:59	474748	6.6.1	4_exp_EVA_AWA_CON	73	A	B	Rpleas_acq	Same	Rpleas	1pleas	acq_US_unple_nomask	acq45_nomask	4	36	400	1	300	300	0	0	410	50	0	0	anregung	engagiert	besonnen	vertrauen	sonnig	träumen	ausrottung	engstirnig	bange	versagen	sterben	töten	kreativ	gütig	gesittet	vergnügt	kuss	genießen	krank	gierig	geizig	verbissen	krise	gemein	1	blank2r.bmp	0	1	+	0	1	blank2r.bmp	500	1	DHJF	500	1	blank2r.bmp	880	2	engstirnig	880	1	!	1232	1	!	1312	0	0	0	0	0	0
2024-06-06	11:39:02	11:47:12	487489	6.6.1	4_exp_EVA_AWA_CON	73	A	B	Rpleas_acq	Same	Rpleas	1pleas	acq_US_unple_nomask	acq45_nomask	5	1	400	0	300	300	0	0	595	46	1	0	anregung	engagiert	besonnen	vertrauen	sonnig	träumen	ausrottung	engstirnig	bange	versagen	sterben	töten	kreativ	gütig	gesittet	vergnügt	kuss	genießen	krank	gierig	geizig	verbissen	krise	gemein	1	blank2r.bmp	0	1	+	0	1	blank2r.bmp	500	1	DHJF	500	1	blank2r.bmp	880	5	sterben	880	1	!	1232	1	!	-1	0	0	0	0	0	0
2024-06-06	11:39:02	11:47:14	489817	6.6.1	4_exp_EVA_AWA_CON	73	A	B	Rpleas_acq	Same	Rpleas	1pleas	acq_US_unple_nomask	acq45_nomask	5	2	400	0	300	300	0	0	552	46	1	0	anregung	engagiert	besonnen	vertrauen	sonnig	träumen	ausrottung	engstirnig	bange	versagen	sterben	töten	kreativ	gütig	gesittet	vergnügt	kuss	genießen	krank	gierig	geizig	verbissen	krise	gemein	1	blank2r.bmp	0	1	+	0	1	blank2r.bmp	500	1	DHJF	500	1	blank2r.bmp	880	6	töten	880	1	!	1232	1	!	-1	0	0	0	0	0	0
2024-06-06	11:39:02	11:47:16	492082	6.6.1	4_exp_EVA_AWA_CON	73	A	B	Rpleas_acq	Same	Rpleas	1pleas	acq_US_pleas_nomask	acq45_nomask	5	3	400	0	300	300	0	0	484	50	1	0	anregung	engagiert	besonnen	vertrauen	sonnig	träumen	ausrottung	engstirnig	bange	versagen	sterben	töten	kreativ	gütig	gesittet	vergnügt	kuss	genießen	krank	gierig	geizig	verbissen	krise	gemein	1	blank2r.bmp	0	1	+	0	1	blank2r.bmp	500	1	CPLW	500	1	blank2r.bmp	880	1	anregung	880	1	!	1232	1	!	-1	0	0	0	0	0	0
2024-06-06	11:39:02	11:47:18	494410	6.6.1	4_exp_EVA_AWA_CON	73	A	B	Rpleas_acq	Same	Rpleas	1pleas	acq_US_pleas_nomask	acq45_nomask	5	4	400	0	300	300	0	0	551	46	0	0	anregung	engagiert	besonnen	vertrauen	sonnig	träumen	ausrottung	engstirnig	bange	versagen	sterben	töten	kreativ	gütig	gesittet	vergnügt	kuss	genießen	krank	gierig	geizig	verbissen	krise	gemein	1	blank2r.bmp	0	1	+	0	1	blank2r.bmp	500	1	CPLW	500	1	blank2r.bmp	880	6	träumen	880	1	!	1232	1	!	-1	0	0	0	0	0	0
2024-06-06	11:39:02	11:47:24	500234	6.6.1	4_exp_EVA_AWA_CON	73	A	B	Rpleas_acq	Same	Rpleas	1pleas	acq_US_unple_nomask	acq45_nomask	5	5	400	0	300	300	0	0	4043	50	0	0	anregung	engagiert	besonnen	vertrauen	sonnig	träumen	ausrottung	engstirnig	bange	versagen	sterben	töten	kreativ	gütig	gesittet	vergnügt	kuss	genießen	krank	gierig	geizig	verbissen	krise	gemein	1	blank2r.bmp	0	1	+	0	1	blank2r.bmp	500	1	DHJF	500	1	blank2r.bmp	880	2	engstirnig	880	1	!	1232	1	!	-1	0	0	0	0	0	0
2024-06-06	11:39:02	11:47:26	502387	6.6.1	4_exp_EVA_AWA_CON	73	A	B	Rpleas_acq	Same	Rpleas	1pleas	acq_US_pleas_nomask	acq45_nomask	5	6	400	1	300	300	0	0	371	46	0	0	anregung	engagiert	besonnen	vertrauen	sonnig	träumen	ausrottung	engstirnig	bange	versagen	sterben	töten	kreativ	gütig	gesittet	vergnügt	kuss	genießen	krank	gierig	geizig	verbissen	krise	gemein	1	blank2r.bmp	0	1	+	0	1	blank2r.bmp	500	1	CPLW	500	1	blank2r.bmp	880	3	besonnen	880	1	!	1232	1	!	1273	0	0	0	0	0	0
2024-06-06	11:39:02	11:47:29	504906	6.6.1	4_exp_EVA_AWA_CON	73	A	B	Rpleas_acq	Same	Rpleas	1pleas	acq_US_unple_nomask	acq45_nomask	5	7	400	0	300	300	0	0	740	50	0	0	anregung	engagiert	besonnen	vertrauen	sonnig	träumen	ausrottung	engstirnig	bange	versagen	sterben	töten	kreativ	gütig	gesittet	vergnügt	kuss	genießen	krank	gierig	geizig	verbissen	krise	gemein	1	blank2r.bmp	0	1	+	0	1	blank2r.bmp	500	1	DHJF	500	1	blank2r.bmp	880	3	bange	880	1	!	1232	1	!	-1	0	0	0	0	0	0
2024-06-06	11:39:02	11:47:31	507193	6.6.1	4_exp_EVA_AWA_CON	73	A	B	Rpleas_acq	Same	Rpleas	1pleas	acq_US_unple_nomask	acq45_nomask	5	8	400	0	300	300	0	0	507	46	1	0	anregung	engagiert	besonnen	vertrauen	sonnig	träumen	ausrottung	engstirnig	bange	versagen	sterben	töten	kreativ	gütig	gesittet	vergnügt	kuss	genießen	krank	gierig	geizig	verbissen	krise	gemein	1	blank2r.bmp	0	1	+	0	1	blank2r.bmp	500	1	DHJF	500	1	blank2r.bmp	880	4	versagen	880	1	!	1233	1	!	-1	0	0	0	0	0	0
2024-06-06	11:39:02	11:47:33	509448	6.6.1	4_exp_EVA_AWA_CON	73	A	B	Rpleas_acq	Same	Rpleas	1pleas	acq_US_unple_nomask	acq45_nomask	5	9	400	0	300	300	0	0	481	46	1	0	anregung	engagiert	besonnen	vertrauen	sonnig	träumen	ausrottung	engstirnig	bange	versagen	sterben	töten	kreativ	gütig	gesittet	vergnügt	kuss	genießen	krank	gierig	geizig	verbissen	krise	gemein	1	blank2r.bmp	0	1	+	0	1	blank2r.bmp	500	1	DHJF	500	1	blank2r.bmp	880	1	ausrottung	880	1	!	1233	1	!	-1	0	0	0	0	0	0
2024-06-06	11:39:02	11:47:36	511683	6.6.1	4_exp_EVA_AWA_CON	73	A	B	Rpleas_acq	Same	Rpleas	1pleas	acq_US_pleas_nomask	acq45_nomask	5	10	400	1	300	300	0	0	452	46	0	0	anregung	engagiert	besonnen	vertrauen	sonnig	träumen	ausrottung	engstirnig	bange	versagen	sterben	töten	kreativ	gütig	gesittet	vergnügt	kuss	genießen	krank	gierig	geizig	verbissen	krise	gemein	1	blank2r.bmp	0	1	+	0	1	blank2r.bmp	500	1	CPLW	500	1	blank2r.bmp	880	2	engagiert	880	1	!	1232	1	!	1353	0	0	0	0	0	0
2024-06-06	11:39:02	11:47:38	513867	6.6.1	4_exp_EVA_AWA_CON	73	A	B	Rpleas_acq	Same	Rpleas	1pleas	acq_US_pleas_nomask	acq45_nomask	5	11	400	1	300	300	0	0	404	50	1	0	anregung	engagiert	besonnen	vertrauen	sonnig	träumen	ausrottung	engstirnig	bange	versagen	sterben	töten	kreativ	gütig	gesittet	vergnügt	kuss	genießen	krank	gierig	geizig	verbissen	krise	gemein	1	blank2r.bmp	0	1	+	0	1	blank2r.bmp	500	1	CPLW	500	1	blank2r.bmp	880	5	sonnig	880	1	!	1232	1	!	1305	0	0	0	0	0	0
2024-06-06	11:39:02	11:47:40	516120	6.6.1	4_exp_EVA_AWA_CON	73	A	B	Rpleas_acq	Same	Rpleas	1pleas	acq_US_unple_nomask	acq45_nomask	5	12	400	0	300	300	0	0	479	46	1	0	anregung	engagiert	besonnen	vertrauen	sonnig	träumen	ausrottung	engstirnig	bange	versagen	sterben	töten	kreativ	gütig	gesittet	vergnügt	kuss	genießen	krank	gierig	geizig	verbissen	krise	gemein	1	blank2r.bmp	0	1	+	0	1	blank2r.bmp	500	1	DHJF	500	1	blank2r.bmp	880	5	sterben	880	1	!	1232	1	!	-1	0	0	0	0	0	0
2024-06-06	11:39:02	11:47:42	518283	6.6.1	4_exp_EVA_AWA_CON	73	A	B	Rpleas_acq	Same	Rpleas	1pleas	acq_US_pleas_nomask	acq45_nomask	5	13	400	1	300	300	0	0	387	46	0	0	anregung	engagiert	besonnen	vertrauen	sonnig	träumen	ausrottung	engstirnig	bange	versagen	sterben	töten	kreativ	gütig	gesittet	vergnügt	kuss	genießen	krank	gierig	geizig	verbissen	krise	gemein	1	blank2r.bmp	0	1	+	0	1	blank2r.bmp	500	1	CPLW	500	1	blank2r.bmp	880	4	vertrauen	880	1	!	1232	1	!	1289	0	0	0	0	0	0
2024-06-06	11:39:02	11:47:45	520681	6.6.1	4_exp_EVA_AWA_CON	73	A	B	Rpleas_acq	Same	Rpleas	1pleas	acq_US_pleas_nomask	acq45_nomask	5	14	400	0	300	300	0	0	626	50	1	0	anregung	engagiert	besonnen	vertrauen	sonnig	träumen	ausrottung	engstirnig	bange	versagen	sterben	töten	kreativ	gütig	gesittet	vergnügt	kuss	genießen	krank	gierig	geizig	verbissen	krise	gemein	1	blank2r.bmp	0	1	+	0	1	blank2r.bmp	500	1	CPLW	500	1	blank2r.bmp	880	6	träumen	880	1	!	1232	1	!	-1	0	0	0	0	0	0
2024-06-06	11:39:02	11:47:47	522868	6.6.1	4_exp_EVA_AWA_CON	73	A	B	Rpleas_acq	Same	Rpleas	1pleas	acq_US_pleas_nomask	acq45_nomask	5	15	400	1	300	300	0	0	408	50	1	0	anregung	engagiert	besonnen	vertrauen	sonnig	träumen	ausrottung	engstirnig	bange	versagen	sterben	töten	kreativ	gütig	gesittet	vergnügt	kuss	genießen	krank	gierig	geizig	verbissen	krise	gemein	1	blank2r.bmp	0	1	+	0	1	blank2r.bmp	500	1	CPLW	500	1	blank2r.bmp	880	3	besonnen	880	1	!	1232	1	!	1309	0	0	0	0	0	0
2024-06-06	11:39:02	11:47:49	525003	6.6.1	4_exp_EVA_AWA_CON	73	A	B	Rpleas_acq	Same	Rpleas	1pleas	acq_US_unple_nomask	acq45_nomask	5	16	400	1	300	300	0	0	353	50	0	0	anregung	engagiert	besonnen	vertrauen	sonnig	träumen	ausrottung	engstirnig	bange	versagen	sterben	töten	kreativ	gütig	gesittet	vergnügt	kuss	genießen	krank	gierig	geizig	verbissen	krise	gemein	1	blank2r.bmp	0	1	+	0	1	blank2r.bmp	500	1	DHJF	500	1	blank2r.bmp	880	1	ausrottung	880	1	!	1232	1	!	1254	0	0	0	0	0	0
2024-06-06	11:39:02	11:47:51	527298	6.6.1	4_exp_EVA_AWA_CON	73	A	B	Rpleas_acq	Same	Rpleas	1pleas	acq_US_unple_nomask	acq45_nomask	5	17	400	0	300	300	0	0	517	46	1	0	anregung	engagiert	besonnen	vertrauen	sonnig	träumen	ausrottung	engstirnig	bange	versagen	sterben	töten	kreativ	gütig	gesittet	vergnügt	kuss	genießen	krank	gierig	geizig	verbissen	krise	gemein	1	blank2r.bmp	0	1	+	0	1	blank2r.bmp	500	1	DHJF	500	1	blank2r.bmp	880	3	bange	880	1	!	1232	1	!	-1	0	0	0	0	0	0
2024-06-06	11:39:02	11:47:54	529475	6.6.1	4_exp_EVA_AWA_CON	73	A	B	Rpleas_acq	Same	Rpleas	1pleas	acq_US_pleas_nomask	acq45_nomask	5	18	400	1	300	300	0	0	402	50	1	0	anregung	engagiert	besonnen	vertrauen	sonnig	träumen	ausrottung	engstirnig	bange	versagen	sterben	töten	kreativ	gütig	gesittet	vergnügt	kuss	genießen	krank	gierig	geizig	verbissen	krise	gemein	1	blank2r.bmp	0	1	+	0	1	blank2r.bmp	500	1	CPLW	500	1	blank2r.bmp	880	5	sonnig	880	1	!	1232	1	!	1303	0	0	0	0	0	0
2024-06-06	11:39:02	11:47:56	531644	6.6.1	4_exp_EVA_AWA_CON	73	A	B	Rpleas_acq	Same	Rpleas	1pleas	acq_US_pleas_nomask	acq45_nomask	5	19	400	1	300	300	0	0	389	50	1	0	anregung	engagiert	besonnen	vertrauen	sonnig	träumen	ausrottung	engstirnig	bange	versagen	sterben	töten	kreativ	gütig	gesittet	vergnügt	kuss	genießen	krank	gierig	geizig	verbissen	krise	gemein	1	blank2r.bmp	0	1	+	0	1	blank2r.bmp	500	1	CPLW	500	1	blank2r.bmp	880	4	vertrauen	880	1	!	1232	1	!	1290	0	0	0	0	0	0
2024-06-06	11:39:02	11:47:58	533803	6.6.1	4_exp_EVA_AWA_CON	73	A	B	Rpleas_acq	Same	Rpleas	1pleas	acq_US_unple_nomask	acq45_nomask	5	20	400	1	300	300	0	0	377	50	0	0	anregung	engagiert	besonnen	vertrauen	sonnig	träumen	ausrottung	engstirnig	bange	versagen	sterben	töten	kreativ	gütig	gesittet	vergnügt	kuss	genießen	krank	gierig	geizig	verbissen	krise	gemein	1	blank2r.bmp	0	1	+	0	1	blank2r.bmp	500	1	DHJF	500	1	blank2r.bmp	880	4	versagen	880	1	!	1232	1	!	1278	0	0	0	0	0	0
2024-06-06	11:39:02	11:48:00	536138	6.6.1	4_exp_EVA_AWA_CON	73	A	B	Rpleas_acq	Same	Rpleas	1pleas	acq_US_unple_nomask	acq45_nomask	5	21	400	0	300	300	0	0	562	46	1	0	anregung	engagiert	besonnen	vertrauen	sonnig	träumen	ausrottung	engstirnig	bange	versagen	sterben	töten	kreativ	gütig	gesittet	vergnügt	kuss	genießen	krank	gierig	geizig	verbissen	krise	gemein	1	blank2r.bmp	0	1	+	0	1	blank2r.bmp	500	1	DHJF	500	1	blank2r.bmp	880	2	engstirnig	880	1	!	1232	1	!	-1	0	0	0	0	0	0
2024-06-06	11:39:02	11:48:02	538418	6.6.1	4_exp_EVA_AWA_CON	73	A	B	Rpleas_acq	Same	Rpleas	1pleas	acq_US_unple_nomask	acq45_nomask	5	22	400	0	300	300	0	0	500	50	0	0	anregung	engagiert	besonnen	vertrauen	sonnig	träumen	ausrottung	engstirnig	bange	versagen	sterben	töten	kreativ	gütig	gesittet	vergnügt	kuss	genießen	krank	gierig	geizig	verbissen	krise	gemein	1	blank2r.bmp	0	1	+	0	1	blank2r.bmp	500	1	DHJF	500	1	blank2r.bmp	880	6	töten	880	1	!	1233	1	!	-1	0	0	0	0	0	0
2024-06-06	11:39:02	11:48:05	540627	6.6.1	4_exp_EVA_AWA_CON	73	A	B	Rpleas_acq	Same	Rpleas	1pleas	acq_US_unple_nomask	acq45_nomask	5	23	400	1	300	300	0	0	427	46	1	0	anregung	engagiert	besonnen	vertrauen	sonnig	träumen	ausrottung	engstirnig	bange	versagen	sterben	töten	kreativ	gütig	gesittet	vergnügt	kuss	genießen	krank	gierig	geizig	verbissen	krise	gemein	1	blank2r.bmp	0	1	+	0	1	blank2r.bmp	500	1	DHJF	500	1	blank2r.bmp	880	5	sterben	880	1	!	1232	1	!	1328	0	0	0	0	0	0
2024-06-06	11:39:02	11:48:07	542787	6.6.1	4_exp_EVA_AWA_CON	73	A	B	Rpleas_acq	Same	Rpleas	1pleas	acq_US_pleas_nomask	acq45_nomask	5	24	400	1	300	300	0	0	385	46	0	0	anregung	engagiert	besonnen	vertrauen	sonnig	träumen	ausrottung	engstirnig	bange	versagen	sterben	töten	kreativ	gütig	gesittet	vergnügt	kuss	genießen	krank	gierig	geizig	verbissen	krise	gemein	1	blank2r.bmp	0	1	+	0	1	blank2r.bmp	500	1	CPLW	500	1	blank2r.bmp	880	1	anregung	880	1	!	1233	1	!	1287	0	0	0	0	0	0
2024-06-06	11:39:02	11:48:09	544754	6.6.1	4_exp_EVA_AWA_CON	73	A	B	Rpleas_acq	Same	Rpleas	1pleas	acq_US_unple_nomask	acq45_nomask	5	25	400	0	300	300	0	0	192	50	0	0	anregung	engagiert	besonnen	vertrauen	sonnig	träumen	ausrottung	engstirnig	bange	versagen	sterben	töten	kreativ	gütig	gesittet	vergnügt	kuss	genießen	krank	gierig	geizig	verbissen	krise	gemein	1	blank2r.bmp	0	1	+	0	1	blank2r.bmp	500	1	DHJF	500	1	blank2r.bmp	880	1	ausrottung	880	1	!	-1	1	!	-1	0	0	0	0	0	0
2024-06-06	11:39:02	11:48:11	546931	6.6.1	4_exp_EVA_AWA_CON	73	A	B	Rpleas_acq	Same	Rpleas	1pleas	acq_US_unple_nomask	acq45_nomask	5	26	400	1	300	300	0	0	397	46	1	0	anregung	engagiert	besonnen	vertrauen	sonnig	träumen	ausrottung	engstirnig	bange	versagen	sterben	töten	kreativ	gütig	gesittet	vergnügt	kuss	genießen	krank	gierig	geizig	verbissen	krise	gemein	1	blank2r.bmp	0	1	+	0	1	blank2r.bmp	500	1	DHJF	500	1	blank2r.bmp	880	3	bange	880	1	!	1232	1	!	1298	0	0	0	0	0	0
2024-06-06	11:39:02	11:48:13	549202	6.6.1	4_exp_EVA_AWA_CON	73	A	B	Rpleas_acq	Same	Rpleas	1pleas	acq_US_pleas_nomask	acq45_nomask	5	27	400	0	300	300	0	0	497	50	1	0	anregung	engagiert	besonnen	vertrauen	sonnig	träumen	ausrottung	engstirnig	bange	versagen	sterben	töten	kreativ	gütig	gesittet	vergnügt	kuss	genießen	krank	gierig	geizig	verbissen	krise	gemein	1	blank2r.bmp	0	1	+	0	1	blank2r.bmp	500	1	CPLW	500	1	blank2r.bmp	880	2	engagiert	880	1	!	1232	1	!	-1	0	0	0	0	0	0
2024-06-06	11:39:02	11:48:16	551513	6.6.1	4_exp_EVA_AWA_CON	73	A	B	Rpleas_acq	Same	Rpleas	1pleas	acq_US_pleas_nomask	acq45_nomask	5	28	400	0	300	300	0	0	538	50	1	0	anregung	engagiert	besonnen	vertrauen	sonnig	träumen	ausrottung	engstirnig	bange	versagen	sterben	töten	kreativ	gütig	gesittet	vergnügt	kuss	genießen	krank	gierig	geizig	verbissen	krise	gemein	1	blank2r.bmp	0	1	+	0	1	blank2r.bmp	500	1	CPLW	500	1	blank2r.bmp	880	2	engagiert	880	1	!	1232	1	!	-1	0	0	0	0	0	0
2024-06-06	11:39:02	11:48:18	553793	6.6.1	4_exp_EVA_AWA_CON	73	A	B	Rpleas_acq	Same	Rpleas	1pleas	acq_US_pleas_nomask	acq45_nomask	5	29	400	0	300	300	0	0	506	46	0	0	anregung	engagiert	besonnen	vertrauen	sonnig	träumen	ausrottung	engstirnig	bange	versagen	sterben	töten	kreativ	gütig	gesittet	vergnügt	kuss	genießen	krank	gierig	geizig	verbissen	krise	gemein	1	blank2r.bmp	0	1	+	0	1	blank2r.bmp	500	1	CPLW	500	1	blank2r.bmp	880	1	anregung	880	1	!	1232	1	!	-1	0	0	0	0	0	0
2024-06-06	11:39:02	11:48:20	556065	6.6.1	4_exp_EVA_AWA_CON	73	A	B	Rpleas_acq	Same	Rpleas	1pleas	acq_US_unple_nomask	acq45_nomask	5	30	400	0	300	300	0	0	497	50	0	0	anregung	engagiert	besonnen	vertrauen	sonnig	träumen	ausrottung	engstirnig	bange	versagen	sterben	töten	kreativ	gütig	gesittet	vergnügt	kuss	genießen	krank	gierig	geizig	verbissen	krise	gemein	1	blank2r.bmp	0	1	+	0	1	blank2r.bmp	500	1	DHJF	500	1	blank2r.bmp	880	2	engstirnig	880	1	!	1232	1	!	-1	0	0	0	0	0	0
2024-06-06	11:39:02	11:48:22	558259	6.6.1	4_exp_EVA_AWA_CON	73	A	B	Rpleas_acq	Same	Rpleas	1pleas	acq_US_pleas_nomask	acq45_nomask	5	31	400	1	300	300	0	0	417	46	0	0	anregung	engagiert	besonnen	vertrauen	sonnig	träumen	ausrottung	engstirnig	bange	versagen	sterben	töten	kreativ	gütig	gesittet	vergnügt	kuss	genießen	krank	gierig	geizig	verbissen	krise	gemein	1	blank2r.bmp	0	1	+	0	1	blank2r.bmp	500	1	CPLW	500	1	blank2r.bmp	880	5	sonnig	880	1	!	1232	1	!	1318	0	0	0	0	0	0
2024-06-06	11:39:02	11:48:25	560475	6.6.1	4_exp_EVA_AWA_CON	73	A	B	Rpleas_acq	Same	Rpleas	1pleas	acq_US_pleas_nomask	acq45_nomask	5	32	400	1	300	300	0	0	442	50	1	0	anregung	engagiert	besonnen	vertrauen	sonnig	träumen	ausrottung	engstirnig	bange	versagen	sterben	töten	kreativ	gütig	gesittet	vergnügt	kuss	genießen	krank	gierig	geizig	verbissen	krise	gemein	1	blank2r.bmp	0	1	+	0	1	blank2r.bmp	500	1	CPLW	500	1	blank2r.bmp	880	4	vertrauen	880	1	!	1232	1	!	1343	0	0	0	0	0	0
2024-06-06	11:39:02	11:48:27	562754	6.6.1	4_exp_EVA_AWA_CON	73	A	B	Rpleas_acq	Same	Rpleas	1pleas	acq_US_unple_nomask	acq45_nomask	5	33	400	0	300	300	0	0	500	46	1	0	anregung	engagiert	besonnen	vertrauen	sonnig	träumen	ausrottung	engstirnig	bange	versagen	sterben	töten	kreativ	gütig	gesittet	vergnügt	kuss	genießen	krank	gierig	geizig	verbissen	krise	gemein	1	blank2r.bmp	0	1	+	0	1	blank2r.bmp	500	1	DHJF	500	1	blank2r.bmp	880	6	töten	880	1	!	1232	1	!	-1	0	0	0	0	0	0
2024-06-06	11:39:02	11:48:29	564923	6.6.1	4_exp_EVA_AWA_CON	73	A	B	Rpleas_acq	Same	Rpleas	1pleas	acq_US_pleas_nomask	acq45_nomask	5	34	400	1	300	300	0	0	387	46	0	0	anregung	engagiert	besonnen	vertrauen	sonnig	träumen	ausrottung	engstirnig	bange	versagen	sterben	töten	kreativ	gütig	gesittet	vergnügt	kuss	genießen	krank	gierig	geizig	verbissen	krise	gemein	1	blank2r.bmp	0	1	+	0	1	blank2r.bmp	500	1	CPLW	500	1	blank2r.bmp	880	6	träumen	880	1	!	1232	1	!	1288	0	0	0	0	0	0
2024-06-06	11:39:02	11:48:31	567168	6.6.1	4_exp_EVA_AWA_CON	73	A	B	Rpleas_acq	Same	Rpleas	1pleas	acq_US_pleas_nomask	acq45_nomask	5	35	400	0	300	300	0	0	473	50	1	0	anregung	engagiert	besonnen	vertrauen	sonnig	träumen	ausrottung	engstirnig	bange	versagen	sterben	töten	kreativ	gütig	gesittet	vergnügt	kuss	genießen	krank	gierig	geizig	verbissen	krise	gemein	1	blank2r.bmp	0	1	+	0	1	blank2r.bmp	500	1	CPLW	500	1	blank2r.bmp	880	3	besonnen	880	1	!	1232	1	!	-1	0	0	0	0	0	0
2024-06-06	11:39:02	11:48:33	569387	6.6.1	4_exp_EVA_AWA_CON	73	A	B	Rpleas_acq	Same	Rpleas	1pleas	acq_US_unple_nomask	acq45_nomask	5	36	400	1	300	300	0	0	438	50	0	0	anregung	engagiert	besonnen	vertrauen	sonnig	träumen	ausrottung	engstirnig	bange	versagen	sterben	töten	kreativ	gütig	gesittet	vergnügt	kuss	genießen	krank	gierig	geizig	verbissen	krise	gemein	1	blank2r.bmp	0	1	+	0	1	blank2r.bmp	500	1	DHJF	500	1	blank2r.bmp	880	4	versagen	880	1	!	1232	1	!	1339	0	0	0	0	0	0
2024-06-06	11:39:02	11:48:59	594471	6.6.1	4_exp_EVA_AWA_CON	73	A	B	Rpleas_acq	Same	Rpleas	1pleas	EvalRating_firsttwo	EvalRating_firsttwo	6	1	0	0	300	300	0	0	8062	line	0	8,3333333333333428072pct	anregung	engagiert	besonnen	vertrauen	sonnig	träumen	ausrottung	engstirnig	bange	versagen	sterben	töten	kreativ	gütig	gesittet	vergnügt	kuss	genießen	krank	gierig	geizig	verbissen	krise	gemein	1		-7	1	Wie angenehm oder unangenehm finden Sie die  Buchstabenkette WDLH?	-7	1		-7	1		-7	1		-7	1	Unangenehm	-7	1	Angenehm	-7	0	0	0	0	0	0	0	0	0
2024-06-06	11:39:02	11:49:06	602022	6.6.1	4_exp_EVA_AWA_CON	73	A	B	Rpleas_acq	Same	Rpleas	1pleas	EvalRating_lastfour	EvalRating_lastfour	7	1	0	0	300	300	0	0	5177	line	0	19,6614583333333428072pct	anregung	engagiert	besonnen	vertrauen	sonnig	träumen	ausrottung	engstirnig	bange	versagen	sterben	töten	kreativ	gütig	gesittet	vergnügt	kuss	genießen	krank	gierig	geizig	verbissen	krise	gemein	1		-7	1	Wie angenehm oder unangenehm finden Sie die  Buchstabenkette CPLW?	-7	1		-7	1		-7	1		-7	1	Unangenehm	-7	1	Angenehm	-7	0	0	0	0	0	0	0	0	0
2024-06-06	11:39:02	11:49:08	604392	6.6.1	4_exp_EVA_AWA_CON	73	A	B	Rpleas_acq	Same	Rpleas	1pleas	blank_screen	EvalRating_lastfour	7	3	0	0	300	300	0	0	0	0	0	19,6614583333333428072pct	anregung	engagiert	besonnen	vertrauen	sonnig	träumen	ausrottung	engstirnig	bange	versagen	sterben	töten	kreativ	gütig	gesittet	vergnügt	kuss	genießen	krank	gierig	geizig	verbissen	krise	gemein	1		-8	0	0	0	0	0	0	0	0	0	0	0	0	0	0	0	0	0	0	0	0	0	0	0	0	0	0	0
2024-06-06	11:39:02	11:49:11	607319	6.6.1	4_exp_EVA_AWA_CON	73	A	B	Rpleas_acq	Same	Rpleas	1pleas	EvalRating_lastfour	EvalRating_lastfour	7	4	0	0	300	300	0	0	2338	line	0	-32,6822916666666571928pct	anregung	engagiert	besonnen	vertrauen	sonnig	träumen	ausrottung	engstirnig	bange	versagen	sterben	töten	kreativ	gütig	gesittet	vergnügt	kuss	genießen	krank	gierig	geizig	verbissen	krise	gemein	1		-8	2	Wie angenehm oder unangenehm finden Sie die  Buchstabenkette DHJF?	-8	1		-8	1		-8	1		-8	1	Unangenehm	-8	1	Angenehm	-8	0	0	0	0	0	0	0	0	0
2024-06-06	11:39:02	11:49:14	609686	6.6.1	4_exp_EVA_AWA_CON	73	A	B	Rpleas_acq	Same	Rpleas	1pleas	blank_screen	EvalRating_lastfour	7	6	0	0	300	300	0	0	0	0	0	-32,6822916666666571928pct	anregung	engagiert	besonnen	vertrauen	sonnig	träumen	ausrottung	engstirnig	bange	versagen	sterben	töten	kreativ	gütig	gesittet	vergnügt	kuss	genießen	krank	gierig	geizig	verbissen	krise	gemein	1		-8	0	0	0	0	0	0	0	0	0	0	0	0	0	0	0	0	0	0	0	0	0	0	0	0	0	0	0
2024-06-06	11:39:02	11:49:16	612038	6.6.1	4_exp_EVA_AWA_CON	73	A	B	Rpleas_acq	Same	Rpleas	1pleas	EvalRating_lastfour	EvalRating_lastfour	7	7	0	0	300	300	0	0	1764	line	0	-30,078125pct	anregung	engagiert	besonnen	vertrauen	sonnig	träumen	ausrottung	engstirnig	bange	versagen	sterben	töten	kreativ	gütig	gesittet	vergnügt	kuss	genießen	krank	gierig	geizig	verbissen	krise	gemein	1		-8	3	Wie angenehm oder unangenehm finden Sie die  Buchstabenkette FCJP?	-8	1		-8	1		-8	1		-8	1	Unangenehm	-8	1	Angenehm	-8	0	0	0	0	0	0	0	0	0
2024-06-06	11:39:02	11:49:57	652942	6.6.1	4_exp_EVA_AWA_CON	73	A	B	Rpleas_acq	Same	Rpleas	1pleas	conawa_CS2_US2	conawa1_nomask	8	1	0	0	300	300	0	0	14414	gesittet	1	-30,078125pct	anregung	engagiert	besonnen	vertrauen	sonnig	träumen	ausrottung	engstirnig	bange	versagen	sterben	töten	kreativ	gütig	gesittet	vergnügt	kuss	genießen	krank	gierig	geizig	verbissen	krise	gemein	0	0	0	0	0	0	0	0	0	0	0	0	0	0	0	0	0	0	0	0	0	0	0	0	0	0	0	0	0	0
2024-06-06	11:39:02	11:49:57	652943	6.6.1	4_exp_EVA_AWA_CON	73	A	B	Rpleas_acq	Same	Rpleas	1pleas	conawa_CS2_US2_confidence	conawa1_nomask	8	1	0	0	300	300	0	0	14414	guess	1	-30,078125pct	anregung	engagiert	besonnen	vertrauen	sonnig	träumen	ausrottung	engstirnig	bange	versagen	sterben	töten	kreativ	gütig	gesittet	vergnügt	kuss	genießen	krank	gierig	geizig	verbissen	krise	gemein	0	0	0	0	0	0	0	0	0	0	0	0	0	0	0	0	0	0	0	0	0	0	0	0	0	0	0	0	0	0
2024-06-06	11:39:02	11:50:05	661188	6.6.1	4_exp_EVA_AWA_CON	73	A	B	Rpleas_acq	Same	Rpleas	1pleas	conawa_CS2_US4	conawa1_nomask	8	2	0	0	300	300	0	0	7625	versagen	1	-30,078125pct	anregung	engagiert	besonnen	vertrauen	sonnig	träumen	ausrottung	engstirnig	bange	versagen	sterben	töten	kreativ	gütig	gesittet	vergnügt	kuss	genießen	krank	gierig	geizig	verbissen	krise	gemein	0	0	0	0	0	0	0	0	0	0	0	0	0	0	0	0	0	0	0	0	0	0	0	0	0	0	0	0	0	0
2024-06-06	11:39:02	11:50:05	661189	6.6.1	4_exp_EVA_AWA_CON	73	A	B	Rpleas_acq	Same	Rpleas	1pleas	conawa_CS2_US4_confidence	conawa1_nomask	8	2	0	0	300	300	0	0	7625	guess	1	-30,078125pct	anregung	engagiert	besonnen	vertrauen	sonnig	träumen	ausrottung	engstirnig	bange	versagen	sterben	töten	kreativ	gütig	gesittet	vergnügt	kuss	genießen	krank	gierig	geizig	verbissen	krise	gemein	0	0	0	0	0	0	0	0	0	0	0	0	0	0	0	0	0	0	0	0	0	0	0	0	0	0	0	0	0	0
2024-06-06	11:39:02	11:50:13	669443	6.6.1	4_exp_EVA_AWA_CON	73	A	B	Rpleas_acq	Same	Rpleas	1pleas	conawa_CS1_US6	conawa1_nomask	8	3	0	0	300	300	0	0	7633	genießen	1	-30,078125pct	anregung	engagiert	besonnen	vertrauen	sonnig	träumen	ausrottung	engstirnig	bange	versagen	sterben	töten	kreativ	gütig	gesittet	vergnügt	kuss	genießen	krank	gierig	geizig	verbissen	krise	gemein	0	0	0	0	0	0	0	0	0	0	0	0	0	0	0	0	0	0	0	0	0	0	0	0	0	0	0	0	0	0
2024-06-06	11:39:02	11:50:13	669444	6.6.1	4_exp_EVA_AWA_CON	73	A	B	Rpleas_acq	Same	Rpleas	1pleas	conawa_CS1_US6_confidence	conawa1_nomask	8	3	0	0	300	300	0	0	7633	guess	1	-30,078125pct	anregung	engagiert	besonnen	vertrauen	sonnig	träumen	ausrottung	engstirnig	bange	versagen	sterben	töten	kreativ	gütig	gesittet	vergnügt	kuss	genießen	krank	gierig	geizig	verbissen	krise	gemein	0	0	0	0	0	0	0	0	0	0	0	0	0	0	0	0	0	0	0	0	0	0	0	0	0	0	0	0	0	0
2024-06-06	11:39:02	11:50:20	675596	6.6.1	4_exp_EVA_AWA_CON	73	A	B	Rpleas_acq	Same	Rpleas	1pleas	conawa_CS1_US1	conawa1_nomask	8	4	0	0	300	300	0	0	5542	ausrottung	1	-30,078125pct	anregung	engagiert	besonnen	vertrauen	sonnig	träumen	ausrottung	engstirnig	bange	versagen	sterben	töten	kreativ	gütig	gesittet	vergnügt	kuss	genießen	krank	gierig	geizig	verbissen	krise	gemein	0	0	0	0	0	0	0	0	0	0	0	0	0	0	0	0	0	0	0	0	0	0	0	0	0	0	0	0	0	0
2024-06-06	11:39:02	11:50:20	675598	6.6.1	4_exp_EVA_AWA_CON	73	A	B	Rpleas_acq	Same	Rpleas	1pleas	conawa_CS1_US1_confidence	conawa1_nomask	8	4	0	0	300	300	0	0	5542	guess	1	-30,078125pct	anregung	engagiert	besonnen	vertrauen	sonnig	träumen	ausrottung	engstirnig	bange	versagen	sterben	töten	kreativ	gütig	gesittet	vergnügt	kuss	genießen	krank	gierig	geizig	verbissen	krise	gemein	0	0	0	0	0	0	0	0	0	0	0	0	0	0	0	0	0	0	0	0	0	0	0	0	0	0	0	0	0	0
2024-06-06	11:39:02	11:50:30	686044	6.6.1	4_exp_EVA_AWA_CON	73	A	B	Rpleas_acq	Same	Rpleas	1pleas	conawa_CS1_US4	conawa1_nomask	8	5	0	0	300	300	0	0	9835	versagen	1	-30,078125pct	anregung	engagiert	besonnen	vertrauen	sonnig	träumen	ausrottung	engstirnig	bange	versagen	sterben	töten	kreativ	gütig	gesittet	vergnügt	kuss	genießen	krank	gierig	geizig	verbissen	krise	gemein	0	0	0	0	0	0	0	0	0	0	0	0	0	0	0	0	0	0	0	0	0	0	0	0	0	0	0	0	0	0
2024-06-06	11:39:02	11:50:30	686045	6.6.1	4_exp_EVA_AWA_CON	73	A	B	Rpleas_acq	Same	Rpleas	1pleas	conawa_CS1_US4_confidence	conawa1_nomask	8	5	0	0	300	300	0	0	9835	guess	1	-30,078125pct	anregung	engagiert	besonnen	vertrauen	sonnig	träumen	ausrottung	engstirnig	bange	versagen	sterben	töten	kreativ	gütig	gesittet	vergnügt	kuss	genießen	krank	gierig	geizig	verbissen	krise	gemein	0	0	0	0	0	0	0	0	0	0	0	0	0	0	0	0	0	0	0	0	0	0	0	0	0	0	0	0	0	0
2024-06-06	11:39:02	11:50:36	692318	6.6.1	4_exp_EVA_AWA_CON	73	A	B	Rpleas_acq	Same	Rpleas	1pleas	conawa_CS2_US6	conawa1_nomask	8	6	0	0	300	300	0	0	5660	träumen	1	-30,078125pct	anregung	engagiert	besonnen	vertrauen	sonnig	träumen	ausrottung	engstirnig	bange	versagen	sterben	töten	kreativ	gütig	gesittet	vergnügt	kuss	genießen	krank	gierig	geizig	verbissen	krise	gemein	0	0	0	0	0	0	0	0	0	0	0	0	0	0	0	0	0	0	0	0	0	0	0	0	0	0	0	0	0	0
2024-06-06	11:39:02	11:50:36	692319	6.6.1	4_exp_EVA_AWA_CON	73	A	B	Rpleas_acq	Same	Rpleas	1pleas	conawa_CS2_US6_confidence	conawa1_nomask	8	6	0	0	300	300	0	0	5660	guess	1	-30,078125pct	anregung	engagiert	besonnen	vertrauen	sonnig	träumen	ausrottung	engstirnig	bange	versagen	sterben	töten	kreativ	gütig	gesittet	vergnügt	kuss	genießen	krank	gierig	geizig	verbissen	krise	gemein	0	0	0	0	0	0	0	0	0	0	0	0	0	0	0	0	0	0	0	0	0	0	0	0	0	0	0	0	0	0
2024-06-06	11:39:02	11:50:42	697932	6.6.1	4_exp_EVA_AWA_CON	73	A	B	Rpleas_acq	Same	Rpleas	1pleas	conawa_CS2_US3	conawa1_nomask	8	7	0	0	300	300	0	0	5002	besonnen	1	-30,078125pct	anregung	engagiert	besonnen	vertrauen	sonnig	träumen	ausrottung	engstirnig	bange	versagen	sterben	töten	kreativ	gütig	gesittet	vergnügt	kuss	genießen	krank	gierig	geizig	verbissen	krise	gemein	0	0	0	0	0	0	0	0	0	0	0	0	0	0	0	0	0	0	0	0	0	0	0	0	0	0	0	0	0	0
2024-06-06	11:39:02	11:50:42	697932	6.6.1	4_exp_EVA_AWA_CON	73	A	B	Rpleas_acq	Same	Rpleas	1pleas	conawa_CS2_US3_confidence	conawa1_nomask	8	7	0	0	300	300	0	0	5002	guess	1	-30,078125pct	anregung	engagiert	besonnen	vertrauen	sonnig	träumen	ausrottung	engstirnig	bange	versagen	sterben	töten	kreativ	gütig	gesittet	vergnügt	kuss	genießen	krank	gierig	geizig	verbissen	krise	gemein	0	0	0	0	0	0	0	0	0	0	0	0	0	0	0	0	0	0	0	0	0	0	0	0	0	0	0	0	0	0
2024-06-06	11:39:02	11:50:53	709369	6.6.1	4_exp_EVA_AWA_CON	73	A	B	Rpleas_acq	Same	Rpleas	1pleas	conawa_CS2_US1	conawa1_nomask	8	8	0	0	300	300	0	0	10822	ausrottung	1	-30,078125pct	anregung	engagiert	besonnen	vertrauen	sonnig	träumen	ausrottung	engstirnig	bange	versagen	sterben	töten	kreativ	gütig	gesittet	vergnügt	kuss	genießen	krank	gierig	geizig	verbissen	krise	gemein	0	0	0	0	0	0	0	0	0	0	0	0	0	0	0	0	0	0	0	0	0	0	0	0	0	0	0	0	0	0
2024-06-06	11:39:02	11:50:53	709370	6.6.1	4_exp_EVA_AWA_CON	73	A	B	Rpleas_acq	Same	Rpleas	1pleas	conawa_CS2_US1_confidence	conawa1_nomask	8	8	0	0	300	300	0	0	10822	guess	1	-30,078125pct	anregung	engagiert	besonnen	vertrauen	sonnig	träumen	ausrottung	engstirnig	bange	versagen	sterben	töten	kreativ	gütig	gesittet	vergnügt	kuss	genießen	krank	gierig	geizig	verbissen	krise	gemein	0	0	0	0	0	0	0	0	0	0	0	0	0	0	0	0	0	0	0	0	0	0	0	0	0	0	0	0	0	0
2024-06-06	11:39:02	11:51:03	719386	6.6.1	4_exp_EVA_AWA_CON	73	A	B	Rpleas_acq	Same	Rpleas	1pleas	conawa_CS1_US3	conawa1_nomask	8	9	0	0	300	300	0	0	9399	geizig	1	-30,078125pct	anregung	engagiert	besonnen	vertrauen	sonnig	träumen	ausrottung	engstirnig	bange	versagen	sterben	töten	kreativ	gütig	gesittet	vergnügt	kuss	genießen	krank	gierig	geizig	verbissen	krise	gemein	0	0	0	0	0	0	0	0	0	0	0	0	0	0	0	0	0	0	0	0	0	0	0	0	0	0	0	0	0	0
2024-06-06	11:39:02	11:51:03	719386	6.6.1	4_exp_EVA_AWA_CON	73	A	B	Rpleas_acq	Same	Rpleas	1pleas	conawa_CS1_US3_confidence	conawa1_nomask	8	9	0	0	300	300	0	0	9399	guess	1	-30,078125pct	anregung	engagiert	besonnen	vertrauen	sonnig	träumen	ausrottung	engstirnig	bange	versagen	sterben	töten	kreativ	gütig	gesittet	vergnügt	kuss	genießen	krank	gierig	geizig	verbissen	krise	gemein	0	0	0	0	0	0	0	0	0	0	0	0	0	0	0	0	0	0	0	0	0	0	0	0	0	0	0	0	0	0
2024-06-06	11:39:02	11:51:11	726780	6.6.1	4_exp_EVA_AWA_CON	73	A	B	Rpleas_acq	Same	Rpleas	1pleas	conawa_CS1_US2	conawa1_nomask	8	10	0	0	300	300	0	0	6775	engagiert	1	-30,078125pct	anregung	engagiert	besonnen	vertrauen	sonnig	träumen	ausrottung	engstirnig	bange	versagen	sterben	töten	kreativ	gütig	gesittet	vergnügt	kuss	genießen	krank	gierig	geizig	verbissen	krise	gemein	0	0	0	0	0	0	0	0	0	0	0	0	0	0	0	0	0	0	0	0	0	0	0	0	0	0	0	0	0	0
2024-06-06	11:39:02	11:51:11	726781	6.6.1	4_exp_EVA_AWA_CON	73	A	B	Rpleas_acq	Same	Rpleas	1pleas	conawa_CS1_US2_confidence	conawa1_nomask	8	10	0	0	300	300	0	0	6775	guess	1	-30,078125pct	anregung	engagiert	besonnen	vertrauen	sonnig	träumen	ausrottung	engstirnig	bange	versagen	sterben	töten	kreativ	gütig	gesittet	vergnügt	kuss	genießen	krank	gierig	geizig	verbissen	krise	gemein	0	0	0	0	0	0	0	0	0	0	0	0	0	0	0	0	0	0	0	0	0	0	0	0	0	0	0	0	0	0
2024-06-06	11:39:02	11:51:18	733705	6.6.1	4_exp_EVA_AWA_CON	73	A	B	Rpleas_acq	Same	Rpleas	1pleas	conawa_CS2_US5	conawa1_nomask	8	11	0	0	300	300	0	0	6307	sonnig	1	-30,078125pct	anregung	engagiert	besonnen	vertrauen	sonnig	träumen	ausrottung	engstirnig	bange	versagen	sterben	töten	kreativ	gütig	gesittet	vergnügt	kuss	genießen	krank	gierig	geizig	verbissen	krise	gemein	0	0	0	0	0	0	0	0	0	0	0	0	0	0	0	0	0	0	0	0	0	0	0	0	0	0	0	0	0	0
2024-06-06	11:39:02	11:51:18	733706	6.6.1	4_exp_EVA_AWA_CON	73	A	B	Rpleas_acq	Same	Rpleas	1pleas	conawa_CS2_US5_confidence	conawa1_nomask	8	11	0	0	300	300	0	0	6307	guess	1	-30,078125pct	anregung	engagiert	besonnen	vertrauen	sonnig	träumen	ausrottung	engstirnig	bange	versagen	sterben	töten	kreativ	gütig	gesittet	vergnügt	kuss	genießen	krank	gierig	geizig	verbissen	krise	gemein	0	0	0	0	0	0	0	0	0	0	0	0	0	0	0	0	0	0	0	0	0	0	0	0	0	0	0	0	0	0
2024-06-06	11:39:02	11:51:22	737588	6.6.1	4_exp_EVA_AWA_CON	73	A	B	Rpleas_acq	Same	Rpleas	1pleas	conawa_CS1_US5	conawa1_nomask	8	12	0	0	300	300	0	0	3271	kuss	1	-30,078125pct	anregung	engagiert	besonnen	vertrauen	sonnig	träumen	ausrottung	engstirnig	bange	versagen	sterben	töten	kreativ	gütig	gesittet	vergnügt	kuss	genießen	krank	gierig	geizig	verbissen	krise	gemein	0	0	0	0	0	0	0	0	0	0	0	0	0	0	0	0	0	0	0	0	0	0	0	0	0	0	0	0	0	0
2024-06-06	11:39:02	11:51:22	737589	6.6.1	4_exp_EVA_AWA_CON	73	A	B	Rpleas_acq	Same	Rpleas	1pleas	conawa_CS1_US5_confidence	conawa1_nomask	8	12	0	0	300	300	0	0	3271	guess	1	-30,078125pct	anregung	engagiert	besonnen	vertrauen	sonnig	träumen	ausrottung	engstirnig	bange	versagen	sterben	töten	kreativ	gütig	gesittet	vergnügt	kuss	genießen	krank	gierig	geizig	verbissen	krise	gemein	0	0	0	0	0	0	0	0	0	0	0	0	0	0	0	0	0	0	0	0	0	0	0	0	0	0	0	0	0	0
2024-06-06	11:39:02	11:52:21	796833	6.6.1	4_exp_EVA_AWA_CON	73	A	B	Rpleas_acq	Same	Rpleas	1pleas	cond_new_pleas_456_nomask_CS2	condtest_nomask_1	11	1	400	0	300	300	0	0	577	50	1	-30,078125pct	anregung	engagiert	besonnen	vertrauen	sonnig	träumen	ausrottung	engstirnig	bange	versagen	sterben	töten	kreativ	gütig	gesittet	vergnügt	kuss	genießen	krank	gierig	geizig	verbissen	krise	gemein	1	blank2r.bmp	0	1	+	0	1	blank2r.bmp	500	1	DHJF	500	1	blank2r.bmp	880	1	genießen	880	1	!	1232	1	!	-1	0	0	0	0	0	0
