date	time	currenttime	elapsedtime	build	currentexpt	subject	CS_AB	US_AB	LRpleas_acq	SameOppo	condition_Lpleas	condition_1pleas	trialcode	blockcode	blocknum	trialnum	windowcenter	inwindow	pretrialpause	posttrialpause	trialduration	trialtimeout	latency	response	correct	correctedscore	US_nomask_pleas1	US_nomask_pleas2	US_nomask_pleas3	US_nomask_pleas4	US_nomask_pleas5	US_nomask_pleas6	US_nomask_unple1	US_nomask_unple2	US_nomask_unple3	US_nomask_unple4	US_nomask_unple5	US_nomask_unple6	new_nomask_pleas1	new_nomask_pleas2	new_nomask_pleas3	new_nomask_pleas4	new_nomask_pleas5	new_nomask_pleas6	new_nomask_unple1	new_nomask_unple2	new_nomask_unple3	new_nomask_unple4	new_nomask_unple5	new_nomask_unple6	stimulusnumber1	stimulusitem1	stimulusonset1	stimulusnumber2	stimulusitem2	stimulusonset2	stimulusnumber3	stimulusitem3	stimulusonset3	stimulusnumber4	stimulusitem4	stimulusonset4	stimulusnumber5	stimulusitem5	stimulusonset5	stimulusnumber6	stimulusitem6	stimulusonset6	stimulusnumber7	stimulusitem7	stimulusonset7	stimulusnumber8	stimulusitem8	stimulusonset8	stimulusnumber9	stimulusitem9	stimulusonset9	stimulusnumber10	stimulusitem10	stimulusonset10
2024-05-10	09:58:04	09:59:59	114346	6.6.1	4_exp_EVA_AWA_CON	21	B	A	Rpleas_acq	Same	Rpleas	1pleas	acq_new_pleas_nomask	acq1_nomask	1	1	0	0	300	300	0	0	1979	50	1	0	schön	tolerant	fair	retten	loyal	treu	schlecht	tyrannisch	faul	rächen	lasch	tot	freundlich	schlau	ehrlich	helfen	spielen	lachen	fanatisch	schroff	eitel	hindern	strafen	leiden	1	blank2r.bmp	0	1	+	0	1	blank2r.bmp	500	5	C1r.bmp	500	1	blank2r.bmp	880	1	freundlich	880	0	0	0	0	0	0	0	0	0	0	0	0
2024-05-10	09:58:04	10:00:02	117153	6.6.1	4_exp_EVA_AWA_CON	21	B	A	Rpleas_acq	Same	Rpleas	1pleas	acq_new_unple_nomask	acq1_nomask	1	2	0	0	300	300	0	0	1325	46	1	0	schön	tolerant	fair	retten	loyal	treu	schlecht	tyrannisch	faul	rächen	lasch	tot	freundlich	schlau	ehrlich	helfen	spielen	lachen	fanatisch	schroff	eitel	hindern	strafen	leiden	1	blank2r.bmp	0	1	+	0	1	blank2r.bmp	500	2	B2r.bmp	500	1	blank2r.bmp	880	3	eitel	880	0	0	0	0	0	0	0	0	0	0	0	0
2024-05-10	09:58:04	10:00:04	119449	6.6.1	4_exp_EVA_AWA_CON	21	B	A	Rpleas_acq	Same	Rpleas	1pleas	acq_new_unple_nomask	acq1_nomask	1	3	0	0	300	300	0	0	809	46	1	0	schön	tolerant	fair	retten	loyal	treu	schlecht	tyrannisch	faul	rächen	lasch	tot	freundlich	schlau	ehrlich	helfen	spielen	lachen	fanatisch	schroff	eitel	hindern	strafen	leiden	1	blank2r.bmp	0	1	+	0	1	blank2r.bmp	500	7	C3r.bmp	500	1	blank2r.bmp	880	5	strafen	880	0	0	0	0	0	0	0	0	0	0	0	0
2024-05-10	09:58:04	10:00:06	121481	6.6.1	4_exp_EVA_AWA_CON	21	B	A	Rpleas_acq	Same	Rpleas	1pleas	acq_US_pleas_nomask	acq1_nomask	1	4	0	0	300	300	0	0	550	50	1	0	schön	tolerant	fair	retten	loyal	treu	schlecht	tyrannisch	faul	rächen	lasch	tot	freundlich	schlau	ehrlich	helfen	spielen	lachen	fanatisch	schroff	eitel	hindern	strafen	leiden	1	blank2r.bmp	0	1	+	0	1	blank2r.bmp	500	1	BMVZ	500	1	blank2r.bmp	880	2	tolerant	880	0	0	0	0	0	0	0	0	0	0	0	0
2024-05-10	09:58:04	10:00:08	123577	6.6.1	4_exp_EVA_AWA_CON	21	B	A	Rpleas_acq	Same	Rpleas	1pleas	acq_new_unple_nomask	acq1_nomask	1	5	0	0	300	300	0	0	614	46	1	0	schön	tolerant	fair	retten	loyal	treu	schlecht	tyrannisch	faul	rächen	lasch	tot	freundlich	schlau	ehrlich	helfen	spielen	lachen	fanatisch	schroff	eitel	hindern	strafen	leiden	1	blank2r.bmp	0	1	+	0	1	blank2r.bmp	500	6	C2r.bmp	500	1	blank2r.bmp	880	2	schroff	880	0	0	0	0	0	0	0	0	0	0	0	0
2024-05-10	09:58:04	10:00:11	125866	6.6.1	4_exp_EVA_AWA_CON	21	B	A	Rpleas_acq	Same	Rpleas	1pleas	acq_US_unple_nomask	acq1_nomask	1	6	0	0	300	300	0	0	801	46	1	0	schön	tolerant	fair	retten	loyal	treu	schlecht	tyrannisch	faul	rächen	lasch	tot	freundlich	schlau	ehrlich	helfen	spielen	lachen	fanatisch	schroff	eitel	hindern	strafen	leiden	1	blank2r.bmp	0	1	+	0	1	blank2r.bmp	500	1	GKQX	500	1	blank2r.bmp	880	5	lasch	880	0	0	0	0	0	0	0	0	0	0	0	0
2024-05-10	09:58:04	10:00:13	127921	6.6.1	4_exp_EVA_AWA_CON	21	B	A	Rpleas_acq	Same	Rpleas	1pleas	acq_new_pleas_nomask	acq1_nomask	1	7	0	0	300	300	0	0	566	50	1	0	schön	tolerant	fair	retten	loyal	treu	schlecht	tyrannisch	faul	rächen	lasch	tot	freundlich	schlau	ehrlich	helfen	spielen	lachen	fanatisch	schroff	eitel	hindern	strafen	leiden	1	blank2r.bmp	0	1	+	0	1	blank2r.bmp	500	3	B3r.bmp	500	1	blank2r.bmp	880	6	lachen	880	0	0	0	0	0	0	0	0	0	0	0	0
2024-05-10	09:58:04	10:00:15	129954	6.6.1	4_exp_EVA_AWA_CON	21	B	A	Rpleas_acq	Same	Rpleas	1pleas	acq_US_pleas_nomask	acq1_nomask	1	8	0	0	300	300	0	0	546	50	1	0	schön	tolerant	fair	retten	loyal	treu	schlecht	tyrannisch	faul	rächen	lasch	tot	freundlich	schlau	ehrlich	helfen	spielen	lachen	fanatisch	schroff	eitel	hindern	strafen	leiden	1	blank2r.bmp	0	1	+	0	1	blank2r.bmp	500	1	BMVZ	500	1	blank2r.bmp	880	5	loyal	880	0	0	0	0	0	0	0	0	0	0	0	0
2024-05-10	09:58:04	10:00:17	131961	6.6.1	4_exp_EVA_AWA_CON	21	B	A	Rpleas_acq	Same	Rpleas	1pleas	acq_US_unple_nomask	acq1_nomask	1	9	0	0	300	300	0	0	523	46	1	0	schön	tolerant	fair	retten	loyal	treu	schlecht	tyrannisch	faul	rächen	lasch	tot	freundlich	schlau	ehrlich	helfen	spielen	lachen	fanatisch	schroff	eitel	hindern	strafen	leiden	1	blank2r.bmp	0	1	+	0	1	blank2r.bmp	500	1	GKQX	500	1	blank2r.bmp	880	3	faul	880	0	0	0	0	0	0	0	0	0	0	0	0
2024-05-10	09:58:04	10:00:19	134057	6.6.1	4_exp_EVA_AWA_CON	21	B	A	Rpleas_acq	Same	Rpleas	1pleas	acq_new_pleas_nomask	acq1_nomask	1	10	0	0	300	300	0	0	608	50	1	0	schön	tolerant	fair	retten	loyal	treu	schlecht	tyrannisch	faul	rächen	lasch	tot	freundlich	schlau	ehrlich	helfen	spielen	lachen	fanatisch	schroff	eitel	hindern	strafen	leiden	1	blank2r.bmp	0	1	+	0	1	blank2r.bmp	500	4	B4r.bmp	500	1	blank2r.bmp	880	3	ehrlich	880	0	0	0	0	0	0	0	0	0	0	0	0
2024-05-10	09:58:04	10:00:21	136194	6.6.1	4_exp_EVA_AWA_CON	21	B	A	Rpleas_acq	Same	Rpleas	1pleas	acq_US_unple_nomask	acq1_nomask	1	11	0	0	300	300	0	0	652	46	1	0	schön	tolerant	fair	retten	loyal	treu	schlecht	tyrannisch	faul	rächen	lasch	tot	freundlich	schlau	ehrlich	helfen	spielen	lachen	fanatisch	schroff	eitel	hindern	strafen	leiden	1	blank2r.bmp	0	1	+	0	1	blank2r.bmp	500	1	GKQX	500	1	blank2r.bmp	880	6	tot	880	0	0	0	0	0	0	0	0	0	0	0	0
2024-05-10	09:58:04	10:00:23	138369	6.6.1	4_exp_EVA_AWA_CON	21	B	A	Rpleas_acq	Same	Rpleas	1pleas	acq_US_pleas_nomask	acq1_nomask	1	12	0	0	300	300	0	0	687	50	1	0	schön	tolerant	fair	retten	loyal	treu	schlecht	tyrannisch	faul	rächen	lasch	tot	freundlich	schlau	ehrlich	helfen	spielen	lachen	fanatisch	schroff	eitel	hindern	strafen	leiden	1	blank2r.bmp	0	1	+	0	1	blank2r.bmp	500	1	BMVZ	500	1	blank2r.bmp	880	4	retten	880	0	0	0	0	0	0	0	0	0	0	0	0
2024-05-10	09:58:04	10:00:25	140643	6.6.1	4_exp_EVA_AWA_CON	21	B	A	Rpleas_acq	Same	Rpleas	1pleas	acq_new_unple_nomask	acq1_nomask	1	13	0	0	300	300	0	0	588	50	0	0	schön	tolerant	fair	retten	loyal	treu	schlecht	tyrannisch	faul	rächen	lasch	tot	freundlich	schlau	ehrlich	helfen	spielen	lachen	fanatisch	schroff	eitel	hindern	strafen	leiden	1	blank2r.bmp	0	1	+	0	1	blank2r.bmp	500	8	C4r.bmp	500	1	blank2r.bmp	880	1	fanatisch	880	1	FEHLER	1489	0	0	0	0	0	0	0	0	0
2024-05-10	09:58:04	10:00:27	142561	6.6.1	4_exp_EVA_AWA_CON	21	B	A	Rpleas_acq	Same	Rpleas	1pleas	acq_new_unple_nomask	acq1_nomask	1	14	0	0	300	300	0	0	636	46	1	0	schön	tolerant	fair	retten	loyal	treu	schlecht	tyrannisch	faul	rächen	lasch	tot	freundlich	schlau	ehrlich	helfen	spielen	lachen	fanatisch	schroff	eitel	hindern	strafen	leiden	1	blank2r.bmp	0	1	+	0	1	blank2r.bmp	500	1	B1r.bmp	500	1	blank2r.bmp	880	4	hindern	880	0	0	0	0	0	0	0	0	0	0	0	0
2024-05-10	09:58:04	10:00:29	144585	6.6.1	4_exp_EVA_AWA_CON	21	B	A	Rpleas_acq	Same	Rpleas	1pleas	acq_new_unple_nomask	acq1_nomask	1	15	0	0	300	300	0	0	539	46	1	0	schön	tolerant	fair	retten	loyal	treu	schlecht	tyrannisch	faul	rächen	lasch	tot	freundlich	schlau	ehrlich	helfen	spielen	lachen	fanatisch	schroff	eitel	hindern	strafen	leiden	1	blank2r.bmp	0	1	+	0	1	blank2r.bmp	500	4	B4r.bmp	500	1	blank2r.bmp	880	6	leiden	880	0	0	0	0	0	0	0	0	0	0	0	0
2024-05-10	09:58:04	10:00:31	146673	6.6.1	4_exp_EVA_AWA_CON	21	B	A	Rpleas_acq	Same	Rpleas	1pleas	acq_US_unple_nomask	acq1_nomask	1	16	0	0	300	300	0	0	606	46	1	0	schön	tolerant	fair	retten	loyal	treu	schlecht	tyrannisch	faul	rächen	lasch	tot	freundlich	schlau	ehrlich	helfen	spielen	lachen	fanatisch	schroff	eitel	hindern	strafen	leiden	1	blank2r.bmp	0	1	+	0	1	blank2r.bmp	500	1	GKQX	500	1	blank2r.bmp	880	4	rächen	880	0	0	0	0	0	0	0	0	0	0	0	0
2024-05-10	09:58:04	10:00:34	148906	6.6.1	4_exp_EVA_AWA_CON	21	B	A	Rpleas_acq	Same	Rpleas	1pleas	acq_new_pleas_nomask	acq1_nomask	1	17	0	0	300	300	0	0	746	50	1	0	schön	tolerant	fair	retten	loyal	treu	schlecht	tyrannisch	faul	rächen	lasch	tot	freundlich	schlau	ehrlich	helfen	spielen	lachen	fanatisch	schroff	eitel	hindern	strafen	leiden	1	blank2r.bmp	0	1	+	0	1	blank2r.bmp	500	1	B1r.bmp	500	1	blank2r.bmp	880	2	schlau	880	0	0	0	0	0	0	0	0	0	0	0	0
2024-05-10	09:58:04	10:00:36	150913	6.6.1	4_exp_EVA_AWA_CON	21	B	A	Rpleas_acq	Same	Rpleas	1pleas	acq_US_unple_nomask	acq1_nomask	1	18	0	0	300	300	0	0	523	46	1	0	schön	tolerant	fair	retten	loyal	treu	schlecht	tyrannisch	faul	rächen	lasch	tot	freundlich	schlau	ehrlich	helfen	spielen	lachen	fanatisch	schroff	eitel	hindern	strafen	leiden	1	blank2r.bmp	0	1	+	0	1	blank2r.bmp	500	1	GKQX	500	1	blank2r.bmp	880	1	schlecht	880	0	0	0	0	0	0	0	0	0	0	0	0
2024-05-10	09:58:04	10:00:38	152945	6.6.1	4_exp_EVA_AWA_CON	21	B	A	Rpleas_acq	Same	Rpleas	1pleas	acq_US_pleas_nomask	acq1_nomask	1	19	0	0	300	300	0	0	543	50	1	0	schön	tolerant	fair	retten	loyal	treu	schlecht	tyrannisch	faul	rächen	lasch	tot	freundlich	schlau	ehrlich	helfen	spielen	lachen	fanatisch	schroff	eitel	hindern	strafen	leiden	1	blank2r.bmp	0	1	+	0	1	blank2r.bmp	500	1	BMVZ	500	1	blank2r.bmp	880	6	treu	880	0	0	0	0	0	0	0	0	0	0	0	0
2024-05-10	09:58:04	10:00:40	155242	6.6.1	4_exp_EVA_AWA_CON	21	B	A	Rpleas_acq	Same	Rpleas	1pleas	acq_US_unple_nomask	acq1_nomask	1	20	0	0	300	300	0	0	808	46	1	0	schön	tolerant	fair	retten	loyal	treu	schlecht	tyrannisch	faul	rächen	lasch	tot	freundlich	schlau	ehrlich	helfen	spielen	lachen	fanatisch	schroff	eitel	hindern	strafen	leiden	1	blank2r.bmp	0	1	+	0	1	blank2r.bmp	500	1	GKQX	500	1	blank2r.bmp	880	2	tyrannisch	880	0	0	0	0	0	0	0	0	0	0	0	0
2024-05-10	09:58:04	10:00:42	157201	6.6.1	4_exp_EVA_AWA_CON	21	B	A	Rpleas_acq	Same	Rpleas	1pleas	acq_new_pleas_nomask	acq1_nomask	1	21	0	0	300	300	0	0	477	50	1	0	schön	tolerant	fair	retten	loyal	treu	schlecht	tyrannisch	faul	rächen	lasch	tot	freundlich	schlau	ehrlich	helfen	spielen	lachen	fanatisch	schroff	eitel	hindern	strafen	leiden	1	blank2r.bmp	0	1	+	0	1	blank2r.bmp	500	2	B2r.bmp	500	1	blank2r.bmp	880	5	spielen	880	0	0	0	0	0	0	0	0	0	0	0	0
2024-05-10	09:58:04	10:00:44	159233	6.6.1	4_exp_EVA_AWA_CON	21	B	A	Rpleas_acq	Same	Rpleas	1pleas	acq_US_pleas_nomask	acq1_nomask	1	22	0	0	300	300	0	0	547	50	1	0	schön	tolerant	fair	retten	loyal	treu	schlecht	tyrannisch	faul	rächen	lasch	tot	freundlich	schlau	ehrlich	helfen	spielen	lachen	fanatisch	schroff	eitel	hindern	strafen	leiden	1	blank2r.bmp	0	1	+	0	1	blank2r.bmp	500	1	BMVZ	500	1	blank2r.bmp	880	3	fair	880	0	0	0	0	0	0	0	0	0	0	0	0
2024-05-10	09:58:04	10:00:46	161209	6.6.1	4_exp_EVA_AWA_CON	21	B	A	Rpleas_acq	Same	Rpleas	1pleas	acq_US_pleas_nomask	acq1_nomask	1	23	0	0	300	300	0	0	492	50	1	0	schön	tolerant	fair	retten	loyal	treu	schlecht	tyrannisch	faul	rächen	lasch	tot	freundlich	schlau	ehrlich	helfen	spielen	lachen	fanatisch	schroff	eitel	hindern	strafen	leiden	1	blank2r.bmp	0	1	+	0	1	blank2r.bmp	500	1	BMVZ	500	1	blank2r.bmp	880	1	schön	880	0	0	0	0	0	0	0	0	0	0	0	0
2024-05-10	09:58:04	10:00:48	163305	6.6.1	4_exp_EVA_AWA_CON	21	B	A	Rpleas_acq	Same	Rpleas	1pleas	acq_new_pleas_nomask	acq1_nomask	1	24	0	0	300	300	0	0	607	50	1	0	schön	tolerant	fair	retten	loyal	treu	schlecht	tyrannisch	faul	rächen	lasch	tot	freundlich	schlau	ehrlich	helfen	spielen	lachen	fanatisch	schroff	eitel	hindern	strafen	leiden	1	blank2r.bmp	0	1	+	0	1	blank2r.bmp	500	8	C4r.bmp	500	1	blank2r.bmp	880	4	helfen	880	0	0	0	0	0	0	0	0	0	0	0	0
2024-05-10	09:58:04	10:00:50	165209	6.6.1	4_exp_EVA_AWA_CON	21	B	A	Rpleas_acq	Same	Rpleas	1pleas	acq_US_unple_nomask	acq1_nomask	1	25	0	0	300	300	0	0	420	46	1	0	schön	tolerant	fair	retten	loyal	treu	schlecht	tyrannisch	faul	rächen	lasch	tot	freundlich	schlau	ehrlich	helfen	spielen	lachen	fanatisch	schroff	eitel	hindern	strafen	leiden	1	blank2r.bmp	0	1	+	0	1	blank2r.bmp	500	1	GKQX	500	1	blank2r.bmp	880	1	schlecht	880	0	0	0	0	0	0	0	0	0	0	0	0
2024-05-10	09:58:04	10:00:52	167507	6.6.1	4_exp_EVA_AWA_CON	21	B	A	Rpleas_acq	Same	Rpleas	1pleas	acq_new_unple_nomask	acq1_nomask	1	26	0	0	300	300	0	0	614	50	0	0	schön	tolerant	fair	retten	loyal	treu	schlecht	tyrannisch	faul	rächen	lasch	tot	freundlich	schlau	ehrlich	helfen	spielen	lachen	fanatisch	schroff	eitel	hindern	strafen	leiden	1	blank2r.bmp	0	1	+	0	1	blank2r.bmp	500	7	C3r.bmp	500	1	blank2r.bmp	880	2	schroff	880	1	FEHLER	1516	0	0	0	0	0	0	0	0	0
2024-05-10	09:58:04	10:00:54	169321	6.6.1	4_exp_EVA_AWA_CON	21	B	A	Rpleas_acq	Same	Rpleas	1pleas	acq_US_unple_nomask	acq1_nomask	1	27	0	0	300	300	0	0	529	46	1	0	schön	tolerant	fair	retten	loyal	treu	schlecht	tyrannisch	faul	rächen	lasch	tot	freundlich	schlau	ehrlich	helfen	spielen	lachen	fanatisch	schroff	eitel	hindern	strafen	leiden	1	blank2r.bmp	0	1	+	0	1	blank2r.bmp	500	1	GKQX	500	1	blank2r.bmp	880	3	faul	880	0	0	0	0	0	0	0	0	0	0	0	0
2024-05-10	09:58:04	10:00:56	171563	6.6.1	4_exp_EVA_AWA_CON	21	B	A	Rpleas_acq	Same	Rpleas	1pleas	acq_new_unple_nomask	acq1_nomask	1	28	0	0	300	300	0	0	558	50	0	0	schön	tolerant	fair	retten	loyal	treu	schlecht	tyrannisch	faul	rächen	lasch	tot	freundlich	schlau	ehrlich	helfen	spielen	lachen	fanatisch	schroff	eitel	hindern	strafen	leiden	1	blank2r.bmp	0	1	+	0	1	blank2r.bmp	500	5	C1r.bmp	500	1	blank2r.bmp	880	1	fanatisch	880	1	FEHLER	1459	0	0	0	0	0	0	0	0	0
2024-05-10	09:58:04	10:00:59	174266	6.6.1	4_exp_EVA_AWA_CON	21	B	A	Rpleas_acq	Same	Rpleas	1pleas	acq_US_pleas_nomask	acq1_nomask	1	29	0	0	300	300	0	0	1420	50	1	0	schön	tolerant	fair	retten	loyal	treu	schlecht	tyrannisch	faul	rächen	lasch	tot	freundlich	schlau	ehrlich	helfen	spielen	lachen	fanatisch	schroff	eitel	hindern	strafen	leiden	1	blank2r.bmp	0	1	+	0	1	blank2r.bmp	500	1	BMVZ	500	1	blank2r.bmp	880	6	treu	880	0	0	0	0	0	0	0	0	0	0	0	0
2024-05-10	09:58:04	10:01:01	176265	6.6.1	4_exp_EVA_AWA_CON	21	B	A	Rpleas_acq	Same	Rpleas	1pleas	acq_new_pleas_nomask	acq1_nomask	1	30	0	0	300	300	0	0	518	50	1	0	schön	tolerant	fair	retten	loyal	treu	schlecht	tyrannisch	faul	rächen	lasch	tot	freundlich	schlau	ehrlich	helfen	spielen	lachen	fanatisch	schroff	eitel	hindern	strafen	leiden	1	blank2r.bmp	0	1	+	0	1	blank2r.bmp	500	6	C2r.bmp	500	1	blank2r.bmp	880	3	ehrlich	880	0	0	0	0	0	0	0	0	0	0	0	0
2024-05-10	09:58:04	10:01:03	178177	6.6.1	4_exp_EVA_AWA_CON	21	B	A	Rpleas_acq	Same	Rpleas	1pleas	acq_US_pleas_nomask	acq1_nomask	1	31	0	0	300	300	0	0	429	50	1	0	schön	tolerant	fair	retten	loyal	treu	schlecht	tyrannisch	faul	rächen	lasch	tot	freundlich	schlau	ehrlich	helfen	spielen	lachen	fanatisch	schroff	eitel	hindern	strafen	leiden	1	blank2r.bmp	0	1	+	0	1	blank2r.bmp	500	1	BMVZ	500	1	blank2r.bmp	880	1	schön	880	0	0	0	0	0	0	0	0	0	0	0	0
2024-05-10	09:58:04	10:01:05	180193	6.6.1	4_exp_EVA_AWA_CON	21	B	A	Rpleas_acq	Same	Rpleas	1pleas	acq_new_pleas_nomask	acq1_nomask	1	32	0	0	300	300	0	0	534	50	1	0	schön	tolerant	fair	retten	loyal	treu	schlecht	tyrannisch	faul	rächen	lasch	tot	freundlich	schlau	ehrlich	helfen	spielen	lachen	fanatisch	schroff	eitel	hindern	strafen	leiden	1	blank2r.bmp	0	1	+	0	1	blank2r.bmp	500	3	B3r.bmp	500	1	blank2r.bmp	880	5	spielen	880	0	0	0	0	0	0	0	0	0	0	0	0
2024-05-10	09:58:04	10:01:07	182289	6.6.1	4_exp_EVA_AWA_CON	21	B	A	Rpleas_acq	Same	Rpleas	1pleas	acq_new_pleas_nomask	acq1_nomask	1	33	0	0	300	300	0	0	609	50	1	0	schön	tolerant	fair	retten	loyal	treu	schlecht	tyrannisch	faul	rächen	lasch	tot	freundlich	schlau	ehrlich	helfen	spielen	lachen	fanatisch	schroff	eitel	hindern	strafen	leiden	1	blank2r.bmp	0	1	+	0	1	blank2r.bmp	500	5	C1r.bmp	500	1	blank2r.bmp	880	4	helfen	880	0	0	0	0	0	0	0	0	0	0	0	0
2024-05-10	09:58:04	10:01:09	184345	6.6.1	4_exp_EVA_AWA_CON	21	B	A	Rpleas_acq	Same	Rpleas	1pleas	acq_US_unple_nomask	acq1_nomask	1	34	0	0	300	300	0	0	573	46	1	0	schön	tolerant	fair	retten	loyal	treu	schlecht	tyrannisch	faul	rächen	lasch	tot	freundlich	schlau	ehrlich	helfen	spielen	lachen	fanatisch	schroff	eitel	hindern	strafen	leiden	1	blank2r.bmp	0	1	+	0	1	blank2r.bmp	500	1	GKQX	500	1	blank2r.bmp	880	6	tot	880	0	0	0	0	0	0	0	0	0	0	0	0
2024-05-10	09:58:04	10:01:11	186465	6.6.1	4_exp_EVA_AWA_CON	21	B	A	Rpleas_acq	Same	Rpleas	1pleas	acq_new_unple_nomask	acq1_nomask	1	35	0	0	300	300	0	0	632	46	1	0	schön	tolerant	fair	retten	loyal	treu	schlecht	tyrannisch	faul	rächen	lasch	tot	freundlich	schlau	ehrlich	helfen	spielen	lachen	fanatisch	schroff	eitel	hindern	strafen	leiden	1	blank2r.bmp	0	1	+	0	1	blank2r.bmp	500	7	C3r.bmp	500	1	blank2r.bmp	880	5	strafen	880	0	0	0	0	0	0	0	0	0	0	0	0
2024-05-10	09:58:04	10:01:13	188369	6.6.1	4_exp_EVA_AWA_CON	21	B	A	Rpleas_acq	Same	Rpleas	1pleas	acq_US_pleas_nomask	acq1_nomask	1	36	0	0	300	300	0	0	415	50	1	0	schön	tolerant	fair	retten	loyal	treu	schlecht	tyrannisch	faul	rächen	lasch	tot	freundlich	schlau	ehrlich	helfen	spielen	lachen	fanatisch	schroff	eitel	hindern	strafen	leiden	1	blank2r.bmp	0	1	+	0	1	blank2r.bmp	500	1	BMVZ	500	1	blank2r.bmp	880	4	retten	880	0	0	0	0	0	0	0	0	0	0	0	0
2024-05-10	09:58:04	10:01:43	218275	6.6.1	4_exp_EVA_AWA_CON	21	B	A	Rpleas_acq	Same	Rpleas	1pleas	acq_new_unple_nomask	acq2_nomask	2	1	480	0	300	300	0	0	3073	46	1	0	schön	tolerant	fair	retten	loyal	treu	schlecht	tyrannisch	faul	rächen	lasch	tot	freundlich	schlau	ehrlich	helfen	spielen	lachen	fanatisch	schroff	eitel	hindern	strafen	leiden	1	blank2r.bmp	0	1	+	0	1	blank2r.bmp	500	2	B2r.bmp	500	1	blank2r.bmp	880	3	eitel	880	1	!	1312	1	!	-1	0	0	0	0	0	0
2024-05-10	09:58:04	10:01:45	220581	6.6.1	4_exp_EVA_AWA_CON	21	B	A	Rpleas_acq	Same	Rpleas	1pleas	acq_new_unple_nomask	acq2_nomask	2	2	480	1	300	300	0	0	524	46	1	0	schön	tolerant	fair	retten	loyal	treu	schlecht	tyrannisch	faul	rächen	lasch	tot	freundlich	schlau	ehrlich	helfen	spielen	lachen	fanatisch	schroff	eitel	hindern	strafen	leiden	1	blank2r.bmp	0	1	+	0	1	blank2r.bmp	500	8	C4r.bmp	500	1	blank2r.bmp	880	4	hindern	880	1	!	1312	1	!	1425	0	0	0	0	0	0
2024-05-10	09:58:04	10:01:48	222813	6.6.1	4_exp_EVA_AWA_CON	21	B	A	Rpleas_acq	Same	Rpleas	1pleas	acq_US_pleas_nomask	acq2_nomask	2	3	480	1	300	300	0	0	455	50	1	0	schön	tolerant	fair	retten	loyal	treu	schlecht	tyrannisch	faul	rächen	lasch	tot	freundlich	schlau	ehrlich	helfen	spielen	lachen	fanatisch	schroff	eitel	hindern	strafen	leiden	1	blank2r.bmp	0	1	+	0	1	blank2r.bmp	500	1	BMVZ	500	1	blank2r.bmp	880	5	loyal	880	1	!	1313	1	!	1356	0	0	0	0	0	0
2024-05-10	09:58:04	10:01:50	225180	6.6.1	4_exp_EVA_AWA_CON	21	B	A	Rpleas_acq	Same	Rpleas	1pleas	acq_US_unple_nomask	acq2_nomask	2	4	480	0	300	300	0	0	591	46	1	0	schön	tolerant	fair	retten	loyal	treu	schlecht	tyrannisch	faul	rächen	lasch	tot	freundlich	schlau	ehrlich	helfen	spielen	lachen	fanatisch	schroff	eitel	hindern	strafen	leiden	1	blank2r.bmp	0	1	+	0	1	blank2r.bmp	500	1	GKQX	500	1	blank2r.bmp	880	4	rächen	880	1	!	1312	1	!	-1	0	0	0	0	0	0
2024-05-10	09:58:04	10:01:52	227654	6.6.1	4_exp_EVA_AWA_CON	21	B	A	Rpleas_acq	Same	Rpleas	1pleas	acq_US_unple_nomask	acq2_nomask	2	5	480	1	300	300	0	0	492	50	0	0	schön	tolerant	fair	retten	loyal	treu	schlecht	tyrannisch	faul	rächen	lasch	tot	freundlich	schlau	ehrlich	helfen	spielen	lachen	fanatisch	schroff	eitel	hindern	strafen	leiden	1	blank2r.bmp	0	1	+	0	1	blank2r.bmp	500	1	GKQX	500	1	blank2r.bmp	880	2	tyrannisch	880	1	FEHLER	1684	1	!	1312	1	!	1392	0	0	0
2024-05-10	09:58:04	10:01:54	229669	6.6.1	4_exp_EVA_AWA_CON	21	B	A	Rpleas_acq	Same	Rpleas	1pleas	acq_US_unple_nomask	acq2_nomask	2	6	480	1	300	300	0	0	436	46	1	0	schön	tolerant	fair	retten	loyal	treu	schlecht	tyrannisch	faul	rächen	lasch	tot	freundlich	schlau	ehrlich	helfen	spielen	lachen	fanatisch	schroff	eitel	hindern	strafen	leiden	1	blank2r.bmp	0	1	+	0	1	blank2r.bmp	500	1	GKQX	500	1	blank2r.bmp	880	5	lasch	880	1	!	1313	1	!	1337	0	0	0	0	0	0
2024-05-10	09:58:04	10:01:57	232061	6.6.1	4_exp_EVA_AWA_CON	21	B	A	Rpleas_acq	Same	Rpleas	1pleas	acq_US_pleas_nomask	acq2_nomask	2	7	480	1	300	300	0	0	417	46	0	0	schön	tolerant	fair	retten	loyal	treu	schlecht	tyrannisch	faul	rächen	lasch	tot	freundlich	schlau	ehrlich	helfen	spielen	lachen	fanatisch	schroff	eitel	hindern	strafen	leiden	1	blank2r.bmp	0	1	+	0	1	blank2r.bmp	500	1	BMVZ	500	1	blank2r.bmp	880	3	fair	880	1	FEHLER	1608	1	!	1312	1	!	1316	0	0	0
2024-05-10	09:58:04	10:01:59	234085	6.6.1	4_exp_EVA_AWA_CON	21	B	A	Rpleas_acq	Same	Rpleas	1pleas	acq_new_pleas_nomask	acq2_nomask	2	8	480	1	300	300	0	0	449	50	1	0	schön	tolerant	fair	retten	loyal	treu	schlecht	tyrannisch	faul	rächen	lasch	tot	freundlich	schlau	ehrlich	helfen	spielen	lachen	fanatisch	schroff	eitel	hindern	strafen	leiden	1	blank2r.bmp	0	1	+	0	1	blank2r.bmp	500	1	B1r.bmp	500	1	blank2r.bmp	880	1	freundlich	880	1	!	1313	1	!	1350	0	0	0	0	0	0
2024-05-10	09:58:04	10:02:01	236373	6.6.1	4_exp_EVA_AWA_CON	21	B	A	Rpleas_acq	Same	Rpleas	1pleas	acq_new_unple_nomask	acq2_nomask	2	9	480	1	300	300	0	0	506	46	1	0	schön	tolerant	fair	retten	loyal	treu	schlecht	tyrannisch	faul	rächen	lasch	tot	freundlich	schlau	ehrlich	helfen	spielen	lachen	fanatisch	schroff	eitel	hindern	strafen	leiden	1	blank2r.bmp	0	1	+	0	1	blank2r.bmp	500	6	C2r.bmp	500	1	blank2r.bmp	880	6	leiden	880	1	!	1312	1	!	1407	0	0	0	0	0	0
2024-05-10	09:58:04	10:02:03	238523	6.6.1	4_exp_EVA_AWA_CON	21	B	A	Rpleas_acq	Same	Rpleas	1pleas	acq_new_pleas_nomask	acq2_nomask	2	10	480	0	300	300	0	0	377	50	1	0	schön	tolerant	fair	retten	loyal	treu	schlecht	tyrannisch	faul	rächen	lasch	tot	freundlich	schlau	ehrlich	helfen	spielen	lachen	fanatisch	schroff	eitel	hindern	strafen	leiden	1	blank2r.bmp	0	1	+	0	1	blank2r.bmp	500	3	B3r.bmp	500	1	blank2r.bmp	880	2	schlau	880	1	!	-1	1	!	-1	0	0	0	0	0	0
2024-05-10	09:58:04	10:02:06	240982	6.6.1	4_exp_EVA_AWA_CON	21	B	A	Rpleas_acq	Same	Rpleas	1pleas	acq_new_pleas_nomask	acq2_nomask	2	11	480	1	300	300	0	0	481	46	0	0	schön	tolerant	fair	retten	loyal	treu	schlecht	tyrannisch	faul	rächen	lasch	tot	freundlich	schlau	ehrlich	helfen	spielen	lachen	fanatisch	schroff	eitel	hindern	strafen	leiden	1	blank2r.bmp	0	1	+	0	1	blank2r.bmp	500	4	B4r.bmp	500	1	blank2r.bmp	880	6	lachen	880	1	FEHLER	1674	1	!	1313	1	!	1382	0	0	0
2024-05-10	09:58:04	10:02:08	243005	6.6.1	4_exp_EVA_AWA_CON	21	B	A	Rpleas_acq	Same	Rpleas	1pleas	acq_US_pleas_nomask	acq2_nomask	2	12	480	1	300	300	0	0	444	50	1	0	schön	tolerant	fair	retten	loyal	treu	schlecht	tyrannisch	faul	rächen	lasch	tot	freundlich	schlau	ehrlich	helfen	spielen	lachen	fanatisch	schroff	eitel	hindern	strafen	leiden	1	blank2r.bmp	0	1	+	0	1	blank2r.bmp	500	1	BMVZ	500	1	blank2r.bmp	880	2	tolerant	880	1	!	1313	1	!	1345	0	0	0	0	0	0
2024-05-10	09:58:04	10:02:10	245187	6.6.1	4_exp_EVA_AWA_CON	21	B	A	Rpleas_acq	Same	Rpleas	1pleas	acq_new_unple_nomask	acq2_nomask	2	13	480	0	300	300	0	0	406	46	1	0	schön	tolerant	fair	retten	loyal	treu	schlecht	tyrannisch	faul	rächen	lasch	tot	freundlich	schlau	ehrlich	helfen	spielen	lachen	fanatisch	schroff	eitel	hindern	strafen	leiden	1	blank2r.bmp	0	1	+	0	1	blank2r.bmp	500	7	C3r.bmp	500	1	blank2r.bmp	880	6	leiden	880	1	!	-1	1	!	-1	0	0	0	0	0	0
2024-05-10	09:58:04	10:02:12	247454	6.6.1	4_exp_EVA_AWA_CON	21	B	A	Rpleas_acq	Same	Rpleas	1pleas	acq_US_pleas_nomask	acq2_nomask	2	14	480	1	300	300	0	0	489	50	1	0	schön	tolerant	fair	retten	loyal	treu	schlecht	tyrannisch	faul	rächen	lasch	tot	freundlich	schlau	ehrlich	helfen	spielen	lachen	fanatisch	schroff	eitel	hindern	strafen	leiden	1	blank2r.bmp	0	1	+	0	1	blank2r.bmp	500	1	BMVZ	500	1	blank2r.bmp	880	6	treu	880	1	!	1313	1	!	1390	0	0	0	0	0	0
2024-05-10	09:58:04	10:02:15	249819	6.6.1	4_exp_EVA_AWA_CON	21	B	A	Rpleas_acq	Same	Rpleas	1pleas	acq_new_pleas_nomask	acq2_nomask	2	15	480	0	300	300	0	0	585	50	1	0	schön	tolerant	fair	retten	loyal	treu	schlecht	tyrannisch	faul	rächen	lasch	tot	freundlich	schlau	ehrlich	helfen	spielen	lachen	fanatisch	schroff	eitel	hindern	strafen	leiden	1	blank2r.bmp	0	1	+	0	1	blank2r.bmp	500	6	C2r.bmp	500	1	blank2r.bmp	880	5	spielen	880	1	!	1312	1	!	-1	0	0	0	0	0	0
2024-05-10	09:58:04	10:02:17	252029	6.6.1	4_exp_EVA_AWA_CON	21	B	A	Rpleas_acq	Same	Rpleas	1pleas	acq_new_pleas_nomask	acq2_nomask	2	16	480	1	300	300	0	0	432	50	1	0	schön	tolerant	fair	retten	loyal	treu	schlecht	tyrannisch	faul	rächen	lasch	tot	freundlich	schlau	ehrlich	helfen	spielen	lachen	fanatisch	schroff	eitel	hindern	strafen	leiden	1	blank2r.bmp	0	1	+	0	1	blank2r.bmp	500	5	C1r.bmp	500	1	blank2r.bmp	880	2	schlau	880	1	!	1313	1	!	1333	0	0	0	0	0	0
2024-05-10	09:58:04	10:02:19	254179	6.6.1	4_exp_EVA_AWA_CON	21	B	A	Rpleas_acq	Same	Rpleas	1pleas	acq_US_pleas_nomask	acq2_nomask	2	17	480	0	300	300	0	0	373	50	1	0	schön	tolerant	fair	retten	loyal	treu	schlecht	tyrannisch	faul	rächen	lasch	tot	freundlich	schlau	ehrlich	helfen	spielen	lachen	fanatisch	schroff	eitel	hindern	strafen	leiden	1	blank2r.bmp	0	1	+	0	1	blank2r.bmp	500	1	BMVZ	500	1	blank2r.bmp	880	3	fair	880	1	!	-1	1	!	-1	0	0	0	0	0	0
2024-05-10	09:58:04	10:02:21	256453	6.6.1	4_exp_EVA_AWA_CON	21	B	A	Rpleas_acq	Same	Rpleas	1pleas	acq_US_unple_nomask	acq2_nomask	2	18	480	1	300	300	0	0	493	46	1	0	schön	tolerant	fair	retten	loyal	treu	schlecht	tyrannisch	faul	rächen	lasch	tot	freundlich	schlau	ehrlich	helfen	spielen	lachen	fanatisch	schroff	eitel	hindern	strafen	leiden	1	blank2r.bmp	0	1	+	0	1	blank2r.bmp	500	1	GKQX	500	1	blank2r.bmp	880	1	schlecht	880	1	!	1312	1	!	1394	0	0	0	0	0	0
2024-05-10	09:58:04	10:02:23	258677	6.6.1	4_exp_EVA_AWA_CON	21	B	A	Rpleas_acq	Same	Rpleas	1pleas	acq_US_pleas_nomask	acq2_nomask	2	19	480	1	300	300	0	0	446	50	1	0	schön	tolerant	fair	retten	loyal	treu	schlecht	tyrannisch	faul	rächen	lasch	tot	freundlich	schlau	ehrlich	helfen	spielen	lachen	fanatisch	schroff	eitel	hindern	strafen	leiden	1	blank2r.bmp	0	1	+	0	1	blank2r.bmp	500	1	BMVZ	500	1	blank2r.bmp	880	5	loyal	880	1	!	1312	1	!	1347	0	0	0	0	0	0
2024-05-10	09:58:04	10:02:26	260941	6.6.1	4_exp_EVA_AWA_CON	21	B	A	Rpleas_acq	Same	Rpleas	1pleas	acq_new_unple_nomask	acq2_nomask	2	20	480	1	300	300	0	0	488	46	1	0	schön	tolerant	fair	retten	loyal	treu	schlecht	tyrannisch	faul	rächen	lasch	tot	freundlich	schlau	ehrlich	helfen	spielen	lachen	fanatisch	schroff	eitel	hindern	strafen	leiden	1	blank2r.bmp	0	1	+	0	1	blank2r.bmp	500	1	B1r.bmp	500	1	blank2r.bmp	880	2	schroff	880	1	!	1313	1	!	1389	0	0	0	0	0	0
2024-05-10	09:58:04	10:02:28	263341	6.6.1	4_exp_EVA_AWA_CON	21	B	A	Rpleas_acq	Same	Rpleas	1pleas	acq_US_unple_nomask	acq2_nomask	2	21	480	1	300	300	0	0	417	50	0	0	schön	tolerant	fair	retten	loyal	treu	schlecht	tyrannisch	faul	rächen	lasch	tot	freundlich	schlau	ehrlich	helfen	spielen	lachen	fanatisch	schroff	eitel	hindern	strafen	leiden	1	blank2r.bmp	0	1	+	0	1	blank2r.bmp	500	1	GKQX	500	1	blank2r.bmp	880	2	tyrannisch	880	1	FEHLER	1608	1	!	1312	1	!	1316	0	0	0
2024-05-10	09:58:04	10:02:30	265357	6.6.1	4_exp_EVA_AWA_CON	21	B	A	Rpleas_acq	Same	Rpleas	1pleas	acq_new_pleas_nomask	acq2_nomask	2	22	480	1	300	300	0	0	441	50	1	0	schön	tolerant	fair	retten	loyal	treu	schlecht	tyrannisch	faul	rächen	lasch	tot	freundlich	schlau	ehrlich	helfen	spielen	lachen	fanatisch	schroff	eitel	hindern	strafen	leiden	1	blank2r.bmp	0	1	+	0	1	blank2r.bmp	500	2	B2r.bmp	500	1	blank2r.bmp	880	6	lachen	880	1	!	1313	1	!	1343	0	0	0	0	0	0
2024-05-10	09:58:04	10:02:33	267878	6.6.1	4_exp_EVA_AWA_CON	21	B	A	Rpleas_acq	Same	Rpleas	1pleas	acq_new_unple_nomask	acq2_nomask	2	23	480	1	300	300	0	0	540	50	0	0	schön	tolerant	fair	retten	loyal	treu	schlecht	tyrannisch	faul	rächen	lasch	tot	freundlich	schlau	ehrlich	helfen	spielen	lachen	fanatisch	schroff	eitel	hindern	strafen	leiden	1	blank2r.bmp	0	1	+	0	1	blank2r.bmp	500	8	C4r.bmp	500	1	blank2r.bmp	880	1	fanatisch	880	1	FEHLER	1733	1	!	1312	1	!	1441	0	0	0
2024-05-10	09:58:04	10:02:35	270102	6.6.1	4_exp_EVA_AWA_CON	21	B	A	Rpleas_acq	Same	Rpleas	1pleas	acq_US_unple_nomask	acq2_nomask	2	24	480	1	300	300	0	0	442	50	0	0	schön	tolerant	fair	retten	loyal	treu	schlecht	tyrannisch	faul	rächen	lasch	tot	freundlich	schlau	ehrlich	helfen	spielen	lachen	fanatisch	schroff	eitel	hindern	strafen	leiden	1	blank2r.bmp	0	1	+	0	1	blank2r.bmp	500	1	GKQX	500	1	blank2r.bmp	880	5	lasch	880	1	FEHLER	1635	1	!	1313	1	!	1343	0	0	0
2024-05-10	09:58:04	10:02:37	272260	6.6.1	4_exp_EVA_AWA_CON	21	B	A	Rpleas_acq	Same	Rpleas	1pleas	acq_US_pleas_nomask	acq2_nomask	2	25	480	0	300	300	0	0	581	50	1	0	schön	tolerant	fair	retten	loyal	treu	schlecht	tyrannisch	faul	rächen	lasch	tot	freundlich	schlau	ehrlich	helfen	spielen	lachen	fanatisch	schroff	eitel	hindern	strafen	leiden	1	blank2r.bmp	0	1	+	0	1	blank2r.bmp	500	1	BMVZ	500	1	blank2r.bmp	880	4	retten	880	1	!	1312	1	!	-1	0	0	0	0	0	0
2024-05-10	09:58:04	10:02:39	274565	6.6.1	4_exp_EVA_AWA_CON	21	B	A	Rpleas_acq	Same	Rpleas	1pleas	acq_US_unple_nomask	acq2_nomask	2	26	480	1	300	300	0	0	524	46	1	0	schön	tolerant	fair	retten	loyal	treu	schlecht	tyrannisch	faul	rächen	lasch	tot	freundlich	schlau	ehrlich	helfen	spielen	lachen	fanatisch	schroff	eitel	hindern	strafen	leiden	1	blank2r.bmp	0	1	+	0	1	blank2r.bmp	500	1	GKQX	500	1	blank2r.bmp	880	3	faul	880	1	!	1313	1	!	1424	0	0	0	0	0	0
2024-05-10	09:58:04	10:02:42	276813	6.6.1	4_exp_EVA_AWA_CON	21	B	A	Rpleas_acq	Same	Rpleas	1pleas	acq_new_unple_nomask	acq2_nomask	2	27	480	1	300	300	0	0	470	46	1	0	schön	tolerant	fair	retten	loyal	treu	schlecht	tyrannisch	faul	rächen	lasch	tot	freundlich	schlau	ehrlich	helfen	spielen	lachen	fanatisch	schroff	eitel	hindern	strafen	leiden	1	blank2r.bmp	0	1	+	0	1	blank2r.bmp	500	3	B3r.bmp	500	1	blank2r.bmp	880	5	strafen	880	1	!	1313	1	!	1372	0	0	0	0	0	0
2024-05-10	09:58:04	10:02:44	279134	6.6.1	4_exp_EVA_AWA_CON	21	B	A	Rpleas_acq	Same	Rpleas	1pleas	acq_new_unple_nomask	acq2_nomask	2	28	480	1	300	300	0	0	539	46	1	0	schön	tolerant	fair	retten	loyal	treu	schlecht	tyrannisch	faul	rächen	lasch	tot	freundlich	schlau	ehrlich	helfen	spielen	lachen	fanatisch	schroff	eitel	hindern	strafen	leiden	1	blank2r.bmp	0	1	+	0	1	blank2r.bmp	500	4	B4r.bmp	500	1	blank2r.bmp	880	3	eitel	880	1	!	1313	1	!	1440	0	0	0	0	0	0
2024-05-10	09:58:04	10:02:46	281461	6.6.1	4_exp_EVA_AWA_CON	21	B	A	Rpleas_acq	Same	Rpleas	1pleas	acq_US_pleas_nomask	acq2_nomask	2	29	480	1	300	300	0	0	545	50	1	0	schön	tolerant	fair	retten	loyal	treu	schlecht	tyrannisch	faul	rächen	lasch	tot	freundlich	schlau	ehrlich	helfen	spielen	lachen	fanatisch	schroff	eitel	hindern	strafen	leiden	1	blank2r.bmp	0	1	+	0	1	blank2r.bmp	500	1	BMVZ	500	1	blank2r.bmp	880	2	tolerant	880	1	!	1312	1	!	1446	0	0	0	0	0	0
2024-05-10	09:58:04	10:02:48	283725	6.6.1	4_exp_EVA_AWA_CON	21	B	A	Rpleas_acq	Same	Rpleas	1pleas	acq_new_unple_nomask	acq2_nomask	2	30	480	1	300	300	0	0	488	46	1	0	schön	tolerant	fair	retten	loyal	treu	schlecht	tyrannisch	faul	rächen	lasch	tot	freundlich	schlau	ehrlich	helfen	spielen	lachen	fanatisch	schroff	eitel	hindern	strafen	leiden	1	blank2r.bmp	0	1	+	0	1	blank2r.bmp	500	2	B2r.bmp	500	1	blank2r.bmp	880	4	hindern	880	1	!	1312	1	!	1388	0	0	0	0	0	0
2024-05-10	09:58:04	10:02:51	286057	6.6.1	4_exp_EVA_AWA_CON	21	B	A	Rpleas_acq	Same	Rpleas	1pleas	acq_new_pleas_nomask	acq2_nomask	2	31	480	0	300	300	0	0	562	50	1	0	schön	tolerant	fair	retten	loyal	treu	schlecht	tyrannisch	faul	rächen	lasch	tot	freundlich	schlau	ehrlich	helfen	spielen	lachen	fanatisch	schroff	eitel	hindern	strafen	leiden	1	blank2r.bmp	0	1	+	0	1	blank2r.bmp	500	8	C4r.bmp	500	1	blank2r.bmp	880	4	helfen	880	1	!	1313	1	!	-1	0	0	0	0	0	0
2024-05-10	09:58:04	10:02:53	288235	6.6.1	4_exp_EVA_AWA_CON	21	B	A	Rpleas_acq	Same	Rpleas	1pleas	acq_US_unple_nomask	acq2_nomask	2	32	480	0	300	300	0	0	407	46	1	0	schön	tolerant	fair	retten	loyal	treu	schlecht	tyrannisch	faul	rächen	lasch	tot	freundlich	schlau	ehrlich	helfen	spielen	lachen	fanatisch	schroff	eitel	hindern	strafen	leiden	1	blank2r.bmp	0	1	+	0	1	blank2r.bmp	500	1	GKQX	500	1	blank2r.bmp	880	4	rächen	880	1	!	-1	1	!	-1	0	0	0	0	0	0
2024-05-10	09:58:04	10:02:55	290437	6.6.1	4_exp_EVA_AWA_CON	21	B	A	Rpleas_acq	Same	Rpleas	1pleas	acq_US_pleas_nomask	acq2_nomask	2	33	480	1	300	300	0	0	425	50	1	0	schön	tolerant	fair	retten	loyal	treu	schlecht	tyrannisch	faul	rächen	lasch	tot	freundlich	schlau	ehrlich	helfen	spielen	lachen	fanatisch	schroff	eitel	hindern	strafen	leiden	1	blank2r.bmp	0	1	+	0	1	blank2r.bmp	500	1	BMVZ	500	1	blank2r.bmp	880	1	schön	880	1	!	1312	1	!	1326	0	0	0	0	0	0
2024-05-10	09:58:04	10:02:57	292627	6.6.1	4_exp_EVA_AWA_CON	21	B	A	Rpleas_acq	Same	Rpleas	1pleas	acq_new_pleas_nomask	acq2_nomask	2	34	480	1	300	300	0	0	416	50	1	0	schön	tolerant	fair	retten	loyal	treu	schlecht	tyrannisch	faul	rächen	lasch	tot	freundlich	schlau	ehrlich	helfen	spielen	lachen	fanatisch	schroff	eitel	hindern	strafen	leiden	1	blank2r.bmp	0	1	+	0	1	blank2r.bmp	500	6	C2r.bmp	500	1	blank2r.bmp	880	1	freundlich	880	1	!	1313	1	!	1315	0	0	0	0	0	0
2024-05-10	09:58:04	10:03:00	294846	6.6.1	4_exp_EVA_AWA_CON	21	B	A	Rpleas_acq	Same	Rpleas	1pleas	acq_US_unple_nomask	acq2_nomask	2	35	480	1	300	300	0	0	440	46	1	0	schön	tolerant	fair	retten	loyal	treu	schlecht	tyrannisch	faul	rächen	lasch	tot	freundlich	schlau	ehrlich	helfen	spielen	lachen	fanatisch	schroff	eitel	hindern	strafen	leiden	1	blank2r.bmp	0	1	+	0	1	blank2r.bmp	500	1	GKQX	500	1	blank2r.bmp	880	6	tot	880	1	!	1312	1	!	1342	0	0	0	0	0	0
2024-05-10	09:58:04	10:03:02	297166	6.6.1	4_exp_EVA_AWA_CON	21	B	A	Rpleas_acq	Same	Rpleas	1pleas	acq_new_pleas_nomask	acq2_nomask	2	36	480	1	300	300	0	0	539	50	1	0	schön	tolerant	fair	retten	loyal	treu	schlecht	tyrannisch	faul	rächen	lasch	tot	freundlich	schlau	ehrlich	helfen	spielen	lachen	fanatisch	schroff	eitel	hindern	strafen	leiden	1	blank2r.bmp	0	1	+	0	1	blank2r.bmp	500	5	C1r.bmp	500	1	blank2r.bmp	880	3	ehrlich	880	1	!	1312	1	!	1440	0	0	0	0	0	0
2024-05-10	09:58:04	10:03:18	312797	6.6.1	4_exp_EVA_AWA_CON	21	B	A	Rpleas_acq	Same	Rpleas	1pleas	acq_US_unple_nomask	acq3_nomask	3	1	453	1	300	300	0	0	501	46	1	0	schön	tolerant	fair	retten	loyal	treu	schlecht	tyrannisch	faul	rächen	lasch	tot	freundlich	schlau	ehrlich	helfen	spielen	lachen	fanatisch	schroff	eitel	hindern	strafen	leiden	1	blank2r.bmp	0	1	+	0	1	blank2r.bmp	500	1	GKQX	500	1	blank2r.bmp	880	3	faul	880	1	!	1292	1	!	1402	0	0	0	0	0	0
2024-05-10	09:58:04	10:03:20	315021	6.6.1	4_exp_EVA_AWA_CON	21	B	A	Rpleas_acq	Same	Rpleas	1pleas	acq_US_pleas_nomask	acq3_nomask	3	2	453	1	300	300	0	0	444	50	1	0	schön	tolerant	fair	retten	loyal	treu	schlecht	tyrannisch	faul	rächen	lasch	tot	freundlich	schlau	ehrlich	helfen	spielen	lachen	fanatisch	schroff	eitel	hindern	strafen	leiden	1	blank2r.bmp	0	1	+	0	1	blank2r.bmp	500	1	BMVZ	500	1	blank2r.bmp	880	3	fair	880	1	!	1293	1	!	1344	0	0	0	0	0	0
2024-05-10	09:58:04	10:03:22	317301	6.6.1	4_exp_EVA_AWA_CON	21	B	A	Rpleas_acq	Same	Rpleas	1pleas	acq_US_unple_nomask	acq3_nomask	3	3	453	1	300	300	0	0	502	46	1	0	schön	tolerant	fair	retten	loyal	treu	schlecht	tyrannisch	faul	rächen	lasch	tot	freundlich	schlau	ehrlich	helfen	spielen	lachen	fanatisch	schroff	eitel	hindern	strafen	leiden	1	blank2r.bmp	0	1	+	0	1	blank2r.bmp	500	1	GKQX	500	1	blank2r.bmp	880	2	tyrannisch	880	1	!	1292	1	!	1403	0	0	0	0	0	0
2024-05-10	09:58:04	10:03:24	319590	6.6.1	4_exp_EVA_AWA_CON	21	B	A	Rpleas_acq	Same	Rpleas	1pleas	acq_US_pleas_nomask	acq3_nomask	3	4	453	1	300	300	0	0	509	50	1	0	schön	tolerant	fair	retten	loyal	treu	schlecht	tyrannisch	faul	rächen	lasch	tot	freundlich	schlau	ehrlich	helfen	spielen	lachen	fanatisch	schroff	eitel	hindern	strafen	leiden	1	blank2r.bmp	0	1	+	0	1	blank2r.bmp	500	1	BMVZ	500	1	blank2r.bmp	880	5	loyal	880	1	!	1292	1	!	1409	0	0	0	0	0	0
2024-05-10	09:58:04	10:03:27	321829	6.6.1	4_exp_EVA_AWA_CON	21	B	A	Rpleas_acq	Same	Rpleas	1pleas	acq_US_pleas_nomask	acq3_nomask	3	5	453	1	300	300	0	0	457	50	1	0	schön	tolerant	fair	retten	loyal	treu	schlecht	tyrannisch	faul	rächen	lasch	tot	freundlich	schlau	ehrlich	helfen	spielen	lachen	fanatisch	schroff	eitel	hindern	strafen	leiden	1	blank2r.bmp	0	1	+	0	1	blank2r.bmp	500	1	BMVZ	500	1	blank2r.bmp	880	2	tolerant	880	1	!	1293	1	!	1358	0	0	0	0	0	0
2024-05-10	09:58:04	10:03:29	324117	6.6.1	4_exp_EVA_AWA_CON	21	B	A	Rpleas_acq	Same	Rpleas	1pleas	acq_US_pleas_nomask	acq3_nomask	3	6	453	1	300	300	0	0	514	50	1	0	schön	tolerant	fair	retten	loyal	treu	schlecht	tyrannisch	faul	rächen	lasch	tot	freundlich	schlau	ehrlich	helfen	spielen	lachen	fanatisch	schroff	eitel	hindern	strafen	leiden	1	blank2r.bmp	0	1	+	0	1	blank2r.bmp	500	1	BMVZ	500	1	blank2r.bmp	880	1	schön	880	1	!	1292	1	!	1415	0	0	0	0	0	0
2024-05-10	09:58:04	10:03:31	326317	6.6.1	4_exp_EVA_AWA_CON	21	B	A	Rpleas_acq	Same	Rpleas	1pleas	acq_US_unple_nomask	acq3_nomask	3	7	453	1	300	300	0	0	422	46	1	0	schön	tolerant	fair	retten	loyal	treu	schlecht	tyrannisch	faul	rächen	lasch	tot	freundlich	schlau	ehrlich	helfen	spielen	lachen	fanatisch	schroff	eitel	hindern	strafen	leiden	1	blank2r.bmp	0	1	+	0	1	blank2r.bmp	500	1	GKQX	500	1	blank2r.bmp	880	1	schlecht	880	1	!	1293	1	!	1323	0	0	0	0	0	0
2024-05-10	09:58:04	10:03:33	328659	6.6.1	4_exp_EVA_AWA_CON	21	B	A	Rpleas_acq	Same	Rpleas	1pleas	acq_US_unple_nomask	acq3_nomask	3	8	453	0	300	300	0	0	565	46	1	0	schön	tolerant	fair	retten	loyal	treu	schlecht	tyrannisch	faul	rächen	lasch	tot	freundlich	schlau	ehrlich	helfen	spielen	lachen	fanatisch	schroff	eitel	hindern	strafen	leiden	1	blank2r.bmp	0	1	+	0	1	blank2r.bmp	500	1	GKQX	500	1	blank2r.bmp	880	4	rächen	880	1	!	1292	1	!	-1	0	0	0	0	0	0
2024-05-10	09:58:04	10:03:36	330878	6.6.1	4_exp_EVA_AWA_CON	21	B	A	Rpleas_acq	Same	Rpleas	1pleas	acq_US_pleas_nomask	acq3_nomask	3	9	453	1	300	300	0	0	439	50	1	0	schön	tolerant	fair	retten	loyal	treu	schlecht	tyrannisch	faul	rächen	lasch	tot	freundlich	schlau	ehrlich	helfen	spielen	lachen	fanatisch	schroff	eitel	hindern	strafen	leiden	1	blank2r.bmp	0	1	+	0	1	blank2r.bmp	500	1	BMVZ	500	1	blank2r.bmp	880	4	retten	880	1	!	1292	1	!	1340	0	0	0	0	0	0
2024-05-10	09:58:04	10:03:38	333239	6.6.1	4_exp_EVA_AWA_CON	21	B	A	Rpleas_acq	Same	Rpleas	1pleas	acq_US_unple_nomask	acq3_nomask	3	10	453	0	300	300	0	0	378	50	0	0	schön	tolerant	fair	retten	loyal	treu	schlecht	tyrannisch	faul	rächen	lasch	tot	freundlich	schlau	ehrlich	helfen	spielen	lachen	fanatisch	schroff	eitel	hindern	strafen	leiden	1	blank2r.bmp	0	1	+	0	1	blank2r.bmp	500	1	GKQX	500	1	blank2r.bmp	880	5	lasch	880	1	FEHLER	1571	1	!	-1	1	!	-1	0	0	0
2024-05-10	09:58:04	10:03:40	335245	6.6.1	4_exp_EVA_AWA_CON	21	B	A	Rpleas_acq	Same	Rpleas	1pleas	acq_US_unple_nomask	acq3_nomask	3	11	453	1	300	300	0	0	435	46	1	0	schön	tolerant	fair	retten	loyal	treu	schlecht	tyrannisch	faul	rächen	lasch	tot	freundlich	schlau	ehrlich	helfen	spielen	lachen	fanatisch	schroff	eitel	hindern	strafen	leiden	1	blank2r.bmp	0	1	+	0	1	blank2r.bmp	500	1	GKQX	500	1	blank2r.bmp	880	6	tot	880	1	!	1293	1	!	1335	0	0	0	0	0	0
2024-05-10	09:58:04	10:03:42	337469	6.6.1	4_exp_EVA_AWA_CON	21	B	A	Rpleas_acq	Same	Rpleas	1pleas	acq_US_pleas_nomask	acq3_nomask	3	12	453	1	300	300	0	0	447	50	1	0	schön	tolerant	fair	retten	loyal	treu	schlecht	tyrannisch	faul	rächen	lasch	tot	freundlich	schlau	ehrlich	helfen	spielen	lachen	fanatisch	schroff	eitel	hindern	strafen	leiden	1	blank2r.bmp	0	1	+	0	1	blank2r.bmp	500	1	BMVZ	500	1	blank2r.bmp	880	6	treu	880	1	!	1293	1	!	1348	0	0	0	0	0	0
2024-05-10	09:58:04	10:03:44	339709	6.6.1	4_exp_EVA_AWA_CON	21	B	A	Rpleas_acq	Same	Rpleas	1pleas	acq_US_pleas_nomask	acq3_nomask	3	13	453	1	300	300	0	0	466	50	1	0	schön	tolerant	fair	retten	loyal	treu	schlecht	tyrannisch	faul	rächen	lasch	tot	freundlich	schlau	ehrlich	helfen	spielen	lachen	fanatisch	schroff	eitel	hindern	strafen	leiden	1	blank2r.bmp	0	1	+	0	1	blank2r.bmp	500	1	BMVZ	500	1	blank2r.bmp	880	3	fair	880	1	!	1292	1	!	1366	0	0	0	0	0	0
2024-05-10	09:58:04	10:03:47	341926	6.6.1	4_exp_EVA_AWA_CON	21	B	A	Rpleas_acq	Same	Rpleas	1pleas	acq_US_pleas_nomask	acq3_nomask	3	14	453	1	300	300	0	0	440	50	1	0	schön	tolerant	fair	retten	loyal	treu	schlecht	tyrannisch	faul	rächen	lasch	tot	freundlich	schlau	ehrlich	helfen	spielen	lachen	fanatisch	schroff	eitel	hindern	strafen	leiden	1	blank2r.bmp	0	1	+	0	1	blank2r.bmp	500	1	BMVZ	500	1	blank2r.bmp	880	1	schön	880	1	!	1293	1	!	1342	0	0	0	0	0	0
2024-05-10	09:58:04	10:03:49	344309	6.6.1	4_exp_EVA_AWA_CON	21	B	A	Rpleas_acq	Same	Rpleas	1pleas	acq_US_pleas_nomask	acq3_nomask	3	15	453	1	300	300	0	0	403	46	0	0	schön	tolerant	fair	retten	loyal	treu	schlecht	tyrannisch	faul	rächen	lasch	tot	freundlich	schlau	ehrlich	helfen	spielen	lachen	fanatisch	schroff	eitel	hindern	strafen	leiden	1	blank2r.bmp	0	1	+	0	1	blank2r.bmp	500	1	BMVZ	500	1	blank2r.bmp	880	6	treu	880	1	FEHLER	1594	1	!	1292	1	!	1302	0	0	0
2024-05-10	09:58:04	10:03:51	346317	6.6.1	4_exp_EVA_AWA_CON	21	B	A	Rpleas_acq	Same	Rpleas	1pleas	acq_US_unple_nomask	acq3_nomask	3	16	453	1	300	300	0	0	429	46	1	0	schön	tolerant	fair	retten	loyal	treu	schlecht	tyrannisch	faul	rächen	lasch	tot	freundlich	schlau	ehrlich	helfen	spielen	lachen	fanatisch	schroff	eitel	hindern	strafen	leiden	1	blank2r.bmp	0	1	+	0	1	blank2r.bmp	500	1	GKQX	500	1	blank2r.bmp	880	6	tot	880	1	!	1292	1	!	1330	0	0	0	0	0	0
2024-05-10	09:58:04	10:03:53	348635	6.6.1	4_exp_EVA_AWA_CON	21	B	A	Rpleas_acq	Same	Rpleas	1pleas	acq_US_pleas_nomask	acq3_nomask	3	17	453	0	300	300	0	0	538	50	1	0	schön	tolerant	fair	retten	loyal	treu	schlecht	tyrannisch	faul	rächen	lasch	tot	freundlich	schlau	ehrlich	helfen	spielen	lachen	fanatisch	schroff	eitel	hindern	strafen	leiden	1	blank2r.bmp	0	1	+	0	1	blank2r.bmp	500	1	BMVZ	500	1	blank2r.bmp	880	2	tolerant	880	1	!	1292	1	!	-1	0	0	0	0	0	0
2024-05-10	09:58:04	10:03:56	350830	6.6.1	4_exp_EVA_AWA_CON	21	B	A	Rpleas_acq	Same	Rpleas	1pleas	acq_US_unple_nomask	acq3_nomask	3	18	453	1	300	300	0	0	419	46	1	0	schön	tolerant	fair	retten	loyal	treu	schlecht	tyrannisch	faul	rächen	lasch	tot	freundlich	schlau	ehrlich	helfen	spielen	lachen	fanatisch	schroff	eitel	hindern	strafen	leiden	1	blank2r.bmp	0	1	+	0	1	blank2r.bmp	500	1	GKQX	500	1	blank2r.bmp	880	1	schlecht	880	1	!	1293	1	!	1319	0	0	0	0	0	0
2024-05-10	09:58:04	10:03:58	353061	6.6.1	4_exp_EVA_AWA_CON	21	B	A	Rpleas_acq	Same	Rpleas	1pleas	acq_US_pleas_nomask	acq3_nomask	3	19	453	1	300	300	0	0	449	50	1	0	schön	tolerant	fair	retten	loyal	treu	schlecht	tyrannisch	faul	rächen	lasch	tot	freundlich	schlau	ehrlich	helfen	spielen	lachen	fanatisch	schroff	eitel	hindern	strafen	leiden	1	blank2r.bmp	0	1	+	0	1	blank2r.bmp	500	1	BMVZ	500	1	blank2r.bmp	880	4	retten	880	1	!	1292	1	!	1350	0	0	0	0	0	0
2024-05-10	09:58:04	10:04:00	355219	6.6.1	4_exp_EVA_AWA_CON	21	B	A	Rpleas_acq	Same	Rpleas	1pleas	acq_US_unple_nomask	acq3_nomask	3	20	453	0	300	300	0	0	378	46	1	0	schön	tolerant	fair	retten	loyal	treu	schlecht	tyrannisch	faul	rächen	lasch	tot	freundlich	schlau	ehrlich	helfen	spielen	lachen	fanatisch	schroff	eitel	hindern	strafen	leiden	1	blank2r.bmp	0	1	+	0	1	blank2r.bmp	500	1	GKQX	500	1	blank2r.bmp	880	5	lasch	880	1	!	-1	1	!	-1	0	0	0	0	0	0
2024-05-10	09:58:04	10:04:02	357414	6.6.1	4_exp_EVA_AWA_CON	21	B	A	Rpleas_acq	Same	Rpleas	1pleas	acq_US_unple_nomask	acq3_nomask	3	21	453	1	300	300	0	0	418	46	1	0	schön	tolerant	fair	retten	loyal	treu	schlecht	tyrannisch	faul	rächen	lasch	tot	freundlich	schlau	ehrlich	helfen	spielen	lachen	fanatisch	schroff	eitel	hindern	strafen	leiden	1	blank2r.bmp	0	1	+	0	1	blank2r.bmp	500	1	GKQX	500	1	blank2r.bmp	880	2	tyrannisch	880	1	!	1293	1	!	1319	0	0	0	0	0	0
2024-05-10	09:58:04	10:04:04	359606	6.6.1	4_exp_EVA_AWA_CON	21	B	A	Rpleas_acq	Same	Rpleas	1pleas	acq_US_unple_nomask	acq3_nomask	3	22	453	1	300	300	0	0	409	46	1	0	schön	tolerant	fair	retten	loyal	treu	schlecht	tyrannisch	faul	rächen	lasch	tot	freundlich	schlau	ehrlich	helfen	spielen	lachen	fanatisch	schroff	eitel	hindern	strafen	leiden	1	blank2r.bmp	0	1	+	0	1	blank2r.bmp	500	1	GKQX	500	1	blank2r.bmp	880	4	rächen	880	1	!	1292	1	!	1310	0	0	0	0	0	0
2024-05-10	09:58:04	10:04:07	361813	6.6.1	4_exp_EVA_AWA_CON	21	B	A	Rpleas_acq	Same	Rpleas	1pleas	acq_US_unple_nomask	acq3_nomask	3	23	453	1	300	300	0	0	425	46	1	0	schön	tolerant	fair	retten	loyal	treu	schlecht	tyrannisch	faul	rächen	lasch	tot	freundlich	schlau	ehrlich	helfen	spielen	lachen	fanatisch	schroff	eitel	hindern	strafen	leiden	1	blank2r.bmp	0	1	+	0	1	blank2r.bmp	500	1	GKQX	500	1	blank2r.bmp	880	3	faul	880	1	!	1293	1	!	1326	0	0	0	0	0	0
2024-05-10	09:58:04	10:04:09	364159	6.6.1	4_exp_EVA_AWA_CON	21	B	A	Rpleas_acq	Same	Rpleas	1pleas	acq_US_pleas_nomask	acq3_nomask	3	24	453	0	300	300	0	0	368	46	0	0	schön	tolerant	fair	retten	loyal	treu	schlecht	tyrannisch	faul	rächen	lasch	tot	freundlich	schlau	ehrlich	helfen	spielen	lachen	fanatisch	schroff	eitel	hindern	strafen	leiden	1	blank2r.bmp	0	1	+	0	1	blank2r.bmp	500	1	BMVZ	500	1	blank2r.bmp	880	5	loyal	880	1	FEHLER	1561	1	!	-1	1	!	-1	0	0	0
2024-05-10	09:58:04	10:04:11	366131	6.6.1	4_exp_EVA_AWA_CON	21	B	A	Rpleas_acq	Same	Rpleas	1pleas	acq_US_pleas_nomask	acq3_nomask	3	25	453	1	300	300	0	0	403	50	1	0	schön	tolerant	fair	retten	loyal	treu	schlecht	tyrannisch	faul	rächen	lasch	tot	freundlich	schlau	ehrlich	helfen	spielen	lachen	fanatisch	schroff	eitel	hindern	strafen	leiden	1	blank2r.bmp	0	1	+	0	1	blank2r.bmp	500	1	BMVZ	500	1	blank2r.bmp	880	3	fair	880	1	!	1292	1	!	1302	0	0	0	0	0	0
2024-05-10	09:58:04	10:04:13	368349	6.6.1	4_exp_EVA_AWA_CON	21	B	A	Rpleas_acq	Same	Rpleas	1pleas	acq_US_pleas_nomask	acq3_nomask	3	26	453	1	300	300	0	0	437	50	1	0	schön	tolerant	fair	retten	loyal	treu	schlecht	tyrannisch	faul	rächen	lasch	tot	freundlich	schlau	ehrlich	helfen	spielen	lachen	fanatisch	schroff	eitel	hindern	strafen	leiden	1	blank2r.bmp	0	1	+	0	1	blank2r.bmp	500	1	BMVZ	500	1	blank2r.bmp	880	5	loyal	880	1	!	1292	1	!	1338	0	0	0	0	0	0
2024-05-10	09:58:04	10:04:16	370823	6.6.1	4_exp_EVA_AWA_CON	21	B	A	Rpleas_acq	Same	Rpleas	1pleas	acq_US_unple_nomask	acq3_nomask	3	27	453	1	300	300	0	0	498	50	0	0	schön	tolerant	fair	retten	loyal	treu	schlecht	tyrannisch	faul	rächen	lasch	tot	freundlich	schlau	ehrlich	helfen	spielen	lachen	fanatisch	schroff	eitel	hindern	strafen	leiden	1	blank2r.bmp	0	1	+	0	1	blank2r.bmp	500	1	GKQX	500	1	blank2r.bmp	880	2	tyrannisch	880	1	FEHLER	1691	1	!	1293	1	!	1399	0	0	0
2024-05-10	09:58:04	10:04:18	372909	6.6.1	4_exp_EVA_AWA_CON	21	B	A	Rpleas_acq	Same	Rpleas	1pleas	acq_US_pleas_nomask	acq3_nomask	3	28	453	1	300	300	0	0	514	50	1	0	schön	tolerant	fair	retten	loyal	treu	schlecht	tyrannisch	faul	rächen	lasch	tot	freundlich	schlau	ehrlich	helfen	spielen	lachen	fanatisch	schroff	eitel	hindern	strafen	leiden	1	blank2r.bmp	0	1	+	0	1	blank2r.bmp	500	1	BMVZ	500	1	blank2r.bmp	880	4	retten	880	1	!	1293	1	!	1415	0	0	0	0	0	0
2024-05-10	09:58:04	10:04:20	375209	6.6.1	4_exp_EVA_AWA_CON	21	B	A	Rpleas_acq	Same	Rpleas	1pleas	acq_US_unple_nomask	acq3_nomask	3	29	453	0	300	300	0	0	527	46	1	0	schön	tolerant	fair	retten	loyal	treu	schlecht	tyrannisch	faul	rächen	lasch	tot	freundlich	schlau	ehrlich	helfen	spielen	lachen	fanatisch	schroff	eitel	hindern	strafen	leiden	1	blank2r.bmp	0	1	+	0	1	blank2r.bmp	500	1	GKQX	500	1	blank2r.bmp	880	1	schlecht	880	1	!	1292	1	!	-1	0	0	0	0	0	0
2024-05-10	09:58:04	10:04:22	377445	6.6.1	4_exp_EVA_AWA_CON	21	B	A	Rpleas_acq	Same	Rpleas	1pleas	acq_US_unple_nomask	acq3_nomask	3	30	453	1	300	300	0	0	457	46	1	0	schön	tolerant	fair	retten	loyal	treu	schlecht	tyrannisch	faul	rächen	lasch	tot	freundlich	schlau	ehrlich	helfen	spielen	lachen	fanatisch	schroff	eitel	hindern	strafen	leiden	1	blank2r.bmp	0	1	+	0	1	blank2r.bmp	500	1	GKQX	500	1	blank2r.bmp	880	4	rächen	880	1	!	1293	1	!	1358	0	0	0	0	0	0
2024-05-10	09:58:04	10:04:24	379630	6.6.1	4_exp_EVA_AWA_CON	21	B	A	Rpleas_acq	Same	Rpleas	1pleas	acq_US_unple_nomask	acq3_nomask	3	31	453	1	300	300	0	0	410	46	1	0	schön	tolerant	fair	retten	loyal	treu	schlecht	tyrannisch	faul	rächen	lasch	tot	freundlich	schlau	ehrlich	helfen	spielen	lachen	fanatisch	schroff	eitel	hindern	strafen	leiden	1	blank2r.bmp	0	1	+	0	1	blank2r.bmp	500	1	GKQX	500	1	blank2r.bmp	880	6	tot	880	1	!	1293	1	!	1312	0	0	0	0	0	0
2024-05-10	09:58:04	10:04:27	381787	6.6.1	4_exp_EVA_AWA_CON	21	B	A	Rpleas_acq	Same	Rpleas	1pleas	acq_US_pleas_nomask	acq3_nomask	3	32	453	0	300	300	0	0	379	50	1	0	schön	tolerant	fair	retten	loyal	treu	schlecht	tyrannisch	faul	rächen	lasch	tot	freundlich	schlau	ehrlich	helfen	spielen	lachen	fanatisch	schroff	eitel	hindern	strafen	leiden	1	blank2r.bmp	0	1	+	0	1	blank2r.bmp	500	1	BMVZ	500	1	blank2r.bmp	880	1	schön	880	1	!	-1	1	!	-1	0	0	0	0	0	0
2024-05-10	09:58:04	10:04:29	383955	6.6.1	4_exp_EVA_AWA_CON	21	B	A	Rpleas_acq	Same	Rpleas	1pleas	acq_US_unple_nomask	acq3_nomask	3	33	453	1	300	300	0	0	395	46	1	0	schön	tolerant	fair	retten	loyal	treu	schlecht	tyrannisch	faul	rächen	lasch	tot	freundlich	schlau	ehrlich	helfen	spielen	lachen	fanatisch	schroff	eitel	hindern	strafen	leiden	1	blank2r.bmp	0	1	+	0	1	blank2r.bmp	500	1	GKQX	500	1	blank2r.bmp	880	3	faul	880	1	!	1292	1	!	1294	0	0	0	0	0	0
2024-05-10	09:58:04	10:04:31	386165	6.6.1	4_exp_EVA_AWA_CON	21	B	A	Rpleas_acq	Same	Rpleas	1pleas	acq_US_pleas_nomask	acq3_nomask	3	34	453	1	300	300	0	0	432	50	1	0	schön	tolerant	fair	retten	loyal	treu	schlecht	tyrannisch	faul	rächen	lasch	tot	freundlich	schlau	ehrlich	helfen	spielen	lachen	fanatisch	schroff	eitel	hindern	strafen	leiden	1	blank2r.bmp	0	1	+	0	1	blank2r.bmp	500	1	BMVZ	500	1	blank2r.bmp	880	2	tolerant	880	1	!	1292	1	!	1333	0	0	0	0	0	0
2024-05-10	09:58:04	10:04:33	388446	6.6.1	4_exp_EVA_AWA_CON	21	B	A	Rpleas_acq	Same	Rpleas	1pleas	acq_US_pleas_nomask	acq3_nomask	3	35	453	1	300	300	0	0	500	50	1	0	schön	tolerant	fair	retten	loyal	treu	schlecht	tyrannisch	faul	rächen	lasch	tot	freundlich	schlau	ehrlich	helfen	spielen	lachen	fanatisch	schroff	eitel	hindern	strafen	leiden	1	blank2r.bmp	0	1	+	0	1	blank2r.bmp	500	1	BMVZ	500	1	blank2r.bmp	880	6	treu	880	1	!	1292	1	!	1402	0	0	0	0	0	0
2024-05-10	09:58:04	10:04:36	390803	6.6.1	4_exp_EVA_AWA_CON	21	B	A	Rpleas_acq	Same	Rpleas	1pleas	acq_US_unple_nomask	acq3_nomask	3	36	453	0	300	300	0	0	579	46	1	0	schön	tolerant	fair	retten	loyal	treu	schlecht	tyrannisch	faul	rächen	lasch	tot	freundlich	schlau	ehrlich	helfen	spielen	lachen	fanatisch	schroff	eitel	hindern	strafen	leiden	1	blank2r.bmp	0	1	+	0	1	blank2r.bmp	500	1	GKQX	500	1	blank2r.bmp	880	5	lasch	880	1	!	1292	1	!	-1	0	0	0	0	0	0
2024-05-10	09:58:04	10:04:47	401971	6.6.1	4_exp_EVA_AWA_CON	21	B	A	Rpleas_acq	Same	Rpleas	1pleas	acq_US_pleas_nomask	acq45_nomask	4	1	400	0	300	300	0	0	540	50	1	0	schön	tolerant	fair	retten	loyal	treu	schlecht	tyrannisch	faul	rächen	lasch	tot	freundlich	schlau	ehrlich	helfen	spielen	lachen	fanatisch	schroff	eitel	hindern	strafen	leiden	1	blank2r.bmp	0	1	+	0	1	blank2r.bmp	500	1	BMVZ	500	1	blank2r.bmp	880	2	tolerant	880	1	!	1232	1	!	-1	0	0	0	0	0	0
2024-05-10	09:58:04	10:04:49	404244	6.6.1	4_exp_EVA_AWA_CON	21	B	A	Rpleas_acq	Same	Rpleas	1pleas	acq_US_unple_nomask	acq45_nomask	4	2	400	0	300	300	0	0	500	46	1	0	schön	tolerant	fair	retten	loyal	treu	schlecht	tyrannisch	faul	rächen	lasch	tot	freundlich	schlau	ehrlich	helfen	spielen	lachen	fanatisch	schroff	eitel	hindern	strafen	leiden	1	blank2r.bmp	0	1	+	0	1	blank2r.bmp	500	1	GKQX	500	1	blank2r.bmp	880	2	tyrannisch	880	1	!	1232	1	!	-1	0	0	0	0	0	0
2024-05-10	09:58:04	10:04:51	406413	6.6.1	4_exp_EVA_AWA_CON	21	B	A	Rpleas_acq	Same	Rpleas	1pleas	acq_US_unple_nomask	acq45_nomask	4	3	400	1	300	300	0	0	387	46	1	0	schön	tolerant	fair	retten	loyal	treu	schlecht	tyrannisch	faul	rächen	lasch	tot	freundlich	schlau	ehrlich	helfen	spielen	lachen	fanatisch	schroff	eitel	hindern	strafen	leiden	1	blank2r.bmp	0	1	+	0	1	blank2r.bmp	500	1	GKQX	500	1	blank2r.bmp	880	5	lasch	880	1	!	1232	1	!	1288	0	0	0	0	0	0
2024-05-10	09:58:04	10:04:53	408549	6.6.1	4_exp_EVA_AWA_CON	21	B	A	Rpleas_acq	Same	Rpleas	1pleas	acq_US_pleas_nomask	acq45_nomask	4	4	400	1	300	300	0	0	361	50	1	0	schön	tolerant	fair	retten	loyal	treu	schlecht	tyrannisch	faul	rächen	lasch	tot	freundlich	schlau	ehrlich	helfen	spielen	lachen	fanatisch	schroff	eitel	hindern	strafen	leiden	1	blank2r.bmp	0	1	+	0	1	blank2r.bmp	500	1	BMVZ	500	1	blank2r.bmp	880	6	treu	880	1	!	1232	1	!	1262	0	0	0	0	0	0
2024-05-10	09:58:04	10:04:56	410801	6.6.1	4_exp_EVA_AWA_CON	21	B	A	Rpleas_acq	Same	Rpleas	1pleas	acq_US_unple_nomask	acq45_nomask	4	5	400	0	300	300	0	0	476	46	1	0	schön	tolerant	fair	retten	loyal	treu	schlecht	tyrannisch	faul	rächen	lasch	tot	freundlich	schlau	ehrlich	helfen	spielen	lachen	fanatisch	schroff	eitel	hindern	strafen	leiden	1	blank2r.bmp	0	1	+	0	1	blank2r.bmp	500	1	GKQX	500	1	blank2r.bmp	880	3	faul	880	1	!	1232	1	!	-1	0	0	0	0	0	0
2024-05-10	09:58:04	10:04:58	412942	6.6.1	4_exp_EVA_AWA_CON	21	B	A	Rpleas_acq	Same	Rpleas	1pleas	acq_US_unple_nomask	acq45_nomask	4	6	400	1	300	300	0	0	361	46	1	0	schön	tolerant	fair	retten	loyal	treu	schlecht	tyrannisch	faul	rächen	lasch	tot	freundlich	schlau	ehrlich	helfen	spielen	lachen	fanatisch	schroff	eitel	hindern	strafen	leiden	1	blank2r.bmp	0	1	+	0	1	blank2r.bmp	500	1	GKQX	500	1	blank2r.bmp	880	1	schlecht	880	1	!	1233	1	!	1262	0	0	0	0	0	0
2024-05-10	09:58:04	10:05:00	415043	6.6.1	4_exp_EVA_AWA_CON	21	B	A	Rpleas_acq	Same	Rpleas	1pleas	acq_US_unple_nomask	acq45_nomask	4	7	400	0	300	300	0	0	323	50	0	0	schön	tolerant	fair	retten	loyal	treu	schlecht	tyrannisch	faul	rächen	lasch	tot	freundlich	schlau	ehrlich	helfen	spielen	lachen	fanatisch	schroff	eitel	hindern	strafen	leiden	1	blank2r.bmp	0	1	+	0	1	blank2r.bmp	500	1	GKQX	500	1	blank2r.bmp	880	6	tot	880	1	!	-1	1	!	-1	0	0	0	0	0	0
2024-05-10	09:58:04	10:05:02	417173	6.6.1	4_exp_EVA_AWA_CON	21	B	A	Rpleas_acq	Same	Rpleas	1pleas	acq_US_pleas_nomask	acq45_nomask	4	8	400	1	300	300	0	0	350	46	0	0	schön	tolerant	fair	retten	loyal	treu	schlecht	tyrannisch	faul	rächen	lasch	tot	freundlich	schlau	ehrlich	helfen	spielen	lachen	fanatisch	schroff	eitel	hindern	strafen	leiden	1	blank2r.bmp	0	1	+	0	1	blank2r.bmp	500	1	BMVZ	500	1	blank2r.bmp	880	3	fair	880	1	!	1232	1	!	1251	0	0	0	0	0	0
2024-05-10	09:58:04	10:05:04	419459	6.6.1	4_exp_EVA_AWA_CON	21	B	A	Rpleas_acq	Same	Rpleas	1pleas	acq_US_pleas_nomask	acq45_nomask	4	9	400	0	300	300	0	0	506	50	1	0	schön	tolerant	fair	retten	loyal	treu	schlecht	tyrannisch	faul	rächen	lasch	tot	freundlich	schlau	ehrlich	helfen	spielen	lachen	fanatisch	schroff	eitel	hindern	strafen	leiden	1	blank2r.bmp	0	1	+	0	1	blank2r.bmp	500	1	BMVZ	500	1	blank2r.bmp	880	4	retten	880	1	!	1232	1	!	-1	0	0	0	0	0	0
2024-05-10	09:58:04	10:05:06	421685	6.6.1	4_exp_EVA_AWA_CON	21	B	A	Rpleas_acq	Same	Rpleas	1pleas	acq_US_pleas_nomask	acq45_nomask	4	10	400	1	300	300	0	0	449	50	1	0	schön	tolerant	fair	retten	loyal	treu	schlecht	tyrannisch	faul	rächen	lasch	tot	freundlich	schlau	ehrlich	helfen	spielen	lachen	fanatisch	schroff	eitel	hindern	strafen	leiden	1	blank2r.bmp	0	1	+	0	1	blank2r.bmp	500	1	BMVZ	500	1	blank2r.bmp	880	1	schön	880	1	!	1232	1	!	1350	0	0	0	0	0	0
2024-05-10	09:58:04	10:05:09	423869	6.6.1	4_exp_EVA_AWA_CON	21	B	A	Rpleas_acq	Same	Rpleas	1pleas	acq_US_pleas_nomask	acq45_nomask	4	11	400	1	300	300	0	0	401	50	1	0	schön	tolerant	fair	retten	loyal	treu	schlecht	tyrannisch	faul	rächen	lasch	tot	freundlich	schlau	ehrlich	helfen	spielen	lachen	fanatisch	schroff	eitel	hindern	strafen	leiden	1	blank2r.bmp	0	1	+	0	1	blank2r.bmp	500	1	BMVZ	500	1	blank2r.bmp	880	5	loyal	880	1	!	1232	1	!	1302	0	0	0	0	0	0
2024-05-10	09:58:04	10:05:11	425988	6.6.1	4_exp_EVA_AWA_CON	21	B	A	Rpleas_acq	Same	Rpleas	1pleas	acq_US_pleas_nomask	acq45_nomask	4	12	400	1	300	300	0	0	340	50	1	0	schön	tolerant	fair	retten	loyal	treu	schlecht	tyrannisch	faul	rächen	lasch	tot	freundlich	schlau	ehrlich	helfen	spielen	lachen	fanatisch	schroff	eitel	hindern	strafen	leiden	1	blank2r.bmp	0	1	+	0	1	blank2r.bmp	500	1	BMVZ	500	1	blank2r.bmp	880	1	schön	880	1	!	1232	1	!	1239	0	0	0	0	0	0
2024-05-10	09:58:04	10:05:13	428213	6.6.1	4_exp_EVA_AWA_CON	21	B	A	Rpleas_acq	Same	Rpleas	1pleas	acq_US_unple_nomask	acq45_nomask	4	13	400	1	300	300	0	0	443	46	1	0	schön	tolerant	fair	retten	loyal	treu	schlecht	tyrannisch	faul	rächen	lasch	tot	freundlich	schlau	ehrlich	helfen	spielen	lachen	fanatisch	schroff	eitel	hindern	strafen	leiden	1	blank2r.bmp	0	1	+	0	1	blank2r.bmp	500	1	GKQX	500	1	blank2r.bmp	880	4	rächen	880	1	!	1232	1	!	1344	0	0	0	0	0	0
2024-05-10	09:58:04	10:05:15	430373	6.6.1	4_exp_EVA_AWA_CON	21	B	A	Rpleas_acq	Same	Rpleas	1pleas	acq_US_pleas_nomask	acq45_nomask	4	14	400	1	300	300	0	0	381	50	1	0	schön	tolerant	fair	retten	loyal	treu	schlecht	tyrannisch	faul	rächen	lasch	tot	freundlich	schlau	ehrlich	helfen	spielen	lachen	fanatisch	schroff	eitel	hindern	strafen	leiden	1	blank2r.bmp	0	1	+	0	1	blank2r.bmp	500	1	BMVZ	500	1	blank2r.bmp	880	3	fair	880	1	!	1232	1	!	1283	0	0	0	0	0	0
2024-05-10	09:58:04	10:05:17	432573	6.6.1	4_exp_EVA_AWA_CON	21	B	A	Rpleas_acq	Same	Rpleas	1pleas	acq_US_unple_nomask	acq45_nomask	4	15	400	1	300	300	0	0	420	46	1	0	schön	tolerant	fair	retten	loyal	treu	schlecht	tyrannisch	faul	rächen	lasch	tot	freundlich	schlau	ehrlich	helfen	spielen	lachen	fanatisch	schroff	eitel	hindern	strafen	leiden	1	blank2r.bmp	0	1	+	0	1	blank2r.bmp	500	1	GKQX	500	1	blank2r.bmp	880	3	faul	880	1	!	1232	1	!	1321	0	0	0	0	0	0
2024-05-10	09:58:04	10:05:19	434726	6.6.1	4_exp_EVA_AWA_CON	21	B	A	Rpleas_acq	Same	Rpleas	1pleas	acq_US_unple_nomask	acq45_nomask	4	16	400	1	300	300	0	0	370	46	1	0	schön	tolerant	fair	retten	loyal	treu	schlecht	tyrannisch	faul	rächen	lasch	tot	freundlich	schlau	ehrlich	helfen	spielen	lachen	fanatisch	schroff	eitel	hindern	strafen	leiden	1	blank2r.bmp	0	1	+	0	1	blank2r.bmp	500	1	GKQX	500	1	blank2r.bmp	880	5	lasch	880	1	!	1232	1	!	1272	0	0	0	0	0	0
2024-05-10	09:58:04	10:05:22	436861	6.6.1	4_exp_EVA_AWA_CON	21	B	A	Rpleas_acq	Same	Rpleas	1pleas	acq_US_pleas_nomask	acq45_nomask	4	17	400	1	300	300	0	0	355	46	0	0	schön	tolerant	fair	retten	loyal	treu	schlecht	tyrannisch	faul	rächen	lasch	tot	freundlich	schlau	ehrlich	helfen	spielen	lachen	fanatisch	schroff	eitel	hindern	strafen	leiden	1	blank2r.bmp	0	1	+	0	1	blank2r.bmp	500	1	BMVZ	500	1	blank2r.bmp	880	6	treu	880	1	!	1232	1	!	1256	0	0	0	0	0	0
2024-05-10	09:58:04	10:05:24	438947	6.6.1	4_exp_EVA_AWA_CON	21	B	A	Rpleas_acq	Same	Rpleas	1pleas	acq_US_unple_nomask	acq45_nomask	4	18	400	0	300	300	0	0	312	50	0	0	schön	tolerant	fair	retten	loyal	treu	schlecht	tyrannisch	faul	rächen	lasch	tot	freundlich	schlau	ehrlich	helfen	spielen	lachen	fanatisch	schroff	eitel	hindern	strafen	leiden	1	blank2r.bmp	0	1	+	0	1	blank2r.bmp	500	1	GKQX	500	1	blank2r.bmp	880	4	rächen	880	1	!	-1	1	!	-1	0	0	0	0	0	0
2024-05-10	09:58:04	10:05:26	441149	6.6.1	4_exp_EVA_AWA_CON	21	B	A	Rpleas_acq	Same	Rpleas	1pleas	acq_US_unple_nomask	acq45_nomask	4	19	400	1	300	300	0	0	420	46	1	0	schön	tolerant	fair	retten	loyal	treu	schlecht	tyrannisch	faul	rächen	lasch	tot	freundlich	schlau	ehrlich	helfen	spielen	lachen	fanatisch	schroff	eitel	hindern	strafen	leiden	1	blank2r.bmp	0	1	+	0	1	blank2r.bmp	500	1	GKQX	500	1	blank2r.bmp	880	6	tot	880	1	!	1232	1	!	1322	0	0	0	0	0	0
2024-05-10	09:58:04	10:05:28	443333	6.6.1	4_exp_EVA_AWA_CON	21	B	A	Rpleas_acq	Same	Rpleas	1pleas	acq_US_unple_nomask	acq45_nomask	4	20	400	1	300	300	0	0	403	46	1	0	schön	tolerant	fair	retten	loyal	treu	schlecht	tyrannisch	faul	rächen	lasch	tot	freundlich	schlau	ehrlich	helfen	spielen	lachen	fanatisch	schroff	eitel	hindern	strafen	leiden	1	blank2r.bmp	0	1	+	0	1	blank2r.bmp	500	1	GKQX	500	1	blank2r.bmp	880	2	tyrannisch	880	1	!	1232	1	!	1304	0	0	0	0	0	0
2024-05-10	09:58:04	10:05:30	445493	6.6.1	4_exp_EVA_AWA_CON	21	B	A	Rpleas_acq	Same	Rpleas	1pleas	acq_US_unple_nomask	acq45_nomask	4	21	400	1	300	300	0	0	382	46	1	0	schön	tolerant	fair	retten	loyal	treu	schlecht	tyrannisch	faul	rächen	lasch	tot	freundlich	schlau	ehrlich	helfen	spielen	lachen	fanatisch	schroff	eitel	hindern	strafen	leiden	1	blank2r.bmp	0	1	+	0	1	blank2r.bmp	500	1	GKQX	500	1	blank2r.bmp	880	1	schlecht	880	1	!	1232	1	!	1282	0	0	0	0	0	0
2024-05-10	09:58:04	10:05:32	447654	6.6.1	4_exp_EVA_AWA_CON	21	B	A	Rpleas_acq	Same	Rpleas	1pleas	acq_US_pleas_nomask	acq45_nomask	4	22	400	1	300	300	0	0	380	46	0	0	schön	tolerant	fair	retten	loyal	treu	schlecht	tyrannisch	faul	rächen	lasch	tot	freundlich	schlau	ehrlich	helfen	spielen	lachen	fanatisch	schroff	eitel	hindern	strafen	leiden	1	blank2r.bmp	0	1	+	0	1	blank2r.bmp	500	1	BMVZ	500	1	blank2r.bmp	880	4	retten	880	1	!	1232	1	!	1282	0	0	0	0	0	0
2024-05-10	09:58:04	10:05:35	449837	6.6.1	4_exp_EVA_AWA_CON	21	B	A	Rpleas_acq	Same	Rpleas	1pleas	acq_US_pleas_nomask	acq45_nomask	4	23	400	1	300	300	0	0	403	50	1	0	schön	tolerant	fair	retten	loyal	treu	schlecht	tyrannisch	faul	rächen	lasch	tot	freundlich	schlau	ehrlich	helfen	spielen	lachen	fanatisch	schroff	eitel	hindern	strafen	leiden	1	blank2r.bmp	0	1	+	0	1	blank2r.bmp	500	1	BMVZ	500	1	blank2r.bmp	880	5	loyal	880	1	!	1232	1	!	1304	0	0	0	0	0	0
2024-05-10	09:58:04	10:05:37	452005	6.6.1	4_exp_EVA_AWA_CON	21	B	A	Rpleas_acq	Same	Rpleas	1pleas	acq_US_pleas_nomask	acq45_nomask	4	24	400	1	300	300	0	0	390	50	1	0	schön	tolerant	fair	retten	loyal	treu	schlecht	tyrannisch	faul	rächen	lasch	tot	freundlich	schlau	ehrlich	helfen	spielen	lachen	fanatisch	schroff	eitel	hindern	strafen	leiden	1	blank2r.bmp	0	1	+	0	1	blank2r.bmp	500	1	BMVZ	500	1	blank2r.bmp	880	2	tolerant	880	1	!	1232	1	!	1290	0	0	0	0	0	0
2024-05-10	09:58:04	10:05:39	454173	6.6.1	4_exp_EVA_AWA_CON	21	B	A	Rpleas_acq	Same	Rpleas	1pleas	acq_US_unple_nomask	acq45_nomask	4	25	400	1	300	300	0	0	386	46	1	0	schön	tolerant	fair	retten	loyal	treu	schlecht	tyrannisch	faul	rächen	lasch	tot	freundlich	schlau	ehrlich	helfen	spielen	lachen	fanatisch	schroff	eitel	hindern	strafen	leiden	1	blank2r.bmp	0	1	+	0	1	blank2r.bmp	500	1	GKQX	500	1	blank2r.bmp	880	3	faul	880	1	!	1232	1	!	1287	0	0	0	0	0	0
2024-05-10	09:58:04	10:05:41	456309	6.6.1	4_exp_EVA_AWA_CON	21	B	A	Rpleas_acq	Same	Rpleas	1pleas	acq_US_unple_nomask	acq45_nomask	4	26	400	1	300	300	0	0	361	50	0	0	schön	tolerant	fair	retten	loyal	treu	schlecht	tyrannisch	faul	rächen	lasch	tot	freundlich	schlau	ehrlich	helfen	spielen	lachen	fanatisch	schroff	eitel	hindern	strafen	leiden	1	blank2r.bmp	0	1	+	0	1	blank2r.bmp	500	1	GKQX	500	1	blank2r.bmp	880	6	tot	880	1	!	1233	1	!	1262	0	0	0	0	0	0
2024-05-10	09:58:04	10:05:43	458419	6.6.1	4_exp_EVA_AWA_CON	21	B	A	Rpleas_acq	Same	Rpleas	1pleas	acq_US_pleas_nomask	acq45_nomask	4	27	400	0	300	300	0	0	331	46	0	0	schön	tolerant	fair	retten	loyal	treu	schlecht	tyrannisch	faul	rächen	lasch	tot	freundlich	schlau	ehrlich	helfen	spielen	lachen	fanatisch	schroff	eitel	hindern	strafen	leiden	1	blank2r.bmp	0	1	+	0	1	blank2r.bmp	500	1	BMVZ	500	1	blank2r.bmp	880	5	loyal	880	1	!	-1	1	!	-1	0	0	0	0	0	0
2024-05-10	09:58:04	10:05:45	460549	6.6.1	4_exp_EVA_AWA_CON	21	B	A	Rpleas_acq	Same	Rpleas	1pleas	acq_US_unple_nomask	acq45_nomask	4	28	400	1	300	300	0	0	348	46	1	0	schön	tolerant	fair	retten	loyal	treu	schlecht	tyrannisch	faul	rächen	lasch	tot	freundlich	schlau	ehrlich	helfen	spielen	lachen	fanatisch	schroff	eitel	hindern	strafen	leiden	1	blank2r.bmp	0	1	+	0	1	blank2r.bmp	500	1	GKQX	500	1	blank2r.bmp	880	2	tyrannisch	880	1	!	1232	1	!	1249	0	0	0	0	0	0
2024-05-10	09:58:04	10:05:47	462717	6.6.1	4_exp_EVA_AWA_CON	21	B	A	Rpleas_acq	Same	Rpleas	1pleas	acq_US_unple_nomask	acq45_nomask	4	29	400	1	300	300	0	0	385	50	0	0	schön	tolerant	fair	retten	loyal	treu	schlecht	tyrannisch	faul	rächen	lasch	tot	freundlich	schlau	ehrlich	helfen	spielen	lachen	fanatisch	schroff	eitel	hindern	strafen	leiden	1	blank2r.bmp	0	1	+	0	1	blank2r.bmp	500	1	GKQX	500	1	blank2r.bmp	880	4	rächen	880	1	!	1232	1	!	1285	0	0	0	0	0	0
2024-05-10	09:58:04	10:05:50	464909	6.6.1	4_exp_EVA_AWA_CON	21	B	A	Rpleas_acq	Same	Rpleas	1pleas	acq_US_pleas_nomask	acq45_nomask	4	30	400	1	300	300	0	0	414	50	1	0	schön	tolerant	fair	retten	loyal	treu	schlecht	tyrannisch	faul	rächen	lasch	tot	freundlich	schlau	ehrlich	helfen	spielen	lachen	fanatisch	schroff	eitel	hindern	strafen	leiden	1	blank2r.bmp	0	1	+	0	1	blank2r.bmp	500	1	BMVZ	500	1	blank2r.bmp	880	1	schön	880	1	!	1232	1	!	1316	0	0	0	0	0	0
2024-05-10	09:58:04	10:05:52	466987	6.6.1	4_exp_EVA_AWA_CON	21	B	A	Rpleas_acq	Same	Rpleas	1pleas	acq_US_pleas_nomask	acq45_nomask	4	31	400	0	300	300	0	0	304	46	0	0	schön	tolerant	fair	retten	loyal	treu	schlecht	tyrannisch	faul	rächen	lasch	tot	freundlich	schlau	ehrlich	helfen	spielen	lachen	fanatisch	schroff	eitel	hindern	strafen	leiden	1	blank2r.bmp	0	1	+	0	1	blank2r.bmp	500	1	BMVZ	500	1	blank2r.bmp	880	4	retten	880	1	!	-1	1	!	-1	0	0	0	0	0	0
2024-05-10	09:58:04	10:05:54	469149	6.6.1	4_exp_EVA_AWA_CON	21	B	A	Rpleas_acq	Same	Rpleas	1pleas	acq_US_pleas_nomask	acq45_nomask	4	32	400	1	300	300	0	0	382	46	0	0	schön	tolerant	fair	retten	loyal	treu	schlecht	tyrannisch	faul	rächen	lasch	tot	freundlich	schlau	ehrlich	helfen	spielen	lachen	fanatisch	schroff	eitel	hindern	strafen	leiden	1	blank2r.bmp	0	1	+	0	1	blank2r.bmp	500	1	BMVZ	500	1	blank2r.bmp	880	2	tolerant	880	1	!	1232	1	!	1283	0	0	0	0	0	0
2024-05-10	09:58:04	10:05:56	471188	6.6.1	4_exp_EVA_AWA_CON	21	B	A	Rpleas_acq	Same	Rpleas	1pleas	acq_US_unple_nomask	acq45_nomask	4	33	400	0	300	300	0	0	261	46	1	0	schön	tolerant	fair	retten	loyal	treu	schlecht	tyrannisch	faul	rächen	lasch	tot	freundlich	schlau	ehrlich	helfen	spielen	lachen	fanatisch	schroff	eitel	hindern	strafen	leiden	1	blank2r.bmp	0	1	+	0	1	blank2r.bmp	500	1	GKQX	500	1	blank2r.bmp	880	1	schlecht	880	1	!	-1	1	!	-1	0	0	0	0	0	0
2024-05-10	09:58:04	10:05:58	473381	6.6.1	4_exp_EVA_AWA_CON	21	B	A	Rpleas_acq	Same	Rpleas	1pleas	acq_US_unple_nomask	acq45_nomask	4	34	400	1	300	300	0	0	412	46	1	0	schön	tolerant	fair	retten	loyal	treu	schlecht	tyrannisch	faul	rächen	lasch	tot	freundlich	schlau	ehrlich	helfen	spielen	lachen	fanatisch	schroff	eitel	hindern	strafen	leiden	1	blank2r.bmp	0	1	+	0	1	blank2r.bmp	500	1	GKQX	500	1	blank2r.bmp	880	5	lasch	880	1	!	1233	1	!	1312	0	0	0	0	0	0
2024-05-10	09:58:04	10:06:00	475582	6.6.1	4_exp_EVA_AWA_CON	21	B	A	Rpleas_acq	Same	Rpleas	1pleas	acq_US_pleas_nomask	acq45_nomask	4	35	400	1	300	300	0	0	420	50	1	0	schön	tolerant	fair	retten	loyal	treu	schlecht	tyrannisch	faul	rächen	lasch	tot	freundlich	schlau	ehrlich	helfen	spielen	lachen	fanatisch	schroff	eitel	hindern	strafen	leiden	1	blank2r.bmp	0	1	+	0	1	blank2r.bmp	500	1	BMVZ	500	1	blank2r.bmp	880	3	fair	880	1	!	1233	1	!	1322	0	0	0	0	0	0
2024-05-10	09:58:04	10:06:02	477733	6.6.1	4_exp_EVA_AWA_CON	21	B	A	Rpleas_acq	Same	Rpleas	1pleas	acq_US_pleas_nomask	acq45_nomask	4	36	400	1	300	300	0	0	371	50	1	0	schön	tolerant	fair	retten	loyal	treu	schlecht	tyrannisch	faul	rächen	lasch	tot	freundlich	schlau	ehrlich	helfen	spielen	lachen	fanatisch	schroff	eitel	hindern	strafen	leiden	1	blank2r.bmp	0	1	+	0	1	blank2r.bmp	500	1	BMVZ	500	1	blank2r.bmp	880	6	treu	880	1	!	1232	1	!	1272	0	0	0	0	0	0
2024-05-10	09:58:04	10:06:19	493822	6.6.1	4_exp_EVA_AWA_CON	21	B	A	Rpleas_acq	Same	Rpleas	1pleas	acq_US_unple_nomask	acq45_nomask	5	1	400	1	300	300	0	0	469	46	1	0	schön	tolerant	fair	retten	loyal	treu	schlecht	tyrannisch	faul	rächen	lasch	tot	freundlich	schlau	ehrlich	helfen	spielen	lachen	fanatisch	schroff	eitel	hindern	strafen	leiden	1	blank2r.bmp	0	1	+	0	1	blank2r.bmp	500	1	GKQX	500	1	blank2r.bmp	880	2	tyrannisch	880	1	!	1232	1	!	1369	0	0	0	0	0	0
2024-05-10	09:58:04	10:06:21	495973	6.6.1	4_exp_EVA_AWA_CON	21	B	A	Rpleas_acq	Same	Rpleas	1pleas	acq_US_pleas_nomask	acq45_nomask	5	2	400	1	300	300	0	0	369	46	0	0	schön	tolerant	fair	retten	loyal	treu	schlecht	tyrannisch	faul	rächen	lasch	tot	freundlich	schlau	ehrlich	helfen	spielen	lachen	fanatisch	schroff	eitel	hindern	strafen	leiden	1	blank2r.bmp	0	1	+	0	1	blank2r.bmp	500	1	BMVZ	500	1	blank2r.bmp	880	3	fair	880	1	!	1232	1	!	1270	0	0	0	0	0	0
2024-05-10	09:58:04	10:06:23	498091	6.6.1	4_exp_EVA_AWA_CON	21	B	A	Rpleas_acq	Same	Rpleas	1pleas	acq_US_unple_nomask	acq45_nomask	5	3	400	1	300	300	0	0	338	50	0	0	schön	tolerant	fair	retten	loyal	treu	schlecht	tyrannisch	faul	rächen	lasch	tot	freundlich	schlau	ehrlich	helfen	spielen	lachen	fanatisch	schroff	eitel	hindern	strafen	leiden	1	blank2r.bmp	0	1	+	0	1	blank2r.bmp	500	1	GKQX	500	1	blank2r.bmp	880	3	faul	880	1	!	1233	1	!	1237	0	0	0	0	0	0
2024-05-10	09:58:04	10:06:25	500261	6.6.1	4_exp_EVA_AWA_CON	21	B	A	Rpleas_acq	Same	Rpleas	1pleas	acq_US_pleas_nomask	acq45_nomask	5	4	400	1	300	300	0	0	395	50	1	0	schön	tolerant	fair	retten	loyal	treu	schlecht	tyrannisch	faul	rächen	lasch	tot	freundlich	schlau	ehrlich	helfen	spielen	lachen	fanatisch	schroff	eitel	hindern	strafen	leiden	1	blank2r.bmp	0	1	+	0	1	blank2r.bmp	500	1	BMVZ	500	1	blank2r.bmp	880	6	treu	880	1	!	1232	1	!	1295	0	0	0	0	0	0
2024-05-10	09:58:04	10:06:27	502445	6.6.1	4_exp_EVA_AWA_CON	21	B	A	Rpleas_acq	Same	Rpleas	1pleas	acq_US_pleas_nomask	acq45_nomask	5	5	400	1	300	300	0	0	407	46	0	0	schön	tolerant	fair	retten	loyal	treu	schlecht	tyrannisch	faul	rächen	lasch	tot	freundlich	schlau	ehrlich	helfen	spielen	lachen	fanatisch	schroff	eitel	hindern	strafen	leiden	1	blank2r.bmp	0	1	+	0	1	blank2r.bmp	500	1	BMVZ	500	1	blank2r.bmp	880	4	retten	880	1	!	1232	1	!	1308	0	0	0	0	0	0
2024-05-10	09:58:04	10:06:29	504653	6.6.1	4_exp_EVA_AWA_CON	21	B	A	Rpleas_acq	Same	Rpleas	1pleas	acq_US_pleas_nomask	acq45_nomask	5	6	400	1	300	300	0	0	434	46	0	0	schön	tolerant	fair	retten	loyal	treu	schlecht	tyrannisch	faul	rächen	lasch	tot	freundlich	schlau	ehrlich	helfen	spielen	lachen	fanatisch	schroff	eitel	hindern	strafen	leiden	1	blank2r.bmp	0	1	+	0	1	blank2r.bmp	500	1	BMVZ	500	1	blank2r.bmp	880	5	loyal	880	1	!	1232	1	!	1335	0	0	0	0	0	0
2024-05-10	09:58:04	10:06:31	506789	6.6.1	4_exp_EVA_AWA_CON	21	B	A	Rpleas_acq	Same	Rpleas	1pleas	acq_US_pleas_nomask	acq45_nomask	5	7	400	1	300	300	0	0	358	50	1	0	schön	tolerant	fair	retten	loyal	treu	schlecht	tyrannisch	faul	rächen	lasch	tot	freundlich	schlau	ehrlich	helfen	spielen	lachen	fanatisch	schroff	eitel	hindern	strafen	leiden	1	blank2r.bmp	0	1	+	0	1	blank2r.bmp	500	1	BMVZ	500	1	blank2r.bmp	880	1	schön	880	1	!	1232	1	!	1259	0	0	0	0	0	0
2024-05-10	09:58:04	10:06:34	508989	6.6.1	4_exp_EVA_AWA_CON	21	B	A	Rpleas_acq	Same	Rpleas	1pleas	acq_US_unple_nomask	acq45_nomask	5	8	400	1	300	300	0	0	417	46	1	0	schön	tolerant	fair	retten	loyal	treu	schlecht	tyrannisch	faul	rächen	lasch	tot	freundlich	schlau	ehrlich	helfen	spielen	lachen	fanatisch	schroff	eitel	hindern	strafen	leiden	1	blank2r.bmp	0	1	+	0	1	blank2r.bmp	500	1	GKQX	500	1	blank2r.bmp	880	5	lasch	880	1	!	1232	1	!	1318	0	0	0	0	0	0
2024-05-10	09:58:04	10:06:36	511165	6.6.1	4_exp_EVA_AWA_CON	21	B	A	Rpleas_acq	Same	Rpleas	1pleas	acq_US_pleas_nomask	acq45_nomask	5	9	400	1	300	300	0	0	401	46	0	0	schön	tolerant	fair	retten	loyal	treu	schlecht	tyrannisch	faul	rächen	lasch	tot	freundlich	schlau	ehrlich	helfen	spielen	lachen	fanatisch	schroff	eitel	hindern	strafen	leiden	1	blank2r.bmp	0	1	+	0	1	blank2r.bmp	500	1	BMVZ	500	1	blank2r.bmp	880	2	tolerant	880	1	!	1232	1	!	1302	0	0	0	0	0	0
2024-05-10	09:58:04	10:06:38	513357	6.6.1	4_exp_EVA_AWA_CON	21	B	A	Rpleas_acq	Same	Rpleas	1pleas	acq_US_unple_nomask	acq45_nomask	5	10	400	1	300	300	0	0	412	50	0	0	schön	tolerant	fair	retten	loyal	treu	schlecht	tyrannisch	faul	rächen	lasch	tot	freundlich	schlau	ehrlich	helfen	spielen	lachen	fanatisch	schroff	eitel	hindern	strafen	leiden	1	blank2r.bmp	0	1	+	0	1	blank2r.bmp	500	1	GKQX	500	1	blank2r.bmp	880	6	tot	880	1	!	1232	1	!	1313	0	0	0	0	0	0
2024-05-10	09:58:04	10:06:40	515501	6.6.1	4_exp_EVA_AWA_CON	21	B	A	Rpleas_acq	Same	Rpleas	1pleas	acq_US_unple_nomask	acq45_nomask	5	11	400	1	300	300	0	0	365	50	0	0	schön	tolerant	fair	retten	loyal	treu	schlecht	tyrannisch	faul	rächen	lasch	tot	freundlich	schlau	ehrlich	helfen	spielen	lachen	fanatisch	schroff	eitel	hindern	strafen	leiden	1	blank2r.bmp	0	1	+	0	1	blank2r.bmp	500	1	GKQX	500	1	blank2r.bmp	880	1	schlecht	880	1	!	1232	1	!	1265	0	0	0	0	0	0
2024-05-10	09:58:04	10:06:42	517693	6.6.1	4_exp_EVA_AWA_CON	21	B	A	Rpleas_acq	Same	Rpleas	1pleas	acq_US_unple_nomask	acq45_nomask	5	12	400	1	300	300	0	0	414	46	1	0	schön	tolerant	fair	retten	loyal	treu	schlecht	tyrannisch	faul	rächen	lasch	tot	freundlich	schlau	ehrlich	helfen	spielen	lachen	fanatisch	schroff	eitel	hindern	strafen	leiden	1	blank2r.bmp	0	1	+	0	1	blank2r.bmp	500	1	GKQX	500	1	blank2r.bmp	880	4	rächen	880	1	!	1232	1	!	1316	0	0	0	0	0	0
2024-05-10	09:58:04	10:06:45	519811	6.6.1	4_exp_EVA_AWA_CON	21	B	A	Rpleas_acq	Same	Rpleas	1pleas	acq_US_pleas_nomask	acq45_nomask	5	13	400	1	300	300	0	0	344	50	1	0	schön	tolerant	fair	retten	loyal	treu	schlecht	tyrannisch	faul	rächen	lasch	tot	freundlich	schlau	ehrlich	helfen	spielen	lachen	fanatisch	schroff	eitel	hindern	strafen	leiden	1	blank2r.bmp	0	1	+	0	1	blank2r.bmp	500	1	BMVZ	500	1	blank2r.bmp	880	1	schön	880	1	!	1232	1	!	1243	0	0	0	0	0	0
2024-05-10	09:58:04	10:06:47	521907	6.6.1	4_exp_EVA_AWA_CON	21	B	A	Rpleas_acq	Same	Rpleas	1pleas	acq_US_unple_nomask	acq45_nomask	5	14	400	0	300	300	0	0	319	46	1	0	schön	tolerant	fair	retten	loyal	treu	schlecht	tyrannisch	faul	rächen	lasch	tot	freundlich	schlau	ehrlich	helfen	spielen	lachen	fanatisch	schroff	eitel	hindern	strafen	leiden	1	blank2r.bmp	0	1	+	0	1	blank2r.bmp	500	1	GKQX	500	1	blank2r.bmp	880	6	tot	880	1	!	-1	1	!	-1	0	0	0	0	0	0
2024-05-10	09:58:04	10:06:49	524141	6.6.1	4_exp_EVA_AWA_CON	21	B	A	Rpleas_acq	Same	Rpleas	1pleas	acq_US_unple_nomask	acq45_nomask	5	15	400	1	300	300	0	0	459	46	1	0	schön	tolerant	fair	retten	loyal	treu	schlecht	tyrannisch	faul	rächen	lasch	tot	freundlich	schlau	ehrlich	helfen	spielen	lachen	fanatisch	schroff	eitel	hindern	strafen	leiden	1	blank2r.bmp	0	1	+	0	1	blank2r.bmp	500	1	GKQX	500	1	blank2r.bmp	880	3	faul	880	1	!	1232	1	!	1360	0	0	0	0	0	0
2024-05-10	09:58:04	10:06:51	526317	6.6.1	4_exp_EVA_AWA_CON	21	B	A	Rpleas_acq	Same	Rpleas	1pleas	acq_US_unple_nomask	acq45_nomask	5	16	400	1	300	300	0	0	394	46	1	0	schön	tolerant	fair	retten	loyal	treu	schlecht	tyrannisch	faul	rächen	lasch	tot	freundlich	schlau	ehrlich	helfen	spielen	lachen	fanatisch	schroff	eitel	hindern	strafen	leiden	1	blank2r.bmp	0	1	+	0	1	blank2r.bmp	500	1	GKQX	500	1	blank2r.bmp	880	2	tyrannisch	880	1	!	1233	1	!	1295	0	0	0	0	0	0
2024-05-10	09:58:04	10:06:53	528604	6.6.1	4_exp_EVA_AWA_CON	21	B	A	Rpleas_acq	Same	Rpleas	1pleas	acq_US_pleas_nomask	acq45_nomask	5	17	400	0	300	300	0	0	510	50	1	0	schön	tolerant	fair	retten	loyal	treu	schlecht	tyrannisch	faul	rächen	lasch	tot	freundlich	schlau	ehrlich	helfen	spielen	lachen	fanatisch	schroff	eitel	hindern	strafen	leiden	1	blank2r.bmp	0	1	+	0	1	blank2r.bmp	500	1	BMVZ	500	1	blank2r.bmp	880	2	tolerant	880	1	!	1232	1	!	-1	0	0	0	0	0	0
2024-05-10	09:58:04	10:06:55	530781	6.6.1	4_exp_EVA_AWA_CON	21	B	A	Rpleas_acq	Same	Rpleas	1pleas	acq_US_pleas_nomask	acq45_nomask	5	18	400	1	300	300	0	0	395	46	0	0	schön	tolerant	fair	retten	loyal	treu	schlecht	tyrannisch	faul	rächen	lasch	tot	freundlich	schlau	ehrlich	helfen	spielen	lachen	fanatisch	schroff	eitel	hindern	strafen	leiden	1	blank2r.bmp	0	1	+	0	1	blank2r.bmp	500	1	BMVZ	500	1	blank2r.bmp	880	6	treu	880	1	!	1233	1	!	1296	0	0	0	0	0	0
2024-05-10	09:58:04	10:06:58	532909	6.6.1	4_exp_EVA_AWA_CON	21	B	A	Rpleas_acq	Same	Rpleas	1pleas	acq_US_unple_nomask	acq45_nomask	5	19	400	1	300	300	0	0	352	46	1	0	schön	tolerant	fair	retten	loyal	treu	schlecht	tyrannisch	faul	rächen	lasch	tot	freundlich	schlau	ehrlich	helfen	spielen	lachen	fanatisch	schroff	eitel	hindern	strafen	leiden	1	blank2r.bmp	0	1	+	0	1	blank2r.bmp	500	1	GKQX	500	1	blank2r.bmp	880	1	schlecht	880	1	!	1232	1	!	1253	0	0	0	0	0	0
2024-05-10	09:58:04	10:07:00	535157	6.6.1	4_exp_EVA_AWA_CON	21	B	A	Rpleas_acq	Same	Rpleas	1pleas	acq_US_unple_nomask	acq45_nomask	5	20	400	1	300	300	0	0	468	46	1	0	schön	tolerant	fair	retten	loyal	treu	schlecht	tyrannisch	faul	rächen	lasch	tot	freundlich	schlau	ehrlich	helfen	spielen	lachen	fanatisch	schroff	eitel	hindern	strafen	leiden	1	blank2r.bmp	0	1	+	0	1	blank2r.bmp	500	1	GKQX	500	1	blank2r.bmp	880	4	rächen	880	1	!	1232	1	!	1369	0	0	0	0	0	0
2024-05-10	09:58:04	10:07:02	537333	6.6.1	4_exp_EVA_AWA_CON	21	B	A	Rpleas_acq	Same	Rpleas	1pleas	acq_US_unple_nomask	acq45_nomask	5	21	400	1	300	300	0	0	393	46	1	0	schön	tolerant	fair	retten	loyal	treu	schlecht	tyrannisch	faul	rächen	lasch	tot	freundlich	schlau	ehrlich	helfen	spielen	lachen	fanatisch	schroff	eitel	hindern	strafen	leiden	1	blank2r.bmp	0	1	+	0	1	blank2r.bmp	500	1	GKQX	500	1	blank2r.bmp	880	5	lasch	880	1	!	1233	1	!	1294	0	0	0	0	0	0
2024-05-10	09:58:04	10:07:04	539557	6.6.1	4_exp_EVA_AWA_CON	21	B	A	Rpleas_acq	Same	Rpleas	1pleas	acq_US_unple_nomask	acq45_nomask	5	22	400	1	300	300	0	0	445	46	1	0	schön	tolerant	fair	retten	loyal	treu	schlecht	tyrannisch	faul	rächen	lasch	tot	freundlich	schlau	ehrlich	helfen	spielen	lachen	fanatisch	schroff	eitel	hindern	strafen	leiden	1	blank2r.bmp	0	1	+	0	1	blank2r.bmp	500	1	GKQX	500	1	blank2r.bmp	880	2	tyrannisch	880	1	!	1233	1	!	1346	0	0	0	0	0	0
2024-05-10	09:58:04	10:07:06	541757	6.6.1	4_exp_EVA_AWA_CON	21	B	A	Rpleas_acq	Same	Rpleas	1pleas	acq_US_unple_nomask	acq45_nomask	5	23	400	1	300	300	0	0	423	46	1	0	schön	tolerant	fair	retten	loyal	treu	schlecht	tyrannisch	faul	rächen	lasch	tot	freundlich	schlau	ehrlich	helfen	spielen	lachen	fanatisch	schroff	eitel	hindern	strafen	leiden	1	blank2r.bmp	0	1	+	0	1	blank2r.bmp	500	1	GKQX	500	1	blank2r.bmp	880	3	faul	880	1	!	1232	1	!	1325	0	0	0	0	0	0
2024-05-10	09:58:04	10:07:09	543867	6.6.1	4_exp_EVA_AWA_CON	21	B	A	Rpleas_acq	Same	Rpleas	1pleas	acq_US_pleas_nomask	acq45_nomask	5	24	400	1	300	300	0	0	334	46	0	0	schön	tolerant	fair	retten	loyal	treu	schlecht	tyrannisch	faul	rächen	lasch	tot	freundlich	schlau	ehrlich	helfen	spielen	lachen	fanatisch	schroff	eitel	hindern	strafen	leiden	1	blank2r.bmp	0	1	+	0	1	blank2r.bmp	500	1	BMVZ	500	1	blank2r.bmp	880	5	loyal	880	1	!	1232	1	!	1234	0	0	0	0	0	0
2024-05-10	09:58:04	10:07:11	546117	6.6.1	4_exp_EVA_AWA_CON	21	B	A	Rpleas_acq	Same	Rpleas	1pleas	acq_US_pleas_nomask	acq45_nomask	5	25	400	1	300	300	0	0	471	50	1	0	schön	tolerant	fair	retten	loyal	treu	schlecht	tyrannisch	faul	rächen	lasch	tot	freundlich	schlau	ehrlich	helfen	spielen	lachen	fanatisch	schroff	eitel	hindern	strafen	leiden	1	blank2r.bmp	0	1	+	0	1	blank2r.bmp	500	1	BMVZ	500	1	blank2r.bmp	880	4	retten	880	1	!	1232	1	!	1373	0	0	0	0	0	0
2024-05-10	09:58:04	10:07:13	548301	6.6.1	4_exp_EVA_AWA_CON	21	B	A	Rpleas_acq	Same	Rpleas	1pleas	acq_US_unple_nomask	acq45_nomask	5	26	400	1	300	300	0	0	404	46	1	0	schön	tolerant	fair	retten	loyal	treu	schlecht	tyrannisch	faul	rächen	lasch	tot	freundlich	schlau	ehrlich	helfen	spielen	lachen	fanatisch	schroff	eitel	hindern	strafen	leiden	1	blank2r.bmp	0	1	+	0	1	blank2r.bmp	500	1	GKQX	500	1	blank2r.bmp	880	5	lasch	880	1	!	1232	1	!	1304	0	0	0	0	0	0
2024-05-10	09:58:04	10:07:15	550461	6.6.1	4_exp_EVA_AWA_CON	21	B	A	Rpleas_acq	Same	Rpleas	1pleas	acq_US_pleas_nomask	acq45_nomask	5	27	400	1	300	300	0	0	382	50	1	0	schön	tolerant	fair	retten	loyal	treu	schlecht	tyrannisch	faul	rächen	lasch	tot	freundlich	schlau	ehrlich	helfen	spielen	lachen	fanatisch	schroff	eitel	hindern	strafen	leiden	1	blank2r.bmp	0	1	+	0	1	blank2r.bmp	500	1	BMVZ	500	1	blank2r.bmp	880	3	fair	880	1	!	1232	1	!	1283	0	0	0	0	0	0
2024-05-10	09:58:04	10:07:17	552677	6.6.1	4_exp_EVA_AWA_CON	21	B	A	Rpleas_acq	Same	Rpleas	1pleas	acq_US_unple_nomask	acq45_nomask	5	28	400	1	300	300	0	0	437	46	1	0	schön	tolerant	fair	retten	loyal	treu	schlecht	tyrannisch	faul	rächen	lasch	tot	freundlich	schlau	ehrlich	helfen	spielen	lachen	fanatisch	schroff	eitel	hindern	strafen	leiden	1	blank2r.bmp	0	1	+	0	1	blank2r.bmp	500	1	GKQX	500	1	blank2r.bmp	880	6	tot	880	1	!	1232	1	!	1338	0	0	0	0	0	0
2024-05-10	09:58:04	10:07:20	554885	6.6.1	4_exp_EVA_AWA_CON	21	B	A	Rpleas_acq	Same	Rpleas	1pleas	acq_US_unple_nomask	acq45_nomask	5	29	400	1	300	300	0	0	433	46	1	0	schön	tolerant	fair	retten	loyal	treu	schlecht	tyrannisch	faul	rächen	lasch	tot	freundlich	schlau	ehrlich	helfen	spielen	lachen	fanatisch	schroff	eitel	hindern	strafen	leiden	1	blank2r.bmp	0	1	+	0	1	blank2r.bmp	500	1	GKQX	500	1	blank2r.bmp	880	4	rächen	880	1	!	1232	1	!	1334	0	0	0	0	0	0
2024-05-10	09:58:04	10:07:22	557085	6.6.1	4_exp_EVA_AWA_CON	21	B	A	Rpleas_acq	Same	Rpleas	1pleas	acq_US_pleas_nomask	acq45_nomask	5	30	400	1	300	300	0	0	422	50	1	0	schön	tolerant	fair	retten	loyal	treu	schlecht	tyrannisch	faul	rächen	lasch	tot	freundlich	schlau	ehrlich	helfen	spielen	lachen	fanatisch	schroff	eitel	hindern	strafen	leiden	1	blank2r.bmp	0	1	+	0	1	blank2r.bmp	500	1	BMVZ	500	1	blank2r.bmp	880	1	schön	880	1	!	1232	1	!	1323	0	0	0	0	0	0
2024-05-10	09:58:04	10:07:24	559187	6.6.1	4_exp_EVA_AWA_CON	21	B	A	Rpleas_acq	Same	Rpleas	1pleas	acq_US_unple_nomask	acq45_nomask	5	31	400	0	300	300	0	0	325	46	1	0	schön	tolerant	fair	retten	loyal	treu	schlecht	tyrannisch	faul	rächen	lasch	tot	freundlich	schlau	ehrlich	helfen	spielen	lachen	fanatisch	schroff	eitel	hindern	strafen	leiden	1	blank2r.bmp	0	1	+	0	1	blank2r.bmp	500	1	GKQX	500	1	blank2r.bmp	880	1	schlecht	880	1	!	-1	1	!	-1	0	0	0	0	0	0
2024-05-10	09:58:04	10:07:26	561357	6.6.1	4_exp_EVA_AWA_CON	21	B	A	Rpleas_acq	Same	Rpleas	1pleas	acq_US_pleas_nomask	acq45_nomask	5	32	400	1	300	300	0	0	391	50	1	0	schön	tolerant	fair	retten	loyal	treu	schlecht	tyrannisch	faul	rächen	lasch	tot	freundlich	schlau	ehrlich	helfen	spielen	lachen	fanatisch	schroff	eitel	hindern	strafen	leiden	1	blank2r.bmp	0	1	+	0	1	blank2r.bmp	500	1	BMVZ	500	1	blank2r.bmp	880	3	fair	880	1	!	1232	1	!	1292	0	0	0	0	0	0
2024-05-10	09:58:04	10:07:28	563627	6.6.1	4_exp_EVA_AWA_CON	21	B	A	Rpleas_acq	Same	Rpleas	1pleas	acq_US_pleas_nomask	acq45_nomask	5	33	400	0	300	300	0	0	492	50	1	0	schön	tolerant	fair	retten	loyal	treu	schlecht	tyrannisch	faul	rächen	lasch	tot	freundlich	schlau	ehrlich	helfen	spielen	lachen	fanatisch	schroff	eitel	hindern	strafen	leiden	1	blank2r.bmp	0	1	+	0	1	blank2r.bmp	500	1	BMVZ	500	1	blank2r.bmp	880	4	retten	880	1	!	1232	1	!	-1	0	0	0	0	0	0
2024-05-10	09:58:04	10:07:31	565813	6.6.1	4_exp_EVA_AWA_CON	21	B	A	Rpleas_acq	Same	Rpleas	1pleas	acq_US_pleas_nomask	acq45_nomask	5	34	400	1	300	300	0	0	404	50	1	0	schön	tolerant	fair	retten	loyal	treu	schlecht	tyrannisch	faul	rächen	lasch	tot	freundlich	schlau	ehrlich	helfen	spielen	lachen	fanatisch	schroff	eitel	hindern	strafen	leiden	1	blank2r.bmp	0	1	+	0	1	blank2r.bmp	500	1	BMVZ	500	1	blank2r.bmp	880	6	treu	880	1	!	1232	1	!	1305	0	0	0	0	0	0
2024-05-10	09:58:04	10:07:33	568021	6.6.1	4_exp_EVA_AWA_CON	21	B	A	Rpleas_acq	Same	Rpleas	1pleas	acq_US_pleas_nomask	acq45_nomask	5	35	400	1	300	300	0	0	430	50	1	0	schön	tolerant	fair	retten	loyal	treu	schlecht	tyrannisch	faul	rächen	lasch	tot	freundlich	schlau	ehrlich	helfen	spielen	lachen	fanatisch	schroff	eitel	hindern	strafen	leiden	1	blank2r.bmp	0	1	+	0	1	blank2r.bmp	500	1	BMVZ	500	1	blank2r.bmp	880	2	tolerant	880	1	!	1232	1	!	1332	0	0	0	0	0	0
2024-05-10	09:58:04	10:07:35	570173	6.6.1	4_exp_EVA_AWA_CON	21	B	A	Rpleas_acq	Same	Rpleas	1pleas	acq_US_pleas_nomask	acq45_nomask	5	36	400	1	300	300	0	0	372	50	1	0	schön	tolerant	fair	retten	loyal	treu	schlecht	tyrannisch	faul	rächen	lasch	tot	freundlich	schlau	ehrlich	helfen	spielen	lachen	fanatisch	schroff	eitel	hindern	strafen	leiden	1	blank2r.bmp	0	1	+	0	1	blank2r.bmp	500	1	BMVZ	500	1	blank2r.bmp	880	5	loyal	880	1	!	1233	1	!	1273	0	0	0	0	0	0
2024-05-10	09:58:04	10:08:01	596247	6.6.1	4_exp_EVA_AWA_CON	21	B	A	Rpleas_acq	Same	Rpleas	1pleas	EvalRating_firsttwo	EvalRating_firsttwo	6	1	0	0	300	300	0	0	4254	line	0	-67,8385416666666571928pct	schön	tolerant	fair	retten	loyal	treu	schlecht	tyrannisch	faul	rächen	lasch	tot	freundlich	schlau	ehrlich	helfen	spielen	lachen	fanatisch	schroff	eitel	hindern	strafen	leiden	1		-7	1	Wie angenehm oder unangenehm finden Sie die  Buchstabenkette ZGVK?	-7	1		-7	1		-7	1		-7	1	Unangenehm	-7	1	Angenehm	-7	0	0	0	0	0	0	0	0	0
2024-05-10	09:58:04	10:08:06	601328	6.6.1	4_exp_EVA_AWA_CON	21	B	A	Rpleas_acq	Same	Rpleas	1pleas	EvalRating_lastfour	EvalRating_lastfour	7	1	0	0	300	300	0	0	2700	line	0	-67,0572916666666571928pct	schön	tolerant	fair	retten	loyal	treu	schlecht	tyrannisch	faul	rächen	lasch	tot	freundlich	schlau	ehrlich	helfen	spielen	lachen	fanatisch	schroff	eitel	hindern	strafen	leiden	1		-7	3	Wie angenehm oder unangenehm finden Sie die  Buchstabenkette XBQM?	-7	1		-7	1		-7	1		-7	1	Unangenehm	-7	1	Angenehm	-7	0	0	0	0	0	0	0	0	0
2024-05-10	09:58:04	10:08:08	603693	6.6.1	4_exp_EVA_AWA_CON	21	B	A	Rpleas_acq	Same	Rpleas	1pleas	blank_screen	EvalRating_lastfour	7	3	0	0	300	300	0	0	0	0	0	-67,0572916666666571928pct	schön	tolerant	fair	retten	loyal	treu	schlecht	tyrannisch	faul	rächen	lasch	tot	freundlich	schlau	ehrlich	helfen	spielen	lachen	fanatisch	schroff	eitel	hindern	strafen	leiden	1		-8	0	0	0	0	0	0	0	0	0	0	0	0	0	0	0	0	0	0	0	0	0	0	0	0	0	0	0
2024-05-10	09:58:04	10:08:11	605897	6.6.1	4_exp_EVA_AWA_CON	21	B	A	Rpleas_acq	Same	Rpleas	1pleas	EvalRating_lastfour	EvalRating_lastfour	7	4	0	0	300	300	0	0	1615	line	0	-73,046875pct	schön	tolerant	fair	retten	loyal	treu	schlecht	tyrannisch	faul	rächen	lasch	tot	freundlich	schlau	ehrlich	helfen	spielen	lachen	fanatisch	schroff	eitel	hindern	strafen	leiden	1		-8	2	Wie angenehm oder unangenehm finden Sie die  Buchstabenkette GKQX?	-8	1		-8	1		-8	1		-8	1	Unangenehm	-8	1	Angenehm	-8	0	0	0	0	0	0	0	0	0
2024-05-10	09:58:04	10:08:13	608266	6.6.1	4_exp_EVA_AWA_CON	21	B	A	Rpleas_acq	Same	Rpleas	1pleas	blank_screen	EvalRating_lastfour	7	6	0	0	300	300	0	0	0	0	0	-73,046875pct	schön	tolerant	fair	retten	loyal	treu	schlecht	tyrannisch	faul	rächen	lasch	tot	freundlich	schlau	ehrlich	helfen	spielen	lachen	fanatisch	schroff	eitel	hindern	strafen	leiden	1		-8	0	0	0	0	0	0	0	0	0	0	0	0	0	0	0	0	0	0	0	0	0	0	0	0	0	0	0
2024-05-10	09:58:04	10:08:16	610928	6.6.1	4_exp_EVA_AWA_CON	21	B	A	Rpleas_acq	Same	Rpleas	1pleas	EvalRating_lastfour	EvalRating_lastfour	7	7	0	0	300	300	0	0	2074	line	0	-63,1510416666666642982pct	schön	tolerant	fair	retten	loyal	treu	schlecht	tyrannisch	faul	rächen	lasch	tot	freundlich	schlau	ehrlich	helfen	spielen	lachen	fanatisch	schroff	eitel	hindern	strafen	leiden	1		-8	1	Wie angenehm oder unangenehm finden Sie die  Buchstabenkette BMVZ?	-8	1		-8	1		-8	1		-8	1	Unangenehm	-8	1	Angenehm	-8	0	0	0	0	0	0	0	0	0
2024-05-10	09:58:04	10:09:13	668253	6.6.1	4_exp_EVA_AWA_CON	21	B	A	Rpleas_acq	Same	Rpleas	1pleas	conawa_CS2_US5	conawa1_nomask	8	1	0	0	300	300	0	0	15228	lasch	1	-63,1510416666666642982pct	schön	tolerant	fair	retten	loyal	treu	schlecht	tyrannisch	faul	rächen	lasch	tot	freundlich	schlau	ehrlich	helfen	spielen	lachen	fanatisch	schroff	eitel	hindern	strafen	leiden	0	0	0	0	0	0	0	0	0	0	0	0	0	0	0	0	0	0	0	0	0	0	0	0	0	0	0	0	0	0
2024-05-10	09:58:04	10:09:13	668255	6.6.1	4_exp_EVA_AWA_CON	21	B	A	Rpleas_acq	Same	Rpleas	1pleas	conawa_CS2_US5_confidence	conawa1_nomask	8	1	0	0	300	300	0	0	15228	probably	1	-63,1510416666666642982pct	schön	tolerant	fair	retten	loyal	treu	schlecht	tyrannisch	faul	rächen	lasch	tot	freundlich	schlau	ehrlich	helfen	spielen	lachen	fanatisch	schroff	eitel	hindern	strafen	leiden	0	0	0	0	0	0	0	0	0	0	0	0	0	0	0	0	0	0	0	0	0	0	0	0	0	0	0	0	0	0
2024-05-10	09:58:04	10:09:23	678209	6.6.1	4_exp_EVA_AWA_CON	21	B	A	Rpleas_acq	Same	Rpleas	1pleas	conawa_CS1_US6	conawa1_nomask	8	2	0	0	300	300	0	0	9339	lachen	1	-63,1510416666666642982pct	schön	tolerant	fair	retten	loyal	treu	schlecht	tyrannisch	faul	rächen	lasch	tot	freundlich	schlau	ehrlich	helfen	spielen	lachen	fanatisch	schroff	eitel	hindern	strafen	leiden	0	0	0	0	0	0	0	0	0	0	0	0	0	0	0	0	0	0	0	0	0	0	0	0	0	0	0	0	0	0
2024-05-10	09:58:04	10:09:23	678211	6.6.1	4_exp_EVA_AWA_CON	21	B	A	Rpleas_acq	Same	Rpleas	1pleas	conawa_CS1_US6_confidence	conawa1_nomask	8	2	0	0	300	300	0	0	9339	guess	1	-63,1510416666666642982pct	schön	tolerant	fair	retten	loyal	treu	schlecht	tyrannisch	faul	rächen	lasch	tot	freundlich	schlau	ehrlich	helfen	spielen	lachen	fanatisch	schroff	eitel	hindern	strafen	leiden	0	0	0	0	0	0	0	0	0	0	0	0	0	0	0	0	0	0	0	0	0	0	0	0	0	0	0	0	0	0
2024-05-10	09:58:04	10:09:35	690027	6.6.1	4_exp_EVA_AWA_CON	21	B	A	Rpleas_acq	Same	Rpleas	1pleas	conawa_CS2_US1	conawa1_nomask	8	3	0	0	300	300	0	0	11198	schroff	1	-63,1510416666666642982pct	schön	tolerant	fair	retten	loyal	treu	schlecht	tyrannisch	faul	rächen	lasch	tot	freundlich	schlau	ehrlich	helfen	spielen	lachen	fanatisch	schroff	eitel	hindern	strafen	leiden	0	0	0	0	0	0	0	0	0	0	0	0	0	0	0	0	0	0	0	0	0	0	0	0	0	0	0	0	0	0
2024-05-10	09:58:04	10:09:35	690029	6.6.1	4_exp_EVA_AWA_CON	21	B	A	Rpleas_acq	Same	Rpleas	1pleas	conawa_CS2_US1_confidence	conawa1_nomask	8	3	0	0	300	300	0	0	11198	guess	1	-63,1510416666666642982pct	schön	tolerant	fair	retten	loyal	treu	schlecht	tyrannisch	faul	rächen	lasch	tot	freundlich	schlau	ehrlich	helfen	spielen	lachen	fanatisch	schroff	eitel	hindern	strafen	leiden	0	0	0	0	0	0	0	0	0	0	0	0	0	0	0	0	0	0	0	0	0	0	0	0	0	0	0	0	0	0
2024-05-10	09:58:04	10:09:45	700654	6.6.1	4_exp_EVA_AWA_CON	21	B	A	Rpleas_acq	Same	Rpleas	1pleas	conawa_CS2_US6	conawa1_nomask	8	4	0	0	300	300	0	0	10015	tot	1	-63,1510416666666642982pct	schön	tolerant	fair	retten	loyal	treu	schlecht	tyrannisch	faul	rächen	lasch	tot	freundlich	schlau	ehrlich	helfen	spielen	lachen	fanatisch	schroff	eitel	hindern	strafen	leiden	0	0	0	0	0	0	0	0	0	0	0	0	0	0	0	0	0	0	0	0	0	0	0	0	0	0	0	0	0	0
2024-05-10	09:58:04	10:09:45	700655	6.6.1	4_exp_EVA_AWA_CON	21	B	A	Rpleas_acq	Same	Rpleas	1pleas	conawa_CS2_US6_confidence	conawa1_nomask	8	4	0	0	300	300	0	0	10015	guess	1	-63,1510416666666642982pct	schön	tolerant	fair	retten	loyal	treu	schlecht	tyrannisch	faul	rächen	lasch	tot	freundlich	schlau	ehrlich	helfen	spielen	lachen	fanatisch	schroff	eitel	hindern	strafen	leiden	0	0	0	0	0	0	0	0	0	0	0	0	0	0	0	0	0	0	0	0	0	0	0	0	0	0	0	0	0	0
2024-05-10	09:58:04	10:09:53	708399	6.6.1	4_exp_EVA_AWA_CON	21	B	A	Rpleas_acq	Same	Rpleas	1pleas	conawa_CS1_US1	conawa1_nomask	8	5	0	0	300	300	0	0	7131	fanatisch	1	-63,1510416666666642982pct	schön	tolerant	fair	retten	loyal	treu	schlecht	tyrannisch	faul	rächen	lasch	tot	freundlich	schlau	ehrlich	helfen	spielen	lachen	fanatisch	schroff	eitel	hindern	strafen	leiden	0	0	0	0	0	0	0	0	0	0	0	0	0	0	0	0	0	0	0	0	0	0	0	0	0	0	0	0	0	0
2024-05-10	09:58:04	10:09:53	708400	6.6.1	4_exp_EVA_AWA_CON	21	B	A	Rpleas_acq	Same	Rpleas	1pleas	conawa_CS1_US1_confidence	conawa1_nomask	8	5	0	0	300	300	0	0	7131	probably	1	-63,1510416666666642982pct	schön	tolerant	fair	retten	loyal	treu	schlecht	tyrannisch	faul	rächen	lasch	tot	freundlich	schlau	ehrlich	helfen	spielen	lachen	fanatisch	schroff	eitel	hindern	strafen	leiden	0	0	0	0	0	0	0	0	0	0	0	0	0	0	0	0	0	0	0	0	0	0	0	0	0	0	0	0	0	0
2024-05-10	09:58:04	10:10:01	716064	6.6.1	4_exp_EVA_AWA_CON	21	B	A	Rpleas_acq	Same	Rpleas	1pleas	conawa_CS2_US2	conawa1_nomask	8	6	0	0	300	300	0	0	7051	eitel	1	-63,1510416666666642982pct	schön	tolerant	fair	retten	loyal	treu	schlecht	tyrannisch	faul	rächen	lasch	tot	freundlich	schlau	ehrlich	helfen	spielen	lachen	fanatisch	schroff	eitel	hindern	strafen	leiden	0	0	0	0	0	0	0	0	0	0	0	0	0	0	0	0	0	0	0	0	0	0	0	0	0	0	0	0	0	0
2024-05-10	09:58:04	10:10:01	716066	6.6.1	4_exp_EVA_AWA_CON	21	B	A	Rpleas_acq	Same	Rpleas	1pleas	conawa_CS2_US2_confidence	conawa1_nomask	8	6	0	0	300	300	0	0	7051	guess	1	-63,1510416666666642982pct	schön	tolerant	fair	retten	loyal	treu	schlecht	tyrannisch	faul	rächen	lasch	tot	freundlich	schlau	ehrlich	helfen	spielen	lachen	fanatisch	schroff	eitel	hindern	strafen	leiden	0	0	0	0	0	0	0	0	0	0	0	0	0	0	0	0	0	0	0	0	0	0	0	0	0	0	0	0	0	0
2024-05-10	09:58:04	10:10:10	725309	6.6.1	4_exp_EVA_AWA_CON	21	B	A	Rpleas_acq	Same	Rpleas	1pleas	conawa_CS2_US4	conawa1_nomask	8	7	0	0	300	300	0	0	8633	rächen	1	-63,1510416666666642982pct	schön	tolerant	fair	retten	loyal	treu	schlecht	tyrannisch	faul	rächen	lasch	tot	freundlich	schlau	ehrlich	helfen	spielen	lachen	fanatisch	schroff	eitel	hindern	strafen	leiden	0	0	0	0	0	0	0	0	0	0	0	0	0	0	0	0	0	0	0	0	0	0	0	0	0	0	0	0	0	0
2024-05-10	09:58:04	10:10:10	725311	6.6.1	4_exp_EVA_AWA_CON	21	B	A	Rpleas_acq	Same	Rpleas	1pleas	conawa_CS2_US4_confidence	conawa1_nomask	8	7	0	0	300	300	0	0	8633	guess	1	-63,1510416666666642982pct	schön	tolerant	fair	retten	loyal	treu	schlecht	tyrannisch	faul	rächen	lasch	tot	freundlich	schlau	ehrlich	helfen	spielen	lachen	fanatisch	schroff	eitel	hindern	strafen	leiden	0	0	0	0	0	0	0	0	0	0	0	0	0	0	0	0	0	0	0	0	0	0	0	0	0	0	0	0	0	0
2024-05-10	09:58:04	10:10:18	732995	6.6.1	4_exp_EVA_AWA_CON	21	B	A	Rpleas_acq	Same	Rpleas	1pleas	conawa_CS1_US5	conawa1_nomask	8	8	0	0	300	300	0	0	7067	strafen	1	-63,1510416666666642982pct	schön	tolerant	fair	retten	loyal	treu	schlecht	tyrannisch	faul	rächen	lasch	tot	freundlich	schlau	ehrlich	helfen	spielen	lachen	fanatisch	schroff	eitel	hindern	strafen	leiden	0	0	0	0	0	0	0	0	0	0	0	0	0	0	0	0	0	0	0	0	0	0	0	0	0	0	0	0	0	0
2024-05-10	09:58:04	10:10:18	732996	6.6.1	4_exp_EVA_AWA_CON	21	B	A	Rpleas_acq	Same	Rpleas	1pleas	conawa_CS1_US5_confidence	conawa1_nomask	8	8	0	0	300	300	0	0	7067	guess	1	-63,1510416666666642982pct	schön	tolerant	fair	retten	loyal	treu	schlecht	tyrannisch	faul	rächen	lasch	tot	freundlich	schlau	ehrlich	helfen	spielen	lachen	fanatisch	schroff	eitel	hindern	strafen	leiden	0	0	0	0	0	0	0	0	0	0	0	0	0	0	0	0	0	0	0	0	0	0	0	0	0	0	0	0	0	0
2024-05-10	09:58:04	10:10:24	739689	6.6.1	4_exp_EVA_AWA_CON	21	B	A	Rpleas_acq	Same	Rpleas	1pleas	conawa_CS2_US3	conawa1_nomask	8	9	0	0	300	300	0	0	6079	hindern	1	-63,1510416666666642982pct	schön	tolerant	fair	retten	loyal	treu	schlecht	tyrannisch	faul	rächen	lasch	tot	freundlich	schlau	ehrlich	helfen	spielen	lachen	fanatisch	schroff	eitel	hindern	strafen	leiden	0	0	0	0	0	0	0	0	0	0	0	0	0	0	0	0	0	0	0	0	0	0	0	0	0	0	0	0	0	0
2024-05-10	09:58:04	10:10:24	739691	6.6.1	4_exp_EVA_AWA_CON	21	B	A	Rpleas_acq	Same	Rpleas	1pleas	conawa_CS2_US3_confidence	conawa1_nomask	8	9	0	0	300	300	0	0	6079	guess	1	-63,1510416666666642982pct	schön	tolerant	fair	retten	loyal	treu	schlecht	tyrannisch	faul	rächen	lasch	tot	freundlich	schlau	ehrlich	helfen	spielen	lachen	fanatisch	schroff	eitel	hindern	strafen	leiden	0	0	0	0	0	0	0	0	0	0	0	0	0	0	0	0	0	0	0	0	0	0	0	0	0	0	0	0	0	0
2024-05-10	09:58:04	10:10:38	753488	6.6.1	4_exp_EVA_AWA_CON	21	B	A	Rpleas_acq	Same	Rpleas	1pleas	conawa_CS1_US4	conawa1_nomask	8	10	0	0	300	300	0	0	13184	hindern	1	-63,1510416666666642982pct	schön	tolerant	fair	retten	loyal	treu	schlecht	tyrannisch	faul	rächen	lasch	tot	freundlich	schlau	ehrlich	helfen	spielen	lachen	fanatisch	schroff	eitel	hindern	strafen	leiden	0	0	0	0	0	0	0	0	0	0	0	0	0	0	0	0	0	0	0	0	0	0	0	0	0	0	0	0	0	0
2024-05-10	09:58:04	10:10:38	753489	6.6.1	4_exp_EVA_AWA_CON	21	B	A	Rpleas_acq	Same	Rpleas	1pleas	conawa_CS1_US4_confidence	conawa1_nomask	8	10	0	0	300	300	0	0	13184	guess	1	-63,1510416666666642982pct	schön	tolerant	fair	retten	loyal	treu	schlecht	tyrannisch	faul	rächen	lasch	tot	freundlich	schlau	ehrlich	helfen	spielen	lachen	fanatisch	schroff	eitel	hindern	strafen	leiden	0	0	0	0	0	0	0	0	0	0	0	0	0	0	0	0	0	0	0	0	0	0	0	0	0	0	0	0	0	0
2024-05-10	09:58:04	10:10:54	769148	6.6.1	4_exp_EVA_AWA_CON	21	B	A	Rpleas_acq	Same	Rpleas	1pleas	conawa_CS1_US3	conawa1_nomask	8	11	0	0	300	300	0	0	15041	faul	1	-63,1510416666666642982pct	schön	tolerant	fair	retten	loyal	treu	schlecht	tyrannisch	faul	rächen	lasch	tot	freundlich	schlau	ehrlich	helfen	spielen	lachen	fanatisch	schroff	eitel	hindern	strafen	leiden	0	0	0	0	0	0	0	0	0	0	0	0	0	0	0	0	0	0	0	0	0	0	0	0	0	0	0	0	0	0
2024-05-10	09:58:04	10:10:54	769149	6.6.1	4_exp_EVA_AWA_CON	21	B	A	Rpleas_acq	Same	Rpleas	1pleas	conawa_CS1_US3_confidence	conawa1_nomask	8	11	0	0	300	300	0	0	15041	guess	1	-63,1510416666666642982pct	schön	tolerant	fair	retten	loyal	treu	schlecht	tyrannisch	faul	rächen	lasch	tot	freundlich	schlau	ehrlich	helfen	spielen	lachen	fanatisch	schroff	eitel	hindern	strafen	leiden	0	0	0	0	0	0	0	0	0	0	0	0	0	0	0	0	0	0	0	0	0	0	0	0	0	0	0	0	0	0
2024-05-10	09:58:04	10:11:09	784117	6.6.1	4_exp_EVA_AWA_CON	21	B	A	Rpleas_acq	Same	Rpleas	1pleas	conawa_CS1_US2	conawa1_nomask	8	12	0	0	300	300	0	0	14357	schroff	1	-63,1510416666666642982pct	schön	tolerant	fair	retten	loyal	treu	schlecht	tyrannisch	faul	rächen	lasch	tot	freundlich	schlau	ehrlich	helfen	spielen	lachen	fanatisch	schroff	eitel	hindern	strafen	leiden	0	0	0	0	0	0	0	0	0	0	0	0	0	0	0	0	0	0	0	0	0	0	0	0	0	0	0	0	0	0
2024-05-10	09:58:04	10:11:09	784119	6.6.1	4_exp_EVA_AWA_CON	21	B	A	Rpleas_acq	Same	Rpleas	1pleas	conawa_CS1_US2_confidence	conawa1_nomask	8	12	0	0	300	300	0	0	14357	guess	1	-63,1510416666666642982pct	schön	tolerant	fair	retten	loyal	treu	schlecht	tyrannisch	faul	rächen	lasch	tot	freundlich	schlau	ehrlich	helfen	spielen	lachen	fanatisch	schroff	eitel	hindern	strafen	leiden	0	0	0	0	0	0	0	0	0	0	0	0	0	0	0	0	0	0	0	0	0	0	0	0	0	0	0	0	0	0
2024-05-10	09:58:04	10:12:31	865877	6.6.1	4_exp_EVA_AWA_CON	21	B	A	Rpleas_acq	Same	Rpleas	1pleas	cond_US_pleas_123_nomask_CS2	condtest_nomask_1	11	1	400	1	300	300	0	0	435	50	1	-63,1510416666666642982pct	schön	tolerant	fair	retten	loyal	treu	schlecht	tyrannisch	faul	rächen	lasch	tot	freundlich	schlau	ehrlich	helfen	spielen	lachen	fanatisch	schroff	eitel	hindern	strafen	leiden	1	blank2r.bmp	0	1	+	0	1	blank2r.bmp	500	1	GKQX	500	1	blank2r.bmp	880	2	schön	880	1	!	1232	1	!	1337	0	0	0	0	0	0
2024-05-10	09:58:04	10:12:33	868123	6.6.1	4_exp_EVA_AWA_CON	21	B	A	Rpleas_acq	Same	Rpleas	1pleas	cond_US_pleas_123_nomask_CS1	condtest_nomask_1	11	2	400	0	300	300	0	0	473	50	1	-63,1510416666666642982pct	schön	tolerant	fair	retten	loyal	treu	schlecht	tyrannisch	faul	rächen	lasch	tot	freundlich	schlau	ehrlich	helfen	spielen	lachen	fanatisch	schroff	eitel	hindern	strafen	leiden	1	blank2r.bmp	0	1	+	0	1	blank2r.bmp	500	1	BMVZ	500	1	blank2r.bmp	880	3	fair	880	1	!	1232	1	!	-1	0	0	0	0	0	0
2024-05-10	09:58:04	10:12:35	870365	6.6.1	4_exp_EVA_AWA_CON	21	B	A	Rpleas_acq	Same	Rpleas	1pleas	cond_new_pleas_456_nomask_CS2	condtest_nomask_1	11	3	400	1	300	300	0	0	460	50	1	-63,1510416666666642982pct	schön	tolerant	fair	retten	loyal	treu	schlecht	tyrannisch	faul	rächen	lasch	tot	freundlich	schlau	ehrlich	helfen	spielen	lachen	fanatisch	schroff	eitel	hindern	strafen	leiden	1	blank2r.bmp	0	1	+	0	1	blank2r.bmp	500	1	GKQX	500	1	blank2r.bmp	880	2	helfen	880	1	!	1233	1	!	1362	0	0	0	0	0	0
2024-05-10	09:58:04	10:12:37	872811	6.6.1	4_exp_EVA_AWA_CON	21	B	A	Rpleas_acq	Same	Rpleas	1pleas	cond_new_unple_456_nomask_CS2	condtest_nomask_1	11	4	400	0	300	300	0	0	666	46	1	-63,1510416666666642982pct	schön	tolerant	fair	retten	loyal	treu	schlecht	tyrannisch	faul	rächen	lasch	tot	freundlich	schlau	ehrlich	helfen	spielen	lachen	fanatisch	schroff	eitel	hindern	strafen	leiden	1	blank2r.bmp	0	1	+	0	1	blank2r.bmp	500	1	GKQX	500	1	blank2r.bmp	880	3	strafen	880	1	!	1232	1	!	-1	0	0	0	0	0	0
2024-05-10	09:58:04	10:12:40	874916	6.6.1	4_exp_EVA_AWA_CON	21	B	A	Rpleas_acq	Same	Rpleas	1pleas	cond_US_unple_123_nomask_CS1	condtest_nomask_1	11	5	400	0	300	300	0	0	329	50	0	-63,1510416666666642982pct	schön	tolerant	fair	retten	loyal	treu	schlecht	tyrannisch	faul	rächen	lasch	tot	freundlich	schlau	ehrlich	helfen	spielen	lachen	fanatisch	schroff	eitel	hindern	strafen	leiden	1	blank2r.bmp	0	1	+	0	1	blank2r.bmp	500	1	BMVZ	500	1	blank2r.bmp	880	1	schlecht	880	1	!	-1	1	!	-1	0	0	0	0	0	0
2024-05-10	09:58:04	10:12:42	877149	6.6.1	4_exp_EVA_AWA_CON	21	B	A	Rpleas_acq	Same	Rpleas	1pleas	cond_new_pleas_456_nomask_CS1	condtest_nomask_1	11	6	400	1	300	300	0	0	450	50	1	-63,1510416666666642982pct	schön	tolerant	fair	retten	loyal	treu	schlecht	tyrannisch	faul	rächen	lasch	tot	freundlich	schlau	ehrlich	helfen	spielen	lachen	fanatisch	schroff	eitel	hindern	strafen	leiden	1	blank2r.bmp	0	1	+	0	1	blank2r.bmp	500	1	BMVZ	500	1	blank2r.bmp	880	1	helfen	880	1	!	1232	1	!	1352	0	0	0	0	0	0
2024-05-10	09:58:04	10:12:44	879389	6.6.1	4_exp_EVA_AWA_CON	21	B	A	Rpleas_acq	Same	Rpleas	1pleas	cond_new_unple_456_nomask_CS1	condtest_nomask_1	11	7	400	1	300	300	0	0	458	46	1	-63,1510416666666642982pct	schön	tolerant	fair	retten	loyal	treu	schlecht	tyrannisch	faul	rächen	lasch	tot	freundlich	schlau	ehrlich	helfen	spielen	lachen	fanatisch	schroff	eitel	hindern	strafen	leiden	1	blank2r.bmp	0	1	+	0	1	blank2r.bmp	500	1	BMVZ	500	1	blank2r.bmp	880	1	hindern	880	1	!	1232	1	!	1360	0	0	0	0	0	0
2024-05-10	09:58:04	10:12:46	881637	6.6.1	4_exp_EVA_AWA_CON	21	B	A	Rpleas_acq	Same	Rpleas	1pleas	cond_US_unple_123_nomask_CS2	condtest_nomask_1	11	8	400	1	300	300	0	0	465	46	1	-63,1510416666666642982pct	schön	tolerant	fair	retten	loyal	treu	schlecht	tyrannisch	faul	rächen	lasch	tot	freundlich	schlau	ehrlich	helfen	spielen	lachen	fanatisch	schroff	eitel	hindern	strafen	leiden	1	blank2r.bmp	0	1	+	0	1	blank2r.bmp	500	1	GKQX	500	1	blank2r.bmp	880	3	tyrannisch	880	1	!	1232	1	!	1366	0	0	0	0	0	0
2024-05-10	09:58:04	10:12:57	892470	6.6.1	4_exp_EVA_AWA_CON	21	B	A	Rpleas_acq	Same	Rpleas	1pleas	cond_new_unple_456_nomask_CS2	condtest_nomask_2	12	1	400	1	300	300	0	0	420	50	0	-63,1510416666666642982pct	schön	tolerant	fair	retten	loyal	treu	schlecht	tyrannisch	faul	rächen	lasch	tot	freundlich	schlau	ehrlich	helfen	spielen	lachen	fanatisch	schroff	eitel	hindern	strafen	leiden	1	blank2r.bmp	0	1	+	0	1	blank2r.bmp	500	1	GKQX	500	1	blank2r.bmp	880	1	leiden	880	1	!	1232	1	!	1322	0	0	0	0	0	0
