date	time	currenttime	elapsedtime	build	currentexpt	subject	CS_AB	US_AB	LRpleas_acq	SameOppo	condition_Lpleas	condition_1pleas	trialcode	blockcode	blocknum	trialnum	windowcenter	inwindow	pretrialpause	posttrialpause	trialduration	trialtimeout	latency	response	correct	correctedscore	US_nomask_pleas1	US_nomask_pleas2	US_nomask_pleas3	US_nomask_pleas4	US_nomask_pleas5	US_nomask_pleas6	US_nomask_unple1	US_nomask_unple2	US_nomask_unple3	US_nomask_unple4	US_nomask_unple5	US_nomask_unple6	new_nomask_pleas1	new_nomask_pleas2	new_nomask_pleas3	new_nomask_pleas4	new_nomask_pleas5	new_nomask_pleas6	new_nomask_unple1	new_nomask_unple2	new_nomask_unple3	new_nomask_unple4	new_nomask_unple5	new_nomask_unple6	stimulusnumber1	stimulusitem1	stimulusonset1	stimulusnumber2	stimulusitem2	stimulusonset2	stimulusnumber3	stimulusitem3	stimulusonset3	stimulusnumber4	stimulusitem4	stimulusonset4	stimulusnumber5	stimulusitem5	stimulusonset5	stimulusnumber6	stimulusitem6	stimulusonset6	stimulusnumber7	stimulusitem7	stimulusonset7	stimulusnumber8	stimulusitem8	stimulusonset8	stimulusnumber9	stimulusitem9	stimulusonset9	stimulusnumber10	stimulusitem10	stimulusonset10
2024-05-07	10:47:58	10:49:48	110249	6.6.1	4_exp_EVA_AWA_CON	15	A	B	Rpleas_acq	Same	Rpleas	2pleas	acq_new_unple_nomask	acq1_nomask	1	1	0	0	300	300	0	0	962	46	1	0	kuss	anregung	gütig	vergnügt	engagiert	vertrauen	krise	ausrottung	gierig	verbissen	engstirnig	versagen	genießen	träumen	kreativ	besonnen	gesittet	sonnig	gemein	töten	krank	bange	geizig	sterben	1	blank2r.bmp	0	1	+	0	1	blank2r.bmp	500	7	C3r.bmp	500	1	blank2r.bmp	880	6	sterben	880	0	0	0	0	0	0	0	0	0	0	0	0
2024-05-07	10:47:58	10:49:51	112625	6.6.1	4_exp_EVA_AWA_CON	15	A	B	Rpleas_acq	Same	Rpleas	2pleas	acq_US_unple_nomask	acq1_nomask	1	2	0	0	300	300	0	0	886	46	1	0	kuss	anregung	gütig	vergnügt	engagiert	vertrauen	krise	ausrottung	gierig	verbissen	engstirnig	versagen	genießen	träumen	kreativ	besonnen	gesittet	sonnig	gemein	töten	krank	bange	geizig	sterben	1	blank2r.bmp	0	1	+	0	1	blank2r.bmp	500	1	CPLW	500	1	blank2r.bmp	880	6	versagen	880	0	0	0	0	0	0	0	0	0	0	0	0
2024-05-07	10:47:58	10:49:53	114873	6.6.1	4_exp_EVA_AWA_CON	15	A	B	Rpleas_acq	Same	Rpleas	2pleas	acq_new_unple_nomask	acq1_nomask	1	3	0	0	300	300	0	0	763	46	1	0	kuss	anregung	gütig	vergnügt	engagiert	vertrauen	krise	ausrottung	gierig	verbissen	engstirnig	versagen	genießen	träumen	kreativ	besonnen	gesittet	sonnig	gemein	töten	krank	bange	geizig	sterben	1	blank2r.bmp	0	1	+	0	1	blank2r.bmp	500	1	B1r.bmp	500	1	blank2r.bmp	880	3	krank	880	0	0	0	0	0	0	0	0	0	0	0	0
2024-05-07	10:47:58	10:49:55	117081	6.6.1	4_exp_EVA_AWA_CON	15	A	B	Rpleas_acq	Same	Rpleas	2pleas	acq_new_unple_nomask	acq1_nomask	1	4	0	0	300	300	0	0	719	46	1	0	kuss	anregung	gütig	vergnügt	engagiert	vertrauen	krise	ausrottung	gierig	verbissen	engstirnig	versagen	genießen	träumen	kreativ	besonnen	gesittet	sonnig	gemein	töten	krank	bange	geizig	sterben	1	blank2r.bmp	0	1	+	0	1	blank2r.bmp	500	5	C1r.bmp	500	1	blank2r.bmp	880	5	geizig	880	0	0	0	0	0	0	0	0	0	0	0	0
2024-05-07	10:47:58	10:49:58	119409	6.6.1	4_exp_EVA_AWA_CON	15	A	B	Rpleas_acq	Same	Rpleas	2pleas	acq_new_pleas_nomask	acq1_nomask	1	5	0	0	300	300	0	0	846	50	1	0	kuss	anregung	gütig	vergnügt	engagiert	vertrauen	krise	ausrottung	gierig	verbissen	engstirnig	versagen	genießen	träumen	kreativ	besonnen	gesittet	sonnig	gemein	töten	krank	bange	geizig	sterben	1	blank2r.bmp	0	1	+	0	1	blank2r.bmp	500	8	C4r.bmp	500	1	blank2r.bmp	880	5	gesittet	880	0	0	0	0	0	0	0	0	0	0	0	0
2024-05-07	10:47:58	10:50:00	121729	6.6.1	4_exp_EVA_AWA_CON	15	A	B	Rpleas_acq	Same	Rpleas	2pleas	acq_US_pleas_nomask	acq1_nomask	1	6	0	0	300	300	0	0	834	50	1	0	kuss	anregung	gütig	vergnügt	engagiert	vertrauen	krise	ausrottung	gierig	verbissen	engstirnig	versagen	genießen	träumen	kreativ	besonnen	gesittet	sonnig	gemein	töten	krank	bange	geizig	sterben	1	blank2r.bmp	0	1	+	0	1	blank2r.bmp	500	1	DHJF	500	1	blank2r.bmp	880	3	gütig	880	0	0	0	0	0	0	0	0	0	0	0	0
2024-05-07	10:47:58	10:50:02	123881	6.6.1	4_exp_EVA_AWA_CON	15	A	B	Rpleas_acq	Same	Rpleas	2pleas	acq_new_pleas_nomask	acq1_nomask	1	7	0	0	300	300	0	0	665	50	1	0	kuss	anregung	gütig	vergnügt	engagiert	vertrauen	krise	ausrottung	gierig	verbissen	engstirnig	versagen	genießen	träumen	kreativ	besonnen	gesittet	sonnig	gemein	töten	krank	bange	geizig	sterben	1	blank2r.bmp	0	1	+	0	1	blank2r.bmp	500	6	C2r.bmp	500	1	blank2r.bmp	880	2	träumen	880	0	0	0	0	0	0	0	0	0	0	0	0
2024-05-07	10:47:58	10:50:04	126153	6.6.1	4_exp_EVA_AWA_CON	15	A	B	Rpleas_acq	Same	Rpleas	2pleas	acq_US_pleas_nomask	acq1_nomask	1	8	0	0	300	300	0	0	785	50	1	0	kuss	anregung	gütig	vergnügt	engagiert	vertrauen	krise	ausrottung	gierig	verbissen	engstirnig	versagen	genießen	träumen	kreativ	besonnen	gesittet	sonnig	gemein	töten	krank	bange	geizig	sterben	1	blank2r.bmp	0	1	+	0	1	blank2r.bmp	500	1	DHJF	500	1	blank2r.bmp	880	4	vergnügt	880	0	0	0	0	0	0	0	0	0	0	0	0
2024-05-07	10:47:58	10:50:06	128249	6.6.1	4_exp_EVA_AWA_CON	15	A	B	Rpleas_acq	Same	Rpleas	2pleas	acq_US_pleas_nomask	acq1_nomask	1	9	0	0	300	300	0	0	610	50	1	0	kuss	anregung	gütig	vergnügt	engagiert	vertrauen	krise	ausrottung	gierig	verbissen	engstirnig	versagen	genießen	träumen	kreativ	besonnen	gesittet	sonnig	gemein	töten	krank	bange	geizig	sterben	1	blank2r.bmp	0	1	+	0	1	blank2r.bmp	500	1	DHJF	500	1	blank2r.bmp	880	1	kuss	880	0	0	0	0	0	0	0	0	0	0	0	0
2024-05-07	10:47:58	10:50:09	130361	6.6.1	4_exp_EVA_AWA_CON	15	A	B	Rpleas_acq	Same	Rpleas	2pleas	acq_new_pleas_nomask	acq1_nomask	1	10	0	0	300	300	0	0	630	50	1	0	kuss	anregung	gütig	vergnügt	engagiert	vertrauen	krise	ausrottung	gierig	verbissen	engstirnig	versagen	genießen	träumen	kreativ	besonnen	gesittet	sonnig	gemein	töten	krank	bange	geizig	sterben	1	blank2r.bmp	0	1	+	0	1	blank2r.bmp	500	2	B2r.bmp	500	1	blank2r.bmp	880	6	sonnig	880	0	0	0	0	0	0	0	0	0	0	0	0
2024-05-07	10:47:58	10:50:11	132409	6.6.1	4_exp_EVA_AWA_CON	15	A	B	Rpleas_acq	Same	Rpleas	2pleas	acq_US_unple_nomask	acq1_nomask	1	11	0	0	300	300	0	0	557	46	1	0	kuss	anregung	gütig	vergnügt	engagiert	vertrauen	krise	ausrottung	gierig	verbissen	engstirnig	versagen	genießen	träumen	kreativ	besonnen	gesittet	sonnig	gemein	töten	krank	bange	geizig	sterben	1	blank2r.bmp	0	1	+	0	1	blank2r.bmp	500	1	CPLW	500	1	blank2r.bmp	880	2	ausrottung	880	0	0	0	0	0	0	0	0	0	0	0	0
2024-05-07	10:47:58	10:50:13	134809	6.6.1	4_exp_EVA_AWA_CON	15	A	B	Rpleas_acq	Same	Rpleas	2pleas	acq_US_unple_nomask	acq1_nomask	1	12	0	0	300	300	0	0	916	46	1	0	kuss	anregung	gütig	vergnügt	engagiert	vertrauen	krise	ausrottung	gierig	verbissen	engstirnig	versagen	genießen	träumen	kreativ	besonnen	gesittet	sonnig	gemein	töten	krank	bange	geizig	sterben	1	blank2r.bmp	0	1	+	0	1	blank2r.bmp	500	1	CPLW	500	1	blank2r.bmp	880	5	engstirnig	880	0	0	0	0	0	0	0	0	0	0	0	0
2024-05-07	10:47:58	10:50:15	136969	6.6.1	4_exp_EVA_AWA_CON	15	A	B	Rpleas_acq	Same	Rpleas	2pleas	acq_US_pleas_nomask	acq1_nomask	1	13	0	0	300	300	0	0	674	50	1	0	kuss	anregung	gütig	vergnügt	engagiert	vertrauen	krise	ausrottung	gierig	verbissen	engstirnig	versagen	genießen	träumen	kreativ	besonnen	gesittet	sonnig	gemein	töten	krank	bange	geizig	sterben	1	blank2r.bmp	0	1	+	0	1	blank2r.bmp	500	1	DHJF	500	1	blank2r.bmp	880	5	engagiert	880	0	0	0	0	0	0	0	0	0	0	0	0
2024-05-07	10:47:58	10:50:17	139025	6.6.1	4_exp_EVA_AWA_CON	15	A	B	Rpleas_acq	Same	Rpleas	2pleas	acq_new_pleas_nomask	acq1_nomask	1	14	0	0	300	300	0	0	569	50	1	0	kuss	anregung	gütig	vergnügt	engagiert	vertrauen	krise	ausrottung	gierig	verbissen	engstirnig	versagen	genießen	träumen	kreativ	besonnen	gesittet	sonnig	gemein	töten	krank	bange	geizig	sterben	1	blank2r.bmp	0	1	+	0	1	blank2r.bmp	500	3	B3r.bmp	500	1	blank2r.bmp	880	1	genießen	880	0	0	0	0	0	0	0	0	0	0	0	0
2024-05-07	10:47:58	10:50:19	141137	6.6.1	4_exp_EVA_AWA_CON	15	A	B	Rpleas_acq	Same	Rpleas	2pleas	acq_US_pleas_nomask	acq1_nomask	1	15	0	0	300	300	0	0	629	50	1	0	kuss	anregung	gütig	vergnügt	engagiert	vertrauen	krise	ausrottung	gierig	verbissen	engstirnig	versagen	genießen	träumen	kreativ	besonnen	gesittet	sonnig	gemein	töten	krank	bange	geizig	sterben	1	blank2r.bmp	0	1	+	0	1	blank2r.bmp	500	1	DHJF	500	1	blank2r.bmp	880	2	anregung	880	0	0	0	0	0	0	0	0	0	0	0	0
2024-05-07	10:47:58	10:50:21	143097	6.6.1	4_exp_EVA_AWA_CON	15	A	B	Rpleas_acq	Same	Rpleas	2pleas	acq_new_unple_nomask	acq1_nomask	1	16	0	0	300	300	0	0	478	46	1	0	kuss	anregung	gütig	vergnügt	engagiert	vertrauen	krise	ausrottung	gierig	verbissen	engstirnig	versagen	genießen	träumen	kreativ	besonnen	gesittet	sonnig	gemein	töten	krank	bange	geizig	sterben	1	blank2r.bmp	0	1	+	0	1	blank2r.bmp	500	4	B4r.bmp	500	1	blank2r.bmp	880	2	töten	880	0	0	0	0	0	0	0	0	0	0	0	0
2024-05-07	10:47:58	10:50:23	145089	6.6.1	4_exp_EVA_AWA_CON	15	A	B	Rpleas_acq	Same	Rpleas	2pleas	acq_new_pleas_nomask	acq1_nomask	1	17	0	0	300	300	0	0	509	50	1	0	kuss	anregung	gütig	vergnügt	engagiert	vertrauen	krise	ausrottung	gierig	verbissen	engstirnig	versagen	genießen	träumen	kreativ	besonnen	gesittet	sonnig	gemein	töten	krank	bange	geizig	sterben	1	blank2r.bmp	0	1	+	0	1	blank2r.bmp	500	7	C3r.bmp	500	1	blank2r.bmp	880	4	besonnen	880	0	0	0	0	0	0	0	0	0	0	0	0
2024-05-07	10:47:58	10:50:25	147201	6.6.1	4_exp_EVA_AWA_CON	15	A	B	Rpleas_acq	Same	Rpleas	2pleas	acq_US_pleas_nomask	acq1_nomask	1	18	0	0	300	300	0	0	629	50	1	0	kuss	anregung	gütig	vergnügt	engagiert	vertrauen	krise	ausrottung	gierig	verbissen	engstirnig	versagen	genießen	träumen	kreativ	besonnen	gesittet	sonnig	gemein	töten	krank	bange	geizig	sterben	1	blank2r.bmp	0	1	+	0	1	blank2r.bmp	500	1	DHJF	500	1	blank2r.bmp	880	6	vertrauen	880	0	0	0	0	0	0	0	0	0	0	0	0
2024-05-07	10:47:58	10:50:27	149137	6.6.1	4_exp_EVA_AWA_CON	15	A	B	Rpleas_acq	Same	Rpleas	2pleas	acq_US_unple_nomask	acq1_nomask	1	19	0	0	300	300	0	0	454	46	1	0	kuss	anregung	gütig	vergnügt	engagiert	vertrauen	krise	ausrottung	gierig	verbissen	engstirnig	versagen	genießen	träumen	kreativ	besonnen	gesittet	sonnig	gemein	töten	krank	bange	geizig	sterben	1	blank2r.bmp	0	1	+	0	1	blank2r.bmp	500	1	CPLW	500	1	blank2r.bmp	880	4	verbissen	880	0	0	0	0	0	0	0	0	0	0	0	0
2024-05-07	10:47:58	10:50:29	151153	6.6.1	4_exp_EVA_AWA_CON	15	A	B	Rpleas_acq	Same	Rpleas	2pleas	acq_new_pleas_nomask	acq1_nomask	1	20	0	0	300	300	0	0	529	50	1	0	kuss	anregung	gütig	vergnügt	engagiert	vertrauen	krise	ausrottung	gierig	verbissen	engstirnig	versagen	genießen	träumen	kreativ	besonnen	gesittet	sonnig	gemein	töten	krank	bange	geizig	sterben	1	blank2r.bmp	0	1	+	0	1	blank2r.bmp	500	3	B3r.bmp	500	1	blank2r.bmp	880	3	kreativ	880	0	0	0	0	0	0	0	0	0	0	0	0
2024-05-07	10:47:58	10:50:31	153161	6.6.1	4_exp_EVA_AWA_CON	15	A	B	Rpleas_acq	Same	Rpleas	2pleas	acq_US_unple_nomask	acq1_nomask	1	21	0	0	300	300	0	0	525	46	1	0	kuss	anregung	gütig	vergnügt	engagiert	vertrauen	krise	ausrottung	gierig	verbissen	engstirnig	versagen	genießen	träumen	kreativ	besonnen	gesittet	sonnig	gemein	töten	krank	bange	geizig	sterben	1	blank2r.bmp	0	1	+	0	1	blank2r.bmp	500	1	CPLW	500	1	blank2r.bmp	880	1	krise	880	0	0	0	0	0	0	0	0	0	0	0	0
2024-05-07	10:47:58	10:50:34	155393	6.6.1	4_exp_EVA_AWA_CON	15	A	B	Rpleas_acq	Same	Rpleas	2pleas	acq_new_unple_nomask	acq1_nomask	1	22	0	0	300	300	0	0	746	46	1	0	kuss	anregung	gütig	vergnügt	engagiert	vertrauen	krise	ausrottung	gierig	verbissen	engstirnig	versagen	genießen	träumen	kreativ	besonnen	gesittet	sonnig	gemein	töten	krank	bange	geizig	sterben	1	blank2r.bmp	0	1	+	0	1	blank2r.bmp	500	2	B2r.bmp	500	1	blank2r.bmp	880	4	bange	880	0	0	0	0	0	0	0	0	0	0	0	0
2024-05-07	10:47:58	10:50:36	157409	6.6.1	4_exp_EVA_AWA_CON	15	A	B	Rpleas_acq	Same	Rpleas	2pleas	acq_new_unple_nomask	acq1_nomask	1	23	0	0	300	300	0	0	530	46	1	0	kuss	anregung	gütig	vergnügt	engagiert	vertrauen	krise	ausrottung	gierig	verbissen	engstirnig	versagen	genießen	träumen	kreativ	besonnen	gesittet	sonnig	gemein	töten	krank	bange	geizig	sterben	1	blank2r.bmp	0	1	+	0	1	blank2r.bmp	500	6	C2r.bmp	500	1	blank2r.bmp	880	1	gemein	880	0	0	0	0	0	0	0	0	0	0	0	0
2024-05-07	10:47:58	10:50:38	159377	6.6.1	4_exp_EVA_AWA_CON	15	A	B	Rpleas_acq	Same	Rpleas	2pleas	acq_US_unple_nomask	acq1_nomask	1	24	0	0	300	300	0	0	477	46	1	0	kuss	anregung	gütig	vergnügt	engagiert	vertrauen	krise	ausrottung	gierig	verbissen	engstirnig	versagen	genießen	träumen	kreativ	besonnen	gesittet	sonnig	gemein	töten	krank	bange	geizig	sterben	1	blank2r.bmp	0	1	+	0	1	blank2r.bmp	500	1	CPLW	500	1	blank2r.bmp	880	3	gierig	880	0	0	0	0	0	0	0	0	0	0	0	0
2024-05-07	10:47:58	10:50:40	161337	6.6.1	4_exp_EVA_AWA_CON	15	A	B	Rpleas_acq	Same	Rpleas	2pleas	acq_new_pleas_nomask	acq1_nomask	1	25	0	0	300	300	0	0	476	50	1	0	kuss	anregung	gütig	vergnügt	engagiert	vertrauen	krise	ausrottung	gierig	verbissen	engstirnig	versagen	genießen	träumen	kreativ	besonnen	gesittet	sonnig	gemein	töten	krank	bange	geizig	sterben	1	blank2r.bmp	0	1	+	0	1	blank2r.bmp	500	1	B1r.bmp	500	1	blank2r.bmp	880	1	genießen	880	0	0	0	0	0	0	0	0	0	0	0	0
2024-05-07	10:47:58	10:50:42	163489	6.6.1	4_exp_EVA_AWA_CON	15	A	B	Rpleas_acq	Same	Rpleas	2pleas	acq_US_pleas_nomask	acq1_nomask	1	26	0	0	300	300	0	0	667	50	1	0	kuss	anregung	gütig	vergnügt	engagiert	vertrauen	krise	ausrottung	gierig	verbissen	engstirnig	versagen	genießen	träumen	kreativ	besonnen	gesittet	sonnig	gemein	töten	krank	bange	geizig	sterben	1	blank2r.bmp	0	1	+	0	1	blank2r.bmp	500	1	DHJF	500	1	blank2r.bmp	880	4	vergnügt	880	0	0	0	0	0	0	0	0	0	0	0	0
2024-05-07	10:47:58	10:50:44	165593	6.6.1	4_exp_EVA_AWA_CON	15	A	B	Rpleas_acq	Same	Rpleas	2pleas	acq_US_unple_nomask	acq1_nomask	1	27	0	0	300	300	0	0	619	46	1	0	kuss	anregung	gütig	vergnügt	engagiert	vertrauen	krise	ausrottung	gierig	verbissen	engstirnig	versagen	genießen	träumen	kreativ	besonnen	gesittet	sonnig	gemein	töten	krank	bange	geizig	sterben	1	blank2r.bmp	0	1	+	0	1	blank2r.bmp	500	1	CPLW	500	1	blank2r.bmp	880	6	versagen	880	0	0	0	0	0	0	0	0	0	0	0	0
2024-05-07	10:47:58	10:50:46	167585	6.6.1	4_exp_EVA_AWA_CON	15	A	B	Rpleas_acq	Same	Rpleas	2pleas	acq_new_unple_nomask	acq1_nomask	1	28	0	0	300	300	0	0	510	46	1	0	kuss	anregung	gütig	vergnügt	engagiert	vertrauen	krise	ausrottung	gierig	verbissen	engstirnig	versagen	genießen	träumen	kreativ	besonnen	gesittet	sonnig	gemein	töten	krank	bange	geizig	sterben	1	blank2r.bmp	0	1	+	0	1	blank2r.bmp	500	4	B4r.bmp	500	1	blank2r.bmp	880	6	sterben	880	0	0	0	0	0	0	0	0	0	0	0	0
2024-05-07	10:47:58	10:50:48	169689	6.6.1	4_exp_EVA_AWA_CON	15	A	B	Rpleas_acq	Same	Rpleas	2pleas	acq_US_unple_nomask	acq1_nomask	1	29	0	0	300	300	0	0	623	46	1	0	kuss	anregung	gütig	vergnügt	engagiert	vertrauen	krise	ausrottung	gierig	verbissen	engstirnig	versagen	genießen	träumen	kreativ	besonnen	gesittet	sonnig	gemein	töten	krank	bange	geizig	sterben	1	blank2r.bmp	0	1	+	0	1	blank2r.bmp	500	1	CPLW	500	1	blank2r.bmp	880	5	engstirnig	880	0	0	0	0	0	0	0	0	0	0	0	0
2024-05-07	10:47:58	10:50:50	171753	6.6.1	4_exp_EVA_AWA_CON	15	A	B	Rpleas_acq	Same	Rpleas	2pleas	acq_US_unple_nomask	acq1_nomask	1	30	0	0	300	300	0	0	575	46	1	0	kuss	anregung	gütig	vergnügt	engagiert	vertrauen	krise	ausrottung	gierig	verbissen	engstirnig	versagen	genießen	träumen	kreativ	besonnen	gesittet	sonnig	gemein	töten	krank	bange	geizig	sterben	1	blank2r.bmp	0	1	+	0	1	blank2r.bmp	500	1	CPLW	500	1	blank2r.bmp	880	3	gierig	880	0	0	0	0	0	0	0	0	0	0	0	0
2024-05-07	10:47:58	10:50:52	173986	6.6.1	4_exp_EVA_AWA_CON	15	A	B	Rpleas_acq	Same	Rpleas	2pleas	acq_new_pleas_nomask	acq1_nomask	1	31	0	0	300	300	0	0	546	46	0	0	kuss	anregung	gütig	vergnügt	engagiert	vertrauen	krise	ausrottung	gierig	verbissen	engstirnig	versagen	genießen	träumen	kreativ	besonnen	gesittet	sonnig	gemein	töten	krank	bange	geizig	sterben	1	blank2r.bmp	0	1	+	0	1	blank2r.bmp	500	8	C4r.bmp	500	1	blank2r.bmp	880	5	gesittet	880	1	FEHLER	1448	0	0	0	0	0	0	0	0	0
2024-05-07	10:47:58	10:50:54	175833	6.6.1	4_exp_EVA_AWA_CON	15	A	B	Rpleas_acq	Same	Rpleas	2pleas	acq_US_pleas_nomask	acq1_nomask	1	32	0	0	300	300	0	0	563	50	1	0	kuss	anregung	gütig	vergnügt	engagiert	vertrauen	krise	ausrottung	gierig	verbissen	engstirnig	versagen	genießen	träumen	kreativ	besonnen	gesittet	sonnig	gemein	töten	krank	bange	geizig	sterben	1	blank2r.bmp	0	1	+	0	1	blank2r.bmp	500	1	DHJF	500	1	blank2r.bmp	880	3	gütig	880	0	0	0	0	0	0	0	0	0	0	0	0
2024-05-07	10:47:58	10:50:56	177945	6.6.1	4_exp_EVA_AWA_CON	15	A	B	Rpleas_acq	Same	Rpleas	2pleas	acq_US_pleas_nomask	acq1_nomask	1	33	0	0	300	300	0	0	623	50	1	0	kuss	anregung	gütig	vergnügt	engagiert	vertrauen	krise	ausrottung	gierig	verbissen	engstirnig	versagen	genießen	träumen	kreativ	besonnen	gesittet	sonnig	gemein	töten	krank	bange	geizig	sterben	1	blank2r.bmp	0	1	+	0	1	blank2r.bmp	500	1	DHJF	500	1	blank2r.bmp	880	6	vertrauen	880	0	0	0	0	0	0	0	0	0	0	0	0
2024-05-07	10:47:58	10:50:58	179985	6.6.1	4_exp_EVA_AWA_CON	15	A	B	Rpleas_acq	Same	Rpleas	2pleas	acq_new_pleas_nomask	acq1_nomask	1	34	0	0	300	300	0	0	552	50	1	0	kuss	anregung	gütig	vergnügt	engagiert	vertrauen	krise	ausrottung	gierig	verbissen	engstirnig	versagen	genießen	träumen	kreativ	besonnen	gesittet	sonnig	gemein	töten	krank	bange	geizig	sterben	1	blank2r.bmp	0	1	+	0	1	blank2r.bmp	500	5	C1r.bmp	500	1	blank2r.bmp	880	6	sonnig	880	0	0	0	0	0	0	0	0	0	0	0	0
2024-05-07	10:47:58	10:51:00	181985	6.6.1	4_exp_EVA_AWA_CON	15	A	B	Rpleas_acq	Same	Rpleas	2pleas	acq_new_unple_nomask	acq1_nomask	1	35	0	0	300	300	0	0	510	46	1	0	kuss	anregung	gütig	vergnügt	engagiert	vertrauen	krise	ausrottung	gierig	verbissen	engstirnig	versagen	genießen	träumen	kreativ	besonnen	gesittet	sonnig	gemein	töten	krank	bange	geizig	sterben	1	blank2r.bmp	0	1	+	0	1	blank2r.bmp	500	4	B4r.bmp	500	1	blank2r.bmp	880	2	töten	880	0	0	0	0	0	0	0	0	0	0	0	0
2024-05-07	10:47:58	10:51:02	184105	6.6.1	4_exp_EVA_AWA_CON	15	A	B	Rpleas_acq	Same	Rpleas	2pleas	acq_new_unple_nomask	acq1_nomask	1	36	0	0	300	300	0	0	629	46	1	0	kuss	anregung	gütig	vergnügt	engagiert	vertrauen	krise	ausrottung	gierig	verbissen	engstirnig	versagen	genießen	träumen	kreativ	besonnen	gesittet	sonnig	gemein	töten	krank	bange	geizig	sterben	1	blank2r.bmp	0	1	+	0	1	blank2r.bmp	500	1	B1r.bmp	500	1	blank2r.bmp	880	1	gemein	880	0	0	0	0	0	0	0	0	0	0	0	0
2024-05-07	10:47:58	10:51:30	211723	6.6.1	4_exp_EVA_AWA_CON	15	A	B	Rpleas_acq	Same	Rpleas	2pleas	acq_US_unple_nomask	acq2_nomask	2	1	480	0	300	300	0	0	980	46	1	0	kuss	anregung	gütig	vergnügt	engagiert	vertrauen	krise	ausrottung	gierig	verbissen	engstirnig	versagen	genießen	träumen	kreativ	besonnen	gesittet	sonnig	gemein	töten	krank	bange	geizig	sterben	1	blank2r.bmp	0	1	+	0	1	blank2r.bmp	500	1	CPLW	500	1	blank2r.bmp	880	4	verbissen	880	1	!	1313	1	!	-1	0	0	0	0	0	0
2024-05-07	10:47:58	10:51:32	213932	6.6.1	4_exp_EVA_AWA_CON	15	A	B	Rpleas_acq	Same	Rpleas	2pleas	acq_new_pleas_nomask	acq2_nomask	2	2	480	1	300	300	0	0	426	50	1	0	kuss	anregung	gütig	vergnügt	engagiert	vertrauen	krise	ausrottung	gierig	verbissen	engstirnig	versagen	genießen	träumen	kreativ	besonnen	gesittet	sonnig	gemein	töten	krank	bange	geizig	sterben	1	blank2r.bmp	0	1	+	0	1	blank2r.bmp	500	6	C2r.bmp	500	1	blank2r.bmp	880	4	besonnen	880	1	!	1312	1	!	1327	0	0	0	0	0	0
2024-05-07	10:47:58	10:51:35	216382	6.6.1	4_exp_EVA_AWA_CON	15	A	B	Rpleas_acq	Same	Rpleas	2pleas	acq_US_unple_nomask	acq2_nomask	2	3	480	1	300	300	0	0	472	50	0	0	kuss	anregung	gütig	vergnügt	engagiert	vertrauen	krise	ausrottung	gierig	verbissen	engstirnig	versagen	genießen	träumen	kreativ	besonnen	gesittet	sonnig	gemein	töten	krank	bange	geizig	sterben	1	blank2r.bmp	0	1	+	0	1	blank2r.bmp	500	1	CPLW	500	1	blank2r.bmp	880	2	ausrottung	880	1	FEHLER	1666	1	!	1313	1	!	1374	0	0	0
2024-05-07	10:47:58	10:51:37	218484	6.6.1	4_exp_EVA_AWA_CON	15	A	B	Rpleas_acq	Same	Rpleas	2pleas	acq_new_unple_nomask	acq2_nomask	2	4	480	1	300	300	0	0	525	46	1	0	kuss	anregung	gütig	vergnügt	engagiert	vertrauen	krise	ausrottung	gierig	verbissen	engstirnig	versagen	genießen	träumen	kreativ	besonnen	gesittet	sonnig	gemein	töten	krank	bange	geizig	sterben	1	blank2r.bmp	0	1	+	0	1	blank2r.bmp	500	3	B3r.bmp	500	1	blank2r.bmp	880	5	geizig	880	1	!	1312	1	!	1426	0	0	0	0	0	0
2024-05-07	10:47:58	10:51:39	220934	6.6.1	4_exp_EVA_AWA_CON	15	A	B	Rpleas_acq	Same	Rpleas	2pleas	acq_US_pleas_nomask	acq2_nomask	2	5	480	1	300	300	0	0	471	46	0	0	kuss	anregung	gütig	vergnügt	engagiert	vertrauen	krise	ausrottung	gierig	verbissen	engstirnig	versagen	genießen	träumen	kreativ	besonnen	gesittet	sonnig	gemein	töten	krank	bange	geizig	sterben	1	blank2r.bmp	0	1	+	0	1	blank2r.bmp	500	1	DHJF	500	1	blank2r.bmp	880	5	engagiert	880	1	FEHLER	1665	1	!	1312	1	!	1373	0	0	0
2024-05-07	10:47:58	10:51:41	223122	6.6.1	4_exp_EVA_AWA_CON	15	A	B	Rpleas_acq	Same	Rpleas	2pleas	acq_new_unple_nomask	acq2_nomask	2	6	480	0	300	300	0	0	612	46	1	0	kuss	anregung	gütig	vergnügt	engagiert	vertrauen	krise	ausrottung	gierig	verbissen	engstirnig	versagen	genießen	träumen	kreativ	besonnen	gesittet	sonnig	gemein	töten	krank	bange	geizig	sterben	1	blank2r.bmp	0	1	+	0	1	blank2r.bmp	500	5	C1r.bmp	500	1	blank2r.bmp	880	4	bange	880	1	!	1312	1	!	-1	0	0	0	0	0	0
2024-05-07	10:47:58	10:51:44	225574	6.6.1	4_exp_EVA_AWA_CON	15	A	B	Rpleas_acq	Same	Rpleas	2pleas	acq_US_pleas_nomask	acq2_nomask	2	7	480	1	300	300	0	0	468	46	0	0	kuss	anregung	gütig	vergnügt	engagiert	vertrauen	krise	ausrottung	gierig	verbissen	engstirnig	versagen	genießen	träumen	kreativ	besonnen	gesittet	sonnig	gemein	töten	krank	bange	geizig	sterben	1	blank2r.bmp	0	1	+	0	1	blank2r.bmp	500	1	DHJF	500	1	blank2r.bmp	880	2	anregung	880	1	FEHLER	1662	1	!	1313	1	!	1370	0	0	0
2024-05-07	10:47:58	10:51:46	227908	6.6.1	4_exp_EVA_AWA_CON	15	A	B	Rpleas_acq	Same	Rpleas	2pleas	acq_US_unple_nomask	acq2_nomask	2	8	480	0	300	300	0	0	554	50	0	0	kuss	anregung	gütig	vergnügt	engagiert	vertrauen	krise	ausrottung	gierig	verbissen	engstirnig	versagen	genießen	träumen	kreativ	besonnen	gesittet	sonnig	gemein	töten	krank	bange	geizig	sterben	1	blank2r.bmp	0	1	+	0	1	blank2r.bmp	500	1	CPLW	500	1	blank2r.bmp	880	1	krise	880	1	FEHLER	1745	1	!	1312	1	!	-1	0	0	0
2024-05-07	10:47:58	10:51:48	230051	6.6.1	4_exp_EVA_AWA_CON	15	A	B	Rpleas_acq	Same	Rpleas	2pleas	acq_new_pleas_nomask	acq2_nomask	2	9	480	0	300	300	0	0	565	50	1	0	kuss	anregung	gütig	vergnügt	engagiert	vertrauen	krise	ausrottung	gierig	verbissen	engstirnig	versagen	genießen	träumen	kreativ	besonnen	gesittet	sonnig	gemein	töten	krank	bange	geizig	sterben	1	blank2r.bmp	0	1	+	0	1	blank2r.bmp	500	8	C4r.bmp	500	1	blank2r.bmp	880	2	träumen	880	1	!	1313	1	!	-1	0	0	0	0	0	0
2024-05-07	10:47:58	10:51:50	232195	6.6.1	4_exp_EVA_AWA_CON	15	A	B	Rpleas_acq	Same	Rpleas	2pleas	acq_US_pleas_nomask	acq2_nomask	2	10	480	0	300	300	0	0	368	50	1	0	kuss	anregung	gütig	vergnügt	engagiert	vertrauen	krise	ausrottung	gierig	verbissen	engstirnig	versagen	genießen	träumen	kreativ	besonnen	gesittet	sonnig	gemein	töten	krank	bange	geizig	sterben	1	blank2r.bmp	0	1	+	0	1	blank2r.bmp	500	1	DHJF	500	1	blank2r.bmp	880	1	kuss	880	1	!	-1	1	!	-1	0	0	0	0	0	0
2024-05-07	10:47:58	10:51:53	234469	6.6.1	4_exp_EVA_AWA_CON	15	A	B	Rpleas_acq	Same	Rpleas	2pleas	acq_new_unple_nomask	acq2_nomask	2	11	480	1	300	300	0	0	498	46	1	0	kuss	anregung	gütig	vergnügt	engagiert	vertrauen	krise	ausrottung	gierig	verbissen	engstirnig	versagen	genießen	träumen	kreativ	besonnen	gesittet	sonnig	gemein	töten	krank	bange	geizig	sterben	1	blank2r.bmp	0	1	+	0	1	blank2r.bmp	500	7	C3r.bmp	500	1	blank2r.bmp	880	3	krank	880	1	!	1313	1	!	1400	0	0	0	0	0	0
2024-05-07	10:47:58	10:51:55	236748	6.6.1	4_exp_EVA_AWA_CON	15	A	B	Rpleas_acq	Same	Rpleas	2pleas	acq_new_pleas_nomask	acq2_nomask	2	12	480	1	300	300	0	0	497	50	1	0	kuss	anregung	gütig	vergnügt	engagiert	vertrauen	krise	ausrottung	gierig	verbissen	engstirnig	versagen	genießen	träumen	kreativ	besonnen	gesittet	sonnig	gemein	töten	krank	bange	geizig	sterben	1	blank2r.bmp	0	1	+	0	1	blank2r.bmp	500	2	B2r.bmp	500	1	blank2r.bmp	880	3	kreativ	880	1	!	1313	1	!	1398	0	0	0	0	0	0
2024-05-07	10:47:58	10:51:57	239044	6.6.1	4_exp_EVA_AWA_CON	15	A	B	Rpleas_acq	Same	Rpleas	2pleas	acq_new_unple_nomask	acq2_nomask	2	13	480	1	300	300	0	0	521	46	1	0	kuss	anregung	gütig	vergnügt	engagiert	vertrauen	krise	ausrottung	gierig	verbissen	engstirnig	versagen	genießen	träumen	kreativ	besonnen	gesittet	sonnig	gemein	töten	krank	bange	geizig	sterben	1	blank2r.bmp	0	1	+	0	1	blank2r.bmp	500	3	B3r.bmp	500	1	blank2r.bmp	880	4	bange	880	1	!	1313	1	!	1423	0	0	0	0	0	0
2024-05-07	10:47:58	10:52:00	241414	6.6.1	4_exp_EVA_AWA_CON	15	A	B	Rpleas_acq	Same	Rpleas	2pleas	acq_new_pleas_nomask	acq2_nomask	2	14	480	0	300	300	0	0	388	46	0	0	kuss	anregung	gütig	vergnügt	engagiert	vertrauen	krise	ausrottung	gierig	verbissen	engstirnig	versagen	genießen	träumen	kreativ	besonnen	gesittet	sonnig	gemein	töten	krank	bange	geizig	sterben	1	blank2r.bmp	0	1	+	0	1	blank2r.bmp	500	8	C4r.bmp	500	1	blank2r.bmp	880	5	gesittet	880	1	FEHLER	1582	1	!	-1	1	!	-1	0	0	0
2024-05-07	10:47:58	10:52:02	243517	6.6.1	4_exp_EVA_AWA_CON	15	A	B	Rpleas_acq	Same	Rpleas	2pleas	acq_US_unple_nomask	acq2_nomask	2	15	480	1	300	300	0	0	530	46	1	0	kuss	anregung	gütig	vergnügt	engagiert	vertrauen	krise	ausrottung	gierig	verbissen	engstirnig	versagen	genießen	träumen	kreativ	besonnen	gesittet	sonnig	gemein	töten	krank	bange	geizig	sterben	1	blank2r.bmp	0	1	+	0	1	blank2r.bmp	500	1	CPLW	500	1	blank2r.bmp	880	3	gierig	880	1	!	1313	1	!	1432	0	0	0	0	0	0
2024-05-07	10:47:58	10:52:04	245757	6.6.1	4_exp_EVA_AWA_CON	15	A	B	Rpleas_acq	Same	Rpleas	2pleas	acq_new_pleas_nomask	acq2_nomask	2	16	480	1	300	300	0	0	459	50	1	0	kuss	anregung	gütig	vergnügt	engagiert	vertrauen	krise	ausrottung	gierig	verbissen	engstirnig	versagen	genießen	träumen	kreativ	besonnen	gesittet	sonnig	gemein	töten	krank	bange	geizig	sterben	1	blank2r.bmp	0	1	+	0	1	blank2r.bmp	500	2	B2r.bmp	500	1	blank2r.bmp	880	6	sonnig	880	1	!	1312	1	!	1360	0	0	0	0	0	0
2024-05-07	10:47:58	10:52:06	248214	6.6.1	4_exp_EVA_AWA_CON	15	A	B	Rpleas_acq	Same	Rpleas	2pleas	acq_new_pleas_nomask	acq2_nomask	2	17	480	1	300	300	0	0	473	46	0	0	kuss	anregung	gütig	vergnügt	engagiert	vertrauen	krise	ausrottung	gierig	verbissen	engstirnig	versagen	genießen	träumen	kreativ	besonnen	gesittet	sonnig	gemein	töten	krank	bange	geizig	sterben	1	blank2r.bmp	0	1	+	0	1	blank2r.bmp	500	4	B4r.bmp	500	1	blank2r.bmp	880	1	genießen	880	1	FEHLER	1667	1	!	1312	1	!	1375	0	0	0
2024-05-07	10:47:58	10:52:08	250261	6.6.1	4_exp_EVA_AWA_CON	15	A	B	Rpleas_acq	Same	Rpleas	2pleas	acq_US_pleas_nomask	acq2_nomask	2	18	480	1	300	300	0	0	470	50	1	0	kuss	anregung	gütig	vergnügt	engagiert	vertrauen	krise	ausrottung	gierig	verbissen	engstirnig	versagen	genießen	träumen	kreativ	besonnen	gesittet	sonnig	gemein	töten	krank	bange	geizig	sterben	1	blank2r.bmp	0	1	+	0	1	blank2r.bmp	500	1	DHJF	500	1	blank2r.bmp	880	2	anregung	880	1	!	1313	1	!	1372	0	0	0	0	0	0
2024-05-07	10:47:58	10:52:11	252501	6.6.1	4_exp_EVA_AWA_CON	15	A	B	Rpleas_acq	Same	Rpleas	2pleas	acq_new_unple_nomask	acq2_nomask	2	19	480	1	300	300	0	0	459	46	1	0	kuss	anregung	gütig	vergnügt	engagiert	vertrauen	krise	ausrottung	gierig	verbissen	engstirnig	versagen	genießen	träumen	kreativ	besonnen	gesittet	sonnig	gemein	töten	krank	bange	geizig	sterben	1	blank2r.bmp	0	1	+	0	1	blank2r.bmp	500	6	C2r.bmp	500	1	blank2r.bmp	880	2	töten	880	1	!	1313	1	!	1360	0	0	0	0	0	0
2024-05-07	10:47:58	10:52:13	254691	6.6.1	4_exp_EVA_AWA_CON	15	A	B	Rpleas_acq	Same	Rpleas	2pleas	acq_US_pleas_nomask	acq2_nomask	2	20	480	0	300	300	0	0	409	50	1	0	kuss	anregung	gütig	vergnügt	engagiert	vertrauen	krise	ausrottung	gierig	verbissen	engstirnig	versagen	genießen	träumen	kreativ	besonnen	gesittet	sonnig	gemein	töten	krank	bange	geizig	sterben	1	blank2r.bmp	0	1	+	0	1	blank2r.bmp	500	1	DHJF	500	1	blank2r.bmp	880	1	kuss	880	1	!	-1	1	!	-1	0	0	0	0	0	0
2024-05-07	10:47:58	10:52:15	256965	6.6.1	4_exp_EVA_AWA_CON	15	A	B	Rpleas_acq	Same	Rpleas	2pleas	acq_US_pleas_nomask	acq2_nomask	2	21	480	1	300	300	0	0	500	50	1	0	kuss	anregung	gütig	vergnügt	engagiert	vertrauen	krise	ausrottung	gierig	verbissen	engstirnig	versagen	genießen	träumen	kreativ	besonnen	gesittet	sonnig	gemein	töten	krank	bange	geizig	sterben	1	blank2r.bmp	0	1	+	0	1	blank2r.bmp	500	1	DHJF	500	1	blank2r.bmp	880	4	vergnügt	880	1	!	1313	1	!	1402	0	0	0	0	0	0
2024-05-07	10:47:58	10:52:17	259139	6.6.1	4_exp_EVA_AWA_CON	15	A	B	Rpleas_acq	Same	Rpleas	2pleas	acq_new_unple_nomask	acq2_nomask	2	22	480	0	300	300	0	0	394	46	1	0	kuss	anregung	gütig	vergnügt	engagiert	vertrauen	krise	ausrottung	gierig	verbissen	engstirnig	versagen	genießen	träumen	kreativ	besonnen	gesittet	sonnig	gemein	töten	krank	bange	geizig	sterben	1	blank2r.bmp	0	1	+	0	1	blank2r.bmp	500	7	C3r.bmp	500	1	blank2r.bmp	880	1	gemein	880	1	!	-1	1	!	-1	0	0	0	0	0	0
2024-05-07	10:47:58	10:52:20	261597	6.6.1	4_exp_EVA_AWA_CON	15	A	B	Rpleas_acq	Same	Rpleas	2pleas	acq_US_unple_nomask	acq2_nomask	2	23	480	1	300	300	0	0	479	50	0	0	kuss	anregung	gütig	vergnügt	engagiert	vertrauen	krise	ausrottung	gierig	verbissen	engstirnig	versagen	genießen	träumen	kreativ	besonnen	gesittet	sonnig	gemein	töten	krank	bange	geizig	sterben	1	blank2r.bmp	0	1	+	0	1	blank2r.bmp	500	1	CPLW	500	1	blank2r.bmp	880	6	versagen	880	1	FEHLER	1672	1	!	1313	1	!	1380	0	0	0
2024-05-07	10:47:58	10:52:24	265875	6.6.1	4_exp_EVA_AWA_CON	15	A	B	Rpleas_acq	Same	Rpleas	2pleas	acq_US_unple_nomask	acq2_nomask	2	24	480	0	300	300	0	0	2697	46	1	0	kuss	anregung	gütig	vergnügt	engagiert	vertrauen	krise	ausrottung	gierig	verbissen	engstirnig	versagen	genießen	träumen	kreativ	besonnen	gesittet	sonnig	gemein	töten	krank	bange	geizig	sterben	1	blank2r.bmp	0	1	+	0	1	blank2r.bmp	500	1	CPLW	500	1	blank2r.bmp	880	4	verbissen	880	1	!	1312	1	!	-1	0	0	0	0	0	0
2024-05-07	10:47:58	10:52:26	268101	6.6.1	4_exp_EVA_AWA_CON	15	A	B	Rpleas_acq	Same	Rpleas	2pleas	acq_US_unple_nomask	acq2_nomask	2	25	480	1	300	300	0	0	448	46	1	0	kuss	anregung	gütig	vergnügt	engagiert	vertrauen	krise	ausrottung	gierig	verbissen	engstirnig	versagen	genießen	träumen	kreativ	besonnen	gesittet	sonnig	gemein	töten	krank	bange	geizig	sterben	1	blank2r.bmp	0	1	+	0	1	blank2r.bmp	500	1	CPLW	500	1	blank2r.bmp	880	1	krise	880	1	!	1313	1	!	1350	0	0	0	0	0	0
2024-05-07	10:47:58	10:52:29	270428	6.6.1	4_exp_EVA_AWA_CON	15	A	B	Rpleas_acq	Same	Rpleas	2pleas	acq_new_unple_nomask	acq2_nomask	2	26	480	1	300	300	0	0	545	46	1	0	kuss	anregung	gütig	vergnügt	engagiert	vertrauen	krise	ausrottung	gierig	verbissen	engstirnig	versagen	genießen	träumen	kreativ	besonnen	gesittet	sonnig	gemein	töten	krank	bange	geizig	sterben	1	blank2r.bmp	0	1	+	0	1	blank2r.bmp	500	1	B1r.bmp	500	1	blank2r.bmp	880	5	geizig	880	1	!	1313	1	!	1446	0	0	0	0	0	0
2024-05-07	10:47:58	10:52:31	272740	6.6.1	4_exp_EVA_AWA_CON	15	A	B	Rpleas_acq	Same	Rpleas	2pleas	acq_US_pleas_nomask	acq2_nomask	2	27	480	1	300	300	0	0	535	50	1	0	kuss	anregung	gütig	vergnügt	engagiert	vertrauen	krise	ausrottung	gierig	verbissen	engstirnig	versagen	genießen	träumen	kreativ	besonnen	gesittet	sonnig	gemein	töten	krank	bange	geizig	sterben	1	blank2r.bmp	0	1	+	0	1	blank2r.bmp	500	1	DHJF	500	1	blank2r.bmp	880	6	vertrauen	880	1	!	1312	1	!	1437	0	0	0	0	0	0
2024-05-07	10:47:58	10:52:33	275012	6.6.1	4_exp_EVA_AWA_CON	15	A	B	Rpleas_acq	Same	Rpleas	2pleas	acq_US_unple_nomask	acq2_nomask	2	28	480	1	300	300	0	0	496	46	1	0	kuss	anregung	gütig	vergnügt	engagiert	vertrauen	krise	ausrottung	gierig	verbissen	engstirnig	versagen	genießen	träumen	kreativ	besonnen	gesittet	sonnig	gemein	töten	krank	bange	geizig	sterben	1	blank2r.bmp	0	1	+	0	1	blank2r.bmp	500	1	CPLW	500	1	blank2r.bmp	880	5	engstirnig	880	1	!	1313	1	!	1397	0	0	0	0	0	0
2024-05-07	10:47:58	10:52:36	277447	6.6.1	4_exp_EVA_AWA_CON	15	A	B	Rpleas_acq	Same	Rpleas	2pleas	acq_new_pleas_nomask	acq2_nomask	2	29	480	1	300	300	0	0	456	46	0	0	kuss	anregung	gütig	vergnügt	engagiert	vertrauen	krise	ausrottung	gierig	verbissen	engstirnig	versagen	genießen	träumen	kreativ	besonnen	gesittet	sonnig	gemein	töten	krank	bange	geizig	sterben	1	blank2r.bmp	0	1	+	0	1	blank2r.bmp	500	5	C1r.bmp	500	1	blank2r.bmp	880	3	kreativ	880	1	FEHLER	1650	1	!	1313	1	!	1358	0	0	0
2024-05-07	10:47:58	10:52:38	279757	6.6.1	4_exp_EVA_AWA_CON	15	A	B	Rpleas_acq	Same	Rpleas	2pleas	acq_US_pleas_nomask	acq2_nomask	2	30	480	1	300	300	0	0	537	46	0	0	kuss	anregung	gütig	vergnügt	engagiert	vertrauen	krise	ausrottung	gierig	verbissen	engstirnig	versagen	genießen	träumen	kreativ	besonnen	gesittet	sonnig	gemein	töten	krank	bange	geizig	sterben	1	blank2r.bmp	0	1	+	0	1	blank2r.bmp	500	1	DHJF	500	1	blank2r.bmp	880	3	gütig	880	1	FEHLER	1730	1	!	1313	1	!	1438	0	0	0
2024-05-07	10:47:58	10:52:40	281979	6.6.1	4_exp_EVA_AWA_CON	15	A	B	Rpleas_acq	Same	Rpleas	2pleas	acq_US_unple_nomask	acq2_nomask	2	31	480	0	300	300	0	0	649	46	1	0	kuss	anregung	gütig	vergnügt	engagiert	vertrauen	krise	ausrottung	gierig	verbissen	engstirnig	versagen	genießen	träumen	kreativ	besonnen	gesittet	sonnig	gemein	töten	krank	bange	geizig	sterben	1	blank2r.bmp	0	1	+	0	1	blank2r.bmp	500	1	CPLW	500	1	blank2r.bmp	880	2	ausrottung	880	1	!	1313	1	!	-1	0	0	0	0	0	0
2024-05-07	10:47:58	10:52:43	284414	6.6.1	4_exp_EVA_AWA_CON	15	A	B	Rpleas_acq	Same	Rpleas	2pleas	acq_new_unple_nomask	acq2_nomask	2	32	480	1	300	300	0	0	450	50	0	0	kuss	anregung	gütig	vergnügt	engagiert	vertrauen	krise	ausrottung	gierig	verbissen	engstirnig	versagen	genießen	träumen	kreativ	besonnen	gesittet	sonnig	gemein	töten	krank	bange	geizig	sterben	1	blank2r.bmp	0	1	+	0	1	blank2r.bmp	500	1	B1r.bmp	500	1	blank2r.bmp	880	6	sterben	880	1	FEHLER	1644	1	!	1313	1	!	1352	0	0	0
2024-05-07	10:47:58	10:52:45	286395	6.6.1	4_exp_EVA_AWA_CON	15	A	B	Rpleas_acq	Same	Rpleas	2pleas	acq_new_unple_nomask	acq2_nomask	2	33	480	0	300	300	0	0	402	46	1	0	kuss	anregung	gütig	vergnügt	engagiert	vertrauen	krise	ausrottung	gierig	verbissen	engstirnig	versagen	genießen	träumen	kreativ	besonnen	gesittet	sonnig	gemein	töten	krank	bange	geizig	sterben	1	blank2r.bmp	0	1	+	0	1	blank2r.bmp	500	8	C4r.bmp	500	1	blank2r.bmp	880	3	krank	880	1	!	-1	1	!	-1	0	0	0	0	0	0
2024-05-07	10:47:58	10:52:47	288612	6.6.1	4_exp_EVA_AWA_CON	15	A	B	Rpleas_acq	Same	Rpleas	2pleas	acq_US_pleas_nomask	acq2_nomask	2	34	480	1	300	300	0	0	437	50	1	0	kuss	anregung	gütig	vergnügt	engagiert	vertrauen	krise	ausrottung	gierig	verbissen	engstirnig	versagen	genießen	träumen	kreativ	besonnen	gesittet	sonnig	gemein	töten	krank	bange	geizig	sterben	1	blank2r.bmp	0	1	+	0	1	blank2r.bmp	500	1	DHJF	500	1	blank2r.bmp	880	5	engagiert	880	1	!	1313	1	!	1339	0	0	0	0	0	0
2024-05-07	10:47:58	10:52:49	290892	6.6.1	4_exp_EVA_AWA_CON	15	A	B	Rpleas_acq	Same	Rpleas	2pleas	acq_new_pleas_nomask	acq2_nomask	2	35	480	1	300	300	0	0	505	50	1	0	kuss	anregung	gütig	vergnügt	engagiert	vertrauen	krise	ausrottung	gierig	verbissen	engstirnig	versagen	genießen	träumen	kreativ	besonnen	gesittet	sonnig	gemein	töten	krank	bange	geizig	sterben	1	blank2r.bmp	0	1	+	0	1	blank2r.bmp	500	2	B2r.bmp	500	1	blank2r.bmp	880	4	besonnen	880	1	!	1313	1	!	1407	0	0	0	0	0	0
2024-05-07	10:47:58	10:52:51	293124	6.6.1	4_exp_EVA_AWA_CON	15	A	B	Rpleas_acq	Same	Rpleas	2pleas	acq_new_pleas_nomask	acq2_nomask	2	36	480	1	300	300	0	0	456	50	1	0	kuss	anregung	gütig	vergnügt	engagiert	vertrauen	krise	ausrottung	gierig	verbissen	engstirnig	versagen	genießen	träumen	kreativ	besonnen	gesittet	sonnig	gemein	töten	krank	bange	geizig	sterben	1	blank2r.bmp	0	1	+	0	1	blank2r.bmp	500	6	C2r.bmp	500	1	blank2r.bmp	880	2	träumen	880	1	!	1313	1	!	1358	0	0	0	0	0	0
2024-05-07	10:47:58	10:53:04	305812	6.6.1	4_exp_EVA_AWA_CON	15	A	B	Rpleas_acq	Same	Rpleas	2pleas	acq_US_unple_nomask	acq3_nomask	3	1	453	1	300	300	0	0	416	46	1	0	kuss	anregung	gütig	vergnügt	engagiert	vertrauen	krise	ausrottung	gierig	verbissen	engstirnig	versagen	genießen	träumen	kreativ	besonnen	gesittet	sonnig	gemein	töten	krank	bange	geizig	sterben	1	blank2r.bmp	0	1	+	0	1	blank2r.bmp	500	1	CPLW	500	1	blank2r.bmp	880	1	krise	880	1	!	1292	1	!	1317	0	0	0	0	0	0
2024-05-07	10:47:58	10:53:06	308245	6.6.1	4_exp_EVA_AWA_CON	15	A	B	Rpleas_acq	Same	Rpleas	2pleas	acq_US_unple_nomask	acq3_nomask	3	2	453	1	300	300	0	0	456	50	0	0	kuss	anregung	gütig	vergnügt	engagiert	vertrauen	krise	ausrottung	gierig	verbissen	engstirnig	versagen	genießen	träumen	kreativ	besonnen	gesittet	sonnig	gemein	töten	krank	bange	geizig	sterben	1	blank2r.bmp	0	1	+	0	1	blank2r.bmp	500	1	CPLW	500	1	blank2r.bmp	880	6	versagen	880	1	FEHLER	1649	1	!	1292	1	!	1358	0	0	0
2024-05-07	10:47:58	10:53:08	310260	6.6.1	4_exp_EVA_AWA_CON	15	A	B	Rpleas_acq	Same	Rpleas	2pleas	acq_US_pleas_nomask	acq3_nomask	3	3	453	1	300	300	0	0	441	50	1	0	kuss	anregung	gütig	vergnügt	engagiert	vertrauen	krise	ausrottung	gierig	verbissen	engstirnig	versagen	genießen	träumen	kreativ	besonnen	gesittet	sonnig	gemein	töten	krank	bange	geizig	sterben	1	blank2r.bmp	0	1	+	0	1	blank2r.bmp	500	1	DHJF	500	1	blank2r.bmp	880	6	vertrauen	880	1	!	1292	1	!	1343	0	0	0	0	0	0
2024-05-07	10:47:58	10:53:11	312611	6.6.1	4_exp_EVA_AWA_CON	15	A	B	Rpleas_acq	Same	Rpleas	2pleas	acq_US_unple_nomask	acq3_nomask	3	4	453	0	300	300	0	0	571	46	1	0	kuss	anregung	gütig	vergnügt	engagiert	vertrauen	krise	ausrottung	gierig	verbissen	engstirnig	versagen	genießen	träumen	kreativ	besonnen	gesittet	sonnig	gemein	töten	krank	bange	geizig	sterben	1	blank2r.bmp	0	1	+	0	1	blank2r.bmp	500	1	CPLW	500	1	blank2r.bmp	880	5	engstirnig	880	1	!	1293	1	!	-1	0	0	0	0	0	0
2024-05-07	10:47:58	10:53:13	314820	6.6.1	4_exp_EVA_AWA_CON	15	A	B	Rpleas_acq	Same	Rpleas	2pleas	acq_US_pleas_nomask	acq3_nomask	3	5	453	1	300	300	0	0	428	50	1	0	kuss	anregung	gütig	vergnügt	engagiert	vertrauen	krise	ausrottung	gierig	verbissen	engstirnig	versagen	genießen	träumen	kreativ	besonnen	gesittet	sonnig	gemein	töten	krank	bange	geizig	sterben	1	blank2r.bmp	0	1	+	0	1	blank2r.bmp	500	1	DHJF	500	1	blank2r.bmp	880	2	anregung	880	1	!	1292	1	!	1329	0	0	0	0	0	0
2024-05-07	10:47:58	10:53:15	317238	6.6.1	4_exp_EVA_AWA_CON	15	A	B	Rpleas_acq	Same	Rpleas	2pleas	acq_US_pleas_nomask	acq3_nomask	3	6	453	1	300	300	0	0	442	46	0	0	kuss	anregung	gütig	vergnügt	engagiert	vertrauen	krise	ausrottung	gierig	verbissen	engstirnig	versagen	genießen	träumen	kreativ	besonnen	gesittet	sonnig	gemein	töten	krank	bange	geizig	sterben	1	blank2r.bmp	0	1	+	0	1	blank2r.bmp	500	1	DHJF	500	1	blank2r.bmp	880	4	vergnügt	880	1	FEHLER	1636	1	!	1293	1	!	1344	0	0	0
2024-05-07	10:47:58	10:53:18	319285	6.6.1	4_exp_EVA_AWA_CON	15	A	B	Rpleas_acq	Same	Rpleas	2pleas	acq_US_pleas_nomask	acq3_nomask	3	7	453	1	300	300	0	0	469	50	1	0	kuss	anregung	gütig	vergnügt	engagiert	vertrauen	krise	ausrottung	gierig	verbissen	engstirnig	versagen	genießen	träumen	kreativ	besonnen	gesittet	sonnig	gemein	töten	krank	bange	geizig	sterben	1	blank2r.bmp	0	1	+	0	1	blank2r.bmp	500	1	DHJF	500	1	blank2r.bmp	880	3	gütig	880	1	!	1292	1	!	1370	0	0	0	0	0	0
2024-05-07	10:47:58	10:53:20	321508	6.6.1	4_exp_EVA_AWA_CON	15	A	B	Rpleas_acq	Same	Rpleas	2pleas	acq_US_unple_nomask	acq3_nomask	3	8	453	1	300	300	0	0	441	46	1	0	kuss	anregung	gütig	vergnügt	engagiert	vertrauen	krise	ausrottung	gierig	verbissen	engstirnig	versagen	genießen	träumen	kreativ	besonnen	gesittet	sonnig	gemein	töten	krank	bange	geizig	sterben	1	blank2r.bmp	0	1	+	0	1	blank2r.bmp	500	1	CPLW	500	1	blank2r.bmp	880	2	ausrottung	880	1	!	1293	1	!	1343	0	0	0	0	0	0
2024-05-07	10:47:58	10:53:22	323796	6.6.1	4_exp_EVA_AWA_CON	15	A	B	Rpleas_acq	Same	Rpleas	2pleas	acq_US_unple_nomask	acq3_nomask	3	9	453	1	300	300	0	0	508	46	1	0	kuss	anregung	gütig	vergnügt	engagiert	vertrauen	krise	ausrottung	gierig	verbissen	engstirnig	versagen	genießen	träumen	kreativ	besonnen	gesittet	sonnig	gemein	töten	krank	bange	geizig	sterben	1	blank2r.bmp	0	1	+	0	1	blank2r.bmp	500	1	CPLW	500	1	blank2r.bmp	880	3	gierig	880	1	!	1293	1	!	1409	0	0	0	0	0	0
2024-05-07	10:47:58	10:53:24	326142	6.6.1	4_exp_EVA_AWA_CON	15	A	B	Rpleas_acq	Same	Rpleas	2pleas	acq_US_unple_nomask	acq3_nomask	3	10	453	0	300	300	0	0	360	50	0	0	kuss	anregung	gütig	vergnügt	engagiert	vertrauen	krise	ausrottung	gierig	verbissen	engstirnig	versagen	genießen	träumen	kreativ	besonnen	gesittet	sonnig	gemein	töten	krank	bange	geizig	sterben	1	blank2r.bmp	0	1	+	0	1	blank2r.bmp	500	1	CPLW	500	1	blank2r.bmp	880	4	verbissen	880	1	FEHLER	1554	1	!	-1	1	!	-1	0	0	0
2024-05-07	10:47:58	10:53:26	328228	6.6.1	4_exp_EVA_AWA_CON	15	A	B	Rpleas_acq	Same	Rpleas	2pleas	acq_US_pleas_nomask	acq3_nomask	3	11	453	1	300	300	0	0	507	50	1	0	kuss	anregung	gütig	vergnügt	engagiert	vertrauen	krise	ausrottung	gierig	verbissen	engstirnig	versagen	genießen	träumen	kreativ	besonnen	gesittet	sonnig	gemein	töten	krank	bange	geizig	sterben	1	blank2r.bmp	0	1	+	0	1	blank2r.bmp	500	1	DHJF	500	1	blank2r.bmp	880	5	engagiert	880	1	!	1292	1	!	1409	0	0	0	0	0	0
2024-05-07	10:47:58	10:53:29	330558	6.6.1	4_exp_EVA_AWA_CON	15	A	B	Rpleas_acq	Same	Rpleas	2pleas	acq_US_pleas_nomask	acq3_nomask	3	12	453	0	300	300	0	0	354	46	0	0	kuss	anregung	gütig	vergnügt	engagiert	vertrauen	krise	ausrottung	gierig	verbissen	engstirnig	versagen	genießen	träumen	kreativ	besonnen	gesittet	sonnig	gemein	töten	krank	bange	geizig	sterben	1	blank2r.bmp	0	1	+	0	1	blank2r.bmp	500	1	DHJF	500	1	blank2r.bmp	880	1	kuss	880	1	FEHLER	1547	1	!	-1	1	!	-1	0	0	0
2024-05-07	10:47:58	10:53:31	332829	6.6.1	4_exp_EVA_AWA_CON	15	A	B	Rpleas_acq	Same	Rpleas	2pleas	acq_US_pleas_nomask	acq3_nomask	3	13	453	1	300	300	0	0	494	46	0	0	kuss	anregung	gütig	vergnügt	engagiert	vertrauen	krise	ausrottung	gierig	verbissen	engstirnig	versagen	genießen	träumen	kreativ	besonnen	gesittet	sonnig	gemein	töten	krank	bange	geizig	sterben	1	blank2r.bmp	0	1	+	0	1	blank2r.bmp	500	1	DHJF	500	1	blank2r.bmp	880	3	gütig	880	1	FEHLER	1687	1	!	1292	1	!	1396	0	0	0
2024-05-07	10:47:58	10:53:33	334885	6.6.1	4_exp_EVA_AWA_CON	15	A	B	Rpleas_acq	Same	Rpleas	2pleas	acq_US_unple_nomask	acq3_nomask	3	14	453	1	300	300	0	0	479	46	1	0	kuss	anregung	gütig	vergnügt	engagiert	vertrauen	krise	ausrottung	gierig	verbissen	engstirnig	versagen	genießen	träumen	kreativ	besonnen	gesittet	sonnig	gemein	töten	krank	bange	geizig	sterben	1	blank2r.bmp	0	1	+	0	1	blank2r.bmp	500	1	CPLW	500	1	blank2r.bmp	880	2	ausrottung	880	1	!	1292	1	!	1380	0	0	0	0	0	0
2024-05-07	10:47:58	10:53:35	337172	6.6.1	4_exp_EVA_AWA_CON	15	A	B	Rpleas_acq	Same	Rpleas	2pleas	acq_US_unple_nomask	acq3_nomask	3	15	453	1	300	300	0	0	505	46	1	0	kuss	anregung	gütig	vergnügt	engagiert	vertrauen	krise	ausrottung	gierig	verbissen	engstirnig	versagen	genießen	träumen	kreativ	besonnen	gesittet	sonnig	gemein	töten	krank	bange	geizig	sterben	1	blank2r.bmp	0	1	+	0	1	blank2r.bmp	500	1	CPLW	500	1	blank2r.bmp	880	5	engstirnig	880	1	!	1293	1	!	1407	0	0	0	0	0	0
2024-05-07	10:47:58	10:53:38	339444	6.6.1	4_exp_EVA_AWA_CON	15	A	B	Rpleas_acq	Same	Rpleas	2pleas	acq_US_unple_nomask	acq3_nomask	3	16	453	1	300	300	0	0	496	46	1	0	kuss	anregung	gütig	vergnügt	engagiert	vertrauen	krise	ausrottung	gierig	verbissen	engstirnig	versagen	genießen	träumen	kreativ	besonnen	gesittet	sonnig	gemein	töten	krank	bange	geizig	sterben	1	blank2r.bmp	0	1	+	0	1	blank2r.bmp	500	1	CPLW	500	1	blank2r.bmp	880	4	verbissen	880	1	!	1293	1	!	1397	0	0	0	0	0	0
2024-05-07	10:47:58	10:53:40	341619	6.6.1	4_exp_EVA_AWA_CON	15	A	B	Rpleas_acq	Same	Rpleas	2pleas	acq_US_pleas_nomask	acq3_nomask	3	17	453	1	300	300	0	0	400	50	1	0	kuss	anregung	gütig	vergnügt	engagiert	vertrauen	krise	ausrottung	gierig	verbissen	engstirnig	versagen	genießen	träumen	kreativ	besonnen	gesittet	sonnig	gemein	töten	krank	bange	geizig	sterben	1	blank2r.bmp	0	1	+	0	1	blank2r.bmp	500	1	DHJF	500	1	blank2r.bmp	880	1	kuss	880	1	!	1293	1	!	1300	0	0	0	0	0	0
2024-05-07	10:47:58	10:53:42	343884	6.6.1	4_exp_EVA_AWA_CON	15	A	B	Rpleas_acq	Same	Rpleas	2pleas	acq_US_pleas_nomask	acq3_nomask	3	18	453	1	300	300	0	0	483	50	1	0	kuss	anregung	gütig	vergnügt	engagiert	vertrauen	krise	ausrottung	gierig	verbissen	engstirnig	versagen	genießen	träumen	kreativ	besonnen	gesittet	sonnig	gemein	töten	krank	bange	geizig	sterben	1	blank2r.bmp	0	1	+	0	1	blank2r.bmp	500	1	DHJF	500	1	blank2r.bmp	880	4	vergnügt	880	1	!	1293	1	!	1384	0	0	0	0	0	0
2024-05-07	10:47:58	10:53:44	346185	6.6.1	4_exp_EVA_AWA_CON	15	A	B	Rpleas_acq	Same	Rpleas	2pleas	acq_US_pleas_nomask	acq3_nomask	3	19	453	0	300	300	0	0	525	50	1	0	kuss	anregung	gütig	vergnügt	engagiert	vertrauen	krise	ausrottung	gierig	verbissen	engstirnig	versagen	genießen	träumen	kreativ	besonnen	gesittet	sonnig	gemein	töten	krank	bange	geizig	sterben	1	blank2r.bmp	0	1	+	0	1	blank2r.bmp	500	1	DHJF	500	1	blank2r.bmp	880	6	vertrauen	880	1	!	1292	1	!	-1	0	0	0	0	0	0
2024-05-07	10:47:58	10:53:47	348388	6.6.1	4_exp_EVA_AWA_CON	15	A	B	Rpleas_acq	Same	Rpleas	2pleas	acq_US_pleas_nomask	acq3_nomask	3	20	453	1	300	300	0	0	424	50	1	0	kuss	anregung	gütig	vergnügt	engagiert	vertrauen	krise	ausrottung	gierig	verbissen	engstirnig	versagen	genießen	träumen	kreativ	besonnen	gesittet	sonnig	gemein	töten	krank	bange	geizig	sterben	1	blank2r.bmp	0	1	+	0	1	blank2r.bmp	500	1	DHJF	500	1	blank2r.bmp	880	2	anregung	880	1	!	1293	1	!	1325	0	0	0	0	0	0
2024-05-07	10:47:58	10:53:49	350637	6.6.1	4_exp_EVA_AWA_CON	15	A	B	Rpleas_acq	Same	Rpleas	2pleas	acq_US_unple_nomask	acq3_nomask	3	21	453	1	300	300	0	0	470	46	1	0	kuss	anregung	gütig	vergnügt	engagiert	vertrauen	krise	ausrottung	gierig	verbissen	engstirnig	versagen	genießen	träumen	kreativ	besonnen	gesittet	sonnig	gemein	töten	krank	bange	geizig	sterben	1	blank2r.bmp	0	1	+	0	1	blank2r.bmp	500	1	CPLW	500	1	blank2r.bmp	880	6	versagen	880	1	!	1293	1	!	1372	0	0	0	0	0	0
2024-05-07	10:47:58	10:53:51	352868	6.6.1	4_exp_EVA_AWA_CON	15	A	B	Rpleas_acq	Same	Rpleas	2pleas	acq_US_pleas_nomask	acq3_nomask	3	22	453	1	300	300	0	0	451	50	1	0	kuss	anregung	gütig	vergnügt	engagiert	vertrauen	krise	ausrottung	gierig	verbissen	engstirnig	versagen	genießen	träumen	kreativ	besonnen	gesittet	sonnig	gemein	töten	krank	bange	geizig	sterben	1	blank2r.bmp	0	1	+	0	1	blank2r.bmp	500	1	DHJF	500	1	blank2r.bmp	880	5	engagiert	880	1	!	1292	1	!	1353	0	0	0	0	0	0
2024-05-07	10:47:58	10:53:53	355238	6.6.1	4_exp_EVA_AWA_CON	15	A	B	Rpleas_acq	Same	Rpleas	2pleas	acq_US_unple_nomask	acq3_nomask	3	23	453	0	300	300	0	0	387	50	0	0	kuss	anregung	gütig	vergnügt	engagiert	vertrauen	krise	ausrottung	gierig	verbissen	engstirnig	versagen	genießen	träumen	kreativ	besonnen	gesittet	sonnig	gemein	töten	krank	bange	geizig	sterben	1	blank2r.bmp	0	1	+	0	1	blank2r.bmp	500	1	CPLW	500	1	blank2r.bmp	880	3	gierig	880	1	FEHLER	1581	1	!	-1	1	!	-1	0	0	0
2024-05-07	10:47:58	10:53:55	357179	6.6.1	4_exp_EVA_AWA_CON	15	A	B	Rpleas_acq	Same	Rpleas	2pleas	acq_US_unple_nomask	acq3_nomask	3	24	453	0	300	300	0	0	370	46	1	0	kuss	anregung	gütig	vergnügt	engagiert	vertrauen	krise	ausrottung	gierig	verbissen	engstirnig	versagen	genießen	träumen	kreativ	besonnen	gesittet	sonnig	gemein	töten	krank	bange	geizig	sterben	1	blank2r.bmp	0	1	+	0	1	blank2r.bmp	500	1	CPLW	500	1	blank2r.bmp	880	1	krise	880	1	!	-1	1	!	-1	0	0	0	0	0	0
2024-05-07	10:47:58	10:53:58	359373	6.6.1	4_exp_EVA_AWA_CON	15	A	B	Rpleas_acq	Same	Rpleas	2pleas	acq_US_pleas_nomask	acq3_nomask	3	25	453	1	300	300	0	0	411	50	1	0	kuss	anregung	gütig	vergnügt	engagiert	vertrauen	krise	ausrottung	gierig	verbissen	engstirnig	versagen	genießen	träumen	kreativ	besonnen	gesittet	sonnig	gemein	töten	krank	bange	geizig	sterben	1	blank2r.bmp	0	1	+	0	1	blank2r.bmp	500	1	DHJF	500	1	blank2r.bmp	880	3	gütig	880	1	!	1292	1	!	1312	0	0	0	0	0	0
2024-05-07	10:47:58	10:54:00	361547	6.6.1	4_exp_EVA_AWA_CON	15	A	B	Rpleas_acq	Same	Rpleas	2pleas	acq_US_unple_nomask	acq3_nomask	3	26	453	1	300	300	0	0	395	46	1	0	kuss	anregung	gütig	vergnügt	engagiert	vertrauen	krise	ausrottung	gierig	verbissen	engstirnig	versagen	genießen	träumen	kreativ	besonnen	gesittet	sonnig	gemein	töten	krank	bange	geizig	sterben	1	blank2r.bmp	0	1	+	0	1	blank2r.bmp	500	1	CPLW	500	1	blank2r.bmp	880	6	versagen	880	1	!	1292	1	!	1295	0	0	0	0	0	0
2024-05-07	10:47:58	10:54:02	364014	6.6.1	4_exp_EVA_AWA_CON	15	A	B	Rpleas_acq	Same	Rpleas	2pleas	acq_US_unple_nomask	acq3_nomask	3	27	453	1	300	300	0	0	488	50	0	0	kuss	anregung	gütig	vergnügt	engagiert	vertrauen	krise	ausrottung	gierig	verbissen	engstirnig	versagen	genießen	träumen	kreativ	besonnen	gesittet	sonnig	gemein	töten	krank	bange	geizig	sterben	1	blank2r.bmp	0	1	+	0	1	blank2r.bmp	500	1	CPLW	500	1	blank2r.bmp	880	3	gierig	880	1	FEHLER	1681	1	!	1293	1	!	1389	0	0	0
2024-05-07	10:47:58	10:54:04	366052	6.6.1	4_exp_EVA_AWA_CON	15	A	B	Rpleas_acq	Same	Rpleas	2pleas	acq_US_unple_nomask	acq3_nomask	3	28	453	1	300	300	0	0	456	46	1	0	kuss	anregung	gütig	vergnügt	engagiert	vertrauen	krise	ausrottung	gierig	verbissen	engstirnig	versagen	genießen	träumen	kreativ	besonnen	gesittet	sonnig	gemein	töten	krank	bange	geizig	sterben	1	blank2r.bmp	0	1	+	0	1	blank2r.bmp	500	1	CPLW	500	1	blank2r.bmp	880	1	krise	880	1	!	1292	1	!	1358	0	0	0	0	0	0
2024-05-07	10:47:58	10:54:06	368195	6.6.1	4_exp_EVA_AWA_CON	15	A	B	Rpleas_acq	Same	Rpleas	2pleas	acq_US_unple_nomask	acq3_nomask	3	29	453	0	300	300	0	0	369	46	1	0	kuss	anregung	gütig	vergnügt	engagiert	vertrauen	krise	ausrottung	gierig	verbissen	engstirnig	versagen	genießen	träumen	kreativ	besonnen	gesittet	sonnig	gemein	töten	krank	bange	geizig	sterben	1	blank2r.bmp	0	1	+	0	1	blank2r.bmp	500	1	CPLW	500	1	blank2r.bmp	880	5	engstirnig	880	1	!	-1	1	!	-1	0	0	0	0	0	0
2024-05-07	10:47:58	10:54:09	370502	6.6.1	4_exp_EVA_AWA_CON	15	A	B	Rpleas_acq	Same	Rpleas	2pleas	acq_US_pleas_nomask	acq3_nomask	3	30	453	0	300	300	0	0	321	46	0	0	kuss	anregung	gütig	vergnügt	engagiert	vertrauen	krise	ausrottung	gierig	verbissen	engstirnig	versagen	genießen	träumen	kreativ	besonnen	gesittet	sonnig	gemein	töten	krank	bange	geizig	sterben	1	blank2r.bmp	0	1	+	0	1	blank2r.bmp	500	1	DHJF	500	1	blank2r.bmp	880	4	vergnügt	880	1	FEHLER	1515	1	!	-1	1	!	-1	0	0	0
2024-05-07	10:47:58	10:54:11	372642	6.6.1	4_exp_EVA_AWA_CON	15	A	B	Rpleas_acq	Same	Rpleas	2pleas	acq_US_pleas_nomask	acq3_nomask	3	31	453	0	300	300	0	0	564	50	1	0	kuss	anregung	gütig	vergnügt	engagiert	vertrauen	krise	ausrottung	gierig	verbissen	engstirnig	versagen	genießen	träumen	kreativ	besonnen	gesittet	sonnig	gemein	töten	krank	bange	geizig	sterben	1	blank2r.bmp	0	1	+	0	1	blank2r.bmp	500	1	DHJF	500	1	blank2r.bmp	880	2	anregung	880	1	!	1292	1	!	-1	0	0	0	0	0	0
2024-05-07	10:47:58	10:54:13	375014	6.6.1	4_exp_EVA_AWA_CON	15	A	B	Rpleas_acq	Same	Rpleas	2pleas	acq_US_pleas_nomask	acq3_nomask	3	32	453	0	300	300	0	0	391	46	0	0	kuss	anregung	gütig	vergnügt	engagiert	vertrauen	krise	ausrottung	gierig	verbissen	engstirnig	versagen	genießen	träumen	kreativ	besonnen	gesittet	sonnig	gemein	töten	krank	bange	geizig	sterben	1	blank2r.bmp	0	1	+	0	1	blank2r.bmp	500	1	DHJF	500	1	blank2r.bmp	880	6	vertrauen	880	1	FEHLER	1584	1	!	-1	1	!	-1	0	0	0
2024-05-07	10:47:58	10:54:15	376971	6.6.1	4_exp_EVA_AWA_CON	15	A	B	Rpleas_acq	Same	Rpleas	2pleas	acq_US_pleas_nomask	acq3_nomask	3	33	453	0	300	300	0	0	379	50	1	0	kuss	anregung	gütig	vergnügt	engagiert	vertrauen	krise	ausrottung	gierig	verbissen	engstirnig	versagen	genießen	träumen	kreativ	besonnen	gesittet	sonnig	gemein	töten	krank	bange	geizig	sterben	1	blank2r.bmp	0	1	+	0	1	blank2r.bmp	500	1	DHJF	500	1	blank2r.bmp	880	1	kuss	880	1	!	-1	1	!	-1	0	0	0	0	0	0
2024-05-07	10:47:58	10:54:17	379147	6.6.1	4_exp_EVA_AWA_CON	15	A	B	Rpleas_acq	Same	Rpleas	2pleas	acq_US_pleas_nomask	acq3_nomask	3	34	453	1	300	300	0	0	394	50	1	0	kuss	anregung	gütig	vergnügt	engagiert	vertrauen	krise	ausrottung	gierig	verbissen	engstirnig	versagen	genießen	träumen	kreativ	besonnen	gesittet	sonnig	gemein	töten	krank	bange	geizig	sterben	1	blank2r.bmp	0	1	+	0	1	blank2r.bmp	500	1	DHJF	500	1	blank2r.bmp	880	5	engagiert	880	1	!	1293	1	!	1293	0	0	0	0	0	0
2024-05-07	10:47:58	10:54:20	381323	6.6.1	4_exp_EVA_AWA_CON	15	A	B	Rpleas_acq	Same	Rpleas	2pleas	acq_US_unple_nomask	acq3_nomask	3	35	453	1	300	300	0	0	398	46	1	0	kuss	anregung	gütig	vergnügt	engagiert	vertrauen	krise	ausrottung	gierig	verbissen	engstirnig	versagen	genießen	träumen	kreativ	besonnen	gesittet	sonnig	gemein	töten	krank	bange	geizig	sterben	1	blank2r.bmp	0	1	+	0	1	blank2r.bmp	500	1	CPLW	500	1	blank2r.bmp	880	4	verbissen	880	1	!	1292	1	!	1298	0	0	0	0	0	0
2024-05-07	10:47:58	10:54:22	383557	6.6.1	4_exp_EVA_AWA_CON	15	A	B	Rpleas_acq	Same	Rpleas	2pleas	acq_US_unple_nomask	acq3_nomask	3	36	453	1	300	300	0	0	459	46	1	0	kuss	anregung	gütig	vergnügt	engagiert	vertrauen	krise	ausrottung	gierig	verbissen	engstirnig	versagen	genießen	träumen	kreativ	besonnen	gesittet	sonnig	gemein	töten	krank	bange	geizig	sterben	1	blank2r.bmp	0	1	+	0	1	blank2r.bmp	500	1	CPLW	500	1	blank2r.bmp	880	2	ausrottung	880	1	!	1293	1	!	1360	0	0	0	0	0	0
2024-05-07	10:47:58	10:54:35	396435	6.6.1	4_exp_EVA_AWA_CON	15	A	B	Rpleas_acq	Same	Rpleas	2pleas	acq_US_pleas_nomask	acq45_nomask	4	1	400	0	300	300	0	0	501	50	1	0	kuss	anregung	gütig	vergnügt	engagiert	vertrauen	krise	ausrottung	gierig	verbissen	engstirnig	versagen	genießen	träumen	kreativ	besonnen	gesittet	sonnig	gemein	töten	krank	bange	geizig	sterben	1	blank2r.bmp	0	1	+	0	1	blank2r.bmp	500	1	DHJF	500	1	blank2r.bmp	880	5	engagiert	880	1	!	1233	1	!	-1	0	0	0	0	0	0
2024-05-07	10:47:58	10:54:37	398555	6.6.1	4_exp_EVA_AWA_CON	15	A	B	Rpleas_acq	Same	Rpleas	2pleas	acq_US_unple_nomask	acq45_nomask	4	2	400	1	300	300	0	0	339	46	1	0	kuss	anregung	gütig	vergnügt	engagiert	vertrauen	krise	ausrottung	gierig	verbissen	engstirnig	versagen	genießen	träumen	kreativ	besonnen	gesittet	sonnig	gemein	töten	krank	bange	geizig	sterben	1	blank2r.bmp	0	1	+	0	1	blank2r.bmp	500	1	CPLW	500	1	blank2r.bmp	880	1	krise	880	1	!	1233	1	!	1239	0	0	0	0	0	0
2024-05-07	10:47:58	10:54:39	400764	6.6.1	4_exp_EVA_AWA_CON	15	A	B	Rpleas_acq	Same	Rpleas	2pleas	acq_US_unple_nomask	acq45_nomask	4	3	400	1	300	300	0	0	426	50	0	0	kuss	anregung	gütig	vergnügt	engagiert	vertrauen	krise	ausrottung	gierig	verbissen	engstirnig	versagen	genießen	träumen	kreativ	besonnen	gesittet	sonnig	gemein	töten	krank	bange	geizig	sterben	1	blank2r.bmp	0	1	+	0	1	blank2r.bmp	500	1	CPLW	500	1	blank2r.bmp	880	6	versagen	880	1	!	1232	1	!	1327	0	0	0	0	0	0
2024-05-07	10:47:58	10:54:41	402964	6.6.1	4_exp_EVA_AWA_CON	15	A	B	Rpleas_acq	Same	Rpleas	2pleas	acq_US_unple_nomask	acq45_nomask	4	4	400	1	300	300	0	0	424	46	1	0	kuss	anregung	gütig	vergnügt	engagiert	vertrauen	krise	ausrottung	gierig	verbissen	engstirnig	versagen	genießen	träumen	kreativ	besonnen	gesittet	sonnig	gemein	töten	krank	bange	geizig	sterben	1	blank2r.bmp	0	1	+	0	1	blank2r.bmp	500	1	CPLW	500	1	blank2r.bmp	880	4	verbissen	880	1	!	1232	1	!	1326	0	0	0	0	0	0
2024-05-07	10:47:58	10:54:44	405291	6.6.1	4_exp_EVA_AWA_CON	15	A	B	Rpleas_acq	Same	Rpleas	2pleas	acq_US_pleas_nomask	acq45_nomask	4	5	400	0	300	300	0	0	551	46	0	0	kuss	anregung	gütig	vergnügt	engagiert	vertrauen	krise	ausrottung	gierig	verbissen	engstirnig	versagen	genießen	träumen	kreativ	besonnen	gesittet	sonnig	gemein	töten	krank	bange	geizig	sterben	1	blank2r.bmp	0	1	+	0	1	blank2r.bmp	500	1	DHJF	500	1	blank2r.bmp	880	2	anregung	880	1	!	1233	1	!	-1	0	0	0	0	0	0
2024-05-07	10:47:58	10:54:46	407452	6.6.1	4_exp_EVA_AWA_CON	15	A	B	Rpleas_acq	Same	Rpleas	2pleas	acq_US_pleas_nomask	acq45_nomask	4	6	400	1	300	300	0	0	379	46	0	0	kuss	anregung	gütig	vergnügt	engagiert	vertrauen	krise	ausrottung	gierig	verbissen	engstirnig	versagen	genießen	träumen	kreativ	besonnen	gesittet	sonnig	gemein	töten	krank	bange	geizig	sterben	1	blank2r.bmp	0	1	+	0	1	blank2r.bmp	500	1	DHJF	500	1	blank2r.bmp	880	1	kuss	880	1	!	1232	1	!	1281	0	0	0	0	0	0
2024-05-07	10:47:58	10:54:48	409723	6.6.1	4_exp_EVA_AWA_CON	15	A	B	Rpleas_acq	Same	Rpleas	2pleas	acq_US_pleas_nomask	acq45_nomask	4	7	400	0	300	300	0	0	490	50	1	0	kuss	anregung	gütig	vergnügt	engagiert	vertrauen	krise	ausrottung	gierig	verbissen	engstirnig	versagen	genießen	träumen	kreativ	besonnen	gesittet	sonnig	gemein	töten	krank	bange	geizig	sterben	1	blank2r.bmp	0	1	+	0	1	blank2r.bmp	500	1	DHJF	500	1	blank2r.bmp	880	6	vertrauen	880	1	!	1232	1	!	-1	0	0	0	0	0	0
2024-05-07	10:47:58	10:54:50	411877	6.6.1	4_exp_EVA_AWA_CON	15	A	B	Rpleas_acq	Same	Rpleas	2pleas	acq_US_pleas_nomask	acq45_nomask	4	8	400	1	300	300	0	0	370	50	1	0	kuss	anregung	gütig	vergnügt	engagiert	vertrauen	krise	ausrottung	gierig	verbissen	engstirnig	versagen	genießen	träumen	kreativ	besonnen	gesittet	sonnig	gemein	töten	krank	bange	geizig	sterben	1	blank2r.bmp	0	1	+	0	1	blank2r.bmp	500	1	DHJF	500	1	blank2r.bmp	880	3	gütig	880	1	!	1233	1	!	1273	0	0	0	0	0	0
2024-05-07	10:47:58	10:54:52	414092	6.6.1	4_exp_EVA_AWA_CON	15	A	B	Rpleas_acq	Same	Rpleas	2pleas	acq_US_unple_nomask	acq45_nomask	4	9	400	1	300	300	0	0	435	50	0	0	kuss	anregung	gütig	vergnügt	engagiert	vertrauen	krise	ausrottung	gierig	verbissen	engstirnig	versagen	genießen	träumen	kreativ	besonnen	gesittet	sonnig	gemein	töten	krank	bange	geizig	sterben	1	blank2r.bmp	0	1	+	0	1	blank2r.bmp	500	1	CPLW	500	1	blank2r.bmp	880	5	engstirnig	880	1	!	1232	1	!	1336	0	0	0	0	0	0
2024-05-07	10:47:58	10:54:55	416292	6.6.1	4_exp_EVA_AWA_CON	15	A	B	Rpleas_acq	Same	Rpleas	2pleas	acq_US_pleas_nomask	acq45_nomask	4	10	400	1	300	300	0	0	424	50	1	0	kuss	anregung	gütig	vergnügt	engagiert	vertrauen	krise	ausrottung	gierig	verbissen	engstirnig	versagen	genießen	träumen	kreativ	besonnen	gesittet	sonnig	gemein	töten	krank	bange	geizig	sterben	1	blank2r.bmp	0	1	+	0	1	blank2r.bmp	500	1	DHJF	500	1	blank2r.bmp	880	4	vergnügt	880	1	!	1232	1	!	1325	0	0	0	0	0	0
2024-05-07	10:47:58	10:54:57	418421	6.6.1	4_exp_EVA_AWA_CON	15	A	B	Rpleas_acq	Same	Rpleas	2pleas	acq_US_pleas_nomask	acq45_nomask	4	11	400	1	300	300	0	0	350	50	1	0	kuss	anregung	gütig	vergnügt	engagiert	vertrauen	krise	ausrottung	gierig	verbissen	engstirnig	versagen	genießen	träumen	kreativ	besonnen	gesittet	sonnig	gemein	töten	krank	bange	geizig	sterben	1	blank2r.bmp	0	1	+	0	1	blank2r.bmp	500	1	DHJF	500	1	blank2r.bmp	880	4	vergnügt	880	1	!	1233	1	!	1252	0	0	0	0	0	0
2024-05-07	10:47:58	10:54:59	420596	6.6.1	4_exp_EVA_AWA_CON	15	A	B	Rpleas_acq	Same	Rpleas	2pleas	acq_US_unple_nomask	acq45_nomask	4	12	400	1	300	300	0	0	395	50	0	0	kuss	anregung	gütig	vergnügt	engagiert	vertrauen	krise	ausrottung	gierig	verbissen	engstirnig	versagen	genießen	träumen	kreativ	besonnen	gesittet	sonnig	gemein	töten	krank	bange	geizig	sterben	1	blank2r.bmp	0	1	+	0	1	blank2r.bmp	500	1	CPLW	500	1	blank2r.bmp	880	2	ausrottung	880	1	!	1233	1	!	1296	0	0	0	0	0	0
2024-05-07	10:47:58	10:55:01	422899	6.6.1	4_exp_EVA_AWA_CON	15	A	B	Rpleas_acq	Same	Rpleas	2pleas	acq_US_unple_nomask	acq45_nomask	4	13	400	0	300	300	0	0	527	46	1	0	kuss	anregung	gütig	vergnügt	engagiert	vertrauen	krise	ausrottung	gierig	verbissen	engstirnig	versagen	genießen	träumen	kreativ	besonnen	gesittet	sonnig	gemein	töten	krank	bange	geizig	sterben	1	blank2r.bmp	0	1	+	0	1	blank2r.bmp	500	1	CPLW	500	1	blank2r.bmp	880	3	gierig	880	1	!	1232	1	!	-1	0	0	0	0	0	0
2024-05-07	10:47:58	10:55:03	425011	6.6.1	4_exp_EVA_AWA_CON	15	A	B	Rpleas_acq	Same	Rpleas	2pleas	acq_US_unple_nomask	acq45_nomask	4	14	400	1	300	300	0	0	338	46	1	0	kuss	anregung	gütig	vergnügt	engagiert	vertrauen	krise	ausrottung	gierig	verbissen	engstirnig	versagen	genießen	träumen	kreativ	besonnen	gesittet	sonnig	gemein	töten	krank	bange	geizig	sterben	1	blank2r.bmp	0	1	+	0	1	blank2r.bmp	500	1	CPLW	500	1	blank2r.bmp	880	4	verbissen	880	1	!	1232	1	!	1237	0	0	0	0	0	0
2024-05-07	10:47:58	10:55:06	427315	6.6.1	4_exp_EVA_AWA_CON	15	A	B	Rpleas_acq	Same	Rpleas	2pleas	acq_US_unple_nomask	acq45_nomask	4	15	400	0	300	300	0	0	530	46	1	0	kuss	anregung	gütig	vergnügt	engagiert	vertrauen	krise	ausrottung	gierig	verbissen	engstirnig	versagen	genießen	träumen	kreativ	besonnen	gesittet	sonnig	gemein	töten	krank	bange	geizig	sterben	1	blank2r.bmp	0	1	+	0	1	blank2r.bmp	500	1	CPLW	500	1	blank2r.bmp	880	5	engstirnig	880	1	!	1232	1	!	-1	0	0	0	0	0	0
2024-05-07	10:47:58	10:55:08	429411	6.6.1	4_exp_EVA_AWA_CON	15	A	B	Rpleas_acq	Same	Rpleas	2pleas	acq_US_pleas_nomask	acq45_nomask	4	16	400	0	300	300	0	0	315	46	0	0	kuss	anregung	gütig	vergnügt	engagiert	vertrauen	krise	ausrottung	gierig	verbissen	engstirnig	versagen	genießen	träumen	kreativ	besonnen	gesittet	sonnig	gemein	töten	krank	bange	geizig	sterben	1	blank2r.bmp	0	1	+	0	1	blank2r.bmp	500	1	DHJF	500	1	blank2r.bmp	880	3	gütig	880	1	!	-1	1	!	-1	0	0	0	0	0	0
2024-05-07	10:47:58	10:55:10	431580	6.6.1	4_exp_EVA_AWA_CON	15	A	B	Rpleas_acq	Same	Rpleas	2pleas	acq_US_unple_nomask	acq45_nomask	4	17	400	1	300	300	0	0	391	50	0	0	kuss	anregung	gütig	vergnügt	engagiert	vertrauen	krise	ausrottung	gierig	verbissen	engstirnig	versagen	genießen	träumen	kreativ	besonnen	gesittet	sonnig	gemein	töten	krank	bange	geizig	sterben	1	blank2r.bmp	0	1	+	0	1	blank2r.bmp	500	1	CPLW	500	1	blank2r.bmp	880	2	ausrottung	880	1	!	1232	1	!	1293	0	0	0	0	0	0
2024-05-07	10:47:58	10:55:12	433724	6.6.1	4_exp_EVA_AWA_CON	15	A	B	Rpleas_acq	Same	Rpleas	2pleas	acq_US_pleas_nomask	acq45_nomask	4	18	400	1	300	300	0	0	364	46	0	0	kuss	anregung	gütig	vergnügt	engagiert	vertrauen	krise	ausrottung	gierig	verbissen	engstirnig	versagen	genießen	träumen	kreativ	besonnen	gesittet	sonnig	gemein	töten	krank	bange	geizig	sterben	1	blank2r.bmp	0	1	+	0	1	blank2r.bmp	500	1	DHJF	500	1	blank2r.bmp	880	1	kuss	880	1	!	1233	1	!	1266	0	0	0	0	0	0
2024-05-07	10:47:58	10:55:14	436019	6.6.1	4_exp_EVA_AWA_CON	15	A	B	Rpleas_acq	Same	Rpleas	2pleas	acq_US_unple_nomask	acq45_nomask	4	19	400	0	300	300	0	0	519	46	1	0	kuss	anregung	gütig	vergnügt	engagiert	vertrauen	krise	ausrottung	gierig	verbissen	engstirnig	versagen	genießen	träumen	kreativ	besonnen	gesittet	sonnig	gemein	töten	krank	bange	geizig	sterben	1	blank2r.bmp	0	1	+	0	1	blank2r.bmp	500	1	CPLW	500	1	blank2r.bmp	880	1	krise	880	1	!	1232	1	!	-1	0	0	0	0	0	0
2024-05-07	10:47:58	10:55:17	438419	6.6.1	4_exp_EVA_AWA_CON	15	A	B	Rpleas_acq	Same	Rpleas	2pleas	acq_US_pleas_nomask	acq45_nomask	4	20	400	0	300	300	0	0	617	50	1	0	kuss	anregung	gütig	vergnügt	engagiert	vertrauen	krise	ausrottung	gierig	verbissen	engstirnig	versagen	genießen	träumen	kreativ	besonnen	gesittet	sonnig	gemein	töten	krank	bange	geizig	sterben	1	blank2r.bmp	0	1	+	0	1	blank2r.bmp	500	1	DHJF	500	1	blank2r.bmp	880	6	vertrauen	880	1	!	1232	1	!	-1	0	0	0	0	0	0
2024-05-07	10:47:58	10:55:19	440572	6.6.1	4_exp_EVA_AWA_CON	15	A	B	Rpleas_acq	Same	Rpleas	2pleas	acq_US_pleas_nomask	acq45_nomask	4	21	400	1	300	300	0	0	377	50	1	0	kuss	anregung	gütig	vergnügt	engagiert	vertrauen	krise	ausrottung	gierig	verbissen	engstirnig	versagen	genießen	träumen	kreativ	besonnen	gesittet	sonnig	gemein	töten	krank	bange	geizig	sterben	1	blank2r.bmp	0	1	+	0	1	blank2r.bmp	500	1	DHJF	500	1	blank2r.bmp	880	2	anregung	880	1	!	1232	1	!	1279	0	0	0	0	0	0
2024-05-07	10:47:58	10:55:21	442780	6.6.1	4_exp_EVA_AWA_CON	15	A	B	Rpleas_acq	Same	Rpleas	2pleas	acq_US_pleas_nomask	acq45_nomask	4	22	400	1	300	300	0	0	424	50	1	0	kuss	anregung	gütig	vergnügt	engagiert	vertrauen	krise	ausrottung	gierig	verbissen	engstirnig	versagen	genießen	träumen	kreativ	besonnen	gesittet	sonnig	gemein	töten	krank	bange	geizig	sterben	1	blank2r.bmp	0	1	+	0	1	blank2r.bmp	500	1	DHJF	500	1	blank2r.bmp	880	5	engagiert	880	1	!	1233	1	!	1326	0	0	0	0	0	0
2024-05-07	10:47:58	10:55:23	444980	6.6.1	4_exp_EVA_AWA_CON	15	A	B	Rpleas_acq	Same	Rpleas	2pleas	acq_US_pleas_nomask	acq45_nomask	4	23	400	1	300	300	0	0	423	50	1	0	kuss	anregung	gütig	vergnügt	engagiert	vertrauen	krise	ausrottung	gierig	verbissen	engstirnig	versagen	genießen	träumen	kreativ	besonnen	gesittet	sonnig	gemein	töten	krank	bange	geizig	sterben	1	blank2r.bmp	0	1	+	0	1	blank2r.bmp	500	1	DHJF	500	1	blank2r.bmp	880	6	vertrauen	880	1	!	1232	1	!	1324	0	0	0	0	0	0
2024-05-07	10:47:58	10:55:25	447148	6.6.1	4_exp_EVA_AWA_CON	15	A	B	Rpleas_acq	Same	Rpleas	2pleas	acq_US_pleas_nomask	acq45_nomask	4	24	400	1	300	300	0	0	389	50	1	0	kuss	anregung	gütig	vergnügt	engagiert	vertrauen	krise	ausrottung	gierig	verbissen	engstirnig	versagen	genießen	träumen	kreativ	besonnen	gesittet	sonnig	gemein	töten	krank	bange	geizig	sterben	1	blank2r.bmp	0	1	+	0	1	blank2r.bmp	500	1	DHJF	500	1	blank2r.bmp	880	5	engagiert	880	1	!	1233	1	!	1291	0	0	0	0	0	0
2024-05-07	10:47:58	10:55:28	449301	6.6.1	4_exp_EVA_AWA_CON	15	A	B	Rpleas_acq	Same	Rpleas	2pleas	acq_US_unple_nomask	acq45_nomask	4	25	400	1	300	300	0	0	370	46	1	0	kuss	anregung	gütig	vergnügt	engagiert	vertrauen	krise	ausrottung	gierig	verbissen	engstirnig	versagen	genießen	träumen	kreativ	besonnen	gesittet	sonnig	gemein	töten	krank	bange	geizig	sterben	1	blank2r.bmp	0	1	+	0	1	blank2r.bmp	500	1	CPLW	500	1	blank2r.bmp	880	6	versagen	880	1	!	1232	1	!	1272	0	0	0	0	0	0
2024-05-07	10:47:58	10:55:30	451484	6.6.1	4_exp_EVA_AWA_CON	15	A	B	Rpleas_acq	Same	Rpleas	2pleas	acq_US_unple_nomask	acq45_nomask	4	26	400	1	300	300	0	0	402	46	1	0	kuss	anregung	gütig	vergnügt	engagiert	vertrauen	krise	ausrottung	gierig	verbissen	engstirnig	versagen	genießen	träumen	kreativ	besonnen	gesittet	sonnig	gemein	töten	krank	bange	geizig	sterben	1	blank2r.bmp	0	1	+	0	1	blank2r.bmp	500	1	CPLW	500	1	blank2r.bmp	880	3	gierig	880	1	!	1232	1	!	1304	0	0	0	0	0	0
2024-05-07	10:47:58	10:55:32	453676	6.6.1	4_exp_EVA_AWA_CON	15	A	B	Rpleas_acq	Same	Rpleas	2pleas	acq_US_pleas_nomask	acq45_nomask	4	27	400	1	300	300	0	0	413	46	0	0	kuss	anregung	gütig	vergnügt	engagiert	vertrauen	krise	ausrottung	gierig	verbissen	engstirnig	versagen	genießen	träumen	kreativ	besonnen	gesittet	sonnig	gemein	töten	krank	bange	geizig	sterben	1	blank2r.bmp	0	1	+	0	1	blank2r.bmp	500	1	DHJF	500	1	blank2r.bmp	880	2	anregung	880	1	!	1232	1	!	1314	0	0	0	0	0	0
2024-05-07	10:47:58	10:55:34	455868	6.6.1	4_exp_EVA_AWA_CON	15	A	B	Rpleas_acq	Same	Rpleas	2pleas	acq_US_unple_nomask	acq45_nomask	4	28	400	1	300	300	0	0	414	46	1	0	kuss	anregung	gütig	vergnügt	engagiert	vertrauen	krise	ausrottung	gierig	verbissen	engstirnig	versagen	genießen	träumen	kreativ	besonnen	gesittet	sonnig	gemein	töten	krank	bange	geizig	sterben	1	blank2r.bmp	0	1	+	0	1	blank2r.bmp	500	1	CPLW	500	1	blank2r.bmp	880	2	ausrottung	880	1	!	1233	1	!	1315	0	0	0	0	0	0
2024-05-07	10:47:58	10:55:36	458020	6.6.1	4_exp_EVA_AWA_CON	15	A	B	Rpleas_acq	Same	Rpleas	2pleas	acq_US_unple_nomask	acq45_nomask	4	29	400	1	300	300	0	0	374	50	0	0	kuss	anregung	gütig	vergnügt	engagiert	vertrauen	krise	ausrottung	gierig	verbissen	engstirnig	versagen	genießen	träumen	kreativ	besonnen	gesittet	sonnig	gemein	töten	krank	bange	geizig	sterben	1	blank2r.bmp	0	1	+	0	1	blank2r.bmp	500	1	CPLW	500	1	blank2r.bmp	880	6	versagen	880	1	!	1233	1	!	1276	0	0	0	0	0	0
2024-05-07	10:47:58	10:55:39	460299	6.6.1	4_exp_EVA_AWA_CON	15	A	B	Rpleas_acq	Same	Rpleas	2pleas	acq_US_pleas_nomask	acq45_nomask	4	30	400	0	300	300	0	0	503	50	1	0	kuss	anregung	gütig	vergnügt	engagiert	vertrauen	krise	ausrottung	gierig	verbissen	engstirnig	versagen	genießen	träumen	kreativ	besonnen	gesittet	sonnig	gemein	töten	krank	bange	geizig	sterben	1	blank2r.bmp	0	1	+	0	1	blank2r.bmp	500	1	DHJF	500	1	blank2r.bmp	880	4	vergnügt	880	1	!	1233	1	!	-1	0	0	0	0	0	0
2024-05-07	10:47:58	10:55:41	462444	6.6.1	4_exp_EVA_AWA_CON	15	A	B	Rpleas_acq	Same	Rpleas	2pleas	acq_US_pleas_nomask	acq45_nomask	4	31	400	1	300	300	0	0	365	46	0	0	kuss	anregung	gütig	vergnügt	engagiert	vertrauen	krise	ausrottung	gierig	verbissen	engstirnig	versagen	genießen	träumen	kreativ	besonnen	gesittet	sonnig	gemein	töten	krank	bange	geizig	sterben	1	blank2r.bmp	0	1	+	0	1	blank2r.bmp	500	1	DHJF	500	1	blank2r.bmp	880	3	gütig	880	1	!	1232	1	!	1267	0	0	0	0	0	0
2024-05-07	10:47:58	10:55:43	464867	6.6.1	4_exp_EVA_AWA_CON	15	A	B	Rpleas_acq	Same	Rpleas	2pleas	acq_US_unple_nomask	acq45_nomask	4	32	400	0	300	300	0	0	648	46	1	0	kuss	anregung	gütig	vergnügt	engagiert	vertrauen	krise	ausrottung	gierig	verbissen	engstirnig	versagen	genießen	träumen	kreativ	besonnen	gesittet	sonnig	gemein	töten	krank	bange	geizig	sterben	1	blank2r.bmp	0	1	+	0	1	blank2r.bmp	500	1	CPLW	500	1	blank2r.bmp	880	5	engstirnig	880	1	!	1232	1	!	-1	0	0	0	0	0	0
2024-05-07	10:47:58	10:55:45	467139	6.6.1	4_exp_EVA_AWA_CON	15	A	B	Rpleas_acq	Same	Rpleas	2pleas	acq_US_unple_nomask	acq45_nomask	4	33	400	0	300	300	0	0	498	46	1	0	kuss	anregung	gütig	vergnügt	engagiert	vertrauen	krise	ausrottung	gierig	verbissen	engstirnig	versagen	genießen	träumen	kreativ	besonnen	gesittet	sonnig	gemein	töten	krank	bange	geizig	sterben	1	blank2r.bmp	0	1	+	0	1	blank2r.bmp	500	1	CPLW	500	1	blank2r.bmp	880	1	krise	880	1	!	1232	1	!	-1	0	0	0	0	0	0
2024-05-07	10:47:58	10:55:47	469195	6.6.1	4_exp_EVA_AWA_CON	15	A	B	Rpleas_acq	Same	Rpleas	2pleas	acq_US_unple_nomask	acq45_nomask	4	34	400	0	300	300	0	0	283	46	1	0	kuss	anregung	gütig	vergnügt	engagiert	vertrauen	krise	ausrottung	gierig	verbissen	engstirnig	versagen	genießen	träumen	kreativ	besonnen	gesittet	sonnig	gemein	töten	krank	bange	geizig	sterben	1	blank2r.bmp	0	1	+	0	1	blank2r.bmp	500	1	CPLW	500	1	blank2r.bmp	880	3	gierig	880	1	!	-1	1	!	-1	0	0	0	0	0	0
2024-05-07	10:47:58	10:55:50	471475	6.6.1	4_exp_EVA_AWA_CON	15	A	B	Rpleas_acq	Same	Rpleas	2pleas	acq_US_pleas_nomask	acq45_nomask	4	35	400	0	300	300	0	0	501	50	1	0	kuss	anregung	gütig	vergnügt	engagiert	vertrauen	krise	ausrottung	gierig	verbissen	engstirnig	versagen	genießen	träumen	kreativ	besonnen	gesittet	sonnig	gemein	töten	krank	bange	geizig	sterben	1	blank2r.bmp	0	1	+	0	1	blank2r.bmp	500	1	DHJF	500	1	blank2r.bmp	880	1	kuss	880	1	!	1232	1	!	-1	0	0	0	0	0	0
2024-05-07	10:47:58	10:55:52	473645	6.6.1	4_exp_EVA_AWA_CON	15	A	B	Rpleas_acq	Same	Rpleas	2pleas	acq_US_unple_nomask	acq45_nomask	4	36	400	1	300	300	0	0	388	46	1	0	kuss	anregung	gütig	vergnügt	engagiert	vertrauen	krise	ausrottung	gierig	verbissen	engstirnig	versagen	genießen	träumen	kreativ	besonnen	gesittet	sonnig	gemein	töten	krank	bange	geizig	sterben	1	blank2r.bmp	0	1	+	0	1	blank2r.bmp	500	1	CPLW	500	1	blank2r.bmp	880	4	verbissen	880	1	!	1233	1	!	1290	0	0	0	0	0	0
2024-05-07	10:47:58	10:55:59	481051	6.6.1	4_exp_EVA_AWA_CON	15	A	B	Rpleas_acq	Same	Rpleas	2pleas	acq_US_pleas_nomask	acq45_nomask	5	1	400	0	300	300	0	0	551	46	0	0	kuss	anregung	gütig	vergnügt	engagiert	vertrauen	krise	ausrottung	gierig	verbissen	engstirnig	versagen	genießen	träumen	kreativ	besonnen	gesittet	sonnig	gemein	töten	krank	bange	geizig	sterben	1	blank2r.bmp	0	1	+	0	1	blank2r.bmp	500	1	DHJF	500	1	blank2r.bmp	880	6	vertrauen	880	1	!	1233	1	!	-1	0	0	0	0	0	0
2024-05-07	10:47:58	10:56:01	483196	6.6.1	4_exp_EVA_AWA_CON	15	A	B	Rpleas_acq	Same	Rpleas	2pleas	acq_US_unple_nomask	acq45_nomask	5	2	400	1	300	300	0	0	364	46	1	0	kuss	anregung	gütig	vergnügt	engagiert	vertrauen	krise	ausrottung	gierig	verbissen	engstirnig	versagen	genießen	träumen	kreativ	besonnen	gesittet	sonnig	gemein	töten	krank	bange	geizig	sterben	1	blank2r.bmp	0	1	+	0	1	blank2r.bmp	500	1	CPLW	500	1	blank2r.bmp	880	5	engstirnig	880	1	!	1232	1	!	1265	0	0	0	0	0	0
2024-05-07	10:47:58	10:56:04	485436	6.6.1	4_exp_EVA_AWA_CON	15	A	B	Rpleas_acq	Same	Rpleas	2pleas	acq_US_unple_nomask	acq45_nomask	5	3	400	1	300	300	0	0	462	46	1	0	kuss	anregung	gütig	vergnügt	engagiert	vertrauen	krise	ausrottung	gierig	verbissen	engstirnig	versagen	genießen	träumen	kreativ	besonnen	gesittet	sonnig	gemein	töten	krank	bange	geizig	sterben	1	blank2r.bmp	0	1	+	0	1	blank2r.bmp	500	1	CPLW	500	1	blank2r.bmp	880	2	ausrottung	880	1	!	1233	1	!	1364	0	0	0	0	0	0
2024-05-07	10:47:58	10:56:06	487891	6.6.1	4_exp_EVA_AWA_CON	15	A	B	Rpleas_acq	Same	Rpleas	2pleas	acq_US_pleas_nomask	acq45_nomask	5	4	400	0	300	300	0	0	677	50	1	0	kuss	anregung	gütig	vergnügt	engagiert	vertrauen	krise	ausrottung	gierig	verbissen	engstirnig	versagen	genießen	träumen	kreativ	besonnen	gesittet	sonnig	gemein	töten	krank	bange	geizig	sterben	1	blank2r.bmp	0	1	+	0	1	blank2r.bmp	500	1	DHJF	500	1	blank2r.bmp	880	2	anregung	880	1	!	1233	1	!	-1	0	0	0	0	0	0
2024-05-07	10:47:58	10:56:08	490100	6.6.1	4_exp_EVA_AWA_CON	15	A	B	Rpleas_acq	Same	Rpleas	2pleas	acq_US_unple_nomask	acq45_nomask	5	5	400	1	300	300	0	0	433	46	1	0	kuss	anregung	gütig	vergnügt	engagiert	vertrauen	krise	ausrottung	gierig	verbissen	engstirnig	versagen	genießen	träumen	kreativ	besonnen	gesittet	sonnig	gemein	töten	krank	bange	geizig	sterben	1	blank2r.bmp	0	1	+	0	1	blank2r.bmp	500	1	CPLW	500	1	blank2r.bmp	880	1	krise	880	1	!	1232	1	!	1335	0	0	0	0	0	0
2024-05-07	10:47:58	10:56:11	492324	6.6.1	4_exp_EVA_AWA_CON	15	A	B	Rpleas_acq	Same	Rpleas	2pleas	acq_US_pleas_nomask	acq45_nomask	5	6	400	1	300	300	0	0	446	50	1	0	kuss	anregung	gütig	vergnügt	engagiert	vertrauen	krise	ausrottung	gierig	verbissen	engstirnig	versagen	genießen	träumen	kreativ	besonnen	gesittet	sonnig	gemein	töten	krank	bange	geizig	sterben	1	blank2r.bmp	0	1	+	0	1	blank2r.bmp	500	1	DHJF	500	1	blank2r.bmp	880	1	kuss	880	1	!	1232	1	!	1347	0	0	0	0	0	0
2024-05-07	10:47:58	10:56:13	494611	6.6.1	4_exp_EVA_AWA_CON	15	A	B	Rpleas_acq	Same	Rpleas	2pleas	acq_US_unple_nomask	acq45_nomask	5	7	400	0	300	300	0	0	512	46	1	0	kuss	anregung	gütig	vergnügt	engagiert	vertrauen	krise	ausrottung	gierig	verbissen	engstirnig	versagen	genießen	träumen	kreativ	besonnen	gesittet	sonnig	gemein	töten	krank	bange	geizig	sterben	1	blank2r.bmp	0	1	+	0	1	blank2r.bmp	500	1	CPLW	500	1	blank2r.bmp	880	4	verbissen	880	1	!	1232	1	!	-1	0	0	0	0	0	0
2024-05-07	10:47:58	10:56:15	496781	6.6.1	4_exp_EVA_AWA_CON	15	A	B	Rpleas_acq	Same	Rpleas	2pleas	acq_US_unple_nomask	acq45_nomask	5	8	400	1	300	300	0	0	389	50	0	0	kuss	anregung	gütig	vergnügt	engagiert	vertrauen	krise	ausrottung	gierig	verbissen	engstirnig	versagen	genießen	träumen	kreativ	besonnen	gesittet	sonnig	gemein	töten	krank	bange	geizig	sterben	1	blank2r.bmp	0	1	+	0	1	blank2r.bmp	500	1	CPLW	500	1	blank2r.bmp	880	6	versagen	880	1	!	1232	1	!	1290	0	0	0	0	0	0
2024-05-07	10:47:58	10:56:17	499067	6.6.1	4_exp_EVA_AWA_CON	15	A	B	Rpleas_acq	Same	Rpleas	2pleas	acq_US_pleas_nomask	acq45_nomask	5	9	400	0	300	300	0	0	505	50	1	0	kuss	anregung	gütig	vergnügt	engagiert	vertrauen	krise	ausrottung	gierig	verbissen	engstirnig	versagen	genießen	träumen	kreativ	besonnen	gesittet	sonnig	gemein	töten	krank	bange	geizig	sterben	1	blank2r.bmp	0	1	+	0	1	blank2r.bmp	500	1	DHJF	500	1	blank2r.bmp	880	4	vergnügt	880	1	!	1232	1	!	-1	0	0	0	0	0	0
2024-05-07	10:47:58	10:56:20	501451	6.6.1	4_exp_EVA_AWA_CON	15	A	B	Rpleas_acq	Same	Rpleas	2pleas	acq_US_pleas_nomask	acq45_nomask	5	10	400	0	300	300	0	0	608	50	1	0	kuss	anregung	gütig	vergnügt	engagiert	vertrauen	krise	ausrottung	gierig	verbissen	engstirnig	versagen	genießen	träumen	kreativ	besonnen	gesittet	sonnig	gemein	töten	krank	bange	geizig	sterben	1	blank2r.bmp	0	1	+	0	1	blank2r.bmp	500	1	DHJF	500	1	blank2r.bmp	880	5	engagiert	880	1	!	1233	1	!	-1	0	0	0	0	0	0
2024-05-07	10:47:58	10:56:22	503652	6.6.1	4_exp_EVA_AWA_CON	15	A	B	Rpleas_acq	Same	Rpleas	2pleas	acq_US_pleas_nomask	acq45_nomask	5	11	400	1	300	300	0	0	426	46	0	0	kuss	anregung	gütig	vergnügt	engagiert	vertrauen	krise	ausrottung	gierig	verbissen	engstirnig	versagen	genießen	träumen	kreativ	besonnen	gesittet	sonnig	gemein	töten	krank	bange	geizig	sterben	1	blank2r.bmp	0	1	+	0	1	blank2r.bmp	500	1	DHJF	500	1	blank2r.bmp	880	3	gütig	880	1	!	1232	1	!	1328	0	0	0	0	0	0
2024-05-07	10:47:58	10:56:24	505844	6.6.1	4_exp_EVA_AWA_CON	15	A	B	Rpleas_acq	Same	Rpleas	2pleas	acq_US_unple_nomask	acq45_nomask	5	12	400	1	300	300	0	0	417	46	1	0	kuss	anregung	gütig	vergnügt	engagiert	vertrauen	krise	ausrottung	gierig	verbissen	engstirnig	versagen	genießen	träumen	kreativ	besonnen	gesittet	sonnig	gemein	töten	krank	bange	geizig	sterben	1	blank2r.bmp	0	1	+	0	1	blank2r.bmp	500	1	CPLW	500	1	blank2r.bmp	880	3	gierig	880	1	!	1232	1	!	1318	0	0	0	0	0	0
2024-05-07	10:47:58	10:56:26	508012	6.6.1	4_exp_EVA_AWA_CON	15	A	B	Rpleas_acq	Same	Rpleas	2pleas	acq_US_pleas_nomask	acq45_nomask	5	13	400	1	300	300	0	0	393	50	1	0	kuss	anregung	gütig	vergnügt	engagiert	vertrauen	krise	ausrottung	gierig	verbissen	engstirnig	versagen	genießen	träumen	kreativ	besonnen	gesittet	sonnig	gemein	töten	krank	bange	geizig	sterben	1	blank2r.bmp	0	1	+	0	1	blank2r.bmp	500	1	DHJF	500	1	blank2r.bmp	880	1	kuss	880	1	!	1233	1	!	1295	0	0	0	0	0	0
2024-05-07	10:47:58	10:56:29	510265	6.6.1	4_exp_EVA_AWA_CON	15	A	B	Rpleas_acq	Same	Rpleas	2pleas	acq_US_unple_nomask	acq45_nomask	5	14	400	0	300	300	0	0	478	46	1	0	kuss	anregung	gütig	vergnügt	engagiert	vertrauen	krise	ausrottung	gierig	verbissen	engstirnig	versagen	genießen	träumen	kreativ	besonnen	gesittet	sonnig	gemein	töten	krank	bange	geizig	sterben	1	blank2r.bmp	0	1	+	0	1	blank2r.bmp	500	1	CPLW	500	1	blank2r.bmp	880	6	versagen	880	1	!	1233	1	!	-1	0	0	0	0	0	0
2024-05-07	10:47:58	10:56:31	512547	6.6.1	4_exp_EVA_AWA_CON	15	A	B	Rpleas_acq	Same	Rpleas	2pleas	acq_US_pleas_nomask	acq45_nomask	5	15	400	0	300	300	0	0	507	46	0	0	kuss	anregung	gütig	vergnügt	engagiert	vertrauen	krise	ausrottung	gierig	verbissen	engstirnig	versagen	genießen	träumen	kreativ	besonnen	gesittet	sonnig	gemein	töten	krank	bange	geizig	sterben	1	blank2r.bmp	0	1	+	0	1	blank2r.bmp	500	1	DHJF	500	1	blank2r.bmp	880	2	anregung	880	1	!	1233	1	!	-1	0	0	0	0	0	0
2024-05-07	10:47:58	10:56:33	514788	6.6.1	4_exp_EVA_AWA_CON	15	A	B	Rpleas_acq	Same	Rpleas	2pleas	acq_US_unple_nomask	acq45_nomask	5	16	400	1	300	300	0	0	465	46	1	0	kuss	anregung	gütig	vergnügt	engagiert	vertrauen	krise	ausrottung	gierig	verbissen	engstirnig	versagen	genießen	träumen	kreativ	besonnen	gesittet	sonnig	gemein	töten	krank	bange	geizig	sterben	1	blank2r.bmp	0	1	+	0	1	blank2r.bmp	500	1	CPLW	500	1	blank2r.bmp	880	2	ausrottung	880	1	!	1233	1	!	1367	0	0	0	0	0	0
2024-05-07	10:47:58	10:56:35	517041	6.6.1	4_exp_EVA_AWA_CON	15	A	B	Rpleas_acq	Same	Rpleas	2pleas	acq_US_unple_nomask	acq45_nomask	5	17	400	0	300	300	0	0	480	46	1	0	kuss	anregung	gütig	vergnügt	engagiert	vertrauen	krise	ausrottung	gierig	verbissen	engstirnig	versagen	genießen	träumen	kreativ	besonnen	gesittet	sonnig	gemein	töten	krank	bange	geizig	sterben	1	blank2r.bmp	0	1	+	0	1	blank2r.bmp	500	1	CPLW	500	1	blank2r.bmp	880	5	engstirnig	880	1	!	1233	1	!	-1	0	0	0	0	0	0
2024-05-07	10:47:58	10:56:37	519228	6.6.1	4_exp_EVA_AWA_CON	15	A	B	Rpleas_acq	Same	Rpleas	2pleas	acq_US_pleas_nomask	acq45_nomask	5	18	400	1	300	300	0	0	412	50	1	0	kuss	anregung	gütig	vergnügt	engagiert	vertrauen	krise	ausrottung	gierig	verbissen	engstirnig	versagen	genießen	träumen	kreativ	besonnen	gesittet	sonnig	gemein	töten	krank	bange	geizig	sterben	1	blank2r.bmp	0	1	+	0	1	blank2r.bmp	500	1	DHJF	500	1	blank2r.bmp	880	3	gütig	880	1	!	1233	1	!	1314	0	0	0	0	0	0
2024-05-07	10:47:58	10:56:40	521429	6.6.1	4_exp_EVA_AWA_CON	15	A	B	Rpleas_acq	Same	Rpleas	2pleas	acq_US_unple_nomask	acq45_nomask	5	19	400	1	300	300	0	0	421	46	1	0	kuss	anregung	gütig	vergnügt	engagiert	vertrauen	krise	ausrottung	gierig	verbissen	engstirnig	versagen	genießen	träumen	kreativ	besonnen	gesittet	sonnig	gemein	töten	krank	bange	geizig	sterben	1	blank2r.bmp	0	1	+	0	1	blank2r.bmp	500	1	CPLW	500	1	blank2r.bmp	880	1	krise	880	1	!	1232	1	!	1323	0	0	0	0	0	0
2024-05-07	10:47:58	10:56:42	523564	6.6.1	4_exp_EVA_AWA_CON	15	A	B	Rpleas_acq	Same	Rpleas	2pleas	acq_US_unple_nomask	acq45_nomask	5	20	400	1	300	300	0	0	355	46	1	0	kuss	anregung	gütig	vergnügt	engagiert	vertrauen	krise	ausrottung	gierig	verbissen	engstirnig	versagen	genießen	träumen	kreativ	besonnen	gesittet	sonnig	gemein	töten	krank	bange	geizig	sterben	1	blank2r.bmp	0	1	+	0	1	blank2r.bmp	500	1	CPLW	500	1	blank2r.bmp	880	4	verbissen	880	1	!	1232	1	!	1257	0	0	0	0	0	0
2024-05-07	10:47:58	10:56:44	525781	6.6.1	4_exp_EVA_AWA_CON	15	A	B	Rpleas_acq	Same	Rpleas	2pleas	acq_US_pleas_nomask	acq45_nomask	5	21	400	1	300	300	0	0	440	46	0	0	kuss	anregung	gütig	vergnügt	engagiert	vertrauen	krise	ausrottung	gierig	verbissen	engstirnig	versagen	genießen	träumen	kreativ	besonnen	gesittet	sonnig	gemein	töten	krank	bange	geizig	sterben	1	blank2r.bmp	0	1	+	0	1	blank2r.bmp	500	1	DHJF	500	1	blank2r.bmp	880	5	engagiert	880	1	!	1233	1	!	1342	0	0	0	0	0	0
2024-05-07	10:47:58	10:56:46	527956	6.6.1	4_exp_EVA_AWA_CON	15	A	B	Rpleas_acq	Same	Rpleas	2pleas	acq_US_unple_nomask	acq45_nomask	5	22	400	1	300	300	0	0	394	46	1	0	kuss	anregung	gütig	vergnügt	engagiert	vertrauen	krise	ausrottung	gierig	verbissen	engstirnig	versagen	genießen	träumen	kreativ	besonnen	gesittet	sonnig	gemein	töten	krank	bange	geizig	sterben	1	blank2r.bmp	0	1	+	0	1	blank2r.bmp	500	1	CPLW	500	1	blank2r.bmp	880	3	gierig	880	1	!	1232	1	!	1296	0	0	0	0	0	0
2024-05-07	10:47:58	10:56:48	530116	6.6.1	4_exp_EVA_AWA_CON	15	A	B	Rpleas_acq	Same	Rpleas	2pleas	acq_US_pleas_nomask	acq45_nomask	5	23	400	1	300	300	0	0	383	50	1	0	kuss	anregung	gütig	vergnügt	engagiert	vertrauen	krise	ausrottung	gierig	verbissen	engstirnig	versagen	genießen	träumen	kreativ	besonnen	gesittet	sonnig	gemein	töten	krank	bange	geizig	sterben	1	blank2r.bmp	0	1	+	0	1	blank2r.bmp	500	1	DHJF	500	1	blank2r.bmp	880	4	vergnügt	880	1	!	1233	1	!	1285	0	0	0	0	0	0
2024-05-07	10:47:58	10:56:50	532235	6.6.1	4_exp_EVA_AWA_CON	15	A	B	Rpleas_acq	Same	Rpleas	2pleas	acq_US_unple_nomask	acq45_nomask	5	24	400	1	300	300	0	0	342	46	1	0	kuss	anregung	gütig	vergnügt	engagiert	vertrauen	krise	ausrottung	gierig	verbissen	engstirnig	versagen	genießen	träumen	kreativ	besonnen	gesittet	sonnig	gemein	töten	krank	bange	geizig	sterben	1	blank2r.bmp	0	1	+	0	1	blank2r.bmp	500	1	CPLW	500	1	blank2r.bmp	880	1	krise	880	1	!	1232	1	!	1241	0	0	0	0	0	0
2024-05-07	10:47:58	10:56:53	534405	6.6.1	4_exp_EVA_AWA_CON	15	A	B	Rpleas_acq	Same	Rpleas	2pleas	acq_US_pleas_nomask	acq45_nomask	5	25	400	1	300	300	0	0	388	46	0	0	kuss	anregung	gütig	vergnügt	engagiert	vertrauen	krise	ausrottung	gierig	verbissen	engstirnig	versagen	genießen	träumen	kreativ	besonnen	gesittet	sonnig	gemein	töten	krank	bange	geizig	sterben	1	blank2r.bmp	0	1	+	0	1	blank2r.bmp	500	1	DHJF	500	1	blank2r.bmp	880	6	vertrauen	880	1	!	1232	1	!	1290	0	0	0	0	0	0
2024-05-07	10:47:58	10:56:55	536604	6.6.1	4_exp_EVA_AWA_CON	15	A	B	Rpleas_acq	Same	Rpleas	2pleas	acq_US_unple_nomask	acq45_nomask	5	26	400	1	300	300	0	0	417	46	1	0	kuss	anregung	gütig	vergnügt	engagiert	vertrauen	krise	ausrottung	gierig	verbissen	engstirnig	versagen	genießen	träumen	kreativ	besonnen	gesittet	sonnig	gemein	töten	krank	bange	geizig	sterben	1	blank2r.bmp	0	1	+	0	1	blank2r.bmp	500	1	CPLW	500	1	blank2r.bmp	880	4	verbissen	880	1	!	1232	1	!	1318	0	0	0	0	0	0
2024-05-07	10:47:58	10:56:57	538732	6.6.1	4_exp_EVA_AWA_CON	15	A	B	Rpleas_acq	Same	Rpleas	2pleas	acq_US_pleas_nomask	acq45_nomask	5	27	400	1	300	300	0	0	353	50	1	0	kuss	anregung	gütig	vergnügt	engagiert	vertrauen	krise	ausrottung	gierig	verbissen	engstirnig	versagen	genießen	träumen	kreativ	besonnen	gesittet	sonnig	gemein	töten	krank	bange	geizig	sterben	1	blank2r.bmp	0	1	+	0	1	blank2r.bmp	500	1	DHJF	500	1	blank2r.bmp	880	4	vergnügt	880	1	!	1232	1	!	1255	0	0	0	0	0	0
2024-05-07	10:47:58	10:56:59	540819	6.6.1	4_exp_EVA_AWA_CON	15	A	B	Rpleas_acq	Same	Rpleas	2pleas	acq_US_unple_nomask	acq45_nomask	5	28	400	0	300	300	0	0	310	46	1	0	kuss	anregung	gütig	vergnügt	engagiert	vertrauen	krise	ausrottung	gierig	verbissen	engstirnig	versagen	genießen	träumen	kreativ	besonnen	gesittet	sonnig	gemein	töten	krank	bange	geizig	sterben	1	blank2r.bmp	0	1	+	0	1	blank2r.bmp	500	1	CPLW	500	1	blank2r.bmp	880	6	versagen	880	1	!	-1	1	!	-1	0	0	0	0	0	0
2024-05-07	10:47:58	10:57:01	543036	6.6.1	4_exp_EVA_AWA_CON	15	A	B	Rpleas_acq	Same	Rpleas	2pleas	acq_US_unple_nomask	acq45_nomask	5	29	400	1	300	300	0	0	435	46	1	0	kuss	anregung	gütig	vergnügt	engagiert	vertrauen	krise	ausrottung	gierig	verbissen	engstirnig	versagen	genießen	träumen	kreativ	besonnen	gesittet	sonnig	gemein	töten	krank	bange	geizig	sterben	1	blank2r.bmp	0	1	+	0	1	blank2r.bmp	500	1	CPLW	500	1	blank2r.bmp	880	5	engstirnig	880	1	!	1233	1	!	1336	0	0	0	0	0	0
2024-05-07	10:47:58	10:57:03	545173	6.6.1	4_exp_EVA_AWA_CON	15	A	B	Rpleas_acq	Same	Rpleas	2pleas	acq_US_pleas_nomask	acq45_nomask	5	30	400	1	300	300	0	0	359	50	1	0	kuss	anregung	gütig	vergnügt	engagiert	vertrauen	krise	ausrottung	gierig	verbissen	engstirnig	versagen	genießen	träumen	kreativ	besonnen	gesittet	sonnig	gemein	töten	krank	bange	geizig	sterben	1	blank2r.bmp	0	1	+	0	1	blank2r.bmp	500	1	DHJF	500	1	blank2r.bmp	880	5	engagiert	880	1	!	1232	1	!	1261	0	0	0	0	0	0
2024-05-07	10:47:58	10:57:06	547291	6.6.1	4_exp_EVA_AWA_CON	15	A	B	Rpleas_acq	Same	Rpleas	2pleas	acq_US_unple_nomask	acq45_nomask	5	31	400	1	300	300	0	0	338	46	1	0	kuss	anregung	gütig	vergnügt	engagiert	vertrauen	krise	ausrottung	gierig	verbissen	engstirnig	versagen	genießen	träumen	kreativ	besonnen	gesittet	sonnig	gemein	töten	krank	bange	geizig	sterben	1	blank2r.bmp	0	1	+	0	1	blank2r.bmp	500	1	CPLW	500	1	blank2r.bmp	880	2	ausrottung	880	1	!	1232	1	!	1238	0	0	0	0	0	0
2024-05-07	10:47:58	10:57:08	549468	6.6.1	4_exp_EVA_AWA_CON	15	A	B	Rpleas_acq	Same	Rpleas	2pleas	acq_US_pleas_nomask	acq45_nomask	5	32	400	1	300	300	0	0	402	50	1	0	kuss	anregung	gütig	vergnügt	engagiert	vertrauen	krise	ausrottung	gierig	verbissen	engstirnig	versagen	genießen	träumen	kreativ	besonnen	gesittet	sonnig	gemein	töten	krank	bange	geizig	sterben	1	blank2r.bmp	0	1	+	0	1	blank2r.bmp	500	1	DHJF	500	1	blank2r.bmp	880	2	anregung	880	1	!	1232	1	!	1304	0	0	0	0	0	0
2024-05-07	10:47:58	10:57:10	551668	6.6.1	4_exp_EVA_AWA_CON	15	A	B	Rpleas_acq	Same	Rpleas	2pleas	acq_US_pleas_nomask	acq45_nomask	5	33	400	1	300	300	0	0	421	46	0	0	kuss	anregung	gütig	vergnügt	engagiert	vertrauen	krise	ausrottung	gierig	verbissen	engstirnig	versagen	genießen	träumen	kreativ	besonnen	gesittet	sonnig	gemein	töten	krank	bange	geizig	sterben	1	blank2r.bmp	0	1	+	0	1	blank2r.bmp	500	1	DHJF	500	1	blank2r.bmp	880	6	vertrauen	880	1	!	1232	1	!	1323	0	0	0	0	0	0
2024-05-07	10:47:58	10:57:12	553836	6.6.1	4_exp_EVA_AWA_CON	15	A	B	Rpleas_acq	Same	Rpleas	2pleas	acq_US_pleas_nomask	acq45_nomask	5	34	400	1	300	300	0	0	387	50	1	0	kuss	anregung	gütig	vergnügt	engagiert	vertrauen	krise	ausrottung	gierig	verbissen	engstirnig	versagen	genießen	träumen	kreativ	besonnen	gesittet	sonnig	gemein	töten	krank	bange	geizig	sterben	1	blank2r.bmp	0	1	+	0	1	blank2r.bmp	500	1	DHJF	500	1	blank2r.bmp	880	1	kuss	880	1	!	1232	1	!	1289	0	0	0	0	0	0
2024-05-07	10:47:58	10:57:14	556061	6.6.1	4_exp_EVA_AWA_CON	15	A	B	Rpleas_acq	Same	Rpleas	2pleas	acq_US_unple_nomask	acq45_nomask	5	35	400	1	300	300	0	0	440	46	1	0	kuss	anregung	gütig	vergnügt	engagiert	vertrauen	krise	ausrottung	gierig	verbissen	engstirnig	versagen	genießen	träumen	kreativ	besonnen	gesittet	sonnig	gemein	töten	krank	bange	geizig	sterben	1	blank2r.bmp	0	1	+	0	1	blank2r.bmp	500	1	CPLW	500	1	blank2r.bmp	880	3	gierig	880	1	!	1232	1	!	1342	0	0	0	0	0	0
2024-05-07	10:47:58	10:57:16	558155	6.6.1	4_exp_EVA_AWA_CON	15	A	B	Rpleas_acq	Same	Rpleas	2pleas	acq_US_pleas_nomask	acq45_nomask	5	36	400	0	300	300	0	0	315	50	1	0	kuss	anregung	gütig	vergnügt	engagiert	vertrauen	krise	ausrottung	gierig	verbissen	engstirnig	versagen	genießen	träumen	kreativ	besonnen	gesittet	sonnig	gemein	töten	krank	bange	geizig	sterben	1	blank2r.bmp	0	1	+	0	1	blank2r.bmp	500	1	DHJF	500	1	blank2r.bmp	880	3	gütig	880	1	!	-1	1	!	-1	0	0	0	0	0	0
2024-05-07	10:47:58	10:57:37	578880	6.6.1	4_exp_EVA_AWA_CON	15	A	B	Rpleas_acq	Same	Rpleas	2pleas	EvalRating_firsttwo	EvalRating_firsttwo	6	1	0	0	300	300	0	0	4959	line	0	-53,125pct	kuss	anregung	gütig	vergnügt	engagiert	vertrauen	krise	ausrottung	gierig	verbissen	engstirnig	versagen	genießen	träumen	kreativ	besonnen	gesittet	sonnig	gemein	töten	krank	bange	geizig	sterben	1		-8	1	Wie angenehm oder unangenehm finden Sie die  Buchstabenkette WDLH?	-8	1		-8	1		-8	1		-8	1	Unangenehm	-8	1	Angenehm	-8	0	0	0	0	0	0	0	0	0
2024-05-07	10:47:58	10:57:41	583103	6.6.1	4_exp_EVA_AWA_CON	15	A	B	Rpleas_acq	Same	Rpleas	2pleas	EvalRating_lastfour	EvalRating_lastfour	7	1	0	0	300	300	0	0	1848	line	0	18,2291666666666714036pct	kuss	anregung	gütig	vergnügt	engagiert	vertrauen	krise	ausrottung	gierig	verbissen	engstirnig	versagen	genießen	träumen	kreativ	besonnen	gesittet	sonnig	gemein	töten	krank	bange	geizig	sterben	1		-8	2	Wie angenehm oder unangenehm finden Sie die  Buchstabenkette DHJF?	-8	1		-8	1		-8	1		-8	1	Unangenehm	-8	1	Angenehm	-8	0	0	0	0	0	0	0	0	0
2024-05-07	10:47:58	10:57:44	585469	6.6.1	4_exp_EVA_AWA_CON	15	A	B	Rpleas_acq	Same	Rpleas	2pleas	blank_screen	EvalRating_lastfour	7	3	0	0	300	300	0	0	0	0	0	18,2291666666666714036pct	kuss	anregung	gütig	vergnügt	engagiert	vertrauen	krise	ausrottung	gierig	verbissen	engstirnig	versagen	genießen	träumen	kreativ	besonnen	gesittet	sonnig	gemein	töten	krank	bange	geizig	sterben	1		-8	0	0	0	0	0	0	0	0	0	0	0	0	0	0	0	0	0	0	0	0	0	0	0	0	0	0	0
2024-05-07	10:47:58	10:57:47	588623	6.6.1	4_exp_EVA_AWA_CON	15	A	B	Rpleas_acq	Same	Rpleas	2pleas	EvalRating_lastfour	EvalRating_lastfour	7	4	0	0	300	300	0	0	2565	line	0	-24,8697916666666571928pct	kuss	anregung	gütig	vergnügt	engagiert	vertrauen	krise	ausrottung	gierig	verbissen	engstirnig	versagen	genießen	träumen	kreativ	besonnen	gesittet	sonnig	gemein	töten	krank	bange	geizig	sterben	1		-8	1	Wie angenehm oder unangenehm finden Sie die  Buchstabenkette CPLW?	-8	1		-8	1		-8	1		-8	1	Unangenehm	-8	1	Angenehm	-8	0	0	0	0	0	0	0	0	0
2024-05-07	10:47:58	10:57:49	590993	6.6.1	4_exp_EVA_AWA_CON	15	A	B	Rpleas_acq	Same	Rpleas	2pleas	blank_screen	EvalRating_lastfour	7	6	0	0	300	300	0	0	0	0	0	-24,8697916666666571928pct	kuss	anregung	gütig	vergnügt	engagiert	vertrauen	krise	ausrottung	gierig	verbissen	engstirnig	versagen	genießen	träumen	kreativ	besonnen	gesittet	sonnig	gemein	töten	krank	bange	geizig	sterben	1		-8	0	0	0	0	0	0	0	0	0	0	0	0	0	0	0	0	0	0	0	0	0	0	0	0	0	0	0
2024-05-07	10:47:58	10:57:53	594543	6.6.1	4_exp_EVA_AWA_CON	15	A	B	Rpleas_acq	Same	Rpleas	2pleas	EvalRating_lastfour	EvalRating_lastfour	7	7	0	0	300	300	0	0	2962	line	0	15,625pct	kuss	anregung	gütig	vergnügt	engagiert	vertrauen	krise	ausrottung	gierig	verbissen	engstirnig	versagen	genießen	träumen	kreativ	besonnen	gesittet	sonnig	gemein	töten	krank	bange	geizig	sterben	1		-8	3	Wie angenehm oder unangenehm finden Sie die  Buchstabenkette FCJP?	-8	1		-8	1		-8	1		-8	1	Unangenehm	-8	1	Angenehm	-8	0	0	0	0	0	0	0	0	0
2024-05-07	10:47:58	10:58:32	633809	6.6.1	4_exp_EVA_AWA_CON	15	A	B	Rpleas_acq	Same	Rpleas	2pleas	conawa_CS2_US6	conawa1_nomask	8	1	0	0	300	300	0	0	10134	genießen	1	15,625pct	kuss	anregung	gütig	vergnügt	engagiert	vertrauen	krise	ausrottung	gierig	verbissen	engstirnig	versagen	genießen	träumen	kreativ	besonnen	gesittet	sonnig	gemein	töten	krank	bange	geizig	sterben	0	0	0	0	0	0	0	0	0	0	0	0	0	0	0	0	0	0	0	0	0	0	0	0	0	0	0	0	0	0
2024-05-07	10:47:58	10:58:32	633811	6.6.1	4_exp_EVA_AWA_CON	15	A	B	Rpleas_acq	Same	Rpleas	2pleas	conawa_CS2_US6_confidence	conawa1_nomask	8	1	0	0	300	300	0	0	10134	guess	1	15,625pct	kuss	anregung	gütig	vergnügt	engagiert	vertrauen	krise	ausrottung	gierig	verbissen	engstirnig	versagen	genießen	träumen	kreativ	besonnen	gesittet	sonnig	gemein	töten	krank	bange	geizig	sterben	0	0	0	0	0	0	0	0	0	0	0	0	0	0	0	0	0	0	0	0	0	0	0	0	0	0	0	0	0	0
2024-05-07	10:47:58	10:58:42	643715	6.6.1	4_exp_EVA_AWA_CON	15	A	B	Rpleas_acq	Same	Rpleas	2pleas	conawa_CS1_US5	conawa1_nomask	8	2	0	0	300	300	0	0	9287	engstirnig	1	15,625pct	kuss	anregung	gütig	vergnügt	engagiert	vertrauen	krise	ausrottung	gierig	verbissen	engstirnig	versagen	genießen	träumen	kreativ	besonnen	gesittet	sonnig	gemein	töten	krank	bange	geizig	sterben	0	0	0	0	0	0	0	0	0	0	0	0	0	0	0	0	0	0	0	0	0	0	0	0	0	0	0	0	0	0
2024-05-07	10:47:58	10:58:42	643717	6.6.1	4_exp_EVA_AWA_CON	15	A	B	Rpleas_acq	Same	Rpleas	2pleas	conawa_CS1_US5_confidence	conawa1_nomask	8	2	0	0	300	300	0	0	9287	probably	1	15,625pct	kuss	anregung	gütig	vergnügt	engagiert	vertrauen	krise	ausrottung	gierig	verbissen	engstirnig	versagen	genießen	träumen	kreativ	besonnen	gesittet	sonnig	gemein	töten	krank	bange	geizig	sterben	0	0	0	0	0	0	0	0	0	0	0	0	0	0	0	0	0	0	0	0	0	0	0	0	0	0	0	0	0	0
2024-05-07	10:47:58	10:58:53	654613	6.6.1	4_exp_EVA_AWA_CON	15	A	B	Rpleas_acq	Same	Rpleas	2pleas	conawa_CS2_US1	conawa1_nomask	8	3	0	0	300	300	0	0	10284	kuss	1	15,625pct	kuss	anregung	gütig	vergnügt	engagiert	vertrauen	krise	ausrottung	gierig	verbissen	engstirnig	versagen	genießen	träumen	kreativ	besonnen	gesittet	sonnig	gemein	töten	krank	bange	geizig	sterben	0	0	0	0	0	0	0	0	0	0	0	0	0	0	0	0	0	0	0	0	0	0	0	0	0	0	0	0	0	0
2024-05-07	10:47:58	10:58:53	654614	6.6.1	4_exp_EVA_AWA_CON	15	A	B	Rpleas_acq	Same	Rpleas	2pleas	conawa_CS2_US1_confidence	conawa1_nomask	8	3	0	0	300	300	0	0	10284	guess	1	15,625pct	kuss	anregung	gütig	vergnügt	engagiert	vertrauen	krise	ausrottung	gierig	verbissen	engstirnig	versagen	genießen	träumen	kreativ	besonnen	gesittet	sonnig	gemein	töten	krank	bange	geizig	sterben	0	0	0	0	0	0	0	0	0	0	0	0	0	0	0	0	0	0	0	0	0	0	0	0	0	0	0	0	0	0
2024-05-07	10:47:58	10:59:03	665110	6.6.1	4_exp_EVA_AWA_CON	15	A	B	Rpleas_acq	Same	Rpleas	2pleas	conawa_CS1_US6	conawa1_nomask	8	4	0	0	300	300	0	0	9876	sonnig	1	15,625pct	kuss	anregung	gütig	vergnügt	engagiert	vertrauen	krise	ausrottung	gierig	verbissen	engstirnig	versagen	genießen	träumen	kreativ	besonnen	gesittet	sonnig	gemein	töten	krank	bange	geizig	sterben	0	0	0	0	0	0	0	0	0	0	0	0	0	0	0	0	0	0	0	0	0	0	0	0	0	0	0	0	0	0
2024-05-07	10:47:58	10:59:03	665111	6.6.1	4_exp_EVA_AWA_CON	15	A	B	Rpleas_acq	Same	Rpleas	2pleas	conawa_CS1_US6_confidence	conawa1_nomask	8	4	0	0	300	300	0	0	9876	guess	1	15,625pct	kuss	anregung	gütig	vergnügt	engagiert	vertrauen	krise	ausrottung	gierig	verbissen	engstirnig	versagen	genießen	träumen	kreativ	besonnen	gesittet	sonnig	gemein	töten	krank	bange	geizig	sterben	0	0	0	0	0	0	0	0	0	0	0	0	0	0	0	0	0	0	0	0	0	0	0	0	0	0	0	0	0	0
2024-05-07	10:47:58	10:59:14	675957	6.6.1	4_exp_EVA_AWA_CON	15	A	B	Rpleas_acq	Same	Rpleas	2pleas	conawa_CS2_US3	conawa1_nomask	8	5	0	0	300	300	0	0	10227	gütig	1	15,625pct	kuss	anregung	gütig	vergnügt	engagiert	vertrauen	krise	ausrottung	gierig	verbissen	engstirnig	versagen	genießen	träumen	kreativ	besonnen	gesittet	sonnig	gemein	töten	krank	bange	geizig	sterben	0	0	0	0	0	0	0	0	0	0	0	0	0	0	0	0	0	0	0	0	0	0	0	0	0	0	0	0	0	0
2024-05-07	10:47:58	10:59:14	675958	6.6.1	4_exp_EVA_AWA_CON	15	A	B	Rpleas_acq	Same	Rpleas	2pleas	conawa_CS2_US3_confidence	conawa1_nomask	8	5	0	0	300	300	0	0	10227	guess	1	15,625pct	kuss	anregung	gütig	vergnügt	engagiert	vertrauen	krise	ausrottung	gierig	verbissen	engstirnig	versagen	genießen	träumen	kreativ	besonnen	gesittet	sonnig	gemein	töten	krank	bange	geizig	sterben	0	0	0	0	0	0	0	0	0	0	0	0	0	0	0	0	0	0	0	0	0	0	0	0	0	0	0	0	0	0
2024-05-07	10:47:58	10:59:20	681911	6.6.1	4_exp_EVA_AWA_CON	15	A	B	Rpleas_acq	Same	Rpleas	2pleas	conawa_CS2_US5	conawa1_nomask	8	6	0	0	300	300	0	0	5341	engagiert	1	15,625pct	kuss	anregung	gütig	vergnügt	engagiert	vertrauen	krise	ausrottung	gierig	verbissen	engstirnig	versagen	genießen	träumen	kreativ	besonnen	gesittet	sonnig	gemein	töten	krank	bange	geizig	sterben	0	0	0	0	0	0	0	0	0	0	0	0	0	0	0	0	0	0	0	0	0	0	0	0	0	0	0	0	0	0
2024-05-07	10:47:58	10:59:20	681912	6.6.1	4_exp_EVA_AWA_CON	15	A	B	Rpleas_acq	Same	Rpleas	2pleas	conawa_CS2_US5_confidence	conawa1_nomask	8	6	0	0	300	300	0	0	5341	guess	1	15,625pct	kuss	anregung	gütig	vergnügt	engagiert	vertrauen	krise	ausrottung	gierig	verbissen	engstirnig	versagen	genießen	träumen	kreativ	besonnen	gesittet	sonnig	gemein	töten	krank	bange	geizig	sterben	0	0	0	0	0	0	0	0	0	0	0	0	0	0	0	0	0	0	0	0	0	0	0	0	0	0	0	0	0	0
2024-05-07	10:47:58	10:59:34	696230	6.6.1	4_exp_EVA_AWA_CON	15	A	B	Rpleas_acq	Same	Rpleas	2pleas	conawa_CS2_US2	conawa1_nomask	8	7	0	0	300	300	0	0	13701	anregung	1	15,625pct	kuss	anregung	gütig	vergnügt	engagiert	vertrauen	krise	ausrottung	gierig	verbissen	engstirnig	versagen	genießen	träumen	kreativ	besonnen	gesittet	sonnig	gemein	töten	krank	bange	geizig	sterben	0	0	0	0	0	0	0	0	0	0	0	0	0	0	0	0	0	0	0	0	0	0	0	0	0	0	0	0	0	0
2024-05-07	10:47:58	10:59:34	696231	6.6.1	4_exp_EVA_AWA_CON	15	A	B	Rpleas_acq	Same	Rpleas	2pleas	conawa_CS2_US2_confidence	conawa1_nomask	8	7	0	0	300	300	0	0	13701	guess	1	15,625pct	kuss	anregung	gütig	vergnügt	engagiert	vertrauen	krise	ausrottung	gierig	verbissen	engstirnig	versagen	genießen	träumen	kreativ	besonnen	gesittet	sonnig	gemein	töten	krank	bange	geizig	sterben	0	0	0	0	0	0	0	0	0	0	0	0	0	0	0	0	0	0	0	0	0	0	0	0	0	0	0	0	0	0
2024-05-07	10:47:58	10:59:43	705246	6.6.1	4_exp_EVA_AWA_CON	15	A	B	Rpleas_acq	Same	Rpleas	2pleas	conawa_CS1_US4	conawa1_nomask	8	8	0	0	300	300	0	0	8404	vergnügt	1	15,625pct	kuss	anregung	gütig	vergnügt	engagiert	vertrauen	krise	ausrottung	gierig	verbissen	engstirnig	versagen	genießen	träumen	kreativ	besonnen	gesittet	sonnig	gemein	töten	krank	bange	geizig	sterben	0	0	0	0	0	0	0	0	0	0	0	0	0	0	0	0	0	0	0	0	0	0	0	0	0	0	0	0	0	0
2024-05-07	10:47:58	10:59:43	705247	6.6.1	4_exp_EVA_AWA_CON	15	A	B	Rpleas_acq	Same	Rpleas	2pleas	conawa_CS1_US4_confidence	conawa1_nomask	8	8	0	0	300	300	0	0	8404	guess	1	15,625pct	kuss	anregung	gütig	vergnügt	engagiert	vertrauen	krise	ausrottung	gierig	verbissen	engstirnig	versagen	genießen	träumen	kreativ	besonnen	gesittet	sonnig	gemein	töten	krank	bange	geizig	sterben	0	0	0	0	0	0	0	0	0	0	0	0	0	0	0	0	0	0	0	0	0	0	0	0	0	0	0	0	0	0
2024-05-07	10:47:58	10:59:49	710869	6.6.1	4_exp_EVA_AWA_CON	15	A	B	Rpleas_acq	Same	Rpleas	2pleas	conawa_CS2_US4	conawa1_nomask	8	9	0	0	300	300	0	0	5005	gesittet	1	15,625pct	kuss	anregung	gütig	vergnügt	engagiert	vertrauen	krise	ausrottung	gierig	verbissen	engstirnig	versagen	genießen	träumen	kreativ	besonnen	gesittet	sonnig	gemein	töten	krank	bange	geizig	sterben	0	0	0	0	0	0	0	0	0	0	0	0	0	0	0	0	0	0	0	0	0	0	0	0	0	0	0	0	0	0
2024-05-07	10:47:58	10:59:49	710871	6.6.1	4_exp_EVA_AWA_CON	15	A	B	Rpleas_acq	Same	Rpleas	2pleas	conawa_CS2_US4_confidence	conawa1_nomask	8	9	0	0	300	300	0	0	5005	guess	1	15,625pct	kuss	anregung	gütig	vergnügt	engagiert	vertrauen	krise	ausrottung	gierig	verbissen	engstirnig	versagen	genießen	träumen	kreativ	besonnen	gesittet	sonnig	gemein	töten	krank	bange	geizig	sterben	0	0	0	0	0	0	0	0	0	0	0	0	0	0	0	0	0	0	0	0	0	0	0	0	0	0	0	0	0	0
2024-05-07	10:47:58	11:00:01	723208	6.6.1	4_exp_EVA_AWA_CON	15	A	B	Rpleas_acq	Same	Rpleas	2pleas	conawa_CS1_US1	conawa1_nomask	8	10	0	0	300	300	0	0	11723	kuss	1	15,625pct	kuss	anregung	gütig	vergnügt	engagiert	vertrauen	krise	ausrottung	gierig	verbissen	engstirnig	versagen	genießen	träumen	kreativ	besonnen	gesittet	sonnig	gemein	töten	krank	bange	geizig	sterben	0	0	0	0	0	0	0	0	0	0	0	0	0	0	0	0	0	0	0	0	0	0	0	0	0	0	0	0	0	0
2024-05-07	10:47:58	11:00:01	723209	6.6.1	4_exp_EVA_AWA_CON	15	A	B	Rpleas_acq	Same	Rpleas	2pleas	conawa_CS1_US1_confidence	conawa1_nomask	8	10	0	0	300	300	0	0	11723	guess	1	15,625pct	kuss	anregung	gütig	vergnügt	engagiert	vertrauen	krise	ausrottung	gierig	verbissen	engstirnig	versagen	genießen	träumen	kreativ	besonnen	gesittet	sonnig	gemein	töten	krank	bange	geizig	sterben	0	0	0	0	0	0	0	0	0	0	0	0	0	0	0	0	0	0	0	0	0	0	0	0	0	0	0	0	0	0
2024-05-07	10:47:58	11:00:16	737577	6.6.1	4_exp_EVA_AWA_CON	15	A	B	Rpleas_acq	Same	Rpleas	2pleas	conawa_CS1_US3	conawa1_nomask	8	11	0	0	300	300	0	0	13754	kreativ	1	15,625pct	kuss	anregung	gütig	vergnügt	engagiert	vertrauen	krise	ausrottung	gierig	verbissen	engstirnig	versagen	genießen	träumen	kreativ	besonnen	gesittet	sonnig	gemein	töten	krank	bange	geizig	sterben	0	0	0	0	0	0	0	0	0	0	0	0	0	0	0	0	0	0	0	0	0	0	0	0	0	0	0	0	0	0
2024-05-07	10:47:58	11:00:16	737578	6.6.1	4_exp_EVA_AWA_CON	15	A	B	Rpleas_acq	Same	Rpleas	2pleas	conawa_CS1_US3_confidence	conawa1_nomask	8	11	0	0	300	300	0	0	13754	guess	1	15,625pct	kuss	anregung	gütig	vergnügt	engagiert	vertrauen	krise	ausrottung	gierig	verbissen	engstirnig	versagen	genießen	träumen	kreativ	besonnen	gesittet	sonnig	gemein	töten	krank	bange	geizig	sterben	0	0	0	0	0	0	0	0	0	0	0	0	0	0	0	0	0	0	0	0	0	0	0	0	0	0	0	0	0	0
2024-05-07	10:47:58	11:00:24	746063	6.6.1	4_exp_EVA_AWA_CON	15	A	B	Rpleas_acq	Same	Rpleas	2pleas	conawa_CS1_US2	conawa1_nomask	8	12	0	0	300	300	0	0	7872	träumen	1	15,625pct	kuss	anregung	gütig	vergnügt	engagiert	vertrauen	krise	ausrottung	gierig	verbissen	engstirnig	versagen	genießen	träumen	kreativ	besonnen	gesittet	sonnig	gemein	töten	krank	bange	geizig	sterben	0	0	0	0	0	0	0	0	0	0	0	0	0	0	0	0	0	0	0	0	0	0	0	0	0	0	0	0	0	0
2024-05-07	10:47:58	11:00:24	746064	6.6.1	4_exp_EVA_AWA_CON	15	A	B	Rpleas_acq	Same	Rpleas	2pleas	conawa_CS1_US2_confidence	conawa1_nomask	8	12	0	0	300	300	0	0	7872	guess	1	15,625pct	kuss	anregung	gütig	vergnügt	engagiert	vertrauen	krise	ausrottung	gierig	verbissen	engstirnig	versagen	genießen	träumen	kreativ	besonnen	gesittet	sonnig	gemein	töten	krank	bange	geizig	sterben	0	0	0	0	0	0	0	0	0	0	0	0	0	0	0	0	0	0	0	0	0	0	0	0	0	0	0	0	0	0
2024-05-07	10:47:58	11:01:22	804027	6.6.1	4_exp_EVA_AWA_CON	15	A	B	Rpleas_acq	Same	Rpleas	2pleas	cond_new_unple_456_nomask_CS1	condtest_nomask_1	11	1	400	0	300	300	0	0	4409	46	1	15,625pct	kuss	anregung	gütig	vergnügt	engagiert	vertrauen	krise	ausrottung	gierig	verbissen	engstirnig	versagen	genießen	träumen	kreativ	besonnen	gesittet	sonnig	gemein	töten	krank	bange	geizig	sterben	1	blank2r.bmp	0	1	+	0	1	blank2r.bmp	500	1	CPLW	500	1	blank2r.bmp	880	1	bange	880	1	!	1232	1	!	-1	0	0	0	0	0	0
