date	time	currenttime	elapsedtime	build	currentexpt	subject	CS_AB	US_AB	LRpleas_acq	SameOppo	condition_Lpleas	condition_1pleas	trialcode	blockcode	blocknum	trialnum	windowcenter	inwindow	pretrialpause	posttrialpause	trialduration	trialtimeout	latency	response	correct	correctedscore	US_nomask_pleas1	US_nomask_pleas2	US_nomask_pleas3	US_nomask_pleas4	US_nomask_pleas5	US_nomask_pleas6	US_nomask_unple1	US_nomask_unple2	US_nomask_unple3	US_nomask_unple4	US_nomask_unple5	US_nomask_unple6	new_nomask_pleas1	new_nomask_pleas2	new_nomask_pleas3	new_nomask_pleas4	new_nomask_pleas5	new_nomask_pleas6	new_nomask_unple1	new_nomask_unple2	new_nomask_unple3	new_nomask_unple4	new_nomask_unple5	new_nomask_unple6	stimulusnumber1	stimulusitem1	stimulusonset1	stimulusnumber2	stimulusitem2	stimulusonset2	stimulusnumber3	stimulusitem3	stimulusonset3	stimulusnumber4	stimulusitem4	stimulusonset4	stimulusnumber5	stimulusitem5	stimulusonset5	stimulusnumber6	stimulusitem6	stimulusonset6	stimulusnumber7	stimulusitem7	stimulusonset7	stimulusnumber8	stimulusitem8	stimulusonset8	stimulusnumber9	stimulusitem9	stimulusonset9	stimulusnumber10	stimulusitem10	stimulusonset10
2024-05-15	10:56:07	10:57:17	69261	6.6.1	4_exp_EVA_AWA_CON	33	A	B	Rpleas_acq	Same	Rpleas	1pleas	acq_new_pleas_nomask	acq1_nomask	1	1	0	0	300	300	0	0	942	50	1	0	vertrauen	kreativ	sonnig	genießen	besonnen	vergnügt	versagen	krank	sterben	gemein	bange	verbissen	engagiert	kuss	gütig	träumen	anregung	gesittet	engstirnig	krise	gierig	töten	ausrottung	geizig	1	blank2r.bmp	0	1	+	0	1	blank2r.bmp	500	4	B4r.bmp	500	1	blank2r.bmp	880	1	engagiert	880	0	0	0	0	0	0	0	0	0	0	0	0
2024-05-15	10:56:07	10:57:19	71445	6.6.1	4_exp_EVA_AWA_CON	33	A	B	Rpleas_acq	Same	Rpleas	1pleas	acq_US_unple_nomask	acq1_nomask	1	2	0	0	300	300	0	0	695	46	1	0	vertrauen	kreativ	sonnig	genießen	besonnen	vergnügt	versagen	krank	sterben	gemein	bange	verbissen	engagiert	kuss	gütig	träumen	anregung	gesittet	engstirnig	krise	gierig	töten	ausrottung	geizig	1	blank2r.bmp	0	1	+	0	1	blank2r.bmp	500	1	DHJF	500	1	blank2r.bmp	880	3	sterben	880	0	0	0	0	0	0	0	0	0	0	0	0
2024-05-15	10:56:07	10:57:21	73597	6.6.1	4_exp_EVA_AWA_CON	33	A	B	Rpleas_acq	Same	Rpleas	1pleas	acq_US_pleas_nomask	acq1_nomask	1	3	0	0	300	300	0	0	665	50	1	0	vertrauen	kreativ	sonnig	genießen	besonnen	vergnügt	versagen	krank	sterben	gemein	bange	verbissen	engagiert	kuss	gütig	träumen	anregung	gesittet	engstirnig	krise	gierig	töten	ausrottung	geizig	1	blank2r.bmp	0	1	+	0	1	blank2r.bmp	500	1	CPLW	500	1	blank2r.bmp	880	5	besonnen	880	0	0	0	0	0	0	0	0	0	0	0	0
2024-05-15	10:56:07	10:57:24	75783	6.6.1	4_exp_EVA_AWA_CON	33	A	B	Rpleas_acq	Same	Rpleas	1pleas	acq_new_pleas_nomask	acq1_nomask	1	4	0	0	300	300	0	0	498	46	0	0	vertrauen	kreativ	sonnig	genießen	besonnen	vergnügt	versagen	krank	sterben	gemein	bange	verbissen	engagiert	kuss	gütig	träumen	anregung	gesittet	engstirnig	krise	gierig	töten	ausrottung	geizig	1	blank2r.bmp	0	1	+	0	1	blank2r.bmp	500	2	B2r.bmp	500	1	blank2r.bmp	880	4	träumen	880	1	FEHLER	1400	0	0	0	0	0	0	0	0	0
2024-05-15	10:56:07	10:57:26	77805	6.6.1	4_exp_EVA_AWA_CON	33	A	B	Rpleas_acq	Same	Rpleas	1pleas	acq_US_unple_nomask	acq1_nomask	1	5	0	0	300	300	0	0	740	46	1	0	vertrauen	kreativ	sonnig	genießen	besonnen	vergnügt	versagen	krank	sterben	gemein	bange	verbissen	engagiert	kuss	gütig	träumen	anregung	gesittet	engstirnig	krise	gierig	töten	ausrottung	geizig	1	blank2r.bmp	0	1	+	0	1	blank2r.bmp	500	1	DHJF	500	1	blank2r.bmp	880	1	versagen	880	0	0	0	0	0	0	0	0	0	0	0	0
2024-05-15	10:56:07	10:57:28	79965	6.6.1	4_exp_EVA_AWA_CON	33	A	B	Rpleas_acq	Same	Rpleas	1pleas	acq_US_unple_nomask	acq1_nomask	1	6	0	0	300	300	0	0	670	46	1	0	vertrauen	kreativ	sonnig	genießen	besonnen	vergnügt	versagen	krank	sterben	gemein	bange	verbissen	engagiert	kuss	gütig	träumen	anregung	gesittet	engstirnig	krise	gierig	töten	ausrottung	geizig	1	blank2r.bmp	0	1	+	0	1	blank2r.bmp	500	1	DHJF	500	1	blank2r.bmp	880	5	bange	880	0	0	0	0	0	0	0	0	0	0	0	0
2024-05-15	10:56:07	10:57:30	81853	6.6.1	4_exp_EVA_AWA_CON	33	A	B	Rpleas_acq	Same	Rpleas	1pleas	acq_US_pleas_nomask	acq1_nomask	1	7	0	0	300	300	0	0	405	50	1	0	vertrauen	kreativ	sonnig	genießen	besonnen	vergnügt	versagen	krank	sterben	gemein	bange	verbissen	engagiert	kuss	gütig	träumen	anregung	gesittet	engstirnig	krise	gierig	töten	ausrottung	geizig	1	blank2r.bmp	0	1	+	0	1	blank2r.bmp	500	1	CPLW	500	1	blank2r.bmp	880	1	vertrauen	880	0	0	0	0	0	0	0	0	0	0	0	0
2024-05-15	10:56:07	10:57:32	83973	6.6.1	4_exp_EVA_AWA_CON	33	A	B	Rpleas_acq	Same	Rpleas	1pleas	acq_new_pleas_nomask	acq1_nomask	1	8	0	0	300	300	0	0	634	50	1	0	vertrauen	kreativ	sonnig	genießen	besonnen	vergnügt	versagen	krank	sterben	gemein	bange	verbissen	engagiert	kuss	gütig	träumen	anregung	gesittet	engstirnig	krise	gierig	töten	ausrottung	geizig	1	blank2r.bmp	0	1	+	0	1	blank2r.bmp	500	5	C1r.bmp	500	1	blank2r.bmp	880	3	gütig	880	0	0	0	0	0	0	0	0	0	0	0	0
2024-05-15	10:56:07	10:57:34	86037	6.6.1	4_exp_EVA_AWA_CON	33	A	B	Rpleas_acq	Same	Rpleas	1pleas	acq_new_unple_nomask	acq1_nomask	1	9	0	0	300	300	0	0	577	46	1	0	vertrauen	kreativ	sonnig	genießen	besonnen	vergnügt	versagen	krank	sterben	gemein	bange	verbissen	engagiert	kuss	gütig	träumen	anregung	gesittet	engstirnig	krise	gierig	töten	ausrottung	geizig	1	blank2r.bmp	0	1	+	0	1	blank2r.bmp	500	6	C2r.bmp	500	1	blank2r.bmp	880	2	krise	880	0	0	0	0	0	0	0	0	0	0	0	0
2024-05-15	10:56:07	10:57:36	88165	6.6.1	4_exp_EVA_AWA_CON	33	A	B	Rpleas_acq	Same	Rpleas	1pleas	acq_US_pleas_nomask	acq1_nomask	1	10	0	0	300	300	0	0	644	50	1	0	vertrauen	kreativ	sonnig	genießen	besonnen	vergnügt	versagen	krank	sterben	gemein	bange	verbissen	engagiert	kuss	gütig	träumen	anregung	gesittet	engstirnig	krise	gierig	töten	ausrottung	geizig	1	blank2r.bmp	0	1	+	0	1	blank2r.bmp	500	1	CPLW	500	1	blank2r.bmp	880	4	genießen	880	0	0	0	0	0	0	0	0	0	0	0	0
2024-05-15	10:56:07	10:57:38	90149	6.6.1	4_exp_EVA_AWA_CON	33	A	B	Rpleas_acq	Same	Rpleas	1pleas	acq_new_unple_nomask	acq1_nomask	1	11	0	0	300	300	0	0	496	46	1	0	vertrauen	kreativ	sonnig	genießen	besonnen	vergnügt	versagen	krank	sterben	gemein	bange	verbissen	engagiert	kuss	gütig	träumen	anregung	gesittet	engstirnig	krise	gierig	töten	ausrottung	geizig	1	blank2r.bmp	0	1	+	0	1	blank2r.bmp	500	8	C4r.bmp	500	1	blank2r.bmp	880	4	töten	880	0	0	0	0	0	0	0	0	0	0	0	0
2024-05-15	10:56:07	10:57:40	92381	6.6.1	4_exp_EVA_AWA_CON	33	A	B	Rpleas_acq	Same	Rpleas	1pleas	acq_new_unple_nomask	acq1_nomask	1	12	0	0	300	300	0	0	747	46	1	0	vertrauen	kreativ	sonnig	genießen	besonnen	vergnügt	versagen	krank	sterben	gemein	bange	verbissen	engagiert	kuss	gütig	träumen	anregung	gesittet	engstirnig	krise	gierig	töten	ausrottung	geizig	1	blank2r.bmp	0	1	+	0	1	blank2r.bmp	500	7	C3r.bmp	500	1	blank2r.bmp	880	3	gierig	880	0	0	0	0	0	0	0	0	0	0	0	0
2024-05-15	10:56:07	10:57:42	94389	6.6.1	4_exp_EVA_AWA_CON	33	A	B	Rpleas_acq	Same	Rpleas	1pleas	acq_US_pleas_nomask	acq1_nomask	1	13	0	0	300	300	0	0	523	50	1	0	vertrauen	kreativ	sonnig	genießen	besonnen	vergnügt	versagen	krank	sterben	gemein	bange	verbissen	engagiert	kuss	gütig	träumen	anregung	gesittet	engstirnig	krise	gierig	töten	ausrottung	geizig	1	blank2r.bmp	0	1	+	0	1	blank2r.bmp	500	1	CPLW	500	1	blank2r.bmp	880	3	sonnig	880	0	0	0	0	0	0	0	0	0	0	0	0
2024-05-15	10:56:07	10:57:44	96421	6.6.1	4_exp_EVA_AWA_CON	33	A	B	Rpleas_acq	Same	Rpleas	1pleas	acq_new_pleas_nomask	acq1_nomask	1	14	0	0	300	300	0	0	544	50	1	0	vertrauen	kreativ	sonnig	genießen	besonnen	vergnügt	versagen	krank	sterben	gemein	bange	verbissen	engagiert	kuss	gütig	träumen	anregung	gesittet	engstirnig	krise	gierig	töten	ausrottung	geizig	1	blank2r.bmp	0	1	+	0	1	blank2r.bmp	500	1	B1r.bmp	500	1	blank2r.bmp	880	5	anregung	880	0	0	0	0	0	0	0	0	0	0	0	0
2024-05-15	10:56:07	10:57:46	98461	6.6.1	4_exp_EVA_AWA_CON	33	A	B	Rpleas_acq	Same	Rpleas	1pleas	acq_new_pleas_nomask	acq1_nomask	1	15	0	0	300	300	0	0	554	50	1	0	vertrauen	kreativ	sonnig	genießen	besonnen	vergnügt	versagen	krank	sterben	gemein	bange	verbissen	engagiert	kuss	gütig	träumen	anregung	gesittet	engstirnig	krise	gierig	töten	ausrottung	geizig	1	blank2r.bmp	0	1	+	0	1	blank2r.bmp	500	3	B3r.bmp	500	1	blank2r.bmp	880	2	kuss	880	0	0	0	0	0	0	0	0	0	0	0	0
2024-05-15	10:56:07	10:57:48	100461	6.6.1	4_exp_EVA_AWA_CON	33	A	B	Rpleas_acq	Same	Rpleas	1pleas	acq_US_unple_nomask	acq1_nomask	1	16	0	0	300	300	0	0	511	46	1	0	vertrauen	kreativ	sonnig	genießen	besonnen	vergnügt	versagen	krank	sterben	gemein	bange	verbissen	engagiert	kuss	gütig	träumen	anregung	gesittet	engstirnig	krise	gierig	töten	ausrottung	geizig	1	blank2r.bmp	0	1	+	0	1	blank2r.bmp	500	1	DHJF	500	1	blank2r.bmp	880	4	gemein	880	0	0	0	0	0	0	0	0	0	0	0	0
2024-05-15	10:56:07	10:57:50	102469	6.6.1	4_exp_EVA_AWA_CON	33	A	B	Rpleas_acq	Same	Rpleas	1pleas	acq_US_unple_nomask	acq1_nomask	1	17	0	0	300	300	0	0	518	46	1	0	vertrauen	kreativ	sonnig	genießen	besonnen	vergnügt	versagen	krank	sterben	gemein	bange	verbissen	engagiert	kuss	gütig	träumen	anregung	gesittet	engstirnig	krise	gierig	töten	ausrottung	geizig	1	blank2r.bmp	0	1	+	0	1	blank2r.bmp	500	1	DHJF	500	1	blank2r.bmp	880	6	verbissen	880	0	0	0	0	0	0	0	0	0	0	0	0
2024-05-15	10:56:07	10:57:52	104549	6.6.1	4_exp_EVA_AWA_CON	33	A	B	Rpleas_acq	Same	Rpleas	1pleas	acq_new_unple_nomask	acq1_nomask	1	18	0	0	300	300	0	0	598	46	1	0	vertrauen	kreativ	sonnig	genießen	besonnen	vergnügt	versagen	krank	sterben	gemein	bange	verbissen	engagiert	kuss	gütig	träumen	anregung	gesittet	engstirnig	krise	gierig	töten	ausrottung	geizig	1	blank2r.bmp	0	1	+	0	1	blank2r.bmp	500	2	B2r.bmp	500	1	blank2r.bmp	880	5	ausrottung	880	0	0	0	0	0	0	0	0	0	0	0	0
2024-05-15	10:56:07	10:57:54	106525	6.6.1	4_exp_EVA_AWA_CON	33	A	B	Rpleas_acq	Same	Rpleas	1pleas	acq_US_unple_nomask	acq1_nomask	1	19	0	0	300	300	0	0	492	46	1	0	vertrauen	kreativ	sonnig	genießen	besonnen	vergnügt	versagen	krank	sterben	gemein	bange	verbissen	engagiert	kuss	gütig	träumen	anregung	gesittet	engstirnig	krise	gierig	töten	ausrottung	geizig	1	blank2r.bmp	0	1	+	0	1	blank2r.bmp	500	1	DHJF	500	1	blank2r.bmp	880	2	krank	880	0	0	0	0	0	0	0	0	0	0	0	0
2024-05-15	10:56:07	10:57:56	108717	6.6.1	4_exp_EVA_AWA_CON	33	A	B	Rpleas_acq	Same	Rpleas	1pleas	acq_US_pleas_nomask	acq1_nomask	1	20	0	0	300	300	0	0	702	50	1	0	vertrauen	kreativ	sonnig	genießen	besonnen	vergnügt	versagen	krank	sterben	gemein	bange	verbissen	engagiert	kuss	gütig	träumen	anregung	gesittet	engstirnig	krise	gierig	töten	ausrottung	geizig	1	blank2r.bmp	0	1	+	0	1	blank2r.bmp	500	1	CPLW	500	1	blank2r.bmp	880	2	kreativ	880	0	0	0	0	0	0	0	0	0	0	0	0
2024-05-15	10:56:07	10:57:59	110805	6.6.1	4_exp_EVA_AWA_CON	33	A	B	Rpleas_acq	Same	Rpleas	1pleas	acq_new_unple_nomask	acq1_nomask	1	21	0	0	300	300	0	0	599	46	1	0	vertrauen	kreativ	sonnig	genießen	besonnen	vergnügt	versagen	krank	sterben	gemein	bange	verbissen	engagiert	kuss	gütig	träumen	anregung	gesittet	engstirnig	krise	gierig	töten	ausrottung	geizig	1	blank2r.bmp	0	1	+	0	1	blank2r.bmp	500	8	C4r.bmp	500	1	blank2r.bmp	880	1	engstirnig	880	0	0	0	0	0	0	0	0	0	0	0	0
2024-05-15	10:56:07	10:58:01	112813	6.6.1	4_exp_EVA_AWA_CON	33	A	B	Rpleas_acq	Same	Rpleas	1pleas	acq_new_pleas_nomask	acq1_nomask	1	22	0	0	300	300	0	0	525	50	1	0	vertrauen	kreativ	sonnig	genießen	besonnen	vergnügt	versagen	krank	sterben	gemein	bange	verbissen	engagiert	kuss	gütig	träumen	anregung	gesittet	engstirnig	krise	gierig	töten	ausrottung	geizig	1	blank2r.bmp	0	1	+	0	1	blank2r.bmp	500	7	C3r.bmp	500	1	blank2r.bmp	880	6	gesittet	880	0	0	0	0	0	0	0	0	0	0	0	0
2024-05-15	10:56:07	10:58:02	114765	6.6.1	4_exp_EVA_AWA_CON	33	A	B	Rpleas_acq	Same	Rpleas	1pleas	acq_US_pleas_nomask	acq1_nomask	1	23	0	0	300	300	0	0	466	50	1	0	vertrauen	kreativ	sonnig	genießen	besonnen	vergnügt	versagen	krank	sterben	gemein	bange	verbissen	engagiert	kuss	gütig	träumen	anregung	gesittet	engstirnig	krise	gierig	töten	ausrottung	geizig	1	blank2r.bmp	0	1	+	0	1	blank2r.bmp	500	1	CPLW	500	1	blank2r.bmp	880	6	vergnügt	880	0	0	0	0	0	0	0	0	0	0	0	0
2024-05-15	10:56:07	10:58:05	116951	6.6.1	4_exp_EVA_AWA_CON	33	A	B	Rpleas_acq	Same	Rpleas	1pleas	acq_new_unple_nomask	acq1_nomask	1	24	0	0	300	300	0	0	499	50	0	0	vertrauen	kreativ	sonnig	genießen	besonnen	vergnügt	versagen	krank	sterben	gemein	bange	verbissen	engagiert	kuss	gütig	träumen	anregung	gesittet	engstirnig	krise	gierig	töten	ausrottung	geizig	1	blank2r.bmp	0	1	+	0	1	blank2r.bmp	500	4	B4r.bmp	500	1	blank2r.bmp	880	6	geizig	880	1	FEHLER	1402	0	0	0	0	0	0	0	0	0
2024-05-15	10:56:07	10:58:07	119045	6.6.1	4_exp_EVA_AWA_CON	33	A	B	Rpleas_acq	Same	Rpleas	1pleas	acq_US_unple_nomask	acq1_nomask	1	25	0	0	300	300	0	0	814	46	1	0	vertrauen	kreativ	sonnig	genießen	besonnen	vergnügt	versagen	krank	sterben	gemein	bange	verbissen	engagiert	kuss	gütig	träumen	anregung	gesittet	engstirnig	krise	gierig	töten	ausrottung	geizig	1	blank2r.bmp	0	1	+	0	1	blank2r.bmp	500	1	DHJF	500	1	blank2r.bmp	880	1	versagen	880	0	0	0	0	0	0	0	0	0	0	0	0
2024-05-15	10:56:07	10:58:09	121197	6.6.1	4_exp_EVA_AWA_CON	33	A	B	Rpleas_acq	Same	Rpleas	1pleas	acq_new_unple_nomask	acq1_nomask	1	26	0	0	300	300	0	0	664	46	1	0	vertrauen	kreativ	sonnig	genießen	besonnen	vergnügt	versagen	krank	sterben	gemein	bange	verbissen	engagiert	kuss	gütig	träumen	anregung	gesittet	engstirnig	krise	gierig	töten	ausrottung	geizig	1	blank2r.bmp	0	1	+	0	1	blank2r.bmp	500	5	C1r.bmp	500	1	blank2r.bmp	880	6	geizig	880	0	0	0	0	0	0	0	0	0	0	0	0
2024-05-15	10:56:07	10:58:11	123237	6.6.1	4_exp_EVA_AWA_CON	33	A	B	Rpleas_acq	Same	Rpleas	1pleas	acq_US_pleas_nomask	acq1_nomask	1	27	0	0	300	300	0	0	553	50	1	0	vertrauen	kreativ	sonnig	genießen	besonnen	vergnügt	versagen	krank	sterben	gemein	bange	verbissen	engagiert	kuss	gütig	träumen	anregung	gesittet	engstirnig	krise	gierig	töten	ausrottung	geizig	1	blank2r.bmp	0	1	+	0	1	blank2r.bmp	500	1	CPLW	500	1	blank2r.bmp	880	4	genießen	880	0	0	0	0	0	0	0	0	0	0	0	0
2024-05-15	10:56:07	10:58:13	125341	6.6.1	4_exp_EVA_AWA_CON	33	A	B	Rpleas_acq	Same	Rpleas	1pleas	acq_new_pleas_nomask	acq1_nomask	1	28	0	0	300	300	0	0	615	50	1	0	vertrauen	kreativ	sonnig	genießen	besonnen	vergnügt	versagen	krank	sterben	gemein	bange	verbissen	engagiert	kuss	gütig	träumen	anregung	gesittet	engstirnig	krise	gierig	töten	ausrottung	geizig	1	blank2r.bmp	0	1	+	0	1	blank2r.bmp	500	1	B1r.bmp	500	1	blank2r.bmp	880	5	anregung	880	0	0	0	0	0	0	0	0	0	0	0	0
2024-05-15	10:56:07	10:58:15	127485	6.6.1	4_exp_EVA_AWA_CON	33	A	B	Rpleas_acq	Same	Rpleas	1pleas	acq_new_pleas_nomask	acq1_nomask	1	29	0	0	300	300	0	0	658	50	1	0	vertrauen	kreativ	sonnig	genießen	besonnen	vergnügt	versagen	krank	sterben	gemein	bange	verbissen	engagiert	kuss	gütig	träumen	anregung	gesittet	engstirnig	krise	gierig	töten	ausrottung	geizig	1	blank2r.bmp	0	1	+	0	1	blank2r.bmp	500	3	B3r.bmp	500	1	blank2r.bmp	880	1	engagiert	880	0	0	0	0	0	0	0	0	0	0	0	0
2024-05-15	10:56:07	10:58:17	129469	6.6.1	4_exp_EVA_AWA_CON	33	A	B	Rpleas_acq	Same	Rpleas	1pleas	acq_US_pleas_nomask	acq1_nomask	1	30	0	0	300	300	0	0	501	50	1	0	vertrauen	kreativ	sonnig	genießen	besonnen	vergnügt	versagen	krank	sterben	gemein	bange	verbissen	engagiert	kuss	gütig	träumen	anregung	gesittet	engstirnig	krise	gierig	töten	ausrottung	geizig	1	blank2r.bmp	0	1	+	0	1	blank2r.bmp	500	1	CPLW	500	1	blank2r.bmp	880	5	besonnen	880	0	0	0	0	0	0	0	0	0	0	0	0
2024-05-15	10:56:07	10:58:19	131485	6.6.1	4_exp_EVA_AWA_CON	33	A	B	Rpleas_acq	Same	Rpleas	1pleas	acq_new_pleas_nomask	acq1_nomask	1	31	0	0	300	300	0	0	526	50	1	0	vertrauen	kreativ	sonnig	genießen	besonnen	vergnügt	versagen	krank	sterben	gemein	bange	verbissen	engagiert	kuss	gütig	träumen	anregung	gesittet	engstirnig	krise	gierig	töten	ausrottung	geizig	1	blank2r.bmp	0	1	+	0	1	blank2r.bmp	500	6	C2r.bmp	500	1	blank2r.bmp	880	2	kuss	880	0	0	0	0	0	0	0	0	0	0	0	0
2024-05-15	10:56:07	10:58:21	133421	6.6.1	4_exp_EVA_AWA_CON	33	A	B	Rpleas_acq	Same	Rpleas	1pleas	acq_US_unple_nomask	acq1_nomask	1	32	0	0	300	300	0	0	450	46	1	0	vertrauen	kreativ	sonnig	genießen	besonnen	vergnügt	versagen	krank	sterben	gemein	bange	verbissen	engagiert	kuss	gütig	träumen	anregung	gesittet	engstirnig	krise	gierig	töten	ausrottung	geizig	1	blank2r.bmp	0	1	+	0	1	blank2r.bmp	500	1	DHJF	500	1	blank2r.bmp	880	2	krank	880	0	0	0	0	0	0	0	0	0	0	0	0
2024-05-15	10:56:07	10:58:23	135477	6.6.1	4_exp_EVA_AWA_CON	33	A	B	Rpleas_acq	Same	Rpleas	1pleas	acq_new_unple_nomask	acq1_nomask	1	33	0	0	300	300	0	0	575	46	1	0	vertrauen	kreativ	sonnig	genießen	besonnen	vergnügt	versagen	krank	sterben	gemein	bange	verbissen	engagiert	kuss	gütig	träumen	anregung	gesittet	engstirnig	krise	gierig	töten	ausrottung	geizig	1	blank2r.bmp	0	1	+	0	1	blank2r.bmp	500	1	B1r.bmp	500	1	blank2r.bmp	880	5	ausrottung	880	0	0	0	0	0	0	0	0	0	0	0	0
2024-05-15	10:56:07	10:58:25	137414	6.6.1	4_exp_EVA_AWA_CON	33	A	B	Rpleas_acq	Same	Rpleas	1pleas	acq_US_pleas_nomask	acq1_nomask	1	34	0	0	300	300	0	0	449	50	1	0	vertrauen	kreativ	sonnig	genießen	besonnen	vergnügt	versagen	krank	sterben	gemein	bange	verbissen	engagiert	kuss	gütig	träumen	anregung	gesittet	engstirnig	krise	gierig	töten	ausrottung	geizig	1	blank2r.bmp	0	1	+	0	1	blank2r.bmp	500	1	CPLW	500	1	blank2r.bmp	880	3	sonnig	880	0	0	0	0	0	0	0	0	0	0	0	0
2024-05-15	10:56:07	10:58:27	139405	6.6.1	4_exp_EVA_AWA_CON	33	A	B	Rpleas_acq	Same	Rpleas	1pleas	acq_new_unple_nomask	acq1_nomask	1	35	0	0	300	300	0	0	510	46	1	0	vertrauen	kreativ	sonnig	genießen	besonnen	vergnügt	versagen	krank	sterben	gemein	bange	verbissen	engagiert	kuss	gütig	träumen	anregung	gesittet	engstirnig	krise	gierig	töten	ausrottung	geizig	1	blank2r.bmp	0	1	+	0	1	blank2r.bmp	500	3	B3r.bmp	500	1	blank2r.bmp	880	2	krise	880	0	0	0	0	0	0	0	0	0	0	0	0
2024-05-15	10:56:07	10:58:29	141533	6.6.1	4_exp_EVA_AWA_CON	33	A	B	Rpleas_acq	Same	Rpleas	1pleas	acq_US_unple_nomask	acq1_nomask	1	36	0	0	300	300	0	0	647	46	1	0	vertrauen	kreativ	sonnig	genießen	besonnen	vergnügt	versagen	krank	sterben	gemein	bange	verbissen	engagiert	kuss	gütig	träumen	anregung	gesittet	engstirnig	krise	gierig	töten	ausrottung	geizig	1	blank2r.bmp	0	1	+	0	1	blank2r.bmp	500	1	DHJF	500	1	blank2r.bmp	880	5	bange	880	0	0	0	0	0	0	0	0	0	0	0	0
2024-05-15	10:56:07	10:58:59	171303	6.6.1	4_exp_EVA_AWA_CON	33	A	B	Rpleas_acq	Same	Rpleas	1pleas	acq_new_pleas_nomask	acq2_nomask	2	1	480	0	300	300	0	0	6141	50	1	0	vertrauen	kreativ	sonnig	genießen	besonnen	vergnügt	versagen	krank	sterben	gemein	bange	verbissen	engagiert	kuss	gütig	träumen	anregung	gesittet	engstirnig	krise	gierig	töten	ausrottung	geizig	1	blank2r.bmp	0	1	+	0	1	blank2r.bmp	500	2	B2r.bmp	500	1	blank2r.bmp	880	6	gesittet	880	1	!	1313	1	!	-1	0	0	0	0	0	0
2024-05-15	10:56:07	10:59:01	173592	6.6.1	4_exp_EVA_AWA_CON	33	A	B	Rpleas_acq	Same	Rpleas	1pleas	acq_new_unple_nomask	acq2_nomask	2	2	480	1	300	300	0	0	514	46	1	0	vertrauen	kreativ	sonnig	genießen	besonnen	vergnügt	versagen	krank	sterben	gemein	bange	verbissen	engagiert	kuss	gütig	träumen	anregung	gesittet	engstirnig	krise	gierig	töten	ausrottung	geizig	1	blank2r.bmp	0	1	+	0	1	blank2r.bmp	500	5	C1r.bmp	500	1	blank2r.bmp	880	1	engstirnig	880	1	!	1313	1	!	1416	0	0	0	0	0	0
2024-05-15	10:56:07	10:59:04	175961	6.6.1	4_exp_EVA_AWA_CON	33	A	B	Rpleas_acq	Same	Rpleas	1pleas	acq_US_pleas_nomask	acq2_nomask	2	3	480	0	300	300	0	0	391	46	0	0	vertrauen	kreativ	sonnig	genießen	besonnen	vergnügt	versagen	krank	sterben	gemein	bange	verbissen	engagiert	kuss	gütig	träumen	anregung	gesittet	engstirnig	krise	gierig	töten	ausrottung	geizig	1	blank2r.bmp	0	1	+	0	1	blank2r.bmp	500	1	CPLW	500	1	blank2r.bmp	880	2	kreativ	880	1	FEHLER	1584	1	!	-1	1	!	-1	0	0	0
2024-05-15	10:56:07	10:59:06	178032	6.6.1	4_exp_EVA_AWA_CON	33	A	B	Rpleas_acq	Same	Rpleas	1pleas	acq_US_pleas_nomask	acq2_nomask	2	4	480	1	300	300	0	0	491	50	1	0	vertrauen	kreativ	sonnig	genießen	besonnen	vergnügt	versagen	krank	sterben	gemein	bange	verbissen	engagiert	kuss	gütig	träumen	anregung	gesittet	engstirnig	krise	gierig	töten	ausrottung	geizig	1	blank2r.bmp	0	1	+	0	1	blank2r.bmp	500	1	CPLW	500	1	blank2r.bmp	880	6	vergnügt	880	1	!	1313	1	!	1393	0	0	0	0	0	0
2024-05-15	10:56:07	10:59:08	180241	6.6.1	4_exp_EVA_AWA_CON	33	A	B	Rpleas_acq	Same	Rpleas	1pleas	acq_US_unple_nomask	acq2_nomask	2	5	480	1	300	300	0	0	428	46	1	0	vertrauen	kreativ	sonnig	genießen	besonnen	vergnügt	versagen	krank	sterben	gemein	bange	verbissen	engagiert	kuss	gütig	träumen	anregung	gesittet	engstirnig	krise	gierig	töten	ausrottung	geizig	1	blank2r.bmp	0	1	+	0	1	blank2r.bmp	500	1	DHJF	500	1	blank2r.bmp	880	4	gemein	880	1	!	1313	1	!	1330	0	0	0	0	0	0
2024-05-15	10:56:07	10:59:10	182465	6.6.1	4_exp_EVA_AWA_CON	33	A	B	Rpleas_acq	Same	Rpleas	1pleas	acq_new_unple_nomask	acq2_nomask	2	6	480	1	300	300	0	0	440	46	1	0	vertrauen	kreativ	sonnig	genießen	besonnen	vergnügt	versagen	krank	sterben	gemein	bange	verbissen	engagiert	kuss	gütig	träumen	anregung	gesittet	engstirnig	krise	gierig	töten	ausrottung	geizig	1	blank2r.bmp	0	1	+	0	1	blank2r.bmp	500	4	B4r.bmp	500	1	blank2r.bmp	880	4	töten	880	1	!	1313	1	!	1343	0	0	0	0	0	0
2024-05-15	10:56:07	10:59:12	184761	6.6.1	4_exp_EVA_AWA_CON	33	A	B	Rpleas_acq	Same	Rpleas	1pleas	acq_US_unple_nomask	acq2_nomask	2	7	480	1	300	300	0	0	515	46	1	0	vertrauen	kreativ	sonnig	genießen	besonnen	vergnügt	versagen	krank	sterben	gemein	bange	verbissen	engagiert	kuss	gütig	träumen	anregung	gesittet	engstirnig	krise	gierig	töten	ausrottung	geizig	1	blank2r.bmp	0	1	+	0	1	blank2r.bmp	500	1	DHJF	500	1	blank2r.bmp	880	6	verbissen	880	1	!	1313	1	!	1417	0	0	0	0	0	0
2024-05-15	10:56:07	10:59:15	187090	6.6.1	4_exp_EVA_AWA_CON	33	A	B	Rpleas_acq	Same	Rpleas	1pleas	acq_new_unple_nomask	acq2_nomask	2	8	480	0	300	300	0	0	352	50	0	0	vertrauen	kreativ	sonnig	genießen	besonnen	vergnügt	versagen	krank	sterben	gemein	bange	verbissen	engagiert	kuss	gütig	träumen	anregung	gesittet	engstirnig	krise	gierig	töten	ausrottung	geizig	1	blank2r.bmp	0	1	+	0	1	blank2r.bmp	500	7	C3r.bmp	500	1	blank2r.bmp	880	3	gierig	880	1	FEHLER	1545	1	!	-1	1	!	-1	0	0	0
2024-05-15	10:56:07	10:59:17	189097	6.6.1	4_exp_EVA_AWA_CON	33	A	B	Rpleas_acq	Same	Rpleas	1pleas	acq_new_pleas_nomask	acq2_nomask	2	9	480	1	300	300	0	0	428	50	1	0	vertrauen	kreativ	sonnig	genießen	besonnen	vergnügt	versagen	krank	sterben	gemein	bange	verbissen	engagiert	kuss	gütig	träumen	anregung	gesittet	engstirnig	krise	gierig	töten	ausrottung	geizig	1	blank2r.bmp	0	1	+	0	1	blank2r.bmp	500	8	C4r.bmp	500	1	blank2r.bmp	880	4	träumen	880	1	!	1313	1	!	1330	0	0	0	0	0	0
2024-05-15	10:56:07	10:59:19	191295	6.6.1	4_exp_EVA_AWA_CON	33	A	B	Rpleas_acq	Same	Rpleas	1pleas	acq_US_unple_nomask	acq2_nomask	2	10	480	1	300	300	0	0	417	46	1	0	vertrauen	kreativ	sonnig	genießen	besonnen	vergnügt	versagen	krank	sterben	gemein	bange	verbissen	engagiert	kuss	gütig	träumen	anregung	gesittet	engstirnig	krise	gierig	töten	ausrottung	geizig	1	blank2r.bmp	0	1	+	0	1	blank2r.bmp	500	1	DHJF	500	1	blank2r.bmp	880	3	sterben	880	1	!	1313	1	!	1317	0	0	0	0	0	0
2024-05-15	10:56:07	10:59:22	193807	6.6.1	4_exp_EVA_AWA_CON	33	A	B	Rpleas_acq	Same	Rpleas	1pleas	acq_new_pleas_nomask	acq2_nomask	2	11	480	0	300	300	0	0	737	50	1	0	vertrauen	kreativ	sonnig	genießen	besonnen	vergnügt	versagen	krank	sterben	gemein	bange	verbissen	engagiert	kuss	gütig	träumen	anregung	gesittet	engstirnig	krise	gierig	töten	ausrottung	geizig	1	blank2r.bmp	0	1	+	0	1	blank2r.bmp	500	6	C2r.bmp	500	1	blank2r.bmp	880	3	gütig	880	1	!	1312	1	!	-1	0	0	0	0	0	0
2024-05-15	10:56:07	10:59:24	196226	6.6.1	4_exp_EVA_AWA_CON	33	A	B	Rpleas_acq	Same	Rpleas	1pleas	acq_US_pleas_nomask	acq2_nomask	2	12	480	1	300	300	0	0	442	46	0	0	vertrauen	kreativ	sonnig	genießen	besonnen	vergnügt	versagen	krank	sterben	gemein	bange	verbissen	engagiert	kuss	gütig	träumen	anregung	gesittet	engstirnig	krise	gierig	töten	ausrottung	geizig	1	blank2r.bmp	0	1	+	0	1	blank2r.bmp	500	1	CPLW	500	1	blank2r.bmp	880	1	vertrauen	880	1	FEHLER	1635	1	!	1313	1	!	1343	0	0	0
2024-05-15	10:56:07	10:59:26	198256	6.6.1	4_exp_EVA_AWA_CON	33	A	B	Rpleas_acq	Same	Rpleas	1pleas	acq_new_pleas_nomask	acq2_nomask	2	13	480	1	300	300	0	0	452	50	1	0	vertrauen	kreativ	sonnig	genießen	besonnen	vergnügt	versagen	krank	sterben	gemein	bange	verbissen	engagiert	kuss	gütig	träumen	anregung	gesittet	engstirnig	krise	gierig	töten	ausrottung	geizig	1	blank2r.bmp	0	1	+	0	1	blank2r.bmp	500	7	C3r.bmp	500	1	blank2r.bmp	880	6	gesittet	880	1	!	1312	1	!	1354	0	0	0	0	0	0
2024-05-15	10:56:07	10:59:28	200615	6.6.1	4_exp_EVA_AWA_CON	33	A	B	Rpleas_acq	Same	Rpleas	1pleas	acq_US_pleas_nomask	acq2_nomask	2	14	480	0	300	300	0	0	581	50	1	0	vertrauen	kreativ	sonnig	genießen	besonnen	vergnügt	versagen	krank	sterben	gemein	bange	verbissen	engagiert	kuss	gütig	träumen	anregung	gesittet	engstirnig	krise	gierig	töten	ausrottung	geizig	1	blank2r.bmp	0	1	+	0	1	blank2r.bmp	500	1	CPLW	500	1	blank2r.bmp	880	5	besonnen	880	1	!	1313	1	!	-1	0	0	0	0	0	0
2024-05-15	10:56:07	10:59:31	202897	6.6.1	4_exp_EVA_AWA_CON	33	A	B	Rpleas_acq	Same	Rpleas	1pleas	acq_US_unple_nomask	acq2_nomask	2	15	480	1	300	300	0	0	499	46	1	0	vertrauen	kreativ	sonnig	genießen	besonnen	vergnügt	versagen	krank	sterben	gemein	bange	verbissen	engagiert	kuss	gütig	träumen	anregung	gesittet	engstirnig	krise	gierig	töten	ausrottung	geizig	1	blank2r.bmp	0	1	+	0	1	blank2r.bmp	500	1	DHJF	500	1	blank2r.bmp	880	2	krank	880	1	!	1312	1	!	1401	0	0	0	0	0	0
2024-05-15	10:56:07	10:59:33	205160	6.6.1	4_exp_EVA_AWA_CON	33	A	B	Rpleas_acq	Same	Rpleas	1pleas	acq_US_pleas_nomask	acq2_nomask	2	16	480	1	300	300	0	0	482	50	1	0	vertrauen	kreativ	sonnig	genießen	besonnen	vergnügt	versagen	krank	sterben	gemein	bange	verbissen	engagiert	kuss	gütig	träumen	anregung	gesittet	engstirnig	krise	gierig	töten	ausrottung	geizig	1	blank2r.bmp	0	1	+	0	1	blank2r.bmp	500	1	CPLW	500	1	blank2r.bmp	880	2	kreativ	880	1	!	1313	1	!	1383	0	0	0	0	0	0
2024-05-15	10:56:07	10:59:35	207401	6.6.1	4_exp_EVA_AWA_CON	33	A	B	Rpleas_acq	Same	Rpleas	1pleas	acq_new_unple_nomask	acq2_nomask	2	17	480	1	300	300	0	0	460	46	1	0	vertrauen	kreativ	sonnig	genießen	besonnen	vergnügt	versagen	krank	sterben	gemein	bange	verbissen	engagiert	kuss	gütig	träumen	anregung	gesittet	engstirnig	krise	gierig	töten	ausrottung	geizig	1	blank2r.bmp	0	1	+	0	1	blank2r.bmp	500	4	B4r.bmp	500	1	blank2r.bmp	880	6	geizig	880	1	!	1313	1	!	1363	0	0	0	0	0	0
2024-05-15	10:56:07	10:59:37	209625	6.6.1	4_exp_EVA_AWA_CON	33	A	B	Rpleas_acq	Same	Rpleas	1pleas	acq_new_pleas_nomask	acq2_nomask	2	18	480	1	300	300	0	0	443	50	1	0	vertrauen	kreativ	sonnig	genießen	besonnen	vergnügt	versagen	krank	sterben	gemein	bange	verbissen	engagiert	kuss	gütig	träumen	anregung	gesittet	engstirnig	krise	gierig	töten	ausrottung	geizig	1	blank2r.bmp	0	1	+	0	1	blank2r.bmp	500	5	C1r.bmp	500	1	blank2r.bmp	880	5	anregung	880	1	!	1313	1	!	1345	0	0	0	0	0	0
2024-05-15	10:56:07	10:59:40	211888	6.6.1	4_exp_EVA_AWA_CON	33	A	B	Rpleas_acq	Same	Rpleas	1pleas	acq_new_pleas_nomask	acq2_nomask	2	19	480	1	300	300	0	0	485	50	1	0	vertrauen	kreativ	sonnig	genießen	besonnen	vergnügt	versagen	krank	sterben	gemein	bange	verbissen	engagiert	kuss	gütig	träumen	anregung	gesittet	engstirnig	krise	gierig	töten	ausrottung	geizig	1	blank2r.bmp	0	1	+	0	1	blank2r.bmp	500	6	C2r.bmp	500	1	blank2r.bmp	880	2	kuss	880	1	!	1313	1	!	1387	0	0	0	0	0	0
2024-05-15	10:56:07	10:59:42	214113	6.6.1	4_exp_EVA_AWA_CON	33	A	B	Rpleas_acq	Same	Rpleas	1pleas	acq_US_unple_nomask	acq2_nomask	2	20	480	1	300	300	0	0	448	46	1	0	vertrauen	kreativ	sonnig	genießen	besonnen	vergnügt	versagen	krank	sterben	gemein	bange	verbissen	engagiert	kuss	gütig	träumen	anregung	gesittet	engstirnig	krise	gierig	töten	ausrottung	geizig	1	blank2r.bmp	0	1	+	0	1	blank2r.bmp	500	1	DHJF	500	1	blank2r.bmp	880	3	sterben	880	1	!	1313	1	!	1350	0	0	0	0	0	0
2024-05-15	10:56:07	10:59:44	216303	6.6.1	4_exp_EVA_AWA_CON	33	A	B	Rpleas_acq	Same	Rpleas	1pleas	acq_US_pleas_nomask	acq2_nomask	2	21	480	0	300	300	0	0	408	50	1	0	vertrauen	kreativ	sonnig	genießen	besonnen	vergnügt	versagen	krank	sterben	gemein	bange	verbissen	engagiert	kuss	gütig	träumen	anregung	gesittet	engstirnig	krise	gierig	töten	ausrottung	geizig	1	blank2r.bmp	0	1	+	0	1	blank2r.bmp	500	1	CPLW	500	1	blank2r.bmp	880	1	vertrauen	880	1	!	-1	1	!	-1	0	0	0	0	0	0
2024-05-15	10:56:07	10:59:46	218697	6.6.1	4_exp_EVA_AWA_CON	33	A	B	Rpleas_acq	Same	Rpleas	1pleas	acq_new_unple_nomask	acq2_nomask	2	22	480	1	300	300	0	0	419	50	0	0	vertrauen	kreativ	sonnig	genießen	besonnen	vergnügt	versagen	krank	sterben	gemein	bange	verbissen	engagiert	kuss	gütig	träumen	anregung	gesittet	engstirnig	krise	gierig	töten	ausrottung	geizig	1	blank2r.bmp	0	1	+	0	1	blank2r.bmp	500	3	B3r.bmp	500	1	blank2r.bmp	880	2	krise	880	1	FEHLER	1611	1	!	1313	1	!	1319	0	0	0
2024-05-15	10:56:07	10:59:48	220655	6.6.1	4_exp_EVA_AWA_CON	33	A	B	Rpleas_acq	Same	Rpleas	1pleas	acq_US_unple_nomask	acq2_nomask	2	23	480	0	300	300	0	0	388	46	1	0	vertrauen	kreativ	sonnig	genießen	besonnen	vergnügt	versagen	krank	sterben	gemein	bange	verbissen	engagiert	kuss	gütig	träumen	anregung	gesittet	engstirnig	krise	gierig	töten	ausrottung	geizig	1	blank2r.bmp	0	1	+	0	1	blank2r.bmp	500	1	DHJF	500	1	blank2r.bmp	880	5	bange	880	1	!	-1	1	!	-1	0	0	0	0	0	0
2024-05-15	10:56:07	10:59:51	223103	6.6.1	4_exp_EVA_AWA_CON	33	A	B	Rpleas_acq	Same	Rpleas	1pleas	acq_new_unple_nomask	acq2_nomask	2	24	480	0	300	300	0	0	674	46	1	0	vertrauen	kreativ	sonnig	genießen	besonnen	vergnügt	versagen	krank	sterben	gemein	bange	verbissen	engagiert	kuss	gütig	träumen	anregung	gesittet	engstirnig	krise	gierig	töten	ausrottung	geizig	1	blank2r.bmp	0	1	+	0	1	blank2r.bmp	500	2	B2r.bmp	500	1	blank2r.bmp	880	1	engstirnig	880	1	!	1313	1	!	-1	0	0	0	0	0	0
2024-05-15	10:56:07	10:59:53	225223	6.6.1	4_exp_EVA_AWA_CON	33	A	B	Rpleas_acq	Same	Rpleas	1pleas	acq_US_pleas_nomask	acq2_nomask	2	25	480	0	300	300	0	0	343	50	1	0	vertrauen	kreativ	sonnig	genießen	besonnen	vergnügt	versagen	krank	sterben	gemein	bange	verbissen	engagiert	kuss	gütig	träumen	anregung	gesittet	engstirnig	krise	gierig	töten	ausrottung	geizig	1	blank2r.bmp	0	1	+	0	1	blank2r.bmp	500	1	CPLW	500	1	blank2r.bmp	880	6	vergnügt	880	1	!	-1	1	!	-1	0	0	0	0	0	0
2024-05-15	10:56:07	10:59:55	227489	6.6.1	4_exp_EVA_AWA_CON	33	A	B	Rpleas_acq	Same	Rpleas	1pleas	acq_new_unple_nomask	acq2_nomask	2	26	480	1	300	300	0	0	485	46	1	0	vertrauen	kreativ	sonnig	genießen	besonnen	vergnügt	versagen	krank	sterben	gemein	bange	verbissen	engagiert	kuss	gütig	träumen	anregung	gesittet	engstirnig	krise	gierig	töten	ausrottung	geizig	1	blank2r.bmp	0	1	+	0	1	blank2r.bmp	500	8	C4r.bmp	500	1	blank2r.bmp	880	3	gierig	880	1	!	1313	1	!	1387	0	0	0	0	0	0
2024-05-15	10:56:07	10:59:57	229697	6.6.1	4_exp_EVA_AWA_CON	33	A	B	Rpleas_acq	Same	Rpleas	1pleas	acq_US_pleas_nomask	acq2_nomask	2	27	480	1	300	300	0	0	432	50	1	0	vertrauen	kreativ	sonnig	genießen	besonnen	vergnügt	versagen	krank	sterben	gemein	bange	verbissen	engagiert	kuss	gütig	träumen	anregung	gesittet	engstirnig	krise	gierig	töten	ausrottung	geizig	1	blank2r.bmp	0	1	+	0	1	blank2r.bmp	500	1	CPLW	500	1	blank2r.bmp	880	4	genießen	880	1	!	1313	1	!	1334	0	0	0	0	0	0
2024-05-15	10:56:07	11:00:00	231863	6.6.1	4_exp_EVA_AWA_CON	33	A	B	Rpleas_acq	Same	Rpleas	1pleas	acq_US_pleas_nomask	acq2_nomask	2	28	480	0	300	300	0	0	388	50	1	0	vertrauen	kreativ	sonnig	genießen	besonnen	vergnügt	versagen	krank	sterben	gemein	bange	verbissen	engagiert	kuss	gütig	träumen	anregung	gesittet	engstirnig	krise	gierig	töten	ausrottung	geizig	1	blank2r.bmp	0	1	+	0	1	blank2r.bmp	500	1	CPLW	500	1	blank2r.bmp	880	3	sonnig	880	1	!	-1	1	!	-1	0	0	0	0	0	0
2024-05-15	10:56:07	11:00:02	234169	6.6.1	4_exp_EVA_AWA_CON	33	A	B	Rpleas_acq	Same	Rpleas	1pleas	acq_new_unple_nomask	acq2_nomask	2	29	480	1	300	300	0	0	531	46	1	0	vertrauen	kreativ	sonnig	genießen	besonnen	vergnügt	versagen	krank	sterben	gemein	bange	verbissen	engagiert	kuss	gütig	träumen	anregung	gesittet	engstirnig	krise	gierig	töten	ausrottung	geizig	1	blank2r.bmp	0	1	+	0	1	blank2r.bmp	500	1	B1r.bmp	500	1	blank2r.bmp	880	5	ausrottung	880	1	!	1312	1	!	1433	0	0	0	0	0	0
2024-05-15	10:56:07	11:00:04	236376	6.6.1	4_exp_EVA_AWA_CON	33	A	B	Rpleas_acq	Same	Rpleas	1pleas	acq_new_pleas_nomask	acq2_nomask	2	30	480	1	300	300	0	0	428	50	1	0	vertrauen	kreativ	sonnig	genießen	besonnen	vergnügt	versagen	krank	sterben	gemein	bange	verbissen	engagiert	kuss	gütig	träumen	anregung	gesittet	engstirnig	krise	gierig	töten	ausrottung	geizig	1	blank2r.bmp	0	1	+	0	1	blank2r.bmp	500	3	B3r.bmp	500	1	blank2r.bmp	880	1	engagiert	880	1	!	1313	1	!	1329	0	0	0	0	0	0
2024-05-15	10:56:07	11:00:07	238850	6.6.1	4_exp_EVA_AWA_CON	33	A	B	Rpleas_acq	Same	Rpleas	1pleas	acq_new_pleas_nomask	acq2_nomask	2	31	480	1	300	300	0	0	488	46	0	0	vertrauen	kreativ	sonnig	genießen	besonnen	vergnügt	versagen	krank	sterben	gemein	bange	verbissen	engagiert	kuss	gütig	träumen	anregung	gesittet	engstirnig	krise	gierig	töten	ausrottung	geizig	1	blank2r.bmp	0	1	+	0	1	blank2r.bmp	500	4	B4r.bmp	500	1	blank2r.bmp	880	4	träumen	880	1	FEHLER	1682	1	!	1312	1	!	1390	0	0	0
2024-05-15	10:56:07	11:00:09	240982	6.6.1	4_exp_EVA_AWA_CON	33	A	B	Rpleas_acq	Same	Rpleas	1pleas	acq_new_pleas_nomask	acq2_nomask	2	32	480	0	300	300	0	0	554	50	1	0	vertrauen	kreativ	sonnig	genießen	besonnen	vergnügt	versagen	krank	sterben	gemein	bange	verbissen	engagiert	kuss	gütig	träumen	anregung	gesittet	engstirnig	krise	gierig	töten	ausrottung	geizig	1	blank2r.bmp	0	1	+	0	1	blank2r.bmp	500	1	B1r.bmp	500	1	blank2r.bmp	880	3	gütig	880	1	!	1313	1	!	-1	0	0	0	0	0	0
2024-05-15	10:56:07	11:00:11	243376	6.6.1	4_exp_EVA_AWA_CON	33	A	B	Rpleas_acq	Same	Rpleas	1pleas	acq_US_unple_nomask	acq2_nomask	2	33	480	1	300	300	0	0	413	50	0	0	vertrauen	kreativ	sonnig	genießen	besonnen	vergnügt	versagen	krank	sterben	gemein	bange	verbissen	engagiert	kuss	gütig	träumen	anregung	gesittet	engstirnig	krise	gierig	töten	ausrottung	geizig	1	blank2r.bmp	0	1	+	0	1	blank2r.bmp	500	1	DHJF	500	1	blank2r.bmp	880	1	versagen	880	1	FEHLER	1605	1	!	1313	1	!	1313	0	0	0
2024-05-15	10:56:07	11:00:13	245393	6.6.1	4_exp_EVA_AWA_CON	33	A	B	Rpleas_acq	Same	Rpleas	1pleas	acq_US_unple_nomask	acq2_nomask	2	34	480	1	300	300	0	0	438	46	1	0	vertrauen	kreativ	sonnig	genießen	besonnen	vergnügt	versagen	krank	sterben	gemein	bange	verbissen	engagiert	kuss	gütig	träumen	anregung	gesittet	engstirnig	krise	gierig	töten	ausrottung	geizig	1	blank2r.bmp	0	1	+	0	1	blank2r.bmp	500	1	DHJF	500	1	blank2r.bmp	880	4	gemein	880	1	!	1313	1	!	1339	0	0	0	0	0	0
2024-05-15	10:56:07	11:00:16	247879	6.6.1	4_exp_EVA_AWA_CON	33	A	B	Rpleas_acq	Same	Rpleas	1pleas	acq_new_unple_nomask	acq2_nomask	2	35	480	0	300	300	0	0	704	46	1	0	vertrauen	kreativ	sonnig	genießen	besonnen	vergnügt	versagen	krank	sterben	gemein	bange	verbissen	engagiert	kuss	gütig	träumen	anregung	gesittet	engstirnig	krise	gierig	töten	ausrottung	geizig	1	blank2r.bmp	0	1	+	0	1	blank2r.bmp	500	2	B2r.bmp	500	1	blank2r.bmp	880	4	töten	880	1	!	1312	1	!	-1	0	0	0	0	0	0
2024-05-15	10:56:07	11:00:18	250231	6.6.1	4_exp_EVA_AWA_CON	33	A	B	Rpleas_acq	Same	Rpleas	1pleas	acq_US_unple_nomask	acq2_nomask	2	36	480	0	300	300	0	0	575	46	1	0	vertrauen	kreativ	sonnig	genießen	besonnen	vergnügt	versagen	krank	sterben	gemein	bange	verbissen	engagiert	kuss	gütig	träumen	anregung	gesittet	engstirnig	krise	gierig	töten	ausrottung	geizig	1	blank2r.bmp	0	1	+	0	1	blank2r.bmp	500	1	DHJF	500	1	blank2r.bmp	880	6	verbissen	880	1	!	1312	1	!	-1	0	0	0	0	0	0
2024-05-15	10:56:07	11:00:31	263535	6.6.1	4_exp_EVA_AWA_CON	33	A	B	Rpleas_acq	Same	Rpleas	1pleas	acq_US_unple_nomask	acq3_nomask	3	1	453	0	300	300	0	0	540	46	1	0	vertrauen	kreativ	sonnig	genießen	besonnen	vergnügt	versagen	krank	sterben	gemein	bange	verbissen	engagiert	kuss	gütig	träumen	anregung	gesittet	engstirnig	krise	gierig	töten	ausrottung	geizig	1	blank2r.bmp	0	1	+	0	1	blank2r.bmp	500	1	DHJF	500	1	blank2r.bmp	880	6	verbissen	880	1	!	1292	1	!	-1	0	0	0	0	0	0
2024-05-15	10:56:07	11:00:33	265719	6.6.1	4_exp_EVA_AWA_CON	33	A	B	Rpleas_acq	Same	Rpleas	1pleas	acq_US_pleas_nomask	acq3_nomask	3	2	453	1	300	300	0	0	402	50	1	0	vertrauen	kreativ	sonnig	genießen	besonnen	vergnügt	versagen	krank	sterben	gemein	bange	verbissen	engagiert	kuss	gütig	träumen	anregung	gesittet	engstirnig	krise	gierig	töten	ausrottung	geizig	1	blank2r.bmp	0	1	+	0	1	blank2r.bmp	500	1	CPLW	500	1	blank2r.bmp	880	5	besonnen	880	1	!	1292	1	!	1302	0	0	0	0	0	0
2024-05-15	10:56:07	11:00:36	268105	6.6.1	4_exp_EVA_AWA_CON	33	A	B	Rpleas_acq	Same	Rpleas	1pleas	acq_US_pleas_nomask	acq3_nomask	3	3	453	1	300	300	0	0	405	46	0	0	vertrauen	kreativ	sonnig	genießen	besonnen	vergnügt	versagen	krank	sterben	gemein	bange	verbissen	engagiert	kuss	gütig	träumen	anregung	gesittet	engstirnig	krise	gierig	töten	ausrottung	geizig	1	blank2r.bmp	0	1	+	0	1	blank2r.bmp	500	1	CPLW	500	1	blank2r.bmp	880	4	genießen	880	1	FEHLER	1598	1	!	1292	1	!	1307	0	0	0
2024-05-15	10:56:07	11:00:38	270447	6.6.1	4_exp_EVA_AWA_CON	33	A	B	Rpleas_acq	Same	Rpleas	1pleas	acq_US_pleas_nomask	acq3_nomask	3	4	453	0	300	300	0	0	768	50	1	0	vertrauen	kreativ	sonnig	genießen	besonnen	vergnügt	versagen	krank	sterben	gemein	bange	verbissen	engagiert	kuss	gütig	träumen	anregung	gesittet	engstirnig	krise	gierig	töten	ausrottung	geizig	1	blank2r.bmp	0	1	+	0	1	blank2r.bmp	500	1	CPLW	500	1	blank2r.bmp	880	2	kreativ	880	1	!	1293	1	!	-1	0	0	0	0	0	0
2024-05-15	10:56:07	11:00:40	272648	6.6.1	4_exp_EVA_AWA_CON	33	A	B	Rpleas_acq	Same	Rpleas	1pleas	acq_US_pleas_nomask	acq3_nomask	3	5	453	1	300	300	0	0	426	50	1	0	vertrauen	kreativ	sonnig	genießen	besonnen	vergnügt	versagen	krank	sterben	gemein	bange	verbissen	engagiert	kuss	gütig	träumen	anregung	gesittet	engstirnig	krise	gierig	töten	ausrottung	geizig	1	blank2r.bmp	0	1	+	0	1	blank2r.bmp	500	1	CPLW	500	1	blank2r.bmp	880	3	sonnig	880	1	!	1293	1	!	1327	0	0	0	0	0	0
2024-05-15	10:56:07	11:00:43	275023	6.6.1	4_exp_EVA_AWA_CON	33	A	B	Rpleas_acq	Same	Rpleas	1pleas	acq_US_pleas_nomask	acq3_nomask	3	6	453	0	300	300	0	0	600	50	1	0	vertrauen	kreativ	sonnig	genießen	besonnen	vergnügt	versagen	krank	sterben	gemein	bange	verbissen	engagiert	kuss	gütig	träumen	anregung	gesittet	engstirnig	krise	gierig	töten	ausrottung	geizig	1	blank2r.bmp	0	1	+	0	1	blank2r.bmp	500	1	CPLW	500	1	blank2r.bmp	880	6	vergnügt	880	1	!	1292	1	!	-1	0	0	0	0	0	0
2024-05-15	10:56:07	11:00:45	277320	6.6.1	4_exp_EVA_AWA_CON	33	A	B	Rpleas_acq	Same	Rpleas	1pleas	acq_US_unple_nomask	acq3_nomask	3	7	453	1	300	300	0	0	515	46	1	0	vertrauen	kreativ	sonnig	genießen	besonnen	vergnügt	versagen	krank	sterben	gemein	bange	verbissen	engagiert	kuss	gütig	träumen	anregung	gesittet	engstirnig	krise	gierig	töten	ausrottung	geizig	1	blank2r.bmp	0	1	+	0	1	blank2r.bmp	500	1	DHJF	500	1	blank2r.bmp	880	4	gemein	880	1	!	1292	1	!	1416	0	0	0	0	0	0
2024-05-15	10:56:07	11:00:47	279560	6.6.1	4_exp_EVA_AWA_CON	33	A	B	Rpleas_acq	Same	Rpleas	1pleas	acq_US_unple_nomask	acq3_nomask	3	8	453	1	300	300	0	0	464	46	1	0	vertrauen	kreativ	sonnig	genießen	besonnen	vergnügt	versagen	krank	sterben	gemein	bange	verbissen	engagiert	kuss	gütig	träumen	anregung	gesittet	engstirnig	krise	gierig	töten	ausrottung	geizig	1	blank2r.bmp	0	1	+	0	1	blank2r.bmp	500	1	DHJF	500	1	blank2r.bmp	880	3	sterben	880	1	!	1293	1	!	1365	0	0	0	0	0	0
2024-05-15	10:56:07	11:00:50	281800	6.6.1	4_exp_EVA_AWA_CON	33	A	B	Rpleas_acq	Same	Rpleas	1pleas	acq_US_unple_nomask	acq3_nomask	3	9	453	1	300	300	0	0	462	46	1	0	vertrauen	kreativ	sonnig	genießen	besonnen	vergnügt	versagen	krank	sterben	gemein	bange	verbissen	engagiert	kuss	gütig	träumen	anregung	gesittet	engstirnig	krise	gierig	töten	ausrottung	geizig	1	blank2r.bmp	0	1	+	0	1	blank2r.bmp	500	1	DHJF	500	1	blank2r.bmp	880	2	krank	880	1	!	1293	1	!	1364	0	0	0	0	0	0
2024-05-15	10:56:07	11:00:52	284056	6.6.1	4_exp_EVA_AWA_CON	33	A	B	Rpleas_acq	Same	Rpleas	1pleas	acq_US_unple_nomask	acq3_nomask	3	10	453	1	300	300	0	0	477	46	1	0	vertrauen	kreativ	sonnig	genießen	besonnen	vergnügt	versagen	krank	sterben	gemein	bange	verbissen	engagiert	kuss	gütig	träumen	anregung	gesittet	engstirnig	krise	gierig	töten	ausrottung	geizig	1	blank2r.bmp	0	1	+	0	1	blank2r.bmp	500	1	DHJF	500	1	blank2r.bmp	880	1	versagen	880	1	!	1293	1	!	1378	0	0	0	0	0	0
2024-05-15	10:56:07	11:00:54	286353	6.6.1	4_exp_EVA_AWA_CON	33	A	B	Rpleas_acq	Same	Rpleas	1pleas	acq_US_pleas_nomask	acq3_nomask	3	11	453	0	300	300	0	0	321	46	0	0	vertrauen	kreativ	sonnig	genießen	besonnen	vergnügt	versagen	krank	sterben	gemein	bange	verbissen	engagiert	kuss	gütig	träumen	anregung	gesittet	engstirnig	krise	gierig	töten	ausrottung	geizig	1	blank2r.bmp	0	1	+	0	1	blank2r.bmp	500	1	CPLW	500	1	blank2r.bmp	880	1	vertrauen	880	1	FEHLER	1514	1	!	-1	1	!	-1	0	0	0
2024-05-15	10:56:07	11:00:56	288344	6.6.1	4_exp_EVA_AWA_CON	33	A	B	Rpleas_acq	Same	Rpleas	1pleas	acq_US_unple_nomask	acq3_nomask	3	12	453	1	300	300	0	0	412	46	1	0	vertrauen	kreativ	sonnig	genießen	besonnen	vergnügt	versagen	krank	sterben	gemein	bange	verbissen	engagiert	kuss	gütig	träumen	anregung	gesittet	engstirnig	krise	gierig	töten	ausrottung	geizig	1	blank2r.bmp	0	1	+	0	1	blank2r.bmp	500	1	DHJF	500	1	blank2r.bmp	880	5	bange	880	1	!	1293	1	!	1313	0	0	0	0	0	0
2024-05-15	10:56:07	11:00:58	290511	6.6.1	4_exp_EVA_AWA_CON	33	A	B	Rpleas_acq	Same	Rpleas	1pleas	acq_US_unple_nomask	acq3_nomask	3	13	453	0	300	300	0	0	388	46	1	0	vertrauen	kreativ	sonnig	genießen	besonnen	vergnügt	versagen	krank	sterben	gemein	bange	verbissen	engagiert	kuss	gütig	träumen	anregung	gesittet	engstirnig	krise	gierig	töten	ausrottung	geizig	1	blank2r.bmp	0	1	+	0	1	blank2r.bmp	500	1	DHJF	500	1	blank2r.bmp	880	6	verbissen	880	1	!	-1	1	!	-1	0	0	0	0	0	0
2024-05-15	10:56:07	11:01:00	292647	6.6.1	4_exp_EVA_AWA_CON	33	A	B	Rpleas_acq	Same	Rpleas	1pleas	acq_US_unple_nomask	acq3_nomask	3	14	453	0	300	300	0	0	363	46	1	0	vertrauen	kreativ	sonnig	genießen	besonnen	vergnügt	versagen	krank	sterben	gemein	bange	verbissen	engagiert	kuss	gütig	träumen	anregung	gesittet	engstirnig	krise	gierig	töten	ausrottung	geizig	1	blank2r.bmp	0	1	+	0	1	blank2r.bmp	500	1	DHJF	500	1	blank2r.bmp	880	1	versagen	880	1	!	-1	1	!	-1	0	0	0	0	0	0
2024-05-15	10:56:07	11:01:03	295082	6.6.1	4_exp_EVA_AWA_CON	33	A	B	Rpleas_acq	Same	Rpleas	1pleas	acq_US_pleas_nomask	acq3_nomask	3	15	453	1	300	300	0	0	454	46	0	0	vertrauen	kreativ	sonnig	genießen	besonnen	vergnügt	versagen	krank	sterben	gemein	bange	verbissen	engagiert	kuss	gütig	träumen	anregung	gesittet	engstirnig	krise	gierig	töten	ausrottung	geizig	1	blank2r.bmp	0	1	+	0	1	blank2r.bmp	500	1	CPLW	500	1	blank2r.bmp	880	5	besonnen	880	1	FEHLER	1647	1	!	1293	1	!	1355	0	0	0
2024-05-15	10:56:07	11:01:05	297137	6.6.1	4_exp_EVA_AWA_CON	33	A	B	Rpleas_acq	Same	Rpleas	1pleas	acq_US_unple_nomask	acq3_nomask	3	16	453	1	300	300	0	0	478	46	1	0	vertrauen	kreativ	sonnig	genießen	besonnen	vergnügt	versagen	krank	sterben	gemein	bange	verbissen	engagiert	kuss	gütig	träumen	anregung	gesittet	engstirnig	krise	gierig	töten	ausrottung	geizig	1	blank2r.bmp	0	1	+	0	1	blank2r.bmp	500	1	DHJF	500	1	blank2r.bmp	880	3	sterben	880	1	!	1293	1	!	1380	0	0	0	0	0	0
2024-05-15	10:56:07	11:01:07	299546	6.6.1	4_exp_EVA_AWA_CON	33	A	B	Rpleas_acq	Same	Rpleas	1pleas	acq_US_unple_nomask	acq3_nomask	3	17	453	1	300	300	0	0	425	50	0	0	vertrauen	kreativ	sonnig	genießen	besonnen	vergnügt	versagen	krank	sterben	gemein	bange	verbissen	engagiert	kuss	gütig	träumen	anregung	gesittet	engstirnig	krise	gierig	töten	ausrottung	geizig	1	blank2r.bmp	0	1	+	0	1	blank2r.bmp	500	1	DHJF	500	1	blank2r.bmp	880	4	gemein	880	1	FEHLER	1618	1	!	1293	1	!	1326	0	0	0
2024-05-15	10:56:07	11:01:10	301799	6.6.1	4_exp_EVA_AWA_CON	33	A	B	Rpleas_acq	Same	Rpleas	1pleas	acq_US_pleas_nomask	acq3_nomask	3	18	453	0	300	300	0	0	679	50	1	0	vertrauen	kreativ	sonnig	genießen	besonnen	vergnügt	versagen	krank	sterben	gemein	bange	verbissen	engagiert	kuss	gütig	träumen	anregung	gesittet	engstirnig	krise	gierig	töten	ausrottung	geizig	1	blank2r.bmp	0	1	+	0	1	blank2r.bmp	500	1	CPLW	500	1	blank2r.bmp	880	2	kreativ	880	1	!	1293	1	!	-1	0	0	0	0	0	0
2024-05-15	10:56:07	11:01:12	304009	6.6.1	4_exp_EVA_AWA_CON	33	A	B	Rpleas_acq	Same	Rpleas	1pleas	acq_US_unple_nomask	acq3_nomask	3	19	453	1	300	300	0	0	426	46	1	0	vertrauen	kreativ	sonnig	genießen	besonnen	vergnügt	versagen	krank	sterben	gemein	bange	verbissen	engagiert	kuss	gütig	träumen	anregung	gesittet	engstirnig	krise	gierig	töten	ausrottung	geizig	1	blank2r.bmp	0	1	+	0	1	blank2r.bmp	500	1	DHJF	500	1	blank2r.bmp	880	5	bange	880	1	!	1293	1	!	1327	0	0	0	0	0	0
2024-05-15	10:56:07	11:01:14	306273	6.6.1	4_exp_EVA_AWA_CON	33	A	B	Rpleas_acq	Same	Rpleas	1pleas	acq_US_pleas_nomask	acq3_nomask	3	20	453	1	300	300	0	0	488	50	1	0	vertrauen	kreativ	sonnig	genießen	besonnen	vergnügt	versagen	krank	sterben	gemein	bange	verbissen	engagiert	kuss	gütig	träumen	anregung	gesittet	engstirnig	krise	gierig	töten	ausrottung	geizig	1	blank2r.bmp	0	1	+	0	1	blank2r.bmp	500	1	CPLW	500	1	blank2r.bmp	880	4	genießen	880	1	!	1293	1	!	1390	0	0	0	0	0	0
2024-05-15	10:56:07	11:01:16	308472	6.6.1	4_exp_EVA_AWA_CON	33	A	B	Rpleas_acq	Same	Rpleas	1pleas	acq_US_pleas_nomask	acq3_nomask	3	21	453	1	300	300	0	0	417	50	1	0	vertrauen	kreativ	sonnig	genießen	besonnen	vergnügt	versagen	krank	sterben	gemein	bange	verbissen	engagiert	kuss	gütig	träumen	anregung	gesittet	engstirnig	krise	gierig	töten	ausrottung	geizig	1	blank2r.bmp	0	1	+	0	1	blank2r.bmp	500	1	CPLW	500	1	blank2r.bmp	880	1	vertrauen	880	1	!	1293	1	!	1318	0	0	0	0	0	0
2024-05-15	10:56:07	11:01:18	310631	6.6.1	4_exp_EVA_AWA_CON	33	A	B	Rpleas_acq	Same	Rpleas	1pleas	acq_US_pleas_nomask	acq3_nomask	3	22	453	0	300	300	0	0	385	50	1	0	vertrauen	kreativ	sonnig	genießen	besonnen	vergnügt	versagen	krank	sterben	gemein	bange	verbissen	engagiert	kuss	gütig	träumen	anregung	gesittet	engstirnig	krise	gierig	töten	ausrottung	geizig	1	blank2r.bmp	0	1	+	0	1	blank2r.bmp	500	1	CPLW	500	1	blank2r.bmp	880	6	vergnügt	880	1	!	-1	1	!	-1	0	0	0	0	0	0
2024-05-15	10:56:07	11:01:21	312873	6.6.1	4_exp_EVA_AWA_CON	33	A	B	Rpleas_acq	Same	Rpleas	1pleas	acq_US_pleas_nomask	acq3_nomask	3	23	453	1	300	300	0	0	464	50	1	0	vertrauen	kreativ	sonnig	genießen	besonnen	vergnügt	versagen	krank	sterben	gemein	bange	verbissen	engagiert	kuss	gütig	träumen	anregung	gesittet	engstirnig	krise	gierig	töten	ausrottung	geizig	1	blank2r.bmp	0	1	+	0	1	blank2r.bmp	500	1	CPLW	500	1	blank2r.bmp	880	3	sonnig	880	1	!	1293	1	!	1366	0	0	0	0	0	0
2024-05-15	10:56:07	11:01:23	314975	6.6.1	4_exp_EVA_AWA_CON	33	A	B	Rpleas_acq	Same	Rpleas	1pleas	acq_US_unple_nomask	acq3_nomask	3	24	453	0	300	300	0	0	327	46	1	0	vertrauen	kreativ	sonnig	genießen	besonnen	vergnügt	versagen	krank	sterben	gemein	bange	verbissen	engagiert	kuss	gütig	träumen	anregung	gesittet	engstirnig	krise	gierig	töten	ausrottung	geizig	1	blank2r.bmp	0	1	+	0	1	blank2r.bmp	500	1	DHJF	500	1	blank2r.bmp	880	2	krank	880	1	!	-1	1	!	-1	0	0	0	0	0	0
2024-05-15	10:56:07	11:01:25	317143	6.6.1	4_exp_EVA_AWA_CON	33	A	B	Rpleas_acq	Same	Rpleas	1pleas	acq_US_pleas_nomask	acq3_nomask	3	25	453	1	300	300	0	0	394	50	1	0	vertrauen	kreativ	sonnig	genießen	besonnen	vergnügt	versagen	krank	sterben	gemein	bange	verbissen	engagiert	kuss	gütig	träumen	anregung	gesittet	engstirnig	krise	gierig	töten	ausrottung	geizig	1	blank2r.bmp	0	1	+	0	1	blank2r.bmp	500	1	CPLW	500	1	blank2r.bmp	880	1	vertrauen	880	1	!	1293	1	!	1293	0	0	0	0	0	0
2024-05-15	10:56:07	11:01:27	319559	6.6.1	4_exp_EVA_AWA_CON	33	A	B	Rpleas_acq	Same	Rpleas	1pleas	acq_US_unple_nomask	acq3_nomask	3	26	453	0	300	300	0	0	638	46	1	0	vertrauen	kreativ	sonnig	genießen	besonnen	vergnügt	versagen	krank	sterben	gemein	bange	verbissen	engagiert	kuss	gütig	träumen	anregung	gesittet	engstirnig	krise	gierig	töten	ausrottung	geizig	1	blank2r.bmp	0	1	+	0	1	blank2r.bmp	500	1	DHJF	500	1	blank2r.bmp	880	2	krank	880	1	!	1293	1	!	-1	0	0	0	0	0	0
2024-05-15	10:56:07	11:01:29	321735	6.6.1	4_exp_EVA_AWA_CON	33	A	B	Rpleas_acq	Same	Rpleas	1pleas	acq_US_unple_nomask	acq3_nomask	3	27	453	1	300	300	0	0	402	46	1	0	vertrauen	kreativ	sonnig	genießen	besonnen	vergnügt	versagen	krank	sterben	gemein	bange	verbissen	engagiert	kuss	gütig	träumen	anregung	gesittet	engstirnig	krise	gierig	töten	ausrottung	geizig	1	blank2r.bmp	0	1	+	0	1	blank2r.bmp	500	1	DHJF	500	1	blank2r.bmp	880	4	gemein	880	1	!	1293	1	!	1302	0	0	0	0	0	0
2024-05-15	10:56:07	11:01:32	324055	6.6.1	4_exp_EVA_AWA_CON	33	A	B	Rpleas_acq	Same	Rpleas	1pleas	acq_US_unple_nomask	acq3_nomask	3	28	453	0	300	300	0	0	541	46	1	0	vertrauen	kreativ	sonnig	genießen	besonnen	vergnügt	versagen	krank	sterben	gemein	bange	verbissen	engagiert	kuss	gütig	träumen	anregung	gesittet	engstirnig	krise	gierig	töten	ausrottung	geizig	1	blank2r.bmp	0	1	+	0	1	blank2r.bmp	500	1	DHJF	500	1	blank2r.bmp	880	1	versagen	880	1	!	1293	1	!	-1	0	0	0	0	0	0
2024-05-15	10:56:07	11:01:34	326207	6.6.1	4_exp_EVA_AWA_CON	33	A	B	Rpleas_acq	Same	Rpleas	1pleas	acq_US_unple_nomask	acq3_nomask	3	29	453	0	300	300	0	0	371	46	1	0	vertrauen	kreativ	sonnig	genießen	besonnen	vergnügt	versagen	krank	sterben	gemein	bange	verbissen	engagiert	kuss	gütig	träumen	anregung	gesittet	engstirnig	krise	gierig	töten	ausrottung	geizig	1	blank2r.bmp	0	1	+	0	1	blank2r.bmp	500	1	DHJF	500	1	blank2r.bmp	880	5	bange	880	1	!	-1	1	!	-1	0	0	0	0	0	0
2024-05-15	10:56:07	11:01:36	328457	6.6.1	4_exp_EVA_AWA_CON	33	A	B	Rpleas_acq	Same	Rpleas	1pleas	acq_US_unple_nomask	acq3_nomask	3	30	453	1	300	300	0	0	468	46	1	0	vertrauen	kreativ	sonnig	genießen	besonnen	vergnügt	versagen	krank	sterben	gemein	bange	verbissen	engagiert	kuss	gütig	träumen	anregung	gesittet	engstirnig	krise	gierig	töten	ausrottung	geizig	1	blank2r.bmp	0	1	+	0	1	blank2r.bmp	500	1	DHJF	500	1	blank2r.bmp	880	6	verbissen	880	1	!	1293	1	!	1369	0	0	0	0	0	0
2024-05-15	10:56:07	11:01:38	330689	6.6.1	4_exp_EVA_AWA_CON	33	A	B	Rpleas_acq	Same	Rpleas	1pleas	acq_US_pleas_nomask	acq3_nomask	3	31	453	1	300	300	0	0	448	50	1	0	vertrauen	kreativ	sonnig	genießen	besonnen	vergnügt	versagen	krank	sterben	gemein	bange	verbissen	engagiert	kuss	gütig	träumen	anregung	gesittet	engstirnig	krise	gierig	töten	ausrottung	geizig	1	blank2r.bmp	0	1	+	0	1	blank2r.bmp	500	1	CPLW	500	1	blank2r.bmp	880	3	sonnig	880	1	!	1293	1	!	1350	0	0	0	0	0	0
2024-05-15	10:56:07	11:01:41	333113	6.6.1	4_exp_EVA_AWA_CON	33	A	B	Rpleas_acq	Same	Rpleas	1pleas	acq_US_pleas_nomask	acq3_nomask	3	32	453	1	300	300	0	0	441	46	0	0	vertrauen	kreativ	sonnig	genießen	besonnen	vergnügt	versagen	krank	sterben	gemein	bange	verbissen	engagiert	kuss	gütig	träumen	anregung	gesittet	engstirnig	krise	gierig	töten	ausrottung	geizig	1	blank2r.bmp	0	1	+	0	1	blank2r.bmp	500	1	CPLW	500	1	blank2r.bmp	880	4	genießen	880	1	FEHLER	1634	1	!	1292	1	!	1343	0	0	0
2024-05-15	10:56:07	11:01:43	335153	6.6.1	4_exp_EVA_AWA_CON	33	A	B	Rpleas_acq	Same	Rpleas	1pleas	acq_US_pleas_nomask	acq3_nomask	3	33	453	1	300	300	0	0	460	50	1	0	vertrauen	kreativ	sonnig	genießen	besonnen	vergnügt	versagen	krank	sterben	gemein	bange	verbissen	engagiert	kuss	gütig	träumen	anregung	gesittet	engstirnig	krise	gierig	töten	ausrottung	geizig	1	blank2r.bmp	0	1	+	0	1	blank2r.bmp	500	1	CPLW	500	1	blank2r.bmp	880	6	vergnügt	880	1	!	1293	1	!	1362	0	0	0	0	0	0
2024-05-15	10:56:07	11:01:45	337400	6.6.1	4_exp_EVA_AWA_CON	33	A	B	Rpleas_acq	Same	Rpleas	1pleas	acq_US_unple_nomask	acq3_nomask	3	34	453	1	300	300	0	0	466	46	1	0	vertrauen	kreativ	sonnig	genießen	besonnen	vergnügt	versagen	krank	sterben	gemein	bange	verbissen	engagiert	kuss	gütig	träumen	anregung	gesittet	engstirnig	krise	gierig	töten	ausrottung	geizig	1	blank2r.bmp	0	1	+	0	1	blank2r.bmp	500	1	DHJF	500	1	blank2r.bmp	880	3	sterben	880	1	!	1292	1	!	1367	0	0	0	0	0	0
2024-05-15	10:56:07	11:01:47	339665	6.6.1	4_exp_EVA_AWA_CON	33	A	B	Rpleas_acq	Same	Rpleas	1pleas	acq_US_pleas_nomask	acq3_nomask	3	35	453	1	300	300	0	0	489	50	1	0	vertrauen	kreativ	sonnig	genießen	besonnen	vergnügt	versagen	krank	sterben	gemein	bange	verbissen	engagiert	kuss	gütig	träumen	anregung	gesittet	engstirnig	krise	gierig	töten	ausrottung	geizig	1	blank2r.bmp	0	1	+	0	1	blank2r.bmp	500	1	CPLW	500	1	blank2r.bmp	880	2	kreativ	880	1	!	1292	1	!	1390	0	0	0	0	0	0
2024-05-15	10:56:07	11:01:50	342089	6.6.1	4_exp_EVA_AWA_CON	33	A	B	Rpleas_acq	Same	Rpleas	1pleas	acq_US_pleas_nomask	acq3_nomask	3	36	453	1	300	300	0	0	441	46	0	0	vertrauen	kreativ	sonnig	genießen	besonnen	vergnügt	versagen	krank	sterben	gemein	bange	verbissen	engagiert	kuss	gütig	träumen	anregung	gesittet	engstirnig	krise	gierig	töten	ausrottung	geizig	1	blank2r.bmp	0	1	+	0	1	blank2r.bmp	500	1	CPLW	500	1	blank2r.bmp	880	5	besonnen	880	1	FEHLER	1634	1	!	1293	1	!	1343	0	0	0
2024-05-15	10:56:07	11:02:09	360823	6.6.1	4_exp_EVA_AWA_CON	33	A	B	Rpleas_acq	Same	Rpleas	1pleas	acq_US_pleas_nomask	acq45_nomask	4	1	400	0	300	300	0	0	1416	50	1	0	vertrauen	kreativ	sonnig	genießen	besonnen	vergnügt	versagen	krank	sterben	gemein	bange	verbissen	engagiert	kuss	gütig	träumen	anregung	gesittet	engstirnig	krise	gierig	töten	ausrottung	geizig	1	blank2r.bmp	0	1	+	0	1	blank2r.bmp	500	1	CPLW	500	1	blank2r.bmp	880	5	besonnen	880	1	!	1233	1	!	-1	0	0	0	0	0	0
2024-05-15	10:56:07	11:02:11	363041	6.6.1	4_exp_EVA_AWA_CON	33	A	B	Rpleas_acq	Same	Rpleas	1pleas	acq_US_pleas_nomask	acq45_nomask	4	2	400	1	300	300	0	0	439	50	1	0	vertrauen	kreativ	sonnig	genießen	besonnen	vergnügt	versagen	krank	sterben	gemein	bange	verbissen	engagiert	kuss	gütig	träumen	anregung	gesittet	engstirnig	krise	gierig	töten	ausrottung	geizig	1	blank2r.bmp	0	1	+	0	1	blank2r.bmp	500	1	CPLW	500	1	blank2r.bmp	880	3	sonnig	880	1	!	1232	1	!	1342	0	0	0	0	0	0
2024-05-15	10:56:07	11:02:13	365256	6.6.1	4_exp_EVA_AWA_CON	33	A	B	Rpleas_acq	Same	Rpleas	1pleas	acq_US_pleas_nomask	acq45_nomask	4	3	400	1	300	300	0	0	434	50	1	0	vertrauen	kreativ	sonnig	genießen	besonnen	vergnügt	versagen	krank	sterben	gemein	bange	verbissen	engagiert	kuss	gütig	träumen	anregung	gesittet	engstirnig	krise	gierig	töten	ausrottung	geizig	1	blank2r.bmp	0	1	+	0	1	blank2r.bmp	500	1	CPLW	500	1	blank2r.bmp	880	6	vergnügt	880	1	!	1233	1	!	1335	0	0	0	0	0	0
2024-05-15	10:56:07	11:02:15	367543	6.6.1	4_exp_EVA_AWA_CON	33	A	B	Rpleas_acq	Same	Rpleas	1pleas	acq_US_unple_nomask	acq45_nomask	4	4	400	0	300	300	0	0	510	46	1	0	vertrauen	kreativ	sonnig	genießen	besonnen	vergnügt	versagen	krank	sterben	gemein	bange	verbissen	engagiert	kuss	gütig	träumen	anregung	gesittet	engstirnig	krise	gierig	töten	ausrottung	geizig	1	blank2r.bmp	0	1	+	0	1	blank2r.bmp	500	1	DHJF	500	1	blank2r.bmp	880	5	bange	880	1	!	1232	1	!	-1	0	0	0	0	0	0
2024-05-15	10:56:07	11:02:18	369822	6.6.1	4_exp_EVA_AWA_CON	33	A	B	Rpleas_acq	Same	Rpleas	1pleas	acq_US_pleas_nomask	acq45_nomask	4	5	400	0	300	300	0	0	499	50	1	0	vertrauen	kreativ	sonnig	genießen	besonnen	vergnügt	versagen	krank	sterben	gemein	bange	verbissen	engagiert	kuss	gütig	träumen	anregung	gesittet	engstirnig	krise	gierig	töten	ausrottung	geizig	1	blank2r.bmp	0	1	+	0	1	blank2r.bmp	500	1	CPLW	500	1	blank2r.bmp	880	1	vertrauen	880	1	!	1232	1	!	-1	0	0	0	0	0	0
2024-05-15	10:56:07	11:02:20	372078	6.6.1	4_exp_EVA_AWA_CON	33	A	B	Rpleas_acq	Same	Rpleas	1pleas	acq_US_unple_nomask	acq45_nomask	4	6	400	0	300	300	0	0	484	46	1	0	vertrauen	kreativ	sonnig	genießen	besonnen	vergnügt	versagen	krank	sterben	gemein	bange	verbissen	engagiert	kuss	gütig	träumen	anregung	gesittet	engstirnig	krise	gierig	töten	ausrottung	geizig	1	blank2r.bmp	0	1	+	0	1	blank2r.bmp	500	1	DHJF	500	1	blank2r.bmp	880	6	verbissen	880	1	!	1233	1	!	-1	0	0	0	0	0	0
2024-05-15	10:56:07	11:02:22	374272	6.6.1	4_exp_EVA_AWA_CON	33	A	B	Rpleas_acq	Same	Rpleas	1pleas	acq_US_pleas_nomask	acq45_nomask	4	7	400	1	300	300	0	0	414	50	1	0	vertrauen	kreativ	sonnig	genießen	besonnen	vergnügt	versagen	krank	sterben	gemein	bange	verbissen	engagiert	kuss	gütig	träumen	anregung	gesittet	engstirnig	krise	gierig	töten	ausrottung	geizig	1	blank2r.bmp	0	1	+	0	1	blank2r.bmp	500	1	CPLW	500	1	blank2r.bmp	880	2	kreativ	880	1	!	1233	1	!	1315	0	0	0	0	0	0
2024-05-15	10:56:07	11:02:24	376359	6.6.1	4_exp_EVA_AWA_CON	33	A	B	Rpleas_acq	Same	Rpleas	1pleas	acq_US_unple_nomask	acq45_nomask	4	8	400	0	300	300	0	0	311	46	1	0	vertrauen	kreativ	sonnig	genießen	besonnen	vergnügt	versagen	krank	sterben	gemein	bange	verbissen	engagiert	kuss	gütig	träumen	anregung	gesittet	engstirnig	krise	gierig	töten	ausrottung	geizig	1	blank2r.bmp	0	1	+	0	1	blank2r.bmp	500	1	DHJF	500	1	blank2r.bmp	880	3	sterben	880	1	!	-1	1	!	-1	0	0	0	0	0	0
2024-05-15	10:56:07	11:02:26	378560	6.6.1	4_exp_EVA_AWA_CON	33	A	B	Rpleas_acq	Same	Rpleas	1pleas	acq_US_unple_nomask	acq45_nomask	4	9	400	1	300	300	0	0	419	46	1	0	vertrauen	kreativ	sonnig	genießen	besonnen	vergnügt	versagen	krank	sterben	gemein	bange	verbissen	engagiert	kuss	gütig	träumen	anregung	gesittet	engstirnig	krise	gierig	töten	ausrottung	geizig	1	blank2r.bmp	0	1	+	0	1	blank2r.bmp	500	1	DHJF	500	1	blank2r.bmp	880	2	krank	880	1	!	1232	1	!	1321	0	0	0	0	0	0
2024-05-15	10:56:07	11:02:28	380647	6.6.1	4_exp_EVA_AWA_CON	33	A	B	Rpleas_acq	Same	Rpleas	1pleas	acq_US_pleas_nomask	acq45_nomask	4	10	400	0	300	300	0	0	306	50	1	0	vertrauen	kreativ	sonnig	genießen	besonnen	vergnügt	versagen	krank	sterben	gemein	bange	verbissen	engagiert	kuss	gütig	träumen	anregung	gesittet	engstirnig	krise	gierig	töten	ausrottung	geizig	1	blank2r.bmp	0	1	+	0	1	blank2r.bmp	500	1	CPLW	500	1	blank2r.bmp	880	4	genießen	880	1	!	-1	1	!	-1	0	0	0	0	0	0
2024-05-15	10:56:07	11:02:31	382800	6.6.1	4_exp_EVA_AWA_CON	33	A	B	Rpleas_acq	Same	Rpleas	1pleas	acq_US_unple_nomask	acq45_nomask	4	11	400	1	300	300	0	0	377	46	1	0	vertrauen	kreativ	sonnig	genießen	besonnen	vergnügt	versagen	krank	sterben	gemein	bange	verbissen	engagiert	kuss	gütig	träumen	anregung	gesittet	engstirnig	krise	gierig	töten	ausrottung	geizig	1	blank2r.bmp	0	1	+	0	1	blank2r.bmp	500	1	DHJF	500	1	blank2r.bmp	880	1	versagen	880	1	!	1232	1	!	1278	0	0	0	0	0	0
2024-05-15	10:56:07	11:02:33	385063	6.6.1	4_exp_EVA_AWA_CON	33	A	B	Rpleas_acq	Same	Rpleas	1pleas	acq_US_unple_nomask	acq45_nomask	4	12	400	0	300	300	0	0	489	46	1	0	vertrauen	kreativ	sonnig	genießen	besonnen	vergnügt	versagen	krank	sterben	gemein	bange	verbissen	engagiert	kuss	gütig	träumen	anregung	gesittet	engstirnig	krise	gierig	töten	ausrottung	geizig	1	blank2r.bmp	0	1	+	0	1	blank2r.bmp	500	1	DHJF	500	1	blank2r.bmp	880	4	gemein	880	1	!	1232	1	!	-1	0	0	0	0	0	0
2024-05-15	10:56:07	11:02:35	387257	6.6.1	4_exp_EVA_AWA_CON	33	A	B	Rpleas_acq	Same	Rpleas	1pleas	acq_US_pleas_nomask	acq45_nomask	4	13	400	1	300	300	0	0	420	50	1	0	vertrauen	kreativ	sonnig	genießen	besonnen	vergnügt	versagen	krank	sterben	gemein	bange	verbissen	engagiert	kuss	gütig	träumen	anregung	gesittet	engstirnig	krise	gierig	töten	ausrottung	geizig	1	blank2r.bmp	0	1	+	0	1	blank2r.bmp	500	1	CPLW	500	1	blank2r.bmp	880	5	besonnen	880	1	!	1233	1	!	1322	0	0	0	0	0	0
2024-05-15	10:56:07	11:02:37	389424	6.6.1	4_exp_EVA_AWA_CON	33	A	B	Rpleas_acq	Same	Rpleas	1pleas	acq_US_pleas_nomask	acq45_nomask	4	14	400	1	300	300	0	0	386	46	0	0	vertrauen	kreativ	sonnig	genießen	besonnen	vergnügt	versagen	krank	sterben	gemein	bange	verbissen	engagiert	kuss	gütig	träumen	anregung	gesittet	engstirnig	krise	gierig	töten	ausrottung	geizig	1	blank2r.bmp	0	1	+	0	1	blank2r.bmp	500	1	CPLW	500	1	blank2r.bmp	880	4	genießen	880	1	!	1233	1	!	1288	0	0	0	0	0	0
2024-05-15	10:56:07	11:02:39	391687	6.6.1	4_exp_EVA_AWA_CON	33	A	B	Rpleas_acq	Same	Rpleas	1pleas	acq_US_pleas_nomask	acq45_nomask	4	15	400	0	300	300	0	0	489	50	1	0	vertrauen	kreativ	sonnig	genießen	besonnen	vergnügt	versagen	krank	sterben	gemein	bange	verbissen	engagiert	kuss	gütig	träumen	anregung	gesittet	engstirnig	krise	gierig	töten	ausrottung	geizig	1	blank2r.bmp	0	1	+	0	1	blank2r.bmp	500	1	CPLW	500	1	blank2r.bmp	880	6	vergnügt	880	1	!	1232	1	!	-1	0	0	0	0	0	0
2024-05-15	10:56:07	11:02:42	393848	6.6.1	4_exp_EVA_AWA_CON	33	A	B	Rpleas_acq	Same	Rpleas	1pleas	acq_US_unple_nomask	acq45_nomask	4	16	400	1	300	300	0	0	387	46	1	0	vertrauen	kreativ	sonnig	genießen	besonnen	vergnügt	versagen	krank	sterben	gemein	bange	verbissen	engagiert	kuss	gütig	träumen	anregung	gesittet	engstirnig	krise	gierig	töten	ausrottung	geizig	1	blank2r.bmp	0	1	+	0	1	blank2r.bmp	500	1	DHJF	500	1	blank2r.bmp	880	4	gemein	880	1	!	1232	1	!	1289	0	0	0	0	0	0
2024-05-15	10:56:07	11:02:44	396041	6.6.1	4_exp_EVA_AWA_CON	33	A	B	Rpleas_acq	Same	Rpleas	1pleas	acq_US_unple_nomask	acq45_nomask	4	17	400	1	300	300	0	0	418	46	1	0	vertrauen	kreativ	sonnig	genießen	besonnen	vergnügt	versagen	krank	sterben	gemein	bange	verbissen	engagiert	kuss	gütig	träumen	anregung	gesittet	engstirnig	krise	gierig	töten	ausrottung	geizig	1	blank2r.bmp	0	1	+	0	1	blank2r.bmp	500	1	DHJF	500	1	blank2r.bmp	880	5	bange	880	1	!	1232	1	!	1319	0	0	0	0	0	0
2024-05-15	10:56:07	11:02:46	398151	6.6.1	4_exp_EVA_AWA_CON	33	A	B	Rpleas_acq	Same	Rpleas	1pleas	acq_US_unple_nomask	acq45_nomask	4	18	400	0	300	300	0	0	329	50	0	0	vertrauen	kreativ	sonnig	genießen	besonnen	vergnügt	versagen	krank	sterben	gemein	bange	verbissen	engagiert	kuss	gütig	träumen	anregung	gesittet	engstirnig	krise	gierig	töten	ausrottung	geizig	1	blank2r.bmp	0	1	+	0	1	blank2r.bmp	500	1	DHJF	500	1	blank2r.bmp	880	1	versagen	880	1	!	-1	1	!	-1	0	0	0	0	0	0
2024-05-15	10:56:07	11:02:50	402118	6.6.1	4_exp_EVA_AWA_CON	33	A	B	Rpleas_acq	Same	Rpleas	1pleas	acq_US_unple_nomask	acq45_nomask	4	19	400	0	300	300	0	0	2195	46	1	0	vertrauen	kreativ	sonnig	genießen	besonnen	vergnügt	versagen	krank	sterben	gemein	bange	verbissen	engagiert	kuss	gütig	träumen	anregung	gesittet	engstirnig	krise	gierig	töten	ausrottung	geizig	1	blank2r.bmp	0	1	+	0	1	blank2r.bmp	500	1	DHJF	500	1	blank2r.bmp	880	2	krank	880	1	!	1232	1	!	-1	0	0	0	0	0	0
2024-05-15	10:56:07	11:02:52	404391	6.6.1	4_exp_EVA_AWA_CON	33	A	B	Rpleas_acq	Same	Rpleas	1pleas	acq_US_unple_nomask	acq45_nomask	4	20	400	0	300	300	0	0	495	46	1	0	vertrauen	kreativ	sonnig	genießen	besonnen	vergnügt	versagen	krank	sterben	gemein	bange	verbissen	engagiert	kuss	gütig	träumen	anregung	gesittet	engstirnig	krise	gierig	töten	ausrottung	geizig	1	blank2r.bmp	0	1	+	0	1	blank2r.bmp	500	1	DHJF	500	1	blank2r.bmp	880	6	verbissen	880	1	!	1232	1	!	-1	0	0	0	0	0	0
2024-05-15	10:56:07	11:02:54	406568	6.6.1	4_exp_EVA_AWA_CON	33	A	B	Rpleas_acq	Same	Rpleas	1pleas	acq_US_pleas_nomask	acq45_nomask	4	21	400	1	300	300	0	0	399	50	1	0	vertrauen	kreativ	sonnig	genießen	besonnen	vergnügt	versagen	krank	sterben	gemein	bange	verbissen	engagiert	kuss	gütig	träumen	anregung	gesittet	engstirnig	krise	gierig	töten	ausrottung	geizig	1	blank2r.bmp	0	1	+	0	1	blank2r.bmp	500	1	CPLW	500	1	blank2r.bmp	880	1	vertrauen	880	1	!	1232	1	!	1301	0	0	0	0	0	0
2024-05-15	10:56:07	11:02:56	408654	6.6.1	4_exp_EVA_AWA_CON	33	A	B	Rpleas_acq	Same	Rpleas	1pleas	acq_US_unple_nomask	acq45_nomask	4	22	400	0	300	300	0	0	306	46	1	0	vertrauen	kreativ	sonnig	genießen	besonnen	vergnügt	versagen	krank	sterben	gemein	bange	verbissen	engagiert	kuss	gütig	träumen	anregung	gesittet	engstirnig	krise	gierig	töten	ausrottung	geizig	1	blank2r.bmp	0	1	+	0	1	blank2r.bmp	500	1	DHJF	500	1	blank2r.bmp	880	3	sterben	880	1	!	-1	1	!	-1	0	0	0	0	0	0
2024-05-15	10:56:07	11:02:59	410918	6.6.1	4_exp_EVA_AWA_CON	33	A	B	Rpleas_acq	Same	Rpleas	1pleas	acq_US_unple_nomask	acq45_nomask	4	23	400	0	300	300	0	0	488	46	1	0	vertrauen	kreativ	sonnig	genießen	besonnen	vergnügt	versagen	krank	sterben	gemein	bange	verbissen	engagiert	kuss	gütig	träumen	anregung	gesittet	engstirnig	krise	gierig	töten	ausrottung	geizig	1	blank2r.bmp	0	1	+	0	1	blank2r.bmp	500	1	DHJF	500	1	blank2r.bmp	880	4	gemein	880	1	!	1233	1	!	-1	0	0	0	0	0	0
2024-05-15	10:56:07	11:03:01	413113	6.6.1	4_exp_EVA_AWA_CON	33	A	B	Rpleas_acq	Same	Rpleas	1pleas	acq_US_pleas_nomask	acq45_nomask	4	24	400	1	300	300	0	0	419	50	1	0	vertrauen	kreativ	sonnig	genießen	besonnen	vergnügt	versagen	krank	sterben	gemein	bange	verbissen	engagiert	kuss	gütig	träumen	anregung	gesittet	engstirnig	krise	gierig	töten	ausrottung	geizig	1	blank2r.bmp	0	1	+	0	1	blank2r.bmp	500	1	CPLW	500	1	blank2r.bmp	880	2	kreativ	880	1	!	1232	1	!	1320	0	0	0	0	0	0
2024-05-15	10:56:07	11:03:03	415223	6.6.1	4_exp_EVA_AWA_CON	33	A	B	Rpleas_acq	Same	Rpleas	1pleas	acq_US_pleas_nomask	acq45_nomask	4	25	400	0	300	300	0	0	330	46	0	0	vertrauen	kreativ	sonnig	genießen	besonnen	vergnügt	versagen	krank	sterben	gemein	bange	verbissen	engagiert	kuss	gütig	träumen	anregung	gesittet	engstirnig	krise	gierig	töten	ausrottung	geizig	1	blank2r.bmp	0	1	+	0	1	blank2r.bmp	500	1	CPLW	500	1	blank2r.bmp	880	3	sonnig	880	1	!	-1	1	!	-1	0	0	0	0	0	0
2024-05-15	10:56:07	11:03:05	417485	6.6.1	4_exp_EVA_AWA_CON	33	A	B	Rpleas_acq	Same	Rpleas	1pleas	acq_US_pleas_nomask	acq45_nomask	4	26	400	0	300	300	0	0	482	50	1	0	vertrauen	kreativ	sonnig	genießen	besonnen	vergnügt	versagen	krank	sterben	gemein	bange	verbissen	engagiert	kuss	gütig	träumen	anregung	gesittet	engstirnig	krise	gierig	töten	ausrottung	geizig	1	blank2r.bmp	0	1	+	0	1	blank2r.bmp	500	1	CPLW	500	1	blank2r.bmp	880	3	sonnig	880	1	!	1232	1	!	-1	0	0	0	0	0	0
2024-05-15	10:56:07	11:03:07	419664	6.6.1	4_exp_EVA_AWA_CON	33	A	B	Rpleas_acq	Same	Rpleas	1pleas	acq_US_unple_nomask	acq45_nomask	4	27	400	1	300	300	0	0	397	46	1	0	vertrauen	kreativ	sonnig	genießen	besonnen	vergnügt	versagen	krank	sterben	gemein	bange	verbissen	engagiert	kuss	gütig	träumen	anregung	gesittet	engstirnig	krise	gierig	töten	ausrottung	geizig	1	blank2r.bmp	0	1	+	0	1	blank2r.bmp	500	1	DHJF	500	1	blank2r.bmp	880	5	bange	880	1	!	1232	1	!	1298	0	0	0	0	0	0
2024-05-15	10:56:07	11:03:10	421896	6.6.1	4_exp_EVA_AWA_CON	33	A	B	Rpleas_acq	Same	Rpleas	1pleas	acq_US_unple_nomask	acq45_nomask	4	28	400	1	300	300	0	0	457	46	1	0	vertrauen	kreativ	sonnig	genießen	besonnen	vergnügt	versagen	krank	sterben	gemein	bange	verbissen	engagiert	kuss	gütig	träumen	anregung	gesittet	engstirnig	krise	gierig	töten	ausrottung	geizig	1	blank2r.bmp	0	1	+	0	1	blank2r.bmp	500	1	DHJF	500	1	blank2r.bmp	880	3	sterben	880	1	!	1233	1	!	1359	0	0	0	0	0	0
2024-05-15	10:56:07	11:03:12	424088	6.6.1	4_exp_EVA_AWA_CON	33	A	B	Rpleas_acq	Same	Rpleas	1pleas	acq_US_unple_nomask	acq45_nomask	4	29	400	1	300	300	0	0	408	46	1	0	vertrauen	kreativ	sonnig	genießen	besonnen	vergnügt	versagen	krank	sterben	gemein	bange	verbissen	engagiert	kuss	gütig	träumen	anregung	gesittet	engstirnig	krise	gierig	töten	ausrottung	geizig	1	blank2r.bmp	0	1	+	0	1	blank2r.bmp	500	1	DHJF	500	1	blank2r.bmp	880	6	verbissen	880	1	!	1233	1	!	1309	0	0	0	0	0	0
2024-05-15	10:56:07	11:03:14	426288	6.6.1	4_exp_EVA_AWA_CON	33	A	B	Rpleas_acq	Same	Rpleas	1pleas	acq_US_pleas_nomask	acq45_nomask	4	30	400	1	300	300	0	0	426	50	1	0	vertrauen	kreativ	sonnig	genießen	besonnen	vergnügt	versagen	krank	sterben	gemein	bange	verbissen	engagiert	kuss	gütig	träumen	anregung	gesittet	engstirnig	krise	gierig	töten	ausrottung	geizig	1	blank2r.bmp	0	1	+	0	1	blank2r.bmp	500	1	CPLW	500	1	blank2r.bmp	880	5	besonnen	880	1	!	1233	1	!	1328	0	0	0	0	0	0
2024-05-15	10:56:07	11:03:16	428513	6.6.1	4_exp_EVA_AWA_CON	33	A	B	Rpleas_acq	Same	Rpleas	1pleas	acq_US_pleas_nomask	acq45_nomask	4	31	400	1	300	300	0	0	449	50	1	0	vertrauen	kreativ	sonnig	genießen	besonnen	vergnügt	versagen	krank	sterben	gemein	bange	verbissen	engagiert	kuss	gütig	träumen	anregung	gesittet	engstirnig	krise	gierig	töten	ausrottung	geizig	1	blank2r.bmp	0	1	+	0	1	blank2r.bmp	500	1	CPLW	500	1	blank2r.bmp	880	2	kreativ	880	1	!	1232	1	!	1350	0	0	0	0	0	0
2024-05-15	10:56:07	11:03:18	430773	6.6.1	4_exp_EVA_AWA_CON	33	A	B	Rpleas_acq	Same	Rpleas	1pleas	acq_US_unple_nomask	acq45_nomask	4	32	400	0	300	300	0	0	482	46	1	0	vertrauen	kreativ	sonnig	genießen	besonnen	vergnügt	versagen	krank	sterben	gemein	bange	verbissen	engagiert	kuss	gütig	träumen	anregung	gesittet	engstirnig	krise	gierig	töten	ausrottung	geizig	1	blank2r.bmp	0	1	+	0	1	blank2r.bmp	500	1	DHJF	500	1	blank2r.bmp	880	2	krank	880	1	!	1233	1	!	-1	0	0	0	0	0	0
2024-05-15	10:56:07	11:03:21	432985	6.6.1	4_exp_EVA_AWA_CON	33	A	B	Rpleas_acq	Same	Rpleas	1pleas	acq_US_unple_nomask	acq45_nomask	4	33	400	1	300	300	0	0	428	46	1	0	vertrauen	kreativ	sonnig	genießen	besonnen	vergnügt	versagen	krank	sterben	gemein	bange	verbissen	engagiert	kuss	gütig	träumen	anregung	gesittet	engstirnig	krise	gierig	töten	ausrottung	geizig	1	blank2r.bmp	0	1	+	0	1	blank2r.bmp	500	1	DHJF	500	1	blank2r.bmp	880	1	versagen	880	1	!	1233	1	!	1329	0	0	0	0	0	0
2024-05-15	10:56:07	11:03:23	435137	6.6.1	4_exp_EVA_AWA_CON	33	A	B	Rpleas_acq	Same	Rpleas	1pleas	acq_US_pleas_nomask	acq45_nomask	4	34	400	1	300	300	0	0	369	46	0	0	vertrauen	kreativ	sonnig	genießen	besonnen	vergnügt	versagen	krank	sterben	gemein	bange	verbissen	engagiert	kuss	gütig	träumen	anregung	gesittet	engstirnig	krise	gierig	töten	ausrottung	geizig	1	blank2r.bmp	0	1	+	0	1	blank2r.bmp	500	1	CPLW	500	1	blank2r.bmp	880	4	genießen	880	1	!	1233	1	!	1270	0	0	0	0	0	0
2024-05-15	10:56:07	11:03:25	437352	6.6.1	4_exp_EVA_AWA_CON	33	A	B	Rpleas_acq	Same	Rpleas	1pleas	acq_US_pleas_nomask	acq45_nomask	4	35	400	1	300	300	0	0	433	46	0	0	vertrauen	kreativ	sonnig	genießen	besonnen	vergnügt	versagen	krank	sterben	gemein	bange	verbissen	engagiert	kuss	gütig	träumen	anregung	gesittet	engstirnig	krise	gierig	töten	ausrottung	geizig	1	blank2r.bmp	0	1	+	0	1	blank2r.bmp	500	1	CPLW	500	1	blank2r.bmp	880	1	vertrauen	880	1	!	1233	1	!	1335	0	0	0	0	0	0
2024-05-15	10:56:07	11:03:27	439639	6.6.1	4_exp_EVA_AWA_CON	33	A	B	Rpleas_acq	Same	Rpleas	1pleas	acq_US_pleas_nomask	acq45_nomask	4	36	400	0	300	300	0	0	510	50	1	0	vertrauen	kreativ	sonnig	genießen	besonnen	vergnügt	versagen	krank	sterben	gemein	bange	verbissen	engagiert	kuss	gütig	träumen	anregung	gesittet	engstirnig	krise	gierig	töten	ausrottung	geizig	1	blank2r.bmp	0	1	+	0	1	blank2r.bmp	500	1	CPLW	500	1	blank2r.bmp	880	6	vergnügt	880	1	!	1233	1	!	-1	0	0	0	0	0	0
2024-05-15	10:56:07	11:03:37	448950	6.6.1	4_exp_EVA_AWA_CON	33	A	B	Rpleas_acq	Same	Rpleas	1pleas	acq_US_pleas_nomask	acq45_nomask	5	1	400	0	300	300	0	0	626	50	1	0	vertrauen	kreativ	sonnig	genießen	besonnen	vergnügt	versagen	krank	sterben	gemein	bange	verbissen	engagiert	kuss	gütig	träumen	anregung	gesittet	engstirnig	krise	gierig	töten	ausrottung	geizig	1	blank2r.bmp	0	1	+	0	1	blank2r.bmp	500	1	CPLW	500	1	blank2r.bmp	880	1	vertrauen	880	1	!	1233	1	!	-1	0	0	0	0	0	0
2024-05-15	10:56:07	11:03:39	451205	6.6.1	4_exp_EVA_AWA_CON	33	A	B	Rpleas_acq	Same	Rpleas	1pleas	acq_US_pleas_nomask	acq45_nomask	5	2	400	0	300	300	0	0	480	50	1	0	vertrauen	kreativ	sonnig	genießen	besonnen	vergnügt	versagen	krank	sterben	gemein	bange	verbissen	engagiert	kuss	gütig	träumen	anregung	gesittet	engstirnig	krise	gierig	töten	ausrottung	geizig	1	blank2r.bmp	0	1	+	0	1	blank2r.bmp	500	1	CPLW	500	1	blank2r.bmp	880	6	vergnügt	880	1	!	1232	1	!	-1	0	0	0	0	0	0
2024-05-15	10:56:07	11:03:41	453424	6.6.1	4_exp_EVA_AWA_CON	33	A	B	Rpleas_acq	Same	Rpleas	1pleas	acq_US_unple_nomask	acq45_nomask	5	3	400	1	300	300	0	0	445	46	1	0	vertrauen	kreativ	sonnig	genießen	besonnen	vergnügt	versagen	krank	sterben	gemein	bange	verbissen	engagiert	kuss	gütig	träumen	anregung	gesittet	engstirnig	krise	gierig	töten	ausrottung	geizig	1	blank2r.bmp	0	1	+	0	1	blank2r.bmp	500	1	DHJF	500	1	blank2r.bmp	880	2	krank	880	1	!	1233	1	!	1346	0	0	0	0	0	0
2024-05-15	10:56:07	11:03:43	455527	6.6.1	4_exp_EVA_AWA_CON	33	A	B	Rpleas_acq	Same	Rpleas	1pleas	acq_US_unple_nomask	acq45_nomask	5	4	400	0	300	300	0	0	327	46	1	0	vertrauen	kreativ	sonnig	genießen	besonnen	vergnügt	versagen	krank	sterben	gemein	bange	verbissen	engagiert	kuss	gütig	träumen	anregung	gesittet	engstirnig	krise	gierig	töten	ausrottung	geizig	1	blank2r.bmp	0	1	+	0	1	blank2r.bmp	500	1	DHJF	500	1	blank2r.bmp	880	5	bange	880	1	!	-1	1	!	-1	0	0	0	0	0	0
2024-05-15	10:56:07	11:03:45	457664	6.6.1	4_exp_EVA_AWA_CON	33	A	B	Rpleas_acq	Same	Rpleas	1pleas	acq_US_unple_nomask	acq45_nomask	5	5	400	1	300	300	0	0	362	50	0	0	vertrauen	kreativ	sonnig	genießen	besonnen	vergnügt	versagen	krank	sterben	gemein	bange	verbissen	engagiert	kuss	gütig	träumen	anregung	gesittet	engstirnig	krise	gierig	töten	ausrottung	geizig	1	blank2r.bmp	0	1	+	0	1	blank2r.bmp	500	1	DHJF	500	1	blank2r.bmp	880	1	versagen	880	1	!	1233	1	!	1263	0	0	0	0	0	0
2024-05-15	10:56:07	11:03:48	459816	6.6.1	4_exp_EVA_AWA_CON	33	A	B	Rpleas_acq	Same	Rpleas	1pleas	acq_US_unple_nomask	acq45_nomask	5	6	400	1	300	300	0	0	373	46	1	0	vertrauen	kreativ	sonnig	genießen	besonnen	vergnügt	versagen	krank	sterben	gemein	bange	verbissen	engagiert	kuss	gütig	träumen	anregung	gesittet	engstirnig	krise	gierig	töten	ausrottung	geizig	1	blank2r.bmp	0	1	+	0	1	blank2r.bmp	500	1	DHJF	500	1	blank2r.bmp	880	6	verbissen	880	1	!	1232	1	!	1274	0	0	0	0	0	0
2024-05-15	10:56:07	11:03:50	462068	6.6.1	4_exp_EVA_AWA_CON	33	A	B	Rpleas_acq	Same	Rpleas	1pleas	acq_US_unple_nomask	acq45_nomask	5	7	400	0	300	300	0	0	477	46	1	0	vertrauen	kreativ	sonnig	genießen	besonnen	vergnügt	versagen	krank	sterben	gemein	bange	verbissen	engagiert	kuss	gütig	träumen	anregung	gesittet	engstirnig	krise	gierig	töten	ausrottung	geizig	1	blank2r.bmp	0	1	+	0	1	blank2r.bmp	500	1	DHJF	500	1	blank2r.bmp	880	3	sterben	880	1	!	1232	1	!	-1	0	0	0	0	0	0
2024-05-15	10:56:07	11:03:52	464375	6.6.1	4_exp_EVA_AWA_CON	33	A	B	Rpleas_acq	Same	Rpleas	1pleas	acq_US_unple_nomask	acq45_nomask	5	8	400	0	300	300	0	0	530	46	1	0	vertrauen	kreativ	sonnig	genießen	besonnen	vergnügt	versagen	krank	sterben	gemein	bange	verbissen	engagiert	kuss	gütig	träumen	anregung	gesittet	engstirnig	krise	gierig	töten	ausrottung	geizig	1	blank2r.bmp	0	1	+	0	1	blank2r.bmp	500	1	DHJF	500	1	blank2r.bmp	880	4	gemein	880	1	!	1233	1	!	-1	0	0	0	0	0	0
2024-05-15	10:56:07	11:03:54	466529	6.6.1	4_exp_EVA_AWA_CON	33	A	B	Rpleas_acq	Same	Rpleas	1pleas	acq_US_unple_nomask	acq45_nomask	5	9	400	1	300	300	0	0	370	46	1	0	vertrauen	kreativ	sonnig	genießen	besonnen	vergnügt	versagen	krank	sterben	gemein	bange	verbissen	engagiert	kuss	gütig	träumen	anregung	gesittet	engstirnig	krise	gierig	töten	ausrottung	geizig	1	blank2r.bmp	0	1	+	0	1	blank2r.bmp	500	1	DHJF	500	1	blank2r.bmp	880	4	gemein	880	1	!	1232	1	!	1272	0	0	0	0	0	0
2024-05-15	10:56:07	11:03:56	468688	6.6.1	4_exp_EVA_AWA_CON	33	A	B	Rpleas_acq	Same	Rpleas	1pleas	acq_US_pleas_nomask	acq45_nomask	5	10	400	1	300	300	0	0	379	50	1	0	vertrauen	kreativ	sonnig	genießen	besonnen	vergnügt	versagen	krank	sterben	gemein	bange	verbissen	engagiert	kuss	gütig	träumen	anregung	gesittet	engstirnig	krise	gierig	töten	ausrottung	geizig	1	blank2r.bmp	0	1	+	0	1	blank2r.bmp	500	1	CPLW	500	1	blank2r.bmp	880	3	sonnig	880	1	!	1232	1	!	1280	0	0	0	0	0	0
2024-05-15	10:56:07	11:03:59	470799	6.6.1	4_exp_EVA_AWA_CON	33	A	B	Rpleas_acq	Same	Rpleas	1pleas	acq_US_pleas_nomask	acq45_nomask	5	11	400	0	300	300	0	0	330	50	1	0	vertrauen	kreativ	sonnig	genießen	besonnen	vergnügt	versagen	krank	sterben	gemein	bange	verbissen	engagiert	kuss	gütig	träumen	anregung	gesittet	engstirnig	krise	gierig	töten	ausrottung	geizig	1	blank2r.bmp	0	1	+	0	1	blank2r.bmp	500	1	CPLW	500	1	blank2r.bmp	880	4	genießen	880	1	!	-1	1	!	-1	0	0	0	0	0	0
2024-05-15	10:56:07	11:04:01	473001	6.6.1	4_exp_EVA_AWA_CON	33	A	B	Rpleas_acq	Same	Rpleas	1pleas	acq_US_unple_nomask	acq45_nomask	5	12	400	1	300	300	0	0	418	46	1	0	vertrauen	kreativ	sonnig	genießen	besonnen	vergnügt	versagen	krank	sterben	gemein	bange	verbissen	engagiert	kuss	gütig	träumen	anregung	gesittet	engstirnig	krise	gierig	töten	ausrottung	geizig	1	blank2r.bmp	0	1	+	0	1	blank2r.bmp	500	1	DHJF	500	1	blank2r.bmp	880	6	verbissen	880	1	!	1233	1	!	1319	0	0	0	0	0	0
2024-05-15	10:56:07	11:04:03	475248	6.6.1	4_exp_EVA_AWA_CON	33	A	B	Rpleas_acq	Same	Rpleas	1pleas	acq_US_unple_nomask	acq45_nomask	5	13	400	1	300	300	0	0	465	46	1	0	vertrauen	kreativ	sonnig	genießen	besonnen	vergnügt	versagen	krank	sterben	gemein	bange	verbissen	engagiert	kuss	gütig	träumen	anregung	gesittet	engstirnig	krise	gierig	töten	ausrottung	geizig	1	blank2r.bmp	0	1	+	0	1	blank2r.bmp	500	1	DHJF	500	1	blank2r.bmp	880	2	krank	880	1	!	1232	1	!	1366	0	0	0	0	0	0
2024-05-15	10:56:07	11:04:05	477526	6.6.1	4_exp_EVA_AWA_CON	33	A	B	Rpleas_acq	Same	Rpleas	1pleas	acq_US_pleas_nomask	acq45_nomask	5	14	400	0	300	300	0	0	503	50	1	0	vertrauen	kreativ	sonnig	genießen	besonnen	vergnügt	versagen	krank	sterben	gemein	bange	verbissen	engagiert	kuss	gütig	träumen	anregung	gesittet	engstirnig	krise	gierig	töten	ausrottung	geizig	1	blank2r.bmp	0	1	+	0	1	blank2r.bmp	500	1	CPLW	500	1	blank2r.bmp	880	2	kreativ	880	1	!	1232	1	!	-1	0	0	0	0	0	0
2024-05-15	10:56:07	11:04:07	479720	6.6.1	4_exp_EVA_AWA_CON	33	A	B	Rpleas_acq	Same	Rpleas	1pleas	acq_US_pleas_nomask	acq45_nomask	5	15	400	1	300	300	0	0	414	50	1	0	vertrauen	kreativ	sonnig	genießen	besonnen	vergnügt	versagen	krank	sterben	gemein	bange	verbissen	engagiert	kuss	gütig	träumen	anregung	gesittet	engstirnig	krise	gierig	töten	ausrottung	geizig	1	blank2r.bmp	0	1	+	0	1	blank2r.bmp	500	1	CPLW	500	1	blank2r.bmp	880	5	besonnen	880	1	!	1232	1	!	1315	0	0	0	0	0	0
2024-05-15	10:56:07	11:04:10	481897	6.6.1	4_exp_EVA_AWA_CON	33	A	B	Rpleas_acq	Same	Rpleas	1pleas	acq_US_pleas_nomask	acq45_nomask	5	16	400	1	300	300	0	0	398	46	0	0	vertrauen	kreativ	sonnig	genießen	besonnen	vergnügt	versagen	krank	sterben	gemein	bange	verbissen	engagiert	kuss	gütig	träumen	anregung	gesittet	engstirnig	krise	gierig	töten	ausrottung	geizig	1	blank2r.bmp	0	1	+	0	1	blank2r.bmp	500	1	CPLW	500	1	blank2r.bmp	880	4	genießen	880	1	!	1233	1	!	1300	0	0	0	0	0	0
2024-05-15	10:56:07	11:04:12	484214	6.6.1	4_exp_EVA_AWA_CON	33	A	B	Rpleas_acq	Same	Rpleas	1pleas	acq_US_pleas_nomask	acq45_nomask	5	17	400	0	300	300	0	0	537	50	1	0	vertrauen	kreativ	sonnig	genießen	besonnen	vergnügt	versagen	krank	sterben	gemein	bange	verbissen	engagiert	kuss	gütig	träumen	anregung	gesittet	engstirnig	krise	gierig	töten	ausrottung	geizig	1	blank2r.bmp	0	1	+	0	1	blank2r.bmp	500	1	CPLW	500	1	blank2r.bmp	880	3	sonnig	880	1	!	1232	1	!	-1	0	0	0	0	0	0
2024-05-15	10:56:07	11:04:14	486456	6.6.1	4_exp_EVA_AWA_CON	33	A	B	Rpleas_acq	Same	Rpleas	1pleas	acq_US_pleas_nomask	acq45_nomask	5	18	400	1	300	300	0	0	466	46	0	0	vertrauen	kreativ	sonnig	genießen	besonnen	vergnügt	versagen	krank	sterben	gemein	bange	verbissen	engagiert	kuss	gütig	träumen	anregung	gesittet	engstirnig	krise	gierig	töten	ausrottung	geizig	1	blank2r.bmp	0	1	+	0	1	blank2r.bmp	500	1	CPLW	500	1	blank2r.bmp	880	1	vertrauen	880	1	!	1233	1	!	1367	0	0	0	0	0	0
2024-05-15	10:56:07	11:04:16	488702	6.6.1	4_exp_EVA_AWA_CON	33	A	B	Rpleas_acq	Same	Rpleas	1pleas	acq_US_pleas_nomask	acq45_nomask	5	19	400	0	300	300	0	0	473	46	0	0	vertrauen	kreativ	sonnig	genießen	besonnen	vergnügt	versagen	krank	sterben	gemein	bange	verbissen	engagiert	kuss	gütig	träumen	anregung	gesittet	engstirnig	krise	gierig	töten	ausrottung	geizig	1	blank2r.bmp	0	1	+	0	1	blank2r.bmp	500	1	CPLW	500	1	blank2r.bmp	880	5	besonnen	880	1	!	1232	1	!	-1	0	0	0	0	0	0
2024-05-15	10:56:07	11:04:19	490880	6.6.1	4_exp_EVA_AWA_CON	33	A	B	Rpleas_acq	Same	Rpleas	1pleas	acq_US_unple_nomask	acq45_nomask	5	20	400	1	300	300	0	0	396	46	1	0	vertrauen	kreativ	sonnig	genießen	besonnen	vergnügt	versagen	krank	sterben	gemein	bange	verbissen	engagiert	kuss	gütig	träumen	anregung	gesittet	engstirnig	krise	gierig	töten	ausrottung	geizig	1	blank2r.bmp	0	1	+	0	1	blank2r.bmp	500	1	DHJF	500	1	blank2r.bmp	880	5	bange	880	1	!	1232	1	!	1298	0	0	0	0	0	0
2024-05-15	10:56:07	11:04:21	493112	6.6.1	4_exp_EVA_AWA_CON	33	A	B	Rpleas_acq	Same	Rpleas	1pleas	acq_US_unple_nomask	acq45_nomask	5	21	400	1	300	300	0	0	457	46	1	0	vertrauen	kreativ	sonnig	genießen	besonnen	vergnügt	versagen	krank	sterben	gemein	bange	verbissen	engagiert	kuss	gütig	träumen	anregung	gesittet	engstirnig	krise	gierig	töten	ausrottung	geizig	1	blank2r.bmp	0	1	+	0	1	blank2r.bmp	500	1	DHJF	500	1	blank2r.bmp	880	3	sterben	880	1	!	1232	1	!	1358	0	0	0	0	0	0
2024-05-15	10:56:07	11:04:23	495248	6.6.1	4_exp_EVA_AWA_CON	33	A	B	Rpleas_acq	Same	Rpleas	1pleas	acq_US_pleas_nomask	acq45_nomask	5	22	400	1	300	300	0	0	362	50	1	0	vertrauen	kreativ	sonnig	genießen	besonnen	vergnügt	versagen	krank	sterben	gemein	bange	verbissen	engagiert	kuss	gütig	träumen	anregung	gesittet	engstirnig	krise	gierig	töten	ausrottung	geizig	1	blank2r.bmp	0	1	+	0	1	blank2r.bmp	500	1	CPLW	500	1	blank2r.bmp	880	6	vergnügt	880	1	!	1233	1	!	1263	0	0	0	0	0	0
2024-05-15	10:56:07	11:04:25	497550	6.6.1	4_exp_EVA_AWA_CON	33	A	B	Rpleas_acq	Same	Rpleas	1pleas	acq_US_pleas_nomask	acq45_nomask	5	23	400	0	300	300	0	0	524	50	1	0	vertrauen	kreativ	sonnig	genießen	besonnen	vergnügt	versagen	krank	sterben	gemein	bange	verbissen	engagiert	kuss	gütig	träumen	anregung	gesittet	engstirnig	krise	gierig	töten	ausrottung	geizig	1	blank2r.bmp	0	1	+	0	1	blank2r.bmp	500	1	CPLW	500	1	blank2r.bmp	880	2	kreativ	880	1	!	1233	1	!	-1	0	0	0	0	0	0
2024-05-15	10:56:07	11:04:28	499886	6.6.1	4_exp_EVA_AWA_CON	33	A	B	Rpleas_acq	Same	Rpleas	1pleas	acq_US_unple_nomask	acq45_nomask	5	24	400	0	300	300	0	0	559	46	1	0	vertrauen	kreativ	sonnig	genießen	besonnen	vergnügt	versagen	krank	sterben	gemein	bange	verbissen	engagiert	kuss	gütig	träumen	anregung	gesittet	engstirnig	krise	gierig	töten	ausrottung	geizig	1	blank2r.bmp	0	1	+	0	1	blank2r.bmp	500	1	DHJF	500	1	blank2r.bmp	880	1	versagen	880	1	!	1232	1	!	-1	0	0	0	0	0	0
2024-05-15	10:56:07	11:04:30	501993	6.6.1	4_exp_EVA_AWA_CON	33	A	B	Rpleas_acq	Same	Rpleas	1pleas	acq_US_unple_nomask	acq45_nomask	5	25	400	1	300	300	0	0	333	46	1	0	vertrauen	kreativ	sonnig	genießen	besonnen	vergnügt	versagen	krank	sterben	gemein	bange	verbissen	engagiert	kuss	gütig	träumen	anregung	gesittet	engstirnig	krise	gierig	töten	ausrottung	geizig	1	blank2r.bmp	0	1	+	0	1	blank2r.bmp	500	1	DHJF	500	1	blank2r.bmp	880	4	gemein	880	1	!	1232	1	!	1233	0	0	0	0	0	0
2024-05-15	10:56:07	11:04:32	504193	6.6.1	4_exp_EVA_AWA_CON	33	A	B	Rpleas_acq	Same	Rpleas	1pleas	acq_US_pleas_nomask	acq45_nomask	5	26	400	1	300	300	0	0	420	50	1	0	vertrauen	kreativ	sonnig	genießen	besonnen	vergnügt	versagen	krank	sterben	gemein	bange	verbissen	engagiert	kuss	gütig	träumen	anregung	gesittet	engstirnig	krise	gierig	töten	ausrottung	geizig	1	blank2r.bmp	0	1	+	0	1	blank2r.bmp	500	1	CPLW	500	1	blank2r.bmp	880	6	vergnügt	880	1	!	1232	1	!	1322	0	0	0	0	0	0
2024-05-15	10:56:07	11:04:34	506303	6.6.1	4_exp_EVA_AWA_CON	33	A	B	Rpleas_acq	Same	Rpleas	1pleas	acq_US_pleas_nomask	acq45_nomask	5	27	400	0	300	300	0	0	330	46	0	0	vertrauen	kreativ	sonnig	genießen	besonnen	vergnügt	versagen	krank	sterben	gemein	bange	verbissen	engagiert	kuss	gütig	träumen	anregung	gesittet	engstirnig	krise	gierig	töten	ausrottung	geizig	1	blank2r.bmp	0	1	+	0	1	blank2r.bmp	500	1	CPLW	500	1	blank2r.bmp	880	2	kreativ	880	1	!	-1	1	!	-1	0	0	0	0	0	0
2024-05-15	10:56:07	11:04:36	508520	6.6.1	4_exp_EVA_AWA_CON	33	A	B	Rpleas_acq	Same	Rpleas	1pleas	acq_US_unple_nomask	acq45_nomask	5	28	400	1	300	300	0	0	435	46	1	0	vertrauen	kreativ	sonnig	genießen	besonnen	vergnügt	versagen	krank	sterben	gemein	bange	verbissen	engagiert	kuss	gütig	träumen	anregung	gesittet	engstirnig	krise	gierig	töten	ausrottung	geizig	1	blank2r.bmp	0	1	+	0	1	blank2r.bmp	500	1	DHJF	500	1	blank2r.bmp	880	2	krank	880	1	!	1233	1	!	1336	0	0	0	0	0	0
2024-05-15	10:56:07	11:04:38	510697	6.6.1	4_exp_EVA_AWA_CON	33	A	B	Rpleas_acq	Same	Rpleas	1pleas	acq_US_unple_nomask	acq45_nomask	5	29	400	1	300	300	0	0	400	46	1	0	vertrauen	kreativ	sonnig	genießen	besonnen	vergnügt	versagen	krank	sterben	gemein	bange	verbissen	engagiert	kuss	gütig	träumen	anregung	gesittet	engstirnig	krise	gierig	töten	ausrottung	geizig	1	blank2r.bmp	0	1	+	0	1	blank2r.bmp	500	1	DHJF	500	1	blank2r.bmp	880	5	bange	880	1	!	1232	1	!	1302	0	0	0	0	0	0
2024-05-15	10:56:07	11:04:41	512912	6.6.1	4_exp_EVA_AWA_CON	33	A	B	Rpleas_acq	Same	Rpleas	1pleas	acq_US_pleas_nomask	acq45_nomask	5	30	400	1	300	300	0	0	434	50	1	0	vertrauen	kreativ	sonnig	genießen	besonnen	vergnügt	versagen	krank	sterben	gemein	bange	verbissen	engagiert	kuss	gütig	träumen	anregung	gesittet	engstirnig	krise	gierig	töten	ausrottung	geizig	1	blank2r.bmp	0	1	+	0	1	blank2r.bmp	500	1	CPLW	500	1	blank2r.bmp	880	5	besonnen	880	1	!	1233	1	!	1335	0	0	0	0	0	0
2024-05-15	10:56:07	11:04:43	515136	6.6.1	4_exp_EVA_AWA_CON	33	A	B	Rpleas_acq	Same	Rpleas	1pleas	acq_US_unple_nomask	acq45_nomask	5	31	400	1	300	300	0	0	447	46	1	0	vertrauen	kreativ	sonnig	genießen	besonnen	vergnügt	versagen	krank	sterben	gemein	bange	verbissen	engagiert	kuss	gütig	träumen	anregung	gesittet	engstirnig	krise	gierig	töten	ausrottung	geizig	1	blank2r.bmp	0	1	+	0	1	blank2r.bmp	500	1	DHJF	500	1	blank2r.bmp	880	6	verbissen	880	1	!	1233	1	!	1348	0	0	0	0	0	0
2024-05-15	10:56:07	11:04:45	517280	6.6.1	4_exp_EVA_AWA_CON	33	A	B	Rpleas_acq	Same	Rpleas	1pleas	acq_US_unple_nomask	acq45_nomask	5	32	400	1	300	300	0	0	370	46	1	0	vertrauen	kreativ	sonnig	genießen	besonnen	vergnügt	versagen	krank	sterben	gemein	bange	verbissen	engagiert	kuss	gütig	träumen	anregung	gesittet	engstirnig	krise	gierig	töten	ausrottung	geizig	1	blank2r.bmp	0	1	+	0	1	blank2r.bmp	500	1	DHJF	500	1	blank2r.bmp	880	3	sterben	880	1	!	1233	1	!	1271	0	0	0	0	0	0
2024-05-15	10:56:07	11:04:47	519433	6.6.1	4_exp_EVA_AWA_CON	33	A	B	Rpleas_acq	Same	Rpleas	1pleas	acq_US_pleas_nomask	acq45_nomask	5	33	400	1	300	300	0	0	370	50	1	0	vertrauen	kreativ	sonnig	genießen	besonnen	vergnügt	versagen	krank	sterben	gemein	bange	verbissen	engagiert	kuss	gütig	träumen	anregung	gesittet	engstirnig	krise	gierig	töten	ausrottung	geizig	1	blank2r.bmp	0	1	+	0	1	blank2r.bmp	500	1	CPLW	500	1	blank2r.bmp	880	1	vertrauen	880	1	!	1232	1	!	1272	0	0	0	0	0	0
2024-05-15	10:56:07	11:04:49	521726	6.6.1	4_exp_EVA_AWA_CON	33	A	B	Rpleas_acq	Same	Rpleas	1pleas	acq_US_pleas_nomask	acq45_nomask	5	34	400	0	300	300	0	0	515	50	1	0	vertrauen	kreativ	sonnig	genießen	besonnen	vergnügt	versagen	krank	sterben	gemein	bange	verbissen	engagiert	kuss	gütig	träumen	anregung	gesittet	engstirnig	krise	gierig	töten	ausrottung	geizig	1	blank2r.bmp	0	1	+	0	1	blank2r.bmp	500	1	CPLW	500	1	blank2r.bmp	880	3	sonnig	880	1	!	1232	1	!	-1	0	0	0	0	0	0
2024-05-15	10:56:07	11:04:52	523981	6.6.1	4_exp_EVA_AWA_CON	33	A	B	Rpleas_acq	Same	Rpleas	1pleas	acq_US_unple_nomask	acq45_nomask	5	35	400	0	300	300	0	0	479	46	1	0	vertrauen	kreativ	sonnig	genießen	besonnen	vergnügt	versagen	krank	sterben	gemein	bange	verbissen	engagiert	kuss	gütig	träumen	anregung	gesittet	engstirnig	krise	gierig	töten	ausrottung	geizig	1	blank2r.bmp	0	1	+	0	1	blank2r.bmp	500	1	DHJF	500	1	blank2r.bmp	880	1	versagen	880	1	!	1232	1	!	-1	0	0	0	0	0	0
2024-05-15	10:56:07	11:04:54	526224	6.6.1	4_exp_EVA_AWA_CON	33	A	B	Rpleas_acq	Same	Rpleas	1pleas	acq_US_pleas_nomask	acq45_nomask	5	36	400	1	300	300	0	0	468	46	0	0	vertrauen	kreativ	sonnig	genießen	besonnen	vergnügt	versagen	krank	sterben	gemein	bange	verbissen	engagiert	kuss	gütig	träumen	anregung	gesittet	engstirnig	krise	gierig	töten	ausrottung	geizig	1	blank2r.bmp	0	1	+	0	1	blank2r.bmp	500	1	CPLW	500	1	blank2r.bmp	880	4	genießen	880	1	!	1232	1	!	1369	0	0	0	0	0	0
2024-05-15	10:56:07	11:05:30	562778	6.6.1	4_exp_EVA_AWA_CON	33	A	B	Rpleas_acq	Same	Rpleas	1pleas	EvalRating_firsttwo	EvalRating_firsttwo	6	1	0	0	300	300	0	0	12949	line	0	-21,7447916666666571928pct	vertrauen	kreativ	sonnig	genießen	besonnen	vergnügt	versagen	krank	sterben	gemein	bange	verbissen	engagiert	kuss	gütig	träumen	anregung	gesittet	engstirnig	krise	gierig	töten	ausrottung	geizig	1		-8	1	Wie angenehm oder unangenehm finden Sie die  Buchstabenkette WDLH?	-8	1		-8	1		-8	1		-8	1	Unangenehm	-8	1	Angenehm	-8	0	0	0	0	0	0	0	0	0
2024-05-15	10:56:07	11:05:38	570370	6.6.1	4_exp_EVA_AWA_CON	33	A	B	Rpleas_acq	Same	Rpleas	1pleas	EvalRating_lastfour	EvalRating_lastfour	7	1	0	0	300	300	0	0	5211	line	0	-19,4010416666666571928pct	vertrauen	kreativ	sonnig	genießen	besonnen	vergnügt	versagen	krank	sterben	gemein	bange	verbissen	engagiert	kuss	gütig	träumen	anregung	gesittet	engstirnig	krise	gierig	töten	ausrottung	geizig	1		-7	2	Wie angenehm oder unangenehm finden Sie die  Buchstabenkette DHJF?	-7	1		-7	1		-7	1		-7	1	Unangenehm	-7	1	Angenehm	-7	0	0	0	0	0	0	0	0	0
2024-05-15	10:56:07	11:05:40	572737	6.6.1	4_exp_EVA_AWA_CON	33	A	B	Rpleas_acq	Same	Rpleas	1pleas	blank_screen	EvalRating_lastfour	7	3	0	0	300	300	0	0	0	0	0	-19,4010416666666571928pct	vertrauen	kreativ	sonnig	genießen	besonnen	vergnügt	versagen	krank	sterben	gemein	bange	verbissen	engagiert	kuss	gütig	träumen	anregung	gesittet	engstirnig	krise	gierig	töten	ausrottung	geizig	1		-8	0	0	0	0	0	0	0	0	0	0	0	0	0	0	0	0	0	0	0	0	0	0	0	0	0	0	0
2024-05-15	10:56:07	11:05:46	578123	6.6.1	4_exp_EVA_AWA_CON	33	A	B	Rpleas_acq	Same	Rpleas	1pleas	EvalRating_lastfour	EvalRating_lastfour	7	4	0	0	300	300	0	0	4799	line	0	43,4895833333333428072pct	vertrauen	kreativ	sonnig	genießen	besonnen	vergnügt	versagen	krank	sterben	gemein	bange	verbissen	engagiert	kuss	gütig	träumen	anregung	gesittet	engstirnig	krise	gierig	töten	ausrottung	geizig	1		-8	3	Wie angenehm oder unangenehm finden Sie die  Buchstabenkette FCJP?	-8	1		-8	1		-8	1		-8	1	Unangenehm	-8	1	Angenehm	-8	0	0	0	0	0	0	0	0	0
2024-05-15	10:56:07	11:05:48	580492	6.6.1	4_exp_EVA_AWA_CON	33	A	B	Rpleas_acq	Same	Rpleas	1pleas	blank_screen	EvalRating_lastfour	7	6	0	0	300	300	0	0	0	0	0	43,4895833333333428072pct	vertrauen	kreativ	sonnig	genießen	besonnen	vergnügt	versagen	krank	sterben	gemein	bange	verbissen	engagiert	kuss	gütig	träumen	anregung	gesittet	engstirnig	krise	gierig	töten	ausrottung	geizig	1		-8	0	0	0	0	0	0	0	0	0	0	0	0	0	0	0	0	0	0	0	0	0	0	0	0	0	0	0
2024-05-15	10:56:07	11:05:51	583619	6.6.1	4_exp_EVA_AWA_CON	33	A	B	Rpleas_acq	Same	Rpleas	1pleas	EvalRating_lastfour	EvalRating_lastfour	7	7	0	0	300	300	0	0	2539	line	0	48,9583333333333428072pct	vertrauen	kreativ	sonnig	genießen	besonnen	vergnügt	versagen	krank	sterben	gemein	bange	verbissen	engagiert	kuss	gütig	träumen	anregung	gesittet	engstirnig	krise	gierig	töten	ausrottung	geizig	1		-7	1	Wie angenehm oder unangenehm finden Sie die  Buchstabenkette CPLW?	-7	1		-7	1		-7	1		-7	1	Unangenehm	-7	1	Angenehm	-7	0	0	0	0	0	0	0	0	0
2024-05-15	10:56:07	11:07:24	676152	6.6.1	4_exp_EVA_AWA_CON	33	A	B	Rpleas_acq	Same	Rpleas	1pleas	conawa_CS2_US3	conawa1_nomask	8	1	0	0	300	300	0	0	52733	töten	1	48,9583333333333428072pct	vertrauen	kreativ	sonnig	genießen	besonnen	vergnügt	versagen	krank	sterben	gemein	bange	verbissen	engagiert	kuss	gütig	träumen	anregung	gesittet	engstirnig	krise	gierig	töten	ausrottung	geizig	0	0	0	0	0	0	0	0	0	0	0	0	0	0	0	0	0	0	0	0	0	0	0	0	0	0	0	0	0	0
2024-05-15	10:56:07	11:07:24	676153	6.6.1	4_exp_EVA_AWA_CON	33	A	B	Rpleas_acq	Same	Rpleas	1pleas	conawa_CS2_US3_confidence	conawa1_nomask	8	1	0	0	300	300	0	0	52733	probably	1	48,9583333333333428072pct	vertrauen	kreativ	sonnig	genießen	besonnen	vergnügt	versagen	krank	sterben	gemein	bange	verbissen	engagiert	kuss	gütig	träumen	anregung	gesittet	engstirnig	krise	gierig	töten	ausrottung	geizig	0	0	0	0	0	0	0	0	0	0	0	0	0	0	0	0	0	0	0	0	0	0	0	0	0	0	0	0	0	0
2024-05-15	10:56:07	11:07:47	699767	6.6.1	4_exp_EVA_AWA_CON	33	A	B	Rpleas_acq	Same	Rpleas	1pleas	conawa_CS1_US2	conawa1_nomask	8	2	0	0	300	300	0	0	22994	krank	1	48,9583333333333428072pct	vertrauen	kreativ	sonnig	genießen	besonnen	vergnügt	versagen	krank	sterben	gemein	bange	verbissen	engagiert	kuss	gütig	träumen	anregung	gesittet	engstirnig	krise	gierig	töten	ausrottung	geizig	0	0	0	0	0	0	0	0	0	0	0	0	0	0	0	0	0	0	0	0	0	0	0	0	0	0	0	0	0	0
2024-05-15	10:56:07	11:07:47	699768	6.6.1	4_exp_EVA_AWA_CON	33	A	B	Rpleas_acq	Same	Rpleas	1pleas	conawa_CS1_US2_confidence	conawa1_nomask	8	2	0	0	300	300	0	0	22994	guess	1	48,9583333333333428072pct	vertrauen	kreativ	sonnig	genießen	besonnen	vergnügt	versagen	krank	sterben	gemein	bange	verbissen	engagiert	kuss	gütig	träumen	anregung	gesittet	engstirnig	krise	gierig	töten	ausrottung	geizig	0	0	0	0	0	0	0	0	0	0	0	0	0	0	0	0	0	0	0	0	0	0	0	0	0	0	0	0	0	0
2024-05-15	10:56:07	11:08:11	723733	6.6.1	4_exp_EVA_AWA_CON	33	A	B	Rpleas_acq	Same	Rpleas	1pleas	conawa_CS2_US4	conawa1_nomask	8	3	0	0	300	300	0	0	23349	ausrottung	1	48,9583333333333428072pct	vertrauen	kreativ	sonnig	genießen	besonnen	vergnügt	versagen	krank	sterben	gemein	bange	verbissen	engagiert	kuss	gütig	träumen	anregung	gesittet	engstirnig	krise	gierig	töten	ausrottung	geizig	0	0	0	0	0	0	0	0	0	0	0	0	0	0	0	0	0	0	0	0	0	0	0	0	0	0	0	0	0	0
2024-05-15	10:56:07	11:08:11	723734	6.6.1	4_exp_EVA_AWA_CON	33	A	B	Rpleas_acq	Same	Rpleas	1pleas	conawa_CS2_US4_confidence	conawa1_nomask	8	3	0	0	300	300	0	0	23349	sure	1	48,9583333333333428072pct	vertrauen	kreativ	sonnig	genießen	besonnen	vergnügt	versagen	krank	sterben	gemein	bange	verbissen	engagiert	kuss	gütig	träumen	anregung	gesittet	engstirnig	krise	gierig	töten	ausrottung	geizig	0	0	0	0	0	0	0	0	0	0	0	0	0	0	0	0	0	0	0	0	0	0	0	0	0	0	0	0	0	0
2024-05-15	10:56:07	11:08:25	737462	6.6.1	4_exp_EVA_AWA_CON	33	A	B	Rpleas_acq	Same	Rpleas	1pleas	conawa_CS2_US1	conawa1_nomask	8	4	0	0	300	300	0	0	13112	krise	1	48,9583333333333428072pct	vertrauen	kreativ	sonnig	genießen	besonnen	vergnügt	versagen	krank	sterben	gemein	bange	verbissen	engagiert	kuss	gütig	träumen	anregung	gesittet	engstirnig	krise	gierig	töten	ausrottung	geizig	0	0	0	0	0	0	0	0	0	0	0	0	0	0	0	0	0	0	0	0	0	0	0	0	0	0	0	0	0	0
2024-05-15	10:56:07	11:08:25	737462	6.6.1	4_exp_EVA_AWA_CON	33	A	B	Rpleas_acq	Same	Rpleas	1pleas	conawa_CS2_US1_confidence	conawa1_nomask	8	4	0	0	300	300	0	0	13112	probably	1	48,9583333333333428072pct	vertrauen	kreativ	sonnig	genießen	besonnen	vergnügt	versagen	krank	sterben	gemein	bange	verbissen	engagiert	kuss	gütig	träumen	anregung	gesittet	engstirnig	krise	gierig	töten	ausrottung	geizig	0	0	0	0	0	0	0	0	0	0	0	0	0	0	0	0	0	0	0	0	0	0	0	0	0	0	0	0	0	0
2024-05-15	10:56:07	11:08:41	753592	6.6.1	4_exp_EVA_AWA_CON	33	A	B	Rpleas_acq	Same	Rpleas	1pleas	conawa_CS1_US3	conawa1_nomask	8	5	0	0	300	300	0	0	15517	sonnig	1	48,9583333333333428072pct	vertrauen	kreativ	sonnig	genießen	besonnen	vergnügt	versagen	krank	sterben	gemein	bange	verbissen	engagiert	kuss	gütig	träumen	anregung	gesittet	engstirnig	krise	gierig	töten	ausrottung	geizig	0	0	0	0	0	0	0	0	0	0	0	0	0	0	0	0	0	0	0	0	0	0	0	0	0	0	0	0	0	0
2024-05-15	10:56:07	11:08:41	753593	6.6.1	4_exp_EVA_AWA_CON	33	A	B	Rpleas_acq	Same	Rpleas	1pleas	conawa_CS1_US3_confidence	conawa1_nomask	8	5	0	0	300	300	0	0	15517	probably	1	48,9583333333333428072pct	vertrauen	kreativ	sonnig	genießen	besonnen	vergnügt	versagen	krank	sterben	gemein	bange	verbissen	engagiert	kuss	gütig	träumen	anregung	gesittet	engstirnig	krise	gierig	töten	ausrottung	geizig	0	0	0	0	0	0	0	0	0	0	0	0	0	0	0	0	0	0	0	0	0	0	0	0	0	0	0	0	0	0
2024-05-15	10:56:07	11:08:56	768111	6.6.1	4_exp_EVA_AWA_CON	33	A	B	Rpleas_acq	Same	Rpleas	1pleas	conawa_CS1_US5	conawa1_nomask	8	6	0	0	300	300	0	0	13900	anregung	1	48,9583333333333428072pct	vertrauen	kreativ	sonnig	genießen	besonnen	vergnügt	versagen	krank	sterben	gemein	bange	verbissen	engagiert	kuss	gütig	träumen	anregung	gesittet	engstirnig	krise	gierig	töten	ausrottung	geizig	0	0	0	0	0	0	0	0	0	0	0	0	0	0	0	0	0	0	0	0	0	0	0	0	0	0	0	0	0	0
2024-05-15	10:56:07	11:08:56	768112	6.6.1	4_exp_EVA_AWA_CON	33	A	B	Rpleas_acq	Same	Rpleas	1pleas	conawa_CS1_US5_confidence	conawa1_nomask	8	6	0	0	300	300	0	0	13900	guess	1	48,9583333333333428072pct	vertrauen	kreativ	sonnig	genießen	besonnen	vergnügt	versagen	krank	sterben	gemein	bange	verbissen	engagiert	kuss	gütig	träumen	anregung	gesittet	engstirnig	krise	gierig	töten	ausrottung	geizig	0	0	0	0	0	0	0	0	0	0	0	0	0	0	0	0	0	0	0	0	0	0	0	0	0	0	0	0	0	0
2024-05-15	10:56:07	11:09:06	778608	6.6.1	4_exp_EVA_AWA_CON	33	A	B	Rpleas_acq	Same	Rpleas	1pleas	conawa_CS1_US1	conawa1_nomask	8	7	0	0	300	300	0	0	9880	vertrauen	1	48,9583333333333428072pct	vertrauen	kreativ	sonnig	genießen	besonnen	vergnügt	versagen	krank	sterben	gemein	bange	verbissen	engagiert	kuss	gütig	träumen	anregung	gesittet	engstirnig	krise	gierig	töten	ausrottung	geizig	0	0	0	0	0	0	0	0	0	0	0	0	0	0	0	0	0	0	0	0	0	0	0	0	0	0	0	0	0	0
2024-05-15	10:56:07	11:09:06	778609	6.6.1	4_exp_EVA_AWA_CON	33	A	B	Rpleas_acq	Same	Rpleas	1pleas	conawa_CS1_US1_confidence	conawa1_nomask	8	7	0	0	300	300	0	0	9880	guess	1	48,9583333333333428072pct	vertrauen	kreativ	sonnig	genießen	besonnen	vergnügt	versagen	krank	sterben	gemein	bange	verbissen	engagiert	kuss	gütig	träumen	anregung	gesittet	engstirnig	krise	gierig	töten	ausrottung	geizig	0	0	0	0	0	0	0	0	0	0	0	0	0	0	0	0	0	0	0	0	0	0	0	0	0	0	0	0	0	0
2024-05-15	10:56:07	11:09:22	794619	6.6.1	4_exp_EVA_AWA_CON	33	A	B	Rpleas_acq	Same	Rpleas	1pleas	conawa_CS1_US6	conawa1_nomask	8	8	0	0	300	300	0	0	15398	gesittet	1	48,9583333333333428072pct	vertrauen	kreativ	sonnig	genießen	besonnen	vergnügt	versagen	krank	sterben	gemein	bange	verbissen	engagiert	kuss	gütig	träumen	anregung	gesittet	engstirnig	krise	gierig	töten	ausrottung	geizig	0	0	0	0	0	0	0	0	0	0	0	0	0	0	0	0	0	0	0	0	0	0	0	0	0	0	0	0	0	0
2024-05-15	10:56:07	11:09:22	794620	6.6.1	4_exp_EVA_AWA_CON	33	A	B	Rpleas_acq	Same	Rpleas	1pleas	conawa_CS1_US6_confidence	conawa1_nomask	8	8	0	0	300	300	0	0	15398	probably	1	48,9583333333333428072pct	vertrauen	kreativ	sonnig	genießen	besonnen	vergnügt	versagen	krank	sterben	gemein	bange	verbissen	engagiert	kuss	gütig	träumen	anregung	gesittet	engstirnig	krise	gierig	töten	ausrottung	geizig	0	0	0	0	0	0	0	0	0	0	0	0	0	0	0	0	0	0	0	0	0	0	0	0	0	0	0	0	0	0
2024-05-15	10:56:07	11:09:30	802434	6.6.1	4_exp_EVA_AWA_CON	33	A	B	Rpleas_acq	Same	Rpleas	1pleas	conawa_CS2_US2	conawa1_nomask	8	9	0	0	300	300	0	0	7201	krank	1	48,9583333333333428072pct	vertrauen	kreativ	sonnig	genießen	besonnen	vergnügt	versagen	krank	sterben	gemein	bange	verbissen	engagiert	kuss	gütig	träumen	anregung	gesittet	engstirnig	krise	gierig	töten	ausrottung	geizig	0	0	0	0	0	0	0	0	0	0	0	0	0	0	0	0	0	0	0	0	0	0	0	0	0	0	0	0	0	0
2024-05-15	10:56:07	11:09:30	802435	6.6.1	4_exp_EVA_AWA_CON	33	A	B	Rpleas_acq	Same	Rpleas	1pleas	conawa_CS2_US2_confidence	conawa1_nomask	8	9	0	0	300	300	0	0	7201	sure	1	48,9583333333333428072pct	vertrauen	kreativ	sonnig	genießen	besonnen	vergnügt	versagen	krank	sterben	gemein	bange	verbissen	engagiert	kuss	gütig	träumen	anregung	gesittet	engstirnig	krise	gierig	töten	ausrottung	geizig	0	0	0	0	0	0	0	0	0	0	0	0	0	0	0	0	0	0	0	0	0	0	0	0	0	0	0	0	0	0
2024-05-15	10:56:07	11:09:38	810139	6.6.1	4_exp_EVA_AWA_CON	33	A	B	Rpleas_acq	Same	Rpleas	1pleas	conawa_CS2_US5	conawa1_nomask	8	10	0	0	300	300	0	0	7093	bange	1	48,9583333333333428072pct	vertrauen	kreativ	sonnig	genießen	besonnen	vergnügt	versagen	krank	sterben	gemein	bange	verbissen	engagiert	kuss	gütig	träumen	anregung	gesittet	engstirnig	krise	gierig	töten	ausrottung	geizig	0	0	0	0	0	0	0	0	0	0	0	0	0	0	0	0	0	0	0	0	0	0	0	0	0	0	0	0	0	0
2024-05-15	10:56:07	11:09:38	810140	6.6.1	4_exp_EVA_AWA_CON	33	A	B	Rpleas_acq	Same	Rpleas	1pleas	conawa_CS2_US5_confidence	conawa1_nomask	8	10	0	0	300	300	0	0	7093	probably	1	48,9583333333333428072pct	vertrauen	kreativ	sonnig	genießen	besonnen	vergnügt	versagen	krank	sterben	gemein	bange	verbissen	engagiert	kuss	gütig	träumen	anregung	gesittet	engstirnig	krise	gierig	töten	ausrottung	geizig	0	0	0	0	0	0	0	0	0	0	0	0	0	0	0	0	0	0	0	0	0	0	0	0	0	0	0	0	0	0
2024-05-15	10:56:07	11:09:48	819815	6.6.1	4_exp_EVA_AWA_CON	33	A	B	Rpleas_acq	Same	Rpleas	1pleas	conawa_CS2_US6	conawa1_nomask	8	11	0	0	300	300	0	0	9066	engstirnig	1	48,9583333333333428072pct	vertrauen	kreativ	sonnig	genießen	besonnen	vergnügt	versagen	krank	sterben	gemein	bange	verbissen	engagiert	kuss	gütig	träumen	anregung	gesittet	engstirnig	krise	gierig	töten	ausrottung	geizig	0	0	0	0	0	0	0	0	0	0	0	0	0	0	0	0	0	0	0	0	0	0	0	0	0	0	0	0	0	0
2024-05-15	10:56:07	11:09:48	819816	6.6.1	4_exp_EVA_AWA_CON	33	A	B	Rpleas_acq	Same	Rpleas	1pleas	conawa_CS2_US6_confidence	conawa1_nomask	8	11	0	0	300	300	0	0	9066	probably	1	48,9583333333333428072pct	vertrauen	kreativ	sonnig	genießen	besonnen	vergnügt	versagen	krank	sterben	gemein	bange	verbissen	engagiert	kuss	gütig	träumen	anregung	gesittet	engstirnig	krise	gierig	töten	ausrottung	geizig	0	0	0	0	0	0	0	0	0	0	0	0	0	0	0	0	0	0	0	0	0	0	0	0	0	0	0	0	0	0
2024-05-15	10:56:07	11:09:58	829901	6.6.1	4_exp_EVA_AWA_CON	33	A	B	Rpleas_acq	Same	Rpleas	1pleas	conawa_CS1_US4	conawa1_nomask	8	12	0	0	300	300	0	0	9470	träumen	1	48,9583333333333428072pct	vertrauen	kreativ	sonnig	genießen	besonnen	vergnügt	versagen	krank	sterben	gemein	bange	verbissen	engagiert	kuss	gütig	träumen	anregung	gesittet	engstirnig	krise	gierig	töten	ausrottung	geizig	0	0	0	0	0	0	0	0	0	0	0	0	0	0	0	0	0	0	0	0	0	0	0	0	0	0	0	0	0	0
2024-05-15	10:56:07	11:09:58	829902	6.6.1	4_exp_EVA_AWA_CON	33	A	B	Rpleas_acq	Same	Rpleas	1pleas	conawa_CS1_US4_confidence	conawa1_nomask	8	12	0	0	300	300	0	0	9470	sure	1	48,9583333333333428072pct	vertrauen	kreativ	sonnig	genießen	besonnen	vergnügt	versagen	krank	sterben	gemein	bange	verbissen	engagiert	kuss	gütig	träumen	anregung	gesittet	engstirnig	krise	gierig	töten	ausrottung	geizig	0	0	0	0	0	0	0	0	0	0	0	0	0	0	0	0	0	0	0	0	0	0	0	0	0	0	0	0	0	0
2024-05-15	10:56:07	11:11:41	933166	6.6.1	4_exp_EVA_AWA_CON	33	A	B	Rpleas_acq	Same	Rpleas	1pleas	cond_new_unple_456_nomask_CS1	condtest_nomask_1	11	1	400	0	300	300	0	0	537	46	1	48,9583333333333428072pct	vertrauen	kreativ	sonnig	genießen	besonnen	vergnügt	versagen	krank	sterben	gemein	bange	verbissen	engagiert	kuss	gütig	träumen	anregung	gesittet	engstirnig	krise	gierig	töten	ausrottung	geizig	1	blank2r.bmp	0	1	+	0	1	blank2r.bmp	500	1	CPLW	500	1	blank2r.bmp	880	3	geizig	880	1	!	1232	1	!	-1	0	0	0	0	0	0
