date	time	currenttime	elapsedtime	build	currentexpt	subject	CS_AB	US_AB	LRpleas_acq	SameOppo	condition_Lpleas	condition_1pleas	trialcode	blockcode	blocknum	trialnum	windowcenter	inwindow	pretrialpause	posttrialpause	trialduration	trialtimeout	latency	response	correct	correctedscore	US_nomask_pleas1	US_nomask_pleas2	US_nomask_pleas3	US_nomask_pleas4	US_nomask_pleas5	US_nomask_pleas6	US_nomask_unple1	US_nomask_unple2	US_nomask_unple3	US_nomask_unple4	US_nomask_unple5	US_nomask_unple6	new_nomask_pleas1	new_nomask_pleas2	new_nomask_pleas3	new_nomask_pleas4	new_nomask_pleas5	new_nomask_pleas6	new_nomask_unple1	new_nomask_unple2	new_nomask_unple3	new_nomask_unple4	new_nomask_unple5	new_nomask_unple6	stimulusnumber1	stimulusitem1	stimulusonset1	stimulusnumber2	stimulusitem2	stimulusonset2	stimulusnumber3	stimulusitem3	stimulusonset3	stimulusnumber4	stimulusitem4	stimulusonset4	stimulusnumber5	stimulusitem5	stimulusonset5	stimulusnumber6	stimulusitem6	stimulusonset6	stimulusnumber7	stimulusitem7	stimulusonset7	stimulusnumber8	stimulusitem8	stimulusonset8	stimulusnumber9	stimulusitem9	stimulusonset9	stimulusnumber10	stimulusitem10	stimulusonset10
2024-05-29	11:59:01	12:02:29	208014	6.6.1	4_exp_EVA_AWA_CON	60	B	A	Rpleas_acq	Oppo	Rpleas	2pleas	acq_new_pleas_nomask	acq1_nomask	1	1	0	0	300	300	0	0	1670	50	1	0	ehrlich	retten	treu	helfen	spielen	lachen	eitel	rächen	tot	hindern	strafen	leiden	tolerant	freundlich	schön	fair	schlau	loyal	tyrannisch	fanatisch	schlecht	faul	schroff	lasch	1	blank2r.bmp	0	1	+	0	1	blank2r.bmp	500	2	B2r.bmp	500	1	blank2r.bmp	880	6	loyal	880	0	0	0	0	0	0	0	0	0	0	0	0
2024-05-29	11:59:01	12:02:31	210213	6.6.1	4_exp_EVA_AWA_CON	60	B	A	Rpleas_acq	Oppo	Rpleas	2pleas	acq_US_pleas_nomask	acq1_nomask	1	2	0	0	300	300	0	0	718	50	1	0	ehrlich	retten	treu	helfen	spielen	lachen	eitel	rächen	tot	hindern	strafen	leiden	tolerant	freundlich	schön	fair	schlau	loyal	tyrannisch	fanatisch	schlecht	faul	schroff	lasch	1	blank2r.bmp	0	1	+	0	1	blank2r.bmp	500	1	GKQX	500	1	blank2r.bmp	880	2	retten	880	0	0	0	0	0	0	0	0	0	0	0	0
2024-05-29	11:59:01	12:02:34	212373	6.6.1	4_exp_EVA_AWA_CON	60	B	A	Rpleas_acq	Oppo	Rpleas	2pleas	acq_US_pleas_nomask	acq1_nomask	1	3	0	0	300	300	0	0	677	50	1	0	ehrlich	retten	treu	helfen	spielen	lachen	eitel	rächen	tot	hindern	strafen	leiden	tolerant	freundlich	schön	fair	schlau	loyal	tyrannisch	fanatisch	schlecht	faul	schroff	lasch	1	blank2r.bmp	0	1	+	0	1	blank2r.bmp	500	1	GKQX	500	1	blank2r.bmp	880	3	treu	880	0	0	0	0	0	0	0	0	0	0	0	0
2024-05-29	11:59:01	12:02:36	214445	6.6.1	4_exp_EVA_AWA_CON	60	B	A	Rpleas_acq	Oppo	Rpleas	2pleas	acq_new_unple_nomask	acq1_nomask	1	4	0	0	300	300	0	0	587	46	1	0	ehrlich	retten	treu	helfen	spielen	lachen	eitel	rächen	tot	hindern	strafen	leiden	tolerant	freundlich	schön	fair	schlau	loyal	tyrannisch	fanatisch	schlecht	faul	schroff	lasch	1	blank2r.bmp	0	1	+	0	1	blank2r.bmp	500	1	B1r.bmp	500	1	blank2r.bmp	880	1	tyrannisch	880	0	0	0	0	0	0	0	0	0	0	0	0
2024-05-29	11:59:01	12:02:38	216517	6.6.1	4_exp_EVA_AWA_CON	60	B	A	Rpleas_acq	Oppo	Rpleas	2pleas	acq_new_pleas_nomask	acq1_nomask	1	5	0	0	300	300	0	0	588	50	1	0	ehrlich	retten	treu	helfen	spielen	lachen	eitel	rächen	tot	hindern	strafen	leiden	tolerant	freundlich	schön	fair	schlau	loyal	tyrannisch	fanatisch	schlecht	faul	schroff	lasch	1	blank2r.bmp	0	1	+	0	1	blank2r.bmp	500	4	B4r.bmp	500	1	blank2r.bmp	880	3	schön	880	0	0	0	0	0	0	0	0	0	0	0	0
2024-05-29	11:59:01	12:02:40	218709	6.6.1	4_exp_EVA_AWA_CON	60	B	A	Rpleas_acq	Oppo	Rpleas	2pleas	acq_US_unple_nomask	acq1_nomask	1	6	0	0	300	300	0	0	709	46	1	0	ehrlich	retten	treu	helfen	spielen	lachen	eitel	rächen	tot	hindern	strafen	leiden	tolerant	freundlich	schön	fair	schlau	loyal	tyrannisch	fanatisch	schlecht	faul	schroff	lasch	1	blank2r.bmp	0	1	+	0	1	blank2r.bmp	500	1	BMVZ	500	1	blank2r.bmp	880	5	strafen	880	0	0	0	0	0	0	0	0	0	0	0	0
2024-05-29	11:59:01	12:02:42	220893	6.6.1	4_exp_EVA_AWA_CON	60	B	A	Rpleas_acq	Oppo	Rpleas	2pleas	acq_new_unple_nomask	acq1_nomask	1	7	0	0	300	300	0	0	701	46	1	0	ehrlich	retten	treu	helfen	spielen	lachen	eitel	rächen	tot	hindern	strafen	leiden	tolerant	freundlich	schön	fair	schlau	loyal	tyrannisch	fanatisch	schlecht	faul	schroff	lasch	1	blank2r.bmp	0	1	+	0	1	blank2r.bmp	500	3	B3r.bmp	500	1	blank2r.bmp	880	4	faul	880	0	0	0	0	0	0	0	0	0	0	0	0
2024-05-29	11:59:01	12:02:44	222997	6.6.1	4_exp_EVA_AWA_CON	60	B	A	Rpleas_acq	Oppo	Rpleas	2pleas	acq_new_unple_nomask	acq1_nomask	1	8	0	0	300	300	0	0	614	46	1	0	ehrlich	retten	treu	helfen	spielen	lachen	eitel	rächen	tot	hindern	strafen	leiden	tolerant	freundlich	schön	fair	schlau	loyal	tyrannisch	fanatisch	schlecht	faul	schroff	lasch	1	blank2r.bmp	0	1	+	0	1	blank2r.bmp	500	6	C2r.bmp	500	1	blank2r.bmp	880	3	schlecht	880	0	0	0	0	0	0	0	0	0	0	0	0
2024-05-29	11:59:01	12:02:47	225493	6.6.1	4_exp_EVA_AWA_CON	60	B	A	Rpleas_acq	Oppo	Rpleas	2pleas	acq_US_pleas_nomask	acq1_nomask	1	9	0	0	300	300	0	0	1008	50	1	0	ehrlich	retten	treu	helfen	spielen	lachen	eitel	rächen	tot	hindern	strafen	leiden	tolerant	freundlich	schön	fair	schlau	loyal	tyrannisch	fanatisch	schlecht	faul	schroff	lasch	1	blank2r.bmp	0	1	+	0	1	blank2r.bmp	500	1	GKQX	500	1	blank2r.bmp	880	5	spielen	880	0	0	0	0	0	0	0	0	0	0	0	0
2024-05-29	11:59:01	12:02:49	227645	6.6.1	4_exp_EVA_AWA_CON	60	B	A	Rpleas_acq	Oppo	Rpleas	2pleas	acq_US_unple_nomask	acq1_nomask	1	10	0	0	300	300	0	0	669	46	1	0	ehrlich	retten	treu	helfen	spielen	lachen	eitel	rächen	tot	hindern	strafen	leiden	tolerant	freundlich	schön	fair	schlau	loyal	tyrannisch	fanatisch	schlecht	faul	schroff	lasch	1	blank2r.bmp	0	1	+	0	1	blank2r.bmp	500	1	BMVZ	500	1	blank2r.bmp	880	1	eitel	880	0	0	0	0	0	0	0	0	0	0	0	0
2024-05-29	11:59:01	12:02:51	229869	6.6.1	4_exp_EVA_AWA_CON	60	B	A	Rpleas_acq	Oppo	Rpleas	2pleas	acq_new_pleas_nomask	acq1_nomask	1	11	0	0	300	300	0	0	741	50	1	0	ehrlich	retten	treu	helfen	spielen	lachen	eitel	rächen	tot	hindern	strafen	leiden	tolerant	freundlich	schön	fair	schlau	loyal	tyrannisch	fanatisch	schlecht	faul	schroff	lasch	1	blank2r.bmp	0	1	+	0	1	blank2r.bmp	500	8	C4r.bmp	500	1	blank2r.bmp	880	4	fair	880	0	0	0	0	0	0	0	0	0	0	0	0
2024-05-29	11:59:01	12:02:53	231909	6.6.1	4_exp_EVA_AWA_CON	60	B	A	Rpleas_acq	Oppo	Rpleas	2pleas	acq_US_unple_nomask	acq1_nomask	1	12	0	0	300	300	0	0	550	46	1	0	ehrlich	retten	treu	helfen	spielen	lachen	eitel	rächen	tot	hindern	strafen	leiden	tolerant	freundlich	schön	fair	schlau	loyal	tyrannisch	fanatisch	schlecht	faul	schroff	lasch	1	blank2r.bmp	0	1	+	0	1	blank2r.bmp	500	1	BMVZ	500	1	blank2r.bmp	880	2	rächen	880	0	0	0	0	0	0	0	0	0	0	0	0
2024-05-29	11:59:01	12:02:55	234157	6.6.1	4_exp_EVA_AWA_CON	60	B	A	Rpleas_acq	Oppo	Rpleas	2pleas	acq_US_unple_nomask	acq1_nomask	1	13	0	0	300	300	0	0	767	46	1	0	ehrlich	retten	treu	helfen	spielen	lachen	eitel	rächen	tot	hindern	strafen	leiden	tolerant	freundlich	schön	fair	schlau	loyal	tyrannisch	fanatisch	schlecht	faul	schroff	lasch	1	blank2r.bmp	0	1	+	0	1	blank2r.bmp	500	1	BMVZ	500	1	blank2r.bmp	880	6	leiden	880	0	0	0	0	0	0	0	0	0	0	0	0
2024-05-29	11:59:01	12:02:58	236389	6.6.1	4_exp_EVA_AWA_CON	60	B	A	Rpleas_acq	Oppo	Rpleas	2pleas	acq_US_pleas_nomask	acq1_nomask	1	14	0	0	300	300	0	0	747	50	1	0	ehrlich	retten	treu	helfen	spielen	lachen	eitel	rächen	tot	hindern	strafen	leiden	tolerant	freundlich	schön	fair	schlau	loyal	tyrannisch	fanatisch	schlecht	faul	schroff	lasch	1	blank2r.bmp	0	1	+	0	1	blank2r.bmp	500	1	GKQX	500	1	blank2r.bmp	880	4	helfen	880	0	0	0	0	0	0	0	0	0	0	0	0
2024-05-29	11:59:01	12:03:00	238589	6.6.1	4_exp_EVA_AWA_CON	60	B	A	Rpleas_acq	Oppo	Rpleas	2pleas	acq_US_pleas_nomask	acq1_nomask	1	15	0	0	300	300	0	0	716	50	1	0	ehrlich	retten	treu	helfen	spielen	lachen	eitel	rächen	tot	hindern	strafen	leiden	tolerant	freundlich	schön	fair	schlau	loyal	tyrannisch	fanatisch	schlecht	faul	schroff	lasch	1	blank2r.bmp	0	1	+	0	1	blank2r.bmp	500	1	GKQX	500	1	blank2r.bmp	880	6	lachen	880	0	0	0	0	0	0	0	0	0	0	0	0
2024-05-29	11:59:01	12:03:02	240701	6.6.1	4_exp_EVA_AWA_CON	60	B	A	Rpleas_acq	Oppo	Rpleas	2pleas	acq_US_unple_nomask	acq1_nomask	1	16	0	0	300	300	0	0	626	46	1	0	ehrlich	retten	treu	helfen	spielen	lachen	eitel	rächen	tot	hindern	strafen	leiden	tolerant	freundlich	schön	fair	schlau	loyal	tyrannisch	fanatisch	schlecht	faul	schroff	lasch	1	blank2r.bmp	0	1	+	0	1	blank2r.bmp	500	1	BMVZ	500	1	blank2r.bmp	880	3	tot	880	0	0	0	0	0	0	0	0	0	0	0	0
2024-05-29	11:59:01	12:03:05	243893	6.6.1	4_exp_EVA_AWA_CON	60	B	A	Rpleas_acq	Oppo	Rpleas	2pleas	acq_new_unple_nomask	acq1_nomask	1	17	0	0	300	300	0	0	1707	46	1	0	ehrlich	retten	treu	helfen	spielen	lachen	eitel	rächen	tot	hindern	strafen	leiden	tolerant	freundlich	schön	fair	schlau	loyal	tyrannisch	fanatisch	schlecht	faul	schroff	lasch	1	blank2r.bmp	0	1	+	0	1	blank2r.bmp	500	7	C3r.bmp	500	1	blank2r.bmp	880	5	schroff	880	0	0	0	0	0	0	0	0	0	0	0	0
2024-05-29	11:59:01	12:03:07	246117	6.6.1	4_exp_EVA_AWA_CON	60	B	A	Rpleas_acq	Oppo	Rpleas	2pleas	acq_US_unple_nomask	acq1_nomask	1	18	0	0	300	300	0	0	739	46	1	0	ehrlich	retten	treu	helfen	spielen	lachen	eitel	rächen	tot	hindern	strafen	leiden	tolerant	freundlich	schön	fair	schlau	loyal	tyrannisch	fanatisch	schlecht	faul	schroff	lasch	1	blank2r.bmp	0	1	+	0	1	blank2r.bmp	500	1	BMVZ	500	1	blank2r.bmp	880	4	hindern	880	0	0	0	0	0	0	0	0	0	0	0	0
2024-05-29	11:59:01	12:03:10	248373	6.6.1	4_exp_EVA_AWA_CON	60	B	A	Rpleas_acq	Oppo	Rpleas	2pleas	acq_new_pleas_nomask	acq1_nomask	1	19	0	0	300	300	0	0	774	50	1	0	ehrlich	retten	treu	helfen	spielen	lachen	eitel	rächen	tot	hindern	strafen	leiden	tolerant	freundlich	schön	fair	schlau	loyal	tyrannisch	fanatisch	schlecht	faul	schroff	lasch	1	blank2r.bmp	0	1	+	0	1	blank2r.bmp	500	5	C1r.bmp	500	1	blank2r.bmp	880	5	schlau	880	0	0	0	0	0	0	0	0	0	0	0	0
2024-05-29	11:59:01	12:03:12	251037	6.6.1	4_exp_EVA_AWA_CON	60	B	A	Rpleas_acq	Oppo	Rpleas	2pleas	acq_new_pleas_nomask	acq1_nomask	1	20	0	0	300	300	0	0	1176	50	1	0	ehrlich	retten	treu	helfen	spielen	lachen	eitel	rächen	tot	hindern	strafen	leiden	tolerant	freundlich	schön	fair	schlau	loyal	tyrannisch	fanatisch	schlecht	faul	schroff	lasch	1	blank2r.bmp	0	1	+	0	1	blank2r.bmp	500	1	B1r.bmp	500	1	blank2r.bmp	880	1	tolerant	880	0	0	0	0	0	0	0	0	0	0	0	0
2024-05-29	11:59:01	12:03:14	253181	6.6.1	4_exp_EVA_AWA_CON	60	B	A	Rpleas_acq	Oppo	Rpleas	2pleas	acq_new_pleas_nomask	acq1_nomask	1	21	0	0	300	300	0	0	658	50	1	0	ehrlich	retten	treu	helfen	spielen	lachen	eitel	rächen	tot	hindern	strafen	leiden	tolerant	freundlich	schön	fair	schlau	loyal	tyrannisch	fanatisch	schlecht	faul	schroff	lasch	1	blank2r.bmp	0	1	+	0	1	blank2r.bmp	500	3	B3r.bmp	500	1	blank2r.bmp	880	2	freundlich	880	0	0	0	0	0	0	0	0	0	0	0	0
2024-05-29	11:59:01	12:03:16	255285	6.6.1	4_exp_EVA_AWA_CON	60	B	A	Rpleas_acq	Oppo	Rpleas	2pleas	acq_new_unple_nomask	acq1_nomask	1	22	0	0	300	300	0	0	621	46	1	0	ehrlich	retten	treu	helfen	spielen	lachen	eitel	rächen	tot	hindern	strafen	leiden	tolerant	freundlich	schön	fair	schlau	loyal	tyrannisch	fanatisch	schlecht	faul	schroff	lasch	1	blank2r.bmp	0	1	+	0	1	blank2r.bmp	500	7	C3r.bmp	500	1	blank2r.bmp	880	6	lasch	880	0	0	0	0	0	0	0	0	0	0	0	0
2024-05-29	11:59:01	12:03:19	257757	6.6.1	4_exp_EVA_AWA_CON	60	B	A	Rpleas_acq	Oppo	Rpleas	2pleas	acq_new_unple_nomask	acq1_nomask	1	23	0	0	300	300	0	0	982	46	1	0	ehrlich	retten	treu	helfen	spielen	lachen	eitel	rächen	tot	hindern	strafen	leiden	tolerant	freundlich	schön	fair	schlau	loyal	tyrannisch	fanatisch	schlecht	faul	schroff	lasch	1	blank2r.bmp	0	1	+	0	1	blank2r.bmp	500	6	C2r.bmp	500	1	blank2r.bmp	880	2	fanatisch	880	0	0	0	0	0	0	0	0	0	0	0	0
2024-05-29	11:59:01	12:03:21	260013	6.6.1	4_exp_EVA_AWA_CON	60	B	A	Rpleas_acq	Oppo	Rpleas	2pleas	acq_US_pleas_nomask	acq1_nomask	1	24	0	0	300	300	0	0	766	50	1	0	ehrlich	retten	treu	helfen	spielen	lachen	eitel	rächen	tot	hindern	strafen	leiden	tolerant	freundlich	schön	fair	schlau	loyal	tyrannisch	fanatisch	schlecht	faul	schroff	lasch	1	blank2r.bmp	0	1	+	0	1	blank2r.bmp	500	1	GKQX	500	1	blank2r.bmp	880	1	ehrlich	880	0	0	0	0	0	0	0	0	0	0	0	0
2024-05-29	11:59:01	12:03:24	262645	6.6.1	4_exp_EVA_AWA_CON	60	B	A	Rpleas_acq	Oppo	Rpleas	2pleas	acq_US_unple_nomask	acq1_nomask	1	25	0	0	300	300	0	0	1147	46	1	0	ehrlich	retten	treu	helfen	spielen	lachen	eitel	rächen	tot	hindern	strafen	leiden	tolerant	freundlich	schön	fair	schlau	loyal	tyrannisch	fanatisch	schlecht	faul	schroff	lasch	1	blank2r.bmp	0	1	+	0	1	blank2r.bmp	500	1	BMVZ	500	1	blank2r.bmp	880	5	strafen	880	0	0	0	0	0	0	0	0	0	0	0	0
2024-05-29	11:59:01	12:03:26	264901	6.6.1	4_exp_EVA_AWA_CON	60	B	A	Rpleas_acq	Oppo	Rpleas	2pleas	acq_new_unple_nomask	acq1_nomask	1	26	0	0	300	300	0	0	771	46	1	0	ehrlich	retten	treu	helfen	spielen	lachen	eitel	rächen	tot	hindern	strafen	leiden	tolerant	freundlich	schön	fair	schlau	loyal	tyrannisch	fanatisch	schlecht	faul	schroff	lasch	1	blank2r.bmp	0	1	+	0	1	blank2r.bmp	500	4	B4r.bmp	500	1	blank2r.bmp	880	5	schroff	880	0	0	0	0	0	0	0	0	0	0	0	0
2024-05-29	11:59:01	12:03:28	267125	6.6.1	4_exp_EVA_AWA_CON	60	B	A	Rpleas_acq	Oppo	Rpleas	2pleas	acq_new_pleas_nomask	acq1_nomask	1	27	0	0	300	300	0	0	734	50	1	0	ehrlich	retten	treu	helfen	spielen	lachen	eitel	rächen	tot	hindern	strafen	leiden	tolerant	freundlich	schön	fair	schlau	loyal	tyrannisch	fanatisch	schlecht	faul	schroff	lasch	1	blank2r.bmp	0	1	+	0	1	blank2r.bmp	500	5	C1r.bmp	500	1	blank2r.bmp	880	1	tolerant	880	0	0	0	0	0	0	0	0	0	0	0	0
2024-05-29	11:59:01	12:03:31	269349	6.6.1	4_exp_EVA_AWA_CON	60	B	A	Rpleas_acq	Oppo	Rpleas	2pleas	acq_US_pleas_nomask	acq1_nomask	1	28	0	0	300	300	0	0	736	50	1	0	ehrlich	retten	treu	helfen	spielen	lachen	eitel	rächen	tot	hindern	strafen	leiden	tolerant	freundlich	schön	fair	schlau	loyal	tyrannisch	fanatisch	schlecht	faul	schroff	lasch	1	blank2r.bmp	0	1	+	0	1	blank2r.bmp	500	1	GKQX	500	1	blank2r.bmp	880	2	retten	880	0	0	0	0	0	0	0	0	0	0	0	0
2024-05-29	11:59:01	12:03:33	271429	6.6.1	4_exp_EVA_AWA_CON	60	B	A	Rpleas_acq	Oppo	Rpleas	2pleas	acq_US_unple_nomask	acq1_nomask	1	29	0	0	300	300	0	0	595	46	1	0	ehrlich	retten	treu	helfen	spielen	lachen	eitel	rächen	tot	hindern	strafen	leiden	tolerant	freundlich	schön	fair	schlau	loyal	tyrannisch	fanatisch	schlecht	faul	schroff	lasch	1	blank2r.bmp	0	1	+	0	1	blank2r.bmp	500	1	BMVZ	500	1	blank2r.bmp	880	6	leiden	880	0	0	0	0	0	0	0	0	0	0	0	0
2024-05-29	11:59:01	12:03:35	273965	6.6.1	4_exp_EVA_AWA_CON	60	B	A	Rpleas_acq	Oppo	Rpleas	2pleas	acq_new_pleas_nomask	acq1_nomask	1	30	0	0	300	300	0	0	1049	50	1	0	ehrlich	retten	treu	helfen	spielen	lachen	eitel	rächen	tot	hindern	strafen	leiden	tolerant	freundlich	schön	fair	schlau	loyal	tyrannisch	fanatisch	schlecht	faul	schroff	lasch	1	blank2r.bmp	0	1	+	0	1	blank2r.bmp	500	2	B2r.bmp	500	1	blank2r.bmp	880	4	fair	880	0	0	0	0	0	0	0	0	0	0	0	0
2024-05-29	11:59:01	12:03:37	276141	6.6.1	4_exp_EVA_AWA_CON	60	B	A	Rpleas_acq	Oppo	Rpleas	2pleas	acq_new_pleas_nomask	acq1_nomask	1	31	0	0	300	300	0	0	694	50	1	0	ehrlich	retten	treu	helfen	spielen	lachen	eitel	rächen	tot	hindern	strafen	leiden	tolerant	freundlich	schön	fair	schlau	loyal	tyrannisch	fanatisch	schlecht	faul	schroff	lasch	1	blank2r.bmp	0	1	+	0	1	blank2r.bmp	500	8	C4r.bmp	500	1	blank2r.bmp	880	3	schön	880	0	0	0	0	0	0	0	0	0	0	0	0
2024-05-29	11:59:01	12:03:39	278261	6.6.1	4_exp_EVA_AWA_CON	60	B	A	Rpleas_acq	Oppo	Rpleas	2pleas	acq_US_pleas_nomask	acq1_nomask	1	32	0	0	300	300	0	0	632	50	1	0	ehrlich	retten	treu	helfen	spielen	lachen	eitel	rächen	tot	hindern	strafen	leiden	tolerant	freundlich	schön	fair	schlau	loyal	tyrannisch	fanatisch	schlecht	faul	schroff	lasch	1	blank2r.bmp	0	1	+	0	1	blank2r.bmp	500	1	GKQX	500	1	blank2r.bmp	880	1	ehrlich	880	0	0	0	0	0	0	0	0	0	0	0	0
2024-05-29	11:59:01	12:03:42	280445	6.6.1	4_exp_EVA_AWA_CON	60	B	A	Rpleas_acq	Oppo	Rpleas	2pleas	acq_new_unple_nomask	acq1_nomask	1	33	0	0	300	300	0	0	695	46	1	0	ehrlich	retten	treu	helfen	spielen	lachen	eitel	rächen	tot	hindern	strafen	leiden	tolerant	freundlich	schön	fair	schlau	loyal	tyrannisch	fanatisch	schlecht	faul	schroff	lasch	1	blank2r.bmp	0	1	+	0	1	blank2r.bmp	500	1	B1r.bmp	500	1	blank2r.bmp	880	2	fanatisch	880	0	0	0	0	0	0	0	0	0	0	0	0
2024-05-29	11:59:01	12:03:44	282621	6.6.1	4_exp_EVA_AWA_CON	60	B	A	Rpleas_acq	Oppo	Rpleas	2pleas	acq_US_pleas_nomask	acq1_nomask	1	34	0	0	300	300	0	0	690	50	1	0	ehrlich	retten	treu	helfen	spielen	lachen	eitel	rächen	tot	hindern	strafen	leiden	tolerant	freundlich	schön	fair	schlau	loyal	tyrannisch	fanatisch	schlecht	faul	schroff	lasch	1	blank2r.bmp	0	1	+	0	1	blank2r.bmp	500	1	GKQX	500	1	blank2r.bmp	880	4	helfen	880	0	0	0	0	0	0	0	0	0	0	0	0
2024-05-29	11:59:01	12:03:46	285061	6.6.1	4_exp_EVA_AWA_CON	60	B	A	Rpleas_acq	Oppo	Rpleas	2pleas	acq_US_unple_nomask	acq1_nomask	1	35	0	0	300	300	0	0	958	46	1	0	ehrlich	retten	treu	helfen	spielen	lachen	eitel	rächen	tot	hindern	strafen	leiden	tolerant	freundlich	schön	fair	schlau	loyal	tyrannisch	fanatisch	schlecht	faul	schroff	lasch	1	blank2r.bmp	0	1	+	0	1	blank2r.bmp	500	1	BMVZ	500	1	blank2r.bmp	880	1	eitel	880	0	0	0	0	0	0	0	0	0	0	0	0
2024-05-29	11:59:01	12:03:48	287229	6.6.1	4_exp_EVA_AWA_CON	60	B	A	Rpleas_acq	Oppo	Rpleas	2pleas	acq_new_unple_nomask	acq1_nomask	1	36	0	0	300	300	0	0	685	46	1	0	ehrlich	retten	treu	helfen	spielen	lachen	eitel	rächen	tot	hindern	strafen	leiden	tolerant	freundlich	schön	fair	schlau	loyal	tyrannisch	fanatisch	schlecht	faul	schroff	lasch	1	blank2r.bmp	0	1	+	0	1	blank2r.bmp	500	6	C2r.bmp	500	1	blank2r.bmp	880	3	schlecht	880	0	0	0	0	0	0	0	0	0	0	0	0
2024-05-29	11:59:01	12:04:21	319375	6.6.1	4_exp_EVA_AWA_CON	60	B	A	Rpleas_acq	Oppo	Rpleas	2pleas	acq_new_pleas_nomask	acq2_nomask	2	1	480	0	300	300	0	0	1281	50	1	0	ehrlich	retten	treu	helfen	spielen	lachen	eitel	rächen	tot	hindern	strafen	leiden	tolerant	freundlich	schön	fair	schlau	loyal	tyrannisch	fanatisch	schlecht	faul	schroff	lasch	1	blank2r.bmp	0	1	+	0	1	blank2r.bmp	500	8	C4r.bmp	500	1	blank2r.bmp	880	2	freundlich	880	1	!	1313	1	!	-1	0	0	0	0	0	0
2024-05-29	11:59:01	12:04:23	321799	6.6.1	4_exp_EVA_AWA_CON	60	B	A	Rpleas_acq	Oppo	Rpleas	2pleas	acq_new_pleas_nomask	acq2_nomask	2	2	480	0	300	300	0	0	643	50	1	0	ehrlich	retten	treu	helfen	spielen	lachen	eitel	rächen	tot	hindern	strafen	leiden	tolerant	freundlich	schön	fair	schlau	loyal	tyrannisch	fanatisch	schlecht	faul	schroff	lasch	1	blank2r.bmp	0	1	+	0	1	blank2r.bmp	500	3	B3r.bmp	500	1	blank2r.bmp	880	6	loyal	880	1	!	1312	1	!	-1	0	0	0	0	0	0
2024-05-29	11:59:01	12:04:25	324175	6.6.1	4_exp_EVA_AWA_CON	60	B	A	Rpleas_acq	Oppo	Rpleas	2pleas	acq_new_unple_nomask	acq2_nomask	2	3	480	0	300	300	0	0	597	46	1	0	ehrlich	retten	treu	helfen	spielen	lachen	eitel	rächen	tot	hindern	strafen	leiden	tolerant	freundlich	schön	fair	schlau	loyal	tyrannisch	fanatisch	schlecht	faul	schroff	lasch	1	blank2r.bmp	0	1	+	0	1	blank2r.bmp	500	4	B4r.bmp	500	1	blank2r.bmp	880	4	faul	880	1	!	1312	1	!	-1	0	0	0	0	0	0
2024-05-29	11:59:01	12:04:28	326501	6.6.1	4_exp_EVA_AWA_CON	60	B	A	Rpleas_acq	Oppo	Rpleas	2pleas	acq_US_pleas_nomask	acq2_nomask	2	4	480	0	300	300	0	0	553	50	1	0	ehrlich	retten	treu	helfen	spielen	lachen	eitel	rächen	tot	hindern	strafen	leiden	tolerant	freundlich	schön	fair	schlau	loyal	tyrannisch	fanatisch	schlecht	faul	schroff	lasch	1	blank2r.bmp	0	1	+	0	1	blank2r.bmp	500	1	GKQX	500	1	blank2r.bmp	880	5	spielen	880	1	!	1312	1	!	-1	0	0	0	0	0	0
2024-05-29	11:59:01	12:04:30	328695	6.6.1	4_exp_EVA_AWA_CON	60	B	A	Rpleas_acq	Oppo	Rpleas	2pleas	acq_new_unple_nomask	acq2_nomask	2	5	480	1	300	300	0	0	414	46	1	0	ehrlich	retten	treu	helfen	spielen	lachen	eitel	rächen	tot	hindern	strafen	leiden	tolerant	freundlich	schön	fair	schlau	loyal	tyrannisch	fanatisch	schlecht	faul	schroff	lasch	1	blank2r.bmp	0	1	+	0	1	blank2r.bmp	500	7	C3r.bmp	500	1	blank2r.bmp	880	6	lasch	880	1	!	1312	1	!	1314	0	0	0	0	0	0
2024-05-29	11:59:01	12:04:32	331047	6.6.1	4_exp_EVA_AWA_CON	60	B	A	Rpleas_acq	Oppo	Rpleas	2pleas	acq_US_pleas_nomask	acq2_nomask	2	6	480	0	300	300	0	0	574	50	1	0	ehrlich	retten	treu	helfen	spielen	lachen	eitel	rächen	tot	hindern	strafen	leiden	tolerant	freundlich	schön	fair	schlau	loyal	tyrannisch	fanatisch	schlecht	faul	schroff	lasch	1	blank2r.bmp	0	1	+	0	1	blank2r.bmp	500	1	GKQX	500	1	blank2r.bmp	880	3	treu	880	1	!	1312	1	!	-1	0	0	0	0	0	0
2024-05-29	11:59:01	12:04:35	333537	6.6.1	4_exp_EVA_AWA_CON	60	B	A	Rpleas_acq	Oppo	Rpleas	2pleas	acq_new_pleas_nomask	acq2_nomask	2	7	480	1	300	300	0	0	511	46	0	0	ehrlich	retten	treu	helfen	spielen	lachen	eitel	rächen	tot	hindern	strafen	leiden	tolerant	freundlich	schön	fair	schlau	loyal	tyrannisch	fanatisch	schlecht	faul	schroff	lasch	1	blank2r.bmp	0	1	+	0	1	blank2r.bmp	500	5	C1r.bmp	500	1	blank2r.bmp	880	5	schlau	880	1	FEHLER	1704	1	!	1312	1	!	1413	0	0	0
2024-05-29	11:59:01	12:04:37	336139	6.6.1	4_exp_EVA_AWA_CON	60	B	A	Rpleas_acq	Oppo	Rpleas	2pleas	acq_US_unple_nomask	acq2_nomask	2	8	480	0	300	300	0	0	820	50	0	0	ehrlich	retten	treu	helfen	spielen	lachen	eitel	rächen	tot	hindern	strafen	leiden	tolerant	freundlich	schön	fair	schlau	loyal	tyrannisch	fanatisch	schlecht	faul	schroff	lasch	1	blank2r.bmp	0	1	+	0	1	blank2r.bmp	500	1	BMVZ	500	1	blank2r.bmp	880	3	tot	880	1	FEHLER	2014	1	!	1312	1	!	-1	0	0	0
2024-05-29	11:59:01	12:04:39	338287	6.6.1	4_exp_EVA_AWA_CON	60	B	A	Rpleas_acq	Oppo	Rpleas	2pleas	acq_new_unple_nomask	acq2_nomask	2	9	480	0	300	300	0	0	570	46	1	0	ehrlich	retten	treu	helfen	spielen	lachen	eitel	rächen	tot	hindern	strafen	leiden	tolerant	freundlich	schön	fair	schlau	loyal	tyrannisch	fanatisch	schlecht	faul	schroff	lasch	1	blank2r.bmp	0	1	+	0	1	blank2r.bmp	500	2	B2r.bmp	500	1	blank2r.bmp	880	1	tyrannisch	880	1	!	1312	1	!	-1	0	0	0	0	0	0
2024-05-29	11:59:01	12:04:42	340601	6.6.1	4_exp_EVA_AWA_CON	60	B	A	Rpleas_acq	Oppo	Rpleas	2pleas	acq_US_unple_nomask	acq2_nomask	2	10	480	1	300	300	0	0	530	46	1	0	ehrlich	retten	treu	helfen	spielen	lachen	eitel	rächen	tot	hindern	strafen	leiden	tolerant	freundlich	schön	fair	schlau	loyal	tyrannisch	fanatisch	schlecht	faul	schroff	lasch	1	blank2r.bmp	0	1	+	0	1	blank2r.bmp	500	1	BMVZ	500	1	blank2r.bmp	880	4	hindern	880	1	!	1312	1	!	1432	0	0	0	0	0	0
2024-05-29	11:59:01	12:04:44	342991	6.6.1	4_exp_EVA_AWA_CON	60	B	A	Rpleas_acq	Oppo	Rpleas	2pleas	acq_US_unple_nomask	acq2_nomask	2	11	480	0	300	300	0	0	611	46	1	0	ehrlich	retten	treu	helfen	spielen	lachen	eitel	rächen	tot	hindern	strafen	leiden	tolerant	freundlich	schön	fair	schlau	loyal	tyrannisch	fanatisch	schlecht	faul	schroff	lasch	1	blank2r.bmp	0	1	+	0	1	blank2r.bmp	500	1	BMVZ	500	1	blank2r.bmp	880	2	rächen	880	1	!	1312	1	!	-1	0	0	0	0	0	0
2024-05-29	11:59:01	12:04:47	345498	6.6.1	4_exp_EVA_AWA_CON	60	B	A	Rpleas_acq	Oppo	Rpleas	2pleas	acq_US_pleas_nomask	acq2_nomask	2	12	480	1	300	300	0	0	523	46	0	0	ehrlich	retten	treu	helfen	spielen	lachen	eitel	rächen	tot	hindern	strafen	leiden	tolerant	freundlich	schön	fair	schlau	loyal	tyrannisch	fanatisch	schlecht	faul	schroff	lasch	1	blank2r.bmp	0	1	+	0	1	blank2r.bmp	500	1	GKQX	500	1	blank2r.bmp	880	6	lachen	880	1	FEHLER	1717	1	!	1312	1	!	1425	0	0	0
2024-05-29	11:59:01	12:04:53	352263	6.6.1	4_exp_EVA_AWA_CON	60	B	A	Rpleas_acq	Oppo	Rpleas	2pleas	acq_US_pleas_nomask	acq2_nomask	2	13	480	0	300	300	0	0	5190	50	1	0	ehrlich	retten	treu	helfen	spielen	lachen	eitel	rächen	tot	hindern	strafen	leiden	tolerant	freundlich	schön	fair	schlau	loyal	tyrannisch	fanatisch	schlecht	faul	schroff	lasch	1	blank2r.bmp	0	1	+	0	1	blank2r.bmp	500	1	GKQX	500	1	blank2r.bmp	880	2	retten	880	1	!	1312	1	!	-1	0	0	0	0	0	0
2024-05-29	11:59:01	12:04:56	354512	6.6.1	4_exp_EVA_AWA_CON	60	B	A	Rpleas_acq	Oppo	Rpleas	2pleas	acq_US_unple_nomask	acq2_nomask	2	14	480	1	300	300	0	0	473	46	1	0	ehrlich	retten	treu	helfen	spielen	lachen	eitel	rächen	tot	hindern	strafen	leiden	tolerant	freundlich	schön	fair	schlau	loyal	tyrannisch	fanatisch	schlecht	faul	schroff	lasch	1	blank2r.bmp	0	1	+	0	1	blank2r.bmp	500	1	BMVZ	500	1	blank2r.bmp	880	2	rächen	880	1	!	1312	1	!	1375	0	0	0	0	0	0
2024-05-29	11:59:01	12:04:58	356832	6.6.1	4_exp_EVA_AWA_CON	60	B	A	Rpleas_acq	Oppo	Rpleas	2pleas	acq_US_pleas_nomask	acq2_nomask	2	15	480	1	300	300	0	0	542	50	1	0	ehrlich	retten	treu	helfen	spielen	lachen	eitel	rächen	tot	hindern	strafen	leiden	tolerant	freundlich	schön	fair	schlau	loyal	tyrannisch	fanatisch	schlecht	faul	schroff	lasch	1	blank2r.bmp	0	1	+	0	1	blank2r.bmp	500	1	GKQX	500	1	blank2r.bmp	880	1	ehrlich	880	1	!	1312	1	!	1443	0	0	0	0	0	0
2024-05-29	11:59:01	12:05:01	359368	6.6.1	4_exp_EVA_AWA_CON	60	B	A	Rpleas_acq	Oppo	Rpleas	2pleas	acq_new_unple_nomask	acq2_nomask	2	16	480	0	300	300	0	0	557	50	0	0	ehrlich	retten	treu	helfen	spielen	lachen	eitel	rächen	tot	hindern	strafen	leiden	tolerant	freundlich	schön	fair	schlau	loyal	tyrannisch	fanatisch	schlecht	faul	schroff	lasch	1	blank2r.bmp	0	1	+	0	1	blank2r.bmp	500	4	B4r.bmp	500	1	blank2r.bmp	880	2	fanatisch	880	1	FEHLER	1748	1	!	1313	1	!	-1	0	0	0
2024-05-29	11:59:01	12:05:04	363015	6.6.1	4_exp_EVA_AWA_CON	60	B	A	Rpleas_acq	Oppo	Rpleas	2pleas	acq_new_unple_nomask	acq2_nomask	2	17	480	0	300	300	0	0	2073	46	1	0	ehrlich	retten	treu	helfen	spielen	lachen	eitel	rächen	tot	hindern	strafen	leiden	tolerant	freundlich	schön	fair	schlau	loyal	tyrannisch	fanatisch	schlecht	faul	schroff	lasch	1	blank2r.bmp	0	1	+	0	1	blank2r.bmp	500	7	C3r.bmp	500	1	blank2r.bmp	880	6	lasch	880	1	!	1312	1	!	-1	0	0	0	0	0	0
2024-05-29	11:59:01	12:05:08	366735	6.6.1	4_exp_EVA_AWA_CON	60	B	A	Rpleas_acq	Oppo	Rpleas	2pleas	acq_new_pleas_nomask	acq2_nomask	2	18	480	0	300	300	0	0	1941	50	1	0	ehrlich	retten	treu	helfen	spielen	lachen	eitel	rächen	tot	hindern	strafen	leiden	tolerant	freundlich	schön	fair	schlau	loyal	tyrannisch	fanatisch	schlecht	faul	schroff	lasch	1	blank2r.bmp	0	1	+	0	1	blank2r.bmp	500	3	B3r.bmp	500	1	blank2r.bmp	880	2	freundlich	880	1	!	1312	1	!	-1	0	0	0	0	0	0
2024-05-29	11:59:01	12:05:10	369193	6.6.1	4_exp_EVA_AWA_CON	60	B	A	Rpleas_acq	Oppo	Rpleas	2pleas	acq_US_unple_nomask	acq2_nomask	2	19	480	1	300	300	0	0	474	50	0	0	ehrlich	retten	treu	helfen	spielen	lachen	eitel	rächen	tot	hindern	strafen	leiden	tolerant	freundlich	schön	fair	schlau	loyal	tyrannisch	fanatisch	schlecht	faul	schroff	lasch	1	blank2r.bmp	0	1	+	0	1	blank2r.bmp	500	1	BMVZ	500	1	blank2r.bmp	880	6	leiden	880	1	FEHLER	1667	1	!	1312	1	!	1376	0	0	0
2024-05-29	11:59:01	12:05:13	372095	6.6.1	4_exp_EVA_AWA_CON	60	B	A	Rpleas_acq	Oppo	Rpleas	2pleas	acq_new_pleas_nomask	acq2_nomask	2	20	480	0	300	300	0	0	1327	50	1	0	ehrlich	retten	treu	helfen	spielen	lachen	eitel	rächen	tot	hindern	strafen	leiden	tolerant	freundlich	schön	fair	schlau	loyal	tyrannisch	fanatisch	schlecht	faul	schroff	lasch	1	blank2r.bmp	0	1	+	0	1	blank2r.bmp	500	8	C4r.bmp	500	1	blank2r.bmp	880	3	schön	880	1	!	1313	1	!	-1	0	0	0	0	0	0
2024-05-29	11:59:01	12:05:16	374546	6.6.1	4_exp_EVA_AWA_CON	60	B	A	Rpleas_acq	Oppo	Rpleas	2pleas	acq_new_pleas_nomask	acq2_nomask	2	21	480	1	300	300	0	0	473	46	0	0	ehrlich	retten	treu	helfen	spielen	lachen	eitel	rächen	tot	hindern	strafen	leiden	tolerant	freundlich	schön	fair	schlau	loyal	tyrannisch	fanatisch	schlecht	faul	schroff	lasch	1	blank2r.bmp	0	1	+	0	1	blank2r.bmp	500	6	C2r.bmp	500	1	blank2r.bmp	880	6	loyal	880	1	FEHLER	1666	1	!	1312	1	!	1374	0	0	0
2024-05-29	11:59:01	12:05:18	377002	6.6.1	4_exp_EVA_AWA_CON	60	B	A	Rpleas_acq	Oppo	Rpleas	2pleas	acq_US_unple_nomask	acq2_nomask	2	22	480	0	300	300	0	0	677	50	0	0	ehrlich	retten	treu	helfen	spielen	lachen	eitel	rächen	tot	hindern	strafen	leiden	tolerant	freundlich	schön	fair	schlau	loyal	tyrannisch	fanatisch	schlecht	faul	schroff	lasch	1	blank2r.bmp	0	1	+	0	1	blank2r.bmp	500	1	BMVZ	500	1	blank2r.bmp	880	3	tot	880	1	FEHLER	1871	1	!	1312	1	!	-1	0	0	0
2024-05-29	11:59:01	12:05:21	379943	6.6.1	4_exp_EVA_AWA_CON	60	B	A	Rpleas_acq	Oppo	Rpleas	2pleas	acq_US_pleas_nomask	acq2_nomask	2	23	480	0	300	300	0	0	1370	50	1	0	ehrlich	retten	treu	helfen	spielen	lachen	eitel	rächen	tot	hindern	strafen	leiden	tolerant	freundlich	schön	fair	schlau	loyal	tyrannisch	fanatisch	schlecht	faul	schroff	lasch	1	blank2r.bmp	0	1	+	0	1	blank2r.bmp	500	1	GKQX	500	1	blank2r.bmp	880	5	spielen	880	1	!	1312	1	!	-1	0	0	0	0	0	0
2024-05-29	11:59:01	12:05:24	382415	6.6.1	4_exp_EVA_AWA_CON	60	B	A	Rpleas_acq	Oppo	Rpleas	2pleas	acq_new_unple_nomask	acq2_nomask	2	24	480	0	300	300	0	0	690	46	1	0	ehrlich	retten	treu	helfen	spielen	lachen	eitel	rächen	tot	hindern	strafen	leiden	tolerant	freundlich	schön	fair	schlau	loyal	tyrannisch	fanatisch	schlecht	faul	schroff	lasch	1	blank2r.bmp	0	1	+	0	1	blank2r.bmp	500	2	B2r.bmp	500	1	blank2r.bmp	880	3	schlecht	880	1	!	1312	1	!	-1	0	0	0	0	0	0
2024-05-29	11:59:01	12:05:26	384881	6.6.1	4_exp_EVA_AWA_CON	60	B	A	Rpleas_acq	Oppo	Rpleas	2pleas	acq_new_pleas_nomask	acq2_nomask	2	25	480	1	300	300	0	0	482	46	0	0	ehrlich	retten	treu	helfen	spielen	lachen	eitel	rächen	tot	hindern	strafen	leiden	tolerant	freundlich	schön	fair	schlau	loyal	tyrannisch	fanatisch	schlecht	faul	schroff	lasch	1	blank2r.bmp	0	1	+	0	1	blank2r.bmp	500	5	C1r.bmp	500	1	blank2r.bmp	880	1	tolerant	880	1	FEHLER	1675	1	!	1312	1	!	1384	0	0	0
2024-05-29	11:59:01	12:05:28	387279	6.6.1	4_exp_EVA_AWA_CON	60	B	A	Rpleas_acq	Oppo	Rpleas	2pleas	acq_US_pleas_nomask	acq2_nomask	2	26	480	0	300	300	0	0	821	50	1	0	ehrlich	retten	treu	helfen	spielen	lachen	eitel	rächen	tot	hindern	strafen	leiden	tolerant	freundlich	schön	fair	schlau	loyal	tyrannisch	fanatisch	schlecht	faul	schroff	lasch	1	blank2r.bmp	0	1	+	0	1	blank2r.bmp	500	1	GKQX	500	1	blank2r.bmp	880	3	treu	880	1	!	1312	1	!	-1	0	0	0	0	0	0
2024-05-29	11:59:01	12:05:31	389983	6.6.1	4_exp_EVA_AWA_CON	60	B	A	Rpleas_acq	Oppo	Rpleas	2pleas	acq_new_unple_nomask	acq2_nomask	2	27	480	0	300	300	0	0	923	46	1	0	ehrlich	retten	treu	helfen	spielen	lachen	eitel	rächen	tot	hindern	strafen	leiden	tolerant	freundlich	schön	fair	schlau	loyal	tyrannisch	fanatisch	schlecht	faul	schroff	lasch	1	blank2r.bmp	0	1	+	0	1	blank2r.bmp	500	1	B1r.bmp	500	1	blank2r.bmp	880	1	tyrannisch	880	1	!	1312	1	!	-1	0	0	0	0	0	0
2024-05-29	11:59:01	12:05:34	392599	6.6.1	4_exp_EVA_AWA_CON	60	B	A	Rpleas_acq	Oppo	Rpleas	2pleas	acq_new_pleas_nomask	acq2_nomask	2	28	480	0	300	300	0	0	837	50	1	0	ehrlich	retten	treu	helfen	spielen	lachen	eitel	rächen	tot	hindern	strafen	leiden	tolerant	freundlich	schön	fair	schlau	loyal	tyrannisch	fanatisch	schlecht	faul	schroff	lasch	1	blank2r.bmp	0	1	+	0	1	blank2r.bmp	500	7	C3r.bmp	500	1	blank2r.bmp	880	4	fair	880	1	!	1312	1	!	-1	0	0	0	0	0	0
2024-05-29	11:59:01	12:05:36	394925	6.6.1	4_exp_EVA_AWA_CON	60	B	A	Rpleas_acq	Oppo	Rpleas	2pleas	acq_US_unple_nomask	acq2_nomask	2	29	480	0	300	300	0	0	554	46	1	0	ehrlich	retten	treu	helfen	spielen	lachen	eitel	rächen	tot	hindern	strafen	leiden	tolerant	freundlich	schön	fair	schlau	loyal	tyrannisch	fanatisch	schlecht	faul	schroff	lasch	1	blank2r.bmp	0	1	+	0	1	blank2r.bmp	500	1	BMVZ	500	1	blank2r.bmp	880	5	strafen	880	1	!	1312	1	!	-1	0	0	0	0	0	0
2024-05-29	11:59:01	12:05:38	397327	6.6.1	4_exp_EVA_AWA_CON	60	B	A	Rpleas_acq	Oppo	Rpleas	2pleas	acq_US_unple_nomask	acq2_nomask	2	30	480	0	300	300	0	0	622	46	1	0	ehrlich	retten	treu	helfen	spielen	lachen	eitel	rächen	tot	hindern	strafen	leiden	tolerant	freundlich	schön	fair	schlau	loyal	tyrannisch	fanatisch	schlecht	faul	schroff	lasch	1	blank2r.bmp	0	1	+	0	1	blank2r.bmp	500	1	BMVZ	500	1	blank2r.bmp	880	1	eitel	880	1	!	1312	1	!	-1	0	0	0	0	0	0
2024-05-29	11:59:01	12:05:41	399714	6.6.1	4_exp_EVA_AWA_CON	60	B	A	Rpleas_acq	Oppo	Rpleas	2pleas	acq_US_unple_nomask	acq2_nomask	2	31	480	0	300	300	0	0	405	50	0	0	ehrlich	retten	treu	helfen	spielen	lachen	eitel	rächen	tot	hindern	strafen	leiden	tolerant	freundlich	schön	fair	schlau	loyal	tyrannisch	fanatisch	schlecht	faul	schroff	lasch	1	blank2r.bmp	0	1	+	0	1	blank2r.bmp	500	1	BMVZ	500	1	blank2r.bmp	880	4	hindern	880	1	FEHLER	1598	1	!	-1	1	!	-1	0	0	0
2024-05-29	11:59:01	12:05:43	402159	6.6.1	4_exp_EVA_AWA_CON	60	B	A	Rpleas_acq	Oppo	Rpleas	2pleas	acq_new_unple_nomask	acq2_nomask	2	32	480	0	300	300	0	0	871	46	1	0	ehrlich	retten	treu	helfen	spielen	lachen	eitel	rächen	tot	hindern	strafen	leiden	tolerant	freundlich	schön	fair	schlau	loyal	tyrannisch	fanatisch	schlecht	faul	schroff	lasch	1	blank2r.bmp	0	1	+	0	1	blank2r.bmp	500	4	B4r.bmp	500	1	blank2r.bmp	880	4	faul	880	1	!	1312	1	!	-1	0	0	0	0	0	0
2024-05-29	11:59:01	12:05:47	405671	6.6.1	4_exp_EVA_AWA_CON	60	B	A	Rpleas_acq	Oppo	Rpleas	2pleas	acq_new_unple_nomask	acq2_nomask	2	33	480	0	300	300	0	0	1731	46	1	0	ehrlich	retten	treu	helfen	spielen	lachen	eitel	rächen	tot	hindern	strafen	leiden	tolerant	freundlich	schön	fair	schlau	loyal	tyrannisch	fanatisch	schlecht	faul	schroff	lasch	1	blank2r.bmp	0	1	+	0	1	blank2r.bmp	500	2	B2r.bmp	500	1	blank2r.bmp	880	5	schroff	880	1	!	1312	1	!	-1	0	0	0	0	0	0
2024-05-29	11:59:01	12:05:49	407936	6.6.1	4_exp_EVA_AWA_CON	60	B	A	Rpleas_acq	Oppo	Rpleas	2pleas	acq_US_pleas_nomask	acq2_nomask	2	34	480	1	300	300	0	0	483	50	1	0	ehrlich	retten	treu	helfen	spielen	lachen	eitel	rächen	tot	hindern	strafen	leiden	tolerant	freundlich	schön	fair	schlau	loyal	tyrannisch	fanatisch	schlecht	faul	schroff	lasch	1	blank2r.bmp	0	1	+	0	1	blank2r.bmp	500	1	GKQX	500	1	blank2r.bmp	880	6	lachen	880	1	!	1312	1	!	1385	0	0	0	0	0	0
2024-05-29	11:59:01	12:05:51	410287	6.6.1	4_exp_EVA_AWA_CON	60	B	A	Rpleas_acq	Oppo	Rpleas	2pleas	acq_new_pleas_nomask	acq2_nomask	2	35	480	0	300	300	0	0	574	50	1	0	ehrlich	retten	treu	helfen	spielen	lachen	eitel	rächen	tot	hindern	strafen	leiden	tolerant	freundlich	schön	fair	schlau	loyal	tyrannisch	fanatisch	schlecht	faul	schroff	lasch	1	blank2r.bmp	0	1	+	0	1	blank2r.bmp	500	6	C2r.bmp	500	1	blank2r.bmp	880	5	schlau	880	1	!	1312	1	!	-1	0	0	0	0	0	0
2024-05-29	11:59:01	12:05:54	412497	6.6.1	4_exp_EVA_AWA_CON	60	B	A	Rpleas_acq	Oppo	Rpleas	2pleas	acq_US_pleas_nomask	acq2_nomask	2	36	480	1	300	300	0	0	430	50	1	0	ehrlich	retten	treu	helfen	spielen	lachen	eitel	rächen	tot	hindern	strafen	leiden	tolerant	freundlich	schön	fair	schlau	loyal	tyrannisch	fanatisch	schlecht	faul	schroff	lasch	1	blank2r.bmp	0	1	+	0	1	blank2r.bmp	500	1	GKQX	500	1	blank2r.bmp	880	4	helfen	880	1	!	1312	1	!	1332	0	0	0	0	0	0
2024-05-29	11:59:01	12:06:08	426759	6.6.1	4_exp_EVA_AWA_CON	60	B	A	Rpleas_acq	Oppo	Rpleas	2pleas	acq_US_unple_nomask	acq3_nomask	3	1	453	0	300	300	0	0	555	46	1	0	ehrlich	retten	treu	helfen	spielen	lachen	eitel	rächen	tot	hindern	strafen	leiden	tolerant	freundlich	schön	fair	schlau	loyal	tyrannisch	fanatisch	schlecht	faul	schroff	lasch	1	blank2r.bmp	0	1	+	0	1	blank2r.bmp	500	1	BMVZ	500	1	blank2r.bmp	880	6	leiden	880	1	!	1292	1	!	-1	0	0	0	0	0	0
2024-05-29	11:59:01	12:06:10	429330	6.6.1	4_exp_EVA_AWA_CON	60	B	A	Rpleas_acq	Oppo	Rpleas	2pleas	acq_US_unple_nomask	acq3_nomask	3	2	453	0	300	300	0	0	592	50	0	0	ehrlich	retten	treu	helfen	spielen	lachen	eitel	rächen	tot	hindern	strafen	leiden	tolerant	freundlich	schön	fair	schlau	loyal	tyrannisch	fanatisch	schlecht	faul	schroff	lasch	1	blank2r.bmp	0	1	+	0	1	blank2r.bmp	500	1	BMVZ	500	1	blank2r.bmp	880	5	strafen	880	1	FEHLER	1785	1	!	1292	1	!	-1	0	0	0
2024-05-29	11:59:01	12:06:13	431455	6.6.1	4_exp_EVA_AWA_CON	60	B	A	Rpleas_acq	Oppo	Rpleas	2pleas	acq_US_pleas_nomask	acq3_nomask	3	3	453	0	300	300	0	0	548	50	1	0	ehrlich	retten	treu	helfen	spielen	lachen	eitel	rächen	tot	hindern	strafen	leiden	tolerant	freundlich	schön	fair	schlau	loyal	tyrannisch	fanatisch	schlecht	faul	schroff	lasch	1	blank2r.bmp	0	1	+	0	1	blank2r.bmp	500	1	GKQX	500	1	blank2r.bmp	880	6	lachen	880	1	!	1292	1	!	-1	0	0	0	0	0	0
2024-05-29	11:59:01	12:06:15	433535	6.6.1	4_exp_EVA_AWA_CON	60	B	A	Rpleas_acq	Oppo	Rpleas	2pleas	acq_US_pleas_nomask	acq3_nomask	3	4	453	0	300	300	0	0	307	50	1	0	ehrlich	retten	treu	helfen	spielen	lachen	eitel	rächen	tot	hindern	strafen	leiden	tolerant	freundlich	schön	fair	schlau	loyal	tyrannisch	fanatisch	schlecht	faul	schroff	lasch	1	blank2r.bmp	0	1	+	0	1	blank2r.bmp	500	1	GKQX	500	1	blank2r.bmp	880	2	retten	880	1	!	-1	1	!	-1	0	0	0	0	0	0
2024-05-29	11:59:01	12:06:17	436055	6.6.1	4_exp_EVA_AWA_CON	60	B	A	Rpleas_acq	Oppo	Rpleas	2pleas	acq_US_unple_nomask	acq3_nomask	3	5	453	0	300	300	0	0	745	46	1	0	ehrlich	retten	treu	helfen	spielen	lachen	eitel	rächen	tot	hindern	strafen	leiden	tolerant	freundlich	schön	fair	schlau	loyal	tyrannisch	fanatisch	schlecht	faul	schroff	lasch	1	blank2r.bmp	0	1	+	0	1	blank2r.bmp	500	1	BMVZ	500	1	blank2r.bmp	880	3	tot	880	1	!	1292	1	!	-1	0	0	0	0	0	0
2024-05-29	11:59:01	12:06:20	438506	6.6.1	4_exp_EVA_AWA_CON	60	B	A	Rpleas_acq	Oppo	Rpleas	2pleas	acq_US_pleas_nomask	acq3_nomask	3	6	453	1	300	300	0	0	472	46	0	0	ehrlich	retten	treu	helfen	spielen	lachen	eitel	rächen	tot	hindern	strafen	leiden	tolerant	freundlich	schön	fair	schlau	loyal	tyrannisch	fanatisch	schlecht	faul	schroff	lasch	1	blank2r.bmp	0	1	+	0	1	blank2r.bmp	500	1	GKQX	500	1	blank2r.bmp	880	4	helfen	880	1	FEHLER	1665	1	!	1292	1	!	1373	0	0	0
2024-05-29	11:59:01	12:06:22	440679	6.6.1	4_exp_EVA_AWA_CON	60	B	A	Rpleas_acq	Oppo	Rpleas	2pleas	acq_US_unple_nomask	acq3_nomask	3	7	453	0	300	300	0	0	596	46	1	0	ehrlich	retten	treu	helfen	spielen	lachen	eitel	rächen	tot	hindern	strafen	leiden	tolerant	freundlich	schön	fair	schlau	loyal	tyrannisch	fanatisch	schlecht	faul	schroff	lasch	1	blank2r.bmp	0	1	+	0	1	blank2r.bmp	500	1	BMVZ	500	1	blank2r.bmp	880	4	hindern	880	1	!	1292	1	!	-1	0	0	0	0	0	0
2024-05-29	11:59:01	12:06:24	443114	6.6.1	4_exp_EVA_AWA_CON	60	B	A	Rpleas_acq	Oppo	Rpleas	2pleas	acq_US_unple_nomask	acq3_nomask	3	8	453	1	300	300	0	0	457	50	0	0	ehrlich	retten	treu	helfen	spielen	lachen	eitel	rächen	tot	hindern	strafen	leiden	tolerant	freundlich	schön	fair	schlau	loyal	tyrannisch	fanatisch	schlecht	faul	schroff	lasch	1	blank2r.bmp	0	1	+	0	1	blank2r.bmp	500	1	BMVZ	500	1	blank2r.bmp	880	1	eitel	880	1	FEHLER	1650	1	!	1292	1	!	1358	0	0	0
2024-05-29	11:59:01	12:06:26	445223	6.6.1	4_exp_EVA_AWA_CON	60	B	A	Rpleas_acq	Oppo	Rpleas	2pleas	acq_US_pleas_nomask	acq3_nomask	3	9	453	0	300	300	0	0	537	50	1	0	ehrlich	retten	treu	helfen	spielen	lachen	eitel	rächen	tot	hindern	strafen	leiden	tolerant	freundlich	schön	fair	schlau	loyal	tyrannisch	fanatisch	schlecht	faul	schroff	lasch	1	blank2r.bmp	0	1	+	0	1	blank2r.bmp	500	1	GKQX	500	1	blank2r.bmp	880	5	spielen	880	1	!	1292	1	!	-1	0	0	0	0	0	0
2024-05-29	11:59:01	12:06:29	447647	6.6.1	4_exp_EVA_AWA_CON	60	B	A	Rpleas_acq	Oppo	Rpleas	2pleas	acq_US_pleas_nomask	acq3_nomask	3	10	453	0	300	300	0	0	650	50	1	0	ehrlich	retten	treu	helfen	spielen	lachen	eitel	rächen	tot	hindern	strafen	leiden	tolerant	freundlich	schön	fair	schlau	loyal	tyrannisch	fanatisch	schlecht	faul	schroff	lasch	1	blank2r.bmp	0	1	+	0	1	blank2r.bmp	500	1	GKQX	500	1	blank2r.bmp	880	3	treu	880	1	!	1293	1	!	-1	0	0	0	0	0	0
2024-05-29	11:59:01	12:06:31	449944	6.6.1	4_exp_EVA_AWA_CON	60	B	A	Rpleas_acq	Oppo	Rpleas	2pleas	acq_US_unple_nomask	acq3_nomask	3	11	453	1	300	300	0	0	514	46	1	0	ehrlich	retten	treu	helfen	spielen	lachen	eitel	rächen	tot	hindern	strafen	leiden	tolerant	freundlich	schön	fair	schlau	loyal	tyrannisch	fanatisch	schlecht	faul	schroff	lasch	1	blank2r.bmp	0	1	+	0	1	blank2r.bmp	500	1	BMVZ	500	1	blank2r.bmp	880	2	rächen	880	1	!	1292	1	!	1416	0	0	0	0	0	0
2024-05-29	11:59:01	12:06:34	452425	6.6.1	4_exp_EVA_AWA_CON	60	B	A	Rpleas_acq	Oppo	Rpleas	2pleas	acq_US_pleas_nomask	acq3_nomask	3	12	453	1	300	300	0	0	503	46	0	0	ehrlich	retten	treu	helfen	spielen	lachen	eitel	rächen	tot	hindern	strafen	leiden	tolerant	freundlich	schön	fair	schlau	loyal	tyrannisch	fanatisch	schlecht	faul	schroff	lasch	1	blank2r.bmp	0	1	+	0	1	blank2r.bmp	500	1	GKQX	500	1	blank2r.bmp	880	1	ehrlich	880	1	FEHLER	1696	1	!	1292	1	!	1404	0	0	0
2024-05-29	11:59:01	12:06:37	455447	6.6.1	4_exp_EVA_AWA_CON	60	B	A	Rpleas_acq	Oppo	Rpleas	2pleas	acq_US_unple_nomask	acq3_nomask	3	13	453	0	300	300	0	0	1445	46	1	0	ehrlich	retten	treu	helfen	spielen	lachen	eitel	rächen	tot	hindern	strafen	leiden	tolerant	freundlich	schön	fair	schlau	loyal	tyrannisch	fanatisch	schlecht	faul	schroff	lasch	1	blank2r.bmp	0	1	+	0	1	blank2r.bmp	500	1	BMVZ	500	1	blank2r.bmp	880	5	strafen	880	1	!	1292	1	!	-1	0	0	0	0	0	0
2024-05-29	11:59:01	12:06:39	457946	6.6.1	4_exp_EVA_AWA_CON	60	B	A	Rpleas_acq	Oppo	Rpleas	2pleas	acq_US_unple_nomask	acq3_nomask	3	14	453	1	300	300	0	0	519	50	0	0	ehrlich	retten	treu	helfen	spielen	lachen	eitel	rächen	tot	hindern	strafen	leiden	tolerant	freundlich	schön	fair	schlau	loyal	tyrannisch	fanatisch	schlecht	faul	schroff	lasch	1	blank2r.bmp	0	1	+	0	1	blank2r.bmp	500	1	BMVZ	500	1	blank2r.bmp	880	4	hindern	880	1	FEHLER	1713	1	!	1292	1	!	1421	0	0	0
2024-05-29	11:59:01	12:06:49	467607	6.6.1	4_exp_EVA_AWA_CON	60	B	A	Rpleas_acq	Oppo	Rpleas	2pleas	acq_US_pleas_nomask	acq3_nomask	3	15	453	0	300	300	0	0	8082	50	1	0	ehrlich	retten	treu	helfen	spielen	lachen	eitel	rächen	tot	hindern	strafen	leiden	tolerant	freundlich	schön	fair	schlau	loyal	tyrannisch	fanatisch	schlecht	faul	schroff	lasch	1	blank2r.bmp	0	1	+	0	1	blank2r.bmp	500	1	GKQX	500	1	blank2r.bmp	880	2	retten	880	1	!	1292	1	!	-1	0	0	0	0	0	0
2024-05-29	11:59:01	12:06:51	469873	6.6.1	4_exp_EVA_AWA_CON	60	B	A	Rpleas_acq	Oppo	Rpleas	2pleas	acq_US_unple_nomask	acq3_nomask	3	16	453	1	300	300	0	0	489	46	1	0	ehrlich	retten	treu	helfen	spielen	lachen	eitel	rächen	tot	hindern	strafen	leiden	tolerant	freundlich	schön	fair	schlau	loyal	tyrannisch	fanatisch	schlecht	faul	schroff	lasch	1	blank2r.bmp	0	1	+	0	1	blank2r.bmp	500	1	BMVZ	500	1	blank2r.bmp	880	2	rächen	880	1	!	1292	1	!	1392	0	0	0	0	0	0
2024-05-29	11:59:01	12:06:53	472297	6.6.1	4_exp_EVA_AWA_CON	60	B	A	Rpleas_acq	Oppo	Rpleas	2pleas	acq_US_pleas_nomask	acq3_nomask	3	17	453	1	300	300	0	0	442	46	0	0	ehrlich	retten	treu	helfen	spielen	lachen	eitel	rächen	tot	hindern	strafen	leiden	tolerant	freundlich	schön	fair	schlau	loyal	tyrannisch	fanatisch	schlecht	faul	schroff	lasch	1	blank2r.bmp	0	1	+	0	1	blank2r.bmp	500	1	GKQX	500	1	blank2r.bmp	880	6	lachen	880	1	FEHLER	1635	1	!	1292	1	!	1343	0	0	0
2024-05-29	11:59:01	12:06:56	474695	6.6.1	4_exp_EVA_AWA_CON	60	B	A	Rpleas_acq	Oppo	Rpleas	2pleas	acq_US_pleas_nomask	acq3_nomask	3	18	453	0	300	300	0	0	821	50	1	0	ehrlich	retten	treu	helfen	spielen	lachen	eitel	rächen	tot	hindern	strafen	leiden	tolerant	freundlich	schön	fair	schlau	loyal	tyrannisch	fanatisch	schlecht	faul	schroff	lasch	1	blank2r.bmp	0	1	+	0	1	blank2r.bmp	500	1	GKQX	500	1	blank2r.bmp	880	1	ehrlich	880	1	!	1292	1	!	-1	0	0	0	0	0	0
2024-05-29	11:59:01	12:06:59	477543	6.6.1	4_exp_EVA_AWA_CON	60	B	A	Rpleas_acq	Oppo	Rpleas	2pleas	acq_US_unple_nomask	acq3_nomask	3	19	453	0	300	300	0	0	1067	46	1	0	ehrlich	retten	treu	helfen	spielen	lachen	eitel	rächen	tot	hindern	strafen	leiden	tolerant	freundlich	schön	fair	schlau	loyal	tyrannisch	fanatisch	schlecht	faul	schroff	lasch	1	blank2r.bmp	0	1	+	0	1	blank2r.bmp	500	1	BMVZ	500	1	blank2r.bmp	880	6	leiden	880	1	!	1292	1	!	-1	0	0	0	0	0	0
2024-05-29	11:59:01	12:07:01	479959	6.6.1	4_exp_EVA_AWA_CON	60	B	A	Rpleas_acq	Oppo	Rpleas	2pleas	acq_US_pleas_nomask	acq3_nomask	3	20	453	0	300	300	0	0	641	50	1	0	ehrlich	retten	treu	helfen	spielen	lachen	eitel	rächen	tot	hindern	strafen	leiden	tolerant	freundlich	schön	fair	schlau	loyal	tyrannisch	fanatisch	schlecht	faul	schroff	lasch	1	blank2r.bmp	0	1	+	0	1	blank2r.bmp	500	1	GKQX	500	1	blank2r.bmp	880	5	spielen	880	1	!	1292	1	!	-1	0	0	0	0	0	0
2024-05-29	11:59:01	12:07:05	484151	6.6.1	4_exp_EVA_AWA_CON	60	B	A	Rpleas_acq	Oppo	Rpleas	2pleas	acq_US_pleas_nomask	acq3_nomask	3	21	453	0	300	300	0	0	2411	50	1	0	ehrlich	retten	treu	helfen	spielen	lachen	eitel	rächen	tot	hindern	strafen	leiden	tolerant	freundlich	schön	fair	schlau	loyal	tyrannisch	fanatisch	schlecht	faul	schroff	lasch	1	blank2r.bmp	0	1	+	0	1	blank2r.bmp	500	1	GKQX	500	1	blank2r.bmp	880	3	treu	880	1	!	1292	1	!	-1	0	0	0	0	0	0
2024-05-29	11:59:01	12:07:08	486400	6.6.1	4_exp_EVA_AWA_CON	60	B	A	Rpleas_acq	Oppo	Rpleas	2pleas	acq_US_pleas_nomask	acq3_nomask	3	22	453	1	300	300	0	0	467	50	1	0	ehrlich	retten	treu	helfen	spielen	lachen	eitel	rächen	tot	hindern	strafen	leiden	tolerant	freundlich	schön	fair	schlau	loyal	tyrannisch	fanatisch	schlecht	faul	schroff	lasch	1	blank2r.bmp	0	1	+	0	1	blank2r.bmp	500	1	GKQX	500	1	blank2r.bmp	880	4	helfen	880	1	!	1292	1	!	1368	0	0	0	0	0	0
2024-05-29	11:59:01	12:07:10	488882	6.6.1	4_exp_EVA_AWA_CON	60	B	A	Rpleas_acq	Oppo	Rpleas	2pleas	acq_US_unple_nomask	acq3_nomask	3	23	453	1	300	300	0	0	505	50	0	0	ehrlich	retten	treu	helfen	spielen	lachen	eitel	rächen	tot	hindern	strafen	leiden	tolerant	freundlich	schön	fair	schlau	loyal	tyrannisch	fanatisch	schlecht	faul	schroff	lasch	1	blank2r.bmp	0	1	+	0	1	blank2r.bmp	500	1	BMVZ	500	1	blank2r.bmp	880	1	eitel	880	1	FEHLER	1699	1	!	1292	1	!	1407	0	0	0
2024-05-29	11:59:01	12:07:12	491103	6.6.1	4_exp_EVA_AWA_CON	60	B	A	Rpleas_acq	Oppo	Rpleas	2pleas	acq_US_unple_nomask	acq3_nomask	3	24	453	0	300	300	0	0	648	46	1	0	ehrlich	retten	treu	helfen	spielen	lachen	eitel	rächen	tot	hindern	strafen	leiden	tolerant	freundlich	schön	fair	schlau	loyal	tyrannisch	fanatisch	schlecht	faul	schroff	lasch	1	blank2r.bmp	0	1	+	0	1	blank2r.bmp	500	1	BMVZ	500	1	blank2r.bmp	880	3	tot	880	1	!	1293	1	!	-1	0	0	0	0	0	0
2024-05-29	11:59:01	12:07:14	493271	6.6.1	4_exp_EVA_AWA_CON	60	B	A	Rpleas_acq	Oppo	Rpleas	2pleas	acq_US_pleas_nomask	acq3_nomask	3	25	453	1	300	300	0	0	394	50	1	0	ehrlich	retten	treu	helfen	spielen	lachen	eitel	rächen	tot	hindern	strafen	leiden	tolerant	freundlich	schön	fair	schlau	loyal	tyrannisch	fanatisch	schlecht	faul	schroff	lasch	1	blank2r.bmp	0	1	+	0	1	blank2r.bmp	500	1	GKQX	500	1	blank2r.bmp	880	5	spielen	880	1	!	1292	1	!	1294	0	0	0	0	0	0
2024-05-29	11:59:01	12:07:17	495615	6.6.1	4_exp_EVA_AWA_CON	60	B	A	Rpleas_acq	Oppo	Rpleas	2pleas	acq_US_pleas_nomask	acq3_nomask	3	26	453	0	300	300	0	0	567	50	1	0	ehrlich	retten	treu	helfen	spielen	lachen	eitel	rächen	tot	hindern	strafen	leiden	tolerant	freundlich	schön	fair	schlau	loyal	tyrannisch	fanatisch	schlecht	faul	schroff	lasch	1	blank2r.bmp	0	1	+	0	1	blank2r.bmp	500	1	GKQX	500	1	blank2r.bmp	880	6	lachen	880	1	!	1292	1	!	-1	0	0	0	0	0	0
2024-05-29	11:59:01	12:07:19	497881	6.6.1	4_exp_EVA_AWA_CON	60	B	A	Rpleas_acq	Oppo	Rpleas	2pleas	acq_US_unple_nomask	acq3_nomask	3	27	453	1	300	300	0	0	489	46	1	0	ehrlich	retten	treu	helfen	spielen	lachen	eitel	rächen	tot	hindern	strafen	leiden	tolerant	freundlich	schön	fair	schlau	loyal	tyrannisch	fanatisch	schlecht	faul	schroff	lasch	1	blank2r.bmp	0	1	+	0	1	blank2r.bmp	500	1	BMVZ	500	1	blank2r.bmp	880	6	leiden	880	1	!	1292	1	!	1392	0	0	0	0	0	0
2024-05-29	11:59:01	12:07:21	500153	6.6.1	4_exp_EVA_AWA_CON	60	B	A	Rpleas_acq	Oppo	Rpleas	2pleas	acq_US_pleas_nomask	acq3_nomask	3	28	453	1	300	300	0	0	490	50	1	0	ehrlich	retten	treu	helfen	spielen	lachen	eitel	rächen	tot	hindern	strafen	leiden	tolerant	freundlich	schön	fair	schlau	loyal	tyrannisch	fanatisch	schlecht	faul	schroff	lasch	1	blank2r.bmp	0	1	+	0	1	blank2r.bmp	500	1	GKQX	500	1	blank2r.bmp	880	3	treu	880	1	!	1292	1	!	1392	0	0	0	0	0	0
2024-05-29	11:59:01	12:07:24	502385	6.6.1	4_exp_EVA_AWA_CON	60	B	A	Rpleas_acq	Oppo	Rpleas	2pleas	acq_US_unple_nomask	acq3_nomask	3	29	453	1	300	300	0	0	451	46	1	0	ehrlich	retten	treu	helfen	spielen	lachen	eitel	rächen	tot	hindern	strafen	leiden	tolerant	freundlich	schön	fair	schlau	loyal	tyrannisch	fanatisch	schlecht	faul	schroff	lasch	1	blank2r.bmp	0	1	+	0	1	blank2r.bmp	500	1	BMVZ	500	1	blank2r.bmp	880	2	rächen	880	1	!	1292	1	!	1352	0	0	0	0	0	0
2024-05-29	11:59:01	12:07:26	504751	6.6.1	4_exp_EVA_AWA_CON	60	B	A	Rpleas_acq	Oppo	Rpleas	2pleas	acq_US_unple_nomask	acq3_nomask	3	30	453	0	300	300	0	0	587	46	1	0	ehrlich	retten	treu	helfen	spielen	lachen	eitel	rächen	tot	hindern	strafen	leiden	tolerant	freundlich	schön	fair	schlau	loyal	tyrannisch	fanatisch	schlecht	faul	schroff	lasch	1	blank2r.bmp	0	1	+	0	1	blank2r.bmp	500	1	BMVZ	500	1	blank2r.bmp	880	3	tot	880	1	!	1292	1	!	-1	0	0	0	0	0	0
2024-05-29	11:59:01	12:07:28	507053	6.6.1	4_exp_EVA_AWA_CON	60	B	A	Rpleas_acq	Oppo	Rpleas	2pleas	acq_US_unple_nomask	acq3_nomask	3	31	453	0	300	300	0	0	530	46	1	0	ehrlich	retten	treu	helfen	spielen	lachen	eitel	rächen	tot	hindern	strafen	leiden	tolerant	freundlich	schön	fair	schlau	loyal	tyrannisch	fanatisch	schlecht	faul	schroff	lasch	1	blank2r.bmp	0	1	+	0	1	blank2r.bmp	500	1	BMVZ	500	1	blank2r.bmp	880	4	hindern	880	1	!	1292	1	!	-1	0	0	0	0	0	0
2024-05-29	11:59:01	12:07:31	509681	6.6.1	4_exp_EVA_AWA_CON	60	B	A	Rpleas_acq	Oppo	Rpleas	2pleas	acq_US_unple_nomask	acq3_nomask	3	32	453	0	300	300	0	0	652	50	0	0	ehrlich	retten	treu	helfen	spielen	lachen	eitel	rächen	tot	hindern	strafen	leiden	tolerant	freundlich	schön	fair	schlau	loyal	tyrannisch	fanatisch	schlecht	faul	schroff	lasch	1	blank2r.bmp	0	1	+	0	1	blank2r.bmp	500	1	BMVZ	500	1	blank2r.bmp	880	1	eitel	880	1	FEHLER	1845	1	!	1292	1	!	-1	0	0	0
2024-05-29	11:59:01	12:07:33	511839	6.6.1	4_exp_EVA_AWA_CON	60	B	A	Rpleas_acq	Oppo	Rpleas	2pleas	acq_US_pleas_nomask	acq3_nomask	3	33	453	0	300	300	0	0	581	50	1	0	ehrlich	retten	treu	helfen	spielen	lachen	eitel	rächen	tot	hindern	strafen	leiden	tolerant	freundlich	schön	fair	schlau	loyal	tyrannisch	fanatisch	schlecht	faul	schroff	lasch	1	blank2r.bmp	0	1	+	0	1	blank2r.bmp	500	1	GKQX	500	1	blank2r.bmp	880	1	ehrlich	880	1	!	1292	1	!	-1	0	0	0	0	0	0
2024-05-29	11:59:01	12:07:35	514313	6.6.1	4_exp_EVA_AWA_CON	60	B	A	Rpleas_acq	Oppo	Rpleas	2pleas	acq_US_pleas_nomask	acq3_nomask	3	34	453	1	300	300	0	0	491	46	0	0	ehrlich	retten	treu	helfen	spielen	lachen	eitel	rächen	tot	hindern	strafen	leiden	tolerant	freundlich	schön	fair	schlau	loyal	tyrannisch	fanatisch	schlecht	faul	schroff	lasch	1	blank2r.bmp	0	1	+	0	1	blank2r.bmp	500	1	GKQX	500	1	blank2r.bmp	880	4	helfen	880	1	FEHLER	1684	1	!	1292	1	!	1393	0	0	0
2024-05-29	11:59:01	12:07:38	516727	6.6.1	4_exp_EVA_AWA_CON	60	B	A	Rpleas_acq	Oppo	Rpleas	2pleas	acq_US_unple_nomask	acq3_nomask	3	35	453	0	300	300	0	0	836	46	1	0	ehrlich	retten	treu	helfen	spielen	lachen	eitel	rächen	tot	hindern	strafen	leiden	tolerant	freundlich	schön	fair	schlau	loyal	tyrannisch	fanatisch	schlecht	faul	schroff	lasch	1	blank2r.bmp	0	1	+	0	1	blank2r.bmp	500	1	BMVZ	500	1	blank2r.bmp	880	5	strafen	880	1	!	1292	1	!	-1	0	0	0	0	0	0
2024-05-29	11:59:01	12:07:40	519000	6.6.1	4_exp_EVA_AWA_CON	60	B	A	Rpleas_acq	Oppo	Rpleas	2pleas	acq_US_pleas_nomask	acq3_nomask	3	36	453	1	300	300	0	0	496	50	1	0	ehrlich	retten	treu	helfen	spielen	lachen	eitel	rächen	tot	hindern	strafen	leiden	tolerant	freundlich	schön	fair	schlau	loyal	tyrannisch	fanatisch	schlecht	faul	schroff	lasch	1	blank2r.bmp	0	1	+	0	1	blank2r.bmp	500	1	GKQX	500	1	blank2r.bmp	880	2	retten	880	1	!	1292	1	!	1397	0	0	0	0	0	0
2024-05-29	11:59:01	12:07:56	534985	6.6.1	4_exp_EVA_AWA_CON	60	B	A	Rpleas_acq	Oppo	Rpleas	2pleas	acq_US_unple_nomask	acq45_nomask	4	1	400	1	300	300	0	0	470	50	0	0	ehrlich	retten	treu	helfen	spielen	lachen	eitel	rächen	tot	hindern	strafen	leiden	tolerant	freundlich	schön	fair	schlau	loyal	tyrannisch	fanatisch	schlecht	faul	schroff	lasch	1	blank2r.bmp	0	1	+	0	1	blank2r.bmp	500	1	BMVZ	500	1	blank2r.bmp	880	1	eitel	880	1	!	1232	1	!	1372	0	0	0	0	0	0
2024-05-29	11:59:01	12:07:59	537623	6.6.1	4_exp_EVA_AWA_CON	60	B	A	Rpleas_acq	Oppo	Rpleas	2pleas	acq_US_unple_nomask	acq45_nomask	4	2	400	0	300	300	0	0	858	46	1	0	ehrlich	retten	treu	helfen	spielen	lachen	eitel	rächen	tot	hindern	strafen	leiden	tolerant	freundlich	schön	fair	schlau	loyal	tyrannisch	fanatisch	schlecht	faul	schroff	lasch	1	blank2r.bmp	0	1	+	0	1	blank2r.bmp	500	1	BMVZ	500	1	blank2r.bmp	880	4	hindern	880	1	!	1232	1	!	-1	0	0	0	0	0	0
2024-05-29	11:59:01	12:08:01	540007	6.6.1	4_exp_EVA_AWA_CON	60	B	A	Rpleas_acq	Oppo	Rpleas	2pleas	acq_US_unple_nomask	acq45_nomask	4	3	400	0	300	300	0	0	610	46	1	0	ehrlich	retten	treu	helfen	spielen	lachen	eitel	rächen	tot	hindern	strafen	leiden	tolerant	freundlich	schön	fair	schlau	loyal	tyrannisch	fanatisch	schlecht	faul	schroff	lasch	1	blank2r.bmp	0	1	+	0	1	blank2r.bmp	500	1	BMVZ	500	1	blank2r.bmp	880	5	strafen	880	1	!	1232	1	!	-1	0	0	0	0	0	0
2024-05-29	11:59:01	12:08:03	542303	6.6.1	4_exp_EVA_AWA_CON	60	B	A	Rpleas_acq	Oppo	Rpleas	2pleas	acq_US_pleas_nomask	acq45_nomask	4	4	400	0	300	300	0	0	515	50	1	0	ehrlich	retten	treu	helfen	spielen	lachen	eitel	rächen	tot	hindern	strafen	leiden	tolerant	freundlich	schön	fair	schlau	loyal	tyrannisch	fanatisch	schlecht	faul	schroff	lasch	1	blank2r.bmp	0	1	+	0	1	blank2r.bmp	500	1	GKQX	500	1	blank2r.bmp	880	1	ehrlich	880	1	!	1232	1	!	-1	0	0	0	0	0	0
2024-05-29	11:59:01	12:08:06	544544	6.6.1	4_exp_EVA_AWA_CON	60	B	A	Rpleas_acq	Oppo	Rpleas	2pleas	acq_US_unple_nomask	acq45_nomask	4	5	400	1	300	300	0	0	463	46	1	0	ehrlich	retten	treu	helfen	spielen	lachen	eitel	rächen	tot	hindern	strafen	leiden	tolerant	freundlich	schön	fair	schlau	loyal	tyrannisch	fanatisch	schlecht	faul	schroff	lasch	1	blank2r.bmp	0	1	+	0	1	blank2r.bmp	500	1	BMVZ	500	1	blank2r.bmp	880	2	rächen	880	1	!	1232	1	!	1365	0	0	0	0	0	0
2024-05-29	11:59:01	12:08:08	546793	6.6.1	4_exp_EVA_AWA_CON	60	B	A	Rpleas_acq	Oppo	Rpleas	2pleas	acq_US_unple_nomask	acq45_nomask	4	6	400	1	300	300	0	0	470	50	0	0	ehrlich	retten	treu	helfen	spielen	lachen	eitel	rächen	tot	hindern	strafen	leiden	tolerant	freundlich	schön	fair	schlau	loyal	tyrannisch	fanatisch	schlecht	faul	schroff	lasch	1	blank2r.bmp	0	1	+	0	1	blank2r.bmp	500	1	BMVZ	500	1	blank2r.bmp	880	6	leiden	880	1	!	1232	1	!	1372	0	0	0	0	0	0
2024-05-29	11:59:01	12:08:11	549567	6.6.1	4_exp_EVA_AWA_CON	60	B	A	Rpleas_acq	Oppo	Rpleas	2pleas	acq_US_pleas_nomask	acq45_nomask	4	7	400	0	300	300	0	0	995	50	1	0	ehrlich	retten	treu	helfen	spielen	lachen	eitel	rächen	tot	hindern	strafen	leiden	tolerant	freundlich	schön	fair	schlau	loyal	tyrannisch	fanatisch	schlecht	faul	schroff	lasch	1	blank2r.bmp	0	1	+	0	1	blank2r.bmp	500	1	GKQX	500	1	blank2r.bmp	880	3	treu	880	1	!	1232	1	!	-1	0	0	0	0	0	0
2024-05-29	11:59:01	12:08:13	551839	6.6.1	4_exp_EVA_AWA_CON	60	B	A	Rpleas_acq	Oppo	Rpleas	2pleas	acq_US_pleas_nomask	acq45_nomask	4	8	400	0	300	300	0	0	495	50	1	0	ehrlich	retten	treu	helfen	spielen	lachen	eitel	rächen	tot	hindern	strafen	leiden	tolerant	freundlich	schön	fair	schlau	loyal	tyrannisch	fanatisch	schlecht	faul	schroff	lasch	1	blank2r.bmp	0	1	+	0	1	blank2r.bmp	500	1	GKQX	500	1	blank2r.bmp	880	6	lachen	880	1	!	1232	1	!	-1	0	0	0	0	0	0
2024-05-29	11:59:01	12:08:15	554319	6.6.1	4_exp_EVA_AWA_CON	60	B	A	Rpleas_acq	Oppo	Rpleas	2pleas	acq_US_pleas_nomask	acq45_nomask	4	9	400	0	300	300	0	0	703	50	1	0	ehrlich	retten	treu	helfen	spielen	lachen	eitel	rächen	tot	hindern	strafen	leiden	tolerant	freundlich	schön	fair	schlau	loyal	tyrannisch	fanatisch	schlecht	faul	schroff	lasch	1	blank2r.bmp	0	1	+	0	1	blank2r.bmp	500	1	GKQX	500	1	blank2r.bmp	880	4	helfen	880	1	!	1232	1	!	-1	0	0	0	0	0	0
2024-05-29	11:59:01	12:08:18	556552	6.6.1	4_exp_EVA_AWA_CON	60	B	A	Rpleas_acq	Oppo	Rpleas	2pleas	acq_US_pleas_nomask	acq45_nomask	4	10	400	1	300	300	0	0	454	50	1	0	ehrlich	retten	treu	helfen	spielen	lachen	eitel	rächen	tot	hindern	strafen	leiden	tolerant	freundlich	schön	fair	schlau	loyal	tyrannisch	fanatisch	schlecht	faul	schroff	lasch	1	blank2r.bmp	0	1	+	0	1	blank2r.bmp	500	1	GKQX	500	1	blank2r.bmp	880	5	spielen	880	1	!	1232	1	!	1355	0	0	0	0	0	0
2024-05-29	11:59:01	12:08:20	558761	6.6.1	4_exp_EVA_AWA_CON	60	B	A	Rpleas_acq	Oppo	Rpleas	2pleas	acq_US_unple_nomask	acq45_nomask	4	11	400	1	300	300	0	0	430	46	1	0	ehrlich	retten	treu	helfen	spielen	lachen	eitel	rächen	tot	hindern	strafen	leiden	tolerant	freundlich	schön	fair	schlau	loyal	tyrannisch	fanatisch	schlecht	faul	schroff	lasch	1	blank2r.bmp	0	1	+	0	1	blank2r.bmp	500	1	BMVZ	500	1	blank2r.bmp	880	3	tot	880	1	!	1232	1	!	1332	0	0	0	0	0	0
2024-05-29	11:59:01	12:08:22	561021	6.6.1	4_exp_EVA_AWA_CON	60	B	A	Rpleas_acq	Oppo	Rpleas	2pleas	acq_US_unple_nomask	acq45_nomask	4	12	400	0	300	300	0	0	483	50	0	0	ehrlich	retten	treu	helfen	spielen	lachen	eitel	rächen	tot	hindern	strafen	leiden	tolerant	freundlich	schön	fair	schlau	loyal	tyrannisch	fanatisch	schlecht	faul	schroff	lasch	1	blank2r.bmp	0	1	+	0	1	blank2r.bmp	500	1	BMVZ	500	1	blank2r.bmp	880	2	rächen	880	1	!	1232	1	!	-1	0	0	0	0	0	0
2024-05-29	11:59:01	12:08:24	563343	6.6.1	4_exp_EVA_AWA_CON	60	B	A	Rpleas_acq	Oppo	Rpleas	2pleas	acq_US_pleas_nomask	acq45_nomask	4	13	400	0	300	300	0	0	541	50	1	0	ehrlich	retten	treu	helfen	spielen	lachen	eitel	rächen	tot	hindern	strafen	leiden	tolerant	freundlich	schön	fair	schlau	loyal	tyrannisch	fanatisch	schlecht	faul	schroff	lasch	1	blank2r.bmp	0	1	+	0	1	blank2r.bmp	500	1	GKQX	500	1	blank2r.bmp	880	2	retten	880	1	!	1232	1	!	-1	0	0	0	0	0	0
2024-05-29	11:59:01	12:08:27	565597	6.6.1	4_exp_EVA_AWA_CON	60	B	A	Rpleas_acq	Oppo	Rpleas	2pleas	acq_US_pleas_nomask	acq45_nomask	4	14	400	0	300	300	0	0	476	50	1	0	ehrlich	retten	treu	helfen	spielen	lachen	eitel	rächen	tot	hindern	strafen	leiden	tolerant	freundlich	schön	fair	schlau	loyal	tyrannisch	fanatisch	schlecht	faul	schroff	lasch	1	blank2r.bmp	0	1	+	0	1	blank2r.bmp	500	1	GKQX	500	1	blank2r.bmp	880	4	helfen	880	1	!	1232	1	!	-1	0	0	0	0	0	0
2024-05-29	11:59:01	12:08:29	567895	6.6.1	4_exp_EVA_AWA_CON	60	B	A	Rpleas_acq	Oppo	Rpleas	2pleas	acq_US_pleas_nomask	acq45_nomask	4	15	400	0	300	300	0	0	521	50	1	0	ehrlich	retten	treu	helfen	spielen	lachen	eitel	rächen	tot	hindern	strafen	leiden	tolerant	freundlich	schön	fair	schlau	loyal	tyrannisch	fanatisch	schlecht	faul	schroff	lasch	1	blank2r.bmp	0	1	+	0	1	blank2r.bmp	500	1	GKQX	500	1	blank2r.bmp	880	2	retten	880	1	!	1232	1	!	-1	0	0	0	0	0	0
2024-05-29	11:59:01	12:08:31	570112	6.6.1	4_exp_EVA_AWA_CON	60	B	A	Rpleas_acq	Oppo	Rpleas	2pleas	acq_US_unple_nomask	acq45_nomask	4	16	400	1	300	300	0	0	435	46	1	0	ehrlich	retten	treu	helfen	spielen	lachen	eitel	rächen	tot	hindern	strafen	leiden	tolerant	freundlich	schön	fair	schlau	loyal	tyrannisch	fanatisch	schlecht	faul	schroff	lasch	1	blank2r.bmp	0	1	+	0	1	blank2r.bmp	500	1	BMVZ	500	1	blank2r.bmp	880	5	strafen	880	1	!	1232	1	!	1336	0	0	0	0	0	0
2024-05-29	11:59:01	12:08:34	572535	6.6.1	4_exp_EVA_AWA_CON	60	B	A	Rpleas_acq	Oppo	Rpleas	2pleas	acq_US_unple_nomask	acq45_nomask	4	17	400	0	300	300	0	0	648	46	1	0	ehrlich	retten	treu	helfen	spielen	lachen	eitel	rächen	tot	hindern	strafen	leiden	tolerant	freundlich	schön	fair	schlau	loyal	tyrannisch	fanatisch	schlecht	faul	schroff	lasch	1	blank2r.bmp	0	1	+	0	1	blank2r.bmp	500	1	BMVZ	500	1	blank2r.bmp	880	4	hindern	880	1	!	1232	1	!	-1	0	0	0	0	0	0
2024-05-29	11:59:01	12:08:36	574744	6.6.1	4_exp_EVA_AWA_CON	60	B	A	Rpleas_acq	Oppo	Rpleas	2pleas	acq_US_pleas_nomask	acq45_nomask	4	18	400	1	300	300	0	0	434	50	1	0	ehrlich	retten	treu	helfen	spielen	lachen	eitel	rächen	tot	hindern	strafen	leiden	tolerant	freundlich	schön	fair	schlau	loyal	tyrannisch	fanatisch	schlecht	faul	schroff	lasch	1	blank2r.bmp	0	1	+	0	1	blank2r.bmp	500	1	GKQX	500	1	blank2r.bmp	880	6	lachen	880	1	!	1232	1	!	1335	0	0	0	0	0	0
2024-05-29	11:59:01	12:08:38	576944	6.6.1	4_exp_EVA_AWA_CON	60	B	A	Rpleas_acq	Oppo	Rpleas	2pleas	acq_US_pleas_nomask	acq45_nomask	4	19	400	1	300	300	0	0	423	50	1	0	ehrlich	retten	treu	helfen	spielen	lachen	eitel	rächen	tot	hindern	strafen	leiden	tolerant	freundlich	schön	fair	schlau	loyal	tyrannisch	fanatisch	schlecht	faul	schroff	lasch	1	blank2r.bmp	0	1	+	0	1	blank2r.bmp	500	1	GKQX	500	1	blank2r.bmp	880	5	spielen	880	1	!	1232	1	!	1324	0	0	0	0	0	0
2024-05-29	11:59:01	12:08:41	579351	6.6.1	4_exp_EVA_AWA_CON	60	B	A	Rpleas_acq	Oppo	Rpleas	2pleas	acq_US_unple_nomask	acq45_nomask	4	20	400	0	300	300	0	0	629	50	0	0	ehrlich	retten	treu	helfen	spielen	lachen	eitel	rächen	tot	hindern	strafen	leiden	tolerant	freundlich	schön	fair	schlau	loyal	tyrannisch	fanatisch	schlecht	faul	schroff	lasch	1	blank2r.bmp	0	1	+	0	1	blank2r.bmp	500	1	BMVZ	500	1	blank2r.bmp	880	1	eitel	880	1	!	1232	1	!	-1	0	0	0	0	0	0
2024-05-29	11:59:01	12:08:43	581528	6.6.1	4_exp_EVA_AWA_CON	60	B	A	Rpleas_acq	Oppo	Rpleas	2pleas	acq_US_unple_nomask	acq45_nomask	4	21	400	1	300	300	0	0	394	50	0	0	ehrlich	retten	treu	helfen	spielen	lachen	eitel	rächen	tot	hindern	strafen	leiden	tolerant	freundlich	schön	fair	schlau	loyal	tyrannisch	fanatisch	schlecht	faul	schroff	lasch	1	blank2r.bmp	0	1	+	0	1	blank2r.bmp	500	1	BMVZ	500	1	blank2r.bmp	880	6	leiden	880	1	!	1232	1	!	1295	0	0	0	0	0	0
2024-05-29	11:59:01	12:08:45	583705	6.6.1	4_exp_EVA_AWA_CON	60	B	A	Rpleas_acq	Oppo	Rpleas	2pleas	acq_US_unple_nomask	acq45_nomask	4	22	400	1	300	300	0	0	398	46	1	0	ehrlich	retten	treu	helfen	spielen	lachen	eitel	rächen	tot	hindern	strafen	leiden	tolerant	freundlich	schön	fair	schlau	loyal	tyrannisch	fanatisch	schlecht	faul	schroff	lasch	1	blank2r.bmp	0	1	+	0	1	blank2r.bmp	500	1	BMVZ	500	1	blank2r.bmp	880	3	tot	880	1	!	1232	1	!	1300	0	0	0	0	0	0
2024-05-29	11:59:01	12:08:47	586071	6.6.1	4_exp_EVA_AWA_CON	60	B	A	Rpleas_acq	Oppo	Rpleas	2pleas	acq_US_unple_nomask	acq45_nomask	4	23	400	0	300	300	0	0	585	46	1	0	ehrlich	retten	treu	helfen	spielen	lachen	eitel	rächen	tot	hindern	strafen	leiden	tolerant	freundlich	schön	fair	schlau	loyal	tyrannisch	fanatisch	schlecht	faul	schroff	lasch	1	blank2r.bmp	0	1	+	0	1	blank2r.bmp	500	1	BMVZ	500	1	blank2r.bmp	880	4	hindern	880	1	!	1232	1	!	-1	0	0	0	0	0	0
2024-05-29	11:59:01	12:08:50	588415	6.6.1	4_exp_EVA_AWA_CON	60	B	A	Rpleas_acq	Oppo	Rpleas	2pleas	acq_US_unple_nomask	acq45_nomask	4	24	400	0	300	300	0	0	567	46	1	0	ehrlich	retten	treu	helfen	spielen	lachen	eitel	rächen	tot	hindern	strafen	leiden	tolerant	freundlich	schön	fair	schlau	loyal	tyrannisch	fanatisch	schlecht	faul	schroff	lasch	1	blank2r.bmp	0	1	+	0	1	blank2r.bmp	500	1	BMVZ	500	1	blank2r.bmp	880	5	strafen	880	1	!	1232	1	!	-1	0	0	0	0	0	0
2024-05-29	11:59:01	12:08:52	590703	6.6.1	4_exp_EVA_AWA_CON	60	B	A	Rpleas_acq	Oppo	Rpleas	2pleas	acq_US_unple_nomask	acq45_nomask	4	25	400	0	300	300	0	0	514	46	1	0	ehrlich	retten	treu	helfen	spielen	lachen	eitel	rächen	tot	hindern	strafen	leiden	tolerant	freundlich	schön	fair	schlau	loyal	tyrannisch	fanatisch	schlecht	faul	schroff	lasch	1	blank2r.bmp	0	1	+	0	1	blank2r.bmp	500	1	BMVZ	500	1	blank2r.bmp	880	2	rächen	880	1	!	1232	1	!	-1	0	0	0	0	0	0
2024-05-29	11:59:01	12:08:54	592983	6.6.1	4_exp_EVA_AWA_CON	60	B	A	Rpleas_acq	Oppo	Rpleas	2pleas	acq_US_unple_nomask	acq45_nomask	4	26	400	0	300	300	0	0	502	46	1	0	ehrlich	retten	treu	helfen	spielen	lachen	eitel	rächen	tot	hindern	strafen	leiden	tolerant	freundlich	schön	fair	schlau	loyal	tyrannisch	fanatisch	schlecht	faul	schroff	lasch	1	blank2r.bmp	0	1	+	0	1	blank2r.bmp	500	1	BMVZ	500	1	blank2r.bmp	880	3	tot	880	1	!	1232	1	!	-1	0	0	0	0	0	0
2024-05-29	11:59:01	12:08:56	595303	6.6.1	4_exp_EVA_AWA_CON	60	B	A	Rpleas_acq	Oppo	Rpleas	2pleas	acq_US_pleas_nomask	acq45_nomask	4	27	400	0	300	300	0	0	541	46	0	0	ehrlich	retten	treu	helfen	spielen	lachen	eitel	rächen	tot	hindern	strafen	leiden	tolerant	freundlich	schön	fair	schlau	loyal	tyrannisch	fanatisch	schlecht	faul	schroff	lasch	1	blank2r.bmp	0	1	+	0	1	blank2r.bmp	500	1	GKQX	500	1	blank2r.bmp	880	3	treu	880	1	!	1232	1	!	-1	0	0	0	0	0	0
2024-05-29	11:59:01	12:09:00	598455	6.6.1	4_exp_EVA_AWA_CON	60	B	A	Rpleas_acq	Oppo	Rpleas	2pleas	acq_US_pleas_nomask	acq45_nomask	4	28	400	0	300	300	0	0	1371	50	1	0	ehrlich	retten	treu	helfen	spielen	lachen	eitel	rächen	tot	hindern	strafen	leiden	tolerant	freundlich	schön	fair	schlau	loyal	tyrannisch	fanatisch	schlecht	faul	schroff	lasch	1	blank2r.bmp	0	1	+	0	1	blank2r.bmp	500	1	GKQX	500	1	blank2r.bmp	880	1	ehrlich	880	1	!	1232	1	!	-1	0	0	0	0	0	0
2024-05-29	11:59:01	12:09:02	600831	6.6.1	4_exp_EVA_AWA_CON	60	B	A	Rpleas_acq	Oppo	Rpleas	2pleas	acq_US_unple_nomask	acq45_nomask	4	29	400	0	300	300	0	0	595	46	1	0	ehrlich	retten	treu	helfen	spielen	lachen	eitel	rächen	tot	hindern	strafen	leiden	tolerant	freundlich	schön	fair	schlau	loyal	tyrannisch	fanatisch	schlecht	faul	schroff	lasch	1	blank2r.bmp	0	1	+	0	1	blank2r.bmp	500	1	BMVZ	500	1	blank2r.bmp	880	6	leiden	880	1	!	1232	1	!	-1	0	0	0	0	0	0
2024-05-29	11:59:01	12:09:04	603049	6.6.1	4_exp_EVA_AWA_CON	60	B	A	Rpleas_acq	Oppo	Rpleas	2pleas	acq_US_pleas_nomask	acq45_nomask	4	30	400	1	300	300	0	0	440	50	1	0	ehrlich	retten	treu	helfen	spielen	lachen	eitel	rächen	tot	hindern	strafen	leiden	tolerant	freundlich	schön	fair	schlau	loyal	tyrannisch	fanatisch	schlecht	faul	schroff	lasch	1	blank2r.bmp	0	1	+	0	1	blank2r.bmp	500	1	GKQX	500	1	blank2r.bmp	880	6	lachen	880	1	!	1232	1	!	1342	0	0	0	0	0	0
2024-05-29	11:59:01	12:09:07	605471	6.6.1	4_exp_EVA_AWA_CON	60	B	A	Rpleas_acq	Oppo	Rpleas	2pleas	acq_US_pleas_nomask	acq45_nomask	4	31	400	0	300	300	0	0	642	50	1	0	ehrlich	retten	treu	helfen	spielen	lachen	eitel	rächen	tot	hindern	strafen	leiden	tolerant	freundlich	schön	fair	schlau	loyal	tyrannisch	fanatisch	schlecht	faul	schroff	lasch	1	blank2r.bmp	0	1	+	0	1	blank2r.bmp	500	1	GKQX	500	1	blank2r.bmp	880	2	retten	880	1	!	1232	1	!	-1	0	0	0	0	0	0
2024-05-29	11:59:01	12:09:09	607624	6.6.1	4_exp_EVA_AWA_CON	60	B	A	Rpleas_acq	Oppo	Rpleas	2pleas	acq_US_pleas_nomask	acq45_nomask	4	32	400	1	300	300	0	0	373	50	1	0	ehrlich	retten	treu	helfen	spielen	lachen	eitel	rächen	tot	hindern	strafen	leiden	tolerant	freundlich	schön	fair	schlau	loyal	tyrannisch	fanatisch	schlecht	faul	schroff	lasch	1	blank2r.bmp	0	1	+	0	1	blank2r.bmp	500	1	GKQX	500	1	blank2r.bmp	880	5	spielen	880	1	!	1232	1	!	1274	0	0	0	0	0	0
2024-05-29	11:59:01	12:09:11	609887	6.6.1	4_exp_EVA_AWA_CON	60	B	A	Rpleas_acq	Oppo	Rpleas	2pleas	acq_US_unple_nomask	acq45_nomask	4	33	400	0	300	300	0	0	486	50	0	0	ehrlich	retten	treu	helfen	spielen	lachen	eitel	rächen	tot	hindern	strafen	leiden	tolerant	freundlich	schön	fair	schlau	loyal	tyrannisch	fanatisch	schlecht	faul	schroff	lasch	1	blank2r.bmp	0	1	+	0	1	blank2r.bmp	500	1	BMVZ	500	1	blank2r.bmp	880	1	eitel	880	1	!	1232	1	!	-1	0	0	0	0	0	0
2024-05-29	11:59:01	12:09:14	612703	6.6.1	4_exp_EVA_AWA_CON	60	B	A	Rpleas_acq	Oppo	Rpleas	2pleas	acq_US_pleas_nomask	acq45_nomask	4	34	400	0	300	300	0	0	1040	50	1	0	ehrlich	retten	treu	helfen	spielen	lachen	eitel	rächen	tot	hindern	strafen	leiden	tolerant	freundlich	schön	fair	schlau	loyal	tyrannisch	fanatisch	schlecht	faul	schroff	lasch	1	blank2r.bmp	0	1	+	0	1	blank2r.bmp	500	1	GKQX	500	1	blank2r.bmp	880	3	treu	880	1	!	1232	1	!	-1	0	0	0	0	0	0
2024-05-29	11:59:01	12:09:17	615367	6.6.1	4_exp_EVA_AWA_CON	60	B	A	Rpleas_acq	Oppo	Rpleas	2pleas	acq_US_pleas_nomask	acq45_nomask	4	35	400	0	300	300	0	0	882	50	1	0	ehrlich	retten	treu	helfen	spielen	lachen	eitel	rächen	tot	hindern	strafen	leiden	tolerant	freundlich	schön	fair	schlau	loyal	tyrannisch	fanatisch	schlecht	faul	schroff	lasch	1	blank2r.bmp	0	1	+	0	1	blank2r.bmp	500	1	GKQX	500	1	blank2r.bmp	880	1	ehrlich	880	1	!	1232	1	!	-1	0	0	0	0	0	0
2024-05-29	11:59:01	12:09:19	617487	6.6.1	4_exp_EVA_AWA_CON	60	B	A	Rpleas_acq	Oppo	Rpleas	2pleas	acq_US_pleas_nomask	acq45_nomask	4	36	400	1	300	300	0	0	341	50	1	0	ehrlich	retten	treu	helfen	spielen	lachen	eitel	rächen	tot	hindern	strafen	leiden	tolerant	freundlich	schön	fair	schlau	loyal	tyrannisch	fanatisch	schlecht	faul	schroff	lasch	1	blank2r.bmp	0	1	+	0	1	blank2r.bmp	500	1	GKQX	500	1	blank2r.bmp	880	4	helfen	880	1	!	1232	1	!	1240	0	0	0	0	0	0
2024-05-29	11:59:01	12:09:31	630183	6.6.1	4_exp_EVA_AWA_CON	60	B	A	Rpleas_acq	Oppo	Rpleas	2pleas	acq_US_pleas_nomask	acq45_nomask	5	1	400	0	300	300	0	0	1179	50	1	0	ehrlich	retten	treu	helfen	spielen	lachen	eitel	rächen	tot	hindern	strafen	leiden	tolerant	freundlich	schön	fair	schlau	loyal	tyrannisch	fanatisch	schlecht	faul	schroff	lasch	1	blank2r.bmp	0	1	+	0	1	blank2r.bmp	500	1	GKQX	500	1	blank2r.bmp	880	6	lachen	880	1	!	1232	1	!	-1	0	0	0	0	0	0
2024-05-29	11:59:01	12:09:34	632510	6.6.1	4_exp_EVA_AWA_CON	60	B	A	Rpleas_acq	Oppo	Rpleas	2pleas	acq_US_unple_nomask	acq45_nomask	5	2	400	0	300	300	0	0	545	46	1	0	ehrlich	retten	treu	helfen	spielen	lachen	eitel	rächen	tot	hindern	strafen	leiden	tolerant	freundlich	schön	fair	schlau	loyal	tyrannisch	fanatisch	schlecht	faul	schroff	lasch	1	blank2r.bmp	0	1	+	0	1	blank2r.bmp	500	1	BMVZ	500	1	blank2r.bmp	880	3	tot	880	1	!	1232	1	!	-1	0	0	0	0	0	0
2024-05-29	11:59:01	12:09:36	634712	6.6.1	4_exp_EVA_AWA_CON	60	B	A	Rpleas_acq	Oppo	Rpleas	2pleas	acq_US_unple_nomask	acq45_nomask	5	3	400	1	300	300	0	0	424	50	0	0	ehrlich	retten	treu	helfen	spielen	lachen	eitel	rächen	tot	hindern	strafen	leiden	tolerant	freundlich	schön	fair	schlau	loyal	tyrannisch	fanatisch	schlecht	faul	schroff	lasch	1	blank2r.bmp	0	1	+	0	1	blank2r.bmp	500	1	BMVZ	500	1	blank2r.bmp	880	2	rächen	880	1	!	1232	1	!	1325	0	0	0	0	0	0
2024-05-29	11:59:01	12:09:39	637383	6.6.1	4_exp_EVA_AWA_CON	60	B	A	Rpleas_acq	Oppo	Rpleas	2pleas	acq_US_pleas_nomask	acq45_nomask	5	4	400	0	300	300	0	0	894	50	1	0	ehrlich	retten	treu	helfen	spielen	lachen	eitel	rächen	tot	hindern	strafen	leiden	tolerant	freundlich	schön	fair	schlau	loyal	tyrannisch	fanatisch	schlecht	faul	schroff	lasch	1	blank2r.bmp	0	1	+	0	1	blank2r.bmp	500	1	GKQX	500	1	blank2r.bmp	880	1	ehrlich	880	1	!	1232	1	!	-1	0	0	0	0	0	0
2024-05-29	11:59:01	12:09:41	640079	6.6.1	4_exp_EVA_AWA_CON	60	B	A	Rpleas_acq	Oppo	Rpleas	2pleas	acq_US_pleas_nomask	acq45_nomask	5	5	400	0	300	300	0	0	918	50	1	0	ehrlich	retten	treu	helfen	spielen	lachen	eitel	rächen	tot	hindern	strafen	leiden	tolerant	freundlich	schön	fair	schlau	loyal	tyrannisch	fanatisch	schlecht	faul	schroff	lasch	1	blank2r.bmp	0	1	+	0	1	blank2r.bmp	500	1	GKQX	500	1	blank2r.bmp	880	3	treu	880	1	!	1232	1	!	-1	0	0	0	0	0	0
2024-05-29	11:59:01	12:09:44	642863	6.6.1	4_exp_EVA_AWA_CON	60	B	A	Rpleas_acq	Oppo	Rpleas	2pleas	acq_US_pleas_nomask	acq45_nomask	5	6	400	0	300	300	0	0	1011	50	1	0	ehrlich	retten	treu	helfen	spielen	lachen	eitel	rächen	tot	hindern	strafen	leiden	tolerant	freundlich	schön	fair	schlau	loyal	tyrannisch	fanatisch	schlecht	faul	schroff	lasch	1	blank2r.bmp	0	1	+	0	1	blank2r.bmp	500	1	GKQX	500	1	blank2r.bmp	880	2	retten	880	1	!	1232	1	!	-1	0	0	0	0	0	0
2024-05-29	11:59:01	12:09:46	645088	6.6.1	4_exp_EVA_AWA_CON	60	B	A	Rpleas_acq	Oppo	Rpleas	2pleas	acq_US_pleas_nomask	acq45_nomask	5	7	400	1	300	300	0	0	443	50	1	0	ehrlich	retten	treu	helfen	spielen	lachen	eitel	rächen	tot	hindern	strafen	leiden	tolerant	freundlich	schön	fair	schlau	loyal	tyrannisch	fanatisch	schlecht	faul	schroff	lasch	1	blank2r.bmp	0	1	+	0	1	blank2r.bmp	500	1	GKQX	500	1	blank2r.bmp	880	5	spielen	880	1	!	1232	1	!	1344	0	0	0	0	0	0
2024-05-29	11:59:01	12:09:49	647382	6.6.1	4_exp_EVA_AWA_CON	60	B	A	Rpleas_acq	Oppo	Rpleas	2pleas	acq_US_unple_nomask	acq45_nomask	5	8	400	0	300	300	0	0	517	46	1	0	ehrlich	retten	treu	helfen	spielen	lachen	eitel	rächen	tot	hindern	strafen	leiden	tolerant	freundlich	schön	fair	schlau	loyal	tyrannisch	fanatisch	schlecht	faul	schroff	lasch	1	blank2r.bmp	0	1	+	0	1	blank2r.bmp	500	1	BMVZ	500	1	blank2r.bmp	880	4	hindern	880	1	!	1232	1	!	-1	0	0	0	0	0	0
2024-05-29	11:59:01	12:09:51	649629	6.6.1	4_exp_EVA_AWA_CON	60	B	A	Rpleas_acq	Oppo	Rpleas	2pleas	acq_US_unple_nomask	acq45_nomask	5	9	400	0	300	300	0	0	474	50	0	0	ehrlich	retten	treu	helfen	spielen	lachen	eitel	rächen	tot	hindern	strafen	leiden	tolerant	freundlich	schön	fair	schlau	loyal	tyrannisch	fanatisch	schlecht	faul	schroff	lasch	1	blank2r.bmp	0	1	+	0	1	blank2r.bmp	500	1	BMVZ	500	1	blank2r.bmp	880	5	strafen	880	1	!	1232	1	!	-1	0	0	0	0	0	0
2024-05-29	11:59:01	12:09:53	651872	6.6.1	4_exp_EVA_AWA_CON	60	B	A	Rpleas_acq	Oppo	Rpleas	2pleas	acq_US_unple_nomask	acq45_nomask	5	10	400	1	300	300	0	0	463	46	1	0	ehrlich	retten	treu	helfen	spielen	lachen	eitel	rächen	tot	hindern	strafen	leiden	tolerant	freundlich	schön	fair	schlau	loyal	tyrannisch	fanatisch	schlecht	faul	schroff	lasch	1	blank2r.bmp	0	1	+	0	1	blank2r.bmp	500	1	BMVZ	500	1	blank2r.bmp	880	6	leiden	880	1	!	1232	1	!	1364	0	0	0	0	0	0
2024-05-29	11:59:01	12:09:55	654088	6.6.1	4_exp_EVA_AWA_CON	60	B	A	Rpleas_acq	Oppo	Rpleas	2pleas	acq_US_unple_nomask	acq45_nomask	5	11	400	1	300	300	0	0	437	46	1	0	ehrlich	retten	treu	helfen	spielen	lachen	eitel	rächen	tot	hindern	strafen	leiden	tolerant	freundlich	schön	fair	schlau	loyal	tyrannisch	fanatisch	schlecht	faul	schroff	lasch	1	blank2r.bmp	0	1	+	0	1	blank2r.bmp	500	1	BMVZ	500	1	blank2r.bmp	880	1	eitel	880	1	!	1232	1	!	1338	0	0	0	0	0	0
2024-05-29	11:59:01	12:09:57	656248	6.6.1	4_exp_EVA_AWA_CON	60	B	A	Rpleas_acq	Oppo	Rpleas	2pleas	acq_US_pleas_nomask	acq45_nomask	5	12	400	1	300	300	0	0	386	50	1	0	ehrlich	retten	treu	helfen	spielen	lachen	eitel	rächen	tot	hindern	strafen	leiden	tolerant	freundlich	schön	fair	schlau	loyal	tyrannisch	fanatisch	schlecht	faul	schroff	lasch	1	blank2r.bmp	0	1	+	0	1	blank2r.bmp	500	1	GKQX	500	1	blank2r.bmp	880	4	helfen	880	1	!	1232	1	!	1287	0	0	0	0	0	0
2024-05-29	11:59:01	12:10:00	658575	6.6.1	4_exp_EVA_AWA_CON	60	B	A	Rpleas_acq	Oppo	Rpleas	2pleas	acq_US_unple_nomask	acq45_nomask	5	13	400	0	300	300	0	0	552	46	1	0	ehrlich	retten	treu	helfen	spielen	lachen	eitel	rächen	tot	hindern	strafen	leiden	tolerant	freundlich	schön	fair	schlau	loyal	tyrannisch	fanatisch	schlecht	faul	schroff	lasch	1	blank2r.bmp	0	1	+	0	1	blank2r.bmp	500	1	BMVZ	500	1	blank2r.bmp	880	1	eitel	880	1	!	1232	1	!	-1	0	0	0	0	0	0
2024-05-29	11:59:01	12:10:02	660720	6.6.1	4_exp_EVA_AWA_CON	60	B	A	Rpleas_acq	Oppo	Rpleas	2pleas	acq_US_pleas_nomask	acq45_nomask	5	14	400	1	300	300	0	0	365	50	1	0	ehrlich	retten	treu	helfen	spielen	lachen	eitel	rächen	tot	hindern	strafen	leiden	tolerant	freundlich	schön	fair	schlau	loyal	tyrannisch	fanatisch	schlecht	faul	schroff	lasch	1	blank2r.bmp	0	1	+	0	1	blank2r.bmp	500	1	GKQX	500	1	blank2r.bmp	880	6	lachen	880	1	!	1232	1	!	1266	0	0	0	0	0	0
2024-05-29	11:59:01	12:10:04	662783	6.6.1	4_exp_EVA_AWA_CON	60	B	A	Rpleas_acq	Oppo	Rpleas	2pleas	acq_US_pleas_nomask	acq45_nomask	5	15	400	0	300	300	0	0	287	46	0	0	ehrlich	retten	treu	helfen	spielen	lachen	eitel	rächen	tot	hindern	strafen	leiden	tolerant	freundlich	schön	fair	schlau	loyal	tyrannisch	fanatisch	schlecht	faul	schroff	lasch	1	blank2r.bmp	0	1	+	0	1	blank2r.bmp	500	1	GKQX	500	1	blank2r.bmp	880	1	ehrlich	880	1	!	-1	1	!	-1	0	0	0	0	0	0
2024-05-29	11:59:01	12:10:06	664960	6.6.1	4_exp_EVA_AWA_CON	60	B	A	Rpleas_acq	Oppo	Rpleas	2pleas	acq_US_pleas_nomask	acq45_nomask	5	16	400	1	300	300	0	0	402	50	1	0	ehrlich	retten	treu	helfen	spielen	lachen	eitel	rächen	tot	hindern	strafen	leiden	tolerant	freundlich	schön	fair	schlau	loyal	tyrannisch	fanatisch	schlecht	faul	schroff	lasch	1	blank2r.bmp	0	1	+	0	1	blank2r.bmp	500	1	GKQX	500	1	blank2r.bmp	880	5	spielen	880	1	!	1232	1	!	1303	0	0	0	0	0	0
2024-05-29	11:59:01	12:10:08	667263	6.6.1	4_exp_EVA_AWA_CON	60	B	A	Rpleas_acq	Oppo	Rpleas	2pleas	acq_US_unple_nomask	acq45_nomask	5	17	400	0	300	300	0	0	525	46	1	0	ehrlich	retten	treu	helfen	spielen	lachen	eitel	rächen	tot	hindern	strafen	leiden	tolerant	freundlich	schön	fair	schlau	loyal	tyrannisch	fanatisch	schlecht	faul	schroff	lasch	1	blank2r.bmp	0	1	+	0	1	blank2r.bmp	500	1	BMVZ	500	1	blank2r.bmp	880	4	hindern	880	1	!	1232	1	!	-1	0	0	0	0	0	0
2024-05-29	11:59:01	12:10:11	669559	6.6.1	4_exp_EVA_AWA_CON	60	B	A	Rpleas_acq	Oppo	Rpleas	2pleas	acq_US_unple_nomask	acq45_nomask	5	18	400	0	300	300	0	0	519	46	1	0	ehrlich	retten	treu	helfen	spielen	lachen	eitel	rächen	tot	hindern	strafen	leiden	tolerant	freundlich	schön	fair	schlau	loyal	tyrannisch	fanatisch	schlecht	faul	schroff	lasch	1	blank2r.bmp	0	1	+	0	1	blank2r.bmp	500	1	BMVZ	500	1	blank2r.bmp	880	5	strafen	880	1	!	1232	1	!	-1	0	0	0	0	0	0
2024-05-29	11:59:01	12:10:13	671808	6.6.1	4_exp_EVA_AWA_CON	60	B	A	Rpleas_acq	Oppo	Rpleas	2pleas	acq_US_pleas_nomask	acq45_nomask	5	19	400	1	300	300	0	0	466	50	1	0	ehrlich	retten	treu	helfen	spielen	lachen	eitel	rächen	tot	hindern	strafen	leiden	tolerant	freundlich	schön	fair	schlau	loyal	tyrannisch	fanatisch	schlecht	faul	schroff	lasch	1	blank2r.bmp	0	1	+	0	1	blank2r.bmp	500	1	GKQX	500	1	blank2r.bmp	880	4	helfen	880	1	!	1232	1	!	1367	0	0	0	0	0	0
2024-05-29	11:59:01	12:10:15	674033	6.6.1	4_exp_EVA_AWA_CON	60	B	A	Rpleas_acq	Oppo	Rpleas	2pleas	acq_US_pleas_nomask	acq45_nomask	5	20	400	1	300	300	0	0	448	50	1	0	ehrlich	retten	treu	helfen	spielen	lachen	eitel	rächen	tot	hindern	strafen	leiden	tolerant	freundlich	schön	fair	schlau	loyal	tyrannisch	fanatisch	schlecht	faul	schroff	lasch	1	blank2r.bmp	0	1	+	0	1	blank2r.bmp	500	1	GKQX	500	1	blank2r.bmp	880	2	retten	880	1	!	1232	1	!	1350	0	0	0	0	0	0
2024-05-29	11:59:01	12:10:17	676185	6.6.1	4_exp_EVA_AWA_CON	60	B	A	Rpleas_acq	Oppo	Rpleas	2pleas	acq_US_unple_nomask	acq45_nomask	5	21	400	1	300	300	0	0	369	50	0	0	ehrlich	retten	treu	helfen	spielen	lachen	eitel	rächen	tot	hindern	strafen	leiden	tolerant	freundlich	schön	fair	schlau	loyal	tyrannisch	fanatisch	schlecht	faul	schroff	lasch	1	blank2r.bmp	0	1	+	0	1	blank2r.bmp	500	1	BMVZ	500	1	blank2r.bmp	880	6	leiden	880	1	!	1232	1	!	1270	0	0	0	0	0	0
2024-05-29	11:59:01	12:10:20	678424	6.6.1	4_exp_EVA_AWA_CON	60	B	A	Rpleas_acq	Oppo	Rpleas	2pleas	acq_US_unple_nomask	acq45_nomask	5	22	400	1	300	300	0	0	458	46	1	0	ehrlich	retten	treu	helfen	spielen	lachen	eitel	rächen	tot	hindern	strafen	leiden	tolerant	freundlich	schön	fair	schlau	loyal	tyrannisch	fanatisch	schlecht	faul	schroff	lasch	1	blank2r.bmp	0	1	+	0	1	blank2r.bmp	500	1	BMVZ	500	1	blank2r.bmp	880	2	rächen	880	1	!	1232	1	!	1359	0	0	0	0	0	0
2024-05-29	11:59:01	12:10:22	680632	6.6.1	4_exp_EVA_AWA_CON	60	B	A	Rpleas_acq	Oppo	Rpleas	2pleas	acq_US_pleas_nomask	acq45_nomask	5	23	400	1	300	300	0	0	434	50	1	0	ehrlich	retten	treu	helfen	spielen	lachen	eitel	rächen	tot	hindern	strafen	leiden	tolerant	freundlich	schön	fair	schlau	loyal	tyrannisch	fanatisch	schlecht	faul	schroff	lasch	1	blank2r.bmp	0	1	+	0	1	blank2r.bmp	500	1	GKQX	500	1	blank2r.bmp	880	3	treu	880	1	!	1232	1	!	1335	0	0	0	0	0	0
2024-05-29	11:59:01	12:10:24	682880	6.6.1	4_exp_EVA_AWA_CON	60	B	A	Rpleas_acq	Oppo	Rpleas	2pleas	acq_US_unple_nomask	acq45_nomask	5	24	400	1	300	300	0	0	471	46	1	0	ehrlich	retten	treu	helfen	spielen	lachen	eitel	rächen	tot	hindern	strafen	leiden	tolerant	freundlich	schön	fair	schlau	loyal	tyrannisch	fanatisch	schlecht	faul	schroff	lasch	1	blank2r.bmp	0	1	+	0	1	blank2r.bmp	500	1	BMVZ	500	1	blank2r.bmp	880	3	tot	880	1	!	1232	1	!	1372	0	0	0	0	0	0
2024-05-29	11:59:01	12:10:26	685279	6.6.1	4_exp_EVA_AWA_CON	60	B	A	Rpleas_acq	Oppo	Rpleas	2pleas	acq_US_pleas_nomask	acq45_nomask	5	25	400	0	300	300	0	0	619	50	1	0	ehrlich	retten	treu	helfen	spielen	lachen	eitel	rächen	tot	hindern	strafen	leiden	tolerant	freundlich	schön	fair	schlau	loyal	tyrannisch	fanatisch	schlecht	faul	schroff	lasch	1	blank2r.bmp	0	1	+	0	1	blank2r.bmp	500	1	GKQX	500	1	blank2r.bmp	880	4	helfen	880	1	!	1232	1	!	-1	0	0	0	0	0	0
2024-05-29	11:59:01	12:10:29	687591	6.6.1	4_exp_EVA_AWA_CON	60	B	A	Rpleas_acq	Oppo	Rpleas	2pleas	acq_US_unple_nomask	acq45_nomask	5	26	400	0	300	300	0	0	530	46	1	0	ehrlich	retten	treu	helfen	spielen	lachen	eitel	rächen	tot	hindern	strafen	leiden	tolerant	freundlich	schön	fair	schlau	loyal	tyrannisch	fanatisch	schlecht	faul	schroff	lasch	1	blank2r.bmp	0	1	+	0	1	blank2r.bmp	500	1	BMVZ	500	1	blank2r.bmp	880	4	hindern	880	1	!	1232	1	!	-1	0	0	0	0	0	0
2024-05-29	11:59:01	12:10:31	689793	6.6.1	4_exp_EVA_AWA_CON	60	B	A	Rpleas_acq	Oppo	Rpleas	2pleas	acq_US_pleas_nomask	acq45_nomask	5	27	400	1	300	300	0	0	418	50	1	0	ehrlich	retten	treu	helfen	spielen	lachen	eitel	rächen	tot	hindern	strafen	leiden	tolerant	freundlich	schön	fair	schlau	loyal	tyrannisch	fanatisch	schlecht	faul	schroff	lasch	1	blank2r.bmp	0	1	+	0	1	blank2r.bmp	500	1	GKQX	500	1	blank2r.bmp	880	3	treu	880	1	!	1232	1	!	1319	0	0	0	0	0	0
2024-05-29	11:59:01	12:10:33	692040	6.6.1	4_exp_EVA_AWA_CON	60	B	A	Rpleas_acq	Oppo	Rpleas	2pleas	acq_US_unple_nomask	acq45_nomask	5	28	400	1	300	300	0	0	465	46	1	0	ehrlich	retten	treu	helfen	spielen	lachen	eitel	rächen	tot	hindern	strafen	leiden	tolerant	freundlich	schön	fair	schlau	loyal	tyrannisch	fanatisch	schlecht	faul	schroff	lasch	1	blank2r.bmp	0	1	+	0	1	blank2r.bmp	500	1	BMVZ	500	1	blank2r.bmp	880	3	tot	880	1	!	1232	1	!	1366	0	0	0	0	0	0
2024-05-29	11:59:01	12:10:35	694302	6.6.1	4_exp_EVA_AWA_CON	60	B	A	Rpleas_acq	Oppo	Rpleas	2pleas	acq_US_unple_nomask	acq45_nomask	5	29	400	0	300	300	0	0	487	50	0	0	ehrlich	retten	treu	helfen	spielen	lachen	eitel	rächen	tot	hindern	strafen	leiden	tolerant	freundlich	schön	fair	schlau	loyal	tyrannisch	fanatisch	schlecht	faul	schroff	lasch	1	blank2r.bmp	0	1	+	0	1	blank2r.bmp	500	1	BMVZ	500	1	blank2r.bmp	880	1	eitel	880	1	!	1232	1	!	-1	0	0	0	0	0	0
2024-05-29	11:59:01	12:10:38	696607	6.6.1	4_exp_EVA_AWA_CON	60	B	A	Rpleas_acq	Oppo	Rpleas	2pleas	acq_US_unple_nomask	acq45_nomask	5	30	400	0	300	300	0	0	530	50	0	0	ehrlich	retten	treu	helfen	spielen	lachen	eitel	rächen	tot	hindern	strafen	leiden	tolerant	freundlich	schön	fair	schlau	loyal	tyrannisch	fanatisch	schlecht	faul	schroff	lasch	1	blank2r.bmp	0	1	+	0	1	blank2r.bmp	500	1	BMVZ	500	1	blank2r.bmp	880	2	rächen	880	1	!	1232	1	!	-1	0	0	0	0	0	0
2024-05-29	11:59:01	12:10:40	698856	6.6.1	4_exp_EVA_AWA_CON	60	B	A	Rpleas_acq	Oppo	Rpleas	2pleas	acq_US_unple_nomask	acq45_nomask	5	31	400	1	300	300	0	0	466	46	1	0	ehrlich	retten	treu	helfen	spielen	lachen	eitel	rächen	tot	hindern	strafen	leiden	tolerant	freundlich	schön	fair	schlau	loyal	tyrannisch	fanatisch	schlecht	faul	schroff	lasch	1	blank2r.bmp	0	1	+	0	1	blank2r.bmp	500	1	BMVZ	500	1	blank2r.bmp	880	5	strafen	880	1	!	1232	1	!	1368	0	0	0	0	0	0
2024-05-29	11:59:01	12:10:42	701239	6.6.1	4_exp_EVA_AWA_CON	60	B	A	Rpleas_acq	Oppo	Rpleas	2pleas	acq_US_pleas_nomask	acq45_nomask	5	32	400	0	300	300	0	0	609	50	1	0	ehrlich	retten	treu	helfen	spielen	lachen	eitel	rächen	tot	hindern	strafen	leiden	tolerant	freundlich	schön	fair	schlau	loyal	tyrannisch	fanatisch	schlecht	faul	schroff	lasch	1	blank2r.bmp	0	1	+	0	1	blank2r.bmp	500	1	GKQX	500	1	blank2r.bmp	880	2	retten	880	1	!	1232	1	!	-1	0	0	0	0	0	0
2024-05-29	11:59:01	12:10:45	703551	6.6.1	4_exp_EVA_AWA_CON	60	B	A	Rpleas_acq	Oppo	Rpleas	2pleas	acq_US_pleas_nomask	acq45_nomask	5	33	400	0	300	300	0	0	540	50	1	0	ehrlich	retten	treu	helfen	spielen	lachen	eitel	rächen	tot	hindern	strafen	leiden	tolerant	freundlich	schön	fair	schlau	loyal	tyrannisch	fanatisch	schlecht	faul	schroff	lasch	1	blank2r.bmp	0	1	+	0	1	blank2r.bmp	500	1	GKQX	500	1	blank2r.bmp	880	5	spielen	880	1	!	1232	1	!	-1	0	0	0	0	0	0
2024-05-29	11:59:01	12:10:47	705975	6.6.1	4_exp_EVA_AWA_CON	60	B	A	Rpleas_acq	Oppo	Rpleas	2pleas	acq_US_pleas_nomask	acq45_nomask	5	34	400	0	300	300	0	0	642	50	1	0	ehrlich	retten	treu	helfen	spielen	lachen	eitel	rächen	tot	hindern	strafen	leiden	tolerant	freundlich	schön	fair	schlau	loyal	tyrannisch	fanatisch	schlecht	faul	schroff	lasch	1	blank2r.bmp	0	1	+	0	1	blank2r.bmp	500	1	GKQX	500	1	blank2r.bmp	880	1	ehrlich	880	1	!	1232	1	!	-1	0	0	0	0	0	0
2024-05-29	11:59:01	12:10:49	708279	6.6.1	4_exp_EVA_AWA_CON	60	B	A	Rpleas_acq	Oppo	Rpleas	2pleas	acq_US_unple_nomask	acq45_nomask	5	35	400	0	300	300	0	0	524	46	1	0	ehrlich	retten	treu	helfen	spielen	lachen	eitel	rächen	tot	hindern	strafen	leiden	tolerant	freundlich	schön	fair	schlau	loyal	tyrannisch	fanatisch	schlecht	faul	schroff	lasch	1	blank2r.bmp	0	1	+	0	1	blank2r.bmp	500	1	BMVZ	500	1	blank2r.bmp	880	6	leiden	880	1	!	1232	1	!	-1	0	0	0	0	0	0
2024-05-29	11:59:01	12:10:52	710488	6.6.1	4_exp_EVA_AWA_CON	60	B	A	Rpleas_acq	Oppo	Rpleas	2pleas	acq_US_pleas_nomask	acq45_nomask	5	36	400	1	300	300	0	0	431	50	1	0	ehrlich	retten	treu	helfen	spielen	lachen	eitel	rächen	tot	hindern	strafen	leiden	tolerant	freundlich	schön	fair	schlau	loyal	tyrannisch	fanatisch	schlecht	faul	schroff	lasch	1	blank2r.bmp	0	1	+	0	1	blank2r.bmp	500	1	GKQX	500	1	blank2r.bmp	880	6	lachen	880	1	!	1232	1	!	1333	0	0	0	0	0	0
2024-05-29	11:59:01	12:11:18	736499	6.6.1	4_exp_EVA_AWA_CON	60	B	A	Rpleas_acq	Oppo	Lpleas	2pleas	EvalRating_firsttwo	EvalRating_firsttwo	6	1	0	0	300	300	0	0	6351	line	0	-60,6770833333333285964pct	ehrlich	retten	treu	helfen	spielen	lachen	eitel	rächen	tot	hindern	strafen	leiden	tolerant	freundlich	schön	fair	schlau	loyal	tyrannisch	fanatisch	schlecht	faul	schroff	lasch	1		-8	1	Wie angenehm oder unangenehm finden Sie die  Buchstabenkette ZGVK?	-8	1		-8	1		-8	1		-8	1	Unangenehm	-8	1	Angenehm	-8	0	0	0	0	0	0	0	0	0
2024-05-29	11:59:01	12:11:24	743211	6.6.1	4_exp_EVA_AWA_CON	60	B	A	Rpleas_acq	Oppo	Lpleas	2pleas	EvalRating_lastfour	EvalRating_lastfour	7	1	0	0	300	300	0	0	4338	line	0	16,015625pct	ehrlich	retten	treu	helfen	spielen	lachen	eitel	rächen	tot	hindern	strafen	leiden	tolerant	freundlich	schön	fair	schlau	loyal	tyrannisch	fanatisch	schlecht	faul	schroff	lasch	1		-8	1	Wie angenehm oder unangenehm finden Sie die  Buchstabenkette BMVZ?	-8	1		-8	1		-8	1		-8	1	Unangenehm	-8	1	Angenehm	-8	0	0	0	0	0	0	0	0	0
2024-05-29	11:59:01	12:11:27	745580	6.6.1	4_exp_EVA_AWA_CON	60	B	A	Rpleas_acq	Oppo	Lpleas	2pleas	blank_screen	EvalRating_lastfour	7	3	0	0	300	300	0	0	0	0	0	16,015625pct	ehrlich	retten	treu	helfen	spielen	lachen	eitel	rächen	tot	hindern	strafen	leiden	tolerant	freundlich	schön	fair	schlau	loyal	tyrannisch	fanatisch	schlecht	faul	schroff	lasch	1		-8	0	0	0	0	0	0	0	0	0	0	0	0	0	0	0	0	0	0	0	0	0	0	0	0	0	0	0
2024-05-29	11:59:01	12:11:31	750187	6.6.1	4_exp_EVA_AWA_CON	60	B	A	Rpleas_acq	Oppo	Lpleas	2pleas	EvalRating_lastfour	EvalRating_lastfour	7	4	0	0	300	300	0	0	4019	line	0	-62,109375pct	ehrlich	retten	treu	helfen	spielen	lachen	eitel	rächen	tot	hindern	strafen	leiden	tolerant	freundlich	schön	fair	schlau	loyal	tyrannisch	fanatisch	schlecht	faul	schroff	lasch	1		-8	2	Wie angenehm oder unangenehm finden Sie die  Buchstabenkette GKQX?	-8	1		-8	1		-8	1		-8	1	Unangenehm	-8	1	Angenehm	-8	0	0	0	0	0	0	0	0	0
2024-05-29	11:59:01	12:11:34	752554	6.6.1	4_exp_EVA_AWA_CON	60	B	A	Rpleas_acq	Oppo	Lpleas	2pleas	blank_screen	EvalRating_lastfour	7	6	0	0	300	300	0	0	0	0	0	-62,109375pct	ehrlich	retten	treu	helfen	spielen	lachen	eitel	rächen	tot	hindern	strafen	leiden	tolerant	freundlich	schön	fair	schlau	loyal	tyrannisch	fanatisch	schlecht	faul	schroff	lasch	1		-8	0	0	0	0	0	0	0	0	0	0	0	0	0	0	0	0	0	0	0	0	0	0	0	0	0	0	0
2024-05-29	11:59:01	12:11:37	755723	6.6.1	4_exp_EVA_AWA_CON	60	B	A	Rpleas_acq	Oppo	Lpleas	2pleas	EvalRating_lastfour	EvalRating_lastfour	7	7	0	0	300	300	0	0	2580	line	0	-62,5pct	ehrlich	retten	treu	helfen	spielen	lachen	eitel	rächen	tot	hindern	strafen	leiden	tolerant	freundlich	schön	fair	schlau	loyal	tyrannisch	fanatisch	schlecht	faul	schroff	lasch	1		-8	3	Wie angenehm oder unangenehm finden Sie die  Buchstabenkette XBQM?	-8	1		-8	1		-8	1		-8	1	Unangenehm	-8	1	Angenehm	-8	0	0	0	0	0	0	0	0	0
2024-05-29	11:59:01	12:12:22	800913	6.6.1	4_exp_EVA_AWA_CON	60	B	A	Rpleas_acq	Oppo	Lpleas	2pleas	conawa_CS2_US3	conawa1_nomask	8	1	0	0	300	300	0	0	11062	faul	1	-62,5pct	ehrlich	retten	treu	helfen	spielen	lachen	eitel	rächen	tot	hindern	strafen	leiden	tolerant	freundlich	schön	fair	schlau	loyal	tyrannisch	fanatisch	schlecht	faul	schroff	lasch	0	0	0	0	0	0	0	0	0	0	0	0	0	0	0	0	0	0	0	0	0	0	0	0	0	0	0	0	0	0
2024-05-29	11:59:01	12:12:22	800915	6.6.1	4_exp_EVA_AWA_CON	60	B	A	Rpleas_acq	Oppo	Lpleas	2pleas	conawa_CS2_US3_confidence	conawa1_nomask	8	1	0	0	300	300	0	0	11062	guess	1	-62,5pct	ehrlich	retten	treu	helfen	spielen	lachen	eitel	rächen	tot	hindern	strafen	leiden	tolerant	freundlich	schön	fair	schlau	loyal	tyrannisch	fanatisch	schlecht	faul	schroff	lasch	0	0	0	0	0	0	0	0	0	0	0	0	0	0	0	0	0	0	0	0	0	0	0	0	0	0	0	0	0	0
2024-05-29	11:59:01	12:12:34	812801	6.6.1	4_exp_EVA_AWA_CON	60	B	A	Rpleas_acq	Oppo	Lpleas	2pleas	conawa_CS2_US6	conawa1_nomask	8	2	0	0	300	300	0	0	11266	leiden	1	-62,5pct	ehrlich	retten	treu	helfen	spielen	lachen	eitel	rächen	tot	hindern	strafen	leiden	tolerant	freundlich	schön	fair	schlau	loyal	tyrannisch	fanatisch	schlecht	faul	schroff	lasch	0	0	0	0	0	0	0	0	0	0	0	0	0	0	0	0	0	0	0	0	0	0	0	0	0	0	0	0	0	0
2024-05-29	11:59:01	12:12:34	812803	6.6.1	4_exp_EVA_AWA_CON	60	B	A	Rpleas_acq	Oppo	Lpleas	2pleas	conawa_CS2_US6_confidence	conawa1_nomask	8	2	0	0	300	300	0	0	11266	guess	1	-62,5pct	ehrlich	retten	treu	helfen	spielen	lachen	eitel	rächen	tot	hindern	strafen	leiden	tolerant	freundlich	schön	fair	schlau	loyal	tyrannisch	fanatisch	schlecht	faul	schroff	lasch	0	0	0	0	0	0	0	0	0	0	0	0	0	0	0	0	0	0	0	0	0	0	0	0	0	0	0	0	0	0
2024-05-29	11:59:01	12:12:45	824218	6.6.1	4_exp_EVA_AWA_CON	60	B	A	Rpleas_acq	Oppo	Lpleas	2pleas	conawa_CS1_US3	conawa1_nomask	8	3	0	0	300	300	0	0	10801	treu	1	-62,5pct	ehrlich	retten	treu	helfen	spielen	lachen	eitel	rächen	tot	hindern	strafen	leiden	tolerant	freundlich	schön	fair	schlau	loyal	tyrannisch	fanatisch	schlecht	faul	schroff	lasch	0	0	0	0	0	0	0	0	0	0	0	0	0	0	0	0	0	0	0	0	0	0	0	0	0	0	0	0	0	0
2024-05-29	11:59:01	12:12:45	824220	6.6.1	4_exp_EVA_AWA_CON	60	B	A	Rpleas_acq	Oppo	Lpleas	2pleas	conawa_CS1_US3_confidence	conawa1_nomask	8	3	0	0	300	300	0	0	10801	guess	1	-62,5pct	ehrlich	retten	treu	helfen	spielen	lachen	eitel	rächen	tot	hindern	strafen	leiden	tolerant	freundlich	schön	fair	schlau	loyal	tyrannisch	fanatisch	schlecht	faul	schroff	lasch	0	0	0	0	0	0	0	0	0	0	0	0	0	0	0	0	0	0	0	0	0	0	0	0	0	0	0	0	0	0
2024-05-29	11:59:01	12:12:53	832264	6.6.1	4_exp_EVA_AWA_CON	60	B	A	Rpleas_acq	Oppo	Lpleas	2pleas	conawa_CS2_US1	conawa1_nomask	8	4	0	0	300	300	0	0	7426	fanatisch	1	-62,5pct	ehrlich	retten	treu	helfen	spielen	lachen	eitel	rächen	tot	hindern	strafen	leiden	tolerant	freundlich	schön	fair	schlau	loyal	tyrannisch	fanatisch	schlecht	faul	schroff	lasch	0	0	0	0	0	0	0	0	0	0	0	0	0	0	0	0	0	0	0	0	0	0	0	0	0	0	0	0	0	0
2024-05-29	11:59:01	12:12:53	832265	6.6.1	4_exp_EVA_AWA_CON	60	B	A	Rpleas_acq	Oppo	Lpleas	2pleas	conawa_CS2_US1_confidence	conawa1_nomask	8	4	0	0	300	300	0	0	7426	guess	1	-62,5pct	ehrlich	retten	treu	helfen	spielen	lachen	eitel	rächen	tot	hindern	strafen	leiden	tolerant	freundlich	schön	fair	schlau	loyal	tyrannisch	fanatisch	schlecht	faul	schroff	lasch	0	0	0	0	0	0	0	0	0	0	0	0	0	0	0	0	0	0	0	0	0	0	0	0	0	0	0	0	0	0
2024-05-29	11:59:01	12:13:04	843281	6.6.1	4_exp_EVA_AWA_CON	60	B	A	Rpleas_acq	Oppo	Lpleas	2pleas	conawa_CS1_US1	conawa1_nomask	8	5	0	0	300	300	0	0	10396	tolerant	1	-62,5pct	ehrlich	retten	treu	helfen	spielen	lachen	eitel	rächen	tot	hindern	strafen	leiden	tolerant	freundlich	schön	fair	schlau	loyal	tyrannisch	fanatisch	schlecht	faul	schroff	lasch	0	0	0	0	0	0	0	0	0	0	0	0	0	0	0	0	0	0	0	0	0	0	0	0	0	0	0	0	0	0
2024-05-29	11:59:01	12:13:04	843282	6.6.1	4_exp_EVA_AWA_CON	60	B	A	Rpleas_acq	Oppo	Lpleas	2pleas	conawa_CS1_US1_confidence	conawa1_nomask	8	5	0	0	300	300	0	0	10396	guess	1	-62,5pct	ehrlich	retten	treu	helfen	spielen	lachen	eitel	rächen	tot	hindern	strafen	leiden	tolerant	freundlich	schön	fair	schlau	loyal	tyrannisch	fanatisch	schlecht	faul	schroff	lasch	0	0	0	0	0	0	0	0	0	0	0	0	0	0	0	0	0	0	0	0	0	0	0	0	0	0	0	0	0	0
2024-05-29	11:59:01	12:13:18	856869	6.6.1	4_exp_EVA_AWA_CON	60	B	A	Rpleas_acq	Oppo	Lpleas	2pleas	conawa_CS1_US6	conawa1_nomask	8	6	0	0	300	300	0	0	12970	lachen	1	-62,5pct	ehrlich	retten	treu	helfen	spielen	lachen	eitel	rächen	tot	hindern	strafen	leiden	tolerant	freundlich	schön	fair	schlau	loyal	tyrannisch	fanatisch	schlecht	faul	schroff	lasch	0	0	0	0	0	0	0	0	0	0	0	0	0	0	0	0	0	0	0	0	0	0	0	0	0	0	0	0	0	0
2024-05-29	11:59:01	12:13:18	856871	6.6.1	4_exp_EVA_AWA_CON	60	B	A	Rpleas_acq	Oppo	Lpleas	2pleas	conawa_CS1_US6_confidence	conawa1_nomask	8	6	0	0	300	300	0	0	12970	probably	1	-62,5pct	ehrlich	retten	treu	helfen	spielen	lachen	eitel	rächen	tot	hindern	strafen	leiden	tolerant	freundlich	schön	fair	schlau	loyal	tyrannisch	fanatisch	schlecht	faul	schroff	lasch	0	0	0	0	0	0	0	0	0	0	0	0	0	0	0	0	0	0	0	0	0	0	0	0	0	0	0	0	0	0
2024-05-29	11:59:01	12:13:31	869778	6.6.1	4_exp_EVA_AWA_CON	60	B	A	Rpleas_acq	Oppo	Lpleas	2pleas	conawa_CS2_US5	conawa1_nomask	8	7	0	0	300	300	0	0	12293	spielen	1	-62,5pct	ehrlich	retten	treu	helfen	spielen	lachen	eitel	rächen	tot	hindern	strafen	leiden	tolerant	freundlich	schön	fair	schlau	loyal	tyrannisch	fanatisch	schlecht	faul	schroff	lasch	0	0	0	0	0	0	0	0	0	0	0	0	0	0	0	0	0	0	0	0	0	0	0	0	0	0	0	0	0	0
2024-05-29	11:59:01	12:13:31	869780	6.6.1	4_exp_EVA_AWA_CON	60	B	A	Rpleas_acq	Oppo	Lpleas	2pleas	conawa_CS2_US5_confidence	conawa1_nomask	8	7	0	0	300	300	0	0	12293	guess	1	-62,5pct	ehrlich	retten	treu	helfen	spielen	lachen	eitel	rächen	tot	hindern	strafen	leiden	tolerant	freundlich	schön	fair	schlau	loyal	tyrannisch	fanatisch	schlecht	faul	schroff	lasch	0	0	0	0	0	0	0	0	0	0	0	0	0	0	0	0	0	0	0	0	0	0	0	0	0	0	0	0	0	0
2024-05-29	11:59:01	12:13:45	883616	6.6.1	4_exp_EVA_AWA_CON	60	B	A	Rpleas_acq	Oppo	Lpleas	2pleas	conawa_CS2_US2	conawa1_nomask	8	8	0	0	300	300	0	0	13216	retten	1	-62,5pct	ehrlich	retten	treu	helfen	spielen	lachen	eitel	rächen	tot	hindern	strafen	leiden	tolerant	freundlich	schön	fair	schlau	loyal	tyrannisch	fanatisch	schlecht	faul	schroff	lasch	0	0	0	0	0	0	0	0	0	0	0	0	0	0	0	0	0	0	0	0	0	0	0	0	0	0	0	0	0	0
2024-05-29	11:59:01	12:13:45	883618	6.6.1	4_exp_EVA_AWA_CON	60	B	A	Rpleas_acq	Oppo	Lpleas	2pleas	conawa_CS2_US2_confidence	conawa1_nomask	8	8	0	0	300	300	0	0	13216	guess	1	-62,5pct	ehrlich	retten	treu	helfen	spielen	lachen	eitel	rächen	tot	hindern	strafen	leiden	tolerant	freundlich	schön	fair	schlau	loyal	tyrannisch	fanatisch	schlecht	faul	schroff	lasch	0	0	0	0	0	0	0	0	0	0	0	0	0	0	0	0	0	0	0	0	0	0	0	0	0	0	0	0	0	0
2024-05-29	11:59:01	12:13:51	889840	6.6.1	4_exp_EVA_AWA_CON	60	B	A	Rpleas_acq	Oppo	Lpleas	2pleas	conawa_CS1_US5	conawa1_nomask	8	9	0	0	300	300	0	0	5611	spielen	1	-62,5pct	ehrlich	retten	treu	helfen	spielen	lachen	eitel	rächen	tot	hindern	strafen	leiden	tolerant	freundlich	schön	fair	schlau	loyal	tyrannisch	fanatisch	schlecht	faul	schroff	lasch	0	0	0	0	0	0	0	0	0	0	0	0	0	0	0	0	0	0	0	0	0	0	0	0	0	0	0	0	0	0
2024-05-29	11:59:01	12:13:51	889843	6.6.1	4_exp_EVA_AWA_CON	60	B	A	Rpleas_acq	Oppo	Lpleas	2pleas	conawa_CS1_US5_confidence	conawa1_nomask	8	9	0	0	300	300	0	0	5611	guess	1	-62,5pct	ehrlich	retten	treu	helfen	spielen	lachen	eitel	rächen	tot	hindern	strafen	leiden	tolerant	freundlich	schön	fair	schlau	loyal	tyrannisch	fanatisch	schlecht	faul	schroff	lasch	0	0	0	0	0	0	0	0	0	0	0	0	0	0	0	0	0	0	0	0	0	0	0	0	0	0	0	0	0	0
2024-05-29	11:59:01	12:13:59	898206	6.6.1	4_exp_EVA_AWA_CON	60	B	A	Rpleas_acq	Oppo	Lpleas	2pleas	conawa_CS1_US4	conawa1_nomask	8	10	0	0	300	300	0	0	7748	helfen	1	-62,5pct	ehrlich	retten	treu	helfen	spielen	lachen	eitel	rächen	tot	hindern	strafen	leiden	tolerant	freundlich	schön	fair	schlau	loyal	tyrannisch	fanatisch	schlecht	faul	schroff	lasch	0	0	0	0	0	0	0	0	0	0	0	0	0	0	0	0	0	0	0	0	0	0	0	0	0	0	0	0	0	0
2024-05-29	11:59:01	12:13:59	898208	6.6.1	4_exp_EVA_AWA_CON	60	B	A	Rpleas_acq	Oppo	Lpleas	2pleas	conawa_CS1_US4_confidence	conawa1_nomask	8	10	0	0	300	300	0	0	7748	guess	1	-62,5pct	ehrlich	retten	treu	helfen	spielen	lachen	eitel	rächen	tot	hindern	strafen	leiden	tolerant	freundlich	schön	fair	schlau	loyal	tyrannisch	fanatisch	schlecht	faul	schroff	lasch	0	0	0	0	0	0	0	0	0	0	0	0	0	0	0	0	0	0	0	0	0	0	0	0	0	0	0	0	0	0
2024-05-29	11:59:01	12:14:05	903769	6.6.1	4_exp_EVA_AWA_CON	60	B	A	Rpleas_acq	Oppo	Lpleas	2pleas	conawa_CS1_US2	conawa1_nomask	8	11	0	0	300	300	0	0	4950	retten	1	-62,5pct	ehrlich	retten	treu	helfen	spielen	lachen	eitel	rächen	tot	hindern	strafen	leiden	tolerant	freundlich	schön	fair	schlau	loyal	tyrannisch	fanatisch	schlecht	faul	schroff	lasch	0	0	0	0	0	0	0	0	0	0	0	0	0	0	0	0	0	0	0	0	0	0	0	0	0	0	0	0	0	0
2024-05-29	11:59:01	12:14:05	903771	6.6.1	4_exp_EVA_AWA_CON	60	B	A	Rpleas_acq	Oppo	Lpleas	2pleas	conawa_CS1_US2_confidence	conawa1_nomask	8	11	0	0	300	300	0	0	4950	guess	1	-62,5pct	ehrlich	retten	treu	helfen	spielen	lachen	eitel	rächen	tot	hindern	strafen	leiden	tolerant	freundlich	schön	fair	schlau	loyal	tyrannisch	fanatisch	schlecht	faul	schroff	lasch	0	0	0	0	0	0	0	0	0	0	0	0	0	0	0	0	0	0	0	0	0	0	0	0	0	0	0	0	0	0
2024-05-29	11:59:01	12:14:16	914446	6.6.1	4_exp_EVA_AWA_CON	60	B	A	Rpleas_acq	Oppo	Lpleas	2pleas	conawa_CS2_US4	conawa1_nomask	8	12	0	0	300	300	0	0	10059	hindern	1	-62,5pct	ehrlich	retten	treu	helfen	spielen	lachen	eitel	rächen	tot	hindern	strafen	leiden	tolerant	freundlich	schön	fair	schlau	loyal	tyrannisch	fanatisch	schlecht	faul	schroff	lasch	0	0	0	0	0	0	0	0	0	0	0	0	0	0	0	0	0	0	0	0	0	0	0	0	0	0	0	0	0	0
2024-05-29	11:59:01	12:14:16	914448	6.6.1	4_exp_EVA_AWA_CON	60	B	A	Rpleas_acq	Oppo	Lpleas	2pleas	conawa_CS2_US4_confidence	conawa1_nomask	8	12	0	0	300	300	0	0	10059	guess	1	-62,5pct	ehrlich	retten	treu	helfen	spielen	lachen	eitel	rächen	tot	hindern	strafen	leiden	tolerant	freundlich	schön	fair	schlau	loyal	tyrannisch	fanatisch	schlecht	faul	schroff	lasch	0	0	0	0	0	0	0	0	0	0	0	0	0	0	0	0	0	0	0	0	0	0	0	0	0	0	0	0	0	0
2024-05-29	11:59:01	12:15:58	1017134	6.6.1	4_exp_EVA_AWA_CON	60	B	A	Rpleas_acq	Oppo	Lpleas	2pleas	cond_US_pleas_123_nomask_CS1	condtest_nomask_1	11	1	400	0	300	300	0	0	492	46	1	-62,5pct	ehrlich	retten	treu	helfen	spielen	lachen	eitel	rächen	tot	hindern	strafen	leiden	tolerant	freundlich	schön	fair	schlau	loyal	tyrannisch	fanatisch	schlecht	faul	schroff	lasch	1	blank2r.bmp	0	1	+	0	1	blank2r.bmp	500	1	BMVZ	500	1	blank2r.bmp	880	2	retten	880	1	!	1232	1	!	-1	0	0	0	0	0	0
2024-05-29	11:59:01	12:16:01	1019352	6.6.1	4_exp_EVA_AWA_CON	60	B	A	Rpleas_acq	Oppo	Lpleas	2pleas	cond_new_pleas_456_nomask_CS1	condtest_nomask_1	11	2	400	1	300	300	0	0	437	46	1	-62,5pct	ehrlich	retten	treu	helfen	spielen	lachen	eitel	rächen	tot	hindern	strafen	leiden	tolerant	freundlich	schön	fair	schlau	loyal	tyrannisch	fanatisch	schlecht	faul	schroff	lasch	1	blank2r.bmp	0	1	+	0	1	blank2r.bmp	500	1	BMVZ	500	1	blank2r.bmp	880	3	loyal	880	1	!	1232	1	!	1338	0	0	0	0	0	0
2024-05-29	11:59:01	12:16:03	1021536	6.6.1	4_exp_EVA_AWA_CON	60	B	A	Rpleas_acq	Oppo	Lpleas	2pleas	cond_US_pleas_123_nomask_CS2	condtest_nomask_1	11	3	400	1	300	300	0	0	409	50	0	-62,5pct	ehrlich	retten	treu	helfen	spielen	lachen	eitel	rächen	tot	hindern	strafen	leiden	tolerant	freundlich	schön	fair	schlau	loyal	tyrannisch	fanatisch	schlecht	faul	schroff	lasch	1	blank2r.bmp	0	1	+	0	1	blank2r.bmp	500	1	GKQX	500	1	blank2r.bmp	880	1	treu	880	1	!	1232	1	!	1311	0	0	0	0	0	0
2024-05-29	11:59:01	12:16:05	1023927	6.6.1	4_exp_EVA_AWA_CON	60	B	A	Rpleas_acq	Oppo	Lpleas	2pleas	cond_new_unple_456_nomask_CS2	condtest_nomask_1	11	4	400	0	300	300	0	0	610	50	1	-62,5pct	ehrlich	retten	treu	helfen	spielen	lachen	eitel	rächen	tot	hindern	strafen	leiden	tolerant	freundlich	schön	fair	schlau	loyal	tyrannisch	fanatisch	schlecht	faul	schroff	lasch	1	blank2r.bmp	0	1	+	0	1	blank2r.bmp	500	1	GKQX	500	1	blank2r.bmp	880	1	lasch	880	1	!	1232	1	!	-1	0	0	0	0	0	0
2024-05-29	11:59:01	12:16:07	1026206	6.6.1	4_exp_EVA_AWA_CON	60	B	A	Rpleas_acq	Oppo	Lpleas	2pleas	cond_US_unple_123_nomask_CS2	condtest_nomask_1	11	5	400	0	300	300	0	0	498	46	0	-62,5pct	ehrlich	retten	treu	helfen	spielen	lachen	eitel	rächen	tot	hindern	strafen	leiden	tolerant	freundlich	schön	fair	schlau	loyal	tyrannisch	fanatisch	schlecht	faul	schroff	lasch	1	blank2r.bmp	0	1	+	0	1	blank2r.bmp	500	1	GKQX	500	1	blank2r.bmp	880	2	eitel	880	1	!	1232	1	!	-1	0	0	0	0	0	0
2024-05-29	11:59:01	12:16:10	1028726	6.6.1	4_exp_EVA_AWA_CON	60	B	A	Rpleas_acq	Oppo	Lpleas	2pleas	cond_new_unple_456_nomask_CS1	condtest_nomask_1	11	6	400	0	300	300	0	0	747	50	1	-62,5pct	ehrlich	retten	treu	helfen	spielen	lachen	eitel	rächen	tot	hindern	strafen	leiden	tolerant	freundlich	schön	fair	schlau	loyal	tyrannisch	fanatisch	schlecht	faul	schroff	lasch	1	blank2r.bmp	0	1	+	0	1	blank2r.bmp	500	1	BMVZ	500	1	blank2r.bmp	880	1	faul	880	1	!	1232	1	!	-1	0	0	0	0	0	0
2024-05-29	11:59:01	12:16:13	1031663	6.6.1	4_exp_EVA_AWA_CON	60	B	A	Rpleas_acq	Oppo	Lpleas	2pleas	cond_new_pleas_456_nomask_CS2	condtest_nomask_1	11	7	400	0	300	300	0	0	1161	46	1	-62,5pct	ehrlich	retten	treu	helfen	spielen	lachen	eitel	rächen	tot	hindern	strafen	leiden	tolerant	freundlich	schön	fair	schlau	loyal	tyrannisch	fanatisch	schlecht	faul	schroff	lasch	1	blank2r.bmp	0	1	+	0	1	blank2r.bmp	500	1	GKQX	500	1	blank2r.bmp	880	2	fair	880	1	!	1232	1	!	-1	0	0	0	0	0	0
2024-05-29	11:59:01	12:16:15	1034014	6.6.1	4_exp_EVA_AWA_CON	60	B	A	Rpleas_acq	Oppo	Lpleas	2pleas	cond_US_unple_123_nomask_CS1	condtest_nomask_1	11	8	400	0	300	300	0	0	571	50	1	-62,5pct	ehrlich	retten	treu	helfen	spielen	lachen	eitel	rächen	tot	hindern	strafen	leiden	tolerant	freundlich	schön	fair	schlau	loyal	tyrannisch	fanatisch	schlecht	faul	schroff	lasch	1	blank2r.bmp	0	1	+	0	1	blank2r.bmp	500	1	BMVZ	500	1	blank2r.bmp	880	3	tot	880	1	!	1232	1	!	-1	0	0	0	0	0	0
2024-05-29	11:59:01	12:16:24	1043134	6.6.1	4_exp_EVA_AWA_CON	60	B	A	Rpleas_acq	Oppo	Lpleas	2pleas	cond_new_unple_456_nomask_CS2	condtest_nomask_2	12	1	400	0	300	300	0	0	515	50	1	-62,5pct	ehrlich	retten	treu	helfen	spielen	lachen	eitel	rächen	tot	hindern	strafen	leiden	tolerant	freundlich	schön	fair	schlau	loyal	tyrannisch	fanatisch	schlecht	faul	schroff	lasch	1	blank2r.bmp	0	1	+	0	1	blank2r.bmp	500	1	GKQX	500	1	blank2r.bmp	880	2	faul	880	1	!	1232	1	!	-1	0	0	0	0	0	0
2024-05-29	11:59:01	12:16:27	1045615	6.6.1	4_exp_EVA_AWA_CON	60	B	A	Rpleas_acq	Oppo	Lpleas	2pleas	cond_new_pleas_456_nomask_CS2	condtest_nomask_2	12	2	400	0	300	300	0	0	704	46	1	-62,5pct	ehrlich	retten	treu	helfen	spielen	lachen	eitel	rächen	tot	hindern	strafen	leiden	tolerant	freundlich	schön	fair	schlau	loyal	tyrannisch	fanatisch	schlecht	faul	schroff	lasch	1	blank2r.bmp	0	1	+	0	1	blank2r.bmp	500	1	GKQX	500	1	blank2r.bmp	880	3	schlau	880	1	!	1232	1	!	-1	0	0	0	0	0	0
