date	time	currenttime	elapsedtime	build	currentexpt	subject	CS_AB	US_AB	LRpleas_acq	SameOppo	condition_Lpleas	condition_1pleas	trialcode	blockcode	blocknum	trialnum	windowcenter	inwindow	pretrialpause	posttrialpause	trialduration	trialtimeout	latency	response	correct	correctedscore	US_nomask_pleas1	US_nomask_pleas2	US_nomask_pleas3	US_nomask_pleas4	US_nomask_pleas5	US_nomask_pleas6	US_nomask_unple1	US_nomask_unple2	US_nomask_unple3	US_nomask_unple4	US_nomask_unple5	US_nomask_unple6	new_nomask_pleas1	new_nomask_pleas2	new_nomask_pleas3	new_nomask_pleas4	new_nomask_pleas5	new_nomask_pleas6	new_nomask_unple1	new_nomask_unple2	new_nomask_unple3	new_nomask_unple4	new_nomask_unple5	new_nomask_unple6	stimulusnumber1	stimulusitem1	stimulusonset1	stimulusnumber2	stimulusitem2	stimulusonset2	stimulusnumber3	stimulusitem3	stimulusonset3	stimulusnumber4	stimulusitem4	stimulusonset4	stimulusnumber5	stimulusitem5	stimulusonset5	stimulusnumber6	stimulusitem6	stimulusonset6	stimulusnumber7	stimulusitem7	stimulusonset7	stimulusnumber8	stimulusitem8	stimulusonset8	stimulusnumber9	stimulusitem9	stimulusonset9	stimulusnumber10	stimulusitem10	stimulusonset10
2024-05-07	10:40:04	10:41:36	92129	6.6.1	4_exp_EVA_AWA_CON	14	B	A	Rpleas_acq	Oppo	Rpleas	1pleas	acq_US_unple_nomask	acq1_nomask	1	1	0	0	300	300	0	0	4862	46	1	0	freundlich	treu	helfen	spielen	fair	ehrlich	fanatisch	tot	hindern	strafen	faul	eitel	tolerant	lachen	schön	retten	schlau	loyal	tyrannisch	leiden	schlecht	rächen	schroff	lasch	1	blank2r.bmp	0	1	+	0	1	blank2r.bmp	500	1	GKQX	500	1	blank2r.bmp	880	4	strafen	880	0	0	0	0	0	0	0	0	0	0	0	0
2024-05-07	10:40:04	10:41:40	95409	6.6.1	4_exp_EVA_AWA_CON	14	B	A	Rpleas_acq	Oppo	Rpleas	1pleas	acq_new_unple_nomask	acq1_nomask	1	2	0	0	300	300	0	0	1797	46	1	0	freundlich	treu	helfen	spielen	fair	ehrlich	fanatisch	tot	hindern	strafen	faul	eitel	tolerant	lachen	schön	retten	schlau	loyal	tyrannisch	leiden	schlecht	rächen	schroff	lasch	1	blank2r.bmp	0	1	+	0	1	blank2r.bmp	500	1	B1r.bmp	500	1	blank2r.bmp	880	2	leiden	880	0	0	0	0	0	0	0	0	0	0	0	0
2024-05-07	10:40:04	10:41:42	98025	6.6.1	4_exp_EVA_AWA_CON	14	B	A	Rpleas_acq	Oppo	Rpleas	1pleas	acq_US_unple_nomask	acq1_nomask	1	3	0	0	300	300	0	0	1131	46	1	0	freundlich	treu	helfen	spielen	fair	ehrlich	fanatisch	tot	hindern	strafen	faul	eitel	tolerant	lachen	schön	retten	schlau	loyal	tyrannisch	leiden	schlecht	rächen	schroff	lasch	1	blank2r.bmp	0	1	+	0	1	blank2r.bmp	500	1	GKQX	500	1	blank2r.bmp	880	2	tot	880	0	0	0	0	0	0	0	0	0	0	0	0
2024-05-07	10:40:04	10:41:45	100993	6.6.1	4_exp_EVA_AWA_CON	14	B	A	Rpleas_acq	Oppo	Rpleas	1pleas	acq_new_pleas_nomask	acq1_nomask	1	4	0	0	300	300	0	0	1478	50	1	0	freundlich	treu	helfen	spielen	fair	ehrlich	fanatisch	tot	hindern	strafen	faul	eitel	tolerant	lachen	schön	retten	schlau	loyal	tyrannisch	leiden	schlecht	rächen	schroff	lasch	1	blank2r.bmp	0	1	+	0	1	blank2r.bmp	500	7	C3r.bmp	500	1	blank2r.bmp	880	4	retten	880	0	0	0	0	0	0	0	0	0	0	0	0
2024-05-07	10:40:04	10:41:47	103345	6.6.1	4_exp_EVA_AWA_CON	14	B	A	Rpleas_acq	Oppo	Rpleas	1pleas	acq_new_unple_nomask	acq1_nomask	1	5	0	0	300	300	0	0	868	46	1	0	freundlich	treu	helfen	spielen	fair	ehrlich	fanatisch	tot	hindern	strafen	faul	eitel	tolerant	lachen	schön	retten	schlau	loyal	tyrannisch	leiden	schlecht	rächen	schroff	lasch	1	blank2r.bmp	0	1	+	0	1	blank2r.bmp	500	5	C1r.bmp	500	1	blank2r.bmp	880	1	tyrannisch	880	0	0	0	0	0	0	0	0	0	0	0	0
2024-05-07	10:40:04	10:41:51	106441	6.6.1	4_exp_EVA_AWA_CON	14	B	A	Rpleas_acq	Oppo	Rpleas	1pleas	acq_US_pleas_nomask	acq1_nomask	1	6	0	0	300	300	0	0	1612	50	1	0	freundlich	treu	helfen	spielen	fair	ehrlich	fanatisch	tot	hindern	strafen	faul	eitel	tolerant	lachen	schön	retten	schlau	loyal	tyrannisch	leiden	schlecht	rächen	schroff	lasch	1	blank2r.bmp	0	1	+	0	1	blank2r.bmp	500	1	BMVZ	500	1	blank2r.bmp	880	3	helfen	880	0	0	0	0	0	0	0	0	0	0	0	0
2024-05-07	10:40:04	10:41:53	109177	6.6.1	4_exp_EVA_AWA_CON	14	B	A	Rpleas_acq	Oppo	Rpleas	1pleas	acq_US_pleas_nomask	acq1_nomask	1	7	0	0	300	300	0	0	1246	50	1	0	freundlich	treu	helfen	spielen	fair	ehrlich	fanatisch	tot	hindern	strafen	faul	eitel	tolerant	lachen	schön	retten	schlau	loyal	tyrannisch	leiden	schlecht	rächen	schroff	lasch	1	blank2r.bmp	0	1	+	0	1	blank2r.bmp	500	1	BMVZ	500	1	blank2r.bmp	880	2	treu	880	0	0	0	0	0	0	0	0	0	0	0	0
2024-05-07	10:40:04	10:41:56	111985	6.6.1	4_exp_EVA_AWA_CON	14	B	A	Rpleas_acq	Oppo	Rpleas	1pleas	acq_US_pleas_nomask	acq1_nomask	1	8	0	0	300	300	0	0	1322	50	1	0	freundlich	treu	helfen	spielen	fair	ehrlich	fanatisch	tot	hindern	strafen	faul	eitel	tolerant	lachen	schön	retten	schlau	loyal	tyrannisch	leiden	schlecht	rächen	schroff	lasch	1	blank2r.bmp	0	1	+	0	1	blank2r.bmp	500	1	BMVZ	500	1	blank2r.bmp	880	6	ehrlich	880	0	0	0	0	0	0	0	0	0	0	0	0
2024-05-07	10:40:04	10:41:59	114874	6.6.1	4_exp_EVA_AWA_CON	14	B	A	Rpleas_acq	Oppo	Rpleas	1pleas	acq_US_unple_nomask	acq1_nomask	1	9	0	0	300	300	0	0	1199	50	0	0	freundlich	treu	helfen	spielen	fair	ehrlich	fanatisch	tot	hindern	strafen	faul	eitel	tolerant	lachen	schön	retten	schlau	loyal	tyrannisch	leiden	schlecht	rächen	schroff	lasch	1	blank2r.bmp	0	1	+	0	1	blank2r.bmp	500	1	GKQX	500	1	blank2r.bmp	880	6	eitel	880	1	FEHLER	2100	0	0	0	0	0	0	0	0	0
2024-05-07	10:40:04	10:42:03	118769	6.6.1	4_exp_EVA_AWA_CON	14	B	A	Rpleas_acq	Oppo	Rpleas	1pleas	acq_new_pleas_nomask	acq1_nomask	1	10	0	0	300	300	0	0	2613	50	1	0	freundlich	treu	helfen	spielen	fair	ehrlich	fanatisch	tot	hindern	strafen	faul	eitel	tolerant	lachen	schön	retten	schlau	loyal	tyrannisch	leiden	schlecht	rächen	schroff	lasch	1	blank2r.bmp	0	1	+	0	1	blank2r.bmp	500	6	C2r.bmp	500	1	blank2r.bmp	880	5	schlau	880	0	0	0	0	0	0	0	0	0	0	0	0
2024-05-07	10:40:04	10:42:06	121505	6.6.1	4_exp_EVA_AWA_CON	14	B	A	Rpleas_acq	Oppo	Rpleas	1pleas	acq_new_unple_nomask	acq1_nomask	1	11	0	0	300	300	0	0	1246	46	1	0	freundlich	treu	helfen	spielen	fair	ehrlich	fanatisch	tot	hindern	strafen	faul	eitel	tolerant	lachen	schön	retten	schlau	loyal	tyrannisch	leiden	schlecht	rächen	schroff	lasch	1	blank2r.bmp	0	1	+	0	1	blank2r.bmp	500	3	B3r.bmp	500	1	blank2r.bmp	880	4	rächen	880	0	0	0	0	0	0	0	0	0	0	0	0
2024-05-07	10:40:04	10:42:08	123985	6.6.1	4_exp_EVA_AWA_CON	14	B	A	Rpleas_acq	Oppo	Rpleas	1pleas	acq_new_pleas_nomask	acq1_nomask	1	12	0	0	300	300	0	0	994	50	1	0	freundlich	treu	helfen	spielen	fair	ehrlich	fanatisch	tot	hindern	strafen	faul	eitel	tolerant	lachen	schön	retten	schlau	loyal	tyrannisch	leiden	schlecht	rächen	schroff	lasch	1	blank2r.bmp	0	1	+	0	1	blank2r.bmp	500	8	C4r.bmp	500	1	blank2r.bmp	880	3	schön	880	0	0	0	0	0	0	0	0	0	0	0	0
2024-05-07	10:40:04	10:42:11	126433	6.6.1	4_exp_EVA_AWA_CON	14	B	A	Rpleas_acq	Oppo	Rpleas	1pleas	acq_US_unple_nomask	acq1_nomask	1	13	0	0	300	300	0	0	961	46	1	0	freundlich	treu	helfen	spielen	fair	ehrlich	fanatisch	tot	hindern	strafen	faul	eitel	tolerant	lachen	schön	retten	schlau	loyal	tyrannisch	leiden	schlecht	rächen	schroff	lasch	1	blank2r.bmp	0	1	+	0	1	blank2r.bmp	500	1	GKQX	500	1	blank2r.bmp	880	1	fanatisch	880	0	0	0	0	0	0	0	0	0	0	0	0
2024-05-07	10:40:04	10:42:13	129193	6.6.1	4_exp_EVA_AWA_CON	14	B	A	Rpleas_acq	Oppo	Rpleas	1pleas	acq_US_unple_nomask	acq1_nomask	1	14	0	0	300	300	0	0	1279	46	1	0	freundlich	treu	helfen	spielen	fair	ehrlich	fanatisch	tot	hindern	strafen	faul	eitel	tolerant	lachen	schön	retten	schlau	loyal	tyrannisch	leiden	schlecht	rächen	schroff	lasch	1	blank2r.bmp	0	1	+	0	1	blank2r.bmp	500	1	GKQX	500	1	blank2r.bmp	880	5	faul	880	0	0	0	0	0	0	0	0	0	0	0	0
2024-05-07	10:40:04	10:42:16	131873	6.6.1	4_exp_EVA_AWA_CON	14	B	A	Rpleas_acq	Oppo	Rpleas	1pleas	acq_new_pleas_nomask	acq1_nomask	1	15	0	0	300	300	0	0	1198	50	1	0	freundlich	treu	helfen	spielen	fair	ehrlich	fanatisch	tot	hindern	strafen	faul	eitel	tolerant	lachen	schön	retten	schlau	loyal	tyrannisch	leiden	schlecht	rächen	schroff	lasch	1	blank2r.bmp	0	1	+	0	1	blank2r.bmp	500	2	B2r.bmp	500	1	blank2r.bmp	880	1	tolerant	880	0	0	0	0	0	0	0	0	0	0	0	0
2024-05-07	10:40:04	10:42:19	134698	6.6.1	4_exp_EVA_AWA_CON	14	B	A	Rpleas_acq	Oppo	Rpleas	1pleas	acq_US_unple_nomask	acq1_nomask	1	16	0	0	300	300	0	0	1340	46	1	0	freundlich	treu	helfen	spielen	fair	ehrlich	fanatisch	tot	hindern	strafen	faul	eitel	tolerant	lachen	schön	retten	schlau	loyal	tyrannisch	leiden	schlecht	rächen	schroff	lasch	1	blank2r.bmp	0	1	+	0	1	blank2r.bmp	500	1	GKQX	500	1	blank2r.bmp	880	3	hindern	880	0	0	0	0	0	0	0	0	0	0	0	0
2024-05-07	10:40:04	10:42:21	137257	6.6.1	4_exp_EVA_AWA_CON	14	B	A	Rpleas_acq	Oppo	Rpleas	1pleas	acq_new_unple_nomask	acq1_nomask	1	17	0	0	300	300	0	0	1078	46	1	0	freundlich	treu	helfen	spielen	fair	ehrlich	fanatisch	tot	hindern	strafen	faul	eitel	tolerant	lachen	schön	retten	schlau	loyal	tyrannisch	leiden	schlecht	rächen	schroff	lasch	1	blank2r.bmp	0	1	+	0	1	blank2r.bmp	500	4	B4r.bmp	500	1	blank2r.bmp	880	6	lasch	880	0	0	0	0	0	0	0	0	0	0	0	0
2024-05-07	10:40:04	10:42:24	139553	6.6.1	4_exp_EVA_AWA_CON	14	B	A	Rpleas_acq	Oppo	Rpleas	1pleas	acq_new_pleas_nomask	acq1_nomask	1	18	0	0	300	300	0	0	812	50	1	0	freundlich	treu	helfen	spielen	fair	ehrlich	fanatisch	tot	hindern	strafen	faul	eitel	tolerant	lachen	schön	retten	schlau	loyal	tyrannisch	leiden	schlecht	rächen	schroff	lasch	1	blank2r.bmp	0	1	+	0	1	blank2r.bmp	500	1	B1r.bmp	500	1	blank2r.bmp	880	6	loyal	880	0	0	0	0	0	0	0	0	0	0	0	0
2024-05-07	10:40:04	10:42:26	141729	6.6.1	4_exp_EVA_AWA_CON	14	B	A	Rpleas_acq	Oppo	Rpleas	1pleas	acq_new_unple_nomask	acq1_nomask	1	19	0	0	300	300	0	0	687	46	1	0	freundlich	treu	helfen	spielen	fair	ehrlich	fanatisch	tot	hindern	strafen	faul	eitel	tolerant	lachen	schön	retten	schlau	loyal	tyrannisch	leiden	schlecht	rächen	schroff	lasch	1	blank2r.bmp	0	1	+	0	1	blank2r.bmp	500	6	C2r.bmp	500	1	blank2r.bmp	880	3	schlecht	880	0	0	0	0	0	0	0	0	0	0	0	0
2024-05-07	10:40:04	10:42:28	144041	6.6.1	4_exp_EVA_AWA_CON	14	B	A	Rpleas_acq	Oppo	Rpleas	1pleas	acq_US_pleas_nomask	acq1_nomask	1	20	0	0	300	300	0	0	828	50	1	0	freundlich	treu	helfen	spielen	fair	ehrlich	fanatisch	tot	hindern	strafen	faul	eitel	tolerant	lachen	schön	retten	schlau	loyal	tyrannisch	leiden	schlecht	rächen	schroff	lasch	1	blank2r.bmp	0	1	+	0	1	blank2r.bmp	500	1	BMVZ	500	1	blank2r.bmp	880	5	fair	880	0	0	0	0	0	0	0	0	0	0	0	0
2024-05-07	10:40:04	10:42:30	146353	6.6.1	4_exp_EVA_AWA_CON	14	B	A	Rpleas_acq	Oppo	Rpleas	1pleas	acq_new_unple_nomask	acq1_nomask	1	21	0	0	300	300	0	0	828	46	1	0	freundlich	treu	helfen	spielen	fair	ehrlich	fanatisch	tot	hindern	strafen	faul	eitel	tolerant	lachen	schön	retten	schlau	loyal	tyrannisch	leiden	schlecht	rächen	schroff	lasch	1	blank2r.bmp	0	1	+	0	1	blank2r.bmp	500	8	C4r.bmp	500	1	blank2r.bmp	880	5	schroff	880	0	0	0	0	0	0	0	0	0	0	0	0
2024-05-07	10:40:04	10:42:33	148561	6.6.1	4_exp_EVA_AWA_CON	14	B	A	Rpleas_acq	Oppo	Rpleas	1pleas	acq_US_pleas_nomask	acq1_nomask	1	22	0	0	300	300	0	0	724	50	1	0	freundlich	treu	helfen	spielen	fair	ehrlich	fanatisch	tot	hindern	strafen	faul	eitel	tolerant	lachen	schön	retten	schlau	loyal	tyrannisch	leiden	schlecht	rächen	schroff	lasch	1	blank2r.bmp	0	1	+	0	1	blank2r.bmp	500	1	BMVZ	500	1	blank2r.bmp	880	1	freundlich	880	0	0	0	0	0	0	0	0	0	0	0	0
2024-05-07	10:40:04	10:42:35	151161	6.6.1	4_exp_EVA_AWA_CON	14	B	A	Rpleas_acq	Oppo	Rpleas	1pleas	acq_US_pleas_nomask	acq1_nomask	1	23	0	0	300	300	0	0	1113	50	1	0	freundlich	treu	helfen	spielen	fair	ehrlich	fanatisch	tot	hindern	strafen	faul	eitel	tolerant	lachen	schön	retten	schlau	loyal	tyrannisch	leiden	schlecht	rächen	schroff	lasch	1	blank2r.bmp	0	1	+	0	1	blank2r.bmp	500	1	BMVZ	500	1	blank2r.bmp	880	4	spielen	880	0	0	0	0	0	0	0	0	0	0	0	0
2024-05-07	10:40:04	10:42:37	153345	6.6.1	4_exp_EVA_AWA_CON	14	B	A	Rpleas_acq	Oppo	Rpleas	1pleas	acq_new_pleas_nomask	acq1_nomask	1	24	0	0	300	300	0	0	695	50	1	0	freundlich	treu	helfen	spielen	fair	ehrlich	fanatisch	tot	hindern	strafen	faul	eitel	tolerant	lachen	schön	retten	schlau	loyal	tyrannisch	leiden	schlecht	rächen	schroff	lasch	1	blank2r.bmp	0	1	+	0	1	blank2r.bmp	500	2	B2r.bmp	500	1	blank2r.bmp	880	2	lachen	880	0	0	0	0	0	0	0	0	0	0	0	0
2024-05-07	10:40:04	10:42:40	155817	6.6.1	4_exp_EVA_AWA_CON	14	B	A	Rpleas_acq	Oppo	Rpleas	1pleas	acq_US_pleas_nomask	acq1_nomask	1	25	0	0	300	300	0	0	986	50	1	0	freundlich	treu	helfen	spielen	fair	ehrlich	fanatisch	tot	hindern	strafen	faul	eitel	tolerant	lachen	schön	retten	schlau	loyal	tyrannisch	leiden	schlecht	rächen	schroff	lasch	1	blank2r.bmp	0	1	+	0	1	blank2r.bmp	500	1	BMVZ	500	1	blank2r.bmp	880	3	helfen	880	0	0	0	0	0	0	0	0	0	0	0	0
2024-05-07	10:40:04	10:42:42	157969	6.6.1	4_exp_EVA_AWA_CON	14	B	A	Rpleas_acq	Oppo	Rpleas	1pleas	acq_US_pleas_nomask	acq1_nomask	1	26	0	0	300	300	0	0	666	50	1	0	freundlich	treu	helfen	spielen	fair	ehrlich	fanatisch	tot	hindern	strafen	faul	eitel	tolerant	lachen	schön	retten	schlau	loyal	tyrannisch	leiden	schlecht	rächen	schroff	lasch	1	blank2r.bmp	0	1	+	0	1	blank2r.bmp	500	1	BMVZ	500	1	blank2r.bmp	880	5	fair	880	0	0	0	0	0	0	0	0	0	0	0	0
2024-05-07	10:40:04	10:42:44	160081	6.6.1	4_exp_EVA_AWA_CON	14	B	A	Rpleas_acq	Oppo	Rpleas	1pleas	acq_new_pleas_nomask	acq1_nomask	1	27	0	0	300	300	0	0	627	50	1	0	freundlich	treu	helfen	spielen	fair	ehrlich	fanatisch	tot	hindern	strafen	faul	eitel	tolerant	lachen	schön	retten	schlau	loyal	tyrannisch	leiden	schlecht	rächen	schroff	lasch	1	blank2r.bmp	0	1	+	0	1	blank2r.bmp	500	4	B4r.bmp	500	1	blank2r.bmp	880	2	lachen	880	0	0	0	0	0	0	0	0	0	0	0	0
2024-05-07	10:40:04	10:42:46	162177	6.6.1	4_exp_EVA_AWA_CON	14	B	A	Rpleas_acq	Oppo	Rpleas	1pleas	acq_new_unple_nomask	acq1_nomask	1	28	0	0	300	300	0	0	612	46	1	0	freundlich	treu	helfen	spielen	fair	ehrlich	fanatisch	tot	hindern	strafen	faul	eitel	tolerant	lachen	schön	retten	schlau	loyal	tyrannisch	leiden	schlecht	rächen	schroff	lasch	1	blank2r.bmp	0	1	+	0	1	blank2r.bmp	500	5	C1r.bmp	500	1	blank2r.bmp	880	5	schroff	880	0	0	0	0	0	0	0	0	0	0	0	0
2024-05-07	10:40:04	10:42:49	164537	6.6.1	4_exp_EVA_AWA_CON	14	B	A	Rpleas_acq	Oppo	Rpleas	1pleas	acq_US_unple_nomask	acq1_nomask	1	29	0	0	300	300	0	0	870	46	1	0	freundlich	treu	helfen	spielen	fair	ehrlich	fanatisch	tot	hindern	strafen	faul	eitel	tolerant	lachen	schön	retten	schlau	loyal	tyrannisch	leiden	schlecht	rächen	schroff	lasch	1	blank2r.bmp	0	1	+	0	1	blank2r.bmp	500	1	GKQX	500	1	blank2r.bmp	880	4	strafen	880	0	0	0	0	0	0	0	0	0	0	0	0
2024-05-07	10:40:04	10:42:51	166721	6.6.1	4_exp_EVA_AWA_CON	14	B	A	Rpleas_acq	Oppo	Rpleas	1pleas	acq_US_pleas_nomask	acq1_nomask	1	30	0	0	300	300	0	0	703	50	1	0	freundlich	treu	helfen	spielen	fair	ehrlich	fanatisch	tot	hindern	strafen	faul	eitel	tolerant	lachen	schön	retten	schlau	loyal	tyrannisch	leiden	schlecht	rächen	schroff	lasch	1	blank2r.bmp	0	1	+	0	1	blank2r.bmp	500	1	BMVZ	500	1	blank2r.bmp	880	1	freundlich	880	0	0	0	0	0	0	0	0	0	0	0	0
2024-05-07	10:40:04	10:42:53	168993	6.6.1	4_exp_EVA_AWA_CON	14	B	A	Rpleas_acq	Oppo	Rpleas	1pleas	acq_US_unple_nomask	acq1_nomask	1	31	0	0	300	300	0	0	784	46	1	0	freundlich	treu	helfen	spielen	fair	ehrlich	fanatisch	tot	hindern	strafen	faul	eitel	tolerant	lachen	schön	retten	schlau	loyal	tyrannisch	leiden	schlecht	rächen	schroff	lasch	1	blank2r.bmp	0	1	+	0	1	blank2r.bmp	500	1	GKQX	500	1	blank2r.bmp	880	3	hindern	880	0	0	0	0	0	0	0	0	0	0	0	0
2024-05-07	10:40:04	10:42:56	171433	6.6.1	4_exp_EVA_AWA_CON	14	B	A	Rpleas_acq	Oppo	Rpleas	1pleas	acq_new_unple_nomask	acq1_nomask	1	32	0	0	300	300	0	0	952	46	1	0	freundlich	treu	helfen	spielen	fair	ehrlich	fanatisch	tot	hindern	strafen	faul	eitel	tolerant	lachen	schön	retten	schlau	loyal	tyrannisch	leiden	schlecht	rächen	schroff	lasch	1	blank2r.bmp	0	1	+	0	1	blank2r.bmp	500	3	B3r.bmp	500	1	blank2r.bmp	880	4	rächen	880	0	0	0	0	0	0	0	0	0	0	0	0
2024-05-07	10:40:04	10:42:58	173993	6.6.1	4_exp_EVA_AWA_CON	14	B	A	Rpleas_acq	Oppo	Rpleas	1pleas	acq_new_pleas_nomask	acq1_nomask	1	33	0	0	300	300	0	0	1070	50	1	0	freundlich	treu	helfen	spielen	fair	ehrlich	fanatisch	tot	hindern	strafen	faul	eitel	tolerant	lachen	schön	retten	schlau	loyal	tyrannisch	leiden	schlecht	rächen	schroff	lasch	1	blank2r.bmp	0	1	+	0	1	blank2r.bmp	500	7	C3r.bmp	500	1	blank2r.bmp	880	6	loyal	880	0	0	0	0	0	0	0	0	0	0	0	0
2024-05-07	10:40:04	10:43:02	177665	6.6.1	4_exp_EVA_AWA_CON	14	B	A	Rpleas_acq	Oppo	Rpleas	1pleas	acq_new_pleas_nomask	acq1_nomask	1	34	0	0	300	300	0	0	2191	50	1	0	freundlich	treu	helfen	spielen	fair	ehrlich	fanatisch	tot	hindern	strafen	faul	eitel	tolerant	lachen	schön	retten	schlau	loyal	tyrannisch	leiden	schlecht	rächen	schroff	lasch	1	blank2r.bmp	0	1	+	0	1	blank2r.bmp	500	5	C1r.bmp	500	1	blank2r.bmp	880	1	tolerant	880	0	0	0	0	0	0	0	0	0	0	0	0
2024-05-07	10:40:04	10:43:04	180009	6.6.1	4_exp_EVA_AWA_CON	14	B	A	Rpleas_acq	Oppo	Rpleas	1pleas	acq_new_unple_nomask	acq1_nomask	1	35	0	0	300	300	0	0	863	46	1	0	freundlich	treu	helfen	spielen	fair	ehrlich	fanatisch	tot	hindern	strafen	faul	eitel	tolerant	lachen	schön	retten	schlau	loyal	tyrannisch	leiden	schlecht	rächen	schroff	lasch	1	blank2r.bmp	0	1	+	0	1	blank2r.bmp	500	4	B4r.bmp	500	1	blank2r.bmp	880	6	lasch	880	0	0	0	0	0	0	0	0	0	0	0	0
2024-05-07	10:40:04	10:43:07	182897	6.6.1	4_exp_EVA_AWA_CON	14	B	A	Rpleas_acq	Oppo	Rpleas	1pleas	acq_US_unple_nomask	acq1_nomask	1	36	0	0	300	300	0	0	1399	46	1	0	freundlich	treu	helfen	spielen	fair	ehrlich	fanatisch	tot	hindern	strafen	faul	eitel	tolerant	lachen	schön	retten	schlau	loyal	tyrannisch	leiden	schlecht	rächen	schroff	lasch	1	blank2r.bmp	0	1	+	0	1	blank2r.bmp	500	1	GKQX	500	1	blank2r.bmp	880	1	fanatisch	880	0	0	0	0	0	0	0	0	0	0	0	0
2024-05-07	10:40:04	10:43:53	229203	6.6.1	4_exp_EVA_AWA_CON	14	B	A	Rpleas_acq	Oppo	Rpleas	1pleas	acq_new_unple_nomask	acq2_nomask	2	1	480	0	300	300	0	0	3267	46	1	0	freundlich	treu	helfen	spielen	fair	ehrlich	fanatisch	tot	hindern	strafen	faul	eitel	tolerant	lachen	schön	retten	schlau	loyal	tyrannisch	leiden	schlecht	rächen	schroff	lasch	1	blank2r.bmp	0	1	+	0	1	blank2r.bmp	500	6	C2r.bmp	500	1	blank2r.bmp	880	1	tyrannisch	880	1	!	1313	1	!	-1	0	0	0	0	0	0
2024-05-07	10:40:04	10:43:56	231683	6.6.1	4_exp_EVA_AWA_CON	14	B	A	Rpleas_acq	Oppo	Rpleas	1pleas	acq_US_unple_nomask	acq2_nomask	2	2	480	0	300	300	0	0	703	46	1	0	freundlich	treu	helfen	spielen	fair	ehrlich	fanatisch	tot	hindern	strafen	faul	eitel	tolerant	lachen	schön	retten	schlau	loyal	tyrannisch	leiden	schlecht	rächen	schroff	lasch	1	blank2r.bmp	0	1	+	0	1	blank2r.bmp	500	1	GKQX	500	1	blank2r.bmp	880	6	eitel	880	1	!	1313	1	!	-1	0	0	0	0	0	0
2024-05-07	10:40:04	10:43:58	234074	6.6.1	4_exp_EVA_AWA_CON	14	B	A	Rpleas_acq	Oppo	Rpleas	1pleas	acq_US_pleas_nomask	acq2_nomask	2	3	480	0	300	300	0	0	614	50	1	0	freundlich	treu	helfen	spielen	fair	ehrlich	fanatisch	tot	hindern	strafen	faul	eitel	tolerant	lachen	schön	retten	schlau	loyal	tyrannisch	leiden	schlecht	rächen	schroff	lasch	1	blank2r.bmp	0	1	+	0	1	blank2r.bmp	500	1	BMVZ	500	1	blank2r.bmp	880	2	treu	880	1	!	1312	1	!	-1	0	0	0	0	0	0
2024-05-07	10:40:04	10:44:01	236723	6.6.1	4_exp_EVA_AWA_CON	14	B	A	Rpleas_acq	Oppo	Rpleas	1pleas	acq_new_unple_nomask	acq2_nomask	2	4	480	0	300	300	0	0	870	46	1	0	freundlich	treu	helfen	spielen	fair	ehrlich	fanatisch	tot	hindern	strafen	faul	eitel	tolerant	lachen	schön	retten	schlau	loyal	tyrannisch	leiden	schlecht	rächen	schroff	lasch	1	blank2r.bmp	0	1	+	0	1	blank2r.bmp	500	1	B1r.bmp	500	1	blank2r.bmp	880	2	leiden	880	1	!	1313	1	!	-1	0	0	0	0	0	0
2024-05-07	10:40:04	10:44:04	239427	6.6.1	4_exp_EVA_AWA_CON	14	B	A	Rpleas_acq	Oppo	Rpleas	1pleas	acq_new_pleas_nomask	acq2_nomask	2	5	480	0	300	300	0	0	923	50	1	0	freundlich	treu	helfen	spielen	fair	ehrlich	fanatisch	tot	hindern	strafen	faul	eitel	tolerant	lachen	schön	retten	schlau	loyal	tyrannisch	leiden	schlecht	rächen	schroff	lasch	1	blank2r.bmp	0	1	+	0	1	blank2r.bmp	500	2	B2r.bmp	500	1	blank2r.bmp	880	5	schlau	880	1	!	1313	1	!	-1	0	0	0	0	0	0
2024-05-07	10:40:04	10:44:06	241542	6.6.1	4_exp_EVA_AWA_CON	14	B	A	Rpleas_acq	Oppo	Rpleas	1pleas	acq_US_pleas_nomask	acq2_nomask	2	6	480	0	300	300	0	0	133	46	0	0	freundlich	treu	helfen	spielen	fair	ehrlich	fanatisch	tot	hindern	strafen	faul	eitel	tolerant	lachen	schön	retten	schlau	loyal	tyrannisch	leiden	schlecht	rächen	schroff	lasch	1	blank2r.bmp	0	1	+	0	1	blank2r.bmp	500	1	BMVZ	500	1	blank2r.bmp	880	4	spielen	880	1	FEHLER	1326	1	!	-1	1	!	-1	0	0	0
2024-05-07	10:40:04	10:44:08	243652	6.6.1	4_exp_EVA_AWA_CON	14	B	A	Rpleas_acq	Oppo	Rpleas	1pleas	acq_new_pleas_nomask	acq2_nomask	2	7	480	1	300	300	0	0	534	50	1	0	freundlich	treu	helfen	spielen	fair	ehrlich	fanatisch	tot	hindern	strafen	faul	eitel	tolerant	lachen	schön	retten	schlau	loyal	tyrannisch	leiden	schlecht	rächen	schroff	lasch	1	blank2r.bmp	0	1	+	0	1	blank2r.bmp	500	7	C3r.bmp	500	1	blank2r.bmp	880	3	schön	880	1	!	1312	1	!	1435	0	0	0	0	0	0
2024-05-07	10:40:04	10:44:10	245972	6.6.1	4_exp_EVA_AWA_CON	14	B	A	Rpleas_acq	Oppo	Rpleas	1pleas	acq_new_pleas_nomask	acq2_nomask	2	8	480	1	300	300	0	0	542	50	1	0	freundlich	treu	helfen	spielen	fair	ehrlich	fanatisch	tot	hindern	strafen	faul	eitel	tolerant	lachen	schön	retten	schlau	loyal	tyrannisch	leiden	schlecht	rächen	schroff	lasch	1	blank2r.bmp	0	1	+	0	1	blank2r.bmp	500	3	B3r.bmp	500	1	blank2r.bmp	880	4	retten	880	1	!	1312	1	!	1443	0	0	0	0	0	0
2024-05-07	10:40:04	10:44:12	248284	6.6.1	4_exp_EVA_AWA_CON	14	B	A	Rpleas_acq	Oppo	Rpleas	1pleas	acq_US_unple_nomask	acq2_nomask	2	9	480	1	300	300	0	0	532	46	1	0	freundlich	treu	helfen	spielen	fair	ehrlich	fanatisch	tot	hindern	strafen	faul	eitel	tolerant	lachen	schön	retten	schlau	loyal	tyrannisch	leiden	schlecht	rächen	schroff	lasch	1	blank2r.bmp	0	1	+	0	1	blank2r.bmp	500	1	GKQX	500	1	blank2r.bmp	880	2	tot	880	1	!	1313	1	!	1434	0	0	0	0	0	0
2024-05-07	10:40:04	10:44:15	250726	6.6.1	4_exp_EVA_AWA_CON	14	B	A	Rpleas_acq	Oppo	Rpleas	1pleas	acq_US_pleas_nomask	acq2_nomask	2	10	480	1	300	300	0	0	461	46	0	0	freundlich	treu	helfen	spielen	fair	ehrlich	fanatisch	tot	hindern	strafen	faul	eitel	tolerant	lachen	schön	retten	schlau	loyal	tyrannisch	leiden	schlecht	rächen	schroff	lasch	1	blank2r.bmp	0	1	+	0	1	blank2r.bmp	500	1	BMVZ	500	1	blank2r.bmp	880	6	ehrlich	880	1	FEHLER	1655	1	!	1313	1	!	1363	0	0	0
2024-05-07	10:40:04	10:44:17	252865	6.6.1	4_exp_EVA_AWA_CON	14	B	A	Rpleas_acq	Oppo	Rpleas	1pleas	acq_new_unple_nomask	acq2_nomask	2	11	480	0	300	300	0	0	564	46	1	0	freundlich	treu	helfen	spielen	fair	ehrlich	fanatisch	tot	hindern	strafen	faul	eitel	tolerant	lachen	schön	retten	schlau	loyal	tyrannisch	leiden	schlecht	rächen	schroff	lasch	1	blank2r.bmp	0	1	+	0	1	blank2r.bmp	500	8	C4r.bmp	500	1	blank2r.bmp	880	3	schlecht	880	1	!	1313	1	!	-1	0	0	0	0	0	0
2024-05-07	10:40:04	10:44:19	255238	6.6.1	4_exp_EVA_AWA_CON	14	B	A	Rpleas_acq	Oppo	Rpleas	1pleas	acq_US_unple_nomask	acq2_nomask	2	12	480	0	300	300	0	0	390	50	0	0	freundlich	treu	helfen	spielen	fair	ehrlich	fanatisch	tot	hindern	strafen	faul	eitel	tolerant	lachen	schön	retten	schlau	loyal	tyrannisch	leiden	schlecht	rächen	schroff	lasch	1	blank2r.bmp	0	1	+	0	1	blank2r.bmp	500	1	GKQX	500	1	blank2r.bmp	880	5	faul	880	1	FEHLER	1584	1	!	-1	1	!	-1	0	0	0
2024-05-07	10:40:04	10:44:21	257369	6.6.1	4_exp_EVA_AWA_CON	14	B	A	Rpleas_acq	Oppo	Rpleas	1pleas	acq_new_unple_nomask	acq2_nomask	2	13	480	0	300	300	0	0	555	46	1	0	freundlich	treu	helfen	spielen	fair	ehrlich	fanatisch	tot	hindern	strafen	faul	eitel	tolerant	lachen	schön	retten	schlau	loyal	tyrannisch	leiden	schlecht	rächen	schroff	lasch	1	blank2r.bmp	0	1	+	0	1	blank2r.bmp	500	8	C4r.bmp	500	1	blank2r.bmp	880	4	rächen	880	1	!	1312	1	!	-1	0	0	0	0	0	0
2024-05-07	10:40:04	10:44:24	259547	6.6.1	4_exp_EVA_AWA_CON	14	B	A	Rpleas_acq	Oppo	Rpleas	1pleas	acq_US_pleas_nomask	acq2_nomask	2	14	480	0	300	300	0	0	399	50	1	0	freundlich	treu	helfen	spielen	fair	ehrlich	fanatisch	tot	hindern	strafen	faul	eitel	tolerant	lachen	schön	retten	schlau	loyal	tyrannisch	leiden	schlecht	rächen	schroff	lasch	1	blank2r.bmp	0	1	+	0	1	blank2r.bmp	500	1	BMVZ	500	1	blank2r.bmp	880	6	ehrlich	880	1	!	-1	1	!	-1	0	0	0	0	0	0
2024-05-07	10:40:04	10:44:26	262051	6.6.1	4_exp_EVA_AWA_CON	14	B	A	Rpleas_acq	Oppo	Rpleas	1pleas	acq_new_pleas_nomask	acq2_nomask	2	15	480	0	300	300	0	0	722	50	1	0	freundlich	treu	helfen	spielen	fair	ehrlich	fanatisch	tot	hindern	strafen	faul	eitel	tolerant	lachen	schön	retten	schlau	loyal	tyrannisch	leiden	schlecht	rächen	schroff	lasch	1	blank2r.bmp	0	1	+	0	1	blank2r.bmp	500	1	B1r.bmp	500	1	blank2r.bmp	880	6	loyal	880	1	!	1312	1	!	-1	0	0	0	0	0	0
2024-05-07	10:40:04	10:44:29	264523	6.6.1	4_exp_EVA_AWA_CON	14	B	A	Rpleas_acq	Oppo	Rpleas	1pleas	acq_new_pleas_nomask	acq2_nomask	2	16	480	0	300	300	0	0	692	50	1	0	freundlich	treu	helfen	spielen	fair	ehrlich	fanatisch	tot	hindern	strafen	faul	eitel	tolerant	lachen	schön	retten	schlau	loyal	tyrannisch	leiden	schlecht	rächen	schroff	lasch	1	blank2r.bmp	0	1	+	0	1	blank2r.bmp	500	3	B3r.bmp	500	1	blank2r.bmp	880	1	tolerant	880	1	!	1312	1	!	-1	0	0	0	0	0	0
2024-05-07	10:40:04	10:44:31	266805	6.6.1	4_exp_EVA_AWA_CON	14	B	A	Rpleas_acq	Oppo	Rpleas	1pleas	acq_new_pleas_nomask	acq2_nomask	2	17	480	1	300	300	0	0	501	50	1	0	freundlich	treu	helfen	spielen	fair	ehrlich	fanatisch	tot	hindern	strafen	faul	eitel	tolerant	lachen	schön	retten	schlau	loyal	tyrannisch	leiden	schlecht	rächen	schroff	lasch	1	blank2r.bmp	0	1	+	0	1	blank2r.bmp	500	4	B4r.bmp	500	1	blank2r.bmp	880	5	schlau	880	1	!	1312	1	!	1402	0	0	0	0	0	0
2024-05-07	10:40:04	10:44:33	269170	6.6.1	4_exp_EVA_AWA_CON	14	B	A	Rpleas_acq	Oppo	Rpleas	1pleas	acq_new_unple_nomask	acq2_nomask	2	18	480	0	300	300	0	0	587	46	1	0	freundlich	treu	helfen	spielen	fair	ehrlich	fanatisch	tot	hindern	strafen	faul	eitel	tolerant	lachen	schön	retten	schlau	loyal	tyrannisch	leiden	schlecht	rächen	schroff	lasch	1	blank2r.bmp	0	1	+	0	1	blank2r.bmp	500	2	B2r.bmp	500	1	blank2r.bmp	880	3	schlecht	880	1	!	1312	1	!	-1	0	0	0	0	0	0
2024-05-07	10:40:04	10:44:36	271555	6.6.1	4_exp_EVA_AWA_CON	14	B	A	Rpleas_acq	Oppo	Rpleas	1pleas	acq_new_unple_nomask	acq2_nomask	2	19	480	0	300	300	0	0	610	46	1	0	freundlich	treu	helfen	spielen	fair	ehrlich	fanatisch	tot	hindern	strafen	faul	eitel	tolerant	lachen	schön	retten	schlau	loyal	tyrannisch	leiden	schlecht	rächen	schroff	lasch	1	blank2r.bmp	0	1	+	0	1	blank2r.bmp	500	6	C2r.bmp	500	1	blank2r.bmp	880	6	lasch	880	1	!	1312	1	!	-1	0	0	0	0	0	0
2024-05-07	10:40:04	10:44:38	273907	6.6.1	4_exp_EVA_AWA_CON	14	B	A	Rpleas_acq	Oppo	Rpleas	1pleas	acq_US_pleas_nomask	acq2_nomask	2	20	480	0	300	300	0	0	570	50	1	0	freundlich	treu	helfen	spielen	fair	ehrlich	fanatisch	tot	hindern	strafen	faul	eitel	tolerant	lachen	schön	retten	schlau	loyal	tyrannisch	leiden	schlecht	rächen	schroff	lasch	1	blank2r.bmp	0	1	+	0	1	blank2r.bmp	500	1	BMVZ	500	1	blank2r.bmp	880	1	freundlich	880	1	!	1312	1	!	-1	0	0	0	0	0	0
2024-05-07	10:40:04	10:44:40	276259	6.6.1	4_exp_EVA_AWA_CON	14	B	A	Rpleas_acq	Oppo	Rpleas	1pleas	acq_US_unple_nomask	acq2_nomask	2	21	480	0	300	300	0	0	571	46	1	0	freundlich	treu	helfen	spielen	fair	ehrlich	fanatisch	tot	hindern	strafen	faul	eitel	tolerant	lachen	schön	retten	schlau	loyal	tyrannisch	leiden	schlecht	rächen	schroff	lasch	1	blank2r.bmp	0	1	+	0	1	blank2r.bmp	500	1	GKQX	500	1	blank2r.bmp	880	1	fanatisch	880	1	!	1312	1	!	-1	0	0	0	0	0	0
2024-05-07	10:40:04	10:44:42	278379	6.6.1	4_exp_EVA_AWA_CON	14	B	A	Rpleas_acq	Oppo	Rpleas	1pleas	acq_US_unple_nomask	acq2_nomask	2	22	480	0	300	300	0	0	339	46	1	0	freundlich	treu	helfen	spielen	fair	ehrlich	fanatisch	tot	hindern	strafen	faul	eitel	tolerant	lachen	schön	retten	schlau	loyal	tyrannisch	leiden	schlecht	rächen	schroff	lasch	1	blank2r.bmp	0	1	+	0	1	blank2r.bmp	500	1	GKQX	500	1	blank2r.bmp	880	2	tot	880	1	!	-1	1	!	-1	0	0	0	0	0	0
2024-05-07	10:40:04	10:44:45	281019	6.6.1	4_exp_EVA_AWA_CON	14	B	A	Rpleas_acq	Oppo	Rpleas	1pleas	acq_US_pleas_nomask	acq2_nomask	2	23	480	0	300	300	0	0	858	50	1	0	freundlich	treu	helfen	spielen	fair	ehrlich	fanatisch	tot	hindern	strafen	faul	eitel	tolerant	lachen	schön	retten	schlau	loyal	tyrannisch	leiden	schlecht	rächen	schroff	lasch	1	blank2r.bmp	0	1	+	0	1	blank2r.bmp	500	1	BMVZ	500	1	blank2r.bmp	880	5	fair	880	1	!	1312	1	!	-1	0	0	0	0	0	0
2024-05-07	10:40:04	10:44:47	283022	6.6.1	4_exp_EVA_AWA_CON	14	B	A	Rpleas_acq	Oppo	Rpleas	1pleas	acq_US_unple_nomask	acq2_nomask	2	24	480	0	300	300	0	0	26	50	0	0	freundlich	treu	helfen	spielen	fair	ehrlich	fanatisch	tot	hindern	strafen	faul	eitel	tolerant	lachen	schön	retten	schlau	loyal	tyrannisch	leiden	schlecht	rächen	schroff	lasch	1	blank2r.bmp	0	1	+	0	1	blank2r.bmp	500	1	GKQX	500	1	blank2r.bmp	880	5	faul	880	1	FEHLER	1219	1	!	-1	1	!	-1	0	0	0
2024-05-07	10:40:04	10:44:49	284963	6.6.1	4_exp_EVA_AWA_CON	14	B	A	Rpleas_acq	Oppo	Rpleas	1pleas	acq_new_unple_nomask	acq2_nomask	2	25	480	0	300	300	0	0	369	46	1	0	freundlich	treu	helfen	spielen	fair	ehrlich	fanatisch	tot	hindern	strafen	faul	eitel	tolerant	lachen	schön	retten	schlau	loyal	tyrannisch	leiden	schlecht	rächen	schroff	lasch	1	blank2r.bmp	0	1	+	0	1	blank2r.bmp	500	7	C3r.bmp	500	1	blank2r.bmp	880	2	leiden	880	1	!	-1	1	!	-1	0	0	0	0	0	0
2024-05-07	10:40:04	10:44:51	287268	6.6.1	4_exp_EVA_AWA_CON	14	B	A	Rpleas_acq	Oppo	Rpleas	1pleas	acq_US_unple_nomask	acq2_nomask	2	26	480	1	300	300	0	0	522	46	1	0	freundlich	treu	helfen	spielen	fair	ehrlich	fanatisch	tot	hindern	strafen	faul	eitel	tolerant	lachen	schön	retten	schlau	loyal	tyrannisch	leiden	schlecht	rächen	schroff	lasch	1	blank2r.bmp	0	1	+	0	1	blank2r.bmp	500	1	GKQX	500	1	blank2r.bmp	880	3	hindern	880	1	!	1313	1	!	1423	0	0	0	0	0	0
2024-05-07	10:40:04	10:44:54	289509	6.6.1	4_exp_EVA_AWA_CON	14	B	A	Rpleas_acq	Oppo	Rpleas	1pleas	acq_new_unple_nomask	acq2_nomask	2	27	480	1	300	300	0	0	460	46	1	0	freundlich	treu	helfen	spielen	fair	ehrlich	fanatisch	tot	hindern	strafen	faul	eitel	tolerant	lachen	schön	retten	schlau	loyal	tyrannisch	leiden	schlecht	rächen	schroff	lasch	1	blank2r.bmp	0	1	+	0	1	blank2r.bmp	500	5	C1r.bmp	500	1	blank2r.bmp	880	5	schroff	880	1	!	1312	1	!	1362	0	0	0	0	0	0
2024-05-07	10:40:04	10:44:56	291899	6.6.1	4_exp_EVA_AWA_CON	14	B	A	Rpleas_acq	Oppo	Rpleas	1pleas	acq_new_pleas_nomask	acq2_nomask	2	28	480	0	300	300	0	0	611	50	1	0	freundlich	treu	helfen	spielen	fair	ehrlich	fanatisch	tot	hindern	strafen	faul	eitel	tolerant	lachen	schön	retten	schlau	loyal	tyrannisch	leiden	schlecht	rächen	schroff	lasch	1	blank2r.bmp	0	1	+	0	1	blank2r.bmp	500	6	C2r.bmp	500	1	blank2r.bmp	880	3	schön	880	1	!	1312	1	!	-1	0	0	0	0	0	0
2024-05-07	10:40:04	10:44:58	294241	6.6.1	4_exp_EVA_AWA_CON	14	B	A	Rpleas_acq	Oppo	Rpleas	1pleas	acq_US_pleas_nomask	acq2_nomask	2	29	480	0	300	300	0	0	563	50	1	0	freundlich	treu	helfen	spielen	fair	ehrlich	fanatisch	tot	hindern	strafen	faul	eitel	tolerant	lachen	schön	retten	schlau	loyal	tyrannisch	leiden	schlecht	rächen	schroff	lasch	1	blank2r.bmp	0	1	+	0	1	blank2r.bmp	500	1	BMVZ	500	1	blank2r.bmp	880	2	treu	880	1	!	1313	1	!	-1	0	0	0	0	0	0
2024-05-07	10:40:04	10:45:01	296573	6.6.1	4_exp_EVA_AWA_CON	14	B	A	Rpleas_acq	Oppo	Rpleas	1pleas	acq_US_unple_nomask	acq2_nomask	2	30	480	1	300	300	0	0	549	46	1	0	freundlich	treu	helfen	spielen	fair	ehrlich	fanatisch	tot	hindern	strafen	faul	eitel	tolerant	lachen	schön	retten	schlau	loyal	tyrannisch	leiden	schlecht	rächen	schroff	lasch	1	blank2r.bmp	0	1	+	0	1	blank2r.bmp	500	1	GKQX	500	1	blank2r.bmp	880	4	strafen	880	1	!	1312	1	!	1451	0	0	0	0	0	0
2024-05-07	10:40:04	10:45:03	298860	6.6.1	4_exp_EVA_AWA_CON	14	B	A	Rpleas_acq	Oppo	Rpleas	1pleas	acq_US_pleas_nomask	acq2_nomask	2	31	480	1	300	300	0	0	506	50	1	0	freundlich	treu	helfen	spielen	fair	ehrlich	fanatisch	tot	hindern	strafen	faul	eitel	tolerant	lachen	schön	retten	schlau	loyal	tyrannisch	leiden	schlecht	rächen	schroff	lasch	1	blank2r.bmp	0	1	+	0	1	blank2r.bmp	500	1	BMVZ	500	1	blank2r.bmp	880	4	spielen	880	1	!	1313	1	!	1407	0	0	0	0	0	0
2024-05-07	10:40:04	10:45:05	301051	6.6.1	4_exp_EVA_AWA_CON	14	B	A	Rpleas_acq	Oppo	Rpleas	1pleas	acq_new_pleas_nomask	acq2_nomask	2	32	480	1	300	300	0	0	417	50	1	0	freundlich	treu	helfen	spielen	fair	ehrlich	fanatisch	tot	hindern	strafen	faul	eitel	tolerant	lachen	schön	retten	schlau	loyal	tyrannisch	leiden	schlecht	rächen	schroff	lasch	1	blank2r.bmp	0	1	+	0	1	blank2r.bmp	500	5	C1r.bmp	500	1	blank2r.bmp	880	4	retten	880	1	!	1312	1	!	1316	0	0	0	0	0	0
2024-05-07	10:40:04	10:45:07	303372	6.6.1	4_exp_EVA_AWA_CON	14	B	A	Rpleas_acq	Oppo	Rpleas	1pleas	acq_US_unple_nomask	acq2_nomask	2	33	480	1	300	300	0	0	545	46	1	0	freundlich	treu	helfen	spielen	fair	ehrlich	fanatisch	tot	hindern	strafen	faul	eitel	tolerant	lachen	schön	retten	schlau	loyal	tyrannisch	leiden	schlecht	rächen	schroff	lasch	1	blank2r.bmp	0	1	+	0	1	blank2r.bmp	500	1	GKQX	500	1	blank2r.bmp	880	6	eitel	880	1	!	1313	1	!	1446	0	0	0	0	0	0
2024-05-07	10:40:04	10:45:10	305604	6.6.1	4_exp_EVA_AWA_CON	14	B	A	Rpleas_acq	Oppo	Rpleas	1pleas	acq_new_unple_nomask	acq2_nomask	2	34	480	1	300	300	0	0	456	46	1	0	freundlich	treu	helfen	spielen	fair	ehrlich	fanatisch	tot	hindern	strafen	faul	eitel	tolerant	lachen	schön	retten	schlau	loyal	tyrannisch	leiden	schlecht	rächen	schroff	lasch	1	blank2r.bmp	0	1	+	0	1	blank2r.bmp	500	7	C3r.bmp	500	1	blank2r.bmp	880	1	tyrannisch	880	1	!	1312	1	!	1357	0	0	0	0	0	0
2024-05-07	10:40:04	10:45:12	307946	6.6.1	4_exp_EVA_AWA_CON	14	B	A	Rpleas_acq	Oppo	Rpleas	1pleas	acq_new_pleas_nomask	acq2_nomask	2	35	480	0	300	300	0	0	568	50	1	0	freundlich	treu	helfen	spielen	fair	ehrlich	fanatisch	tot	hindern	strafen	faul	eitel	tolerant	lachen	schön	retten	schlau	loyal	tyrannisch	leiden	schlecht	rächen	schroff	lasch	1	blank2r.bmp	0	1	+	0	1	blank2r.bmp	500	1	B1r.bmp	500	1	blank2r.bmp	880	2	lachen	880	1	!	1312	1	!	-1	0	0	0	0	0	0
2024-05-07	10:40:04	10:45:14	310358	6.6.1	4_exp_EVA_AWA_CON	14	B	A	Rpleas_acq	Oppo	Rpleas	1pleas	acq_US_pleas_nomask	acq2_nomask	2	36	480	1	300	300	0	0	435	46	0	0	freundlich	treu	helfen	spielen	fair	ehrlich	fanatisch	tot	hindern	strafen	faul	eitel	tolerant	lachen	schön	retten	schlau	loyal	tyrannisch	leiden	schlecht	rächen	schroff	lasch	1	blank2r.bmp	0	1	+	0	1	blank2r.bmp	500	1	BMVZ	500	1	blank2r.bmp	880	3	helfen	880	1	FEHLER	1628	1	!	1312	1	!	1336	0	0	0
2024-05-07	10:40:04	10:45:38	333435	6.6.1	4_exp_EVA_AWA_CON	14	B	A	Rpleas_acq	Oppo	Rpleas	1pleas	acq_US_unple_nomask	acq3_nomask	3	1	453	0	300	300	0	0	570	46	1	0	freundlich	treu	helfen	spielen	fair	ehrlich	fanatisch	tot	hindern	strafen	faul	eitel	tolerant	lachen	schön	retten	schlau	loyal	tyrannisch	leiden	schlecht	rächen	schroff	lasch	1	blank2r.bmp	0	1	+	0	1	blank2r.bmp	500	1	GKQX	500	1	blank2r.bmp	880	4	strafen	880	1	!	1293	1	!	-1	0	0	0	0	0	0
2024-05-07	10:40:04	10:45:40	335798	6.6.1	4_exp_EVA_AWA_CON	14	B	A	Rpleas_acq	Oppo	Rpleas	1pleas	acq_US_unple_nomask	acq3_nomask	3	2	453	0	300	300	0	0	378	50	0	0	freundlich	treu	helfen	spielen	fair	ehrlich	fanatisch	tot	hindern	strafen	faul	eitel	tolerant	lachen	schön	retten	schlau	loyal	tyrannisch	leiden	schlecht	rächen	schroff	lasch	1	blank2r.bmp	0	1	+	0	1	blank2r.bmp	500	1	GKQX	500	1	blank2r.bmp	880	2	tot	880	1	FEHLER	1572	1	!	-1	1	!	-1	0	0	0
2024-05-07	10:40:04	10:45:42	337723	6.6.1	4_exp_EVA_AWA_CON	14	B	A	Rpleas_acq	Oppo	Rpleas	1pleas	acq_US_pleas_nomask	acq3_nomask	3	3	453	0	300	300	0	0	355	50	1	0	freundlich	treu	helfen	spielen	fair	ehrlich	fanatisch	tot	hindern	strafen	faul	eitel	tolerant	lachen	schön	retten	schlau	loyal	tyrannisch	leiden	schlecht	rächen	schroff	lasch	1	blank2r.bmp	0	1	+	0	1	blank2r.bmp	500	1	BMVZ	500	1	blank2r.bmp	880	4	spielen	880	1	!	-1	1	!	-1	0	0	0	0	0	0
2024-05-07	10:40:04	10:45:44	340067	6.6.1	4_exp_EVA_AWA_CON	14	B	A	Rpleas_acq	Oppo	Rpleas	1pleas	acq_US_pleas_nomask	acq3_nomask	3	4	453	0	300	300	0	0	568	50	1	0	freundlich	treu	helfen	spielen	fair	ehrlich	fanatisch	tot	hindern	strafen	faul	eitel	tolerant	lachen	schön	retten	schlau	loyal	tyrannisch	leiden	schlecht	rächen	schroff	lasch	1	blank2r.bmp	0	1	+	0	1	blank2r.bmp	500	1	BMVZ	500	1	blank2r.bmp	880	5	fair	880	1	!	1293	1	!	-1	0	0	0	0	0	0
2024-05-07	10:40:04	10:45:46	342003	6.6.1	4_exp_EVA_AWA_CON	14	B	A	Rpleas_acq	Oppo	Rpleas	1pleas	acq_US_pleas_nomask	acq3_nomask	3	5	453	0	300	300	0	0	162	50	1	0	freundlich	treu	helfen	spielen	fair	ehrlich	fanatisch	tot	hindern	strafen	faul	eitel	tolerant	lachen	schön	retten	schlau	loyal	tyrannisch	leiden	schlecht	rächen	schroff	lasch	1	blank2r.bmp	0	1	+	0	1	blank2r.bmp	500	1	BMVZ	500	1	blank2r.bmp	880	6	ehrlich	880	1	!	-1	1	!	-1	0	0	0	0	0	0
2024-05-07	10:40:04	10:45:49	344430	6.6.1	4_exp_EVA_AWA_CON	14	B	A	Rpleas_acq	Oppo	Rpleas	1pleas	acq_US_unple_nomask	acq3_nomask	3	6	453	1	300	300	0	0	445	50	0	0	freundlich	treu	helfen	spielen	fair	ehrlich	fanatisch	tot	hindern	strafen	faul	eitel	tolerant	lachen	schön	retten	schlau	loyal	tyrannisch	leiden	schlecht	rächen	schroff	lasch	1	blank2r.bmp	0	1	+	0	1	blank2r.bmp	500	1	GKQX	500	1	blank2r.bmp	880	1	fanatisch	880	1	FEHLER	1638	1	!	1292	1	!	1346	0	0	0
2024-05-07	10:40:04	10:45:51	346484	6.6.1	4_exp_EVA_AWA_CON	14	B	A	Rpleas_acq	Oppo	Rpleas	1pleas	acq_US_unple_nomask	acq3_nomask	3	7	453	1	300	300	0	0	479	46	1	0	freundlich	treu	helfen	spielen	fair	ehrlich	fanatisch	tot	hindern	strafen	faul	eitel	tolerant	lachen	schön	retten	schlau	loyal	tyrannisch	leiden	schlecht	rächen	schroff	lasch	1	blank2r.bmp	0	1	+	0	1	blank2r.bmp	500	1	GKQX	500	1	blank2r.bmp	880	5	faul	880	1	!	1293	1	!	1381	0	0	0	0	0	0
2024-05-07	10:40:04	10:45:53	348829	6.6.1	4_exp_EVA_AWA_CON	14	B	A	Rpleas_acq	Oppo	Rpleas	1pleas	acq_US_pleas_nomask	acq3_nomask	3	8	453	0	300	300	0	0	362	46	0	0	freundlich	treu	helfen	spielen	fair	ehrlich	fanatisch	tot	hindern	strafen	faul	eitel	tolerant	lachen	schön	retten	schlau	loyal	tyrannisch	leiden	schlecht	rächen	schroff	lasch	1	blank2r.bmp	0	1	+	0	1	blank2r.bmp	500	1	BMVZ	500	1	blank2r.bmp	880	3	helfen	880	1	FEHLER	1555	1	!	-1	1	!	-1	0	0	0
2024-05-07	10:40:04	10:45:55	350892	6.6.1	4_exp_EVA_AWA_CON	14	B	A	Rpleas_acq	Oppo	Rpleas	1pleas	acq_US_pleas_nomask	acq3_nomask	3	9	453	1	300	300	0	0	485	50	1	0	freundlich	treu	helfen	spielen	fair	ehrlich	fanatisch	tot	hindern	strafen	faul	eitel	tolerant	lachen	schön	retten	schlau	loyal	tyrannisch	leiden	schlecht	rächen	schroff	lasch	1	blank2r.bmp	0	1	+	0	1	blank2r.bmp	500	1	BMVZ	500	1	blank2r.bmp	880	2	treu	880	1	!	1293	1	!	1386	0	0	0	0	0	0
2024-05-07	10:40:04	10:45:57	353124	6.6.1	4_exp_EVA_AWA_CON	14	B	A	Rpleas_acq	Oppo	Rpleas	1pleas	acq_US_unple_nomask	acq3_nomask	3	10	453	1	300	300	0	0	455	46	1	0	freundlich	treu	helfen	spielen	fair	ehrlich	fanatisch	tot	hindern	strafen	faul	eitel	tolerant	lachen	schön	retten	schlau	loyal	tyrannisch	leiden	schlecht	rächen	schroff	lasch	1	blank2r.bmp	0	1	+	0	1	blank2r.bmp	500	1	GKQX	500	1	blank2r.bmp	880	6	eitel	880	1	!	1293	1	!	1356	0	0	0	0	0	0
2024-05-07	10:40:04	10:46:00	355478	6.6.1	4_exp_EVA_AWA_CON	14	B	A	Rpleas_acq	Oppo	Rpleas	1pleas	acq_US_unple_nomask	acq3_nomask	3	11	453	0	300	300	0	0	376	50	0	0	freundlich	treu	helfen	spielen	fair	ehrlich	fanatisch	tot	hindern	strafen	faul	eitel	tolerant	lachen	schön	retten	schlau	loyal	tyrannisch	leiden	schlecht	rächen	schroff	lasch	1	blank2r.bmp	0	1	+	0	1	blank2r.bmp	500	1	GKQX	500	1	blank2r.bmp	880	3	hindern	880	1	FEHLER	1569	1	!	-1	1	!	-1	0	0	0
2024-05-07	10:40:04	10:46:02	357709	6.6.1	4_exp_EVA_AWA_CON	14	B	A	Rpleas_acq	Oppo	Rpleas	1pleas	acq_US_pleas_nomask	acq3_nomask	3	12	453	1	300	300	0	0	456	46	0	0	freundlich	treu	helfen	spielen	fair	ehrlich	fanatisch	tot	hindern	strafen	faul	eitel	tolerant	lachen	schön	retten	schlau	loyal	tyrannisch	leiden	schlecht	rächen	schroff	lasch	1	blank2r.bmp	0	1	+	0	1	blank2r.bmp	500	1	BMVZ	500	1	blank2r.bmp	880	1	freundlich	880	1	FEHLER	1649	1	!	1292	1	!	1358	0	0	0
2024-05-07	10:40:04	10:46:04	359594	6.6.1	4_exp_EVA_AWA_CON	14	B	A	Rpleas_acq	Oppo	Rpleas	1pleas	acq_US_pleas_nomask	acq3_nomask	3	13	453	0	300	300	0	0	313	50	1	0	freundlich	treu	helfen	spielen	fair	ehrlich	fanatisch	tot	hindern	strafen	faul	eitel	tolerant	lachen	schön	retten	schlau	loyal	tyrannisch	leiden	schlecht	rächen	schroff	lasch	1	blank2r.bmp	0	1	+	0	1	blank2r.bmp	500	1	BMVZ	500	1	blank2r.bmp	880	1	freundlich	880	1	!	-1	1	!	-1	0	0	0	0	0	0
2024-05-07	10:40:04	10:46:06	361918	6.6.1	4_exp_EVA_AWA_CON	14	B	A	Rpleas_acq	Oppo	Rpleas	1pleas	acq_US_unple_nomask	acq3_nomask	3	14	453	0	300	300	0	0	342	50	0	0	freundlich	treu	helfen	spielen	fair	ehrlich	fanatisch	tot	hindern	strafen	faul	eitel	tolerant	lachen	schön	retten	schlau	loyal	tyrannisch	leiden	schlecht	rächen	schroff	lasch	1	blank2r.bmp	0	1	+	0	1	blank2r.bmp	500	1	GKQX	500	1	blank2r.bmp	880	1	fanatisch	880	1	FEHLER	1535	1	!	-1	1	!	-1	0	0	0
2024-05-07	10:40:04	10:46:08	364227	6.6.1	4_exp_EVA_AWA_CON	14	B	A	Rpleas_acq	Oppo	Rpleas	1pleas	acq_US_pleas_nomask	acq3_nomask	3	15	453	0	300	300	0	0	732	50	1	0	freundlich	treu	helfen	spielen	fair	ehrlich	fanatisch	tot	hindern	strafen	faul	eitel	tolerant	lachen	schön	retten	schlau	loyal	tyrannisch	leiden	schlecht	rächen	schroff	lasch	1	blank2r.bmp	0	1	+	0	1	blank2r.bmp	500	1	BMVZ	500	1	blank2r.bmp	880	6	ehrlich	880	1	!	1292	1	!	-1	0	0	0	0	0	0
2024-05-07	10:40:04	10:46:11	366642	6.6.1	4_exp_EVA_AWA_CON	14	B	A	Rpleas_acq	Oppo	Rpleas	1pleas	acq_US_unple_nomask	acq3_nomask	3	16	453	0	300	300	0	0	637	46	1	0	freundlich	treu	helfen	spielen	fair	ehrlich	fanatisch	tot	hindern	strafen	faul	eitel	tolerant	lachen	schön	retten	schlau	loyal	tyrannisch	leiden	schlecht	rächen	schroff	lasch	1	blank2r.bmp	0	1	+	0	1	blank2r.bmp	500	1	GKQX	500	1	blank2r.bmp	880	2	tot	880	1	!	1292	1	!	-1	0	0	0	0	0	0
2024-05-07	10:40:04	10:46:15	370787	6.6.1	4_exp_EVA_AWA_CON	14	B	A	Rpleas_acq	Oppo	Rpleas	1pleas	acq_US_pleas_nomask	acq3_nomask	3	17	453	0	300	300	0	0	2369	50	1	0	freundlich	treu	helfen	spielen	fair	ehrlich	fanatisch	tot	hindern	strafen	faul	eitel	tolerant	lachen	schön	retten	schlau	loyal	tyrannisch	leiden	schlecht	rächen	schroff	lasch	1	blank2r.bmp	0	1	+	0	1	blank2r.bmp	500	1	BMVZ	500	1	blank2r.bmp	880	3	helfen	880	1	!	1292	1	!	-1	0	0	0	0	0	0
2024-05-07	10:40:04	10:46:17	373203	6.6.1	4_exp_EVA_AWA_CON	14	B	A	Rpleas_acq	Oppo	Rpleas	1pleas	acq_US_unple_nomask	acq3_nomask	3	18	453	0	300	300	0	0	642	46	1	0	freundlich	treu	helfen	spielen	fair	ehrlich	fanatisch	tot	hindern	strafen	faul	eitel	tolerant	lachen	schön	retten	schlau	loyal	tyrannisch	leiden	schlecht	rächen	schroff	lasch	1	blank2r.bmp	0	1	+	0	1	blank2r.bmp	500	1	GKQX	500	1	blank2r.bmp	880	6	eitel	880	1	!	1293	1	!	-1	0	0	0	0	0	0
2024-05-07	10:40:04	10:46:21	376491	6.6.1	4_exp_EVA_AWA_CON	14	B	A	Rpleas_acq	Oppo	Rpleas	1pleas	acq_US_unple_nomask	acq3_nomask	3	19	453	0	300	300	0	0	1509	46	1	0	freundlich	treu	helfen	spielen	fair	ehrlich	fanatisch	tot	hindern	strafen	faul	eitel	tolerant	lachen	schön	retten	schlau	loyal	tyrannisch	leiden	schlecht	rächen	schroff	lasch	1	blank2r.bmp	0	1	+	0	1	blank2r.bmp	500	1	GKQX	500	1	blank2r.bmp	880	5	faul	880	1	!	1293	1	!	-1	0	0	0	0	0	0
2024-05-07	10:40:04	10:46:23	378531	6.6.1	4_exp_EVA_AWA_CON	14	B	A	Rpleas_acq	Oppo	Rpleas	1pleas	acq_US_pleas_nomask	acq3_nomask	3	20	453	0	300	300	0	0	267	50	1	0	freundlich	treu	helfen	spielen	fair	ehrlich	fanatisch	tot	hindern	strafen	faul	eitel	tolerant	lachen	schön	retten	schlau	loyal	tyrannisch	leiden	schlecht	rächen	schroff	lasch	1	blank2r.bmp	0	1	+	0	1	blank2r.bmp	500	1	BMVZ	500	1	blank2r.bmp	880	5	fair	880	1	!	-1	1	!	-1	0	0	0	0	0	0
2024-05-07	10:40:04	10:46:25	380772	6.6.1	4_exp_EVA_AWA_CON	14	B	A	Rpleas_acq	Oppo	Rpleas	1pleas	acq_US_unple_nomask	acq3_nomask	3	21	453	1	300	300	0	0	465	46	1	0	freundlich	treu	helfen	spielen	fair	ehrlich	fanatisch	tot	hindern	strafen	faul	eitel	tolerant	lachen	schön	retten	schlau	loyal	tyrannisch	leiden	schlecht	rächen	schroff	lasch	1	blank2r.bmp	0	1	+	0	1	blank2r.bmp	500	1	GKQX	500	1	blank2r.bmp	880	3	hindern	880	1	!	1292	1	!	1366	0	0	0	0	0	0
2024-05-07	10:40:04	10:46:27	382763	6.6.1	4_exp_EVA_AWA_CON	14	B	A	Rpleas_acq	Oppo	Rpleas	1pleas	acq_US_pleas_nomask	acq3_nomask	3	22	453	0	300	300	0	0	216	50	1	0	freundlich	treu	helfen	spielen	fair	ehrlich	fanatisch	tot	hindern	strafen	faul	eitel	tolerant	lachen	schön	retten	schlau	loyal	tyrannisch	leiden	schlecht	rächen	schroff	lasch	1	blank2r.bmp	0	1	+	0	1	blank2r.bmp	500	1	BMVZ	500	1	blank2r.bmp	880	4	spielen	880	1	!	-1	1	!	-1	0	0	0	0	0	0
2024-05-07	10:40:04	10:46:29	384989	6.6.1	4_exp_EVA_AWA_CON	14	B	A	Rpleas_acq	Oppo	Rpleas	1pleas	acq_US_pleas_nomask	acq3_nomask	3	23	453	1	300	300	0	0	449	50	1	0	freundlich	treu	helfen	spielen	fair	ehrlich	fanatisch	tot	hindern	strafen	faul	eitel	tolerant	lachen	schön	retten	schlau	loyal	tyrannisch	leiden	schlecht	rächen	schroff	lasch	1	blank2r.bmp	0	1	+	0	1	blank2r.bmp	500	1	BMVZ	500	1	blank2r.bmp	880	2	treu	880	1	!	1293	1	!	1350	0	0	0	0	0	0
2024-05-07	10:40:04	10:46:32	387467	6.6.1	4_exp_EVA_AWA_CON	14	B	A	Rpleas_acq	Oppo	Rpleas	1pleas	acq_US_unple_nomask	acq3_nomask	3	24	453	0	300	300	0	0	697	46	1	0	freundlich	treu	helfen	spielen	fair	ehrlich	fanatisch	tot	hindern	strafen	faul	eitel	tolerant	lachen	schön	retten	schlau	loyal	tyrannisch	leiden	schlecht	rächen	schroff	lasch	1	blank2r.bmp	0	1	+	0	1	blank2r.bmp	500	1	GKQX	500	1	blank2r.bmp	880	4	strafen	880	1	!	1293	1	!	-1	0	0	0	0	0	0
2024-05-07	10:40:04	10:46:34	389740	6.6.1	4_exp_EVA_AWA_CON	14	B	A	Rpleas_acq	Oppo	Rpleas	1pleas	acq_US_unple_nomask	acq3_nomask	3	25	453	1	300	300	0	0	498	46	1	0	freundlich	treu	helfen	spielen	fair	ehrlich	fanatisch	tot	hindern	strafen	faul	eitel	tolerant	lachen	schön	retten	schlau	loyal	tyrannisch	leiden	schlecht	rächen	schroff	lasch	1	blank2r.bmp	0	1	+	0	1	blank2r.bmp	500	1	GKQX	500	1	blank2r.bmp	880	5	faul	880	1	!	1292	1	!	1399	0	0	0	0	0	0
2024-05-07	10:40:04	10:46:36	392243	6.6.1	4_exp_EVA_AWA_CON	14	B	A	Rpleas_acq	Oppo	Rpleas	1pleas	acq_US_pleas_nomask	acq3_nomask	3	26	453	0	300	300	0	0	730	50	1	0	freundlich	treu	helfen	spielen	fair	ehrlich	fanatisch	tot	hindern	strafen	faul	eitel	tolerant	lachen	schön	retten	schlau	loyal	tyrannisch	leiden	schlecht	rächen	schroff	lasch	1	blank2r.bmp	0	1	+	0	1	blank2r.bmp	500	1	BMVZ	500	1	blank2r.bmp	880	3	helfen	880	1	!	1293	1	!	-1	0	0	0	0	0	0
2024-05-07	10:40:04	10:46:38	394387	6.6.1	4_exp_EVA_AWA_CON	14	B	A	Rpleas_acq	Oppo	Rpleas	1pleas	acq_US_pleas_nomask	acq3_nomask	3	27	453	0	300	300	0	0	363	50	1	0	freundlich	treu	helfen	spielen	fair	ehrlich	fanatisch	tot	hindern	strafen	faul	eitel	tolerant	lachen	schön	retten	schlau	loyal	tyrannisch	leiden	schlecht	rächen	schroff	lasch	1	blank2r.bmp	0	1	+	0	1	blank2r.bmp	500	1	BMVZ	500	1	blank2r.bmp	880	2	treu	880	1	!	-1	1	!	-1	0	0	0	0	0	0
2024-05-07	10:40:04	10:46:41	396730	6.6.1	4_exp_EVA_AWA_CON	14	B	A	Rpleas_acq	Oppo	Rpleas	1pleas	acq_US_pleas_nomask	acq3_nomask	3	28	453	0	300	300	0	0	565	50	1	0	freundlich	treu	helfen	spielen	fair	ehrlich	fanatisch	tot	hindern	strafen	faul	eitel	tolerant	lachen	schön	retten	schlau	loyal	tyrannisch	leiden	schlecht	rächen	schroff	lasch	1	blank2r.bmp	0	1	+	0	1	blank2r.bmp	500	1	BMVZ	500	1	blank2r.bmp	880	6	ehrlich	880	1	!	1292	1	!	-1	0	0	0	0	0	0
2024-05-07	10:40:04	10:46:43	399058	6.6.1	4_exp_EVA_AWA_CON	14	B	A	Rpleas_acq	Oppo	Rpleas	1pleas	acq_US_unple_nomask	acq3_nomask	3	29	453	0	300	300	0	0	552	46	1	0	freundlich	treu	helfen	spielen	fair	ehrlich	fanatisch	tot	hindern	strafen	faul	eitel	tolerant	lachen	schön	retten	schlau	loyal	tyrannisch	leiden	schlecht	rächen	schroff	lasch	1	blank2r.bmp	0	1	+	0	1	blank2r.bmp	500	1	GKQX	500	1	blank2r.bmp	880	6	eitel	880	1	!	1292	1	!	-1	0	0	0	0	0	0
2024-05-07	10:40:04	10:46:45	401276	6.6.1	4_exp_EVA_AWA_CON	14	B	A	Rpleas_acq	Oppo	Rpleas	1pleas	acq_US_pleas_nomask	acq3_nomask	3	30	453	1	300	300	0	0	436	50	1	0	freundlich	treu	helfen	spielen	fair	ehrlich	fanatisch	tot	hindern	strafen	faul	eitel	tolerant	lachen	schön	retten	schlau	loyal	tyrannisch	leiden	schlecht	rächen	schroff	lasch	1	blank2r.bmp	0	1	+	0	1	blank2r.bmp	500	1	BMVZ	500	1	blank2r.bmp	880	5	fair	880	1	!	1292	1	!	1337	0	0	0	0	0	0
2024-05-07	10:40:04	10:46:48	403674	6.6.1	4_exp_EVA_AWA_CON	14	B	A	Rpleas_acq	Oppo	Rpleas	1pleas	acq_US_unple_nomask	acq3_nomask	3	31	453	0	300	300	0	0	625	46	1	0	freundlich	treu	helfen	spielen	fair	ehrlich	fanatisch	tot	hindern	strafen	faul	eitel	tolerant	lachen	schön	retten	schlau	loyal	tyrannisch	leiden	schlecht	rächen	schroff	lasch	1	blank2r.bmp	0	1	+	0	1	blank2r.bmp	500	1	GKQX	500	1	blank2r.bmp	880	2	tot	880	1	!	1293	1	!	-1	0	0	0	0	0	0
2024-05-07	10:40:04	10:46:50	406083	6.6.1	4_exp_EVA_AWA_CON	14	B	A	Rpleas_acq	Oppo	Rpleas	1pleas	acq_US_unple_nomask	acq3_nomask	3	32	453	0	300	300	0	0	631	46	1	0	freundlich	treu	helfen	spielen	fair	ehrlich	fanatisch	tot	hindern	strafen	faul	eitel	tolerant	lachen	schön	retten	schlau	loyal	tyrannisch	leiden	schlecht	rächen	schroff	lasch	1	blank2r.bmp	0	1	+	0	1	blank2r.bmp	500	1	GKQX	500	1	blank2r.bmp	880	1	fanatisch	880	1	!	1292	1	!	-1	0	0	0	0	0	0
2024-05-07	10:40:04	10:46:52	408270	6.6.1	4_exp_EVA_AWA_CON	14	B	A	Rpleas_acq	Oppo	Rpleas	1pleas	acq_US_unple_nomask	acq3_nomask	3	33	453	0	300	300	0	0	204	50	0	0	freundlich	treu	helfen	spielen	fair	ehrlich	fanatisch	tot	hindern	strafen	faul	eitel	tolerant	lachen	schön	retten	schlau	loyal	tyrannisch	leiden	schlecht	rächen	schroff	lasch	1	blank2r.bmp	0	1	+	0	1	blank2r.bmp	500	1	GKQX	500	1	blank2r.bmp	880	3	hindern	880	1	FEHLER	1397	1	!	-1	1	!	-1	0	0	0
2024-05-07	10:40:04	10:46:55	410572	6.6.1	4_exp_EVA_AWA_CON	14	B	A	Rpleas_acq	Oppo	Rpleas	1pleas	acq_US_pleas_nomask	acq3_nomask	3	34	453	0	300	300	0	0	526	46	0	0	freundlich	treu	helfen	spielen	fair	ehrlich	fanatisch	tot	hindern	strafen	faul	eitel	tolerant	lachen	schön	retten	schlau	loyal	tyrannisch	leiden	schlecht	rächen	schroff	lasch	1	blank2r.bmp	0	1	+	0	1	blank2r.bmp	500	1	BMVZ	500	1	blank2r.bmp	880	1	freundlich	880	1	FEHLER	1718	1	!	1292	1	!	-1	0	0	0
2024-05-07	10:40:04	10:46:57	412749	6.6.1	4_exp_EVA_AWA_CON	14	B	A	Rpleas_acq	Oppo	Rpleas	1pleas	acq_US_unple_nomask	acq3_nomask	3	35	453	1	300	300	0	0	401	50	0	0	freundlich	treu	helfen	spielen	fair	ehrlich	fanatisch	tot	hindern	strafen	faul	eitel	tolerant	lachen	schön	retten	schlau	loyal	tyrannisch	leiden	schlecht	rächen	schroff	lasch	1	blank2r.bmp	0	1	+	0	1	blank2r.bmp	500	1	GKQX	500	1	blank2r.bmp	880	4	strafen	880	1	FEHLER	1593	1	!	1292	1	!	1300	0	0	0
2024-05-07	10:40:04	10:46:59	414845	6.6.1	4_exp_EVA_AWA_CON	14	B	A	Rpleas_acq	Oppo	Rpleas	1pleas	acq_US_pleas_nomask	acq3_nomask	3	36	453	0	300	300	0	0	315	46	0	0	freundlich	treu	helfen	spielen	fair	ehrlich	fanatisch	tot	hindern	strafen	faul	eitel	tolerant	lachen	schön	retten	schlau	loyal	tyrannisch	leiden	schlecht	rächen	schroff	lasch	1	blank2r.bmp	0	1	+	0	1	blank2r.bmp	500	1	BMVZ	500	1	blank2r.bmp	880	4	spielen	880	1	FEHLER	1508	1	!	-1	1	!	-1	0	0	0
2024-05-07	10:40:04	10:47:12	428291	6.6.1	4_exp_EVA_AWA_CON	14	B	A	Rpleas_acq	Oppo	Rpleas	1pleas	acq_US_unple_nomask	acq45_nomask	4	1	400	0	300	300	0	0	525	46	1	0	freundlich	treu	helfen	spielen	fair	ehrlich	fanatisch	tot	hindern	strafen	faul	eitel	tolerant	lachen	schön	retten	schlau	loyal	tyrannisch	leiden	schlecht	rächen	schroff	lasch	1	blank2r.bmp	0	1	+	0	1	blank2r.bmp	500	1	GKQX	500	1	blank2r.bmp	880	1	fanatisch	880	1	!	1232	1	!	-1	0	0	0	0	0	0
2024-05-07	10:40:04	10:47:15	430524	6.6.1	4_exp_EVA_AWA_CON	14	B	A	Rpleas_acq	Oppo	Rpleas	1pleas	acq_US_unple_nomask	acq45_nomask	4	2	400	1	300	300	0	0	455	50	0	0	freundlich	treu	helfen	spielen	fair	ehrlich	fanatisch	tot	hindern	strafen	faul	eitel	tolerant	lachen	schön	retten	schlau	loyal	tyrannisch	leiden	schlecht	rächen	schroff	lasch	1	blank2r.bmp	0	1	+	0	1	blank2r.bmp	500	1	GKQX	500	1	blank2r.bmp	880	5	faul	880	1	!	1233	1	!	1357	0	0	0	0	0	0
2024-05-07	10:40:04	10:47:17	432571	6.6.1	4_exp_EVA_AWA_CON	14	B	A	Rpleas_acq	Oppo	Rpleas	1pleas	acq_US_unple_nomask	acq45_nomask	4	3	400	0	300	300	0	0	272	46	1	0	freundlich	treu	helfen	spielen	fair	ehrlich	fanatisch	tot	hindern	strafen	faul	eitel	tolerant	lachen	schön	retten	schlau	loyal	tyrannisch	leiden	schlecht	rächen	schroff	lasch	1	blank2r.bmp	0	1	+	0	1	blank2r.bmp	500	1	GKQX	500	1	blank2r.bmp	880	4	strafen	880	1	!	-1	1	!	-1	0	0	0	0	0	0
2024-05-07	10:40:04	10:47:19	434955	6.6.1	4_exp_EVA_AWA_CON	14	B	A	Rpleas_acq	Oppo	Rpleas	1pleas	acq_US_pleas_nomask	acq45_nomask	4	4	400	0	300	300	0	0	605	50	1	0	freundlich	treu	helfen	spielen	fair	ehrlich	fanatisch	tot	hindern	strafen	faul	eitel	tolerant	lachen	schön	retten	schlau	loyal	tyrannisch	leiden	schlecht	rächen	schroff	lasch	1	blank2r.bmp	0	1	+	0	1	blank2r.bmp	500	1	BMVZ	500	1	blank2r.bmp	880	6	ehrlich	880	1	!	1232	1	!	-1	0	0	0	0	0	0
2024-05-07	10:40:04	10:47:21	437347	6.6.1	4_exp_EVA_AWA_CON	14	B	A	Rpleas_acq	Oppo	Rpleas	1pleas	acq_US_unple_nomask	acq45_nomask	4	5	400	0	300	300	0	0	615	46	1	0	freundlich	treu	helfen	spielen	fair	ehrlich	fanatisch	tot	hindern	strafen	faul	eitel	tolerant	lachen	schön	retten	schlau	loyal	tyrannisch	leiden	schlecht	rächen	schroff	lasch	1	blank2r.bmp	0	1	+	0	1	blank2r.bmp	500	1	GKQX	500	1	blank2r.bmp	880	2	tot	880	1	!	1233	1	!	-1	0	0	0	0	0	0
2024-05-07	10:40:04	10:47:24	439525	6.6.1	4_exp_EVA_AWA_CON	14	B	A	Rpleas_acq	Oppo	Rpleas	1pleas	acq_US_pleas_nomask	acq45_nomask	4	6	400	1	300	300	0	0	400	46	0	0	freundlich	treu	helfen	spielen	fair	ehrlich	fanatisch	tot	hindern	strafen	faul	eitel	tolerant	lachen	schön	retten	schlau	loyal	tyrannisch	leiden	schlecht	rächen	schroff	lasch	1	blank2r.bmp	0	1	+	0	1	blank2r.bmp	500	1	BMVZ	500	1	blank2r.bmp	880	1	freundlich	880	1	!	1232	1	!	1301	0	0	0	0	0	0
2024-05-07	10:40:04	10:47:26	441626	6.6.1	4_exp_EVA_AWA_CON	14	B	A	Rpleas_acq	Oppo	Rpleas	1pleas	acq_US_pleas_nomask	acq45_nomask	4	7	400	0	300	300	0	0	322	50	1	0	freundlich	treu	helfen	spielen	fair	ehrlich	fanatisch	tot	hindern	strafen	faul	eitel	tolerant	lachen	schön	retten	schlau	loyal	tyrannisch	leiden	schlecht	rächen	schroff	lasch	1	blank2r.bmp	0	1	+	0	1	blank2r.bmp	500	1	BMVZ	500	1	blank2r.bmp	880	2	treu	880	1	!	-1	1	!	-1	0	0	0	0	0	0
2024-05-07	10:40:04	10:47:28	443804	6.6.1	4_exp_EVA_AWA_CON	14	B	A	Rpleas_acq	Oppo	Rpleas	1pleas	acq_US_unple_nomask	acq45_nomask	4	8	400	1	300	300	0	0	397	50	0	0	freundlich	treu	helfen	spielen	fair	ehrlich	fanatisch	tot	hindern	strafen	faul	eitel	tolerant	lachen	schön	retten	schlau	loyal	tyrannisch	leiden	schlecht	rächen	schroff	lasch	1	blank2r.bmp	0	1	+	0	1	blank2r.bmp	500	1	GKQX	500	1	blank2r.bmp	880	6	eitel	880	1	!	1232	1	!	1298	0	0	0	0	0	0
2024-05-07	10:40:04	10:47:30	445964	6.6.1	4_exp_EVA_AWA_CON	14	B	A	Rpleas_acq	Oppo	Rpleas	1pleas	acq_US_unple_nomask	acq45_nomask	4	9	400	1	300	300	0	0	386	46	1	0	freundlich	treu	helfen	spielen	fair	ehrlich	fanatisch	tot	hindern	strafen	faul	eitel	tolerant	lachen	schön	retten	schlau	loyal	tyrannisch	leiden	schlecht	rächen	schroff	lasch	1	blank2r.bmp	0	1	+	0	1	blank2r.bmp	500	1	GKQX	500	1	blank2r.bmp	880	3	hindern	880	1	!	1232	1	!	1287	0	0	0	0	0	0
2024-05-07	10:40:04	10:47:32	448101	6.6.1	4_exp_EVA_AWA_CON	14	B	A	Rpleas_acq	Oppo	Rpleas	1pleas	acq_US_pleas_nomask	acq45_nomask	4	10	400	1	300	300	0	0	360	50	1	0	freundlich	treu	helfen	spielen	fair	ehrlich	fanatisch	tot	hindern	strafen	faul	eitel	tolerant	lachen	schön	retten	schlau	loyal	tyrannisch	leiden	schlecht	rächen	schroff	lasch	1	blank2r.bmp	0	1	+	0	1	blank2r.bmp	500	1	BMVZ	500	1	blank2r.bmp	880	3	helfen	880	1	!	1232	1	!	1262	0	0	0	0	0	0
2024-05-07	10:40:04	10:47:34	450353	6.6.1	4_exp_EVA_AWA_CON	14	B	A	Rpleas_acq	Oppo	Rpleas	1pleas	acq_US_unple_nomask	acq45_nomask	4	11	400	0	300	300	0	0	475	46	1	0	freundlich	treu	helfen	spielen	fair	ehrlich	fanatisch	tot	hindern	strafen	faul	eitel	tolerant	lachen	schön	retten	schlau	loyal	tyrannisch	leiden	schlecht	rächen	schroff	lasch	1	blank2r.bmp	0	1	+	0	1	blank2r.bmp	500	1	GKQX	500	1	blank2r.bmp	880	2	tot	880	1	!	1232	1	!	-1	0	0	0	0	0	0
2024-05-07	10:40:04	10:47:37	452492	6.6.1	4_exp_EVA_AWA_CON	14	B	A	Rpleas_acq	Oppo	Rpleas	1pleas	acq_US_pleas_nomask	acq45_nomask	4	12	400	1	300	300	0	0	359	50	1	0	freundlich	treu	helfen	spielen	fair	ehrlich	fanatisch	tot	hindern	strafen	faul	eitel	tolerant	lachen	schön	retten	schlau	loyal	tyrannisch	leiden	schlecht	rächen	schroff	lasch	1	blank2r.bmp	0	1	+	0	1	blank2r.bmp	500	1	BMVZ	500	1	blank2r.bmp	880	5	fair	880	1	!	1232	1	!	1260	0	0	0	0	0	0
2024-05-07	10:40:04	10:47:39	454645	6.6.1	4_exp_EVA_AWA_CON	14	B	A	Rpleas_acq	Oppo	Rpleas	1pleas	acq_US_pleas_nomask	acq45_nomask	4	13	400	1	300	300	0	0	370	46	0	0	freundlich	treu	helfen	spielen	fair	ehrlich	fanatisch	tot	hindern	strafen	faul	eitel	tolerant	lachen	schön	retten	schlau	loyal	tyrannisch	leiden	schlecht	rächen	schroff	lasch	1	blank2r.bmp	0	1	+	0	1	blank2r.bmp	500	1	BMVZ	500	1	blank2r.bmp	880	4	spielen	880	1	!	1232	1	!	1272	0	0	0	0	0	0
2024-05-07	10:40:04	10:47:41	456812	6.6.1	4_exp_EVA_AWA_CON	14	B	A	Rpleas_acq	Oppo	Rpleas	1pleas	acq_US_pleas_nomask	acq45_nomask	4	14	400	1	300	300	0	0	387	50	1	0	freundlich	treu	helfen	spielen	fair	ehrlich	fanatisch	tot	hindern	strafen	faul	eitel	tolerant	lachen	schön	retten	schlau	loyal	tyrannisch	leiden	schlecht	rächen	schroff	lasch	1	blank2r.bmp	0	1	+	0	1	blank2r.bmp	500	1	BMVZ	500	1	blank2r.bmp	880	2	treu	880	1	!	1232	1	!	1288	0	0	0	0	0	0
2024-05-07	10:40:04	10:47:43	459090	6.6.1	4_exp_EVA_AWA_CON	14	B	A	Rpleas_acq	Oppo	Rpleas	1pleas	acq_US_pleas_nomask	acq45_nomask	4	15	400	0	300	300	0	0	505	50	1	0	freundlich	treu	helfen	spielen	fair	ehrlich	fanatisch	tot	hindern	strafen	faul	eitel	tolerant	lachen	schön	retten	schlau	loyal	tyrannisch	leiden	schlecht	rächen	schroff	lasch	1	blank2r.bmp	0	1	+	0	1	blank2r.bmp	500	1	BMVZ	500	1	blank2r.bmp	880	5	fair	880	1	!	1232	1	!	-1	0	0	0	0	0	0
2024-05-07	10:40:04	10:47:45	461051	6.6.1	4_exp_EVA_AWA_CON	14	B	A	Rpleas_acq	Oppo	Rpleas	1pleas	acq_US_pleas_nomask	acq45_nomask	4	16	400	0	300	300	0	0	184	50	1	0	freundlich	treu	helfen	spielen	fair	ehrlich	fanatisch	tot	hindern	strafen	faul	eitel	tolerant	lachen	schön	retten	schlau	loyal	tyrannisch	leiden	schlecht	rächen	schroff	lasch	1	blank2r.bmp	0	1	+	0	1	blank2r.bmp	500	1	BMVZ	500	1	blank2r.bmp	880	4	spielen	880	1	!	-1	1	!	-1	0	0	0	0	0	0
2024-05-07	10:40:04	10:47:47	463139	6.6.1	4_exp_EVA_AWA_CON	14	B	A	Rpleas_acq	Oppo	Rpleas	1pleas	acq_US_unple_nomask	acq45_nomask	4	17	400	0	300	300	0	0	310	50	0	0	freundlich	treu	helfen	spielen	fair	ehrlich	fanatisch	tot	hindern	strafen	faul	eitel	tolerant	lachen	schön	retten	schlau	loyal	tyrannisch	leiden	schlecht	rächen	schroff	lasch	1	blank2r.bmp	0	1	+	0	1	blank2r.bmp	500	1	GKQX	500	1	blank2r.bmp	880	3	hindern	880	1	!	-1	1	!	-1	0	0	0	0	0	0
2024-05-07	10:40:04	10:47:49	465179	6.6.1	4_exp_EVA_AWA_CON	14	B	A	Rpleas_acq	Oppo	Rpleas	1pleas	acq_US_unple_nomask	acq45_nomask	4	18	400	0	300	300	0	0	259	46	1	0	freundlich	treu	helfen	spielen	fair	ehrlich	fanatisch	tot	hindern	strafen	faul	eitel	tolerant	lachen	schön	retten	schlau	loyal	tyrannisch	leiden	schlecht	rächen	schroff	lasch	1	blank2r.bmp	0	1	+	0	1	blank2r.bmp	500	1	GKQX	500	1	blank2r.bmp	880	4	strafen	880	1	!	-1	1	!	-1	0	0	0	0	0	0
2024-05-07	10:40:04	10:47:51	467404	6.6.1	4_exp_EVA_AWA_CON	14	B	A	Rpleas_acq	Oppo	Rpleas	1pleas	acq_US_pleas_nomask	acq45_nomask	4	19	400	1	300	300	0	0	442	50	1	0	freundlich	treu	helfen	spielen	fair	ehrlich	fanatisch	tot	hindern	strafen	faul	eitel	tolerant	lachen	schön	retten	schlau	loyal	tyrannisch	leiden	schlecht	rächen	schroff	lasch	1	blank2r.bmp	0	1	+	0	1	blank2r.bmp	500	1	BMVZ	500	1	blank2r.bmp	880	1	freundlich	880	1	!	1233	1	!	1343	0	0	0	0	0	0
2024-05-07	10:40:04	10:47:54	469666	6.6.1	4_exp_EVA_AWA_CON	14	B	A	Rpleas_acq	Oppo	Rpleas	1pleas	acq_US_pleas_nomask	acq45_nomask	4	20	400	0	300	300	0	0	484	50	1	0	freundlich	treu	helfen	spielen	fair	ehrlich	fanatisch	tot	hindern	strafen	faul	eitel	tolerant	lachen	schön	retten	schlau	loyal	tyrannisch	leiden	schlecht	rächen	schroff	lasch	1	blank2r.bmp	0	1	+	0	1	blank2r.bmp	500	1	BMVZ	500	1	blank2r.bmp	880	6	ehrlich	880	1	!	1232	1	!	-1	0	0	0	0	0	0
2024-05-07	10:40:04	10:47:56	471852	6.6.1	4_exp_EVA_AWA_CON	14	B	A	Rpleas_acq	Oppo	Rpleas	1pleas	acq_US_unple_nomask	acq45_nomask	4	21	400	1	300	300	0	0	407	46	1	0	freundlich	treu	helfen	spielen	fair	ehrlich	fanatisch	tot	hindern	strafen	faul	eitel	tolerant	lachen	schön	retten	schlau	loyal	tyrannisch	leiden	schlecht	rächen	schroff	lasch	1	blank2r.bmp	0	1	+	0	1	blank2r.bmp	500	1	GKQX	500	1	blank2r.bmp	880	5	faul	880	1	!	1232	1	!	1308	0	0	0	0	0	0
2024-05-07	10:40:04	10:47:58	474084	6.6.1	4_exp_EVA_AWA_CON	14	B	A	Rpleas_acq	Oppo	Rpleas	1pleas	acq_US_pleas_nomask	acq45_nomask	4	22	400	1	300	300	0	0	458	50	1	0	freundlich	treu	helfen	spielen	fair	ehrlich	fanatisch	tot	hindern	strafen	faul	eitel	tolerant	lachen	schön	retten	schlau	loyal	tyrannisch	leiden	schlecht	rächen	schroff	lasch	1	blank2r.bmp	0	1	+	0	1	blank2r.bmp	500	1	BMVZ	500	1	blank2r.bmp	880	3	helfen	880	1	!	1232	1	!	1359	0	0	0	0	0	0
2024-05-07	10:40:04	10:48:00	476107	6.6.1	4_exp_EVA_AWA_CON	14	B	A	Rpleas_acq	Oppo	Rpleas	1pleas	acq_US_pleas_nomask	acq45_nomask	4	23	400	0	300	300	0	0	250	50	1	0	freundlich	treu	helfen	spielen	fair	ehrlich	fanatisch	tot	hindern	strafen	faul	eitel	tolerant	lachen	schön	retten	schlau	loyal	tyrannisch	leiden	schlecht	rächen	schroff	lasch	1	blank2r.bmp	0	1	+	0	1	blank2r.bmp	500	1	BMVZ	500	1	blank2r.bmp	880	1	freundlich	880	1	!	-1	1	!	-1	0	0	0	0	0	0
2024-05-07	10:40:04	10:48:02	478171	6.6.1	4_exp_EVA_AWA_CON	14	B	A	Rpleas_acq	Oppo	Rpleas	1pleas	acq_US_unple_nomask	acq45_nomask	4	24	400	0	300	300	0	0	283	50	0	0	freundlich	treu	helfen	spielen	fair	ehrlich	fanatisch	tot	hindern	strafen	faul	eitel	tolerant	lachen	schön	retten	schlau	loyal	tyrannisch	leiden	schlecht	rächen	schroff	lasch	1	blank2r.bmp	0	1	+	0	1	blank2r.bmp	500	1	GKQX	500	1	blank2r.bmp	880	1	fanatisch	880	1	!	-1	1	!	-1	0	0	0	0	0	0
2024-05-07	10:40:04	10:48:04	480258	6.6.1	4_exp_EVA_AWA_CON	14	B	A	Rpleas_acq	Oppo	Rpleas	1pleas	acq_US_pleas_nomask	acq45_nomask	4	25	400	0	300	300	0	0	309	46	0	0	freundlich	treu	helfen	spielen	fair	ehrlich	fanatisch	tot	hindern	strafen	faul	eitel	tolerant	lachen	schön	retten	schlau	loyal	tyrannisch	leiden	schlecht	rächen	schroff	lasch	1	blank2r.bmp	0	1	+	0	1	blank2r.bmp	500	1	BMVZ	500	1	blank2r.bmp	880	2	treu	880	1	!	-1	1	!	-1	0	0	0	0	0	0
2024-05-07	10:40:04	10:48:06	482298	6.6.1	4_exp_EVA_AWA_CON	14	B	A	Rpleas_acq	Oppo	Rpleas	1pleas	acq_US_unple_nomask	acq45_nomask	4	26	400	0	300	300	0	0	268	50	0	0	freundlich	treu	helfen	spielen	fair	ehrlich	fanatisch	tot	hindern	strafen	faul	eitel	tolerant	lachen	schön	retten	schlau	loyal	tyrannisch	leiden	schlecht	rächen	schroff	lasch	1	blank2r.bmp	0	1	+	0	1	blank2r.bmp	500	1	GKQX	500	1	blank2r.bmp	880	6	eitel	880	1	!	-1	1	!	-1	0	0	0	0	0	0
2024-05-07	10:40:04	10:48:10	485435	6.6.1	4_exp_EVA_AWA_CON	14	B	A	Rpleas_acq	Oppo	Rpleas	1pleas	acq_US_unple_nomask	acq45_nomask	4	27	400	0	300	300	0	0	1363	46	1	0	freundlich	treu	helfen	spielen	fair	ehrlich	fanatisch	tot	hindern	strafen	faul	eitel	tolerant	lachen	schön	retten	schlau	loyal	tyrannisch	leiden	schlecht	rächen	schroff	lasch	1	blank2r.bmp	0	1	+	0	1	blank2r.bmp	500	1	GKQX	500	1	blank2r.bmp	880	5	faul	880	1	!	1232	1	!	-1	0	0	0	0	0	0
2024-05-07	10:40:04	10:48:11	487355	6.6.1	4_exp_EVA_AWA_CON	14	B	A	Rpleas_acq	Oppo	Rpleas	1pleas	acq_US_unple_nomask	acq45_nomask	4	28	400	0	300	300	0	0	141	46	1	0	freundlich	treu	helfen	spielen	fair	ehrlich	fanatisch	tot	hindern	strafen	faul	eitel	tolerant	lachen	schön	retten	schlau	loyal	tyrannisch	leiden	schlecht	rächen	schroff	lasch	1	blank2r.bmp	0	1	+	0	1	blank2r.bmp	500	1	GKQX	500	1	blank2r.bmp	880	4	strafen	880	1	!	-1	1	!	-1	0	0	0	0	0	0
2024-05-07	10:40:04	10:48:14	489643	6.6.1	4_exp_EVA_AWA_CON	14	B	A	Rpleas_acq	Oppo	Rpleas	1pleas	acq_US_unple_nomask	acq45_nomask	4	29	400	0	300	300	0	0	507	46	1	0	freundlich	treu	helfen	spielen	fair	ehrlich	fanatisch	tot	hindern	strafen	faul	eitel	tolerant	lachen	schön	retten	schlau	loyal	tyrannisch	leiden	schlecht	rächen	schroff	lasch	1	blank2r.bmp	0	1	+	0	1	blank2r.bmp	500	1	GKQX	500	1	blank2r.bmp	880	2	tot	880	1	!	1232	1	!	-1	0	0	0	0	0	0
2024-05-07	10:40:04	10:48:16	491876	6.6.1	4_exp_EVA_AWA_CON	14	B	A	Rpleas_acq	Oppo	Rpleas	1pleas	acq_US_pleas_nomask	acq45_nomask	4	30	400	1	300	300	0	0	458	46	0	0	freundlich	treu	helfen	spielen	fair	ehrlich	fanatisch	tot	hindern	strafen	faul	eitel	tolerant	lachen	schön	retten	schlau	loyal	tyrannisch	leiden	schlecht	rächen	schroff	lasch	1	blank2r.bmp	0	1	+	0	1	blank2r.bmp	500	1	BMVZ	500	1	blank2r.bmp	880	5	fair	880	1	!	1232	1	!	1359	0	0	0	0	0	0
2024-05-07	10:40:04	10:48:18	494069	6.6.1	4_exp_EVA_AWA_CON	14	B	A	Rpleas_acq	Oppo	Rpleas	1pleas	acq_US_unple_nomask	acq45_nomask	4	31	400	1	300	300	0	0	409	50	0	0	freundlich	treu	helfen	spielen	fair	ehrlich	fanatisch	tot	hindern	strafen	faul	eitel	tolerant	lachen	schön	retten	schlau	loyal	tyrannisch	leiden	schlecht	rächen	schroff	lasch	1	blank2r.bmp	0	1	+	0	1	blank2r.bmp	500	1	GKQX	500	1	blank2r.bmp	880	6	eitel	880	1	!	1232	1	!	1310	0	0	0	0	0	0
2024-05-07	10:40:04	10:48:22	497523	6.6.1	4_exp_EVA_AWA_CON	14	B	A	Rpleas_acq	Oppo	Rpleas	1pleas	acq_US_pleas_nomask	acq45_nomask	4	32	400	0	300	300	0	0	1673	50	1	0	freundlich	treu	helfen	spielen	fair	ehrlich	fanatisch	tot	hindern	strafen	faul	eitel	tolerant	lachen	schön	retten	schlau	loyal	tyrannisch	leiden	schlecht	rächen	schroff	lasch	1	blank2r.bmp	0	1	+	0	1	blank2r.bmp	500	1	BMVZ	500	1	blank2r.bmp	880	3	helfen	880	1	!	1232	1	!	-1	0	0	0	0	0	0
2024-05-07	10:40:04	10:48:24	499611	6.6.1	4_exp_EVA_AWA_CON	14	B	A	Rpleas_acq	Oppo	Rpleas	1pleas	acq_US_pleas_nomask	acq45_nomask	4	33	400	0	300	300	0	0	309	50	1	0	freundlich	treu	helfen	spielen	fair	ehrlich	fanatisch	tot	hindern	strafen	faul	eitel	tolerant	lachen	schön	retten	schlau	loyal	tyrannisch	leiden	schlecht	rächen	schroff	lasch	1	blank2r.bmp	0	1	+	0	1	blank2r.bmp	500	1	BMVZ	500	1	blank2r.bmp	880	6	ehrlich	880	1	!	-1	1	!	-1	0	0	0	0	0	0
2024-05-07	10:40:04	10:48:26	501675	6.6.1	4_exp_EVA_AWA_CON	14	B	A	Rpleas_acq	Oppo	Rpleas	1pleas	acq_US_unple_nomask	acq45_nomask	4	34	400	0	300	300	0	0	282	50	0	0	freundlich	treu	helfen	spielen	fair	ehrlich	fanatisch	tot	hindern	strafen	faul	eitel	tolerant	lachen	schön	retten	schlau	loyal	tyrannisch	leiden	schlecht	rächen	schroff	lasch	1	blank2r.bmp	0	1	+	0	1	blank2r.bmp	500	1	GKQX	500	1	blank2r.bmp	880	3	hindern	880	1	!	-1	1	!	-1	0	0	0	0	0	0
2024-05-07	10:40:04	10:48:28	503586	6.6.1	4_exp_EVA_AWA_CON	14	B	A	Rpleas_acq	Oppo	Rpleas	1pleas	acq_US_unple_nomask	acq45_nomask	4	35	400	0	300	300	0	0	132	46	1	0	freundlich	treu	helfen	spielen	fair	ehrlich	fanatisch	tot	hindern	strafen	faul	eitel	tolerant	lachen	schön	retten	schlau	loyal	tyrannisch	leiden	schlecht	rächen	schroff	lasch	1	blank2r.bmp	0	1	+	0	1	blank2r.bmp	500	1	GKQX	500	1	blank2r.bmp	880	1	fanatisch	880	1	!	-1	1	!	-1	0	0	0	0	0	0
2024-05-07	10:40:04	10:48:30	506178	6.6.1	4_exp_EVA_AWA_CON	14	B	A	Rpleas_acq	Oppo	Rpleas	1pleas	acq_US_pleas_nomask	acq45_nomask	4	36	400	0	300	300	0	0	813	50	1	0	freundlich	treu	helfen	spielen	fair	ehrlich	fanatisch	tot	hindern	strafen	faul	eitel	tolerant	lachen	schön	retten	schlau	loyal	tyrannisch	leiden	schlecht	rächen	schroff	lasch	1	blank2r.bmp	0	1	+	0	1	blank2r.bmp	500	1	BMVZ	500	1	blank2r.bmp	880	4	spielen	880	1	!	1232	1	!	-1	0	0	0	0	0	0
2024-05-07	10:40:04	10:48:41	517245	6.6.1	4_exp_EVA_AWA_CON	14	B	A	Rpleas_acq	Oppo	Rpleas	1pleas	acq_US_unple_nomask	acq45_nomask	5	1	400	1	300	300	0	0	360	46	1	0	freundlich	treu	helfen	spielen	fair	ehrlich	fanatisch	tot	hindern	strafen	faul	eitel	tolerant	lachen	schön	retten	schlau	loyal	tyrannisch	leiden	schlecht	rächen	schroff	lasch	1	blank2r.bmp	0	1	+	0	1	blank2r.bmp	500	1	GKQX	500	1	blank2r.bmp	880	1	fanatisch	880	1	!	1232	1	!	1262	0	0	0	0	0	0
2024-05-07	10:40:04	10:48:44	519437	6.6.1	4_exp_EVA_AWA_CON	14	B	A	Rpleas_acq	Oppo	Rpleas	1pleas	acq_US_pleas_nomask	acq45_nomask	5	2	400	1	300	300	0	0	410	50	1	0	freundlich	treu	helfen	spielen	fair	ehrlich	fanatisch	tot	hindern	strafen	faul	eitel	tolerant	lachen	schön	retten	schlau	loyal	tyrannisch	leiden	schlecht	rächen	schroff	lasch	1	blank2r.bmp	0	1	+	0	1	blank2r.bmp	500	1	BMVZ	500	1	blank2r.bmp	880	3	helfen	880	1	!	1232	1	!	1312	0	0	0	0	0	0
2024-05-07	10:40:04	10:48:46	521507	6.6.1	4_exp_EVA_AWA_CON	14	B	A	Rpleas_acq	Oppo	Rpleas	1pleas	acq_US_unple_nomask	acq45_nomask	5	3	400	0	300	300	0	0	291	50	0	0	freundlich	treu	helfen	spielen	fair	ehrlich	fanatisch	tot	hindern	strafen	faul	eitel	tolerant	lachen	schön	retten	schlau	loyal	tyrannisch	leiden	schlecht	rächen	schroff	lasch	1	blank2r.bmp	0	1	+	0	1	blank2r.bmp	500	1	GKQX	500	1	blank2r.bmp	880	4	strafen	880	1	!	-1	1	!	-1	0	0	0	0	0	0
2024-05-07	10:40:04	10:48:48	523676	6.6.1	4_exp_EVA_AWA_CON	14	B	A	Rpleas_acq	Oppo	Rpleas	1pleas	acq_US_pleas_nomask	acq45_nomask	5	4	400	1	300	300	0	0	388	46	0	0	freundlich	treu	helfen	spielen	fair	ehrlich	fanatisch	tot	hindern	strafen	faul	eitel	tolerant	lachen	schön	retten	schlau	loyal	tyrannisch	leiden	schlecht	rächen	schroff	lasch	1	blank2r.bmp	0	1	+	0	1	blank2r.bmp	500	1	BMVZ	500	1	blank2r.bmp	880	1	freundlich	880	1	!	1233	1	!	1289	0	0	0	0	0	0
2024-05-07	10:40:04	10:48:50	525730	6.6.1	4_exp_EVA_AWA_CON	14	B	A	Rpleas_acq	Oppo	Rpleas	1pleas	acq_US_pleas_nomask	acq45_nomask	5	5	400	0	300	300	0	0	282	50	1	0	freundlich	treu	helfen	spielen	fair	ehrlich	fanatisch	tot	hindern	strafen	faul	eitel	tolerant	lachen	schön	retten	schlau	loyal	tyrannisch	leiden	schlecht	rächen	schroff	lasch	1	blank2r.bmp	0	1	+	0	1	blank2r.bmp	500	1	BMVZ	500	1	blank2r.bmp	880	5	fair	880	1	!	-1	1	!	-1	0	0	0	0	0	0
2024-05-07	10:40:04	10:48:52	528091	6.6.1	4_exp_EVA_AWA_CON	14	B	A	Rpleas_acq	Oppo	Rpleas	1pleas	acq_US_unple_nomask	acq45_nomask	5	6	400	0	300	300	0	0	581	46	1	0	freundlich	treu	helfen	spielen	fair	ehrlich	fanatisch	tot	hindern	strafen	faul	eitel	tolerant	lachen	schön	retten	schlau	loyal	tyrannisch	leiden	schlecht	rächen	schroff	lasch	1	blank2r.bmp	0	1	+	0	1	blank2r.bmp	500	1	GKQX	500	1	blank2r.bmp	880	6	eitel	880	1	!	1232	1	!	-1	0	0	0	0	0	0
2024-05-07	10:40:04	10:48:54	530252	6.6.1	4_exp_EVA_AWA_CON	14	B	A	Rpleas_acq	Oppo	Rpleas	1pleas	acq_US_pleas_nomask	acq45_nomask	5	7	400	1	300	300	0	0	379	46	0	0	freundlich	treu	helfen	spielen	fair	ehrlich	fanatisch	tot	hindern	strafen	faul	eitel	tolerant	lachen	schön	retten	schlau	loyal	tyrannisch	leiden	schlecht	rächen	schroff	lasch	1	blank2r.bmp	0	1	+	0	1	blank2r.bmp	500	1	BMVZ	500	1	blank2r.bmp	880	6	ehrlich	880	1	!	1232	1	!	1280	0	0	0	0	0	0
2024-05-07	10:40:04	10:48:56	532219	6.6.1	4_exp_EVA_AWA_CON	14	B	A	Rpleas_acq	Oppo	Rpleas	1pleas	acq_US_unple_nomask	acq45_nomask	5	8	400	0	300	300	0	0	186	50	0	0	freundlich	treu	helfen	spielen	fair	ehrlich	fanatisch	tot	hindern	strafen	faul	eitel	tolerant	lachen	schön	retten	schlau	loyal	tyrannisch	leiden	schlecht	rächen	schroff	lasch	1	blank2r.bmp	0	1	+	0	1	blank2r.bmp	500	1	GKQX	500	1	blank2r.bmp	880	3	hindern	880	1	!	-1	1	!	-1	0	0	0	0	0	0
2024-05-07	10:40:04	10:48:58	534307	6.6.1	4_exp_EVA_AWA_CON	14	B	A	Rpleas_acq	Oppo	Rpleas	1pleas	acq_US_pleas_nomask	acq45_nomask	5	9	400	0	300	300	0	0	313	46	0	0	freundlich	treu	helfen	spielen	fair	ehrlich	fanatisch	tot	hindern	strafen	faul	eitel	tolerant	lachen	schön	retten	schlau	loyal	tyrannisch	leiden	schlecht	rächen	schroff	lasch	1	blank2r.bmp	0	1	+	0	1	blank2r.bmp	500	1	BMVZ	500	1	blank2r.bmp	880	2	treu	880	1	!	-1	1	!	-1	0	0	0	0	0	0
2024-05-07	10:40:04	10:49:00	536226	6.6.1	4_exp_EVA_AWA_CON	14	B	A	Rpleas_acq	Oppo	Rpleas	1pleas	acq_US_unple_nomask	acq45_nomask	5	10	400	0	300	300	0	0	141	50	0	0	freundlich	treu	helfen	spielen	fair	ehrlich	fanatisch	tot	hindern	strafen	faul	eitel	tolerant	lachen	schön	retten	schlau	loyal	tyrannisch	leiden	schlecht	rächen	schroff	lasch	1	blank2r.bmp	0	1	+	0	1	blank2r.bmp	500	1	GKQX	500	1	blank2r.bmp	880	5	faul	880	1	!	-1	1	!	-1	0	0	0	0	0	0
2024-05-07	10:40:04	10:49:02	538323	6.6.1	4_exp_EVA_AWA_CON	14	B	A	Rpleas_acq	Oppo	Rpleas	1pleas	acq_US_unple_nomask	acq45_nomask	5	11	400	0	300	300	0	0	316	46	1	0	freundlich	treu	helfen	spielen	fair	ehrlich	fanatisch	tot	hindern	strafen	faul	eitel	tolerant	lachen	schön	retten	schlau	loyal	tyrannisch	leiden	schlecht	rächen	schroff	lasch	1	blank2r.bmp	0	1	+	0	1	blank2r.bmp	500	1	GKQX	500	1	blank2r.bmp	880	2	tot	880	1	!	-1	1	!	-1	0	0	0	0	0	0
2024-05-07	10:40:04	10:49:05	540541	6.6.1	4_exp_EVA_AWA_CON	14	B	A	Rpleas_acq	Oppo	Rpleas	1pleas	acq_US_pleas_nomask	acq45_nomask	5	12	400	1	300	300	0	0	441	46	0	0	freundlich	treu	helfen	spielen	fair	ehrlich	fanatisch	tot	hindern	strafen	faul	eitel	tolerant	lachen	schön	retten	schlau	loyal	tyrannisch	leiden	schlecht	rächen	schroff	lasch	1	blank2r.bmp	0	1	+	0	1	blank2r.bmp	500	1	BMVZ	500	1	blank2r.bmp	880	4	spielen	880	1	!	1233	1	!	1342	0	0	0	0	0	0
2024-05-07	10:40:04	10:49:07	542676	6.6.1	4_exp_EVA_AWA_CON	14	B	A	Rpleas_acq	Oppo	Rpleas	1pleas	acq_US_pleas_nomask	acq45_nomask	5	13	400	1	300	300	0	0	355	50	1	0	freundlich	treu	helfen	spielen	fair	ehrlich	fanatisch	tot	hindern	strafen	faul	eitel	tolerant	lachen	schön	retten	schlau	loyal	tyrannisch	leiden	schlecht	rächen	schroff	lasch	1	blank2r.bmp	0	1	+	0	1	blank2r.bmp	500	1	BMVZ	500	1	blank2r.bmp	880	6	ehrlich	880	1	!	1232	1	!	1256	0	0	0	0	0	0
2024-05-07	10:40:04	10:49:09	544786	6.6.1	4_exp_EVA_AWA_CON	14	B	A	Rpleas_acq	Oppo	Rpleas	1pleas	acq_US_unple_nomask	acq45_nomask	5	14	400	1	300	300	0	0	336	50	0	0	freundlich	treu	helfen	spielen	fair	ehrlich	fanatisch	tot	hindern	strafen	faul	eitel	tolerant	lachen	schön	retten	schlau	loyal	tyrannisch	leiden	schlecht	rächen	schroff	lasch	1	blank2r.bmp	0	1	+	0	1	blank2r.bmp	500	1	GKQX	500	1	blank2r.bmp	880	3	hindern	880	1	!	1233	1	!	1235	0	0	0	0	0	0
2024-05-07	10:40:04	10:49:11	546925	6.6.1	4_exp_EVA_AWA_CON	14	B	A	Rpleas_acq	Oppo	Rpleas	1pleas	acq_US_pleas_nomask	acq45_nomask	5	15	400	1	300	300	0	0	361	46	0	0	freundlich	treu	helfen	spielen	fair	ehrlich	fanatisch	tot	hindern	strafen	faul	eitel	tolerant	lachen	schön	retten	schlau	loyal	tyrannisch	leiden	schlecht	rächen	schroff	lasch	1	blank2r.bmp	0	1	+	0	1	blank2r.bmp	500	1	BMVZ	500	1	blank2r.bmp	880	2	treu	880	1	!	1232	1	!	1262	0	0	0	0	0	0
2024-05-07	10:40:04	10:49:13	548963	6.6.1	4_exp_EVA_AWA_CON	14	B	A	Rpleas_acq	Oppo	Rpleas	1pleas	acq_US_unple_nomask	acq45_nomask	5	16	400	0	300	300	0	0	259	50	0	0	freundlich	treu	helfen	spielen	fair	ehrlich	fanatisch	tot	hindern	strafen	faul	eitel	tolerant	lachen	schön	retten	schlau	loyal	tyrannisch	leiden	schlecht	rächen	schroff	lasch	1	blank2r.bmp	0	1	+	0	1	blank2r.bmp	500	1	GKQX	500	1	blank2r.bmp	880	4	strafen	880	1	!	-1	1	!	-1	0	0	0	0	0	0
2024-05-07	10:40:04	10:49:15	550947	6.6.1	4_exp_EVA_AWA_CON	14	B	A	Rpleas_acq	Oppo	Rpleas	1pleas	acq_US_pleas_nomask	acq45_nomask	5	17	400	0	300	300	0	0	202	46	0	0	freundlich	treu	helfen	spielen	fair	ehrlich	fanatisch	tot	hindern	strafen	faul	eitel	tolerant	lachen	schön	retten	schlau	loyal	tyrannisch	leiden	schlecht	rächen	schroff	lasch	1	blank2r.bmp	0	1	+	0	1	blank2r.bmp	500	1	BMVZ	500	1	blank2r.bmp	880	3	helfen	880	1	!	-1	1	!	-1	0	0	0	0	0	0
2024-05-07	10:40:04	10:49:17	553258	6.6.1	4_exp_EVA_AWA_CON	14	B	A	Rpleas_acq	Oppo	Rpleas	1pleas	acq_US_unple_nomask	acq45_nomask	5	18	400	0	300	300	0	0	533	46	1	0	freundlich	treu	helfen	spielen	fair	ehrlich	fanatisch	tot	hindern	strafen	faul	eitel	tolerant	lachen	schön	retten	schlau	loyal	tyrannisch	leiden	schlecht	rächen	schroff	lasch	1	blank2r.bmp	0	1	+	0	1	blank2r.bmp	500	1	GKQX	500	1	blank2r.bmp	880	1	fanatisch	880	1	!	1232	1	!	-1	0	0	0	0	0	0
2024-05-07	10:40:04	10:49:20	555626	6.6.1	4_exp_EVA_AWA_CON	14	B	A	Rpleas_acq	Oppo	Rpleas	1pleas	acq_US_unple_nomask	acq45_nomask	5	19	400	0	300	300	0	0	589	46	1	0	freundlich	treu	helfen	spielen	fair	ehrlich	fanatisch	tot	hindern	strafen	faul	eitel	tolerant	lachen	schön	retten	schlau	loyal	tyrannisch	leiden	schlecht	rächen	schroff	lasch	1	blank2r.bmp	0	1	+	0	1	blank2r.bmp	500	1	GKQX	500	1	blank2r.bmp	880	6	eitel	880	1	!	1232	1	!	-1	0	0	0	0	0	0
2024-05-07	10:40:04	10:49:22	557955	6.6.1	4_exp_EVA_AWA_CON	14	B	A	Rpleas_acq	Oppo	Rpleas	1pleas	acq_US_unple_nomask	acq45_nomask	5	20	400	0	300	300	0	0	556	46	1	0	freundlich	treu	helfen	spielen	fair	ehrlich	fanatisch	tot	hindern	strafen	faul	eitel	tolerant	lachen	schön	retten	schlau	loyal	tyrannisch	leiden	schlecht	rächen	schroff	lasch	1	blank2r.bmp	0	1	+	0	1	blank2r.bmp	500	1	GKQX	500	1	blank2r.bmp	880	5	faul	880	1	!	1232	1	!	-1	0	0	0	0	0	0
2024-05-07	10:40:04	10:49:24	560093	6.6.1	4_exp_EVA_AWA_CON	14	B	A	Rpleas_acq	Oppo	Rpleas	1pleas	acq_US_pleas_nomask	acq45_nomask	5	21	400	1	300	300	0	0	360	46	0	0	freundlich	treu	helfen	spielen	fair	ehrlich	fanatisch	tot	hindern	strafen	faul	eitel	tolerant	lachen	schön	retten	schlau	loyal	tyrannisch	leiden	schlecht	rächen	schroff	lasch	1	blank2r.bmp	0	1	+	0	1	blank2r.bmp	500	1	BMVZ	500	1	blank2r.bmp	880	4	spielen	880	1	!	1232	1	!	1262	0	0	0	0	0	0
2024-05-07	10:40:04	10:49:26	562308	6.6.1	4_exp_EVA_AWA_CON	14	B	A	Rpleas_acq	Oppo	Rpleas	1pleas	acq_US_pleas_nomask	acq45_nomask	5	22	400	1	300	300	0	0	435	50	1	0	freundlich	treu	helfen	spielen	fair	ehrlich	fanatisch	tot	hindern	strafen	faul	eitel	tolerant	lachen	schön	retten	schlau	loyal	tyrannisch	leiden	schlecht	rächen	schroff	lasch	1	blank2r.bmp	0	1	+	0	1	blank2r.bmp	500	1	BMVZ	500	1	blank2r.bmp	880	5	fair	880	1	!	1232	1	!	1336	0	0	0	0	0	0
2024-05-07	10:40:04	10:49:28	564371	6.6.1	4_exp_EVA_AWA_CON	14	B	A	Rpleas_acq	Oppo	Rpleas	1pleas	acq_US_unple_nomask	acq45_nomask	5	23	400	0	300	300	0	0	287	46	1	0	freundlich	treu	helfen	spielen	fair	ehrlich	fanatisch	tot	hindern	strafen	faul	eitel	tolerant	lachen	schön	retten	schlau	loyal	tyrannisch	leiden	schlecht	rächen	schroff	lasch	1	blank2r.bmp	0	1	+	0	1	blank2r.bmp	500	1	GKQX	500	1	blank2r.bmp	880	2	tot	880	1	!	-1	1	!	-1	0	0	0	0	0	0
2024-05-07	10:40:04	10:49:30	566363	6.6.1	4_exp_EVA_AWA_CON	14	B	A	Rpleas_acq	Oppo	Rpleas	1pleas	acq_US_pleas_nomask	acq45_nomask	5	24	400	0	300	300	0	0	218	46	0	0	freundlich	treu	helfen	spielen	fair	ehrlich	fanatisch	tot	hindern	strafen	faul	eitel	tolerant	lachen	schön	retten	schlau	loyal	tyrannisch	leiden	schlecht	rächen	schroff	lasch	1	blank2r.bmp	0	1	+	0	1	blank2r.bmp	500	1	BMVZ	500	1	blank2r.bmp	880	1	freundlich	880	1	!	-1	1	!	-1	0	0	0	0	0	0
2024-05-07	10:40:04	10:49:33	568517	6.6.1	4_exp_EVA_AWA_CON	14	B	A	Rpleas_acq	Oppo	Rpleas	1pleas	acq_US_unple_nomask	acq45_nomask	5	25	400	1	300	300	0	0	379	50	0	0	freundlich	treu	helfen	spielen	fair	ehrlich	fanatisch	tot	hindern	strafen	faul	eitel	tolerant	lachen	schön	retten	schlau	loyal	tyrannisch	leiden	schlecht	rächen	schroff	lasch	1	blank2r.bmp	0	1	+	0	1	blank2r.bmp	500	1	GKQX	500	1	blank2r.bmp	880	5	faul	880	1	!	1233	1	!	1280	0	0	0	0	0	0
2024-05-07	10:40:04	10:49:35	570652	6.6.1	4_exp_EVA_AWA_CON	14	B	A	Rpleas_acq	Oppo	Rpleas	1pleas	acq_US_unple_nomask	acq45_nomask	5	26	400	1	300	300	0	0	353	46	1	0	freundlich	treu	helfen	spielen	fair	ehrlich	fanatisch	tot	hindern	strafen	faul	eitel	tolerant	lachen	schön	retten	schlau	loyal	tyrannisch	leiden	schlecht	rächen	schroff	lasch	1	blank2r.bmp	0	1	+	0	1	blank2r.bmp	500	1	GKQX	500	1	blank2r.bmp	880	1	fanatisch	880	1	!	1232	1	!	1254	0	0	0	0	0	0
2024-05-07	10:40:04	10:49:37	572546	6.6.1	4_exp_EVA_AWA_CON	14	B	A	Rpleas_acq	Oppo	Rpleas	1pleas	acq_US_unple_nomask	acq45_nomask	5	27	400	0	300	300	0	0	118	50	0	0	freundlich	treu	helfen	spielen	fair	ehrlich	fanatisch	tot	hindern	strafen	faul	eitel	tolerant	lachen	schön	retten	schlau	loyal	tyrannisch	leiden	schlecht	rächen	schroff	lasch	1	blank2r.bmp	0	1	+	0	1	blank2r.bmp	500	1	GKQX	500	1	blank2r.bmp	880	4	strafen	880	1	!	-1	1	!	-1	0	0	0	0	0	0
2024-05-07	10:40:04	10:49:39	574635	6.6.1	4_exp_EVA_AWA_CON	14	B	A	Rpleas_acq	Oppo	Rpleas	1pleas	acq_US_pleas_nomask	acq45_nomask	5	28	400	0	300	300	0	0	315	46	0	0	freundlich	treu	helfen	spielen	fair	ehrlich	fanatisch	tot	hindern	strafen	faul	eitel	tolerant	lachen	schön	retten	schlau	loyal	tyrannisch	leiden	schlecht	rächen	schroff	lasch	1	blank2r.bmp	0	1	+	0	1	blank2r.bmp	500	1	BMVZ	500	1	blank2r.bmp	880	1	freundlich	880	1	!	-1	1	!	-1	0	0	0	0	0	0
2024-05-07	10:40:04	10:49:41	577170	6.6.1	4_exp_EVA_AWA_CON	14	B	A	Rpleas_acq	Oppo	Rpleas	1pleas	acq_US_pleas_nomask	acq45_nomask	5	29	400	0	300	300	0	0	760	50	1	0	freundlich	treu	helfen	spielen	fair	ehrlich	fanatisch	tot	hindern	strafen	faul	eitel	tolerant	lachen	schön	retten	schlau	loyal	tyrannisch	leiden	schlecht	rächen	schroff	lasch	1	blank2r.bmp	0	1	+	0	1	blank2r.bmp	500	1	BMVZ	500	1	blank2r.bmp	880	4	spielen	880	1	!	1233	1	!	-1	0	0	0	0	0	0
2024-05-07	10:40:04	10:49:43	579365	6.6.1	4_exp_EVA_AWA_CON	14	B	A	Rpleas_acq	Oppo	Rpleas	1pleas	acq_US_unple_nomask	acq45_nomask	5	30	400	1	300	300	0	0	420	46	1	0	freundlich	treu	helfen	spielen	fair	ehrlich	fanatisch	tot	hindern	strafen	faul	eitel	tolerant	lachen	schön	retten	schlau	loyal	tyrannisch	leiden	schlecht	rächen	schroff	lasch	1	blank2r.bmp	0	1	+	0	1	blank2r.bmp	500	1	GKQX	500	1	blank2r.bmp	880	2	tot	880	1	!	1232	1	!	1322	0	0	0	0	0	0
2024-05-07	10:40:04	10:49:46	581746	6.6.1	4_exp_EVA_AWA_CON	14	B	A	Rpleas_acq	Oppo	Rpleas	1pleas	acq_US_pleas_nomask	acq45_nomask	5	31	400	0	300	300	0	0	602	50	1	0	freundlich	treu	helfen	spielen	fair	ehrlich	fanatisch	tot	hindern	strafen	faul	eitel	tolerant	lachen	schön	retten	schlau	loyal	tyrannisch	leiden	schlecht	rächen	schroff	lasch	1	blank2r.bmp	0	1	+	0	1	blank2r.bmp	500	1	BMVZ	500	1	blank2r.bmp	880	3	helfen	880	1	!	1232	1	!	-1	0	0	0	0	0	0
2024-05-07	10:40:04	10:49:48	583997	6.6.1	4_exp_EVA_AWA_CON	14	B	A	Rpleas_acq	Oppo	Rpleas	1pleas	acq_US_pleas_nomask	acq45_nomask	5	32	400	1	300	300	0	0	469	46	0	0	freundlich	treu	helfen	spielen	fair	ehrlich	fanatisch	tot	hindern	strafen	faul	eitel	tolerant	lachen	schön	retten	schlau	loyal	tyrannisch	leiden	schlecht	rächen	schroff	lasch	1	blank2r.bmp	0	1	+	0	1	blank2r.bmp	500	1	BMVZ	500	1	blank2r.bmp	880	6	ehrlich	880	1	!	1232	1	!	1370	0	0	0	0	0	0
2024-05-07	10:40:04	10:49:51	586522	6.6.1	4_exp_EVA_AWA_CON	14	B	A	Rpleas_acq	Oppo	Rpleas	1pleas	acq_US_unple_nomask	acq45_nomask	5	33	400	0	300	300	0	0	745	46	1	0	freundlich	treu	helfen	spielen	fair	ehrlich	fanatisch	tot	hindern	strafen	faul	eitel	tolerant	lachen	schön	retten	schlau	loyal	tyrannisch	leiden	schlecht	rächen	schroff	lasch	1	blank2r.bmp	0	1	+	0	1	blank2r.bmp	500	1	GKQX	500	1	blank2r.bmp	880	3	hindern	880	1	!	1232	1	!	-1	0	0	0	0	0	0
2024-05-07	10:40:04	10:49:53	588946	6.6.1	4_exp_EVA_AWA_CON	14	B	A	Rpleas_acq	Oppo	Rpleas	1pleas	acq_US_pleas_nomask	acq45_nomask	5	34	400	0	300	300	0	0	648	50	1	0	freundlich	treu	helfen	spielen	fair	ehrlich	fanatisch	tot	hindern	strafen	faul	eitel	tolerant	lachen	schön	retten	schlau	loyal	tyrannisch	leiden	schlecht	rächen	schroff	lasch	1	blank2r.bmp	0	1	+	0	1	blank2r.bmp	500	1	BMVZ	500	1	blank2r.bmp	880	5	fair	880	1	!	1232	1	!	-1	0	0	0	0	0	0
2024-05-07	10:40:04	10:49:55	591314	6.6.1	4_exp_EVA_AWA_CON	14	B	A	Rpleas_acq	Oppo	Rpleas	1pleas	acq_US_pleas_nomask	acq45_nomask	5	35	400	0	300	300	0	0	594	50	1	0	freundlich	treu	helfen	spielen	fair	ehrlich	fanatisch	tot	hindern	strafen	faul	eitel	tolerant	lachen	schön	retten	schlau	loyal	tyrannisch	leiden	schlecht	rächen	schroff	lasch	1	blank2r.bmp	0	1	+	0	1	blank2r.bmp	500	1	BMVZ	500	1	blank2r.bmp	880	2	treu	880	1	!	1232	1	!	-1	0	0	0	0	0	0
2024-05-07	10:40:04	10:49:58	593626	6.6.1	4_exp_EVA_AWA_CON	14	B	A	Rpleas_acq	Oppo	Rpleas	1pleas	acq_US_unple_nomask	acq45_nomask	5	36	400	0	300	300	0	0	535	46	1	0	freundlich	treu	helfen	spielen	fair	ehrlich	fanatisch	tot	hindern	strafen	faul	eitel	tolerant	lachen	schön	retten	schlau	loyal	tyrannisch	leiden	schlecht	rächen	schroff	lasch	1	blank2r.bmp	0	1	+	0	1	blank2r.bmp	500	1	GKQX	500	1	blank2r.bmp	880	6	eitel	880	1	!	1232	1	!	-1	0	0	0	0	0	0
2024-05-07	10:40:04	10:50:22	617991	6.6.1	4_exp_EVA_AWA_CON	14	B	A	Rpleas_acq	Oppo	Lpleas	1pleas	EvalRating_firsttwo	EvalRating_firsttwo	6	1	0	0	300	300	0	0	6608	line	0	-98,5677083333333285964pct	freundlich	treu	helfen	spielen	fair	ehrlich	fanatisch	tot	hindern	strafen	faul	eitel	tolerant	lachen	schön	retten	schlau	loyal	tyrannisch	leiden	schlecht	rächen	schroff	lasch	1		-8	1	Wie angenehm oder unangenehm finden Sie die  Buchstabenkette ZGVK?	-8	1		-8	1		-8	1		-8	1	Unangenehm	-8	1	Angenehm	-8	0	0	0	0	0	0	0	0	0
2024-05-07	10:40:04	10:50:27	623152	6.6.1	4_exp_EVA_AWA_CON	14	B	A	Rpleas_acq	Oppo	Lpleas	1pleas	EvalRating_lastfour	EvalRating_lastfour	7	1	0	0	300	300	0	0	2782	line	0	-76,8229166666666571928pct	freundlich	treu	helfen	spielen	fair	ehrlich	fanatisch	tot	hindern	strafen	faul	eitel	tolerant	lachen	schön	retten	schlau	loyal	tyrannisch	leiden	schlecht	rächen	schroff	lasch	1		-8	3	Wie angenehm oder unangenehm finden Sie die  Buchstabenkette XBQM?	-8	1		-8	1		-8	1		-8	1	Unangenehm	-8	1	Angenehm	-8	0	0	0	0	0	0	0	0	0
2024-05-07	10:40:04	10:50:30	625524	6.6.1	4_exp_EVA_AWA_CON	14	B	A	Rpleas_acq	Oppo	Lpleas	1pleas	blank_screen	EvalRating_lastfour	7	3	0	0	300	300	0	0	0	0	0	-76,8229166666666571928pct	freundlich	treu	helfen	spielen	fair	ehrlich	fanatisch	tot	hindern	strafen	faul	eitel	tolerant	lachen	schön	retten	schlau	loyal	tyrannisch	leiden	schlecht	rächen	schroff	lasch	1		-8	0	0	0	0	0	0	0	0	0	0	0	0	0	0	0	0	0	0	0	0	0	0	0	0	0	0	0
2024-05-07	10:40:04	10:50:35	630759	6.6.1	4_exp_EVA_AWA_CON	14	B	A	Rpleas_acq	Oppo	Lpleas	1pleas	EvalRating_lastfour	EvalRating_lastfour	7	4	0	0	300	300	0	0	4647	line	0	-92,96875pct	freundlich	treu	helfen	spielen	fair	ehrlich	fanatisch	tot	hindern	strafen	faul	eitel	tolerant	lachen	schön	retten	schlau	loyal	tyrannisch	leiden	schlecht	rächen	schroff	lasch	1		-8	2	Wie angenehm oder unangenehm finden Sie die  Buchstabenkette GKQX?	-8	1		-8	1		-8	1		-8	1	Unangenehm	-8	1	Angenehm	-8	0	0	0	0	0	0	0	0	0
2024-05-07	10:40:04	10:50:37	633129	6.6.1	4_exp_EVA_AWA_CON	14	B	A	Rpleas_acq	Oppo	Lpleas	1pleas	blank_screen	EvalRating_lastfour	7	6	0	0	300	300	0	0	0	0	0	-92,96875pct	freundlich	treu	helfen	spielen	fair	ehrlich	fanatisch	tot	hindern	strafen	faul	eitel	tolerant	lachen	schön	retten	schlau	loyal	tyrannisch	leiden	schlecht	rächen	schroff	lasch	1		-8	0	0	0	0	0	0	0	0	0	0	0	0	0	0	0	0	0	0	0	0	0	0	0	0	0	0	0
2024-05-07	10:40:04	10:50:41	637200	6.6.1	4_exp_EVA_AWA_CON	14	B	A	Rpleas_acq	Oppo	Lpleas	1pleas	EvalRating_lastfour	EvalRating_lastfour	7	7	0	0	300	300	0	0	3482	line	0	-96,3541666666666714036pct	freundlich	treu	helfen	spielen	fair	ehrlich	fanatisch	tot	hindern	strafen	faul	eitel	tolerant	lachen	schön	retten	schlau	loyal	tyrannisch	leiden	schlecht	rächen	schroff	lasch	1		-8	1	Wie angenehm oder unangenehm finden Sie die  Buchstabenkette BMVZ?	-8	1		-8	1		-8	1		-8	1	Unangenehm	-8	1	Angenehm	-8	0	0	0	0	0	0	0	0	0
2024-05-07	10:40:04	10:51:29	685081	6.6.1	4_exp_EVA_AWA_CON	14	B	A	Rpleas_acq	Oppo	Lpleas	1pleas	conawa_CS1_US2	conawa1_nomask	8	1	0	0	300	300	0	0	9812	tot	1	-96,3541666666666714036pct	freundlich	treu	helfen	spielen	fair	ehrlich	fanatisch	tot	hindern	strafen	faul	eitel	tolerant	lachen	schön	retten	schlau	loyal	tyrannisch	leiden	schlecht	rächen	schroff	lasch	0	0	0	0	0	0	0	0	0	0	0	0	0	0	0	0	0	0	0	0	0	0	0	0	0	0	0	0	0	0
2024-05-07	10:40:04	10:51:29	685082	6.6.1	4_exp_EVA_AWA_CON	14	B	A	Rpleas_acq	Oppo	Lpleas	1pleas	conawa_CS1_US2_confidence	conawa1_nomask	8	1	0	0	300	300	0	0	9812	guess	1	-96,3541666666666714036pct	freundlich	treu	helfen	spielen	fair	ehrlich	fanatisch	tot	hindern	strafen	faul	eitel	tolerant	lachen	schön	retten	schlau	loyal	tyrannisch	leiden	schlecht	rächen	schroff	lasch	0	0	0	0	0	0	0	0	0	0	0	0	0	0	0	0	0	0	0	0	0	0	0	0	0	0	0	0	0	0
2024-05-07	10:40:04	10:51:38	693886	6.6.1	4_exp_EVA_AWA_CON	14	B	A	Rpleas_acq	Oppo	Lpleas	1pleas	conawa_CS1_US3	conawa1_nomask	8	2	0	0	300	300	0	0	8190	schlecht	1	-96,3541666666666714036pct	freundlich	treu	helfen	spielen	fair	ehrlich	fanatisch	tot	hindern	strafen	faul	eitel	tolerant	lachen	schön	retten	schlau	loyal	tyrannisch	leiden	schlecht	rächen	schroff	lasch	0	0	0	0	0	0	0	0	0	0	0	0	0	0	0	0	0	0	0	0	0	0	0	0	0	0	0	0	0	0
2024-05-07	10:40:04	10:51:38	693888	6.6.1	4_exp_EVA_AWA_CON	14	B	A	Rpleas_acq	Oppo	Lpleas	1pleas	conawa_CS1_US3_confidence	conawa1_nomask	8	2	0	0	300	300	0	0	8190	guess	1	-96,3541666666666714036pct	freundlich	treu	helfen	spielen	fair	ehrlich	fanatisch	tot	hindern	strafen	faul	eitel	tolerant	lachen	schön	retten	schlau	loyal	tyrannisch	leiden	schlecht	rächen	schroff	lasch	0	0	0	0	0	0	0	0	0	0	0	0	0	0	0	0	0	0	0	0	0	0	0	0	0	0	0	0	0	0
2024-05-07	10:40:04	10:51:46	702182	6.6.1	4_exp_EVA_AWA_CON	14	B	A	Rpleas_acq	Oppo	Lpleas	1pleas	conawa_CS1_US4	conawa1_nomask	8	3	0	0	300	300	0	0	7680	strafen	1	-96,3541666666666714036pct	freundlich	treu	helfen	spielen	fair	ehrlich	fanatisch	tot	hindern	strafen	faul	eitel	tolerant	lachen	schön	retten	schlau	loyal	tyrannisch	leiden	schlecht	rächen	schroff	lasch	0	0	0	0	0	0	0	0	0	0	0	0	0	0	0	0	0	0	0	0	0	0	0	0	0	0	0	0	0	0
2024-05-07	10:40:04	10:51:46	702183	6.6.1	4_exp_EVA_AWA_CON	14	B	A	Rpleas_acq	Oppo	Lpleas	1pleas	conawa_CS1_US4_confidence	conawa1_nomask	8	3	0	0	300	300	0	0	7680	guess	1	-96,3541666666666714036pct	freundlich	treu	helfen	spielen	fair	ehrlich	fanatisch	tot	hindern	strafen	faul	eitel	tolerant	lachen	schön	retten	schlau	loyal	tyrannisch	leiden	schlecht	rächen	schroff	lasch	0	0	0	0	0	0	0	0	0	0	0	0	0	0	0	0	0	0	0	0	0	0	0	0	0	0	0	0	0	0
2024-05-07	10:40:04	10:51:51	707175	6.6.1	4_exp_EVA_AWA_CON	14	B	A	Rpleas_acq	Oppo	Lpleas	1pleas	conawa_CS1_US5	conawa1_nomask	8	4	0	0	300	300	0	0	4378	schroff	1	-96,3541666666666714036pct	freundlich	treu	helfen	spielen	fair	ehrlich	fanatisch	tot	hindern	strafen	faul	eitel	tolerant	lachen	schön	retten	schlau	loyal	tyrannisch	leiden	schlecht	rächen	schroff	lasch	0	0	0	0	0	0	0	0	0	0	0	0	0	0	0	0	0	0	0	0	0	0	0	0	0	0	0	0	0	0
2024-05-07	10:40:04	10:51:51	707176	6.6.1	4_exp_EVA_AWA_CON	14	B	A	Rpleas_acq	Oppo	Lpleas	1pleas	conawa_CS1_US5_confidence	conawa1_nomask	8	4	0	0	300	300	0	0	4378	guess	1	-96,3541666666666714036pct	freundlich	treu	helfen	spielen	fair	ehrlich	fanatisch	tot	hindern	strafen	faul	eitel	tolerant	lachen	schön	retten	schlau	loyal	tyrannisch	leiden	schlecht	rächen	schroff	lasch	0	0	0	0	0	0	0	0	0	0	0	0	0	0	0	0	0	0	0	0	0	0	0	0	0	0	0	0	0	0
2024-05-07	10:40:04	10:51:57	712468	6.6.1	4_exp_EVA_AWA_CON	14	B	A	Rpleas_acq	Oppo	Lpleas	1pleas	conawa_CS2_US3	conawa1_nomask	8	5	0	0	300	300	0	0	4680	retten	1	-96,3541666666666714036pct	freundlich	treu	helfen	spielen	fair	ehrlich	fanatisch	tot	hindern	strafen	faul	eitel	tolerant	lachen	schön	retten	schlau	loyal	tyrannisch	leiden	schlecht	rächen	schroff	lasch	0	0	0	0	0	0	0	0	0	0	0	0	0	0	0	0	0	0	0	0	0	0	0	0	0	0	0	0	0	0
2024-05-07	10:40:04	10:51:57	712470	6.6.1	4_exp_EVA_AWA_CON	14	B	A	Rpleas_acq	Oppo	Lpleas	1pleas	conawa_CS2_US3_confidence	conawa1_nomask	8	5	0	0	300	300	0	0	4680	guess	1	-96,3541666666666714036pct	freundlich	treu	helfen	spielen	fair	ehrlich	fanatisch	tot	hindern	strafen	faul	eitel	tolerant	lachen	schön	retten	schlau	loyal	tyrannisch	leiden	schlecht	rächen	schroff	lasch	0	0	0	0	0	0	0	0	0	0	0	0	0	0	0	0	0	0	0	0	0	0	0	0	0	0	0	0	0	0
2024-05-07	10:40:04	10:52:03	718412	6.6.1	4_exp_EVA_AWA_CON	14	B	A	Rpleas_acq	Oppo	Lpleas	1pleas	conawa_CS1_US1	conawa1_nomask	8	6	0	0	300	300	0	0	5325	tyrannisch	1	-96,3541666666666714036pct	freundlich	treu	helfen	spielen	fair	ehrlich	fanatisch	tot	hindern	strafen	faul	eitel	tolerant	lachen	schön	retten	schlau	loyal	tyrannisch	leiden	schlecht	rächen	schroff	lasch	0	0	0	0	0	0	0	0	0	0	0	0	0	0	0	0	0	0	0	0	0	0	0	0	0	0	0	0	0	0
2024-05-07	10:40:04	10:52:03	718413	6.6.1	4_exp_EVA_AWA_CON	14	B	A	Rpleas_acq	Oppo	Lpleas	1pleas	conawa_CS1_US1_confidence	conawa1_nomask	8	6	0	0	300	300	0	0	5325	guess	1	-96,3541666666666714036pct	freundlich	treu	helfen	spielen	fair	ehrlich	fanatisch	tot	hindern	strafen	faul	eitel	tolerant	lachen	schön	retten	schlau	loyal	tyrannisch	leiden	schlecht	rächen	schroff	lasch	0	0	0	0	0	0	0	0	0	0	0	0	0	0	0	0	0	0	0	0	0	0	0	0	0	0	0	0	0	0
2024-05-07	10:40:04	10:52:09	725197	6.6.1	4_exp_EVA_AWA_CON	14	B	A	Rpleas_acq	Oppo	Lpleas	1pleas	conawa_CS2_US2	conawa1_nomask	8	7	0	0	300	300	0	0	6165	treu	1	-96,3541666666666714036pct	freundlich	treu	helfen	spielen	fair	ehrlich	fanatisch	tot	hindern	strafen	faul	eitel	tolerant	lachen	schön	retten	schlau	loyal	tyrannisch	leiden	schlecht	rächen	schroff	lasch	0	0	0	0	0	0	0	0	0	0	0	0	0	0	0	0	0	0	0	0	0	0	0	0	0	0	0	0	0	0
2024-05-07	10:40:04	10:52:09	725198	6.6.1	4_exp_EVA_AWA_CON	14	B	A	Rpleas_acq	Oppo	Lpleas	1pleas	conawa_CS2_US2_confidence	conawa1_nomask	8	7	0	0	300	300	0	0	6165	guess	1	-96,3541666666666714036pct	freundlich	treu	helfen	spielen	fair	ehrlich	fanatisch	tot	hindern	strafen	faul	eitel	tolerant	lachen	schön	retten	schlau	loyal	tyrannisch	leiden	schlecht	rächen	schroff	lasch	0	0	0	0	0	0	0	0	0	0	0	0	0	0	0	0	0	0	0	0	0	0	0	0	0	0	0	0	0	0
2024-05-07	10:40:04	10:52:15	730660	6.6.1	4_exp_EVA_AWA_CON	14	B	A	Rpleas_acq	Oppo	Lpleas	1pleas	conawa_CS2_US4	conawa1_nomask	8	8	0	0	300	300	0	0	4851	schlau	1	-96,3541666666666714036pct	freundlich	treu	helfen	spielen	fair	ehrlich	fanatisch	tot	hindern	strafen	faul	eitel	tolerant	lachen	schön	retten	schlau	loyal	tyrannisch	leiden	schlecht	rächen	schroff	lasch	0	0	0	0	0	0	0	0	0	0	0	0	0	0	0	0	0	0	0	0	0	0	0	0	0	0	0	0	0	0
2024-05-07	10:40:04	10:52:15	730661	6.6.1	4_exp_EVA_AWA_CON	14	B	A	Rpleas_acq	Oppo	Lpleas	1pleas	conawa_CS2_US4_confidence	conawa1_nomask	8	8	0	0	300	300	0	0	4851	guess	1	-96,3541666666666714036pct	freundlich	treu	helfen	spielen	fair	ehrlich	fanatisch	tot	hindern	strafen	faul	eitel	tolerant	lachen	schön	retten	schlau	loyal	tyrannisch	leiden	schlecht	rächen	schroff	lasch	0	0	0	0	0	0	0	0	0	0	0	0	0	0	0	0	0	0	0	0	0	0	0	0	0	0	0	0	0	0
2024-05-07	10:40:04	10:52:20	735633	6.6.1	4_exp_EVA_AWA_CON	14	B	A	Rpleas_acq	Oppo	Lpleas	1pleas	conawa_CS2_US5	conawa1_nomask	8	9	0	0	300	300	0	0	4358	lasch	1	-96,3541666666666714036pct	freundlich	treu	helfen	spielen	fair	ehrlich	fanatisch	tot	hindern	strafen	faul	eitel	tolerant	lachen	schön	retten	schlau	loyal	tyrannisch	leiden	schlecht	rächen	schroff	lasch	0	0	0	0	0	0	0	0	0	0	0	0	0	0	0	0	0	0	0	0	0	0	0	0	0	0	0	0	0	0
2024-05-07	10:40:04	10:52:20	735635	6.6.1	4_exp_EVA_AWA_CON	14	B	A	Rpleas_acq	Oppo	Lpleas	1pleas	conawa_CS2_US5_confidence	conawa1_nomask	8	9	0	0	300	300	0	0	4358	guess	1	-96,3541666666666714036pct	freundlich	treu	helfen	spielen	fair	ehrlich	fanatisch	tot	hindern	strafen	faul	eitel	tolerant	lachen	schön	retten	schlau	loyal	tyrannisch	leiden	schlecht	rächen	schroff	lasch	0	0	0	0	0	0	0	0	0	0	0	0	0	0	0	0	0	0	0	0	0	0	0	0	0	0	0	0	0	0
2024-05-07	10:40:04	10:52:24	740396	6.6.1	4_exp_EVA_AWA_CON	14	B	A	Rpleas_acq	Oppo	Lpleas	1pleas	conawa_CS2_US1	conawa1_nomask	8	10	0	0	300	300	0	0	4145	leiden	1	-96,3541666666666714036pct	freundlich	treu	helfen	spielen	fair	ehrlich	fanatisch	tot	hindern	strafen	faul	eitel	tolerant	lachen	schön	retten	schlau	loyal	tyrannisch	leiden	schlecht	rächen	schroff	lasch	0	0	0	0	0	0	0	0	0	0	0	0	0	0	0	0	0	0	0	0	0	0	0	0	0	0	0	0	0	0
2024-05-07	10:40:04	10:52:24	740398	6.6.1	4_exp_EVA_AWA_CON	14	B	A	Rpleas_acq	Oppo	Lpleas	1pleas	conawa_CS2_US1_confidence	conawa1_nomask	8	10	0	0	300	300	0	0	4145	guess	1	-96,3541666666666714036pct	freundlich	treu	helfen	spielen	fair	ehrlich	fanatisch	tot	hindern	strafen	faul	eitel	tolerant	lachen	schön	retten	schlau	loyal	tyrannisch	leiden	schlecht	rächen	schroff	lasch	0	0	0	0	0	0	0	0	0	0	0	0	0	0	0	0	0	0	0	0	0	0	0	0	0	0	0	0	0	0
2024-05-07	10:40:04	10:52:29	744549	6.6.1	4_exp_EVA_AWA_CON	14	B	A	Rpleas_acq	Oppo	Lpleas	1pleas	conawa_CS2_US6	conawa1_nomask	8	11	0	0	300	300	0	0	3541	tyrannisch	1	-96,3541666666666714036pct	freundlich	treu	helfen	spielen	fair	ehrlich	fanatisch	tot	hindern	strafen	faul	eitel	tolerant	lachen	schön	retten	schlau	loyal	tyrannisch	leiden	schlecht	rächen	schroff	lasch	0	0	0	0	0	0	0	0	0	0	0	0	0	0	0	0	0	0	0	0	0	0	0	0	0	0	0	0	0	0
2024-05-07	10:40:04	10:52:29	744550	6.6.1	4_exp_EVA_AWA_CON	14	B	A	Rpleas_acq	Oppo	Lpleas	1pleas	conawa_CS2_US6_confidence	conawa1_nomask	8	11	0	0	300	300	0	0	3541	guess	1	-96,3541666666666714036pct	freundlich	treu	helfen	spielen	fair	ehrlich	fanatisch	tot	hindern	strafen	faul	eitel	tolerant	lachen	schön	retten	schlau	loyal	tyrannisch	leiden	schlecht	rächen	schroff	lasch	0	0	0	0	0	0	0	0	0	0	0	0	0	0	0	0	0	0	0	0	0	0	0	0	0	0	0	0	0	0
2024-05-07	10:40:04	10:52:34	749742	6.6.1	4_exp_EVA_AWA_CON	14	B	A	Rpleas_acq	Oppo	Lpleas	1pleas	conawa_CS1_US6	conawa1_nomask	8	12	0	0	300	300	0	0	4581	eitel	1	-96,3541666666666714036pct	freundlich	treu	helfen	spielen	fair	ehrlich	fanatisch	tot	hindern	strafen	faul	eitel	tolerant	lachen	schön	retten	schlau	loyal	tyrannisch	leiden	schlecht	rächen	schroff	lasch	0	0	0	0	0	0	0	0	0	0	0	0	0	0	0	0	0	0	0	0	0	0	0	0	0	0	0	0	0	0
2024-05-07	10:40:04	10:52:34	749743	6.6.1	4_exp_EVA_AWA_CON	14	B	A	Rpleas_acq	Oppo	Lpleas	1pleas	conawa_CS1_US6_confidence	conawa1_nomask	8	12	0	0	300	300	0	0	4581	guess	1	-96,3541666666666714036pct	freundlich	treu	helfen	spielen	fair	ehrlich	fanatisch	tot	hindern	strafen	faul	eitel	tolerant	lachen	schön	retten	schlau	loyal	tyrannisch	leiden	schlecht	rächen	schroff	lasch	0	0	0	0	0	0	0	0	0	0	0	0	0	0	0	0	0	0	0	0	0	0	0	0	0	0	0	0	0	0
2024-05-07	10:40:04	10:53:33	809386	6.6.1	4_exp_EVA_AWA_CON	14	B	A	Rpleas_acq	Oppo	Lpleas	1pleas	cond_new_unple_456_nomask_CS1	condtest_nomask_1	11	1	400	0	300	300	0	0	516	46	0	-96,3541666666666714036pct	freundlich	treu	helfen	spielen	fair	ehrlich	fanatisch	tot	hindern	strafen	faul	eitel	tolerant	lachen	schön	retten	schlau	loyal	tyrannisch	leiden	schlecht	rächen	schroff	lasch	1	blank2r.bmp	0	1	+	0	1	blank2r.bmp	500	1	BMVZ	500	1	blank2r.bmp	880	2	schroff	880	1	!	1232	1	!	-1	0	0	0	0	0	0
2024-05-07	10:40:04	10:53:36	812026	6.6.1	4_exp_EVA_AWA_CON	14	B	A	Rpleas_acq	Oppo	Lpleas	1pleas	cond_US_pleas_123_nomask_CS1	condtest_nomask_1	11	2	400	0	300	300	0	0	865	46	1	-96,3541666666666714036pct	freundlich	treu	helfen	spielen	fair	ehrlich	fanatisch	tot	hindern	strafen	faul	eitel	tolerant	lachen	schön	retten	schlau	loyal	tyrannisch	leiden	schlecht	rächen	schroff	lasch	1	blank2r.bmp	0	1	+	0	1	blank2r.bmp	500	1	BMVZ	500	1	blank2r.bmp	880	1	freundlich	880	1	!	1233	1	!	-1	0	0	0	0	0	0
2024-05-07	10:40:04	10:53:38	814180	6.6.1	4_exp_EVA_AWA_CON	14	B	A	Rpleas_acq	Oppo	Lpleas	1pleas	cond_US_unple_123_nomask_CS2	condtest_nomask_1	11	3	400	1	300	300	0	0	375	46	0	-96,3541666666666714036pct	freundlich	treu	helfen	spielen	fair	ehrlich	fanatisch	tot	hindern	strafen	faul	eitel	tolerant	lachen	schön	retten	schlau	loyal	tyrannisch	leiden	schlecht	rächen	schroff	lasch	1	blank2r.bmp	0	1	+	0	1	blank2r.bmp	500	1	GKQX	500	1	blank2r.bmp	880	1	hindern	880	1	!	1232	1	!	1276	0	0	0	0	0	0
2024-05-07	10:40:04	10:53:40	816250	6.6.1	4_exp_EVA_AWA_CON	14	B	A	Rpleas_acq	Oppo	Lpleas	1pleas	cond_US_unple_123_nomask_CS1	condtest_nomask_1	11	4	400	0	300	300	0	0	296	50	1	-96,3541666666666714036pct	freundlich	treu	helfen	spielen	fair	ehrlich	fanatisch	tot	hindern	strafen	faul	eitel	tolerant	lachen	schön	retten	schlau	loyal	tyrannisch	leiden	schlecht	rächen	schroff	lasch	1	blank2r.bmp	0	1	+	0	1	blank2r.bmp	500	1	BMVZ	500	1	blank2r.bmp	880	3	hindern	880	1	!	-1	1	!	-1	0	0	0	0	0	0
2024-05-07	10:40:04	10:53:43	818429	6.6.1	4_exp_EVA_AWA_CON	14	B	A	Rpleas_acq	Oppo	Lpleas	1pleas	cond_new_unple_456_nomask_CS2	condtest_nomask_1	11	5	400	1	300	300	0	0	400	46	0	-96,3541666666666714036pct	freundlich	treu	helfen	spielen	fair	ehrlich	fanatisch	tot	hindern	strafen	faul	eitel	tolerant	lachen	schön	retten	schlau	loyal	tyrannisch	leiden	schlecht	rächen	schroff	lasch	1	blank2r.bmp	0	1	+	0	1	blank2r.bmp	500	1	GKQX	500	1	blank2r.bmp	880	1	lasch	880	1	!	1233	1	!	1302	0	0	0	0	0	0
2024-05-07	10:40:04	10:53:44	820386	6.6.1	4_exp_EVA_AWA_CON	14	B	A	Rpleas_acq	Oppo	Lpleas	1pleas	cond_new_pleas_456_nomask_CS1	condtest_nomask_1	11	6	400	0	300	300	0	0	179	50	0	-96,3541666666666714036pct	freundlich	treu	helfen	spielen	fair	ehrlich	fanatisch	tot	hindern	strafen	faul	eitel	tolerant	lachen	schön	retten	schlau	loyal	tyrannisch	leiden	schlecht	rächen	schroff	lasch	1	blank2r.bmp	0	1	+	0	1	blank2r.bmp	500	1	BMVZ	500	1	blank2r.bmp	880	1	retten	880	1	!	-1	1	!	-1	0	0	0	0	0	0
2024-05-07	10:40:04	10:53:46	822339	6.6.1	4_exp_EVA_AWA_CON	14	B	A	Rpleas_acq	Oppo	Lpleas	1pleas	cond_US_pleas_123_nomask_CS2	condtest_nomask_1	11	7	400	0	300	300	0	0	180	46	1	-96,3541666666666714036pct	freundlich	treu	helfen	spielen	fair	ehrlich	fanatisch	tot	hindern	strafen	faul	eitel	tolerant	lachen	schön	retten	schlau	loyal	tyrannisch	leiden	schlecht	rächen	schroff	lasch	1	blank2r.bmp	0	1	+	0	1	blank2r.bmp	500	1	GKQX	500	1	blank2r.bmp	880	1	helfen	880	1	!	-1	1	!	-1	0	0	0	0	0	0
2024-05-07	10:40:04	10:53:51	826683	6.6.1	4_exp_EVA_AWA_CON	14	B	A	Rpleas_acq	Oppo	Lpleas	1pleas	cond_new_pleas_456_nomask_CS2	condtest_nomask_1	11	8	400	0	300	300	0	0	2562	46	1	-96,3541666666666714036pct	freundlich	treu	helfen	spielen	fair	ehrlich	fanatisch	tot	hindern	strafen	faul	eitel	tolerant	lachen	schön	retten	schlau	loyal	tyrannisch	leiden	schlecht	rächen	schroff	lasch	1	blank2r.bmp	0	1	+	0	1	blank2r.bmp	500	1	GKQX	500	1	blank2r.bmp	880	3	schlau	880	1	!	1232	1	!	-1	0	0	0	0	0	0
2024-05-07	10:40:04	10:54:03	838787	6.6.1	4_exp_EVA_AWA_CON	14	B	A	Rpleas_acq	Oppo	Lpleas	1pleas	cond_new_pleas_456_nomask_CS2	condtest_nomask_2	12	1	400	0	300	300	0	0	2158	46	1	-96,3541666666666714036pct	freundlich	treu	helfen	spielen	fair	ehrlich	fanatisch	tot	hindern	strafen	faul	eitel	tolerant	lachen	schön	retten	schlau	loyal	tyrannisch	leiden	schlecht	rächen	schroff	lasch	1	blank2r.bmp	0	1	+	0	1	blank2r.bmp	500	1	GKQX	500	1	blank2r.bmp	880	2	retten	880	1	!	1232	1	!	-1	0	0	0	0	0	0
