date	time	currenttime	elapsedtime	build	currentexpt	subject	CS_AB	US_AB	LRpleas_acq	SameOppo	condition_Lpleas	condition_1pleas	trialcode	blockcode	blocknum	trialnum	windowcenter	inwindow	pretrialpause	posttrialpause	trialduration	trialtimeout	latency	response	correct	correctedscore	US_nomask_pleas1	US_nomask_pleas2	US_nomask_pleas3	US_nomask_pleas4	US_nomask_pleas5	US_nomask_pleas6	US_nomask_unple1	US_nomask_unple2	US_nomask_unple3	US_nomask_unple4	US_nomask_unple5	US_nomask_unple6	new_nomask_pleas1	new_nomask_pleas2	new_nomask_pleas3	new_nomask_pleas4	new_nomask_pleas5	new_nomask_pleas6	new_nomask_unple1	new_nomask_unple2	new_nomask_unple3	new_nomask_unple4	new_nomask_unple5	new_nomask_unple6	stimulusnumber1	stimulusitem1	stimulusonset1	stimulusnumber2	stimulusitem2	stimulusonset2	stimulusnumber3	stimulusitem3	stimulusonset3	stimulusnumber4	stimulusitem4	stimulusonset4	stimulusnumber5	stimulusitem5	stimulusonset5	stimulusnumber6	stimulusitem6	stimulusonset6	stimulusnumber7	stimulusitem7	stimulusonset7	stimulusnumber8	stimulusitem8	stimulusonset8	stimulusnumber9	stimulusitem9	stimulusonset9	stimulusnumber10	stimulusitem10	stimulusonset10
2024-05-28	11:36:38	11:37:28	49884	6.6.1	4_exp_EVA_AWA_CON	57	A	B	Rpleas_acq	Same	Rpleas	1pleas	acq_new_pleas_nomask	acq1_nomask	1	1	0	0	300	300	0	0	704	50	1	0	gütig	engagiert	vertrauen	anregung	sonnig	träumen	gierig	engstirnig	versagen	ausrottung	sterben	töten	vergnügt	genießen	gesittet	besonnen	kuss	kreativ	verbissen	gemein	geizig	bange	krise	krank	1	blank2r.bmp	0	1	+	0	1	blank2r.bmp	500	7	C3r.bmp	500	1	blank2r.bmp	880	1	vergnügt	880	0	0	0	0	0	0	0	0	0	0	0	0
2024-05-28	11:36:38	11:37:30	51868	6.6.1	4_exp_EVA_AWA_CON	57	A	B	Rpleas_acq	Same	Rpleas	1pleas	acq_new_pleas_nomask	acq1_nomask	1	2	0	0	300	300	0	0	496	50	1	0	gütig	engagiert	vertrauen	anregung	sonnig	träumen	gierig	engstirnig	versagen	ausrottung	sterben	töten	vergnügt	genießen	gesittet	besonnen	kuss	kreativ	verbissen	gemein	geizig	bange	krise	krank	1	blank2r.bmp	0	1	+	0	1	blank2r.bmp	500	4	B4r.bmp	500	1	blank2r.bmp	880	2	genießen	880	0	0	0	0	0	0	0	0	0	0	0	0
2024-05-28	11:36:38	11:37:32	53836	6.6.1	4_exp_EVA_AWA_CON	57	A	B	Rpleas_acq	Same	Rpleas	1pleas	acq_new_unple_nomask	acq1_nomask	1	3	0	0	300	300	0	0	483	46	1	0	gütig	engagiert	vertrauen	anregung	sonnig	träumen	gierig	engstirnig	versagen	ausrottung	sterben	töten	vergnügt	genießen	gesittet	besonnen	kuss	kreativ	verbissen	gemein	geizig	bange	krise	krank	1	blank2r.bmp	0	1	+	0	1	blank2r.bmp	500	1	B1r.bmp	500	1	blank2r.bmp	880	1	verbissen	880	0	0	0	0	0	0	0	0	0	0	0	0
2024-05-28	11:36:38	11:37:34	55796	6.6.1	4_exp_EVA_AWA_CON	57	A	B	Rpleas_acq	Same	Rpleas	1pleas	acq_US_unple_nomask	acq1_nomask	1	4	0	0	300	300	0	0	472	46	1	0	gütig	engagiert	vertrauen	anregung	sonnig	träumen	gierig	engstirnig	versagen	ausrottung	sterben	töten	vergnügt	genießen	gesittet	besonnen	kuss	kreativ	verbissen	gemein	geizig	bange	krise	krank	1	blank2r.bmp	0	1	+	0	1	blank2r.bmp	500	1	DHJF	500	1	blank2r.bmp	880	3	versagen	880	0	0	0	0	0	0	0	0	0	0	0	0
2024-05-28	11:36:38	11:37:36	57699	6.6.1	4_exp_EVA_AWA_CON	57	A	B	Rpleas_acq	Same	Rpleas	1pleas	acq_US_pleas_nomask	acq1_nomask	1	5	0	0	300	300	0	0	414	50	1	0	gütig	engagiert	vertrauen	anregung	sonnig	träumen	gierig	engstirnig	versagen	ausrottung	sterben	töten	vergnügt	genießen	gesittet	besonnen	kuss	kreativ	verbissen	gemein	geizig	bange	krise	krank	1	blank2r.bmp	0	1	+	0	1	blank2r.bmp	500	1	CPLW	500	1	blank2r.bmp	880	5	sonnig	880	0	0	0	0	0	0	0	0	0	0	0	0
2024-05-28	11:36:38	11:37:38	59619	6.6.1	4_exp_EVA_AWA_CON	57	A	B	Rpleas_acq	Same	Rpleas	1pleas	acq_US_pleas_nomask	acq1_nomask	1	6	0	0	300	300	0	0	433	50	1	0	gütig	engagiert	vertrauen	anregung	sonnig	träumen	gierig	engstirnig	versagen	ausrottung	sterben	töten	vergnügt	genießen	gesittet	besonnen	kuss	kreativ	verbissen	gemein	geizig	bange	krise	krank	1	blank2r.bmp	0	1	+	0	1	blank2r.bmp	500	1	CPLW	500	1	blank2r.bmp	880	6	träumen	880	0	0	0	0	0	0	0	0	0	0	0	0
2024-05-28	11:36:38	11:37:40	61675	6.6.1	4_exp_EVA_AWA_CON	57	A	B	Rpleas_acq	Same	Rpleas	1pleas	acq_new_unple_nomask	acq1_nomask	1	7	0	0	300	300	0	0	568	46	1	0	gütig	engagiert	vertrauen	anregung	sonnig	träumen	gierig	engstirnig	versagen	ausrottung	sterben	töten	vergnügt	genießen	gesittet	besonnen	kuss	kreativ	verbissen	gemein	geizig	bange	krise	krank	1	blank2r.bmp	0	1	+	0	1	blank2r.bmp	500	2	B2r.bmp	500	1	blank2r.bmp	880	5	krise	880	0	0	0	0	0	0	0	0	0	0	0	0
2024-05-28	11:36:38	11:37:42	63515	6.6.1	4_exp_EVA_AWA_CON	57	A	B	Rpleas_acq	Same	Rpleas	1pleas	acq_US_unple_nomask	acq1_nomask	1	8	0	0	300	300	0	0	357	46	1	0	gütig	engagiert	vertrauen	anregung	sonnig	träumen	gierig	engstirnig	versagen	ausrottung	sterben	töten	vergnügt	genießen	gesittet	besonnen	kuss	kreativ	verbissen	gemein	geizig	bange	krise	krank	1	blank2r.bmp	0	1	+	0	1	blank2r.bmp	500	1	DHJF	500	1	blank2r.bmp	880	2	engstirnig	880	0	0	0	0	0	0	0	0	0	0	0	0
2024-05-28	11:36:38	11:37:44	65582	6.6.1	4_exp_EVA_AWA_CON	57	A	B	Rpleas_acq	Same	Rpleas	1pleas	acq_US_pleas_nomask	acq1_nomask	1	9	0	0	300	300	0	0	379	46	0	0	gütig	engagiert	vertrauen	anregung	sonnig	träumen	gierig	engstirnig	versagen	ausrottung	sterben	töten	vergnügt	genießen	gesittet	besonnen	kuss	kreativ	verbissen	gemein	geizig	bange	krise	krank	1	blank2r.bmp	0	1	+	0	1	blank2r.bmp	500	1	CPLW	500	1	blank2r.bmp	880	2	engagiert	880	1	FEHLER	1282	0	0	0	0	0	0	0	0	0
2024-05-28	11:36:38	11:37:46	67267	6.6.1	4_exp_EVA_AWA_CON	57	A	B	Rpleas_acq	Same	Rpleas	1pleas	acq_US_unple_nomask	acq1_nomask	1	10	0	0	300	300	0	0	406	46	1	0	gütig	engagiert	vertrauen	anregung	sonnig	träumen	gierig	engstirnig	versagen	ausrottung	sterben	töten	vergnügt	genießen	gesittet	besonnen	kuss	kreativ	verbissen	gemein	geizig	bange	krise	krank	1	blank2r.bmp	0	1	+	0	1	blank2r.bmp	500	1	DHJF	500	1	blank2r.bmp	880	5	sterben	880	0	0	0	0	0	0	0	0	0	0	0	0
2024-05-28	11:36:38	11:37:48	69227	6.6.1	4_exp_EVA_AWA_CON	57	A	B	Rpleas_acq	Same	Rpleas	1pleas	acq_new_unple_nomask	acq1_nomask	1	11	0	0	300	300	0	0	475	46	1	0	gütig	engagiert	vertrauen	anregung	sonnig	träumen	gierig	engstirnig	versagen	ausrottung	sterben	töten	vergnügt	genießen	gesittet	besonnen	kuss	kreativ	verbissen	gemein	geizig	bange	krise	krank	1	blank2r.bmp	0	1	+	0	1	blank2r.bmp	500	3	B3r.bmp	500	1	blank2r.bmp	880	6	krank	880	0	0	0	0	0	0	0	0	0	0	0	0
2024-05-28	11:36:38	11:37:49	71084	6.6.1	4_exp_EVA_AWA_CON	57	A	B	Rpleas_acq	Same	Rpleas	1pleas	acq_new_pleas_nomask	acq1_nomask	1	12	0	0	300	300	0	0	370	50	1	0	gütig	engagiert	vertrauen	anregung	sonnig	träumen	gierig	engstirnig	versagen	ausrottung	sterben	töten	vergnügt	genießen	gesittet	besonnen	kuss	kreativ	verbissen	gemein	geizig	bange	krise	krank	1	blank2r.bmp	0	1	+	0	1	blank2r.bmp	500	8	C4r.bmp	500	1	blank2r.bmp	880	5	kuss	880	0	0	0	0	0	0	0	0	0	0	0	0
2024-05-28	11:36:38	11:37:51	73028	6.6.1	4_exp_EVA_AWA_CON	57	A	B	Rpleas_acq	Same	Rpleas	1pleas	acq_US_unple_nomask	acq1_nomask	1	13	0	0	300	300	0	0	462	46	1	0	gütig	engagiert	vertrauen	anregung	sonnig	träumen	gierig	engstirnig	versagen	ausrottung	sterben	töten	vergnügt	genießen	gesittet	besonnen	kuss	kreativ	verbissen	gemein	geizig	bange	krise	krank	1	blank2r.bmp	0	1	+	0	1	blank2r.bmp	500	1	DHJF	500	1	blank2r.bmp	880	6	töten	880	0	0	0	0	0	0	0	0	0	0	0	0
2024-05-28	11:36:38	11:37:53	74995	6.6.1	4_exp_EVA_AWA_CON	57	A	B	Rpleas_acq	Same	Rpleas	1pleas	acq_US_unple_nomask	acq1_nomask	1	14	0	0	300	300	0	0	479	46	1	0	gütig	engagiert	vertrauen	anregung	sonnig	träumen	gierig	engstirnig	versagen	ausrottung	sterben	töten	vergnügt	genießen	gesittet	besonnen	kuss	kreativ	verbissen	gemein	geizig	bange	krise	krank	1	blank2r.bmp	0	1	+	0	1	blank2r.bmp	500	1	DHJF	500	1	blank2r.bmp	880	4	ausrottung	880	0	0	0	0	0	0	0	0	0	0	0	0
2024-05-28	11:36:38	11:37:55	77125	6.6.1	4_exp_EVA_AWA_CON	57	A	B	Rpleas_acq	Same	Rpleas	1pleas	acq_US_unple_nomask	acq1_nomask	1	15	0	0	300	300	0	0	446	50	0	0	gütig	engagiert	vertrauen	anregung	sonnig	träumen	gierig	engstirnig	versagen	ausrottung	sterben	töten	vergnügt	genießen	gesittet	besonnen	kuss	kreativ	verbissen	gemein	geizig	bange	krise	krank	1	blank2r.bmp	0	1	+	0	1	blank2r.bmp	500	1	DHJF	500	1	blank2r.bmp	880	1	gierig	880	1	FEHLER	1348	0	0	0	0	0	0	0	0	0
2024-05-28	11:36:38	11:37:57	78907	6.6.1	4_exp_EVA_AWA_CON	57	A	B	Rpleas_acq	Same	Rpleas	1pleas	acq_US_pleas_nomask	acq1_nomask	1	16	0	0	300	300	0	0	499	50	1	0	gütig	engagiert	vertrauen	anregung	sonnig	träumen	gierig	engstirnig	versagen	ausrottung	sterben	töten	vergnügt	genießen	gesittet	besonnen	kuss	kreativ	verbissen	gemein	geizig	bange	krise	krank	1	blank2r.bmp	0	1	+	0	1	blank2r.bmp	500	1	CPLW	500	1	blank2r.bmp	880	3	vertrauen	880	0	0	0	0	0	0	0	0	0	0	0	0
2024-05-28	11:36:38	11:37:59	81029	6.6.1	4_exp_EVA_AWA_CON	57	A	B	Rpleas_acq	Same	Rpleas	1pleas	acq_US_pleas_nomask	acq1_nomask	1	17	0	0	300	300	0	0	437	46	0	0	gütig	engagiert	vertrauen	anregung	sonnig	träumen	gierig	engstirnig	versagen	ausrottung	sterben	töten	vergnügt	genießen	gesittet	besonnen	kuss	kreativ	verbissen	gemein	geizig	bange	krise	krank	1	blank2r.bmp	0	1	+	0	1	blank2r.bmp	500	1	CPLW	500	1	blank2r.bmp	880	4	anregung	880	1	FEHLER	1339	0	0	0	0	0	0	0	0	0
2024-05-28	11:36:38	11:38:01	82835	6.6.1	4_exp_EVA_AWA_CON	57	A	B	Rpleas_acq	Same	Rpleas	1pleas	acq_US_pleas_nomask	acq1_nomask	1	18	0	0	300	300	0	0	524	50	1	0	gütig	engagiert	vertrauen	anregung	sonnig	träumen	gierig	engstirnig	versagen	ausrottung	sterben	töten	vergnügt	genießen	gesittet	besonnen	kuss	kreativ	verbissen	gemein	geizig	bange	krise	krank	1	blank2r.bmp	0	1	+	0	1	blank2r.bmp	500	1	CPLW	500	1	blank2r.bmp	880	1	gütig	880	0	0	0	0	0	0	0	0	0	0	0	0
2024-05-28	11:36:38	11:38:03	84780	6.6.1	4_exp_EVA_AWA_CON	57	A	B	Rpleas_acq	Same	Rpleas	1pleas	acq_new_pleas_nomask	acq1_nomask	1	19	0	0	300	300	0	0	457	50	1	0	gütig	engagiert	vertrauen	anregung	sonnig	träumen	gierig	engstirnig	versagen	ausrottung	sterben	töten	vergnügt	genießen	gesittet	besonnen	kuss	kreativ	verbissen	gemein	geizig	bange	krise	krank	1	blank2r.bmp	0	1	+	0	1	blank2r.bmp	500	5	C1r.bmp	500	1	blank2r.bmp	880	4	besonnen	880	0	0	0	0	0	0	0	0	0	0	0	0
2024-05-28	11:36:38	11:38:05	86931	6.6.1	4_exp_EVA_AWA_CON	57	A	B	Rpleas_acq	Same	Rpleas	1pleas	acq_new_unple_nomask	acq1_nomask	1	20	0	0	300	300	0	0	667	46	1	0	gütig	engagiert	vertrauen	anregung	sonnig	träumen	gierig	engstirnig	versagen	ausrottung	sterben	töten	vergnügt	genießen	gesittet	besonnen	kuss	kreativ	verbissen	gemein	geizig	bange	krise	krank	1	blank2r.bmp	0	1	+	0	1	blank2r.bmp	500	6	C2r.bmp	500	1	blank2r.bmp	880	3	geizig	880	0	0	0	0	0	0	0	0	0	0	0	0
2024-05-28	11:36:38	11:38:08	89157	6.6.1	4_exp_EVA_AWA_CON	57	A	B	Rpleas_acq	Same	Rpleas	1pleas	acq_new_pleas_nomask	acq1_nomask	1	21	0	0	300	300	0	0	540	46	0	0	gütig	engagiert	vertrauen	anregung	sonnig	träumen	gierig	engstirnig	versagen	ausrottung	sterben	töten	vergnügt	genießen	gesittet	besonnen	kuss	kreativ	verbissen	gemein	geizig	bange	krise	krank	1	blank2r.bmp	0	1	+	0	1	blank2r.bmp	500	8	C4r.bmp	500	1	blank2r.bmp	880	3	gesittet	880	1	FEHLER	1442	0	0	0	0	0	0	0	0	0
2024-05-28	11:36:38	11:38:09	90939	6.6.1	4_exp_EVA_AWA_CON	57	A	B	Rpleas_acq	Same	Rpleas	1pleas	acq_new_unple_nomask	acq1_nomask	1	22	0	0	300	300	0	0	503	46	1	0	gütig	engagiert	vertrauen	anregung	sonnig	träumen	gierig	engstirnig	versagen	ausrottung	sterben	töten	vergnügt	genießen	gesittet	besonnen	kuss	kreativ	verbissen	gemein	geizig	bange	krise	krank	1	blank2r.bmp	0	1	+	0	1	blank2r.bmp	500	3	B3r.bmp	500	1	blank2r.bmp	880	4	bange	880	0	0	0	0	0	0	0	0	0	0	0	0
2024-05-28	11:36:38	11:38:11	92828	6.6.1	4_exp_EVA_AWA_CON	57	A	B	Rpleas_acq	Same	Rpleas	1pleas	acq_new_pleas_nomask	acq1_nomask	1	23	0	0	300	300	0	0	399	50	1	0	gütig	engagiert	vertrauen	anregung	sonnig	träumen	gierig	engstirnig	versagen	ausrottung	sterben	töten	vergnügt	genießen	gesittet	besonnen	kuss	kreativ	verbissen	gemein	geizig	bange	krise	krank	1	blank2r.bmp	0	1	+	0	1	blank2r.bmp	500	5	C1r.bmp	500	1	blank2r.bmp	880	6	kreativ	880	0	0	0	0	0	0	0	0	0	0	0	0
2024-05-28	11:36:38	11:38:13	94756	6.6.1	4_exp_EVA_AWA_CON	57	A	B	Rpleas_acq	Same	Rpleas	1pleas	acq_new_unple_nomask	acq1_nomask	1	24	0	0	300	300	0	0	446	46	1	0	gütig	engagiert	vertrauen	anregung	sonnig	träumen	gierig	engstirnig	versagen	ausrottung	sterben	töten	vergnügt	genießen	gesittet	besonnen	kuss	kreativ	verbissen	gemein	geizig	bange	krise	krank	1	blank2r.bmp	0	1	+	0	1	blank2r.bmp	500	4	B4r.bmp	500	1	blank2r.bmp	880	2	gemein	880	0	0	0	0	0	0	0	0	0	0	0	0
2024-05-28	11:36:38	11:38:15	96780	6.6.1	4_exp_EVA_AWA_CON	57	A	B	Rpleas_acq	Same	Rpleas	1pleas	acq_new_unple_nomask	acq1_nomask	1	25	0	0	300	300	0	0	539	46	1	0	gütig	engagiert	vertrauen	anregung	sonnig	träumen	gierig	engstirnig	versagen	ausrottung	sterben	töten	vergnügt	genießen	gesittet	besonnen	kuss	kreativ	verbissen	gemein	geizig	bange	krise	krank	1	blank2r.bmp	0	1	+	0	1	blank2r.bmp	500	6	C2r.bmp	500	1	blank2r.bmp	880	5	krise	880	0	0	0	0	0	0	0	0	0	0	0	0
2024-05-28	11:36:38	11:38:17	98803	6.6.1	4_exp_EVA_AWA_CON	57	A	B	Rpleas_acq	Same	Rpleas	1pleas	acq_new_pleas_nomask	acq1_nomask	1	26	0	0	300	300	0	0	542	50	1	0	gütig	engagiert	vertrauen	anregung	sonnig	träumen	gierig	engstirnig	versagen	ausrottung	sterben	töten	vergnügt	genießen	gesittet	besonnen	kuss	kreativ	verbissen	gemein	geizig	bange	krise	krank	1	blank2r.bmp	0	1	+	0	1	blank2r.bmp	500	7	C3r.bmp	500	1	blank2r.bmp	880	6	kreativ	880	0	0	0	0	0	0	0	0	0	0	0	0
2024-05-28	11:36:38	11:38:19	100779	6.6.1	4_exp_EVA_AWA_CON	57	A	B	Rpleas_acq	Same	Rpleas	1pleas	acq_new_pleas_nomask	acq1_nomask	1	27	0	0	300	300	0	0	486	50	1	0	gütig	engagiert	vertrauen	anregung	sonnig	träumen	gierig	engstirnig	versagen	ausrottung	sterben	töten	vergnügt	genießen	gesittet	besonnen	kuss	kreativ	verbissen	gemein	geizig	bange	krise	krank	1	blank2r.bmp	0	1	+	0	1	blank2r.bmp	500	1	B1r.bmp	500	1	blank2r.bmp	880	3	gesittet	880	0	0	0	0	0	0	0	0	0	0	0	0
2024-05-28	11:36:38	11:38:21	102667	6.6.1	4_exp_EVA_AWA_CON	57	A	B	Rpleas_acq	Same	Rpleas	1pleas	acq_US_pleas_nomask	acq1_nomask	1	28	0	0	300	300	0	0	403	50	1	0	gütig	engagiert	vertrauen	anregung	sonnig	träumen	gierig	engstirnig	versagen	ausrottung	sterben	töten	vergnügt	genießen	gesittet	besonnen	kuss	kreativ	verbissen	gemein	geizig	bange	krise	krank	1	blank2r.bmp	0	1	+	0	1	blank2r.bmp	500	1	CPLW	500	1	blank2r.bmp	880	1	gütig	880	0	0	0	0	0	0	0	0	0	0	0	0
2024-05-28	11:36:38	11:38:23	104659	6.6.1	4_exp_EVA_AWA_CON	57	A	B	Rpleas_acq	Same	Rpleas	1pleas	acq_US_pleas_nomask	acq1_nomask	1	29	0	0	300	300	0	0	504	50	1	0	gütig	engagiert	vertrauen	anregung	sonnig	träumen	gierig	engstirnig	versagen	ausrottung	sterben	töten	vergnügt	genießen	gesittet	besonnen	kuss	kreativ	verbissen	gemein	geizig	bange	krise	krank	1	blank2r.bmp	0	1	+	0	1	blank2r.bmp	500	1	CPLW	500	1	blank2r.bmp	880	2	engagiert	880	0	0	0	0	0	0	0	0	0	0	0	0
2024-05-28	11:36:38	11:38:25	106548	6.6.1	4_exp_EVA_AWA_CON	57	A	B	Rpleas_acq	Same	Rpleas	1pleas	acq_new_unple_nomask	acq1_nomask	1	30	0	0	300	300	0	0	400	46	1	0	gütig	engagiert	vertrauen	anregung	sonnig	träumen	gierig	engstirnig	versagen	ausrottung	sterben	töten	vergnügt	genießen	gesittet	besonnen	kuss	kreativ	verbissen	gemein	geizig	bange	krise	krank	1	blank2r.bmp	0	1	+	0	1	blank2r.bmp	500	2	B2r.bmp	500	1	blank2r.bmp	880	6	krank	880	0	0	0	0	0	0	0	0	0	0	0	0
2024-05-28	11:36:38	11:38:27	108443	6.6.1	4_exp_EVA_AWA_CON	57	A	B	Rpleas_acq	Same	Rpleas	1pleas	acq_US_unple_nomask	acq1_nomask	1	31	0	0	300	300	0	0	415	46	1	0	gütig	engagiert	vertrauen	anregung	sonnig	träumen	gierig	engstirnig	versagen	ausrottung	sterben	töten	vergnügt	genießen	gesittet	besonnen	kuss	kreativ	verbissen	gemein	geizig	bange	krise	krank	1	blank2r.bmp	0	1	+	0	1	blank2r.bmp	500	1	DHJF	500	1	blank2r.bmp	880	6	töten	880	0	0	0	0	0	0	0	0	0	0	0	0
2024-05-28	11:36:38	11:38:29	110420	6.6.1	4_exp_EVA_AWA_CON	57	A	B	Rpleas_acq	Same	Rpleas	1pleas	acq_US_unple_nomask	acq1_nomask	1	32	0	0	300	300	0	0	490	46	1	0	gütig	engagiert	vertrauen	anregung	sonnig	träumen	gierig	engstirnig	versagen	ausrottung	sterben	töten	vergnügt	genießen	gesittet	besonnen	kuss	kreativ	verbissen	gemein	geizig	bange	krise	krank	1	blank2r.bmp	0	1	+	0	1	blank2r.bmp	500	1	DHJF	500	1	blank2r.bmp	880	2	engstirnig	880	0	0	0	0	0	0	0	0	0	0	0	0
2024-05-28	11:36:38	11:38:31	112324	6.6.1	4_exp_EVA_AWA_CON	57	A	B	Rpleas_acq	Same	Rpleas	1pleas	acq_US_unple_nomask	acq1_nomask	1	33	0	0	300	300	0	0	423	46	1	0	gütig	engagiert	vertrauen	anregung	sonnig	träumen	gierig	engstirnig	versagen	ausrottung	sterben	töten	vergnügt	genießen	gesittet	besonnen	kuss	kreativ	verbissen	gemein	geizig	bange	krise	krank	1	blank2r.bmp	0	1	+	0	1	blank2r.bmp	500	1	DHJF	500	1	blank2r.bmp	880	4	ausrottung	880	0	0	0	0	0	0	0	0	0	0	0	0
2024-05-28	11:36:38	11:38:33	114204	6.6.1	4_exp_EVA_AWA_CON	57	A	B	Rpleas_acq	Same	Rpleas	1pleas	acq_new_pleas_nomask	acq1_nomask	1	34	0	0	300	300	0	0	391	50	1	0	gütig	engagiert	vertrauen	anregung	sonnig	träumen	gierig	engstirnig	versagen	ausrottung	sterben	töten	vergnügt	genießen	gesittet	besonnen	kuss	kreativ	verbissen	gemein	geizig	bange	krise	krank	1	blank2r.bmp	0	1	+	0	1	blank2r.bmp	500	5	C1r.bmp	500	1	blank2r.bmp	880	1	vergnügt	880	0	0	0	0	0	0	0	0	0	0	0	0
2024-05-28	11:36:38	11:38:35	116155	6.6.1	4_exp_EVA_AWA_CON	57	A	B	Rpleas_acq	Same	Rpleas	1pleas	acq_US_pleas_nomask	acq1_nomask	1	35	0	0	300	300	0	0	462	50	1	0	gütig	engagiert	vertrauen	anregung	sonnig	träumen	gierig	engstirnig	versagen	ausrottung	sterben	töten	vergnügt	genießen	gesittet	besonnen	kuss	kreativ	verbissen	gemein	geizig	bange	krise	krank	1	blank2r.bmp	0	1	+	0	1	blank2r.bmp	500	1	CPLW	500	1	blank2r.bmp	880	4	anregung	880	0	0	0	0	0	0	0	0	0	0	0	0
2024-05-28	11:36:38	11:38:36	118091	6.6.1	4_exp_EVA_AWA_CON	57	A	B	Rpleas_acq	Same	Rpleas	1pleas	acq_new_unple_nomask	acq1_nomask	1	36	0	0	300	300	0	0	447	46	1	0	gütig	engagiert	vertrauen	anregung	sonnig	träumen	gierig	engstirnig	versagen	ausrottung	sterben	töten	vergnügt	genießen	gesittet	besonnen	kuss	kreativ	verbissen	gemein	geizig	bange	krise	krank	1	blank2r.bmp	0	1	+	0	1	blank2r.bmp	500	3	B3r.bmp	500	1	blank2r.bmp	880	4	bange	880	0	0	0	0	0	0	0	0	0	0	0	0
2024-05-28	11:36:38	11:38:55	136678	6.6.1	4_exp_EVA_AWA_CON	57	A	B	Rpleas_acq	Same	Rpleas	1pleas	acq_US_pleas_nomask	acq2_nomask	2	1	480	0	300	300	0	0	851	50	1	0	gütig	engagiert	vertrauen	anregung	sonnig	träumen	gierig	engstirnig	versagen	ausrottung	sterben	töten	vergnügt	genießen	gesittet	besonnen	kuss	kreativ	verbissen	gemein	geizig	bange	krise	krank	1	blank2r.bmp	0	1	+	0	1	blank2r.bmp	500	1	CPLW	500	1	blank2r.bmp	880	3	vertrauen	880	1	!	1313	1	!	-1	0	0	0	0	0	0
2024-05-28	11:36:38	11:38:57	139012	6.6.1	4_exp_EVA_AWA_CON	57	A	B	Rpleas_acq	Same	Rpleas	1pleas	acq_US_unple_nomask	acq2_nomask	2	2	480	0	300	300	0	0	556	46	1	0	gütig	engagiert	vertrauen	anregung	sonnig	träumen	gierig	engstirnig	versagen	ausrottung	sterben	töten	vergnügt	genießen	gesittet	besonnen	kuss	kreativ	verbissen	gemein	geizig	bange	krise	krank	1	blank2r.bmp	0	1	+	0	1	blank2r.bmp	500	1	DHJF	500	1	blank2r.bmp	880	5	sterben	880	1	!	1313	1	!	-1	0	0	0	0	0	0
2024-05-28	11:36:38	11:39:00	141453	6.6.1	4_exp_EVA_AWA_CON	57	A	B	Rpleas_acq	Same	Rpleas	1pleas	acq_new_unple_nomask	acq2_nomask	2	3	480	0	300	300	0	0	664	46	1	0	gütig	engagiert	vertrauen	anregung	sonnig	träumen	gierig	engstirnig	versagen	ausrottung	sterben	töten	vergnügt	genießen	gesittet	besonnen	kuss	kreativ	verbissen	gemein	geizig	bange	krise	krank	1	blank2r.bmp	0	1	+	0	1	blank2r.bmp	500	2	B2r.bmp	500	1	blank2r.bmp	880	3	geizig	880	1	!	1313	1	!	-1	0	0	0	0	0	0
2024-05-28	11:36:38	11:39:02	143847	6.6.1	4_exp_EVA_AWA_CON	57	A	B	Rpleas_acq	Same	Rpleas	1pleas	acq_US_unple_nomask	acq2_nomask	2	4	480	1	300	300	0	0	414	50	0	0	gütig	engagiert	vertrauen	anregung	sonnig	träumen	gierig	engstirnig	versagen	ausrottung	sterben	töten	vergnügt	genießen	gesittet	besonnen	kuss	kreativ	verbissen	gemein	geizig	bange	krise	krank	1	blank2r.bmp	0	1	+	0	1	blank2r.bmp	500	1	DHJF	500	1	blank2r.bmp	880	3	versagen	880	1	FEHLER	1606	1	!	1313	1	!	1314	0	0	0
2024-05-28	11:36:38	11:39:04	145903	6.6.1	4_exp_EVA_AWA_CON	57	A	B	Rpleas_acq	Same	Rpleas	1pleas	acq_US_pleas_nomask	acq2_nomask	2	5	480	1	300	300	0	0	479	50	1	0	gütig	engagiert	vertrauen	anregung	sonnig	träumen	gierig	engstirnig	versagen	ausrottung	sterben	töten	vergnügt	genießen	gesittet	besonnen	kuss	kreativ	verbissen	gemein	geizig	bange	krise	krank	1	blank2r.bmp	0	1	+	0	1	blank2r.bmp	500	1	CPLW	500	1	blank2r.bmp	880	6	träumen	880	1	!	1312	1	!	1380	0	0	0	0	0	0
2024-05-28	11:36:38	11:39:06	148094	6.6.1	4_exp_EVA_AWA_CON	57	A	B	Rpleas_acq	Same	Rpleas	1pleas	acq_new_pleas_nomask	acq2_nomask	2	6	480	0	300	300	0	0	410	50	1	0	gütig	engagiert	vertrauen	anregung	sonnig	träumen	gierig	engstirnig	versagen	ausrottung	sterben	töten	vergnügt	genießen	gesittet	besonnen	kuss	kreativ	verbissen	gemein	geizig	bange	krise	krank	1	blank2r.bmp	0	1	+	0	1	blank2r.bmp	500	6	C2r.bmp	500	1	blank2r.bmp	880	5	kuss	880	1	!	-1	1	!	-1	0	0	0	0	0	0
2024-05-28	11:36:38	11:39:09	150399	6.6.1	4_exp_EVA_AWA_CON	57	A	B	Rpleas_acq	Same	Rpleas	1pleas	acq_new_unple_nomask	acq2_nomask	2	7	480	1	300	300	0	0	522	46	1	0	gütig	engagiert	vertrauen	anregung	sonnig	träumen	gierig	engstirnig	versagen	ausrottung	sterben	töten	vergnügt	genießen	gesittet	besonnen	kuss	kreativ	verbissen	gemein	geizig	bange	krise	krank	1	blank2r.bmp	0	1	+	0	1	blank2r.bmp	500	1	B1r.bmp	500	1	blank2r.bmp	880	2	gemein	880	1	!	1312	1	!	1423	0	0	0	0	0	0
2024-05-28	11:36:38	11:39:11	152838	6.6.1	4_exp_EVA_AWA_CON	57	A	B	Rpleas_acq	Same	Rpleas	1pleas	acq_new_unple_nomask	acq2_nomask	2	8	480	0	300	300	0	0	661	46	1	0	gütig	engagiert	vertrauen	anregung	sonnig	träumen	gierig	engstirnig	versagen	ausrottung	sterben	töten	vergnügt	genießen	gesittet	besonnen	kuss	kreativ	verbissen	gemein	geizig	bange	krise	krank	1	blank2r.bmp	0	1	+	0	1	blank2r.bmp	500	7	C3r.bmp	500	1	blank2r.bmp	880	1	verbissen	880	1	!	1313	1	!	-1	0	0	0	0	0	0
2024-05-28	11:36:38	11:39:13	155087	6.6.1	4_exp_EVA_AWA_CON	57	A	B	Rpleas_acq	Same	Rpleas	1pleas	acq_new_pleas_nomask	acq2_nomask	2	9	480	1	300	300	0	0	467	50	1	0	gütig	engagiert	vertrauen	anregung	sonnig	träumen	gierig	engstirnig	versagen	ausrottung	sterben	töten	vergnügt	genießen	gesittet	besonnen	kuss	kreativ	verbissen	gemein	geizig	bange	krise	krank	1	blank2r.bmp	0	1	+	0	1	blank2r.bmp	500	4	B4r.bmp	500	1	blank2r.bmp	880	2	genießen	880	1	!	1313	1	!	1368	0	0	0	0	0	0
2024-05-28	11:36:38	11:39:16	157391	6.6.1	4_exp_EVA_AWA_CON	57	A	B	Rpleas_acq	Same	Rpleas	1pleas	acq_US_unple_nomask	acq2_nomask	2	10	480	1	300	300	0	0	530	46	1	0	gütig	engagiert	vertrauen	anregung	sonnig	träumen	gierig	engstirnig	versagen	ausrottung	sterben	töten	vergnügt	genießen	gesittet	besonnen	kuss	kreativ	verbissen	gemein	geizig	bange	krise	krank	1	blank2r.bmp	0	1	+	0	1	blank2r.bmp	500	1	DHJF	500	1	blank2r.bmp	880	1	gierig	880	1	!	1313	1	!	1431	0	0	0	0	0	0
2024-05-28	11:36:38	11:39:18	159712	6.6.1	4_exp_EVA_AWA_CON	57	A	B	Rpleas_acq	Same	Rpleas	1pleas	acq_new_pleas_nomask	acq2_nomask	2	11	480	1	300	300	0	0	538	50	1	0	gütig	engagiert	vertrauen	anregung	sonnig	träumen	gierig	engstirnig	versagen	ausrottung	sterben	töten	vergnügt	genießen	gesittet	besonnen	kuss	kreativ	verbissen	gemein	geizig	bange	krise	krank	1	blank2r.bmp	0	1	+	0	1	blank2r.bmp	500	8	C4r.bmp	500	1	blank2r.bmp	880	4	besonnen	880	1	!	1312	1	!	1439	0	0	0	0	0	0
2024-05-28	11:36:38	11:39:20	161991	6.6.1	4_exp_EVA_AWA_CON	57	A	B	Rpleas_acq	Same	Rpleas	1pleas	acq_US_pleas_nomask	acq2_nomask	2	12	480	1	300	300	0	0	497	50	1	0	gütig	engagiert	vertrauen	anregung	sonnig	träumen	gierig	engstirnig	versagen	ausrottung	sterben	töten	vergnügt	genießen	gesittet	besonnen	kuss	kreativ	verbissen	gemein	geizig	bange	krise	krank	1	blank2r.bmp	0	1	+	0	1	blank2r.bmp	500	1	CPLW	500	1	blank2r.bmp	880	5	sonnig	880	1	!	1313	1	!	1398	0	0	0	0	0	0
2024-05-28	11:36:38	11:39:23	164303	6.6.1	4_exp_EVA_AWA_CON	57	A	B	Rpleas_acq	Same	Rpleas	1pleas	acq_US_pleas_nomask	acq2_nomask	2	13	480	1	300	300	0	0	537	50	1	0	gütig	engagiert	vertrauen	anregung	sonnig	träumen	gierig	engstirnig	versagen	ausrottung	sterben	töten	vergnügt	genießen	gesittet	besonnen	kuss	kreativ	verbissen	gemein	geizig	bange	krise	krank	1	blank2r.bmp	0	1	+	0	1	blank2r.bmp	500	1	CPLW	500	1	blank2r.bmp	880	3	vertrauen	880	1	!	1312	1	!	1438	0	0	0	0	0	0
2024-05-28	11:36:38	11:39:25	166693	6.6.1	4_exp_EVA_AWA_CON	57	A	B	Rpleas_acq	Same	Rpleas	1pleas	acq_US_unple_nomask	acq2_nomask	2	14	480	0	300	300	0	0	617	46	1	0	gütig	engagiert	vertrauen	anregung	sonnig	träumen	gierig	engstirnig	versagen	ausrottung	sterben	töten	vergnügt	genießen	gesittet	besonnen	kuss	kreativ	verbissen	gemein	geizig	bange	krise	krank	1	blank2r.bmp	0	1	+	0	1	blank2r.bmp	500	1	DHJF	500	1	blank2r.bmp	880	4	ausrottung	880	1	!	1312	1	!	-1	0	0	0	0	0	0
2024-05-28	11:36:38	11:39:27	168943	6.6.1	4_exp_EVA_AWA_CON	57	A	B	Rpleas_acq	Same	Rpleas	1pleas	acq_US_unple_nomask	acq2_nomask	2	15	480	1	300	300	0	0	474	46	1	0	gütig	engagiert	vertrauen	anregung	sonnig	träumen	gierig	engstirnig	versagen	ausrottung	sterben	töten	vergnügt	genießen	gesittet	besonnen	kuss	kreativ	verbissen	gemein	geizig	bange	krise	krank	1	blank2r.bmp	0	1	+	0	1	blank2r.bmp	500	1	DHJF	500	1	blank2r.bmp	880	2	engstirnig	880	1	!	1313	1	!	1375	0	0	0	0	0	0
2024-05-28	11:36:38	11:39:30	171183	6.6.1	4_exp_EVA_AWA_CON	57	A	B	Rpleas_acq	Same	Rpleas	1pleas	acq_new_unple_nomask	acq2_nomask	2	16	480	1	300	300	0	0	463	46	1	0	gütig	engagiert	vertrauen	anregung	sonnig	träumen	gierig	engstirnig	versagen	ausrottung	sterben	töten	vergnügt	genießen	gesittet	besonnen	kuss	kreativ	verbissen	gemein	geizig	bange	krise	krank	1	blank2r.bmp	0	1	+	0	1	blank2r.bmp	500	6	C2r.bmp	500	1	blank2r.bmp	880	3	geizig	880	1	!	1312	1	!	1364	0	0	0	0	0	0
2024-05-28	11:36:38	11:39:32	173349	6.6.1	4_exp_EVA_AWA_CON	57	A	B	Rpleas_acq	Same	Rpleas	1pleas	acq_US_pleas_nomask	acq2_nomask	2	17	480	0	300	300	0	0	389	50	1	0	gütig	engagiert	vertrauen	anregung	sonnig	träumen	gierig	engstirnig	versagen	ausrottung	sterben	töten	vergnügt	genießen	gesittet	besonnen	kuss	kreativ	verbissen	gemein	geizig	bange	krise	krank	1	blank2r.bmp	0	1	+	0	1	blank2r.bmp	500	1	CPLW	500	1	blank2r.bmp	880	4	anregung	880	1	!	-1	1	!	-1	0	0	0	0	0	0
2024-05-28	11:36:38	11:39:34	175717	6.6.1	4_exp_EVA_AWA_CON	57	A	B	Rpleas_acq	Same	Rpleas	1pleas	acq_new_pleas_nomask	acq2_nomask	2	18	480	0	300	300	0	0	596	50	1	0	gütig	engagiert	vertrauen	anregung	sonnig	träumen	gierig	engstirnig	versagen	ausrottung	sterben	töten	vergnügt	genießen	gesittet	besonnen	kuss	kreativ	verbissen	gemein	geizig	bange	krise	krank	1	blank2r.bmp	0	1	+	0	1	blank2r.bmp	500	8	C4r.bmp	500	1	blank2r.bmp	880	2	genießen	880	1	!	1313	1	!	-1	0	0	0	0	0	0
2024-05-28	11:36:38	11:39:36	178051	6.6.1	4_exp_EVA_AWA_CON	57	A	B	Rpleas_acq	Same	Rpleas	1pleas	acq_new_unple_nomask	acq2_nomask	2	19	480	0	300	300	0	0	560	46	1	0	gütig	engagiert	vertrauen	anregung	sonnig	träumen	gierig	engstirnig	versagen	ausrottung	sterben	töten	vergnügt	genießen	gesittet	besonnen	kuss	kreativ	verbissen	gemein	geizig	bange	krise	krank	1	blank2r.bmp	0	1	+	0	1	blank2r.bmp	500	2	B2r.bmp	500	1	blank2r.bmp	880	1	verbissen	880	1	!	1312	1	!	-1	0	0	0	0	0	0
2024-05-28	11:36:38	11:39:39	180336	6.6.1	4_exp_EVA_AWA_CON	57	A	B	Rpleas_acq	Same	Rpleas	1pleas	acq_new_pleas_nomask	acq2_nomask	2	20	480	1	300	300	0	0	509	50	1	0	gütig	engagiert	vertrauen	anregung	sonnig	träumen	gierig	engstirnig	versagen	ausrottung	sterben	töten	vergnügt	genießen	gesittet	besonnen	kuss	kreativ	verbissen	gemein	geizig	bange	krise	krank	1	blank2r.bmp	0	1	+	0	1	blank2r.bmp	500	4	B4r.bmp	500	1	blank2r.bmp	880	4	besonnen	880	1	!	1313	1	!	1410	0	0	0	0	0	0
2024-05-28	11:36:38	11:39:41	182493	6.6.1	4_exp_EVA_AWA_CON	57	A	B	Rpleas_acq	Same	Rpleas	1pleas	acq_US_pleas_nomask	acq2_nomask	2	21	480	0	300	300	0	0	377	50	1	0	gütig	engagiert	vertrauen	anregung	sonnig	träumen	gierig	engstirnig	versagen	ausrottung	sterben	töten	vergnügt	genießen	gesittet	besonnen	kuss	kreativ	verbissen	gemein	geizig	bange	krise	krank	1	blank2r.bmp	0	1	+	0	1	blank2r.bmp	500	1	CPLW	500	1	blank2r.bmp	880	2	engagiert	880	1	!	-1	1	!	-1	0	0	0	0	0	0
2024-05-28	11:36:38	11:39:43	184743	6.6.1	4_exp_EVA_AWA_CON	57	A	B	Rpleas_acq	Same	Rpleas	1pleas	acq_new_pleas_nomask	acq2_nomask	2	22	480	1	300	300	0	0	474	50	1	0	gütig	engagiert	vertrauen	anregung	sonnig	träumen	gierig	engstirnig	versagen	ausrottung	sterben	töten	vergnügt	genießen	gesittet	besonnen	kuss	kreativ	verbissen	gemein	geizig	bange	krise	krank	1	blank2r.bmp	0	1	+	0	1	blank2r.bmp	500	7	C3r.bmp	500	1	blank2r.bmp	880	1	vergnügt	880	1	!	1313	1	!	1375	0	0	0	0	0	0
2024-05-28	11:36:38	11:39:45	186967	6.6.1	4_exp_EVA_AWA_CON	57	A	B	Rpleas_acq	Same	Rpleas	1pleas	acq_new_unple_nomask	acq2_nomask	2	23	480	1	300	300	0	0	446	46	1	0	gütig	engagiert	vertrauen	anregung	sonnig	träumen	gierig	engstirnig	versagen	ausrottung	sterben	töten	vergnügt	genießen	gesittet	besonnen	kuss	kreativ	verbissen	gemein	geizig	bange	krise	krank	1	blank2r.bmp	0	1	+	0	1	blank2r.bmp	500	1	B1r.bmp	500	1	blank2r.bmp	880	2	gemein	880	1	!	1313	1	!	1347	0	0	0	0	0	0
2024-05-28	11:36:38	11:39:48	189255	6.6.1	4_exp_EVA_AWA_CON	57	A	B	Rpleas_acq	Same	Rpleas	1pleas	acq_US_unple_nomask	acq2_nomask	2	24	480	1	300	300	0	0	513	46	1	0	gütig	engagiert	vertrauen	anregung	sonnig	träumen	gierig	engstirnig	versagen	ausrottung	sterben	töten	vergnügt	genießen	gesittet	besonnen	kuss	kreativ	verbissen	gemein	geizig	bange	krise	krank	1	blank2r.bmp	0	1	+	0	1	blank2r.bmp	500	1	DHJF	500	1	blank2r.bmp	880	5	sterben	880	1	!	1313	1	!	1414	0	0	0	0	0	0
2024-05-28	11:36:38	11:39:50	191661	6.6.1	4_exp_EVA_AWA_CON	57	A	B	Rpleas_acq	Same	Rpleas	1pleas	acq_US_unple_nomask	acq2_nomask	2	25	480	0	300	300	0	0	629	46	1	0	gütig	engagiert	vertrauen	anregung	sonnig	träumen	gierig	engstirnig	versagen	ausrottung	sterben	töten	vergnügt	genießen	gesittet	besonnen	kuss	kreativ	verbissen	gemein	geizig	bange	krise	krank	1	blank2r.bmp	0	1	+	0	1	blank2r.bmp	500	1	DHJF	500	1	blank2r.bmp	880	6	töten	880	1	!	1313	1	!	-1	0	0	0	0	0	0
2024-05-28	11:36:38	11:39:52	193988	6.6.1	4_exp_EVA_AWA_CON	57	A	B	Rpleas_acq	Same	Rpleas	1pleas	acq_US_pleas_nomask	acq2_nomask	2	26	480	0	300	300	0	0	556	50	1	0	gütig	engagiert	vertrauen	anregung	sonnig	träumen	gierig	engstirnig	versagen	ausrottung	sterben	töten	vergnügt	genießen	gesittet	besonnen	kuss	kreativ	verbissen	gemein	geizig	bange	krise	krank	1	blank2r.bmp	0	1	+	0	1	blank2r.bmp	500	1	CPLW	500	1	blank2r.bmp	880	6	träumen	880	1	!	1313	1	!	-1	0	0	0	0	0	0
2024-05-28	11:36:38	11:39:55	196341	6.6.1	4_exp_EVA_AWA_CON	57	A	B	Rpleas_acq	Same	Rpleas	1pleas	acq_new_unple_nomask	acq2_nomask	2	27	480	0	300	300	0	0	576	46	1	0	gütig	engagiert	vertrauen	anregung	sonnig	träumen	gierig	engstirnig	versagen	ausrottung	sterben	töten	vergnügt	genießen	gesittet	besonnen	kuss	kreativ	verbissen	gemein	geizig	bange	krise	krank	1	blank2r.bmp	0	1	+	0	1	blank2r.bmp	500	5	C1r.bmp	500	1	blank2r.bmp	880	4	bange	880	1	!	1313	1	!	-1	0	0	0	0	0	0
2024-05-28	11:36:38	11:39:57	198493	6.6.1	4_exp_EVA_AWA_CON	57	A	B	Rpleas_acq	Same	Rpleas	1pleas	acq_US_pleas_nomask	acq2_nomask	2	28	480	0	300	300	0	0	377	50	1	0	gütig	engagiert	vertrauen	anregung	sonnig	träumen	gierig	engstirnig	versagen	ausrottung	sterben	töten	vergnügt	genießen	gesittet	besonnen	kuss	kreativ	verbissen	gemein	geizig	bange	krise	krank	1	blank2r.bmp	0	1	+	0	1	blank2r.bmp	500	1	CPLW	500	1	blank2r.bmp	880	1	gütig	880	1	!	-1	1	!	-1	0	0	0	0	0	0
2024-05-28	11:36:38	11:39:59	200969	6.6.1	4_exp_EVA_AWA_CON	57	A	B	Rpleas_acq	Same	Rpleas	1pleas	acq_US_unple_nomask	acq2_nomask	2	29	480	1	300	300	0	0	497	50	0	0	gütig	engagiert	vertrauen	anregung	sonnig	träumen	gierig	engstirnig	versagen	ausrottung	sterben	töten	vergnügt	genießen	gesittet	besonnen	kuss	kreativ	verbissen	gemein	geizig	bange	krise	krank	1	blank2r.bmp	0	1	+	0	1	blank2r.bmp	500	1	DHJF	500	1	blank2r.bmp	880	1	gierig	880	1	FEHLER	1690	1	!	1313	1	!	1399	0	0	0
2024-05-28	11:36:38	11:40:01	202957	6.6.1	4_exp_EVA_AWA_CON	57	A	B	Rpleas_acq	Same	Rpleas	1pleas	acq_US_unple_nomask	acq2_nomask	2	30	480	1	300	300	0	0	418	46	1	0	gütig	engagiert	vertrauen	anregung	sonnig	träumen	gierig	engstirnig	versagen	ausrottung	sterben	töten	vergnügt	genießen	gesittet	besonnen	kuss	kreativ	verbissen	gemein	geizig	bange	krise	krank	1	blank2r.bmp	0	1	+	0	1	blank2r.bmp	500	1	DHJF	500	1	blank2r.bmp	880	3	versagen	880	1	!	1313	1	!	1317	0	0	0	0	0	0
2024-05-28	11:36:38	11:40:04	205302	6.6.1	4_exp_EVA_AWA_CON	57	A	B	Rpleas_acq	Same	Rpleas	1pleas	acq_US_pleas_nomask	acq2_nomask	2	31	480	0	300	300	0	0	570	50	1	0	gütig	engagiert	vertrauen	anregung	sonnig	träumen	gierig	engstirnig	versagen	ausrottung	sterben	töten	vergnügt	genießen	gesittet	besonnen	kuss	kreativ	verbissen	gemein	geizig	bange	krise	krank	1	blank2r.bmp	0	1	+	0	1	blank2r.bmp	500	1	CPLW	500	1	blank2r.bmp	880	5	sonnig	880	1	!	1313	1	!	-1	0	0	0	0	0	0
2024-05-28	11:36:38	11:40:06	207575	6.6.1	4_exp_EVA_AWA_CON	57	A	B	Rpleas_acq	Same	Rpleas	1pleas	acq_new_pleas_nomask	acq2_nomask	2	32	480	1	300	300	0	0	491	50	1	0	gütig	engagiert	vertrauen	anregung	sonnig	träumen	gierig	engstirnig	versagen	ausrottung	sterben	töten	vergnügt	genießen	gesittet	besonnen	kuss	kreativ	verbissen	gemein	geizig	bange	krise	krank	1	blank2r.bmp	0	1	+	0	1	blank2r.bmp	500	3	B3r.bmp	500	1	blank2r.bmp	880	3	gesittet	880	1	!	1312	1	!	1392	0	0	0	0	0	0
2024-05-28	11:36:38	11:40:08	209895	6.6.1	4_exp_EVA_AWA_CON	57	A	B	Rpleas_acq	Same	Rpleas	1pleas	acq_new_pleas_nomask	acq2_nomask	2	33	480	1	300	300	0	0	539	50	1	0	gütig	engagiert	vertrauen	anregung	sonnig	träumen	gierig	engstirnig	versagen	ausrottung	sterben	töten	vergnügt	genießen	gesittet	besonnen	kuss	kreativ	verbissen	gemein	geizig	bange	krise	krank	1	blank2r.bmp	0	1	+	0	1	blank2r.bmp	500	7	C3r.bmp	500	1	blank2r.bmp	880	6	kreativ	880	1	!	1313	1	!	1441	0	0	0	0	0	0
2024-05-28	11:36:38	11:40:11	212183	6.6.1	4_exp_EVA_AWA_CON	57	A	B	Rpleas_acq	Same	Rpleas	1pleas	acq_new_unple_nomask	acq2_nomask	2	34	480	1	300	300	0	0	506	46	1	0	gütig	engagiert	vertrauen	anregung	sonnig	träumen	gierig	engstirnig	versagen	ausrottung	sterben	töten	vergnügt	genießen	gesittet	besonnen	kuss	kreativ	verbissen	gemein	geizig	bange	krise	krank	1	blank2r.bmp	0	1	+	0	1	blank2r.bmp	500	1	B1r.bmp	500	1	blank2r.bmp	880	5	krise	880	1	!	1312	1	!	1407	0	0	0	0	0	0
2024-05-28	11:36:38	11:40:13	214455	6.6.1	4_exp_EVA_AWA_CON	57	A	B	Rpleas_acq	Same	Rpleas	1pleas	acq_new_pleas_nomask	acq2_nomask	2	35	480	1	300	300	0	0	496	50	1	0	gütig	engagiert	vertrauen	anregung	sonnig	träumen	gierig	engstirnig	versagen	ausrottung	sterben	töten	vergnügt	genießen	gesittet	besonnen	kuss	kreativ	verbissen	gemein	geizig	bange	krise	krank	1	blank2r.bmp	0	1	+	0	1	blank2r.bmp	500	8	C4r.bmp	500	1	blank2r.bmp	880	5	kuss	880	1	!	1312	1	!	1398	0	0	0	0	0	0
2024-05-28	11:36:38	11:40:15	216727	6.6.1	4_exp_EVA_AWA_CON	57	A	B	Rpleas_acq	Same	Rpleas	1pleas	acq_new_unple_nomask	acq2_nomask	2	36	480	1	300	300	0	0	497	46	1	0	gütig	engagiert	vertrauen	anregung	sonnig	träumen	gierig	engstirnig	versagen	ausrottung	sterben	töten	vergnügt	genießen	gesittet	besonnen	kuss	kreativ	verbissen	gemein	geizig	bange	krise	krank	1	blank2r.bmp	0	1	+	0	1	blank2r.bmp	500	2	B2r.bmp	500	1	blank2r.bmp	880	6	krank	880	1	!	1313	1	!	1398	0	0	0	0	0	0
2024-05-28	11:36:38	11:40:26	228085	6.6.1	4_exp_EVA_AWA_CON	57	A	B	Rpleas_acq	Same	Rpleas	1pleas	acq_US_pleas_nomask	acq3_nomask	3	1	453	0	300	300	0	0	619	50	1	0	gütig	engagiert	vertrauen	anregung	sonnig	träumen	gierig	engstirnig	versagen	ausrottung	sterben	töten	vergnügt	genießen	gesittet	besonnen	kuss	kreativ	verbissen	gemein	geizig	bange	krise	krank	1	blank2r.bmp	0	1	+	0	1	blank2r.bmp	500	1	CPLW	500	1	blank2r.bmp	880	3	vertrauen	880	1	!	1292	1	!	-1	0	0	0	0	0	0
2024-05-28	11:36:38	11:40:29	230229	6.6.1	4_exp_EVA_AWA_CON	57	A	B	Rpleas_acq	Same	Rpleas	1pleas	acq_US_unple_nomask	acq3_nomask	3	2	453	0	300	300	0	0	362	46	1	0	gütig	engagiert	vertrauen	anregung	sonnig	träumen	gierig	engstirnig	versagen	ausrottung	sterben	töten	vergnügt	genießen	gesittet	besonnen	kuss	kreativ	verbissen	gemein	geizig	bange	krise	krank	1	blank2r.bmp	0	1	+	0	1	blank2r.bmp	500	1	DHJF	500	1	blank2r.bmp	880	6	töten	880	1	!	-1	1	!	-1	0	0	0	0	0	0
2024-05-28	11:36:38	11:40:31	232463	6.6.1	4_exp_EVA_AWA_CON	57	A	B	Rpleas_acq	Same	Rpleas	1pleas	acq_US_pleas_nomask	acq3_nomask	3	3	453	1	300	300	0	0	452	50	1	0	gütig	engagiert	vertrauen	anregung	sonnig	träumen	gierig	engstirnig	versagen	ausrottung	sterben	töten	vergnügt	genießen	gesittet	besonnen	kuss	kreativ	verbissen	gemein	geizig	bange	krise	krank	1	blank2r.bmp	0	1	+	0	1	blank2r.bmp	500	1	CPLW	500	1	blank2r.bmp	880	4	anregung	880	1	!	1293	1	!	1354	0	0	0	0	0	0
2024-05-28	11:36:38	11:40:33	234589	6.6.1	4_exp_EVA_AWA_CON	57	A	B	Rpleas_acq	Same	Rpleas	1pleas	acq_US_unple_nomask	acq3_nomask	3	4	453	0	300	300	0	0	349	46	1	0	gütig	engagiert	vertrauen	anregung	sonnig	träumen	gierig	engstirnig	versagen	ausrottung	sterben	töten	vergnügt	genießen	gesittet	besonnen	kuss	kreativ	verbissen	gemein	geizig	bange	krise	krank	1	blank2r.bmp	0	1	+	0	1	blank2r.bmp	500	1	DHJF	500	1	blank2r.bmp	880	2	engstirnig	880	1	!	-1	1	!	-1	0	0	0	0	0	0
2024-05-28	11:36:38	11:40:35	236855	6.6.1	4_exp_EVA_AWA_CON	57	A	B	Rpleas_acq	Same	Rpleas	1pleas	acq_US_unple_nomask	acq3_nomask	3	5	453	1	300	300	0	0	492	46	1	0	gütig	engagiert	vertrauen	anregung	sonnig	träumen	gierig	engstirnig	versagen	ausrottung	sterben	töten	vergnügt	genießen	gesittet	besonnen	kuss	kreativ	verbissen	gemein	geizig	bange	krise	krank	1	blank2r.bmp	0	1	+	0	1	blank2r.bmp	500	1	DHJF	500	1	blank2r.bmp	880	4	ausrottung	880	1	!	1292	1	!	1393	0	0	0	0	0	0
2024-05-28	11:36:38	11:40:37	239096	6.6.1	4_exp_EVA_AWA_CON	57	A	B	Rpleas_acq	Same	Rpleas	1pleas	acq_US_pleas_nomask	acq3_nomask	3	6	453	1	300	300	0	0	460	50	1	0	gütig	engagiert	vertrauen	anregung	sonnig	träumen	gierig	engstirnig	versagen	ausrottung	sterben	töten	vergnügt	genießen	gesittet	besonnen	kuss	kreativ	verbissen	gemein	geizig	bange	krise	krank	1	blank2r.bmp	0	1	+	0	1	blank2r.bmp	500	1	CPLW	500	1	blank2r.bmp	880	5	sonnig	880	1	!	1293	1	!	1362	0	0	0	0	0	0
2024-05-28	11:36:38	11:40:40	241328	6.6.1	4_exp_EVA_AWA_CON	57	A	B	Rpleas_acq	Same	Rpleas	1pleas	acq_US_unple_nomask	acq3_nomask	3	7	453	1	300	300	0	0	451	46	1	0	gütig	engagiert	vertrauen	anregung	sonnig	träumen	gierig	engstirnig	versagen	ausrottung	sterben	töten	vergnügt	genießen	gesittet	besonnen	kuss	kreativ	verbissen	gemein	geizig	bange	krise	krank	1	blank2r.bmp	0	1	+	0	1	blank2r.bmp	500	1	DHJF	500	1	blank2r.bmp	880	5	sterben	880	1	!	1293	1	!	1353	0	0	0	0	0	0
2024-05-28	11:36:38	11:40:42	243628	6.6.1	4_exp_EVA_AWA_CON	57	A	B	Rpleas_acq	Same	Rpleas	1pleas	acq_US_pleas_nomask	acq3_nomask	3	8	453	0	300	300	0	0	524	50	1	0	gütig	engagiert	vertrauen	anregung	sonnig	träumen	gierig	engstirnig	versagen	ausrottung	sterben	töten	vergnügt	genießen	gesittet	besonnen	kuss	kreativ	verbissen	gemein	geizig	bange	krise	krank	1	blank2r.bmp	0	1	+	0	1	blank2r.bmp	500	1	CPLW	500	1	blank2r.bmp	880	1	gütig	880	1	!	1292	1	!	-1	0	0	0	0	0	0
2024-05-28	11:36:38	11:40:44	245903	6.6.1	4_exp_EVA_AWA_CON	57	A	B	Rpleas_acq	Same	Rpleas	1pleas	acq_US_unple_nomask	acq3_nomask	3	9	453	1	300	300	0	0	494	46	1	0	gütig	engagiert	vertrauen	anregung	sonnig	träumen	gierig	engstirnig	versagen	ausrottung	sterben	töten	vergnügt	genießen	gesittet	besonnen	kuss	kreativ	verbissen	gemein	geizig	bange	krise	krank	1	blank2r.bmp	0	1	+	0	1	blank2r.bmp	500	1	DHJF	500	1	blank2r.bmp	880	1	gierig	880	1	!	1292	1	!	1395	0	0	0	0	0	0
2024-05-28	11:36:38	11:40:47	248200	6.6.1	4_exp_EVA_AWA_CON	57	A	B	Rpleas_acq	Same	Rpleas	1pleas	acq_US_pleas_nomask	acq3_nomask	3	10	453	1	300	300	0	0	518	50	1	0	gütig	engagiert	vertrauen	anregung	sonnig	träumen	gierig	engstirnig	versagen	ausrottung	sterben	töten	vergnügt	genießen	gesittet	besonnen	kuss	kreativ	verbissen	gemein	geizig	bange	krise	krank	1	blank2r.bmp	0	1	+	0	1	blank2r.bmp	500	1	CPLW	500	1	blank2r.bmp	880	6	träumen	880	1	!	1292	1	!	1419	0	0	0	0	0	0
2024-05-28	11:36:38	11:40:49	250517	6.6.1	4_exp_EVA_AWA_CON	57	A	B	Rpleas_acq	Same	Rpleas	1pleas	acq_US_unple_nomask	acq3_nomask	3	11	453	0	300	300	0	0	537	46	1	0	gütig	engagiert	vertrauen	anregung	sonnig	träumen	gierig	engstirnig	versagen	ausrottung	sterben	töten	vergnügt	genießen	gesittet	besonnen	kuss	kreativ	verbissen	gemein	geizig	bange	krise	krank	1	blank2r.bmp	0	1	+	0	1	blank2r.bmp	500	1	DHJF	500	1	blank2r.bmp	880	3	versagen	880	1	!	1293	1	!	-1	0	0	0	0	0	0
2024-05-28	11:36:38	11:40:51	252759	6.6.1	4_exp_EVA_AWA_CON	57	A	B	Rpleas_acq	Same	Rpleas	1pleas	acq_US_pleas_nomask	acq3_nomask	3	12	453	1	300	300	0	0	465	50	1	0	gütig	engagiert	vertrauen	anregung	sonnig	träumen	gierig	engstirnig	versagen	ausrottung	sterben	töten	vergnügt	genießen	gesittet	besonnen	kuss	kreativ	verbissen	gemein	geizig	bange	krise	krank	1	blank2r.bmp	0	1	+	0	1	blank2r.bmp	500	1	CPLW	500	1	blank2r.bmp	880	2	engagiert	880	1	!	1292	1	!	1366	0	0	0	0	0	0
2024-05-28	11:36:38	11:40:53	255007	6.6.1	4_exp_EVA_AWA_CON	57	A	B	Rpleas_acq	Same	Rpleas	1pleas	acq_US_unple_nomask	acq3_nomask	3	13	453	1	300	300	0	0	472	46	1	0	gütig	engagiert	vertrauen	anregung	sonnig	träumen	gierig	engstirnig	versagen	ausrottung	sterben	töten	vergnügt	genießen	gesittet	besonnen	kuss	kreativ	verbissen	gemein	geizig	bange	krise	krank	1	blank2r.bmp	0	1	+	0	1	blank2r.bmp	500	1	DHJF	500	1	blank2r.bmp	880	4	ausrottung	880	1	!	1293	1	!	1373	0	0	0	0	0	0
2024-05-28	11:36:38	11:40:56	257308	6.6.1	4_exp_EVA_AWA_CON	57	A	B	Rpleas_acq	Same	Rpleas	1pleas	acq_US_unple_nomask	acq3_nomask	3	14	453	0	300	300	0	0	524	46	1	0	gütig	engagiert	vertrauen	anregung	sonnig	träumen	gierig	engstirnig	versagen	ausrottung	sterben	töten	vergnügt	genießen	gesittet	besonnen	kuss	kreativ	verbissen	gemein	geizig	bange	krise	krank	1	blank2r.bmp	0	1	+	0	1	blank2r.bmp	500	1	DHJF	500	1	blank2r.bmp	880	2	engstirnig	880	1	!	1292	1	!	-1	0	0	0	0	0	0
2024-05-28	11:36:38	11:40:58	259672	6.6.1	4_exp_EVA_AWA_CON	57	A	B	Rpleas_acq	Same	Rpleas	1pleas	acq_US_unple_nomask	acq3_nomask	3	15	453	0	300	300	0	0	383	50	0	0	gütig	engagiert	vertrauen	anregung	sonnig	träumen	gierig	engstirnig	versagen	ausrottung	sterben	töten	vergnügt	genießen	gesittet	besonnen	kuss	kreativ	verbissen	gemein	geizig	bange	krise	krank	1	blank2r.bmp	0	1	+	0	1	blank2r.bmp	500	1	DHJF	500	1	blank2r.bmp	880	1	gierig	880	1	FEHLER	1576	1	!	-1	1	!	-1	0	0	0
2024-05-28	11:36:38	11:41:00	261751	6.6.1	4_exp_EVA_AWA_CON	57	A	B	Rpleas_acq	Same	Rpleas	1pleas	acq_US_unple_nomask	acq3_nomask	3	16	453	1	300	300	0	0	501	46	1	0	gütig	engagiert	vertrauen	anregung	sonnig	träumen	gierig	engstirnig	versagen	ausrottung	sterben	töten	vergnügt	genießen	gesittet	besonnen	kuss	kreativ	verbissen	gemein	geizig	bange	krise	krank	1	blank2r.bmp	0	1	+	0	1	blank2r.bmp	500	1	DHJF	500	1	blank2r.bmp	880	6	töten	880	1	!	1293	1	!	1403	0	0	0	0	0	0
2024-05-28	11:36:38	11:41:02	263999	6.6.1	4_exp_EVA_AWA_CON	57	A	B	Rpleas_acq	Same	Rpleas	1pleas	acq_US_pleas_nomask	acq3_nomask	3	17	453	1	300	300	0	0	468	50	1	0	gütig	engagiert	vertrauen	anregung	sonnig	träumen	gierig	engstirnig	versagen	ausrottung	sterben	töten	vergnügt	genießen	gesittet	besonnen	kuss	kreativ	verbissen	gemein	geizig	bange	krise	krank	1	blank2r.bmp	0	1	+	0	1	blank2r.bmp	500	1	CPLW	500	1	blank2r.bmp	880	5	sonnig	880	1	!	1292	1	!	1369	0	0	0	0	0	0
2024-05-28	11:36:38	11:41:05	266215	6.6.1	4_exp_EVA_AWA_CON	57	A	B	Rpleas_acq	Same	Rpleas	1pleas	acq_US_pleas_nomask	acq3_nomask	3	18	453	1	300	300	0	0	432	50	1	0	gütig	engagiert	vertrauen	anregung	sonnig	träumen	gierig	engstirnig	versagen	ausrottung	sterben	töten	vergnügt	genießen	gesittet	besonnen	kuss	kreativ	verbissen	gemein	geizig	bange	krise	krank	1	blank2r.bmp	0	1	+	0	1	blank2r.bmp	500	1	CPLW	500	1	blank2r.bmp	880	6	träumen	880	1	!	1292	1	!	1334	0	0	0	0	0	0
2024-05-28	11:36:38	11:41:07	268704	6.6.1	4_exp_EVA_AWA_CON	57	A	B	Rpleas_acq	Same	Rpleas	1pleas	acq_US_pleas_nomask	acq3_nomask	3	19	453	1	300	300	0	0	509	46	0	0	gütig	engagiert	vertrauen	anregung	sonnig	träumen	gierig	engstirnig	versagen	ausrottung	sterben	töten	vergnügt	genießen	gesittet	besonnen	kuss	kreativ	verbissen	gemein	geizig	bange	krise	krank	1	blank2r.bmp	0	1	+	0	1	blank2r.bmp	500	1	CPLW	500	1	blank2r.bmp	880	2	engagiert	880	1	FEHLER	1702	1	!	1292	1	!	1410	0	0	0
2024-05-28	11:36:38	11:41:09	270783	6.6.1	4_exp_EVA_AWA_CON	57	A	B	Rpleas_acq	Same	Rpleas	1pleas	acq_US_pleas_nomask	acq3_nomask	3	20	453	1	300	300	0	0	498	50	1	0	gütig	engagiert	vertrauen	anregung	sonnig	träumen	gierig	engstirnig	versagen	ausrottung	sterben	töten	vergnügt	genießen	gesittet	besonnen	kuss	kreativ	verbissen	gemein	geizig	bange	krise	krank	1	blank2r.bmp	0	1	+	0	1	blank2r.bmp	500	1	CPLW	500	1	blank2r.bmp	880	4	anregung	880	1	!	1293	1	!	1399	0	0	0	0	0	0
2024-05-28	11:36:38	11:41:11	273039	6.6.1	4_exp_EVA_AWA_CON	57	A	B	Rpleas_acq	Same	Rpleas	1pleas	acq_US_pleas_nomask	acq3_nomask	3	21	453	1	300	300	0	0	472	50	1	0	gütig	engagiert	vertrauen	anregung	sonnig	träumen	gierig	engstirnig	versagen	ausrottung	sterben	töten	vergnügt	genießen	gesittet	besonnen	kuss	kreativ	verbissen	gemein	geizig	bange	krise	krank	1	blank2r.bmp	0	1	+	0	1	blank2r.bmp	500	1	CPLW	500	1	blank2r.bmp	880	3	vertrauen	880	1	!	1292	1	!	1373	0	0	0	0	0	0
2024-05-28	11:36:38	11:41:14	275358	6.6.1	4_exp_EVA_AWA_CON	57	A	B	Rpleas_acq	Same	Rpleas	1pleas	acq_US_pleas_nomask	acq3_nomask	3	22	453	0	300	300	0	0	541	50	1	0	gütig	engagiert	vertrauen	anregung	sonnig	träumen	gierig	engstirnig	versagen	ausrottung	sterben	töten	vergnügt	genießen	gesittet	besonnen	kuss	kreativ	verbissen	gemein	geizig	bange	krise	krank	1	blank2r.bmp	0	1	+	0	1	blank2r.bmp	500	1	CPLW	500	1	blank2r.bmp	880	1	gütig	880	1	!	1293	1	!	-1	0	0	0	0	0	0
2024-05-28	11:36:38	11:41:16	277551	6.6.1	4_exp_EVA_AWA_CON	57	A	B	Rpleas_acq	Same	Rpleas	1pleas	acq_US_unple_nomask	acq3_nomask	3	23	453	1	300	300	0	0	411	46	1	0	gütig	engagiert	vertrauen	anregung	sonnig	träumen	gierig	engstirnig	versagen	ausrottung	sterben	töten	vergnügt	genießen	gesittet	besonnen	kuss	kreativ	verbissen	gemein	geizig	bange	krise	krank	1	blank2r.bmp	0	1	+	0	1	blank2r.bmp	500	1	DHJF	500	1	blank2r.bmp	880	3	versagen	880	1	!	1292	1	!	1312	0	0	0	0	0	0
2024-05-28	11:36:38	11:41:18	279725	6.6.1	4_exp_EVA_AWA_CON	57	A	B	Rpleas_acq	Same	Rpleas	1pleas	acq_US_unple_nomask	acq3_nomask	3	24	453	1	300	300	0	0	396	46	1	0	gütig	engagiert	vertrauen	anregung	sonnig	träumen	gierig	engstirnig	versagen	ausrottung	sterben	töten	vergnügt	genießen	gesittet	besonnen	kuss	kreativ	verbissen	gemein	geizig	bange	krise	krank	1	blank2r.bmp	0	1	+	0	1	blank2r.bmp	500	1	DHJF	500	1	blank2r.bmp	880	5	sterben	880	1	!	1293	1	!	1295	0	0	0	0	0	0
2024-05-28	11:36:38	11:41:20	281944	6.6.1	4_exp_EVA_AWA_CON	57	A	B	Rpleas_acq	Same	Rpleas	1pleas	acq_US_pleas_nomask	acq3_nomask	3	25	453	1	300	300	0	0	440	50	1	0	gütig	engagiert	vertrauen	anregung	sonnig	träumen	gierig	engstirnig	versagen	ausrottung	sterben	töten	vergnügt	genießen	gesittet	besonnen	kuss	kreativ	verbissen	gemein	geizig	bange	krise	krank	1	blank2r.bmp	0	1	+	0	1	blank2r.bmp	500	1	CPLW	500	1	blank2r.bmp	880	6	träumen	880	1	!	1293	1	!	1342	0	0	0	0	0	0
2024-05-28	11:36:38	11:41:23	284167	6.6.1	4_exp_EVA_AWA_CON	57	A	B	Rpleas_acq	Same	Rpleas	1pleas	acq_US_pleas_nomask	acq3_nomask	3	26	453	1	300	300	0	0	443	50	1	0	gütig	engagiert	vertrauen	anregung	sonnig	träumen	gierig	engstirnig	versagen	ausrottung	sterben	töten	vergnügt	genießen	gesittet	besonnen	kuss	kreativ	verbissen	gemein	geizig	bange	krise	krank	1	blank2r.bmp	0	1	+	0	1	blank2r.bmp	500	1	CPLW	500	1	blank2r.bmp	880	2	engagiert	880	1	!	1292	1	!	1344	0	0	0	0	0	0
2024-05-28	11:36:38	11:41:25	286439	6.6.1	4_exp_EVA_AWA_CON	57	A	B	Rpleas_acq	Same	Rpleas	1pleas	acq_US_unple_nomask	acq3_nomask	3	27	453	1	300	300	0	0	493	46	1	0	gütig	engagiert	vertrauen	anregung	sonnig	träumen	gierig	engstirnig	versagen	ausrottung	sterben	töten	vergnügt	genießen	gesittet	besonnen	kuss	kreativ	verbissen	gemein	geizig	bange	krise	krank	1	blank2r.bmp	0	1	+	0	1	blank2r.bmp	500	1	DHJF	500	1	blank2r.bmp	880	1	gierig	880	1	!	1292	1	!	1394	0	0	0	0	0	0
2024-05-28	11:36:38	11:41:27	288728	6.6.1	4_exp_EVA_AWA_CON	57	A	B	Rpleas_acq	Same	Rpleas	1pleas	acq_US_unple_nomask	acq3_nomask	3	28	453	1	300	300	0	0	510	46	1	0	gütig	engagiert	vertrauen	anregung	sonnig	träumen	gierig	engstirnig	versagen	ausrottung	sterben	töten	vergnügt	genießen	gesittet	besonnen	kuss	kreativ	verbissen	gemein	geizig	bange	krise	krank	1	blank2r.bmp	0	1	+	0	1	blank2r.bmp	500	1	DHJF	500	1	blank2r.bmp	880	5	sterben	880	1	!	1292	1	!	1412	0	0	0	0	0	0
2024-05-28	11:36:38	11:41:29	291045	6.6.1	4_exp_EVA_AWA_CON	57	A	B	Rpleas_acq	Same	Rpleas	1pleas	acq_US_pleas_nomask	acq3_nomask	3	29	453	0	300	300	0	0	538	50	1	0	gütig	engagiert	vertrauen	anregung	sonnig	träumen	gierig	engstirnig	versagen	ausrottung	sterben	töten	vergnügt	genießen	gesittet	besonnen	kuss	kreativ	verbissen	gemein	geizig	bange	krise	krank	1	blank2r.bmp	0	1	+	0	1	blank2r.bmp	500	1	CPLW	500	1	blank2r.bmp	880	4	anregung	880	1	!	1292	1	!	-1	0	0	0	0	0	0
2024-05-28	11:36:38	11:41:32	293206	6.6.1	4_exp_EVA_AWA_CON	57	A	B	Rpleas_acq	Same	Rpleas	1pleas	acq_US_pleas_nomask	acq3_nomask	3	30	453	0	300	300	0	0	387	50	1	0	gütig	engagiert	vertrauen	anregung	sonnig	träumen	gierig	engstirnig	versagen	ausrottung	sterben	töten	vergnügt	genießen	gesittet	besonnen	kuss	kreativ	verbissen	gemein	geizig	bange	krise	krank	1	blank2r.bmp	0	1	+	0	1	blank2r.bmp	500	1	CPLW	500	1	blank2r.bmp	880	5	sonnig	880	1	!	-1	1	!	-1	0	0	0	0	0	0
2024-05-28	11:36:38	11:41:34	295415	6.6.1	4_exp_EVA_AWA_CON	57	A	B	Rpleas_acq	Same	Rpleas	1pleas	acq_US_unple_nomask	acq3_nomask	3	31	453	1	300	300	0	0	433	46	1	0	gütig	engagiert	vertrauen	anregung	sonnig	träumen	gierig	engstirnig	versagen	ausrottung	sterben	töten	vergnügt	genießen	gesittet	besonnen	kuss	kreativ	verbissen	gemein	geizig	bange	krise	krank	1	blank2r.bmp	0	1	+	0	1	blank2r.bmp	500	1	DHJF	500	1	blank2r.bmp	880	6	töten	880	1	!	1293	1	!	1335	0	0	0	0	0	0
2024-05-28	11:36:38	11:41:36	297840	6.6.1	4_exp_EVA_AWA_CON	57	A	B	Rpleas_acq	Same	Rpleas	1pleas	acq_US_unple_nomask	acq3_nomask	3	32	453	1	300	300	0	0	446	50	0	0	gütig	engagiert	vertrauen	anregung	sonnig	träumen	gierig	engstirnig	versagen	ausrottung	sterben	töten	vergnügt	genießen	gesittet	besonnen	kuss	kreativ	verbissen	gemein	geizig	bange	krise	krank	1	blank2r.bmp	0	1	+	0	1	blank2r.bmp	500	1	DHJF	500	1	blank2r.bmp	880	2	engstirnig	880	1	FEHLER	1639	1	!	1292	1	!	1347	0	0	0
2024-05-28	11:36:38	11:41:38	299887	6.6.1	4_exp_EVA_AWA_CON	57	A	B	Rpleas_acq	Same	Rpleas	1pleas	acq_US_unple_nomask	acq3_nomask	3	33	453	1	300	300	0	0	473	46	1	0	gütig	engagiert	vertrauen	anregung	sonnig	träumen	gierig	engstirnig	versagen	ausrottung	sterben	töten	vergnügt	genießen	gesittet	besonnen	kuss	kreativ	verbissen	gemein	geizig	bange	krise	krank	1	blank2r.bmp	0	1	+	0	1	blank2r.bmp	500	1	DHJF	500	1	blank2r.bmp	880	4	ausrottung	880	1	!	1292	1	!	1374	0	0	0	0	0	0
2024-05-28	11:36:38	11:41:40	302135	6.6.1	4_exp_EVA_AWA_CON	57	A	B	Rpleas_acq	Same	Rpleas	1pleas	acq_US_pleas_nomask	acq3_nomask	3	34	453	1	300	300	0	0	469	50	1	0	gütig	engagiert	vertrauen	anregung	sonnig	träumen	gierig	engstirnig	versagen	ausrottung	sterben	töten	vergnügt	genießen	gesittet	besonnen	kuss	kreativ	verbissen	gemein	geizig	bange	krise	krank	1	blank2r.bmp	0	1	+	0	1	blank2r.bmp	500	1	CPLW	500	1	blank2r.bmp	880	1	gütig	880	1	!	1292	1	!	1370	0	0	0	0	0	0
2024-05-28	11:36:38	11:41:43	304407	6.6.1	4_exp_EVA_AWA_CON	57	A	B	Rpleas_acq	Same	Rpleas	1pleas	acq_US_pleas_nomask	acq3_nomask	3	35	453	1	300	300	0	0	490	50	1	0	gütig	engagiert	vertrauen	anregung	sonnig	träumen	gierig	engstirnig	versagen	ausrottung	sterben	töten	vergnügt	genießen	gesittet	besonnen	kuss	kreativ	verbissen	gemein	geizig	bange	krise	krank	1	blank2r.bmp	0	1	+	0	1	blank2r.bmp	500	1	CPLW	500	1	blank2r.bmp	880	3	vertrauen	880	1	!	1292	1	!	1391	0	0	0	0	0	0
2024-05-28	11:36:38	11:41:45	306623	6.6.1	4_exp_EVA_AWA_CON	57	A	B	Rpleas_acq	Same	Rpleas	1pleas	acq_US_unple_nomask	acq3_nomask	3	36	453	1	300	300	0	0	434	46	1	0	gütig	engagiert	vertrauen	anregung	sonnig	träumen	gierig	engstirnig	versagen	ausrottung	sterben	töten	vergnügt	genießen	gesittet	besonnen	kuss	kreativ	verbissen	gemein	geizig	bange	krise	krank	1	blank2r.bmp	0	1	+	0	1	blank2r.bmp	500	1	DHJF	500	1	blank2r.bmp	880	3	versagen	880	1	!	1292	1	!	1335	0	0	0	0	0	0
2024-05-28	11:36:38	11:41:55	316214	6.6.1	4_exp_EVA_AWA_CON	57	A	B	Rpleas_acq	Same	Rpleas	1pleas	acq_US_unple_nomask	acq45_nomask	4	1	400	0	300	300	0	0	550	46	1	0	gütig	engagiert	vertrauen	anregung	sonnig	träumen	gierig	engstirnig	versagen	ausrottung	sterben	töten	vergnügt	genießen	gesittet	besonnen	kuss	kreativ	verbissen	gemein	geizig	bange	krise	krank	1	blank2r.bmp	0	1	+	0	1	blank2r.bmp	500	1	DHJF	500	1	blank2r.bmp	880	3	versagen	880	1	!	1232	1	!	-1	0	0	0	0	0	0
2024-05-28	11:36:38	11:41:57	318407	6.6.1	4_exp_EVA_AWA_CON	57	A	B	Rpleas_acq	Same	Rpleas	1pleas	acq_US_pleas_nomask	acq45_nomask	4	2	400	1	300	300	0	0	410	50	1	0	gütig	engagiert	vertrauen	anregung	sonnig	träumen	gierig	engstirnig	versagen	ausrottung	sterben	töten	vergnügt	genießen	gesittet	besonnen	kuss	kreativ	verbissen	gemein	geizig	bange	krise	krank	1	blank2r.bmp	0	1	+	0	1	blank2r.bmp	500	1	CPLW	500	1	blank2r.bmp	880	1	gütig	880	1	!	1232	1	!	1312	0	0	0	0	0	0
2024-05-28	11:36:38	11:41:59	320631	6.6.1	4_exp_EVA_AWA_CON	57	A	B	Rpleas_acq	Same	Rpleas	1pleas	acq_US_pleas_nomask	acq45_nomask	4	3	400	1	300	300	0	0	443	50	1	0	gütig	engagiert	vertrauen	anregung	sonnig	träumen	gierig	engstirnig	versagen	ausrottung	sterben	töten	vergnügt	genießen	gesittet	besonnen	kuss	kreativ	verbissen	gemein	geizig	bange	krise	krank	1	blank2r.bmp	0	1	+	0	1	blank2r.bmp	500	1	CPLW	500	1	blank2r.bmp	880	2	engagiert	880	1	!	1232	1	!	1344	0	0	0	0	0	0
2024-05-28	11:36:38	11:42:01	322879	6.6.1	4_exp_EVA_AWA_CON	57	A	B	Rpleas_acq	Same	Rpleas	1pleas	acq_US_unple_nomask	acq45_nomask	4	4	400	1	300	300	0	0	470	46	1	0	gütig	engagiert	vertrauen	anregung	sonnig	träumen	gierig	engstirnig	versagen	ausrottung	sterben	töten	vergnügt	genießen	gesittet	besonnen	kuss	kreativ	verbissen	gemein	geizig	bange	krise	krank	1	blank2r.bmp	0	1	+	0	1	blank2r.bmp	500	1	DHJF	500	1	blank2r.bmp	880	2	engstirnig	880	1	!	1233	1	!	1371	0	0	0	0	0	0
2024-05-28	11:36:38	11:42:03	325095	6.6.1	4_exp_EVA_AWA_CON	57	A	B	Rpleas_acq	Same	Rpleas	1pleas	acq_US_unple_nomask	acq45_nomask	4	5	400	1	300	300	0	0	434	46	1	0	gütig	engagiert	vertrauen	anregung	sonnig	träumen	gierig	engstirnig	versagen	ausrottung	sterben	töten	vergnügt	genießen	gesittet	besonnen	kuss	kreativ	verbissen	gemein	geizig	bange	krise	krank	1	blank2r.bmp	0	1	+	0	1	blank2r.bmp	500	1	DHJF	500	1	blank2r.bmp	880	1	gierig	880	1	!	1232	1	!	1335	0	0	0	0	0	0
2024-05-28	11:36:38	11:42:06	327271	6.6.1	4_exp_EVA_AWA_CON	57	A	B	Rpleas_acq	Same	Rpleas	1pleas	acq_US_unple_nomask	acq45_nomask	4	6	400	1	300	300	0	0	399	46	1	0	gütig	engagiert	vertrauen	anregung	sonnig	träumen	gierig	engstirnig	versagen	ausrottung	sterben	töten	vergnügt	genießen	gesittet	besonnen	kuss	kreativ	verbissen	gemein	geizig	bange	krise	krank	1	blank2r.bmp	0	1	+	0	1	blank2r.bmp	500	1	DHJF	500	1	blank2r.bmp	880	6	töten	880	1	!	1232	1	!	1300	0	0	0	0	0	0
2024-05-28	11:36:38	11:42:08	329503	6.6.1	4_exp_EVA_AWA_CON	57	A	B	Rpleas_acq	Same	Rpleas	1pleas	acq_US_pleas_nomask	acq45_nomask	4	7	400	1	300	300	0	0	449	50	1	0	gütig	engagiert	vertrauen	anregung	sonnig	träumen	gierig	engstirnig	versagen	ausrottung	sterben	töten	vergnügt	genießen	gesittet	besonnen	kuss	kreativ	verbissen	gemein	geizig	bange	krise	krank	1	blank2r.bmp	0	1	+	0	1	blank2r.bmp	500	1	CPLW	500	1	blank2r.bmp	880	4	anregung	880	1	!	1232	1	!	1350	0	0	0	0	0	0
2024-05-28	11:36:38	11:42:10	331671	6.6.1	4_exp_EVA_AWA_CON	57	A	B	Rpleas_acq	Same	Rpleas	1pleas	acq_US_unple_nomask	acq45_nomask	4	8	400	1	300	300	0	0	386	46	1	0	gütig	engagiert	vertrauen	anregung	sonnig	träumen	gierig	engstirnig	versagen	ausrottung	sterben	töten	vergnügt	genießen	gesittet	besonnen	kuss	kreativ	verbissen	gemein	geizig	bange	krise	krank	1	blank2r.bmp	0	1	+	0	1	blank2r.bmp	500	1	DHJF	500	1	blank2r.bmp	880	4	ausrottung	880	1	!	1232	1	!	1287	0	0	0	0	0	0
2024-05-28	11:36:38	11:42:12	333855	6.6.1	4_exp_EVA_AWA_CON	57	A	B	Rpleas_acq	Same	Rpleas	1pleas	acq_US_unple_nomask	acq45_nomask	4	9	400	1	300	300	0	0	408	46	1	0	gütig	engagiert	vertrauen	anregung	sonnig	träumen	gierig	engstirnig	versagen	ausrottung	sterben	töten	vergnügt	genießen	gesittet	besonnen	kuss	kreativ	verbissen	gemein	geizig	bange	krise	krank	1	blank2r.bmp	0	1	+	0	1	blank2r.bmp	500	1	DHJF	500	1	blank2r.bmp	880	5	sterben	880	1	!	1232	1	!	1309	0	0	0	0	0	0
2024-05-28	11:36:38	11:42:14	336087	6.6.1	4_exp_EVA_AWA_CON	57	A	B	Rpleas_acq	Same	Rpleas	1pleas	acq_US_pleas_nomask	acq45_nomask	4	10	400	1	300	300	0	0	449	50	1	0	gütig	engagiert	vertrauen	anregung	sonnig	träumen	gierig	engstirnig	versagen	ausrottung	sterben	töten	vergnügt	genießen	gesittet	besonnen	kuss	kreativ	verbissen	gemein	geizig	bange	krise	krank	1	blank2r.bmp	0	1	+	0	1	blank2r.bmp	500	1	CPLW	500	1	blank2r.bmp	880	3	vertrauen	880	1	!	1232	1	!	1350	0	0	0	0	0	0
2024-05-28	11:36:38	11:42:17	338287	6.6.1	4_exp_EVA_AWA_CON	57	A	B	Rpleas_acq	Same	Rpleas	1pleas	acq_US_unple_nomask	acq45_nomask	4	11	400	1	300	300	0	0	417	46	1	0	gütig	engagiert	vertrauen	anregung	sonnig	träumen	gierig	engstirnig	versagen	ausrottung	sterben	töten	vergnügt	genießen	gesittet	besonnen	kuss	kreativ	verbissen	gemein	geizig	bange	krise	krank	1	blank2r.bmp	0	1	+	0	1	blank2r.bmp	500	1	DHJF	500	1	blank2r.bmp	880	2	engstirnig	880	1	!	1232	1	!	1319	0	0	0	0	0	0
2024-05-28	11:36:38	11:42:19	340487	6.6.1	4_exp_EVA_AWA_CON	57	A	B	Rpleas_acq	Same	Rpleas	1pleas	acq_US_pleas_nomask	acq45_nomask	4	12	400	1	300	300	0	0	416	50	1	0	gütig	engagiert	vertrauen	anregung	sonnig	träumen	gierig	engstirnig	versagen	ausrottung	sterben	töten	vergnügt	genießen	gesittet	besonnen	kuss	kreativ	verbissen	gemein	geizig	bange	krise	krank	1	blank2r.bmp	0	1	+	0	1	blank2r.bmp	500	1	CPLW	500	1	blank2r.bmp	880	5	sonnig	880	1	!	1232	1	!	1317	0	0	0	0	0	0
2024-05-28	11:36:38	11:42:21	342589	6.6.1	4_exp_EVA_AWA_CON	57	A	B	Rpleas_acq	Same	Rpleas	1pleas	acq_US_unple_nomask	acq45_nomask	4	13	400	0	300	300	0	0	329	46	1	0	gütig	engagiert	vertrauen	anregung	sonnig	träumen	gierig	engstirnig	versagen	ausrottung	sterben	töten	vergnügt	genießen	gesittet	besonnen	kuss	kreativ	verbissen	gemein	geizig	bange	krise	krank	1	blank2r.bmp	0	1	+	0	1	blank2r.bmp	500	1	DHJF	500	1	blank2r.bmp	880	4	ausrottung	880	1	!	-1	1	!	-1	0	0	0	0	0	0
2024-05-28	11:36:38	11:42:23	344661	6.6.1	4_exp_EVA_AWA_CON	57	A	B	Rpleas_acq	Same	Rpleas	1pleas	acq_US_pleas_nomask	acq45_nomask	4	14	400	0	300	300	0	0	299	46	0	0	gütig	engagiert	vertrauen	anregung	sonnig	träumen	gierig	engstirnig	versagen	ausrottung	sterben	töten	vergnügt	genießen	gesittet	besonnen	kuss	kreativ	verbissen	gemein	geizig	bange	krise	krank	1	blank2r.bmp	0	1	+	0	1	blank2r.bmp	500	1	CPLW	500	1	blank2r.bmp	880	6	träumen	880	1	!	-1	1	!	-1	0	0	0	0	0	0
2024-05-28	11:36:38	11:42:25	346799	6.6.1	4_exp_EVA_AWA_CON	57	A	B	Rpleas_acq	Same	Rpleas	1pleas	acq_US_unple_nomask	acq45_nomask	4	15	400	1	300	300	0	0	364	46	1	0	gütig	engagiert	vertrauen	anregung	sonnig	träumen	gierig	engstirnig	versagen	ausrottung	sterben	töten	vergnügt	genießen	gesittet	besonnen	kuss	kreativ	verbissen	gemein	geizig	bange	krise	krank	1	blank2r.bmp	0	1	+	0	1	blank2r.bmp	500	1	DHJF	500	1	blank2r.bmp	880	6	töten	880	1	!	1233	1	!	1265	0	0	0	0	0	0
2024-05-28	11:36:38	11:42:27	349015	6.6.1	4_exp_EVA_AWA_CON	57	A	B	Rpleas_acq	Same	Rpleas	1pleas	acq_US_pleas_nomask	acq45_nomask	4	16	400	1	300	300	0	0	438	50	1	0	gütig	engagiert	vertrauen	anregung	sonnig	träumen	gierig	engstirnig	versagen	ausrottung	sterben	töten	vergnügt	genießen	gesittet	besonnen	kuss	kreativ	verbissen	gemein	geizig	bange	krise	krank	1	blank2r.bmp	0	1	+	0	1	blank2r.bmp	500	1	CPLW	500	1	blank2r.bmp	880	4	anregung	880	1	!	1232	1	!	1340	0	0	0	0	0	0
2024-05-28	11:36:38	11:42:30	351231	6.6.1	4_exp_EVA_AWA_CON	57	A	B	Rpleas_acq	Same	Rpleas	1pleas	acq_US_pleas_nomask	acq45_nomask	4	17	400	1	300	300	0	0	433	50	1	0	gütig	engagiert	vertrauen	anregung	sonnig	träumen	gierig	engstirnig	versagen	ausrottung	sterben	töten	vergnügt	genießen	gesittet	besonnen	kuss	kreativ	verbissen	gemein	geizig	bange	krise	krank	1	blank2r.bmp	0	1	+	0	1	blank2r.bmp	500	1	CPLW	500	1	blank2r.bmp	880	3	vertrauen	880	1	!	1232	1	!	1334	0	0	0	0	0	0
2024-05-28	11:36:38	11:42:32	353479	6.6.1	4_exp_EVA_AWA_CON	57	A	B	Rpleas_acq	Same	Rpleas	1pleas	acq_US_pleas_nomask	acq45_nomask	4	18	400	1	300	300	0	0	470	50	1	0	gütig	engagiert	vertrauen	anregung	sonnig	träumen	gierig	engstirnig	versagen	ausrottung	sterben	töten	vergnügt	genießen	gesittet	besonnen	kuss	kreativ	verbissen	gemein	geizig	bange	krise	krank	1	blank2r.bmp	0	1	+	0	1	blank2r.bmp	500	1	CPLW	500	1	blank2r.bmp	880	1	gütig	880	1	!	1233	1	!	1371	0	0	0	0	0	0
2024-05-28	11:36:38	11:42:34	355739	6.6.1	4_exp_EVA_AWA_CON	57	A	B	Rpleas_acq	Same	Rpleas	1pleas	acq_US_unple_nomask	acq45_nomask	4	19	400	0	300	300	0	0	482	46	1	0	gütig	engagiert	vertrauen	anregung	sonnig	träumen	gierig	engstirnig	versagen	ausrottung	sterben	töten	vergnügt	genießen	gesittet	besonnen	kuss	kreativ	verbissen	gemein	geizig	bange	krise	krank	1	blank2r.bmp	0	1	+	0	1	blank2r.bmp	500	1	DHJF	500	1	blank2r.bmp	880	3	versagen	880	1	!	1232	1	!	-1	0	0	0	0	0	0
2024-05-28	11:36:38	11:42:36	357959	6.6.1	4_exp_EVA_AWA_CON	57	A	B	Rpleas_acq	Same	Rpleas	1pleas	acq_US_pleas_nomask	acq45_nomask	4	20	400	1	300	300	0	0	436	50	1	0	gütig	engagiert	vertrauen	anregung	sonnig	träumen	gierig	engstirnig	versagen	ausrottung	sterben	töten	vergnügt	genießen	gesittet	besonnen	kuss	kreativ	verbissen	gemein	geizig	bange	krise	krank	1	blank2r.bmp	0	1	+	0	1	blank2r.bmp	500	1	CPLW	500	1	blank2r.bmp	880	5	sonnig	880	1	!	1232	1	!	1338	0	0	0	0	0	0
2024-05-28	11:36:38	11:42:39	360199	6.6.1	4_exp_EVA_AWA_CON	57	A	B	Rpleas_acq	Same	Rpleas	1pleas	acq_US_unple_nomask	acq45_nomask	4	21	400	1	300	300	0	0	465	46	1	0	gütig	engagiert	vertrauen	anregung	sonnig	träumen	gierig	engstirnig	versagen	ausrottung	sterben	töten	vergnügt	genießen	gesittet	besonnen	kuss	kreativ	verbissen	gemein	geizig	bange	krise	krank	1	blank2r.bmp	0	1	+	0	1	blank2r.bmp	500	1	DHJF	500	1	blank2r.bmp	880	1	gierig	880	1	!	1232	1	!	1366	0	0	0	0	0	0
2024-05-28	11:36:38	11:42:41	362399	6.6.1	4_exp_EVA_AWA_CON	57	A	B	Rpleas_acq	Same	Rpleas	1pleas	acq_US_pleas_nomask	acq45_nomask	4	22	400	1	300	300	0	0	424	50	1	0	gütig	engagiert	vertrauen	anregung	sonnig	träumen	gierig	engstirnig	versagen	ausrottung	sterben	töten	vergnügt	genießen	gesittet	besonnen	kuss	kreativ	verbissen	gemein	geizig	bange	krise	krank	1	blank2r.bmp	0	1	+	0	1	blank2r.bmp	500	1	CPLW	500	1	blank2r.bmp	880	6	träumen	880	1	!	1233	1	!	1325	0	0	0	0	0	0
2024-05-28	11:36:38	11:42:43	364661	6.6.1	4_exp_EVA_AWA_CON	57	A	B	Rpleas_acq	Same	Rpleas	1pleas	acq_US_pleas_nomask	acq45_nomask	4	23	400	0	300	300	0	0	486	50	1	0	gütig	engagiert	vertrauen	anregung	sonnig	träumen	gierig	engstirnig	versagen	ausrottung	sterben	töten	vergnügt	genießen	gesittet	besonnen	kuss	kreativ	verbissen	gemein	geizig	bange	krise	krank	1	blank2r.bmp	0	1	+	0	1	blank2r.bmp	500	1	CPLW	500	1	blank2r.bmp	880	2	engagiert	880	1	!	1232	1	!	-1	0	0	0	0	0	0
2024-05-28	11:36:38	11:42:45	366807	6.6.1	4_exp_EVA_AWA_CON	57	A	B	Rpleas_acq	Same	Rpleas	1pleas	acq_US_pleas_nomask	acq45_nomask	4	24	400	1	300	300	0	0	369	50	1	0	gütig	engagiert	vertrauen	anregung	sonnig	träumen	gierig	engstirnig	versagen	ausrottung	sterben	töten	vergnügt	genießen	gesittet	besonnen	kuss	kreativ	verbissen	gemein	geizig	bange	krise	krank	1	blank2r.bmp	0	1	+	0	1	blank2r.bmp	500	1	CPLW	500	1	blank2r.bmp	880	2	engagiert	880	1	!	1233	1	!	1270	0	0	0	0	0	0
2024-05-28	11:36:38	11:42:47	368935	6.6.1	4_exp_EVA_AWA_CON	57	A	B	Rpleas_acq	Same	Rpleas	1pleas	acq_US_unple_nomask	acq45_nomask	4	25	400	1	300	300	0	0	345	50	0	0	gütig	engagiert	vertrauen	anregung	sonnig	träumen	gierig	engstirnig	versagen	ausrottung	sterben	töten	vergnügt	genießen	gesittet	besonnen	kuss	kreativ	verbissen	gemein	geizig	bange	krise	krank	1	blank2r.bmp	0	1	+	0	1	blank2r.bmp	500	1	DHJF	500	1	blank2r.bmp	880	5	sterben	880	1	!	1232	1	!	1247	0	0	0	0	0	0
2024-05-28	11:36:38	11:42:49	371079	6.6.1	4_exp_EVA_AWA_CON	57	A	B	Rpleas_acq	Same	Rpleas	1pleas	acq_US_pleas_nomask	acq45_nomask	4	26	400	1	300	300	0	0	368	50	1	0	gütig	engagiert	vertrauen	anregung	sonnig	träumen	gierig	engstirnig	versagen	ausrottung	sterben	töten	vergnügt	genießen	gesittet	besonnen	kuss	kreativ	verbissen	gemein	geizig	bange	krise	krank	1	blank2r.bmp	0	1	+	0	1	blank2r.bmp	500	1	CPLW	500	1	blank2r.bmp	880	5	sonnig	880	1	!	1232	1	!	1269	0	0	0	0	0	0
2024-05-28	11:36:38	11:42:52	373327	6.6.1	4_exp_EVA_AWA_CON	57	A	B	Rpleas_acq	Same	Rpleas	1pleas	acq_US_pleas_nomask	acq45_nomask	4	27	400	1	300	300	0	0	465	50	1	0	gütig	engagiert	vertrauen	anregung	sonnig	träumen	gierig	engstirnig	versagen	ausrottung	sterben	töten	vergnügt	genießen	gesittet	besonnen	kuss	kreativ	verbissen	gemein	geizig	bange	krise	krank	1	blank2r.bmp	0	1	+	0	1	blank2r.bmp	500	1	CPLW	500	1	blank2r.bmp	880	6	träumen	880	1	!	1232	1	!	1366	0	0	0	0	0	0
2024-05-28	11:36:38	11:42:54	375421	6.6.1	4_exp_EVA_AWA_CON	57	A	B	Rpleas_acq	Same	Rpleas	1pleas	acq_US_unple_nomask	acq45_nomask	4	28	400	0	300	300	0	0	319	46	1	0	gütig	engagiert	vertrauen	anregung	sonnig	träumen	gierig	engstirnig	versagen	ausrottung	sterben	töten	vergnügt	genießen	gesittet	besonnen	kuss	kreativ	verbissen	gemein	geizig	bange	krise	krank	1	blank2r.bmp	0	1	+	0	1	blank2r.bmp	500	1	DHJF	500	1	blank2r.bmp	880	6	töten	880	1	!	-1	1	!	-1	0	0	0	0	0	0
2024-05-28	11:36:38	11:42:56	377559	6.6.1	4_exp_EVA_AWA_CON	57	A	B	Rpleas_acq	Same	Rpleas	1pleas	acq_US_unple_nomask	acq45_nomask	4	29	400	1	300	300	0	0	364	46	1	0	gütig	engagiert	vertrauen	anregung	sonnig	träumen	gierig	engstirnig	versagen	ausrottung	sterben	töten	vergnügt	genießen	gesittet	besonnen	kuss	kreativ	verbissen	gemein	geizig	bange	krise	krank	1	blank2r.bmp	0	1	+	0	1	blank2r.bmp	500	1	DHJF	500	1	blank2r.bmp	880	3	versagen	880	1	!	1232	1	!	1265	0	0	0	0	0	0
2024-05-28	11:36:38	11:42:58	379695	6.6.1	4_exp_EVA_AWA_CON	57	A	B	Rpleas_acq	Same	Rpleas	1pleas	acq_US_pleas_nomask	acq45_nomask	4	30	400	1	300	300	0	0	358	50	1	0	gütig	engagiert	vertrauen	anregung	sonnig	träumen	gierig	engstirnig	versagen	ausrottung	sterben	töten	vergnügt	genießen	gesittet	besonnen	kuss	kreativ	verbissen	gemein	geizig	bange	krise	krank	1	blank2r.bmp	0	1	+	0	1	blank2r.bmp	500	1	CPLW	500	1	blank2r.bmp	880	1	gütig	880	1	!	1232	1	!	1260	0	0	0	0	0	0
2024-05-28	11:36:38	11:43:00	381919	6.6.1	4_exp_EVA_AWA_CON	57	A	B	Rpleas_acq	Same	Rpleas	1pleas	acq_US_unple_nomask	acq45_nomask	4	31	400	1	300	300	0	0	441	46	1	0	gütig	engagiert	vertrauen	anregung	sonnig	träumen	gierig	engstirnig	versagen	ausrottung	sterben	töten	vergnügt	genießen	gesittet	besonnen	kuss	kreativ	verbissen	gemein	geizig	bange	krise	krank	1	blank2r.bmp	0	1	+	0	1	blank2r.bmp	500	1	DHJF	500	1	blank2r.bmp	880	1	gierig	880	1	!	1233	1	!	1343	0	0	0	0	0	0
2024-05-28	11:36:38	11:43:03	384151	6.6.1	4_exp_EVA_AWA_CON	57	A	B	Rpleas_acq	Same	Rpleas	1pleas	acq_US_pleas_nomask	acq45_nomask	4	32	400	1	300	300	0	0	452	50	1	0	gütig	engagiert	vertrauen	anregung	sonnig	träumen	gierig	engstirnig	versagen	ausrottung	sterben	töten	vergnügt	genießen	gesittet	besonnen	kuss	kreativ	verbissen	gemein	geizig	bange	krise	krank	1	blank2r.bmp	0	1	+	0	1	blank2r.bmp	500	1	CPLW	500	1	blank2r.bmp	880	3	vertrauen	880	1	!	1232	1	!	1353	0	0	0	0	0	0
2024-05-28	11:36:38	11:43:05	386399	6.6.1	4_exp_EVA_AWA_CON	57	A	B	Rpleas_acq	Same	Rpleas	1pleas	acq_US_pleas_nomask	acq45_nomask	4	33	400	1	300	300	0	0	468	50	1	0	gütig	engagiert	vertrauen	anregung	sonnig	träumen	gierig	engstirnig	versagen	ausrottung	sterben	töten	vergnügt	genießen	gesittet	besonnen	kuss	kreativ	verbissen	gemein	geizig	bange	krise	krank	1	blank2r.bmp	0	1	+	0	1	blank2r.bmp	500	1	CPLW	500	1	blank2r.bmp	880	4	anregung	880	1	!	1232	1	!	1369	0	0	0	0	0	0
2024-05-28	11:36:38	11:43:07	388567	6.6.1	4_exp_EVA_AWA_CON	57	A	B	Rpleas_acq	Same	Rpleas	1pleas	acq_US_unple_nomask	acq45_nomask	4	34	400	1	300	300	0	0	385	46	1	0	gütig	engagiert	vertrauen	anregung	sonnig	träumen	gierig	engstirnig	versagen	ausrottung	sterben	töten	vergnügt	genießen	gesittet	besonnen	kuss	kreativ	verbissen	gemein	geizig	bange	krise	krank	1	blank2r.bmp	0	1	+	0	1	blank2r.bmp	500	1	DHJF	500	1	blank2r.bmp	880	4	ausrottung	880	1	!	1232	1	!	1286	0	0	0	0	0	0
2024-05-28	11:36:38	11:43:09	390735	6.6.1	4_exp_EVA_AWA_CON	57	A	B	Rpleas_acq	Same	Rpleas	1pleas	acq_US_unple_nomask	acq45_nomask	4	35	400	1	300	300	0	0	391	46	1	0	gütig	engagiert	vertrauen	anregung	sonnig	träumen	gierig	engstirnig	versagen	ausrottung	sterben	töten	vergnügt	genießen	gesittet	besonnen	kuss	kreativ	verbissen	gemein	geizig	bange	krise	krank	1	blank2r.bmp	0	1	+	0	1	blank2r.bmp	500	1	DHJF	500	1	blank2r.bmp	880	2	engstirnig	880	1	!	1232	1	!	1292	0	0	0	0	0	0
2024-05-28	11:36:38	11:43:11	392935	6.6.1	4_exp_EVA_AWA_CON	57	A	B	Rpleas_acq	Same	Rpleas	1pleas	acq_US_unple_nomask	acq45_nomask	4	36	400	1	300	300	0	0	420	46	1	0	gütig	engagiert	vertrauen	anregung	sonnig	träumen	gierig	engstirnig	versagen	ausrottung	sterben	töten	vergnügt	genießen	gesittet	besonnen	kuss	kreativ	verbissen	gemein	geizig	bange	krise	krank	1	blank2r.bmp	0	1	+	0	1	blank2r.bmp	500	1	DHJF	500	1	blank2r.bmp	880	5	sterben	880	1	!	1232	1	!	1322	0	0	0	0	0	0
2024-05-28	11:36:38	11:43:20	401891	6.6.1	4_exp_EVA_AWA_CON	57	A	B	Rpleas_acq	Same	Rpleas	1pleas	acq_US_pleas_nomask	acq45_nomask	5	1	400	0	300	300	0	0	474	50	1	0	gütig	engagiert	vertrauen	anregung	sonnig	träumen	gierig	engstirnig	versagen	ausrottung	sterben	töten	vergnügt	genießen	gesittet	besonnen	kuss	kreativ	verbissen	gemein	geizig	bange	krise	krank	1	blank2r.bmp	0	1	+	0	1	blank2r.bmp	500	1	CPLW	500	1	blank2r.bmp	880	4	anregung	880	1	!	1232	1	!	-1	0	0	0	0	0	0
2024-05-28	11:36:38	11:43:22	404039	6.6.1	4_exp_EVA_AWA_CON	57	A	B	Rpleas_acq	Same	Rpleas	1pleas	acq_US_unple_nomask	acq45_nomask	5	2	400	1	300	300	0	0	366	46	1	0	gütig	engagiert	vertrauen	anregung	sonnig	träumen	gierig	engstirnig	versagen	ausrottung	sterben	töten	vergnügt	genießen	gesittet	besonnen	kuss	kreativ	verbissen	gemein	geizig	bange	krise	krank	1	blank2r.bmp	0	1	+	0	1	blank2r.bmp	500	1	DHJF	500	1	blank2r.bmp	880	4	ausrottung	880	1	!	1232	1	!	1268	0	0	0	0	0	0
2024-05-28	11:36:38	11:43:25	406159	6.6.1	4_exp_EVA_AWA_CON	57	A	B	Rpleas_acq	Same	Rpleas	1pleas	acq_US_unple_nomask	acq45_nomask	5	3	400	1	300	300	0	0	345	46	1	0	gütig	engagiert	vertrauen	anregung	sonnig	träumen	gierig	engstirnig	versagen	ausrottung	sterben	töten	vergnügt	genießen	gesittet	besonnen	kuss	kreativ	verbissen	gemein	geizig	bange	krise	krank	1	blank2r.bmp	0	1	+	0	1	blank2r.bmp	500	1	DHJF	500	1	blank2r.bmp	880	5	sterben	880	1	!	1233	1	!	1246	0	0	0	0	0	0
2024-05-28	11:36:38	11:43:27	408327	6.6.1	4_exp_EVA_AWA_CON	57	A	B	Rpleas_acq	Same	Rpleas	1pleas	acq_US_unple_nomask	acq45_nomask	5	4	400	1	300	300	0	0	392	50	0	0	gütig	engagiert	vertrauen	anregung	sonnig	träumen	gierig	engstirnig	versagen	ausrottung	sterben	töten	vergnügt	genießen	gesittet	besonnen	kuss	kreativ	verbissen	gemein	geizig	bange	krise	krank	1	blank2r.bmp	0	1	+	0	1	blank2r.bmp	500	1	DHJF	500	1	blank2r.bmp	880	1	gierig	880	1	!	1232	1	!	1293	0	0	0	0	0	0
2024-05-28	11:36:38	11:43:29	410536	6.6.1	4_exp_EVA_AWA_CON	57	A	B	Rpleas_acq	Same	Rpleas	1pleas	acq_US_unple_nomask	acq45_nomask	5	5	400	1	300	300	0	0	428	46	1	0	gütig	engagiert	vertrauen	anregung	sonnig	träumen	gierig	engstirnig	versagen	ausrottung	sterben	töten	vergnügt	genießen	gesittet	besonnen	kuss	kreativ	verbissen	gemein	geizig	bange	krise	krank	1	blank2r.bmp	0	1	+	0	1	blank2r.bmp	500	1	DHJF	500	1	blank2r.bmp	880	3	versagen	880	1	!	1232	1	!	1330	0	0	0	0	0	0
2024-05-28	11:36:38	11:43:31	412795	6.6.1	4_exp_EVA_AWA_CON	57	A	B	Rpleas_acq	Same	Rpleas	1pleas	acq_US_pleas_nomask	acq45_nomask	5	6	400	0	300	300	0	0	481	50	1	0	gütig	engagiert	vertrauen	anregung	sonnig	träumen	gierig	engstirnig	versagen	ausrottung	sterben	töten	vergnügt	genießen	gesittet	besonnen	kuss	kreativ	verbissen	gemein	geizig	bange	krise	krank	1	blank2r.bmp	0	1	+	0	1	blank2r.bmp	500	1	CPLW	500	1	blank2r.bmp	880	3	vertrauen	880	1	!	1232	1	!	-1	0	0	0	0	0	0
2024-05-28	11:36:38	11:43:33	414927	6.6.1	4_exp_EVA_AWA_CON	57	A	B	Rpleas_acq	Same	Rpleas	1pleas	acq_US_unple_nomask	acq45_nomask	5	7	400	1	300	300	0	0	357	46	1	0	gütig	engagiert	vertrauen	anregung	sonnig	träumen	gierig	engstirnig	versagen	ausrottung	sterben	töten	vergnügt	genießen	gesittet	besonnen	kuss	kreativ	verbissen	gemein	geizig	bange	krise	krank	1	blank2r.bmp	0	1	+	0	1	blank2r.bmp	500	1	DHJF	500	1	blank2r.bmp	880	6	töten	880	1	!	1233	1	!	1259	0	0	0	0	0	0
2024-05-28	11:36:38	11:43:36	417159	6.6.1	4_exp_EVA_AWA_CON	57	A	B	Rpleas_acq	Same	Rpleas	1pleas	acq_US_pleas_nomask	acq45_nomask	5	8	400	1	300	300	0	0	448	50	1	0	gütig	engagiert	vertrauen	anregung	sonnig	träumen	gierig	engstirnig	versagen	ausrottung	sterben	töten	vergnügt	genießen	gesittet	besonnen	kuss	kreativ	verbissen	gemein	geizig	bange	krise	krank	1	blank2r.bmp	0	1	+	0	1	blank2r.bmp	500	1	CPLW	500	1	blank2r.bmp	880	5	sonnig	880	1	!	1232	1	!	1349	0	0	0	0	0	0
2024-05-28	11:36:38	11:43:38	419359	6.6.1	4_exp_EVA_AWA_CON	57	A	B	Rpleas_acq	Same	Rpleas	1pleas	acq_US_pleas_nomask	acq45_nomask	5	9	400	1	300	300	0	0	417	50	1	0	gütig	engagiert	vertrauen	anregung	sonnig	träumen	gierig	engstirnig	versagen	ausrottung	sterben	töten	vergnügt	genießen	gesittet	besonnen	kuss	kreativ	verbissen	gemein	geizig	bange	krise	krank	1	blank2r.bmp	0	1	+	0	1	blank2r.bmp	500	1	CPLW	500	1	blank2r.bmp	880	1	gütig	880	1	!	1232	1	!	1318	0	0	0	0	0	0
2024-05-28	11:36:38	11:43:40	421511	6.6.1	4_exp_EVA_AWA_CON	57	A	B	Rpleas_acq	Same	Rpleas	1pleas	acq_US_pleas_nomask	acq45_nomask	5	10	400	1	300	300	0	0	377	50	1	0	gütig	engagiert	vertrauen	anregung	sonnig	träumen	gierig	engstirnig	versagen	ausrottung	sterben	töten	vergnügt	genießen	gesittet	besonnen	kuss	kreativ	verbissen	gemein	geizig	bange	krise	krank	1	blank2r.bmp	0	1	+	0	1	blank2r.bmp	500	1	CPLW	500	1	blank2r.bmp	880	6	träumen	880	1	!	1232	1	!	1278	0	0	0	0	0	0
2024-05-28	11:36:38	11:43:42	423774	6.6.1	4_exp_EVA_AWA_CON	57	A	B	Rpleas_acq	Same	Rpleas	1pleas	acq_US_pleas_nomask	acq45_nomask	5	11	400	0	300	300	0	0	490	50	1	0	gütig	engagiert	vertrauen	anregung	sonnig	träumen	gierig	engstirnig	versagen	ausrottung	sterben	töten	vergnügt	genießen	gesittet	besonnen	kuss	kreativ	verbissen	gemein	geizig	bange	krise	krank	1	blank2r.bmp	0	1	+	0	1	blank2r.bmp	500	1	CPLW	500	1	blank2r.bmp	880	2	engagiert	880	1	!	1233	1	!	-1	0	0	0	0	0	0
2024-05-28	11:36:38	11:43:44	425959	6.6.1	4_exp_EVA_AWA_CON	57	A	B	Rpleas_acq	Same	Rpleas	1pleas	acq_US_pleas_nomask	acq45_nomask	5	12	400	1	300	300	0	0	402	50	1	0	gütig	engagiert	vertrauen	anregung	sonnig	träumen	gierig	engstirnig	versagen	ausrottung	sterben	töten	vergnügt	genießen	gesittet	besonnen	kuss	kreativ	verbissen	gemein	geizig	bange	krise	krank	1	blank2r.bmp	0	1	+	0	1	blank2r.bmp	500	1	CPLW	500	1	blank2r.bmp	880	4	anregung	880	1	!	1233	1	!	1303	0	0	0	0	0	0
2024-05-28	11:36:38	11:43:46	428111	6.6.1	4_exp_EVA_AWA_CON	57	A	B	Rpleas_acq	Same	Rpleas	1pleas	acq_US_pleas_nomask	acq45_nomask	5	13	400	1	300	300	0	0	373	50	1	0	gütig	engagiert	vertrauen	anregung	sonnig	träumen	gierig	engstirnig	versagen	ausrottung	sterben	töten	vergnügt	genießen	gesittet	besonnen	kuss	kreativ	verbissen	gemein	geizig	bange	krise	krank	1	blank2r.bmp	0	1	+	0	1	blank2r.bmp	500	1	CPLW	500	1	blank2r.bmp	880	3	vertrauen	880	1	!	1232	1	!	1274	0	0	0	0	0	0
2024-05-28	11:36:38	11:43:49	430343	6.6.1	4_exp_EVA_AWA_CON	57	A	B	Rpleas_acq	Same	Rpleas	1pleas	acq_US_unple_nomask	acq45_nomask	5	14	400	1	300	300	0	0	453	46	1	0	gütig	engagiert	vertrauen	anregung	sonnig	träumen	gierig	engstirnig	versagen	ausrottung	sterben	töten	vergnügt	genießen	gesittet	besonnen	kuss	kreativ	verbissen	gemein	geizig	bange	krise	krank	1	blank2r.bmp	0	1	+	0	1	blank2r.bmp	500	1	DHJF	500	1	blank2r.bmp	880	2	engstirnig	880	1	!	1232	1	!	1355	0	0	0	0	0	0
2024-05-28	11:36:38	11:43:51	432495	6.6.1	4_exp_EVA_AWA_CON	57	A	B	Rpleas_acq	Same	Rpleas	1pleas	acq_US_unple_nomask	acq45_nomask	5	15	400	1	300	300	0	0	374	46	1	0	gütig	engagiert	vertrauen	anregung	sonnig	träumen	gierig	engstirnig	versagen	ausrottung	sterben	töten	vergnügt	genießen	gesittet	besonnen	kuss	kreativ	verbissen	gemein	geizig	bange	krise	krank	1	blank2r.bmp	0	1	+	0	1	blank2r.bmp	500	1	DHJF	500	1	blank2r.bmp	880	2	engstirnig	880	1	!	1232	1	!	1275	0	0	0	0	0	0
2024-05-28	11:36:38	11:43:53	434639	6.6.1	4_exp_EVA_AWA_CON	57	A	B	Rpleas_acq	Same	Rpleas	1pleas	acq_US_pleas_nomask	acq45_nomask	5	16	400	1	300	300	0	0	367	46	0	0	gütig	engagiert	vertrauen	anregung	sonnig	träumen	gierig	engstirnig	versagen	ausrottung	sterben	töten	vergnügt	genießen	gesittet	besonnen	kuss	kreativ	verbissen	gemein	geizig	bange	krise	krank	1	blank2r.bmp	0	1	+	0	1	blank2r.bmp	500	1	CPLW	500	1	blank2r.bmp	880	6	träumen	880	1	!	1232	1	!	1268	0	0	0	0	0	0
2024-05-28	11:36:38	11:43:55	436783	6.6.1	4_exp_EVA_AWA_CON	57	A	B	Rpleas_acq	Same	Rpleas	1pleas	acq_US_unple_nomask	acq45_nomask	5	17	400	1	300	300	0	0	369	46	1	0	gütig	engagiert	vertrauen	anregung	sonnig	träumen	gierig	engstirnig	versagen	ausrottung	sterben	töten	vergnügt	genießen	gesittet	besonnen	kuss	kreativ	verbissen	gemein	geizig	bange	krise	krank	1	blank2r.bmp	0	1	+	0	1	blank2r.bmp	500	1	DHJF	500	1	blank2r.bmp	880	5	sterben	880	1	!	1232	1	!	1270	0	0	0	0	0	0
2024-05-28	11:36:38	11:43:57	439035	6.6.1	4_exp_EVA_AWA_CON	57	A	B	Rpleas_acq	Same	Rpleas	1pleas	acq_US_unple_nomask	acq45_nomask	5	18	400	0	300	300	0	0	474	46	1	0	gütig	engagiert	vertrauen	anregung	sonnig	träumen	gierig	engstirnig	versagen	ausrottung	sterben	töten	vergnügt	genießen	gesittet	besonnen	kuss	kreativ	verbissen	gemein	geizig	bange	krise	krank	1	blank2r.bmp	0	1	+	0	1	blank2r.bmp	500	1	DHJF	500	1	blank2r.bmp	880	4	ausrottung	880	1	!	1232	1	!	-1	0	0	0	0	0	0
2024-05-28	11:36:38	11:44:00	441263	6.6.1	4_exp_EVA_AWA_CON	57	A	B	Rpleas_acq	Same	Rpleas	1pleas	acq_US_unple_nomask	acq45_nomask	5	19	400	1	300	300	0	0	446	46	1	0	gütig	engagiert	vertrauen	anregung	sonnig	träumen	gierig	engstirnig	versagen	ausrottung	sterben	töten	vergnügt	genießen	gesittet	besonnen	kuss	kreativ	verbissen	gemein	geizig	bange	krise	krank	1	blank2r.bmp	0	1	+	0	1	blank2r.bmp	500	1	DHJF	500	1	blank2r.bmp	880	6	töten	880	1	!	1232	1	!	1347	0	0	0	0	0	0
2024-05-28	11:36:38	11:44:02	443495	6.6.1	4_exp_EVA_AWA_CON	57	A	B	Rpleas_acq	Same	Rpleas	1pleas	acq_US_unple_nomask	acq45_nomask	5	20	400	1	300	300	0	0	457	46	1	0	gütig	engagiert	vertrauen	anregung	sonnig	träumen	gierig	engstirnig	versagen	ausrottung	sterben	töten	vergnügt	genießen	gesittet	besonnen	kuss	kreativ	verbissen	gemein	geizig	bange	krise	krank	1	blank2r.bmp	0	1	+	0	1	blank2r.bmp	500	1	DHJF	500	1	blank2r.bmp	880	3	versagen	880	1	!	1232	1	!	1358	0	0	0	0	0	0
2024-05-28	11:36:38	11:44:04	445671	6.6.1	4_exp_EVA_AWA_CON	57	A	B	Rpleas_acq	Same	Rpleas	1pleas	acq_US_pleas_nomask	acq45_nomask	5	21	400	1	300	300	0	0	401	50	1	0	gütig	engagiert	vertrauen	anregung	sonnig	träumen	gierig	engstirnig	versagen	ausrottung	sterben	töten	vergnügt	genießen	gesittet	besonnen	kuss	kreativ	verbissen	gemein	geizig	bange	krise	krank	1	blank2r.bmp	0	1	+	0	1	blank2r.bmp	500	1	CPLW	500	1	blank2r.bmp	880	1	gütig	880	1	!	1232	1	!	1303	0	0	0	0	0	0
2024-05-28	11:36:38	11:44:06	447815	6.6.1	4_exp_EVA_AWA_CON	57	A	B	Rpleas_acq	Same	Rpleas	1pleas	acq_US_unple_nomask	acq45_nomask	5	22	400	1	300	300	0	0	364	46	1	0	gütig	engagiert	vertrauen	anregung	sonnig	träumen	gierig	engstirnig	versagen	ausrottung	sterben	töten	vergnügt	genießen	gesittet	besonnen	kuss	kreativ	verbissen	gemein	geizig	bange	krise	krank	1	blank2r.bmp	0	1	+	0	1	blank2r.bmp	500	1	DHJF	500	1	blank2r.bmp	880	1	gierig	880	1	!	1233	1	!	1265	0	0	0	0	0	0
2024-05-28	11:36:38	11:44:08	449933	6.6.1	4_exp_EVA_AWA_CON	57	A	B	Rpleas_acq	Same	Rpleas	1pleas	acq_US_unple_nomask	acq45_nomask	5	23	400	1	300	300	0	0	343	50	0	0	gütig	engagiert	vertrauen	anregung	sonnig	träumen	gierig	engstirnig	versagen	ausrottung	sterben	töten	vergnügt	genießen	gesittet	besonnen	kuss	kreativ	verbissen	gemein	geizig	bange	krise	krank	1	blank2r.bmp	0	1	+	0	1	blank2r.bmp	500	1	DHJF	500	1	blank2r.bmp	880	2	engstirnig	880	1	!	1232	1	!	1242	0	0	0	0	0	0
2024-05-28	11:36:38	11:44:10	452071	6.6.1	4_exp_EVA_AWA_CON	57	A	B	Rpleas_acq	Same	Rpleas	1pleas	acq_US_pleas_nomask	acq45_nomask	5	24	400	1	300	300	0	0	357	46	0	0	gütig	engagiert	vertrauen	anregung	sonnig	träumen	gierig	engstirnig	versagen	ausrottung	sterben	töten	vergnügt	genießen	gesittet	besonnen	kuss	kreativ	verbissen	gemein	geizig	bange	krise	krank	1	blank2r.bmp	0	1	+	0	1	blank2r.bmp	500	1	CPLW	500	1	blank2r.bmp	880	5	sonnig	880	1	!	1232	1	!	1258	0	0	0	0	0	0
2024-05-28	11:36:38	11:44:13	454255	6.6.1	4_exp_EVA_AWA_CON	57	A	B	Rpleas_acq	Same	Rpleas	1pleas	acq_US_pleas_nomask	acq45_nomask	5	25	400	1	300	300	0	0	410	46	0	0	gütig	engagiert	vertrauen	anregung	sonnig	träumen	gierig	engstirnig	versagen	ausrottung	sterben	töten	vergnügt	genießen	gesittet	besonnen	kuss	kreativ	verbissen	gemein	geizig	bange	krise	krank	1	blank2r.bmp	0	1	+	0	1	blank2r.bmp	500	1	CPLW	500	1	blank2r.bmp	880	2	engagiert	880	1	!	1232	1	!	1311	0	0	0	0	0	0
2024-05-28	11:36:38	11:44:15	456391	6.6.1	4_exp_EVA_AWA_CON	57	A	B	Rpleas_acq	Same	Rpleas	1pleas	acq_US_pleas_nomask	acq45_nomask	5	26	400	1	300	300	0	0	354	50	1	0	gütig	engagiert	vertrauen	anregung	sonnig	träumen	gierig	engstirnig	versagen	ausrottung	sterben	töten	vergnügt	genießen	gesittet	besonnen	kuss	kreativ	verbissen	gemein	geizig	bange	krise	krank	1	blank2r.bmp	0	1	+	0	1	blank2r.bmp	500	1	CPLW	500	1	blank2r.bmp	880	2	engagiert	880	1	!	1232	1	!	1256	0	0	0	0	0	0
2024-05-28	11:36:38	11:44:17	458591	6.6.1	4_exp_EVA_AWA_CON	57	A	B	Rpleas_acq	Same	Rpleas	1pleas	acq_US_pleas_nomask	acq45_nomask	5	27	400	1	300	300	0	0	423	46	0	0	gütig	engagiert	vertrauen	anregung	sonnig	träumen	gierig	engstirnig	versagen	ausrottung	sterben	töten	vergnügt	genießen	gesittet	besonnen	kuss	kreativ	verbissen	gemein	geizig	bange	krise	krank	1	blank2r.bmp	0	1	+	0	1	blank2r.bmp	500	1	CPLW	500	1	blank2r.bmp	880	4	anregung	880	1	!	1232	1	!	1324	0	0	0	0	0	0
2024-05-28	11:36:38	11:44:19	460799	6.6.1	4_exp_EVA_AWA_CON	57	A	B	Rpleas_acq	Same	Rpleas	1pleas	acq_US_pleas_nomask	acq45_nomask	5	28	400	1	300	300	0	0	429	50	1	0	gütig	engagiert	vertrauen	anregung	sonnig	träumen	gierig	engstirnig	versagen	ausrottung	sterben	töten	vergnügt	genießen	gesittet	besonnen	kuss	kreativ	verbissen	gemein	geizig	bange	krise	krank	1	blank2r.bmp	0	1	+	0	1	blank2r.bmp	500	1	CPLW	500	1	blank2r.bmp	880	3	vertrauen	880	1	!	1232	1	!	1331	0	0	0	0	0	0
2024-05-28	11:36:38	11:44:21	462901	6.6.1	4_exp_EVA_AWA_CON	57	A	B	Rpleas_acq	Same	Rpleas	1pleas	acq_US_unple_nomask	acq45_nomask	5	29	400	0	300	300	0	0	322	46	1	0	gütig	engagiert	vertrauen	anregung	sonnig	träumen	gierig	engstirnig	versagen	ausrottung	sterben	töten	vergnügt	genießen	gesittet	besonnen	kuss	kreativ	verbissen	gemein	geizig	bange	krise	krank	1	blank2r.bmp	0	1	+	0	1	blank2r.bmp	500	1	DHJF	500	1	blank2r.bmp	880	4	ausrottung	880	1	!	-1	1	!	-1	0	0	0	0	0	0
2024-05-28	11:36:38	11:44:23	465031	6.6.1	4_exp_EVA_AWA_CON	57	A	B	Rpleas_acq	Same	Rpleas	1pleas	acq_US_unple_nomask	acq45_nomask	5	30	400	1	300	300	0	0	349	50	0	0	gütig	engagiert	vertrauen	anregung	sonnig	träumen	gierig	engstirnig	versagen	ausrottung	sterben	töten	vergnügt	genießen	gesittet	besonnen	kuss	kreativ	verbissen	gemein	geizig	bange	krise	krank	1	blank2r.bmp	0	1	+	0	1	blank2r.bmp	500	1	DHJF	500	1	blank2r.bmp	880	3	versagen	880	1	!	1232	1	!	1250	0	0	0	0	0	0
2024-05-28	11:36:38	11:44:26	467231	6.6.1	4_exp_EVA_AWA_CON	57	A	B	Rpleas_acq	Same	Rpleas	1pleas	acq_US_unple_nomask	acq45_nomask	5	31	400	1	300	300	0	0	417	46	1	0	gütig	engagiert	vertrauen	anregung	sonnig	träumen	gierig	engstirnig	versagen	ausrottung	sterben	töten	vergnügt	genießen	gesittet	besonnen	kuss	kreativ	verbissen	gemein	geizig	bange	krise	krank	1	blank2r.bmp	0	1	+	0	1	blank2r.bmp	500	1	DHJF	500	1	blank2r.bmp	880	5	sterben	880	1	!	1233	1	!	1318	0	0	0	0	0	0
2024-05-28	11:36:38	11:44:28	469525	6.6.1	4_exp_EVA_AWA_CON	57	A	B	Rpleas_acq	Same	Rpleas	1pleas	acq_US_pleas_nomask	acq45_nomask	5	32	400	0	300	300	0	0	522	50	1	0	gütig	engagiert	vertrauen	anregung	sonnig	träumen	gierig	engstirnig	versagen	ausrottung	sterben	töten	vergnügt	genießen	gesittet	besonnen	kuss	kreativ	verbissen	gemein	geizig	bange	krise	krank	1	blank2r.bmp	0	1	+	0	1	blank2r.bmp	500	1	CPLW	500	1	blank2r.bmp	880	5	sonnig	880	1	!	1233	1	!	-1	0	0	0	0	0	0
2024-05-28	11:36:38	11:44:30	471711	6.6.1	4_exp_EVA_AWA_CON	57	A	B	Rpleas_acq	Same	Rpleas	1pleas	acq_US_pleas_nomask	acq45_nomask	5	33	400	1	300	300	0	0	404	50	1	0	gütig	engagiert	vertrauen	anregung	sonnig	träumen	gierig	engstirnig	versagen	ausrottung	sterben	töten	vergnügt	genießen	gesittet	besonnen	kuss	kreativ	verbissen	gemein	geizig	bange	krise	krank	1	blank2r.bmp	0	1	+	0	1	blank2r.bmp	500	1	CPLW	500	1	blank2r.bmp	880	1	gütig	880	1	!	1232	1	!	1305	0	0	0	0	0	0
2024-05-28	11:36:38	11:44:32	473871	6.6.1	4_exp_EVA_AWA_CON	57	A	B	Rpleas_acq	Same	Rpleas	1pleas	acq_US_pleas_nomask	acq45_nomask	5	34	400	1	300	300	0	0	383	50	1	0	gütig	engagiert	vertrauen	anregung	sonnig	träumen	gierig	engstirnig	versagen	ausrottung	sterben	töten	vergnügt	genießen	gesittet	besonnen	kuss	kreativ	verbissen	gemein	geizig	bange	krise	krank	1	blank2r.bmp	0	1	+	0	1	blank2r.bmp	500	1	CPLW	500	1	blank2r.bmp	880	6	träumen	880	1	!	1232	1	!	1284	0	0	0	0	0	0
2024-05-28	11:36:38	11:44:34	476039	6.6.1	4_exp_EVA_AWA_CON	57	A	B	Rpleas_acq	Same	Rpleas	1pleas	acq_US_unple_nomask	acq45_nomask	5	35	400	1	300	300	0	0	390	50	0	0	gütig	engagiert	vertrauen	anregung	sonnig	träumen	gierig	engstirnig	versagen	ausrottung	sterben	töten	vergnügt	genießen	gesittet	besonnen	kuss	kreativ	verbissen	gemein	geizig	bange	krise	krank	1	blank2r.bmp	0	1	+	0	1	blank2r.bmp	500	1	DHJF	500	1	blank2r.bmp	880	1	gierig	880	1	!	1232	1	!	1291	0	0	0	0	0	0
2024-05-28	11:36:38	11:44:37	478271	6.6.1	4_exp_EVA_AWA_CON	57	A	B	Rpleas_acq	Same	Rpleas	1pleas	acq_US_unple_nomask	acq45_nomask	5	36	400	1	300	300	0	0	450	46	1	0	gütig	engagiert	vertrauen	anregung	sonnig	träumen	gierig	engstirnig	versagen	ausrottung	sterben	töten	vergnügt	genießen	gesittet	besonnen	kuss	kreativ	verbissen	gemein	geizig	bange	krise	krank	1	blank2r.bmp	0	1	+	0	1	blank2r.bmp	500	1	DHJF	500	1	blank2r.bmp	880	6	töten	880	1	!	1232	1	!	1352	0	0	0	0	0	0
2024-05-28	11:36:38	11:44:53	494665	6.6.1	4_exp_EVA_AWA_CON	57	A	B	Rpleas_acq	Same	Rpleas	1pleas	EvalRating_firsttwo	EvalRating_firsttwo	6	1	0	0	300	300	0	0	6080	line	0	-31,640625pct	gütig	engagiert	vertrauen	anregung	sonnig	träumen	gierig	engstirnig	versagen	ausrottung	sterben	töten	vergnügt	genießen	gesittet	besonnen	kuss	kreativ	verbissen	gemein	geizig	bange	krise	krank	1		-8	1	Wie angenehm oder unangenehm finden Sie die  Buchstabenkette WDLH?	-8	1		-8	1		-8	1		-8	1	Unangenehm	-8	1	Angenehm	-8	0	0	0	0	0	0	0	0	0
2024-05-28	11:36:38	11:44:58	499817	6.6.1	4_exp_EVA_AWA_CON	57	A	B	Rpleas_acq	Same	Rpleas	1pleas	EvalRating_lastfour	EvalRating_lastfour	7	1	0	0	300	300	0	0	2777	line	0	-45,0520833333333285964pct	gütig	engagiert	vertrauen	anregung	sonnig	träumen	gierig	engstirnig	versagen	ausrottung	sterben	töten	vergnügt	genießen	gesittet	besonnen	kuss	kreativ	verbissen	gemein	geizig	bange	krise	krank	1		-7	1	Wie angenehm oder unangenehm finden Sie die  Buchstabenkette CPLW?	-7	1		-7	1		-7	1		-7	1	Unangenehm	-7	1	Angenehm	-7	0	0	0	0	0	0	0	0	0
2024-05-28	11:36:38	11:45:01	502186	6.6.1	4_exp_EVA_AWA_CON	57	A	B	Rpleas_acq	Same	Rpleas	1pleas	blank_screen	EvalRating_lastfour	7	3	0	0	300	300	0	0	0	0	0	-45,0520833333333285964pct	gütig	engagiert	vertrauen	anregung	sonnig	träumen	gierig	engstirnig	versagen	ausrottung	sterben	töten	vergnügt	genießen	gesittet	besonnen	kuss	kreativ	verbissen	gemein	geizig	bange	krise	krank	1		-8	0	0	0	0	0	0	0	0	0	0	0	0	0	0	0	0	0	0	0	0	0	0	0	0	0	0	0
2024-05-28	11:36:38	11:45:03	504849	6.6.1	4_exp_EVA_AWA_CON	57	A	B	Rpleas_acq	Same	Rpleas	1pleas	EvalRating_lastfour	EvalRating_lastfour	7	4	0	0	300	300	0	0	2075	line	0	-39,9739583333333285964pct	gütig	engagiert	vertrauen	anregung	sonnig	träumen	gierig	engstirnig	versagen	ausrottung	sterben	töten	vergnügt	genießen	gesittet	besonnen	kuss	kreativ	verbissen	gemein	geizig	bange	krise	krank	1		-8	2	Wie angenehm oder unangenehm finden Sie die  Buchstabenkette DHJF?	-8	1		-8	1		-8	1		-8	1	Unangenehm	-8	1	Angenehm	-8	0	0	0	0	0	0	0	0	0
2024-05-28	11:36:38	11:45:06	507220	6.6.1	4_exp_EVA_AWA_CON	57	A	B	Rpleas_acq	Same	Rpleas	1pleas	blank_screen	EvalRating_lastfour	7	6	0	0	300	300	0	0	0	0	0	-39,9739583333333285964pct	gütig	engagiert	vertrauen	anregung	sonnig	träumen	gierig	engstirnig	versagen	ausrottung	sterben	töten	vergnügt	genießen	gesittet	besonnen	kuss	kreativ	verbissen	gemein	geizig	bange	krise	krank	1		-8	0	0	0	0	0	0	0	0	0	0	0	0	0	0	0	0	0	0	0	0	0	0	0	0	0	0	0
2024-05-28	11:36:38	11:45:08	509802	6.6.1	4_exp_EVA_AWA_CON	57	A	B	Rpleas_acq	Same	Rpleas	1pleas	EvalRating_lastfour	EvalRating_lastfour	7	7	0	0	300	300	0	0	1994	line	0	-39,5833333333333285964pct	gütig	engagiert	vertrauen	anregung	sonnig	träumen	gierig	engstirnig	versagen	ausrottung	sterben	töten	vergnügt	genießen	gesittet	besonnen	kuss	kreativ	verbissen	gemein	geizig	bange	krise	krank	1		-8	3	Wie angenehm oder unangenehm finden Sie die  Buchstabenkette FCJP?	-8	1		-8	1		-8	1		-8	1	Unangenehm	-8	1	Angenehm	-8	0	0	0	0	0	0	0	0	0
2024-05-28	11:36:38	11:45:38	539319	6.6.1	4_exp_EVA_AWA_CON	57	A	B	Rpleas_acq	Same	Rpleas	1pleas	conawa_CS1_US5	conawa1_nomask	8	1	0	0	300	300	0	0	10512	kuss	1	-39,5833333333333285964pct	gütig	engagiert	vertrauen	anregung	sonnig	träumen	gierig	engstirnig	versagen	ausrottung	sterben	töten	vergnügt	genießen	gesittet	besonnen	kuss	kreativ	verbissen	gemein	geizig	bange	krise	krank	0	0	0	0	0	0	0	0	0	0	0	0	0	0	0	0	0	0	0	0	0	0	0	0	0	0	0	0	0	0
2024-05-28	11:36:38	11:45:38	539320	6.6.1	4_exp_EVA_AWA_CON	57	A	B	Rpleas_acq	Same	Rpleas	1pleas	conawa_CS1_US5_confidence	conawa1_nomask	8	1	0	0	300	300	0	0	10512	guess	1	-39,5833333333333285964pct	gütig	engagiert	vertrauen	anregung	sonnig	träumen	gierig	engstirnig	versagen	ausrottung	sterben	töten	vergnügt	genießen	gesittet	besonnen	kuss	kreativ	verbissen	gemein	geizig	bange	krise	krank	0	0	0	0	0	0	0	0	0	0	0	0	0	0	0	0	0	0	0	0	0	0	0	0	0	0	0	0	0	0
2024-05-28	11:36:38	11:45:45	546344	6.6.1	4_exp_EVA_AWA_CON	57	A	B	Rpleas_acq	Same	Rpleas	1pleas	conawa_CS1_US3	conawa1_nomask	8	2	0	0	300	300	0	0	6413	versagen	1	-39,5833333333333285964pct	gütig	engagiert	vertrauen	anregung	sonnig	träumen	gierig	engstirnig	versagen	ausrottung	sterben	töten	vergnügt	genießen	gesittet	besonnen	kuss	kreativ	verbissen	gemein	geizig	bange	krise	krank	0	0	0	0	0	0	0	0	0	0	0	0	0	0	0	0	0	0	0	0	0	0	0	0	0	0	0	0	0	0
2024-05-28	11:36:38	11:45:45	546344	6.6.1	4_exp_EVA_AWA_CON	57	A	B	Rpleas_acq	Same	Rpleas	1pleas	conawa_CS1_US3_confidence	conawa1_nomask	8	2	0	0	300	300	0	0	6413	guess	1	-39,5833333333333285964pct	gütig	engagiert	vertrauen	anregung	sonnig	träumen	gierig	engstirnig	versagen	ausrottung	sterben	töten	vergnügt	genießen	gesittet	besonnen	kuss	kreativ	verbissen	gemein	geizig	bange	krise	krank	0	0	0	0	0	0	0	0	0	0	0	0	0	0	0	0	0	0	0	0	0	0	0	0	0	0	0	0	0	0
2024-05-28	11:36:38	11:45:49	551007	6.6.1	4_exp_EVA_AWA_CON	57	A	B	Rpleas_acq	Same	Rpleas	1pleas	conawa_CS2_US3	conawa1_nomask	8	3	0	0	300	300	0	0	4044	besonnen	1	-39,5833333333333285964pct	gütig	engagiert	vertrauen	anregung	sonnig	träumen	gierig	engstirnig	versagen	ausrottung	sterben	töten	vergnügt	genießen	gesittet	besonnen	kuss	kreativ	verbissen	gemein	geizig	bange	krise	krank	0	0	0	0	0	0	0	0	0	0	0	0	0	0	0	0	0	0	0	0	0	0	0	0	0	0	0	0	0	0
2024-05-28	11:36:38	11:45:49	551008	6.6.1	4_exp_EVA_AWA_CON	57	A	B	Rpleas_acq	Same	Rpleas	1pleas	conawa_CS2_US3_confidence	conawa1_nomask	8	3	0	0	300	300	0	0	4044	guess	1	-39,5833333333333285964pct	gütig	engagiert	vertrauen	anregung	sonnig	träumen	gierig	engstirnig	versagen	ausrottung	sterben	töten	vergnügt	genießen	gesittet	besonnen	kuss	kreativ	verbissen	gemein	geizig	bange	krise	krank	0	0	0	0	0	0	0	0	0	0	0	0	0	0	0	0	0	0	0	0	0	0	0	0	0	0	0	0	0	0
2024-05-28	11:36:38	11:45:55	557040	6.6.1	4_exp_EVA_AWA_CON	57	A	B	Rpleas_acq	Same	Rpleas	1pleas	conawa_CS1_US2	conawa1_nomask	8	4	0	0	300	300	0	0	5421	genießen	1	-39,5833333333333285964pct	gütig	engagiert	vertrauen	anregung	sonnig	träumen	gierig	engstirnig	versagen	ausrottung	sterben	töten	vergnügt	genießen	gesittet	besonnen	kuss	kreativ	verbissen	gemein	geizig	bange	krise	krank	0	0	0	0	0	0	0	0	0	0	0	0	0	0	0	0	0	0	0	0	0	0	0	0	0	0	0	0	0	0
2024-05-28	11:36:38	11:45:55	557041	6.6.1	4_exp_EVA_AWA_CON	57	A	B	Rpleas_acq	Same	Rpleas	1pleas	conawa_CS1_US2_confidence	conawa1_nomask	8	4	0	0	300	300	0	0	5421	guess	1	-39,5833333333333285964pct	gütig	engagiert	vertrauen	anregung	sonnig	träumen	gierig	engstirnig	versagen	ausrottung	sterben	töten	vergnügt	genießen	gesittet	besonnen	kuss	kreativ	verbissen	gemein	geizig	bange	krise	krank	0	0	0	0	0	0	0	0	0	0	0	0	0	0	0	0	0	0	0	0	0	0	0	0	0	0	0	0	0	0
2024-05-28	11:36:38	11:46:02	563174	6.6.1	4_exp_EVA_AWA_CON	57	A	B	Rpleas_acq	Same	Rpleas	1pleas	conawa_CS1_US6	conawa1_nomask	8	5	0	0	300	300	0	0	5516	töten	1	-39,5833333333333285964pct	gütig	engagiert	vertrauen	anregung	sonnig	träumen	gierig	engstirnig	versagen	ausrottung	sterben	töten	vergnügt	genießen	gesittet	besonnen	kuss	kreativ	verbissen	gemein	geizig	bange	krise	krank	0	0	0	0	0	0	0	0	0	0	0	0	0	0	0	0	0	0	0	0	0	0	0	0	0	0	0	0	0	0
2024-05-28	11:36:38	11:46:02	563175	6.6.1	4_exp_EVA_AWA_CON	57	A	B	Rpleas_acq	Same	Rpleas	1pleas	conawa_CS1_US6_confidence	conawa1_nomask	8	5	0	0	300	300	0	0	5516	guess	1	-39,5833333333333285964pct	gütig	engagiert	vertrauen	anregung	sonnig	träumen	gierig	engstirnig	versagen	ausrottung	sterben	töten	vergnügt	genießen	gesittet	besonnen	kuss	kreativ	verbissen	gemein	geizig	bange	krise	krank	0	0	0	0	0	0	0	0	0	0	0	0	0	0	0	0	0	0	0	0	0	0	0	0	0	0	0	0	0	0
2024-05-28	11:36:38	11:46:06	567558	6.6.1	4_exp_EVA_AWA_CON	57	A	B	Rpleas_acq	Same	Rpleas	1pleas	conawa_CS2_US4	conawa1_nomask	8	6	0	0	300	300	0	0	3767	ausrottung	1	-39,5833333333333285964pct	gütig	engagiert	vertrauen	anregung	sonnig	träumen	gierig	engstirnig	versagen	ausrottung	sterben	töten	vergnügt	genießen	gesittet	besonnen	kuss	kreativ	verbissen	gemein	geizig	bange	krise	krank	0	0	0	0	0	0	0	0	0	0	0	0	0	0	0	0	0	0	0	0	0	0	0	0	0	0	0	0	0	0
2024-05-28	11:36:38	11:46:06	567558	6.6.1	4_exp_EVA_AWA_CON	57	A	B	Rpleas_acq	Same	Rpleas	1pleas	conawa_CS2_US4_confidence	conawa1_nomask	8	6	0	0	300	300	0	0	3767	guess	1	-39,5833333333333285964pct	gütig	engagiert	vertrauen	anregung	sonnig	träumen	gierig	engstirnig	versagen	ausrottung	sterben	töten	vergnügt	genießen	gesittet	besonnen	kuss	kreativ	verbissen	gemein	geizig	bange	krise	krank	0	0	0	0	0	0	0	0	0	0	0	0	0	0	0	0	0	0	0	0	0	0	0	0	0	0	0	0	0	0
2024-05-28	11:36:38	11:46:10	571540	6.6.1	4_exp_EVA_AWA_CON	57	A	B	Rpleas_acq	Same	Rpleas	1pleas	conawa_CS2_US5	conawa1_nomask	8	7	0	0	300	300	0	0	3368	sonnig	1	-39,5833333333333285964pct	gütig	engagiert	vertrauen	anregung	sonnig	träumen	gierig	engstirnig	versagen	ausrottung	sterben	töten	vergnügt	genießen	gesittet	besonnen	kuss	kreativ	verbissen	gemein	geizig	bange	krise	krank	0	0	0	0	0	0	0	0	0	0	0	0	0	0	0	0	0	0	0	0	0	0	0	0	0	0	0	0	0	0
2024-05-28	11:36:38	11:46:10	571541	6.6.1	4_exp_EVA_AWA_CON	57	A	B	Rpleas_acq	Same	Rpleas	1pleas	conawa_CS2_US5_confidence	conawa1_nomask	8	7	0	0	300	300	0	0	3368	guess	1	-39,5833333333333285964pct	gütig	engagiert	vertrauen	anregung	sonnig	träumen	gierig	engstirnig	versagen	ausrottung	sterben	töten	vergnügt	genießen	gesittet	besonnen	kuss	kreativ	verbissen	gemein	geizig	bange	krise	krank	0	0	0	0	0	0	0	0	0	0	0	0	0	0	0	0	0	0	0	0	0	0	0	0	0	0	0	0	0	0
2024-05-28	11:36:38	11:46:15	576263	6.6.1	4_exp_EVA_AWA_CON	57	A	B	Rpleas_acq	Same	Rpleas	1pleas	conawa_CS2_US2	conawa1_nomask	8	8	0	0	300	300	0	0	4112	gesittet	1	-39,5833333333333285964pct	gütig	engagiert	vertrauen	anregung	sonnig	träumen	gierig	engstirnig	versagen	ausrottung	sterben	töten	vergnügt	genießen	gesittet	besonnen	kuss	kreativ	verbissen	gemein	geizig	bange	krise	krank	0	0	0	0	0	0	0	0	0	0	0	0	0	0	0	0	0	0	0	0	0	0	0	0	0	0	0	0	0	0
2024-05-28	11:36:38	11:46:15	576264	6.6.1	4_exp_EVA_AWA_CON	57	A	B	Rpleas_acq	Same	Rpleas	1pleas	conawa_CS2_US2_confidence	conawa1_nomask	8	8	0	0	300	300	0	0	4112	guess	1	-39,5833333333333285964pct	gütig	engagiert	vertrauen	anregung	sonnig	träumen	gierig	engstirnig	versagen	ausrottung	sterben	töten	vergnügt	genießen	gesittet	besonnen	kuss	kreativ	verbissen	gemein	geizig	bange	krise	krank	0	0	0	0	0	0	0	0	0	0	0	0	0	0	0	0	0	0	0	0	0	0	0	0	0	0	0	0	0	0
2024-05-28	11:36:38	11:46:23	584369	6.6.1	4_exp_EVA_AWA_CON	57	A	B	Rpleas_acq	Same	Rpleas	1pleas	conawa_CS1_US1	conawa1_nomask	8	9	0	0	300	300	0	0	7493	verbissen	1	-39,5833333333333285964pct	gütig	engagiert	vertrauen	anregung	sonnig	träumen	gierig	engstirnig	versagen	ausrottung	sterben	töten	vergnügt	genießen	gesittet	besonnen	kuss	kreativ	verbissen	gemein	geizig	bange	krise	krank	0	0	0	0	0	0	0	0	0	0	0	0	0	0	0	0	0	0	0	0	0	0	0	0	0	0	0	0	0	0
2024-05-28	11:36:38	11:46:23	584370	6.6.1	4_exp_EVA_AWA_CON	57	A	B	Rpleas_acq	Same	Rpleas	1pleas	conawa_CS1_US1_confidence	conawa1_nomask	8	9	0	0	300	300	0	0	7493	guess	1	-39,5833333333333285964pct	gütig	engagiert	vertrauen	anregung	sonnig	träumen	gierig	engstirnig	versagen	ausrottung	sterben	töten	vergnügt	genießen	gesittet	besonnen	kuss	kreativ	verbissen	gemein	geizig	bange	krise	krank	0	0	0	0	0	0	0	0	0	0	0	0	0	0	0	0	0	0	0	0	0	0	0	0	0	0	0	0	0	0
2024-05-28	11:36:38	11:46:29	590262	6.6.1	4_exp_EVA_AWA_CON	57	A	B	Rpleas_acq	Same	Rpleas	1pleas	conawa_CS2_US6	conawa1_nomask	8	10	0	0	300	300	0	0	5282	töten	1	-39,5833333333333285964pct	gütig	engagiert	vertrauen	anregung	sonnig	träumen	gierig	engstirnig	versagen	ausrottung	sterben	töten	vergnügt	genießen	gesittet	besonnen	kuss	kreativ	verbissen	gemein	geizig	bange	krise	krank	0	0	0	0	0	0	0	0	0	0	0	0	0	0	0	0	0	0	0	0	0	0	0	0	0	0	0	0	0	0
2024-05-28	11:36:38	11:46:29	590263	6.6.1	4_exp_EVA_AWA_CON	57	A	B	Rpleas_acq	Same	Rpleas	1pleas	conawa_CS2_US6_confidence	conawa1_nomask	8	10	0	0	300	300	0	0	5282	guess	1	-39,5833333333333285964pct	gütig	engagiert	vertrauen	anregung	sonnig	träumen	gierig	engstirnig	versagen	ausrottung	sterben	töten	vergnügt	genießen	gesittet	besonnen	kuss	kreativ	verbissen	gemein	geizig	bange	krise	krank	0	0	0	0	0	0	0	0	0	0	0	0	0	0	0	0	0	0	0	0	0	0	0	0	0	0	0	0	0	0
2024-05-28	11:36:38	11:46:34	595615	6.6.1	4_exp_EVA_AWA_CON	57	A	B	Rpleas_acq	Same	Rpleas	1pleas	conawa_CS1_US4	conawa1_nomask	8	11	0	0	300	300	0	0	4742	anregung	1	-39,5833333333333285964pct	gütig	engagiert	vertrauen	anregung	sonnig	träumen	gierig	engstirnig	versagen	ausrottung	sterben	töten	vergnügt	genießen	gesittet	besonnen	kuss	kreativ	verbissen	gemein	geizig	bange	krise	krank	0	0	0	0	0	0	0	0	0	0	0	0	0	0	0	0	0	0	0	0	0	0	0	0	0	0	0	0	0	0
2024-05-28	11:36:38	11:46:34	595616	6.6.1	4_exp_EVA_AWA_CON	57	A	B	Rpleas_acq	Same	Rpleas	1pleas	conawa_CS1_US4_confidence	conawa1_nomask	8	11	0	0	300	300	0	0	4742	guess	1	-39,5833333333333285964pct	gütig	engagiert	vertrauen	anregung	sonnig	träumen	gierig	engstirnig	versagen	ausrottung	sterben	töten	vergnügt	genießen	gesittet	besonnen	kuss	kreativ	verbissen	gemein	geizig	bange	krise	krank	0	0	0	0	0	0	0	0	0	0	0	0	0	0	0	0	0	0	0	0	0	0	0	0	0	0	0	0	0	0
2024-05-28	11:36:38	11:46:38	599988	6.6.1	4_exp_EVA_AWA_CON	57	A	B	Rpleas_acq	Same	Rpleas	1pleas	conawa_CS2_US1	conawa1_nomask	8	12	0	0	300	300	0	0	3758	gütig	1	-39,5833333333333285964pct	gütig	engagiert	vertrauen	anregung	sonnig	träumen	gierig	engstirnig	versagen	ausrottung	sterben	töten	vergnügt	genießen	gesittet	besonnen	kuss	kreativ	verbissen	gemein	geizig	bange	krise	krank	0	0	0	0	0	0	0	0	0	0	0	0	0	0	0	0	0	0	0	0	0	0	0	0	0	0	0	0	0	0
2024-05-28	11:36:38	11:46:38	599989	6.6.1	4_exp_EVA_AWA_CON	57	A	B	Rpleas_acq	Same	Rpleas	1pleas	conawa_CS2_US1_confidence	conawa1_nomask	8	12	0	0	300	300	0	0	3758	guess	1	-39,5833333333333285964pct	gütig	engagiert	vertrauen	anregung	sonnig	träumen	gierig	engstirnig	versagen	ausrottung	sterben	töten	vergnügt	genießen	gesittet	besonnen	kuss	kreativ	verbissen	gemein	geizig	bange	krise	krank	0	0	0	0	0	0	0	0	0	0	0	0	0	0	0	0	0	0	0	0	0	0	0	0	0	0	0	0	0	0
2024-05-28	11:36:38	11:47:13	635133	6.6.1	4_exp_EVA_AWA_CON	57	A	B	Rpleas_acq	Same	Rpleas	1pleas	cond_US_unple_123_nomask_CS2	condtest_nomask_1	11	1	400	0	300	300	0	0	502	46	1	-39,5833333333333285964pct	gütig	engagiert	vertrauen	anregung	sonnig	träumen	gierig	engstirnig	versagen	ausrottung	sterben	töten	vergnügt	genießen	gesittet	besonnen	kuss	kreativ	verbissen	gemein	geizig	bange	krise	krank	1	blank2r.bmp	0	1	+	0	1	blank2r.bmp	500	1	DHJF	500	1	blank2r.bmp	880	3	engstirnig	880	1	!	1232	1	!	-1	0	0	0	0	0	0
