date	time	currenttime	elapsedtime	build	currentexpt	subject	CS_AB	US_AB	LRpleas_acq	SameOppo	condition_Lpleas	condition_1pleas	trialcode	blockcode	blocknum	trialnum	windowcenter	inwindow	pretrialpause	posttrialpause	trialduration	trialtimeout	latency	response	correct	correctedscore	US_nomask_pleas1	US_nomask_pleas2	US_nomask_pleas3	US_nomask_pleas4	US_nomask_pleas5	US_nomask_pleas6	US_nomask_unple1	US_nomask_unple2	US_nomask_unple3	US_nomask_unple4	US_nomask_unple5	US_nomask_unple6	new_nomask_pleas1	new_nomask_pleas2	new_nomask_pleas3	new_nomask_pleas4	new_nomask_pleas5	new_nomask_pleas6	new_nomask_unple1	new_nomask_unple2	new_nomask_unple3	new_nomask_unple4	new_nomask_unple5	new_nomask_unple6	stimulusnumber1	stimulusitem1	stimulusonset1	stimulusnumber2	stimulusitem2	stimulusonset2	stimulusnumber3	stimulusitem3	stimulusonset3	stimulusnumber4	stimulusitem4	stimulusonset4	stimulusnumber5	stimulusitem5	stimulusonset5	stimulusnumber6	stimulusitem6	stimulusonset6	stimulusnumber7	stimulusitem7	stimulusonset7	stimulusnumber8	stimulusitem8	stimulusonset8	stimulusnumber9	stimulusitem9	stimulusonset9	stimulusnumber10	stimulusitem10	stimulusonset10
2024-05-15	12:16:48	12:17:48	60122	6.6.1	4_exp_EVA_AWA_CON	37	B	A	Rpleas_acq	Same	Rpleas	1pleas	acq_new_pleas_nomask	acq1_nomask	1	1	0	0	300	300	0	0	1900	50	1	0	loyal	helfen	schön	fair	treu	freundlich	lasch	hindern	schlecht	faul	tot	fanatisch	retten	tolerant	schlau	spielen	ehrlich	lachen	rächen	tyrannisch	schroff	strafen	eitel	leiden	1	blank2r.bmp	0	1	+	0	1	blank2r.bmp	500	5	C1r.bmp	500	1	blank2r.bmp	880	5	ehrlich	880	0	0	0	0	0	0	0	0	0	0	0	0
2024-05-15	12:16:48	12:17:52	64090	6.6.1	4_exp_EVA_AWA_CON	37	B	A	Rpleas_acq	Same	Rpleas	1pleas	acq_US_unple_nomask	acq1_nomask	1	2	0	0	300	300	0	0	2486	46	1	0	loyal	helfen	schön	fair	treu	freundlich	lasch	hindern	schlecht	faul	tot	fanatisch	retten	tolerant	schlau	spielen	ehrlich	lachen	rächen	tyrannisch	schroff	strafen	eitel	leiden	1	blank2r.bmp	0	1	+	0	1	blank2r.bmp	500	1	GKQX	500	1	blank2r.bmp	880	6	fanatisch	880	0	0	0	0	0	0	0	0	0	0	0	0
2024-05-15	12:16:48	12:17:57	69194	6.6.1	4_exp_EVA_AWA_CON	37	B	A	Rpleas_acq	Same	Rpleas	1pleas	acq_US_unple_nomask	acq1_nomask	1	3	0	0	300	300	0	0	3617	46	1	0	loyal	helfen	schön	fair	treu	freundlich	lasch	hindern	schlecht	faul	tot	fanatisch	retten	tolerant	schlau	spielen	ehrlich	lachen	rächen	tyrannisch	schroff	strafen	eitel	leiden	1	blank2r.bmp	0	1	+	0	1	blank2r.bmp	500	1	GKQX	500	1	blank2r.bmp	880	3	schlecht	880	0	0	0	0	0	0	0	0	0	0	0	0
2024-05-15	12:16:48	12:17:59	71426	6.6.1	4_exp_EVA_AWA_CON	37	B	A	Rpleas_acq	Same	Rpleas	1pleas	acq_new_unple_nomask	acq1_nomask	1	4	0	0	300	300	0	0	746	46	1	0	loyal	helfen	schön	fair	treu	freundlich	lasch	hindern	schlecht	faul	tot	fanatisch	retten	tolerant	schlau	spielen	ehrlich	lachen	rächen	tyrannisch	schroff	strafen	eitel	leiden	1	blank2r.bmp	0	1	+	0	1	blank2r.bmp	500	3	B3r.bmp	500	1	blank2r.bmp	880	6	leiden	880	0	0	0	0	0	0	0	0	0	0	0	0
2024-05-15	12:16:48	12:18:01	73514	6.6.1	4_exp_EVA_AWA_CON	37	B	A	Rpleas_acq	Same	Rpleas	1pleas	acq_new_pleas_nomask	acq1_nomask	1	5	0	0	300	300	0	0	602	50	1	0	loyal	helfen	schön	fair	treu	freundlich	lasch	hindern	schlecht	faul	tot	fanatisch	retten	tolerant	schlau	spielen	ehrlich	lachen	rächen	tyrannisch	schroff	strafen	eitel	leiden	1	blank2r.bmp	0	1	+	0	1	blank2r.bmp	500	7	C3r.bmp	500	1	blank2r.bmp	880	6	lachen	880	0	0	0	0	0	0	0	0	0	0	0	0
2024-05-15	12:16:48	12:18:04	75706	6.6.1	4_exp_EVA_AWA_CON	37	B	A	Rpleas_acq	Same	Rpleas	1pleas	acq_new_unple_nomask	acq1_nomask	1	6	0	0	300	300	0	0	703	46	1	0	loyal	helfen	schön	fair	treu	freundlich	lasch	hindern	schlecht	faul	tot	fanatisch	retten	tolerant	schlau	spielen	ehrlich	lachen	rächen	tyrannisch	schroff	strafen	eitel	leiden	1	blank2r.bmp	0	1	+	0	1	blank2r.bmp	500	6	C2r.bmp	500	1	blank2r.bmp	880	2	tyrannisch	880	0	0	0	0	0	0	0	0	0	0	0	0
2024-05-15	12:16:48	12:18:06	77802	6.6.1	4_exp_EVA_AWA_CON	37	B	A	Rpleas_acq	Same	Rpleas	1pleas	acq_US_pleas_nomask	acq1_nomask	1	7	0	0	300	300	0	0	608	50	1	0	loyal	helfen	schön	fair	treu	freundlich	lasch	hindern	schlecht	faul	tot	fanatisch	retten	tolerant	schlau	spielen	ehrlich	lachen	rächen	tyrannisch	schroff	strafen	eitel	leiden	1	blank2r.bmp	0	1	+	0	1	blank2r.bmp	500	1	BMVZ	500	1	blank2r.bmp	880	2	helfen	880	0	0	0	0	0	0	0	0	0	0	0	0
2024-05-15	12:16:48	12:18:09	80562	6.6.1	4_exp_EVA_AWA_CON	37	B	A	Rpleas_acq	Same	Rpleas	1pleas	acq_US_unple_nomask	acq1_nomask	1	8	0	0	300	300	0	0	1276	46	1	0	loyal	helfen	schön	fair	treu	freundlich	lasch	hindern	schlecht	faul	tot	fanatisch	retten	tolerant	schlau	spielen	ehrlich	lachen	rächen	tyrannisch	schroff	strafen	eitel	leiden	1	blank2r.bmp	0	1	+	0	1	blank2r.bmp	500	1	GKQX	500	1	blank2r.bmp	880	1	lasch	880	0	0	0	0	0	0	0	0	0	0	0	0
2024-05-15	12:16:48	12:18:11	82578	6.6.1	4_exp_EVA_AWA_CON	37	B	A	Rpleas_acq	Same	Rpleas	1pleas	acq_US_pleas_nomask	acq1_nomask	1	9	0	0	300	300	0	0	531	50	1	0	loyal	helfen	schön	fair	treu	freundlich	lasch	hindern	schlecht	faul	tot	fanatisch	retten	tolerant	schlau	spielen	ehrlich	lachen	rächen	tyrannisch	schroff	strafen	eitel	leiden	1	blank2r.bmp	0	1	+	0	1	blank2r.bmp	500	1	BMVZ	500	1	blank2r.bmp	880	3	schön	880	0	0	0	0	0	0	0	0	0	0	0	0
2024-05-15	12:16:48	12:18:13	84674	6.6.1	4_exp_EVA_AWA_CON	37	B	A	Rpleas_acq	Same	Rpleas	1pleas	acq_US_pleas_nomask	acq1_nomask	1	10	0	0	300	300	0	0	605	50	1	0	loyal	helfen	schön	fair	treu	freundlich	lasch	hindern	schlecht	faul	tot	fanatisch	retten	tolerant	schlau	spielen	ehrlich	lachen	rächen	tyrannisch	schroff	strafen	eitel	leiden	1	blank2r.bmp	0	1	+	0	1	blank2r.bmp	500	1	BMVZ	500	1	blank2r.bmp	880	1	loyal	880	0	0	0	0	0	0	0	0	0	0	0	0
2024-05-15	12:16:48	12:18:15	86980	6.6.1	4_exp_EVA_AWA_CON	37	B	A	Rpleas_acq	Same	Rpleas	1pleas	acq_new_unple_nomask	acq1_nomask	1	11	0	0	300	300	0	0	618	50	0	0	loyal	helfen	schön	fair	treu	freundlich	lasch	hindern	schlecht	faul	tot	fanatisch	retten	tolerant	schlau	spielen	ehrlich	lachen	rächen	tyrannisch	schroff	strafen	eitel	leiden	1	blank2r.bmp	0	1	+	0	1	blank2r.bmp	500	8	C4r.bmp	500	1	blank2r.bmp	880	5	eitel	880	1	FEHLER	1520	0	0	0	0	0	0	0	0	0
2024-05-15	12:16:48	12:18:17	88946	6.6.1	4_exp_EVA_AWA_CON	37	B	A	Rpleas_acq	Same	Rpleas	1pleas	acq_new_pleas_nomask	acq1_nomask	1	12	0	0	300	300	0	0	685	50	1	0	loyal	helfen	schön	fair	treu	freundlich	lasch	hindern	schlecht	faul	tot	fanatisch	retten	tolerant	schlau	spielen	ehrlich	lachen	rächen	tyrannisch	schroff	strafen	eitel	leiden	1	blank2r.bmp	0	1	+	0	1	blank2r.bmp	500	2	B2r.bmp	500	1	blank2r.bmp	880	3	schlau	880	0	0	0	0	0	0	0	0	0	0	0	0
2024-05-15	12:16:48	12:18:19	91026	6.6.1	4_exp_EVA_AWA_CON	37	B	A	Rpleas_acq	Same	Rpleas	1pleas	acq_new_pleas_nomask	acq1_nomask	1	13	0	0	300	300	0	0	593	50	1	0	loyal	helfen	schön	fair	treu	freundlich	lasch	hindern	schlecht	faul	tot	fanatisch	retten	tolerant	schlau	spielen	ehrlich	lachen	rächen	tyrannisch	schroff	strafen	eitel	leiden	1	blank2r.bmp	0	1	+	0	1	blank2r.bmp	500	1	B1r.bmp	500	1	blank2r.bmp	880	1	retten	880	0	0	0	0	0	0	0	0	0	0	0	0
2024-05-15	12:16:48	12:18:21	93330	6.6.1	4_exp_EVA_AWA_CON	37	B	A	Rpleas_acq	Same	Rpleas	1pleas	acq_US_pleas_nomask	acq1_nomask	1	14	0	0	300	300	0	0	816	50	1	0	loyal	helfen	schön	fair	treu	freundlich	lasch	hindern	schlecht	faul	tot	fanatisch	retten	tolerant	schlau	spielen	ehrlich	lachen	rächen	tyrannisch	schroff	strafen	eitel	leiden	1	blank2r.bmp	0	1	+	0	1	blank2r.bmp	500	1	BMVZ	500	1	blank2r.bmp	880	6	freundlich	880	0	0	0	0	0	0	0	0	0	0	0	0
2024-05-15	12:16:48	12:18:24	96282	6.6.1	4_exp_EVA_AWA_CON	37	B	A	Rpleas_acq	Same	Rpleas	1pleas	acq_US_pleas_nomask	acq1_nomask	1	15	0	0	300	300	0	0	1466	50	1	0	loyal	helfen	schön	fair	treu	freundlich	lasch	hindern	schlecht	faul	tot	fanatisch	retten	tolerant	schlau	spielen	ehrlich	lachen	rächen	tyrannisch	schroff	strafen	eitel	leiden	1	blank2r.bmp	0	1	+	0	1	blank2r.bmp	500	1	BMVZ	500	1	blank2r.bmp	880	5	treu	880	0	0	0	0	0	0	0	0	0	0	0	0
2024-05-15	12:16:48	12:18:28	100434	6.6.1	4_exp_EVA_AWA_CON	37	B	A	Rpleas_acq	Same	Rpleas	1pleas	acq_US_unple_nomask	acq1_nomask	1	16	0	0	300	300	0	0	2666	46	1	0	loyal	helfen	schön	fair	treu	freundlich	lasch	hindern	schlecht	faul	tot	fanatisch	retten	tolerant	schlau	spielen	ehrlich	lachen	rächen	tyrannisch	schroff	strafen	eitel	leiden	1	blank2r.bmp	0	1	+	0	1	blank2r.bmp	500	1	GKQX	500	1	blank2r.bmp	880	2	hindern	880	0	0	0	0	0	0	0	0	0	0	0	0
2024-05-15	12:16:48	12:18:31	102730	6.6.1	4_exp_EVA_AWA_CON	37	B	A	Rpleas_acq	Same	Rpleas	1pleas	acq_new_pleas_nomask	acq1_nomask	1	17	0	0	300	300	0	0	810	50	1	0	loyal	helfen	schön	fair	treu	freundlich	lasch	hindern	schlecht	faul	tot	fanatisch	retten	tolerant	schlau	spielen	ehrlich	lachen	rächen	tyrannisch	schroff	strafen	eitel	leiden	1	blank2r.bmp	0	1	+	0	1	blank2r.bmp	500	4	B4r.bmp	500	1	blank2r.bmp	880	4	spielen	880	0	0	0	0	0	0	0	0	0	0	0	0
2024-05-15	12:16:48	12:18:33	104754	6.6.1	4_exp_EVA_AWA_CON	37	B	A	Rpleas_acq	Same	Rpleas	1pleas	acq_US_unple_nomask	acq1_nomask	1	18	0	0	300	300	0	0	542	46	1	0	loyal	helfen	schön	fair	treu	freundlich	lasch	hindern	schlecht	faul	tot	fanatisch	retten	tolerant	schlau	spielen	ehrlich	lachen	rächen	tyrannisch	schroff	strafen	eitel	leiden	1	blank2r.bmp	0	1	+	0	1	blank2r.bmp	500	1	GKQX	500	1	blank2r.bmp	880	5	tot	880	0	0	0	0	0	0	0	0	0	0	0	0
2024-05-15	12:16:48	12:18:35	106962	6.6.1	4_exp_EVA_AWA_CON	37	B	A	Rpleas_acq	Same	Rpleas	1pleas	acq_US_pleas_nomask	acq1_nomask	1	19	0	0	300	300	0	0	719	50	1	0	loyal	helfen	schön	fair	treu	freundlich	lasch	hindern	schlecht	faul	tot	fanatisch	retten	tolerant	schlau	spielen	ehrlich	lachen	rächen	tyrannisch	schroff	strafen	eitel	leiden	1	blank2r.bmp	0	1	+	0	1	blank2r.bmp	500	1	BMVZ	500	1	blank2r.bmp	880	4	fair	880	0	0	0	0	0	0	0	0	0	0	0	0
2024-05-15	12:16:48	12:18:37	109002	6.6.1	4_exp_EVA_AWA_CON	37	B	A	Rpleas_acq	Same	Rpleas	1pleas	acq_new_unple_nomask	acq1_nomask	1	20	0	0	300	300	0	0	558	46	1	0	loyal	helfen	schön	fair	treu	freundlich	lasch	hindern	schlecht	faul	tot	fanatisch	retten	tolerant	schlau	spielen	ehrlich	lachen	rächen	tyrannisch	schroff	strafen	eitel	leiden	1	blank2r.bmp	0	1	+	0	1	blank2r.bmp	500	4	B4r.bmp	500	1	blank2r.bmp	880	1	rächen	880	0	0	0	0	0	0	0	0	0	0	0	0
2024-05-15	12:16:48	12:18:39	111050	6.6.1	4_exp_EVA_AWA_CON	37	B	A	Rpleas_acq	Same	Rpleas	1pleas	acq_new_pleas_nomask	acq1_nomask	1	21	0	0	300	300	0	0	564	50	1	0	loyal	helfen	schön	fair	treu	freundlich	lasch	hindern	schlecht	faul	tot	fanatisch	retten	tolerant	schlau	spielen	ehrlich	lachen	rächen	tyrannisch	schroff	strafen	eitel	leiden	1	blank2r.bmp	0	1	+	0	1	blank2r.bmp	500	5	C1r.bmp	500	1	blank2r.bmp	880	2	tolerant	880	0	0	0	0	0	0	0	0	0	0	0	0
2024-05-15	12:16:48	12:18:41	113066	6.6.1	4_exp_EVA_AWA_CON	37	B	A	Rpleas_acq	Same	Rpleas	1pleas	acq_US_unple_nomask	acq1_nomask	1	22	0	0	300	300	0	0	529	46	1	0	loyal	helfen	schön	fair	treu	freundlich	lasch	hindern	schlecht	faul	tot	fanatisch	retten	tolerant	schlau	spielen	ehrlich	lachen	rächen	tyrannisch	schroff	strafen	eitel	leiden	1	blank2r.bmp	0	1	+	0	1	blank2r.bmp	500	1	GKQX	500	1	blank2r.bmp	880	4	faul	880	0	0	0	0	0	0	0	0	0	0	0	0
2024-05-15	12:16:48	12:18:43	115090	6.6.1	4_exp_EVA_AWA_CON	37	B	A	Rpleas_acq	Same	Rpleas	1pleas	acq_new_unple_nomask	acq1_nomask	1	23	0	0	300	300	0	0	542	46	1	0	loyal	helfen	schön	fair	treu	freundlich	lasch	hindern	schlecht	faul	tot	fanatisch	retten	tolerant	schlau	spielen	ehrlich	lachen	rächen	tyrannisch	schroff	strafen	eitel	leiden	1	blank2r.bmp	0	1	+	0	1	blank2r.bmp	500	7	C3r.bmp	500	1	blank2r.bmp	880	4	strafen	880	0	0	0	0	0	0	0	0	0	0	0	0
2024-05-15	12:16:48	12:18:45	116970	6.6.1	4_exp_EVA_AWA_CON	37	B	A	Rpleas_acq	Same	Rpleas	1pleas	acq_new_unple_nomask	acq1_nomask	1	24	0	0	300	300	0	0	390	46	1	0	loyal	helfen	schön	fair	treu	freundlich	lasch	hindern	schlecht	faul	tot	fanatisch	retten	tolerant	schlau	spielen	ehrlich	lachen	rächen	tyrannisch	schroff	strafen	eitel	leiden	1	blank2r.bmp	0	1	+	0	1	blank2r.bmp	500	1	B1r.bmp	500	1	blank2r.bmp	880	3	schroff	880	0	0	0	0	0	0	0	0	0	0	0	0
2024-05-15	12:16:48	12:18:47	118770	6.6.1	4_exp_EVA_AWA_CON	37	B	A	Rpleas_acq	Same	Rpleas	1pleas	acq_new_pleas_nomask	acq1_nomask	1	25	0	0	300	300	0	0	309	50	1	0	loyal	helfen	schön	fair	treu	freundlich	lasch	hindern	schlecht	faul	tot	fanatisch	retten	tolerant	schlau	spielen	ehrlich	lachen	rächen	tyrannisch	schroff	strafen	eitel	leiden	1	blank2r.bmp	0	1	+	0	1	blank2r.bmp	500	8	C4r.bmp	500	1	blank2r.bmp	880	6	lachen	880	0	0	0	0	0	0	0	0	0	0	0	0
2024-05-15	12:16:48	12:18:49	120586	6.6.1	4_exp_EVA_AWA_CON	37	B	A	Rpleas_acq	Same	Rpleas	1pleas	acq_US_unple_nomask	acq1_nomask	1	26	0	0	300	300	0	0	334	46	1	0	loyal	helfen	schön	fair	treu	freundlich	lasch	hindern	schlecht	faul	tot	fanatisch	retten	tolerant	schlau	spielen	ehrlich	lachen	rächen	tyrannisch	schroff	strafen	eitel	leiden	1	blank2r.bmp	0	1	+	0	1	blank2r.bmp	500	1	GKQX	500	1	blank2r.bmp	880	2	hindern	880	0	0	0	0	0	0	0	0	0	0	0	0
2024-05-15	12:16:48	12:18:50	122378	6.6.1	4_exp_EVA_AWA_CON	37	B	A	Rpleas_acq	Same	Rpleas	1pleas	acq_US_pleas_nomask	acq1_nomask	1	27	0	0	300	300	0	0	305	50	1	0	loyal	helfen	schön	fair	treu	freundlich	lasch	hindern	schlecht	faul	tot	fanatisch	retten	tolerant	schlau	spielen	ehrlich	lachen	rächen	tyrannisch	schroff	strafen	eitel	leiden	1	blank2r.bmp	0	1	+	0	1	blank2r.bmp	500	1	BMVZ	500	1	blank2r.bmp	880	5	treu	880	0	0	0	0	0	0	0	0	0	0	0	0
2024-05-15	12:16:48	12:18:52	124387	6.6.1	4_exp_EVA_AWA_CON	37	B	A	Rpleas_acq	Same	Rpleas	1pleas	acq_US_pleas_nomask	acq1_nomask	1	28	0	0	300	300	0	0	322	46	0	0	loyal	helfen	schön	fair	treu	freundlich	lasch	hindern	schlecht	faul	tot	fanatisch	retten	tolerant	schlau	spielen	ehrlich	lachen	rächen	tyrannisch	schroff	strafen	eitel	leiden	1	blank2r.bmp	0	1	+	0	1	blank2r.bmp	500	1	BMVZ	500	1	blank2r.bmp	880	2	helfen	880	1	FEHLER	1224	0	0	0	0	0	0	0	0	0
2024-05-15	12:16:48	12:18:54	126178	6.6.1	4_exp_EVA_AWA_CON	37	B	A	Rpleas_acq	Same	Rpleas	1pleas	acq_new_pleas_nomask	acq1_nomask	1	29	0	0	300	300	0	0	503	50	1	0	loyal	helfen	schön	fair	treu	freundlich	lasch	hindern	schlecht	faul	tot	fanatisch	retten	tolerant	schlau	spielen	ehrlich	lachen	rächen	tyrannisch	schroff	strafen	eitel	leiden	1	blank2r.bmp	0	1	+	0	1	blank2r.bmp	500	3	B3r.bmp	500	1	blank2r.bmp	880	1	retten	880	0	0	0	0	0	0	0	0	0	0	0	0
2024-05-15	12:16:48	12:18:56	128058	6.6.1	4_exp_EVA_AWA_CON	37	B	A	Rpleas_acq	Same	Rpleas	1pleas	acq_US_pleas_nomask	acq1_nomask	1	30	0	0	300	300	0	0	391	50	1	0	loyal	helfen	schön	fair	treu	freundlich	lasch	hindern	schlecht	faul	tot	fanatisch	retten	tolerant	schlau	spielen	ehrlich	lachen	rächen	tyrannisch	schroff	strafen	eitel	leiden	1	blank2r.bmp	0	1	+	0	1	blank2r.bmp	500	1	BMVZ	500	1	blank2r.bmp	880	3	schön	880	0	0	0	0	0	0	0	0	0	0	0	0
2024-05-15	12:16:48	12:18:58	130043	6.6.1	4_exp_EVA_AWA_CON	37	B	A	Rpleas_acq	Same	Rpleas	1pleas	acq_new_unple_nomask	acq1_nomask	1	31	0	0	300	300	0	0	294	50	0	0	loyal	helfen	schön	fair	treu	freundlich	lasch	hindern	schlecht	faul	tot	fanatisch	retten	tolerant	schlau	spielen	ehrlich	lachen	rächen	tyrannisch	schroff	strafen	eitel	leiden	1	blank2r.bmp	0	1	+	0	1	blank2r.bmp	500	2	B2r.bmp	500	1	blank2r.bmp	880	4	strafen	880	1	FEHLER	1196	0	0	0	0	0	0	0	0	0
2024-05-15	12:16:48	12:19:00	131770	6.6.1	4_exp_EVA_AWA_CON	37	B	A	Rpleas_acq	Same	Rpleas	1pleas	acq_new_pleas_nomask	acq1_nomask	1	32	0	0	300	300	0	0	441	50	1	0	loyal	helfen	schön	fair	treu	freundlich	lasch	hindern	schlecht	faul	tot	fanatisch	retten	tolerant	schlau	spielen	ehrlich	lachen	rächen	tyrannisch	schroff	strafen	eitel	leiden	1	blank2r.bmp	0	1	+	0	1	blank2r.bmp	500	6	C2r.bmp	500	1	blank2r.bmp	880	4	spielen	880	0	0	0	0	0	0	0	0	0	0	0	0
2024-05-15	12:16:48	12:19:02	133786	6.6.1	4_exp_EVA_AWA_CON	37	B	A	Rpleas_acq	Same	Rpleas	1pleas	acq_new_unple_nomask	acq1_nomask	1	33	0	0	300	300	0	0	526	46	1	0	loyal	helfen	schön	fair	treu	freundlich	lasch	hindern	schlecht	faul	tot	fanatisch	retten	tolerant	schlau	spielen	ehrlich	lachen	rächen	tyrannisch	schroff	strafen	eitel	leiden	1	blank2r.bmp	0	1	+	0	1	blank2r.bmp	500	1	B1r.bmp	500	1	blank2r.bmp	880	3	schroff	880	0	0	0	0	0	0	0	0	0	0	0	0
2024-05-15	12:16:48	12:19:04	135754	6.6.1	4_exp_EVA_AWA_CON	37	B	A	Rpleas_acq	Same	Rpleas	1pleas	acq_US_unple_nomask	acq1_nomask	1	34	0	0	300	300	0	0	482	46	1	0	loyal	helfen	schön	fair	treu	freundlich	lasch	hindern	schlecht	faul	tot	fanatisch	retten	tolerant	schlau	spielen	ehrlich	lachen	rächen	tyrannisch	schroff	strafen	eitel	leiden	1	blank2r.bmp	0	1	+	0	1	blank2r.bmp	500	1	GKQX	500	1	blank2r.bmp	880	4	faul	880	0	0	0	0	0	0	0	0	0	0	0	0
2024-05-15	12:16:48	12:19:06	137786	6.6.1	4_exp_EVA_AWA_CON	37	B	A	Rpleas_acq	Same	Rpleas	1pleas	acq_new_unple_nomask	acq1_nomask	1	35	0	0	300	300	0	0	543	46	1	0	loyal	helfen	schön	fair	treu	freundlich	lasch	hindern	schlecht	faul	tot	fanatisch	retten	tolerant	schlau	spielen	ehrlich	lachen	rächen	tyrannisch	schroff	strafen	eitel	leiden	1	blank2r.bmp	0	1	+	0	1	blank2r.bmp	500	3	B3r.bmp	500	1	blank2r.bmp	880	2	tyrannisch	880	0	0	0	0	0	0	0	0	0	0	0	0
2024-05-15	12:16:48	12:19:08	139884	6.6.1	4_exp_EVA_AWA_CON	37	B	A	Rpleas_acq	Same	Rpleas	1pleas	acq_US_unple_nomask	acq1_nomask	1	36	0	0	300	300	0	0	408	50	0	0	loyal	helfen	schön	fair	treu	freundlich	lasch	hindern	schlecht	faul	tot	fanatisch	retten	tolerant	schlau	spielen	ehrlich	lachen	rächen	tyrannisch	schroff	strafen	eitel	leiden	1	blank2r.bmp	0	1	+	0	1	blank2r.bmp	500	1	GKQX	500	1	blank2r.bmp	880	3	schlecht	880	1	FEHLER	1310	0	0	0	0	0	0	0	0	0
2024-05-15	12:16:48	12:19:32	163548	6.6.1	4_exp_EVA_AWA_CON	37	B	A	Rpleas_acq	Same	Rpleas	1pleas	acq_new_pleas_nomask	acq2_nomask	2	1	480	0	300	300	0	0	6463	50	1	0	loyal	helfen	schön	fair	treu	freundlich	lasch	hindern	schlecht	faul	tot	fanatisch	retten	tolerant	schlau	spielen	ehrlich	lachen	rächen	tyrannisch	schroff	strafen	eitel	leiden	1	blank2r.bmp	0	1	+	0	1	blank2r.bmp	500	6	C2r.bmp	500	1	blank2r.bmp	880	3	schlau	880	1	!	1312	1	!	-1	0	0	0	0	0	0
2024-05-15	12:16:48	12:19:35	166879	6.6.1	4_exp_EVA_AWA_CON	37	B	A	Rpleas_acq	Same	Rpleas	1pleas	acq_new_unple_nomask	acq2_nomask	2	2	480	0	300	300	0	0	1345	50	0	0	loyal	helfen	schön	fair	treu	freundlich	lasch	hindern	schlecht	faul	tot	fanatisch	retten	tolerant	schlau	spielen	ehrlich	lachen	rächen	tyrannisch	schroff	strafen	eitel	leiden	1	blank2r.bmp	0	1	+	0	1	blank2r.bmp	500	8	C4r.bmp	500	1	blank2r.bmp	880	5	eitel	880	1	FEHLER	2539	1	!	1312	1	!	-1	0	0	0
2024-05-15	12:16:48	12:19:37	169324	6.6.1	4_exp_EVA_AWA_CON	37	B	A	Rpleas_acq	Same	Rpleas	1pleas	acq_new_unple_nomask	acq2_nomask	2	3	480	0	300	300	0	0	871	46	1	0	loyal	helfen	schön	fair	treu	freundlich	lasch	hindern	schlecht	faul	tot	fanatisch	retten	tolerant	schlau	spielen	ehrlich	lachen	rächen	tyrannisch	schroff	strafen	eitel	leiden	1	blank2r.bmp	0	1	+	0	1	blank2r.bmp	500	4	B4r.bmp	500	1	blank2r.bmp	880	6	leiden	880	1	!	1313	1	!	-1	0	0	0	0	0	0
2024-05-15	12:16:48	12:19:40	171965	6.6.1	4_exp_EVA_AWA_CON	37	B	A	Rpleas_acq	Same	Rpleas	1pleas	acq_new_pleas_nomask	acq2_nomask	2	4	480	0	300	300	0	0	860	50	1	0	loyal	helfen	schön	fair	treu	freundlich	lasch	hindern	schlecht	faul	tot	fanatisch	retten	tolerant	schlau	spielen	ehrlich	lachen	rächen	tyrannisch	schroff	strafen	eitel	leiden	1	blank2r.bmp	0	1	+	0	1	blank2r.bmp	500	2	B2r.bmp	500	1	blank2r.bmp	880	5	ehrlich	880	1	!	1312	1	!	-1	0	0	0	0	0	0
2024-05-15	12:16:48	12:19:42	174364	6.6.1	4_exp_EVA_AWA_CON	37	B	A	Rpleas_acq	Same	Rpleas	1pleas	acq_US_unple_nomask	acq2_nomask	2	5	480	0	300	300	0	0	618	46	1	0	loyal	helfen	schön	fair	treu	freundlich	lasch	hindern	schlecht	faul	tot	fanatisch	retten	tolerant	schlau	spielen	ehrlich	lachen	rächen	tyrannisch	schroff	strafen	eitel	leiden	1	blank2r.bmp	0	1	+	0	1	blank2r.bmp	500	1	GKQX	500	1	blank2r.bmp	880	1	lasch	880	1	!	1312	1	!	-1	0	0	0	0	0	0
2024-05-15	12:16:48	12:19:45	176661	6.6.1	4_exp_EVA_AWA_CON	37	B	A	Rpleas_acq	Same	Rpleas	1pleas	acq_US_pleas_nomask	acq2_nomask	2	6	480	1	300	300	0	0	522	50	1	0	loyal	helfen	schön	fair	treu	freundlich	lasch	hindern	schlecht	faul	tot	fanatisch	retten	tolerant	schlau	spielen	ehrlich	lachen	rächen	tyrannisch	schroff	strafen	eitel	leiden	1	blank2r.bmp	0	1	+	0	1	blank2r.bmp	500	1	BMVZ	500	1	blank2r.bmp	880	4	fair	880	1	!	1313	1	!	1424	0	0	0	0	0	0
2024-05-15	12:16:48	12:19:47	179028	6.6.1	4_exp_EVA_AWA_CON	37	B	A	Rpleas_acq	Same	Rpleas	1pleas	acq_US_unple_nomask	acq2_nomask	2	7	480	0	300	300	0	0	589	46	1	0	loyal	helfen	schön	fair	treu	freundlich	lasch	hindern	schlecht	faul	tot	fanatisch	retten	tolerant	schlau	spielen	ehrlich	lachen	rächen	tyrannisch	schroff	strafen	eitel	leiden	1	blank2r.bmp	0	1	+	0	1	blank2r.bmp	500	1	GKQX	500	1	blank2r.bmp	880	5	tot	880	1	!	1312	1	!	-1	0	0	0	0	0	0
2024-05-15	12:16:48	12:19:49	181384	6.6.1	4_exp_EVA_AWA_CON	37	B	A	Rpleas_acq	Same	Rpleas	1pleas	acq_US_pleas_nomask	acq2_nomask	2	8	480	0	300	300	0	0	369	46	0	0	loyal	helfen	schön	fair	treu	freundlich	lasch	hindern	schlecht	faul	tot	fanatisch	retten	tolerant	schlau	spielen	ehrlich	lachen	rächen	tyrannisch	schroff	strafen	eitel	leiden	1	blank2r.bmp	0	1	+	0	1	blank2r.bmp	500	1	BMVZ	500	1	blank2r.bmp	880	6	freundlich	880	1	FEHLER	1564	1	!	-1	1	!	-1	0	0	0
2024-05-15	12:16:48	12:19:52	183646	6.6.1	4_exp_EVA_AWA_CON	37	B	A	Rpleas_acq	Same	Rpleas	1pleas	acq_new_unple_nomask	acq2_nomask	2	9	480	1	300	300	0	0	482	50	0	0	loyal	helfen	schön	fair	treu	freundlich	lasch	hindern	schlecht	faul	tot	fanatisch	retten	tolerant	schlau	spielen	ehrlich	lachen	rächen	tyrannisch	schroff	strafen	eitel	leiden	1	blank2r.bmp	0	1	+	0	1	blank2r.bmp	500	7	C3r.bmp	500	1	blank2r.bmp	880	1	rächen	880	1	FEHLER	1675	1	!	1312	1	!	1384	0	0	0
2024-05-15	12:16:48	12:19:54	185774	6.6.1	4_exp_EVA_AWA_CON	37	B	A	Rpleas_acq	Same	Rpleas	1pleas	acq_US_pleas_nomask	acq2_nomask	2	10	480	0	300	300	0	0	349	46	0	0	loyal	helfen	schön	fair	treu	freundlich	lasch	hindern	schlecht	faul	tot	fanatisch	retten	tolerant	schlau	spielen	ehrlich	lachen	rächen	tyrannisch	schroff	strafen	eitel	leiden	1	blank2r.bmp	0	1	+	0	1	blank2r.bmp	500	1	BMVZ	500	1	blank2r.bmp	880	1	loyal	880	1	FEHLER	1542	1	!	-1	1	!	-1	0	0	0
2024-05-15	12:16:48	12:19:56	187887	6.6.1	4_exp_EVA_AWA_CON	37	B	A	Rpleas_acq	Same	Rpleas	1pleas	acq_new_pleas_nomask	acq2_nomask	2	11	480	0	300	300	0	0	329	46	0	0	loyal	helfen	schön	fair	treu	freundlich	lasch	hindern	schlecht	faul	tot	fanatisch	retten	tolerant	schlau	spielen	ehrlich	lachen	rächen	tyrannisch	schroff	strafen	eitel	leiden	1	blank2r.bmp	0	1	+	0	1	blank2r.bmp	500	5	C1r.bmp	500	1	blank2r.bmp	880	2	tolerant	880	1	FEHLER	1523	1	!	-1	1	!	-1	0	0	0
2024-05-15	12:16:48	12:19:58	189828	6.6.1	4_exp_EVA_AWA_CON	37	B	A	Rpleas_acq	Same	Rpleas	1pleas	acq_US_unple_nomask	acq2_nomask	2	12	480	0	300	300	0	0	362	46	1	0	loyal	helfen	schön	fair	treu	freundlich	lasch	hindern	schlecht	faul	tot	fanatisch	retten	tolerant	schlau	spielen	ehrlich	lachen	rächen	tyrannisch	schroff	strafen	eitel	leiden	1	blank2r.bmp	0	1	+	0	1	blank2r.bmp	500	1	GKQX	500	1	blank2r.bmp	880	6	fanatisch	880	1	!	-1	1	!	-1	0	0	0	0	0	0
2024-05-15	12:16:48	12:20:00	192183	6.6.1	4_exp_EVA_AWA_CON	37	B	A	Rpleas_acq	Same	Rpleas	1pleas	acq_new_pleas_nomask	acq2_nomask	2	13	480	0	300	300	0	0	372	46	0	0	loyal	helfen	schön	fair	treu	freundlich	lasch	hindern	schlecht	faul	tot	fanatisch	retten	tolerant	schlau	spielen	ehrlich	lachen	rächen	tyrannisch	schroff	strafen	eitel	leiden	1	blank2r.bmp	0	1	+	0	1	blank2r.bmp	500	2	B2r.bmp	500	1	blank2r.bmp	880	6	lachen	880	1	FEHLER	1566	1	!	-1	1	!	-1	0	0	0
2024-05-15	12:16:48	12:20:02	194068	6.6.1	4_exp_EVA_AWA_CON	37	B	A	Rpleas_acq	Same	Rpleas	1pleas	acq_new_pleas_nomask	acq2_nomask	2	14	480	0	300	300	0	0	309	50	1	0	loyal	helfen	schön	fair	treu	freundlich	lasch	hindern	schlecht	faul	tot	fanatisch	retten	tolerant	schlau	spielen	ehrlich	lachen	rächen	tyrannisch	schroff	strafen	eitel	leiden	1	blank2r.bmp	0	1	+	0	1	blank2r.bmp	500	1	B1r.bmp	500	1	blank2r.bmp	880	4	spielen	880	1	!	-1	1	!	-1	0	0	0	0	0	0
2024-05-15	12:16:48	12:20:04	196494	6.6.1	4_exp_EVA_AWA_CON	37	B	A	Rpleas_acq	Same	Rpleas	1pleas	acq_US_pleas_nomask	acq2_nomask	2	15	480	1	300	300	0	0	442	46	0	0	loyal	helfen	schön	fair	treu	freundlich	lasch	hindern	schlecht	faul	tot	fanatisch	retten	tolerant	schlau	spielen	ehrlich	lachen	rächen	tyrannisch	schroff	strafen	eitel	leiden	1	blank2r.bmp	0	1	+	0	1	blank2r.bmp	500	1	BMVZ	500	1	blank2r.bmp	880	3	schön	880	1	FEHLER	1635	1	!	1312	1	!	1343	0	0	0
2024-05-15	12:16:48	12:20:07	198660	6.6.1	4_exp_EVA_AWA_CON	37	B	A	Rpleas_acq	Same	Rpleas	1pleas	acq_US_unple_nomask	acq2_nomask	2	16	480	0	300	300	0	0	588	46	1	0	loyal	helfen	schön	fair	treu	freundlich	lasch	hindern	schlecht	faul	tot	fanatisch	retten	tolerant	schlau	spielen	ehrlich	lachen	rächen	tyrannisch	schroff	strafen	eitel	leiden	1	blank2r.bmp	0	1	+	0	1	blank2r.bmp	500	1	GKQX	500	1	blank2r.bmp	880	3	schlecht	880	1	!	1312	1	!	-1	0	0	0	0	0	0
2024-05-15	12:16:48	12:20:09	200804	6.6.1	4_exp_EVA_AWA_CON	37	B	A	Rpleas_acq	Same	Rpleas	1pleas	acq_new_unple_nomask	acq2_nomask	2	17	480	0	300	300	0	0	371	46	1	0	loyal	helfen	schön	fair	treu	freundlich	lasch	hindern	schlecht	faul	tot	fanatisch	retten	tolerant	schlau	spielen	ehrlich	lachen	rächen	tyrannisch	schroff	strafen	eitel	leiden	1	blank2r.bmp	0	1	+	0	1	blank2r.bmp	500	8	C4r.bmp	500	1	blank2r.bmp	880	5	eitel	880	1	!	-1	1	!	-1	0	0	0	0	0	0
2024-05-15	12:16:48	12:20:11	202964	6.6.1	4_exp_EVA_AWA_CON	37	B	A	Rpleas_acq	Same	Rpleas	1pleas	acq_US_pleas_nomask	acq2_nomask	2	18	480	0	300	300	0	0	379	50	1	0	loyal	helfen	schön	fair	treu	freundlich	lasch	hindern	schlecht	faul	tot	fanatisch	retten	tolerant	schlau	spielen	ehrlich	lachen	rächen	tyrannisch	schroff	strafen	eitel	leiden	1	blank2r.bmp	0	1	+	0	1	blank2r.bmp	500	1	BMVZ	500	1	blank2r.bmp	880	6	freundlich	880	1	!	-1	1	!	-1	0	0	0	0	0	0
2024-05-15	12:16:48	12:20:13	205253	6.6.1	4_exp_EVA_AWA_CON	37	B	A	Rpleas_acq	Same	Rpleas	1pleas	acq_new_unple_nomask	acq2_nomask	2	19	480	1	300	300	0	0	506	46	1	0	loyal	helfen	schön	fair	treu	freundlich	lasch	hindern	schlecht	faul	tot	fanatisch	retten	tolerant	schlau	spielen	ehrlich	lachen	rächen	tyrannisch	schroff	strafen	eitel	leiden	1	blank2r.bmp	0	1	+	0	1	blank2r.bmp	500	3	B3r.bmp	500	1	blank2r.bmp	880	6	leiden	880	1	!	1312	1	!	1408	0	0	0	0	0	0
2024-05-15	12:16:48	12:20:15	207332	6.6.1	4_exp_EVA_AWA_CON	37	B	A	Rpleas_acq	Same	Rpleas	1pleas	acq_US_unple_nomask	acq2_nomask	2	20	480	0	300	300	0	0	305	46	1	0	loyal	helfen	schön	fair	treu	freundlich	lasch	hindern	schlecht	faul	tot	fanatisch	retten	tolerant	schlau	spielen	ehrlich	lachen	rächen	tyrannisch	schroff	strafen	eitel	leiden	1	blank2r.bmp	0	1	+	0	1	blank2r.bmp	500	1	GKQX	500	1	blank2r.bmp	880	4	faul	880	1	!	-1	1	!	-1	0	0	0	0	0	0
2024-05-15	12:16:48	12:20:18	209724	6.6.1	4_exp_EVA_AWA_CON	37	B	A	Rpleas_acq	Same	Rpleas	1pleas	acq_new_unple_nomask	acq2_nomask	2	21	480	0	300	300	0	0	615	46	1	0	loyal	helfen	schön	fair	treu	freundlich	lasch	hindern	schlecht	faul	tot	fanatisch	retten	tolerant	schlau	spielen	ehrlich	lachen	rächen	tyrannisch	schroff	strafen	eitel	leiden	1	blank2r.bmp	0	1	+	0	1	blank2r.bmp	500	6	C2r.bmp	500	1	blank2r.bmp	880	4	strafen	880	1	!	1313	1	!	-1	0	0	0	0	0	0
2024-05-15	12:16:48	12:20:20	212032	6.6.1	4_exp_EVA_AWA_CON	37	B	A	Rpleas_acq	Same	Rpleas	1pleas	acq_new_pleas_nomask	acq2_nomask	2	22	480	0	300	300	0	0	328	46	0	0	loyal	helfen	schön	fair	treu	freundlich	lasch	hindern	schlecht	faul	tot	fanatisch	retten	tolerant	schlau	spielen	ehrlich	lachen	rächen	tyrannisch	schroff	strafen	eitel	leiden	1	blank2r.bmp	0	1	+	0	1	blank2r.bmp	500	7	C3r.bmp	500	1	blank2r.bmp	880	5	ehrlich	880	1	FEHLER	1522	1	!	-1	1	!	-1	0	0	0
2024-05-15	12:16:48	12:20:22	214037	6.6.1	4_exp_EVA_AWA_CON	37	B	A	Rpleas_acq	Same	Rpleas	1pleas	acq_US_pleas_nomask	acq2_nomask	2	23	480	1	300	300	0	0	434	50	1	0	loyal	helfen	schön	fair	treu	freundlich	lasch	hindern	schlecht	faul	tot	fanatisch	retten	tolerant	schlau	spielen	ehrlich	lachen	rächen	tyrannisch	schroff	strafen	eitel	leiden	1	blank2r.bmp	0	1	+	0	1	blank2r.bmp	500	1	BMVZ	500	1	blank2r.bmp	880	2	helfen	880	1	!	1312	1	!	1336	0	0	0	0	0	0
2024-05-15	12:16:48	12:20:24	216303	6.6.1	4_exp_EVA_AWA_CON	37	B	A	Rpleas_acq	Same	Rpleas	1pleas	acq_US_unple_nomask	acq2_nomask	2	24	480	0	300	300	0	0	287	50	0	0	loyal	helfen	schön	fair	treu	freundlich	lasch	hindern	schlecht	faul	tot	fanatisch	retten	tolerant	schlau	spielen	ehrlich	lachen	rächen	tyrannisch	schroff	strafen	eitel	leiden	1	blank2r.bmp	0	1	+	0	1	blank2r.bmp	500	1	GKQX	500	1	blank2r.bmp	880	5	tot	880	1	FEHLER	1480	1	!	-1	1	!	-1	0	0	0
2024-05-15	12:16:48	12:20:26	218357	6.6.1	4_exp_EVA_AWA_CON	37	B	A	Rpleas_acq	Same	Rpleas	1pleas	acq_US_pleas_nomask	acq2_nomask	2	25	480	1	300	300	0	0	482	50	1	0	loyal	helfen	schön	fair	treu	freundlich	lasch	hindern	schlecht	faul	tot	fanatisch	retten	tolerant	schlau	spielen	ehrlich	lachen	rächen	tyrannisch	schroff	strafen	eitel	leiden	1	blank2r.bmp	0	1	+	0	1	blank2r.bmp	500	1	BMVZ	500	1	blank2r.bmp	880	5	treu	880	1	!	1312	1	!	1383	0	0	0	0	0	0
2024-05-15	12:16:48	12:20:29	220647	6.6.1	4_exp_EVA_AWA_CON	37	B	A	Rpleas_acq	Same	Rpleas	1pleas	acq_new_pleas_nomask	acq2_nomask	2	26	480	0	300	300	0	0	308	46	0	0	loyal	helfen	schön	fair	treu	freundlich	lasch	hindern	schlecht	faul	tot	fanatisch	retten	tolerant	schlau	spielen	ehrlich	lachen	rächen	tyrannisch	schroff	strafen	eitel	leiden	1	blank2r.bmp	0	1	+	0	1	blank2r.bmp	500	4	B4r.bmp	500	1	blank2r.bmp	880	2	tolerant	880	1	FEHLER	1502	1	!	-1	1	!	-1	0	0	0
2024-05-15	12:16:48	12:20:31	222653	6.6.1	4_exp_EVA_AWA_CON	37	B	A	Rpleas_acq	Same	Rpleas	1pleas	acq_new_pleas_nomask	acq2_nomask	2	27	480	1	300	300	0	0	435	50	1	0	loyal	helfen	schön	fair	treu	freundlich	lasch	hindern	schlecht	faul	tot	fanatisch	retten	tolerant	schlau	spielen	ehrlich	lachen	rächen	tyrannisch	schroff	strafen	eitel	leiden	1	blank2r.bmp	0	1	+	0	1	blank2r.bmp	500	5	C1r.bmp	500	1	blank2r.bmp	880	1	retten	880	1	!	1313	1	!	1337	0	0	0	0	0	0
2024-05-15	12:16:48	12:20:33	225044	6.6.1	4_exp_EVA_AWA_CON	37	B	A	Rpleas_acq	Same	Rpleas	1pleas	acq_US_unple_nomask	acq2_nomask	2	28	480	0	300	300	0	0	615	46	1	0	loyal	helfen	schön	fair	treu	freundlich	lasch	hindern	schlecht	faul	tot	fanatisch	retten	tolerant	schlau	spielen	ehrlich	lachen	rächen	tyrannisch	schroff	strafen	eitel	leiden	1	blank2r.bmp	0	1	+	0	1	blank2r.bmp	500	1	GKQX	500	1	blank2r.bmp	880	1	lasch	880	1	!	1313	1	!	-1	0	0	0	0	0	0
2024-05-15	12:16:48	12:20:35	227452	6.6.1	4_exp_EVA_AWA_CON	37	B	A	Rpleas_acq	Same	Rpleas	1pleas	acq_new_unple_nomask	acq2_nomask	2	29	480	0	300	300	0	0	632	46	1	0	loyal	helfen	schön	fair	treu	freundlich	lasch	hindern	schlecht	faul	tot	fanatisch	retten	tolerant	schlau	spielen	ehrlich	lachen	rächen	tyrannisch	schroff	strafen	eitel	leiden	1	blank2r.bmp	0	1	+	0	1	blank2r.bmp	500	7	C3r.bmp	500	1	blank2r.bmp	880	3	schroff	880	1	!	1313	1	!	-1	0	0	0	0	0	0
2024-05-15	12:16:48	12:20:38	229844	6.6.1	4_exp_EVA_AWA_CON	37	B	A	Rpleas_acq	Same	Rpleas	1pleas	acq_US_unple_nomask	acq2_nomask	2	30	480	0	300	300	0	0	612	46	1	0	loyal	helfen	schön	fair	treu	freundlich	lasch	hindern	schlecht	faul	tot	fanatisch	retten	tolerant	schlau	spielen	ehrlich	lachen	rächen	tyrannisch	schroff	strafen	eitel	leiden	1	blank2r.bmp	0	1	+	0	1	blank2r.bmp	500	1	GKQX	500	1	blank2r.bmp	880	6	fanatisch	880	1	!	1312	1	!	-1	0	0	0	0	0	0
2024-05-15	12:16:48	12:20:40	232135	6.6.1	4_exp_EVA_AWA_CON	37	B	A	Rpleas_acq	Same	Rpleas	1pleas	acq_US_pleas_nomask	acq2_nomask	2	31	480	0	300	300	0	0	309	46	0	0	loyal	helfen	schön	fair	treu	freundlich	lasch	hindern	schlecht	faul	tot	fanatisch	retten	tolerant	schlau	spielen	ehrlich	lachen	rächen	tyrannisch	schroff	strafen	eitel	leiden	1	blank2r.bmp	0	1	+	0	1	blank2r.bmp	500	1	BMVZ	500	1	blank2r.bmp	880	1	loyal	880	1	FEHLER	1503	1	!	-1	1	!	-1	0	0	0
2024-05-15	12:16:48	12:20:42	234237	6.6.1	4_exp_EVA_AWA_CON	37	B	A	Rpleas_acq	Same	Rpleas	1pleas	acq_new_unple_nomask	acq2_nomask	2	32	480	1	300	300	0	0	521	46	1	0	loyal	helfen	schön	fair	treu	freundlich	lasch	hindern	schlecht	faul	tot	fanatisch	retten	tolerant	schlau	spielen	ehrlich	lachen	rächen	tyrannisch	schroff	strafen	eitel	leiden	1	blank2r.bmp	0	1	+	0	1	blank2r.bmp	500	2	B2r.bmp	500	1	blank2r.bmp	880	2	tyrannisch	880	1	!	1312	1	!	1423	0	0	0	0	0	0
2024-05-15	12:16:48	12:20:45	236670	6.6.1	4_exp_EVA_AWA_CON	37	B	A	Rpleas_acq	Same	Rpleas	1pleas	acq_US_pleas_nomask	acq2_nomask	2	33	480	1	300	300	0	0	452	46	0	0	loyal	helfen	schön	fair	treu	freundlich	lasch	hindern	schlecht	faul	tot	fanatisch	retten	tolerant	schlau	spielen	ehrlich	lachen	rächen	tyrannisch	schroff	strafen	eitel	leiden	1	blank2r.bmp	0	1	+	0	1	blank2r.bmp	500	1	BMVZ	500	1	blank2r.bmp	880	4	fair	880	1	FEHLER	1645	1	!	1312	1	!	1353	0	0	0
2024-05-15	12:16:48	12:20:47	238765	6.6.1	4_exp_EVA_AWA_CON	37	B	A	Rpleas_acq	Same	Rpleas	1pleas	acq_new_unple_nomask	acq2_nomask	2	34	480	1	300	300	0	0	517	46	1	0	loyal	helfen	schön	fair	treu	freundlich	lasch	hindern	schlecht	faul	tot	fanatisch	retten	tolerant	schlau	spielen	ehrlich	lachen	rächen	tyrannisch	schroff	strafen	eitel	leiden	1	blank2r.bmp	0	1	+	0	1	blank2r.bmp	500	1	B1r.bmp	500	1	blank2r.bmp	880	1	rächen	880	1	!	1312	1	!	1418	0	0	0	0	0	0
2024-05-15	12:16:48	12:20:49	240892	6.6.1	4_exp_EVA_AWA_CON	37	B	A	Rpleas_acq	Same	Rpleas	1pleas	acq_US_unple_nomask	acq2_nomask	2	35	480	0	300	300	0	0	353	46	1	0	loyal	helfen	schön	fair	treu	freundlich	lasch	hindern	schlecht	faul	tot	fanatisch	retten	tolerant	schlau	spielen	ehrlich	lachen	rächen	tyrannisch	schroff	strafen	eitel	leiden	1	blank2r.bmp	0	1	+	0	1	blank2r.bmp	500	1	GKQX	500	1	blank2r.bmp	880	2	hindern	880	1	!	-1	1	!	-1	0	0	0	0	0	0
2024-05-15	12:16:48	12:20:51	243244	6.6.1	4_exp_EVA_AWA_CON	37	B	A	Rpleas_acq	Same	Rpleas	1pleas	acq_new_pleas_nomask	acq2_nomask	2	36	480	0	300	300	0	0	574	50	1	0	loyal	helfen	schön	fair	treu	freundlich	lasch	hindern	schlecht	faul	tot	fanatisch	retten	tolerant	schlau	spielen	ehrlich	lachen	rächen	tyrannisch	schroff	strafen	eitel	leiden	1	blank2r.bmp	0	1	+	0	1	blank2r.bmp	500	5	C1r.bmp	500	1	blank2r.bmp	880	3	schlau	880	1	!	1313	1	!	-1	0	0	0	0	0	0
2024-05-15	12:16:48	12:21:03	254788	6.6.1	4_exp_EVA_AWA_CON	37	B	A	Rpleas_acq	Same	Rpleas	1pleas	acq_US_unple_nomask	acq3_nomask	3	1	453	0	300	300	0	0	3272	46	1	0	loyal	helfen	schön	fair	treu	freundlich	lasch	hindern	schlecht	faul	tot	fanatisch	retten	tolerant	schlau	spielen	ehrlich	lachen	rächen	tyrannisch	schroff	strafen	eitel	leiden	1	blank2r.bmp	0	1	+	0	1	blank2r.bmp	500	1	GKQX	500	1	blank2r.bmp	880	5	tot	880	1	!	1293	1	!	-1	0	0	0	0	0	0
2024-05-15	12:16:48	12:21:06	258204	6.6.1	4_exp_EVA_AWA_CON	37	B	A	Rpleas_acq	Same	Rpleas	1pleas	acq_US_unple_nomask	acq3_nomask	3	2	453	0	300	300	0	0	1635	46	1	0	loyal	helfen	schön	fair	treu	freundlich	lasch	hindern	schlecht	faul	tot	fanatisch	retten	tolerant	schlau	spielen	ehrlich	lachen	rächen	tyrannisch	schroff	strafen	eitel	leiden	1	blank2r.bmp	0	1	+	0	1	blank2r.bmp	500	1	GKQX	500	1	blank2r.bmp	880	2	hindern	880	1	!	1292	1	!	-1	0	0	0	0	0	0
2024-05-15	12:16:48	12:21:08	260372	6.6.1	4_exp_EVA_AWA_CON	37	B	A	Rpleas_acq	Same	Rpleas	1pleas	acq_US_unple_nomask	acq3_nomask	3	3	453	0	300	300	0	0	391	46	1	0	loyal	helfen	schön	fair	treu	freundlich	lasch	hindern	schlecht	faul	tot	fanatisch	retten	tolerant	schlau	spielen	ehrlich	lachen	rächen	tyrannisch	schroff	strafen	eitel	leiden	1	blank2r.bmp	0	1	+	0	1	blank2r.bmp	500	1	GKQX	500	1	blank2r.bmp	880	3	schlecht	880	1	!	-1	1	!	-1	0	0	0	0	0	0
2024-05-15	12:16:48	12:21:11	262732	6.6.1	4_exp_EVA_AWA_CON	37	B	A	Rpleas_acq	Same	Rpleas	1pleas	acq_US_unple_nomask	acq3_nomask	3	4	453	0	300	300	0	0	579	46	1	0	loyal	helfen	schön	fair	treu	freundlich	lasch	hindern	schlecht	faul	tot	fanatisch	retten	tolerant	schlau	spielen	ehrlich	lachen	rächen	tyrannisch	schroff	strafen	eitel	leiden	1	blank2r.bmp	0	1	+	0	1	blank2r.bmp	500	1	GKQX	500	1	blank2r.bmp	880	6	fanatisch	880	1	!	1293	1	!	-1	0	0	0	0	0	0
2024-05-15	12:16:48	12:21:13	264812	6.6.1	4_exp_EVA_AWA_CON	37	B	A	Rpleas_acq	Same	Rpleas	1pleas	acq_US_pleas_nomask	acq3_nomask	3	5	453	0	300	300	0	0	298	50	1	0	loyal	helfen	schön	fair	treu	freundlich	lasch	hindern	schlecht	faul	tot	fanatisch	retten	tolerant	schlau	spielen	ehrlich	lachen	rächen	tyrannisch	schroff	strafen	eitel	leiden	1	blank2r.bmp	0	1	+	0	1	blank2r.bmp	500	1	BMVZ	500	1	blank2r.bmp	880	2	helfen	880	1	!	-1	1	!	-1	0	0	0	0	0	0
2024-05-15	12:16:48	12:21:15	267124	6.6.1	4_exp_EVA_AWA_CON	37	B	A	Rpleas_acq	Same	Rpleas	1pleas	acq_US_pleas_nomask	acq3_nomask	3	6	453	0	300	300	0	0	538	50	1	0	loyal	helfen	schön	fair	treu	freundlich	lasch	hindern	schlecht	faul	tot	fanatisch	retten	tolerant	schlau	spielen	ehrlich	lachen	rächen	tyrannisch	schroff	strafen	eitel	leiden	1	blank2r.bmp	0	1	+	0	1	blank2r.bmp	500	1	BMVZ	500	1	blank2r.bmp	880	6	freundlich	880	1	!	1292	1	!	-1	0	0	0	0	0	0
2024-05-15	12:16:48	12:21:17	269236	6.6.1	4_exp_EVA_AWA_CON	37	B	A	Rpleas_acq	Same	Rpleas	1pleas	acq_US_unple_nomask	acq3_nomask	3	7	453	0	300	300	0	0	339	46	1	0	loyal	helfen	schön	fair	treu	freundlich	lasch	hindern	schlecht	faul	tot	fanatisch	retten	tolerant	schlau	spielen	ehrlich	lachen	rächen	tyrannisch	schroff	strafen	eitel	leiden	1	blank2r.bmp	0	1	+	0	1	blank2r.bmp	500	1	GKQX	500	1	blank2r.bmp	880	4	faul	880	1	!	-1	1	!	-1	0	0	0	0	0	0
2024-05-15	12:16:48	12:21:20	271779	6.6.1	4_exp_EVA_AWA_CON	37	B	A	Rpleas_acq	Same	Rpleas	1pleas	acq_US_pleas_nomask	acq3_nomask	3	8	453	0	300	300	0	0	762	50	1	0	loyal	helfen	schön	fair	treu	freundlich	lasch	hindern	schlecht	faul	tot	fanatisch	retten	tolerant	schlau	spielen	ehrlich	lachen	rächen	tyrannisch	schroff	strafen	eitel	leiden	1	blank2r.bmp	0	1	+	0	1	blank2r.bmp	500	1	BMVZ	500	1	blank2r.bmp	880	4	fair	880	1	!	1292	1	!	-1	0	0	0	0	0	0
2024-05-15	12:16:48	12:21:22	274082	6.6.1	4_exp_EVA_AWA_CON	37	B	A	Rpleas_acq	Same	Rpleas	1pleas	acq_US_unple_nomask	acq3_nomask	3	9	453	0	300	300	0	0	524	46	1	0	loyal	helfen	schön	fair	treu	freundlich	lasch	hindern	schlecht	faul	tot	fanatisch	retten	tolerant	schlau	spielen	ehrlich	lachen	rächen	tyrannisch	schroff	strafen	eitel	leiden	1	blank2r.bmp	0	1	+	0	1	blank2r.bmp	500	1	GKQX	500	1	blank2r.bmp	880	1	lasch	880	1	!	1292	1	!	-1	0	0	0	0	0	0
2024-05-15	12:16:48	12:21:25	276583	6.6.1	4_exp_EVA_AWA_CON	37	B	A	Rpleas_acq	Same	Rpleas	1pleas	acq_US_pleas_nomask	acq3_nomask	3	10	453	1	300	300	0	0	518	46	0	0	loyal	helfen	schön	fair	treu	freundlich	lasch	hindern	schlecht	faul	tot	fanatisch	retten	tolerant	schlau	spielen	ehrlich	lachen	rächen	tyrannisch	schroff	strafen	eitel	leiden	1	blank2r.bmp	0	1	+	0	1	blank2r.bmp	500	1	BMVZ	500	1	blank2r.bmp	880	5	treu	880	1	FEHLER	1712	1	!	1293	1	!	1420	0	0	0
2024-05-15	12:16:48	12:21:27	278924	6.6.1	4_exp_EVA_AWA_CON	37	B	A	Rpleas_acq	Same	Rpleas	1pleas	acq_US_pleas_nomask	acq3_nomask	3	11	453	0	300	300	0	0	761	50	1	0	loyal	helfen	schön	fair	treu	freundlich	lasch	hindern	schlecht	faul	tot	fanatisch	retten	tolerant	schlau	spielen	ehrlich	lachen	rächen	tyrannisch	schroff	strafen	eitel	leiden	1	blank2r.bmp	0	1	+	0	1	blank2r.bmp	500	1	BMVZ	500	1	blank2r.bmp	880	1	loyal	880	1	!	1292	1	!	-1	0	0	0	0	0	0
2024-05-15	12:16:48	12:21:29	281141	6.6.1	4_exp_EVA_AWA_CON	37	B	A	Rpleas_acq	Same	Rpleas	1pleas	acq_US_pleas_nomask	acq3_nomask	3	12	453	1	300	300	0	0	435	50	1	0	loyal	helfen	schön	fair	treu	freundlich	lasch	hindern	schlecht	faul	tot	fanatisch	retten	tolerant	schlau	spielen	ehrlich	lachen	rächen	tyrannisch	schroff	strafen	eitel	leiden	1	blank2r.bmp	0	1	+	0	1	blank2r.bmp	500	1	BMVZ	500	1	blank2r.bmp	880	3	schön	880	1	!	1292	1	!	1337	0	0	0	0	0	0
2024-05-15	12:16:48	12:21:31	283381	6.6.1	4_exp_EVA_AWA_CON	37	B	A	Rpleas_acq	Same	Rpleas	1pleas	acq_US_pleas_nomask	acq3_nomask	3	13	453	1	300	300	0	0	464	50	1	0	loyal	helfen	schön	fair	treu	freundlich	lasch	hindern	schlecht	faul	tot	fanatisch	retten	tolerant	schlau	spielen	ehrlich	lachen	rächen	tyrannisch	schroff	strafen	eitel	leiden	1	blank2r.bmp	0	1	+	0	1	blank2r.bmp	500	1	BMVZ	500	1	blank2r.bmp	880	5	treu	880	1	!	1292	1	!	1365	0	0	0	0	0	0
2024-05-15	12:16:48	12:21:34	285788	6.6.1	4_exp_EVA_AWA_CON	37	B	A	Rpleas_acq	Same	Rpleas	1pleas	acq_US_pleas_nomask	acq3_nomask	3	14	453	0	300	300	0	0	630	50	1	0	loyal	helfen	schön	fair	treu	freundlich	lasch	hindern	schlecht	faul	tot	fanatisch	retten	tolerant	schlau	spielen	ehrlich	lachen	rächen	tyrannisch	schroff	strafen	eitel	leiden	1	blank2r.bmp	0	1	+	0	1	blank2r.bmp	500	1	BMVZ	500	1	blank2r.bmp	880	4	fair	880	1	!	1293	1	!	-1	0	0	0	0	0	0
2024-05-15	12:16:48	12:21:37	289207	6.6.1	4_exp_EVA_AWA_CON	37	B	A	Rpleas_acq	Same	Rpleas	1pleas	acq_US_unple_nomask	acq3_nomask	3	15	453	0	300	300	0	0	1435	50	0	0	loyal	helfen	schön	fair	treu	freundlich	lasch	hindern	schlecht	faul	tot	fanatisch	retten	tolerant	schlau	spielen	ehrlich	lachen	rächen	tyrannisch	schroff	strafen	eitel	leiden	1	blank2r.bmp	0	1	+	0	1	blank2r.bmp	500	1	GKQX	500	1	blank2r.bmp	880	5	tot	880	1	FEHLER	2629	1	!	1293	1	!	-1	0	0	0
2024-05-15	12:16:48	12:21:39	291044	6.6.1	4_exp_EVA_AWA_CON	37	B	A	Rpleas_acq	Same	Rpleas	1pleas	acq_US_unple_nomask	acq3_nomask	3	16	453	0	300	300	0	0	263	46	1	0	loyal	helfen	schön	fair	treu	freundlich	lasch	hindern	schlecht	faul	tot	fanatisch	retten	tolerant	schlau	spielen	ehrlich	lachen	rächen	tyrannisch	schroff	strafen	eitel	leiden	1	blank2r.bmp	0	1	+	0	1	blank2r.bmp	500	1	GKQX	500	1	blank2r.bmp	880	6	fanatisch	880	1	!	-1	1	!	-1	0	0	0	0	0	0
2024-05-15	12:16:48	12:21:41	293431	6.6.1	4_exp_EVA_AWA_CON	37	B	A	Rpleas_acq	Same	Rpleas	1pleas	acq_US_unple_nomask	acq3_nomask	3	17	453	1	300	300	0	0	405	50	0	0	loyal	helfen	schön	fair	treu	freundlich	lasch	hindern	schlecht	faul	tot	fanatisch	retten	tolerant	schlau	spielen	ehrlich	lachen	rächen	tyrannisch	schroff	strafen	eitel	leiden	1	blank2r.bmp	0	1	+	0	1	blank2r.bmp	500	1	GKQX	500	1	blank2r.bmp	880	4	faul	880	1	FEHLER	1599	1	!	1292	1	!	1307	0	0	0
2024-05-15	12:16:48	12:21:44	295567	6.6.1	4_exp_EVA_AWA_CON	37	B	A	Rpleas_acq	Same	Rpleas	1pleas	acq_US_pleas_nomask	acq3_nomask	3	18	453	0	300	300	0	0	360	46	0	0	loyal	helfen	schön	fair	treu	freundlich	lasch	hindern	schlecht	faul	tot	fanatisch	retten	tolerant	schlau	spielen	ehrlich	lachen	rächen	tyrannisch	schroff	strafen	eitel	leiden	1	blank2r.bmp	0	1	+	0	1	blank2r.bmp	500	1	BMVZ	500	1	blank2r.bmp	880	3	schön	880	1	FEHLER	1554	1	!	-1	1	!	-1	0	0	0
2024-05-15	12:16:48	12:21:46	297862	6.6.1	4_exp_EVA_AWA_CON	37	B	A	Rpleas_acq	Same	Rpleas	1pleas	acq_US_unple_nomask	acq3_nomask	3	19	453	1	300	300	0	0	515	50	0	0	loyal	helfen	schön	fair	treu	freundlich	lasch	hindern	schlecht	faul	tot	fanatisch	retten	tolerant	schlau	spielen	ehrlich	lachen	rächen	tyrannisch	schroff	strafen	eitel	leiden	1	blank2r.bmp	0	1	+	0	1	blank2r.bmp	500	1	GKQX	500	1	blank2r.bmp	880	2	hindern	880	1	FEHLER	1708	1	!	1293	1	!	1416	0	0	0
2024-05-15	12:16:48	12:21:48	299861	6.6.1	4_exp_EVA_AWA_CON	37	B	A	Rpleas_acq	Same	Rpleas	1pleas	acq_US_pleas_nomask	acq3_nomask	3	20	453	1	300	300	0	0	423	50	1	0	loyal	helfen	schön	fair	treu	freundlich	lasch	hindern	schlecht	faul	tot	fanatisch	retten	tolerant	schlau	spielen	ehrlich	lachen	rächen	tyrannisch	schroff	strafen	eitel	leiden	1	blank2r.bmp	0	1	+	0	1	blank2r.bmp	500	1	BMVZ	500	1	blank2r.bmp	880	1	loyal	880	1	!	1292	1	!	1325	0	0	0	0	0	0
2024-05-15	12:16:48	12:21:50	302279	6.6.1	4_exp_EVA_AWA_CON	37	B	A	Rpleas_acq	Same	Rpleas	1pleas	acq_US_unple_nomask	acq3_nomask	3	21	453	1	300	300	0	0	438	50	0	0	loyal	helfen	schön	fair	treu	freundlich	lasch	hindern	schlecht	faul	tot	fanatisch	retten	tolerant	schlau	spielen	ehrlich	lachen	rächen	tyrannisch	schroff	strafen	eitel	leiden	1	blank2r.bmp	0	1	+	0	1	blank2r.bmp	500	1	GKQX	500	1	blank2r.bmp	880	1	lasch	880	1	FEHLER	1631	1	!	1292	1	!	1339	0	0	0
2024-05-15	12:16:48	12:21:52	304444	6.6.1	4_exp_EVA_AWA_CON	37	B	A	Rpleas_acq	Same	Rpleas	1pleas	acq_US_pleas_nomask	acq3_nomask	3	22	453	0	300	300	0	0	584	50	1	0	loyal	helfen	schön	fair	treu	freundlich	lasch	hindern	schlecht	faul	tot	fanatisch	retten	tolerant	schlau	spielen	ehrlich	lachen	rächen	tyrannisch	schroff	strafen	eitel	leiden	1	blank2r.bmp	0	1	+	0	1	blank2r.bmp	500	1	BMVZ	500	1	blank2r.bmp	880	2	helfen	880	1	!	1292	1	!	-1	0	0	0	0	0	0
2024-05-15	12:16:48	12:21:55	306703	6.6.1	4_exp_EVA_AWA_CON	37	B	A	Rpleas_acq	Same	Rpleas	1pleas	acq_US_pleas_nomask	acq3_nomask	3	23	453	0	300	300	0	0	279	46	0	0	loyal	helfen	schön	fair	treu	freundlich	lasch	hindern	schlecht	faul	tot	fanatisch	retten	tolerant	schlau	spielen	ehrlich	lachen	rächen	tyrannisch	schroff	strafen	eitel	leiden	1	blank2r.bmp	0	1	+	0	1	blank2r.bmp	500	1	BMVZ	500	1	blank2r.bmp	880	6	freundlich	880	1	FEHLER	1473	1	!	-1	1	!	-1	0	0	0
2024-05-15	12:16:48	12:21:57	309388	6.6.1	4_exp_EVA_AWA_CON	37	B	A	Rpleas_acq	Same	Rpleas	1pleas	acq_US_unple_nomask	acq3_nomask	3	24	453	0	300	300	0	0	1106	46	1	0	loyal	helfen	schön	fair	treu	freundlich	lasch	hindern	schlecht	faul	tot	fanatisch	retten	tolerant	schlau	spielen	ehrlich	lachen	rächen	tyrannisch	schroff	strafen	eitel	leiden	1	blank2r.bmp	0	1	+	0	1	blank2r.bmp	500	1	GKQX	500	1	blank2r.bmp	880	3	schlecht	880	1	!	1292	1	!	-1	0	0	0	0	0	0
2024-05-15	12:16:48	12:21:59	311484	6.6.1	4_exp_EVA_AWA_CON	37	B	A	Rpleas_acq	Same	Rpleas	1pleas	acq_US_pleas_nomask	acq3_nomask	3	25	453	0	300	300	0	0	320	50	1	0	loyal	helfen	schön	fair	treu	freundlich	lasch	hindern	schlecht	faul	tot	fanatisch	retten	tolerant	schlau	spielen	ehrlich	lachen	rächen	tyrannisch	schroff	strafen	eitel	leiden	1	blank2r.bmp	0	1	+	0	1	blank2r.bmp	500	1	BMVZ	500	1	blank2r.bmp	880	1	loyal	880	1	!	-1	1	!	-1	0	0	0	0	0	0
2024-05-15	12:16:48	12:22:02	313660	6.6.1	4_exp_EVA_AWA_CON	37	B	A	Rpleas_acq	Same	Rpleas	1pleas	acq_US_unple_nomask	acq3_nomask	3	26	453	1	300	300	0	0	394	46	1	0	loyal	helfen	schön	fair	treu	freundlich	lasch	hindern	schlecht	faul	tot	fanatisch	retten	tolerant	schlau	spielen	ehrlich	lachen	rächen	tyrannisch	schroff	strafen	eitel	leiden	1	blank2r.bmp	0	1	+	0	1	blank2r.bmp	500	1	GKQX	500	1	blank2r.bmp	880	6	fanatisch	880	1	!	1292	1	!	1294	0	0	0	0	0	0
2024-05-15	12:16:48	12:22:04	315830	6.6.1	4_exp_EVA_AWA_CON	37	B	A	Rpleas_acq	Same	Rpleas	1pleas	acq_US_unple_nomask	acq3_nomask	3	27	453	0	300	300	0	0	191	50	0	0	loyal	helfen	schön	fair	treu	freundlich	lasch	hindern	schlecht	faul	tot	fanatisch	retten	tolerant	schlau	spielen	ehrlich	lachen	rächen	tyrannisch	schroff	strafen	eitel	leiden	1	blank2r.bmp	0	1	+	0	1	blank2r.bmp	500	1	GKQX	500	1	blank2r.bmp	880	3	schlecht	880	1	FEHLER	1384	1	!	-1	1	!	-1	0	0	0
2024-05-15	12:16:48	12:22:06	317822	6.6.1	4_exp_EVA_AWA_CON	37	B	A	Rpleas_acq	Same	Rpleas	1pleas	acq_US_pleas_nomask	acq3_nomask	3	28	453	0	300	300	0	0	212	46	0	0	loyal	helfen	schön	fair	treu	freundlich	lasch	hindern	schlecht	faul	tot	fanatisch	retten	tolerant	schlau	spielen	ehrlich	lachen	rächen	tyrannisch	schroff	strafen	eitel	leiden	1	blank2r.bmp	0	1	+	0	1	blank2r.bmp	500	1	BMVZ	500	1	blank2r.bmp	880	5	treu	880	1	FEHLER	1405	1	!	-1	1	!	-1	0	0	0
2024-05-15	12:16:48	12:22:08	319871	6.6.1	4_exp_EVA_AWA_CON	37	B	A	Rpleas_acq	Same	Rpleas	1pleas	acq_US_unple_nomask	acq3_nomask	3	29	453	0	300	300	0	0	268	50	0	0	loyal	helfen	schön	fair	treu	freundlich	lasch	hindern	schlecht	faul	tot	fanatisch	retten	tolerant	schlau	spielen	ehrlich	lachen	rächen	tyrannisch	schroff	strafen	eitel	leiden	1	blank2r.bmp	0	1	+	0	1	blank2r.bmp	500	1	GKQX	500	1	blank2r.bmp	880	5	tot	880	1	FEHLER	1462	1	!	-1	1	!	-1	0	0	0
2024-05-15	12:16:48	12:22:10	321967	6.6.1	4_exp_EVA_AWA_CON	37	B	A	Rpleas_acq	Same	Rpleas	1pleas	acq_US_unple_nomask	acq3_nomask	3	30	453	0	300	300	0	0	323	50	0	0	loyal	helfen	schön	fair	treu	freundlich	lasch	hindern	schlecht	faul	tot	fanatisch	retten	tolerant	schlau	spielen	ehrlich	lachen	rächen	tyrannisch	schroff	strafen	eitel	leiden	1	blank2r.bmp	0	1	+	0	1	blank2r.bmp	500	1	GKQX	500	1	blank2r.bmp	880	2	hindern	880	1	FEHLER	1517	1	!	-1	1	!	-1	0	0	0
2024-05-15	12:16:48	12:22:12	324316	6.6.1	4_exp_EVA_AWA_CON	37	B	A	Rpleas_acq	Same	Rpleas	1pleas	acq_US_pleas_nomask	acq3_nomask	3	31	453	0	300	300	0	0	774	50	1	0	loyal	helfen	schön	fair	treu	freundlich	lasch	hindern	schlecht	faul	tot	fanatisch	retten	tolerant	schlau	spielen	ehrlich	lachen	rächen	tyrannisch	schroff	strafen	eitel	leiden	1	blank2r.bmp	0	1	+	0	1	blank2r.bmp	500	1	BMVZ	500	1	blank2r.bmp	880	3	schön	880	1	!	1292	1	!	-1	0	0	0	0	0	0
2024-05-15	12:16:48	12:22:14	326484	6.6.1	4_exp_EVA_AWA_CON	37	B	A	Rpleas_acq	Same	Rpleas	1pleas	acq_US_unple_nomask	acq3_nomask	3	32	453	0	300	300	0	0	390	46	1	0	loyal	helfen	schön	fair	treu	freundlich	lasch	hindern	schlecht	faul	tot	fanatisch	retten	tolerant	schlau	spielen	ehrlich	lachen	rächen	tyrannisch	schroff	strafen	eitel	leiden	1	blank2r.bmp	0	1	+	0	1	blank2r.bmp	500	1	GKQX	500	1	blank2r.bmp	880	4	faul	880	1	!	-1	1	!	-1	0	0	0	0	0	0
2024-05-15	12:16:48	12:22:17	328701	6.6.1	4_exp_EVA_AWA_CON	37	B	A	Rpleas_acq	Same	Rpleas	1pleas	acq_US_pleas_nomask	acq3_nomask	3	33	453	1	300	300	0	0	435	50	1	0	loyal	helfen	schön	fair	treu	freundlich	lasch	hindern	schlecht	faul	tot	fanatisch	retten	tolerant	schlau	spielen	ehrlich	lachen	rächen	tyrannisch	schroff	strafen	eitel	leiden	1	blank2r.bmp	0	1	+	0	1	blank2r.bmp	500	1	BMVZ	500	1	blank2r.bmp	880	6	freundlich	880	1	!	1292	1	!	1336	0	0	0	0	0	0
2024-05-15	12:16:48	12:22:19	330960	6.6.1	4_exp_EVA_AWA_CON	37	B	A	Rpleas_acq	Same	Rpleas	1pleas	acq_US_pleas_nomask	acq3_nomask	3	34	453	0	300	300	0	0	279	46	0	0	loyal	helfen	schön	fair	treu	freundlich	lasch	hindern	schlecht	faul	tot	fanatisch	retten	tolerant	schlau	spielen	ehrlich	lachen	rächen	tyrannisch	schroff	strafen	eitel	leiden	1	blank2r.bmp	0	1	+	0	1	blank2r.bmp	500	1	BMVZ	500	1	blank2r.bmp	880	2	helfen	880	1	FEHLER	1474	1	!	-1	1	!	-1	0	0	0
2024-05-15	12:16:48	12:22:21	333062	6.6.1	4_exp_EVA_AWA_CON	37	B	A	Rpleas_acq	Same	Rpleas	1pleas	acq_US_unple_nomask	acq3_nomask	3	35	453	0	300	300	0	0	322	50	0	0	loyal	helfen	schön	fair	treu	freundlich	lasch	hindern	schlecht	faul	tot	fanatisch	retten	tolerant	schlau	spielen	ehrlich	lachen	rächen	tyrannisch	schroff	strafen	eitel	leiden	1	blank2r.bmp	0	1	+	0	1	blank2r.bmp	500	1	GKQX	500	1	blank2r.bmp	880	1	lasch	880	1	FEHLER	1515	1	!	-1	1	!	-1	0	0	0
2024-05-15	12:16:48	12:22:23	335093	6.6.1	4_exp_EVA_AWA_CON	37	B	A	Rpleas_acq	Same	Rpleas	1pleas	acq_US_pleas_nomask	acq3_nomask	3	36	453	1	300	300	0	0	453	50	1	0	loyal	helfen	schön	fair	treu	freundlich	lasch	hindern	schlecht	faul	tot	fanatisch	retten	tolerant	schlau	spielen	ehrlich	lachen	rächen	tyrannisch	schroff	strafen	eitel	leiden	1	blank2r.bmp	0	1	+	0	1	blank2r.bmp	500	1	BMVZ	500	1	blank2r.bmp	880	4	fair	880	1	!	1293	1	!	1354	0	0	0	0	0	0
2024-05-15	12:16:48	12:22:33	345470	6.6.1	4_exp_EVA_AWA_CON	37	B	A	Rpleas_acq	Same	Rpleas	1pleas	acq_US_pleas_nomask	acq45_nomask	4	1	400	1	300	300	0	0	372	46	0	0	loyal	helfen	schön	fair	treu	freundlich	lasch	hindern	schlecht	faul	tot	fanatisch	retten	tolerant	schlau	spielen	ehrlich	lachen	rächen	tyrannisch	schroff	strafen	eitel	leiden	1	blank2r.bmp	0	1	+	0	1	blank2r.bmp	500	1	BMVZ	500	1	blank2r.bmp	880	1	loyal	880	1	!	1232	1	!	1274	0	0	0	0	0	0
2024-05-15	12:16:48	12:22:35	347540	6.6.1	4_exp_EVA_AWA_CON	37	B	A	Rpleas_acq	Same	Rpleas	1pleas	acq_US_pleas_nomask	acq45_nomask	4	2	400	0	300	300	0	0	293	50	1	0	loyal	helfen	schön	fair	treu	freundlich	lasch	hindern	schlecht	faul	tot	fanatisch	retten	tolerant	schlau	spielen	ehrlich	lachen	rächen	tyrannisch	schroff	strafen	eitel	leiden	1	blank2r.bmp	0	1	+	0	1	blank2r.bmp	500	1	BMVZ	500	1	blank2r.bmp	880	2	helfen	880	1	!	-1	1	!	-1	0	0	0	0	0	0
2024-05-15	12:16:48	12:22:37	349484	6.6.1	4_exp_EVA_AWA_CON	37	B	A	Rpleas_acq	Same	Rpleas	1pleas	acq_US_pleas_nomask	acq45_nomask	4	3	400	0	300	300	0	0	165	50	1	0	loyal	helfen	schön	fair	treu	freundlich	lasch	hindern	schlecht	faul	tot	fanatisch	retten	tolerant	schlau	spielen	ehrlich	lachen	rächen	tyrannisch	schroff	strafen	eitel	leiden	1	blank2r.bmp	0	1	+	0	1	blank2r.bmp	500	1	BMVZ	500	1	blank2r.bmp	880	4	fair	880	1	!	-1	1	!	-1	0	0	0	0	0	0
2024-05-15	12:16:48	12:22:39	351508	6.6.1	4_exp_EVA_AWA_CON	37	B	A	Rpleas_acq	Same	Rpleas	1pleas	acq_US_pleas_nomask	acq45_nomask	4	4	400	0	300	300	0	0	248	50	1	0	loyal	helfen	schön	fair	treu	freundlich	lasch	hindern	schlecht	faul	tot	fanatisch	retten	tolerant	schlau	spielen	ehrlich	lachen	rächen	tyrannisch	schroff	strafen	eitel	leiden	1	blank2r.bmp	0	1	+	0	1	blank2r.bmp	500	1	BMVZ	500	1	blank2r.bmp	880	6	freundlich	880	1	!	-1	1	!	-1	0	0	0	0	0	0
2024-05-15	12:16:48	12:22:42	353564	6.6.1	4_exp_EVA_AWA_CON	37	B	A	Rpleas_acq	Same	Rpleas	1pleas	acq_US_unple_nomask	acq45_nomask	4	5	400	0	300	300	0	0	283	50	0	0	loyal	helfen	schön	fair	treu	freundlich	lasch	hindern	schlecht	faul	tot	fanatisch	retten	tolerant	schlau	spielen	ehrlich	lachen	rächen	tyrannisch	schroff	strafen	eitel	leiden	1	blank2r.bmp	0	1	+	0	1	blank2r.bmp	500	1	GKQX	500	1	blank2r.bmp	880	2	hindern	880	1	!	-1	1	!	-1	0	0	0	0	0	0
2024-05-15	12:16:48	12:22:44	355572	6.6.1	4_exp_EVA_AWA_CON	37	B	A	Rpleas_acq	Same	Rpleas	1pleas	acq_US_pleas_nomask	acq45_nomask	4	6	400	0	300	300	0	0	229	46	0	0	loyal	helfen	schön	fair	treu	freundlich	lasch	hindern	schlecht	faul	tot	fanatisch	retten	tolerant	schlau	spielen	ehrlich	lachen	rächen	tyrannisch	schroff	strafen	eitel	leiden	1	blank2r.bmp	0	1	+	0	1	blank2r.bmp	500	1	BMVZ	500	1	blank2r.bmp	880	3	schön	880	1	!	-1	1	!	-1	0	0	0	0	0	0
2024-05-15	12:16:48	12:22:46	357774	6.6.1	4_exp_EVA_AWA_CON	37	B	A	Rpleas_acq	Same	Rpleas	1pleas	acq_US_unple_nomask	acq45_nomask	4	7	400	1	300	300	0	0	418	50	0	0	loyal	helfen	schön	fair	treu	freundlich	lasch	hindern	schlecht	faul	tot	fanatisch	retten	tolerant	schlau	spielen	ehrlich	lachen	rächen	tyrannisch	schroff	strafen	eitel	leiden	1	blank2r.bmp	0	1	+	0	1	blank2r.bmp	500	1	GKQX	500	1	blank2r.bmp	880	5	tot	880	1	!	1232	1	!	1320	0	0	0	0	0	0
2024-05-15	12:16:48	12:22:48	359989	6.6.1	4_exp_EVA_AWA_CON	37	B	A	Rpleas_acq	Same	Rpleas	1pleas	acq_US_pleas_nomask	acq45_nomask	4	8	400	1	300	300	0	0	433	50	1	0	loyal	helfen	schön	fair	treu	freundlich	lasch	hindern	schlecht	faul	tot	fanatisch	retten	tolerant	schlau	spielen	ehrlich	lachen	rächen	tyrannisch	schroff	strafen	eitel	leiden	1	blank2r.bmp	0	1	+	0	1	blank2r.bmp	500	1	BMVZ	500	1	blank2r.bmp	880	5	treu	880	1	!	1232	1	!	1334	0	0	0	0	0	0
2024-05-15	12:16:48	12:22:50	362125	6.6.1	4_exp_EVA_AWA_CON	37	B	A	Rpleas_acq	Same	Rpleas	1pleas	acq_US_pleas_nomask	acq45_nomask	4	9	400	1	300	300	0	0	357	50	1	0	loyal	helfen	schön	fair	treu	freundlich	lasch	hindern	schlecht	faul	tot	fanatisch	retten	tolerant	schlau	spielen	ehrlich	lachen	rächen	tyrannisch	schroff	strafen	eitel	leiden	1	blank2r.bmp	0	1	+	0	1	blank2r.bmp	500	1	BMVZ	500	1	blank2r.bmp	880	5	treu	880	1	!	1232	1	!	1259	0	0	0	0	0	0
2024-05-15	12:16:48	12:22:52	364100	6.6.1	4_exp_EVA_AWA_CON	37	B	A	Rpleas_acq	Same	Rpleas	1pleas	acq_US_unple_nomask	acq45_nomask	4	10	400	0	300	300	0	0	202	50	0	0	loyal	helfen	schön	fair	treu	freundlich	lasch	hindern	schlecht	faul	tot	fanatisch	retten	tolerant	schlau	spielen	ehrlich	lachen	rächen	tyrannisch	schroff	strafen	eitel	leiden	1	blank2r.bmp	0	1	+	0	1	blank2r.bmp	500	1	GKQX	500	1	blank2r.bmp	880	1	lasch	880	1	!	-1	1	!	-1	0	0	0	0	0	0
2024-05-15	12:16:48	12:22:54	366204	6.6.1	4_exp_EVA_AWA_CON	37	B	A	Rpleas_acq	Same	Rpleas	1pleas	acq_US_unple_nomask	acq45_nomask	4	11	400	0	300	300	0	0	325	46	1	0	loyal	helfen	schön	fair	treu	freundlich	lasch	hindern	schlecht	faul	tot	fanatisch	retten	tolerant	schlau	spielen	ehrlich	lachen	rächen	tyrannisch	schroff	strafen	eitel	leiden	1	blank2r.bmp	0	1	+	0	1	blank2r.bmp	500	1	GKQX	500	1	blank2r.bmp	880	4	faul	880	1	!	-1	1	!	-1	0	0	0	0	0	0
2024-05-15	12:16:48	12:22:56	368365	6.6.1	4_exp_EVA_AWA_CON	37	B	A	Rpleas_acq	Same	Rpleas	1pleas	acq_US_unple_nomask	acq45_nomask	4	12	400	1	300	300	0	0	383	46	1	0	loyal	helfen	schön	fair	treu	freundlich	lasch	hindern	schlecht	faul	tot	fanatisch	retten	tolerant	schlau	spielen	ehrlich	lachen	rächen	tyrannisch	schroff	strafen	eitel	leiden	1	blank2r.bmp	0	1	+	0	1	blank2r.bmp	500	1	GKQX	500	1	blank2r.bmp	880	6	fanatisch	880	1	!	1232	1	!	1285	0	0	0	0	0	0
2024-05-15	12:16:48	12:22:58	370444	6.6.1	4_exp_EVA_AWA_CON	37	B	A	Rpleas_acq	Same	Rpleas	1pleas	acq_US_unple_nomask	acq45_nomask	4	13	400	0	300	300	0	0	302	46	1	0	loyal	helfen	schön	fair	treu	freundlich	lasch	hindern	schlecht	faul	tot	fanatisch	retten	tolerant	schlau	spielen	ehrlich	lachen	rächen	tyrannisch	schroff	strafen	eitel	leiden	1	blank2r.bmp	0	1	+	0	1	blank2r.bmp	500	1	GKQX	500	1	blank2r.bmp	880	3	schlecht	880	1	!	-1	1	!	-1	0	0	0	0	0	0
2024-05-15	12:16:48	12:23:00	372532	6.6.1	4_exp_EVA_AWA_CON	37	B	A	Rpleas_acq	Same	Rpleas	1pleas	acq_US_pleas_nomask	acq45_nomask	4	14	400	0	300	300	0	0	309	50	1	0	loyal	helfen	schön	fair	treu	freundlich	lasch	hindern	schlecht	faul	tot	fanatisch	retten	tolerant	schlau	spielen	ehrlich	lachen	rächen	tyrannisch	schroff	strafen	eitel	leiden	1	blank2r.bmp	0	1	+	0	1	blank2r.bmp	500	1	BMVZ	500	1	blank2r.bmp	880	1	loyal	880	1	!	-1	1	!	-1	0	0	0	0	0	0
2024-05-15	12:16:48	12:23:03	374653	6.6.1	4_exp_EVA_AWA_CON	37	B	A	Rpleas_acq	Same	Rpleas	1pleas	acq_US_unple_nomask	acq45_nomask	4	15	400	1	300	300	0	0	347	50	0	0	loyal	helfen	schön	fair	treu	freundlich	lasch	hindern	schlecht	faul	tot	fanatisch	retten	tolerant	schlau	spielen	ehrlich	lachen	rächen	tyrannisch	schroff	strafen	eitel	leiden	1	blank2r.bmp	0	1	+	0	1	blank2r.bmp	500	1	GKQX	500	1	blank2r.bmp	880	2	hindern	880	1	!	1232	1	!	1249	0	0	0	0	0	0
2024-05-15	12:16:48	12:23:05	376861	6.6.1	4_exp_EVA_AWA_CON	37	B	A	Rpleas_acq	Same	Rpleas	1pleas	acq_US_unple_nomask	acq45_nomask	4	16	400	1	300	300	0	0	434	50	0	0	loyal	helfen	schön	fair	treu	freundlich	lasch	hindern	schlecht	faul	tot	fanatisch	retten	tolerant	schlau	spielen	ehrlich	lachen	rächen	tyrannisch	schroff	strafen	eitel	leiden	1	blank2r.bmp	0	1	+	0	1	blank2r.bmp	500	1	GKQX	500	1	blank2r.bmp	880	6	fanatisch	880	1	!	1232	1	!	1335	0	0	0	0	0	0
2024-05-15	12:16:48	12:23:07	378964	6.6.1	4_exp_EVA_AWA_CON	37	B	A	Rpleas_acq	Same	Rpleas	1pleas	acq_US_pleas_nomask	acq45_nomask	4	17	400	0	300	300	0	0	326	46	0	0	loyal	helfen	schön	fair	treu	freundlich	lasch	hindern	schlecht	faul	tot	fanatisch	retten	tolerant	schlau	spielen	ehrlich	lachen	rächen	tyrannisch	schroff	strafen	eitel	leiden	1	blank2r.bmp	0	1	+	0	1	blank2r.bmp	500	1	BMVZ	500	1	blank2r.bmp	880	6	freundlich	880	1	!	-1	1	!	-1	0	0	0	0	0	0
2024-05-15	12:16:48	12:23:09	381043	6.6.1	4_exp_EVA_AWA_CON	37	B	A	Rpleas_acq	Same	Rpleas	1pleas	acq_US_unple_nomask	acq45_nomask	4	18	400	0	300	300	0	0	305	46	1	0	loyal	helfen	schön	fair	treu	freundlich	lasch	hindern	schlecht	faul	tot	fanatisch	retten	tolerant	schlau	spielen	ehrlich	lachen	rächen	tyrannisch	schroff	strafen	eitel	leiden	1	blank2r.bmp	0	1	+	0	1	blank2r.bmp	500	1	GKQX	500	1	blank2r.bmp	880	5	tot	880	1	!	-1	1	!	-1	0	0	0	0	0	0
2024-05-15	12:16:48	12:23:11	383197	6.6.1	4_exp_EVA_AWA_CON	37	B	A	Rpleas_acq	Same	Rpleas	1pleas	acq_US_unple_nomask	acq45_nomask	4	19	400	1	300	300	0	0	376	50	0	0	loyal	helfen	schön	fair	treu	freundlich	lasch	hindern	schlecht	faul	tot	fanatisch	retten	tolerant	schlau	spielen	ehrlich	lachen	rächen	tyrannisch	schroff	strafen	eitel	leiden	1	blank2r.bmp	0	1	+	0	1	blank2r.bmp	500	1	GKQX	500	1	blank2r.bmp	880	1	lasch	880	1	!	1232	1	!	1277	0	0	0	0	0	0
2024-05-15	12:16:48	12:23:13	385508	6.6.1	4_exp_EVA_AWA_CON	37	B	A	Rpleas_acq	Same	Rpleas	1pleas	acq_US_pleas_nomask	acq45_nomask	4	20	400	0	300	300	0	0	536	50	1	0	loyal	helfen	schön	fair	treu	freundlich	lasch	hindern	schlecht	faul	tot	fanatisch	retten	tolerant	schlau	spielen	ehrlich	lachen	rächen	tyrannisch	schroff	strafen	eitel	leiden	1	blank2r.bmp	0	1	+	0	1	blank2r.bmp	500	1	BMVZ	500	1	blank2r.bmp	880	2	helfen	880	1	!	1232	1	!	-1	0	0	0	0	0	0
2024-05-15	12:16:48	12:23:16	387564	6.6.1	4_exp_EVA_AWA_CON	37	B	A	Rpleas_acq	Same	Rpleas	1pleas	acq_US_unple_nomask	acq45_nomask	4	21	400	0	300	300	0	0	281	46	1	0	loyal	helfen	schön	fair	treu	freundlich	lasch	hindern	schlecht	faul	tot	fanatisch	retten	tolerant	schlau	spielen	ehrlich	lachen	rächen	tyrannisch	schroff	strafen	eitel	leiden	1	blank2r.bmp	0	1	+	0	1	blank2r.bmp	500	1	GKQX	500	1	blank2r.bmp	880	4	faul	880	1	!	-1	1	!	-1	0	0	0	0	0	0
2024-05-15	12:16:48	12:23:18	389604	6.6.1	4_exp_EVA_AWA_CON	37	B	A	Rpleas_acq	Same	Rpleas	1pleas	acq_US_pleas_nomask	acq45_nomask	4	22	400	0	300	300	0	0	259	50	1	0	loyal	helfen	schön	fair	treu	freundlich	lasch	hindern	schlecht	faul	tot	fanatisch	retten	tolerant	schlau	spielen	ehrlich	lachen	rächen	tyrannisch	schroff	strafen	eitel	leiden	1	blank2r.bmp	0	1	+	0	1	blank2r.bmp	500	1	BMVZ	500	1	blank2r.bmp	880	3	schön	880	1	!	-1	1	!	-1	0	0	0	0	0	0
2024-05-15	12:16:48	12:23:20	391564	6.6.1	4_exp_EVA_AWA_CON	37	B	A	Rpleas_acq	Same	Rpleas	1pleas	acq_US_pleas_nomask	acq45_nomask	4	23	400	0	300	300	0	0	178	46	0	0	loyal	helfen	schön	fair	treu	freundlich	lasch	hindern	schlecht	faul	tot	fanatisch	retten	tolerant	schlau	spielen	ehrlich	lachen	rächen	tyrannisch	schroff	strafen	eitel	leiden	1	blank2r.bmp	0	1	+	0	1	blank2r.bmp	500	1	BMVZ	500	1	blank2r.bmp	880	4	fair	880	1	!	-1	1	!	-1	0	0	0	0	0	0
2024-05-15	12:16:48	12:23:22	393548	6.6.1	4_exp_EVA_AWA_CON	37	B	A	Rpleas_acq	Same	Rpleas	1pleas	acq_US_pleas_nomask	acq45_nomask	4	24	400	0	300	300	0	0	211	50	1	0	loyal	helfen	schön	fair	treu	freundlich	lasch	hindern	schlecht	faul	tot	fanatisch	retten	tolerant	schlau	spielen	ehrlich	lachen	rächen	tyrannisch	schroff	strafen	eitel	leiden	1	blank2r.bmp	0	1	+	0	1	blank2r.bmp	500	1	BMVZ	500	1	blank2r.bmp	880	2	helfen	880	1	!	-1	1	!	-1	0	0	0	0	0	0
2024-05-15	12:16:48	12:23:24	395556	6.6.1	4_exp_EVA_AWA_CON	37	B	A	Rpleas_acq	Same	Rpleas	1pleas	acq_US_unple_nomask	acq45_nomask	4	25	400	0	300	300	0	0	228	50	0	0	loyal	helfen	schön	fair	treu	freundlich	lasch	hindern	schlecht	faul	tot	fanatisch	retten	tolerant	schlau	spielen	ehrlich	lachen	rächen	tyrannisch	schroff	strafen	eitel	leiden	1	blank2r.bmp	0	1	+	0	1	blank2r.bmp	500	1	GKQX	500	1	blank2r.bmp	880	3	schlecht	880	1	!	-1	1	!	-1	0	0	0	0	0	0
2024-05-15	12:16:48	12:23:26	397750	6.6.1	4_exp_EVA_AWA_CON	37	B	A	Rpleas_acq	Same	Rpleas	1pleas	acq_US_pleas_nomask	acq45_nomask	4	26	400	1	300	300	0	0	418	50	1	0	loyal	helfen	schön	fair	treu	freundlich	lasch	hindern	schlecht	faul	tot	fanatisch	retten	tolerant	schlau	spielen	ehrlich	lachen	rächen	tyrannisch	schroff	strafen	eitel	leiden	1	blank2r.bmp	0	1	+	0	1	blank2r.bmp	500	1	BMVZ	500	1	blank2r.bmp	880	1	loyal	880	1	!	1232	1	!	1320	0	0	0	0	0	0
2024-05-15	12:16:48	12:23:28	399941	6.6.1	4_exp_EVA_AWA_CON	37	B	A	Rpleas_acq	Same	Rpleas	1pleas	acq_US_unple_nomask	acq45_nomask	4	27	400	1	300	300	0	0	409	50	0	0	loyal	helfen	schön	fair	treu	freundlich	lasch	hindern	schlecht	faul	tot	fanatisch	retten	tolerant	schlau	spielen	ehrlich	lachen	rächen	tyrannisch	schroff	strafen	eitel	leiden	1	blank2r.bmp	0	1	+	0	1	blank2r.bmp	500	1	GKQX	500	1	blank2r.bmp	880	2	hindern	880	1	!	1233	1	!	1310	0	0	0	0	0	0
2024-05-15	12:16:48	12:23:30	401980	6.6.1	4_exp_EVA_AWA_CON	37	B	A	Rpleas_acq	Same	Rpleas	1pleas	acq_US_unple_nomask	acq45_nomask	4	28	400	0	300	300	0	0	258	50	0	0	loyal	helfen	schön	fair	treu	freundlich	lasch	hindern	schlecht	faul	tot	fanatisch	retten	tolerant	schlau	spielen	ehrlich	lachen	rächen	tyrannisch	schroff	strafen	eitel	leiden	1	blank2r.bmp	0	1	+	0	1	blank2r.bmp	500	1	GKQX	500	1	blank2r.bmp	880	5	tot	880	1	!	-1	1	!	-1	0	0	0	0	0	0
2024-05-15	12:16:48	12:23:32	404117	6.6.1	4_exp_EVA_AWA_CON	37	B	A	Rpleas_acq	Same	Rpleas	1pleas	acq_US_unple_nomask	acq45_nomask	4	29	400	1	300	300	0	0	362	50	0	0	loyal	helfen	schön	fair	treu	freundlich	lasch	hindern	schlecht	faul	tot	fanatisch	retten	tolerant	schlau	spielen	ehrlich	lachen	rächen	tyrannisch	schroff	strafen	eitel	leiden	1	blank2r.bmp	0	1	+	0	1	blank2r.bmp	500	1	GKQX	500	1	blank2r.bmp	880	3	schlecht	880	1	!	1232	1	!	1264	0	0	0	0	0	0
2024-05-15	12:16:48	12:23:34	406195	6.6.1	4_exp_EVA_AWA_CON	37	B	A	Rpleas_acq	Same	Rpleas	1pleas	acq_US_unple_nomask	acq45_nomask	4	30	400	0	300	300	0	0	301	46	1	0	loyal	helfen	schön	fair	treu	freundlich	lasch	hindern	schlecht	faul	tot	fanatisch	retten	tolerant	schlau	spielen	ehrlich	lachen	rächen	tyrannisch	schroff	strafen	eitel	leiden	1	blank2r.bmp	0	1	+	0	1	blank2r.bmp	500	1	GKQX	500	1	blank2r.bmp	880	1	lasch	880	1	!	-1	1	!	-1	0	0	0	0	0	0
2024-05-15	12:16:48	12:23:36	408389	6.6.1	4_exp_EVA_AWA_CON	37	B	A	Rpleas_acq	Same	Rpleas	1pleas	acq_US_pleas_nomask	acq45_nomask	4	31	400	1	300	300	0	0	412	46	0	0	loyal	helfen	schön	fair	treu	freundlich	lasch	hindern	schlecht	faul	tot	fanatisch	retten	tolerant	schlau	spielen	ehrlich	lachen	rächen	tyrannisch	schroff	strafen	eitel	leiden	1	blank2r.bmp	0	1	+	0	1	blank2r.bmp	500	1	BMVZ	500	1	blank2r.bmp	880	3	schön	880	1	!	1232	1	!	1313	0	0	0	0	0	0
2024-05-15	12:16:48	12:23:38	410492	6.6.1	4_exp_EVA_AWA_CON	37	B	A	Rpleas_acq	Same	Rpleas	1pleas	acq_US_unple_nomask	acq45_nomask	4	32	400	0	300	300	0	0	324	46	1	0	loyal	helfen	schön	fair	treu	freundlich	lasch	hindern	schlecht	faul	tot	fanatisch	retten	tolerant	schlau	spielen	ehrlich	lachen	rächen	tyrannisch	schroff	strafen	eitel	leiden	1	blank2r.bmp	0	1	+	0	1	blank2r.bmp	500	1	GKQX	500	1	blank2r.bmp	880	4	faul	880	1	!	-1	1	!	-1	0	0	0	0	0	0
2024-05-15	12:16:48	12:23:41	412630	6.6.1	4_exp_EVA_AWA_CON	37	B	A	Rpleas_acq	Same	Rpleas	1pleas	acq_US_unple_nomask	acq45_nomask	4	33	400	1	300	300	0	0	359	46	1	0	loyal	helfen	schön	fair	treu	freundlich	lasch	hindern	schlecht	faul	tot	fanatisch	retten	tolerant	schlau	spielen	ehrlich	lachen	rächen	tyrannisch	schroff	strafen	eitel	leiden	1	blank2r.bmp	0	1	+	0	1	blank2r.bmp	500	1	GKQX	500	1	blank2r.bmp	880	6	fanatisch	880	1	!	1233	1	!	1260	0	0	0	0	0	0
2024-05-15	12:16:48	12:23:43	414692	6.6.1	4_exp_EVA_AWA_CON	37	B	A	Rpleas_acq	Same	Rpleas	1pleas	acq_US_pleas_nomask	acq45_nomask	4	34	400	0	300	300	0	0	281	50	1	0	loyal	helfen	schön	fair	treu	freundlich	lasch	hindern	schlecht	faul	tot	fanatisch	retten	tolerant	schlau	spielen	ehrlich	lachen	rächen	tyrannisch	schroff	strafen	eitel	leiden	1	blank2r.bmp	0	1	+	0	1	blank2r.bmp	500	1	BMVZ	500	1	blank2r.bmp	880	6	freundlich	880	1	!	-1	1	!	-1	0	0	0	0	0	0
2024-05-15	12:16:48	12:23:45	416740	6.6.1	4_exp_EVA_AWA_CON	37	B	A	Rpleas_acq	Same	Rpleas	1pleas	acq_US_pleas_nomask	acq45_nomask	4	35	400	0	300	300	0	0	268	50	1	0	loyal	helfen	schön	fair	treu	freundlich	lasch	hindern	schlecht	faul	tot	fanatisch	retten	tolerant	schlau	spielen	ehrlich	lachen	rächen	tyrannisch	schroff	strafen	eitel	leiden	1	blank2r.bmp	0	1	+	0	1	blank2r.bmp	500	1	BMVZ	500	1	blank2r.bmp	880	5	treu	880	1	!	-1	1	!	-1	0	0	0	0	0	0
2024-05-15	12:16:48	12:23:47	418804	6.6.1	4_exp_EVA_AWA_CON	37	B	A	Rpleas_acq	Same	Rpleas	1pleas	acq_US_pleas_nomask	acq45_nomask	4	36	400	0	300	300	0	0	291	50	1	0	loyal	helfen	schön	fair	treu	freundlich	lasch	hindern	schlecht	faul	tot	fanatisch	retten	tolerant	schlau	spielen	ehrlich	lachen	rächen	tyrannisch	schroff	strafen	eitel	leiden	1	blank2r.bmp	0	1	+	0	1	blank2r.bmp	500	1	BMVZ	500	1	blank2r.bmp	880	4	fair	880	1	!	-1	1	!	-1	0	0	0	0	0	0
2024-05-15	12:16:48	12:23:56	428442	6.6.1	4_exp_EVA_AWA_CON	37	B	A	Rpleas_acq	Same	Rpleas	1pleas	acq_US_pleas_nomask	acq45_nomask	5	1	400	0	300	300	0	0	475	50	1	0	loyal	helfen	schön	fair	treu	freundlich	lasch	hindern	schlecht	faul	tot	fanatisch	retten	tolerant	schlau	spielen	ehrlich	lachen	rächen	tyrannisch	schroff	strafen	eitel	leiden	1	blank2r.bmp	0	1	+	0	1	blank2r.bmp	500	1	BMVZ	500	1	blank2r.bmp	880	1	loyal	880	1	!	1232	1	!	-1	0	0	0	0	0	0
2024-05-15	12:16:48	12:23:58	430540	6.6.1	4_exp_EVA_AWA_CON	37	B	A	Rpleas_acq	Same	Rpleas	1pleas	acq_US_unple_nomask	acq45_nomask	5	2	400	0	300	300	0	0	319	50	0	0	loyal	helfen	schön	fair	treu	freundlich	lasch	hindern	schlecht	faul	tot	fanatisch	retten	tolerant	schlau	spielen	ehrlich	lachen	rächen	tyrannisch	schroff	strafen	eitel	leiden	1	blank2r.bmp	0	1	+	0	1	blank2r.bmp	500	1	GKQX	500	1	blank2r.bmp	880	6	fanatisch	880	1	!	-1	1	!	-1	0	0	0	0	0	0
2024-05-15	12:16:48	12:24:01	432669	6.6.1	4_exp_EVA_AWA_CON	37	B	A	Rpleas_acq	Same	Rpleas	1pleas	acq_US_pleas_nomask	acq45_nomask	5	3	400	1	300	300	0	0	346	46	0	0	loyal	helfen	schön	fair	treu	freundlich	lasch	hindern	schlecht	faul	tot	fanatisch	retten	tolerant	schlau	spielen	ehrlich	lachen	rächen	tyrannisch	schroff	strafen	eitel	leiden	1	blank2r.bmp	0	1	+	0	1	blank2r.bmp	500	1	BMVZ	500	1	blank2r.bmp	880	5	treu	880	1	!	1232	1	!	1248	0	0	0	0	0	0
2024-05-15	12:16:48	12:24:03	434829	6.6.1	4_exp_EVA_AWA_CON	37	B	A	Rpleas_acq	Same	Rpleas	1pleas	acq_US_unple_nomask	acq45_nomask	5	4	400	1	300	300	0	0	385	46	1	0	loyal	helfen	schön	fair	treu	freundlich	lasch	hindern	schlecht	faul	tot	fanatisch	retten	tolerant	schlau	spielen	ehrlich	lachen	rächen	tyrannisch	schroff	strafen	eitel	leiden	1	blank2r.bmp	0	1	+	0	1	blank2r.bmp	500	1	GKQX	500	1	blank2r.bmp	880	5	tot	880	1	!	1232	1	!	1286	0	0	0	0	0	0
2024-05-15	12:16:48	12:24:05	436965	6.6.1	4_exp_EVA_AWA_CON	37	B	A	Rpleas_acq	Same	Rpleas	1pleas	acq_US_pleas_nomask	acq45_nomask	5	5	400	1	300	300	0	0	359	46	0	0	loyal	helfen	schön	fair	treu	freundlich	lasch	hindern	schlecht	faul	tot	fanatisch	retten	tolerant	schlau	spielen	ehrlich	lachen	rächen	tyrannisch	schroff	strafen	eitel	leiden	1	blank2r.bmp	0	1	+	0	1	blank2r.bmp	500	1	BMVZ	500	1	blank2r.bmp	880	3	schön	880	1	!	1233	1	!	1261	0	0	0	0	0	0
2024-05-15	12:16:48	12:24:07	439036	6.6.1	4_exp_EVA_AWA_CON	37	B	A	Rpleas_acq	Same	Rpleas	1pleas	acq_US_pleas_nomask	acq45_nomask	5	6	400	0	300	300	0	0	290	50	1	0	loyal	helfen	schön	fair	treu	freundlich	lasch	hindern	schlecht	faul	tot	fanatisch	retten	tolerant	schlau	spielen	ehrlich	lachen	rächen	tyrannisch	schroff	strafen	eitel	leiden	1	blank2r.bmp	0	1	+	0	1	blank2r.bmp	500	1	BMVZ	500	1	blank2r.bmp	880	4	fair	880	1	!	-1	1	!	-1	0	0	0	0	0	0
2024-05-15	12:16:48	12:24:09	441092	6.6.1	4_exp_EVA_AWA_CON	37	B	A	Rpleas_acq	Same	Rpleas	1pleas	acq_US_unple_nomask	acq45_nomask	5	7	400	0	300	300	0	0	275	50	0	0	loyal	helfen	schön	fair	treu	freundlich	lasch	hindern	schlecht	faul	tot	fanatisch	retten	tolerant	schlau	spielen	ehrlich	lachen	rächen	tyrannisch	schroff	strafen	eitel	leiden	1	blank2r.bmp	0	1	+	0	1	blank2r.bmp	500	1	GKQX	500	1	blank2r.bmp	880	1	lasch	880	1	!	-1	1	!	-1	0	0	0	0	0	0
2024-05-15	12:16:48	12:24:11	443156	6.6.1	4_exp_EVA_AWA_CON	37	B	A	Rpleas_acq	Same	Rpleas	1pleas	acq_US_unple_nomask	acq45_nomask	5	8	400	0	300	300	0	0	287	46	1	0	loyal	helfen	schön	fair	treu	freundlich	lasch	hindern	schlecht	faul	tot	fanatisch	retten	tolerant	schlau	spielen	ehrlich	lachen	rächen	tyrannisch	schroff	strafen	eitel	leiden	1	blank2r.bmp	0	1	+	0	1	blank2r.bmp	500	1	GKQX	500	1	blank2r.bmp	880	4	faul	880	1	!	-1	1	!	-1	0	0	0	0	0	0
2024-05-15	12:16:48	12:24:13	445293	6.6.1	4_exp_EVA_AWA_CON	37	B	A	Rpleas_acq	Same	Rpleas	1pleas	acq_US_pleas_nomask	acq45_nomask	5	9	400	1	300	300	0	0	362	50	1	0	loyal	helfen	schön	fair	treu	freundlich	lasch	hindern	schlecht	faul	tot	fanatisch	retten	tolerant	schlau	spielen	ehrlich	lachen	rächen	tyrannisch	schroff	strafen	eitel	leiden	1	blank2r.bmp	0	1	+	0	1	blank2r.bmp	500	1	BMVZ	500	1	blank2r.bmp	880	2	helfen	880	1	!	1232	1	!	1263	0	0	0	0	0	0
2024-05-15	12:16:48	12:24:15	447372	6.6.1	4_exp_EVA_AWA_CON	37	B	A	Rpleas_acq	Same	Rpleas	1pleas	acq_US_pleas_nomask	acq45_nomask	5	10	400	0	300	300	0	0	301	50	1	0	loyal	helfen	schön	fair	treu	freundlich	lasch	hindern	schlecht	faul	tot	fanatisch	retten	tolerant	schlau	spielen	ehrlich	lachen	rächen	tyrannisch	schroff	strafen	eitel	leiden	1	blank2r.bmp	0	1	+	0	1	blank2r.bmp	500	1	BMVZ	500	1	blank2r.bmp	880	6	freundlich	880	1	!	-1	1	!	-1	0	0	0	0	0	0
2024-05-15	12:16:48	12:24:17	449468	6.6.1	4_exp_EVA_AWA_CON	37	B	A	Rpleas_acq	Same	Rpleas	1pleas	acq_US_unple_nomask	acq45_nomask	5	11	400	0	300	300	0	0	315	50	0	0	loyal	helfen	schön	fair	treu	freundlich	lasch	hindern	schlecht	faul	tot	fanatisch	retten	tolerant	schlau	spielen	ehrlich	lachen	rächen	tyrannisch	schroff	strafen	eitel	leiden	1	blank2r.bmp	0	1	+	0	1	blank2r.bmp	500	1	GKQX	500	1	blank2r.bmp	880	2	hindern	880	1	!	-1	1	!	-1	0	0	0	0	0	0
2024-05-15	12:16:48	12:24:20	451606	6.6.1	4_exp_EVA_AWA_CON	37	B	A	Rpleas_acq	Same	Rpleas	1pleas	acq_US_pleas_nomask	acq45_nomask	5	12	400	1	300	300	0	0	360	46	0	0	loyal	helfen	schön	fair	treu	freundlich	lasch	hindern	schlecht	faul	tot	fanatisch	retten	tolerant	schlau	spielen	ehrlich	lachen	rächen	tyrannisch	schroff	strafen	eitel	leiden	1	blank2r.bmp	0	1	+	0	1	blank2r.bmp	500	1	BMVZ	500	1	blank2r.bmp	880	4	fair	880	1	!	1232	1	!	1262	0	0	0	0	0	0
2024-05-15	12:16:48	12:24:22	453700	6.6.1	4_exp_EVA_AWA_CON	37	B	A	Rpleas_acq	Same	Rpleas	1pleas	acq_US_pleas_nomask	acq45_nomask	5	13	400	0	300	300	0	0	314	50	1	0	loyal	helfen	schön	fair	treu	freundlich	lasch	hindern	schlecht	faul	tot	fanatisch	retten	tolerant	schlau	spielen	ehrlich	lachen	rächen	tyrannisch	schroff	strafen	eitel	leiden	1	blank2r.bmp	0	1	+	0	1	blank2r.bmp	500	1	BMVZ	500	1	blank2r.bmp	880	5	treu	880	1	!	-1	1	!	-1	0	0	0	0	0	0
2024-05-15	12:16:48	12:24:24	455804	6.6.1	4_exp_EVA_AWA_CON	37	B	A	Rpleas_acq	Same	Rpleas	1pleas	acq_US_unple_nomask	acq45_nomask	5	14	400	0	300	300	0	0	327	50	0	0	loyal	helfen	schön	fair	treu	freundlich	lasch	hindern	schlecht	faul	tot	fanatisch	retten	tolerant	schlau	spielen	ehrlich	lachen	rächen	tyrannisch	schroff	strafen	eitel	leiden	1	blank2r.bmp	0	1	+	0	1	blank2r.bmp	500	1	GKQX	500	1	blank2r.bmp	880	3	schlecht	880	1	!	-1	1	!	-1	0	0	0	0	0	0
2024-05-15	12:16:48	12:24:26	457868	6.6.1	4_exp_EVA_AWA_CON	37	B	A	Rpleas_acq	Same	Rpleas	1pleas	acq_US_unple_nomask	acq45_nomask	5	15	400	0	300	300	0	0	290	46	1	0	loyal	helfen	schön	fair	treu	freundlich	lasch	hindern	schlecht	faul	tot	fanatisch	retten	tolerant	schlau	spielen	ehrlich	lachen	rächen	tyrannisch	schroff	strafen	eitel	leiden	1	blank2r.bmp	0	1	+	0	1	blank2r.bmp	500	1	GKQX	500	1	blank2r.bmp	880	1	lasch	880	1	!	-1	1	!	-1	0	0	0	0	0	0
2024-05-15	12:16:48	12:24:28	460070	6.6.1	4_exp_EVA_AWA_CON	37	B	A	Rpleas_acq	Same	Rpleas	1pleas	acq_US_unple_nomask	acq45_nomask	5	16	400	1	300	300	0	0	418	46	1	0	loyal	helfen	schön	fair	treu	freundlich	lasch	hindern	schlecht	faul	tot	fanatisch	retten	tolerant	schlau	spielen	ehrlich	lachen	rächen	tyrannisch	schroff	strafen	eitel	leiden	1	blank2r.bmp	0	1	+	0	1	blank2r.bmp	500	1	GKQX	500	1	blank2r.bmp	880	6	fanatisch	880	1	!	1233	1	!	1320	0	0	0	0	0	0
2024-05-15	12:16:48	12:24:30	462270	6.6.1	4_exp_EVA_AWA_CON	37	B	A	Rpleas_acq	Same	Rpleas	1pleas	acq_US_unple_nomask	acq45_nomask	5	17	400	1	300	300	0	0	417	46	1	0	loyal	helfen	schön	fair	treu	freundlich	lasch	hindern	schlecht	faul	tot	fanatisch	retten	tolerant	schlau	spielen	ehrlich	lachen	rächen	tyrannisch	schroff	strafen	eitel	leiden	1	blank2r.bmp	0	1	+	0	1	blank2r.bmp	500	1	GKQX	500	1	blank2r.bmp	880	2	hindern	880	1	!	1232	1	!	1318	0	0	0	0	0	0
2024-05-15	12:16:48	12:24:32	464244	6.6.1	4_exp_EVA_AWA_CON	37	B	A	Rpleas_acq	Same	Rpleas	1pleas	acq_US_pleas_nomask	acq45_nomask	5	18	400	0	300	300	0	0	202	46	0	0	loyal	helfen	schön	fair	treu	freundlich	lasch	hindern	schlecht	faul	tot	fanatisch	retten	tolerant	schlau	spielen	ehrlich	lachen	rächen	tyrannisch	schroff	strafen	eitel	leiden	1	blank2r.bmp	0	1	+	0	1	blank2r.bmp	500	1	BMVZ	500	1	blank2r.bmp	880	1	loyal	880	1	!	-1	1	!	-1	0	0	0	0	0	0
2024-05-15	12:16:48	12:24:34	466292	6.6.1	4_exp_EVA_AWA_CON	37	B	A	Rpleas_acq	Same	Rpleas	1pleas	acq_US_unple_nomask	acq45_nomask	5	19	400	0	300	300	0	0	268	50	0	0	loyal	helfen	schön	fair	treu	freundlich	lasch	hindern	schlecht	faul	tot	fanatisch	retten	tolerant	schlau	spielen	ehrlich	lachen	rächen	tyrannisch	schroff	strafen	eitel	leiden	1	blank2r.bmp	0	1	+	0	1	blank2r.bmp	500	1	GKQX	500	1	blank2r.bmp	880	3	schlecht	880	1	!	-1	1	!	-1	0	0	0	0	0	0
2024-05-15	12:16:48	12:24:36	468437	6.6.1	4_exp_EVA_AWA_CON	37	B	A	Rpleas_acq	Same	Rpleas	1pleas	acq_US_unple_nomask	acq45_nomask	5	20	400	1	300	300	0	0	371	46	1	0	loyal	helfen	schön	fair	treu	freundlich	lasch	hindern	schlecht	faul	tot	fanatisch	retten	tolerant	schlau	spielen	ehrlich	lachen	rächen	tyrannisch	schroff	strafen	eitel	leiden	1	blank2r.bmp	0	1	+	0	1	blank2r.bmp	500	1	GKQX	500	1	blank2r.bmp	880	4	faul	880	1	!	1232	1	!	1272	0	0	0	0	0	0
2024-05-15	12:16:48	12:24:39	470589	6.6.1	4_exp_EVA_AWA_CON	37	B	A	Rpleas_acq	Same	Rpleas	1pleas	acq_US_unple_nomask	acq45_nomask	5	21	400	1	300	300	0	0	372	46	1	0	loyal	helfen	schön	fair	treu	freundlich	lasch	hindern	schlecht	faul	tot	fanatisch	retten	tolerant	schlau	spielen	ehrlich	lachen	rächen	tyrannisch	schroff	strafen	eitel	leiden	1	blank2r.bmp	0	1	+	0	1	blank2r.bmp	500	1	GKQX	500	1	blank2r.bmp	880	5	tot	880	1	!	1232	1	!	1273	0	0	0	0	0	0
2024-05-15	12:16:48	12:24:41	472798	6.6.1	4_exp_EVA_AWA_CON	37	B	A	Rpleas_acq	Same	Rpleas	1pleas	acq_US_pleas_nomask	acq45_nomask	5	22	400	1	300	300	0	0	428	50	1	0	loyal	helfen	schön	fair	treu	freundlich	lasch	hindern	schlecht	faul	tot	fanatisch	retten	tolerant	schlau	spielen	ehrlich	lachen	rächen	tyrannisch	schroff	strafen	eitel	leiden	1	blank2r.bmp	0	1	+	0	1	blank2r.bmp	500	1	BMVZ	500	1	blank2r.bmp	880	3	schön	880	1	!	1232	1	!	1330	0	0	0	0	0	0
2024-05-15	12:16:48	12:24:43	474852	6.6.1	4_exp_EVA_AWA_CON	37	B	A	Rpleas_acq	Same	Rpleas	1pleas	acq_US_unple_nomask	acq45_nomask	5	23	400	0	300	300	0	0	273	46	1	0	loyal	helfen	schön	fair	treu	freundlich	lasch	hindern	schlecht	faul	tot	fanatisch	retten	tolerant	schlau	spielen	ehrlich	lachen	rächen	tyrannisch	schroff	strafen	eitel	leiden	1	blank2r.bmp	0	1	+	0	1	blank2r.bmp	500	1	GKQX	500	1	blank2r.bmp	880	6	fanatisch	880	1	!	-1	1	!	-1	0	0	0	0	0	0
2024-05-15	12:16:48	12:24:45	476916	6.6.1	4_exp_EVA_AWA_CON	37	B	A	Rpleas_acq	Same	Rpleas	1pleas	acq_US_unple_nomask	acq45_nomask	5	24	400	0	300	300	0	0	286	50	0	0	loyal	helfen	schön	fair	treu	freundlich	lasch	hindern	schlecht	faul	tot	fanatisch	retten	tolerant	schlau	spielen	ehrlich	lachen	rächen	tyrannisch	schroff	strafen	eitel	leiden	1	blank2r.bmp	0	1	+	0	1	blank2r.bmp	500	1	GKQX	500	1	blank2r.bmp	880	3	schlecht	880	1	!	-1	1	!	-1	0	0	0	0	0	0
2024-05-15	12:16:48	12:24:47	479012	6.6.1	4_exp_EVA_AWA_CON	37	B	A	Rpleas_acq	Same	Rpleas	1pleas	acq_US_pleas_nomask	acq45_nomask	5	25	400	0	300	300	0	0	320	46	0	0	loyal	helfen	schön	fair	treu	freundlich	lasch	hindern	schlecht	faul	tot	fanatisch	retten	tolerant	schlau	spielen	ehrlich	lachen	rächen	tyrannisch	schroff	strafen	eitel	leiden	1	blank2r.bmp	0	1	+	0	1	blank2r.bmp	500	1	BMVZ	500	1	blank2r.bmp	880	6	freundlich	880	1	!	-1	1	!	-1	0	0	0	0	0	0
2024-05-15	12:16:48	12:24:49	480987	6.6.1	4_exp_EVA_AWA_CON	37	B	A	Rpleas_acq	Same	Rpleas	1pleas	acq_US_pleas_nomask	acq45_nomask	5	26	400	0	300	300	0	0	195	46	0	0	loyal	helfen	schön	fair	treu	freundlich	lasch	hindern	schlecht	faul	tot	fanatisch	retten	tolerant	schlau	spielen	ehrlich	lachen	rächen	tyrannisch	schroff	strafen	eitel	leiden	1	blank2r.bmp	0	1	+	0	1	blank2r.bmp	500	1	BMVZ	500	1	blank2r.bmp	880	2	helfen	880	1	!	-1	1	!	-1	0	0	0	0	0	0
2024-05-15	12:16:48	12:24:51	483157	6.6.1	4_exp_EVA_AWA_CON	37	B	A	Rpleas_acq	Same	Rpleas	1pleas	acq_US_unple_nomask	acq45_nomask	5	27	400	1	300	300	0	0	392	46	1	0	loyal	helfen	schön	fair	treu	freundlich	lasch	hindern	schlecht	faul	tot	fanatisch	retten	tolerant	schlau	spielen	ehrlich	lachen	rächen	tyrannisch	schroff	strafen	eitel	leiden	1	blank2r.bmp	0	1	+	0	1	blank2r.bmp	500	1	GKQX	500	1	blank2r.bmp	880	1	lasch	880	1	!	1232	1	!	1293	0	0	0	0	0	0
2024-05-15	12:16:48	12:24:53	485236	6.6.1	4_exp_EVA_AWA_CON	37	B	A	Rpleas_acq	Same	Rpleas	1pleas	acq_US_unple_nomask	acq45_nomask	5	28	400	0	300	300	0	0	300	46	1	0	loyal	helfen	schön	fair	treu	freundlich	lasch	hindern	schlecht	faul	tot	fanatisch	retten	tolerant	schlau	spielen	ehrlich	lachen	rächen	tyrannisch	schroff	strafen	eitel	leiden	1	blank2r.bmp	0	1	+	0	1	blank2r.bmp	500	1	GKQX	500	1	blank2r.bmp	880	4	faul	880	1	!	-1	1	!	-1	0	0	0	0	0	0
2024-05-15	12:16:48	12:24:55	487291	6.6.1	4_exp_EVA_AWA_CON	37	B	A	Rpleas_acq	Same	Rpleas	1pleas	acq_US_pleas_nomask	acq45_nomask	5	29	400	0	300	300	0	0	275	46	0	0	loyal	helfen	schön	fair	treu	freundlich	lasch	hindern	schlecht	faul	tot	fanatisch	retten	tolerant	schlau	spielen	ehrlich	lachen	rächen	tyrannisch	schroff	strafen	eitel	leiden	1	blank2r.bmp	0	1	+	0	1	blank2r.bmp	500	1	BMVZ	500	1	blank2r.bmp	880	5	treu	880	1	!	-1	1	!	-1	0	0	0	0	0	0
2024-05-15	12:16:48	12:24:57	489445	6.6.1	4_exp_EVA_AWA_CON	37	B	A	Rpleas_acq	Same	Rpleas	1pleas	acq_US_pleas_nomask	acq45_nomask	5	30	400	1	300	300	0	0	375	46	0	0	loyal	helfen	schön	fair	treu	freundlich	lasch	hindern	schlecht	faul	tot	fanatisch	retten	tolerant	schlau	spielen	ehrlich	lachen	rächen	tyrannisch	schroff	strafen	eitel	leiden	1	blank2r.bmp	0	1	+	0	1	blank2r.bmp	500	1	BMVZ	500	1	blank2r.bmp	880	2	helfen	880	1	!	1232	1	!	1277	0	0	0	0	0	0
2024-05-15	12:16:48	12:24:59	491531	6.6.1	4_exp_EVA_AWA_CON	37	B	A	Rpleas_acq	Same	Rpleas	1pleas	acq_US_pleas_nomask	acq45_nomask	5	31	400	0	300	300	0	0	312	46	0	0	loyal	helfen	schön	fair	treu	freundlich	lasch	hindern	schlecht	faul	tot	fanatisch	retten	tolerant	schlau	spielen	ehrlich	lachen	rächen	tyrannisch	schroff	strafen	eitel	leiden	1	blank2r.bmp	0	1	+	0	1	blank2r.bmp	500	1	BMVZ	500	1	blank2r.bmp	880	4	fair	880	1	!	-1	1	!	-1	0	0	0	0	0	0
2024-05-15	12:16:48	12:25:02	493588	6.6.1	4_exp_EVA_AWA_CON	37	B	A	Rpleas_acq	Same	Rpleas	1pleas	acq_US_pleas_nomask	acq45_nomask	5	32	400	0	300	300	0	0	277	50	1	0	loyal	helfen	schön	fair	treu	freundlich	lasch	hindern	schlecht	faul	tot	fanatisch	retten	tolerant	schlau	spielen	ehrlich	lachen	rächen	tyrannisch	schroff	strafen	eitel	leiden	1	blank2r.bmp	0	1	+	0	1	blank2r.bmp	500	1	BMVZ	500	1	blank2r.bmp	880	3	schön	880	1	!	-1	1	!	-1	0	0	0	0	0	0
2024-05-15	12:16:48	12:25:04	495652	6.6.1	4_exp_EVA_AWA_CON	37	B	A	Rpleas_acq	Same	Rpleas	1pleas	acq_US_pleas_nomask	acq45_nomask	5	33	400	0	300	300	0	0	290	46	0	0	loyal	helfen	schön	fair	treu	freundlich	lasch	hindern	schlecht	faul	tot	fanatisch	retten	tolerant	schlau	spielen	ehrlich	lachen	rächen	tyrannisch	schroff	strafen	eitel	leiden	1	blank2r.bmp	0	1	+	0	1	blank2r.bmp	500	1	BMVZ	500	1	blank2r.bmp	880	1	loyal	880	1	!	-1	1	!	-1	0	0	0	0	0	0
2024-05-15	12:16:48	12:25:06	497906	6.6.1	4_exp_EVA_AWA_CON	37	B	A	Rpleas_acq	Same	Rpleas	1pleas	acq_US_unple_nomask	acq45_nomask	5	34	400	0	300	300	0	0	474	46	1	0	loyal	helfen	schön	fair	treu	freundlich	lasch	hindern	schlecht	faul	tot	fanatisch	retten	tolerant	schlau	spielen	ehrlich	lachen	rächen	tyrannisch	schroff	strafen	eitel	leiden	1	blank2r.bmp	0	1	+	0	1	blank2r.bmp	500	1	GKQX	500	1	blank2r.bmp	880	5	tot	880	1	!	1232	1	!	-1	0	0	0	0	0	0
2024-05-15	12:16:48	12:25:08	500133	6.6.1	4_exp_EVA_AWA_CON	37	B	A	Rpleas_acq	Same	Rpleas	1pleas	acq_US_unple_nomask	acq45_nomask	5	35	400	1	300	300	0	0	447	46	1	0	loyal	helfen	schön	fair	treu	freundlich	lasch	hindern	schlecht	faul	tot	fanatisch	retten	tolerant	schlau	spielen	ehrlich	lachen	rächen	tyrannisch	schroff	strafen	eitel	leiden	1	blank2r.bmp	0	1	+	0	1	blank2r.bmp	500	1	GKQX	500	1	blank2r.bmp	880	2	hindern	880	1	!	1232	1	!	1348	0	0	0	0	0	0
2024-05-15	12:16:48	12:25:10	502219	6.6.1	4_exp_EVA_AWA_CON	37	B	A	Rpleas_acq	Same	Rpleas	1pleas	acq_US_pleas_nomask	acq45_nomask	5	36	400	0	300	300	0	0	313	50	1	0	loyal	helfen	schön	fair	treu	freundlich	lasch	hindern	schlecht	faul	tot	fanatisch	retten	tolerant	schlau	spielen	ehrlich	lachen	rächen	tyrannisch	schroff	strafen	eitel	leiden	1	blank2r.bmp	0	1	+	0	1	blank2r.bmp	500	1	BMVZ	500	1	blank2r.bmp	880	6	freundlich	880	1	!	-1	1	!	-1	0	0	0	0	0	0
2024-05-15	12:16:48	12:25:24	516520	6.6.1	4_exp_EVA_AWA_CON	37	B	A	Rpleas_acq	Same	Rpleas	1pleas	EvalRating_firsttwo	EvalRating_firsttwo	6	1	0	0	300	300	0	0	10952	line	0	-16,796875pct	loyal	helfen	schön	fair	treu	freundlich	lasch	hindern	schlecht	faul	tot	fanatisch	retten	tolerant	schlau	spielen	ehrlich	lachen	rächen	tyrannisch	schroff	strafen	eitel	leiden	1		-8	1	Wie angenehm oder unangenehm finden Sie die  Buchstabenkette ZGVK?	-8	1		-8	1		-8	1		-8	1	Unangenehm	-8	1	Angenehm	-8	0	0	0	0	0	0	0	0	0
2024-05-15	12:16:48	12:25:29	521416	6.6.1	4_exp_EVA_AWA_CON	37	B	A	Rpleas_acq	Same	Rpleas	1pleas	EvalRating_lastfour	EvalRating_lastfour	7	1	0	0	300	300	0	0	2520	line	0	-12,6302083333333285964pct	loyal	helfen	schön	fair	treu	freundlich	lasch	hindern	schlecht	faul	tot	fanatisch	retten	tolerant	schlau	spielen	ehrlich	lachen	rächen	tyrannisch	schroff	strafen	eitel	leiden	1		-7	2	Wie angenehm oder unangenehm finden Sie die  Buchstabenkette GKQX?	-7	1		-7	1		-7	1		-7	1	Unangenehm	-7	1	Angenehm	-7	0	0	0	0	0	0	0	0	0
2024-05-15	12:16:48	12:25:32	523781	6.6.1	4_exp_EVA_AWA_CON	37	B	A	Rpleas_acq	Same	Rpleas	1pleas	blank_screen	EvalRating_lastfour	7	3	0	0	300	300	0	0	0	0	0	-12,6302083333333285964pct	loyal	helfen	schön	fair	treu	freundlich	lasch	hindern	schlecht	faul	tot	fanatisch	retten	tolerant	schlau	spielen	ehrlich	lachen	rächen	tyrannisch	schroff	strafen	eitel	leiden	1		-8	0	0	0	0	0	0	0	0	0	0	0	0	0	0	0	0	0	0	0	0	0	0	0	0	0	0	0
2024-05-15	12:16:48	12:25:35	526672	6.6.1	4_exp_EVA_AWA_CON	37	B	A	Rpleas_acq	Same	Rpleas	1pleas	EvalRating_lastfour	EvalRating_lastfour	7	4	0	0	300	300	0	0	2302	line	0	-7,8125pct	loyal	helfen	schön	fair	treu	freundlich	lasch	hindern	schlecht	faul	tot	fanatisch	retten	tolerant	schlau	spielen	ehrlich	lachen	rächen	tyrannisch	schroff	strafen	eitel	leiden	1		-8	1	Wie angenehm oder unangenehm finden Sie die  Buchstabenkette BMVZ?	-8	1		-8	1		-8	1		-8	1	Unangenehm	-8	1	Angenehm	-8	0	0	0	0	0	0	0	0	0
2024-05-15	12:16:48	12:25:37	529045	6.6.1	4_exp_EVA_AWA_CON	37	B	A	Rpleas_acq	Same	Rpleas	1pleas	blank_screen	EvalRating_lastfour	7	6	0	0	300	300	0	0	0	0	0	-7,8125pct	loyal	helfen	schön	fair	treu	freundlich	lasch	hindern	schlecht	faul	tot	fanatisch	retten	tolerant	schlau	spielen	ehrlich	lachen	rächen	tyrannisch	schroff	strafen	eitel	leiden	1		-8	0	0	0	0	0	0	0	0	0	0	0	0	0	0	0	0	0	0	0	0	0	0	0	0	0	0	0
2024-05-15	12:16:48	12:25:39	531177	6.6.1	4_exp_EVA_AWA_CON	37	B	A	Rpleas_acq	Same	Rpleas	1pleas	EvalRating_lastfour	EvalRating_lastfour	7	7	0	0	300	300	0	0	1544	line	0	-37,6302083333333285964pct	loyal	helfen	schön	fair	treu	freundlich	lasch	hindern	schlecht	faul	tot	fanatisch	retten	tolerant	schlau	spielen	ehrlich	lachen	rächen	tyrannisch	schroff	strafen	eitel	leiden	1		-8	3	Wie angenehm oder unangenehm finden Sie die  Buchstabenkette XBQM?	-8	1		-8	1		-8	1		-8	1	Unangenehm	-8	1	Angenehm	-8	0	0	0	0	0	0	0	0	0
2024-05-15	12:16:48	12:26:05	557481	6.6.1	4_exp_EVA_AWA_CON	37	B	A	Rpleas_acq	Same	Rpleas	1pleas	conawa_CS2_US1	conawa1_nomask	8	1	0	0	300	300	0	0	9157	loyal	1	-37,6302083333333285964pct	loyal	helfen	schön	fair	treu	freundlich	lasch	hindern	schlecht	faul	tot	fanatisch	retten	tolerant	schlau	spielen	ehrlich	lachen	rächen	tyrannisch	schroff	strafen	eitel	leiden	0	0	0	0	0	0	0	0	0	0	0	0	0	0	0	0	0	0	0	0	0	0	0	0	0	0	0	0	0	0
2024-05-15	12:16:48	12:26:05	557483	6.6.1	4_exp_EVA_AWA_CON	37	B	A	Rpleas_acq	Same	Rpleas	1pleas	conawa_CS2_US1_confidence	conawa1_nomask	8	1	0	0	300	300	0	0	9157	guess	1	-37,6302083333333285964pct	loyal	helfen	schön	fair	treu	freundlich	lasch	hindern	schlecht	faul	tot	fanatisch	retten	tolerant	schlau	spielen	ehrlich	lachen	rächen	tyrannisch	schroff	strafen	eitel	leiden	0	0	0	0	0	0	0	0	0	0	0	0	0	0	0	0	0	0	0	0	0	0	0	0	0	0	0	0	0	0
2024-05-15	12:16:48	12:26:10	562034	6.6.1	4_exp_EVA_AWA_CON	37	B	A	Rpleas_acq	Same	Rpleas	1pleas	conawa_CS1_US4	conawa1_nomask	8	2	0	0	300	300	0	0	3932	fair	1	-37,6302083333333285964pct	loyal	helfen	schön	fair	treu	freundlich	lasch	hindern	schlecht	faul	tot	fanatisch	retten	tolerant	schlau	spielen	ehrlich	lachen	rächen	tyrannisch	schroff	strafen	eitel	leiden	0	0	0	0	0	0	0	0	0	0	0	0	0	0	0	0	0	0	0	0	0	0	0	0	0	0	0	0	0	0
2024-05-15	12:16:48	12:26:10	562036	6.6.1	4_exp_EVA_AWA_CON	37	B	A	Rpleas_acq	Same	Rpleas	1pleas	conawa_CS1_US4_confidence	conawa1_nomask	8	2	0	0	300	300	0	0	3932	guess	1	-37,6302083333333285964pct	loyal	helfen	schön	fair	treu	freundlich	lasch	hindern	schlecht	faul	tot	fanatisch	retten	tolerant	schlau	spielen	ehrlich	lachen	rächen	tyrannisch	schroff	strafen	eitel	leiden	0	0	0	0	0	0	0	0	0	0	0	0	0	0	0	0	0	0	0	0	0	0	0	0	0	0	0	0	0	0
2024-05-15	12:16:48	12:26:16	568418	6.6.1	4_exp_EVA_AWA_CON	37	B	A	Rpleas_acq	Same	Rpleas	1pleas	conawa_CS1_US5	conawa1_nomask	8	3	0	0	300	300	0	0	5770	treu	1	-37,6302083333333285964pct	loyal	helfen	schön	fair	treu	freundlich	lasch	hindern	schlecht	faul	tot	fanatisch	retten	tolerant	schlau	spielen	ehrlich	lachen	rächen	tyrannisch	schroff	strafen	eitel	leiden	0	0	0	0	0	0	0	0	0	0	0	0	0	0	0	0	0	0	0	0	0	0	0	0	0	0	0	0	0	0
2024-05-15	12:16:48	12:26:16	568420	6.6.1	4_exp_EVA_AWA_CON	37	B	A	Rpleas_acq	Same	Rpleas	1pleas	conawa_CS1_US5_confidence	conawa1_nomask	8	3	0	0	300	300	0	0	5770	guess	1	-37,6302083333333285964pct	loyal	helfen	schön	fair	treu	freundlich	lasch	hindern	schlecht	faul	tot	fanatisch	retten	tolerant	schlau	spielen	ehrlich	lachen	rächen	tyrannisch	schroff	strafen	eitel	leiden	0	0	0	0	0	0	0	0	0	0	0	0	0	0	0	0	0	0	0	0	0	0	0	0	0	0	0	0	0	0
2024-05-15	12:16:48	12:26:21	573531	6.6.1	4_exp_EVA_AWA_CON	37	B	A	Rpleas_acq	Same	Rpleas	1pleas	conawa_CS2_US3	conawa1_nomask	8	4	0	0	300	300	0	0	4496	strafen	1	-37,6302083333333285964pct	loyal	helfen	schön	fair	treu	freundlich	lasch	hindern	schlecht	faul	tot	fanatisch	retten	tolerant	schlau	spielen	ehrlich	lachen	rächen	tyrannisch	schroff	strafen	eitel	leiden	0	0	0	0	0	0	0	0	0	0	0	0	0	0	0	0	0	0	0	0	0	0	0	0	0	0	0	0	0	0
2024-05-15	12:16:48	12:26:21	573533	6.6.1	4_exp_EVA_AWA_CON	37	B	A	Rpleas_acq	Same	Rpleas	1pleas	conawa_CS2_US3_confidence	conawa1_nomask	8	4	0	0	300	300	0	0	4496	guess	1	-37,6302083333333285964pct	loyal	helfen	schön	fair	treu	freundlich	lasch	hindern	schlecht	faul	tot	fanatisch	retten	tolerant	schlau	spielen	ehrlich	lachen	rächen	tyrannisch	schroff	strafen	eitel	leiden	0	0	0	0	0	0	0	0	0	0	0	0	0	0	0	0	0	0	0	0	0	0	0	0	0	0	0	0	0	0
2024-05-15	12:16:48	12:26:26	577925	6.6.1	4_exp_EVA_AWA_CON	37	B	A	Rpleas_acq	Same	Rpleas	1pleas	conawa_CS2_US2	conawa1_nomask	8	5	0	0	300	300	0	0	3783	schroff	1	-37,6302083333333285964pct	loyal	helfen	schön	fair	treu	freundlich	lasch	hindern	schlecht	faul	tot	fanatisch	retten	tolerant	schlau	spielen	ehrlich	lachen	rächen	tyrannisch	schroff	strafen	eitel	leiden	0	0	0	0	0	0	0	0	0	0	0	0	0	0	0	0	0	0	0	0	0	0	0	0	0	0	0	0	0	0
2024-05-15	12:16:48	12:26:26	577926	6.6.1	4_exp_EVA_AWA_CON	37	B	A	Rpleas_acq	Same	Rpleas	1pleas	conawa_CS2_US2_confidence	conawa1_nomask	8	5	0	0	300	300	0	0	3783	guess	1	-37,6302083333333285964pct	loyal	helfen	schön	fair	treu	freundlich	lasch	hindern	schlecht	faul	tot	fanatisch	retten	tolerant	schlau	spielen	ehrlich	lachen	rächen	tyrannisch	schroff	strafen	eitel	leiden	0	0	0	0	0	0	0	0	0	0	0	0	0	0	0	0	0	0	0	0	0	0	0	0	0	0	0	0	0	0
2024-05-15	12:16:48	12:26:30	582037	6.6.1	4_exp_EVA_AWA_CON	37	B	A	Rpleas_acq	Same	Rpleas	1pleas	conawa_CS1_US2	conawa1_nomask	8	6	0	0	300	300	0	0	3493	helfen	1	-37,6302083333333285964pct	loyal	helfen	schön	fair	treu	freundlich	lasch	hindern	schlecht	faul	tot	fanatisch	retten	tolerant	schlau	spielen	ehrlich	lachen	rächen	tyrannisch	schroff	strafen	eitel	leiden	0	0	0	0	0	0	0	0	0	0	0	0	0	0	0	0	0	0	0	0	0	0	0	0	0	0	0	0	0	0
2024-05-15	12:16:48	12:26:30	582039	6.6.1	4_exp_EVA_AWA_CON	37	B	A	Rpleas_acq	Same	Rpleas	1pleas	conawa_CS1_US2_confidence	conawa1_nomask	8	6	0	0	300	300	0	0	3493	guess	1	-37,6302083333333285964pct	loyal	helfen	schön	fair	treu	freundlich	lasch	hindern	schlecht	faul	tot	fanatisch	retten	tolerant	schlau	spielen	ehrlich	lachen	rächen	tyrannisch	schroff	strafen	eitel	leiden	0	0	0	0	0	0	0	0	0	0	0	0	0	0	0	0	0	0	0	0	0	0	0	0	0	0	0	0	0	0
2024-05-15	12:16:48	12:26:35	587040	6.6.1	4_exp_EVA_AWA_CON	37	B	A	Rpleas_acq	Same	Rpleas	1pleas	conawa_CS2_US4	conawa1_nomask	8	7	0	0	300	300	0	0	4391	fair	1	-37,6302083333333285964pct	loyal	helfen	schön	fair	treu	freundlich	lasch	hindern	schlecht	faul	tot	fanatisch	retten	tolerant	schlau	spielen	ehrlich	lachen	rächen	tyrannisch	schroff	strafen	eitel	leiden	0	0	0	0	0	0	0	0	0	0	0	0	0	0	0	0	0	0	0	0	0	0	0	0	0	0	0	0	0	0
2024-05-15	12:16:48	12:26:35	587042	6.6.1	4_exp_EVA_AWA_CON	37	B	A	Rpleas_acq	Same	Rpleas	1pleas	conawa_CS2_US4_confidence	conawa1_nomask	8	7	0	0	300	300	0	0	4391	guess	1	-37,6302083333333285964pct	loyal	helfen	schön	fair	treu	freundlich	lasch	hindern	schlecht	faul	tot	fanatisch	retten	tolerant	schlau	spielen	ehrlich	lachen	rächen	tyrannisch	schroff	strafen	eitel	leiden	0	0	0	0	0	0	0	0	0	0	0	0	0	0	0	0	0	0	0	0	0	0	0	0	0	0	0	0	0	0
2024-05-15	12:16:48	12:26:39	591493	6.6.1	4_exp_EVA_AWA_CON	37	B	A	Rpleas_acq	Same	Rpleas	1pleas	conawa_CS1_US1	conawa1_nomask	8	8	0	0	300	300	0	0	3834	loyal	1	-37,6302083333333285964pct	loyal	helfen	schön	fair	treu	freundlich	lasch	hindern	schlecht	faul	tot	fanatisch	retten	tolerant	schlau	spielen	ehrlich	lachen	rächen	tyrannisch	schroff	strafen	eitel	leiden	0	0	0	0	0	0	0	0	0	0	0	0	0	0	0	0	0	0	0	0	0	0	0	0	0	0	0	0	0	0
2024-05-15	12:16:48	12:26:39	591495	6.6.1	4_exp_EVA_AWA_CON	37	B	A	Rpleas_acq	Same	Rpleas	1pleas	conawa_CS1_US1_confidence	conawa1_nomask	8	8	0	0	300	300	0	0	3834	guess	1	-37,6302083333333285964pct	loyal	helfen	schön	fair	treu	freundlich	lasch	hindern	schlecht	faul	tot	fanatisch	retten	tolerant	schlau	spielen	ehrlich	lachen	rächen	tyrannisch	schroff	strafen	eitel	leiden	0	0	0	0	0	0	0	0	0	0	0	0	0	0	0	0	0	0	0	0	0	0	0	0	0	0	0	0	0	0
2024-05-15	12:16:48	12:26:44	595776	6.6.1	4_exp_EVA_AWA_CON	37	B	A	Rpleas_acq	Same	Rpleas	1pleas	conawa_CS1_US6	conawa1_nomask	8	9	0	0	300	300	0	0	3669	lachen	1	-37,6302083333333285964pct	loyal	helfen	schön	fair	treu	freundlich	lasch	hindern	schlecht	faul	tot	fanatisch	retten	tolerant	schlau	spielen	ehrlich	lachen	rächen	tyrannisch	schroff	strafen	eitel	leiden	0	0	0	0	0	0	0	0	0	0	0	0	0	0	0	0	0	0	0	0	0	0	0	0	0	0	0	0	0	0
2024-05-15	12:16:48	12:26:44	595778	6.6.1	4_exp_EVA_AWA_CON	37	B	A	Rpleas_acq	Same	Rpleas	1pleas	conawa_CS1_US6_confidence	conawa1_nomask	8	9	0	0	300	300	0	0	3669	guess	1	-37,6302083333333285964pct	loyal	helfen	schön	fair	treu	freundlich	lasch	hindern	schlecht	faul	tot	fanatisch	retten	tolerant	schlau	spielen	ehrlich	lachen	rächen	tyrannisch	schroff	strafen	eitel	leiden	0	0	0	0	0	0	0	0	0	0	0	0	0	0	0	0	0	0	0	0	0	0	0	0	0	0	0	0	0	0
2024-05-15	12:16:48	12:26:47	599098	6.6.1	4_exp_EVA_AWA_CON	37	B	A	Rpleas_acq	Same	Rpleas	1pleas	conawa_CS2_US6	conawa1_nomask	8	10	0	0	300	300	0	0	2705	freundlich	1	-37,6302083333333285964pct	loyal	helfen	schön	fair	treu	freundlich	lasch	hindern	schlecht	faul	tot	fanatisch	retten	tolerant	schlau	spielen	ehrlich	lachen	rächen	tyrannisch	schroff	strafen	eitel	leiden	0	0	0	0	0	0	0	0	0	0	0	0	0	0	0	0	0	0	0	0	0	0	0	0	0	0	0	0	0	0
2024-05-15	12:16:48	12:26:47	599100	6.6.1	4_exp_EVA_AWA_CON	37	B	A	Rpleas_acq	Same	Rpleas	1pleas	conawa_CS2_US6_confidence	conawa1_nomask	8	10	0	0	300	300	0	0	2705	guess	1	-37,6302083333333285964pct	loyal	helfen	schön	fair	treu	freundlich	lasch	hindern	schlecht	faul	tot	fanatisch	retten	tolerant	schlau	spielen	ehrlich	lachen	rächen	tyrannisch	schroff	strafen	eitel	leiden	0	0	0	0	0	0	0	0	0	0	0	0	0	0	0	0	0	0	0	0	0	0	0	0	0	0	0	0	0	0
2024-05-15	12:16:48	12:26:52	603751	6.6.1	4_exp_EVA_AWA_CON	37	B	A	Rpleas_acq	Same	Rpleas	1pleas	conawa_CS2_US5	conawa1_nomask	8	11	0	0	300	300	0	0	4040	treu	1	-37,6302083333333285964pct	loyal	helfen	schön	fair	treu	freundlich	lasch	hindern	schlecht	faul	tot	fanatisch	retten	tolerant	schlau	spielen	ehrlich	lachen	rächen	tyrannisch	schroff	strafen	eitel	leiden	0	0	0	0	0	0	0	0	0	0	0	0	0	0	0	0	0	0	0	0	0	0	0	0	0	0	0	0	0	0
2024-05-15	12:16:48	12:26:52	603753	6.6.1	4_exp_EVA_AWA_CON	37	B	A	Rpleas_acq	Same	Rpleas	1pleas	conawa_CS2_US5_confidence	conawa1_nomask	8	11	0	0	300	300	0	0	4040	guess	1	-37,6302083333333285964pct	loyal	helfen	schön	fair	treu	freundlich	lasch	hindern	schlecht	faul	tot	fanatisch	retten	tolerant	schlau	spielen	ehrlich	lachen	rächen	tyrannisch	schroff	strafen	eitel	leiden	0	0	0	0	0	0	0	0	0	0	0	0	0	0	0	0	0	0	0	0	0	0	0	0	0	0	0	0	0	0
2024-05-15	12:16:48	12:26:56	608224	6.6.1	4_exp_EVA_AWA_CON	37	B	A	Rpleas_acq	Same	Rpleas	1pleas	conawa_CS1_US3	conawa1_nomask	8	12	0	0	300	300	0	0	3859	schön	1	-37,6302083333333285964pct	loyal	helfen	schön	fair	treu	freundlich	lasch	hindern	schlecht	faul	tot	fanatisch	retten	tolerant	schlau	spielen	ehrlich	lachen	rächen	tyrannisch	schroff	strafen	eitel	leiden	0	0	0	0	0	0	0	0	0	0	0	0	0	0	0	0	0	0	0	0	0	0	0	0	0	0	0	0	0	0
2024-05-15	12:16:48	12:26:56	608226	6.6.1	4_exp_EVA_AWA_CON	37	B	A	Rpleas_acq	Same	Rpleas	1pleas	conawa_CS1_US3_confidence	conawa1_nomask	8	12	0	0	300	300	0	0	3859	guess	1	-37,6302083333333285964pct	loyal	helfen	schön	fair	treu	freundlich	lasch	hindern	schlecht	faul	tot	fanatisch	retten	tolerant	schlau	spielen	ehrlich	lachen	rächen	tyrannisch	schroff	strafen	eitel	leiden	0	0	0	0	0	0	0	0	0	0	0	0	0	0	0	0	0	0	0	0	0	0	0	0	0	0	0	0	0	0
2024-05-15	12:16:48	12:27:31	643438	6.6.1	4_exp_EVA_AWA_CON	37	B	A	Rpleas_acq	Same	Rpleas	1pleas	cond_US_pleas_123_nomask_CS1	condtest_nomask_1	11	1	400	1	300	300	0	0	389	46	0	-37,6302083333333285964pct	loyal	helfen	schön	fair	treu	freundlich	lasch	hindern	schlecht	faul	tot	fanatisch	retten	tolerant	schlau	spielen	ehrlich	lachen	rächen	tyrannisch	schroff	strafen	eitel	leiden	1	blank2r.bmp	0	1	+	0	1	blank2r.bmp	500	1	BMVZ	500	1	blank2r.bmp	880	3	schön	880	1	!	1232	1	!	1290	0	0	0	0	0	0
2024-05-15	12:16:48	12:27:34	645613	6.6.1	4_exp_EVA_AWA_CON	37	B	A	Rpleas_acq	Same	Rpleas	1pleas	cond_new_unple_456_nomask_CS2	condtest_nomask_1	11	2	400	1	300	300	0	0	393	50	0	-37,6302083333333285964pct	loyal	helfen	schön	fair	treu	freundlich	lasch	hindern	schlecht	faul	tot	fanatisch	retten	tolerant	schlau	spielen	ehrlich	lachen	rächen	tyrannisch	schroff	strafen	eitel	leiden	1	blank2r.bmp	0	1	+	0	1	blank2r.bmp	500	1	GKQX	500	1	blank2r.bmp	880	2	strafen	880	1	!	1232	1	!	1295	0	0	0	0	0	0
2024-05-15	12:16:48	12:27:37	648564	6.6.1	4_exp_EVA_AWA_CON	37	B	A	Rpleas_acq	Same	Rpleas	1pleas	cond_new_unple_456_nomask_CS1	condtest_nomask_1	11	3	400	0	300	300	0	0	1174	46	1	-37,6302083333333285964pct	loyal	helfen	schön	fair	treu	freundlich	lasch	hindern	schlecht	faul	tot	fanatisch	retten	tolerant	schlau	spielen	ehrlich	lachen	rächen	tyrannisch	schroff	strafen	eitel	leiden	1	blank2r.bmp	0	1	+	0	1	blank2r.bmp	500	1	BMVZ	500	1	blank2r.bmp	880	3	leiden	880	1	!	1232	1	!	-1	0	0	0	0	0	0
2024-05-15	12:16:48	12:27:39	650644	6.6.1	4_exp_EVA_AWA_CON	37	B	A	Rpleas_acq	Same	Rpleas	1pleas	cond_US_pleas_123_nomask_CS2	condtest_nomask_1	11	4	400	0	300	300	0	0	302	50	1	-37,6302083333333285964pct	loyal	helfen	schön	fair	treu	freundlich	lasch	hindern	schlecht	faul	tot	fanatisch	retten	tolerant	schlau	spielen	ehrlich	lachen	rächen	tyrannisch	schroff	strafen	eitel	leiden	1	blank2r.bmp	0	1	+	0	1	blank2r.bmp	500	1	GKQX	500	1	blank2r.bmp	880	3	helfen	880	1	!	-1	1	!	-1	0	0	0	0	0	0
2024-05-15	12:16:48	12:27:41	652700	6.6.1	4_exp_EVA_AWA_CON	37	B	A	Rpleas_acq	Same	Rpleas	1pleas	cond_US_unple_123_nomask_CS1	condtest_nomask_1	11	5	400	0	300	300	0	0	277	50	0	-37,6302083333333285964pct	loyal	helfen	schön	fair	treu	freundlich	lasch	hindern	schlecht	faul	tot	fanatisch	retten	tolerant	schlau	spielen	ehrlich	lachen	rächen	tyrannisch	schroff	strafen	eitel	leiden	1	blank2r.bmp	0	1	+	0	1	blank2r.bmp	500	1	BMVZ	500	1	blank2r.bmp	880	2	hindern	880	1	!	-1	1	!	-1	0	0	0	0	0	0
2024-05-15	12:16:48	12:27:43	654926	6.6.1	4_exp_EVA_AWA_CON	37	B	A	Rpleas_acq	Same	Rpleas	1pleas	cond_new_pleas_456_nomask_CS2	condtest_nomask_1	11	6	400	1	300	300	0	0	449	50	1	-37,6302083333333285964pct	loyal	helfen	schön	fair	treu	freundlich	lasch	hindern	schlecht	faul	tot	fanatisch	retten	tolerant	schlau	spielen	ehrlich	lachen	rächen	tyrannisch	schroff	strafen	eitel	leiden	1	blank2r.bmp	0	1	+	0	1	blank2r.bmp	500	1	GKQX	500	1	blank2r.bmp	880	2	spielen	880	1	!	1232	1	!	1352	0	0	0	0	0	0
2024-05-15	12:16:48	12:27:45	657158	6.6.1	4_exp_EVA_AWA_CON	37	B	A	Rpleas_acq	Same	Rpleas	1pleas	cond_US_unple_123_nomask_CS2	condtest_nomask_1	11	7	400	1	300	300	0	0	450	46	1	-37,6302083333333285964pct	loyal	helfen	schön	fair	treu	freundlich	lasch	hindern	schlecht	faul	tot	fanatisch	retten	tolerant	schlau	spielen	ehrlich	lachen	rächen	tyrannisch	schroff	strafen	eitel	leiden	1	blank2r.bmp	0	1	+	0	1	blank2r.bmp	500	1	GKQX	500	1	blank2r.bmp	880	3	hindern	880	1	!	1232	1	!	1352	0	0	0	0	0	0
2024-05-15	12:16:48	12:27:47	659268	6.6.1	4_exp_EVA_AWA_CON	37	B	A	Rpleas_acq	Same	Rpleas	1pleas	cond_new_pleas_456_nomask_CS1	condtest_nomask_1	11	8	400	0	300	300	0	0	330	50	1	-37,6302083333333285964pct	loyal	helfen	schön	fair	treu	freundlich	lasch	hindern	schlecht	faul	tot	fanatisch	retten	tolerant	schlau	spielen	ehrlich	lachen	rächen	tyrannisch	schroff	strafen	eitel	leiden	1	blank2r.bmp	0	1	+	0	1	blank2r.bmp	500	1	BMVZ	500	1	blank2r.bmp	880	3	lachen	880	1	!	-1	1	!	-1	0	0	0	0	0	0
2024-05-15	12:16:48	12:27:54	666262	6.6.1	4_exp_EVA_AWA_CON	37	B	A	Rpleas_acq	Same	Rpleas	1pleas	cond_US_unple_123_nomask_CS1	condtest_nomask_2	12	1	400	1	300	300	0	0	348	50	0	-37,6302083333333285964pct	loyal	helfen	schön	fair	treu	freundlich	lasch	hindern	schlecht	faul	tot	fanatisch	retten	tolerant	schlau	spielen	ehrlich	lachen	rächen	tyrannisch	schroff	strafen	eitel	leiden	1	blank2r.bmp	0	1	+	0	1	blank2r.bmp	500	1	BMVZ	500	1	blank2r.bmp	880	1	lasch	880	1	!	1232	1	!	1249	0	0	0	0	0	0
