date	time	currenttime	elapsedtime	build	currentexpt	subject	CS_AB	US_AB	LRpleas_acq	SameOppo	condition_Lpleas	condition_1pleas	trialcode	blockcode	blocknum	trialnum	windowcenter	inwindow	pretrialpause	posttrialpause	trialduration	trialtimeout	latency	response	correct	correctedscore	US_nomask_pleas1	US_nomask_pleas2	US_nomask_pleas3	US_nomask_pleas4	US_nomask_pleas5	US_nomask_pleas6	US_nomask_unple1	US_nomask_unple2	US_nomask_unple3	US_nomask_unple4	US_nomask_unple5	US_nomask_unple6	new_nomask_pleas1	new_nomask_pleas2	new_nomask_pleas3	new_nomask_pleas4	new_nomask_pleas5	new_nomask_pleas6	new_nomask_unple1	new_nomask_unple2	new_nomask_unple3	new_nomask_unple4	new_nomask_unple5	new_nomask_unple6	stimulusnumber1	stimulusitem1	stimulusonset1	stimulusnumber2	stimulusitem2	stimulusonset2	stimulusnumber3	stimulusitem3	stimulusonset3	stimulusnumber4	stimulusitem4	stimulusonset4	stimulusnumber5	stimulusitem5	stimulusonset5	stimulusnumber6	stimulusitem6	stimulusonset6	stimulusnumber7	stimulusitem7	stimulusonset7	stimulusnumber8	stimulusitem8	stimulusonset8	stimulusnumber9	stimulusitem9	stimulusonset9	stimulusnumber10	stimulusitem10	stimulusonset10
2024-05-13	12:09:21	12:10:27	65185	6.6.1	4_exp_EVA_AWA_CON	25	A	B	Rpleas_acq	Same	Rpleas	1pleas	acq_US_pleas_nomask	acq1_nomask	1	1	0	0	300	300	0	0	1089	50	1	0	träumen	besonnen	anregung	gesittet	engagiert	kreativ	töten	bange	ausrottung	geizig	engstirnig	krank	sonnig	kuss	vergnügt	genießen	gütig	vertrauen	sterben	krise	verbissen	gemein	gierig	versagen	1	blank2r.bmp	0	1	+	0	1	blank2r.bmp	500	1	CPLW	500	1	blank2r.bmp	880	5	engagiert	880	0	0	0	0	0	0	0	0	0	0	0	0
2024-05-13	12:09:21	12:10:29	67278	6.6.1	4_exp_EVA_AWA_CON	25	A	B	Rpleas_acq	Same	Rpleas	1pleas	acq_US_unple_nomask	acq1_nomask	1	2	0	0	300	300	0	0	610	46	1	0	träumen	besonnen	anregung	gesittet	engagiert	kreativ	töten	bange	ausrottung	geizig	engstirnig	krank	sonnig	kuss	vergnügt	genießen	gütig	vertrauen	sterben	krise	verbissen	gemein	gierig	versagen	1	blank2r.bmp	0	1	+	0	1	blank2r.bmp	500	1	DHJF	500	1	blank2r.bmp	880	1	töten	880	0	0	0	0	0	0	0	0	0	0	0	0
2024-05-13	12:09:21	12:10:32	69369	6.6.1	4_exp_EVA_AWA_CON	25	A	B	Rpleas_acq	Same	Rpleas	1pleas	acq_US_pleas_nomask	acq1_nomask	1	3	0	0	300	300	0	0	610	50	1	0	träumen	besonnen	anregung	gesittet	engagiert	kreativ	töten	bange	ausrottung	geizig	engstirnig	krank	sonnig	kuss	vergnügt	genießen	gütig	vertrauen	sterben	krise	verbissen	gemein	gierig	versagen	1	blank2r.bmp	0	1	+	0	1	blank2r.bmp	500	1	CPLW	500	1	blank2r.bmp	880	1	träumen	880	0	0	0	0	0	0	0	0	0	0	0	0
2024-05-13	12:09:21	12:10:34	71561	6.6.1	4_exp_EVA_AWA_CON	25	A	B	Rpleas_acq	Same	Rpleas	1pleas	acq_new_pleas_nomask	acq1_nomask	1	4	0	0	300	300	0	0	710	50	1	0	träumen	besonnen	anregung	gesittet	engagiert	kreativ	töten	bange	ausrottung	geizig	engstirnig	krank	sonnig	kuss	vergnügt	genießen	gütig	vertrauen	sterben	krise	verbissen	gemein	gierig	versagen	1	blank2r.bmp	0	1	+	0	1	blank2r.bmp	500	5	C1r.bmp	500	1	blank2r.bmp	880	6	vertrauen	880	0	0	0	0	0	0	0	0	0	0	0	0
2024-05-13	12:09:21	12:10:36	73530	6.6.1	4_exp_EVA_AWA_CON	25	A	B	Rpleas_acq	Same	Rpleas	1pleas	acq_new_pleas_nomask	acq1_nomask	1	5	0	0	300	300	0	0	487	50	1	0	träumen	besonnen	anregung	gesittet	engagiert	kreativ	töten	bange	ausrottung	geizig	engstirnig	krank	sonnig	kuss	vergnügt	genießen	gütig	vertrauen	sterben	krise	verbissen	gemein	gierig	versagen	1	blank2r.bmp	0	1	+	0	1	blank2r.bmp	500	7	C3r.bmp	500	1	blank2r.bmp	880	3	vergnügt	880	0	0	0	0	0	0	0	0	0	0	0	0
2024-05-13	12:09:21	12:10:38	75506	6.6.1	4_exp_EVA_AWA_CON	25	A	B	Rpleas_acq	Same	Rpleas	1pleas	acq_new_unple_nomask	acq1_nomask	1	6	0	0	300	300	0	0	492	46	1	0	träumen	besonnen	anregung	gesittet	engagiert	kreativ	töten	bange	ausrottung	geizig	engstirnig	krank	sonnig	kuss	vergnügt	genießen	gütig	vertrauen	sterben	krise	verbissen	gemein	gierig	versagen	1	blank2r.bmp	0	1	+	0	1	blank2r.bmp	500	1	B1r.bmp	500	1	blank2r.bmp	880	1	sterben	880	0	0	0	0	0	0	0	0	0	0	0	0
2024-05-13	12:09:21	12:10:40	77634	6.6.1	4_exp_EVA_AWA_CON	25	A	B	Rpleas_acq	Same	Rpleas	1pleas	acq_US_unple_nomask	acq1_nomask	1	7	0	0	300	300	0	0	638	46	1	0	träumen	besonnen	anregung	gesittet	engagiert	kreativ	töten	bange	ausrottung	geizig	engstirnig	krank	sonnig	kuss	vergnügt	genießen	gütig	vertrauen	sterben	krise	verbissen	gemein	gierig	versagen	1	blank2r.bmp	0	1	+	0	1	blank2r.bmp	500	1	DHJF	500	1	blank2r.bmp	880	3	ausrottung	880	0	0	0	0	0	0	0	0	0	0	0	0
2024-05-13	12:09:21	12:10:42	79682	6.6.1	4_exp_EVA_AWA_CON	25	A	B	Rpleas_acq	Same	Rpleas	1pleas	acq_new_unple_nomask	acq1_nomask	1	8	0	0	300	300	0	0	565	46	1	0	träumen	besonnen	anregung	gesittet	engagiert	kreativ	töten	bange	ausrottung	geizig	engstirnig	krank	sonnig	kuss	vergnügt	genießen	gütig	vertrauen	sterben	krise	verbissen	gemein	gierig	versagen	1	blank2r.bmp	0	1	+	0	1	blank2r.bmp	500	8	C4r.bmp	500	1	blank2r.bmp	880	3	verbissen	880	0	0	0	0	0	0	0	0	0	0	0	0
2024-05-13	12:09:21	12:10:44	81659	6.6.1	4_exp_EVA_AWA_CON	25	A	B	Rpleas_acq	Same	Rpleas	1pleas	acq_new_pleas_nomask	acq1_nomask	1	9	0	0	300	300	0	0	490	50	1	0	träumen	besonnen	anregung	gesittet	engagiert	kreativ	töten	bange	ausrottung	geizig	engstirnig	krank	sonnig	kuss	vergnügt	genießen	gütig	vertrauen	sterben	krise	verbissen	gemein	gierig	versagen	1	blank2r.bmp	0	1	+	0	1	blank2r.bmp	500	6	C2r.bmp	500	1	blank2r.bmp	880	1	sonnig	880	0	0	0	0	0	0	0	0	0	0	0	0
2024-05-13	12:09:21	12:10:46	83770	6.6.1	4_exp_EVA_AWA_CON	25	A	B	Rpleas_acq	Same	Rpleas	1pleas	acq_US_pleas_nomask	acq1_nomask	1	10	0	0	300	300	0	0	630	50	1	0	träumen	besonnen	anregung	gesittet	engagiert	kreativ	töten	bange	ausrottung	geizig	engstirnig	krank	sonnig	kuss	vergnügt	genießen	gütig	vertrauen	sterben	krise	verbissen	gemein	gierig	versagen	1	blank2r.bmp	0	1	+	0	1	blank2r.bmp	500	1	CPLW	500	1	blank2r.bmp	880	4	gesittet	880	0	0	0	0	0	0	0	0	0	0	0	0
2024-05-13	12:09:21	12:10:48	85666	6.6.1	4_exp_EVA_AWA_CON	25	A	B	Rpleas_acq	Same	Rpleas	1pleas	acq_US_unple_nomask	acq1_nomask	1	11	0	0	300	300	0	0	415	46	1	0	träumen	besonnen	anregung	gesittet	engagiert	kreativ	töten	bange	ausrottung	geizig	engstirnig	krank	sonnig	kuss	vergnügt	genießen	gütig	vertrauen	sterben	krise	verbissen	gemein	gierig	versagen	1	blank2r.bmp	0	1	+	0	1	blank2r.bmp	500	1	DHJF	500	1	blank2r.bmp	880	4	geizig	880	0	0	0	0	0	0	0	0	0	0	0	0
2024-05-13	12:09:21	12:10:50	87714	6.6.1	4_exp_EVA_AWA_CON	25	A	B	Rpleas_acq	Same	Rpleas	1pleas	acq_new_unple_nomask	acq1_nomask	1	12	0	0	300	300	0	0	562	46	1	0	träumen	besonnen	anregung	gesittet	engagiert	kreativ	töten	bange	ausrottung	geizig	engstirnig	krank	sonnig	kuss	vergnügt	genießen	gütig	vertrauen	sterben	krise	verbissen	gemein	gierig	versagen	1	blank2r.bmp	0	1	+	0	1	blank2r.bmp	500	3	B3r.bmp	500	1	blank2r.bmp	880	4	gemein	880	0	0	0	0	0	0	0	0	0	0	0	0
2024-05-13	12:09:21	12:10:52	89858	6.6.1	4_exp_EVA_AWA_CON	25	A	B	Rpleas_acq	Same	Rpleas	1pleas	acq_US_unple_nomask	acq1_nomask	1	13	0	0	300	300	0	0	655	46	1	0	träumen	besonnen	anregung	gesittet	engagiert	kreativ	töten	bange	ausrottung	geizig	engstirnig	krank	sonnig	kuss	vergnügt	genießen	gütig	vertrauen	sterben	krise	verbissen	gemein	gierig	versagen	1	blank2r.bmp	0	1	+	0	1	blank2r.bmp	500	1	DHJF	500	1	blank2r.bmp	880	5	engstirnig	880	0	0	0	0	0	0	0	0	0	0	0	0
2024-05-13	12:09:21	12:10:54	91818	6.6.1	4_exp_EVA_AWA_CON	25	A	B	Rpleas_acq	Same	Rpleas	1pleas	acq_new_pleas_nomask	acq1_nomask	1	14	0	0	300	300	0	0	473	50	1	0	träumen	besonnen	anregung	gesittet	engagiert	kreativ	töten	bange	ausrottung	geizig	engstirnig	krank	sonnig	kuss	vergnügt	genießen	gütig	vertrauen	sterben	krise	verbissen	gemein	gierig	versagen	1	blank2r.bmp	0	1	+	0	1	blank2r.bmp	500	4	B4r.bmp	500	1	blank2r.bmp	880	4	genießen	880	0	0	0	0	0	0	0	0	0	0	0	0
2024-05-13	12:09:21	12:10:56	94074	6.6.1	4_exp_EVA_AWA_CON	25	A	B	Rpleas_acq	Same	Rpleas	1pleas	acq_new_unple_nomask	acq1_nomask	1	15	0	0	300	300	0	0	768	46	1	0	träumen	besonnen	anregung	gesittet	engagiert	kreativ	töten	bange	ausrottung	geizig	engstirnig	krank	sonnig	kuss	vergnügt	genießen	gütig	vertrauen	sterben	krise	verbissen	gemein	gierig	versagen	1	blank2r.bmp	0	1	+	0	1	blank2r.bmp	500	2	B2r.bmp	500	1	blank2r.bmp	880	5	gierig	880	0	0	0	0	0	0	0	0	0	0	0	0
2024-05-13	12:09:21	12:10:58	96122	6.6.1	4_exp_EVA_AWA_CON	25	A	B	Rpleas_acq	Same	Rpleas	1pleas	acq_new_pleas_nomask	acq1_nomask	1	16	0	0	300	300	0	0	564	50	1	0	träumen	besonnen	anregung	gesittet	engagiert	kreativ	töten	bange	ausrottung	geizig	engstirnig	krank	sonnig	kuss	vergnügt	genießen	gütig	vertrauen	sterben	krise	verbissen	gemein	gierig	versagen	1	blank2r.bmp	0	1	+	0	1	blank2r.bmp	500	1	B1r.bmp	500	1	blank2r.bmp	880	2	kuss	880	0	0	0	0	0	0	0	0	0	0	0	0
2024-05-13	12:09:21	12:11:00	98170	6.6.1	4_exp_EVA_AWA_CON	25	A	B	Rpleas_acq	Same	Rpleas	1pleas	acq_US_unple_nomask	acq1_nomask	1	17	0	0	300	300	0	0	561	46	1	0	träumen	besonnen	anregung	gesittet	engagiert	kreativ	töten	bange	ausrottung	geizig	engstirnig	krank	sonnig	kuss	vergnügt	genießen	gütig	vertrauen	sterben	krise	verbissen	gemein	gierig	versagen	1	blank2r.bmp	0	1	+	0	1	blank2r.bmp	500	1	DHJF	500	1	blank2r.bmp	880	2	bange	880	0	0	0	0	0	0	0	0	0	0	0	0
2024-05-13	12:09:21	12:11:02	100194	6.6.1	4_exp_EVA_AWA_CON	25	A	B	Rpleas_acq	Same	Rpleas	1pleas	acq_new_unple_nomask	acq1_nomask	1	18	0	0	300	300	0	0	534	46	1	0	träumen	besonnen	anregung	gesittet	engagiert	kreativ	töten	bange	ausrottung	geizig	engstirnig	krank	sonnig	kuss	vergnügt	genießen	gütig	vertrauen	sterben	krise	verbissen	gemein	gierig	versagen	1	blank2r.bmp	0	1	+	0	1	blank2r.bmp	500	2	B2r.bmp	500	1	blank2r.bmp	880	2	krise	880	0	0	0	0	0	0	0	0	0	0	0	0
2024-05-13	12:09:21	12:11:04	102242	6.6.1	4_exp_EVA_AWA_CON	25	A	B	Rpleas_acq	Same	Rpleas	1pleas	acq_US_pleas_nomask	acq1_nomask	1	19	0	0	300	300	0	0	560	50	1	0	träumen	besonnen	anregung	gesittet	engagiert	kreativ	töten	bange	ausrottung	geizig	engstirnig	krank	sonnig	kuss	vergnügt	genießen	gütig	vertrauen	sterben	krise	verbissen	gemein	gierig	versagen	1	blank2r.bmp	0	1	+	0	1	blank2r.bmp	500	1	CPLW	500	1	blank2r.bmp	880	3	anregung	880	0	0	0	0	0	0	0	0	0	0	0	0
2024-05-13	12:09:21	12:11:06	104178	6.6.1	4_exp_EVA_AWA_CON	25	A	B	Rpleas_acq	Same	Rpleas	1pleas	acq_US_pleas_nomask	acq1_nomask	1	20	0	0	300	300	0	0	455	50	1	0	träumen	besonnen	anregung	gesittet	engagiert	kreativ	töten	bange	ausrottung	geizig	engstirnig	krank	sonnig	kuss	vergnügt	genießen	gütig	vertrauen	sterben	krise	verbissen	gemein	gierig	versagen	1	blank2r.bmp	0	1	+	0	1	blank2r.bmp	500	1	CPLW	500	1	blank2r.bmp	880	6	kreativ	880	0	0	0	0	0	0	0	0	0	0	0	0
2024-05-13	12:09:21	12:11:08	106051	6.6.1	4_exp_EVA_AWA_CON	25	A	B	Rpleas_acq	Same	Rpleas	1pleas	acq_US_pleas_nomask	acq1_nomask	1	21	0	0	300	300	0	0	386	50	1	0	träumen	besonnen	anregung	gesittet	engagiert	kreativ	töten	bange	ausrottung	geizig	engstirnig	krank	sonnig	kuss	vergnügt	genießen	gütig	vertrauen	sterben	krise	verbissen	gemein	gierig	versagen	1	blank2r.bmp	0	1	+	0	1	blank2r.bmp	500	1	CPLW	500	1	blank2r.bmp	880	2	besonnen	880	0	0	0	0	0	0	0	0	0	0	0	0
2024-05-13	12:09:21	12:11:10	107946	6.6.1	4_exp_EVA_AWA_CON	25	A	B	Rpleas_acq	Same	Rpleas	1pleas	acq_new_pleas_nomask	acq1_nomask	1	22	0	0	300	300	0	0	411	50	1	0	träumen	besonnen	anregung	gesittet	engagiert	kreativ	töten	bange	ausrottung	geizig	engstirnig	krank	sonnig	kuss	vergnügt	genießen	gütig	vertrauen	sterben	krise	verbissen	gemein	gierig	versagen	1	blank2r.bmp	0	1	+	0	1	blank2r.bmp	500	8	C4r.bmp	500	1	blank2r.bmp	880	5	gütig	880	0	0	0	0	0	0	0	0	0	0	0	0
2024-05-13	12:09:21	12:11:12	109873	6.6.1	4_exp_EVA_AWA_CON	25	A	B	Rpleas_acq	Same	Rpleas	1pleas	acq_US_unple_nomask	acq1_nomask	1	23	0	0	300	300	0	0	420	46	1	0	träumen	besonnen	anregung	gesittet	engagiert	kreativ	töten	bange	ausrottung	geizig	engstirnig	krank	sonnig	kuss	vergnügt	genießen	gütig	vertrauen	sterben	krise	verbissen	gemein	gierig	versagen	1	blank2r.bmp	0	1	+	0	1	blank2r.bmp	500	1	DHJF	500	1	blank2r.bmp	901	6	krank	901	0	0	0	0	0	0	0	0	0	0	0	0
2024-05-13	12:09:21	12:11:14	111869	6.6.1	4_exp_EVA_AWA_CON	25	A	B	Rpleas_acq	Same	Rpleas	1pleas	acq_new_unple_nomask	acq1_nomask	1	24	0	0	300	300	0	0	518	46	1	0	träumen	besonnen	anregung	gesittet	engagiert	kreativ	töten	bange	ausrottung	geizig	engstirnig	krank	sonnig	kuss	vergnügt	genießen	gütig	vertrauen	sterben	krise	verbissen	gemein	gierig	versagen	1	blank2r.bmp	10	1	+	10	1	blank2r.bmp	500	5	C1r.bmp	500	1	blank2r.bmp	880	6	versagen	880	0	0	0	0	0	0	0	0	0	0	0	0
2024-05-13	12:09:21	12:11:16	113903	6.6.1	4_exp_EVA_AWA_CON	25	A	B	Rpleas_acq	Same	Rpleas	1pleas	acq_new_pleas_nomask	acq1_nomask	1	25	0	0	300	300	0	0	541	50	1	0	träumen	besonnen	anregung	gesittet	engagiert	kreativ	töten	bange	ausrottung	geizig	engstirnig	krank	sonnig	kuss	vergnügt	genießen	gütig	vertrauen	sterben	krise	verbissen	gemein	gierig	versagen	1	blank2r.bmp	0	1	+	0	1	blank2r.bmp	500	7	C3r.bmp	500	1	blank2r.bmp	886	4	genießen	886	0	0	0	0	0	0	0	0	0	0	0	0
2024-05-13	12:09:21	12:11:18	115891	6.6.1	4_exp_EVA_AWA_CON	25	A	B	Rpleas_acq	Same	Rpleas	1pleas	acq_new_unple_nomask	acq1_nomask	1	26	0	0	300	300	0	0	510	46	1	0	träumen	besonnen	anregung	gesittet	engagiert	kreativ	töten	bange	ausrottung	geizig	engstirnig	krank	sonnig	kuss	vergnügt	genießen	gütig	vertrauen	sterben	krise	verbissen	gemein	gierig	versagen	1	blank2r.bmp	1	1	+	1	1	blank2r.bmp	508	6	C2r.bmp	508	1	blank2r.bmp	880	6	versagen	880	0	0	0	0	0	0	0	0	0	0	0	0
2024-05-13	12:09:21	12:11:20	117763	6.6.1	4_exp_EVA_AWA_CON	25	A	B	Rpleas_acq	Same	Rpleas	1pleas	acq_US_unple_nomask	acq1_nomask	1	27	0	0	300	300	0	0	391	46	1	0	träumen	besonnen	anregung	gesittet	engagiert	kreativ	töten	bange	ausrottung	geizig	engstirnig	krank	sonnig	kuss	vergnügt	genießen	gütig	vertrauen	sterben	krise	verbissen	gemein	gierig	versagen	1	blank2r.bmp	0	1	+	0	1	blank2r.bmp	500	1	DHJF	500	1	blank2r.bmp	880	6	krank	880	0	0	0	0	0	0	0	0	0	0	0	0
2024-05-13	12:09:21	12:11:22	119586	6.6.1	4_exp_EVA_AWA_CON	25	A	B	Rpleas_acq	Same	Rpleas	1pleas	acq_US_unple_nomask	acq1_nomask	1	28	0	0	300	300	0	0	343	46	1	0	träumen	besonnen	anregung	gesittet	engagiert	kreativ	töten	bange	ausrottung	geizig	engstirnig	krank	sonnig	kuss	vergnügt	genießen	gütig	vertrauen	sterben	krise	verbissen	gemein	gierig	versagen	1	blank2r.bmp	0	1	+	0	1	blank2r.bmp	500	1	DHJF	500	1	blank2r.bmp	880	3	ausrottung	880	0	0	0	0	0	0	0	0	0	0	0	0
2024-05-13	12:09:21	12:11:24	121498	6.6.1	4_exp_EVA_AWA_CON	25	A	B	Rpleas_acq	Same	Rpleas	1pleas	acq_new_unple_nomask	acq1_nomask	1	29	0	0	300	300	0	0	424	46	1	0	träumen	besonnen	anregung	gesittet	engagiert	kreativ	töten	bange	ausrottung	geizig	engstirnig	krank	sonnig	kuss	vergnügt	genießen	gütig	vertrauen	sterben	krise	verbissen	gemein	gierig	versagen	1	blank2r.bmp	0	1	+	0	1	blank2r.bmp	500	4	B4r.bmp	500	1	blank2r.bmp	880	4	gemein	880	0	0	0	0	0	0	0	0	0	0	0	0
2024-05-13	12:09:21	12:11:26	123556	6.6.1	4_exp_EVA_AWA_CON	25	A	B	Rpleas_acq	Same	Rpleas	1pleas	acq_US_pleas_nomask	acq1_nomask	1	30	0	0	300	300	0	0	369	46	0	0	träumen	besonnen	anregung	gesittet	engagiert	kreativ	töten	bange	ausrottung	geizig	engstirnig	krank	sonnig	kuss	vergnügt	genießen	gütig	vertrauen	sterben	krise	verbissen	gemein	gierig	versagen	1	blank2r.bmp	0	1	+	0	1	blank2r.bmp	500	1	CPLW	500	1	blank2r.bmp	880	3	anregung	880	1	FEHLER	1271	0	0	0	0	0	0	0	0	0
2024-05-13	12:09:21	12:11:27	125187	6.6.1	4_exp_EVA_AWA_CON	25	A	B	Rpleas_acq	Same	Rpleas	1pleas	acq_US_pleas_nomask	acq1_nomask	1	31	0	0	300	300	0	0	350	50	1	0	träumen	besonnen	anregung	gesittet	engagiert	kreativ	töten	bange	ausrottung	geizig	engstirnig	krank	sonnig	kuss	vergnügt	genießen	gütig	vertrauen	sterben	krise	verbissen	gemein	gierig	versagen	1	blank2r.bmp	0	1	+	0	1	blank2r.bmp	500	1	CPLW	500	1	blank2r.bmp	880	1	träumen	880	0	0	0	0	0	0	0	0	0	0	0	0
2024-05-13	12:09:21	12:11:30	127371	6.6.1	4_exp_EVA_AWA_CON	25	A	B	Rpleas_acq	Same	Rpleas	1pleas	acq_US_unple_nomask	acq1_nomask	1	32	0	0	300	300	0	0	502	50	0	0	träumen	besonnen	anregung	gesittet	engagiert	kreativ	töten	bange	ausrottung	geizig	engstirnig	krank	sonnig	kuss	vergnügt	genießen	gütig	vertrauen	sterben	krise	verbissen	gemein	gierig	versagen	1	blank2r.bmp	0	1	+	0	1	blank2r.bmp	500	1	DHJF	500	1	blank2r.bmp	880	5	engstirnig	880	1	FEHLER	1404	0	0	0	0	0	0	0	0	0
2024-05-13	12:09:21	12:11:31	129066	6.6.1	4_exp_EVA_AWA_CON	25	A	B	Rpleas_acq	Same	Rpleas	1pleas	acq_US_pleas_nomask	acq1_nomask	1	33	0	0	300	300	0	0	407	50	1	0	träumen	besonnen	anregung	gesittet	engagiert	kreativ	töten	bange	ausrottung	geizig	engstirnig	krank	sonnig	kuss	vergnügt	genießen	gütig	vertrauen	sterben	krise	verbissen	gemein	gierig	versagen	1	blank2r.bmp	0	1	+	0	1	blank2r.bmp	500	1	CPLW	500	1	blank2r.bmp	880	5	engagiert	880	0	0	0	0	0	0	0	0	0	0	0	0
2024-05-13	12:09:21	12:11:33	131026	6.6.1	4_exp_EVA_AWA_CON	25	A	B	Rpleas_acq	Same	Rpleas	1pleas	acq_new_pleas_nomask	acq1_nomask	1	34	0	0	300	300	0	0	476	50	1	0	träumen	besonnen	anregung	gesittet	engagiert	kreativ	töten	bange	ausrottung	geizig	engstirnig	krank	sonnig	kuss	vergnügt	genießen	gütig	vertrauen	sterben	krise	verbissen	gemein	gierig	versagen	1	blank2r.bmp	0	1	+	0	1	blank2r.bmp	500	3	B3r.bmp	500	1	blank2r.bmp	880	2	kuss	880	0	0	0	0	0	0	0	0	0	0	0	0
2024-05-13	12:09:21	12:11:35	133059	6.6.1	4_exp_EVA_AWA_CON	25	A	B	Rpleas_acq	Same	Rpleas	1pleas	acq_new_unple_nomask	acq1_nomask	1	35	0	0	300	300	0	0	347	50	0	0	träumen	besonnen	anregung	gesittet	engagiert	kreativ	töten	bange	ausrottung	geizig	engstirnig	krank	sonnig	kuss	vergnügt	genießen	gütig	vertrauen	sterben	krise	verbissen	gemein	gierig	versagen	1	blank2r.bmp	0	1	+	0	1	blank2r.bmp	500	7	C3r.bmp	500	1	blank2r.bmp	880	2	krise	880	1	FEHLER	1248	0	0	0	0	0	0	0	0	0
2024-05-13	12:09:21	12:11:37	134858	6.6.1	4_exp_EVA_AWA_CON	25	A	B	Rpleas_acq	Same	Rpleas	1pleas	acq_new_pleas_nomask	acq1_nomask	1	36	0	0	300	300	0	0	515	50	1	0	träumen	besonnen	anregung	gesittet	engagiert	kreativ	töten	bange	ausrottung	geizig	engstirnig	krank	sonnig	kuss	vergnügt	genießen	gütig	vertrauen	sterben	krise	verbissen	gemein	gierig	versagen	1	blank2r.bmp	0	1	+	0	1	blank2r.bmp	500	2	B2r.bmp	500	1	blank2r.bmp	880	6	vertrauen	880	0	0	0	0	0	0	0	0	0	0	0	0
2024-05-13	12:09:21	12:12:03	160940	6.6.1	4_exp_EVA_AWA_CON	25	A	B	Rpleas_acq	Same	Rpleas	1pleas	acq_new_pleas_nomask	acq2_nomask	2	1	480	0	300	300	0	0	2182	50	1	0	träumen	besonnen	anregung	gesittet	engagiert	kreativ	töten	bange	ausrottung	geizig	engstirnig	krank	sonnig	kuss	vergnügt	genießen	gütig	vertrauen	sterben	krise	verbissen	gemein	gierig	versagen	1	blank2r.bmp	0	1	+	0	1	blank2r.bmp	500	8	C4r.bmp	500	1	blank2r.bmp	880	3	vergnügt	880	1	!	1312	1	!	-1	0	0	0	0	0	0
2024-05-13	12:09:21	12:12:05	163182	6.6.1	4_exp_EVA_AWA_CON	25	A	B	Rpleas_acq	Same	Rpleas	1pleas	acq_US_unple_nomask	acq2_nomask	2	2	480	1	300	300	0	0	459	46	1	0	träumen	besonnen	anregung	gesittet	engagiert	kreativ	töten	bange	ausrottung	geizig	engstirnig	krank	sonnig	kuss	vergnügt	genießen	gütig	vertrauen	sterben	krise	verbissen	gemein	gierig	versagen	1	blank2r.bmp	0	1	+	0	1	blank2r.bmp	500	1	DHJF	500	1	blank2r.bmp	880	1	töten	880	1	!	1313	1	!	1362	0	0	0	0	0	0
2024-05-13	12:09:21	12:12:08	165556	6.6.1	4_exp_EVA_AWA_CON	25	A	B	Rpleas_acq	Same	Rpleas	1pleas	acq_new_pleas_nomask	acq2_nomask	2	3	480	0	300	300	0	0	594	50	1	0	träumen	besonnen	anregung	gesittet	engagiert	kreativ	töten	bange	ausrottung	geizig	engstirnig	krank	sonnig	kuss	vergnügt	genießen	gütig	vertrauen	sterben	krise	verbissen	gemein	gierig	versagen	1	blank2r.bmp	0	1	+	0	1	blank2r.bmp	500	4	B4r.bmp	500	1	blank2r.bmp	880	1	sonnig	880	1	!	1312	1	!	-1	0	0	0	0	0	0
2024-05-13	12:09:21	12:12:10	167854	6.6.1	4_exp_EVA_AWA_CON	25	A	B	Rpleas_acq	Same	Rpleas	1pleas	acq_US_pleas_nomask	acq2_nomask	2	4	480	1	300	300	0	0	518	50	1	0	träumen	besonnen	anregung	gesittet	engagiert	kreativ	töten	bange	ausrottung	geizig	engstirnig	krank	sonnig	kuss	vergnügt	genießen	gütig	vertrauen	sterben	krise	verbissen	gemein	gierig	versagen	1	blank2r.bmp	0	1	+	0	1	blank2r.bmp	500	1	CPLW	500	1	blank2r.bmp	880	4	gesittet	880	1	!	1312	1	!	1420	0	0	0	0	0	0
2024-05-13	12:09:21	12:12:12	169972	6.6.1	4_exp_EVA_AWA_CON	25	A	B	Rpleas_acq	Same	Rpleas	1pleas	acq_new_unple_nomask	acq2_nomask	2	5	480	0	300	300	0	0	337	46	1	0	träumen	besonnen	anregung	gesittet	engagiert	kreativ	töten	bange	ausrottung	geizig	engstirnig	krank	sonnig	kuss	vergnügt	genießen	gütig	vertrauen	sterben	krise	verbissen	gemein	gierig	versagen	1	blank2r.bmp	0	1	+	0	1	blank2r.bmp	500	6	C2r.bmp	500	1	blank2r.bmp	880	3	verbissen	880	1	!	-1	1	!	-1	0	0	0	0	0	0
2024-05-13	12:09:21	12:12:15	172372	6.6.1	4_exp_EVA_AWA_CON	25	A	B	Rpleas_acq	Same	Rpleas	1pleas	acq_new_unple_nomask	acq2_nomask	2	6	480	0	300	300	0	0	626	46	1	0	träumen	besonnen	anregung	gesittet	engagiert	kreativ	töten	bange	ausrottung	geizig	engstirnig	krank	sonnig	kuss	vergnügt	genießen	gütig	vertrauen	sterben	krise	verbissen	gemein	gierig	versagen	1	blank2r.bmp	0	1	+	0	1	blank2r.bmp	500	5	C1r.bmp	500	1	blank2r.bmp	880	5	gierig	880	1	!	1313	1	!	-1	0	0	0	0	0	0
2024-05-13	12:09:21	12:12:17	174590	6.6.1	4_exp_EVA_AWA_CON	25	A	B	Rpleas_acq	Same	Rpleas	1pleas	acq_new_pleas_nomask	acq2_nomask	2	7	480	1	300	300	0	0	440	50	1	0	träumen	besonnen	anregung	gesittet	engagiert	kreativ	töten	bange	ausrottung	geizig	engstirnig	krank	sonnig	kuss	vergnügt	genießen	gütig	vertrauen	sterben	krise	verbissen	gemein	gierig	versagen	1	blank2r.bmp	0	1	+	0	1	blank2r.bmp	500	3	B3r.bmp	500	1	blank2r.bmp	880	5	gütig	880	1	!	1312	1	!	1342	0	0	0	0	0	0
2024-05-13	12:09:21	12:12:19	176846	6.6.1	4_exp_EVA_AWA_CON	25	A	B	Rpleas_acq	Same	Rpleas	1pleas	acq_US_unple_nomask	acq2_nomask	2	8	480	1	300	300	0	0	475	46	1	0	träumen	besonnen	anregung	gesittet	engagiert	kreativ	töten	bange	ausrottung	geizig	engstirnig	krank	sonnig	kuss	vergnügt	genießen	gütig	vertrauen	sterben	krise	verbissen	gemein	gierig	versagen	1	blank2r.bmp	0	1	+	0	1	blank2r.bmp	500	1	DHJF	500	1	blank2r.bmp	880	4	geizig	880	1	!	1312	1	!	1376	0	0	0	0	0	0
2024-05-13	12:09:21	12:12:21	179070	6.6.1	4_exp_EVA_AWA_CON	25	A	B	Rpleas_acq	Same	Rpleas	1pleas	acq_US_unple_nomask	acq2_nomask	2	9	480	1	300	300	0	0	447	46	1	0	träumen	besonnen	anregung	gesittet	engagiert	kreativ	töten	bange	ausrottung	geizig	engstirnig	krank	sonnig	kuss	vergnügt	genießen	gütig	vertrauen	sterben	krise	verbissen	gemein	gierig	versagen	1	blank2r.bmp	0	1	+	0	1	blank2r.bmp	500	1	DHJF	500	1	blank2r.bmp	880	2	bange	880	1	!	1312	1	!	1349	0	0	0	0	0	0
2024-05-13	12:09:21	12:12:23	181278	6.6.1	4_exp_EVA_AWA_CON	25	A	B	Rpleas_acq	Same	Rpleas	1pleas	acq_US_pleas_nomask	acq2_nomask	2	10	480	1	300	300	0	0	434	50	1	0	träumen	besonnen	anregung	gesittet	engagiert	kreativ	töten	bange	ausrottung	geizig	engstirnig	krank	sonnig	kuss	vergnügt	genießen	gütig	vertrauen	sterben	krise	verbissen	gemein	gierig	versagen	1	blank2r.bmp	0	1	+	0	1	blank2r.bmp	500	1	CPLW	500	1	blank2r.bmp	880	2	besonnen	880	1	!	1312	1	!	1335	0	0	0	0	0	0
2024-05-13	12:09:21	12:12:26	183518	6.6.1	4_exp_EVA_AWA_CON	25	A	B	Rpleas_acq	Same	Rpleas	1pleas	acq_new_unple_nomask	acq2_nomask	2	11	480	1	300	300	0	0	462	46	1	0	träumen	besonnen	anregung	gesittet	engagiert	kreativ	töten	bange	ausrottung	geizig	engstirnig	krank	sonnig	kuss	vergnügt	genießen	gütig	vertrauen	sterben	krise	verbissen	gemein	gierig	versagen	1	blank2r.bmp	0	1	+	0	1	blank2r.bmp	500	1	B1r.bmp	500	1	blank2r.bmp	880	1	sterben	880	1	!	1313	1	!	1364	0	0	0	0	0	0
2024-05-13	12:09:21	12:12:28	185838	6.6.1	4_exp_EVA_AWA_CON	25	A	B	Rpleas_acq	Same	Rpleas	1pleas	acq_US_pleas_nomask	acq2_nomask	2	12	480	1	300	300	0	0	541	50	1	0	träumen	besonnen	anregung	gesittet	engagiert	kreativ	töten	bange	ausrottung	geizig	engstirnig	krank	sonnig	kuss	vergnügt	genießen	gütig	vertrauen	sterben	krise	verbissen	gemein	gierig	versagen	1	blank2r.bmp	0	1	+	0	1	blank2r.bmp	500	1	CPLW	500	1	blank2r.bmp	880	6	kreativ	880	1	!	1312	1	!	1443	0	0	0	0	0	0
2024-05-13	12:09:21	12:12:30	188086	6.6.1	4_exp_EVA_AWA_CON	25	A	B	Rpleas_acq	Same	Rpleas	1pleas	acq_US_pleas_nomask	acq2_nomask	2	13	480	1	300	300	0	0	467	50	1	0	träumen	besonnen	anregung	gesittet	engagiert	kreativ	töten	bange	ausrottung	geizig	engstirnig	krank	sonnig	kuss	vergnügt	genießen	gütig	vertrauen	sterben	krise	verbissen	gemein	gierig	versagen	1	blank2r.bmp	0	1	+	0	1	blank2r.bmp	500	1	CPLW	500	1	blank2r.bmp	880	1	träumen	880	1	!	1312	1	!	1369	0	0	0	0	0	0
2024-05-13	12:09:21	12:12:33	190418	6.6.1	4_exp_EVA_AWA_CON	25	A	B	Rpleas_acq	Same	Rpleas	1pleas	acq_US_pleas_nomask	acq2_nomask	2	14	480	0	300	300	0	0	562	50	1	0	träumen	besonnen	anregung	gesittet	engagiert	kreativ	töten	bange	ausrottung	geizig	engstirnig	krank	sonnig	kuss	vergnügt	genießen	gütig	vertrauen	sterben	krise	verbissen	gemein	gierig	versagen	1	blank2r.bmp	0	1	+	0	1	blank2r.bmp	500	1	CPLW	500	1	blank2r.bmp	880	3	anregung	880	1	!	1312	1	!	-1	0	0	0	0	0	0
2024-05-13	12:09:21	12:12:35	192580	6.6.1	4_exp_EVA_AWA_CON	25	A	B	Rpleas_acq	Same	Rpleas	1pleas	acq_new_unple_nomask	acq2_nomask	2	15	480	0	300	300	0	0	381	46	1	0	träumen	besonnen	anregung	gesittet	engagiert	kreativ	töten	bange	ausrottung	geizig	engstirnig	krank	sonnig	kuss	vergnügt	genießen	gütig	vertrauen	sterben	krise	verbissen	gemein	gierig	versagen	1	blank2r.bmp	0	1	+	0	1	blank2r.bmp	500	8	C4r.bmp	500	1	blank2r.bmp	880	6	versagen	880	1	!	-1	1	!	-1	0	0	0	0	0	0
2024-05-13	12:09:21	12:12:37	195104	6.6.1	4_exp_EVA_AWA_CON	25	A	B	Rpleas_acq	Same	Rpleas	1pleas	acq_new_unple_nomask	acq2_nomask	2	16	480	1	300	300	0	0	539	50	0	0	träumen	besonnen	anregung	gesittet	engagiert	kreativ	töten	bange	ausrottung	geizig	engstirnig	krank	sonnig	kuss	vergnügt	genießen	gütig	vertrauen	sterben	krise	verbissen	gemein	gierig	versagen	1	blank2r.bmp	0	1	+	0	1	blank2r.bmp	500	3	B3r.bmp	500	1	blank2r.bmp	880	5	gierig	880	1	FEHLER	1733	1	!	1313	1	!	1441	0	0	0
2024-05-13	12:09:21	12:12:39	197084	6.6.1	4_exp_EVA_AWA_CON	25	A	B	Rpleas_acq	Same	Rpleas	1pleas	acq_US_unple_nomask	acq2_nomask	2	17	480	0	300	300	0	0	402	46	1	0	träumen	besonnen	anregung	gesittet	engagiert	kreativ	töten	bange	ausrottung	geizig	engstirnig	krank	sonnig	kuss	vergnügt	genießen	gütig	vertrauen	sterben	krise	verbissen	gemein	gierig	versagen	1	blank2r.bmp	0	1	+	0	1	blank2r.bmp	500	1	DHJF	500	1	blank2r.bmp	880	6	krank	880	1	!	-1	1	!	-1	0	0	0	0	0	0
2024-05-13	12:09:21	12:12:41	199302	6.6.1	4_exp_EVA_AWA_CON	25	A	B	Rpleas_acq	Same	Rpleas	1pleas	acq_new_pleas_nomask	acq2_nomask	2	18	480	1	300	300	0	0	436	50	1	0	träumen	besonnen	anregung	gesittet	engagiert	kreativ	töten	bange	ausrottung	geizig	engstirnig	krank	sonnig	kuss	vergnügt	genießen	gütig	vertrauen	sterben	krise	verbissen	gemein	gierig	versagen	1	blank2r.bmp	0	1	+	0	1	blank2r.bmp	500	4	B4r.bmp	500	1	blank2r.bmp	880	1	sonnig	880	1	!	1312	1	!	1337	0	0	0	0	0	0
2024-05-13	12:09:21	12:12:44	201534	6.6.1	4_exp_EVA_AWA_CON	25	A	B	Rpleas_acq	Same	Rpleas	1pleas	acq_new_pleas_nomask	acq2_nomask	2	19	480	1	300	300	0	0	457	50	1	0	träumen	besonnen	anregung	gesittet	engagiert	kreativ	töten	bange	ausrottung	geizig	engstirnig	krank	sonnig	kuss	vergnügt	genießen	gütig	vertrauen	sterben	krise	verbissen	gemein	gierig	versagen	1	blank2r.bmp	0	1	+	0	1	blank2r.bmp	500	1	B1r.bmp	500	1	blank2r.bmp	880	4	genießen	880	1	!	1313	1	!	1358	0	0	0	0	0	0
2024-05-13	12:09:21	12:12:46	203838	6.6.1	4_exp_EVA_AWA_CON	25	A	B	Rpleas_acq	Same	Rpleas	1pleas	acq_US_pleas_nomask	acq2_nomask	2	20	480	1	300	300	0	0	519	50	1	0	träumen	besonnen	anregung	gesittet	engagiert	kreativ	töten	bange	ausrottung	geizig	engstirnig	krank	sonnig	kuss	vergnügt	genießen	gütig	vertrauen	sterben	krise	verbissen	gemein	gierig	versagen	1	blank2r.bmp	0	1	+	0	1	blank2r.bmp	500	1	CPLW	500	1	blank2r.bmp	880	5	engagiert	880	1	!	1313	1	!	1421	0	0	0	0	0	0
2024-05-13	12:09:21	12:12:48	205949	6.6.1	4_exp_EVA_AWA_CON	25	A	B	Rpleas_acq	Same	Rpleas	1pleas	acq_US_unple_nomask	acq2_nomask	2	21	480	0	300	300	0	0	330	46	1	0	träumen	besonnen	anregung	gesittet	engagiert	kreativ	töten	bange	ausrottung	geizig	engstirnig	krank	sonnig	kuss	vergnügt	genießen	gütig	vertrauen	sterben	krise	verbissen	gemein	gierig	versagen	1	blank2r.bmp	0	1	+	0	1	blank2r.bmp	500	1	DHJF	500	1	blank2r.bmp	880	1	töten	880	1	!	-1	1	!	-1	0	0	0	0	0	0
2024-05-13	12:09:21	12:12:50	208271	6.6.1	4_exp_EVA_AWA_CON	25	A	B	Rpleas_acq	Same	Rpleas	1pleas	acq_new_unple_nomask	acq2_nomask	2	22	480	0	300	300	0	0	338	50	0	0	träumen	besonnen	anregung	gesittet	engagiert	kreativ	töten	bange	ausrottung	geizig	engstirnig	krank	sonnig	kuss	vergnügt	genießen	gütig	vertrauen	sterben	krise	verbissen	gemein	gierig	versagen	1	blank2r.bmp	0	1	+	0	1	blank2r.bmp	500	2	B2r.bmp	500	1	blank2r.bmp	880	4	gemein	880	1	FEHLER	1532	1	!	-1	1	!	-1	0	0	0
2024-05-13	12:09:21	12:12:53	210420	6.6.1	4_exp_EVA_AWA_CON	25	A	B	Rpleas_acq	Same	Rpleas	1pleas	acq_US_unple_nomask	acq2_nomask	2	23	480	0	300	300	0	0	579	46	1	0	träumen	besonnen	anregung	gesittet	engagiert	kreativ	töten	bange	ausrottung	geizig	engstirnig	krank	sonnig	kuss	vergnügt	genießen	gütig	vertrauen	sterben	krise	verbissen	gemein	gierig	versagen	1	blank2r.bmp	0	1	+	0	1	blank2r.bmp	500	1	DHJF	500	1	blank2r.bmp	880	3	ausrottung	880	1	!	1313	1	!	-1	0	0	0	0	0	0
2024-05-13	12:09:21	12:12:55	212744	6.6.1	4_exp_EVA_AWA_CON	25	A	B	Rpleas_acq	Same	Rpleas	1pleas	acq_new_pleas_nomask	acq2_nomask	2	24	480	0	300	300	0	0	338	46	0	0	träumen	besonnen	anregung	gesittet	engagiert	kreativ	töten	bange	ausrottung	geizig	engstirnig	krank	sonnig	kuss	vergnügt	genießen	gütig	vertrauen	sterben	krise	verbissen	gemein	gierig	versagen	1	blank2r.bmp	0	1	+	0	1	blank2r.bmp	500	5	C1r.bmp	500	1	blank2r.bmp	880	3	vergnügt	880	1	FEHLER	1532	1	!	-1	1	!	-1	0	0	0
2024-05-13	12:09:21	12:12:57	214652	6.6.1	4_exp_EVA_AWA_CON	25	A	B	Rpleas_acq	Same	Rpleas	1pleas	acq_US_pleas_nomask	acq2_nomask	2	25	480	0	300	300	0	0	338	50	1	0	träumen	besonnen	anregung	gesittet	engagiert	kreativ	töten	bange	ausrottung	geizig	engstirnig	krank	sonnig	kuss	vergnügt	genießen	gütig	vertrauen	sterben	krise	verbissen	gemein	gierig	versagen	1	blank2r.bmp	0	1	+	0	1	blank2r.bmp	500	1	CPLW	500	1	blank2r.bmp	880	6	kreativ	880	1	!	-1	1	!	-1	0	0	0	0	0	0
2024-05-13	12:09:21	12:12:59	216878	6.6.1	4_exp_EVA_AWA_CON	25	A	B	Rpleas_acq	Same	Rpleas	1pleas	acq_new_pleas_nomask	acq2_nomask	2	26	480	1	300	300	0	0	451	50	1	0	träumen	besonnen	anregung	gesittet	engagiert	kreativ	töten	bange	ausrottung	geizig	engstirnig	krank	sonnig	kuss	vergnügt	genießen	gütig	vertrauen	sterben	krise	verbissen	gemein	gierig	versagen	1	blank2r.bmp	0	1	+	0	1	blank2r.bmp	500	7	C3r.bmp	500	1	blank2r.bmp	880	2	kuss	880	1	!	1313	1	!	1353	0	0	0	0	0	0
2024-05-13	12:09:21	12:13:01	219166	6.6.1	4_exp_EVA_AWA_CON	25	A	B	Rpleas_acq	Same	Rpleas	1pleas	acq_new_pleas_nomask	acq2_nomask	2	27	480	1	300	300	0	0	508	50	1	0	träumen	besonnen	anregung	gesittet	engagiert	kreativ	töten	bange	ausrottung	geizig	engstirnig	krank	sonnig	kuss	vergnügt	genießen	gütig	vertrauen	sterben	krise	verbissen	gemein	gierig	versagen	1	blank2r.bmp	0	1	+	0	1	blank2r.bmp	500	6	C2r.bmp	500	1	blank2r.bmp	880	6	vertrauen	880	1	!	1312	1	!	1409	0	0	0	0	0	0
2024-05-13	12:09:21	12:13:04	221509	6.6.1	4_exp_EVA_AWA_CON	25	A	B	Rpleas_acq	Same	Rpleas	1pleas	acq_US_pleas_nomask	acq2_nomask	2	28	480	0	300	300	0	0	570	50	1	0	träumen	besonnen	anregung	gesittet	engagiert	kreativ	töten	bange	ausrottung	geizig	engstirnig	krank	sonnig	kuss	vergnügt	genießen	gütig	vertrauen	sterben	krise	verbissen	gemein	gierig	versagen	1	blank2r.bmp	0	1	+	0	1	blank2r.bmp	500	1	CPLW	500	1	blank2r.bmp	880	2	besonnen	880	1	!	1313	1	!	-1	0	0	0	0	0	0
2024-05-13	12:09:21	12:13:06	223636	6.6.1	4_exp_EVA_AWA_CON	25	A	B	Rpleas_acq	Same	Rpleas	1pleas	acq_US_unple_nomask	acq2_nomask	2	29	480	0	300	300	0	0	347	46	1	0	träumen	besonnen	anregung	gesittet	engagiert	kreativ	töten	bange	ausrottung	geizig	engstirnig	krank	sonnig	kuss	vergnügt	genießen	gütig	vertrauen	sterben	krise	verbissen	gemein	gierig	versagen	1	blank2r.bmp	0	1	+	0	1	blank2r.bmp	500	1	DHJF	500	1	blank2r.bmp	880	2	bange	880	1	!	-1	1	!	-1	0	0	0	0	0	0
2024-05-13	12:09:21	12:13:08	225927	6.6.1	4_exp_EVA_AWA_CON	25	A	B	Rpleas_acq	Same	Rpleas	1pleas	acq_new_unple_nomask	acq2_nomask	2	30	480	0	300	300	0	0	313	50	0	0	träumen	besonnen	anregung	gesittet	engagiert	kreativ	töten	bange	ausrottung	geizig	engstirnig	krank	sonnig	kuss	vergnügt	genießen	gütig	vertrauen	sterben	krise	verbissen	gemein	gierig	versagen	1	blank2r.bmp	0	1	+	0	1	blank2r.bmp	500	7	C3r.bmp	500	1	blank2r.bmp	880	2	krise	880	1	FEHLER	1507	1	!	-1	1	!	-1	0	0	0
2024-05-13	12:09:21	12:13:10	228220	6.6.1	4_exp_EVA_AWA_CON	25	A	B	Rpleas_acq	Same	Rpleas	1pleas	acq_US_pleas_nomask	acq2_nomask	2	31	480	0	300	300	0	0	718	50	1	0	träumen	besonnen	anregung	gesittet	engagiert	kreativ	töten	bange	ausrottung	geizig	engstirnig	krank	sonnig	kuss	vergnügt	genießen	gütig	vertrauen	sterben	krise	verbissen	gemein	gierig	versagen	1	blank2r.bmp	0	1	+	0	1	blank2r.bmp	500	1	CPLW	500	1	blank2r.bmp	880	4	gesittet	880	1	!	1312	1	!	-1	0	0	0	0	0	0
2024-05-13	12:09:21	12:13:12	230325	6.6.1	4_exp_EVA_AWA_CON	25	A	B	Rpleas_acq	Same	Rpleas	1pleas	acq_new_unple_nomask	acq2_nomask	2	32	480	0	300	300	0	0	330	46	1	0	träumen	besonnen	anregung	gesittet	engagiert	kreativ	töten	bange	ausrottung	geizig	engstirnig	krank	sonnig	kuss	vergnügt	genießen	gütig	vertrauen	sterben	krise	verbissen	gemein	gierig	versagen	1	blank2r.bmp	0	1	+	0	1	blank2r.bmp	500	3	B3r.bmp	500	1	blank2r.bmp	880	1	sterben	880	1	!	-1	1	!	-1	0	0	0	0	0	0
2024-05-13	12:09:21	12:13:15	232476	6.6.1	4_exp_EVA_AWA_CON	25	A	B	Rpleas_acq	Same	Rpleas	1pleas	acq_new_pleas_nomask	acq2_nomask	2	33	480	0	300	300	0	0	371	50	1	0	träumen	besonnen	anregung	gesittet	engagiert	kreativ	töten	bange	ausrottung	geizig	engstirnig	krank	sonnig	kuss	vergnügt	genießen	gütig	vertrauen	sterben	krise	verbissen	gemein	gierig	versagen	1	blank2r.bmp	0	1	+	0	1	blank2r.bmp	500	1	B1r.bmp	500	1	blank2r.bmp	880	5	gütig	880	1	!	-1	1	!	-1	0	0	0	0	0	0
2024-05-13	12:09:21	12:13:17	234818	6.6.1	4_exp_EVA_AWA_CON	25	A	B	Rpleas_acq	Same	Rpleas	1pleas	acq_US_unple_nomask	acq2_nomask	2	34	480	0	300	300	0	0	564	46	1	0	träumen	besonnen	anregung	gesittet	engagiert	kreativ	töten	bange	ausrottung	geizig	engstirnig	krank	sonnig	kuss	vergnügt	genießen	gütig	vertrauen	sterben	krise	verbissen	gemein	gierig	versagen	1	blank2r.bmp	0	1	+	0	1	blank2r.bmp	500	1	DHJF	500	1	blank2r.bmp	880	5	engstirnig	880	1	!	1312	1	!	-1	0	0	0	0	0	0
2024-05-13	12:09:21	12:13:19	237094	6.6.1	4_exp_EVA_AWA_CON	25	A	B	Rpleas_acq	Same	Rpleas	1pleas	acq_US_unple_nomask	acq2_nomask	2	35	480	1	300	300	0	0	494	46	1	0	träumen	besonnen	anregung	gesittet	engagiert	kreativ	töten	bange	ausrottung	geizig	engstirnig	krank	sonnig	kuss	vergnügt	genießen	gütig	vertrauen	sterben	krise	verbissen	gemein	gierig	versagen	1	blank2r.bmp	0	1	+	0	1	blank2r.bmp	500	1	DHJF	500	1	blank2r.bmp	880	4	geizig	880	1	!	1312	1	!	1395	0	0	0	0	0	0
2024-05-13	12:09:21	12:13:22	239415	6.6.1	4_exp_EVA_AWA_CON	25	A	B	Rpleas_acq	Same	Rpleas	1pleas	acq_new_unple_nomask	acq2_nomask	2	36	480	0	300	300	0	0	343	50	0	0	träumen	besonnen	anregung	gesittet	engagiert	kreativ	töten	bange	ausrottung	geizig	engstirnig	krank	sonnig	kuss	vergnügt	genießen	gütig	vertrauen	sterben	krise	verbissen	gemein	gierig	versagen	1	blank2r.bmp	0	1	+	0	1	blank2r.bmp	500	8	C4r.bmp	500	1	blank2r.bmp	880	3	verbissen	880	1	FEHLER	1536	1	!	-1	1	!	-1	0	0	0
2024-05-13	12:09:21	12:13:36	254220	6.6.1	4_exp_EVA_AWA_CON	25	A	B	Rpleas_acq	Same	Rpleas	1pleas	acq_US_pleas_nomask	acq3_nomask	3	1	453	0	300	300	0	0	541	50	1	0	träumen	besonnen	anregung	gesittet	engagiert	kreativ	töten	bange	ausrottung	geizig	engstirnig	krank	sonnig	kuss	vergnügt	genießen	gütig	vertrauen	sterben	krise	verbissen	gemein	gierig	versagen	1	blank2r.bmp	0	1	+	0	1	blank2r.bmp	500	1	CPLW	500	1	blank2r.bmp	880	3	anregung	880	1	!	1292	1	!	-1	0	0	0	0	0	0
2024-05-13	12:09:21	12:13:39	256584	6.6.1	4_exp_EVA_AWA_CON	25	A	B	Rpleas_acq	Same	Rpleas	1pleas	acq_US_pleas_nomask	acq3_nomask	3	2	453	0	300	300	0	0	380	46	0	0	träumen	besonnen	anregung	gesittet	engagiert	kreativ	töten	bange	ausrottung	geizig	engstirnig	krank	sonnig	kuss	vergnügt	genießen	gütig	vertrauen	sterben	krise	verbissen	gemein	gierig	versagen	1	blank2r.bmp	0	1	+	0	1	blank2r.bmp	500	1	CPLW	500	1	blank2r.bmp	880	4	gesittet	880	1	FEHLER	1574	1	!	-1	1	!	-1	0	0	0
2024-05-13	12:09:21	12:13:41	258598	6.6.1	4_exp_EVA_AWA_CON	25	A	B	Rpleas_acq	Same	Rpleas	1pleas	acq_US_unple_nomask	acq3_nomask	3	3	453	1	300	300	0	0	434	46	1	0	träumen	besonnen	anregung	gesittet	engagiert	kreativ	töten	bange	ausrottung	geizig	engstirnig	krank	sonnig	kuss	vergnügt	genießen	gütig	vertrauen	sterben	krise	verbissen	gemein	gierig	versagen	1	blank2r.bmp	0	1	+	0	1	blank2r.bmp	500	1	DHJF	500	1	blank2r.bmp	880	1	töten	880	1	!	1292	1	!	1335	0	0	0	0	0	0
2024-05-13	12:09:21	12:13:43	260823	6.6.1	4_exp_EVA_AWA_CON	25	A	B	Rpleas_acq	Same	Rpleas	1pleas	acq_US_pleas_nomask	acq3_nomask	3	4	453	1	300	300	0	0	439	50	1	0	träumen	besonnen	anregung	gesittet	engagiert	kreativ	töten	bange	ausrottung	geizig	engstirnig	krank	sonnig	kuss	vergnügt	genießen	gütig	vertrauen	sterben	krise	verbissen	gemein	gierig	versagen	1	blank2r.bmp	0	1	+	0	1	blank2r.bmp	500	1	CPLW	500	1	blank2r.bmp	880	6	kreativ	880	1	!	1293	1	!	1340	0	0	0	0	0	0
2024-05-13	12:09:21	12:13:45	263006	6.6.1	4_exp_EVA_AWA_CON	25	A	B	Rpleas_acq	Same	Rpleas	1pleas	acq_US_pleas_nomask	acq3_nomask	3	5	453	1	300	300	0	0	409	50	1	0	träumen	besonnen	anregung	gesittet	engagiert	kreativ	töten	bange	ausrottung	geizig	engstirnig	krank	sonnig	kuss	vergnügt	genießen	gütig	vertrauen	sterben	krise	verbissen	gemein	gierig	versagen	1	blank2r.bmp	0	1	+	0	1	blank2r.bmp	500	1	CPLW	500	1	blank2r.bmp	880	2	besonnen	880	1	!	1293	1	!	1311	0	0	0	0	0	0
2024-05-13	12:09:21	12:13:47	265230	6.6.1	4_exp_EVA_AWA_CON	25	A	B	Rpleas_acq	Same	Rpleas	1pleas	acq_US_unple_nomask	acq3_nomask	3	6	453	1	300	300	0	0	442	46	1	0	träumen	besonnen	anregung	gesittet	engagiert	kreativ	töten	bange	ausrottung	geizig	engstirnig	krank	sonnig	kuss	vergnügt	genießen	gütig	vertrauen	sterben	krise	verbissen	gemein	gierig	versagen	1	blank2r.bmp	0	1	+	0	1	blank2r.bmp	500	1	DHJF	500	1	blank2r.bmp	880	5	engstirnig	880	1	!	1292	1	!	1343	0	0	0	0	0	0
2024-05-13	12:09:21	12:13:50	267663	6.6.1	4_exp_EVA_AWA_CON	25	A	B	Rpleas_acq	Same	Rpleas	1pleas	acq_US_pleas_nomask	acq3_nomask	3	7	453	1	300	300	0	0	452	46	0	0	träumen	besonnen	anregung	gesittet	engagiert	kreativ	töten	bange	ausrottung	geizig	engstirnig	krank	sonnig	kuss	vergnügt	genießen	gütig	vertrauen	sterben	krise	verbissen	gemein	gierig	versagen	1	blank2r.bmp	0	1	+	0	1	blank2r.bmp	500	1	CPLW	500	1	blank2r.bmp	880	1	träumen	880	1	FEHLER	1646	1	!	1292	1	!	1354	0	0	0
2024-05-13	12:09:21	12:13:52	269628	6.6.1	4_exp_EVA_AWA_CON	25	A	B	Rpleas_acq	Same	Rpleas	1pleas	acq_US_unple_nomask	acq3_nomask	3	8	453	0	300	300	0	0	389	46	1	0	träumen	besonnen	anregung	gesittet	engagiert	kreativ	töten	bange	ausrottung	geizig	engstirnig	krank	sonnig	kuss	vergnügt	genießen	gütig	vertrauen	sterben	krise	verbissen	gemein	gierig	versagen	1	blank2r.bmp	0	1	+	0	1	blank2r.bmp	500	1	DHJF	500	1	blank2r.bmp	880	3	ausrottung	880	1	!	-1	1	!	-1	0	0	0	0	0	0
2024-05-13	12:09:21	12:13:54	271904	6.6.1	4_exp_EVA_AWA_CON	25	A	B	Rpleas_acq	Same	Rpleas	1pleas	acq_US_unple_nomask	acq3_nomask	3	9	453	0	300	300	0	0	300	50	0	0	träumen	besonnen	anregung	gesittet	engagiert	kreativ	töten	bange	ausrottung	geizig	engstirnig	krank	sonnig	kuss	vergnügt	genießen	gütig	vertrauen	sterben	krise	verbissen	gemein	gierig	versagen	1	blank2r.bmp	0	1	+	0	1	blank2r.bmp	500	1	DHJF	500	1	blank2r.bmp	880	4	geizig	880	1	FEHLER	1494	1	!	-1	1	!	-1	0	0	0
2024-05-13	12:09:21	12:13:56	274044	6.6.1	4_exp_EVA_AWA_CON	25	A	B	Rpleas_acq	Same	Rpleas	1pleas	acq_US_pleas_nomask	acq3_nomask	3	10	453	0	300	300	0	0	562	50	1	0	träumen	besonnen	anregung	gesittet	engagiert	kreativ	töten	bange	ausrottung	geizig	engstirnig	krank	sonnig	kuss	vergnügt	genießen	gütig	vertrauen	sterben	krise	verbissen	gemein	gierig	versagen	1	blank2r.bmp	0	1	+	0	1	blank2r.bmp	500	1	CPLW	500	1	blank2r.bmp	880	5	engagiert	880	1	!	1293	1	!	-1	0	0	0	0	0	0
2024-05-13	12:09:21	12:13:58	276124	6.6.1	4_exp_EVA_AWA_CON	25	A	B	Rpleas_acq	Same	Rpleas	1pleas	acq_US_unple_nomask	acq3_nomask	3	11	453	0	300	300	0	0	301	46	1	0	träumen	besonnen	anregung	gesittet	engagiert	kreativ	töten	bange	ausrottung	geizig	engstirnig	krank	sonnig	kuss	vergnügt	genießen	gütig	vertrauen	sterben	krise	verbissen	gemein	gierig	versagen	1	blank2r.bmp	0	1	+	0	1	blank2r.bmp	500	1	DHJF	500	1	blank2r.bmp	880	2	bange	880	1	!	-1	1	!	-1	0	0	0	0	0	0
2024-05-13	12:09:21	12:14:01	278398	6.6.1	4_exp_EVA_AWA_CON	25	A	B	Rpleas_acq	Same	Rpleas	1pleas	acq_US_unple_nomask	acq3_nomask	3	12	453	1	300	300	0	0	491	46	1	0	träumen	besonnen	anregung	gesittet	engagiert	kreativ	töten	bange	ausrottung	geizig	engstirnig	krank	sonnig	kuss	vergnügt	genießen	gütig	vertrauen	sterben	krise	verbissen	gemein	gierig	versagen	1	blank2r.bmp	0	1	+	0	1	blank2r.bmp	500	1	DHJF	500	1	blank2r.bmp	880	6	krank	880	1	!	1293	1	!	1393	0	0	0	0	0	0
2024-05-13	12:09:21	12:14:03	280847	6.6.1	4_exp_EVA_AWA_CON	25	A	B	Rpleas_acq	Same	Rpleas	1pleas	acq_US_unple_nomask	acq3_nomask	3	13	453	1	300	300	0	0	468	50	0	0	träumen	besonnen	anregung	gesittet	engagiert	kreativ	töten	bange	ausrottung	geizig	engstirnig	krank	sonnig	kuss	vergnügt	genießen	gütig	vertrauen	sterben	krise	verbissen	gemein	gierig	versagen	1	blank2r.bmp	0	1	+	0	1	blank2r.bmp	500	1	DHJF	500	1	blank2r.bmp	880	5	engstirnig	880	1	FEHLER	1661	1	!	1292	1	!	1369	0	0	0
2024-05-13	12:09:21	12:14:05	282959	6.6.1	4_exp_EVA_AWA_CON	25	A	B	Rpleas_acq	Same	Rpleas	1pleas	acq_US_unple_nomask	acq3_nomask	3	14	453	0	300	300	0	0	329	50	0	0	träumen	besonnen	anregung	gesittet	engagiert	kreativ	töten	bange	ausrottung	geizig	engstirnig	krank	sonnig	kuss	vergnügt	genießen	gütig	vertrauen	sterben	krise	verbissen	gemein	gierig	versagen	1	blank2r.bmp	0	1	+	0	1	blank2r.bmp	500	1	DHJF	500	1	blank2r.bmp	880	4	geizig	880	1	FEHLER	1522	1	!	-1	1	!	-1	0	0	0
2024-05-13	12:09:21	12:14:07	285040	6.6.1	4_exp_EVA_AWA_CON	25	A	B	Rpleas_acq	Same	Rpleas	1pleas	acq_US_unple_nomask	acq3_nomask	3	15	453	0	300	300	0	0	307	50	0	0	träumen	besonnen	anregung	gesittet	engagiert	kreativ	töten	bange	ausrottung	geizig	engstirnig	krank	sonnig	kuss	vergnügt	genießen	gütig	vertrauen	sterben	krise	verbissen	gemein	gierig	versagen	1	blank2r.bmp	0	1	+	0	1	blank2r.bmp	500	1	DHJF	500	1	blank2r.bmp	880	3	ausrottung	880	1	FEHLER	1501	1	!	-1	1	!	-1	0	0	0
2024-05-13	12:09:21	12:14:09	286956	6.6.1	4_exp_EVA_AWA_CON	25	A	B	Rpleas_acq	Same	Rpleas	1pleas	acq_US_pleas_nomask	acq3_nomask	3	16	453	0	300	300	0	0	346	50	1	0	träumen	besonnen	anregung	gesittet	engagiert	kreativ	töten	bange	ausrottung	geizig	engstirnig	krank	sonnig	kuss	vergnügt	genießen	gütig	vertrauen	sterben	krise	verbissen	gemein	gierig	versagen	1	blank2r.bmp	0	1	+	0	1	blank2r.bmp	500	1	CPLW	500	1	blank2r.bmp	880	5	engagiert	880	1	!	-1	1	!	-1	0	0	0	0	0	0
2024-05-13	12:09:21	12:14:11	289028	6.6.1	4_exp_EVA_AWA_CON	25	A	B	Rpleas_acq	Same	Rpleas	1pleas	acq_US_pleas_nomask	acq3_nomask	3	17	453	0	300	300	0	0	297	50	1	0	träumen	besonnen	anregung	gesittet	engagiert	kreativ	töten	bange	ausrottung	geizig	engstirnig	krank	sonnig	kuss	vergnügt	genießen	gütig	vertrauen	sterben	krise	verbissen	gemein	gierig	versagen	1	blank2r.bmp	0	1	+	0	1	blank2r.bmp	500	1	CPLW	500	1	blank2r.bmp	880	4	gesittet	880	1	!	-1	1	!	-1	0	0	0	0	0	0
2024-05-13	12:09:21	12:14:13	291124	6.6.1	4_exp_EVA_AWA_CON	25	A	B	Rpleas_acq	Same	Rpleas	1pleas	acq_US_unple_nomask	acq3_nomask	3	18	453	0	300	300	0	0	321	46	1	0	träumen	besonnen	anregung	gesittet	engagiert	kreativ	töten	bange	ausrottung	geizig	engstirnig	krank	sonnig	kuss	vergnügt	genießen	gütig	vertrauen	sterben	krise	verbissen	gemein	gierig	versagen	1	blank2r.bmp	0	1	+	0	1	blank2r.bmp	500	1	DHJF	500	1	blank2r.bmp	880	1	töten	880	1	!	-1	1	!	-1	0	0	0	0	0	0
2024-05-13	12:09:21	12:14:15	293228	6.6.1	4_exp_EVA_AWA_CON	25	A	B	Rpleas_acq	Same	Rpleas	1pleas	acq_US_pleas_nomask	acq3_nomask	3	19	453	0	300	300	0	0	324	50	1	0	träumen	besonnen	anregung	gesittet	engagiert	kreativ	töten	bange	ausrottung	geizig	engstirnig	krank	sonnig	kuss	vergnügt	genießen	gütig	vertrauen	sterben	krise	verbissen	gemein	gierig	versagen	1	blank2r.bmp	0	1	+	0	1	blank2r.bmp	500	1	CPLW	500	1	blank2r.bmp	880	1	träumen	880	1	!	-1	1	!	-1	0	0	0	0	0	0
2024-05-13	12:09:21	12:14:18	295703	6.6.1	4_exp_EVA_AWA_CON	25	A	B	Rpleas_acq	Same	Rpleas	1pleas	acq_US_pleas_nomask	acq3_nomask	3	20	453	1	300	300	0	0	495	46	0	0	träumen	besonnen	anregung	gesittet	engagiert	kreativ	töten	bange	ausrottung	geizig	engstirnig	krank	sonnig	kuss	vergnügt	genießen	gütig	vertrauen	sterben	krise	verbissen	gemein	gierig	versagen	1	blank2r.bmp	0	1	+	0	1	blank2r.bmp	500	1	CPLW	500	1	blank2r.bmp	880	3	anregung	880	1	FEHLER	1688	1	!	1292	1	!	1396	0	0	0
2024-05-13	12:09:21	12:14:20	297943	6.6.1	4_exp_EVA_AWA_CON	25	A	B	Rpleas_acq	Same	Rpleas	1pleas	acq_US_pleas_nomask	acq3_nomask	3	21	453	1	300	300	0	0	463	46	0	0	träumen	besonnen	anregung	gesittet	engagiert	kreativ	töten	bange	ausrottung	geizig	engstirnig	krank	sonnig	kuss	vergnügt	genießen	gütig	vertrauen	sterben	krise	verbissen	gemein	gierig	versagen	1	blank2r.bmp	0	1	+	0	1	blank2r.bmp	500	1	CPLW	500	1	blank2r.bmp	880	6	kreativ	880	1	FEHLER	1656	1	!	1292	1	!	1364	0	0	0
2024-05-13	12:09:21	12:14:22	300069	6.6.1	4_exp_EVA_AWA_CON	25	A	B	Rpleas_acq	Same	Rpleas	1pleas	acq_US_unple_nomask	acq3_nomask	3	22	453	0	300	300	0	0	550	46	1	0	träumen	besonnen	anregung	gesittet	engagiert	kreativ	töten	bange	ausrottung	geizig	engstirnig	krank	sonnig	kuss	vergnügt	genießen	gütig	vertrauen	sterben	krise	verbissen	gemein	gierig	versagen	1	blank2r.bmp	0	1	+	0	1	blank2r.bmp	500	1	DHJF	500	1	blank2r.bmp	880	2	bange	880	1	!	1293	1	!	-1	0	0	0	0	0	0
2024-05-13	12:09:21	12:14:24	302212	6.6.1	4_exp_EVA_AWA_CON	25	A	B	Rpleas_acq	Same	Rpleas	1pleas	acq_US_pleas_nomask	acq3_nomask	3	23	453	0	300	300	0	0	362	50	1	0	träumen	besonnen	anregung	gesittet	engagiert	kreativ	töten	bange	ausrottung	geizig	engstirnig	krank	sonnig	kuss	vergnügt	genießen	gütig	vertrauen	sterben	krise	verbissen	gemein	gierig	versagen	1	blank2r.bmp	0	1	+	0	1	blank2r.bmp	500	1	CPLW	500	1	blank2r.bmp	880	2	besonnen	880	1	!	-1	1	!	-1	0	0	0	0	0	0
2024-05-13	12:09:21	12:14:27	304438	6.6.1	4_exp_EVA_AWA_CON	25	A	B	Rpleas_acq	Same	Rpleas	1pleas	acq_US_unple_nomask	acq3_nomask	3	24	453	1	300	300	0	0	445	46	1	0	träumen	besonnen	anregung	gesittet	engagiert	kreativ	töten	bange	ausrottung	geizig	engstirnig	krank	sonnig	kuss	vergnügt	genießen	gütig	vertrauen	sterben	krise	verbissen	gemein	gierig	versagen	1	blank2r.bmp	0	1	+	0	1	blank2r.bmp	500	1	DHJF	500	1	blank2r.bmp	880	6	krank	880	1	!	1293	1	!	1346	0	0	0	0	0	0
2024-05-13	12:09:21	12:14:29	306860	6.6.1	4_exp_EVA_AWA_CON	25	A	B	Rpleas_acq	Same	Rpleas	1pleas	acq_US_unple_nomask	acq3_nomask	3	25	453	0	300	300	0	0	647	46	1	0	träumen	besonnen	anregung	gesittet	engagiert	kreativ	töten	bange	ausrottung	geizig	engstirnig	krank	sonnig	kuss	vergnügt	genießen	gütig	vertrauen	sterben	krise	verbissen	gemein	gierig	versagen	1	blank2r.bmp	0	1	+	0	1	blank2r.bmp	500	1	DHJF	500	1	blank2r.bmp	880	5	engstirnig	880	1	!	1293	1	!	-1	0	0	0	0	0	0
2024-05-13	12:09:21	12:14:31	309094	6.6.1	4_exp_EVA_AWA_CON	25	A	B	Rpleas_acq	Same	Rpleas	1pleas	acq_US_unple_nomask	acq3_nomask	3	26	453	1	300	300	0	0	458	46	1	0	träumen	besonnen	anregung	gesittet	engagiert	kreativ	töten	bange	ausrottung	geizig	engstirnig	krank	sonnig	kuss	vergnügt	genießen	gütig	vertrauen	sterben	krise	verbissen	gemein	gierig	versagen	1	blank2r.bmp	0	1	+	0	1	blank2r.bmp	500	1	DHJF	500	1	blank2r.bmp	880	3	ausrottung	880	1	!	1292	1	!	1359	0	0	0	0	0	0
2024-05-13	12:09:21	12:14:34	311398	6.6.1	4_exp_EVA_AWA_CON	25	A	B	Rpleas_acq	Same	Rpleas	1pleas	acq_US_pleas_nomask	acq3_nomask	3	27	453	1	300	300	0	0	520	50	1	0	träumen	besonnen	anregung	gesittet	engagiert	kreativ	töten	bange	ausrottung	geizig	engstirnig	krank	sonnig	kuss	vergnügt	genießen	gütig	vertrauen	sterben	krise	verbissen	gemein	gierig	versagen	1	blank2r.bmp	0	1	+	0	1	blank2r.bmp	500	1	CPLW	500	1	blank2r.bmp	880	4	gesittet	880	1	!	1292	1	!	1422	0	0	0	0	0	0
2024-05-13	12:09:21	12:14:36	313613	6.6.1	4_exp_EVA_AWA_CON	25	A	B	Rpleas_acq	Same	Rpleas	1pleas	acq_US_pleas_nomask	acq3_nomask	3	28	453	1	300	300	0	0	435	50	1	0	träumen	besonnen	anregung	gesittet	engagiert	kreativ	töten	bange	ausrottung	geizig	engstirnig	krank	sonnig	kuss	vergnügt	genießen	gütig	vertrauen	sterben	krise	verbissen	gemein	gierig	versagen	1	blank2r.bmp	0	1	+	0	1	blank2r.bmp	500	1	CPLW	500	1	blank2r.bmp	880	5	engagiert	880	1	!	1292	1	!	1336	0	0	0	0	0	0
2024-05-13	12:09:21	12:14:38	315798	6.6.1	4_exp_EVA_AWA_CON	25	A	B	Rpleas_acq	Same	Rpleas	1pleas	acq_US_pleas_nomask	acq3_nomask	3	29	453	1	300	300	0	0	407	50	1	0	träumen	besonnen	anregung	gesittet	engagiert	kreativ	töten	bange	ausrottung	geizig	engstirnig	krank	sonnig	kuss	vergnügt	genießen	gütig	vertrauen	sterben	krise	verbissen	gemein	gierig	versagen	1	blank2r.bmp	0	1	+	0	1	blank2r.bmp	500	1	CPLW	500	1	blank2r.bmp	880	1	träumen	880	1	!	1293	1	!	1309	0	0	0	0	0	0
2024-05-13	12:09:21	12:14:40	318116	6.6.1	4_exp_EVA_AWA_CON	25	A	B	Rpleas_acq	Same	Rpleas	1pleas	acq_US_unple_nomask	acq3_nomask	3	30	453	0	300	300	0	0	546	46	1	0	träumen	besonnen	anregung	gesittet	engagiert	kreativ	töten	bange	ausrottung	geizig	engstirnig	krank	sonnig	kuss	vergnügt	genießen	gütig	vertrauen	sterben	krise	verbissen	gemein	gierig	versagen	1	blank2r.bmp	0	1	+	0	1	blank2r.bmp	500	1	DHJF	500	1	blank2r.bmp	880	2	bange	880	1	!	1292	1	!	-1	0	0	0	0	0	0
2024-05-13	12:09:21	12:14:42	320204	6.6.1	4_exp_EVA_AWA_CON	25	A	B	Rpleas_acq	Same	Rpleas	1pleas	acq_US_pleas_nomask	acq3_nomask	3	31	453	0	300	300	0	0	312	50	1	0	träumen	besonnen	anregung	gesittet	engagiert	kreativ	töten	bange	ausrottung	geizig	engstirnig	krank	sonnig	kuss	vergnügt	genießen	gütig	vertrauen	sterben	krise	verbissen	gemein	gierig	versagen	1	blank2r.bmp	0	1	+	0	1	blank2r.bmp	500	1	CPLW	500	1	blank2r.bmp	880	3	anregung	880	1	!	-1	1	!	-1	0	0	0	0	0	0
2024-05-13	12:09:21	12:14:45	322506	6.6.1	4_exp_EVA_AWA_CON	25	A	B	Rpleas_acq	Same	Rpleas	1pleas	acq_US_pleas_nomask	acq3_nomask	3	32	453	0	300	300	0	0	525	50	1	0	träumen	besonnen	anregung	gesittet	engagiert	kreativ	töten	bange	ausrottung	geizig	engstirnig	krank	sonnig	kuss	vergnügt	genießen	gütig	vertrauen	sterben	krise	verbissen	gemein	gierig	versagen	1	blank2r.bmp	0	1	+	0	1	blank2r.bmp	500	1	CPLW	500	1	blank2r.bmp	880	6	kreativ	880	1	!	1292	1	!	-1	0	0	0	0	0	0
2024-05-13	12:09:21	12:14:47	324532	6.6.1	4_exp_EVA_AWA_CON	25	A	B	Rpleas_acq	Same	Rpleas	1pleas	acq_US_pleas_nomask	acq3_nomask	3	33	453	0	300	300	0	0	248	50	1	0	träumen	besonnen	anregung	gesittet	engagiert	kreativ	töten	bange	ausrottung	geizig	engstirnig	krank	sonnig	kuss	vergnügt	genießen	gütig	vertrauen	sterben	krise	verbissen	gemein	gierig	versagen	1	blank2r.bmp	0	1	+	0	1	blank2r.bmp	500	1	CPLW	500	1	blank2r.bmp	880	2	besonnen	880	1	!	-1	1	!	-1	0	0	0	0	0	0
2024-05-13	12:09:21	12:14:49	326628	6.6.1	4_exp_EVA_AWA_CON	25	A	B	Rpleas_acq	Same	Rpleas	1pleas	acq_US_unple_nomask	acq3_nomask	3	34	453	0	300	300	0	0	322	46	1	0	träumen	besonnen	anregung	gesittet	engagiert	kreativ	töten	bange	ausrottung	geizig	engstirnig	krank	sonnig	kuss	vergnügt	genießen	gütig	vertrauen	sterben	krise	verbissen	gemein	gierig	versagen	1	blank2r.bmp	0	1	+	0	1	blank2r.bmp	500	1	DHJF	500	1	blank2r.bmp	880	1	töten	880	1	!	-1	1	!	-1	0	0	0	0	0	0
2024-05-13	12:09:21	12:14:51	328861	6.6.1	4_exp_EVA_AWA_CON	25	A	B	Rpleas_acq	Same	Rpleas	1pleas	acq_US_unple_nomask	acq3_nomask	3	35	453	1	300	300	0	0	453	46	1	0	träumen	besonnen	anregung	gesittet	engagiert	kreativ	töten	bange	ausrottung	geizig	engstirnig	krank	sonnig	kuss	vergnügt	genießen	gütig	vertrauen	sterben	krise	verbissen	gemein	gierig	versagen	1	blank2r.bmp	0	1	+	0	1	blank2r.bmp	500	1	DHJF	500	1	blank2r.bmp	880	4	geizig	880	1	!	1293	1	!	1354	0	0	0	0	0	0
2024-05-13	12:09:21	12:14:53	331101	6.6.1	4_exp_EVA_AWA_CON	25	A	B	Rpleas_acq	Same	Rpleas	1pleas	acq_US_unple_nomask	acq3_nomask	3	36	453	1	300	300	0	0	462	46	1	0	träumen	besonnen	anregung	gesittet	engagiert	kreativ	töten	bange	ausrottung	geizig	engstirnig	krank	sonnig	kuss	vergnügt	genießen	gütig	vertrauen	sterben	krise	verbissen	gemein	gierig	versagen	1	blank2r.bmp	0	1	+	0	1	blank2r.bmp	500	1	DHJF	500	1	blank2r.bmp	880	6	krank	880	1	!	1292	1	!	1363	0	0	0	0	0	0
2024-05-13	12:09:21	12:15:05	343174	6.6.1	4_exp_EVA_AWA_CON	25	A	B	Rpleas_acq	Same	Rpleas	1pleas	acq_US_pleas_nomask	acq45_nomask	4	1	400	1	300	300	0	0	386	50	1	0	träumen	besonnen	anregung	gesittet	engagiert	kreativ	töten	bange	ausrottung	geizig	engstirnig	krank	sonnig	kuss	vergnügt	genießen	gütig	vertrauen	sterben	krise	verbissen	gemein	gierig	versagen	1	blank2r.bmp	0	1	+	0	1	blank2r.bmp	500	1	CPLW	500	1	blank2r.bmp	880	3	anregung	880	1	!	1233	1	!	1287	0	0	0	0	0	0
2024-05-13	12:09:21	12:15:07	345302	6.6.1	4_exp_EVA_AWA_CON	25	A	B	Rpleas_acq	Same	Rpleas	1pleas	acq_US_unple_nomask	acq45_nomask	4	2	400	1	300	300	0	0	352	46	1	0	träumen	besonnen	anregung	gesittet	engagiert	kreativ	töten	bange	ausrottung	geizig	engstirnig	krank	sonnig	kuss	vergnügt	genießen	gütig	vertrauen	sterben	krise	verbissen	gemein	gierig	versagen	1	blank2r.bmp	0	1	+	0	1	blank2r.bmp	500	1	DHJF	500	1	blank2r.bmp	880	6	krank	880	1	!	1233	1	!	1254	0	0	0	0	0	0
2024-05-13	12:09:21	12:15:10	347517	6.6.1	4_exp_EVA_AWA_CON	25	A	B	Rpleas_acq	Same	Rpleas	1pleas	acq_US_pleas_nomask	acq45_nomask	4	3	400	1	300	300	0	0	437	50	1	0	träumen	besonnen	anregung	gesittet	engagiert	kreativ	töten	bange	ausrottung	geizig	engstirnig	krank	sonnig	kuss	vergnügt	genießen	gütig	vertrauen	sterben	krise	verbissen	gemein	gierig	versagen	1	blank2r.bmp	0	1	+	0	1	blank2r.bmp	500	1	CPLW	500	1	blank2r.bmp	880	1	träumen	880	1	!	1232	1	!	1338	0	0	0	0	0	0
2024-05-13	12:09:21	12:15:12	349710	6.6.1	4_exp_EVA_AWA_CON	25	A	B	Rpleas_acq	Same	Rpleas	1pleas	acq_US_unple_nomask	acq45_nomask	4	4	400	1	300	300	0	0	418	50	0	0	träumen	besonnen	anregung	gesittet	engagiert	kreativ	töten	bange	ausrottung	geizig	engstirnig	krank	sonnig	kuss	vergnügt	genießen	gütig	vertrauen	sterben	krise	verbissen	gemein	gierig	versagen	1	blank2r.bmp	0	1	+	0	1	blank2r.bmp	500	1	DHJF	500	1	blank2r.bmp	880	5	engstirnig	880	1	!	1233	1	!	1319	0	0	0	0	0	0
2024-05-13	12:09:21	12:15:14	352004	6.6.1	4_exp_EVA_AWA_CON	25	A	B	Rpleas_acq	Same	Rpleas	1pleas	acq_US_pleas_nomask	acq45_nomask	4	5	400	0	300	300	0	0	512	50	1	0	träumen	besonnen	anregung	gesittet	engagiert	kreativ	töten	bange	ausrottung	geizig	engstirnig	krank	sonnig	kuss	vergnügt	genießen	gütig	vertrauen	sterben	krise	verbissen	gemein	gierig	versagen	1	blank2r.bmp	0	1	+	0	1	blank2r.bmp	500	1	CPLW	500	1	blank2r.bmp	880	5	engagiert	880	1	!	1233	1	!	-1	0	0	0	0	0	0
2024-05-13	12:09:21	12:15:16	354117	6.6.1	4_exp_EVA_AWA_CON	25	A	B	Rpleas_acq	Same	Rpleas	1pleas	acq_US_unple_nomask	acq45_nomask	4	6	400	1	300	300	0	0	334	46	1	0	träumen	besonnen	anregung	gesittet	engagiert	kreativ	töten	bange	ausrottung	geizig	engstirnig	krank	sonnig	kuss	vergnügt	genießen	gütig	vertrauen	sterben	krise	verbissen	gemein	gierig	versagen	1	blank2r.bmp	0	1	+	0	1	blank2r.bmp	500	1	DHJF	500	1	blank2r.bmp	880	1	töten	880	1	!	1232	1	!	1233	0	0	0	0	0	0
2024-05-13	12:09:21	12:15:18	356254	6.6.1	4_exp_EVA_AWA_CON	25	A	B	Rpleas_acq	Same	Rpleas	1pleas	acq_US_unple_nomask	acq45_nomask	4	7	400	1	300	300	0	0	357	46	1	0	träumen	besonnen	anregung	gesittet	engagiert	kreativ	töten	bange	ausrottung	geizig	engstirnig	krank	sonnig	kuss	vergnügt	genießen	gütig	vertrauen	sterben	krise	verbissen	gemein	gierig	versagen	1	blank2r.bmp	0	1	+	0	1	blank2r.bmp	500	1	DHJF	500	1	blank2r.bmp	880	2	bange	880	1	!	1232	1	!	1259	0	0	0	0	0	0
2024-05-13	12:09:21	12:15:21	358454	6.6.1	4_exp_EVA_AWA_CON	25	A	B	Rpleas_acq	Same	Rpleas	1pleas	acq_US_unple_nomask	acq45_nomask	4	8	400	1	300	300	0	0	416	46	1	0	träumen	besonnen	anregung	gesittet	engagiert	kreativ	töten	bange	ausrottung	geizig	engstirnig	krank	sonnig	kuss	vergnügt	genießen	gütig	vertrauen	sterben	krise	verbissen	gemein	gierig	versagen	1	blank2r.bmp	0	1	+	0	1	blank2r.bmp	500	1	DHJF	500	1	blank2r.bmp	880	3	ausrottung	880	1	!	1232	1	!	1317	0	0	0	0	0	0
2024-05-13	12:09:21	12:15:23	360694	6.6.1	4_exp_EVA_AWA_CON	25	A	B	Rpleas_acq	Same	Rpleas	1pleas	acq_US_pleas_nomask	acq45_nomask	4	9	400	1	300	300	0	0	465	50	1	0	träumen	besonnen	anregung	gesittet	engagiert	kreativ	töten	bange	ausrottung	geizig	engstirnig	krank	sonnig	kuss	vergnügt	genießen	gütig	vertrauen	sterben	krise	verbissen	gemein	gierig	versagen	1	blank2r.bmp	0	1	+	0	1	blank2r.bmp	500	1	CPLW	500	1	blank2r.bmp	880	6	kreativ	880	1	!	1233	1	!	1366	0	0	0	0	0	0
2024-05-13	12:09:21	12:15:25	362934	6.6.1	4_exp_EVA_AWA_CON	25	A	B	Rpleas_acq	Same	Rpleas	1pleas	acq_US_unple_nomask	acq45_nomask	4	10	400	1	300	300	0	0	463	46	1	0	träumen	besonnen	anregung	gesittet	engagiert	kreativ	töten	bange	ausrottung	geizig	engstirnig	krank	sonnig	kuss	vergnügt	genießen	gütig	vertrauen	sterben	krise	verbissen	gemein	gierig	versagen	1	blank2r.bmp	0	1	+	0	1	blank2r.bmp	500	1	DHJF	500	1	blank2r.bmp	880	4	geizig	880	1	!	1232	1	!	1364	0	0	0	0	0	0
2024-05-13	12:09:21	12:15:27	365196	6.6.1	4_exp_EVA_AWA_CON	25	A	B	Rpleas_acq	Same	Rpleas	1pleas	acq_US_unple_nomask	acq45_nomask	4	11	400	0	300	300	0	0	487	46	1	0	träumen	besonnen	anregung	gesittet	engagiert	kreativ	töten	bange	ausrottung	geizig	engstirnig	krank	sonnig	kuss	vergnügt	genießen	gütig	vertrauen	sterben	krise	verbissen	gemein	gierig	versagen	1	blank2r.bmp	0	1	+	0	1	blank2r.bmp	500	1	DHJF	500	1	blank2r.bmp	880	1	töten	880	1	!	1232	1	!	-1	0	0	0	0	0	0
2024-05-13	12:09:21	12:15:29	367342	6.6.1	4_exp_EVA_AWA_CON	25	A	B	Rpleas_acq	Same	Rpleas	1pleas	acq_US_pleas_nomask	acq45_nomask	4	12	400	1	300	300	0	0	368	50	1	0	träumen	besonnen	anregung	gesittet	engagiert	kreativ	töten	bange	ausrottung	geizig	engstirnig	krank	sonnig	kuss	vergnügt	genießen	gütig	vertrauen	sterben	krise	verbissen	gemein	gierig	versagen	1	blank2r.bmp	0	1	+	0	1	blank2r.bmp	500	1	CPLW	500	1	blank2r.bmp	880	2	besonnen	880	1	!	1232	1	!	1269	0	0	0	0	0	0
2024-05-13	12:09:21	12:15:32	369502	6.6.1	4_exp_EVA_AWA_CON	25	A	B	Rpleas_acq	Same	Rpleas	1pleas	acq_US_pleas_nomask	acq45_nomask	4	13	400	1	300	300	0	0	377	46	0	0	träumen	besonnen	anregung	gesittet	engagiert	kreativ	töten	bange	ausrottung	geizig	engstirnig	krank	sonnig	kuss	vergnügt	genießen	gütig	vertrauen	sterben	krise	verbissen	gemein	gierig	versagen	1	blank2r.bmp	0	1	+	0	1	blank2r.bmp	500	1	CPLW	500	1	blank2r.bmp	880	4	gesittet	880	1	!	1232	1	!	1278	0	0	0	0	0	0
2024-05-13	12:09:21	12:15:34	371670	6.6.1	4_exp_EVA_AWA_CON	25	A	B	Rpleas_acq	Same	Rpleas	1pleas	acq_US_unple_nomask	acq45_nomask	4	14	400	1	300	300	0	0	393	46	1	0	träumen	besonnen	anregung	gesittet	engagiert	kreativ	töten	bange	ausrottung	geizig	engstirnig	krank	sonnig	kuss	vergnügt	genießen	gütig	vertrauen	sterben	krise	verbissen	gemein	gierig	versagen	1	blank2r.bmp	0	1	+	0	1	blank2r.bmp	500	1	DHJF	500	1	blank2r.bmp	880	5	engstirnig	880	1	!	1232	1	!	1295	0	0	0	0	0	0
2024-05-13	12:09:21	12:15:36	373822	6.6.1	4_exp_EVA_AWA_CON	25	A	B	Rpleas_acq	Same	Rpleas	1pleas	acq_US_pleas_nomask	acq45_nomask	4	15	400	1	300	300	0	0	374	50	1	0	träumen	besonnen	anregung	gesittet	engagiert	kreativ	töten	bange	ausrottung	geizig	engstirnig	krank	sonnig	kuss	vergnügt	genießen	gütig	vertrauen	sterben	krise	verbissen	gemein	gierig	versagen	1	blank2r.bmp	0	1	+	0	1	blank2r.bmp	500	1	CPLW	500	1	blank2r.bmp	880	1	träumen	880	1	!	1232	1	!	1275	0	0	0	0	0	0
2024-05-13	12:09:21	12:15:38	375990	6.6.1	4_exp_EVA_AWA_CON	25	A	B	Rpleas_acq	Same	Rpleas	1pleas	acq_US_pleas_nomask	acq45_nomask	4	16	400	1	300	300	0	0	391	50	1	0	träumen	besonnen	anregung	gesittet	engagiert	kreativ	töten	bange	ausrottung	geizig	engstirnig	krank	sonnig	kuss	vergnügt	genießen	gütig	vertrauen	sterben	krise	verbissen	gemein	gierig	versagen	1	blank2r.bmp	0	1	+	0	1	blank2r.bmp	500	1	CPLW	500	1	blank2r.bmp	880	2	besonnen	880	1	!	1232	1	!	1292	0	0	0	0	0	0
2024-05-13	12:09:21	12:15:40	378205	6.6.1	4_exp_EVA_AWA_CON	25	A	B	Rpleas_acq	Same	Rpleas	1pleas	acq_US_pleas_nomask	acq45_nomask	4	17	400	1	300	300	0	0	435	46	0	0	träumen	besonnen	anregung	gesittet	engagiert	kreativ	töten	bange	ausrottung	geizig	engstirnig	krank	sonnig	kuss	vergnügt	genießen	gütig	vertrauen	sterben	krise	verbissen	gemein	gierig	versagen	1	blank2r.bmp	0	1	+	0	1	blank2r.bmp	500	1	CPLW	500	1	blank2r.bmp	880	5	engagiert	880	1	!	1232	1	!	1337	0	0	0	0	0	0
2024-05-13	12:09:21	12:15:42	380334	6.6.1	4_exp_EVA_AWA_CON	25	A	B	Rpleas_acq	Same	Rpleas	1pleas	acq_US_unple_nomask	acq45_nomask	4	18	400	1	300	300	0	0	352	46	1	0	träumen	besonnen	anregung	gesittet	engagiert	kreativ	töten	bange	ausrottung	geizig	engstirnig	krank	sonnig	kuss	vergnügt	genießen	gütig	vertrauen	sterben	krise	verbissen	gemein	gierig	versagen	1	blank2r.bmp	0	1	+	0	1	blank2r.bmp	500	1	DHJF	500	1	blank2r.bmp	880	3	ausrottung	880	1	!	1233	1	!	1253	0	0	0	0	0	0
2024-05-13	12:09:21	12:15:45	382628	6.6.1	4_exp_EVA_AWA_CON	25	A	B	Rpleas_acq	Same	Rpleas	1pleas	acq_US_unple_nomask	acq45_nomask	4	19	400	0	300	300	0	0	517	46	1	0	träumen	besonnen	anregung	gesittet	engagiert	kreativ	töten	bange	ausrottung	geizig	engstirnig	krank	sonnig	kuss	vergnügt	genießen	gütig	vertrauen	sterben	krise	verbissen	gemein	gierig	versagen	1	blank2r.bmp	0	1	+	0	1	blank2r.bmp	500	1	DHJF	500	1	blank2r.bmp	880	2	bange	880	1	!	1232	1	!	-1	0	0	0	0	0	0
2024-05-13	12:09:21	12:15:47	384750	6.6.1	4_exp_EVA_AWA_CON	25	A	B	Rpleas_acq	Same	Rpleas	1pleas	acq_US_unple_nomask	acq45_nomask	4	20	400	1	300	300	0	0	345	50	0	0	träumen	besonnen	anregung	gesittet	engagiert	kreativ	töten	bange	ausrottung	geizig	engstirnig	krank	sonnig	kuss	vergnügt	genießen	gütig	vertrauen	sterben	krise	verbissen	gemein	gierig	versagen	1	blank2r.bmp	0	1	+	0	1	blank2r.bmp	500	1	DHJF	500	1	blank2r.bmp	880	4	geizig	880	1	!	1232	1	!	1246	0	0	0	0	0	0
2024-05-13	12:09:21	12:15:49	386894	6.6.1	4_exp_EVA_AWA_CON	25	A	B	Rpleas_acq	Same	Rpleas	1pleas	acq_US_pleas_nomask	acq45_nomask	4	21	400	1	300	300	0	0	368	50	1	0	träumen	besonnen	anregung	gesittet	engagiert	kreativ	töten	bange	ausrottung	geizig	engstirnig	krank	sonnig	kuss	vergnügt	genießen	gütig	vertrauen	sterben	krise	verbissen	gemein	gierig	versagen	1	blank2r.bmp	0	1	+	0	1	blank2r.bmp	500	1	CPLW	500	1	blank2r.bmp	880	3	anregung	880	1	!	1232	1	!	1269	0	0	0	0	0	0
2024-05-13	12:09:21	12:15:51	389022	6.6.1	4_exp_EVA_AWA_CON	25	A	B	Rpleas_acq	Same	Rpleas	1pleas	acq_US_pleas_nomask	acq45_nomask	4	22	400	1	300	300	0	0	344	50	1	0	träumen	besonnen	anregung	gesittet	engagiert	kreativ	töten	bange	ausrottung	geizig	engstirnig	krank	sonnig	kuss	vergnügt	genießen	gütig	vertrauen	sterben	krise	verbissen	gemein	gierig	versagen	1	blank2r.bmp	0	1	+	0	1	blank2r.bmp	500	1	CPLW	500	1	blank2r.bmp	880	6	kreativ	880	1	!	1233	1	!	1246	0	0	0	0	0	0
2024-05-13	12:09:21	12:15:53	391158	6.6.1	4_exp_EVA_AWA_CON	25	A	B	Rpleas_acq	Same	Rpleas	1pleas	acq_US_unple_nomask	acq45_nomask	4	23	400	1	300	300	0	0	359	50	0	0	träumen	besonnen	anregung	gesittet	engagiert	kreativ	töten	bange	ausrottung	geizig	engstirnig	krank	sonnig	kuss	vergnügt	genießen	gütig	vertrauen	sterben	krise	verbissen	gemein	gierig	versagen	1	blank2r.bmp	0	1	+	0	1	blank2r.bmp	500	1	DHJF	500	1	blank2r.bmp	880	6	krank	880	1	!	1232	1	!	1260	0	0	0	0	0	0
2024-05-13	12:09:21	12:15:55	393341	6.6.1	4_exp_EVA_AWA_CON	25	A	B	Rpleas_acq	Same	Rpleas	1pleas	acq_US_unple_nomask	acq45_nomask	4	24	400	1	300	300	0	0	402	50	0	0	träumen	besonnen	anregung	gesittet	engagiert	kreativ	töten	bange	ausrottung	geizig	engstirnig	krank	sonnig	kuss	vergnügt	genießen	gütig	vertrauen	sterben	krise	verbissen	gemein	gierig	versagen	1	blank2r.bmp	0	1	+	0	1	blank2r.bmp	500	1	DHJF	500	1	blank2r.bmp	880	5	engstirnig	880	1	!	1232	1	!	1303	0	0	0	0	0	0
2024-05-13	12:09:21	12:15:57	395356	6.6.1	4_exp_EVA_AWA_CON	25	A	B	Rpleas_acq	Same	Rpleas	1pleas	acq_US_unple_nomask	acq45_nomask	4	25	400	0	300	300	0	0	236	46	1	0	träumen	besonnen	anregung	gesittet	engagiert	kreativ	töten	bange	ausrottung	geizig	engstirnig	krank	sonnig	kuss	vergnügt	genießen	gütig	vertrauen	sterben	krise	verbissen	gemein	gierig	versagen	1	blank2r.bmp	0	1	+	0	1	blank2r.bmp	500	1	DHJF	500	1	blank2r.bmp	880	2	bange	880	1	!	-1	1	!	-1	0	0	0	0	0	0
2024-05-13	12:09:21	12:16:00	397486	6.6.1	4_exp_EVA_AWA_CON	25	A	B	Rpleas_acq	Same	Rpleas	1pleas	acq_US_unple_nomask	acq45_nomask	4	26	400	1	300	300	0	0	353	46	1	0	träumen	besonnen	anregung	gesittet	engagiert	kreativ	töten	bange	ausrottung	geizig	engstirnig	krank	sonnig	kuss	vergnügt	genießen	gütig	vertrauen	sterben	krise	verbissen	gemein	gierig	versagen	1	blank2r.bmp	0	1	+	0	1	blank2r.bmp	500	1	DHJF	500	1	blank2r.bmp	880	3	ausrottung	880	1	!	1233	1	!	1254	0	0	0	0	0	0
2024-05-13	12:09:21	12:16:02	399655	6.6.1	4_exp_EVA_AWA_CON	25	A	B	Rpleas_acq	Same	Rpleas	1pleas	acq_US_pleas_nomask	acq45_nomask	4	27	400	1	300	300	0	0	390	50	1	0	träumen	besonnen	anregung	gesittet	engagiert	kreativ	töten	bange	ausrottung	geizig	engstirnig	krank	sonnig	kuss	vergnügt	genießen	gütig	vertrauen	sterben	krise	verbissen	gemein	gierig	versagen	1	blank2r.bmp	0	1	+	0	1	blank2r.bmp	500	1	CPLW	500	1	blank2r.bmp	880	4	gesittet	880	1	!	1232	1	!	1292	0	0	0	0	0	0
2024-05-13	12:09:21	12:16:04	401940	6.6.1	4_exp_EVA_AWA_CON	25	A	B	Rpleas_acq	Same	Rpleas	1pleas	acq_US_pleas_nomask	acq45_nomask	4	28	400	0	300	300	0	0	506	50	1	0	träumen	besonnen	anregung	gesittet	engagiert	kreativ	töten	bange	ausrottung	geizig	engstirnig	krank	sonnig	kuss	vergnügt	genießen	gütig	vertrauen	sterben	krise	verbissen	gemein	gierig	versagen	1	blank2r.bmp	0	1	+	0	1	blank2r.bmp	500	1	CPLW	500	1	blank2r.bmp	880	1	träumen	880	1	!	1232	1	!	-1	0	0	0	0	0	0
2024-05-13	12:09:21	12:16:06	404158	6.6.1	4_exp_EVA_AWA_CON	25	A	B	Rpleas_acq	Same	Rpleas	1pleas	acq_US_pleas_nomask	acq45_nomask	4	29	400	1	300	300	0	0	441	46	0	0	träumen	besonnen	anregung	gesittet	engagiert	kreativ	töten	bange	ausrottung	geizig	engstirnig	krank	sonnig	kuss	vergnügt	genießen	gütig	vertrauen	sterben	krise	verbissen	gemein	gierig	versagen	1	blank2r.bmp	0	1	+	0	1	blank2r.bmp	500	1	CPLW	500	1	blank2r.bmp	880	4	gesittet	880	1	!	1232	1	!	1343	0	0	0	0	0	0
2024-05-13	12:09:21	12:16:08	406220	6.6.1	4_exp_EVA_AWA_CON	25	A	B	Rpleas_acq	Same	Rpleas	1pleas	acq_US_unple_nomask	acq45_nomask	4	30	400	0	300	300	0	0	283	46	1	0	träumen	besonnen	anregung	gesittet	engagiert	kreativ	töten	bange	ausrottung	geizig	engstirnig	krank	sonnig	kuss	vergnügt	genießen	gütig	vertrauen	sterben	krise	verbissen	gemein	gierig	versagen	1	blank2r.bmp	0	1	+	0	1	blank2r.bmp	500	1	DHJF	500	1	blank2r.bmp	880	1	töten	880	1	!	-1	1	!	-1	0	0	0	0	0	0
2024-05-13	12:09:21	12:16:11	408391	6.6.1	4_exp_EVA_AWA_CON	25	A	B	Rpleas_acq	Same	Rpleas	1pleas	acq_US_pleas_nomask	acq45_nomask	4	31	400	1	300	300	0	0	390	50	1	0	träumen	besonnen	anregung	gesittet	engagiert	kreativ	töten	bange	ausrottung	geizig	engstirnig	krank	sonnig	kuss	vergnügt	genießen	gütig	vertrauen	sterben	krise	verbissen	gemein	gierig	versagen	1	blank2r.bmp	0	1	+	0	1	blank2r.bmp	500	1	CPLW	500	1	blank2r.bmp	880	5	engagiert	880	1	!	1233	1	!	1292	0	0	0	0	0	0
2024-05-13	12:09:21	12:16:13	410740	6.6.1	4_exp_EVA_AWA_CON	25	A	B	Rpleas_acq	Same	Rpleas	1pleas	acq_US_unple_nomask	acq45_nomask	4	32	400	0	300	300	0	0	571	46	1	0	träumen	besonnen	anregung	gesittet	engagiert	kreativ	töten	bange	ausrottung	geizig	engstirnig	krank	sonnig	kuss	vergnügt	genießen	gütig	vertrauen	sterben	krise	verbissen	gemein	gierig	versagen	1	blank2r.bmp	0	1	+	0	1	blank2r.bmp	500	1	DHJF	500	1	blank2r.bmp	880	4	geizig	880	1	!	1233	1	!	-1	0	0	0	0	0	0
2024-05-13	12:09:21	12:16:15	412926	6.6.1	4_exp_EVA_AWA_CON	25	A	B	Rpleas_acq	Same	Rpleas	1pleas	acq_US_pleas_nomask	acq45_nomask	4	33	400	1	300	300	0	0	403	46	0	0	träumen	besonnen	anregung	gesittet	engagiert	kreativ	töten	bange	ausrottung	geizig	engstirnig	krank	sonnig	kuss	vergnügt	genießen	gütig	vertrauen	sterben	krise	verbissen	gemein	gierig	versagen	1	blank2r.bmp	0	1	+	0	1	blank2r.bmp	500	1	CPLW	500	1	blank2r.bmp	880	3	anregung	880	1	!	1232	1	!	1304	0	0	0	0	0	0
2024-05-13	12:09:21	12:16:17	415044	6.6.1	4_exp_EVA_AWA_CON	25	A	B	Rpleas_acq	Same	Rpleas	1pleas	acq_US_pleas_nomask	acq45_nomask	4	34	400	1	300	300	0	0	342	50	1	0	träumen	besonnen	anregung	gesittet	engagiert	kreativ	töten	bange	ausrottung	geizig	engstirnig	krank	sonnig	kuss	vergnügt	genießen	gütig	vertrauen	sterben	krise	verbissen	gemein	gierig	versagen	1	blank2r.bmp	0	1	+	0	1	blank2r.bmp	500	1	CPLW	500	1	blank2r.bmp	880	6	kreativ	880	1	!	1232	1	!	1241	0	0	0	0	0	0
2024-05-13	12:09:21	12:16:19	417222	6.6.1	4_exp_EVA_AWA_CON	25	A	B	Rpleas_acq	Same	Rpleas	1pleas	acq_US_unple_nomask	acq45_nomask	4	35	400	1	300	300	0	0	396	46	1	0	träumen	besonnen	anregung	gesittet	engagiert	kreativ	töten	bange	ausrottung	geizig	engstirnig	krank	sonnig	kuss	vergnügt	genießen	gütig	vertrauen	sterben	krise	verbissen	gemein	gierig	versagen	1	blank2r.bmp	0	1	+	0	1	blank2r.bmp	500	1	DHJF	500	1	blank2r.bmp	880	6	krank	880	1	!	1232	1	!	1298	0	0	0	0	0	0
2024-05-13	12:09:21	12:16:22	419413	6.6.1	4_exp_EVA_AWA_CON	25	A	B	Rpleas_acq	Same	Rpleas	1pleas	acq_US_pleas_nomask	acq45_nomask	4	36	400	1	300	300	0	0	417	50	1	0	träumen	besonnen	anregung	gesittet	engagiert	kreativ	töten	bange	ausrottung	geizig	engstirnig	krank	sonnig	kuss	vergnügt	genießen	gütig	vertrauen	sterben	krise	verbissen	gemein	gierig	versagen	1	blank2r.bmp	0	1	+	0	1	blank2r.bmp	500	1	CPLW	500	1	blank2r.bmp	880	2	besonnen	880	1	!	1232	1	!	1318	0	0	0	0	0	0
2024-05-13	12:09:21	12:16:32	429588	6.6.1	4_exp_EVA_AWA_CON	25	A	B	Rpleas_acq	Same	Rpleas	1pleas	acq_US_unple_nomask	acq45_nomask	5	1	400	0	300	300	0	0	286	50	0	0	träumen	besonnen	anregung	gesittet	engagiert	kreativ	töten	bange	ausrottung	geizig	engstirnig	krank	sonnig	kuss	vergnügt	genießen	gütig	vertrauen	sterben	krise	verbissen	gemein	gierig	versagen	1	blank2r.bmp	0	1	+	0	1	blank2r.bmp	500	1	DHJF	500	1	blank2r.bmp	880	4	geizig	880	1	!	-1	1	!	-1	0	0	0	0	0	0
2024-05-13	12:09:21	12:16:34	431684	6.6.1	4_exp_EVA_AWA_CON	25	A	B	Rpleas_acq	Same	Rpleas	1pleas	acq_US_unple_nomask	acq45_nomask	5	2	400	0	300	300	0	0	321	46	1	0	träumen	besonnen	anregung	gesittet	engagiert	kreativ	töten	bange	ausrottung	geizig	engstirnig	krank	sonnig	kuss	vergnügt	genießen	gütig	vertrauen	sterben	krise	verbissen	gemein	gierig	versagen	1	blank2r.bmp	0	1	+	0	1	blank2r.bmp	500	1	DHJF	500	1	blank2r.bmp	880	1	töten	880	1	!	-1	1	!	-1	0	0	0	0	0	0
2024-05-13	12:09:21	12:16:36	433862	6.6.1	4_exp_EVA_AWA_CON	25	A	B	Rpleas_acq	Same	Rpleas	1pleas	acq_US_unple_nomask	acq45_nomask	5	3	400	1	300	300	0	0	396	46	1	0	träumen	besonnen	anregung	gesittet	engagiert	kreativ	töten	bange	ausrottung	geizig	engstirnig	krank	sonnig	kuss	vergnügt	genießen	gütig	vertrauen	sterben	krise	verbissen	gemein	gierig	versagen	1	blank2r.bmp	0	1	+	0	1	blank2r.bmp	500	1	DHJF	500	1	blank2r.bmp	880	6	krank	880	1	!	1232	1	!	1297	0	0	0	0	0	0
2024-05-13	12:09:21	12:16:38	436046	6.6.1	4_exp_EVA_AWA_CON	25	A	B	Rpleas_acq	Same	Rpleas	1pleas	acq_US_unple_nomask	acq45_nomask	5	4	400	1	300	300	0	0	408	50	0	0	träumen	besonnen	anregung	gesittet	engagiert	kreativ	töten	bange	ausrottung	geizig	engstirnig	krank	sonnig	kuss	vergnügt	genießen	gütig	vertrauen	sterben	krise	verbissen	gemein	gierig	versagen	1	blank2r.bmp	0	1	+	0	1	blank2r.bmp	500	1	DHJF	500	1	blank2r.bmp	880	3	ausrottung	880	1	!	1233	1	!	1310	0	0	0	0	0	0
2024-05-13	12:09:21	12:16:40	438084	6.6.1	4_exp_EVA_AWA_CON	25	A	B	Rpleas_acq	Same	Rpleas	1pleas	acq_US_pleas_nomask	acq45_nomask	5	5	400	0	300	300	0	0	257	50	1	0	träumen	besonnen	anregung	gesittet	engagiert	kreativ	töten	bange	ausrottung	geizig	engstirnig	krank	sonnig	kuss	vergnügt	genießen	gütig	vertrauen	sterben	krise	verbissen	gemein	gierig	versagen	1	blank2r.bmp	0	1	+	0	1	blank2r.bmp	500	1	CPLW	500	1	blank2r.bmp	880	2	besonnen	880	1	!	-1	1	!	-1	0	0	0	0	0	0
2024-05-13	12:09:21	12:16:42	440196	6.6.1	4_exp_EVA_AWA_CON	25	A	B	Rpleas_acq	Same	Rpleas	1pleas	acq_US_pleas_nomask	acq45_nomask	5	6	400	1	300	300	0	0	338	50	1	0	träumen	besonnen	anregung	gesittet	engagiert	kreativ	töten	bange	ausrottung	geizig	engstirnig	krank	sonnig	kuss	vergnügt	genießen	gütig	vertrauen	sterben	krise	verbissen	gemein	gierig	versagen	1	blank2r.bmp	0	1	+	0	1	blank2r.bmp	500	1	CPLW	500	1	blank2r.bmp	880	1	träumen	880	1	!	1232	1	!	1237	0	0	0	0	0	0
2024-05-13	12:09:21	12:16:45	442484	6.6.1	4_exp_EVA_AWA_CON	25	A	B	Rpleas_acq	Same	Rpleas	1pleas	acq_US_pleas_nomask	acq45_nomask	5	7	400	0	300	300	0	0	514	50	1	0	träumen	besonnen	anregung	gesittet	engagiert	kreativ	töten	bange	ausrottung	geizig	engstirnig	krank	sonnig	kuss	vergnügt	genießen	gütig	vertrauen	sterben	krise	verbissen	gemein	gierig	versagen	1	blank2r.bmp	0	1	+	0	1	blank2r.bmp	500	1	CPLW	500	1	blank2r.bmp	880	4	gesittet	880	1	!	1233	1	!	-1	0	0	0	0	0	0
2024-05-13	12:09:21	12:16:47	444604	6.6.1	4_exp_EVA_AWA_CON	25	A	B	Rpleas_acq	Same	Rpleas	1pleas	acq_US_pleas_nomask	acq45_nomask	5	8	400	1	300	300	0	0	343	46	0	0	träumen	besonnen	anregung	gesittet	engagiert	kreativ	töten	bange	ausrottung	geizig	engstirnig	krank	sonnig	kuss	vergnügt	genießen	gütig	vertrauen	sterben	krise	verbissen	gemein	gierig	versagen	1	blank2r.bmp	0	1	+	0	1	blank2r.bmp	500	1	CPLW	500	1	blank2r.bmp	880	6	kreativ	880	1	!	1232	1	!	1242	0	0	0	0	0	0
2024-05-13	12:09:21	12:16:49	446676	6.6.1	4_exp_EVA_AWA_CON	25	A	B	Rpleas_acq	Same	Rpleas	1pleas	acq_US_unple_nomask	acq45_nomask	5	9	400	0	300	300	0	0	293	46	1	0	träumen	besonnen	anregung	gesittet	engagiert	kreativ	töten	bange	ausrottung	geizig	engstirnig	krank	sonnig	kuss	vergnügt	genießen	gütig	vertrauen	sterben	krise	verbissen	gemein	gierig	versagen	1	blank2r.bmp	0	1	+	0	1	blank2r.bmp	500	1	DHJF	500	1	blank2r.bmp	880	2	bange	880	1	!	-1	1	!	-1	0	0	0	0	0	0
2024-05-13	12:09:21	12:16:51	448861	6.6.1	4_exp_EVA_AWA_CON	25	A	B	Rpleas_acq	Same	Rpleas	1pleas	acq_US_unple_nomask	acq45_nomask	5	10	400	1	300	300	0	0	406	46	1	0	träumen	besonnen	anregung	gesittet	engagiert	kreativ	töten	bange	ausrottung	geizig	engstirnig	krank	sonnig	kuss	vergnügt	genießen	gütig	vertrauen	sterben	krise	verbissen	gemein	gierig	versagen	1	blank2r.bmp	0	1	+	0	1	blank2r.bmp	500	1	DHJF	500	1	blank2r.bmp	880	5	engstirnig	880	1	!	1232	1	!	1307	0	0	0	0	0	0
2024-05-13	12:09:21	12:16:53	451212	6.6.1	4_exp_EVA_AWA_CON	25	A	B	Rpleas_acq	Same	Rpleas	1pleas	acq_US_unple_nomask	acq45_nomask	5	11	400	0	300	300	0	0	577	46	1	0	träumen	besonnen	anregung	gesittet	engagiert	kreativ	töten	bange	ausrottung	geizig	engstirnig	krank	sonnig	kuss	vergnügt	genießen	gütig	vertrauen	sterben	krise	verbissen	gemein	gierig	versagen	1	blank2r.bmp	0	1	+	0	1	blank2r.bmp	500	1	DHJF	500	1	blank2r.bmp	880	6	krank	880	1	!	1232	1	!	-1	0	0	0	0	0	0
2024-05-13	12:09:21	12:16:56	453398	6.6.1	4_exp_EVA_AWA_CON	25	A	B	Rpleas_acq	Same	Rpleas	1pleas	acq_US_pleas_nomask	acq45_nomask	5	12	400	1	300	300	0	0	409	50	1	0	träumen	besonnen	anregung	gesittet	engagiert	kreativ	töten	bange	ausrottung	geizig	engstirnig	krank	sonnig	kuss	vergnügt	genießen	gütig	vertrauen	sterben	krise	verbissen	gemein	gierig	versagen	1	blank2r.bmp	0	1	+	0	1	blank2r.bmp	500	1	CPLW	500	1	blank2r.bmp	880	5	engagiert	880	1	!	1232	1	!	1310	0	0	0	0	0	0
2024-05-13	12:09:21	12:16:58	455669	6.6.1	4_exp_EVA_AWA_CON	25	A	B	Rpleas_acq	Same	Rpleas	1pleas	acq_US_unple_nomask	acq45_nomask	5	13	400	0	300	300	0	0	490	46	1	0	träumen	besonnen	anregung	gesittet	engagiert	kreativ	töten	bange	ausrottung	geizig	engstirnig	krank	sonnig	kuss	vergnügt	genießen	gütig	vertrauen	sterben	krise	verbissen	gemein	gierig	versagen	1	blank2r.bmp	0	1	+	0	1	blank2r.bmp	500	1	DHJF	500	1	blank2r.bmp	880	3	ausrottung	880	1	!	1232	1	!	-1	0	0	0	0	0	0
2024-05-13	12:09:21	12:17:00	457822	6.6.1	4_exp_EVA_AWA_CON	25	A	B	Rpleas_acq	Same	Rpleas	1pleas	acq_US_pleas_nomask	acq45_nomask	5	14	400	1	300	300	0	0	370	50	1	0	träumen	besonnen	anregung	gesittet	engagiert	kreativ	töten	bange	ausrottung	geizig	engstirnig	krank	sonnig	kuss	vergnügt	genießen	gütig	vertrauen	sterben	krise	verbissen	gemein	gierig	versagen	1	blank2r.bmp	0	1	+	0	1	blank2r.bmp	500	1	CPLW	500	1	blank2r.bmp	880	3	anregung	880	1	!	1232	1	!	1272	0	0	0	0	0	0
2024-05-13	12:09:21	12:17:02	460108	6.6.1	4_exp_EVA_AWA_CON	25	A	B	Rpleas_acq	Same	Rpleas	1pleas	acq_US_pleas_nomask	acq45_nomask	5	15	400	0	300	300	0	0	507	50	1	0	träumen	besonnen	anregung	gesittet	engagiert	kreativ	töten	bange	ausrottung	geizig	engstirnig	krank	sonnig	kuss	vergnügt	genießen	gütig	vertrauen	sterben	krise	verbissen	gemein	gierig	versagen	1	blank2r.bmp	0	1	+	0	1	blank2r.bmp	500	1	CPLW	500	1	blank2r.bmp	880	3	anregung	880	1	!	1232	1	!	-1	0	0	0	0	0	0
2024-05-13	12:09:21	12:17:04	462220	6.6.1	4_exp_EVA_AWA_CON	25	A	B	Rpleas_acq	Same	Rpleas	1pleas	acq_US_pleas_nomask	acq45_nomask	5	16	400	1	300	300	0	0	337	50	1	0	träumen	besonnen	anregung	gesittet	engagiert	kreativ	töten	bange	ausrottung	geizig	engstirnig	krank	sonnig	kuss	vergnügt	genießen	gütig	vertrauen	sterben	krise	verbissen	gemein	gierig	versagen	1	blank2r.bmp	0	1	+	0	1	blank2r.bmp	500	1	CPLW	500	1	blank2r.bmp	880	1	träumen	880	1	!	1232	1	!	1237	0	0	0	0	0	0
2024-05-13	12:09:21	12:17:06	464332	6.6.1	4_exp_EVA_AWA_CON	25	A	B	Rpleas_acq	Same	Rpleas	1pleas	acq_US_pleas_nomask	acq45_nomask	5	17	400	1	300	300	0	0	338	46	0	0	träumen	besonnen	anregung	gesittet	engagiert	kreativ	töten	bange	ausrottung	geizig	engstirnig	krank	sonnig	kuss	vergnügt	genießen	gütig	vertrauen	sterben	krise	verbissen	gemein	gierig	versagen	1	blank2r.bmp	0	1	+	0	1	blank2r.bmp	500	1	CPLW	500	1	blank2r.bmp	880	5	engagiert	880	1	!	1233	1	!	1238	0	0	0	0	0	0
2024-05-13	12:09:21	12:17:09	466596	6.6.1	4_exp_EVA_AWA_CON	25	A	B	Rpleas_acq	Same	Rpleas	1pleas	acq_US_unple_nomask	acq45_nomask	5	18	400	0	300	300	0	0	491	46	1	0	träumen	besonnen	anregung	gesittet	engagiert	kreativ	töten	bange	ausrottung	geizig	engstirnig	krank	sonnig	kuss	vergnügt	genießen	gütig	vertrauen	sterben	krise	verbissen	gemein	gierig	versagen	1	blank2r.bmp	0	1	+	0	1	blank2r.bmp	500	1	DHJF	500	1	blank2r.bmp	880	4	geizig	880	1	!	1232	1	!	-1	0	0	0	0	0	0
2024-05-13	12:09:21	12:17:11	468798	6.6.1	4_exp_EVA_AWA_CON	25	A	B	Rpleas_acq	Same	Rpleas	1pleas	acq_US_unple_nomask	acq45_nomask	5	19	400	1	300	300	0	0	419	46	1	0	träumen	besonnen	anregung	gesittet	engagiert	kreativ	töten	bange	ausrottung	geizig	engstirnig	krank	sonnig	kuss	vergnügt	genießen	gütig	vertrauen	sterben	krise	verbissen	gemein	gierig	versagen	1	blank2r.bmp	0	1	+	0	1	blank2r.bmp	500	1	DHJF	500	1	blank2r.bmp	880	1	töten	880	1	!	1232	1	!	1320	0	0	0	0	0	0
2024-05-13	12:09:21	12:17:13	471022	6.6.1	4_exp_EVA_AWA_CON	25	A	B	Rpleas_acq	Same	Rpleas	1pleas	acq_US_pleas_nomask	acq45_nomask	5	20	400	1	300	300	0	0	442	46	0	0	träumen	besonnen	anregung	gesittet	engagiert	kreativ	töten	bange	ausrottung	geizig	engstirnig	krank	sonnig	kuss	vergnügt	genießen	gütig	vertrauen	sterben	krise	verbissen	gemein	gierig	versagen	1	blank2r.bmp	0	1	+	0	1	blank2r.bmp	500	1	CPLW	500	1	blank2r.bmp	880	4	gesittet	880	1	!	1232	1	!	1343	0	0	0	0	0	0
2024-05-13	12:09:21	12:17:15	473173	6.6.1	4_exp_EVA_AWA_CON	25	A	B	Rpleas_acq	Same	Rpleas	1pleas	acq_US_pleas_nomask	acq45_nomask	5	21	400	1	300	300	0	0	372	50	1	0	träumen	besonnen	anregung	gesittet	engagiert	kreativ	töten	bange	ausrottung	geizig	engstirnig	krank	sonnig	kuss	vergnügt	genießen	gütig	vertrauen	sterben	krise	verbissen	gemein	gierig	versagen	1	blank2r.bmp	0	1	+	0	1	blank2r.bmp	500	1	CPLW	500	1	blank2r.bmp	880	6	kreativ	880	1	!	1232	1	!	1274	0	0	0	0	0	0
2024-05-13	12:09:21	12:17:18	475426	6.6.1	4_exp_EVA_AWA_CON	25	A	B	Rpleas_acq	Same	Rpleas	1pleas	acq_US_unple_nomask	acq45_nomask	5	22	400	0	300	300	0	0	477	46	1	0	träumen	besonnen	anregung	gesittet	engagiert	kreativ	töten	bange	ausrottung	geizig	engstirnig	krank	sonnig	kuss	vergnügt	genießen	gütig	vertrauen	sterben	krise	verbissen	gemein	gierig	versagen	1	blank2r.bmp	0	1	+	0	1	blank2r.bmp	500	1	DHJF	500	1	blank2r.bmp	880	2	bange	880	1	!	1232	1	!	-1	0	0	0	0	0	0
2024-05-13	12:09:21	12:17:20	477682	6.6.1	4_exp_EVA_AWA_CON	25	A	B	Rpleas_acq	Same	Rpleas	1pleas	acq_US_pleas_nomask	acq45_nomask	5	23	400	0	300	300	0	0	482	50	1	0	träumen	besonnen	anregung	gesittet	engagiert	kreativ	töten	bange	ausrottung	geizig	engstirnig	krank	sonnig	kuss	vergnügt	genießen	gütig	vertrauen	sterben	krise	verbissen	gemein	gierig	versagen	1	blank2r.bmp	0	1	+	0	1	blank2r.bmp	500	1	CPLW	500	1	blank2r.bmp	880	2	besonnen	880	1	!	1232	1	!	-1	0	0	0	0	0	0
2024-05-13	12:09:21	12:17:22	479788	6.6.1	4_exp_EVA_AWA_CON	25	A	B	Rpleas_acq	Same	Rpleas	1pleas	acq_US_pleas_nomask	acq45_nomask	5	24	400	0	300	300	0	0	324	50	1	0	träumen	besonnen	anregung	gesittet	engagiert	kreativ	töten	bange	ausrottung	geizig	engstirnig	krank	sonnig	kuss	vergnügt	genießen	gütig	vertrauen	sterben	krise	verbissen	gemein	gierig	versagen	1	blank2r.bmp	0	1	+	0	1	blank2r.bmp	500	1	CPLW	500	1	blank2r.bmp	880	3	anregung	880	1	!	-1	1	!	-1	0	0	0	0	0	0
2024-05-13	12:09:21	12:17:24	481908	6.6.1	4_exp_EVA_AWA_CON	25	A	B	Rpleas_acq	Same	Rpleas	1pleas	acq_US_unple_nomask	acq45_nomask	5	25	400	1	300	300	0	0	343	50	0	0	träumen	besonnen	anregung	gesittet	engagiert	kreativ	töten	bange	ausrottung	geizig	engstirnig	krank	sonnig	kuss	vergnügt	genießen	gütig	vertrauen	sterben	krise	verbissen	gemein	gierig	versagen	1	blank2r.bmp	0	1	+	0	1	blank2r.bmp	500	1	DHJF	500	1	blank2r.bmp	880	5	engstirnig	880	1	!	1233	1	!	1242	0	0	0	0	0	0
2024-05-13	12:09:21	12:17:26	484028	6.6.1	4_exp_EVA_AWA_CON	25	A	B	Rpleas_acq	Same	Rpleas	1pleas	acq_US_pleas_nomask	acq45_nomask	5	26	400	1	300	300	0	0	341	50	1	0	träumen	besonnen	anregung	gesittet	engagiert	kreativ	töten	bange	ausrottung	geizig	engstirnig	krank	sonnig	kuss	vergnügt	genießen	gütig	vertrauen	sterben	krise	verbissen	gemein	gierig	versagen	1	blank2r.bmp	0	1	+	0	1	blank2r.bmp	500	1	CPLW	500	1	blank2r.bmp	880	1	träumen	880	1	!	1232	1	!	1241	0	0	0	0	0	0
2024-05-13	12:09:21	12:17:28	486238	6.6.1	4_exp_EVA_AWA_CON	25	A	B	Rpleas_acq	Same	Rpleas	1pleas	acq_US_unple_nomask	acq45_nomask	5	27	400	1	300	300	0	0	428	46	1	0	träumen	besonnen	anregung	gesittet	engagiert	kreativ	töten	bange	ausrottung	geizig	engstirnig	krank	sonnig	kuss	vergnügt	genießen	gütig	vertrauen	sterben	krise	verbissen	gemein	gierig	versagen	1	blank2r.bmp	0	1	+	0	1	blank2r.bmp	500	1	DHJF	500	1	blank2r.bmp	880	1	töten	880	1	!	1232	1	!	1329	0	0	0	0	0	0
2024-05-13	12:09:21	12:17:31	488462	6.6.1	4_exp_EVA_AWA_CON	25	A	B	Rpleas_acq	Same	Rpleas	1pleas	acq_US_unple_nomask	acq45_nomask	5	28	400	1	300	300	0	0	450	46	1	0	träumen	besonnen	anregung	gesittet	engagiert	kreativ	töten	bange	ausrottung	geizig	engstirnig	krank	sonnig	kuss	vergnügt	genießen	gütig	vertrauen	sterben	krise	verbissen	gemein	gierig	versagen	1	blank2r.bmp	0	1	+	0	1	blank2r.bmp	500	1	DHJF	500	1	blank2r.bmp	880	4	geizig	880	1	!	1232	1	!	1352	0	0	0	0	0	0
2024-05-13	12:09:21	12:17:33	490732	6.6.1	4_exp_EVA_AWA_CON	25	A	B	Rpleas_acq	Same	Rpleas	1pleas	acq_US_pleas_nomask	acq45_nomask	5	29	400	0	300	300	0	0	491	46	0	0	träumen	besonnen	anregung	gesittet	engagiert	kreativ	töten	bange	ausrottung	geizig	engstirnig	krank	sonnig	kuss	vergnügt	genießen	gütig	vertrauen	sterben	krise	verbissen	gemein	gierig	versagen	1	blank2r.bmp	0	1	+	0	1	blank2r.bmp	500	1	CPLW	500	1	blank2r.bmp	880	5	engagiert	880	1	!	1232	1	!	-1	0	0	0	0	0	0
2024-05-13	12:09:21	12:17:35	492894	6.6.1	4_exp_EVA_AWA_CON	25	A	B	Rpleas_acq	Same	Rpleas	1pleas	acq_US_pleas_nomask	acq45_nomask	5	30	400	1	300	300	0	0	380	50	1	0	träumen	besonnen	anregung	gesittet	engagiert	kreativ	töten	bange	ausrottung	geizig	engstirnig	krank	sonnig	kuss	vergnügt	genießen	gütig	vertrauen	sterben	krise	verbissen	gemein	gierig	versagen	1	blank2r.bmp	0	1	+	0	1	blank2r.bmp	500	1	CPLW	500	1	blank2r.bmp	880	6	kreativ	880	1	!	1232	1	!	1282	0	0	0	0	0	0
2024-05-13	12:09:21	12:17:37	494964	6.6.1	4_exp_EVA_AWA_CON	25	A	B	Rpleas_acq	Same	Rpleas	1pleas	acq_US_unple_nomask	acq45_nomask	5	31	400	0	300	300	0	0	290	50	0	0	träumen	besonnen	anregung	gesittet	engagiert	kreativ	töten	bange	ausrottung	geizig	engstirnig	krank	sonnig	kuss	vergnügt	genießen	gütig	vertrauen	sterben	krise	verbissen	gemein	gierig	versagen	1	blank2r.bmp	0	1	+	0	1	blank2r.bmp	500	1	DHJF	500	1	blank2r.bmp	880	3	ausrottung	880	1	!	-1	1	!	-1	0	0	0	0	0	0
2024-05-13	12:09:21	12:17:39	497236	6.6.1	4_exp_EVA_AWA_CON	25	A	B	Rpleas_acq	Same	Rpleas	1pleas	acq_US_pleas_nomask	acq45_nomask	5	32	400	0	300	300	0	0	491	50	1	0	träumen	besonnen	anregung	gesittet	engagiert	kreativ	töten	bange	ausrottung	geizig	engstirnig	krank	sonnig	kuss	vergnügt	genießen	gütig	vertrauen	sterben	krise	verbissen	gemein	gierig	versagen	1	blank2r.bmp	0	1	+	0	1	blank2r.bmp	500	1	CPLW	500	1	blank2r.bmp	880	4	gesittet	880	1	!	1232	1	!	-1	0	0	0	0	0	0
2024-05-13	12:09:21	12:17:42	499438	6.6.1	4_exp_EVA_AWA_CON	25	A	B	Rpleas_acq	Same	Rpleas	1pleas	acq_US_unple_nomask	acq45_nomask	5	33	400	1	300	300	0	0	420	46	1	0	träumen	besonnen	anregung	gesittet	engagiert	kreativ	töten	bange	ausrottung	geizig	engstirnig	krank	sonnig	kuss	vergnügt	genießen	gütig	vertrauen	sterben	krise	verbissen	gemein	gierig	versagen	1	blank2r.bmp	0	1	+	0	1	blank2r.bmp	500	1	DHJF	500	1	blank2r.bmp	880	2	bange	880	1	!	1233	1	!	1321	0	0	0	0	0	0
2024-05-13	12:09:21	12:17:44	501661	6.6.1	4_exp_EVA_AWA_CON	25	A	B	Rpleas_acq	Same	Rpleas	1pleas	acq_US_unple_nomask	acq45_nomask	5	34	400	1	300	300	0	0	442	46	1	0	träumen	besonnen	anregung	gesittet	engagiert	kreativ	töten	bange	ausrottung	geizig	engstirnig	krank	sonnig	kuss	vergnügt	genießen	gütig	vertrauen	sterben	krise	verbissen	gemein	gierig	versagen	1	blank2r.bmp	0	1	+	0	1	blank2r.bmp	500	1	DHJF	500	1	blank2r.bmp	880	6	krank	880	1	!	1232	1	!	1343	0	0	0	0	0	0
2024-05-13	12:09:21	12:17:46	503902	6.6.1	4_exp_EVA_AWA_CON	25	A	B	Rpleas_acq	Same	Rpleas	1pleas	acq_US_pleas_nomask	acq45_nomask	5	35	400	1	300	300	0	0	461	50	1	0	träumen	besonnen	anregung	gesittet	engagiert	kreativ	töten	bange	ausrottung	geizig	engstirnig	krank	sonnig	kuss	vergnügt	genießen	gütig	vertrauen	sterben	krise	verbissen	gemein	gierig	versagen	1	blank2r.bmp	0	1	+	0	1	blank2r.bmp	500	1	CPLW	500	1	blank2r.bmp	880	2	besonnen	880	1	!	1232	1	!	1362	0	0	0	0	0	0
2024-05-13	12:09:21	12:17:48	506252	6.6.1	4_exp_EVA_AWA_CON	25	A	B	Rpleas_acq	Same	Rpleas	1pleas	acq_US_unple_nomask	acq45_nomask	5	36	400	0	300	300	0	0	571	46	1	0	träumen	besonnen	anregung	gesittet	engagiert	kreativ	töten	bange	ausrottung	geizig	engstirnig	krank	sonnig	kuss	vergnügt	genießen	gütig	vertrauen	sterben	krise	verbissen	gemein	gierig	versagen	1	blank2r.bmp	0	1	+	0	1	blank2r.bmp	500	1	DHJF	500	1	blank2r.bmp	880	5	engstirnig	880	1	!	1233	1	!	-1	0	0	0	0	0	0
2024-05-13	12:09:21	12:18:05	522409	6.6.1	4_exp_EVA_AWA_CON	25	A	B	Rpleas_acq	Same	Rpleas	1pleas	EvalRating_firsttwo	EvalRating_firsttwo	6	1	0	0	300	300	0	0	4951	line	0	-92,7083333333333285964pct	träumen	besonnen	anregung	gesittet	engagiert	kreativ	töten	bange	ausrottung	geizig	engstirnig	krank	sonnig	kuss	vergnügt	genießen	gütig	vertrauen	sterben	krise	verbissen	gemein	gierig	versagen	1		-8	1	Wie angenehm oder unangenehm finden Sie die  Buchstabenkette WDLH?	-8	1		-8	1		-8	1		-8	1	Unangenehm	-8	1	Angenehm	-8	0	0	0	0	0	0	0	0	0
2024-05-13	12:09:21	12:18:10	528121	6.6.1	4_exp_EVA_AWA_CON	25	A	B	Rpleas_acq	Same	Rpleas	1pleas	EvalRating_lastfour	EvalRating_lastfour	7	1	0	0	300	300	0	0	3338	line	0	-49,7395833333333285964pct	träumen	besonnen	anregung	gesittet	engagiert	kreativ	töten	bange	ausrottung	geizig	engstirnig	krank	sonnig	kuss	vergnügt	genießen	gütig	vertrauen	sterben	krise	verbissen	gemein	gierig	versagen	1		-7	1	Wie angenehm oder unangenehm finden Sie die  Buchstabenkette CPLW?	-7	1		-7	1		-7	1		-7	1	Unangenehm	-7	1	Angenehm	-7	0	0	0	0	0	0	0	0	0
2024-05-13	12:09:21	12:18:13	530488	6.6.1	4_exp_EVA_AWA_CON	25	A	B	Rpleas_acq	Same	Rpleas	1pleas	blank_screen	EvalRating_lastfour	7	3	0	0	300	300	0	0	0	0	0	-49,7395833333333285964pct	träumen	besonnen	anregung	gesittet	engagiert	kreativ	töten	bange	ausrottung	geizig	engstirnig	krank	sonnig	kuss	vergnügt	genießen	gütig	vertrauen	sterben	krise	verbissen	gemein	gierig	versagen	1		-8	0	0	0	0	0	0	0	0	0	0	0	0	0	0	0	0	0	0	0	0	0	0	0	0	0	0	0
2024-05-13	12:09:21	12:18:15	533193	6.6.1	4_exp_EVA_AWA_CON	25	A	B	Rpleas_acq	Same	Rpleas	1pleas	EvalRating_lastfour	EvalRating_lastfour	7	4	0	0	300	300	0	0	2116	line	0	-97,1354166666666714036pct	träumen	besonnen	anregung	gesittet	engagiert	kreativ	töten	bange	ausrottung	geizig	engstirnig	krank	sonnig	kuss	vergnügt	genießen	gütig	vertrauen	sterben	krise	verbissen	gemein	gierig	versagen	1		-8	3	Wie angenehm oder unangenehm finden Sie die  Buchstabenkette FCJP?	-8	1		-8	1		-8	1		-8	1	Unangenehm	-8	1	Angenehm	-8	0	0	0	0	0	0	0	0	0
2024-05-13	12:09:21	12:18:18	535561	6.6.1	4_exp_EVA_AWA_CON	25	A	B	Rpleas_acq	Same	Rpleas	1pleas	blank_screen	EvalRating_lastfour	7	6	0	0	300	300	0	0	0	0	0	-97,1354166666666714036pct	träumen	besonnen	anregung	gesittet	engagiert	kreativ	töten	bange	ausrottung	geizig	engstirnig	krank	sonnig	kuss	vergnügt	genießen	gütig	vertrauen	sterben	krise	verbissen	gemein	gierig	versagen	1		-8	0	0	0	0	0	0	0	0	0	0	0	0	0	0	0	0	0	0	0	0	0	0	0	0	0	0	0
2024-05-13	12:09:21	12:18:20	538096	6.6.1	4_exp_EVA_AWA_CON	25	A	B	Rpleas_acq	Same	Rpleas	1pleas	EvalRating_lastfour	EvalRating_lastfour	7	7	0	0	300	300	0	0	1947	line	0	8,3333333333333428072pct	träumen	besonnen	anregung	gesittet	engagiert	kreativ	töten	bange	ausrottung	geizig	engstirnig	krank	sonnig	kuss	vergnügt	genießen	gütig	vertrauen	sterben	krise	verbissen	gemein	gierig	versagen	1		-8	2	Wie angenehm oder unangenehm finden Sie die  Buchstabenkette DHJF?	-8	1		-8	1		-8	1		-8	1	Unangenehm	-8	1	Angenehm	-8	0	0	0	0	0	0	0	0	0
2024-05-13	12:09:21	12:18:59	577156	6.6.1	4_exp_EVA_AWA_CON	25	A	B	Rpleas_acq	Same	Rpleas	1pleas	conawa_CS2_US6	conawa1_nomask	8	1	0	0	300	300	0	0	16045	kreativ	1	8,3333333333333428072pct	träumen	besonnen	anregung	gesittet	engagiert	kreativ	töten	bange	ausrottung	geizig	engstirnig	krank	sonnig	kuss	vergnügt	genießen	gütig	vertrauen	sterben	krise	verbissen	gemein	gierig	versagen	0	0	0	0	0	0	0	0	0	0	0	0	0	0	0	0	0	0	0	0	0	0	0	0	0	0	0	0	0	0
2024-05-13	12:09:21	12:18:59	577157	6.6.1	4_exp_EVA_AWA_CON	25	A	B	Rpleas_acq	Same	Rpleas	1pleas	conawa_CS2_US6_confidence	conawa1_nomask	8	1	0	0	300	300	0	0	16045	guess	1	8,3333333333333428072pct	träumen	besonnen	anregung	gesittet	engagiert	kreativ	töten	bange	ausrottung	geizig	engstirnig	krank	sonnig	kuss	vergnügt	genießen	gütig	vertrauen	sterben	krise	verbissen	gemein	gierig	versagen	0	0	0	0	0	0	0	0	0	0	0	0	0	0	0	0	0	0	0	0	0	0	0	0	0	0	0	0	0	0
2024-05-13	12:09:21	12:19:08	585762	6.6.1	4_exp_EVA_AWA_CON	25	A	B	Rpleas_acq	Same	Rpleas	1pleas	conawa_CS2_US3	conawa1_nomask	8	2	0	0	300	300	0	0	7986	genießen	1	8,3333333333333428072pct	träumen	besonnen	anregung	gesittet	engagiert	kreativ	töten	bange	ausrottung	geizig	engstirnig	krank	sonnig	kuss	vergnügt	genießen	gütig	vertrauen	sterben	krise	verbissen	gemein	gierig	versagen	0	0	0	0	0	0	0	0	0	0	0	0	0	0	0	0	0	0	0	0	0	0	0	0	0	0	0	0	0	0
2024-05-13	12:09:21	12:19:08	585763	6.6.1	4_exp_EVA_AWA_CON	25	A	B	Rpleas_acq	Same	Rpleas	1pleas	conawa_CS2_US3_confidence	conawa1_nomask	8	2	0	0	300	300	0	0	7986	guess	1	8,3333333333333428072pct	träumen	besonnen	anregung	gesittet	engagiert	kreativ	töten	bange	ausrottung	geizig	engstirnig	krank	sonnig	kuss	vergnügt	genießen	gütig	vertrauen	sterben	krise	verbissen	gemein	gierig	versagen	0	0	0	0	0	0	0	0	0	0	0	0	0	0	0	0	0	0	0	0	0	0	0	0	0	0	0	0	0	0
2024-05-13	12:09:21	12:19:18	596279	6.6.1	4_exp_EVA_AWA_CON	25	A	B	Rpleas_acq	Same	Rpleas	1pleas	conawa_CS1_US2	conawa1_nomask	8	3	0	0	300	300	0	0	9902	bange	1	8,3333333333333428072pct	träumen	besonnen	anregung	gesittet	engagiert	kreativ	töten	bange	ausrottung	geizig	engstirnig	krank	sonnig	kuss	vergnügt	genießen	gütig	vertrauen	sterben	krise	verbissen	gemein	gierig	versagen	0	0	0	0	0	0	0	0	0	0	0	0	0	0	0	0	0	0	0	0	0	0	0	0	0	0	0	0	0	0
2024-05-13	12:09:21	12:19:18	596280	6.6.1	4_exp_EVA_AWA_CON	25	A	B	Rpleas_acq	Same	Rpleas	1pleas	conawa_CS1_US2_confidence	conawa1_nomask	8	3	0	0	300	300	0	0	9902	guess	1	8,3333333333333428072pct	träumen	besonnen	anregung	gesittet	engagiert	kreativ	töten	bange	ausrottung	geizig	engstirnig	krank	sonnig	kuss	vergnügt	genießen	gütig	vertrauen	sterben	krise	verbissen	gemein	gierig	versagen	0	0	0	0	0	0	0	0	0	0	0	0	0	0	0	0	0	0	0	0	0	0	0	0	0	0	0	0	0	0
2024-05-13	12:09:21	12:19:26	603824	6.6.1	4_exp_EVA_AWA_CON	25	A	B	Rpleas_acq	Same	Rpleas	1pleas	conawa_CS2_US2	conawa1_nomask	8	4	0	0	300	300	0	0	6929	vergnügt	1	8,3333333333333428072pct	träumen	besonnen	anregung	gesittet	engagiert	kreativ	töten	bange	ausrottung	geizig	engstirnig	krank	sonnig	kuss	vergnügt	genießen	gütig	vertrauen	sterben	krise	verbissen	gemein	gierig	versagen	0	0	0	0	0	0	0	0	0	0	0	0	0	0	0	0	0	0	0	0	0	0	0	0	0	0	0	0	0	0
2024-05-13	12:09:21	12:19:26	603824	6.6.1	4_exp_EVA_AWA_CON	25	A	B	Rpleas_acq	Same	Rpleas	1pleas	conawa_CS2_US2_confidence	conawa1_nomask	8	4	0	0	300	300	0	0	6929	guess	1	8,3333333333333428072pct	träumen	besonnen	anregung	gesittet	engagiert	kreativ	töten	bange	ausrottung	geizig	engstirnig	krank	sonnig	kuss	vergnügt	genießen	gütig	vertrauen	sterben	krise	verbissen	gemein	gierig	versagen	0	0	0	0	0	0	0	0	0	0	0	0	0	0	0	0	0	0	0	0	0	0	0	0	0	0	0	0	0	0
2024-05-13	12:09:21	12:19:35	612799	6.6.1	4_exp_EVA_AWA_CON	25	A	B	Rpleas_acq	Same	Rpleas	1pleas	conawa_CS1_US3	conawa1_nomask	8	5	0	0	300	300	0	0	8362	ausrottung	1	8,3333333333333428072pct	träumen	besonnen	anregung	gesittet	engagiert	kreativ	töten	bange	ausrottung	geizig	engstirnig	krank	sonnig	kuss	vergnügt	genießen	gütig	vertrauen	sterben	krise	verbissen	gemein	gierig	versagen	0	0	0	0	0	0	0	0	0	0	0	0	0	0	0	0	0	0	0	0	0	0	0	0	0	0	0	0	0	0
2024-05-13	12:09:21	12:19:35	612800	6.6.1	4_exp_EVA_AWA_CON	25	A	B	Rpleas_acq	Same	Rpleas	1pleas	conawa_CS1_US3_confidence	conawa1_nomask	8	5	0	0	300	300	0	0	8362	guess	1	8,3333333333333428072pct	träumen	besonnen	anregung	gesittet	engagiert	kreativ	töten	bange	ausrottung	geizig	engstirnig	krank	sonnig	kuss	vergnügt	genießen	gütig	vertrauen	sterben	krise	verbissen	gemein	gierig	versagen	0	0	0	0	0	0	0	0	0	0	0	0	0	0	0	0	0	0	0	0	0	0	0	0	0	0	0	0	0	0
2024-05-13	12:09:21	12:19:45	622605	6.6.1	4_exp_EVA_AWA_CON	25	A	B	Rpleas_acq	Same	Rpleas	1pleas	conawa_CS1_US5	conawa1_nomask	8	6	0	0	300	300	0	0	9194	engstirnig	1	8,3333333333333428072pct	träumen	besonnen	anregung	gesittet	engagiert	kreativ	töten	bange	ausrottung	geizig	engstirnig	krank	sonnig	kuss	vergnügt	genießen	gütig	vertrauen	sterben	krise	verbissen	gemein	gierig	versagen	0	0	0	0	0	0	0	0	0	0	0	0	0	0	0	0	0	0	0	0	0	0	0	0	0	0	0	0	0	0
2024-05-13	12:09:21	12:19:45	622607	6.6.1	4_exp_EVA_AWA_CON	25	A	B	Rpleas_acq	Same	Rpleas	1pleas	conawa_CS1_US5_confidence	conawa1_nomask	8	6	0	0	300	300	0	0	9194	guess	1	8,3333333333333428072pct	träumen	besonnen	anregung	gesittet	engagiert	kreativ	töten	bange	ausrottung	geizig	engstirnig	krank	sonnig	kuss	vergnügt	genießen	gütig	vertrauen	sterben	krise	verbissen	gemein	gierig	versagen	0	0	0	0	0	0	0	0	0	0	0	0	0	0	0	0	0	0	0	0	0	0	0	0	0	0	0	0	0	0
2024-05-13	12:09:21	12:19:52	629810	6.6.1	4_exp_EVA_AWA_CON	25	A	B	Rpleas_acq	Same	Rpleas	1pleas	conawa_CS2_US1	conawa1_nomask	8	7	0	0	300	300	0	0	6587	träumen	1	8,3333333333333428072pct	träumen	besonnen	anregung	gesittet	engagiert	kreativ	töten	bange	ausrottung	geizig	engstirnig	krank	sonnig	kuss	vergnügt	genießen	gütig	vertrauen	sterben	krise	verbissen	gemein	gierig	versagen	0	0	0	0	0	0	0	0	0	0	0	0	0	0	0	0	0	0	0	0	0	0	0	0	0	0	0	0	0	0
2024-05-13	12:09:21	12:19:52	629811	6.6.1	4_exp_EVA_AWA_CON	25	A	B	Rpleas_acq	Same	Rpleas	1pleas	conawa_CS2_US1_confidence	conawa1_nomask	8	7	0	0	300	300	0	0	6587	guess	1	8,3333333333333428072pct	träumen	besonnen	anregung	gesittet	engagiert	kreativ	töten	bange	ausrottung	geizig	engstirnig	krank	sonnig	kuss	vergnügt	genießen	gütig	vertrauen	sterben	krise	verbissen	gemein	gierig	versagen	0	0	0	0	0	0	0	0	0	0	0	0	0	0	0	0	0	0	0	0	0	0	0	0	0	0	0	0	0	0
2024-05-13	12:09:21	12:20:00	637355	6.6.1	4_exp_EVA_AWA_CON	25	A	B	Rpleas_acq	Same	Rpleas	1pleas	conawa_CS1_US4	conawa1_nomask	8	8	0	0	300	300	0	0	6927	gemein	1	8,3333333333333428072pct	träumen	besonnen	anregung	gesittet	engagiert	kreativ	töten	bange	ausrottung	geizig	engstirnig	krank	sonnig	kuss	vergnügt	genießen	gütig	vertrauen	sterben	krise	verbissen	gemein	gierig	versagen	0	0	0	0	0	0	0	0	0	0	0	0	0	0	0	0	0	0	0	0	0	0	0	0	0	0	0	0	0	0
2024-05-13	12:09:21	12:20:00	637356	6.6.1	4_exp_EVA_AWA_CON	25	A	B	Rpleas_acq	Same	Rpleas	1pleas	conawa_CS1_US4_confidence	conawa1_nomask	8	8	0	0	300	300	0	0	6927	guess	1	8,3333333333333428072pct	träumen	besonnen	anregung	gesittet	engagiert	kreativ	töten	bange	ausrottung	geizig	engstirnig	krank	sonnig	kuss	vergnügt	genießen	gütig	vertrauen	sterben	krise	verbissen	gemein	gierig	versagen	0	0	0	0	0	0	0	0	0	0	0	0	0	0	0	0	0	0	0	0	0	0	0	0	0	0	0	0	0	0
2024-05-13	12:09:21	12:20:07	644469	6.6.1	4_exp_EVA_AWA_CON	25	A	B	Rpleas_acq	Same	Rpleas	1pleas	conawa_CS2_US4	conawa1_nomask	8	9	0	0	300	300	0	0	6495	gesittet	1	8,3333333333333428072pct	träumen	besonnen	anregung	gesittet	engagiert	kreativ	töten	bange	ausrottung	geizig	engstirnig	krank	sonnig	kuss	vergnügt	genießen	gütig	vertrauen	sterben	krise	verbissen	gemein	gierig	versagen	0	0	0	0	0	0	0	0	0	0	0	0	0	0	0	0	0	0	0	0	0	0	0	0	0	0	0	0	0	0
2024-05-13	12:09:21	12:20:07	644471	6.6.1	4_exp_EVA_AWA_CON	25	A	B	Rpleas_acq	Same	Rpleas	1pleas	conawa_CS2_US4_confidence	conawa1_nomask	8	9	0	0	300	300	0	0	6495	guess	1	8,3333333333333428072pct	träumen	besonnen	anregung	gesittet	engagiert	kreativ	töten	bange	ausrottung	geizig	engstirnig	krank	sonnig	kuss	vergnügt	genießen	gütig	vertrauen	sterben	krise	verbissen	gemein	gierig	versagen	0	0	0	0	0	0	0	0	0	0	0	0	0	0	0	0	0	0	0	0	0	0	0	0	0	0	0	0	0	0
2024-05-13	12:09:21	12:20:12	650323	6.6.1	4_exp_EVA_AWA_CON	25	A	B	Rpleas_acq	Same	Rpleas	1pleas	conawa_CS1_US1	conawa1_nomask	8	10	0	0	300	300	0	0	5236	sterben	1	8,3333333333333428072pct	träumen	besonnen	anregung	gesittet	engagiert	kreativ	töten	bange	ausrottung	geizig	engstirnig	krank	sonnig	kuss	vergnügt	genießen	gütig	vertrauen	sterben	krise	verbissen	gemein	gierig	versagen	0	0	0	0	0	0	0	0	0	0	0	0	0	0	0	0	0	0	0	0	0	0	0	0	0	0	0	0	0	0
2024-05-13	12:09:21	12:20:12	650324	6.6.1	4_exp_EVA_AWA_CON	25	A	B	Rpleas_acq	Same	Rpleas	1pleas	conawa_CS1_US1_confidence	conawa1_nomask	8	10	0	0	300	300	0	0	5236	guess	1	8,3333333333333428072pct	träumen	besonnen	anregung	gesittet	engagiert	kreativ	töten	bange	ausrottung	geizig	engstirnig	krank	sonnig	kuss	vergnügt	genießen	gütig	vertrauen	sterben	krise	verbissen	gemein	gierig	versagen	0	0	0	0	0	0	0	0	0	0	0	0	0	0	0	0	0	0	0	0	0	0	0	0	0	0	0	0	0	0
2024-05-13	12:09:21	12:20:19	657148	6.6.1	4_exp_EVA_AWA_CON	25	A	B	Rpleas_acq	Same	Rpleas	1pleas	conawa_CS2_US5	conawa1_nomask	8	11	0	0	300	300	0	0	6208	vertrauen	1	8,3333333333333428072pct	träumen	besonnen	anregung	gesittet	engagiert	kreativ	töten	bange	ausrottung	geizig	engstirnig	krank	sonnig	kuss	vergnügt	genießen	gütig	vertrauen	sterben	krise	verbissen	gemein	gierig	versagen	0	0	0	0	0	0	0	0	0	0	0	0	0	0	0	0	0	0	0	0	0	0	0	0	0	0	0	0	0	0
2024-05-13	12:09:21	12:20:19	657149	6.6.1	4_exp_EVA_AWA_CON	25	A	B	Rpleas_acq	Same	Rpleas	1pleas	conawa_CS2_US5_confidence	conawa1_nomask	8	11	0	0	300	300	0	0	6208	guess	1	8,3333333333333428072pct	träumen	besonnen	anregung	gesittet	engagiert	kreativ	töten	bange	ausrottung	geizig	engstirnig	krank	sonnig	kuss	vergnügt	genießen	gütig	vertrauen	sterben	krise	verbissen	gemein	gierig	versagen	0	0	0	0	0	0	0	0	0	0	0	0	0	0	0	0	0	0	0	0	0	0	0	0	0	0	0	0	0	0
2024-05-13	12:09:21	12:20:25	662981	6.6.1	4_exp_EVA_AWA_CON	25	A	B	Rpleas_acq	Same	Rpleas	1pleas	conawa_CS1_US6	conawa1_nomask	8	12	0	0	300	300	0	0	5213	kreativ	1	8,3333333333333428072pct	träumen	besonnen	anregung	gesittet	engagiert	kreativ	töten	bange	ausrottung	geizig	engstirnig	krank	sonnig	kuss	vergnügt	genießen	gütig	vertrauen	sterben	krise	verbissen	gemein	gierig	versagen	0	0	0	0	0	0	0	0	0	0	0	0	0	0	0	0	0	0	0	0	0	0	0	0	0	0	0	0	0	0
2024-05-13	12:09:21	12:20:25	662982	6.6.1	4_exp_EVA_AWA_CON	25	A	B	Rpleas_acq	Same	Rpleas	1pleas	conawa_CS1_US6_confidence	conawa1_nomask	8	12	0	0	300	300	0	0	5213	guess	1	8,3333333333333428072pct	träumen	besonnen	anregung	gesittet	engagiert	kreativ	töten	bange	ausrottung	geizig	engstirnig	krank	sonnig	kuss	vergnügt	genießen	gütig	vertrauen	sterben	krise	verbissen	gemein	gierig	versagen	0	0	0	0	0	0	0	0	0	0	0	0	0	0	0	0	0	0	0	0	0	0	0	0	0	0	0	0	0	0
2024-05-13	12:09:21	12:21:07	705238	6.6.1	4_exp_EVA_AWA_CON	25	A	B	Rpleas_acq	Same	Rpleas	1pleas	cond_US_pleas_123_nomask_CS1	condtest_nomask_1	11	1	400	1	300	300	0	0	387	50	1	8,3333333333333428072pct	träumen	besonnen	anregung	gesittet	engagiert	kreativ	töten	bange	ausrottung	geizig	engstirnig	krank	sonnig	kuss	vergnügt	genießen	gütig	vertrauen	sterben	krise	verbissen	gemein	gierig	versagen	1	blank2r.bmp	0	1	+	0	1	blank2r.bmp	500	1	CPLW	500	1	blank2r.bmp	880	2	besonnen	880	1	!	1232	1	!	1288	0	0	0	0	0	0
