date	time	currenttime	elapsedtime	build	currentexpt	subject	CS_AB	US_AB	LRpleas_acq	SameOppo	condition_Lpleas	condition_1pleas	trialcode	blockcode	blocknum	trialnum	windowcenter	inwindow	pretrialpause	posttrialpause	trialduration	trialtimeout	latency	response	correct	correctedscore	US_nomask_pleas1	US_nomask_pleas2	US_nomask_pleas3	US_nomask_pleas4	US_nomask_pleas5	US_nomask_pleas6	US_nomask_unple1	US_nomask_unple2	US_nomask_unple3	US_nomask_unple4	US_nomask_unple5	US_nomask_unple6	new_nomask_pleas1	new_nomask_pleas2	new_nomask_pleas3	new_nomask_pleas4	new_nomask_pleas5	new_nomask_pleas6	new_nomask_unple1	new_nomask_unple2	new_nomask_unple3	new_nomask_unple4	new_nomask_unple5	new_nomask_unple6	stimulusnumber1	stimulusitem1	stimulusonset1	stimulusnumber2	stimulusitem2	stimulusonset2	stimulusnumber3	stimulusitem3	stimulusonset3	stimulusnumber4	stimulusitem4	stimulusonset4	stimulusnumber5	stimulusitem5	stimulusonset5	stimulusnumber6	stimulusitem6	stimulusonset6	stimulusnumber7	stimulusitem7	stimulusonset7	stimulusnumber8	stimulusitem8	stimulusonset8	stimulusnumber9	stimulusitem9	stimulusonset9	stimulusnumber10	stimulusitem10	stimulusonset10
2024-05-27	12:46:53	12:52:17	322935	6.6.1	4_exp_EVA_AWA_CON	51	B	A	Rpleas_acq	Same	Rpleas	2pleas	acq_US_pleas_nomask	acq1_nomask	1	1	0	0	300	300	0	0	2381	46	0	0	treu	schlau	retten	tolerant	spielen	fair	tot	schroff	rächen	tyrannisch	strafen	faul	freundlich	ehrlich	loyal	lachen	helfen	schön	fanatisch	eitel	lasch	leiden	hindern	schlecht	1	blank2r.bmp	0	1	+	0	1	blank2r.bmp	500	1	GKQX	500	1	blank2r.bmp	880	1	treu	880	1	FEHLER	3282	0	0	0	0	0	0	0	0	0
2024-05-27	12:46:53	12:52:19	325253	6.6.1	4_exp_EVA_AWA_CON	51	B	A	Rpleas_acq	Same	Rpleas	2pleas	acq_new_pleas_nomask	acq1_nomask	1	2	0	0	300	300	0	0	1038	50	1	0	treu	schlau	retten	tolerant	spielen	fair	tot	schroff	rächen	tyrannisch	strafen	faul	freundlich	ehrlich	loyal	lachen	helfen	schön	fanatisch	eitel	lasch	leiden	hindern	schlecht	1	blank2r.bmp	0	1	+	0	1	blank2r.bmp	500	2	B2r.bmp	500	1	blank2r.bmp	880	6	schön	880	0	0	0	0	0	0	0	0	0	0	0	0
2024-05-27	12:46:53	12:52:22	327998	6.6.1	4_exp_EVA_AWA_CON	51	B	A	Rpleas_acq	Same	Rpleas	2pleas	acq_US_pleas_nomask	acq1_nomask	1	3	0	0	300	300	0	0	1260	50	1	0	treu	schlau	retten	tolerant	spielen	fair	tot	schroff	rächen	tyrannisch	strafen	faul	freundlich	ehrlich	loyal	lachen	helfen	schön	fanatisch	eitel	lasch	leiden	hindern	schlecht	1	blank2r.bmp	0	1	+	0	1	blank2r.bmp	500	1	GKQX	500	1	blank2r.bmp	880	3	retten	880	0	0	0	0	0	0	0	0	0	0	0	0
2024-05-27	12:46:53	12:52:24	330685	6.6.1	4_exp_EVA_AWA_CON	51	B	A	Rpleas_acq	Same	Rpleas	2pleas	acq_new_pleas_nomask	acq1_nomask	1	4	0	0	300	300	0	0	1206	50	1	0	treu	schlau	retten	tolerant	spielen	fair	tot	schroff	rächen	tyrannisch	strafen	faul	freundlich	ehrlich	loyal	lachen	helfen	schön	fanatisch	eitel	lasch	leiden	hindern	schlecht	1	blank2r.bmp	0	1	+	0	1	blank2r.bmp	500	1	B1r.bmp	500	1	blank2r.bmp	880	3	loyal	880	0	0	0	0	0	0	0	0	0	0	0	0
2024-05-27	12:46:53	12:52:27	332965	6.6.1	4_exp_EVA_AWA_CON	51	B	A	Rpleas_acq	Same	Rpleas	2pleas	acq_US_unple_nomask	acq1_nomask	1	5	0	0	300	300	0	0	795	46	1	0	treu	schlau	retten	tolerant	spielen	fair	tot	schroff	rächen	tyrannisch	strafen	faul	freundlich	ehrlich	loyal	lachen	helfen	schön	fanatisch	eitel	lasch	leiden	hindern	schlecht	1	blank2r.bmp	0	1	+	0	1	blank2r.bmp	500	1	BMVZ	500	1	blank2r.bmp	880	3	rächen	880	0	0	0	0	0	0	0	0	0	0	0	0
2024-05-27	12:46:53	12:52:29	335541	6.6.1	4_exp_EVA_AWA_CON	51	B	A	Rpleas_acq	Same	Rpleas	2pleas	acq_new_unple_nomask	acq1_nomask	1	6	0	0	300	300	0	0	1089	46	1	0	treu	schlau	retten	tolerant	spielen	fair	tot	schroff	rächen	tyrannisch	strafen	faul	freundlich	ehrlich	loyal	lachen	helfen	schön	fanatisch	eitel	lasch	leiden	hindern	schlecht	1	blank2r.bmp	0	1	+	0	1	blank2r.bmp	500	5	C1r.bmp	500	1	blank2r.bmp	880	5	hindern	880	0	0	0	0	0	0	0	0	0	0	0	0
2024-05-27	12:46:53	12:52:31	337717	6.6.1	4_exp_EVA_AWA_CON	51	B	A	Rpleas_acq	Same	Rpleas	2pleas	acq_US_pleas_nomask	acq1_nomask	1	7	0	0	300	300	0	0	694	50	1	0	treu	schlau	retten	tolerant	spielen	fair	tot	schroff	rächen	tyrannisch	strafen	faul	freundlich	ehrlich	loyal	lachen	helfen	schön	fanatisch	eitel	lasch	leiden	hindern	schlecht	1	blank2r.bmp	0	1	+	0	1	blank2r.bmp	500	1	GKQX	500	1	blank2r.bmp	880	2	schlau	880	0	0	0	0	0	0	0	0	0	0	0	0
2024-05-27	12:46:53	12:52:34	340141	6.6.1	4_exp_EVA_AWA_CON	51	B	A	Rpleas_acq	Same	Rpleas	2pleas	acq_new_unple_nomask	acq1_nomask	1	8	0	0	300	300	0	0	936	46	1	0	treu	schlau	retten	tolerant	spielen	fair	tot	schroff	rächen	tyrannisch	strafen	faul	freundlich	ehrlich	loyal	lachen	helfen	schön	fanatisch	eitel	lasch	leiden	hindern	schlecht	1	blank2r.bmp	0	1	+	0	1	blank2r.bmp	500	8	C4r.bmp	500	1	blank2r.bmp	880	6	schlecht	880	0	0	0	0	0	0	0	0	0	0	0	0
2024-05-27	12:46:53	12:52:37	343261	6.6.1	4_exp_EVA_AWA_CON	51	B	A	Rpleas_acq	Same	Rpleas	2pleas	acq_US_unple_nomask	acq1_nomask	1	9	0	0	300	300	0	0	1635	46	1	0	treu	schlau	retten	tolerant	spielen	fair	tot	schroff	rächen	tyrannisch	strafen	faul	freundlich	ehrlich	loyal	lachen	helfen	schön	fanatisch	eitel	lasch	leiden	hindern	schlecht	1	blank2r.bmp	0	1	+	0	1	blank2r.bmp	509	1	BMVZ	509	1	blank2r.bmp	880	4	tyrannisch	880	0	0	0	0	0	0	0	0	0	0	0	0
2024-05-27	12:46:53	12:52:40	345757	6.6.1	4_exp_EVA_AWA_CON	51	B	A	Rpleas_acq	Same	Rpleas	2pleas	acq_new_unple_nomask	acq1_nomask	1	10	0	0	300	300	0	0	1009	46	1	0	treu	schlau	retten	tolerant	spielen	fair	tot	schroff	rächen	tyrannisch	strafen	faul	freundlich	ehrlich	loyal	lachen	helfen	schön	fanatisch	eitel	lasch	leiden	hindern	schlecht	1	blank2r.bmp	0	1	+	0	1	blank2r.bmp	500	3	B3r.bmp	500	1	blank2r.bmp	880	4	leiden	880	0	0	0	0	0	0	0	0	0	0	0	0
2024-05-27	12:46:53	12:52:42	347813	6.6.1	4_exp_EVA_AWA_CON	51	B	A	Rpleas_acq	Same	Rpleas	2pleas	acq_US_unple_nomask	acq1_nomask	1	11	0	0	300	300	0	0	573	46	1	0	treu	schlau	retten	tolerant	spielen	fair	tot	schroff	rächen	tyrannisch	strafen	faul	freundlich	ehrlich	loyal	lachen	helfen	schön	fanatisch	eitel	lasch	leiden	hindern	schlecht	1	blank2r.bmp	0	1	+	0	1	blank2r.bmp	500	1	BMVZ	500	1	blank2r.bmp	880	1	tot	880	0	0	0	0	0	0	0	0	0	0	0	0
2024-05-27	12:46:53	12:52:44	349845	6.6.1	4_exp_EVA_AWA_CON	51	B	A	Rpleas_acq	Same	Rpleas	2pleas	acq_new_pleas_nomask	acq1_nomask	1	12	0	0	300	300	0	0	544	50	1	0	treu	schlau	retten	tolerant	spielen	fair	tot	schroff	rächen	tyrannisch	strafen	faul	freundlich	ehrlich	loyal	lachen	helfen	schön	fanatisch	eitel	lasch	leiden	hindern	schlecht	1	blank2r.bmp	0	1	+	0	1	blank2r.bmp	500	4	B4r.bmp	500	1	blank2r.bmp	880	4	lachen	880	0	0	0	0	0	0	0	0	0	0	0	0
2024-05-27	12:46:53	12:52:46	351894	6.6.1	4_exp_EVA_AWA_CON	51	B	A	Rpleas_acq	Same	Rpleas	2pleas	acq_new_pleas_nomask	acq1_nomask	1	13	0	0	300	300	0	0	560	50	1	0	treu	schlau	retten	tolerant	spielen	fair	tot	schroff	rächen	tyrannisch	strafen	faul	freundlich	ehrlich	loyal	lachen	helfen	schön	fanatisch	eitel	lasch	leiden	hindern	schlecht	1	blank2r.bmp	0	1	+	0	1	blank2r.bmp	500	7	C3r.bmp	500	1	blank2r.bmp	880	2	ehrlich	880	0	0	0	0	0	0	0	0	0	0	0	0
2024-05-27	12:46:53	12:52:48	354157	6.6.1	4_exp_EVA_AWA_CON	51	B	A	Rpleas_acq	Same	Rpleas	2pleas	acq_new_unple_nomask	acq1_nomask	1	14	0	0	300	300	0	0	783	46	1	0	treu	schlau	retten	tolerant	spielen	fair	tot	schroff	rächen	tyrannisch	strafen	faul	freundlich	ehrlich	loyal	lachen	helfen	schön	fanatisch	eitel	lasch	leiden	hindern	schlecht	1	blank2r.bmp	0	1	+	0	1	blank2r.bmp	500	6	C2r.bmp	500	1	blank2r.bmp	880	2	eitel	880	0	0	0	0	0	0	0	0	0	0	0	0
2024-05-27	12:46:53	12:52:51	357109	6.6.1	4_exp_EVA_AWA_CON	51	B	A	Rpleas_acq	Same	Rpleas	2pleas	acq_US_unple_nomask	acq1_nomask	1	15	0	0	300	300	0	0	1464	46	1	0	treu	schlau	retten	tolerant	spielen	fair	tot	schroff	rächen	tyrannisch	strafen	faul	freundlich	ehrlich	loyal	lachen	helfen	schön	fanatisch	eitel	lasch	leiden	hindern	schlecht	1	blank2r.bmp	0	1	+	0	1	blank2r.bmp	500	1	BMVZ	500	1	blank2r.bmp	880	6	faul	880	0	0	0	0	0	0	0	0	0	0	0	0
2024-05-27	12:46:53	12:52:53	359325	6.6.1	4_exp_EVA_AWA_CON	51	B	A	Rpleas_acq	Same	Rpleas	2pleas	acq_new_pleas_nomask	acq1_nomask	1	16	0	0	300	300	0	0	728	50	1	0	treu	schlau	retten	tolerant	spielen	fair	tot	schroff	rächen	tyrannisch	strafen	faul	freundlich	ehrlich	loyal	lachen	helfen	schön	fanatisch	eitel	lasch	leiden	hindern	schlecht	1	blank2r.bmp	0	1	+	0	1	blank2r.bmp	500	8	C4r.bmp	500	1	blank2r.bmp	880	5	helfen	880	0	0	0	0	0	0	0	0	0	0	0	0
2024-05-27	12:46:53	12:52:57	362733	6.6.1	4_exp_EVA_AWA_CON	51	B	A	Rpleas_acq	Same	Rpleas	2pleas	acq_new_unple_nomask	acq1_nomask	1	17	0	0	300	300	0	0	1924	46	1	0	treu	schlau	retten	tolerant	spielen	fair	tot	schroff	rächen	tyrannisch	strafen	faul	freundlich	ehrlich	loyal	lachen	helfen	schön	fanatisch	eitel	lasch	leiden	hindern	schlecht	1	blank2r.bmp	0	1	+	0	1	blank2r.bmp	500	7	C3r.bmp	500	1	blank2r.bmp	880	1	fanatisch	880	0	0	0	0	0	0	0	0	0	0	0	0
2024-05-27	12:46:53	12:52:59	364982	6.6.1	4_exp_EVA_AWA_CON	51	B	A	Rpleas_acq	Same	Rpleas	2pleas	acq_US_unple_nomask	acq1_nomask	1	18	0	0	300	300	0	0	760	46	1	0	treu	schlau	retten	tolerant	spielen	fair	tot	schroff	rächen	tyrannisch	strafen	faul	freundlich	ehrlich	loyal	lachen	helfen	schön	fanatisch	eitel	lasch	leiden	hindern	schlecht	1	blank2r.bmp	0	1	+	0	1	blank2r.bmp	500	1	BMVZ	500	1	blank2r.bmp	880	5	strafen	880	0	0	0	0	0	0	0	0	0	0	0	0
2024-05-27	12:46:53	12:53:01	367054	6.6.1	4_exp_EVA_AWA_CON	51	B	A	Rpleas_acq	Same	Rpleas	2pleas	acq_US_pleas_nomask	acq1_nomask	1	19	0	0	300	300	0	0	590	50	1	0	treu	schlau	retten	tolerant	spielen	fair	tot	schroff	rächen	tyrannisch	strafen	faul	freundlich	ehrlich	loyal	lachen	helfen	schön	fanatisch	eitel	lasch	leiden	hindern	schlecht	1	blank2r.bmp	0	1	+	0	1	blank2r.bmp	500	1	GKQX	500	1	blank2r.bmp	880	6	fair	880	0	0	0	0	0	0	0	0	0	0	0	0
2024-05-27	12:46:53	12:53:03	369373	6.6.1	4_exp_EVA_AWA_CON	51	B	A	Rpleas_acq	Same	Rpleas	2pleas	acq_new_unple_nomask	acq1_nomask	1	20	0	0	300	300	0	0	839	46	1	0	treu	schlau	retten	tolerant	spielen	fair	tot	schroff	rächen	tyrannisch	strafen	faul	freundlich	ehrlich	loyal	lachen	helfen	schön	fanatisch	eitel	lasch	leiden	hindern	schlecht	1	blank2r.bmp	0	1	+	0	1	blank2r.bmp	500	3	B3r.bmp	500	1	blank2r.bmp	880	3	lasch	880	0	0	0	0	0	0	0	0	0	0	0	0
2024-05-27	12:46:53	12:53:05	371573	6.6.1	4_exp_EVA_AWA_CON	51	B	A	Rpleas_acq	Same	Rpleas	2pleas	acq_new_pleas_nomask	acq1_nomask	1	21	0	0	300	300	0	0	718	50	1	0	treu	schlau	retten	tolerant	spielen	fair	tot	schroff	rächen	tyrannisch	strafen	faul	freundlich	ehrlich	loyal	lachen	helfen	schön	fanatisch	eitel	lasch	leiden	hindern	schlecht	1	blank2r.bmp	0	1	+	0	1	blank2r.bmp	500	1	B1r.bmp	500	1	blank2r.bmp	880	1	freundlich	880	0	0	0	0	0	0	0	0	0	0	0	0
2024-05-27	12:46:53	12:53:08	374229	6.6.1	4_exp_EVA_AWA_CON	51	B	A	Rpleas_acq	Same	Rpleas	2pleas	acq_US_pleas_nomask	acq1_nomask	1	22	0	0	300	300	0	0	1172	50	1	0	treu	schlau	retten	tolerant	spielen	fair	tot	schroff	rächen	tyrannisch	strafen	faul	freundlich	ehrlich	loyal	lachen	helfen	schön	fanatisch	eitel	lasch	leiden	hindern	schlecht	1	blank2r.bmp	0	1	+	0	1	blank2r.bmp	500	1	GKQX	500	1	blank2r.bmp	880	4	tolerant	880	0	0	0	0	0	0	0	0	0	0	0	0
2024-05-27	12:46:53	12:53:10	376261	6.6.1	4_exp_EVA_AWA_CON	51	B	A	Rpleas_acq	Same	Rpleas	2pleas	acq_US_unple_nomask	acq1_nomask	1	23	0	0	300	300	0	0	552	46	1	0	treu	schlau	retten	tolerant	spielen	fair	tot	schroff	rächen	tyrannisch	strafen	faul	freundlich	ehrlich	loyal	lachen	helfen	schön	fanatisch	eitel	lasch	leiden	hindern	schlecht	1	blank2r.bmp	0	1	+	0	1	blank2r.bmp	500	1	BMVZ	500	1	blank2r.bmp	880	2	schroff	880	0	0	0	0	0	0	0	0	0	0	0	0
2024-05-27	12:46:53	12:53:12	378501	6.6.1	4_exp_EVA_AWA_CON	51	B	A	Rpleas_acq	Same	Rpleas	2pleas	acq_US_pleas_nomask	acq1_nomask	1	24	0	0	300	300	0	0	751	50	1	0	treu	schlau	retten	tolerant	spielen	fair	tot	schroff	rächen	tyrannisch	strafen	faul	freundlich	ehrlich	loyal	lachen	helfen	schön	fanatisch	eitel	lasch	leiden	hindern	schlecht	1	blank2r.bmp	0	1	+	0	1	blank2r.bmp	500	1	GKQX	500	1	blank2r.bmp	880	5	spielen	880	0	0	0	0	0	0	0	0	0	0	0	0
2024-05-27	12:46:53	12:53:15	380925	6.6.1	4_exp_EVA_AWA_CON	51	B	A	Rpleas_acq	Same	Rpleas	2pleas	acq_new_pleas_nomask	acq1_nomask	1	25	0	0	300	300	0	0	944	50	1	0	treu	schlau	retten	tolerant	spielen	fair	tot	schroff	rächen	tyrannisch	strafen	faul	freundlich	ehrlich	loyal	lachen	helfen	schön	fanatisch	eitel	lasch	leiden	hindern	schlecht	1	blank2r.bmp	0	1	+	0	1	blank2r.bmp	500	2	B2r.bmp	500	1	blank2r.bmp	880	2	ehrlich	880	0	0	0	0	0	0	0	0	0	0	0	0
2024-05-27	12:46:53	12:53:18	384326	6.6.1	4_exp_EVA_AWA_CON	51	B	A	Rpleas_acq	Same	Rpleas	2pleas	acq_new_pleas_nomask	acq1_nomask	1	26	0	0	300	300	0	0	1912	50	1	0	treu	schlau	retten	tolerant	spielen	fair	tot	schroff	rächen	tyrannisch	strafen	faul	freundlich	ehrlich	loyal	lachen	helfen	schön	fanatisch	eitel	lasch	leiden	hindern	schlecht	1	blank2r.bmp	0	1	+	0	1	blank2r.bmp	500	4	B4r.bmp	500	1	blank2r.bmp	880	5	helfen	880	0	0	0	0	0	0	0	0	0	0	0	0
2024-05-27	12:46:53	12:53:20	386557	6.6.1	4_exp_EVA_AWA_CON	51	B	A	Rpleas_acq	Same	Rpleas	2pleas	acq_new_unple_nomask	acq1_nomask	1	27	0	0	300	300	0	0	752	46	1	0	treu	schlau	retten	tolerant	spielen	fair	tot	schroff	rächen	tyrannisch	strafen	faul	freundlich	ehrlich	loyal	lachen	helfen	schön	fanatisch	eitel	lasch	leiden	hindern	schlecht	1	blank2r.bmp	0	1	+	0	1	blank2r.bmp	500	5	C1r.bmp	500	1	blank2r.bmp	880	4	leiden	880	0	0	0	0	0	0	0	0	0	0	0	0
2024-05-27	12:46:53	12:53:23	389198	6.6.1	4_exp_EVA_AWA_CON	51	B	A	Rpleas_acq	Same	Rpleas	2pleas	acq_US_unple_nomask	acq1_nomask	1	28	0	0	300	300	0	0	1160	46	1	0	treu	schlau	retten	tolerant	spielen	fair	tot	schroff	rächen	tyrannisch	strafen	faul	freundlich	ehrlich	loyal	lachen	helfen	schön	fanatisch	eitel	lasch	leiden	hindern	schlecht	1	blank2r.bmp	0	1	+	0	1	blank2r.bmp	500	1	BMVZ	500	1	blank2r.bmp	880	5	strafen	880	0	0	0	0	0	0	0	0	0	0	0	0
2024-05-27	12:46:53	12:53:25	391213	6.6.1	4_exp_EVA_AWA_CON	51	B	A	Rpleas_acq	Same	Rpleas	2pleas	acq_new_pleas_nomask	acq1_nomask	1	29	0	0	300	300	0	0	535	50	1	0	treu	schlau	retten	tolerant	spielen	fair	tot	schroff	rächen	tyrannisch	strafen	faul	freundlich	ehrlich	loyal	lachen	helfen	schön	fanatisch	eitel	lasch	leiden	hindern	schlecht	1	blank2r.bmp	0	1	+	0	1	blank2r.bmp	500	6	C2r.bmp	500	1	blank2r.bmp	880	1	freundlich	880	0	0	0	0	0	0	0	0	0	0	0	0
2024-05-27	12:46:53	12:53:27	393302	6.6.1	4_exp_EVA_AWA_CON	51	B	A	Rpleas_acq	Same	Rpleas	2pleas	acq_US_pleas_nomask	acq1_nomask	1	30	0	0	300	300	0	0	601	50	1	0	treu	schlau	retten	tolerant	spielen	fair	tot	schroff	rächen	tyrannisch	strafen	faul	freundlich	ehrlich	loyal	lachen	helfen	schön	fanatisch	eitel	lasch	leiden	hindern	schlecht	1	blank2r.bmp	0	1	+	0	1	blank2r.bmp	500	1	GKQX	500	1	blank2r.bmp	880	3	retten	880	0	0	0	0	0	0	0	0	0	0	0	0
2024-05-27	12:46:53	12:53:29	395445	6.6.1	4_exp_EVA_AWA_CON	51	B	A	Rpleas_acq	Same	Rpleas	2pleas	acq_new_unple_nomask	acq1_nomask	1	31	0	0	300	300	0	0	664	46	1	0	treu	schlau	retten	tolerant	spielen	fair	tot	schroff	rächen	tyrannisch	strafen	faul	freundlich	ehrlich	loyal	lachen	helfen	schön	fanatisch	eitel	lasch	leiden	hindern	schlecht	1	blank2r.bmp	0	1	+	0	1	blank2r.bmp	500	5	C1r.bmp	500	1	blank2r.bmp	880	2	eitel	880	0	0	0	0	0	0	0	0	0	0	0	0
2024-05-27	12:46:53	12:53:31	397485	6.6.1	4_exp_EVA_AWA_CON	51	B	A	Rpleas_acq	Same	Rpleas	2pleas	acq_US_unple_nomask	acq1_nomask	1	32	0	0	300	300	0	0	553	46	1	0	treu	schlau	retten	tolerant	spielen	fair	tot	schroff	rächen	tyrannisch	strafen	faul	freundlich	ehrlich	loyal	lachen	helfen	schön	fanatisch	eitel	lasch	leiden	hindern	schlecht	1	blank2r.bmp	0	1	+	0	1	blank2r.bmp	500	1	BMVZ	500	1	blank2r.bmp	880	2	schroff	880	0	0	0	0	0	0	0	0	0	0	0	0
2024-05-27	12:46:53	12:53:34	400077	6.6.1	4_exp_EVA_AWA_CON	51	B	A	Rpleas_acq	Same	Rpleas	2pleas	acq_US_pleas_nomask	acq1_nomask	1	33	0	0	300	300	0	0	1103	50	1	0	treu	schlau	retten	tolerant	spielen	fair	tot	schroff	rächen	tyrannisch	strafen	faul	freundlich	ehrlich	loyal	lachen	helfen	schön	fanatisch	eitel	lasch	leiden	hindern	schlecht	1	blank2r.bmp	0	1	+	0	1	blank2r.bmp	500	1	GKQX	500	1	blank2r.bmp	880	4	tolerant	880	0	0	0	0	0	0	0	0	0	0	0	0
2024-05-27	12:46:53	12:53:36	402293	6.6.1	4_exp_EVA_AWA_CON	51	B	A	Rpleas_acq	Same	Rpleas	2pleas	acq_new_unple_nomask	acq1_nomask	1	34	0	0	300	300	0	0	727	46	1	0	treu	schlau	retten	tolerant	spielen	fair	tot	schroff	rächen	tyrannisch	strafen	faul	freundlich	ehrlich	loyal	lachen	helfen	schön	fanatisch	eitel	lasch	leiden	hindern	schlecht	1	blank2r.bmp	0	1	+	0	1	blank2r.bmp	500	7	C3r.bmp	500	1	blank2r.bmp	880	6	schlecht	880	0	0	0	0	0	0	0	0	0	0	0	0
2024-05-27	12:46:53	12:53:38	404389	6.6.1	4_exp_EVA_AWA_CON	51	B	A	Rpleas_acq	Same	Rpleas	2pleas	acq_US_pleas_nomask	acq1_nomask	1	35	0	0	300	300	0	0	612	50	1	0	treu	schlau	retten	tolerant	spielen	fair	tot	schroff	rächen	tyrannisch	strafen	faul	freundlich	ehrlich	loyal	lachen	helfen	schön	fanatisch	eitel	lasch	leiden	hindern	schlecht	1	blank2r.bmp	0	1	+	0	1	blank2r.bmp	500	1	GKQX	500	1	blank2r.bmp	880	5	spielen	880	0	0	0	0	0	0	0	0	0	0	0	0
2024-05-27	12:46:53	12:53:41	406733	6.6.1	4_exp_EVA_AWA_CON	51	B	A	Rpleas_acq	Same	Rpleas	2pleas	acq_US_unple_nomask	acq1_nomask	1	36	0	0	300	300	0	0	855	46	1	0	treu	schlau	retten	tolerant	spielen	fair	tot	schroff	rächen	tyrannisch	strafen	faul	freundlich	ehrlich	loyal	lachen	helfen	schön	fanatisch	eitel	lasch	leiden	hindern	schlecht	1	blank2r.bmp	0	1	+	0	1	blank2r.bmp	500	1	BMVZ	500	1	blank2r.bmp	880	6	faul	880	0	0	0	0	0	0	0	0	0	0	0	0
2024-05-27	12:46:53	12:54:27	453223	6.6.1	4_exp_EVA_AWA_CON	51	B	A	Rpleas_acq	Same	Rpleas	2pleas	acq_US_pleas_nomask	acq2_nomask	2	1	480	0	300	300	0	0	714	50	1	0	treu	schlau	retten	tolerant	spielen	fair	tot	schroff	rächen	tyrannisch	strafen	faul	freundlich	ehrlich	loyal	lachen	helfen	schön	fanatisch	eitel	lasch	leiden	hindern	schlecht	1	blank2r.bmp	0	1	+	0	1	blank2r.bmp	500	1	GKQX	500	1	blank2r.bmp	880	6	fair	880	1	!	1313	1	!	-1	0	0	0	0	0	0
2024-05-27	12:46:53	12:54:30	455787	6.6.1	4_exp_EVA_AWA_CON	51	B	A	Rpleas_acq	Same	Rpleas	2pleas	acq_new_unple_nomask	acq2_nomask	2	2	480	0	300	300	0	0	583	50	0	0	treu	schlau	retten	tolerant	spielen	fair	tot	schroff	rächen	tyrannisch	strafen	faul	freundlich	ehrlich	loyal	lachen	helfen	schön	fanatisch	eitel	lasch	leiden	hindern	schlecht	1	blank2r.bmp	0	1	+	0	1	blank2r.bmp	500	2	B2r.bmp	500	1	blank2r.bmp	880	1	fanatisch	880	1	FEHLER	1776	1	!	1312	1	!	-1	0	0	0
2024-05-27	12:46:53	12:54:35	461138	6.6.1	4_exp_EVA_AWA_CON	51	B	A	Rpleas_acq	Same	Rpleas	2pleas	acq_US_unple_nomask	acq2_nomask	2	3	480	0	300	300	0	0	3573	50	0	0	treu	schlau	retten	tolerant	spielen	fair	tot	schroff	rächen	tyrannisch	strafen	faul	freundlich	ehrlich	loyal	lachen	helfen	schön	fanatisch	eitel	lasch	leiden	hindern	schlecht	1	blank2r.bmp	0	1	+	0	1	blank2r.bmp	500	1	BMVZ	500	1	blank2r.bmp	880	3	rächen	880	1	FEHLER	4766	1	!	1312	1	!	-1	0	0	0
2024-05-27	12:46:53	12:54:37	463193	6.6.1	4_exp_EVA_AWA_CON	51	B	A	Rpleas_acq	Same	Rpleas	2pleas	acq_US_unple_nomask	acq2_nomask	2	4	480	1	300	300	0	0	476	46	1	0	treu	schlau	retten	tolerant	spielen	fair	tot	schroff	rächen	tyrannisch	strafen	faul	freundlich	ehrlich	loyal	lachen	helfen	schön	fanatisch	eitel	lasch	leiden	hindern	schlecht	1	blank2r.bmp	0	1	+	0	1	blank2r.bmp	500	1	BMVZ	500	1	blank2r.bmp	880	1	tot	880	1	!	1313	1	!	1377	0	0	0	0	0	0
2024-05-27	12:46:53	12:54:39	465571	6.6.1	4_exp_EVA_AWA_CON	51	B	A	Rpleas_acq	Same	Rpleas	2pleas	acq_new_unple_nomask	acq2_nomask	2	5	480	0	300	300	0	0	400	50	0	0	treu	schlau	retten	tolerant	spielen	fair	tot	schroff	rächen	tyrannisch	strafen	faul	freundlich	ehrlich	loyal	lachen	helfen	schön	fanatisch	eitel	lasch	leiden	hindern	schlecht	1	blank2r.bmp	0	1	+	0	1	blank2r.bmp	500	6	C2r.bmp	500	1	blank2r.bmp	880	5	hindern	880	1	FEHLER	1594	1	!	-1	1	!	-1	0	0	0
2024-05-27	12:46:53	12:54:41	467642	6.6.1	4_exp_EVA_AWA_CON	51	B	A	Rpleas_acq	Same	Rpleas	2pleas	acq_new_unple_nomask	acq2_nomask	2	6	480	1	300	300	0	0	491	46	1	0	treu	schlau	retten	tolerant	spielen	fair	tot	schroff	rächen	tyrannisch	strafen	faul	freundlich	ehrlich	loyal	lachen	helfen	schön	fanatisch	eitel	lasch	leiden	hindern	schlecht	1	blank2r.bmp	0	1	+	0	1	blank2r.bmp	500	3	B3r.bmp	500	1	blank2r.bmp	880	3	lasch	880	1	!	1313	1	!	1392	0	0	0	0	0	0
2024-05-27	12:46:53	12:54:44	469735	6.6.1	4_exp_EVA_AWA_CON	51	B	A	Rpleas_acq	Same	Rpleas	2pleas	acq_new_pleas_nomask	acq2_nomask	2	7	480	0	300	300	0	0	315	50	1	0	treu	schlau	retten	tolerant	spielen	fair	tot	schroff	rächen	tyrannisch	strafen	faul	freundlich	ehrlich	loyal	lachen	helfen	schön	fanatisch	eitel	lasch	leiden	hindern	schlecht	1	blank2r.bmp	0	1	+	0	1	blank2r.bmp	500	1	B1r.bmp	500	1	blank2r.bmp	880	4	lachen	880	1	!	-1	1	!	-1	0	0	0	0	0	0
2024-05-27	12:46:53	12:54:46	471954	6.6.1	4_exp_EVA_AWA_CON	51	B	A	Rpleas_acq	Same	Rpleas	2pleas	acq_new_pleas_nomask	acq2_nomask	2	8	480	1	300	300	0	0	440	50	1	0	treu	schlau	retten	tolerant	spielen	fair	tot	schroff	rächen	tyrannisch	strafen	faul	freundlich	ehrlich	loyal	lachen	helfen	schön	fanatisch	eitel	lasch	leiden	hindern	schlecht	1	blank2r.bmp	0	1	+	0	1	blank2r.bmp	500	8	C4r.bmp	500	1	blank2r.bmp	880	6	schön	880	1	!	1313	1	!	1342	0	0	0	0	0	0
2024-05-27	12:46:53	12:54:48	474079	6.6.1	4_exp_EVA_AWA_CON	51	B	A	Rpleas_acq	Same	Rpleas	2pleas	acq_US_pleas_nomask	acq2_nomask	2	9	480	0	300	300	0	0	347	50	1	0	treu	schlau	retten	tolerant	spielen	fair	tot	schroff	rächen	tyrannisch	strafen	faul	freundlich	ehrlich	loyal	lachen	helfen	schön	fanatisch	eitel	lasch	leiden	hindern	schlecht	1	blank2r.bmp	0	1	+	0	1	blank2r.bmp	500	1	GKQX	500	1	blank2r.bmp	880	1	treu	880	1	!	-1	1	!	-1	0	0	0	0	0	0
2024-05-27	12:46:53	12:54:50	476337	6.6.1	4_exp_EVA_AWA_CON	51	B	A	Rpleas_acq	Same	Rpleas	2pleas	acq_US_unple_nomask	acq2_nomask	2	10	480	1	300	300	0	0	481	46	1	0	treu	schlau	retten	tolerant	spielen	fair	tot	schroff	rächen	tyrannisch	strafen	faul	freundlich	ehrlich	loyal	lachen	helfen	schön	fanatisch	eitel	lasch	leiden	hindern	schlecht	1	blank2r.bmp	0	1	+	0	1	blank2r.bmp	500	1	BMVZ	500	1	blank2r.bmp	880	4	tyrannisch	880	1	!	1313	1	!	1383	0	0	0	0	0	0
2024-05-27	12:46:53	12:54:52	478399	6.6.1	4_exp_EVA_AWA_CON	51	B	A	Rpleas_acq	Same	Rpleas	2pleas	acq_new_pleas_nomask	acq2_nomask	2	11	480	0	300	300	0	0	284	50	1	0	treu	schlau	retten	tolerant	spielen	fair	tot	schroff	rächen	tyrannisch	strafen	faul	freundlich	ehrlich	loyal	lachen	helfen	schön	fanatisch	eitel	lasch	leiden	hindern	schlecht	1	blank2r.bmp	0	1	+	0	1	blank2r.bmp	500	4	B4r.bmp	500	1	blank2r.bmp	880	3	loyal	880	1	!	-1	1	!	-1	0	0	0	0	0	0
2024-05-27	12:46:53	12:54:55	480771	6.6.1	4_exp_EVA_AWA_CON	51	B	A	Rpleas_acq	Same	Rpleas	2pleas	acq_US_pleas_nomask	acq2_nomask	2	12	480	0	300	300	0	0	390	46	0	0	treu	schlau	retten	tolerant	spielen	fair	tot	schroff	rächen	tyrannisch	strafen	faul	freundlich	ehrlich	loyal	lachen	helfen	schön	fanatisch	eitel	lasch	leiden	hindern	schlecht	1	blank2r.bmp	0	1	+	0	1	blank2r.bmp	500	1	GKQX	500	1	blank2r.bmp	880	2	schlau	880	1	FEHLER	1584	1	!	-1	1	!	-1	0	0	0
2024-05-27	12:46:53	12:54:56	482711	6.6.1	4_exp_EVA_AWA_CON	51	B	A	Rpleas_acq	Same	Rpleas	2pleas	acq_new_pleas_nomask	acq2_nomask	2	13	480	0	300	300	0	0	363	50	1	0	treu	schlau	retten	tolerant	spielen	fair	tot	schroff	rächen	tyrannisch	strafen	faul	freundlich	ehrlich	loyal	lachen	helfen	schön	fanatisch	eitel	lasch	leiden	hindern	schlecht	1	blank2r.bmp	0	1	+	0	1	blank2r.bmp	500	2	B2r.bmp	500	1	blank2r.bmp	880	5	helfen	880	1	!	-1	1	!	-1	0	0	0	0	0	0
2024-05-27	12:46:53	12:54:59	485017	6.6.1	4_exp_EVA_AWA_CON	51	B	A	Rpleas_acq	Same	Rpleas	2pleas	acq_US_unple_nomask	acq2_nomask	2	14	480	1	300	300	0	0	525	46	1	0	treu	schlau	retten	tolerant	spielen	fair	tot	schroff	rächen	tyrannisch	strafen	faul	freundlich	ehrlich	loyal	lachen	helfen	schön	fanatisch	eitel	lasch	leiden	hindern	schlecht	1	blank2r.bmp	0	1	+	0	1	blank2r.bmp	500	1	BMVZ	500	1	blank2r.bmp	880	6	faul	880	1	!	1312	1	!	1426	0	0	0	0	0	0
2024-05-27	12:46:53	12:55:01	487367	6.6.1	4_exp_EVA_AWA_CON	51	B	A	Rpleas_acq	Same	Rpleas	2pleas	acq_new_unple_nomask	acq2_nomask	2	15	480	0	300	300	0	0	576	46	1	0	treu	schlau	retten	tolerant	spielen	fair	tot	schroff	rächen	tyrannisch	strafen	faul	freundlich	ehrlich	loyal	lachen	helfen	schön	fanatisch	eitel	lasch	leiden	hindern	schlecht	1	blank2r.bmp	0	1	+	0	1	blank2r.bmp	500	7	C3r.bmp	500	1	blank2r.bmp	880	2	eitel	880	1	!	1312	1	!	-1	0	0	0	0	0	0
2024-05-27	12:46:53	12:55:03	489495	6.6.1	4_exp_EVA_AWA_CON	51	B	A	Rpleas_acq	Same	Rpleas	2pleas	acq_US_pleas_nomask	acq2_nomask	2	16	480	0	300	300	0	0	352	50	1	0	treu	schlau	retten	tolerant	spielen	fair	tot	schroff	rächen	tyrannisch	strafen	faul	freundlich	ehrlich	loyal	lachen	helfen	schön	fanatisch	eitel	lasch	leiden	hindern	schlecht	1	blank2r.bmp	0	1	+	0	1	blank2r.bmp	500	1	GKQX	500	1	blank2r.bmp	880	4	tolerant	880	1	!	-1	1	!	-1	0	0	0	0	0	0
2024-05-27	12:46:53	12:55:06	491738	6.6.1	4_exp_EVA_AWA_CON	51	B	A	Rpleas_acq	Same	Rpleas	2pleas	acq_new_pleas_nomask	acq2_nomask	2	17	480	1	300	300	0	0	461	50	1	0	treu	schlau	retten	tolerant	spielen	fair	tot	schroff	rächen	tyrannisch	strafen	faul	freundlich	ehrlich	loyal	lachen	helfen	schön	fanatisch	eitel	lasch	leiden	hindern	schlecht	1	blank2r.bmp	0	1	+	0	1	blank2r.bmp	500	4	B4r.bmp	500	1	blank2r.bmp	880	1	freundlich	880	1	!	1312	1	!	1362	0	0	0	0	0	0
2024-05-27	12:46:53	12:55:08	494179	6.6.1	4_exp_EVA_AWA_CON	51	B	A	Rpleas_acq	Same	Rpleas	2pleas	acq_US_pleas_nomask	acq2_nomask	2	18	480	1	300	300	0	0	460	46	0	0	treu	schlau	retten	tolerant	spielen	fair	tot	schroff	rächen	tyrannisch	strafen	faul	freundlich	ehrlich	loyal	lachen	helfen	schön	fanatisch	eitel	lasch	leiden	hindern	schlecht	1	blank2r.bmp	0	1	+	0	1	blank2r.bmp	500	1	GKQX	500	1	blank2r.bmp	880	3	retten	880	1	FEHLER	1653	1	!	1313	1	!	1360	0	0	0
2024-05-27	12:46:53	12:55:10	496343	6.6.1	4_exp_EVA_AWA_CON	51	B	A	Rpleas_acq	Same	Rpleas	2pleas	acq_US_pleas_nomask	acq2_nomask	2	19	480	0	300	300	0	0	586	50	1	0	treu	schlau	retten	tolerant	spielen	fair	tot	schroff	rächen	tyrannisch	strafen	faul	freundlich	ehrlich	loyal	lachen	helfen	schön	fanatisch	eitel	lasch	leiden	hindern	schlecht	1	blank2r.bmp	0	1	+	0	1	blank2r.bmp	500	1	GKQX	500	1	blank2r.bmp	880	6	fair	880	1	!	1312	1	!	-1	0	0	0	0	0	0
2024-05-27	12:46:53	12:55:12	498577	6.6.1	4_exp_EVA_AWA_CON	51	B	A	Rpleas_acq	Same	Rpleas	2pleas	acq_US_unple_nomask	acq2_nomask	2	20	480	1	300	300	0	0	457	46	1	0	treu	schlau	retten	tolerant	spielen	fair	tot	schroff	rächen	tyrannisch	strafen	faul	freundlich	ehrlich	loyal	lachen	helfen	schön	fanatisch	eitel	lasch	leiden	hindern	schlecht	1	blank2r.bmp	0	1	+	0	1	blank2r.bmp	500	1	BMVZ	500	1	blank2r.bmp	880	5	strafen	880	1	!	1313	1	!	1358	0	0	0	0	0	0
2024-05-27	12:46:53	12:55:15	501039	6.6.1	4_exp_EVA_AWA_CON	51	B	A	Rpleas_acq	Same	Rpleas	2pleas	acq_new_unple_nomask	acq2_nomask	2	21	480	0	300	300	0	0	689	46	1	0	treu	schlau	retten	tolerant	spielen	fair	tot	schroff	rächen	tyrannisch	strafen	faul	freundlich	ehrlich	loyal	lachen	helfen	schön	fanatisch	eitel	lasch	leiden	hindern	schlecht	1	blank2r.bmp	0	1	+	0	1	blank2r.bmp	500	1	B1r.bmp	500	1	blank2r.bmp	880	3	lasch	880	1	!	1313	1	!	-1	0	0	0	0	0	0
2024-05-27	12:46:53	12:55:17	503431	6.6.1	4_exp_EVA_AWA_CON	51	B	A	Rpleas_acq	Same	Rpleas	2pleas	acq_US_unple_nomask	acq2_nomask	2	22	480	0	300	300	0	0	619	46	1	0	treu	schlau	retten	tolerant	spielen	fair	tot	schroff	rächen	tyrannisch	strafen	faul	freundlich	ehrlich	loyal	lachen	helfen	schön	fanatisch	eitel	lasch	leiden	hindern	schlecht	1	blank2r.bmp	0	1	+	0	1	blank2r.bmp	500	1	BMVZ	500	1	blank2r.bmp	880	2	schroff	880	1	!	1313	1	!	-1	0	0	0	0	0	0
2024-05-27	12:46:53	12:55:19	505690	6.6.1	4_exp_EVA_AWA_CON	51	B	A	Rpleas_acq	Same	Rpleas	2pleas	acq_new_pleas_nomask	acq2_nomask	2	23	480	0	300	300	0	0	284	46	0	0	treu	schlau	retten	tolerant	spielen	fair	tot	schroff	rächen	tyrannisch	strafen	faul	freundlich	ehrlich	loyal	lachen	helfen	schön	fanatisch	eitel	lasch	leiden	hindern	schlecht	1	blank2r.bmp	0	1	+	0	1	blank2r.bmp	500	5	C1r.bmp	500	1	blank2r.bmp	880	2	ehrlich	880	1	FEHLER	1477	1	!	-1	1	!	-1	0	0	0
2024-05-27	12:46:53	12:55:22	507801	6.6.1	4_exp_EVA_AWA_CON	51	B	A	Rpleas_acq	Same	Rpleas	2pleas	acq_new_unple_nomask	acq2_nomask	2	24	480	1	300	300	0	0	535	46	1	0	treu	schlau	retten	tolerant	spielen	fair	tot	schroff	rächen	tyrannisch	strafen	faul	freundlich	ehrlich	loyal	lachen	helfen	schön	fanatisch	eitel	lasch	leiden	hindern	schlecht	1	blank2r.bmp	0	1	+	0	1	blank2r.bmp	500	8	C4r.bmp	500	1	blank2r.bmp	880	4	leiden	880	1	!	1313	1	!	1436	0	0	0	0	0	0
2024-05-27	12:46:53	12:55:24	509759	6.6.1	4_exp_EVA_AWA_CON	51	B	A	Rpleas_acq	Same	Rpleas	2pleas	acq_new_pleas_nomask	acq2_nomask	2	25	480	0	300	300	0	0	183	50	1	0	treu	schlau	retten	tolerant	spielen	fair	tot	schroff	rächen	tyrannisch	strafen	faul	freundlich	ehrlich	loyal	lachen	helfen	schön	fanatisch	eitel	lasch	leiden	hindern	schlecht	1	blank2r.bmp	0	1	+	0	1	blank2r.bmp	500	6	C2r.bmp	500	1	blank2r.bmp	880	4	lachen	880	1	!	-1	1	!	-1	0	0	0	0	0	0
2024-05-27	12:46:53	12:55:26	512307	6.6.1	4_exp_EVA_AWA_CON	51	B	A	Rpleas_acq	Same	Rpleas	2pleas	acq_US_pleas_nomask	acq2_nomask	2	26	480	0	300	300	0	0	566	46	0	0	treu	schlau	retten	tolerant	spielen	fair	tot	schroff	rächen	tyrannisch	strafen	faul	freundlich	ehrlich	loyal	lachen	helfen	schön	fanatisch	eitel	lasch	leiden	hindern	schlecht	1	blank2r.bmp	0	1	+	0	1	blank2r.bmp	500	1	GKQX	500	1	blank2r.bmp	880	2	schlau	880	1	FEHLER	1759	1	!	1313	1	!	-1	0	0	0
2024-05-27	12:46:53	12:55:28	514600	6.6.1	4_exp_EVA_AWA_CON	51	B	A	Rpleas_acq	Same	Rpleas	2pleas	acq_US_unple_nomask	acq2_nomask	2	27	480	0	300	300	0	0	720	46	1	0	treu	schlau	retten	tolerant	spielen	fair	tot	schroff	rächen	tyrannisch	strafen	faul	freundlich	ehrlich	loyal	lachen	helfen	schön	fanatisch	eitel	lasch	leiden	hindern	schlecht	1	blank2r.bmp	0	1	+	0	1	blank2r.bmp	500	1	BMVZ	500	1	blank2r.bmp	880	3	rächen	880	1	!	1312	1	!	-1	0	0	0	0	0	0
2024-05-27	12:46:53	12:55:31	516890	6.6.1	4_exp_EVA_AWA_CON	51	B	A	Rpleas_acq	Same	Rpleas	2pleas	acq_new_unple_nomask	acq2_nomask	2	28	480	0	300	300	0	0	307	50	0	0	treu	schlau	retten	tolerant	spielen	fair	tot	schroff	rächen	tyrannisch	strafen	faul	freundlich	ehrlich	loyal	lachen	helfen	schön	fanatisch	eitel	lasch	leiden	hindern	schlecht	1	blank2r.bmp	0	1	+	0	1	blank2r.bmp	500	3	B3r.bmp	500	1	blank2r.bmp	880	5	hindern	880	1	FEHLER	1499	1	!	-1	1	!	-1	0	0	0
2024-05-27	12:46:53	12:55:33	518929	6.6.1	4_exp_EVA_AWA_CON	51	B	A	Rpleas_acq	Same	Rpleas	2pleas	acq_new_pleas_nomask	acq2_nomask	2	29	480	1	300	300	0	0	465	50	1	0	treu	schlau	retten	tolerant	spielen	fair	tot	schroff	rächen	tyrannisch	strafen	faul	freundlich	ehrlich	loyal	lachen	helfen	schön	fanatisch	eitel	lasch	leiden	hindern	schlecht	1	blank2r.bmp	0	1	+	0	1	blank2r.bmp	500	7	C3r.bmp	500	1	blank2r.bmp	880	3	loyal	880	1	!	1312	1	!	1366	0	0	0	0	0	0
2024-05-27	12:46:53	12:55:35	520975	6.6.1	4_exp_EVA_AWA_CON	51	B	A	Rpleas_acq	Same	Rpleas	2pleas	acq_new_unple_nomask	acq2_nomask	2	30	480	0	300	300	0	0	272	46	1	0	treu	schlau	retten	tolerant	spielen	fair	tot	schroff	rächen	tyrannisch	strafen	faul	freundlich	ehrlich	loyal	lachen	helfen	schön	fanatisch	eitel	lasch	leiden	hindern	schlecht	1	blank2r.bmp	0	1	+	0	1	blank2r.bmp	500	1	B1r.bmp	500	1	blank2r.bmp	880	6	schlecht	880	1	!	-1	1	!	-1	0	0	0	0	0	0
2024-05-27	12:46:53	12:55:37	523176	6.6.1	4_exp_EVA_AWA_CON	51	B	A	Rpleas_acq	Same	Rpleas	2pleas	acq_US_pleas_nomask	acq2_nomask	2	31	480	1	300	300	0	0	420	50	1	0	treu	schlau	retten	tolerant	spielen	fair	tot	schroff	rächen	tyrannisch	strafen	faul	freundlich	ehrlich	loyal	lachen	helfen	schön	fanatisch	eitel	lasch	leiden	hindern	schlecht	1	blank2r.bmp	0	1	+	0	1	blank2r.bmp	500	1	GKQX	500	1	blank2r.bmp	880	5	spielen	880	1	!	1313	1	!	1320	0	0	0	0	0	0
2024-05-27	12:46:53	12:55:39	525401	6.6.1	4_exp_EVA_AWA_CON	51	B	A	Rpleas_acq	Same	Rpleas	2pleas	acq_US_pleas_nomask	acq2_nomask	2	32	480	1	300	300	0	0	443	50	1	0	treu	schlau	retten	tolerant	spielen	fair	tot	schroff	rächen	tyrannisch	strafen	faul	freundlich	ehrlich	loyal	lachen	helfen	schön	fanatisch	eitel	lasch	leiden	hindern	schlecht	1	blank2r.bmp	0	1	+	0	1	blank2r.bmp	500	1	GKQX	500	1	blank2r.bmp	880	1	treu	880	1	!	1313	1	!	1344	0	0	0	0	0	0
2024-05-27	12:46:53	12:55:41	527551	6.6.1	4_exp_EVA_AWA_CON	51	B	A	Rpleas_acq	Same	Rpleas	2pleas	acq_US_unple_nomask	acq2_nomask	2	33	480	0	300	300	0	0	374	46	1	0	treu	schlau	retten	tolerant	spielen	fair	tot	schroff	rächen	tyrannisch	strafen	faul	freundlich	ehrlich	loyal	lachen	helfen	schön	fanatisch	eitel	lasch	leiden	hindern	schlecht	1	blank2r.bmp	0	1	+	0	1	blank2r.bmp	500	1	BMVZ	500	1	blank2r.bmp	880	4	tyrannisch	880	1	!	-1	1	!	-1	0	0	0	0	0	0
2024-05-27	12:46:53	12:55:44	529727	6.6.1	4_exp_EVA_AWA_CON	51	B	A	Rpleas_acq	Same	Rpleas	2pleas	acq_new_unple_nomask	acq2_nomask	2	34	480	0	300	300	0	0	398	46	1	0	treu	schlau	retten	tolerant	spielen	fair	tot	schroff	rächen	tyrannisch	strafen	faul	freundlich	ehrlich	loyal	lachen	helfen	schön	fanatisch	eitel	lasch	leiden	hindern	schlecht	1	blank2r.bmp	0	1	+	0	1	blank2r.bmp	500	2	B2r.bmp	500	1	blank2r.bmp	880	1	fanatisch	880	1	!	-1	1	!	-1	0	0	0	0	0	0
2024-05-27	12:46:53	12:55:46	532042	6.6.1	4_exp_EVA_AWA_CON	51	B	A	Rpleas_acq	Same	Rpleas	2pleas	acq_US_unple_nomask	acq2_nomask	2	35	480	1	300	300	0	0	539	46	1	0	treu	schlau	retten	tolerant	spielen	fair	tot	schroff	rächen	tyrannisch	strafen	faul	freundlich	ehrlich	loyal	lachen	helfen	schön	fanatisch	eitel	lasch	leiden	hindern	schlecht	1	blank2r.bmp	0	1	+	0	1	blank2r.bmp	500	1	BMVZ	500	1	blank2r.bmp	880	1	tot	880	1	!	1312	1	!	1440	0	0	0	0	0	0
2024-05-27	12:46:53	12:55:48	534265	6.6.1	4_exp_EVA_AWA_CON	51	B	A	Rpleas_acq	Same	Rpleas	2pleas	acq_new_pleas_nomask	acq2_nomask	2	36	480	1	300	300	0	0	441	50	1	0	treu	schlau	retten	tolerant	spielen	fair	tot	schroff	rächen	tyrannisch	strafen	faul	freundlich	ehrlich	loyal	lachen	helfen	schön	fanatisch	eitel	lasch	leiden	hindern	schlecht	1	blank2r.bmp	0	1	+	0	1	blank2r.bmp	500	5	C1r.bmp	500	1	blank2r.bmp	880	6	schön	880	1	!	1312	1	!	1343	0	0	0	0	0	0
2024-05-27	12:46:53	12:56:10	556145	6.6.1	4_exp_EVA_AWA_CON	51	B	A	Rpleas_acq	Same	Rpleas	2pleas	acq_US_pleas_nomask	acq3_nomask	3	1	453	1	300	300	0	0	517	50	1	0	treu	schlau	retten	tolerant	spielen	fair	tot	schroff	rächen	tyrannisch	strafen	faul	freundlich	ehrlich	loyal	lachen	helfen	schön	fanatisch	eitel	lasch	leiden	hindern	schlecht	1	blank2r.bmp	0	1	+	0	1	blank2r.bmp	500	1	GKQX	500	1	blank2r.bmp	880	6	fair	880	1	!	1293	1	!	1418	0	0	0	0	0	0
2024-05-27	12:46:53	12:56:12	558393	6.6.1	4_exp_EVA_AWA_CON	51	B	A	Rpleas_acq	Same	Rpleas	2pleas	acq_US_pleas_nomask	acq3_nomask	3	2	453	1	300	300	0	0	473	50	1	0	treu	schlau	retten	tolerant	spielen	fair	tot	schroff	rächen	tyrannisch	strafen	faul	freundlich	ehrlich	loyal	lachen	helfen	schön	fanatisch	eitel	lasch	leiden	hindern	schlecht	1	blank2r.bmp	0	1	+	0	1	blank2r.bmp	500	1	GKQX	500	1	blank2r.bmp	880	4	tolerant	880	1	!	1293	1	!	1374	0	0	0	0	0	0
2024-05-27	12:46:53	12:56:15	560754	6.6.1	4_exp_EVA_AWA_CON	51	B	A	Rpleas_acq	Same	Rpleas	2pleas	acq_US_unple_nomask	acq3_nomask	3	3	453	0	300	300	0	0	382	50	0	0	treu	schlau	retten	tolerant	spielen	fair	tot	schroff	rächen	tyrannisch	strafen	faul	freundlich	ehrlich	loyal	lachen	helfen	schön	fanatisch	eitel	lasch	leiden	hindern	schlecht	1	blank2r.bmp	0	1	+	0	1	blank2r.bmp	500	1	BMVZ	500	1	blank2r.bmp	880	5	strafen	880	1	FEHLER	1575	1	!	-1	1	!	-1	0	0	0
2024-05-27	12:46:53	12:56:17	562862	6.6.1	4_exp_EVA_AWA_CON	51	B	A	Rpleas_acq	Same	Rpleas	2pleas	acq_US_pleas_nomask	acq3_nomask	3	4	453	0	300	300	0	0	533	50	1	0	treu	schlau	retten	tolerant	spielen	fair	tot	schroff	rächen	tyrannisch	strafen	faul	freundlich	ehrlich	loyal	lachen	helfen	schön	fanatisch	eitel	lasch	leiden	hindern	schlecht	1	blank2r.bmp	0	1	+	0	1	blank2r.bmp	500	1	GKQX	500	1	blank2r.bmp	880	3	retten	880	1	!	1293	1	!	-1	0	0	0	0	0	0
2024-05-27	12:46:53	12:56:19	565073	6.6.1	4_exp_EVA_AWA_CON	51	B	A	Rpleas_acq	Same	Rpleas	2pleas	acq_US_pleas_nomask	acq3_nomask	3	5	453	1	300	300	0	0	429	50	1	0	treu	schlau	retten	tolerant	spielen	fair	tot	schroff	rächen	tyrannisch	strafen	faul	freundlich	ehrlich	loyal	lachen	helfen	schön	fanatisch	eitel	lasch	leiden	hindern	schlecht	1	blank2r.bmp	0	1	+	0	1	blank2r.bmp	500	1	GKQX	500	1	blank2r.bmp	880	1	treu	880	1	!	1293	1	!	1330	0	0	0	0	0	0
2024-05-27	12:46:53	12:56:21	567239	6.6.1	4_exp_EVA_AWA_CON	51	B	A	Rpleas_acq	Same	Rpleas	2pleas	acq_US_unple_nomask	acq3_nomask	3	6	453	0	300	300	0	0	386	46	1	0	treu	schlau	retten	tolerant	spielen	fair	tot	schroff	rächen	tyrannisch	strafen	faul	freundlich	ehrlich	loyal	lachen	helfen	schön	fanatisch	eitel	lasch	leiden	hindern	schlecht	1	blank2r.bmp	0	1	+	0	1	blank2r.bmp	500	1	BMVZ	500	1	blank2r.bmp	880	6	faul	880	1	!	-1	1	!	-1	0	0	0	0	0	0
2024-05-27	12:46:53	12:56:23	569391	6.6.1	4_exp_EVA_AWA_CON	51	B	A	Rpleas_acq	Same	Rpleas	2pleas	acq_US_pleas_nomask	acq3_nomask	3	7	453	0	300	300	0	0	376	50	1	0	treu	schlau	retten	tolerant	spielen	fair	tot	schroff	rächen	tyrannisch	strafen	faul	freundlich	ehrlich	loyal	lachen	helfen	schön	fanatisch	eitel	lasch	leiden	hindern	schlecht	1	blank2r.bmp	0	1	+	0	1	blank2r.bmp	500	1	GKQX	500	1	blank2r.bmp	880	2	schlau	880	1	!	-1	1	!	-1	0	0	0	0	0	0
2024-05-27	12:46:53	12:56:25	571633	6.6.1	4_exp_EVA_AWA_CON	51	B	A	Rpleas_acq	Same	Rpleas	2pleas	acq_US_unple_nomask	acq3_nomask	3	8	453	1	300	300	0	0	465	46	1	0	treu	schlau	retten	tolerant	spielen	fair	tot	schroff	rächen	tyrannisch	strafen	faul	freundlich	ehrlich	loyal	lachen	helfen	schön	fanatisch	eitel	lasch	leiden	hindern	schlecht	1	blank2r.bmp	0	1	+	0	1	blank2r.bmp	500	1	BMVZ	500	1	blank2r.bmp	880	3	rächen	880	1	!	1293	1	!	1366	0	0	0	0	0	0
2024-05-27	12:46:53	12:56:28	574200	6.6.1	4_exp_EVA_AWA_CON	51	B	A	Rpleas_acq	Same	Rpleas	2pleas	acq_US_unple_nomask	acq3_nomask	3	9	453	0	300	300	0	0	791	46	1	0	treu	schlau	retten	tolerant	spielen	fair	tot	schroff	rächen	tyrannisch	strafen	faul	freundlich	ehrlich	loyal	lachen	helfen	schön	fanatisch	eitel	lasch	leiden	hindern	schlecht	1	blank2r.bmp	0	1	+	0	1	blank2r.bmp	500	1	BMVZ	500	1	blank2r.bmp	880	4	tyrannisch	880	1	!	1292	1	!	-1	0	0	0	0	0	0
2024-05-27	12:46:53	12:56:30	576417	6.6.1	4_exp_EVA_AWA_CON	51	B	A	Rpleas_acq	Same	Rpleas	2pleas	acq_US_unple_nomask	acq3_nomask	3	10	453	1	300	300	0	0	436	46	1	0	treu	schlau	retten	tolerant	spielen	fair	tot	schroff	rächen	tyrannisch	strafen	faul	freundlich	ehrlich	loyal	lachen	helfen	schön	fanatisch	eitel	lasch	leiden	hindern	schlecht	1	blank2r.bmp	0	1	+	0	1	blank2r.bmp	500	1	BMVZ	500	1	blank2r.bmp	880	1	tot	880	1	!	1293	1	!	1337	0	0	0	0	0	0
2024-05-27	12:46:53	12:56:33	578767	6.6.1	4_exp_EVA_AWA_CON	51	B	A	Rpleas_acq	Same	Rpleas	2pleas	acq_US_unple_nomask	acq3_nomask	3	11	453	0	300	300	0	0	576	46	1	0	treu	schlau	retten	tolerant	spielen	fair	tot	schroff	rächen	tyrannisch	strafen	faul	freundlich	ehrlich	loyal	lachen	helfen	schön	fanatisch	eitel	lasch	leiden	hindern	schlecht	1	blank2r.bmp	0	1	+	0	1	blank2r.bmp	500	1	BMVZ	500	1	blank2r.bmp	880	2	schroff	880	1	!	1292	1	!	-1	0	0	0	0	0	0
2024-05-27	12:46:53	12:56:35	580911	6.6.1	4_exp_EVA_AWA_CON	51	B	A	Rpleas_acq	Same	Rpleas	2pleas	acq_US_pleas_nomask	acq3_nomask	3	12	453	0	300	300	0	0	369	50	1	0	treu	schlau	retten	tolerant	spielen	fair	tot	schroff	rächen	tyrannisch	strafen	faul	freundlich	ehrlich	loyal	lachen	helfen	schön	fanatisch	eitel	lasch	leiden	hindern	schlecht	1	blank2r.bmp	0	1	+	0	1	blank2r.bmp	500	1	GKQX	500	1	blank2r.bmp	880	5	spielen	880	1	!	-1	1	!	-1	0	0	0	0	0	0
2024-05-27	12:46:53	12:56:37	583417	6.6.1	4_exp_EVA_AWA_CON	51	B	A	Rpleas_acq	Same	Rpleas	2pleas	acq_US_pleas_nomask	acq3_nomask	3	13	453	0	300	300	0	0	531	46	0	0	treu	schlau	retten	tolerant	spielen	fair	tot	schroff	rächen	tyrannisch	strafen	faul	freundlich	ehrlich	loyal	lachen	helfen	schön	fanatisch	eitel	lasch	leiden	hindern	schlecht	1	blank2r.bmp	0	1	+	0	1	blank2r.bmp	500	1	GKQX	500	1	blank2r.bmp	880	2	schlau	880	1	FEHLER	1723	1	!	1292	1	!	-1	0	0	0
2024-05-27	12:46:53	12:56:39	585497	6.6.1	4_exp_EVA_AWA_CON	51	B	A	Rpleas_acq	Same	Rpleas	2pleas	acq_US_unple_nomask	acq3_nomask	3	14	453	1	300	300	0	0	500	46	1	0	treu	schlau	retten	tolerant	spielen	fair	tot	schroff	rächen	tyrannisch	strafen	faul	freundlich	ehrlich	loyal	lachen	helfen	schön	fanatisch	eitel	lasch	leiden	hindern	schlecht	1	blank2r.bmp	0	1	+	0	1	blank2r.bmp	500	1	BMVZ	500	1	blank2r.bmp	880	2	schroff	880	1	!	1292	1	!	1401	0	0	0	0	0	0
2024-05-27	12:46:53	12:56:42	587753	6.6.1	4_exp_EVA_AWA_CON	51	B	A	Rpleas_acq	Same	Rpleas	2pleas	acq_US_unple_nomask	acq3_nomask	3	15	453	1	300	300	0	0	474	46	1	0	treu	schlau	retten	tolerant	spielen	fair	tot	schroff	rächen	tyrannisch	strafen	faul	freundlich	ehrlich	loyal	lachen	helfen	schön	fanatisch	eitel	lasch	leiden	hindern	schlecht	1	blank2r.bmp	0	1	+	0	1	blank2r.bmp	500	1	BMVZ	500	1	blank2r.bmp	880	5	strafen	880	1	!	1293	1	!	1375	0	0	0	0	0	0
2024-05-27	12:46:53	12:56:44	589977	6.6.1	4_exp_EVA_AWA_CON	51	B	A	Rpleas_acq	Same	Rpleas	2pleas	acq_US_unple_nomask	acq3_nomask	3	16	453	1	300	300	0	0	447	46	1	0	treu	schlau	retten	tolerant	spielen	fair	tot	schroff	rächen	tyrannisch	strafen	faul	freundlich	ehrlich	loyal	lachen	helfen	schön	fanatisch	eitel	lasch	leiden	hindern	schlecht	1	blank2r.bmp	0	1	+	0	1	blank2r.bmp	500	1	BMVZ	500	1	blank2r.bmp	880	6	faul	880	1	!	1293	1	!	1348	0	0	0	0	0	0
2024-05-27	12:46:53	12:56:46	592298	6.6.1	4_exp_EVA_AWA_CON	51	B	A	Rpleas_acq	Same	Rpleas	2pleas	acq_US_pleas_nomask	acq3_nomask	3	17	453	0	300	300	0	0	345	46	0	0	treu	schlau	retten	tolerant	spielen	fair	tot	schroff	rächen	tyrannisch	strafen	faul	freundlich	ehrlich	loyal	lachen	helfen	schön	fanatisch	eitel	lasch	leiden	hindern	schlecht	1	blank2r.bmp	0	1	+	0	1	blank2r.bmp	500	1	GKQX	500	1	blank2r.bmp	880	6	fair	880	1	FEHLER	1538	1	!	-1	1	!	-1	0	0	0
2024-05-27	12:46:53	12:56:48	594377	6.6.1	4_exp_EVA_AWA_CON	51	B	A	Rpleas_acq	Same	Rpleas	2pleas	acq_US_unple_nomask	acq3_nomask	3	18	453	1	300	300	0	0	504	46	1	0	treu	schlau	retten	tolerant	spielen	fair	tot	schroff	rächen	tyrannisch	strafen	faul	freundlich	ehrlich	loyal	lachen	helfen	schön	fanatisch	eitel	lasch	leiden	hindern	schlecht	1	blank2r.bmp	0	1	+	0	1	blank2r.bmp	500	1	BMVZ	500	1	blank2r.bmp	880	4	tyrannisch	880	1	!	1293	1	!	1405	0	0	0	0	0	0
2024-05-27	12:46:53	12:56:50	596609	6.6.1	4_exp_EVA_AWA_CON	51	B	A	Rpleas_acq	Same	Rpleas	2pleas	acq_US_pleas_nomask	acq3_nomask	3	19	453	1	300	300	0	0	454	50	1	0	treu	schlau	retten	tolerant	spielen	fair	tot	schroff	rächen	tyrannisch	strafen	faul	freundlich	ehrlich	loyal	lachen	helfen	schön	fanatisch	eitel	lasch	leiden	hindern	schlecht	1	blank2r.bmp	0	1	+	0	1	blank2r.bmp	500	1	GKQX	500	1	blank2r.bmp	880	4	tolerant	880	1	!	1292	1	!	1355	0	0	0	0	0	0
2024-05-27	12:46:53	12:56:52	598703	6.6.1	4_exp_EVA_AWA_CON	51	B	A	Rpleas_acq	Same	Rpleas	2pleas	acq_US_pleas_nomask	acq3_nomask	3	20	453	0	300	300	0	0	319	50	1	0	treu	schlau	retten	tolerant	spielen	fair	tot	schroff	rächen	tyrannisch	strafen	faul	freundlich	ehrlich	loyal	lachen	helfen	schön	fanatisch	eitel	lasch	leiden	hindern	schlecht	1	blank2r.bmp	0	1	+	0	1	blank2r.bmp	500	1	GKQX	500	1	blank2r.bmp	880	3	retten	880	1	!	-1	1	!	-1	0	0	0	0	0	0
2024-05-27	12:46:53	12:56:55	600969	6.6.1	4_exp_EVA_AWA_CON	51	B	A	Rpleas_acq	Same	Rpleas	2pleas	acq_US_unple_nomask	acq3_nomask	3	21	453	1	300	300	0	0	492	46	1	0	treu	schlau	retten	tolerant	spielen	fair	tot	schroff	rächen	tyrannisch	strafen	faul	freundlich	ehrlich	loyal	lachen	helfen	schön	fanatisch	eitel	lasch	leiden	hindern	schlecht	1	blank2r.bmp	0	1	+	0	1	blank2r.bmp	500	1	BMVZ	500	1	blank2r.bmp	880	1	tot	880	1	!	1293	1	!	1393	0	0	0	0	0	0
2024-05-27	12:46:53	12:56:57	603399	6.6.1	4_exp_EVA_AWA_CON	51	B	A	Rpleas_acq	Same	Rpleas	2pleas	acq_US_pleas_nomask	acq3_nomask	3	22	453	0	300	300	0	0	652	50	1	0	treu	schlau	retten	tolerant	spielen	fair	tot	schroff	rächen	tyrannisch	strafen	faul	freundlich	ehrlich	loyal	lachen	helfen	schön	fanatisch	eitel	lasch	leiden	hindern	schlecht	1	blank2r.bmp	0	1	+	0	1	blank2r.bmp	500	1	GKQX	500	1	blank2r.bmp	880	1	treu	880	1	!	1293	1	!	-1	0	0	0	0	0	0
2024-05-27	12:46:53	12:57:00	605855	6.6.1	4_exp_EVA_AWA_CON	51	B	A	Rpleas_acq	Same	Rpleas	2pleas	acq_US_unple_nomask	acq3_nomask	3	23	453	0	300	300	0	0	677	46	1	0	treu	schlau	retten	tolerant	spielen	fair	tot	schroff	rächen	tyrannisch	strafen	faul	freundlich	ehrlich	loyal	lachen	helfen	schön	fanatisch	eitel	lasch	leiden	hindern	schlecht	1	blank2r.bmp	0	1	+	0	1	blank2r.bmp	500	1	BMVZ	500	1	blank2r.bmp	880	3	rächen	880	1	!	1292	1	!	-1	0	0	0	0	0	0
2024-05-27	12:46:53	12:57:02	608179	6.6.1	4_exp_EVA_AWA_CON	51	B	A	Rpleas_acq	Same	Rpleas	2pleas	acq_US_pleas_nomask	acq3_nomask	3	24	453	0	300	300	0	0	345	46	0	0	treu	schlau	retten	tolerant	spielen	fair	tot	schroff	rächen	tyrannisch	strafen	faul	freundlich	ehrlich	loyal	lachen	helfen	schön	fanatisch	eitel	lasch	leiden	hindern	schlecht	1	blank2r.bmp	0	1	+	0	1	blank2r.bmp	500	1	GKQX	500	1	blank2r.bmp	880	5	spielen	880	1	FEHLER	1538	1	!	-1	1	!	-1	0	0	0
2024-05-27	12:46:53	12:57:04	610233	6.6.1	4_exp_EVA_AWA_CON	51	B	A	Rpleas_acq	Same	Rpleas	2pleas	acq_US_unple_nomask	acq3_nomask	3	25	453	1	300	300	0	0	479	46	1	0	treu	schlau	retten	tolerant	spielen	fair	tot	schroff	rächen	tyrannisch	strafen	faul	freundlich	ehrlich	loyal	lachen	helfen	schön	fanatisch	eitel	lasch	leiden	hindern	schlecht	1	blank2r.bmp	0	1	+	0	1	blank2r.bmp	500	1	BMVZ	500	1	blank2r.bmp	880	5	strafen	880	1	!	1292	1	!	1381	0	0	0	0	0	0
2024-05-27	12:46:53	12:57:06	612426	6.6.1	4_exp_EVA_AWA_CON	51	B	A	Rpleas_acq	Same	Rpleas	2pleas	acq_US_pleas_nomask	acq3_nomask	3	26	453	1	300	300	0	0	410	50	1	0	treu	schlau	retten	tolerant	spielen	fair	tot	schroff	rächen	tyrannisch	strafen	faul	freundlich	ehrlich	loyal	lachen	helfen	schön	fanatisch	eitel	lasch	leiden	hindern	schlecht	1	blank2r.bmp	0	1	+	0	1	blank2r.bmp	500	1	GKQX	500	1	blank2r.bmp	880	3	retten	880	1	!	1293	1	!	1312	0	0	0	0	0	0
2024-05-27	12:46:53	12:57:08	614583	6.6.1	4_exp_EVA_AWA_CON	51	B	A	Rpleas_acq	Same	Rpleas	2pleas	acq_US_unple_nomask	acq3_nomask	3	27	453	0	300	300	0	0	379	46	1	0	treu	schlau	retten	tolerant	spielen	fair	tot	schroff	rächen	tyrannisch	strafen	faul	freundlich	ehrlich	loyal	lachen	helfen	schön	fanatisch	eitel	lasch	leiden	hindern	schlecht	1	blank2r.bmp	0	1	+	0	1	blank2r.bmp	500	1	BMVZ	500	1	blank2r.bmp	880	2	schroff	880	1	!	-1	1	!	-1	0	0	0	0	0	0
2024-05-27	12:46:53	12:57:11	617048	6.6.1	4_exp_EVA_AWA_CON	51	B	A	Rpleas_acq	Same	Rpleas	2pleas	acq_US_unple_nomask	acq3_nomask	3	28	453	0	300	300	0	0	691	46	1	0	treu	schlau	retten	tolerant	spielen	fair	tot	schroff	rächen	tyrannisch	strafen	faul	freundlich	ehrlich	loyal	lachen	helfen	schön	fanatisch	eitel	lasch	leiden	hindern	schlecht	1	blank2r.bmp	0	1	+	0	1	blank2r.bmp	500	1	BMVZ	500	1	blank2r.bmp	880	6	faul	880	1	!	1293	1	!	-1	0	0	0	0	0	0
2024-05-27	12:46:53	12:57:13	619402	6.6.1	4_exp_EVA_AWA_CON	51	B	A	Rpleas_acq	Same	Rpleas	2pleas	acq_US_unple_nomask	acq3_nomask	3	29	453	0	300	300	0	0	372	50	0	0	treu	schlau	retten	tolerant	spielen	fair	tot	schroff	rächen	tyrannisch	strafen	faul	freundlich	ehrlich	loyal	lachen	helfen	schön	fanatisch	eitel	lasch	leiden	hindern	schlecht	1	blank2r.bmp	0	1	+	0	1	blank2r.bmp	500	1	BMVZ	500	1	blank2r.bmp	880	4	tyrannisch	880	1	FEHLER	1564	1	!	-1	1	!	-1	0	0	0
2024-05-27	12:46:53	12:57:15	621417	6.6.1	4_exp_EVA_AWA_CON	51	B	A	Rpleas_acq	Same	Rpleas	2pleas	acq_US_pleas_nomask	acq3_nomask	3	30	453	1	300	300	0	0	436	50	1	0	treu	schlau	retten	tolerant	spielen	fair	tot	schroff	rächen	tyrannisch	strafen	faul	freundlich	ehrlich	loyal	lachen	helfen	schön	fanatisch	eitel	lasch	leiden	hindern	schlecht	1	blank2r.bmp	0	1	+	0	1	blank2r.bmp	500	1	GKQX	500	1	blank2r.bmp	880	6	fair	880	1	!	1293	1	!	1337	0	0	0	0	0	0
2024-05-27	12:46:53	12:57:17	623559	6.6.1	4_exp_EVA_AWA_CON	51	B	A	Rpleas_acq	Same	Rpleas	2pleas	acq_US_unple_nomask	acq3_nomask	3	31	453	0	300	300	0	0	369	46	1	0	treu	schlau	retten	tolerant	spielen	fair	tot	schroff	rächen	tyrannisch	strafen	faul	freundlich	ehrlich	loyal	lachen	helfen	schön	fanatisch	eitel	lasch	leiden	hindern	schlecht	1	blank2r.bmp	0	1	+	0	1	blank2r.bmp	500	1	BMVZ	500	1	blank2r.bmp	880	1	tot	880	1	!	-1	1	!	-1	0	0	0	0	0	0
2024-05-27	12:46:53	12:57:20	625875	6.6.1	4_exp_EVA_AWA_CON	51	B	A	Rpleas_acq	Same	Rpleas	2pleas	acq_US_unple_nomask	acq3_nomask	3	32	453	0	300	300	0	0	339	50	0	0	treu	schlau	retten	tolerant	spielen	fair	tot	schroff	rächen	tyrannisch	strafen	faul	freundlich	ehrlich	loyal	lachen	helfen	schön	fanatisch	eitel	lasch	leiden	hindern	schlecht	1	blank2r.bmp	0	1	+	0	1	blank2r.bmp	500	1	BMVZ	500	1	blank2r.bmp	880	3	rächen	880	1	FEHLER	1533	1	!	-1	1	!	-1	0	0	0
2024-05-27	12:46:53	12:57:22	627791	6.6.1	4_exp_EVA_AWA_CON	51	B	A	Rpleas_acq	Same	Rpleas	2pleas	acq_US_pleas_nomask	acq3_nomask	3	33	453	0	300	300	0	0	348	50	1	0	treu	schlau	retten	tolerant	spielen	fair	tot	schroff	rächen	tyrannisch	strafen	faul	freundlich	ehrlich	loyal	lachen	helfen	schön	fanatisch	eitel	lasch	leiden	hindern	schlecht	1	blank2r.bmp	0	1	+	0	1	blank2r.bmp	500	1	GKQX	500	1	blank2r.bmp	880	5	spielen	880	1	!	-1	1	!	-1	0	0	0	0	0	0
2024-05-27	12:46:53	12:57:24	630154	6.6.1	4_exp_EVA_AWA_CON	51	B	A	Rpleas_acq	Same	Rpleas	2pleas	acq_US_pleas_nomask	acq3_nomask	3	34	453	0	300	300	0	0	387	46	0	0	treu	schlau	retten	tolerant	spielen	fair	tot	schroff	rächen	tyrannisch	strafen	faul	freundlich	ehrlich	loyal	lachen	helfen	schön	fanatisch	eitel	lasch	leiden	hindern	schlecht	1	blank2r.bmp	0	1	+	0	1	blank2r.bmp	500	1	GKQX	500	1	blank2r.bmp	880	4	tolerant	880	1	FEHLER	1579	1	!	-1	1	!	-1	0	0	0
2024-05-27	12:46:53	12:57:26	632282	6.6.1	4_exp_EVA_AWA_CON	51	B	A	Rpleas_acq	Same	Rpleas	2pleas	acq_US_pleas_nomask	acq3_nomask	3	35	453	0	300	300	0	0	353	46	0	0	treu	schlau	retten	tolerant	spielen	fair	tot	schroff	rächen	tyrannisch	strafen	faul	freundlich	ehrlich	loyal	lachen	helfen	schön	fanatisch	eitel	lasch	leiden	hindern	schlecht	1	blank2r.bmp	0	1	+	0	1	blank2r.bmp	500	1	GKQX	500	1	blank2r.bmp	880	1	treu	880	1	FEHLER	1546	1	!	-1	1	!	-1	0	0	0
2024-05-27	12:46:53	12:57:28	634683	6.6.1	4_exp_EVA_AWA_CON	51	B	A	Rpleas_acq	Same	Rpleas	2pleas	acq_US_pleas_nomask	acq3_nomask	3	36	453	0	300	300	0	0	622	46	0	0	treu	schlau	retten	tolerant	spielen	fair	tot	schroff	rächen	tyrannisch	strafen	faul	freundlich	ehrlich	loyal	lachen	helfen	schön	fanatisch	eitel	lasch	leiden	hindern	schlecht	1	blank2r.bmp	0	1	+	0	1	blank2r.bmp	500	1	GKQX	500	1	blank2r.bmp	880	2	schlau	880	1	FEHLER	1815	1	!	1293	1	!	-1	0	0	0
2024-05-27	12:46:53	12:57:54	660016	6.6.1	4_exp_EVA_AWA_CON	51	B	A	Rpleas_acq	Same	Rpleas	2pleas	acq_US_pleas_nomask	acq45_nomask	4	1	400	0	300	300	0	0	671	50	1	0	treu	schlau	retten	tolerant	spielen	fair	tot	schroff	rächen	tyrannisch	strafen	faul	freundlich	ehrlich	loyal	lachen	helfen	schön	fanatisch	eitel	lasch	leiden	hindern	schlecht	1	blank2r.bmp	0	1	+	0	1	blank2r.bmp	500	1	GKQX	500	1	blank2r.bmp	880	4	tolerant	880	1	!	1232	1	!	-1	0	0	0	0	0	0
2024-05-27	12:46:53	12:57:56	662193	6.6.1	4_exp_EVA_AWA_CON	51	B	A	Rpleas_acq	Same	Rpleas	2pleas	acq_US_unple_nomask	acq45_nomask	4	2	400	1	300	300	0	0	396	46	1	0	treu	schlau	retten	tolerant	spielen	fair	tot	schroff	rächen	tyrannisch	strafen	faul	freundlich	ehrlich	loyal	lachen	helfen	schön	fanatisch	eitel	lasch	leiden	hindern	schlecht	1	blank2r.bmp	0	1	+	0	1	blank2r.bmp	500	1	BMVZ	500	1	blank2r.bmp	880	1	tot	880	1	!	1232	1	!	1297	0	0	0	0	0	0
2024-05-27	12:46:53	12:57:58	664385	6.6.1	4_exp_EVA_AWA_CON	51	B	A	Rpleas_acq	Same	Rpleas	2pleas	acq_US_unple_nomask	acq45_nomask	4	3	400	1	300	300	0	0	416	46	1	0	treu	schlau	retten	tolerant	spielen	fair	tot	schroff	rächen	tyrannisch	strafen	faul	freundlich	ehrlich	loyal	lachen	helfen	schön	fanatisch	eitel	lasch	leiden	hindern	schlecht	1	blank2r.bmp	0	1	+	0	1	blank2r.bmp	500	1	BMVZ	500	1	blank2r.bmp	880	6	faul	880	1	!	1232	1	!	1317	0	0	0	0	0	0
2024-05-27	12:46:53	12:58:00	666647	6.6.1	4_exp_EVA_AWA_CON	51	B	A	Rpleas_acq	Same	Rpleas	2pleas	acq_US_unple_nomask	acq45_nomask	4	4	400	0	300	300	0	0	489	50	0	0	treu	schlau	retten	tolerant	spielen	fair	tot	schroff	rächen	tyrannisch	strafen	faul	freundlich	ehrlich	loyal	lachen	helfen	schön	fanatisch	eitel	lasch	leiden	hindern	schlecht	1	blank2r.bmp	0	1	+	0	1	blank2r.bmp	500	1	BMVZ	500	1	blank2r.bmp	880	5	strafen	880	1	!	1232	1	!	-1	0	0	0	0	0	0
2024-05-27	12:46:53	12:58:03	668833	6.6.1	4_exp_EVA_AWA_CON	51	B	A	Rpleas_acq	Same	Rpleas	2pleas	acq_US_unple_nomask	acq45_nomask	4	5	400	1	300	300	0	0	411	46	1	0	treu	schlau	retten	tolerant	spielen	fair	tot	schroff	rächen	tyrannisch	strafen	faul	freundlich	ehrlich	loyal	lachen	helfen	schön	fanatisch	eitel	lasch	leiden	hindern	schlecht	1	blank2r.bmp	0	1	+	0	1	blank2r.bmp	500	1	BMVZ	500	1	blank2r.bmp	880	3	rächen	880	1	!	1232	1	!	1313	0	0	0	0	0	0
2024-05-27	12:46:53	12:58:05	671049	6.6.1	4_exp_EVA_AWA_CON	51	B	A	Rpleas_acq	Same	Rpleas	2pleas	acq_US_pleas_nomask	acq45_nomask	4	6	400	1	300	300	0	0	436	50	1	0	treu	schlau	retten	tolerant	spielen	fair	tot	schroff	rächen	tyrannisch	strafen	faul	freundlich	ehrlich	loyal	lachen	helfen	schön	fanatisch	eitel	lasch	leiden	hindern	schlecht	1	blank2r.bmp	0	1	+	0	1	blank2r.bmp	500	1	GKQX	500	1	blank2r.bmp	880	2	schlau	880	1	!	1232	1	!	1337	0	0	0	0	0	0
2024-05-27	12:46:53	12:58:07	673226	6.6.1	4_exp_EVA_AWA_CON	51	B	A	Rpleas_acq	Same	Rpleas	2pleas	acq_US_pleas_nomask	acq45_nomask	4	7	400	1	300	300	0	0	400	50	1	0	treu	schlau	retten	tolerant	spielen	fair	tot	schroff	rächen	tyrannisch	strafen	faul	freundlich	ehrlich	loyal	lachen	helfen	schön	fanatisch	eitel	lasch	leiden	hindern	schlecht	1	blank2r.bmp	0	1	+	0	1	blank2r.bmp	500	1	GKQX	500	1	blank2r.bmp	880	6	fair	880	1	!	1232	1	!	1302	0	0	0	0	0	0
2024-05-27	12:46:53	12:58:09	675441	6.6.1	4_exp_EVA_AWA_CON	51	B	A	Rpleas_acq	Same	Rpleas	2pleas	acq_US_pleas_nomask	acq45_nomask	4	8	400	1	300	300	0	0	435	50	1	0	treu	schlau	retten	tolerant	spielen	fair	tot	schroff	rächen	tyrannisch	strafen	faul	freundlich	ehrlich	loyal	lachen	helfen	schön	fanatisch	eitel	lasch	leiden	hindern	schlecht	1	blank2r.bmp	0	1	+	0	1	blank2r.bmp	500	1	GKQX	500	1	blank2r.bmp	880	1	treu	880	1	!	1232	1	!	1336	0	0	0	0	0	0
2024-05-27	12:46:53	12:58:11	677577	6.6.1	4_exp_EVA_AWA_CON	51	B	A	Rpleas_acq	Same	Rpleas	2pleas	acq_US_unple_nomask	acq45_nomask	4	9	400	1	300	300	0	0	359	46	1	0	treu	schlau	retten	tolerant	spielen	fair	tot	schroff	rächen	tyrannisch	strafen	faul	freundlich	ehrlich	loyal	lachen	helfen	schön	fanatisch	eitel	lasch	leiden	hindern	schlecht	1	blank2r.bmp	0	1	+	0	1	blank2r.bmp	500	1	BMVZ	500	1	blank2r.bmp	880	4	tyrannisch	880	1	!	1232	1	!	1261	0	0	0	0	0	0
2024-05-27	12:46:53	12:58:14	679730	6.6.1	4_exp_EVA_AWA_CON	51	B	A	Rpleas_acq	Same	Rpleas	2pleas	acq_US_pleas_nomask	acq45_nomask	4	10	400	1	300	300	0	0	370	50	1	0	treu	schlau	retten	tolerant	spielen	fair	tot	schroff	rächen	tyrannisch	strafen	faul	freundlich	ehrlich	loyal	lachen	helfen	schön	fanatisch	eitel	lasch	leiden	hindern	schlecht	1	blank2r.bmp	0	1	+	0	1	blank2r.bmp	500	1	GKQX	500	1	blank2r.bmp	880	3	retten	880	1	!	1232	1	!	1272	0	0	0	0	0	0
2024-05-27	12:46:53	12:58:16	681775	6.6.1	4_exp_EVA_AWA_CON	51	B	A	Rpleas_acq	Same	Rpleas	2pleas	acq_US_pleas_nomask	acq45_nomask	4	11	400	0	300	300	0	0	267	46	0	0	treu	schlau	retten	tolerant	spielen	fair	tot	schroff	rächen	tyrannisch	strafen	faul	freundlich	ehrlich	loyal	lachen	helfen	schön	fanatisch	eitel	lasch	leiden	hindern	schlecht	1	blank2r.bmp	0	1	+	0	1	blank2r.bmp	500	1	GKQX	500	1	blank2r.bmp	880	5	spielen	880	1	!	-1	1	!	-1	0	0	0	0	0	0
2024-05-27	12:46:53	12:58:18	684063	6.6.1	4_exp_EVA_AWA_CON	51	B	A	Rpleas_acq	Same	Rpleas	2pleas	acq_US_unple_nomask	acq45_nomask	4	12	400	0	300	300	0	0	513	46	1	0	treu	schlau	retten	tolerant	spielen	fair	tot	schroff	rächen	tyrannisch	strafen	faul	freundlich	ehrlich	loyal	lachen	helfen	schön	fanatisch	eitel	lasch	leiden	hindern	schlecht	1	blank2r.bmp	0	1	+	0	1	blank2r.bmp	500	1	BMVZ	500	1	blank2r.bmp	880	2	schroff	880	1	!	1232	1	!	-1	0	0	0	0	0	0
2024-05-27	12:46:53	12:58:20	686225	6.6.1	4_exp_EVA_AWA_CON	51	B	A	Rpleas_acq	Same	Rpleas	2pleas	acq_US_pleas_nomask	acq45_nomask	4	13	400	1	300	300	0	0	382	50	1	0	treu	schlau	retten	tolerant	spielen	fair	tot	schroff	rächen	tyrannisch	strafen	faul	freundlich	ehrlich	loyal	lachen	helfen	schön	fanatisch	eitel	lasch	leiden	hindern	schlecht	1	blank2r.bmp	0	1	+	0	1	blank2r.bmp	500	1	GKQX	500	1	blank2r.bmp	880	4	tolerant	880	1	!	1232	1	!	1283	0	0	0	0	0	0
2024-05-27	12:46:53	12:58:22	688327	6.6.1	4_exp_EVA_AWA_CON	51	B	A	Rpleas_acq	Same	Rpleas	2pleas	acq_US_pleas_nomask	acq45_nomask	4	14	400	0	300	300	0	0	324	50	1	0	treu	schlau	retten	tolerant	spielen	fair	tot	schroff	rächen	tyrannisch	strafen	faul	freundlich	ehrlich	loyal	lachen	helfen	schön	fanatisch	eitel	lasch	leiden	hindern	schlecht	1	blank2r.bmp	0	1	+	0	1	blank2r.bmp	500	1	GKQX	500	1	blank2r.bmp	880	6	fair	880	1	!	-1	1	!	-1	0	0	0	0	0	0
2024-05-27	12:46:53	12:58:24	690439	6.6.1	4_exp_EVA_AWA_CON	51	B	A	Rpleas_acq	Same	Rpleas	2pleas	acq_US_unple_nomask	acq45_nomask	4	15	400	1	300	300	0	0	335	46	1	0	treu	schlau	retten	tolerant	spielen	fair	tot	schroff	rächen	tyrannisch	strafen	faul	freundlich	ehrlich	loyal	lachen	helfen	schön	fanatisch	eitel	lasch	leiden	hindern	schlecht	1	blank2r.bmp	0	1	+	0	1	blank2r.bmp	500	1	BMVZ	500	1	blank2r.bmp	880	5	strafen	880	1	!	1232	1	!	1234	0	0	0	0	0	0
2024-05-27	12:46:53	12:58:26	692657	6.6.1	4_exp_EVA_AWA_CON	51	B	A	Rpleas_acq	Same	Rpleas	2pleas	acq_US_unple_nomask	acq45_nomask	4	16	400	1	300	300	0	0	440	50	0	0	treu	schlau	retten	tolerant	spielen	fair	tot	schroff	rächen	tyrannisch	strafen	faul	freundlich	ehrlich	loyal	lachen	helfen	schön	fanatisch	eitel	lasch	leiden	hindern	schlecht	1	blank2r.bmp	0	1	+	0	1	blank2r.bmp	500	1	BMVZ	500	1	blank2r.bmp	880	2	schroff	880	1	!	1232	1	!	1341	0	0	0	0	0	0
2024-05-27	12:46:53	12:58:28	694639	6.6.1	4_exp_EVA_AWA_CON	51	B	A	Rpleas_acq	Same	Rpleas	2pleas	acq_US_pleas_nomask	acq45_nomask	4	17	400	0	300	300	0	0	202	50	1	0	treu	schlau	retten	tolerant	spielen	fair	tot	schroff	rächen	tyrannisch	strafen	faul	freundlich	ehrlich	loyal	lachen	helfen	schön	fanatisch	eitel	lasch	leiden	hindern	schlecht	1	blank2r.bmp	0	1	+	0	1	blank2r.bmp	500	1	GKQX	500	1	blank2r.bmp	880	5	spielen	880	1	!	-1	1	!	-1	0	0	0	0	0	0
2024-05-27	12:46:53	12:58:31	696841	6.6.1	4_exp_EVA_AWA_CON	51	B	A	Rpleas_acq	Same	Rpleas	2pleas	acq_US_unple_nomask	acq45_nomask	4	18	400	1	300	300	0	0	421	50	0	0	treu	schlau	retten	tolerant	spielen	fair	tot	schroff	rächen	tyrannisch	strafen	faul	freundlich	ehrlich	loyal	lachen	helfen	schön	fanatisch	eitel	lasch	leiden	hindern	schlecht	1	blank2r.bmp	0	1	+	0	1	blank2r.bmp	500	1	BMVZ	500	1	blank2r.bmp	880	6	faul	880	1	!	1232	1	!	1322	0	0	0	0	0	0
2024-05-27	12:46:53	12:58:33	699025	6.6.1	4_exp_EVA_AWA_CON	51	B	A	Rpleas_acq	Same	Rpleas	2pleas	acq_US_unple_nomask	acq45_nomask	4	19	400	1	300	300	0	0	403	46	1	0	treu	schlau	retten	tolerant	spielen	fair	tot	schroff	rächen	tyrannisch	strafen	faul	freundlich	ehrlich	loyal	lachen	helfen	schön	fanatisch	eitel	lasch	leiden	hindern	schlecht	1	blank2r.bmp	0	1	+	0	1	blank2r.bmp	500	1	BMVZ	500	1	blank2r.bmp	880	4	tyrannisch	880	1	!	1232	1	!	1304	0	0	0	0	0	0
2024-05-27	12:46:53	12:58:35	701274	6.6.1	4_exp_EVA_AWA_CON	51	B	A	Rpleas_acq	Same	Rpleas	2pleas	acq_US_pleas_nomask	acq45_nomask	4	20	400	1	300	300	0	0	470	50	1	0	treu	schlau	retten	tolerant	spielen	fair	tot	schroff	rächen	tyrannisch	strafen	faul	freundlich	ehrlich	loyal	lachen	helfen	schön	fanatisch	eitel	lasch	leiden	hindern	schlecht	1	blank2r.bmp	0	1	+	0	1	blank2r.bmp	500	1	GKQX	500	1	blank2r.bmp	880	2	schlau	880	1	!	1232	1	!	1372	0	0	0	0	0	0
2024-05-27	12:46:53	12:58:37	703449	6.6.1	4_exp_EVA_AWA_CON	51	B	A	Rpleas_acq	Same	Rpleas	2pleas	acq_US_unple_nomask	acq45_nomask	4	21	400	1	300	300	0	0	395	46	1	0	treu	schlau	retten	tolerant	spielen	fair	tot	schroff	rächen	tyrannisch	strafen	faul	freundlich	ehrlich	loyal	lachen	helfen	schön	fanatisch	eitel	lasch	leiden	hindern	schlecht	1	blank2r.bmp	0	1	+	0	1	blank2r.bmp	500	1	BMVZ	500	1	blank2r.bmp	880	1	tot	880	1	!	1233	1	!	1296	0	0	0	0	0	0
2024-05-27	12:46:53	12:58:39	705727	6.6.1	4_exp_EVA_AWA_CON	51	B	A	Rpleas_acq	Same	Rpleas	2pleas	acq_US_pleas_nomask	acq45_nomask	4	22	400	0	300	300	0	0	503	50	1	0	treu	schlau	retten	tolerant	spielen	fair	tot	schroff	rächen	tyrannisch	strafen	faul	freundlich	ehrlich	loyal	lachen	helfen	schön	fanatisch	eitel	lasch	leiden	hindern	schlecht	1	blank2r.bmp	0	1	+	0	1	blank2r.bmp	500	1	GKQX	500	1	blank2r.bmp	880	1	treu	880	1	!	1232	1	!	-1	0	0	0	0	0	0
2024-05-27	12:46:53	12:58:42	707865	6.6.1	4_exp_EVA_AWA_CON	51	B	A	Rpleas_acq	Same	Rpleas	2pleas	acq_US_unple_nomask	acq45_nomask	4	23	400	1	300	300	0	0	358	46	1	0	treu	schlau	retten	tolerant	spielen	fair	tot	schroff	rächen	tyrannisch	strafen	faul	freundlich	ehrlich	loyal	lachen	helfen	schön	fanatisch	eitel	lasch	leiden	hindern	schlecht	1	blank2r.bmp	0	1	+	0	1	blank2r.bmp	500	1	BMVZ	500	1	blank2r.bmp	880	3	rächen	880	1	!	1232	1	!	1259	0	0	0	0	0	0
2024-05-27	12:46:53	12:58:44	710033	6.6.1	4_exp_EVA_AWA_CON	51	B	A	Rpleas_acq	Same	Rpleas	2pleas	acq_US_unple_nomask	acq45_nomask	4	24	400	1	300	300	0	0	384	50	0	0	treu	schlau	retten	tolerant	spielen	fair	tot	schroff	rächen	tyrannisch	strafen	faul	freundlich	ehrlich	loyal	lachen	helfen	schön	fanatisch	eitel	lasch	leiden	hindern	schlecht	1	blank2r.bmp	0	1	+	0	1	blank2r.bmp	500	1	BMVZ	500	1	blank2r.bmp	880	3	rächen	880	1	!	1232	1	!	1285	0	0	0	0	0	0
2024-05-27	12:46:53	12:58:46	712063	6.6.1	4_exp_EVA_AWA_CON	51	B	A	Rpleas_acq	Same	Rpleas	2pleas	acq_US_unple_nomask	acq45_nomask	4	25	400	0	300	300	0	0	255	46	1	0	treu	schlau	retten	tolerant	spielen	fair	tot	schroff	rächen	tyrannisch	strafen	faul	freundlich	ehrlich	loyal	lachen	helfen	schön	fanatisch	eitel	lasch	leiden	hindern	schlecht	1	blank2r.bmp	0	1	+	0	1	blank2r.bmp	500	1	BMVZ	500	1	blank2r.bmp	880	1	tot	880	1	!	-1	1	!	-1	0	0	0	0	0	0
2024-05-27	12:46:53	12:58:48	714023	6.6.1	4_exp_EVA_AWA_CON	51	B	A	Rpleas_acq	Same	Rpleas	2pleas	acq_US_unple_nomask	acq45_nomask	4	26	400	0	300	300	0	0	183	46	1	0	treu	schlau	retten	tolerant	spielen	fair	tot	schroff	rächen	tyrannisch	strafen	faul	freundlich	ehrlich	loyal	lachen	helfen	schön	fanatisch	eitel	lasch	leiden	hindern	schlecht	1	blank2r.bmp	0	1	+	0	1	blank2r.bmp	500	1	BMVZ	500	1	blank2r.bmp	880	6	faul	880	1	!	-1	1	!	-1	0	0	0	0	0	0
2024-05-27	12:46:53	12:58:50	715839	6.6.1	4_exp_EVA_AWA_CON	51	B	A	Rpleas_acq	Same	Rpleas	2pleas	acq_US_pleas_nomask	acq45_nomask	4	27	400	0	300	300	0	0	38	46	0	0	treu	schlau	retten	tolerant	spielen	fair	tot	schroff	rächen	tyrannisch	strafen	faul	freundlich	ehrlich	loyal	lachen	helfen	schön	fanatisch	eitel	lasch	leiden	hindern	schlecht	1	blank2r.bmp	0	1	+	0	1	blank2r.bmp	500	1	GKQX	500	1	blank2r.bmp	880	3	retten	880	1	!	-1	1	!	-1	0	0	0	0	0	0
2024-05-27	12:46:53	12:58:52	718065	6.6.1	4_exp_EVA_AWA_CON	51	B	A	Rpleas_acq	Same	Rpleas	2pleas	acq_US_pleas_nomask	acq45_nomask	4	28	400	1	300	300	0	0	451	50	1	0	treu	schlau	retten	tolerant	spielen	fair	tot	schroff	rächen	tyrannisch	strafen	faul	freundlich	ehrlich	loyal	lachen	helfen	schön	fanatisch	eitel	lasch	leiden	hindern	schlecht	1	blank2r.bmp	0	1	+	0	1	blank2r.bmp	500	1	GKQX	500	1	blank2r.bmp	880	4	tolerant	880	1	!	1232	1	!	1353	0	0	0	0	0	0
2024-05-27	12:46:53	12:58:54	720391	6.6.1	4_exp_EVA_AWA_CON	51	B	A	Rpleas_acq	Same	Rpleas	2pleas	acq_US_pleas_nomask	acq45_nomask	4	29	400	0	300	300	0	0	548	50	1	0	treu	schlau	retten	tolerant	spielen	fair	tot	schroff	rächen	tyrannisch	strafen	faul	freundlich	ehrlich	loyal	lachen	helfen	schön	fanatisch	eitel	lasch	leiden	hindern	schlecht	1	blank2r.bmp	0	1	+	0	1	blank2r.bmp	500	1	GKQX	500	1	blank2r.bmp	880	6	fair	880	1	!	1232	1	!	-1	0	0	0	0	0	0
2024-05-27	12:46:53	12:58:56	722569	6.6.1	4_exp_EVA_AWA_CON	51	B	A	Rpleas_acq	Same	Rpleas	2pleas	acq_US_pleas_nomask	acq45_nomask	4	30	400	1	300	300	0	0	402	50	1	0	treu	schlau	retten	tolerant	spielen	fair	tot	schroff	rächen	tyrannisch	strafen	faul	freundlich	ehrlich	loyal	lachen	helfen	schön	fanatisch	eitel	lasch	leiden	hindern	schlecht	1	blank2r.bmp	0	1	+	0	1	blank2r.bmp	500	1	GKQX	500	1	blank2r.bmp	880	1	treu	880	1	!	1232	1	!	1303	0	0	0	0	0	0
2024-05-27	12:46:53	12:58:58	724608	6.6.1	4_exp_EVA_AWA_CON	51	B	A	Rpleas_acq	Same	Rpleas	2pleas	acq_US_unple_nomask	acq45_nomask	4	31	400	0	300	300	0	0	261	46	1	0	treu	schlau	retten	tolerant	spielen	fair	tot	schroff	rächen	tyrannisch	strafen	faul	freundlich	ehrlich	loyal	lachen	helfen	schön	fanatisch	eitel	lasch	leiden	hindern	schlecht	1	blank2r.bmp	0	1	+	0	1	blank2r.bmp	500	1	BMVZ	500	1	blank2r.bmp	880	4	tyrannisch	880	1	!	-1	1	!	-1	0	0	0	0	0	0
2024-05-27	12:46:53	12:59:00	726664	6.6.1	4_exp_EVA_AWA_CON	51	B	A	Rpleas_acq	Same	Rpleas	2pleas	acq_US_pleas_nomask	acq45_nomask	4	32	400	0	300	300	0	0	275	50	1	0	treu	schlau	retten	tolerant	spielen	fair	tot	schroff	rächen	tyrannisch	strafen	faul	freundlich	ehrlich	loyal	lachen	helfen	schön	fanatisch	eitel	lasch	leiden	hindern	schlecht	1	blank2r.bmp	0	1	+	0	1	blank2r.bmp	500	1	GKQX	500	1	blank2r.bmp	880	2	schlau	880	1	!	-1	1	!	-1	0	0	0	0	0	0
2024-05-27	12:46:53	12:59:02	728688	6.6.1	4_exp_EVA_AWA_CON	51	B	A	Rpleas_acq	Same	Rpleas	2pleas	acq_US_unple_nomask	acq45_nomask	4	33	400	0	300	300	0	0	248	46	1	0	treu	schlau	retten	tolerant	spielen	fair	tot	schroff	rächen	tyrannisch	strafen	faul	freundlich	ehrlich	loyal	lachen	helfen	schön	fanatisch	eitel	lasch	leiden	hindern	schlecht	1	blank2r.bmp	0	1	+	0	1	blank2r.bmp	500	1	BMVZ	500	1	blank2r.bmp	880	5	strafen	880	1	!	-1	1	!	-1	0	0	0	0	0	0
2024-05-27	12:46:53	12:59:05	730792	6.6.1	4_exp_EVA_AWA_CON	51	B	A	Rpleas_acq	Same	Rpleas	2pleas	acq_US_unple_nomask	acq45_nomask	4	34	400	0	300	300	0	0	331	50	0	0	treu	schlau	retten	tolerant	spielen	fair	tot	schroff	rächen	tyrannisch	strafen	faul	freundlich	ehrlich	loyal	lachen	helfen	schön	fanatisch	eitel	lasch	leiden	hindern	schlecht	1	blank2r.bmp	0	1	+	0	1	blank2r.bmp	500	1	BMVZ	500	1	blank2r.bmp	880	2	schroff	880	1	!	-1	1	!	-1	0	0	0	0	0	0
2024-05-27	12:46:53	12:59:07	732864	6.6.1	4_exp_EVA_AWA_CON	51	B	A	Rpleas_acq	Same	Rpleas	2pleas	acq_US_pleas_nomask	acq45_nomask	4	35	400	0	300	300	0	0	291	46	0	0	treu	schlau	retten	tolerant	spielen	fair	tot	schroff	rächen	tyrannisch	strafen	faul	freundlich	ehrlich	loyal	lachen	helfen	schön	fanatisch	eitel	lasch	leiden	hindern	schlecht	1	blank2r.bmp	0	1	+	0	1	blank2r.bmp	500	1	GKQX	500	1	blank2r.bmp	880	5	spielen	880	1	!	-1	1	!	-1	0	0	0	0	0	0
2024-05-27	12:46:53	12:59:09	734984	6.6.1	4_exp_EVA_AWA_CON	51	B	A	Rpleas_acq	Same	Rpleas	2pleas	acq_US_pleas_nomask	acq45_nomask	4	36	400	1	300	300	0	0	340	50	1	0	treu	schlau	retten	tolerant	spielen	fair	tot	schroff	rächen	tyrannisch	strafen	faul	freundlich	ehrlich	loyal	lachen	helfen	schön	fanatisch	eitel	lasch	leiden	hindern	schlecht	1	blank2r.bmp	0	1	+	0	1	blank2r.bmp	500	1	GKQX	500	1	blank2r.bmp	880	3	retten	880	1	!	1232	1	!	1239	0	0	0	0	0	0
2024-05-27	12:46:53	12:59:47	773487	6.6.1	4_exp_EVA_AWA_CON	51	B	A	Rpleas_acq	Same	Rpleas	2pleas	acq_US_pleas_nomask	acq45_nomask	5	1	400	0	300	300	0	0	329	50	1	0	treu	schlau	retten	tolerant	spielen	fair	tot	schroff	rächen	tyrannisch	strafen	faul	freundlich	ehrlich	loyal	lachen	helfen	schön	fanatisch	eitel	lasch	leiden	hindern	schlecht	1	blank2r.bmp	0	1	+	0	1	blank2r.bmp	500	1	GKQX	500	1	blank2r.bmp	880	6	fair	880	1	!	-1	1	!	-1	0	0	0	0	0	0
2024-05-27	12:46:53	12:59:50	775783	6.6.1	4_exp_EVA_AWA_CON	51	B	A	Rpleas_acq	Same	Rpleas	2pleas	acq_US_pleas_nomask	acq45_nomask	5	2	400	0	300	300	0	0	523	50	1	0	treu	schlau	retten	tolerant	spielen	fair	tot	schroff	rächen	tyrannisch	strafen	faul	freundlich	ehrlich	loyal	lachen	helfen	schön	fanatisch	eitel	lasch	leiden	hindern	schlecht	1	blank2r.bmp	0	1	+	0	1	blank2r.bmp	500	1	GKQX	500	1	blank2r.bmp	880	3	retten	880	1	!	1232	1	!	-1	0	0	0	0	0	0
2024-05-27	12:46:53	12:59:52	777969	6.6.1	4_exp_EVA_AWA_CON	51	B	A	Rpleas_acq	Same	Rpleas	2pleas	acq_US_unple_nomask	acq45_nomask	5	3	400	1	300	300	0	0	406	46	1	0	treu	schlau	retten	tolerant	spielen	fair	tot	schroff	rächen	tyrannisch	strafen	faul	freundlich	ehrlich	loyal	lachen	helfen	schön	fanatisch	eitel	lasch	leiden	hindern	schlecht	1	blank2r.bmp	0	1	+	0	1	blank2r.bmp	500	1	BMVZ	500	1	blank2r.bmp	880	4	tyrannisch	880	1	!	1232	1	!	1307	0	0	0	0	0	0
2024-05-27	12:46:53	12:59:54	780089	6.6.1	4_exp_EVA_AWA_CON	51	B	A	Rpleas_acq	Same	Rpleas	2pleas	acq_US_unple_nomask	acq45_nomask	5	4	400	1	300	300	0	0	344	46	1	0	treu	schlau	retten	tolerant	spielen	fair	tot	schroff	rächen	tyrannisch	strafen	faul	freundlich	ehrlich	loyal	lachen	helfen	schön	fanatisch	eitel	lasch	leiden	hindern	schlecht	1	blank2r.bmp	0	1	+	0	1	blank2r.bmp	500	1	BMVZ	500	1	blank2r.bmp	880	5	strafen	880	1	!	1232	1	!	1246	0	0	0	0	0	0
2024-05-27	12:46:53	12:59:56	782233	6.6.1	4_exp_EVA_AWA_CON	51	B	A	Rpleas_acq	Same	Rpleas	2pleas	acq_US_pleas_nomask	acq45_nomask	5	5	400	1	300	300	0	0	367	46	0	0	treu	schlau	retten	tolerant	spielen	fair	tot	schroff	rächen	tyrannisch	strafen	faul	freundlich	ehrlich	loyal	lachen	helfen	schön	fanatisch	eitel	lasch	leiden	hindern	schlecht	1	blank2r.bmp	0	1	+	0	1	blank2r.bmp	500	1	GKQX	500	1	blank2r.bmp	880	4	tolerant	880	1	!	1232	1	!	1268	0	0	0	0	0	0
2024-05-27	12:46:53	12:59:58	784417	6.6.1	4_exp_EVA_AWA_CON	51	B	A	Rpleas_acq	Same	Rpleas	2pleas	acq_US_pleas_nomask	acq45_nomask	5	6	400	1	300	300	0	0	410	50	1	0	treu	schlau	retten	tolerant	spielen	fair	tot	schroff	rächen	tyrannisch	strafen	faul	freundlich	ehrlich	loyal	lachen	helfen	schön	fanatisch	eitel	lasch	leiden	hindern	schlecht	1	blank2r.bmp	0	1	+	0	1	blank2r.bmp	500	1	GKQX	500	1	blank2r.bmp	880	2	schlau	880	1	!	1232	1	!	1311	0	0	0	0	0	0
2024-05-27	12:46:53	13:00:00	786480	6.6.1	4_exp_EVA_AWA_CON	51	B	A	Rpleas_acq	Same	Rpleas	2pleas	acq_US_pleas_nomask	acq45_nomask	5	7	400	0	300	300	0	0	282	46	0	0	treu	schlau	retten	tolerant	spielen	fair	tot	schroff	rächen	tyrannisch	strafen	faul	freundlich	ehrlich	loyal	lachen	helfen	schön	fanatisch	eitel	lasch	leiden	hindern	schlecht	1	blank2r.bmp	0	1	+	0	1	blank2r.bmp	500	1	GKQX	500	1	blank2r.bmp	880	1	treu	880	1	!	-1	1	!	-1	0	0	0	0	0	0
2024-05-27	12:46:53	13:00:03	788783	6.6.1	4_exp_EVA_AWA_CON	51	B	A	Rpleas_acq	Same	Rpleas	2pleas	acq_US_unple_nomask	acq45_nomask	5	8	400	0	300	300	0	0	525	46	1	0	treu	schlau	retten	tolerant	spielen	fair	tot	schroff	rächen	tyrannisch	strafen	faul	freundlich	ehrlich	loyal	lachen	helfen	schön	fanatisch	eitel	lasch	leiden	hindern	schlecht	1	blank2r.bmp	0	1	+	0	1	blank2r.bmp	500	1	BMVZ	500	1	blank2r.bmp	880	1	tot	880	1	!	1233	1	!	-1	0	0	0	0	0	0
2024-05-27	12:46:53	13:00:05	790864	6.6.1	4_exp_EVA_AWA_CON	51	B	A	Rpleas_acq	Same	Rpleas	2pleas	acq_US_unple_nomask	acq45_nomask	5	9	400	0	300	300	0	0	303	46	1	0	treu	schlau	retten	tolerant	spielen	fair	tot	schroff	rächen	tyrannisch	strafen	faul	freundlich	ehrlich	loyal	lachen	helfen	schön	fanatisch	eitel	lasch	leiden	hindern	schlecht	1	blank2r.bmp	0	1	+	0	1	blank2r.bmp	500	1	BMVZ	500	1	blank2r.bmp	880	6	faul	880	1	!	-1	1	!	-1	0	0	0	0	0	0
2024-05-27	12:46:53	13:00:07	793057	6.6.1	4_exp_EVA_AWA_CON	51	B	A	Rpleas_acq	Same	Rpleas	2pleas	acq_US_unple_nomask	acq45_nomask	5	10	400	1	300	300	0	0	414	46	1	0	treu	schlau	retten	tolerant	spielen	fair	tot	schroff	rächen	tyrannisch	strafen	faul	freundlich	ehrlich	loyal	lachen	helfen	schön	fanatisch	eitel	lasch	leiden	hindern	schlecht	1	blank2r.bmp	0	1	+	0	1	blank2r.bmp	500	1	BMVZ	500	1	blank2r.bmp	880	3	rächen	880	1	!	1232	1	!	1315	0	0	0	0	0	0
2024-05-27	12:46:53	13:00:09	795241	6.6.1	4_exp_EVA_AWA_CON	51	B	A	Rpleas_acq	Same	Rpleas	2pleas	acq_US_pleas_nomask	acq45_nomask	5	11	400	1	300	300	0	0	407	50	1	0	treu	schlau	retten	tolerant	spielen	fair	tot	schroff	rächen	tyrannisch	strafen	faul	freundlich	ehrlich	loyal	lachen	helfen	schön	fanatisch	eitel	lasch	leiden	hindern	schlecht	1	blank2r.bmp	0	1	+	0	1	blank2r.bmp	500	1	GKQX	500	1	blank2r.bmp	880	5	spielen	880	1	!	1232	1	!	1308	0	0	0	0	0	0
2024-05-27	12:46:53	13:00:11	797473	6.6.1	4_exp_EVA_AWA_CON	51	B	A	Rpleas_acq	Same	Rpleas	2pleas	acq_US_pleas_nomask	acq45_nomask	5	12	400	1	300	300	0	0	457	46	0	0	treu	schlau	retten	tolerant	spielen	fair	tot	schroff	rächen	tyrannisch	strafen	faul	freundlich	ehrlich	loyal	lachen	helfen	schön	fanatisch	eitel	lasch	leiden	hindern	schlecht	1	blank2r.bmp	0	1	+	0	1	blank2r.bmp	500	1	GKQX	500	1	blank2r.bmp	880	3	retten	880	1	!	1233	1	!	1358	0	0	0	0	0	0
2024-05-27	12:46:53	13:00:13	799681	6.6.1	4_exp_EVA_AWA_CON	51	B	A	Rpleas_acq	Same	Rpleas	2pleas	acq_US_unple_nomask	acq45_nomask	5	13	400	1	300	300	0	0	434	46	1	0	treu	schlau	retten	tolerant	spielen	fair	tot	schroff	rächen	tyrannisch	strafen	faul	freundlich	ehrlich	loyal	lachen	helfen	schön	fanatisch	eitel	lasch	leiden	hindern	schlecht	1	blank2r.bmp	0	1	+	0	1	blank2r.bmp	500	1	BMVZ	500	1	blank2r.bmp	880	2	schroff	880	1	!	1232	1	!	1335	0	0	0	0	0	0
2024-05-27	12:46:53	13:00:16	801841	6.6.1	4_exp_EVA_AWA_CON	51	B	A	Rpleas_acq	Same	Rpleas	2pleas	acq_US_unple_nomask	acq45_nomask	5	14	400	1	300	300	0	0	382	50	0	0	treu	schlau	retten	tolerant	spielen	fair	tot	schroff	rächen	tyrannisch	strafen	faul	freundlich	ehrlich	loyal	lachen	helfen	schön	fanatisch	eitel	lasch	leiden	hindern	schlecht	1	blank2r.bmp	0	1	+	0	1	blank2r.bmp	500	1	BMVZ	500	1	blank2r.bmp	880	1	tot	880	1	!	1233	1	!	1283	0	0	0	0	0	0
2024-05-27	12:46:53	13:00:18	804033	6.6.1	4_exp_EVA_AWA_CON	51	B	A	Rpleas_acq	Same	Rpleas	2pleas	acq_US_pleas_nomask	acq45_nomask	5	15	400	1	300	300	0	0	413	50	1	0	treu	schlau	retten	tolerant	spielen	fair	tot	schroff	rächen	tyrannisch	strafen	faul	freundlich	ehrlich	loyal	lachen	helfen	schön	fanatisch	eitel	lasch	leiden	hindern	schlecht	1	blank2r.bmp	0	1	+	0	1	blank2r.bmp	500	1	GKQX	500	1	blank2r.bmp	880	2	schlau	880	1	!	1232	1	!	1314	0	0	0	0	0	0
2024-05-27	12:46:53	13:00:20	806217	6.6.1	4_exp_EVA_AWA_CON	51	B	A	Rpleas_acq	Same	Rpleas	2pleas	acq_US_unple_nomask	acq45_nomask	5	16	400	1	300	300	0	0	405	46	1	0	treu	schlau	retten	tolerant	spielen	fair	tot	schroff	rächen	tyrannisch	strafen	faul	freundlich	ehrlich	loyal	lachen	helfen	schön	fanatisch	eitel	lasch	leiden	hindern	schlecht	1	blank2r.bmp	0	1	+	0	1	blank2r.bmp	500	1	BMVZ	500	1	blank2r.bmp	880	6	faul	880	1	!	1232	1	!	1307	0	0	0	0	0	0
2024-05-27	12:46:53	13:00:22	808479	6.6.1	4_exp_EVA_AWA_CON	51	B	A	Rpleas_acq	Same	Rpleas	2pleas	acq_US_unple_nomask	acq45_nomask	5	17	400	0	300	300	0	0	488	46	1	0	treu	schlau	retten	tolerant	spielen	fair	tot	schroff	rächen	tyrannisch	strafen	faul	freundlich	ehrlich	loyal	lachen	helfen	schön	fanatisch	eitel	lasch	leiden	hindern	schlecht	1	blank2r.bmp	0	1	+	0	1	blank2r.bmp	500	1	BMVZ	500	1	blank2r.bmp	880	3	rächen	880	1	!	1232	1	!	-1	0	0	0	0	0	0
2024-05-27	12:46:53	13:00:24	810657	6.6.1	4_exp_EVA_AWA_CON	51	B	A	Rpleas_acq	Same	Rpleas	2pleas	acq_US_pleas_nomask	acq45_nomask	5	18	400	1	300	300	0	0	402	50	1	0	treu	schlau	retten	tolerant	spielen	fair	tot	schroff	rächen	tyrannisch	strafen	faul	freundlich	ehrlich	loyal	lachen	helfen	schön	fanatisch	eitel	lasch	leiden	hindern	schlecht	1	blank2r.bmp	0	1	+	0	1	blank2r.bmp	500	1	GKQX	500	1	blank2r.bmp	880	5	spielen	880	1	!	1232	1	!	1303	0	0	0	0	0	0
2024-05-27	12:46:53	13:00:27	813023	6.6.1	4_exp_EVA_AWA_CON	51	B	A	Rpleas_acq	Same	Rpleas	2pleas	acq_US_pleas_nomask	acq45_nomask	5	19	400	0	300	300	0	0	589	46	0	0	treu	schlau	retten	tolerant	spielen	fair	tot	schroff	rächen	tyrannisch	strafen	faul	freundlich	ehrlich	loyal	lachen	helfen	schön	fanatisch	eitel	lasch	leiden	hindern	schlecht	1	blank2r.bmp	0	1	+	0	1	blank2r.bmp	500	1	GKQX	500	1	blank2r.bmp	880	4	tolerant	880	1	!	1232	1	!	-1	0	0	0	0	0	0
2024-05-27	12:46:53	13:00:29	815169	6.6.1	4_exp_EVA_AWA_CON	51	B	A	Rpleas_acq	Same	Rpleas	2pleas	acq_US_unple_nomask	acq45_nomask	5	20	400	1	300	300	0	0	372	46	1	0	treu	schlau	retten	tolerant	spielen	fair	tot	schroff	rächen	tyrannisch	strafen	faul	freundlich	ehrlich	loyal	lachen	helfen	schön	fanatisch	eitel	lasch	leiden	hindern	schlecht	1	blank2r.bmp	0	1	+	0	1	blank2r.bmp	500	1	BMVZ	500	1	blank2r.bmp	880	4	tyrannisch	880	1	!	1232	1	!	1272	0	0	0	0	0	0
2024-05-27	12:46:53	13:00:31	817271	6.6.1	4_exp_EVA_AWA_CON	51	B	A	Rpleas_acq	Same	Rpleas	2pleas	acq_US_pleas_nomask	acq45_nomask	5	21	400	0	300	300	0	0	324	50	1	0	treu	schlau	retten	tolerant	spielen	fair	tot	schroff	rächen	tyrannisch	strafen	faul	freundlich	ehrlich	loyal	lachen	helfen	schön	fanatisch	eitel	lasch	leiden	hindern	schlecht	1	blank2r.bmp	0	1	+	0	1	blank2r.bmp	500	1	GKQX	500	1	blank2r.bmp	880	6	fair	880	1	!	-1	1	!	-1	0	0	0	0	0	0
2024-05-27	12:46:53	13:00:33	819457	6.6.1	4_exp_EVA_AWA_CON	51	B	A	Rpleas_acq	Same	Rpleas	2pleas	acq_US_unple_nomask	acq45_nomask	5	22	400	1	300	300	0	0	407	46	1	0	treu	schlau	retten	tolerant	spielen	fair	tot	schroff	rächen	tyrannisch	strafen	faul	freundlich	ehrlich	loyal	lachen	helfen	schön	fanatisch	eitel	lasch	leiden	hindern	schlecht	1	blank2r.bmp	0	1	+	0	1	blank2r.bmp	500	1	BMVZ	500	1	blank2r.bmp	880	5	strafen	880	1	!	1232	1	!	1308	0	0	0	0	0	0
2024-05-27	12:46:53	13:00:35	821609	6.6.1	4_exp_EVA_AWA_CON	51	B	A	Rpleas_acq	Same	Rpleas	2pleas	acq_US_unple_nomask	acq45_nomask	5	23	400	1	300	300	0	0	377	50	0	0	treu	schlau	retten	tolerant	spielen	fair	tot	schroff	rächen	tyrannisch	strafen	faul	freundlich	ehrlich	loyal	lachen	helfen	schön	fanatisch	eitel	lasch	leiden	hindern	schlecht	1	blank2r.bmp	0	1	+	0	1	blank2r.bmp	500	1	BMVZ	500	1	blank2r.bmp	880	2	schroff	880	1	!	1232	1	!	1278	0	0	0	0	0	0
2024-05-27	12:46:53	13:00:38	823729	6.6.1	4_exp_EVA_AWA_CON	51	B	A	Rpleas_acq	Same	Rpleas	2pleas	acq_US_unple_nomask	acq45_nomask	5	24	400	1	300	300	0	0	346	50	0	0	treu	schlau	retten	tolerant	spielen	fair	tot	schroff	rächen	tyrannisch	strafen	faul	freundlich	ehrlich	loyal	lachen	helfen	schön	fanatisch	eitel	lasch	leiden	hindern	schlecht	1	blank2r.bmp	0	1	+	0	1	blank2r.bmp	500	1	BMVZ	500	1	blank2r.bmp	880	5	strafen	880	1	!	1232	1	!	1247	0	0	0	0	0	0
2024-05-27	12:46:53	13:00:40	825914	6.6.1	4_exp_EVA_AWA_CON	51	B	A	Rpleas_acq	Same	Rpleas	2pleas	acq_US_unple_nomask	acq45_nomask	5	25	400	1	300	300	0	0	409	46	1	0	treu	schlau	retten	tolerant	spielen	fair	tot	schroff	rächen	tyrannisch	strafen	faul	freundlich	ehrlich	loyal	lachen	helfen	schön	fanatisch	eitel	lasch	leiden	hindern	schlecht	1	blank2r.bmp	0	1	+	0	1	blank2r.bmp	500	1	BMVZ	500	1	blank2r.bmp	880	3	rächen	880	1	!	1232	1	!	1310	0	0	0	0	0	0
2024-05-27	12:46:53	13:00:42	828199	6.6.1	4_exp_EVA_AWA_CON	51	B	A	Rpleas_acq	Same	Rpleas	2pleas	acq_US_unple_nomask	acq45_nomask	5	26	400	0	300	300	0	0	505	46	1	0	treu	schlau	retten	tolerant	spielen	fair	tot	schroff	rächen	tyrannisch	strafen	faul	freundlich	ehrlich	loyal	lachen	helfen	schön	fanatisch	eitel	lasch	leiden	hindern	schlecht	1	blank2r.bmp	0	1	+	0	1	blank2r.bmp	500	1	BMVZ	500	1	blank2r.bmp	880	6	faul	880	1	!	1232	1	!	-1	0	0	0	0	0	0
2024-05-27	12:46:53	13:00:44	830433	6.6.1	4_exp_EVA_AWA_CON	51	B	A	Rpleas_acq	Same	Rpleas	2pleas	acq_US_pleas_nomask	acq45_nomask	5	27	400	1	300	300	0	0	456	50	1	0	treu	schlau	retten	tolerant	spielen	fair	tot	schroff	rächen	tyrannisch	strafen	faul	freundlich	ehrlich	loyal	lachen	helfen	schön	fanatisch	eitel	lasch	leiden	hindern	schlecht	1	blank2r.bmp	0	1	+	0	1	blank2r.bmp	500	1	GKQX	500	1	blank2r.bmp	880	1	treu	880	1	!	1232	1	!	1357	0	0	0	0	0	0
2024-05-27	12:46:53	13:00:46	832641	6.6.1	4_exp_EVA_AWA_CON	51	B	A	Rpleas_acq	Same	Rpleas	2pleas	acq_US_unple_nomask	acq45_nomask	5	28	400	1	300	300	0	0	432	46	1	0	treu	schlau	retten	tolerant	spielen	fair	tot	schroff	rächen	tyrannisch	strafen	faul	freundlich	ehrlich	loyal	lachen	helfen	schön	fanatisch	eitel	lasch	leiden	hindern	schlecht	1	blank2r.bmp	0	1	+	0	1	blank2r.bmp	500	1	BMVZ	500	1	blank2r.bmp	880	4	tyrannisch	880	1	!	1232	1	!	1333	0	0	0	0	0	0
2024-05-27	12:46:53	13:00:49	834825	6.6.1	4_exp_EVA_AWA_CON	51	B	A	Rpleas_acq	Same	Rpleas	2pleas	acq_US_pleas_nomask	acq45_nomask	5	29	400	1	300	300	0	0	405	46	0	0	treu	schlau	retten	tolerant	spielen	fair	tot	schroff	rächen	tyrannisch	strafen	faul	freundlich	ehrlich	loyal	lachen	helfen	schön	fanatisch	eitel	lasch	leiden	hindern	schlecht	1	blank2r.bmp	0	1	+	0	1	blank2r.bmp	500	1	GKQX	500	1	blank2r.bmp	880	1	treu	880	1	!	1232	1	!	1306	0	0	0	0	0	0
2024-05-27	12:46:53	13:00:51	836879	6.6.1	4_exp_EVA_AWA_CON	51	B	A	Rpleas_acq	Same	Rpleas	2pleas	acq_US_pleas_nomask	acq45_nomask	5	30	400	0	300	300	0	0	279	46	0	0	treu	schlau	retten	tolerant	spielen	fair	tot	schroff	rächen	tyrannisch	strafen	faul	freundlich	ehrlich	loyal	lachen	helfen	schön	fanatisch	eitel	lasch	leiden	hindern	schlecht	1	blank2r.bmp	0	1	+	0	1	blank2r.bmp	500	1	GKQX	500	1	blank2r.bmp	880	4	tolerant	880	1	!	-1	1	!	-1	0	0	0	0	0	0
2024-05-27	12:46:53	13:00:53	839001	6.6.1	4_exp_EVA_AWA_CON	51	B	A	Rpleas_acq	Same	Rpleas	2pleas	acq_US_pleas_nomask	acq45_nomask	5	31	400	1	300	300	0	0	348	46	0	0	treu	schlau	retten	tolerant	spielen	fair	tot	schroff	rächen	tyrannisch	strafen	faul	freundlich	ehrlich	loyal	lachen	helfen	schön	fanatisch	eitel	lasch	leiden	hindern	schlecht	1	blank2r.bmp	0	1	+	0	1	blank2r.bmp	500	1	GKQX	500	1	blank2r.bmp	880	5	spielen	880	1	!	1233	1	!	1249	0	0	0	0	0	0
2024-05-27	12:46:53	13:00:55	841040	6.6.1	4_exp_EVA_AWA_CON	51	B	A	Rpleas_acq	Same	Rpleas	2pleas	acq_US_unple_nomask	acq45_nomask	5	32	400	0	300	300	0	0	257	46	1	0	treu	schlau	retten	tolerant	spielen	fair	tot	schroff	rächen	tyrannisch	strafen	faul	freundlich	ehrlich	loyal	lachen	helfen	schön	fanatisch	eitel	lasch	leiden	hindern	schlecht	1	blank2r.bmp	0	1	+	0	1	blank2r.bmp	500	1	BMVZ	500	1	blank2r.bmp	880	1	tot	880	1	!	-1	1	!	-1	0	0	0	0	0	0
2024-05-27	12:46:53	13:00:57	843217	6.6.1	4_exp_EVA_AWA_CON	51	B	A	Rpleas_acq	Same	Rpleas	2pleas	acq_US_pleas_nomask	acq45_nomask	5	33	400	1	300	300	0	0	401	50	1	0	treu	schlau	retten	tolerant	spielen	fair	tot	schroff	rächen	tyrannisch	strafen	faul	freundlich	ehrlich	loyal	lachen	helfen	schön	fanatisch	eitel	lasch	leiden	hindern	schlecht	1	blank2r.bmp	0	1	+	0	1	blank2r.bmp	500	1	GKQX	500	1	blank2r.bmp	880	6	fair	880	1	!	1232	1	!	1303	0	0	0	0	0	0
2024-05-27	12:46:53	13:00:59	845378	6.6.1	4_exp_EVA_AWA_CON	51	B	A	Rpleas_acq	Same	Rpleas	2pleas	acq_US_pleas_nomask	acq45_nomask	5	34	400	1	300	300	0	0	380	50	1	0	treu	schlau	retten	tolerant	spielen	fair	tot	schroff	rächen	tyrannisch	strafen	faul	freundlich	ehrlich	loyal	lachen	helfen	schön	fanatisch	eitel	lasch	leiden	hindern	schlecht	1	blank2r.bmp	0	1	+	0	1	blank2r.bmp	500	1	GKQX	500	1	blank2r.bmp	880	3	retten	880	1	!	1232	1	!	1282	0	0	0	0	0	0
2024-05-27	12:46:53	13:01:01	847359	6.6.1	4_exp_EVA_AWA_CON	51	B	A	Rpleas_acq	Same	Rpleas	2pleas	acq_US_pleas_nomask	acq45_nomask	5	35	400	0	300	300	0	0	202	50	1	0	treu	schlau	retten	tolerant	spielen	fair	tot	schroff	rächen	tyrannisch	strafen	faul	freundlich	ehrlich	loyal	lachen	helfen	schön	fanatisch	eitel	lasch	leiden	hindern	schlecht	1	blank2r.bmp	0	1	+	0	1	blank2r.bmp	500	1	GKQX	500	1	blank2r.bmp	880	2	schlau	880	1	!	-1	1	!	-1	0	0	0	0	0	0
2024-05-27	12:46:53	13:01:03	849408	6.6.1	4_exp_EVA_AWA_CON	51	B	A	Rpleas_acq	Same	Rpleas	2pleas	acq_US_unple_nomask	acq45_nomask	5	36	400	0	300	300	0	0	269	46	1	0	treu	schlau	retten	tolerant	spielen	fair	tot	schroff	rächen	tyrannisch	strafen	faul	freundlich	ehrlich	loyal	lachen	helfen	schön	fanatisch	eitel	lasch	leiden	hindern	schlecht	1	blank2r.bmp	0	1	+	0	1	blank2r.bmp	500	1	BMVZ	500	1	blank2r.bmp	880	2	schroff	880	1	!	-1	1	!	-1	0	0	0	0	0	0
2024-05-27	12:46:53	13:01:55	901084	6.6.1	4_exp_EVA_AWA_CON	51	B	A	Rpleas_acq	Same	Rpleas	2pleas	EvalRating_firsttwo	EvalRating_firsttwo	6	1	0	0	300	300	0	0	11870	line	0	-58,203125pct	treu	schlau	retten	tolerant	spielen	fair	tot	schroff	rächen	tyrannisch	strafen	faul	freundlich	ehrlich	loyal	lachen	helfen	schön	fanatisch	eitel	lasch	leiden	hindern	schlecht	1		-8	1	Wie angenehm oder unangenehm finden Sie die  Buchstabenkette ZGVK?	-8	1		-8	1		-8	1		-8	1	Unangenehm	-8	1	Angenehm	-8	0	0	0	0	0	0	0	0	0
2024-05-27	12:46:53	13:02:05	911460	6.6.1	4_exp_EVA_AWA_CON	51	B	A	Rpleas_acq	Same	Rpleas	2pleas	EvalRating_lastfour	EvalRating_lastfour	7	1	0	0	300	300	0	0	7997	line	0	16,5364583333333428072pct	treu	schlau	retten	tolerant	spielen	fair	tot	schroff	rächen	tyrannisch	strafen	faul	freundlich	ehrlich	loyal	lachen	helfen	schön	fanatisch	eitel	lasch	leiden	hindern	schlecht	1		-7	1	Wie angenehm oder unangenehm finden Sie die  Buchstabenkette BMVZ?	-7	1		-7	1		-7	1		-7	1	Unangenehm	-7	1	Angenehm	-7	0	0	0	0	0	0	0	0	0
2024-05-27	12:46:53	13:02:08	913832	6.6.1	4_exp_EVA_AWA_CON	51	B	A	Rpleas_acq	Same	Rpleas	2pleas	blank_screen	EvalRating_lastfour	7	3	0	0	300	300	0	0	0	0	0	16,5364583333333428072pct	treu	schlau	retten	tolerant	spielen	fair	tot	schroff	rächen	tyrannisch	strafen	faul	freundlich	ehrlich	loyal	lachen	helfen	schön	fanatisch	eitel	lasch	leiden	hindern	schlecht	1		-8	0	0	0	0	0	0	0	0	0	0	0	0	0	0	0	0	0	0	0	0	0	0	0	0	0	0	0
2024-05-27	12:46:53	13:02:12	918228	6.6.1	4_exp_EVA_AWA_CON	51	B	A	Rpleas_acq	Same	Rpleas	2pleas	EvalRating_lastfour	EvalRating_lastfour	7	4	0	0	300	300	0	0	3807	line	0	14,453125pct	treu	schlau	retten	tolerant	spielen	fair	tot	schroff	rächen	tyrannisch	strafen	faul	freundlich	ehrlich	loyal	lachen	helfen	schön	fanatisch	eitel	lasch	leiden	hindern	schlecht	1		-8	2	Wie angenehm oder unangenehm finden Sie die  Buchstabenkette GKQX?	-8	1		-8	1		-8	1		-8	1	Unangenehm	-8	1	Angenehm	-8	0	0	0	0	0	0	0	0	0
2024-05-27	12:46:53	13:02:14	920597	6.6.1	4_exp_EVA_AWA_CON	51	B	A	Rpleas_acq	Same	Rpleas	2pleas	blank_screen	EvalRating_lastfour	7	6	0	0	300	300	0	0	0	0	0	14,453125pct	treu	schlau	retten	tolerant	spielen	fair	tot	schroff	rächen	tyrannisch	strafen	faul	freundlich	ehrlich	loyal	lachen	helfen	schön	fanatisch	eitel	lasch	leiden	hindern	schlecht	1		-8	0	0	0	0	0	0	0	0	0	0	0	0	0	0	0	0	0	0	0	0	0	0	0	0	0	0	0
2024-05-27	12:46:53	13:02:17	923701	6.6.1	4_exp_EVA_AWA_CON	51	B	A	Rpleas_acq	Same	Rpleas	2pleas	EvalRating_lastfour	EvalRating_lastfour	7	7	0	0	300	300	0	0	2515	line	0	-58,0729166666666642982pct	treu	schlau	retten	tolerant	spielen	fair	tot	schroff	rächen	tyrannisch	strafen	faul	freundlich	ehrlich	loyal	lachen	helfen	schön	fanatisch	eitel	lasch	leiden	hindern	schlecht	1		-8	3	Wie angenehm oder unangenehm finden Sie die  Buchstabenkette XBQM?	-8	1		-8	1		-8	1		-8	1	Unangenehm	-8	1	Angenehm	-8	0	0	0	0	0	0	0	0	0
2024-05-27	12:46:53	13:03:10	976031	6.6.1	4_exp_EVA_AWA_CON	51	B	A	Rpleas_acq	Same	Rpleas	2pleas	conawa_CS2_US4	conawa1_nomask	8	1	0	0	300	300	0	0	12318	tyrannisch	1	-58,0729166666666642982pct	treu	schlau	retten	tolerant	spielen	fair	tot	schroff	rächen	tyrannisch	strafen	faul	freundlich	ehrlich	loyal	lachen	helfen	schön	fanatisch	eitel	lasch	leiden	hindern	schlecht	0	0	0	0	0	0	0	0	0	0	0	0	0	0	0	0	0	0	0	0	0	0	0	0	0	0	0	0	0	0
2024-05-27	12:46:53	13:03:10	976033	6.6.1	4_exp_EVA_AWA_CON	51	B	A	Rpleas_acq	Same	Rpleas	2pleas	conawa_CS2_US4_confidence	conawa1_nomask	8	1	0	0	300	300	0	0	12318	guess	1	-58,0729166666666642982pct	treu	schlau	retten	tolerant	spielen	fair	tot	schroff	rächen	tyrannisch	strafen	faul	freundlich	ehrlich	loyal	lachen	helfen	schön	fanatisch	eitel	lasch	leiden	hindern	schlecht	0	0	0	0	0	0	0	0	0	0	0	0	0	0	0	0	0	0	0	0	0	0	0	0	0	0	0	0	0	0
2024-05-27	12:46:53	13:03:18	984457	6.6.1	4_exp_EVA_AWA_CON	51	B	A	Rpleas_acq	Same	Rpleas	2pleas	conawa_CS1_US6	conawa1_nomask	8	2	0	0	300	300	0	0	7805	fair	1	-58,0729166666666642982pct	treu	schlau	retten	tolerant	spielen	fair	tot	schroff	rächen	tyrannisch	strafen	faul	freundlich	ehrlich	loyal	lachen	helfen	schön	fanatisch	eitel	lasch	leiden	hindern	schlecht	0	0	0	0	0	0	0	0	0	0	0	0	0	0	0	0	0	0	0	0	0	0	0	0	0	0	0	0	0	0
2024-05-27	12:46:53	13:03:18	984458	6.6.1	4_exp_EVA_AWA_CON	51	B	A	Rpleas_acq	Same	Rpleas	2pleas	conawa_CS1_US6_confidence	conawa1_nomask	8	2	0	0	300	300	0	0	7805	guess	1	-58,0729166666666642982pct	treu	schlau	retten	tolerant	spielen	fair	tot	schroff	rächen	tyrannisch	strafen	faul	freundlich	ehrlich	loyal	lachen	helfen	schön	fanatisch	eitel	lasch	leiden	hindern	schlecht	0	0	0	0	0	0	0	0	0	0	0	0	0	0	0	0	0	0	0	0	0	0	0	0	0	0	0	0	0	0
2024-05-27	12:46:53	13:03:30	996194	6.6.1	4_exp_EVA_AWA_CON	51	B	A	Rpleas_acq	Same	Rpleas	2pleas	conawa_CS2_US5	conawa1_nomask	8	3	0	0	300	300	0	0	11127	strafen	1	-58,0729166666666642982pct	treu	schlau	retten	tolerant	spielen	fair	tot	schroff	rächen	tyrannisch	strafen	faul	freundlich	ehrlich	loyal	lachen	helfen	schön	fanatisch	eitel	lasch	leiden	hindern	schlecht	0	0	0	0	0	0	0	0	0	0	0	0	0	0	0	0	0	0	0	0	0	0	0	0	0	0	0	0	0	0
2024-05-27	12:46:53	13:03:30	996196	6.6.1	4_exp_EVA_AWA_CON	51	B	A	Rpleas_acq	Same	Rpleas	2pleas	conawa_CS2_US5_confidence	conawa1_nomask	8	3	0	0	300	300	0	0	11127	guess	1	-58,0729166666666642982pct	treu	schlau	retten	tolerant	spielen	fair	tot	schroff	rächen	tyrannisch	strafen	faul	freundlich	ehrlich	loyal	lachen	helfen	schön	fanatisch	eitel	lasch	leiden	hindern	schlecht	0	0	0	0	0	0	0	0	0	0	0	0	0	0	0	0	0	0	0	0	0	0	0	0	0	0	0	0	0	0
2024-05-27	12:46:53	13:03:38	1004199	6.6.1	4_exp_EVA_AWA_CON	51	B	A	Rpleas_acq	Same	Rpleas	2pleas	conawa_CS2_US3	conawa1_nomask	8	4	0	0	300	300	0	0	7386	leiden	1	-58,0729166666666642982pct	treu	schlau	retten	tolerant	spielen	fair	tot	schroff	rächen	tyrannisch	strafen	faul	freundlich	ehrlich	loyal	lachen	helfen	schön	fanatisch	eitel	lasch	leiden	hindern	schlecht	0	0	0	0	0	0	0	0	0	0	0	0	0	0	0	0	0	0	0	0	0	0	0	0	0	0	0	0	0	0
2024-05-27	12:46:53	13:03:38	1004201	6.6.1	4_exp_EVA_AWA_CON	51	B	A	Rpleas_acq	Same	Rpleas	2pleas	conawa_CS2_US3_confidence	conawa1_nomask	8	4	0	0	300	300	0	0	7386	guess	1	-58,0729166666666642982pct	treu	schlau	retten	tolerant	spielen	fair	tot	schroff	rächen	tyrannisch	strafen	faul	freundlich	ehrlich	loyal	lachen	helfen	schön	fanatisch	eitel	lasch	leiden	hindern	schlecht	0	0	0	0	0	0	0	0	0	0	0	0	0	0	0	0	0	0	0	0	0	0	0	0	0	0	0	0	0	0
2024-05-27	12:46:53	13:03:48	1014727	6.6.1	4_exp_EVA_AWA_CON	51	B	A	Rpleas_acq	Same	Rpleas	2pleas	conawa_CS2_US1	conawa1_nomask	8	5	0	0	300	300	0	0	9910	tot	1	-58,0729166666666642982pct	treu	schlau	retten	tolerant	spielen	fair	tot	schroff	rächen	tyrannisch	strafen	faul	freundlich	ehrlich	loyal	lachen	helfen	schön	fanatisch	eitel	lasch	leiden	hindern	schlecht	0	0	0	0	0	0	0	0	0	0	0	0	0	0	0	0	0	0	0	0	0	0	0	0	0	0	0	0	0	0
2024-05-27	12:46:53	13:03:48	1014729	6.6.1	4_exp_EVA_AWA_CON	51	B	A	Rpleas_acq	Same	Rpleas	2pleas	conawa_CS2_US1_confidence	conawa1_nomask	8	5	0	0	300	300	0	0	9910	guess	1	-58,0729166666666642982pct	treu	schlau	retten	tolerant	spielen	fair	tot	schroff	rächen	tyrannisch	strafen	faul	freundlich	ehrlich	loyal	lachen	helfen	schön	fanatisch	eitel	lasch	leiden	hindern	schlecht	0	0	0	0	0	0	0	0	0	0	0	0	0	0	0	0	0	0	0	0	0	0	0	0	0	0	0	0	0	0
2024-05-27	12:46:53	13:04:02	1028525	6.6.1	4_exp_EVA_AWA_CON	51	B	A	Rpleas_acq	Same	Rpleas	2pleas	conawa_CS2_US2	conawa1_nomask	8	6	0	0	300	300	0	0	13183	lasch	1	-58,0729166666666642982pct	treu	schlau	retten	tolerant	spielen	fair	tot	schroff	rächen	tyrannisch	strafen	faul	freundlich	ehrlich	loyal	lachen	helfen	schön	fanatisch	eitel	lasch	leiden	hindern	schlecht	0	0	0	0	0	0	0	0	0	0	0	0	0	0	0	0	0	0	0	0	0	0	0	0	0	0	0	0	0	0
2024-05-27	12:46:53	13:04:02	1028528	6.6.1	4_exp_EVA_AWA_CON	51	B	A	Rpleas_acq	Same	Rpleas	2pleas	conawa_CS2_US2_confidence	conawa1_nomask	8	6	0	0	300	300	0	0	13183	guess	1	-58,0729166666666642982pct	treu	schlau	retten	tolerant	spielen	fair	tot	schroff	rächen	tyrannisch	strafen	faul	freundlich	ehrlich	loyal	lachen	helfen	schön	fanatisch	eitel	lasch	leiden	hindern	schlecht	0	0	0	0	0	0	0	0	0	0	0	0	0	0	0	0	0	0	0	0	0	0	0	0	0	0	0	0	0	0
2024-05-27	12:46:53	13:04:13	1039083	6.6.1	4_exp_EVA_AWA_CON	51	B	A	Rpleas_acq	Same	Rpleas	2pleas	conawa_CS1_US1	conawa1_nomask	8	7	0	0	300	300	0	0	9944	treu	1	-58,0729166666666642982pct	treu	schlau	retten	tolerant	spielen	fair	tot	schroff	rächen	tyrannisch	strafen	faul	freundlich	ehrlich	loyal	lachen	helfen	schön	fanatisch	eitel	lasch	leiden	hindern	schlecht	0	0	0	0	0	0	0	0	0	0	0	0	0	0	0	0	0	0	0	0	0	0	0	0	0	0	0	0	0	0
2024-05-27	12:46:53	13:04:13	1039084	6.6.1	4_exp_EVA_AWA_CON	51	B	A	Rpleas_acq	Same	Rpleas	2pleas	conawa_CS1_US1_confidence	conawa1_nomask	8	7	0	0	300	300	0	0	9944	guess	1	-58,0729166666666642982pct	treu	schlau	retten	tolerant	spielen	fair	tot	schroff	rächen	tyrannisch	strafen	faul	freundlich	ehrlich	loyal	lachen	helfen	schön	fanatisch	eitel	lasch	leiden	hindern	schlecht	0	0	0	0	0	0	0	0	0	0	0	0	0	0	0	0	0	0	0	0	0	0	0	0	0	0	0	0	0	0
2024-05-27	12:46:53	13:04:21	1047428	6.6.1	4_exp_EVA_AWA_CON	51	B	A	Rpleas_acq	Same	Rpleas	2pleas	conawa_CS2_US6	conawa1_nomask	8	8	0	0	300	300	0	0	7732	faul	1	-58,0729166666666642982pct	treu	schlau	retten	tolerant	spielen	fair	tot	schroff	rächen	tyrannisch	strafen	faul	freundlich	ehrlich	loyal	lachen	helfen	schön	fanatisch	eitel	lasch	leiden	hindern	schlecht	0	0	0	0	0	0	0	0	0	0	0	0	0	0	0	0	0	0	0	0	0	0	0	0	0	0	0	0	0	0
2024-05-27	12:46:53	13:04:21	1047429	6.6.1	4_exp_EVA_AWA_CON	51	B	A	Rpleas_acq	Same	Rpleas	2pleas	conawa_CS2_US6_confidence	conawa1_nomask	8	8	0	0	300	300	0	0	7732	probably	1	-58,0729166666666642982pct	treu	schlau	retten	tolerant	spielen	fair	tot	schroff	rächen	tyrannisch	strafen	faul	freundlich	ehrlich	loyal	lachen	helfen	schön	fanatisch	eitel	lasch	leiden	hindern	schlecht	0	0	0	0	0	0	0	0	0	0	0	0	0	0	0	0	0	0	0	0	0	0	0	0	0	0	0	0	0	0
2024-05-27	12:46:53	13:04:32	1058115	6.6.1	4_exp_EVA_AWA_CON	51	B	A	Rpleas_acq	Same	Rpleas	2pleas	conawa_CS1_US3	conawa1_nomask	8	9	0	0	300	300	0	0	10075	retten	1	-58,0729166666666642982pct	treu	schlau	retten	tolerant	spielen	fair	tot	schroff	rächen	tyrannisch	strafen	faul	freundlich	ehrlich	loyal	lachen	helfen	schön	fanatisch	eitel	lasch	leiden	hindern	schlecht	0	0	0	0	0	0	0	0	0	0	0	0	0	0	0	0	0	0	0	0	0	0	0	0	0	0	0	0	0	0
2024-05-27	12:46:53	13:04:32	1058117	6.6.1	4_exp_EVA_AWA_CON	51	B	A	Rpleas_acq	Same	Rpleas	2pleas	conawa_CS1_US3_confidence	conawa1_nomask	8	9	0	0	300	300	0	0	10075	probably	1	-58,0729166666666642982pct	treu	schlau	retten	tolerant	spielen	fair	tot	schroff	rächen	tyrannisch	strafen	faul	freundlich	ehrlich	loyal	lachen	helfen	schön	fanatisch	eitel	lasch	leiden	hindern	schlecht	0	0	0	0	0	0	0	0	0	0	0	0	0	0	0	0	0	0	0	0	0	0	0	0	0	0	0	0	0	0
2024-05-27	12:46:53	13:04:40	1065970	6.6.1	4_exp_EVA_AWA_CON	51	B	A	Rpleas_acq	Same	Rpleas	2pleas	conawa_CS1_US2	conawa1_nomask	8	10	0	0	300	300	0	0	7243	ehrlich	1	-58,0729166666666642982pct	treu	schlau	retten	tolerant	spielen	fair	tot	schroff	rächen	tyrannisch	strafen	faul	freundlich	ehrlich	loyal	lachen	helfen	schön	fanatisch	eitel	lasch	leiden	hindern	schlecht	0	0	0	0	0	0	0	0	0	0	0	0	0	0	0	0	0	0	0	0	0	0	0	0	0	0	0	0	0	0
2024-05-27	12:46:53	13:04:40	1065972	6.6.1	4_exp_EVA_AWA_CON	51	B	A	Rpleas_acq	Same	Rpleas	2pleas	conawa_CS1_US2_confidence	conawa1_nomask	8	10	0	0	300	300	0	0	7243	guess	1	-58,0729166666666642982pct	treu	schlau	retten	tolerant	spielen	fair	tot	schroff	rächen	tyrannisch	strafen	faul	freundlich	ehrlich	loyal	lachen	helfen	schön	fanatisch	eitel	lasch	leiden	hindern	schlecht	0	0	0	0	0	0	0	0	0	0	0	0	0	0	0	0	0	0	0	0	0	0	0	0	0	0	0	0	0	0
2024-05-27	12:46:53	13:04:51	1076737	6.6.1	4_exp_EVA_AWA_CON	51	B	A	Rpleas_acq	Same	Rpleas	2pleas	conawa_CS1_US5	conawa1_nomask	8	11	0	0	300	300	0	0	10158	helfen	1	-58,0729166666666642982pct	treu	schlau	retten	tolerant	spielen	fair	tot	schroff	rächen	tyrannisch	strafen	faul	freundlich	ehrlich	loyal	lachen	helfen	schön	fanatisch	eitel	lasch	leiden	hindern	schlecht	0	0	0	0	0	0	0	0	0	0	0	0	0	0	0	0	0	0	0	0	0	0	0	0	0	0	0	0	0	0
2024-05-27	12:46:53	13:04:51	1076739	6.6.1	4_exp_EVA_AWA_CON	51	B	A	Rpleas_acq	Same	Rpleas	2pleas	conawa_CS1_US5_confidence	conawa1_nomask	8	11	0	0	300	300	0	0	10158	probably	1	-58,0729166666666642982pct	treu	schlau	retten	tolerant	spielen	fair	tot	schroff	rächen	tyrannisch	strafen	faul	freundlich	ehrlich	loyal	lachen	helfen	schön	fanatisch	eitel	lasch	leiden	hindern	schlecht	0	0	0	0	0	0	0	0	0	0	0	0	0	0	0	0	0	0	0	0	0	0	0	0	0	0	0	0	0	0
2024-05-27	12:46:53	13:05:05	1091196	6.6.1	4_exp_EVA_AWA_CON	51	B	A	Rpleas_acq	Same	Rpleas	2pleas	conawa_CS1_US4	conawa1_nomask	8	12	0	0	300	300	0	0	13845	tolerant	1	-58,0729166666666642982pct	treu	schlau	retten	tolerant	spielen	fair	tot	schroff	rächen	tyrannisch	strafen	faul	freundlich	ehrlich	loyal	lachen	helfen	schön	fanatisch	eitel	lasch	leiden	hindern	schlecht	0	0	0	0	0	0	0	0	0	0	0	0	0	0	0	0	0	0	0	0	0	0	0	0	0	0	0	0	0	0
2024-05-27	12:46:53	13:05:05	1091198	6.6.1	4_exp_EVA_AWA_CON	51	B	A	Rpleas_acq	Same	Rpleas	2pleas	conawa_CS1_US4_confidence	conawa1_nomask	8	12	0	0	300	300	0	0	13845	probably	1	-58,0729166666666642982pct	treu	schlau	retten	tolerant	spielen	fair	tot	schroff	rächen	tyrannisch	strafen	faul	freundlich	ehrlich	loyal	lachen	helfen	schön	fanatisch	eitel	lasch	leiden	hindern	schlecht	0	0	0	0	0	0	0	0	0	0	0	0	0	0	0	0	0	0	0	0	0	0	0	0	0	0	0	0	0	0
2024-05-27	12:46:53	13:06:25	1171288	6.6.1	4_exp_EVA_AWA_CON	51	B	A	Rpleas_acq	Same	Rpleas	2pleas	cond_US_unple_123_nomask_CS2	condtest_nomask_1	11	1	400	0	300	300	0	0	659	46	1	-58,0729166666666642982pct	treu	schlau	retten	tolerant	spielen	fair	tot	schroff	rächen	tyrannisch	strafen	faul	freundlich	ehrlich	loyal	lachen	helfen	schön	fanatisch	eitel	lasch	leiden	hindern	schlecht	1	blank2r.bmp	0	1	+	0	1	blank2r.bmp	500	1	GKQX	500	1	blank2r.bmp	880	2	tot	880	1	!	1232	1	!	-1	0	0	0	0	0	0
2024-05-27	12:46:53	13:06:27	1173576	6.6.1	4_exp_EVA_AWA_CON	51	B	A	Rpleas_acq	Same	Rpleas	2pleas	cond_US_unple_123_nomask_CS1	condtest_nomask_1	11	2	400	0	300	300	0	0	515	46	1	-58,0729166666666642982pct	treu	schlau	retten	tolerant	spielen	fair	tot	schroff	rächen	tyrannisch	strafen	faul	freundlich	ehrlich	loyal	lachen	helfen	schön	fanatisch	eitel	lasch	leiden	hindern	schlecht	1	blank2r.bmp	0	1	+	0	1	blank2r.bmp	500	1	BMVZ	500	1	blank2r.bmp	880	1	tot	880	1	!	1233	1	!	-1	0	0	0	0	0	0
2024-05-27	12:46:53	13:06:29	1175360	6.6.1	4_exp_EVA_AWA_CON	51	B	A	Rpleas_acq	Same	Rpleas	2pleas	cond_new_pleas_456_nomask_CS1	condtest_nomask_1	11	3	400	0	300	300	0	0	8	46	0	-58,0729166666666642982pct	treu	schlau	retten	tolerant	spielen	fair	tot	schroff	rächen	tyrannisch	strafen	faul	freundlich	ehrlich	loyal	lachen	helfen	schön	fanatisch	eitel	lasch	leiden	hindern	schlecht	1	blank2r.bmp	0	1	+	0	1	blank2r.bmp	500	1	BMVZ	500	1	blank2r.bmp	880	2	helfen	880	1	!	-1	1	!	-1	0	0	0	0	0	0
2024-05-27	12:46:53	13:06:31	1177594	6.6.1	4_exp_EVA_AWA_CON	51	B	A	Rpleas_acq	Same	Rpleas	2pleas	cond_US_pleas_123_nomask_CS2	condtest_nomask_1	11	4	400	1	300	300	0	0	459	50	1	-58,0729166666666642982pct	treu	schlau	retten	tolerant	spielen	fair	tot	schroff	rächen	tyrannisch	strafen	faul	freundlich	ehrlich	loyal	lachen	helfen	schön	fanatisch	eitel	lasch	leiden	hindern	schlecht	1	blank2r.bmp	0	1	+	0	1	blank2r.bmp	500	1	GKQX	500	1	blank2r.bmp	880	3	schlau	880	1	!	1232	1	!	1360	0	0	0	0	0	0
2024-05-27	12:46:53	13:06:34	1179912	6.6.1	4_exp_EVA_AWA_CON	51	B	A	Rpleas_acq	Same	Rpleas	2pleas	cond_new_unple_456_nomask_CS1	condtest_nomask_1	11	5	400	0	300	300	0	0	537	46	1	-58,0729166666666642982pct	treu	schlau	retten	tolerant	spielen	fair	tot	schroff	rächen	tyrannisch	strafen	faul	freundlich	ehrlich	loyal	lachen	helfen	schön	fanatisch	eitel	lasch	leiden	hindern	schlecht	1	blank2r.bmp	0	1	+	0	1	blank2r.bmp	500	1	BMVZ	500	1	blank2r.bmp	880	1	leiden	880	1	!	1232	1	!	-1	0	0	0	0	0	0
2024-05-27	12:46:53	13:06:36	1182041	6.6.1	4_exp_EVA_AWA_CON	51	B	A	Rpleas_acq	Same	Rpleas	2pleas	cond_new_pleas_456_nomask_CS2	condtest_nomask_1	11	6	400	1	300	300	0	0	354	50	1	-58,0729166666666642982pct	treu	schlau	retten	tolerant	spielen	fair	tot	schroff	rächen	tyrannisch	strafen	faul	freundlich	ehrlich	loyal	lachen	helfen	schön	fanatisch	eitel	lasch	leiden	hindern	schlecht	1	blank2r.bmp	0	1	+	0	1	blank2r.bmp	500	1	GKQX	500	1	blank2r.bmp	880	2	lachen	880	1	!	1232	1	!	1255	0	0	0	0	0	0
2024-05-27	12:46:53	13:06:38	1184056	6.6.1	4_exp_EVA_AWA_CON	51	B	A	Rpleas_acq	Same	Rpleas	2pleas	cond_new_unple_456_nomask_CS2	condtest_nomask_1	11	7	400	0	300	300	0	0	238	46	1	-58,0729166666666642982pct	treu	schlau	retten	tolerant	spielen	fair	tot	schroff	rächen	tyrannisch	strafen	faul	freundlich	ehrlich	loyal	lachen	helfen	schön	fanatisch	eitel	lasch	leiden	hindern	schlecht	1	blank2r.bmp	0	1	+	0	1	blank2r.bmp	500	1	GKQX	500	1	blank2r.bmp	880	3	hindern	880	1	!	-1	1	!	-1	0	0	0	0	0	0
2024-05-27	12:46:53	13:06:40	1186008	6.6.1	4_exp_EVA_AWA_CON	51	B	A	Rpleas_acq	Same	Rpleas	2pleas	cond_US_pleas_123_nomask_CS1	condtest_nomask_1	11	8	400	0	300	300	0	0	179	46	0	-58,0729166666666642982pct	treu	schlau	retten	tolerant	spielen	fair	tot	schroff	rächen	tyrannisch	strafen	faul	freundlich	ehrlich	loyal	lachen	helfen	schön	fanatisch	eitel	lasch	leiden	hindern	schlecht	1	blank2r.bmp	0	1	+	0	1	blank2r.bmp	500	1	BMVZ	500	1	blank2r.bmp	880	3	retten	880	1	!	-1	1	!	-1	0	0	0	0	0	0
2024-05-27	12:46:53	13:06:45	1191170	6.6.1	4_exp_EVA_AWA_CON	51	B	A	Rpleas_acq	Same	Rpleas	2pleas	cond_new_pleas_456_nomask_CS2	condtest_nomask_2	12	1	400	1	300	300	0	0	366	50	1	-58,0729166666666642982pct	treu	schlau	retten	tolerant	spielen	fair	tot	schroff	rächen	tyrannisch	strafen	faul	freundlich	ehrlich	loyal	lachen	helfen	schön	fanatisch	eitel	lasch	leiden	hindern	schlecht	1	blank2r.bmp	0	1	+	0	1	blank2r.bmp	500	1	GKQX	500	1	blank2r.bmp	880	1	schön	880	1	!	1232	1	!	1267	0	0	0	0	0	0
