date	time	currenttime	elapsedtime	build	currentexpt	subject	CS_AB	US_AB	LRpleas_acq	SameOppo	condition_Lpleas	condition_1pleas	trialcode	blockcode	blocknum	trialnum	windowcenter	inwindow	pretrialpause	posttrialpause	trialduration	trialtimeout	latency	response	correct	correctedscore	US_nomask_pleas1	US_nomask_pleas2	US_nomask_pleas3	US_nomask_pleas4	US_nomask_pleas5	US_nomask_pleas6	US_nomask_unple1	US_nomask_unple2	US_nomask_unple3	US_nomask_unple4	US_nomask_unple5	US_nomask_unple6	new_nomask_pleas1	new_nomask_pleas2	new_nomask_pleas3	new_nomask_pleas4	new_nomask_pleas5	new_nomask_pleas6	new_nomask_unple1	new_nomask_unple2	new_nomask_unple3	new_nomask_unple4	new_nomask_unple5	new_nomask_unple6	stimulusnumber1	stimulusitem1	stimulusonset1	stimulusnumber2	stimulusitem2	stimulusonset2	stimulusnumber3	stimulusitem3	stimulusonset3	stimulusnumber4	stimulusitem4	stimulusonset4	stimulusnumber5	stimulusitem5	stimulusonset5	stimulusnumber6	stimulusitem6	stimulusonset6	stimulusnumber7	stimulusitem7	stimulusonset7	stimulusnumber8	stimulusitem8	stimulusonset8	stimulusnumber9	stimulusitem9	stimulusonset9	stimulusnumber10	stimulusitem10	stimulusonset10
2024-06-21	12:19:23	12:21:39	134574	6.6.1	4_exp_EVA_AWA_CON	807	A	B	Rpleas_acq	Same	Rpleas	2pleas	acq_US_pleas_nomask	acq1_nomask	1	1	0	0	300	300	0	0	7540	46	0	0	vergnügt	besonnen	kuss	gütig	kreativ	sonnig	verbissen	bange	krise	gierig	krank	sterben	genießen	anregung	träumen	vertrauen	gesittet	engagiert	gemein	ausrottung	töten	versagen	geizig	engstirnig	1	blank2r.bmp	0	1	+	0	1	blank2r.bmp	500	1	DHJF	500	1	blank2r.bmp	880	1	vergnügt	880	1	FEHLER	8442	0	0	0	0	0	0	0	0	0
2024-06-21	12:19:23	12:21:41	136892	6.6.1	4_exp_EVA_AWA_CON	807	A	B	Rpleas_acq	Same	Rpleas	2pleas	acq_US_unple_nomask	acq1_nomask	1	2	0	0	300	300	0	0	1035	46	1	0	vergnügt	besonnen	kuss	gütig	kreativ	sonnig	verbissen	bange	krise	gierig	krank	sterben	genießen	anregung	träumen	vertrauen	gesittet	engagiert	gemein	ausrottung	töten	versagen	geizig	engstirnig	1	blank2r.bmp	0	1	+	0	1	blank2r.bmp	500	1	CPLW	500	1	blank2r.bmp	880	3	krise	880	0	0	0	0	0	0	0	0	0	0	0	0
2024-06-21	12:19:23	12:21:44	139260	6.6.1	4_exp_EVA_AWA_CON	807	A	B	Rpleas_acq	Same	Rpleas	2pleas	acq_new_unple_nomask	acq1_nomask	1	3	0	0	300	300	0	0	881	46	1	0	vergnügt	besonnen	kuss	gütig	kreativ	sonnig	verbissen	bange	krise	gierig	krank	sterben	genießen	anregung	träumen	vertrauen	gesittet	engagiert	gemein	ausrottung	töten	versagen	geizig	engstirnig	1	blank2r.bmp	0	1	+	0	1	blank2r.bmp	500	3	B3r.bmp	500	1	blank2r.bmp	880	6	engstirnig	880	0	0	0	0	0	0	0	0	0	0	0	0
2024-06-21	12:19:23	12:21:46	141404	6.6.1	4_exp_EVA_AWA_CON	807	A	B	Rpleas_acq	Same	Rpleas	2pleas	acq_new_unple_nomask	acq1_nomask	1	4	0	0	300	300	0	0	663	46	1	0	vergnügt	besonnen	kuss	gütig	kreativ	sonnig	verbissen	bange	krise	gierig	krank	sterben	genießen	anregung	träumen	vertrauen	gesittet	engagiert	gemein	ausrottung	töten	versagen	geizig	engstirnig	1	blank2r.bmp	0	1	+	0	1	blank2r.bmp	500	1	B1r.bmp	500	1	blank2r.bmp	880	5	geizig	880	0	0	0	0	0	0	0	0	0	0	0	0
2024-06-21	12:19:23	12:21:48	143388	6.6.1	4_exp_EVA_AWA_CON	807	A	B	Rpleas_acq	Same	Rpleas	2pleas	acq_new_pleas_nomask	acq1_nomask	1	5	0	0	300	300	0	0	496	50	1	0	vergnügt	besonnen	kuss	gütig	kreativ	sonnig	verbissen	bange	krise	gierig	krank	sterben	genießen	anregung	träumen	vertrauen	gesittet	engagiert	gemein	ausrottung	töten	versagen	geizig	engstirnig	1	blank2r.bmp	0	1	+	0	1	blank2r.bmp	500	2	B2r.bmp	500	1	blank2r.bmp	880	1	genießen	880	0	0	0	0	0	0	0	0	0	0	0	0
2024-06-21	12:19:23	12:21:50	145516	6.6.1	4_exp_EVA_AWA_CON	807	A	B	Rpleas_acq	Same	Rpleas	2pleas	acq_US_pleas_nomask	acq1_nomask	1	6	0	0	300	300	0	0	643	50	1	0	vergnügt	besonnen	kuss	gütig	kreativ	sonnig	verbissen	bange	krise	gierig	krank	sterben	genießen	anregung	träumen	vertrauen	gesittet	engagiert	gemein	ausrottung	töten	versagen	geizig	engstirnig	1	blank2r.bmp	0	1	+	0	1	blank2r.bmp	500	1	DHJF	500	1	blank2r.bmp	880	6	sonnig	880	0	0	0	0	0	0	0	0	0	0	0	0
2024-06-21	12:19:23	12:21:52	147532	6.6.1	4_exp_EVA_AWA_CON	807	A	B	Rpleas_acq	Same	Rpleas	2pleas	acq_US_unple_nomask	acq1_nomask	1	7	0	0	300	300	0	0	527	46	1	0	vergnügt	besonnen	kuss	gütig	kreativ	sonnig	verbissen	bange	krise	gierig	krank	sterben	genießen	anregung	träumen	vertrauen	gesittet	engagiert	gemein	ausrottung	töten	versagen	geizig	engstirnig	1	blank2r.bmp	0	1	+	0	1	blank2r.bmp	500	1	CPLW	500	1	blank2r.bmp	880	2	bange	880	0	0	0	0	0	0	0	0	0	0	0	0
2024-06-21	12:19:23	12:21:54	149588	6.6.1	4_exp_EVA_AWA_CON	807	A	B	Rpleas_acq	Same	Rpleas	2pleas	acq_new_unple_nomask	acq1_nomask	1	8	0	0	300	300	0	0	572	46	1	0	vergnügt	besonnen	kuss	gütig	kreativ	sonnig	verbissen	bange	krise	gierig	krank	sterben	genießen	anregung	träumen	vertrauen	gesittet	engagiert	gemein	ausrottung	töten	versagen	geizig	engstirnig	1	blank2r.bmp	0	1	+	0	1	blank2r.bmp	500	4	B4r.bmp	500	1	blank2r.bmp	880	3	töten	880	0	0	0	0	0	0	0	0	0	0	0	0
2024-06-21	12:19:23	12:21:56	151596	6.6.1	4_exp_EVA_AWA_CON	807	A	B	Rpleas_acq	Same	Rpleas	2pleas	acq_new_pleas_nomask	acq1_nomask	1	9	0	0	300	300	0	0	518	50	1	0	vergnügt	besonnen	kuss	gütig	kreativ	sonnig	verbissen	bange	krise	gierig	krank	sterben	genießen	anregung	träumen	vertrauen	gesittet	engagiert	gemein	ausrottung	töten	versagen	geizig	engstirnig	1	blank2r.bmp	0	1	+	0	1	blank2r.bmp	500	6	C2r.bmp	500	1	blank2r.bmp	880	3	träumen	880	0	0	0	0	0	0	0	0	0	0	0	0
2024-06-21	12:19:23	12:21:58	153636	6.6.1	4_exp_EVA_AWA_CON	807	A	B	Rpleas_acq	Same	Rpleas	2pleas	acq_new_pleas_nomask	acq1_nomask	1	10	0	0	300	300	0	0	558	50	1	0	vergnügt	besonnen	kuss	gütig	kreativ	sonnig	verbissen	bange	krise	gierig	krank	sterben	genießen	anregung	träumen	vertrauen	gesittet	engagiert	gemein	ausrottung	töten	versagen	geizig	engstirnig	1	blank2r.bmp	0	1	+	0	1	blank2r.bmp	500	7	C3r.bmp	500	1	blank2r.bmp	880	2	anregung	880	0	0	0	0	0	0	0	0	0	0	0	0
2024-06-21	12:19:23	12:22:00	155788	6.6.1	4_exp_EVA_AWA_CON	807	A	B	Rpleas_acq	Same	Rpleas	2pleas	acq_US_pleas_nomask	acq1_nomask	1	11	0	0	300	300	0	0	668	50	1	0	vergnügt	besonnen	kuss	gütig	kreativ	sonnig	verbissen	bange	krise	gierig	krank	sterben	genießen	anregung	träumen	vertrauen	gesittet	engagiert	gemein	ausrottung	töten	versagen	geizig	engstirnig	1	blank2r.bmp	0	1	+	0	1	blank2r.bmp	500	1	DHJF	500	1	blank2r.bmp	880	4	gütig	880	0	0	0	0	0	0	0	0	0	0	0	0
2024-06-21	12:19:23	12:22:03	157948	6.6.1	4_exp_EVA_AWA_CON	807	A	B	Rpleas_acq	Same	Rpleas	2pleas	acq_US_unple_nomask	acq1_nomask	1	12	0	0	300	300	0	0	677	46	1	0	vergnügt	besonnen	kuss	gütig	kreativ	sonnig	verbissen	bange	krise	gierig	krank	sterben	genießen	anregung	träumen	vertrauen	gesittet	engagiert	gemein	ausrottung	töten	versagen	geizig	engstirnig	1	blank2r.bmp	0	1	+	0	1	blank2r.bmp	500	1	CPLW	500	1	blank2r.bmp	880	4	gierig	880	0	0	0	0	0	0	0	0	0	0	0	0
2024-06-21	12:19:23	12:22:05	160036	6.6.1	4_exp_EVA_AWA_CON	807	A	B	Rpleas_acq	Same	Rpleas	2pleas	acq_new_pleas_nomask	acq1_nomask	1	13	0	0	300	300	0	0	603	50	1	0	vergnügt	besonnen	kuss	gütig	kreativ	sonnig	verbissen	bange	krise	gierig	krank	sterben	genießen	anregung	träumen	vertrauen	gesittet	engagiert	gemein	ausrottung	töten	versagen	geizig	engstirnig	1	blank2r.bmp	0	1	+	0	1	blank2r.bmp	500	5	C1r.bmp	500	1	blank2r.bmp	880	4	vertrauen	880	0	0	0	0	0	0	0	0	0	0	0	0
2024-06-21	12:19:23	12:22:07	162140	6.6.1	4_exp_EVA_AWA_CON	807	A	B	Rpleas_acq	Same	Rpleas	2pleas	acq_new_unple_nomask	acq1_nomask	1	14	0	0	300	300	0	0	616	46	1	0	vergnügt	besonnen	kuss	gütig	kreativ	sonnig	verbissen	bange	krise	gierig	krank	sterben	genießen	anregung	träumen	vertrauen	gesittet	engagiert	gemein	ausrottung	töten	versagen	geizig	engstirnig	1	blank2r.bmp	0	1	+	0	1	blank2r.bmp	500	8	C4r.bmp	500	1	blank2r.bmp	880	2	ausrottung	880	0	0	0	0	0	0	0	0	0	0	0	0
2024-06-21	12:19:23	12:22:09	164324	6.6.1	4_exp_EVA_AWA_CON	807	A	B	Rpleas_acq	Same	Rpleas	2pleas	acq_US_unple_nomask	acq1_nomask	1	15	0	0	300	300	0	0	699	46	1	0	vergnügt	besonnen	kuss	gütig	kreativ	sonnig	verbissen	bange	krise	gierig	krank	sterben	genießen	anregung	träumen	vertrauen	gesittet	engagiert	gemein	ausrottung	töten	versagen	geizig	engstirnig	1	blank2r.bmp	0	1	+	0	1	blank2r.bmp	500	1	CPLW	500	1	blank2r.bmp	880	1	verbissen	880	0	0	0	0	0	0	0	0	0	0	0	0
2024-06-21	12:19:23	12:22:11	166476	6.6.1	4_exp_EVA_AWA_CON	807	A	B	Rpleas_acq	Same	Rpleas	2pleas	acq_new_unple_nomask	acq1_nomask	1	16	0	0	300	300	0	0	669	46	1	0	vergnügt	besonnen	kuss	gütig	kreativ	sonnig	verbissen	bange	krise	gierig	krank	sterben	genießen	anregung	träumen	vertrauen	gesittet	engagiert	gemein	ausrottung	töten	versagen	geizig	engstirnig	1	blank2r.bmp	0	1	+	0	1	blank2r.bmp	500	8	C4r.bmp	500	1	blank2r.bmp	880	1	gemein	880	0	0	0	0	0	0	0	0	0	0	0	0
2024-06-21	12:19:23	12:22:13	168620	6.6.1	4_exp_EVA_AWA_CON	807	A	B	Rpleas_acq	Same	Rpleas	2pleas	acq_new_unple_nomask	acq1_nomask	1	17	0	0	300	300	0	0	662	46	1	0	vergnügt	besonnen	kuss	gütig	kreativ	sonnig	verbissen	bange	krise	gierig	krank	sterben	genießen	anregung	träumen	vertrauen	gesittet	engagiert	gemein	ausrottung	töten	versagen	geizig	engstirnig	1	blank2r.bmp	0	1	+	0	1	blank2r.bmp	500	7	C3r.bmp	500	1	blank2r.bmp	880	4	versagen	880	0	0	0	0	0	0	0	0	0	0	0	0
2024-06-21	12:19:23	12:22:15	170540	6.6.1	4_exp_EVA_AWA_CON	807	A	B	Rpleas_acq	Same	Rpleas	2pleas	acq_US_unple_nomask	acq1_nomask	1	18	0	0	300	300	0	0	431	46	1	0	vergnügt	besonnen	kuss	gütig	kreativ	sonnig	verbissen	bange	krise	gierig	krank	sterben	genießen	anregung	träumen	vertrauen	gesittet	engagiert	gemein	ausrottung	töten	versagen	geizig	engstirnig	1	blank2r.bmp	0	1	+	0	1	blank2r.bmp	500	1	CPLW	500	1	blank2r.bmp	880	5	krank	880	0	0	0	0	0	0	0	0	0	0	0	0
2024-06-21	12:19:23	12:22:17	172693	6.6.1	4_exp_EVA_AWA_CON	807	A	B	Rpleas_acq	Same	Rpleas	2pleas	acq_US_pleas_nomask	acq1_nomask	1	19	0	0	300	300	0	0	471	46	0	0	vergnügt	besonnen	kuss	gütig	kreativ	sonnig	verbissen	bange	krise	gierig	krank	sterben	genießen	anregung	träumen	vertrauen	gesittet	engagiert	gemein	ausrottung	töten	versagen	geizig	engstirnig	1	blank2r.bmp	0	1	+	0	1	blank2r.bmp	500	1	DHJF	500	1	blank2r.bmp	880	2	besonnen	880	1	FEHLER	1373	0	0	0	0	0	0	0	0	0
2024-06-21	12:19:23	12:22:19	174820	6.6.1	4_exp_EVA_AWA_CON	807	A	B	Rpleas_acq	Same	Rpleas	2pleas	acq_new_pleas_nomask	acq1_nomask	1	20	0	0	300	300	0	0	838	50	1	0	vergnügt	besonnen	kuss	gütig	kreativ	sonnig	verbissen	bange	krise	gierig	krank	sterben	genießen	anregung	träumen	vertrauen	gesittet	engagiert	gemein	ausrottung	töten	versagen	geizig	engstirnig	1	blank2r.bmp	0	1	+	0	1	blank2r.bmp	500	3	B3r.bmp	500	1	blank2r.bmp	880	5	gesittet	880	0	0	0	0	0	0	0	0	0	0	0	0
2024-06-21	12:19:23	12:22:21	176796	6.6.1	4_exp_EVA_AWA_CON	807	A	B	Rpleas_acq	Same	Rpleas	2pleas	acq_US_pleas_nomask	acq1_nomask	1	21	0	0	300	300	0	0	493	50	1	0	vergnügt	besonnen	kuss	gütig	kreativ	sonnig	verbissen	bange	krise	gierig	krank	sterben	genießen	anregung	träumen	vertrauen	gesittet	engagiert	gemein	ausrottung	töten	versagen	geizig	engstirnig	1	blank2r.bmp	0	1	+	0	1	blank2r.bmp	500	1	DHJF	500	1	blank2r.bmp	880	5	kreativ	880	0	0	0	0	0	0	0	0	0	0	0	0
2024-06-21	12:19:23	12:22:23	178812	6.6.1	4_exp_EVA_AWA_CON	807	A	B	Rpleas_acq	Same	Rpleas	2pleas	acq_US_pleas_nomask	acq1_nomask	1	22	0	0	300	300	0	0	527	50	1	0	vergnügt	besonnen	kuss	gütig	kreativ	sonnig	verbissen	bange	krise	gierig	krank	sterben	genießen	anregung	träumen	vertrauen	gesittet	engagiert	gemein	ausrottung	töten	versagen	geizig	engstirnig	1	blank2r.bmp	0	1	+	0	1	blank2r.bmp	500	1	DHJF	500	1	blank2r.bmp	880	3	kuss	880	0	0	0	0	0	0	0	0	0	0	0	0
2024-06-21	12:19:23	12:22:26	180940	6.6.1	4_exp_EVA_AWA_CON	807	A	B	Rpleas_acq	Same	Rpleas	2pleas	acq_new_pleas_nomask	acq1_nomask	1	23	0	0	300	300	0	0	644	50	1	0	vergnügt	besonnen	kuss	gütig	kreativ	sonnig	verbissen	bange	krise	gierig	krank	sterben	genießen	anregung	träumen	vertrauen	gesittet	engagiert	gemein	ausrottung	töten	versagen	geizig	engstirnig	1	blank2r.bmp	0	1	+	0	1	blank2r.bmp	500	5	C1r.bmp	500	1	blank2r.bmp	880	6	engagiert	880	0	0	0	0	0	0	0	0	0	0	0	0
2024-06-21	12:19:23	12:22:27	182916	6.6.1	4_exp_EVA_AWA_CON	807	A	B	Rpleas_acq	Same	Rpleas	2pleas	acq_US_unple_nomask	acq1_nomask	1	24	0	0	300	300	0	0	489	46	1	0	vergnügt	besonnen	kuss	gütig	kreativ	sonnig	verbissen	bange	krise	gierig	krank	sterben	genießen	anregung	träumen	vertrauen	gesittet	engagiert	gemein	ausrottung	töten	versagen	geizig	engstirnig	1	blank2r.bmp	0	1	+	0	1	blank2r.bmp	500	1	CPLW	500	1	blank2r.bmp	880	6	sterben	880	0	0	0	0	0	0	0	0	0	0	0	0
2024-06-21	12:19:23	12:22:30	184924	6.6.1	4_exp_EVA_AWA_CON	807	A	B	Rpleas_acq	Same	Rpleas	2pleas	acq_new_pleas_nomask	acq1_nomask	1	25	0	0	300	300	0	0	525	50	1	0	vergnügt	besonnen	kuss	gütig	kreativ	sonnig	verbissen	bange	krise	gierig	krank	sterben	genießen	anregung	träumen	vertrauen	gesittet	engagiert	gemein	ausrottung	töten	versagen	geizig	engstirnig	1	blank2r.bmp	0	1	+	0	1	blank2r.bmp	500	4	B4r.bmp	500	1	blank2r.bmp	880	4	vertrauen	880	0	0	0	0	0	0	0	0	0	0	0	0
2024-06-21	12:19:23	12:22:32	186924	6.6.1	4_exp_EVA_AWA_CON	807	A	B	Rpleas_acq	Same	Rpleas	2pleas	acq_new_unple_nomask	acq1_nomask	1	26	0	0	300	300	0	0	514	46	1	0	vergnügt	besonnen	kuss	gütig	kreativ	sonnig	verbissen	bange	krise	gierig	krank	sterben	genießen	anregung	träumen	vertrauen	gesittet	engagiert	gemein	ausrottung	töten	versagen	geizig	engstirnig	1	blank2r.bmp	0	1	+	0	1	blank2r.bmp	500	1	B1r.bmp	500	1	blank2r.bmp	880	5	geizig	880	0	0	0	0	0	0	0	0	0	0	0	0
2024-06-21	12:19:23	12:22:34	189028	6.6.1	4_exp_EVA_AWA_CON	807	A	B	Rpleas_acq	Same	Rpleas	2pleas	acq_US_unple_nomask	acq1_nomask	1	27	0	0	300	300	0	0	617	46	1	0	vergnügt	besonnen	kuss	gütig	kreativ	sonnig	verbissen	bange	krise	gierig	krank	sterben	genießen	anregung	träumen	vertrauen	gesittet	engagiert	gemein	ausrottung	töten	versagen	geizig	engstirnig	1	blank2r.bmp	0	1	+	0	1	blank2r.bmp	500	1	CPLW	500	1	blank2r.bmp	880	3	krise	880	0	0	0	0	0	0	0	0	0	0	0	0
2024-06-21	12:19:23	12:22:36	191229	6.6.1	4_exp_EVA_AWA_CON	807	A	B	Rpleas_acq	Same	Rpleas	2pleas	acq_new_pleas_nomask	acq1_nomask	1	28	0	0	300	300	0	0	515	46	0	0	vergnügt	besonnen	kuss	gütig	kreativ	sonnig	verbissen	bange	krise	gierig	krank	sterben	genießen	anregung	träumen	vertrauen	gesittet	engagiert	gemein	ausrottung	töten	versagen	geizig	engstirnig	1	blank2r.bmp	0	1	+	0	1	blank2r.bmp	500	6	C2r.bmp	500	1	blank2r.bmp	880	5	gesittet	880	1	FEHLER	1417	0	0	0	0	0	0	0	0	0
2024-06-21	12:19:23	12:22:38	193245	6.6.1	4_exp_EVA_AWA_CON	807	A	B	Rpleas_acq	Same	Rpleas	2pleas	acq_US_pleas_nomask	acq1_nomask	1	29	0	0	300	300	0	0	730	50	1	0	vergnügt	besonnen	kuss	gütig	kreativ	sonnig	verbissen	bange	krise	gierig	krank	sterben	genießen	anregung	träumen	vertrauen	gesittet	engagiert	gemein	ausrottung	töten	versagen	geizig	engstirnig	1	blank2r.bmp	0	1	+	0	1	blank2r.bmp	500	1	DHJF	500	1	blank2r.bmp	880	2	besonnen	880	0	0	0	0	0	0	0	0	0	0	0	0
2024-06-21	12:19:23	12:22:40	195276	6.6.1	4_exp_EVA_AWA_CON	807	A	B	Rpleas_acq	Same	Rpleas	2pleas	acq_new_pleas_nomask	acq1_nomask	1	30	0	0	300	300	0	0	551	50	1	0	vergnügt	besonnen	kuss	gütig	kreativ	sonnig	verbissen	bange	krise	gierig	krank	sterben	genießen	anregung	träumen	vertrauen	gesittet	engagiert	gemein	ausrottung	töten	versagen	geizig	engstirnig	1	blank2r.bmp	0	1	+	0	1	blank2r.bmp	500	2	B2r.bmp	500	1	blank2r.bmp	880	3	träumen	880	0	0	0	0	0	0	0	0	0	0	0	0
2024-06-21	12:19:23	12:22:42	197300	6.6.1	4_exp_EVA_AWA_CON	807	A	B	Rpleas_acq	Same	Rpleas	2pleas	acq_new_unple_nomask	acq1_nomask	1	31	0	0	300	300	0	0	543	46	1	0	vergnügt	besonnen	kuss	gütig	kreativ	sonnig	verbissen	bange	krise	gierig	krank	sterben	genießen	anregung	träumen	vertrauen	gesittet	engagiert	gemein	ausrottung	töten	versagen	geizig	engstirnig	1	blank2r.bmp	0	1	+	0	1	blank2r.bmp	500	1	B1r.bmp	500	1	blank2r.bmp	880	3	töten	880	0	0	0	0	0	0	0	0	0	0	0	0
2024-06-21	12:19:23	12:22:44	199612	6.6.1	4_exp_EVA_AWA_CON	807	A	B	Rpleas_acq	Same	Rpleas	2pleas	acq_US_unple_nomask	acq1_nomask	1	32	0	0	300	300	0	0	824	46	1	0	vergnügt	besonnen	kuss	gütig	kreativ	sonnig	verbissen	bange	krise	gierig	krank	sterben	genießen	anregung	träumen	vertrauen	gesittet	engagiert	gemein	ausrottung	töten	versagen	geizig	engstirnig	1	blank2r.bmp	0	1	+	0	1	blank2r.bmp	500	1	CPLW	500	1	blank2r.bmp	880	1	verbissen	880	0	0	0	0	0	0	0	0	0	0	0	0
2024-06-21	12:19:23	12:22:46	201860	6.6.1	4_exp_EVA_AWA_CON	807	A	B	Rpleas_acq	Same	Rpleas	2pleas	acq_US_pleas_nomask	acq1_nomask	1	33	0	0	300	300	0	0	761	50	1	0	vergnügt	besonnen	kuss	gütig	kreativ	sonnig	verbissen	bange	krise	gierig	krank	sterben	genießen	anregung	träumen	vertrauen	gesittet	engagiert	gemein	ausrottung	töten	versagen	geizig	engstirnig	1	blank2r.bmp	0	1	+	0	1	blank2r.bmp	500	1	DHJF	500	1	blank2r.bmp	880	5	kreativ	880	0	0	0	0	0	0	0	0	0	0	0	0
2024-06-21	12:19:23	12:22:48	203892	6.6.1	4_exp_EVA_AWA_CON	807	A	B	Rpleas_acq	Same	Rpleas	2pleas	acq_new_unple_nomask	acq1_nomask	1	34	0	0	300	300	0	0	551	46	1	0	vergnügt	besonnen	kuss	gütig	kreativ	sonnig	verbissen	bange	krise	gierig	krank	sterben	genießen	anregung	träumen	vertrauen	gesittet	engagiert	gemein	ausrottung	töten	versagen	geizig	engstirnig	1	blank2r.bmp	0	1	+	0	1	blank2r.bmp	500	6	C2r.bmp	500	1	blank2r.bmp	880	6	engstirnig	880	0	0	0	0	0	0	0	0	0	0	0	0
2024-06-21	12:19:23	12:22:51	205940	6.6.1	4_exp_EVA_AWA_CON	807	A	B	Rpleas_acq	Same	Rpleas	2pleas	acq_US_unple_nomask	acq1_nomask	1	35	0	0	300	300	0	0	558	46	1	0	vergnügt	besonnen	kuss	gütig	kreativ	sonnig	verbissen	bange	krise	gierig	krank	sterben	genießen	anregung	träumen	vertrauen	gesittet	engagiert	gemein	ausrottung	töten	versagen	geizig	engstirnig	1	blank2r.bmp	0	1	+	0	1	blank2r.bmp	500	1	CPLW	500	1	blank2r.bmp	880	6	sterben	880	0	0	0	0	0	0	0	0	0	0	0	0
2024-06-21	12:19:23	12:22:52	207892	6.6.1	4_exp_EVA_AWA_CON	807	A	B	Rpleas_acq	Same	Rpleas	2pleas	acq_US_pleas_nomask	acq1_nomask	1	36	0	0	300	300	0	0	469	50	1	0	vergnügt	besonnen	kuss	gütig	kreativ	sonnig	verbissen	bange	krise	gierig	krank	sterben	genießen	anregung	träumen	vertrauen	gesittet	engagiert	gemein	ausrottung	töten	versagen	geizig	engstirnig	1	blank2r.bmp	0	1	+	0	1	blank2r.bmp	500	1	DHJF	500	1	blank2r.bmp	880	6	sonnig	880	0	0	0	0	0	0	0	0	0	0	0	0
2024-06-21	12:19:23	12:23:24	239502	6.6.1	4_exp_EVA_AWA_CON	807	A	B	Rpleas_acq	Same	Rpleas	2pleas	acq_new_pleas_nomask	acq2_nomask	2	1	480	0	300	300	0	0	719	50	1	0	vergnügt	besonnen	kuss	gütig	kreativ	sonnig	verbissen	bange	krise	gierig	krank	sterben	genießen	anregung	träumen	vertrauen	gesittet	engagiert	gemein	ausrottung	töten	versagen	geizig	engstirnig	1	blank2r.bmp	0	1	+	0	1	blank2r.bmp	500	2	B2r.bmp	500	1	blank2r.bmp	880	2	anregung	880	1	!	1312	1	!	-1	0	0	0	0	0	0
2024-06-21	12:19:23	12:23:27	242026	6.6.1	4_exp_EVA_AWA_CON	807	A	B	Rpleas_acq	Same	Rpleas	2pleas	acq_new_unple_nomask	acq2_nomask	2	2	480	1	300	300	0	0	547	50	0	0	vergnügt	besonnen	kuss	gütig	kreativ	sonnig	verbissen	bange	krise	gierig	krank	sterben	genießen	anregung	träumen	vertrauen	gesittet	engagiert	gemein	ausrottung	töten	versagen	geizig	engstirnig	1	blank2r.bmp	0	1	+	0	1	blank2r.bmp	500	7	C3r.bmp	500	1	blank2r.bmp	880	4	versagen	880	1	FEHLER	1740	1	!	1313	1	!	1448	0	0	0
2024-06-21	12:19:23	12:23:29	244096	6.6.1	4_exp_EVA_AWA_CON	807	A	B	Rpleas_acq	Same	Rpleas	2pleas	acq_US_pleas_nomask	acq2_nomask	2	3	480	1	300	300	0	0	497	50	1	0	vergnügt	besonnen	kuss	gütig	kreativ	sonnig	verbissen	bange	krise	gierig	krank	sterben	genießen	anregung	träumen	vertrauen	gesittet	engagiert	gemein	ausrottung	töten	versagen	geizig	engstirnig	1	blank2r.bmp	0	1	+	0	1	blank2r.bmp	500	1	DHJF	500	1	blank2r.bmp	880	1	vergnügt	880	1	!	1312	1	!	1398	0	0	0	0	0	0
2024-06-21	12:19:23	12:23:31	246220	6.6.1	4_exp_EVA_AWA_CON	807	A	B	Rpleas_acq	Same	Rpleas	2pleas	acq_new_unple_nomask	acq2_nomask	2	4	480	0	300	300	0	0	344	46	1	0	vergnügt	besonnen	kuss	gütig	kreativ	sonnig	verbissen	bange	krise	gierig	krank	sterben	genießen	anregung	träumen	vertrauen	gesittet	engagiert	gemein	ausrottung	töten	versagen	geizig	engstirnig	1	blank2r.bmp	0	1	+	0	1	blank2r.bmp	500	3	B3r.bmp	500	1	blank2r.bmp	880	1	gemein	880	1	!	-1	1	!	-1	0	0	0	0	0	0
2024-06-21	12:19:23	12:23:33	248429	6.6.1	4_exp_EVA_AWA_CON	807	A	B	Rpleas_acq	Same	Rpleas	2pleas	acq_US_unple_nomask	acq2_nomask	2	5	480	1	300	300	0	0	431	46	1	0	vergnügt	besonnen	kuss	gütig	kreativ	sonnig	verbissen	bange	krise	gierig	krank	sterben	genießen	anregung	träumen	vertrauen	gesittet	engagiert	gemein	ausrottung	töten	versagen	geizig	engstirnig	1	blank2r.bmp	0	1	+	0	1	blank2r.bmp	500	1	CPLW	500	1	blank2r.bmp	880	2	bange	880	1	!	1311	1	!	1331	0	0	0	0	0	0
2024-06-21	12:19:23	12:23:35	250629	6.6.1	4_exp_EVA_AWA_CON	807	A	B	Rpleas_acq	Same	Rpleas	2pleas	acq_new_unple_nomask	acq2_nomask	2	6	480	1	300	300	0	0	419	46	1	0	vergnügt	besonnen	kuss	gütig	kreativ	sonnig	verbissen	bange	krise	gierig	krank	sterben	genießen	anregung	träumen	vertrauen	gesittet	engagiert	gemein	ausrottung	töten	versagen	geizig	engstirnig	1	blank2r.bmp	0	1	+	0	1	blank2r.bmp	500	8	C4r.bmp	500	1	blank2r.bmp	880	2	ausrottung	880	1	!	1312	1	!	1319	0	0	0	0	0	0
2024-06-21	12:19:23	12:23:38	253014	6.6.1	4_exp_EVA_AWA_CON	807	A	B	Rpleas_acq	Same	Rpleas	2pleas	acq_new_pleas_nomask	acq2_nomask	2	7	480	0	300	300	0	0	612	50	1	0	vergnügt	besonnen	kuss	gütig	kreativ	sonnig	verbissen	bange	krise	gierig	krank	sterben	genießen	anregung	träumen	vertrauen	gesittet	engagiert	gemein	ausrottung	töten	versagen	geizig	engstirnig	1	blank2r.bmp	0	1	+	0	1	blank2r.bmp	500	5	C1r.bmp	500	1	blank2r.bmp	880	6	engagiert	880	1	!	1313	1	!	-1	0	0	0	0	0	0
2024-06-21	12:19:23	12:23:40	255240	6.6.1	4_exp_EVA_AWA_CON	807	A	B	Rpleas_acq	Same	Rpleas	2pleas	acq_US_unple_nomask	acq2_nomask	2	8	480	1	300	300	0	0	444	46	1	0	vergnügt	besonnen	kuss	gütig	kreativ	sonnig	verbissen	bange	krise	gierig	krank	sterben	genießen	anregung	träumen	vertrauen	gesittet	engagiert	gemein	ausrottung	töten	versagen	geizig	engstirnig	1	blank2r.bmp	0	1	+	0	1	blank2r.bmp	500	1	CPLW	500	1	blank2r.bmp	880	4	gierig	880	1	!	1313	1	!	1346	0	0	0	0	0	0
2024-06-21	12:19:23	12:23:42	257456	6.6.1	4_exp_EVA_AWA_CON	807	A	B	Rpleas_acq	Same	Rpleas	2pleas	acq_US_pleas_nomask	acq2_nomask	2	9	480	1	300	300	0	0	439	50	1	0	vergnügt	besonnen	kuss	gütig	kreativ	sonnig	verbissen	bange	krise	gierig	krank	sterben	genießen	anregung	träumen	vertrauen	gesittet	engagiert	gemein	ausrottung	töten	versagen	geizig	engstirnig	1	blank2r.bmp	0	1	+	0	1	blank2r.bmp	500	1	DHJF	500	1	blank2r.bmp	880	4	gütig	880	1	!	1313	1	!	1340	0	0	0	0	0	0
2024-06-21	12:19:23	12:23:44	259638	6.6.1	4_exp_EVA_AWA_CON	807	A	B	Rpleas_acq	Same	Rpleas	2pleas	acq_US_unple_nomask	acq2_nomask	2	10	480	0	300	300	0	0	402	46	1	0	vergnügt	besonnen	kuss	gütig	kreativ	sonnig	verbissen	bange	krise	gierig	krank	sterben	genießen	anregung	träumen	vertrauen	gesittet	engagiert	gemein	ausrottung	töten	versagen	geizig	engstirnig	1	blank2r.bmp	0	1	+	0	1	blank2r.bmp	500	1	CPLW	500	1	blank2r.bmp	880	5	krank	880	1	!	-1	1	!	-1	0	0	0	0	0	0
2024-06-21	12:19:23	12:23:47	262166	6.6.1	4_exp_EVA_AWA_CON	807	A	B	Rpleas_acq	Same	Rpleas	2pleas	acq_new_pleas_nomask	acq2_nomask	2	11	480	0	300	300	0	0	748	50	1	0	vergnügt	besonnen	kuss	gütig	kreativ	sonnig	verbissen	bange	krise	gierig	krank	sterben	genießen	anregung	träumen	vertrauen	gesittet	engagiert	gemein	ausrottung	töten	versagen	geizig	engstirnig	1	blank2r.bmp	0	1	+	0	1	blank2r.bmp	500	4	B4r.bmp	500	1	blank2r.bmp	880	1	genießen	880	1	!	1313	1	!	-1	0	0	0	0	0	0
2024-06-21	12:19:23	12:23:49	264617	6.6.1	4_exp_EVA_AWA_CON	807	A	B	Rpleas_acq	Same	Rpleas	2pleas	acq_US_pleas_nomask	acq2_nomask	2	12	480	1	300	300	0	0	475	46	0	0	vergnügt	besonnen	kuss	gütig	kreativ	sonnig	verbissen	bange	krise	gierig	krank	sterben	genießen	anregung	träumen	vertrauen	gesittet	engagiert	gemein	ausrottung	töten	versagen	geizig	engstirnig	1	blank2r.bmp	0	1	+	0	1	blank2r.bmp	500	1	DHJF	500	1	blank2r.bmp	880	3	kuss	880	1	FEHLER	1668	1	!	1313	1	!	1376	0	0	0
2024-06-21	12:19:23	12:23:51	266664	6.6.1	4_exp_EVA_AWA_CON	807	A	B	Rpleas_acq	Same	Rpleas	2pleas	acq_new_unple_nomask	acq2_nomask	2	13	480	1	300	300	0	0	471	46	1	0	vergnügt	besonnen	kuss	gütig	kreativ	sonnig	verbissen	bange	krise	gierig	krank	sterben	genießen	anregung	träumen	vertrauen	gesittet	engagiert	gemein	ausrottung	töten	versagen	geizig	engstirnig	1	blank2r.bmp	0	1	+	0	1	blank2r.bmp	500	1	B1r.bmp	500	1	blank2r.bmp	880	3	töten	880	1	!	1313	1	!	1373	0	0	0	0	0	0
2024-06-21	12:19:23	12:23:54	269189	6.6.1	4_exp_EVA_AWA_CON	807	A	B	Rpleas_acq	Same	Rpleas	2pleas	acq_new_unple_nomask	acq2_nomask	2	14	480	1	300	300	0	0	527	50	0	0	vergnügt	besonnen	kuss	gütig	kreativ	sonnig	verbissen	bange	krise	gierig	krank	sterben	genießen	anregung	träumen	vertrauen	gesittet	engagiert	gemein	ausrottung	töten	versagen	geizig	engstirnig	1	blank2r.bmp	0	1	+	0	1	blank2r.bmp	500	6	C2r.bmp	500	1	blank2r.bmp	894	4	versagen	894	1	FEHLER	1733	1	!	1319	1	!	1435	0	0	0
2024-06-21	12:19:23	12:23:56	271216	6.6.1	4_exp_EVA_AWA_CON	807	A	B	Rpleas_acq	Same	Rpleas	2pleas	acq_US_unple_nomask	acq2_nomask	2	15	480	1	300	300	0	0	425	46	1	0	vergnügt	besonnen	kuss	gütig	kreativ	sonnig	verbissen	bange	krise	gierig	krank	sterben	genießen	anregung	träumen	vertrauen	gesittet	engagiert	gemein	ausrottung	töten	versagen	geizig	engstirnig	1	blank2r.bmp	0	1	+	0	1	blank2r.bmp	500	1	CPLW	500	1	blank2r.bmp	882	5	krank	882	1	!	1316	1	!	1325	0	0	0	0	0	0
2024-06-21	12:19:23	12:23:58	273662	6.6.1	4_exp_EVA_AWA_CON	807	A	B	Rpleas_acq	Same	Rpleas	2pleas	acq_US_unple_nomask	acq2_nomask	2	16	480	0	300	300	0	0	642	46	1	0	vergnügt	besonnen	kuss	gütig	kreativ	sonnig	verbissen	bange	krise	gierig	krank	sterben	genießen	anregung	träumen	vertrauen	gesittet	engagiert	gemein	ausrottung	töten	versagen	geizig	engstirnig	1	blank2r.bmp	0	1	+	0	1	blank2r.bmp	500	1	CPLW	500	1	blank2r.bmp	880	2	bange	880	1	!	1326	1	!	-1	0	0	0	0	0	0
2024-06-21	12:19:23	12:24:00	275830	6.6.1	4_exp_EVA_AWA_CON	807	A	B	Rpleas_acq	Same	Rpleas	2pleas	acq_US_unple_nomask	acq2_nomask	2	17	480	0	300	300	0	0	393	46	1	0	vergnügt	besonnen	kuss	gütig	kreativ	sonnig	verbissen	bange	krise	gierig	krank	sterben	genießen	anregung	träumen	vertrauen	gesittet	engagiert	gemein	ausrottung	töten	versagen	geizig	engstirnig	1	blank2r.bmp	0	1	+	0	1	blank2r.bmp	500	1	CPLW	500	1	blank2r.bmp	880	3	krise	880	1	!	-1	1	!	-1	0	0	0	0	0	0
2024-06-21	12:19:23	12:24:06	281350	6.6.1	4_exp_EVA_AWA_CON	807	A	B	Rpleas_acq	Same	Rpleas	2pleas	acq_new_unple_nomask	acq2_nomask	2	18	480	0	300	300	0	0	3742	46	1	0	vergnügt	besonnen	kuss	gütig	kreativ	sonnig	verbissen	bange	krise	gierig	krank	sterben	genießen	anregung	träumen	vertrauen	gesittet	engagiert	gemein	ausrottung	töten	versagen	geizig	engstirnig	1	blank2r.bmp	0	1	+	0	1	blank2r.bmp	500	8	C4r.bmp	500	1	blank2r.bmp	880	6	engstirnig	880	1	!	1313	1	!	-1	0	0	0	0	0	0
2024-06-21	12:19:23	12:24:08	283550	6.6.1	4_exp_EVA_AWA_CON	807	A	B	Rpleas_acq	Same	Rpleas	2pleas	acq_US_pleas_nomask	acq2_nomask	2	19	480	1	300	300	0	0	418	50	1	0	vergnügt	besonnen	kuss	gütig	kreativ	sonnig	verbissen	bange	krise	gierig	krank	sterben	genießen	anregung	träumen	vertrauen	gesittet	engagiert	gemein	ausrottung	töten	versagen	geizig	engstirnig	1	blank2r.bmp	0	1	+	0	1	blank2r.bmp	500	1	DHJF	500	1	blank2r.bmp	880	4	gütig	880	1	!	1313	1	!	1318	0	0	0	0	0	0
2024-06-21	12:19:23	12:24:10	285824	6.6.1	4_exp_EVA_AWA_CON	807	A	B	Rpleas_acq	Same	Rpleas	2pleas	acq_new_pleas_nomask	acq2_nomask	2	20	480	1	300	300	0	0	499	50	1	0	vergnügt	besonnen	kuss	gütig	kreativ	sonnig	verbissen	bange	krise	gierig	krank	sterben	genießen	anregung	träumen	vertrauen	gesittet	engagiert	gemein	ausrottung	töten	versagen	geizig	engstirnig	1	blank2r.bmp	0	1	+	0	1	blank2r.bmp	500	3	B3r.bmp	500	1	blank2r.bmp	880	4	vertrauen	880	1	!	1312	1	!	1400	0	0	0	0	0	0
2024-06-21	12:19:23	12:24:13	288071	6.6.1	4_exp_EVA_AWA_CON	807	A	B	Rpleas_acq	Same	Rpleas	2pleas	acq_US_pleas_nomask	acq2_nomask	2	21	480	1	300	300	0	0	465	50	1	0	vergnügt	besonnen	kuss	gütig	kreativ	sonnig	verbissen	bange	krise	gierig	krank	sterben	genießen	anregung	träumen	vertrauen	gesittet	engagiert	gemein	ausrottung	töten	versagen	geizig	engstirnig	1	blank2r.bmp	0	1	+	0	1	blank2r.bmp	500	1	DHJF	500	1	blank2r.bmp	880	1	vergnügt	880	1	!	1312	1	!	1366	0	0	0	0	0	0
2024-06-21	12:19:23	12:24:15	290288	6.6.1	4_exp_EVA_AWA_CON	807	A	B	Rpleas_acq	Same	Rpleas	2pleas	acq_new_pleas_nomask	acq2_nomask	2	22	480	1	300	300	0	0	440	50	1	0	vergnügt	besonnen	kuss	gütig	kreativ	sonnig	verbissen	bange	krise	gierig	krank	sterben	genießen	anregung	träumen	vertrauen	gesittet	engagiert	gemein	ausrottung	töten	versagen	geizig	engstirnig	1	blank2r.bmp	0	1	+	0	1	blank2r.bmp	500	7	C3r.bmp	500	1	blank2r.bmp	880	1	genießen	880	1	!	1313	1	!	1342	0	0	0	0	0	0
2024-06-21	12:19:23	12:24:17	292503	6.6.1	4_exp_EVA_AWA_CON	807	A	B	Rpleas_acq	Same	Rpleas	2pleas	acq_new_pleas_nomask	acq2_nomask	2	23	480	1	300	300	0	0	435	50	1	0	vergnügt	besonnen	kuss	gütig	kreativ	sonnig	verbissen	bange	krise	gierig	krank	sterben	genießen	anregung	träumen	vertrauen	gesittet	engagiert	gemein	ausrottung	töten	versagen	geizig	engstirnig	1	blank2r.bmp	0	1	+	0	1	blank2r.bmp	500	4	B4r.bmp	500	1	blank2r.bmp	880	3	träumen	880	1	!	1312	1	!	1335	0	0	0	0	0	0
2024-06-21	12:19:23	12:24:19	294678	6.6.1	4_exp_EVA_AWA_CON	807	A	B	Rpleas_acq	Same	Rpleas	2pleas	acq_US_pleas_nomask	acq2_nomask	2	24	480	0	300	300	0	0	399	50	1	0	vergnügt	besonnen	kuss	gütig	kreativ	sonnig	verbissen	bange	krise	gierig	krank	sterben	genießen	anregung	träumen	vertrauen	gesittet	engagiert	gemein	ausrottung	töten	versagen	geizig	engstirnig	1	blank2r.bmp	0	1	+	0	1	blank2r.bmp	500	1	DHJF	500	1	blank2r.bmp	880	6	sonnig	880	1	!	-1	1	!	-1	0	0	0	0	0	0
2024-06-21	12:19:23	12:24:22	297174	6.6.1	4_exp_EVA_AWA_CON	807	A	B	Rpleas_acq	Same	Rpleas	2pleas	acq_US_unple_nomask	acq2_nomask	2	25	480	0	300	300	0	0	724	46	1	0	vergnügt	besonnen	kuss	gütig	kreativ	sonnig	verbissen	bange	krise	gierig	krank	sterben	genießen	anregung	träumen	vertrauen	gesittet	engagiert	gemein	ausrottung	töten	versagen	geizig	engstirnig	1	blank2r.bmp	0	1	+	0	1	blank2r.bmp	500	1	CPLW	500	1	blank2r.bmp	880	4	gierig	880	1	!	1312	1	!	-1	0	0	0	0	0	0
2024-06-21	12:19:23	12:24:24	299455	6.6.1	4_exp_EVA_AWA_CON	807	A	B	Rpleas_acq	Same	Rpleas	2pleas	acq_new_pleas_nomask	acq2_nomask	2	26	480	1	300	300	0	0	502	50	1	0	vergnügt	besonnen	kuss	gütig	kreativ	sonnig	verbissen	bange	krise	gierig	krank	sterben	genießen	anregung	träumen	vertrauen	gesittet	engagiert	gemein	ausrottung	töten	versagen	geizig	engstirnig	1	blank2r.bmp	0	1	+	0	1	blank2r.bmp	500	2	B2r.bmp	500	1	blank2r.bmp	880	5	gesittet	880	1	!	1312	1	!	1403	0	0	0	0	0	0
2024-06-21	12:19:23	12:24:27	301920	6.6.1	4_exp_EVA_AWA_CON	807	A	B	Rpleas_acq	Same	Rpleas	2pleas	acq_new_unple_nomask	acq2_nomask	2	27	480	1	300	300	0	0	485	50	0	0	vergnügt	besonnen	kuss	gütig	kreativ	sonnig	verbissen	bange	krise	gierig	krank	sterben	genießen	anregung	träumen	vertrauen	gesittet	engagiert	gemein	ausrottung	töten	versagen	geizig	engstirnig	1	blank2r.bmp	0	1	+	0	1	blank2r.bmp	500	5	C1r.bmp	500	1	blank2r.bmp	880	1	gemein	880	1	FEHLER	1677	1	!	1312	1	!	1385	0	0	0
2024-06-21	12:19:23	12:24:29	304190	6.6.1	4_exp_EVA_AWA_CON	807	A	B	Rpleas_acq	Same	Rpleas	2pleas	acq_US_unple_nomask	acq2_nomask	2	28	480	0	300	300	0	0	695	46	1	0	vergnügt	besonnen	kuss	gütig	kreativ	sonnig	verbissen	bange	krise	gierig	krank	sterben	genießen	anregung	träumen	vertrauen	gesittet	engagiert	gemein	ausrottung	töten	versagen	geizig	engstirnig	1	blank2r.bmp	0	1	+	0	1	blank2r.bmp	500	1	CPLW	500	1	blank2r.bmp	880	1	verbissen	880	1	!	1313	1	!	-1	0	0	0	0	0	0
2024-06-21	12:19:23	12:24:31	306415	6.6.1	4_exp_EVA_AWA_CON	807	A	B	Rpleas_acq	Same	Rpleas	2pleas	acq_US_pleas_nomask	acq2_nomask	2	29	480	1	300	300	0	0	448	50	1	0	vergnügt	besonnen	kuss	gütig	kreativ	sonnig	verbissen	bange	krise	gierig	krank	sterben	genießen	anregung	träumen	vertrauen	gesittet	engagiert	gemein	ausrottung	töten	versagen	geizig	engstirnig	1	blank2r.bmp	0	1	+	0	1	blank2r.bmp	500	1	DHJF	500	1	blank2r.bmp	880	2	besonnen	880	1	!	1313	1	!	1348	0	0	0	0	0	0
2024-06-21	12:19:23	12:24:33	308833	6.6.1	4_exp_EVA_AWA_CON	807	A	B	Rpleas_acq	Same	Rpleas	2pleas	acq_new_pleas_nomask	acq2_nomask	2	30	480	1	300	300	0	0	442	46	0	0	vergnügt	besonnen	kuss	gütig	kreativ	sonnig	verbissen	bange	krise	gierig	krank	sterben	genießen	anregung	träumen	vertrauen	gesittet	engagiert	gemein	ausrottung	töten	versagen	geizig	engstirnig	1	blank2r.bmp	0	1	+	0	1	blank2r.bmp	500	4	B4r.bmp	500	1	blank2r.bmp	880	6	engagiert	880	1	FEHLER	1635	1	!	1313	1	!	1343	0	0	0
2024-06-21	12:19:23	12:24:36	311142	6.6.1	4_exp_EVA_AWA_CON	807	A	B	Rpleas_acq	Same	Rpleas	2pleas	acq_new_pleas_nomask	acq2_nomask	2	31	480	0	300	300	0	0	733	50	1	0	vergnügt	besonnen	kuss	gütig	kreativ	sonnig	verbissen	bange	krise	gierig	krank	sterben	genießen	anregung	träumen	vertrauen	gesittet	engagiert	gemein	ausrottung	töten	versagen	geizig	engstirnig	1	blank2r.bmp	0	1	+	0	1	blank2r.bmp	500	1	B1r.bmp	500	1	blank2r.bmp	880	2	anregung	880	1	!	1312	1	!	-1	0	0	0	0	0	0
2024-06-21	12:19:23	12:24:38	313367	6.6.1	4_exp_EVA_AWA_CON	807	A	B	Rpleas_acq	Same	Rpleas	2pleas	acq_US_pleas_nomask	acq2_nomask	2	32	480	1	300	300	0	0	445	50	1	0	vergnügt	besonnen	kuss	gütig	kreativ	sonnig	verbissen	bange	krise	gierig	krank	sterben	genießen	anregung	träumen	vertrauen	gesittet	engagiert	gemein	ausrottung	töten	versagen	geizig	engstirnig	1	blank2r.bmp	0	1	+	0	1	blank2r.bmp	500	1	DHJF	500	1	blank2r.bmp	880	3	kuss	880	1	!	1312	1	!	1346	0	0	0	0	0	0
2024-06-21	12:19:23	12:24:40	315566	6.6.1	4_exp_EVA_AWA_CON	807	A	B	Rpleas_acq	Same	Rpleas	2pleas	acq_US_pleas_nomask	acq2_nomask	2	33	480	1	300	300	0	0	424	50	1	0	vergnügt	besonnen	kuss	gütig	kreativ	sonnig	verbissen	bange	krise	gierig	krank	sterben	genießen	anregung	träumen	vertrauen	gesittet	engagiert	gemein	ausrottung	töten	versagen	geizig	engstirnig	1	blank2r.bmp	0	1	+	0	1	blank2r.bmp	500	1	DHJF	500	1	blank2r.bmp	880	5	kreativ	880	1	!	1313	1	!	1323	0	0	0	0	0	0
2024-06-21	12:19:23	12:24:43	318040	6.6.1	4_exp_EVA_AWA_CON	807	A	B	Rpleas_acq	Same	Rpleas	2pleas	acq_new_unple_nomask	acq2_nomask	2	34	480	1	300	300	0	0	494	50	0	0	vergnügt	besonnen	kuss	gütig	kreativ	sonnig	verbissen	bange	krise	gierig	krank	sterben	genießen	anregung	träumen	vertrauen	gesittet	engagiert	gemein	ausrottung	töten	versagen	geizig	engstirnig	1	blank2r.bmp	0	1	+	0	1	blank2r.bmp	500	6	C2r.bmp	500	1	blank2r.bmp	880	2	ausrottung	880	1	FEHLER	1687	1	!	1313	1	!	1395	0	0	0
2024-06-21	12:19:23	12:24:45	320369	6.6.1	4_exp_EVA_AWA_CON	807	A	B	Rpleas_acq	Same	Rpleas	2pleas	acq_new_unple_nomask	acq2_nomask	2	35	480	1	300	300	0	0	551	50	0	0	vergnügt	besonnen	kuss	gütig	kreativ	sonnig	verbissen	bange	krise	gierig	krank	sterben	genießen	anregung	träumen	vertrauen	gesittet	engagiert	gemein	ausrottung	töten	versagen	geizig	engstirnig	1	blank2r.bmp	0	1	+	0	1	blank2r.bmp	500	2	B2r.bmp	500	1	blank2r.bmp	880	5	geizig	880	1	FEHLER	1744	1	!	1313	1	!	1452	0	0	0
2024-06-21	12:19:23	12:24:47	322415	6.6.1	4_exp_EVA_AWA_CON	807	A	B	Rpleas_acq	Same	Rpleas	2pleas	acq_US_unple_nomask	acq2_nomask	2	36	480	1	300	300	0	0	467	46	1	0	vergnügt	besonnen	kuss	gütig	kreativ	sonnig	verbissen	bange	krise	gierig	krank	sterben	genießen	anregung	träumen	vertrauen	gesittet	engagiert	gemein	ausrottung	töten	versagen	geizig	engstirnig	1	blank2r.bmp	0	1	+	0	1	blank2r.bmp	500	1	CPLW	500	1	blank2r.bmp	880	6	sterben	880	1	!	1312	1	!	1368	0	0	0	0	0	0
2024-06-21	12:19:23	12:25:05	340422	6.6.1	4_exp_EVA_AWA_CON	807	A	B	Rpleas_acq	Same	Rpleas	2pleas	acq_US_unple_nomask	acq3_nomask	3	1	453	1	300	300	0	0	394	46	1	0	vergnügt	besonnen	kuss	gütig	kreativ	sonnig	verbissen	bange	krise	gierig	krank	sterben	genießen	anregung	träumen	vertrauen	gesittet	engagiert	gemein	ausrottung	töten	versagen	geizig	engstirnig	1	blank2r.bmp	0	1	+	0	1	blank2r.bmp	500	1	CPLW	500	1	blank2r.bmp	880	5	krank	880	1	!	1292	1	!	1293	0	0	0	0	0	0
2024-06-21	12:19:23	12:25:07	342582	6.6.1	4_exp_EVA_AWA_CON	807	A	B	Rpleas_acq	Same	Rpleas	2pleas	acq_US_pleas_nomask	acq3_nomask	3	2	453	0	300	300	0	0	382	50	1	0	vergnügt	besonnen	kuss	gütig	kreativ	sonnig	verbissen	bange	krise	gierig	krank	sterben	genießen	anregung	träumen	vertrauen	gesittet	engagiert	gemein	ausrottung	töten	versagen	geizig	engstirnig	1	blank2r.bmp	0	1	+	0	1	blank2r.bmp	500	1	DHJF	500	1	blank2r.bmp	880	3	kuss	880	1	!	-1	1	!	-1	0	0	0	0	0	0
2024-06-21	12:19:23	12:25:10	345053	6.6.1	4_exp_EVA_AWA_CON	807	A	B	Rpleas_acq	Same	Rpleas	2pleas	acq_US_unple_nomask	acq3_nomask	3	3	453	0	300	300	0	0	693	46	1	0	vergnügt	besonnen	kuss	gütig	kreativ	sonnig	verbissen	bange	krise	gierig	krank	sterben	genießen	anregung	träumen	vertrauen	gesittet	engagiert	gemein	ausrottung	töten	versagen	geizig	engstirnig	1	blank2r.bmp	0	1	+	0	1	blank2r.bmp	500	1	CPLW	500	1	blank2r.bmp	880	3	krise	880	1	!	1292	1	!	-1	0	0	0	0	0	0
2024-06-21	12:19:23	12:25:12	347344	6.6.1	4_exp_EVA_AWA_CON	807	A	B	Rpleas_acq	Same	Rpleas	2pleas	acq_US_unple_nomask	acq3_nomask	3	4	453	1	300	300	0	0	509	46	1	0	vergnügt	besonnen	kuss	gütig	kreativ	sonnig	verbissen	bange	krise	gierig	krank	sterben	genießen	anregung	träumen	vertrauen	gesittet	engagiert	gemein	ausrottung	töten	versagen	geizig	engstirnig	1	blank2r.bmp	0	1	+	0	1	blank2r.bmp	500	1	CPLW	500	1	blank2r.bmp	880	4	gierig	880	1	!	1292	1	!	1410	0	0	0	0	0	0
2024-06-21	12:19:23	12:25:14	349758	6.6.1	4_exp_EVA_AWA_CON	807	A	B	Rpleas_acq	Same	Rpleas	2pleas	acq_US_unple_nomask	acq3_nomask	3	5	453	0	300	300	0	0	634	46	1	0	vergnügt	besonnen	kuss	gütig	kreativ	sonnig	verbissen	bange	krise	gierig	krank	sterben	genießen	anregung	träumen	vertrauen	gesittet	engagiert	gemein	ausrottung	töten	versagen	geizig	engstirnig	1	blank2r.bmp	0	1	+	0	1	blank2r.bmp	500	1	CPLW	500	1	blank2r.bmp	880	2	bange	880	1	!	1293	1	!	-1	0	0	0	0	0	0
2024-06-21	12:19:23	12:25:16	351910	6.6.1	4_exp_EVA_AWA_CON	807	A	B	Rpleas_acq	Same	Rpleas	2pleas	acq_US_pleas_nomask	acq3_nomask	3	6	453	0	300	300	0	0	373	50	1	0	vergnügt	besonnen	kuss	gütig	kreativ	sonnig	verbissen	bange	krise	gierig	krank	sterben	genießen	anregung	träumen	vertrauen	gesittet	engagiert	gemein	ausrottung	töten	versagen	geizig	engstirnig	1	blank2r.bmp	0	1	+	0	1	blank2r.bmp	500	1	DHJF	500	1	blank2r.bmp	880	4	gütig	880	1	!	-1	1	!	-1	0	0	0	0	0	0
2024-06-21	12:19:23	12:25:19	354334	6.6.1	4_exp_EVA_AWA_CON	807	A	B	Rpleas_acq	Same	Rpleas	2pleas	acq_US_unple_nomask	acq3_nomask	3	7	453	0	300	300	0	0	647	46	1	0	vergnügt	besonnen	kuss	gütig	kreativ	sonnig	verbissen	bange	krise	gierig	krank	sterben	genießen	anregung	träumen	vertrauen	gesittet	engagiert	gemein	ausrottung	töten	versagen	geizig	engstirnig	1	blank2r.bmp	0	1	+	0	1	blank2r.bmp	500	1	CPLW	500	1	blank2r.bmp	880	6	sterben	880	1	!	1292	1	!	-1	0	0	0	0	0	0
2024-06-21	12:19:23	12:25:21	356575	6.6.1	4_exp_EVA_AWA_CON	807	A	B	Rpleas_acq	Same	Rpleas	2pleas	acq_US_pleas_nomask	acq3_nomask	3	8	453	1	300	300	0	0	465	50	1	0	vergnügt	besonnen	kuss	gütig	kreativ	sonnig	verbissen	bange	krise	gierig	krank	sterben	genießen	anregung	träumen	vertrauen	gesittet	engagiert	gemein	ausrottung	töten	versagen	geizig	engstirnig	1	blank2r.bmp	0	1	+	0	1	blank2r.bmp	500	1	DHJF	500	1	blank2r.bmp	880	5	kreativ	880	1	!	1293	1	!	1366	0	0	0	0	0	0
2024-06-21	12:19:23	12:25:23	358876	6.6.1	4_exp_EVA_AWA_CON	807	A	B	Rpleas_acq	Same	Rpleas	2pleas	acq_US_pleas_nomask	acq3_nomask	3	9	453	0	300	300	0	0	528	50	1	0	vergnügt	besonnen	kuss	gütig	kreativ	sonnig	verbissen	bange	krise	gierig	krank	sterben	genießen	anregung	träumen	vertrauen	gesittet	engagiert	gemein	ausrottung	töten	versagen	geizig	engstirnig	1	blank2r.bmp	0	1	+	0	1	blank2r.bmp	500	1	DHJF	500	1	blank2r.bmp	880	6	sonnig	880	1	!	1293	1	!	-1	0	0	0	0	0	0
2024-06-21	12:19:23	12:25:26	361135	6.6.1	4_exp_EVA_AWA_CON	807	A	B	Rpleas_acq	Same	Rpleas	2pleas	acq_US_pleas_nomask	acq3_nomask	3	10	453	1	300	300	0	0	483	50	1	0	vergnügt	besonnen	kuss	gütig	kreativ	sonnig	verbissen	bange	krise	gierig	krank	sterben	genießen	anregung	träumen	vertrauen	gesittet	engagiert	gemein	ausrottung	töten	versagen	geizig	engstirnig	1	blank2r.bmp	0	1	+	0	1	blank2r.bmp	500	1	DHJF	500	1	blank2r.bmp	880	2	besonnen	880	1	!	1292	1	!	1383	0	0	0	0	0	0
2024-06-21	12:19:23	12:25:28	363416	6.6.1	4_exp_EVA_AWA_CON	807	A	B	Rpleas_acq	Same	Rpleas	2pleas	acq_US_unple_nomask	acq3_nomask	3	11	453	1	300	300	0	0	500	46	1	0	vergnügt	besonnen	kuss	gütig	kreativ	sonnig	verbissen	bange	krise	gierig	krank	sterben	genießen	anregung	träumen	vertrauen	gesittet	engagiert	gemein	ausrottung	töten	versagen	geizig	engstirnig	1	blank2r.bmp	0	1	+	0	1	blank2r.bmp	500	1	CPLW	500	1	blank2r.bmp	880	1	verbissen	880	1	!	1292	1	!	1402	0	0	0	0	0	0
2024-06-21	12:19:23	12:25:30	365616	6.6.1	4_exp_EVA_AWA_CON	807	A	B	Rpleas_acq	Same	Rpleas	2pleas	acq_US_pleas_nomask	acq3_nomask	3	12	453	1	300	300	0	0	420	50	1	0	vergnügt	besonnen	kuss	gütig	kreativ	sonnig	verbissen	bange	krise	gierig	krank	sterben	genießen	anregung	träumen	vertrauen	gesittet	engagiert	gemein	ausrottung	töten	versagen	geizig	engstirnig	1	blank2r.bmp	0	1	+	0	1	blank2r.bmp	500	1	DHJF	500	1	blank2r.bmp	880	1	vergnügt	880	1	!	1293	1	!	1320	0	0	0	0	0	0
2024-06-21	12:19:23	12:25:33	367989	6.6.1	4_exp_EVA_AWA_CON	807	A	B	Rpleas_acq	Same	Rpleas	2pleas	acq_US_pleas_nomask	acq3_nomask	3	13	453	0	300	300	0	0	593	50	1	0	vergnügt	besonnen	kuss	gütig	kreativ	sonnig	verbissen	bange	krise	gierig	krank	sterben	genießen	anregung	träumen	vertrauen	gesittet	engagiert	gemein	ausrottung	töten	versagen	geizig	engstirnig	1	blank2r.bmp	0	1	+	0	1	blank2r.bmp	500	1	DHJF	500	1	blank2r.bmp	880	6	sonnig	880	1	!	1293	1	!	-1	0	0	0	0	0	0
2024-06-21	12:19:23	12:25:35	370086	6.6.1	4_exp_EVA_AWA_CON	807	A	B	Rpleas_acq	Same	Rpleas	2pleas	acq_US_unple_nomask	acq3_nomask	3	14	453	0	300	300	0	0	318	46	1	0	vergnügt	besonnen	kuss	gütig	kreativ	sonnig	verbissen	bange	krise	gierig	krank	sterben	genießen	anregung	träumen	vertrauen	gesittet	engagiert	gemein	ausrottung	töten	versagen	geizig	engstirnig	1	blank2r.bmp	0	1	+	0	1	blank2r.bmp	500	1	CPLW	500	1	blank2r.bmp	880	5	krank	880	1	!	-1	1	!	-1	0	0	0	0	0	0
2024-06-21	12:19:23	12:25:37	372502	6.6.1	4_exp_EVA_AWA_CON	807	A	B	Rpleas_acq	Same	Rpleas	2pleas	acq_US_unple_nomask	acq3_nomask	3	15	453	0	300	300	0	0	643	46	1	0	vergnügt	besonnen	kuss	gütig	kreativ	sonnig	verbissen	bange	krise	gierig	krank	sterben	genießen	anregung	träumen	vertrauen	gesittet	engagiert	gemein	ausrottung	töten	versagen	geizig	engstirnig	1	blank2r.bmp	0	1	+	0	1	blank2r.bmp	500	1	CPLW	500	1	blank2r.bmp	880	6	sterben	880	1	!	1293	1	!	-1	0	0	0	0	0	0
2024-06-21	12:19:23	12:25:39	374677	6.6.1	4_exp_EVA_AWA_CON	807	A	B	Rpleas_acq	Same	Rpleas	2pleas	acq_US_unple_nomask	acq3_nomask	3	16	453	1	300	300	0	0	397	46	1	0	vergnügt	besonnen	kuss	gütig	kreativ	sonnig	verbissen	bange	krise	gierig	krank	sterben	genießen	anregung	träumen	vertrauen	gesittet	engagiert	gemein	ausrottung	töten	versagen	geizig	engstirnig	1	blank2r.bmp	0	1	+	0	1	blank2r.bmp	500	1	CPLW	500	1	blank2r.bmp	880	4	gierig	880	1	!	1292	1	!	1297	0	0	0	0	0	0
2024-06-21	12:19:23	12:25:42	376980	6.6.1	4_exp_EVA_AWA_CON	807	A	B	Rpleas_acq	Same	Rpleas	2pleas	acq_US_pleas_nomask	acq3_nomask	3	17	453	0	300	300	0	0	530	50	1	0	vergnügt	besonnen	kuss	gütig	kreativ	sonnig	verbissen	bange	krise	gierig	krank	sterben	genießen	anregung	träumen	vertrauen	gesittet	engagiert	gemein	ausrottung	töten	versagen	geizig	engstirnig	1	blank2r.bmp	0	1	+	0	1	blank2r.bmp	500	1	DHJF	500	1	blank2r.bmp	880	5	kreativ	880	1	!	1292	1	!	-1	0	0	0	0	0	0
2024-06-21	12:19:23	12:25:44	379394	6.6.1	4_exp_EVA_AWA_CON	807	A	B	Rpleas_acq	Same	Rpleas	2pleas	acq_US_unple_nomask	acq3_nomask	3	18	453	1	300	300	0	0	437	50	0	0	vergnügt	besonnen	kuss	gütig	kreativ	sonnig	verbissen	bange	krise	gierig	krank	sterben	genießen	anregung	träumen	vertrauen	gesittet	engagiert	gemein	ausrottung	töten	versagen	geizig	engstirnig	1	blank2r.bmp	0	1	+	0	1	blank2r.bmp	500	1	CPLW	500	1	blank2r.bmp	880	1	verbissen	880	1	FEHLER	1630	1	!	1293	1	!	1338	0	0	0
2024-06-21	12:19:23	12:25:46	381463	6.6.1	4_exp_EVA_AWA_CON	807	A	B	Rpleas_acq	Same	Rpleas	2pleas	acq_US_pleas_nomask	acq3_nomask	3	19	453	1	300	300	0	0	496	50	1	0	vergnügt	besonnen	kuss	gütig	kreativ	sonnig	verbissen	bange	krise	gierig	krank	sterben	genießen	anregung	träumen	vertrauen	gesittet	engagiert	gemein	ausrottung	töten	versagen	geizig	engstirnig	1	blank2r.bmp	0	1	+	0	1	blank2r.bmp	500	1	DHJF	500	1	blank2r.bmp	880	1	vergnügt	880	1	!	1292	1	!	1398	0	0	0	0	0	0
2024-06-21	12:19:23	12:25:48	383647	6.6.1	4_exp_EVA_AWA_CON	807	A	B	Rpleas_acq	Same	Rpleas	2pleas	acq_US_pleas_nomask	acq3_nomask	3	20	453	1	300	300	0	0	409	50	1	0	vergnügt	besonnen	kuss	gütig	kreativ	sonnig	verbissen	bange	krise	gierig	krank	sterben	genießen	anregung	träumen	vertrauen	gesittet	engagiert	gemein	ausrottung	töten	versagen	geizig	engstirnig	1	blank2r.bmp	0	1	+	0	1	blank2r.bmp	500	1	DHJF	500	1	blank2r.bmp	880	3	kuss	880	1	!	1292	1	!	1311	0	0	0	0	0	0
2024-06-21	12:19:23	12:25:50	385888	6.6.1	4_exp_EVA_AWA_CON	807	A	B	Rpleas_acq	Same	Rpleas	2pleas	acq_US_pleas_nomask	acq3_nomask	3	21	453	1	300	300	0	0	458	50	1	0	vergnügt	besonnen	kuss	gütig	kreativ	sonnig	verbissen	bange	krise	gierig	krank	sterben	genießen	anregung	träumen	vertrauen	gesittet	engagiert	gemein	ausrottung	töten	versagen	geizig	engstirnig	1	blank2r.bmp	0	1	+	0	1	blank2r.bmp	500	1	DHJF	500	1	blank2r.bmp	880	2	besonnen	880	1	!	1292	1	!	1359	0	0	0	0	0	0
2024-06-21	12:19:23	12:25:53	388167	6.6.1	4_exp_EVA_AWA_CON	807	A	B	Rpleas_acq	Same	Rpleas	2pleas	acq_US_unple_nomask	acq3_nomask	3	22	453	1	300	300	0	0	496	46	1	0	vergnügt	besonnen	kuss	gütig	kreativ	sonnig	verbissen	bange	krise	gierig	krank	sterben	genießen	anregung	träumen	vertrauen	gesittet	engagiert	gemein	ausrottung	töten	versagen	geizig	engstirnig	1	blank2r.bmp	0	1	+	0	1	blank2r.bmp	500	1	CPLW	500	1	blank2r.bmp	880	2	bange	880	1	!	1292	1	!	1398	0	0	0	0	0	0
2024-06-21	12:19:23	12:25:55	390614	6.6.1	4_exp_EVA_AWA_CON	807	A	B	Rpleas_acq	Same	Rpleas	2pleas	acq_US_unple_nomask	acq3_nomask	3	23	453	0	300	300	0	0	674	46	1	0	vergnügt	besonnen	kuss	gütig	kreativ	sonnig	verbissen	bange	krise	gierig	krank	sterben	genießen	anregung	träumen	vertrauen	gesittet	engagiert	gemein	ausrottung	töten	versagen	geizig	engstirnig	1	blank2r.bmp	0	1	+	0	1	blank2r.bmp	500	1	CPLW	500	1	blank2r.bmp	880	3	krise	880	1	!	1293	1	!	-1	0	0	0	0	0	0
2024-06-21	12:19:23	12:25:57	392856	6.6.1	4_exp_EVA_AWA_CON	807	A	B	Rpleas_acq	Same	Rpleas	2pleas	acq_US_pleas_nomask	acq3_nomask	3	24	453	1	300	300	0	0	461	50	1	0	vergnügt	besonnen	kuss	gütig	kreativ	sonnig	verbissen	bange	krise	gierig	krank	sterben	genießen	anregung	träumen	vertrauen	gesittet	engagiert	gemein	ausrottung	töten	versagen	geizig	engstirnig	1	blank2r.bmp	0	1	+	0	1	blank2r.bmp	500	1	DHJF	500	1	blank2r.bmp	880	4	gütig	880	1	!	1292	1	!	1363	0	0	0	0	0	0
2024-06-21	12:19:23	12:26:00	394982	6.6.1	4_exp_EVA_AWA_CON	807	A	B	Rpleas_acq	Same	Rpleas	2pleas	acq_US_unple_nomask	acq3_nomask	3	25	453	0	300	300	0	0	349	46	1	0	vergnügt	besonnen	kuss	gütig	kreativ	sonnig	verbissen	bange	krise	gierig	krank	sterben	genießen	anregung	träumen	vertrauen	gesittet	engagiert	gemein	ausrottung	töten	versagen	geizig	engstirnig	1	blank2r.bmp	0	1	+	0	1	blank2r.bmp	500	1	CPLW	500	1	blank2r.bmp	880	6	sterben	880	1	!	-1	1	!	-1	0	0	0	0	0	0
2024-06-21	12:19:23	12:26:02	397223	6.6.1	4_exp_EVA_AWA_CON	807	A	B	Rpleas_acq	Same	Rpleas	2pleas	acq_US_pleas_nomask	acq3_nomask	3	26	453	1	300	300	0	0	466	50	1	0	vergnügt	besonnen	kuss	gütig	kreativ	sonnig	verbissen	bange	krise	gierig	krank	sterben	genießen	anregung	träumen	vertrauen	gesittet	engagiert	gemein	ausrottung	töten	versagen	geizig	engstirnig	1	blank2r.bmp	0	1	+	0	1	blank2r.bmp	500	1	DHJF	500	1	blank2r.bmp	880	6	sonnig	880	1	!	1293	1	!	1368	0	0	0	0	0	0
2024-06-21	12:19:23	12:26:04	399541	6.6.1	4_exp_EVA_AWA_CON	807	A	B	Rpleas_acq	Same	Rpleas	2pleas	acq_US_pleas_nomask	acq3_nomask	3	27	453	0	300	300	0	0	545	50	1	0	vergnügt	besonnen	kuss	gütig	kreativ	sonnig	verbissen	bange	krise	gierig	krank	sterben	genießen	anregung	träumen	vertrauen	gesittet	engagiert	gemein	ausrottung	töten	versagen	geizig	engstirnig	1	blank2r.bmp	0	1	+	0	1	blank2r.bmp	500	1	DHJF	500	1	blank2r.bmp	880	4	gütig	880	1	!	1293	1	!	-1	0	0	0	0	0	0
2024-06-21	12:19:23	12:26:06	401775	6.6.1	4_exp_EVA_AWA_CON	807	A	B	Rpleas_acq	Same	Rpleas	2pleas	acq_US_unple_nomask	acq3_nomask	3	28	453	1	300	300	0	0	455	46	1	0	vergnügt	besonnen	kuss	gütig	kreativ	sonnig	verbissen	bange	krise	gierig	krank	sterben	genießen	anregung	träumen	vertrauen	gesittet	engagiert	gemein	ausrottung	töten	versagen	geizig	engstirnig	1	blank2r.bmp	0	1	+	0	1	blank2r.bmp	500	1	CPLW	500	1	blank2r.bmp	880	1	verbissen	880	1	!	1293	1	!	1357	0	0	0	0	0	0
2024-06-21	12:19:23	12:26:09	403943	6.6.1	4_exp_EVA_AWA_CON	807	A	B	Rpleas_acq	Same	Rpleas	2pleas	acq_US_pleas_nomask	acq3_nomask	3	29	453	1	300	300	0	0	394	50	1	0	vergnügt	besonnen	kuss	gütig	kreativ	sonnig	verbissen	bange	krise	gierig	krank	sterben	genießen	anregung	träumen	vertrauen	gesittet	engagiert	gemein	ausrottung	töten	versagen	geizig	engstirnig	1	blank2r.bmp	0	1	+	0	1	blank2r.bmp	500	1	DHJF	500	1	blank2r.bmp	880	2	besonnen	880	1	!	1293	1	!	1293	0	0	0	0	0	0
2024-06-21	12:19:23	12:26:11	406176	6.6.1	4_exp_EVA_AWA_CON	807	A	B	Rpleas_acq	Same	Rpleas	2pleas	acq_US_unple_nomask	acq3_nomask	3	30	453	1	300	300	0	0	453	46	1	0	vergnügt	besonnen	kuss	gütig	kreativ	sonnig	verbissen	bange	krise	gierig	krank	sterben	genießen	anregung	träumen	vertrauen	gesittet	engagiert	gemein	ausrottung	töten	versagen	geizig	engstirnig	1	blank2r.bmp	0	1	+	0	1	blank2r.bmp	500	1	CPLW	500	1	blank2r.bmp	880	4	gierig	880	1	!	1293	1	!	1355	0	0	0	0	0	0
2024-06-21	12:19:23	12:26:13	408342	6.6.1	4_exp_EVA_AWA_CON	807	A	B	Rpleas_acq	Same	Rpleas	2pleas	acq_US_pleas_nomask	acq3_nomask	3	31	453	0	300	300	0	0	389	50	1	0	vergnügt	besonnen	kuss	gütig	kreativ	sonnig	verbissen	bange	krise	gierig	krank	sterben	genießen	anregung	träumen	vertrauen	gesittet	engagiert	gemein	ausrottung	töten	versagen	geizig	engstirnig	1	blank2r.bmp	0	1	+	0	1	blank2r.bmp	500	1	DHJF	500	1	blank2r.bmp	880	3	kuss	880	1	!	-1	1	!	-1	0	0	0	0	0	0
2024-06-21	12:19:23	12:26:15	410652	6.6.1	4_exp_EVA_AWA_CON	807	A	B	Rpleas_acq	Same	Rpleas	2pleas	acq_US_unple_nomask	acq3_nomask	3	32	453	0	300	300	0	0	531	46	1	0	vergnügt	besonnen	kuss	gütig	kreativ	sonnig	verbissen	bange	krise	gierig	krank	sterben	genießen	anregung	träumen	vertrauen	gesittet	engagiert	gemein	ausrottung	töten	versagen	geizig	engstirnig	1	blank2r.bmp	0	1	+	0	1	blank2r.bmp	500	1	CPLW	500	1	blank2r.bmp	880	3	krise	880	1	!	1292	1	!	-1	0	0	0	0	0	0
2024-06-21	12:19:23	12:26:17	412888	6.6.1	4_exp_EVA_AWA_CON	807	A	B	Rpleas_acq	Same	Rpleas	2pleas	acq_US_pleas_nomask	acq3_nomask	3	33	453	1	300	300	0	0	460	50	1	0	vergnügt	besonnen	kuss	gütig	kreativ	sonnig	verbissen	bange	krise	gierig	krank	sterben	genießen	anregung	träumen	vertrauen	gesittet	engagiert	gemein	ausrottung	töten	versagen	geizig	engstirnig	1	blank2r.bmp	0	1	+	0	1	blank2r.bmp	500	1	DHJF	500	1	blank2r.bmp	880	1	vergnügt	880	1	!	1293	1	!	1363	0	0	0	0	0	0
2024-06-21	12:19:23	12:26:20	415070	6.6.1	4_exp_EVA_AWA_CON	807	A	B	Rpleas_acq	Same	Rpleas	2pleas	acq_US_unple_nomask	acq3_nomask	3	34	453	1	300	300	0	0	404	46	1	0	vergnügt	besonnen	kuss	gütig	kreativ	sonnig	verbissen	bange	krise	gierig	krank	sterben	genießen	anregung	träumen	vertrauen	gesittet	engagiert	gemein	ausrottung	töten	versagen	geizig	engstirnig	1	blank2r.bmp	0	1	+	0	1	blank2r.bmp	500	1	CPLW	500	1	blank2r.bmp	880	5	krank	880	1	!	1292	1	!	1303	0	0	0	0	0	0
2024-06-21	12:19:23	12:26:22	417381	6.6.1	4_exp_EVA_AWA_CON	807	A	B	Rpleas_acq	Same	Rpleas	2pleas	acq_US_unple_nomask	acq3_nomask	3	35	453	0	300	300	0	0	533	46	1	0	vergnügt	besonnen	kuss	gütig	kreativ	sonnig	verbissen	bange	krise	gierig	krank	sterben	genießen	anregung	träumen	vertrauen	gesittet	engagiert	gemein	ausrottung	töten	versagen	geizig	engstirnig	1	blank2r.bmp	0	1	+	0	1	blank2r.bmp	500	1	CPLW	500	1	blank2r.bmp	880	2	bange	880	1	!	1292	1	!	-1	0	0	0	0	0	0
2024-06-21	12:19:23	12:26:24	419567	6.6.1	4_exp_EVA_AWA_CON	807	A	B	Rpleas_acq	Same	Rpleas	2pleas	acq_US_pleas_nomask	acq3_nomask	3	36	453	1	300	300	0	0	406	50	1	0	vergnügt	besonnen	kuss	gütig	kreativ	sonnig	verbissen	bange	krise	gierig	krank	sterben	genießen	anregung	träumen	vertrauen	gesittet	engagiert	gemein	ausrottung	töten	versagen	geizig	engstirnig	1	blank2r.bmp	0	1	+	0	1	blank2r.bmp	500	1	DHJF	500	1	blank2r.bmp	880	5	kreativ	880	1	!	1292	1	!	1308	0	0	0	0	0	0
2024-06-21	12:19:23	12:26:58	453479	6.6.1	4_exp_EVA_AWA_CON	807	A	B	Rpleas_acq	Same	Rpleas	2pleas	acq_US_unple_nomask	acq45_nomask	4	1	400	1	300	300	0	0	466	46	1	0	vergnügt	besonnen	kuss	gütig	kreativ	sonnig	verbissen	bange	krise	gierig	krank	sterben	genießen	anregung	träumen	vertrauen	gesittet	engagiert	gemein	ausrottung	töten	versagen	geizig	engstirnig	1	blank2r.bmp	0	1	+	0	1	blank2r.bmp	500	1	CPLW	500	1	blank2r.bmp	880	4	gierig	880	1	!	1232	1	!	1368	0	0	0	0	0	0
2024-06-21	12:19:23	12:27:00	455557	6.6.1	4_exp_EVA_AWA_CON	807	A	B	Rpleas_acq	Same	Rpleas	2pleas	acq_US_pleas_nomask	acq45_nomask	4	2	400	0	300	300	0	0	305	50	1	0	vergnügt	besonnen	kuss	gütig	kreativ	sonnig	verbissen	bange	krise	gierig	krank	sterben	genießen	anregung	träumen	vertrauen	gesittet	engagiert	gemein	ausrottung	töten	versagen	geizig	engstirnig	1	blank2r.bmp	0	1	+	0	1	blank2r.bmp	500	1	DHJF	500	1	blank2r.bmp	880	1	vergnügt	880	1	!	-1	1	!	-1	0	0	0	0	0	0
2024-06-21	12:19:23	12:27:02	457845	6.6.1	4_exp_EVA_AWA_CON	807	A	B	Rpleas_acq	Same	Rpleas	2pleas	acq_US_pleas_nomask	acq45_nomask	4	3	400	0	300	300	0	0	512	50	1	0	vergnügt	besonnen	kuss	gütig	kreativ	sonnig	verbissen	bange	krise	gierig	krank	sterben	genießen	anregung	träumen	vertrauen	gesittet	engagiert	gemein	ausrottung	töten	versagen	geizig	engstirnig	1	blank2r.bmp	0	1	+	0	1	blank2r.bmp	500	1	DHJF	500	1	blank2r.bmp	880	2	besonnen	880	1	!	1232	1	!	-1	0	0	0	0	0	0
2024-06-21	12:19:23	12:27:05	459959	6.6.1	4_exp_EVA_AWA_CON	807	A	B	Rpleas_acq	Same	Rpleas	2pleas	acq_US_unple_nomask	acq45_nomask	4	4	400	1	300	300	0	0	334	50	0	0	vergnügt	besonnen	kuss	gütig	kreativ	sonnig	verbissen	bange	krise	gierig	krank	sterben	genießen	anregung	träumen	vertrauen	gesittet	engagiert	gemein	ausrottung	töten	versagen	geizig	engstirnig	1	blank2r.bmp	0	1	+	0	1	blank2r.bmp	500	1	CPLW	500	1	blank2r.bmp	880	5	krank	880	1	!	1233	1	!	1233	0	0	0	0	0	0
2024-06-21	12:19:23	12:27:07	462199	6.6.1	4_exp_EVA_AWA_CON	807	A	B	Rpleas_acq	Same	Rpleas	2pleas	acq_US_unple_nomask	acq45_nomask	4	5	400	1	300	300	0	0	461	46	1	0	vergnügt	besonnen	kuss	gütig	kreativ	sonnig	verbissen	bange	krise	gierig	krank	sterben	genießen	anregung	träumen	vertrauen	gesittet	engagiert	gemein	ausrottung	töten	versagen	geizig	engstirnig	1	blank2r.bmp	0	1	+	0	1	blank2r.bmp	500	1	CPLW	500	1	blank2r.bmp	880	1	verbissen	880	1	!	1232	1	!	1363	0	0	0	0	0	0
2024-06-21	12:19:23	12:27:09	464391	6.6.1	4_exp_EVA_AWA_CON	807	A	B	Rpleas_acq	Same	Rpleas	2pleas	acq_US_pleas_nomask	acq45_nomask	4	6	400	1	300	300	0	0	411	46	0	0	vergnügt	besonnen	kuss	gütig	kreativ	sonnig	verbissen	bange	krise	gierig	krank	sterben	genießen	anregung	träumen	vertrauen	gesittet	engagiert	gemein	ausrottung	töten	versagen	geizig	engstirnig	1	blank2r.bmp	0	1	+	0	1	blank2r.bmp	500	1	DHJF	500	1	blank2r.bmp	880	3	kuss	880	1	!	1233	1	!	1313	0	0	0	0	0	0
2024-06-21	12:19:23	12:27:12	466925	6.6.1	4_exp_EVA_AWA_CON	807	A	B	Rpleas_acq	Same	Rpleas	2pleas	acq_US_unple_nomask	acq45_nomask	4	7	400	0	300	300	0	0	756	46	1	0	vergnügt	besonnen	kuss	gütig	kreativ	sonnig	verbissen	bange	krise	gierig	krank	sterben	genießen	anregung	träumen	vertrauen	gesittet	engagiert	gemein	ausrottung	töten	versagen	geizig	engstirnig	1	blank2r.bmp	0	1	+	0	1	blank2r.bmp	500	1	CPLW	500	1	blank2r.bmp	880	2	bange	880	1	!	1232	1	!	-1	0	0	0	0	0	0
2024-06-21	12:19:23	12:27:14	469135	6.6.1	4_exp_EVA_AWA_CON	807	A	B	Rpleas_acq	Same	Rpleas	2pleas	acq_US_pleas_nomask	acq45_nomask	4	8	400	1	300	300	0	0	432	50	1	0	vergnügt	besonnen	kuss	gütig	kreativ	sonnig	verbissen	bange	krise	gierig	krank	sterben	genießen	anregung	träumen	vertrauen	gesittet	engagiert	gemein	ausrottung	töten	versagen	geizig	engstirnig	1	blank2r.bmp	0	1	+	0	1	blank2r.bmp	500	1	DHJF	500	1	blank2r.bmp	880	5	kreativ	880	1	!	1232	1	!	1334	0	0	0	0	0	0
2024-06-21	12:19:23	12:27:16	471319	6.6.1	4_exp_EVA_AWA_CON	807	A	B	Rpleas_acq	Same	Rpleas	2pleas	acq_US_unple_nomask	acq45_nomask	4	9	400	1	300	300	0	0	405	46	1	0	vergnügt	besonnen	kuss	gütig	kreativ	sonnig	verbissen	bange	krise	gierig	krank	sterben	genießen	anregung	träumen	vertrauen	gesittet	engagiert	gemein	ausrottung	töten	versagen	geizig	engstirnig	1	blank2r.bmp	0	1	+	0	1	blank2r.bmp	500	1	CPLW	500	1	blank2r.bmp	880	3	krise	880	1	!	1232	1	!	1307	0	0	0	0	0	0
2024-06-21	12:19:23	12:27:18	473597	6.6.1	4_exp_EVA_AWA_CON	807	A	B	Rpleas_acq	Same	Rpleas	2pleas	acq_US_unple_nomask	acq45_nomask	4	10	400	0	300	300	0	0	503	46	1	0	vergnügt	besonnen	kuss	gütig	kreativ	sonnig	verbissen	bange	krise	gierig	krank	sterben	genießen	anregung	träumen	vertrauen	gesittet	engagiert	gemein	ausrottung	töten	versagen	geizig	engstirnig	1	blank2r.bmp	0	1	+	0	1	blank2r.bmp	500	1	CPLW	500	1	blank2r.bmp	880	6	sterben	880	1	!	1232	1	!	-1	0	0	0	0	0	0
2024-06-21	12:19:23	12:27:20	475861	6.6.1	4_exp_EVA_AWA_CON	807	A	B	Rpleas_acq	Same	Rpleas	2pleas	acq_US_pleas_nomask	acq45_nomask	4	11	400	0	300	300	0	0	486	50	1	0	vergnügt	besonnen	kuss	gütig	kreativ	sonnig	verbissen	bange	krise	gierig	krank	sterben	genießen	anregung	träumen	vertrauen	gesittet	engagiert	gemein	ausrottung	töten	versagen	geizig	engstirnig	1	blank2r.bmp	0	1	+	0	1	blank2r.bmp	500	1	DHJF	500	1	blank2r.bmp	880	6	sonnig	880	1	!	1232	1	!	-1	0	0	0	0	0	0
2024-06-21	12:19:23	12:27:23	478087	6.6.1	4_exp_EVA_AWA_CON	807	A	B	Rpleas_acq	Same	Rpleas	2pleas	acq_US_unple_nomask	acq45_nomask	4	12	400	1	300	300	0	0	449	46	1	0	vergnügt	besonnen	kuss	gütig	kreativ	sonnig	verbissen	bange	krise	gierig	krank	sterben	genießen	anregung	träumen	vertrauen	gesittet	engagiert	gemein	ausrottung	töten	versagen	geizig	engstirnig	1	blank2r.bmp	0	1	+	0	1	blank2r.bmp	500	1	CPLW	500	1	blank2r.bmp	880	5	krank	880	1	!	1232	1	!	1350	0	0	0	0	0	0
2024-06-21	12:19:23	12:27:25	480357	6.6.1	4_exp_EVA_AWA_CON	807	A	B	Rpleas_acq	Same	Rpleas	2pleas	acq_US_unple_nomask	acq45_nomask	4	13	400	0	300	300	0	0	489	46	1	0	vergnügt	besonnen	kuss	gütig	kreativ	sonnig	verbissen	bange	krise	gierig	krank	sterben	genießen	anregung	träumen	vertrauen	gesittet	engagiert	gemein	ausrottung	töten	versagen	geizig	engstirnig	1	blank2r.bmp	0	1	+	0	1	blank2r.bmp	500	1	CPLW	500	1	blank2r.bmp	880	4	gierig	880	1	!	1232	1	!	-1	0	0	0	0	0	0
2024-06-21	12:19:23	12:27:27	482512	6.6.1	4_exp_EVA_AWA_CON	807	A	B	Rpleas_acq	Same	Rpleas	2pleas	acq_US_pleas_nomask	acq45_nomask	4	14	400	1	300	300	0	0	370	46	0	0	vergnügt	besonnen	kuss	gütig	kreativ	sonnig	verbissen	bange	krise	gierig	krank	sterben	genießen	anregung	träumen	vertrauen	gesittet	engagiert	gemein	ausrottung	töten	versagen	geizig	engstirnig	1	blank2r.bmp	0	1	+	0	1	blank2r.bmp	500	1	DHJF	500	1	blank2r.bmp	880	4	gütig	880	1	!	1232	1	!	1272	0	0	0	0	0	0
2024-06-21	12:19:23	12:27:29	484744	6.6.1	4_exp_EVA_AWA_CON	807	A	B	Rpleas_acq	Same	Rpleas	2pleas	acq_US_unple_nomask	acq45_nomask	4	15	400	1	300	300	0	0	450	46	1	0	vergnügt	besonnen	kuss	gütig	kreativ	sonnig	verbissen	bange	krise	gierig	krank	sterben	genießen	anregung	träumen	vertrauen	gesittet	engagiert	gemein	ausrottung	töten	versagen	geizig	engstirnig	1	blank2r.bmp	0	1	+	0	1	blank2r.bmp	500	1	CPLW	500	1	blank2r.bmp	880	6	sterben	880	1	!	1232	1	!	1352	0	0	0	0	0	0
2024-06-21	12:19:23	12:27:31	486879	6.6.1	4_exp_EVA_AWA_CON	807	A	B	Rpleas_acq	Same	Rpleas	2pleas	acq_US_pleas_nomask	acq45_nomask	4	16	400	1	300	300	0	0	355	50	1	0	vergnügt	besonnen	kuss	gütig	kreativ	sonnig	verbissen	bange	krise	gierig	krank	sterben	genießen	anregung	träumen	vertrauen	gesittet	engagiert	gemein	ausrottung	töten	versagen	geizig	engstirnig	1	blank2r.bmp	0	1	+	0	1	blank2r.bmp	500	1	DHJF	500	1	blank2r.bmp	880	3	kuss	880	1	!	1232	1	!	1257	0	0	0	0	0	0
2024-06-21	12:19:23	12:27:34	489103	6.6.1	4_exp_EVA_AWA_CON	807	A	B	Rpleas_acq	Same	Rpleas	2pleas	acq_US_pleas_nomask	acq45_nomask	4	17	400	1	300	300	0	0	447	50	1	0	vergnügt	besonnen	kuss	gütig	kreativ	sonnig	verbissen	bange	krise	gierig	krank	sterben	genießen	anregung	träumen	vertrauen	gesittet	engagiert	gemein	ausrottung	töten	versagen	geizig	engstirnig	1	blank2r.bmp	0	1	+	0	1	blank2r.bmp	500	1	DHJF	500	1	blank2r.bmp	880	2	besonnen	880	1	!	1232	1	!	1349	0	0	0	0	0	0
2024-06-21	12:19:23	12:27:36	491357	6.6.1	4_exp_EVA_AWA_CON	807	A	B	Rpleas_acq	Same	Rpleas	2pleas	acq_US_pleas_nomask	acq45_nomask	4	18	400	0	300	300	0	0	473	50	1	0	vergnügt	besonnen	kuss	gütig	kreativ	sonnig	verbissen	bange	krise	gierig	krank	sterben	genießen	anregung	träumen	vertrauen	gesittet	engagiert	gemein	ausrottung	töten	versagen	geizig	engstirnig	1	blank2r.bmp	0	1	+	0	1	blank2r.bmp	500	1	DHJF	500	1	blank2r.bmp	880	6	sonnig	880	1	!	1232	1	!	-1	0	0	0	0	0	0
2024-06-21	12:19:23	12:27:38	493612	6.6.1	4_exp_EVA_AWA_CON	807	A	B	Rpleas_acq	Same	Rpleas	2pleas	acq_US_unple_nomask	acq45_nomask	4	19	400	0	300	300	0	0	477	46	1	0	vergnügt	besonnen	kuss	gütig	kreativ	sonnig	verbissen	bange	krise	gierig	krank	sterben	genießen	anregung	träumen	vertrauen	gesittet	engagiert	gemein	ausrottung	töten	versagen	geizig	engstirnig	1	blank2r.bmp	0	1	+	0	1	blank2r.bmp	500	1	CPLW	500	1	blank2r.bmp	880	3	krise	880	1	!	1232	1	!	-1	0	0	0	0	0	0
2024-06-21	12:19:23	12:27:40	495815	6.6.1	4_exp_EVA_AWA_CON	807	A	B	Rpleas_acq	Same	Rpleas	2pleas	acq_US_pleas_nomask	acq45_nomask	4	20	400	1	300	300	0	0	425	50	1	0	vergnügt	besonnen	kuss	gütig	kreativ	sonnig	verbissen	bange	krise	gierig	krank	sterben	genießen	anregung	träumen	vertrauen	gesittet	engagiert	gemein	ausrottung	töten	versagen	geizig	engstirnig	1	blank2r.bmp	0	1	+	0	1	blank2r.bmp	500	1	DHJF	500	1	blank2r.bmp	880	4	gütig	880	1	!	1232	1	!	1327	0	0	0	0	0	0
2024-06-21	12:19:23	12:27:43	498110	6.6.1	4_exp_EVA_AWA_CON	807	A	B	Rpleas_acq	Same	Rpleas	2pleas	acq_US_unple_nomask	acq45_nomask	4	21	400	0	300	300	0	0	520	46	1	0	vergnügt	besonnen	kuss	gütig	kreativ	sonnig	verbissen	bange	krise	gierig	krank	sterben	genießen	anregung	träumen	vertrauen	gesittet	engagiert	gemein	ausrottung	töten	versagen	geizig	engstirnig	1	blank2r.bmp	0	1	+	0	1	blank2r.bmp	500	1	CPLW	500	1	blank2r.bmp	880	2	bange	880	1	!	1232	1	!	-1	0	0	0	0	0	0
2024-06-21	12:19:23	12:27:45	500509	6.6.1	4_exp_EVA_AWA_CON	807	A	B	Rpleas_acq	Same	Rpleas	2pleas	acq_US_unple_nomask	acq45_nomask	4	22	400	0	300	300	0	0	618	46	1	0	vergnügt	besonnen	kuss	gütig	kreativ	sonnig	verbissen	bange	krise	gierig	krank	sterben	genießen	anregung	träumen	vertrauen	gesittet	engagiert	gemein	ausrottung	töten	versagen	geizig	engstirnig	1	blank2r.bmp	0	1	+	0	1	blank2r.bmp	500	1	CPLW	500	1	blank2r.bmp	880	1	verbissen	880	1	!	1232	1	!	-1	0	0	0	0	0	0
2024-06-21	12:19:23	12:27:47	502774	6.6.1	4_exp_EVA_AWA_CON	807	A	B	Rpleas_acq	Same	Rpleas	2pleas	acq_US_pleas_nomask	acq45_nomask	4	23	400	0	300	300	0	0	491	50	1	0	vergnügt	besonnen	kuss	gütig	kreativ	sonnig	verbissen	bange	krise	gierig	krank	sterben	genießen	anregung	träumen	vertrauen	gesittet	engagiert	gemein	ausrottung	töten	versagen	geizig	engstirnig	1	blank2r.bmp	0	1	+	0	1	blank2r.bmp	500	1	DHJF	500	1	blank2r.bmp	880	5	kreativ	880	1	!	1232	1	!	-1	0	0	0	0	0	0
2024-06-21	12:19:23	12:27:49	504894	6.6.1	4_exp_EVA_AWA_CON	807	A	B	Rpleas_acq	Same	Rpleas	2pleas	acq_US_unple_nomask	acq45_nomask	4	24	400	1	300	300	0	0	339	46	1	0	vergnügt	besonnen	kuss	gütig	kreativ	sonnig	verbissen	bange	krise	gierig	krank	sterben	genießen	anregung	träumen	vertrauen	gesittet	engagiert	gemein	ausrottung	töten	versagen	geizig	engstirnig	1	blank2r.bmp	0	1	+	0	1	blank2r.bmp	500	1	CPLW	500	1	blank2r.bmp	880	1	verbissen	880	1	!	1232	1	!	1239	0	0	0	0	0	0
2024-06-21	12:19:23	12:27:52	507119	6.6.1	4_exp_EVA_AWA_CON	807	A	B	Rpleas_acq	Same	Rpleas	2pleas	acq_US_unple_nomask	acq45_nomask	4	25	400	1	300	300	0	0	442	46	1	0	vergnügt	besonnen	kuss	gütig	kreativ	sonnig	verbissen	bange	krise	gierig	krank	sterben	genießen	anregung	träumen	vertrauen	gesittet	engagiert	gemein	ausrottung	töten	versagen	geizig	engstirnig	1	blank2r.bmp	0	1	+	0	1	blank2r.bmp	500	1	CPLW	500	1	blank2r.bmp	880	6	sterben	880	1	!	1233	1	!	1343	0	0	0	0	0	0
2024-06-21	12:19:23	12:27:54	509311	6.6.1	4_exp_EVA_AWA_CON	807	A	B	Rpleas_acq	Same	Rpleas	2pleas	acq_US_pleas_nomask	acq45_nomask	4	26	400	1	300	300	0	0	412	50	1	0	vergnügt	besonnen	kuss	gütig	kreativ	sonnig	verbissen	bange	krise	gierig	krank	sterben	genießen	anregung	träumen	vertrauen	gesittet	engagiert	gemein	ausrottung	töten	versagen	geizig	engstirnig	1	blank2r.bmp	0	1	+	0	1	blank2r.bmp	500	1	DHJF	500	1	blank2r.bmp	880	1	vergnügt	880	1	!	1232	1	!	1314	0	0	0	0	0	0
2024-06-21	12:19:23	12:27:56	511551	6.6.1	4_exp_EVA_AWA_CON	807	A	B	Rpleas_acq	Same	Rpleas	2pleas	acq_US_unple_nomask	acq45_nomask	4	27	400	1	300	300	0	0	461	46	1	0	vergnügt	besonnen	kuss	gütig	kreativ	sonnig	verbissen	bange	krise	gierig	krank	sterben	genießen	anregung	träumen	vertrauen	gesittet	engagiert	gemein	ausrottung	töten	versagen	geizig	engstirnig	1	blank2r.bmp	0	1	+	0	1	blank2r.bmp	500	1	CPLW	500	1	blank2r.bmp	880	3	krise	880	1	!	1232	1	!	1363	0	0	0	0	0	0
2024-06-21	12:19:23	12:27:58	513679	6.6.1	4_exp_EVA_AWA_CON	807	A	B	Rpleas_acq	Same	Rpleas	2pleas	acq_US_pleas_nomask	acq45_nomask	4	28	400	1	300	300	0	0	348	50	1	0	vergnügt	besonnen	kuss	gütig	kreativ	sonnig	verbissen	bange	krise	gierig	krank	sterben	genießen	anregung	träumen	vertrauen	gesittet	engagiert	gemein	ausrottung	töten	versagen	geizig	engstirnig	1	blank2r.bmp	0	1	+	0	1	blank2r.bmp	500	1	DHJF	500	1	blank2r.bmp	880	4	gütig	880	1	!	1232	1	!	1249	0	0	0	0	0	0
2024-06-21	12:19:23	12:28:00	515797	6.6.1	4_exp_EVA_AWA_CON	807	A	B	Rpleas_acq	Same	Rpleas	2pleas	acq_US_pleas_nomask	acq45_nomask	4	29	400	1	300	300	0	0	336	46	0	0	vergnügt	besonnen	kuss	gütig	kreativ	sonnig	verbissen	bange	krise	gierig	krank	sterben	genießen	anregung	träumen	vertrauen	gesittet	engagiert	gemein	ausrottung	töten	versagen	geizig	engstirnig	1	blank2r.bmp	0	1	+	0	1	blank2r.bmp	500	1	DHJF	500	1	blank2r.bmp	880	2	besonnen	880	1	!	1232	1	!	1236	0	0	0	0	0	0
2024-06-21	12:19:23	12:28:03	518077	6.6.1	4_exp_EVA_AWA_CON	807	A	B	Rpleas_acq	Same	Rpleas	2pleas	acq_US_unple_nomask	acq45_nomask	4	30	400	0	300	300	0	0	505	50	0	0	vergnügt	besonnen	kuss	gütig	kreativ	sonnig	verbissen	bange	krise	gierig	krank	sterben	genießen	anregung	träumen	vertrauen	gesittet	engagiert	gemein	ausrottung	töten	versagen	geizig	engstirnig	1	blank2r.bmp	0	1	+	0	1	blank2r.bmp	500	1	CPLW	500	1	blank2r.bmp	880	5	krank	880	1	!	1232	1	!	-1	0	0	0	0	0	0
2024-06-21	12:19:23	12:28:05	520477	6.6.1	4_exp_EVA_AWA_CON	807	A	B	Rpleas_acq	Same	Rpleas	2pleas	acq_US_pleas_nomask	acq45_nomask	4	31	400	0	300	300	0	0	623	50	1	0	vergnügt	besonnen	kuss	gütig	kreativ	sonnig	verbissen	bange	krise	gierig	krank	sterben	genießen	anregung	träumen	vertrauen	gesittet	engagiert	gemein	ausrottung	töten	versagen	geizig	engstirnig	1	blank2r.bmp	0	1	+	0	1	blank2r.bmp	500	1	DHJF	500	1	blank2r.bmp	880	3	kuss	880	1	!	1232	1	!	-1	0	0	0	0	0	0
2024-06-21	12:19:23	12:28:07	522719	6.6.1	4_exp_EVA_AWA_CON	807	A	B	Rpleas_acq	Same	Rpleas	2pleas	acq_US_unple_nomask	acq45_nomask	4	32	400	1	300	300	0	0	462	46	1	0	vergnügt	besonnen	kuss	gütig	kreativ	sonnig	verbissen	bange	krise	gierig	krank	sterben	genießen	anregung	träumen	vertrauen	gesittet	engagiert	gemein	ausrottung	töten	versagen	geizig	engstirnig	1	blank2r.bmp	0	1	+	0	1	blank2r.bmp	500	1	CPLW	500	1	blank2r.bmp	880	2	bange	880	1	!	1232	1	!	1364	0	0	0	0	0	0
2024-06-21	12:19:23	12:28:10	524943	6.6.1	4_exp_EVA_AWA_CON	807	A	B	Rpleas_acq	Same	Rpleas	2pleas	acq_US_pleas_nomask	acq45_nomask	4	33	400	1	300	300	0	0	444	50	1	0	vergnügt	besonnen	kuss	gütig	kreativ	sonnig	verbissen	bange	krise	gierig	krank	sterben	genießen	anregung	träumen	vertrauen	gesittet	engagiert	gemein	ausrottung	töten	versagen	geizig	engstirnig	1	blank2r.bmp	0	1	+	0	1	blank2r.bmp	500	1	DHJF	500	1	blank2r.bmp	880	6	sonnig	880	1	!	1232	1	!	1346	0	0	0	0	0	0
2024-06-21	12:19:23	12:28:12	527189	6.6.1	4_exp_EVA_AWA_CON	807	A	B	Rpleas_acq	Same	Rpleas	2pleas	acq_US_pleas_nomask	acq45_nomask	4	34	400	0	300	300	0	0	471	50	1	0	vergnügt	besonnen	kuss	gütig	kreativ	sonnig	verbissen	bange	krise	gierig	krank	sterben	genießen	anregung	träumen	vertrauen	gesittet	engagiert	gemein	ausrottung	töten	versagen	geizig	engstirnig	1	blank2r.bmp	0	1	+	0	1	blank2r.bmp	500	1	DHJF	500	1	blank2r.bmp	880	1	vergnügt	880	1	!	1232	1	!	-1	0	0	0	0	0	0
2024-06-21	12:19:23	12:28:14	529423	6.6.1	4_exp_EVA_AWA_CON	807	A	B	Rpleas_acq	Same	Rpleas	2pleas	acq_US_unple_nomask	acq45_nomask	4	35	400	1	300	300	0	0	452	46	1	0	vergnügt	besonnen	kuss	gütig	kreativ	sonnig	verbissen	bange	krise	gierig	krank	sterben	genießen	anregung	träumen	vertrauen	gesittet	engagiert	gemein	ausrottung	töten	versagen	geizig	engstirnig	1	blank2r.bmp	0	1	+	0	1	blank2r.bmp	500	1	CPLW	500	1	blank2r.bmp	880	4	gierig	880	1	!	1232	1	!	1353	0	0	0	0	0	0
2024-06-21	12:19:23	12:28:16	531655	6.6.1	4_exp_EVA_AWA_CON	807	A	B	Rpleas_acq	Same	Rpleas	2pleas	acq_US_pleas_nomask	acq45_nomask	4	36	400	1	300	300	0	0	452	50	1	0	vergnügt	besonnen	kuss	gütig	kreativ	sonnig	verbissen	bange	krise	gierig	krank	sterben	genießen	anregung	träumen	vertrauen	gesittet	engagiert	gemein	ausrottung	töten	versagen	geizig	engstirnig	1	blank2r.bmp	0	1	+	0	1	blank2r.bmp	500	1	DHJF	500	1	blank2r.bmp	880	5	kreativ	880	1	!	1232	1	!	1354	0	0	0	0	0	0
2024-06-21	12:19:23	12:28:37	552766	6.6.1	4_exp_EVA_AWA_CON	807	A	B	Rpleas_acq	Same	Rpleas	2pleas	acq_US_pleas_nomask	acq45_nomask	5	1	400	0	300	300	0	0	651	50	1	0	vergnügt	besonnen	kuss	gütig	kreativ	sonnig	verbissen	bange	krise	gierig	krank	sterben	genießen	anregung	träumen	vertrauen	gesittet	engagiert	gemein	ausrottung	töten	versagen	geizig	engstirnig	1	blank2r.bmp	0	1	+	0	1	blank2r.bmp	500	1	DHJF	500	1	blank2r.bmp	880	4	gütig	880	1	!	1232	1	!	-1	0	0	0	0	0	0
2024-06-21	12:19:23	12:28:39	554885	6.6.1	4_exp_EVA_AWA_CON	807	A	B	Rpleas_acq	Same	Rpleas	2pleas	acq_US_unple_nomask	acq45_nomask	5	2	400	1	300	300	0	0	339	46	1	0	vergnügt	besonnen	kuss	gütig	kreativ	sonnig	verbissen	bange	krise	gierig	krank	sterben	genießen	anregung	träumen	vertrauen	gesittet	engagiert	gemein	ausrottung	töten	versagen	geizig	engstirnig	1	blank2r.bmp	0	1	+	0	1	blank2r.bmp	500	1	CPLW	500	1	blank2r.bmp	880	2	bange	880	1	!	1232	1	!	1239	0	0	0	0	0	0
2024-06-21	12:19:23	12:28:42	557103	6.6.1	4_exp_EVA_AWA_CON	807	A	B	Rpleas_acq	Same	Rpleas	2pleas	acq_US_pleas_nomask	acq45_nomask	5	3	400	1	300	300	0	0	444	50	1	0	vergnügt	besonnen	kuss	gütig	kreativ	sonnig	verbissen	bange	krise	gierig	krank	sterben	genießen	anregung	träumen	vertrauen	gesittet	engagiert	gemein	ausrottung	töten	versagen	geizig	engstirnig	1	blank2r.bmp	0	1	+	0	1	blank2r.bmp	500	1	DHJF	500	1	blank2r.bmp	880	6	sonnig	880	1	!	1232	1	!	1345	0	0	0	0	0	0
2024-06-21	12:19:23	12:28:44	559373	6.6.1	4_exp_EVA_AWA_CON	807	A	B	Rpleas_acq	Same	Rpleas	2pleas	acq_US_pleas_nomask	acq45_nomask	5	4	400	0	300	300	0	0	494	50	1	0	vergnügt	besonnen	kuss	gütig	kreativ	sonnig	verbissen	bange	krise	gierig	krank	sterben	genießen	anregung	träumen	vertrauen	gesittet	engagiert	gemein	ausrottung	töten	versagen	geizig	engstirnig	1	blank2r.bmp	0	1	+	0	1	blank2r.bmp	500	1	DHJF	500	1	blank2r.bmp	880	5	kreativ	880	1	!	1233	1	!	-1	0	0	0	0	0	0
2024-06-21	12:19:23	12:28:46	561653	6.6.1	4_exp_EVA_AWA_CON	807	A	B	Rpleas_acq	Same	Rpleas	2pleas	acq_US_pleas_nomask	acq45_nomask	5	5	400	0	300	300	0	0	503	50	1	0	vergnügt	besonnen	kuss	gütig	kreativ	sonnig	verbissen	bange	krise	gierig	krank	sterben	genießen	anregung	träumen	vertrauen	gesittet	engagiert	gemein	ausrottung	töten	versagen	geizig	engstirnig	1	blank2r.bmp	0	1	+	0	1	blank2r.bmp	500	1	DHJF	500	1	blank2r.bmp	880	3	kuss	880	1	!	1233	1	!	-1	0	0	0	0	0	0
2024-06-21	12:19:23	12:28:48	563904	6.6.1	4_exp_EVA_AWA_CON	807	A	B	Rpleas_acq	Same	Rpleas	2pleas	acq_US_unple_nomask	acq45_nomask	5	6	400	1	300	300	0	0	469	46	1	0	vergnügt	besonnen	kuss	gütig	kreativ	sonnig	verbissen	bange	krise	gierig	krank	sterben	genießen	anregung	träumen	vertrauen	gesittet	engagiert	gemein	ausrottung	töten	versagen	geizig	engstirnig	1	blank2r.bmp	0	1	+	0	1	blank2r.bmp	500	1	CPLW	500	1	blank2r.bmp	880	3	krise	880	1	!	1232	1	!	1372	0	0	0	0	0	0
2024-06-21	12:19:23	12:28:51	566155	6.6.1	4_exp_EVA_AWA_CON	807	A	B	Rpleas_acq	Same	Rpleas	2pleas	acq_US_pleas_nomask	acq45_nomask	5	7	400	0	300	300	0	0	474	50	1	0	vergnügt	besonnen	kuss	gütig	kreativ	sonnig	verbissen	bange	krise	gierig	krank	sterben	genießen	anregung	träumen	vertrauen	gesittet	engagiert	gemein	ausrottung	töten	versagen	geizig	engstirnig	1	blank2r.bmp	0	1	+	0	1	blank2r.bmp	500	1	DHJF	500	1	blank2r.bmp	880	1	vergnügt	880	1	!	1232	1	!	-1	0	0	0	0	0	0
2024-06-21	12:19:23	12:28:53	568383	6.6.1	4_exp_EVA_AWA_CON	807	A	B	Rpleas_acq	Same	Rpleas	2pleas	acq_US_unple_nomask	acq45_nomask	5	8	400	1	300	300	0	0	446	46	1	0	vergnügt	besonnen	kuss	gütig	kreativ	sonnig	verbissen	bange	krise	gierig	krank	sterben	genießen	anregung	träumen	vertrauen	gesittet	engagiert	gemein	ausrottung	töten	versagen	geizig	engstirnig	1	blank2r.bmp	0	1	+	0	1	blank2r.bmp	500	1	CPLW	500	1	blank2r.bmp	880	1	verbissen	880	1	!	1232	1	!	1348	0	0	0	0	0	0
2024-06-21	12:19:23	12:28:55	570615	6.6.1	4_exp_EVA_AWA_CON	807	A	B	Rpleas_acq	Same	Rpleas	2pleas	acq_US_pleas_nomask	acq45_nomask	5	9	400	1	300	300	0	0	457	50	1	0	vergnügt	besonnen	kuss	gütig	kreativ	sonnig	verbissen	bange	krise	gierig	krank	sterben	genießen	anregung	träumen	vertrauen	gesittet	engagiert	gemein	ausrottung	töten	versagen	geizig	engstirnig	1	blank2r.bmp	0	1	+	0	1	blank2r.bmp	500	1	DHJF	500	1	blank2r.bmp	880	2	besonnen	880	1	!	1232	1	!	1359	0	0	0	0	0	0
2024-06-21	12:19:23	12:28:57	572885	6.6.1	4_exp_EVA_AWA_CON	807	A	B	Rpleas_acq	Same	Rpleas	2pleas	acq_US_pleas_nomask	acq45_nomask	5	10	400	0	300	300	0	0	498	50	1	0	vergnügt	besonnen	kuss	gütig	kreativ	sonnig	verbissen	bange	krise	gierig	krank	sterben	genießen	anregung	träumen	vertrauen	gesittet	engagiert	gemein	ausrottung	töten	versagen	geizig	engstirnig	1	blank2r.bmp	0	1	+	0	1	blank2r.bmp	500	1	DHJF	500	1	blank2r.bmp	880	5	kreativ	880	1	!	1232	1	!	-1	0	0	0	0	0	0
2024-06-21	12:19:23	12:29:00	575040	6.6.1	4_exp_EVA_AWA_CON	807	A	B	Rpleas_acq	Same	Rpleas	2pleas	acq_US_unple_nomask	acq45_nomask	5	11	400	1	300	300	0	0	378	46	1	0	vergnügt	besonnen	kuss	gütig	kreativ	sonnig	verbissen	bange	krise	gierig	krank	sterben	genießen	anregung	träumen	vertrauen	gesittet	engagiert	gemein	ausrottung	töten	versagen	geizig	engstirnig	1	blank2r.bmp	0	1	+	0	1	blank2r.bmp	500	1	CPLW	500	1	blank2r.bmp	880	6	sterben	880	1	!	1232	1	!	1280	0	0	0	0	0	0
2024-06-21	12:19:23	12:29:02	577247	6.6.1	4_exp_EVA_AWA_CON	807	A	B	Rpleas_acq	Same	Rpleas	2pleas	acq_US_unple_nomask	acq45_nomask	5	12	400	1	300	300	0	0	425	50	0	0	vergnügt	besonnen	kuss	gütig	kreativ	sonnig	verbissen	bange	krise	gierig	krank	sterben	genießen	anregung	träumen	vertrauen	gesittet	engagiert	gemein	ausrottung	töten	versagen	geizig	engstirnig	1	blank2r.bmp	0	1	+	0	1	blank2r.bmp	500	1	CPLW	500	1	blank2r.bmp	880	4	gierig	880	1	!	1232	1	!	1326	0	0	0	0	0	0
2024-06-21	12:19:23	12:29:04	579424	6.6.1	4_exp_EVA_AWA_CON	807	A	B	Rpleas_acq	Same	Rpleas	2pleas	acq_US_unple_nomask	acq45_nomask	5	13	400	1	300	300	0	0	400	50	0	0	vergnügt	besonnen	kuss	gütig	kreativ	sonnig	verbissen	bange	krise	gierig	krank	sterben	genießen	anregung	träumen	vertrauen	gesittet	engagiert	gemein	ausrottung	töten	versagen	geizig	engstirnig	1	blank2r.bmp	0	1	+	0	1	blank2r.bmp	500	1	CPLW	500	1	blank2r.bmp	880	5	krank	880	1	!	1232	1	!	1302	0	0	0	0	0	0
2024-06-21	12:19:23	12:29:06	581615	6.6.1	4_exp_EVA_AWA_CON	807	A	B	Rpleas_acq	Same	Rpleas	2pleas	acq_US_pleas_nomask	acq45_nomask	5	14	400	1	300	300	0	0	410	50	1	0	vergnügt	besonnen	kuss	gütig	kreativ	sonnig	verbissen	bange	krise	gierig	krank	sterben	genießen	anregung	träumen	vertrauen	gesittet	engagiert	gemein	ausrottung	töten	versagen	geizig	engstirnig	1	blank2r.bmp	0	1	+	0	1	blank2r.bmp	500	1	DHJF	500	1	blank2r.bmp	880	2	besonnen	880	1	!	1232	1	!	1312	0	0	0	0	0	0
2024-06-21	12:19:23	12:29:08	583847	6.6.1	4_exp_EVA_AWA_CON	807	A	B	Rpleas_acq	Same	Rpleas	2pleas	acq_US_unple_nomask	acq45_nomask	5	15	400	1	300	300	0	0	451	46	1	0	vergnügt	besonnen	kuss	gütig	kreativ	sonnig	verbissen	bange	krise	gierig	krank	sterben	genießen	anregung	träumen	vertrauen	gesittet	engagiert	gemein	ausrottung	töten	versagen	geizig	engstirnig	1	blank2r.bmp	0	1	+	0	1	blank2r.bmp	500	1	CPLW	500	1	blank2r.bmp	880	3	krise	880	1	!	1232	1	!	1352	0	0	0	0	0	0
2024-06-21	12:19:23	12:29:11	586107	6.6.1	4_exp_EVA_AWA_CON	807	A	B	Rpleas_acq	Same	Rpleas	2pleas	acq_US_pleas_nomask	acq45_nomask	5	16	400	0	300	300	0	0	483	50	1	0	vergnügt	besonnen	kuss	gütig	kreativ	sonnig	verbissen	bange	krise	gierig	krank	sterben	genießen	anregung	träumen	vertrauen	gesittet	engagiert	gemein	ausrottung	töten	versagen	geizig	engstirnig	1	blank2r.bmp	0	1	+	0	1	blank2r.bmp	500	1	DHJF	500	1	blank2r.bmp	880	1	vergnügt	880	1	!	1232	1	!	-1	0	0	0	0	0	0
2024-06-21	12:19:23	12:29:13	588320	6.6.1	4_exp_EVA_AWA_CON	807	A	B	Rpleas_acq	Same	Rpleas	2pleas	acq_US_unple_nomask	acq45_nomask	5	17	400	1	300	300	0	0	430	46	1	0	vergnügt	besonnen	kuss	gütig	kreativ	sonnig	verbissen	bange	krise	gierig	krank	sterben	genießen	anregung	träumen	vertrauen	gesittet	engagiert	gemein	ausrottung	töten	versagen	geizig	engstirnig	1	blank2r.bmp	0	1	+	0	1	blank2r.bmp	500	1	CPLW	500	1	blank2r.bmp	880	5	krank	880	1	!	1232	1	!	1332	0	0	0	0	0	0
2024-06-21	12:19:23	12:29:15	590487	6.6.1	4_exp_EVA_AWA_CON	807	A	B	Rpleas_acq	Same	Rpleas	2pleas	acq_US_unple_nomask	acq45_nomask	5	18	400	1	300	300	0	0	386	46	1	0	vergnügt	besonnen	kuss	gütig	kreativ	sonnig	verbissen	bange	krise	gierig	krank	sterben	genießen	anregung	träumen	vertrauen	gesittet	engagiert	gemein	ausrottung	töten	versagen	geizig	engstirnig	1	blank2r.bmp	0	1	+	0	1	blank2r.bmp	500	1	CPLW	500	1	blank2r.bmp	880	4	gierig	880	1	!	1232	1	!	1288	0	0	0	0	0	0
2024-06-21	12:19:23	12:29:17	592739	6.6.1	4_exp_EVA_AWA_CON	807	A	B	Rpleas_acq	Same	Rpleas	2pleas	acq_US_pleas_nomask	acq45_nomask	5	19	400	0	300	300	0	0	481	50	1	0	vergnügt	besonnen	kuss	gütig	kreativ	sonnig	verbissen	bange	krise	gierig	krank	sterben	genießen	anregung	träumen	vertrauen	gesittet	engagiert	gemein	ausrottung	töten	versagen	geizig	engstirnig	1	blank2r.bmp	0	1	+	0	1	blank2r.bmp	500	1	DHJF	500	1	blank2r.bmp	880	4	gütig	880	1	!	1232	1	!	-1	0	0	0	0	0	0
2024-06-21	12:19:23	12:29:19	594871	6.6.1	4_exp_EVA_AWA_CON	807	A	B	Rpleas_acq	Same	Rpleas	2pleas	acq_US_pleas_nomask	acq45_nomask	5	20	400	1	300	300	0	0	358	50	1	0	vergnügt	besonnen	kuss	gütig	kreativ	sonnig	verbissen	bange	krise	gierig	krank	sterben	genießen	anregung	träumen	vertrauen	gesittet	engagiert	gemein	ausrottung	töten	versagen	geizig	engstirnig	1	blank2r.bmp	0	1	+	0	1	blank2r.bmp	500	1	DHJF	500	1	blank2r.bmp	880	6	sonnig	880	1	!	1232	1	!	1259	0	0	0	0	0	0
2024-06-21	12:19:23	12:29:22	597104	6.6.1	4_exp_EVA_AWA_CON	807	A	B	Rpleas_acq	Same	Rpleas	2pleas	acq_US_unple_nomask	acq45_nomask	5	21	400	1	300	300	0	0	448	46	1	0	vergnügt	besonnen	kuss	gütig	kreativ	sonnig	verbissen	bange	krise	gierig	krank	sterben	genießen	anregung	träumen	vertrauen	gesittet	engagiert	gemein	ausrottung	töten	versagen	geizig	engstirnig	1	blank2r.bmp	0	1	+	0	1	blank2r.bmp	500	1	CPLW	500	1	blank2r.bmp	880	2	bange	880	1	!	1232	1	!	1350	0	0	0	0	0	0
2024-06-21	12:19:23	12:29:24	599319	6.6.1	4_exp_EVA_AWA_CON	807	A	B	Rpleas_acq	Same	Rpleas	2pleas	acq_US_unple_nomask	acq45_nomask	5	22	400	1	300	300	0	0	433	46	1	0	vergnügt	besonnen	kuss	gütig	kreativ	sonnig	verbissen	bange	krise	gierig	krank	sterben	genießen	anregung	träumen	vertrauen	gesittet	engagiert	gemein	ausrottung	töten	versagen	geizig	engstirnig	1	blank2r.bmp	0	1	+	0	1	blank2r.bmp	500	1	CPLW	500	1	blank2r.bmp	880	6	sterben	880	1	!	1232	1	!	1334	0	0	0	0	0	0
2024-06-21	12:19:23	12:29:26	601613	6.6.1	4_exp_EVA_AWA_CON	807	A	B	Rpleas_acq	Same	Rpleas	2pleas	acq_US_unple_nomask	acq45_nomask	5	23	400	0	300	300	0	0	517	46	1	0	vergnügt	besonnen	kuss	gütig	kreativ	sonnig	verbissen	bange	krise	gierig	krank	sterben	genießen	anregung	träumen	vertrauen	gesittet	engagiert	gemein	ausrottung	töten	versagen	geizig	engstirnig	1	blank2r.bmp	0	1	+	0	1	blank2r.bmp	500	1	CPLW	500	1	blank2r.bmp	880	1	verbissen	880	1	!	1232	1	!	-1	0	0	0	0	0	0
2024-06-21	12:19:23	12:29:28	603791	6.6.1	4_exp_EVA_AWA_CON	807	A	B	Rpleas_acq	Same	Rpleas	2pleas	acq_US_unple_nomask	acq45_nomask	5	24	400	1	300	300	0	0	402	46	1	0	vergnügt	besonnen	kuss	gütig	kreativ	sonnig	verbissen	bange	krise	gierig	krank	sterben	genießen	anregung	träumen	vertrauen	gesittet	engagiert	gemein	ausrottung	töten	versagen	geizig	engstirnig	1	blank2r.bmp	0	1	+	0	1	blank2r.bmp	500	1	CPLW	500	1	blank2r.bmp	880	6	sterben	880	1	!	1232	1	!	1303	0	0	0	0	0	0
2024-06-21	12:19:23	12:29:31	606023	6.6.1	4_exp_EVA_AWA_CON	807	A	B	Rpleas_acq	Same	Rpleas	2pleas	acq_US_pleas_nomask	acq45_nomask	5	25	400	1	300	300	0	0	452	50	1	0	vergnügt	besonnen	kuss	gütig	kreativ	sonnig	verbissen	bange	krise	gierig	krank	sterben	genießen	anregung	träumen	vertrauen	gesittet	engagiert	gemein	ausrottung	töten	versagen	geizig	engstirnig	1	blank2r.bmp	0	1	+	0	1	blank2r.bmp	500	1	DHJF	500	1	blank2r.bmp	880	3	kuss	880	1	!	1232	1	!	1354	0	0	0	0	0	0
2024-06-21	12:19:23	12:29:33	608317	6.6.1	4_exp_EVA_AWA_CON	807	A	B	Rpleas_acq	Same	Rpleas	2pleas	acq_US_pleas_nomask	acq45_nomask	5	26	400	0	300	300	0	0	517	50	1	0	vergnügt	besonnen	kuss	gütig	kreativ	sonnig	verbissen	bange	krise	gierig	krank	sterben	genießen	anregung	träumen	vertrauen	gesittet	engagiert	gemein	ausrottung	töten	versagen	geizig	engstirnig	1	blank2r.bmp	0	1	+	0	1	blank2r.bmp	500	1	DHJF	500	1	blank2r.bmp	880	2	besonnen	880	1	!	1233	1	!	-1	0	0	0	0	0	0
2024-06-21	12:19:23	12:29:35	610519	6.6.1	4_exp_EVA_AWA_CON	807	A	B	Rpleas_acq	Same	Rpleas	2pleas	acq_US_unple_nomask	acq45_nomask	5	27	400	1	300	300	0	0	426	46	1	0	vergnügt	besonnen	kuss	gütig	kreativ	sonnig	verbissen	bange	krise	gierig	krank	sterben	genießen	anregung	träumen	vertrauen	gesittet	engagiert	gemein	ausrottung	töten	versagen	geizig	engstirnig	1	blank2r.bmp	0	1	+	0	1	blank2r.bmp	500	1	CPLW	500	1	blank2r.bmp	880	4	gierig	880	1	!	1232	1	!	1327	0	0	0	0	0	0
2024-06-21	12:19:23	12:29:37	612765	6.6.1	4_exp_EVA_AWA_CON	807	A	B	Rpleas_acq	Same	Rpleas	2pleas	acq_US_unple_nomask	acq45_nomask	5	28	400	0	300	300	0	0	473	46	1	0	vergnügt	besonnen	kuss	gütig	kreativ	sonnig	verbissen	bange	krise	gierig	krank	sterben	genießen	anregung	träumen	vertrauen	gesittet	engagiert	gemein	ausrottung	töten	versagen	geizig	engstirnig	1	blank2r.bmp	0	1	+	0	1	blank2r.bmp	500	1	CPLW	500	1	blank2r.bmp	880	1	verbissen	880	1	!	1232	1	!	-1	0	0	0	0	0	0
2024-06-21	12:19:23	12:29:40	614959	6.6.1	4_exp_EVA_AWA_CON	807	A	B	Rpleas_acq	Same	Rpleas	2pleas	acq_US_unple_nomask	acq45_nomask	5	29	400	1	300	300	0	0	413	46	1	0	vergnügt	besonnen	kuss	gütig	kreativ	sonnig	verbissen	bange	krise	gierig	krank	sterben	genießen	anregung	träumen	vertrauen	gesittet	engagiert	gemein	ausrottung	töten	versagen	geizig	engstirnig	1	blank2r.bmp	0	1	+	0	1	blank2r.bmp	500	1	CPLW	500	1	blank2r.bmp	880	5	krank	880	1	!	1232	1	!	1314	0	0	0	0	0	0
2024-06-21	12:19:23	12:29:42	617199	6.6.1	4_exp_EVA_AWA_CON	807	A	B	Rpleas_acq	Same	Rpleas	2pleas	acq_US_pleas_nomask	acq45_nomask	5	30	400	1	300	300	0	0	461	50	1	0	vergnügt	besonnen	kuss	gütig	kreativ	sonnig	verbissen	bange	krise	gierig	krank	sterben	genießen	anregung	träumen	vertrauen	gesittet	engagiert	gemein	ausrottung	töten	versagen	geizig	engstirnig	1	blank2r.bmp	0	1	+	0	1	blank2r.bmp	500	1	DHJF	500	1	blank2r.bmp	880	6	sonnig	880	1	!	1232	1	!	1363	0	0	0	0	0	0
2024-06-21	12:19:23	12:29:44	619407	6.6.1	4_exp_EVA_AWA_CON	807	A	B	Rpleas_acq	Same	Rpleas	2pleas	acq_US_pleas_nomask	acq45_nomask	5	31	400	1	300	300	0	0	428	50	1	0	vergnügt	besonnen	kuss	gütig	kreativ	sonnig	verbissen	bange	krise	gierig	krank	sterben	genießen	anregung	träumen	vertrauen	gesittet	engagiert	gemein	ausrottung	töten	versagen	geizig	engstirnig	1	blank2r.bmp	0	1	+	0	1	blank2r.bmp	500	1	DHJF	500	1	blank2r.bmp	880	3	kuss	880	1	!	1232	1	!	1329	0	0	0	0	0	0
2024-06-21	12:19:23	12:29:46	621717	6.6.1	4_exp_EVA_AWA_CON	807	A	B	Rpleas_acq	Same	Rpleas	2pleas	acq_US_pleas_nomask	acq45_nomask	5	32	400	0	300	300	0	0	528	50	1	0	vergnügt	besonnen	kuss	gütig	kreativ	sonnig	verbissen	bange	krise	gierig	krank	sterben	genießen	anregung	träumen	vertrauen	gesittet	engagiert	gemein	ausrottung	töten	versagen	geizig	engstirnig	1	blank2r.bmp	0	1	+	0	1	blank2r.bmp	500	1	DHJF	500	1	blank2r.bmp	880	1	vergnügt	880	1	!	1232	1	!	-1	0	0	0	0	0	0
2024-06-21	12:19:23	12:29:48	623871	6.6.1	4_exp_EVA_AWA_CON	807	A	B	Rpleas_acq	Same	Rpleas	2pleas	acq_US_pleas_nomask	acq45_nomask	5	33	400	1	300	300	0	0	379	46	0	0	vergnügt	besonnen	kuss	gütig	kreativ	sonnig	verbissen	bange	krise	gierig	krank	sterben	genießen	anregung	träumen	vertrauen	gesittet	engagiert	gemein	ausrottung	töten	versagen	geizig	engstirnig	1	blank2r.bmp	0	1	+	0	1	blank2r.bmp	500	1	DHJF	500	1	blank2r.bmp	880	5	kreativ	880	1	!	1232	1	!	1280	0	0	0	0	0	0
2024-06-21	12:19:23	12:29:51	626157	6.6.1	4_exp_EVA_AWA_CON	807	A	B	Rpleas_acq	Same	Rpleas	2pleas	acq_US_pleas_nomask	acq45_nomask	5	34	400	0	300	300	0	0	506	46	0	0	vergnügt	besonnen	kuss	gütig	kreativ	sonnig	verbissen	bange	krise	gierig	krank	sterben	genießen	anregung	träumen	vertrauen	gesittet	engagiert	gemein	ausrottung	töten	versagen	geizig	engstirnig	1	blank2r.bmp	0	1	+	0	1	blank2r.bmp	500	1	DHJF	500	1	blank2r.bmp	880	4	gütig	880	1	!	1232	1	!	-1	0	0	0	0	0	0
2024-06-21	12:19:23	12:29:53	628445	6.6.1	4_exp_EVA_AWA_CON	807	A	B	Rpleas_acq	Same	Rpleas	2pleas	acq_US_unple_nomask	acq45_nomask	5	35	400	0	300	300	0	0	512	46	1	0	vergnügt	besonnen	kuss	gütig	kreativ	sonnig	verbissen	bange	krise	gierig	krank	sterben	genießen	anregung	träumen	vertrauen	gesittet	engagiert	gemein	ausrottung	töten	versagen	geizig	engstirnig	1	blank2r.bmp	0	1	+	0	1	blank2r.bmp	500	1	CPLW	500	1	blank2r.bmp	880	2	bange	880	1	!	1232	1	!	-1	0	0	0	0	0	0
2024-06-21	12:19:23	12:29:55	630631	6.6.1	4_exp_EVA_AWA_CON	807	A	B	Rpleas_acq	Same	Rpleas	2pleas	acq_US_unple_nomask	acq45_nomask	5	36	400	1	300	300	0	0	405	46	1	0	vergnügt	besonnen	kuss	gütig	kreativ	sonnig	verbissen	bange	krise	gierig	krank	sterben	genießen	anregung	träumen	vertrauen	gesittet	engagiert	gemein	ausrottung	töten	versagen	geizig	engstirnig	1	blank2r.bmp	0	1	+	0	1	blank2r.bmp	500	1	CPLW	500	1	blank2r.bmp	880	3	krise	880	1	!	1232	1	!	1306	0	0	0	0	0	0
2024-06-21	12:19:23	12:30:20	655729	6.6.1	4_exp_EVA_AWA_CON	807	A	B	Rpleas_acq	Same	Rpleas	2pleas	EvalRating_firsttwo	EvalRating_firsttwo	6	1	0	0	300	300	0	0	5033	line	0	57,8125pct	vergnügt	besonnen	kuss	gütig	kreativ	sonnig	verbissen	bange	krise	gierig	krank	sterben	genießen	anregung	träumen	vertrauen	gesittet	engagiert	gemein	ausrottung	töten	versagen	geizig	engstirnig	1		-8	1	Wie angenehm oder unangenehm finden Sie die  Buchstabenkette WDLH?	-8	1		-8	1		-8	1		-8	1	Unangenehm	-8	1	Angenehm	-8	0	0	0	0	0	0	0	0	0
2024-06-21	12:19:23	12:30:28	663345	6.6.1	4_exp_EVA_AWA_CON	807	A	B	Rpleas_acq	Same	Rpleas	2pleas	EvalRating_lastfour	EvalRating_lastfour	7	1	0	0	300	300	0	0	5244	line	0	-11,4583333333333285964pct	vergnügt	besonnen	kuss	gütig	kreativ	sonnig	verbissen	bange	krise	gierig	krank	sterben	genießen	anregung	träumen	vertrauen	gesittet	engagiert	gemein	ausrottung	töten	versagen	geizig	engstirnig	1		-8	3	Wie angenehm oder unangenehm finden Sie die  Buchstabenkette FCJP?	-8	1		-8	1		-8	1		-8	1	Unangenehm	-8	1	Angenehm	-8	0	0	0	0	0	0	0	0	0
2024-06-21	12:19:23	12:30:30	665719	6.6.1	4_exp_EVA_AWA_CON	807	A	B	Rpleas_acq	Same	Rpleas	2pleas	blank_screen	EvalRating_lastfour	7	3	0	0	300	300	0	0	0	0	0	-11,4583333333333285964pct	vergnügt	besonnen	kuss	gütig	kreativ	sonnig	verbissen	bange	krise	gierig	krank	sterben	genießen	anregung	träumen	vertrauen	gesittet	engagiert	gemein	ausrottung	töten	versagen	geizig	engstirnig	1		-8	0	0	0	0	0	0	0	0	0	0	0	0	0	0	0	0	0	0	0	0	0	0	0	0	0	0	0
2024-06-21	12:19:23	12:30:37	672658	6.6.1	4_exp_EVA_AWA_CON	807	A	B	Rpleas_acq	Same	Rpleas	2pleas	EvalRating_lastfour	EvalRating_lastfour	7	4	0	0	300	300	0	0	6352	line	0	3,3854166666666714036pct	vergnügt	besonnen	kuss	gütig	kreativ	sonnig	verbissen	bange	krise	gierig	krank	sterben	genießen	anregung	träumen	vertrauen	gesittet	engagiert	gemein	ausrottung	töten	versagen	geizig	engstirnig	1		-8	2	Wie angenehm oder unangenehm finden Sie die  Buchstabenkette DHJF?	-8	1		-8	1		-8	1		-8	1	Unangenehm	-8	1	Angenehm	-8	0	0	0	0	0	0	0	0	0
2024-06-21	12:19:23	12:30:40	675025	6.6.1	4_exp_EVA_AWA_CON	807	A	B	Rpleas_acq	Same	Rpleas	2pleas	blank_screen	EvalRating_lastfour	7	6	0	0	300	300	0	0	0	0	0	3,3854166666666714036pct	vergnügt	besonnen	kuss	gütig	kreativ	sonnig	verbissen	bange	krise	gierig	krank	sterben	genießen	anregung	träumen	vertrauen	gesittet	engagiert	gemein	ausrottung	töten	versagen	geizig	engstirnig	1		-8	0	0	0	0	0	0	0	0	0	0	0	0	0	0	0	0	0	0	0	0	0	0	0	0	0	0	0
2024-06-21	12:19:23	12:30:47	682651	6.6.1	4_exp_EVA_AWA_CON	807	A	B	Rpleas_acq	Same	Rpleas	2pleas	EvalRating_lastfour	EvalRating_lastfour	7	7	0	0	300	300	0	0	7038	line	0	6,1197916666666714036pct	vergnügt	besonnen	kuss	gütig	kreativ	sonnig	verbissen	bange	krise	gierig	krank	sterben	genießen	anregung	träumen	vertrauen	gesittet	engagiert	gemein	ausrottung	töten	versagen	geizig	engstirnig	1		-8	1	Wie angenehm oder unangenehm finden Sie die  Buchstabenkette CPLW?	-8	1		-8	1		-8	1		-8	1	Unangenehm	-8	1	Angenehm	-8	0	0	0	0	0	0	0	0	0
2024-06-21	12:19:23	12:31:24	719831	6.6.1	4_exp_EVA_AWA_CON	807	A	B	Rpleas_acq	Same	Rpleas	2pleas	conawa_CS2_US6	conawa1_nomask	8	1	0	0	300	300	0	0	13020	genießen	1	6,1197916666666714036pct	vergnügt	besonnen	kuss	gütig	kreativ	sonnig	verbissen	bange	krise	gierig	krank	sterben	genießen	anregung	träumen	vertrauen	gesittet	engagiert	gemein	ausrottung	töten	versagen	geizig	engstirnig	0	0	0	0	0	0	0	0	0	0	0	0	0	0	0	0	0	0	0	0	0	0	0	0	0	0	0	0	0	0
2024-06-21	12:19:23	12:31:24	719833	6.6.1	4_exp_EVA_AWA_CON	807	A	B	Rpleas_acq	Same	Rpleas	2pleas	conawa_CS2_US6_confidence	conawa1_nomask	8	1	0	0	300	300	0	0	13020	guess	1	6,1197916666666714036pct	vergnügt	besonnen	kuss	gütig	kreativ	sonnig	verbissen	bange	krise	gierig	krank	sterben	genießen	anregung	träumen	vertrauen	gesittet	engagiert	gemein	ausrottung	töten	versagen	geizig	engstirnig	0	0	0	0	0	0	0	0	0	0	0	0	0	0	0	0	0	0	0	0	0	0	0	0	0	0	0	0	0	0
2024-06-21	12:19:23	12:31:35	730438	6.6.1	4_exp_EVA_AWA_CON	807	A	B	Rpleas_acq	Same	Rpleas	2pleas	conawa_CS1_US1	conawa1_nomask	8	2	0	0	300	300	0	0	9989	vergnügt	1	6,1197916666666714036pct	vergnügt	besonnen	kuss	gütig	kreativ	sonnig	verbissen	bange	krise	gierig	krank	sterben	genießen	anregung	träumen	vertrauen	gesittet	engagiert	gemein	ausrottung	töten	versagen	geizig	engstirnig	0	0	0	0	0	0	0	0	0	0	0	0	0	0	0	0	0	0	0	0	0	0	0	0	0	0	0	0	0	0
2024-06-21	12:19:23	12:31:35	730440	6.6.1	4_exp_EVA_AWA_CON	807	A	B	Rpleas_acq	Same	Rpleas	2pleas	conawa_CS1_US1_confidence	conawa1_nomask	8	2	0	0	300	300	0	0	9989	probably	1	6,1197916666666714036pct	vergnügt	besonnen	kuss	gütig	kreativ	sonnig	verbissen	bange	krise	gierig	krank	sterben	genießen	anregung	träumen	vertrauen	gesittet	engagiert	gemein	ausrottung	töten	versagen	geizig	engstirnig	0	0	0	0	0	0	0	0	0	0	0	0	0	0	0	0	0	0	0	0	0	0	0	0	0	0	0	0	0	0
2024-06-21	12:19:23	12:31:53	748430	6.6.1	4_exp_EVA_AWA_CON	807	A	B	Rpleas_acq	Same	Rpleas	2pleas	conawa_CS2_US3	conawa1_nomask	8	3	0	0	300	300	0	0	17373	kuss	1	6,1197916666666714036pct	vergnügt	besonnen	kuss	gütig	kreativ	sonnig	verbissen	bange	krise	gierig	krank	sterben	genießen	anregung	träumen	vertrauen	gesittet	engagiert	gemein	ausrottung	töten	versagen	geizig	engstirnig	0	0	0	0	0	0	0	0	0	0	0	0	0	0	0	0	0	0	0	0	0	0	0	0	0	0	0	0	0	0
2024-06-21	12:19:23	12:31:53	748432	6.6.1	4_exp_EVA_AWA_CON	807	A	B	Rpleas_acq	Same	Rpleas	2pleas	conawa_CS2_US3_confidence	conawa1_nomask	8	3	0	0	300	300	0	0	17373	guess	1	6,1197916666666714036pct	vergnügt	besonnen	kuss	gütig	kreativ	sonnig	verbissen	bange	krise	gierig	krank	sterben	genießen	anregung	träumen	vertrauen	gesittet	engagiert	gemein	ausrottung	töten	versagen	geizig	engstirnig	0	0	0	0	0	0	0	0	0	0	0	0	0	0	0	0	0	0	0	0	0	0	0	0	0	0	0	0	0	0
2024-06-21	12:19:23	12:32:02	757316	6.6.1	4_exp_EVA_AWA_CON	807	A	B	Rpleas_acq	Same	Rpleas	2pleas	conawa_CS2_US5	conawa1_nomask	8	4	0	0	300	300	0	0	8269	engstirnig	1	6,1197916666666714036pct	vergnügt	besonnen	kuss	gütig	kreativ	sonnig	verbissen	bange	krise	gierig	krank	sterben	genießen	anregung	träumen	vertrauen	gesittet	engagiert	gemein	ausrottung	töten	versagen	geizig	engstirnig	0	0	0	0	0	0	0	0	0	0	0	0	0	0	0	0	0	0	0	0	0	0	0	0	0	0	0	0	0	0
2024-06-21	12:19:23	12:32:02	757317	6.6.1	4_exp_EVA_AWA_CON	807	A	B	Rpleas_acq	Same	Rpleas	2pleas	conawa_CS2_US5_confidence	conawa1_nomask	8	4	0	0	300	300	0	0	8269	guess	1	6,1197916666666714036pct	vergnügt	besonnen	kuss	gütig	kreativ	sonnig	verbissen	bange	krise	gierig	krank	sterben	genießen	anregung	träumen	vertrauen	gesittet	engagiert	gemein	ausrottung	töten	versagen	geizig	engstirnig	0	0	0	0	0	0	0	0	0	0	0	0	0	0	0	0	0	0	0	0	0	0	0	0	0	0	0	0	0	0
2024-06-21	12:19:23	12:32:13	768823	6.6.1	4_exp_EVA_AWA_CON	807	A	B	Rpleas_acq	Same	Rpleas	2pleas	conawa_CS2_US1	conawa1_nomask	8	5	0	0	300	300	0	0	10896	verbissen	1	6,1197916666666714036pct	vergnügt	besonnen	kuss	gütig	kreativ	sonnig	verbissen	bange	krise	gierig	krank	sterben	genießen	anregung	träumen	vertrauen	gesittet	engagiert	gemein	ausrottung	töten	versagen	geizig	engstirnig	0	0	0	0	0	0	0	0	0	0	0	0	0	0	0	0	0	0	0	0	0	0	0	0	0	0	0	0	0	0
2024-06-21	12:19:23	12:32:13	768824	6.6.1	4_exp_EVA_AWA_CON	807	A	B	Rpleas_acq	Same	Rpleas	2pleas	conawa_CS2_US1_confidence	conawa1_nomask	8	5	0	0	300	300	0	0	10896	guess	1	6,1197916666666714036pct	vergnügt	besonnen	kuss	gütig	kreativ	sonnig	verbissen	bange	krise	gierig	krank	sterben	genießen	anregung	träumen	vertrauen	gesittet	engagiert	gemein	ausrottung	töten	versagen	geizig	engstirnig	0	0	0	0	0	0	0	0	0	0	0	0	0	0	0	0	0	0	0	0	0	0	0	0	0	0	0	0	0	0
2024-06-21	12:19:23	12:32:23	778289	6.6.1	4_exp_EVA_AWA_CON	807	A	B	Rpleas_acq	Same	Rpleas	2pleas	conawa_CS1_US5	conawa1_nomask	8	6	0	0	300	300	0	0	8853	kreativ	1	6,1197916666666714036pct	vergnügt	besonnen	kuss	gütig	kreativ	sonnig	verbissen	bange	krise	gierig	krank	sterben	genießen	anregung	träumen	vertrauen	gesittet	engagiert	gemein	ausrottung	töten	versagen	geizig	engstirnig	0	0	0	0	0	0	0	0	0	0	0	0	0	0	0	0	0	0	0	0	0	0	0	0	0	0	0	0	0	0
2024-06-21	12:19:23	12:32:23	778291	6.6.1	4_exp_EVA_AWA_CON	807	A	B	Rpleas_acq	Same	Rpleas	2pleas	conawa_CS1_US5_confidence	conawa1_nomask	8	6	0	0	300	300	0	0	8853	guess	1	6,1197916666666714036pct	vergnügt	besonnen	kuss	gütig	kreativ	sonnig	verbissen	bange	krise	gierig	krank	sterben	genießen	anregung	träumen	vertrauen	gesittet	engagiert	gemein	ausrottung	töten	versagen	geizig	engstirnig	0	0	0	0	0	0	0	0	0	0	0	0	0	0	0	0	0	0	0	0	0	0	0	0	0	0	0	0	0	0
2024-06-21	12:19:23	12:32:31	786745	6.6.1	4_exp_EVA_AWA_CON	807	A	B	Rpleas_acq	Same	Rpleas	2pleas	conawa_CS1_US6	conawa1_nomask	8	7	0	0	300	300	0	0	7841	engagiert	1	6,1197916666666714036pct	vergnügt	besonnen	kuss	gütig	kreativ	sonnig	verbissen	bange	krise	gierig	krank	sterben	genießen	anregung	träumen	vertrauen	gesittet	engagiert	gemein	ausrottung	töten	versagen	geizig	engstirnig	0	0	0	0	0	0	0	0	0	0	0	0	0	0	0	0	0	0	0	0	0	0	0	0	0	0	0	0	0	0
2024-06-21	12:19:23	12:32:31	786746	6.6.1	4_exp_EVA_AWA_CON	807	A	B	Rpleas_acq	Same	Rpleas	2pleas	conawa_CS1_US6_confidence	conawa1_nomask	8	7	0	0	300	300	0	0	7841	guess	1	6,1197916666666714036pct	vergnügt	besonnen	kuss	gütig	kreativ	sonnig	verbissen	bange	krise	gierig	krank	sterben	genießen	anregung	träumen	vertrauen	gesittet	engagiert	gemein	ausrottung	töten	versagen	geizig	engstirnig	0	0	0	0	0	0	0	0	0	0	0	0	0	0	0	0	0	0	0	0	0	0	0	0	0	0	0	0	0	0
2024-06-21	12:19:23	12:32:40	795550	6.6.1	4_exp_EVA_AWA_CON	807	A	B	Rpleas_acq	Same	Rpleas	2pleas	conawa_CS2_US2	conawa1_nomask	8	8	0	0	300	300	0	0	8193	träumen	1	6,1197916666666714036pct	vergnügt	besonnen	kuss	gütig	kreativ	sonnig	verbissen	bange	krise	gierig	krank	sterben	genießen	anregung	träumen	vertrauen	gesittet	engagiert	gemein	ausrottung	töten	versagen	geizig	engstirnig	0	0	0	0	0	0	0	0	0	0	0	0	0	0	0	0	0	0	0	0	0	0	0	0	0	0	0	0	0	0
2024-06-21	12:19:23	12:32:40	795552	6.6.1	4_exp_EVA_AWA_CON	807	A	B	Rpleas_acq	Same	Rpleas	2pleas	conawa_CS2_US2_confidence	conawa1_nomask	8	8	0	0	300	300	0	0	8193	guess	1	6,1197916666666714036pct	vergnügt	besonnen	kuss	gütig	kreativ	sonnig	verbissen	bange	krise	gierig	krank	sterben	genießen	anregung	träumen	vertrauen	gesittet	engagiert	gemein	ausrottung	töten	versagen	geizig	engstirnig	0	0	0	0	0	0	0	0	0	0	0	0	0	0	0	0	0	0	0	0	0	0	0	0	0	0	0	0	0	0
2024-06-21	12:19:23	12:32:48	803836	6.6.1	4_exp_EVA_AWA_CON	807	A	B	Rpleas_acq	Same	Rpleas	2pleas	conawa_CS2_US4	conawa1_nomask	8	9	0	0	300	300	0	0	7677	gütig	1	6,1197916666666714036pct	vergnügt	besonnen	kuss	gütig	kreativ	sonnig	verbissen	bange	krise	gierig	krank	sterben	genießen	anregung	träumen	vertrauen	gesittet	engagiert	gemein	ausrottung	töten	versagen	geizig	engstirnig	0	0	0	0	0	0	0	0	0	0	0	0	0	0	0	0	0	0	0	0	0	0	0	0	0	0	0	0	0	0
2024-06-21	12:19:23	12:32:48	803837	6.6.1	4_exp_EVA_AWA_CON	807	A	B	Rpleas_acq	Same	Rpleas	2pleas	conawa_CS2_US4_confidence	conawa1_nomask	8	9	0	0	300	300	0	0	7677	guess	1	6,1197916666666714036pct	vergnügt	besonnen	kuss	gütig	kreativ	sonnig	verbissen	bange	krise	gierig	krank	sterben	genießen	anregung	träumen	vertrauen	gesittet	engagiert	gemein	ausrottung	töten	versagen	geizig	engstirnig	0	0	0	0	0	0	0	0	0	0	0	0	0	0	0	0	0	0	0	0	0	0	0	0	0	0	0	0	0	0
2024-06-21	12:19:23	12:32:58	813892	6.6.1	4_exp_EVA_AWA_CON	807	A	B	Rpleas_acq	Same	Rpleas	2pleas	conawa_CS1_US3	conawa1_nomask	8	10	0	0	300	300	0	0	9440	töten	1	6,1197916666666714036pct	vergnügt	besonnen	kuss	gütig	kreativ	sonnig	verbissen	bange	krise	gierig	krank	sterben	genießen	anregung	träumen	vertrauen	gesittet	engagiert	gemein	ausrottung	töten	versagen	geizig	engstirnig	0	0	0	0	0	0	0	0	0	0	0	0	0	0	0	0	0	0	0	0	0	0	0	0	0	0	0	0	0	0
2024-06-21	12:19:23	12:32:58	813893	6.6.1	4_exp_EVA_AWA_CON	807	A	B	Rpleas_acq	Same	Rpleas	2pleas	conawa_CS1_US3_confidence	conawa1_nomask	8	10	0	0	300	300	0	0	9440	guess	1	6,1197916666666714036pct	vergnügt	besonnen	kuss	gütig	kreativ	sonnig	verbissen	bange	krise	gierig	krank	sterben	genießen	anregung	träumen	vertrauen	gesittet	engagiert	gemein	ausrottung	töten	versagen	geizig	engstirnig	0	0	0	0	0	0	0	0	0	0	0	0	0	0	0	0	0	0	0	0	0	0	0	0	0	0	0	0	0	0
2024-06-21	12:19:23	12:33:07	822888	6.6.1	4_exp_EVA_AWA_CON	807	A	B	Rpleas_acq	Same	Rpleas	2pleas	conawa_CS1_US4	conawa1_nomask	8	11	0	0	300	300	0	0	8376	vertrauen	1	6,1197916666666714036pct	vergnügt	besonnen	kuss	gütig	kreativ	sonnig	verbissen	bange	krise	gierig	krank	sterben	genießen	anregung	träumen	vertrauen	gesittet	engagiert	gemein	ausrottung	töten	versagen	geizig	engstirnig	0	0	0	0	0	0	0	0	0	0	0	0	0	0	0	0	0	0	0	0	0	0	0	0	0	0	0	0	0	0
2024-06-21	12:19:23	12:33:07	822889	6.6.1	4_exp_EVA_AWA_CON	807	A	B	Rpleas_acq	Same	Rpleas	2pleas	conawa_CS1_US4_confidence	conawa1_nomask	8	11	0	0	300	300	0	0	8376	guess	1	6,1197916666666714036pct	vergnügt	besonnen	kuss	gütig	kreativ	sonnig	verbissen	bange	krise	gierig	krank	sterben	genießen	anregung	träumen	vertrauen	gesittet	engagiert	gemein	ausrottung	töten	versagen	geizig	engstirnig	0	0	0	0	0	0	0	0	0	0	0	0	0	0	0	0	0	0	0	0	0	0	0	0	0	0	0	0	0	0
2024-06-21	12:19:23	12:33:16	831033	6.6.1	4_exp_EVA_AWA_CON	807	A	B	Rpleas_acq	Same	Rpleas	2pleas	conawa_CS1_US2	conawa1_nomask	8	12	0	0	300	300	0	0	7532	besonnen	1	6,1197916666666714036pct	vergnügt	besonnen	kuss	gütig	kreativ	sonnig	verbissen	bange	krise	gierig	krank	sterben	genießen	anregung	träumen	vertrauen	gesittet	engagiert	gemein	ausrottung	töten	versagen	geizig	engstirnig	0	0	0	0	0	0	0	0	0	0	0	0	0	0	0	0	0	0	0	0	0	0	0	0	0	0	0	0	0	0
2024-06-21	12:19:23	12:33:16	831035	6.6.1	4_exp_EVA_AWA_CON	807	A	B	Rpleas_acq	Same	Rpleas	2pleas	conawa_CS1_US2_confidence	conawa1_nomask	8	12	0	0	300	300	0	0	7532	guess	1	6,1197916666666714036pct	vergnügt	besonnen	kuss	gütig	kreativ	sonnig	verbissen	bange	krise	gierig	krank	sterben	genießen	anregung	träumen	vertrauen	gesittet	engagiert	gemein	ausrottung	töten	versagen	geizig	engstirnig	0	0	0	0	0	0	0	0	0	0	0	0	0	0	0	0	0	0	0	0	0	0	0	0	0	0	0	0	0	0
2024-06-21	12:19:23	12:34:42	917821	6.6.1	4_exp_EVA_AWA_CON	807	A	B	Rpleas_acq	Same	Rpleas	2pleas	cond_US_unple_123_nomask_CS2	condtest_nomask_1	11	1	400	0	300	300	0	0	593	46	1	6,1197916666666714036pct	vergnügt	besonnen	kuss	gütig	kreativ	sonnig	verbissen	bange	krise	gierig	krank	sterben	genießen	anregung	träumen	vertrauen	gesittet	engagiert	gemein	ausrottung	töten	versagen	geizig	engstirnig	1	blank2r.bmp	0	1	+	0	1	blank2r.bmp	500	1	DHJF	500	1	blank2r.bmp	880	1	krise	880	1	!	1232	1	!	-1	0	0	0	0	0	0
