date	time	currenttime	elapsedtime	build	currentexpt	subject	CS_AB	US_AB	LRpleas_acq	SameOppo	condition_Lpleas	condition_1pleas	trialcode	blockcode	blocknum	trialnum	windowcenter	inwindow	pretrialpause	posttrialpause	trialduration	trialtimeout	latency	response	correct	correctedscore	US_nomask_pleas1	US_nomask_pleas2	US_nomask_pleas3	US_nomask_pleas4	US_nomask_pleas5	US_nomask_pleas6	US_nomask_unple1	US_nomask_unple2	US_nomask_unple3	US_nomask_unple4	US_nomask_unple5	US_nomask_unple6	new_nomask_pleas1	new_nomask_pleas2	new_nomask_pleas3	new_nomask_pleas4	new_nomask_pleas5	new_nomask_pleas6	new_nomask_unple1	new_nomask_unple2	new_nomask_unple3	new_nomask_unple4	new_nomask_unple5	new_nomask_unple6	stimulusnumber1	stimulusitem1	stimulusonset1	stimulusnumber2	stimulusitem2	stimulusonset2	stimulusnumber3	stimulusitem3	stimulusonset3	stimulusnumber4	stimulusitem4	stimulusonset4	stimulusnumber5	stimulusitem5	stimulusonset5	stimulusnumber6	stimulusitem6	stimulusonset6	stimulusnumber7	stimulusitem7	stimulusonset7	stimulusnumber8	stimulusitem8	stimulusonset8	stimulusnumber9	stimulusitem9	stimulusonset9	stimulusnumber10	stimulusitem10	stimulusonset10
2024-05-08	15:45:45	15:47:12	86698	6.6.1	4_exp_EVA_AWA_CON	20	B	A	Rpleas_acq	Oppo	Rpleas	2pleas	acq_US_unple_nomask	acq1_nomask	1	1	0	0	300	300	0	0	1210	46	1	0	schön	retten	helfen	spielen	treu	fair	schlecht	rächen	hindern	strafen	tot	faul	schlau	tolerant	lachen	loyal	freundlich	ehrlich	schroff	tyrannisch	leiden	lasch	fanatisch	eitel	1	blank2r.bmp	0	1	+	0	1	blank2r.bmp	500	1	BMVZ	500	1	blank2r.bmp	880	5	tot	880	0	0	0	0	0	0	0	0	0	0	0	0
2024-05-08	15:45:45	15:47:14	88994	6.6.1	4_exp_EVA_AWA_CON	20	B	A	Rpleas_acq	Oppo	Rpleas	2pleas	acq_new_pleas_nomask	acq1_nomask	1	2	0	0	300	300	0	0	815	50	1	0	schön	retten	helfen	spielen	treu	fair	schlecht	rächen	hindern	strafen	tot	faul	schlau	tolerant	lachen	loyal	freundlich	ehrlich	schroff	tyrannisch	leiden	lasch	fanatisch	eitel	1	blank2r.bmp	0	1	+	0	1	blank2r.bmp	500	4	B4r.bmp	500	1	blank2r.bmp	880	4	loyal	880	0	0	0	0	0	0	0	0	0	0	0	0
2024-05-08	15:45:45	15:47:16	91385	6.6.1	4_exp_EVA_AWA_CON	20	B	A	Rpleas_acq	Oppo	Rpleas	2pleas	acq_new_unple_nomask	acq1_nomask	1	3	0	0	300	300	0	0	905	46	1	0	schön	retten	helfen	spielen	treu	fair	schlecht	rächen	hindern	strafen	tot	faul	schlau	tolerant	lachen	loyal	freundlich	ehrlich	schroff	tyrannisch	leiden	lasch	fanatisch	eitel	1	blank2r.bmp	0	1	+	0	1	blank2r.bmp	500	2	B2r.bmp	500	1	blank2r.bmp	880	2	tyrannisch	880	0	0	0	0	0	0	0	0	0	0	0	0
2024-05-08	15:45:45	15:47:19	93538	6.6.1	4_exp_EVA_AWA_CON	20	B	A	Rpleas_acq	Oppo	Rpleas	2pleas	acq_US_pleas_nomask	acq1_nomask	1	4	0	0	300	300	0	0	665	50	1	0	schön	retten	helfen	spielen	treu	fair	schlecht	rächen	hindern	strafen	tot	faul	schlau	tolerant	lachen	loyal	freundlich	ehrlich	schroff	tyrannisch	leiden	lasch	fanatisch	eitel	1	blank2r.bmp	0	1	+	0	1	blank2r.bmp	500	1	GKQX	500	1	blank2r.bmp	880	3	helfen	880	0	0	0	0	0	0	0	0	0	0	0	0
2024-05-08	15:45:45	15:47:21	95794	6.6.1	4_exp_EVA_AWA_CON	20	B	A	Rpleas_acq	Oppo	Rpleas	2pleas	acq_US_unple_nomask	acq1_nomask	1	5	0	0	300	300	0	0	770	46	1	0	schön	retten	helfen	spielen	treu	fair	schlecht	rächen	hindern	strafen	tot	faul	schlau	tolerant	lachen	loyal	freundlich	ehrlich	schroff	tyrannisch	leiden	lasch	fanatisch	eitel	1	blank2r.bmp	0	1	+	0	1	blank2r.bmp	500	1	BMVZ	500	1	blank2r.bmp	880	2	rächen	880	0	0	0	0	0	0	0	0	0	0	0	0
2024-05-08	15:45:45	15:47:23	97970	6.6.1	4_exp_EVA_AWA_CON	20	B	A	Rpleas_acq	Oppo	Rpleas	2pleas	acq_new_unple_nomask	acq1_nomask	1	6	0	0	300	300	0	0	695	46	1	0	schön	retten	helfen	spielen	treu	fair	schlecht	rächen	hindern	strafen	tot	faul	schlau	tolerant	lachen	loyal	freundlich	ehrlich	schroff	tyrannisch	leiden	lasch	fanatisch	eitel	1	blank2r.bmp	0	1	+	0	1	blank2r.bmp	500	1	B1r.bmp	500	1	blank2r.bmp	880	4	lasch	880	0	0	0	0	0	0	0	0	0	0	0	0
2024-05-08	15:45:45	15:47:25	100050	6.6.1	4_exp_EVA_AWA_CON	20	B	A	Rpleas_acq	Oppo	Rpleas	2pleas	acq_new_pleas_nomask	acq1_nomask	1	7	0	0	300	300	0	0	593	50	1	0	schön	retten	helfen	spielen	treu	fair	schlecht	rächen	hindern	strafen	tot	faul	schlau	tolerant	lachen	loyal	freundlich	ehrlich	schroff	tyrannisch	leiden	lasch	fanatisch	eitel	1	blank2r.bmp	0	1	+	0	1	blank2r.bmp	500	8	C4r.bmp	500	1	blank2r.bmp	880	2	tolerant	880	0	0	0	0	0	0	0	0	0	0	0	0
2024-05-08	15:45:45	15:47:27	102218	6.6.1	4_exp_EVA_AWA_CON	20	B	A	Rpleas_acq	Oppo	Rpleas	2pleas	acq_US_unple_nomask	acq1_nomask	1	8	0	0	300	300	0	0	680	46	1	0	schön	retten	helfen	spielen	treu	fair	schlecht	rächen	hindern	strafen	tot	faul	schlau	tolerant	lachen	loyal	freundlich	ehrlich	schroff	tyrannisch	leiden	lasch	fanatisch	eitel	1	blank2r.bmp	0	1	+	0	1	blank2r.bmp	500	1	BMVZ	500	1	blank2r.bmp	880	4	strafen	880	0	0	0	0	0	0	0	0	0	0	0	0
2024-05-08	15:45:45	15:47:29	104338	6.6.1	4_exp_EVA_AWA_CON	20	B	A	Rpleas_acq	Oppo	Rpleas	2pleas	acq_new_pleas_nomask	acq1_nomask	1	9	0	0	300	300	0	0	639	50	1	0	schön	retten	helfen	spielen	treu	fair	schlecht	rächen	hindern	strafen	tot	faul	schlau	tolerant	lachen	loyal	freundlich	ehrlich	schroff	tyrannisch	leiden	lasch	fanatisch	eitel	1	blank2r.bmp	0	1	+	0	1	blank2r.bmp	500	6	C2r.bmp	500	1	blank2r.bmp	880	6	ehrlich	880	0	0	0	0	0	0	0	0	0	0	0	0
2024-05-08	15:45:45	15:47:32	106577	6.6.1	4_exp_EVA_AWA_CON	20	B	A	Rpleas_acq	Oppo	Rpleas	2pleas	acq_US_pleas_nomask	acq1_nomask	1	10	0	0	300	300	0	0	757	50	1	0	schön	retten	helfen	spielen	treu	fair	schlecht	rächen	hindern	strafen	tot	faul	schlau	tolerant	lachen	loyal	freundlich	ehrlich	schroff	tyrannisch	leiden	lasch	fanatisch	eitel	1	blank2r.bmp	0	1	+	0	1	blank2r.bmp	500	1	GKQX	500	1	blank2r.bmp	880	2	retten	880	0	0	0	0	0	0	0	0	0	0	0	0
2024-05-08	15:45:45	15:47:34	108682	6.6.1	4_exp_EVA_AWA_CON	20	B	A	Rpleas_acq	Oppo	Rpleas	2pleas	acq_new_unple_nomask	acq1_nomask	1	11	0	0	300	300	0	0	620	46	1	0	schön	retten	helfen	spielen	treu	fair	schlecht	rächen	hindern	strafen	tot	faul	schlau	tolerant	lachen	loyal	freundlich	ehrlich	schroff	tyrannisch	leiden	lasch	fanatisch	eitel	1	blank2r.bmp	0	1	+	0	1	blank2r.bmp	500	5	C1r.bmp	500	1	blank2r.bmp	880	1	schroff	880	0	0	0	0	0	0	0	0	0	0	0	0
2024-05-08	15:45:45	15:47:36	110825	6.6.1	4_exp_EVA_AWA_CON	20	B	A	Rpleas_acq	Oppo	Rpleas	2pleas	acq_US_pleas_nomask	acq1_nomask	1	12	0	0	300	300	0	0	662	50	1	0	schön	retten	helfen	spielen	treu	fair	schlecht	rächen	hindern	strafen	tot	faul	schlau	tolerant	lachen	loyal	freundlich	ehrlich	schroff	tyrannisch	leiden	lasch	fanatisch	eitel	1	blank2r.bmp	0	1	+	0	1	blank2r.bmp	500	1	GKQX	500	1	blank2r.bmp	880	6	fair	880	0	0	0	0	0	0	0	0	0	0	0	0
2024-05-08	15:45:45	15:47:38	112858	6.6.1	4_exp_EVA_AWA_CON	20	B	A	Rpleas_acq	Oppo	Rpleas	2pleas	acq_new_unple_nomask	acq1_nomask	1	13	0	0	300	300	0	0	544	46	1	0	schön	retten	helfen	spielen	treu	fair	schlecht	rächen	hindern	strafen	tot	faul	schlau	tolerant	lachen	loyal	freundlich	ehrlich	schroff	tyrannisch	leiden	lasch	fanatisch	eitel	1	blank2r.bmp	0	1	+	0	1	blank2r.bmp	500	7	C3r.bmp	500	1	blank2r.bmp	880	3	leiden	880	0	0	0	0	0	0	0	0	0	0	0	0
2024-05-08	15:45:45	15:47:40	114946	6.6.1	4_exp_EVA_AWA_CON	20	B	A	Rpleas_acq	Oppo	Rpleas	2pleas	acq_US_pleas_nomask	acq1_nomask	1	14	0	0	300	300	0	0	600	50	1	0	schön	retten	helfen	spielen	treu	fair	schlecht	rächen	hindern	strafen	tot	faul	schlau	tolerant	lachen	loyal	freundlich	ehrlich	schroff	tyrannisch	leiden	lasch	fanatisch	eitel	1	blank2r.bmp	0	1	+	0	1	blank2r.bmp	500	1	GKQX	500	1	blank2r.bmp	880	4	spielen	880	0	0	0	0	0	0	0	0	0	0	0	0
2024-05-08	15:45:45	15:47:42	116953	6.6.1	4_exp_EVA_AWA_CON	20	B	A	Rpleas_acq	Oppo	Rpleas	2pleas	acq_US_pleas_nomask	acq1_nomask	1	15	0	0	300	300	0	0	526	50	1	0	schön	retten	helfen	spielen	treu	fair	schlecht	rächen	hindern	strafen	tot	faul	schlau	tolerant	lachen	loyal	freundlich	ehrlich	schroff	tyrannisch	leiden	lasch	fanatisch	eitel	1	blank2r.bmp	0	1	+	0	1	blank2r.bmp	500	1	GKQX	500	1	blank2r.bmp	880	5	treu	880	0	0	0	0	0	0	0	0	0	0	0	0
2024-05-08	15:45:45	15:47:44	118993	6.6.1	4_exp_EVA_AWA_CON	20	B	A	Rpleas_acq	Oppo	Rpleas	2pleas	acq_US_unple_nomask	acq1_nomask	1	16	0	0	300	300	0	0	555	46	1	0	schön	retten	helfen	spielen	treu	fair	schlecht	rächen	hindern	strafen	tot	faul	schlau	tolerant	lachen	loyal	freundlich	ehrlich	schroff	tyrannisch	leiden	lasch	fanatisch	eitel	1	blank2r.bmp	0	1	+	0	1	blank2r.bmp	500	1	BMVZ	500	1	blank2r.bmp	880	6	faul	880	0	0	0	0	0	0	0	0	0	0	0	0
2024-05-08	15:45:45	15:47:46	121185	6.6.1	4_exp_EVA_AWA_CON	20	B	A	Rpleas_acq	Oppo	Rpleas	2pleas	acq_US_pleas_nomask	acq1_nomask	1	17	0	0	300	300	0	0	706	50	1	0	schön	retten	helfen	spielen	treu	fair	schlecht	rächen	hindern	strafen	tot	faul	schlau	tolerant	lachen	loyal	freundlich	ehrlich	schroff	tyrannisch	leiden	lasch	fanatisch	eitel	1	blank2r.bmp	0	1	+	0	1	blank2r.bmp	500	1	GKQX	500	1	blank2r.bmp	880	1	schön	880	0	0	0	0	0	0	0	0	0	0	0	0
2024-05-08	15:45:45	15:47:48	123426	6.6.1	4_exp_EVA_AWA_CON	20	B	A	Rpleas_acq	Oppo	Rpleas	2pleas	acq_new_unple_nomask	acq1_nomask	1	18	0	0	300	300	0	0	754	46	1	0	schön	retten	helfen	spielen	treu	fair	schlecht	rächen	hindern	strafen	tot	faul	schlau	tolerant	lachen	loyal	freundlich	ehrlich	schroff	tyrannisch	leiden	lasch	fanatisch	eitel	1	blank2r.bmp	0	1	+	0	1	blank2r.bmp	500	3	B3r.bmp	500	1	blank2r.bmp	880	5	fanatisch	880	0	0	0	0	0	0	0	0	0	0	0	0
2024-05-08	15:45:45	15:47:50	125497	6.6.1	4_exp_EVA_AWA_CON	20	B	A	Rpleas_acq	Oppo	Rpleas	2pleas	acq_new_pleas_nomask	acq1_nomask	1	19	0	0	300	300	0	0	585	50	1	0	schön	retten	helfen	spielen	treu	fair	schlecht	rächen	hindern	strafen	tot	faul	schlau	tolerant	lachen	loyal	freundlich	ehrlich	schroff	tyrannisch	leiden	lasch	fanatisch	eitel	1	blank2r.bmp	0	1	+	0	1	blank2r.bmp	500	4	B4r.bmp	500	1	blank2r.bmp	880	3	lachen	880	0	0	0	0	0	0	0	0	0	0	0	0
2024-05-08	15:45:45	15:47:52	127474	6.6.1	4_exp_EVA_AWA_CON	20	B	A	Rpleas_acq	Oppo	Rpleas	2pleas	acq_US_unple_nomask	acq1_nomask	1	20	0	0	300	300	0	0	490	46	1	0	schön	retten	helfen	spielen	treu	fair	schlecht	rächen	hindern	strafen	tot	faul	schlau	tolerant	lachen	loyal	freundlich	ehrlich	schroff	tyrannisch	leiden	lasch	fanatisch	eitel	1	blank2r.bmp	0	1	+	0	1	blank2r.bmp	500	1	BMVZ	500	1	blank2r.bmp	880	1	schlecht	880	0	0	0	0	0	0	0	0	0	0	0	0
2024-05-08	15:45:45	15:47:55	129868	6.6.1	4_exp_EVA_AWA_CON	20	B	A	Rpleas_acq	Oppo	Rpleas	2pleas	acq_new_unple_nomask	acq1_nomask	1	21	0	0	300	300	0	0	710	50	0	0	schön	retten	helfen	spielen	treu	fair	schlecht	rächen	hindern	strafen	tot	faul	schlau	tolerant	lachen	loyal	freundlich	ehrlich	schroff	tyrannisch	leiden	lasch	fanatisch	eitel	1	blank2r.bmp	0	1	+	0	1	blank2r.bmp	500	8	C4r.bmp	500	1	blank2r.bmp	880	6	eitel	880	1	FEHLER	1613	0	0	0	0	0	0	0	0	0
2024-05-08	15:45:45	15:47:57	131978	6.6.1	4_exp_EVA_AWA_CON	20	B	A	Rpleas_acq	Oppo	Rpleas	2pleas	acq_new_pleas_nomask	acq1_nomask	1	22	0	0	300	300	0	0	831	50	1	0	schön	retten	helfen	spielen	treu	fair	schlecht	rächen	hindern	strafen	tot	faul	schlau	tolerant	lachen	loyal	freundlich	ehrlich	schroff	tyrannisch	leiden	lasch	fanatisch	eitel	1	blank2r.bmp	0	1	+	0	1	blank2r.bmp	500	3	B3r.bmp	500	1	blank2r.bmp	880	1	schlau	880	0	0	0	0	0	0	0	0	0	0	0	0
2024-05-08	15:45:45	15:47:59	134025	6.6.1	4_exp_EVA_AWA_CON	20	B	A	Rpleas_acq	Oppo	Rpleas	2pleas	acq_new_pleas_nomask	acq1_nomask	1	23	0	0	300	300	0	0	557	50	1	0	schön	retten	helfen	spielen	treu	fair	schlecht	rächen	hindern	strafen	tot	faul	schlau	tolerant	lachen	loyal	freundlich	ehrlich	schroff	tyrannisch	leiden	lasch	fanatisch	eitel	1	blank2r.bmp	0	1	+	0	1	blank2r.bmp	500	1	B1r.bmp	500	1	blank2r.bmp	880	5	freundlich	880	0	0	0	0	0	0	0	0	0	0	0	0
2024-05-08	15:45:45	15:48:01	136058	6.6.1	4_exp_EVA_AWA_CON	20	B	A	Rpleas_acq	Oppo	Rpleas	2pleas	acq_US_unple_nomask	acq1_nomask	1	24	0	0	300	300	0	0	548	46	1	0	schön	retten	helfen	spielen	treu	fair	schlecht	rächen	hindern	strafen	tot	faul	schlau	tolerant	lachen	loyal	freundlich	ehrlich	schroff	tyrannisch	leiden	lasch	fanatisch	eitel	1	blank2r.bmp	0	1	+	0	1	blank2r.bmp	500	1	BMVZ	500	1	blank2r.bmp	880	3	hindern	880	0	0	0	0	0	0	0	0	0	0	0	0
2024-05-08	15:45:45	15:48:03	137986	6.6.1	4_exp_EVA_AWA_CON	20	B	A	Rpleas_acq	Oppo	Rpleas	2pleas	acq_US_unple_nomask	acq1_nomask	1	25	0	0	300	300	0	0	446	46	1	0	schön	retten	helfen	spielen	treu	fair	schlecht	rächen	hindern	strafen	tot	faul	schlau	tolerant	lachen	loyal	freundlich	ehrlich	schroff	tyrannisch	leiden	lasch	fanatisch	eitel	1	blank2r.bmp	0	1	+	0	1	blank2r.bmp	500	1	BMVZ	500	1	blank2r.bmp	880	2	rächen	880	0	0	0	0	0	0	0	0	0	0	0	0
2024-05-08	15:45:45	15:48:05	140050	6.6.1	4_exp_EVA_AWA_CON	20	B	A	Rpleas_acq	Oppo	Rpleas	2pleas	acq_new_unple_nomask	acq1_nomask	1	26	0	0	300	300	0	0	577	46	1	0	schön	retten	helfen	spielen	treu	fair	schlecht	rächen	hindern	strafen	tot	faul	schlau	tolerant	lachen	loyal	freundlich	ehrlich	schroff	tyrannisch	leiden	lasch	fanatisch	eitel	1	blank2r.bmp	0	1	+	0	1	blank2r.bmp	500	7	C3r.bmp	500	1	blank2r.bmp	880	1	schroff	880	0	0	0	0	0	0	0	0	0	0	0	0
2024-05-08	15:45:45	15:48:07	142009	6.6.1	4_exp_EVA_AWA_CON	20	B	A	Rpleas_acq	Oppo	Rpleas	2pleas	acq_new_pleas_nomask	acq1_nomask	1	27	0	0	300	300	0	0	476	50	1	0	schön	retten	helfen	spielen	treu	fair	schlecht	rächen	hindern	strafen	tot	faul	schlau	tolerant	lachen	loyal	freundlich	ehrlich	schroff	tyrannisch	leiden	lasch	fanatisch	eitel	1	blank2r.bmp	0	1	+	0	1	blank2r.bmp	500	6	C2r.bmp	500	1	blank2r.bmp	880	1	schlau	880	0	0	0	0	0	0	0	0	0	0	0	0
2024-05-08	15:45:45	15:48:09	144009	6.6.1	4_exp_EVA_AWA_CON	20	B	A	Rpleas_acq	Oppo	Rpleas	2pleas	acq_new_unple_nomask	acq1_nomask	1	28	0	0	300	300	0	0	515	46	1	0	schön	retten	helfen	spielen	treu	fair	schlecht	rächen	hindern	strafen	tot	faul	schlau	tolerant	lachen	loyal	freundlich	ehrlich	schroff	tyrannisch	leiden	lasch	fanatisch	eitel	1	blank2r.bmp	0	1	+	0	1	blank2r.bmp	500	5	C1r.bmp	500	1	blank2r.bmp	880	3	leiden	880	0	0	0	0	0	0	0	0	0	0	0	0
2024-05-08	15:45:45	15:48:11	146017	6.6.1	4_exp_EVA_AWA_CON	20	B	A	Rpleas_acq	Oppo	Rpleas	2pleas	acq_new_pleas_nomask	acq1_nomask	1	29	0	0	300	300	0	0	522	50	1	0	schön	retten	helfen	spielen	treu	fair	schlecht	rächen	hindern	strafen	tot	faul	schlau	tolerant	lachen	loyal	freundlich	ehrlich	schroff	tyrannisch	leiden	lasch	fanatisch	eitel	1	blank2r.bmp	0	1	+	0	1	blank2r.bmp	500	2	B2r.bmp	500	1	blank2r.bmp	880	5	freundlich	880	0	0	0	0	0	0	0	0	0	0	0	0
2024-05-08	15:45:45	15:48:13	147993	6.6.1	4_exp_EVA_AWA_CON	20	B	A	Rpleas_acq	Oppo	Rpleas	2pleas	acq_US_pleas_nomask	acq1_nomask	1	30	0	0	300	300	0	0	486	50	1	0	schön	retten	helfen	spielen	treu	fair	schlecht	rächen	hindern	strafen	tot	faul	schlau	tolerant	lachen	loyal	freundlich	ehrlich	schroff	tyrannisch	leiden	lasch	fanatisch	eitel	1	blank2r.bmp	0	1	+	0	1	blank2r.bmp	500	1	GKQX	500	1	blank2r.bmp	880	4	spielen	880	0	0	0	0	0	0	0	0	0	0	0	0
2024-05-08	15:45:45	15:48:15	150089	6.6.1	4_exp_EVA_AWA_CON	20	B	A	Rpleas_acq	Oppo	Rpleas	2pleas	acq_US_pleas_nomask	acq1_nomask	1	31	0	0	300	300	0	0	611	50	1	0	schön	retten	helfen	spielen	treu	fair	schlecht	rächen	hindern	strafen	tot	faul	schlau	tolerant	lachen	loyal	freundlich	ehrlich	schroff	tyrannisch	leiden	lasch	fanatisch	eitel	1	blank2r.bmp	0	1	+	0	1	blank2r.bmp	500	1	GKQX	500	1	blank2r.bmp	880	3	helfen	880	0	0	0	0	0	0	0	0	0	0	0	0
2024-05-08	15:45:45	15:48:17	152250	6.6.1	4_exp_EVA_AWA_CON	20	B	A	Rpleas_acq	Oppo	Rpleas	2pleas	acq_new_unple_nomask	acq1_nomask	1	32	0	0	300	300	0	0	670	46	1	0	schön	retten	helfen	spielen	treu	fair	schlecht	rächen	hindern	strafen	tot	faul	schlau	tolerant	lachen	loyal	freundlich	ehrlich	schroff	tyrannisch	leiden	lasch	fanatisch	eitel	1	blank2r.bmp	0	1	+	0	1	blank2r.bmp	500	3	B3r.bmp	500	1	blank2r.bmp	880	5	fanatisch	880	0	0	0	0	0	0	0	0	0	0	0	0
2024-05-08	15:45:45	15:48:19	154185	6.6.1	4_exp_EVA_AWA_CON	20	B	A	Rpleas_acq	Oppo	Rpleas	2pleas	acq_US_unple_nomask	acq1_nomask	1	33	0	0	300	300	0	0	454	46	1	0	schön	retten	helfen	spielen	treu	fair	schlecht	rächen	hindern	strafen	tot	faul	schlau	tolerant	lachen	loyal	freundlich	ehrlich	schroff	tyrannisch	leiden	lasch	fanatisch	eitel	1	blank2r.bmp	0	1	+	0	1	blank2r.bmp	500	1	BMVZ	500	1	blank2r.bmp	880	6	faul	880	0	0	0	0	0	0	0	0	0	0	0	0
2024-05-08	15:45:45	15:48:21	156306	6.6.1	4_exp_EVA_AWA_CON	20	B	A	Rpleas_acq	Oppo	Rpleas	2pleas	acq_US_unple_nomask	acq1_nomask	1	34	0	0	300	300	0	0	633	46	1	0	schön	retten	helfen	spielen	treu	fair	schlecht	rächen	hindern	strafen	tot	faul	schlau	tolerant	lachen	loyal	freundlich	ehrlich	schroff	tyrannisch	leiden	lasch	fanatisch	eitel	1	blank2r.bmp	0	1	+	0	1	blank2r.bmp	500	1	BMVZ	500	1	blank2r.bmp	880	1	schlecht	880	0	0	0	0	0	0	0	0	0	0	0	0
2024-05-08	15:45:45	15:48:23	158274	6.6.1	4_exp_EVA_AWA_CON	20	B	A	Rpleas_acq	Oppo	Rpleas	2pleas	acq_new_pleas_nomask	acq1_nomask	1	35	0	0	300	300	0	0	480	50	1	0	schön	retten	helfen	spielen	treu	fair	schlecht	rächen	hindern	strafen	tot	faul	schlau	tolerant	lachen	loyal	freundlich	ehrlich	schroff	tyrannisch	leiden	lasch	fanatisch	eitel	1	blank2r.bmp	0	1	+	0	1	blank2r.bmp	500	5	C1r.bmp	500	1	blank2r.bmp	880	2	tolerant	880	0	0	0	0	0	0	0	0	0	0	0	0
2024-05-08	15:45:45	15:48:25	160257	6.6.1	4_exp_EVA_AWA_CON	20	B	A	Rpleas_acq	Oppo	Rpleas	2pleas	acq_US_pleas_nomask	acq1_nomask	1	36	0	0	300	300	0	0	503	50	1	0	schön	retten	helfen	spielen	treu	fair	schlecht	rächen	hindern	strafen	tot	faul	schlau	tolerant	lachen	loyal	freundlich	ehrlich	schroff	tyrannisch	leiden	lasch	fanatisch	eitel	1	blank2r.bmp	0	1	+	0	1	blank2r.bmp	500	1	GKQX	500	1	blank2r.bmp	880	5	treu	880	0	0	0	0	0	0	0	0	0	0	0	0
2024-05-08	15:45:45	15:49:05	200124	6.6.1	4_exp_EVA_AWA_CON	20	B	A	Rpleas_acq	Oppo	Rpleas	2pleas	acq_US_unple_nomask	acq2_nomask	2	1	480	0	300	300	0	0	2724	46	1	0	schön	retten	helfen	spielen	treu	fair	schlecht	rächen	hindern	strafen	tot	faul	schlau	tolerant	lachen	loyal	freundlich	ehrlich	schroff	tyrannisch	leiden	lasch	fanatisch	eitel	1	blank2r.bmp	0	1	+	0	1	blank2r.bmp	500	1	BMVZ	500	1	blank2r.bmp	880	5	tot	880	1	!	1312	1	!	-1	0	0	0	0	0	0
2024-05-08	15:45:45	15:49:10	204644	6.6.1	4_exp_EVA_AWA_CON	20	B	A	Rpleas_acq	Oppo	Rpleas	2pleas	acq_US_pleas_nomask	acq2_nomask	2	2	480	0	300	300	0	0	2742	50	1	0	schön	retten	helfen	spielen	treu	fair	schlecht	rächen	hindern	strafen	tot	faul	schlau	tolerant	lachen	loyal	freundlich	ehrlich	schroff	tyrannisch	leiden	lasch	fanatisch	eitel	1	blank2r.bmp	0	1	+	0	1	blank2r.bmp	500	1	GKQX	500	1	blank2r.bmp	880	6	fair	880	1	!	1312	1	!	-1	0	0	0	0	0	0
2024-05-08	15:45:45	15:49:12	207172	6.6.1	4_exp_EVA_AWA_CON	20	B	A	Rpleas_acq	Oppo	Rpleas	2pleas	acq_new_unple_nomask	acq2_nomask	2	3	480	0	300	300	0	0	747	46	1	0	schön	retten	helfen	spielen	treu	fair	schlecht	rächen	hindern	strafen	tot	faul	schlau	tolerant	lachen	loyal	freundlich	ehrlich	schroff	tyrannisch	leiden	lasch	fanatisch	eitel	1	blank2r.bmp	0	1	+	0	1	blank2r.bmp	500	7	C3r.bmp	500	1	blank2r.bmp	880	2	tyrannisch	880	1	!	1312	1	!	-1	0	0	0	0	0	0
2024-05-08	15:45:45	15:49:14	209356	6.6.1	4_exp_EVA_AWA_CON	20	B	A	Rpleas_acq	Oppo	Rpleas	2pleas	acq_US_pleas_nomask	acq2_nomask	2	4	480	0	300	300	0	0	409	50	1	0	schön	retten	helfen	spielen	treu	fair	schlecht	rächen	hindern	strafen	tot	faul	schlau	tolerant	lachen	loyal	freundlich	ehrlich	schroff	tyrannisch	leiden	lasch	fanatisch	eitel	1	blank2r.bmp	0	1	+	0	1	blank2r.bmp	500	1	GKQX	500	1	blank2r.bmp	880	1	schön	880	1	!	-1	1	!	-1	0	0	0	0	0	0
2024-05-08	15:45:45	15:49:17	211590	6.6.1	4_exp_EVA_AWA_CON	20	B	A	Rpleas_acq	Oppo	Rpleas	2pleas	acq_new_pleas_nomask	acq2_nomask	2	5	480	1	300	300	0	0	450	50	1	0	schön	retten	helfen	spielen	treu	fair	schlecht	rächen	hindern	strafen	tot	faul	schlau	tolerant	lachen	loyal	freundlich	ehrlich	schroff	tyrannisch	leiden	lasch	fanatisch	eitel	1	blank2r.bmp	0	1	+	0	1	blank2r.bmp	500	2	B2r.bmp	500	1	blank2r.bmp	880	4	loyal	880	1	!	1312	1	!	1352	0	0	0	0	0	0
2024-05-08	15:45:45	15:49:19	214291	6.6.1	4_exp_EVA_AWA_CON	20	B	A	Rpleas_acq	Oppo	Rpleas	2pleas	acq_US_pleas_nomask	acq2_nomask	2	6	480	0	300	300	0	0	922	50	1	0	schön	retten	helfen	spielen	treu	fair	schlecht	rächen	hindern	strafen	tot	faul	schlau	tolerant	lachen	loyal	freundlich	ehrlich	schroff	tyrannisch	leiden	lasch	fanatisch	eitel	1	blank2r.bmp	0	1	+	0	1	blank2r.bmp	500	1	GKQX	500	1	blank2r.bmp	880	2	retten	880	1	!	1312	1	!	-1	0	0	0	0	0	0
2024-05-08	15:45:45	15:49:21	216363	6.6.1	4_exp_EVA_AWA_CON	20	B	A	Rpleas_acq	Oppo	Rpleas	2pleas	acq_new_unple_nomask	acq2_nomask	2	7	480	0	300	300	0	0	292	46	1	0	schön	retten	helfen	spielen	treu	fair	schlecht	rächen	hindern	strafen	tot	faul	schlau	tolerant	lachen	loyal	freundlich	ehrlich	schroff	tyrannisch	leiden	lasch	fanatisch	eitel	1	blank2r.bmp	0	1	+	0	1	blank2r.bmp	500	8	C4r.bmp	500	1	blank2r.bmp	880	4	lasch	880	1	!	-1	1	!	-1	0	0	0	0	0	0
2024-05-08	15:45:45	15:49:24	218755	6.6.1	4_exp_EVA_AWA_CON	20	B	A	Rpleas_acq	Oppo	Rpleas	2pleas	acq_new_pleas_nomask	acq2_nomask	2	8	480	0	300	300	0	0	613	50	1	0	schön	retten	helfen	spielen	treu	fair	schlecht	rächen	hindern	strafen	tot	faul	schlau	tolerant	lachen	loyal	freundlich	ehrlich	schroff	tyrannisch	leiden	lasch	fanatisch	eitel	1	blank2r.bmp	0	1	+	0	1	blank2r.bmp	500	6	C2r.bmp	500	1	blank2r.bmp	880	3	lachen	880	1	!	1313	1	!	-1	0	0	0	0	0	0
2024-05-08	15:45:45	15:49:26	221029	6.6.1	4_exp_EVA_AWA_CON	20	B	A	Rpleas_acq	Oppo	Rpleas	2pleas	acq_US_unple_nomask	acq2_nomask	2	9	480	1	300	300	0	0	494	46	1	0	schön	retten	helfen	spielen	treu	fair	schlecht	rächen	hindern	strafen	tot	faul	schlau	tolerant	lachen	loyal	freundlich	ehrlich	schroff	tyrannisch	leiden	lasch	fanatisch	eitel	1	blank2r.bmp	0	1	+	0	1	blank2r.bmp	500	1	BMVZ	500	1	blank2r.bmp	880	4	strafen	880	1	!	1312	1	!	1395	0	0	0	0	0	0
2024-05-08	15:45:45	15:49:28	223507	6.6.1	4_exp_EVA_AWA_CON	20	B	A	Rpleas_acq	Oppo	Rpleas	2pleas	acq_new_pleas_nomask	acq2_nomask	2	10	480	0	300	300	0	0	702	50	1	0	schön	retten	helfen	spielen	treu	fair	schlecht	rächen	hindern	strafen	tot	faul	schlau	tolerant	lachen	loyal	freundlich	ehrlich	schroff	tyrannisch	leiden	lasch	fanatisch	eitel	1	blank2r.bmp	0	1	+	0	1	blank2r.bmp	500	1	B1r.bmp	500	1	blank2r.bmp	880	6	ehrlich	880	1	!	1312	1	!	-1	0	0	0	0	0	0
2024-05-08	15:45:45	15:49:31	225691	6.6.1	4_exp_EVA_AWA_CON	20	B	A	Rpleas_acq	Oppo	Rpleas	2pleas	acq_US_unple_nomask	acq2_nomask	2	11	480	0	300	300	0	0	405	46	1	0	schön	retten	helfen	spielen	treu	fair	schlecht	rächen	hindern	strafen	tot	faul	schlau	tolerant	lachen	loyal	freundlich	ehrlich	schroff	tyrannisch	leiden	lasch	fanatisch	eitel	1	blank2r.bmp	0	1	+	0	1	blank2r.bmp	500	1	BMVZ	500	1	blank2r.bmp	880	3	hindern	880	1	!	-1	1	!	-1	0	0	0	0	0	0
2024-05-08	15:45:45	15:49:33	228115	6.6.1	4_exp_EVA_AWA_CON	20	B	A	Rpleas_acq	Oppo	Rpleas	2pleas	acq_new_unple_nomask	acq2_nomask	2	12	480	0	300	300	0	0	647	46	1	0	schön	retten	helfen	spielen	treu	fair	schlecht	rächen	hindern	strafen	tot	faul	schlau	tolerant	lachen	loyal	freundlich	ehrlich	schroff	tyrannisch	leiden	lasch	fanatisch	eitel	1	blank2r.bmp	0	1	+	0	1	blank2r.bmp	500	4	B4r.bmp	500	1	blank2r.bmp	880	6	eitel	880	1	!	1312	1	!	-1	0	0	0	0	0	0
2024-05-08	15:45:45	15:49:35	230389	6.6.1	4_exp_EVA_AWA_CON	20	B	A	Rpleas_acq	Oppo	Rpleas	2pleas	acq_US_unple_nomask	acq2_nomask	2	13	480	1	300	300	0	0	498	46	1	0	schön	retten	helfen	spielen	treu	fair	schlecht	rächen	hindern	strafen	tot	faul	schlau	tolerant	lachen	loyal	freundlich	ehrlich	schroff	tyrannisch	leiden	lasch	fanatisch	eitel	1	blank2r.bmp	0	1	+	0	1	blank2r.bmp	500	1	BMVZ	500	1	blank2r.bmp	880	6	faul	880	1	!	1312	1	!	1399	0	0	0	0	0	0
2024-05-08	15:45:45	15:49:38	232587	6.6.1	4_exp_EVA_AWA_CON	20	B	A	Rpleas_acq	Oppo	Rpleas	2pleas	acq_new_unple_nomask	acq2_nomask	2	14	480	1	300	300	0	0	416	46	1	0	schön	retten	helfen	spielen	treu	fair	schlecht	rächen	hindern	strafen	tot	faul	schlau	tolerant	lachen	loyal	freundlich	ehrlich	schroff	tyrannisch	leiden	lasch	fanatisch	eitel	1	blank2r.bmp	0	1	+	0	1	blank2r.bmp	500	1	B1r.bmp	500	1	blank2r.bmp	880	4	lasch	880	1	!	1312	1	!	1316	0	0	0	0	0	0
2024-05-08	15:45:45	15:49:40	234789	6.6.1	4_exp_EVA_AWA_CON	20	B	A	Rpleas_acq	Oppo	Rpleas	2pleas	acq_US_pleas_nomask	acq2_nomask	2	15	480	1	300	300	0	0	425	50	1	0	schön	retten	helfen	spielen	treu	fair	schlecht	rächen	hindern	strafen	tot	faul	schlau	tolerant	lachen	loyal	freundlich	ehrlich	schroff	tyrannisch	leiden	lasch	fanatisch	eitel	1	blank2r.bmp	0	1	+	0	1	blank2r.bmp	500	1	GKQX	500	1	blank2r.bmp	880	1	schön	880	1	!	1312	1	!	1326	0	0	0	0	0	0
2024-05-08	15:45:45	15:49:42	237037	6.6.1	4_exp_EVA_AWA_CON	20	B	A	Rpleas_acq	Oppo	Rpleas	2pleas	acq_new_pleas_nomask	acq2_nomask	2	16	480	1	300	300	0	0	471	50	1	0	schön	retten	helfen	spielen	treu	fair	schlecht	rächen	hindern	strafen	tot	faul	schlau	tolerant	lachen	loyal	freundlich	ehrlich	schroff	tyrannisch	leiden	lasch	fanatisch	eitel	1	blank2r.bmp	0	1	+	0	1	blank2r.bmp	500	7	C3r.bmp	500	1	blank2r.bmp	880	5	freundlich	880	1	!	1312	1	!	1373	0	0	0	0	0	0
2024-05-08	15:45:45	15:49:44	239301	6.6.1	4_exp_EVA_AWA_CON	20	B	A	Rpleas_acq	Oppo	Rpleas	2pleas	acq_US_pleas_nomask	acq2_nomask	2	17	480	1	300	300	0	0	484	50	1	0	schön	retten	helfen	spielen	treu	fair	schlecht	rächen	hindern	strafen	tot	faul	schlau	tolerant	lachen	loyal	freundlich	ehrlich	schroff	tyrannisch	leiden	lasch	fanatisch	eitel	1	blank2r.bmp	0	1	+	0	1	blank2r.bmp	500	1	GKQX	500	1	blank2r.bmp	880	5	treu	880	1	!	1312	1	!	1385	0	0	0	0	0	0
2024-05-08	15:45:45	15:49:47	241565	6.6.1	4_exp_EVA_AWA_CON	20	B	A	Rpleas_acq	Oppo	Rpleas	2pleas	acq_US_unple_nomask	acq2_nomask	2	18	480	1	300	300	0	0	486	46	1	0	schön	retten	helfen	spielen	treu	fair	schlecht	rächen	hindern	strafen	tot	faul	schlau	tolerant	lachen	loyal	freundlich	ehrlich	schroff	tyrannisch	leiden	lasch	fanatisch	eitel	1	blank2r.bmp	0	1	+	0	1	blank2r.bmp	500	1	BMVZ	500	1	blank2r.bmp	880	3	hindern	880	1	!	1313	1	!	1388	0	0	0	0	0	0
2024-05-08	15:45:45	15:49:49	243982	6.6.1	4_exp_EVA_AWA_CON	20	B	A	Rpleas_acq	Oppo	Rpleas	2pleas	acq_US_pleas_nomask	acq2_nomask	2	19	480	1	300	300	0	0	441	46	0	0	schön	retten	helfen	spielen	treu	fair	schlecht	rächen	hindern	strafen	tot	faul	schlau	tolerant	lachen	loyal	freundlich	ehrlich	schroff	tyrannisch	leiden	lasch	fanatisch	eitel	1	blank2r.bmp	0	1	+	0	1	blank2r.bmp	500	1	GKQX	500	1	blank2r.bmp	880	6	fair	880	1	FEHLER	1634	1	!	1313	1	!	1343	0	0	0
2024-05-08	15:45:45	15:49:51	246171	6.6.1	4_exp_EVA_AWA_CON	20	B	A	Rpleas_acq	Oppo	Rpleas	2pleas	acq_new_unple_nomask	acq2_nomask	2	20	480	0	300	300	0	0	612	46	1	0	schön	retten	helfen	spielen	treu	fair	schlecht	rächen	hindern	strafen	tot	faul	schlau	tolerant	lachen	loyal	freundlich	ehrlich	schroff	tyrannisch	leiden	lasch	fanatisch	eitel	1	blank2r.bmp	0	1	+	0	1	blank2r.bmp	500	3	B3r.bmp	500	1	blank2r.bmp	880	6	eitel	880	1	!	1312	1	!	-1	0	0	0	0	0	0
2024-05-08	15:45:45	15:49:53	248422	6.6.1	4_exp_EVA_AWA_CON	20	B	A	Rpleas_acq	Oppo	Rpleas	2pleas	acq_US_unple_nomask	acq2_nomask	2	21	480	1	300	300	0	0	468	46	1	0	schön	retten	helfen	spielen	treu	fair	schlecht	rächen	hindern	strafen	tot	faul	schlau	tolerant	lachen	loyal	freundlich	ehrlich	schroff	tyrannisch	leiden	lasch	fanatisch	eitel	1	blank2r.bmp	0	1	+	0	1	blank2r.bmp	500	1	BMVZ	500	1	blank2r.bmp	880	1	schlecht	880	1	!	1312	1	!	1370	0	0	0	0	0	0
2024-05-08	15:45:45	15:49:56	250717	6.6.1	4_exp_EVA_AWA_CON	20	B	A	Rpleas_acq	Oppo	Rpleas	2pleas	acq_new_unple_nomask	acq2_nomask	2	22	480	1	300	300	0	0	513	46	1	0	schön	retten	helfen	spielen	treu	fair	schlecht	rächen	hindern	strafen	tot	faul	schlau	tolerant	lachen	loyal	freundlich	ehrlich	schroff	tyrannisch	leiden	lasch	fanatisch	eitel	1	blank2r.bmp	0	1	+	0	1	blank2r.bmp	500	6	C2r.bmp	500	1	blank2r.bmp	880	5	fanatisch	880	1	!	1312	1	!	1414	0	0	0	0	0	0
2024-05-08	15:45:45	15:49:58	252844	6.6.1	4_exp_EVA_AWA_CON	20	B	A	Rpleas_acq	Oppo	Rpleas	2pleas	acq_new_pleas_nomask	acq2_nomask	2	23	480	0	300	300	0	0	349	50	1	0	schön	retten	helfen	spielen	treu	fair	schlecht	rächen	hindern	strafen	tot	faul	schlau	tolerant	lachen	loyal	freundlich	ehrlich	schroff	tyrannisch	leiden	lasch	fanatisch	eitel	1	blank2r.bmp	0	1	+	0	1	blank2r.bmp	500	5	C1r.bmp	500	1	blank2r.bmp	880	3	lachen	880	1	!	-1	1	!	-1	0	0	0	0	0	0
2024-05-08	15:45:45	15:50:00	254996	6.6.1	4_exp_EVA_AWA_CON	20	B	A	Rpleas_acq	Oppo	Rpleas	2pleas	acq_new_pleas_nomask	acq2_nomask	2	24	480	0	300	300	0	0	370	50	1	0	schön	retten	helfen	spielen	treu	fair	schlecht	rächen	hindern	strafen	tot	faul	schlau	tolerant	lachen	loyal	freundlich	ehrlich	schroff	tyrannisch	leiden	lasch	fanatisch	eitel	1	blank2r.bmp	0	1	+	0	1	blank2r.bmp	500	2	B2r.bmp	500	1	blank2r.bmp	880	6	ehrlich	880	1	!	-1	1	!	-1	0	0	0	0	0	0
2024-05-08	15:45:45	15:50:02	257148	6.6.1	4_exp_EVA_AWA_CON	20	B	A	Rpleas_acq	Oppo	Rpleas	2pleas	acq_new_pleas_nomask	acq2_nomask	2	25	480	0	300	300	0	0	370	50	1	0	schön	retten	helfen	spielen	treu	fair	schlecht	rächen	hindern	strafen	tot	faul	schlau	tolerant	lachen	loyal	freundlich	ehrlich	schroff	tyrannisch	leiden	lasch	fanatisch	eitel	1	blank2r.bmp	0	1	+	0	1	blank2r.bmp	500	8	C4r.bmp	500	1	blank2r.bmp	880	1	schlau	880	1	!	-1	1	!	-1	0	0	0	0	0	0
2024-05-08	15:45:45	15:50:04	259365	6.6.1	4_exp_EVA_AWA_CON	20	B	A	Rpleas_acq	Oppo	Rpleas	2pleas	acq_US_unple_nomask	acq2_nomask	2	26	480	1	300	300	0	0	435	46	1	0	schön	retten	helfen	spielen	treu	fair	schlecht	rächen	hindern	strafen	tot	faul	schlau	tolerant	lachen	loyal	freundlich	ehrlich	schroff	tyrannisch	leiden	lasch	fanatisch	eitel	1	blank2r.bmp	0	1	+	0	1	blank2r.bmp	500	1	BMVZ	500	1	blank2r.bmp	880	4	strafen	880	1	!	1312	1	!	1337	0	0	0	0	0	0
2024-05-08	15:45:45	15:50:06	261491	6.6.1	4_exp_EVA_AWA_CON	20	B	A	Rpleas_acq	Oppo	Rpleas	2pleas	acq_US_unple_nomask	acq2_nomask	2	27	480	0	300	300	0	0	352	46	1	0	schön	retten	helfen	spielen	treu	fair	schlecht	rächen	hindern	strafen	tot	faul	schlau	tolerant	lachen	loyal	freundlich	ehrlich	schroff	tyrannisch	leiden	lasch	fanatisch	eitel	1	blank2r.bmp	0	1	+	0	1	blank2r.bmp	500	1	BMVZ	500	1	blank2r.bmp	880	5	tot	880	1	!	-1	1	!	-1	0	0	0	0	0	0
2024-05-08	15:45:45	15:50:09	263823	6.6.1	4_exp_EVA_AWA_CON	20	B	A	Rpleas_acq	Oppo	Rpleas	2pleas	acq_US_pleas_nomask	acq2_nomask	2	28	480	0	300	300	0	0	348	46	0	0	schön	retten	helfen	spielen	treu	fair	schlecht	rächen	hindern	strafen	tot	faul	schlau	tolerant	lachen	loyal	freundlich	ehrlich	schroff	tyrannisch	leiden	lasch	fanatisch	eitel	1	blank2r.bmp	0	1	+	0	1	blank2r.bmp	500	1	GKQX	500	1	blank2r.bmp	880	3	helfen	880	1	FEHLER	1542	1	!	-1	1	!	-1	0	0	0
2024-05-08	15:45:45	15:50:11	266086	6.6.1	4_exp_EVA_AWA_CON	20	B	A	Rpleas_acq	Oppo	Rpleas	2pleas	acq_new_unple_nomask	acq2_nomask	2	29	480	1	300	300	0	0	491	50	0	0	schön	retten	helfen	spielen	treu	fair	schlecht	rächen	hindern	strafen	tot	faul	schlau	tolerant	lachen	loyal	freundlich	ehrlich	schroff	tyrannisch	leiden	lasch	fanatisch	eitel	1	blank2r.bmp	0	1	+	0	1	blank2r.bmp	500	4	B4r.bmp	500	1	blank2r.bmp	880	1	schroff	880	1	FEHLER	1684	1	!	1312	1	!	1393	0	0	0
2024-05-08	15:45:45	15:50:13	268427	6.6.1	4_exp_EVA_AWA_CON	20	B	A	Rpleas_acq	Oppo	Rpleas	2pleas	acq_US_pleas_nomask	acq2_nomask	2	30	480	0	300	300	0	0	763	50	1	0	schön	retten	helfen	spielen	treu	fair	schlecht	rächen	hindern	strafen	tot	faul	schlau	tolerant	lachen	loyal	freundlich	ehrlich	schroff	tyrannisch	leiden	lasch	fanatisch	eitel	1	blank2r.bmp	0	1	+	0	1	blank2r.bmp	500	1	GKQX	500	1	blank2r.bmp	880	2	retten	880	1	!	1312	1	!	-1	0	0	0	0	0	0
2024-05-08	15:45:45	15:50:16	270669	6.6.1	4_exp_EVA_AWA_CON	20	B	A	Rpleas_acq	Oppo	Rpleas	2pleas	acq_new_unple_nomask	acq2_nomask	2	31	480	1	300	300	0	0	462	46	1	0	schön	retten	helfen	spielen	treu	fair	schlecht	rächen	hindern	strafen	tot	faul	schlau	tolerant	lachen	loyal	freundlich	ehrlich	schroff	tyrannisch	leiden	lasch	fanatisch	eitel	1	blank2r.bmp	0	1	+	0	1	blank2r.bmp	500	5	C1r.bmp	500	1	blank2r.bmp	880	2	tyrannisch	880	1	!	1312	1	!	1363	0	0	0	0	0	0
2024-05-08	15:45:45	15:50:18	272893	6.6.1	4_exp_EVA_AWA_CON	20	B	A	Rpleas_acq	Oppo	Rpleas	2pleas	acq_new_unple_nomask	acq2_nomask	2	32	480	1	300	300	0	0	444	46	1	0	schön	retten	helfen	spielen	treu	fair	schlecht	rächen	hindern	strafen	tot	faul	schlau	tolerant	lachen	loyal	freundlich	ehrlich	schroff	tyrannisch	leiden	lasch	fanatisch	eitel	1	blank2r.bmp	0	1	+	0	1	blank2r.bmp	500	8	C4r.bmp	500	1	blank2r.bmp	880	3	leiden	880	1	!	1312	1	!	1346	0	0	0	0	0	0
2024-05-08	15:45:45	15:50:20	275059	6.6.1	4_exp_EVA_AWA_CON	20	B	A	Rpleas_acq	Oppo	Rpleas	2pleas	acq_US_pleas_nomask	acq2_nomask	2	33	480	0	300	300	0	0	391	50	1	0	schön	retten	helfen	spielen	treu	fair	schlecht	rächen	hindern	strafen	tot	faul	schlau	tolerant	lachen	loyal	freundlich	ehrlich	schroff	tyrannisch	leiden	lasch	fanatisch	eitel	1	blank2r.bmp	0	1	+	0	1	blank2r.bmp	500	1	GKQX	500	1	blank2r.bmp	880	4	spielen	880	1	!	-1	1	!	-1	0	0	0	0	0	0
2024-05-08	15:45:45	15:50:22	277342	6.6.1	4_exp_EVA_AWA_CON	20	B	A	Rpleas_acq	Oppo	Rpleas	2pleas	acq_US_unple_nomask	acq2_nomask	2	34	480	1	300	300	0	0	499	46	1	0	schön	retten	helfen	spielen	treu	fair	schlecht	rächen	hindern	strafen	tot	faul	schlau	tolerant	lachen	loyal	freundlich	ehrlich	schroff	tyrannisch	leiden	lasch	fanatisch	eitel	1	blank2r.bmp	0	1	+	0	1	blank2r.bmp	500	1	BMVZ	500	1	blank2r.bmp	880	2	rächen	880	1	!	1312	1	!	1402	0	0	0	0	0	0
2024-05-08	15:45:45	15:50:25	279766	6.6.1	4_exp_EVA_AWA_CON	20	B	A	Rpleas_acq	Oppo	Rpleas	2pleas	acq_new_pleas_nomask	acq2_nomask	2	35	480	1	300	300	0	0	442	46	0	0	schön	retten	helfen	spielen	treu	fair	schlecht	rächen	hindern	strafen	tot	faul	schlau	tolerant	lachen	loyal	freundlich	ehrlich	schroff	tyrannisch	leiden	lasch	fanatisch	eitel	1	blank2r.bmp	0	1	+	0	1	blank2r.bmp	500	6	C2r.bmp	500	1	blank2r.bmp	880	2	tolerant	880	1	FEHLER	1635	1	!	1312	1	!	1344	0	0	0
2024-05-08	15:45:45	15:50:27	282235	6.6.1	4_exp_EVA_AWA_CON	20	B	A	Rpleas_acq	Oppo	Rpleas	2pleas	acq_new_pleas_nomask	acq2_nomask	2	36	480	0	300	300	0	0	893	50	1	0	schön	retten	helfen	spielen	treu	fair	schlecht	rächen	hindern	strafen	tot	faul	schlau	tolerant	lachen	loyal	freundlich	ehrlich	schroff	tyrannisch	leiden	lasch	fanatisch	eitel	1	blank2r.bmp	0	1	+	0	1	blank2r.bmp	500	2	B2r.bmp	500	1	blank2r.bmp	880	4	loyal	880	1	!	1312	1	!	-1	0	0	0	0	0	0
2024-05-08	15:45:45	15:50:46	301099	6.6.1	4_exp_EVA_AWA_CON	20	B	A	Rpleas_acq	Oppo	Rpleas	2pleas	acq_US_pleas_nomask	acq3_nomask	3	1	453	0	300	300	0	0	714	50	1	0	schön	retten	helfen	spielen	treu	fair	schlecht	rächen	hindern	strafen	tot	faul	schlau	tolerant	lachen	loyal	freundlich	ehrlich	schroff	tyrannisch	leiden	lasch	fanatisch	eitel	1	blank2r.bmp	0	1	+	0	1	blank2r.bmp	500	1	GKQX	500	1	blank2r.bmp	880	3	helfen	880	1	!	1293	1	!	-1	0	0	0	0	0	0
2024-05-08	15:45:45	15:50:48	303411	6.6.1	4_exp_EVA_AWA_CON	20	B	A	Rpleas_acq	Oppo	Rpleas	2pleas	acq_US_pleas_nomask	acq3_nomask	3	2	453	0	300	300	0	0	535	50	1	0	schön	retten	helfen	spielen	treu	fair	schlecht	rächen	hindern	strafen	tot	faul	schlau	tolerant	lachen	loyal	freundlich	ehrlich	schroff	tyrannisch	leiden	lasch	fanatisch	eitel	1	blank2r.bmp	0	1	+	0	1	blank2r.bmp	500	1	GKQX	500	1	blank2r.bmp	880	4	spielen	880	1	!	1292	1	!	-1	0	0	0	0	0	0
2024-05-08	15:45:45	15:50:51	305630	6.6.1	4_exp_EVA_AWA_CON	20	B	A	Rpleas_acq	Oppo	Rpleas	2pleas	acq_US_pleas_nomask	acq3_nomask	3	3	453	1	300	300	0	0	439	50	1	0	schön	retten	helfen	spielen	treu	fair	schlecht	rächen	hindern	strafen	tot	faul	schlau	tolerant	lachen	loyal	freundlich	ehrlich	schroff	tyrannisch	leiden	lasch	fanatisch	eitel	1	blank2r.bmp	0	1	+	0	1	blank2r.bmp	500	1	GKQX	500	1	blank2r.bmp	880	5	treu	880	1	!	1292	1	!	1342	0	0	0	0	0	0
2024-05-08	15:45:45	15:50:53	308238	6.6.1	4_exp_EVA_AWA_CON	20	B	A	Rpleas_acq	Oppo	Rpleas	2pleas	acq_US_pleas_nomask	acq3_nomask	3	4	453	0	300	300	0	0	626	46	0	0	schön	retten	helfen	spielen	treu	fair	schlecht	rächen	hindern	strafen	tot	faul	schlau	tolerant	lachen	loyal	freundlich	ehrlich	schroff	tyrannisch	leiden	lasch	fanatisch	eitel	1	blank2r.bmp	0	1	+	0	1	blank2r.bmp	500	1	GKQX	500	1	blank2r.bmp	880	2	retten	880	1	FEHLER	1819	1	!	1292	1	!	-1	0	0	0
2024-05-08	15:45:45	15:50:55	310374	6.6.1	4_exp_EVA_AWA_CON	20	B	A	Rpleas_acq	Oppo	Rpleas	2pleas	acq_US_pleas_nomask	acq3_nomask	3	5	453	0	300	300	0	0	360	46	0	0	schön	retten	helfen	spielen	treu	fair	schlecht	rächen	hindern	strafen	tot	faul	schlau	tolerant	lachen	loyal	freundlich	ehrlich	schroff	tyrannisch	leiden	lasch	fanatisch	eitel	1	blank2r.bmp	0	1	+	0	1	blank2r.bmp	500	1	GKQX	500	1	blank2r.bmp	880	6	fair	880	1	FEHLER	1554	1	!	-1	1	!	-1	0	0	0
2024-05-08	15:45:45	15:50:57	312429	6.6.1	4_exp_EVA_AWA_CON	20	B	A	Rpleas_acq	Oppo	Rpleas	2pleas	acq_US_unple_nomask	acq3_nomask	3	6	453	1	300	300	0	0	475	46	1	0	schön	retten	helfen	spielen	treu	fair	schlecht	rächen	hindern	strafen	tot	faul	schlau	tolerant	lachen	loyal	freundlich	ehrlich	schroff	tyrannisch	leiden	lasch	fanatisch	eitel	1	blank2r.bmp	0	1	+	0	1	blank2r.bmp	500	1	BMVZ	500	1	blank2r.bmp	880	3	hindern	880	1	!	1292	1	!	1377	0	0	0	0	0	0
2024-05-08	15:45:45	15:51:00	314587	6.6.1	4_exp_EVA_AWA_CON	20	B	A	Rpleas_acq	Oppo	Rpleas	2pleas	acq_US_unple_nomask	acq3_nomask	3	7	453	0	300	300	0	0	383	46	1	0	schön	retten	helfen	spielen	treu	fair	schlecht	rächen	hindern	strafen	tot	faul	schlau	tolerant	lachen	loyal	freundlich	ehrlich	schroff	tyrannisch	leiden	lasch	fanatisch	eitel	1	blank2r.bmp	0	1	+	0	1	blank2r.bmp	500	1	BMVZ	500	1	blank2r.bmp	880	6	faul	880	1	!	-1	1	!	-1	0	0	0	0	0	0
2024-05-08	15:45:45	15:51:02	316923	6.6.1	4_exp_EVA_AWA_CON	20	B	A	Rpleas_acq	Oppo	Rpleas	2pleas	acq_US_unple_nomask	acq3_nomask	3	8	453	0	300	300	0	0	558	46	1	0	schön	retten	helfen	spielen	treu	fair	schlecht	rächen	hindern	strafen	tot	faul	schlau	tolerant	lachen	loyal	freundlich	ehrlich	schroff	tyrannisch	leiden	lasch	fanatisch	eitel	1	blank2r.bmp	0	1	+	0	1	blank2r.bmp	500	1	BMVZ	500	1	blank2r.bmp	880	2	rächen	880	1	!	1292	1	!	-1	0	0	0	0	0	0
2024-05-08	15:45:45	15:51:04	319379	6.6.1	4_exp_EVA_AWA_CON	20	B	A	Rpleas_acq	Oppo	Rpleas	2pleas	acq_US_unple_nomask	acq3_nomask	3	9	453	0	300	300	0	0	683	46	1	0	schön	retten	helfen	spielen	treu	fair	schlecht	rächen	hindern	strafen	tot	faul	schlau	tolerant	lachen	loyal	freundlich	ehrlich	schroff	tyrannisch	leiden	lasch	fanatisch	eitel	1	blank2r.bmp	0	1	+	0	1	blank2r.bmp	500	1	BMVZ	500	1	blank2r.bmp	880	1	schlecht	880	1	!	1293	1	!	-1	0	0	0	0	0	0
2024-05-08	15:45:45	15:51:07	321605	6.6.1	4_exp_EVA_AWA_CON	20	B	A	Rpleas_acq	Oppo	Rpleas	2pleas	acq_US_unple_nomask	acq3_nomask	3	10	453	1	300	300	0	0	445	46	1	0	schön	retten	helfen	spielen	treu	fair	schlecht	rächen	hindern	strafen	tot	faul	schlau	tolerant	lachen	loyal	freundlich	ehrlich	schroff	tyrannisch	leiden	lasch	fanatisch	eitel	1	blank2r.bmp	0	1	+	0	1	blank2r.bmp	500	1	BMVZ	500	1	blank2r.bmp	880	5	tot	880	1	!	1292	1	!	1347	0	0	0	0	0	0
2024-05-08	15:45:45	15:51:09	323926	6.6.1	4_exp_EVA_AWA_CON	20	B	A	Rpleas_acq	Oppo	Rpleas	2pleas	acq_US_unple_nomask	acq3_nomask	3	11	453	0	300	300	0	0	344	50	0	0	schön	retten	helfen	spielen	treu	fair	schlecht	rächen	hindern	strafen	tot	faul	schlau	tolerant	lachen	loyal	freundlich	ehrlich	schroff	tyrannisch	leiden	lasch	fanatisch	eitel	1	blank2r.bmp	0	1	+	0	1	blank2r.bmp	500	1	BMVZ	500	1	blank2r.bmp	880	4	strafen	880	1	FEHLER	1537	1	!	-1	1	!	-1	0	0	0
2024-05-08	15:45:45	15:51:11	325982	6.6.1	4_exp_EVA_AWA_CON	20	B	A	Rpleas_acq	Oppo	Rpleas	2pleas	acq_US_pleas_nomask	acq3_nomask	3	12	453	1	300	300	0	0	478	50	1	0	schön	retten	helfen	spielen	treu	fair	schlecht	rächen	hindern	strafen	tot	faul	schlau	tolerant	lachen	loyal	freundlich	ehrlich	schroff	tyrannisch	leiden	lasch	fanatisch	eitel	1	blank2r.bmp	0	1	+	0	1	blank2r.bmp	500	1	GKQX	500	1	blank2r.bmp	880	1	schön	880	1	!	1292	1	!	1380	0	0	0	0	0	0
2024-05-08	15:45:45	15:51:13	328197	6.6.1	4_exp_EVA_AWA_CON	20	B	A	Rpleas_acq	Oppo	Rpleas	2pleas	acq_US_unple_nomask	acq3_nomask	3	13	453	1	300	300	0	0	433	46	1	0	schön	retten	helfen	spielen	treu	fair	schlecht	rächen	hindern	strafen	tot	faul	schlau	tolerant	lachen	loyal	freundlich	ehrlich	schroff	tyrannisch	leiden	lasch	fanatisch	eitel	1	blank2r.bmp	0	1	+	0	1	blank2r.bmp	500	1	BMVZ	500	1	blank2r.bmp	880	5	tot	880	1	!	1292	1	!	1334	0	0	0	0	0	0
2024-05-08	15:45:45	15:51:16	330518	6.6.1	4_exp_EVA_AWA_CON	20	B	A	Rpleas_acq	Oppo	Rpleas	2pleas	acq_US_pleas_nomask	acq3_nomask	3	14	453	0	300	300	0	0	341	46	0	0	schön	retten	helfen	spielen	treu	fair	schlecht	rächen	hindern	strafen	tot	faul	schlau	tolerant	lachen	loyal	freundlich	ehrlich	schroff	tyrannisch	leiden	lasch	fanatisch	eitel	1	blank2r.bmp	0	1	+	0	1	blank2r.bmp	500	1	GKQX	500	1	blank2r.bmp	880	6	fair	880	1	FEHLER	1535	1	!	-1	1	!	-1	0	0	0
2024-05-08	15:45:45	15:51:18	332676	6.6.1	4_exp_EVA_AWA_CON	20	B	A	Rpleas_acq	Oppo	Rpleas	2pleas	acq_US_unple_nomask	acq3_nomask	3	15	453	0	300	300	0	0	580	46	1	0	schön	retten	helfen	spielen	treu	fair	schlecht	rächen	hindern	strafen	tot	faul	schlau	tolerant	lachen	loyal	freundlich	ehrlich	schroff	tyrannisch	leiden	lasch	fanatisch	eitel	1	blank2r.bmp	0	1	+	0	1	blank2r.bmp	500	1	BMVZ	500	1	blank2r.bmp	880	3	hindern	880	1	!	1292	1	!	-1	0	0	0	0	0	0
2024-05-08	15:45:45	15:51:20	334965	6.6.1	4_exp_EVA_AWA_CON	20	B	A	Rpleas_acq	Oppo	Rpleas	2pleas	acq_US_unple_nomask	acq3_nomask	3	16	453	1	300	300	0	0	506	46	1	0	schön	retten	helfen	spielen	treu	fair	schlecht	rächen	hindern	strafen	tot	faul	schlau	tolerant	lachen	loyal	freundlich	ehrlich	schroff	tyrannisch	leiden	lasch	fanatisch	eitel	1	blank2r.bmp	0	1	+	0	1	blank2r.bmp	500	1	BMVZ	500	1	blank2r.bmp	880	1	schlecht	880	1	!	1292	1	!	1408	0	0	0	0	0	0
2024-05-08	15:45:45	15:51:22	337262	6.6.1	4_exp_EVA_AWA_CON	20	B	A	Rpleas_acq	Oppo	Rpleas	2pleas	acq_US_unple_nomask	acq3_nomask	3	17	453	0	300	300	0	0	321	50	0	0	schön	retten	helfen	spielen	treu	fair	schlecht	rächen	hindern	strafen	tot	faul	schlau	tolerant	lachen	loyal	freundlich	ehrlich	schroff	tyrannisch	leiden	lasch	fanatisch	eitel	1	blank2r.bmp	0	1	+	0	1	blank2r.bmp	500	1	BMVZ	500	1	blank2r.bmp	880	2	rächen	880	1	FEHLER	1514	1	!	-1	1	!	-1	0	0	0
2024-05-08	15:45:45	15:51:24	339349	6.6.1	4_exp_EVA_AWA_CON	20	B	A	Rpleas_acq	Oppo	Rpleas	2pleas	acq_US_unple_nomask	acq3_nomask	3	18	453	1	300	300	0	0	508	46	1	0	schön	retten	helfen	spielen	treu	fair	schlecht	rächen	hindern	strafen	tot	faul	schlau	tolerant	lachen	loyal	freundlich	ehrlich	schroff	tyrannisch	leiden	lasch	fanatisch	eitel	1	blank2r.bmp	0	1	+	0	1	blank2r.bmp	500	1	BMVZ	500	1	blank2r.bmp	880	6	faul	880	1	!	1292	1	!	1409	0	0	0	0	0	0
2024-05-08	15:45:45	15:51:27	341637	6.6.1	4_exp_EVA_AWA_CON	20	B	A	Rpleas_acq	Oppo	Rpleas	2pleas	acq_US_pleas_nomask	acq3_nomask	3	19	453	1	300	300	0	0	504	50	1	0	schön	retten	helfen	spielen	treu	fair	schlecht	rächen	hindern	strafen	tot	faul	schlau	tolerant	lachen	loyal	freundlich	ehrlich	schroff	tyrannisch	leiden	lasch	fanatisch	eitel	1	blank2r.bmp	0	1	+	0	1	blank2r.bmp	500	1	GKQX	500	1	blank2r.bmp	880	2	retten	880	1	!	1292	1	!	1406	0	0	0	0	0	0
2024-05-08	15:45:45	15:51:29	344131	6.6.1	4_exp_EVA_AWA_CON	20	B	A	Rpleas_acq	Oppo	Rpleas	2pleas	acq_US_pleas_nomask	acq3_nomask	3	20	453	0	300	300	0	0	719	50	1	0	schön	retten	helfen	spielen	treu	fair	schlecht	rächen	hindern	strafen	tot	faul	schlau	tolerant	lachen	loyal	freundlich	ehrlich	schroff	tyrannisch	leiden	lasch	fanatisch	eitel	1	blank2r.bmp	0	1	+	0	1	blank2r.bmp	500	1	GKQX	500	1	blank2r.bmp	880	3	helfen	880	1	!	1293	1	!	-1	0	0	0	0	0	0
2024-05-08	15:45:45	15:51:31	346357	6.6.1	4_exp_EVA_AWA_CON	20	B	A	Rpleas_acq	Oppo	Rpleas	2pleas	acq_US_pleas_nomask	acq3_nomask	3	21	453	1	300	300	0	0	451	50	1	0	schön	retten	helfen	spielen	treu	fair	schlecht	rächen	hindern	strafen	tot	faul	schlau	tolerant	lachen	loyal	freundlich	ehrlich	schroff	tyrannisch	leiden	lasch	fanatisch	eitel	1	blank2r.bmp	0	1	+	0	1	blank2r.bmp	500	1	GKQX	500	1	blank2r.bmp	880	1	schön	880	1	!	1292	1	!	1353	0	0	0	0	0	0
2024-05-08	15:45:45	15:51:33	348491	6.6.1	4_exp_EVA_AWA_CON	20	B	A	Rpleas_acq	Oppo	Rpleas	2pleas	acq_US_unple_nomask	acq3_nomask	3	22	453	0	300	300	0	0	356	46	1	0	schön	retten	helfen	spielen	treu	fair	schlecht	rächen	hindern	strafen	tot	faul	schlau	tolerant	lachen	loyal	freundlich	ehrlich	schroff	tyrannisch	leiden	lasch	fanatisch	eitel	1	blank2r.bmp	0	1	+	0	1	blank2r.bmp	500	1	BMVZ	500	1	blank2r.bmp	880	4	strafen	880	1	!	-1	1	!	-1	0	0	0	0	0	0
2024-05-08	15:45:45	15:51:36	350811	6.6.1	4_exp_EVA_AWA_CON	20	B	A	Rpleas_acq	Oppo	Rpleas	2pleas	acq_US_pleas_nomask	acq3_nomask	3	23	453	0	300	300	0	0	544	50	1	0	schön	retten	helfen	spielen	treu	fair	schlecht	rächen	hindern	strafen	tot	faul	schlau	tolerant	lachen	loyal	freundlich	ehrlich	schroff	tyrannisch	leiden	lasch	fanatisch	eitel	1	blank2r.bmp	0	1	+	0	1	blank2r.bmp	500	1	GKQX	500	1	blank2r.bmp	880	4	spielen	880	1	!	1292	1	!	-1	0	0	0	0	0	0
2024-05-08	15:45:45	15:51:38	353159	6.6.1	4_exp_EVA_AWA_CON	20	B	A	Rpleas_acq	Oppo	Rpleas	2pleas	acq_US_pleas_nomask	acq3_nomask	3	24	453	0	300	300	0	0	367	46	0	0	schön	retten	helfen	spielen	treu	fair	schlecht	rächen	hindern	strafen	tot	faul	schlau	tolerant	lachen	loyal	freundlich	ehrlich	schroff	tyrannisch	leiden	lasch	fanatisch	eitel	1	blank2r.bmp	0	1	+	0	1	blank2r.bmp	500	1	GKQX	500	1	blank2r.bmp	880	5	treu	880	1	FEHLER	1560	1	!	-1	1	!	-1	0	0	0
2024-05-08	15:45:45	15:51:40	355245	6.6.1	4_exp_EVA_AWA_CON	20	B	A	Rpleas_acq	Oppo	Rpleas	2pleas	acq_US_pleas_nomask	acq3_nomask	3	25	453	1	300	300	0	0	513	50	1	0	schön	retten	helfen	spielen	treu	fair	schlecht	rächen	hindern	strafen	tot	faul	schlau	tolerant	lachen	loyal	freundlich	ehrlich	schroff	tyrannisch	leiden	lasch	fanatisch	eitel	1	blank2r.bmp	0	1	+	0	1	blank2r.bmp	500	1	GKQX	500	1	blank2r.bmp	880	4	spielen	880	1	!	1292	1	!	1415	0	0	0	0	0	0
2024-05-08	15:45:45	15:51:42	357517	6.6.1	4_exp_EVA_AWA_CON	20	B	A	Rpleas_acq	Oppo	Rpleas	2pleas	acq_US_unple_nomask	acq3_nomask	3	26	453	1	300	300	0	0	494	46	1	0	schön	retten	helfen	spielen	treu	fair	schlecht	rächen	hindern	strafen	tot	faul	schlau	tolerant	lachen	loyal	freundlich	ehrlich	schroff	tyrannisch	leiden	lasch	fanatisch	eitel	1	blank2r.bmp	0	1	+	0	1	blank2r.bmp	500	1	BMVZ	500	1	blank2r.bmp	880	1	schlecht	880	1	!	1292	1	!	1396	0	0	0	0	0	0
2024-05-08	15:45:45	15:51:45	359870	6.6.1	4_exp_EVA_AWA_CON	20	B	A	Rpleas_acq	Oppo	Rpleas	2pleas	acq_US_pleas_nomask	acq3_nomask	3	27	453	0	300	300	0	0	375	46	0	0	schön	retten	helfen	spielen	treu	fair	schlecht	rächen	hindern	strafen	tot	faul	schlau	tolerant	lachen	loyal	freundlich	ehrlich	schroff	tyrannisch	leiden	lasch	fanatisch	eitel	1	blank2r.bmp	0	1	+	0	1	blank2r.bmp	500	1	GKQX	500	1	blank2r.bmp	880	3	helfen	880	1	FEHLER	1568	1	!	-1	1	!	-1	0	0	0
2024-05-08	15:45:45	15:51:47	361949	6.6.1	4_exp_EVA_AWA_CON	20	B	A	Rpleas_acq	Oppo	Rpleas	2pleas	acq_US_unple_nomask	acq3_nomask	3	28	453	1	300	300	0	0	503	46	1	0	schön	retten	helfen	spielen	treu	fair	schlecht	rächen	hindern	strafen	tot	faul	schlau	tolerant	lachen	loyal	freundlich	ehrlich	schroff	tyrannisch	leiden	lasch	fanatisch	eitel	1	blank2r.bmp	0	1	+	0	1	blank2r.bmp	500	1	BMVZ	500	1	blank2r.bmp	880	2	rächen	880	1	!	1292	1	!	1405	0	0	0	0	0	0
2024-05-08	15:45:45	15:51:49	364099	6.6.1	4_exp_EVA_AWA_CON	20	B	A	Rpleas_acq	Oppo	Rpleas	2pleas	acq_US_pleas_nomask	acq3_nomask	3	29	453	0	300	300	0	0	374	50	1	0	schön	retten	helfen	spielen	treu	fair	schlecht	rächen	hindern	strafen	tot	faul	schlau	tolerant	lachen	loyal	freundlich	ehrlich	schroff	tyrannisch	leiden	lasch	fanatisch	eitel	1	blank2r.bmp	0	1	+	0	1	blank2r.bmp	500	1	GKQX	500	1	blank2r.bmp	880	2	retten	880	1	!	-1	1	!	-1	0	0	0	0	0	0
2024-05-08	15:45:45	15:51:51	366381	6.6.1	4_exp_EVA_AWA_CON	20	B	A	Rpleas_acq	Oppo	Rpleas	2pleas	acq_US_unple_nomask	acq3_nomask	3	30	453	1	300	300	0	0	502	46	1	0	schön	retten	helfen	spielen	treu	fair	schlecht	rächen	hindern	strafen	tot	faul	schlau	tolerant	lachen	loyal	freundlich	ehrlich	schroff	tyrannisch	leiden	lasch	fanatisch	eitel	1	blank2r.bmp	0	1	+	0	1	blank2r.bmp	500	1	BMVZ	500	1	blank2r.bmp	880	3	hindern	880	1	!	1292	1	!	1404	0	0	0	0	0	0
2024-05-08	15:45:45	15:51:54	368827	6.6.1	4_exp_EVA_AWA_CON	20	B	A	Rpleas_acq	Oppo	Rpleas	2pleas	acq_US_unple_nomask	acq3_nomask	3	31	453	0	300	300	0	0	669	46	1	0	schön	retten	helfen	spielen	treu	fair	schlecht	rächen	hindern	strafen	tot	faul	schlau	tolerant	lachen	loyal	freundlich	ehrlich	schroff	tyrannisch	leiden	lasch	fanatisch	eitel	1	blank2r.bmp	0	1	+	0	1	blank2r.bmp	500	1	BMVZ	500	1	blank2r.bmp	880	6	faul	880	1	!	1293	1	!	-1	0	0	0	0	0	0
2024-05-08	15:45:45	15:51:56	371155	6.6.1	4_exp_EVA_AWA_CON	20	B	A	Rpleas_acq	Oppo	Rpleas	2pleas	acq_US_pleas_nomask	acq3_nomask	3	32	453	0	300	300	0	0	555	50	1	0	schön	retten	helfen	spielen	treu	fair	schlecht	rächen	hindern	strafen	tot	faul	schlau	tolerant	lachen	loyal	freundlich	ehrlich	schroff	tyrannisch	leiden	lasch	fanatisch	eitel	1	blank2r.bmp	0	1	+	0	1	blank2r.bmp	500	1	GKQX	500	1	blank2r.bmp	880	5	treu	880	1	!	1293	1	!	-1	0	0	0	0	0	0
2024-05-08	15:45:45	15:51:58	373252	6.6.1	4_exp_EVA_AWA_CON	20	B	A	Rpleas_acq	Oppo	Rpleas	2pleas	acq_US_pleas_nomask	acq3_nomask	3	33	453	0	300	300	0	0	320	50	1	0	schön	retten	helfen	spielen	treu	fair	schlecht	rächen	hindern	strafen	tot	faul	schlau	tolerant	lachen	loyal	freundlich	ehrlich	schroff	tyrannisch	leiden	lasch	fanatisch	eitel	1	blank2r.bmp	0	1	+	0	1	blank2r.bmp	500	1	GKQX	500	1	blank2r.bmp	880	6	fair	880	1	!	-1	1	!	-1	0	0	0	0	0	0
2024-05-08	15:45:45	15:52:01	375675	6.6.1	4_exp_EVA_AWA_CON	20	B	A	Rpleas_acq	Oppo	Rpleas	2pleas	acq_US_unple_nomask	acq3_nomask	3	34	453	0	300	300	0	0	642	46	1	0	schön	retten	helfen	spielen	treu	fair	schlecht	rächen	hindern	strafen	tot	faul	schlau	tolerant	lachen	loyal	freundlich	ehrlich	schroff	tyrannisch	leiden	lasch	fanatisch	eitel	1	blank2r.bmp	0	1	+	0	1	blank2r.bmp	500	1	BMVZ	500	1	blank2r.bmp	880	4	strafen	880	1	!	1292	1	!	-1	0	0	0	0	0	0
2024-05-08	15:45:45	15:52:03	378118	6.6.1	4_exp_EVA_AWA_CON	20	B	A	Rpleas_acq	Oppo	Rpleas	2pleas	acq_US_unple_nomask	acq3_nomask	3	35	453	1	300	300	0	0	461	50	0	0	schön	retten	helfen	spielen	treu	fair	schlecht	rächen	hindern	strafen	tot	faul	schlau	tolerant	lachen	loyal	freundlich	ehrlich	schroff	tyrannisch	leiden	lasch	fanatisch	eitel	1	blank2r.bmp	0	1	+	0	1	blank2r.bmp	500	1	BMVZ	500	1	blank2r.bmp	880	5	tot	880	1	FEHLER	1654	1	!	1292	1	!	1363	0	0	0
2024-05-08	15:45:45	15:52:05	380091	6.6.1	4_exp_EVA_AWA_CON	20	B	A	Rpleas_acq	Oppo	Rpleas	2pleas	acq_US_pleas_nomask	acq3_nomask	3	36	453	1	300	300	0	0	395	50	1	0	schön	retten	helfen	spielen	treu	fair	schlecht	rächen	hindern	strafen	tot	faul	schlau	tolerant	lachen	loyal	freundlich	ehrlich	schroff	tyrannisch	leiden	lasch	fanatisch	eitel	1	blank2r.bmp	0	1	+	0	1	blank2r.bmp	500	1	GKQX	500	1	blank2r.bmp	880	1	schön	880	1	!	1293	1	!	1295	0	0	0	0	0	0
2024-05-08	15:45:45	15:52:20	395118	6.6.1	4_exp_EVA_AWA_CON	20	B	A	Rpleas_acq	Oppo	Rpleas	2pleas	acq_US_pleas_nomask	acq45_nomask	4	1	400	1	300	300	0	0	470	50	1	0	schön	retten	helfen	spielen	treu	fair	schlecht	rächen	hindern	strafen	tot	faul	schlau	tolerant	lachen	loyal	freundlich	ehrlich	schroff	tyrannisch	leiden	lasch	fanatisch	eitel	1	blank2r.bmp	0	1	+	0	1	blank2r.bmp	500	1	GKQX	500	1	blank2r.bmp	880	2	retten	880	1	!	1232	1	!	1372	0	0	0	0	0	0
2024-05-08	15:45:45	15:52:22	397370	6.6.1	4_exp_EVA_AWA_CON	20	B	A	Rpleas_acq	Oppo	Rpleas	2pleas	acq_US_unple_nomask	acq45_nomask	4	2	400	0	300	300	0	0	474	46	1	0	schön	retten	helfen	spielen	treu	fair	schlecht	rächen	hindern	strafen	tot	faul	schlau	tolerant	lachen	loyal	freundlich	ehrlich	schroff	tyrannisch	leiden	lasch	fanatisch	eitel	1	blank2r.bmp	0	1	+	0	1	blank2r.bmp	500	1	BMVZ	500	1	blank2r.bmp	880	6	faul	880	1	!	1232	1	!	-1	0	0	0	0	0	0
2024-05-08	15:45:45	15:52:25	399565	6.6.1	4_exp_EVA_AWA_CON	20	B	A	Rpleas_acq	Oppo	Rpleas	2pleas	acq_US_unple_nomask	acq45_nomask	4	3	400	1	300	300	0	0	415	50	0	0	schön	retten	helfen	spielen	treu	fair	schlecht	rächen	hindern	strafen	tot	faul	schlau	tolerant	lachen	loyal	freundlich	ehrlich	schroff	tyrannisch	leiden	lasch	fanatisch	eitel	1	blank2r.bmp	0	1	+	0	1	blank2r.bmp	500	1	BMVZ	500	1	blank2r.bmp	880	4	strafen	880	1	!	1232	1	!	1316	0	0	0	0	0	0
2024-05-08	15:45:45	15:52:29	404252	6.6.1	4_exp_EVA_AWA_CON	20	B	A	Rpleas_acq	Oppo	Rpleas	2pleas	acq_US_pleas_nomask	acq45_nomask	4	4	400	0	300	300	0	0	2912	50	1	0	schön	retten	helfen	spielen	treu	fair	schlecht	rächen	hindern	strafen	tot	faul	schlau	tolerant	lachen	loyal	freundlich	ehrlich	schroff	tyrannisch	leiden	lasch	fanatisch	eitel	1	blank2r.bmp	0	1	+	0	1	blank2r.bmp	500	1	GKQX	500	1	blank2r.bmp	880	3	helfen	880	1	!	1232	1	!	-1	0	0	0	0	0	0
2024-05-08	15:45:45	15:52:32	407331	6.6.1	4_exp_EVA_AWA_CON	20	B	A	Rpleas_acq	Oppo	Rpleas	2pleas	acq_US_pleas_nomask	acq45_nomask	4	5	400	0	300	300	0	0	1299	50	1	0	schön	retten	helfen	spielen	treu	fair	schlecht	rächen	hindern	strafen	tot	faul	schlau	tolerant	lachen	loyal	freundlich	ehrlich	schroff	tyrannisch	leiden	lasch	fanatisch	eitel	1	blank2r.bmp	0	1	+	0	1	blank2r.bmp	500	1	GKQX	500	1	blank2r.bmp	880	6	fair	880	1	!	1232	1	!	-1	0	0	0	0	0	0
2024-05-08	15:45:45	15:52:34	409403	6.6.1	4_exp_EVA_AWA_CON	20	B	A	Rpleas_acq	Oppo	Rpleas	2pleas	acq_US_unple_nomask	acq45_nomask	4	6	400	0	300	300	0	0	299	46	1	0	schön	retten	helfen	spielen	treu	fair	schlecht	rächen	hindern	strafen	tot	faul	schlau	tolerant	lachen	loyal	freundlich	ehrlich	schroff	tyrannisch	leiden	lasch	fanatisch	eitel	1	blank2r.bmp	0	1	+	0	1	blank2r.bmp	500	1	BMVZ	500	1	blank2r.bmp	880	5	tot	880	1	!	-1	1	!	-1	0	0	0	0	0	0
2024-05-08	15:45:45	15:52:37	411739	6.6.1	4_exp_EVA_AWA_CON	20	B	A	Rpleas_acq	Oppo	Rpleas	2pleas	acq_US_pleas_nomask	acq45_nomask	4	7	400	0	300	300	0	0	563	50	1	0	schön	retten	helfen	spielen	treu	fair	schlecht	rächen	hindern	strafen	tot	faul	schlau	tolerant	lachen	loyal	freundlich	ehrlich	schroff	tyrannisch	leiden	lasch	fanatisch	eitel	1	blank2r.bmp	0	1	+	0	1	blank2r.bmp	500	1	GKQX	500	1	blank2r.bmp	880	1	schön	880	1	!	1232	1	!	-1	0	0	0	0	0	0
2024-05-08	15:45:45	15:52:39	414028	6.6.1	4_exp_EVA_AWA_CON	20	B	A	Rpleas_acq	Oppo	Rpleas	2pleas	acq_US_unple_nomask	acq45_nomask	4	8	400	0	300	300	0	0	510	46	1	0	schön	retten	helfen	spielen	treu	fair	schlecht	rächen	hindern	strafen	tot	faul	schlau	tolerant	lachen	loyal	freundlich	ehrlich	schroff	tyrannisch	leiden	lasch	fanatisch	eitel	1	blank2r.bmp	0	1	+	0	1	blank2r.bmp	500	1	BMVZ	500	1	blank2r.bmp	880	2	rächen	880	1	!	1232	1	!	-1	0	0	0	0	0	0
2024-05-08	15:45:45	15:52:41	416213	6.6.1	4_exp_EVA_AWA_CON	20	B	A	Rpleas_acq	Oppo	Rpleas	2pleas	acq_US_unple_nomask	acq45_nomask	4	9	400	1	300	300	0	0	402	46	1	0	schön	retten	helfen	spielen	treu	fair	schlecht	rächen	hindern	strafen	tot	faul	schlau	tolerant	lachen	loyal	freundlich	ehrlich	schroff	tyrannisch	leiden	lasch	fanatisch	eitel	1	blank2r.bmp	0	1	+	0	1	blank2r.bmp	500	1	BMVZ	500	1	blank2r.bmp	880	3	hindern	880	1	!	1232	1	!	1304	0	0	0	0	0	0
2024-05-08	15:45:45	15:52:43	418291	6.6.1	4_exp_EVA_AWA_CON	20	B	A	Rpleas_acq	Oppo	Rpleas	2pleas	acq_US_unple_nomask	acq45_nomask	4	10	400	0	300	300	0	0	301	50	0	0	schön	retten	helfen	spielen	treu	fair	schlecht	rächen	hindern	strafen	tot	faul	schlau	tolerant	lachen	loyal	freundlich	ehrlich	schroff	tyrannisch	leiden	lasch	fanatisch	eitel	1	blank2r.bmp	0	1	+	0	1	blank2r.bmp	500	1	BMVZ	500	1	blank2r.bmp	880	1	schlecht	880	1	!	-1	1	!	-1	0	0	0	0	0	0
2024-05-08	15:45:45	15:52:45	420429	6.6.1	4_exp_EVA_AWA_CON	20	B	A	Rpleas_acq	Oppo	Rpleas	2pleas	acq_US_pleas_nomask	acq45_nomask	4	11	400	1	300	300	0	0	355	46	0	0	schön	retten	helfen	spielen	treu	fair	schlecht	rächen	hindern	strafen	tot	faul	schlau	tolerant	lachen	loyal	freundlich	ehrlich	schroff	tyrannisch	leiden	lasch	fanatisch	eitel	1	blank2r.bmp	0	1	+	0	1	blank2r.bmp	500	1	GKQX	500	1	blank2r.bmp	880	5	treu	880	1	!	1232	1	!	1257	0	0	0	0	0	0
2024-05-08	15:45:45	15:52:48	422682	6.6.1	4_exp_EVA_AWA_CON	20	B	A	Rpleas_acq	Oppo	Rpleas	2pleas	acq_US_unple_nomask	acq45_nomask	4	12	400	0	300	300	0	0	480	46	1	0	schön	retten	helfen	spielen	treu	fair	schlecht	rächen	hindern	strafen	tot	faul	schlau	tolerant	lachen	loyal	freundlich	ehrlich	schroff	tyrannisch	leiden	lasch	fanatisch	eitel	1	blank2r.bmp	0	1	+	0	1	blank2r.bmp	500	1	BMVZ	500	1	blank2r.bmp	880	6	faul	880	1	!	1232	1	!	-1	0	0	0	0	0	0
2024-05-08	15:45:45	15:52:50	424971	6.6.1	4_exp_EVA_AWA_CON	20	B	A	Rpleas_acq	Oppo	Rpleas	2pleas	acq_US_pleas_nomask	acq45_nomask	4	13	400	0	300	300	0	0	517	50	1	0	schön	retten	helfen	spielen	treu	fair	schlecht	rächen	hindern	strafen	tot	faul	schlau	tolerant	lachen	loyal	freundlich	ehrlich	schroff	tyrannisch	leiden	lasch	fanatisch	eitel	1	blank2r.bmp	0	1	+	0	1	blank2r.bmp	500	1	GKQX	500	1	blank2r.bmp	880	4	spielen	880	1	!	1232	1	!	-1	0	0	0	0	0	0
2024-05-08	15:45:45	15:52:52	427011	6.6.1	4_exp_EVA_AWA_CON	20	B	A	Rpleas_acq	Oppo	Rpleas	2pleas	acq_US_pleas_nomask	acq45_nomask	4	14	400	0	300	300	0	0	265	50	1	0	schön	retten	helfen	spielen	treu	fair	schlecht	rächen	hindern	strafen	tot	faul	schlau	tolerant	lachen	loyal	freundlich	ehrlich	schroff	tyrannisch	leiden	lasch	fanatisch	eitel	1	blank2r.bmp	0	1	+	0	1	blank2r.bmp	500	1	GKQX	500	1	blank2r.bmp	880	4	spielen	880	1	!	-1	1	!	-1	0	0	0	0	0	0
2024-05-08	15:45:45	15:52:54	429221	6.6.1	4_exp_EVA_AWA_CON	20	B	A	Rpleas_acq	Oppo	Rpleas	2pleas	acq_US_unple_nomask	acq45_nomask	4	15	400	1	300	300	0	0	432	46	1	0	schön	retten	helfen	spielen	treu	fair	schlecht	rächen	hindern	strafen	tot	faul	schlau	tolerant	lachen	loyal	freundlich	ehrlich	schroff	tyrannisch	leiden	lasch	fanatisch	eitel	1	blank2r.bmp	0	1	+	0	1	blank2r.bmp	500	1	BMVZ	500	1	blank2r.bmp	880	4	strafen	880	1	!	1232	1	!	1333	0	0	0	0	0	0
2024-05-08	15:45:45	15:52:56	431381	6.6.1	4_exp_EVA_AWA_CON	20	B	A	Rpleas_acq	Oppo	Rpleas	2pleas	acq_US_pleas_nomask	acq45_nomask	4	16	400	1	300	300	0	0	380	50	1	0	schön	retten	helfen	spielen	treu	fair	schlecht	rächen	hindern	strafen	tot	faul	schlau	tolerant	lachen	loyal	freundlich	ehrlich	schroff	tyrannisch	leiden	lasch	fanatisch	eitel	1	blank2r.bmp	0	1	+	0	1	blank2r.bmp	500	1	GKQX	500	1	blank2r.bmp	880	5	treu	880	1	!	1232	1	!	1282	0	0	0	0	0	0
2024-05-08	15:45:45	15:52:59	433573	6.6.1	4_exp_EVA_AWA_CON	20	B	A	Rpleas_acq	Oppo	Rpleas	2pleas	acq_US_pleas_nomask	acq45_nomask	4	17	400	1	300	300	0	0	411	46	0	0	schön	retten	helfen	spielen	treu	fair	schlecht	rächen	hindern	strafen	tot	faul	schlau	tolerant	lachen	loyal	freundlich	ehrlich	schroff	tyrannisch	leiden	lasch	fanatisch	eitel	1	blank2r.bmp	0	1	+	0	1	blank2r.bmp	500	1	GKQX	500	1	blank2r.bmp	880	3	helfen	880	1	!	1233	1	!	1313	0	0	0	0	0	0
2024-05-08	15:45:45	15:53:01	435757	6.6.1	4_exp_EVA_AWA_CON	20	B	A	Rpleas_acq	Oppo	Rpleas	2pleas	acq_US_unple_nomask	acq45_nomask	4	18	400	1	300	300	0	0	404	46	1	0	schön	retten	helfen	spielen	treu	fair	schlecht	rächen	hindern	strafen	tot	faul	schlau	tolerant	lachen	loyal	freundlich	ehrlich	schroff	tyrannisch	leiden	lasch	fanatisch	eitel	1	blank2r.bmp	0	1	+	0	1	blank2r.bmp	500	1	BMVZ	500	1	blank2r.bmp	880	1	schlecht	880	1	!	1232	1	!	1305	0	0	0	0	0	0
2024-05-08	15:45:45	15:53:03	438010	6.6.1	4_exp_EVA_AWA_CON	20	B	A	Rpleas_acq	Oppo	Rpleas	2pleas	acq_US_unple_nomask	acq45_nomask	4	19	400	0	300	300	0	0	478	46	1	0	schön	retten	helfen	spielen	treu	fair	schlecht	rächen	hindern	strafen	tot	faul	schlau	tolerant	lachen	loyal	freundlich	ehrlich	schroff	tyrannisch	leiden	lasch	fanatisch	eitel	1	blank2r.bmp	0	1	+	0	1	blank2r.bmp	500	1	BMVZ	500	1	blank2r.bmp	880	3	hindern	880	1	!	1232	1	!	-1	0	0	0	0	0	0
2024-05-08	15:45:45	15:53:05	440237	6.6.1	4_exp_EVA_AWA_CON	20	B	A	Rpleas_acq	Oppo	Rpleas	2pleas	acq_US_unple_nomask	acq45_nomask	4	20	400	1	300	300	0	0	451	46	1	0	schön	retten	helfen	spielen	treu	fair	schlecht	rächen	hindern	strafen	tot	faul	schlau	tolerant	lachen	loyal	freundlich	ehrlich	schroff	tyrannisch	leiden	lasch	fanatisch	eitel	1	blank2r.bmp	0	1	+	0	1	blank2r.bmp	500	1	BMVZ	500	1	blank2r.bmp	880	5	tot	880	1	!	1232	1	!	1353	0	0	0	0	0	0
2024-05-08	15:45:45	15:53:07	442331	6.6.1	4_exp_EVA_AWA_CON	20	B	A	Rpleas_acq	Oppo	Rpleas	2pleas	acq_US_pleas_nomask	acq45_nomask	4	21	400	0	300	300	0	0	315	50	1	0	schön	retten	helfen	spielen	treu	fair	schlecht	rächen	hindern	strafen	tot	faul	schlau	tolerant	lachen	loyal	freundlich	ehrlich	schroff	tyrannisch	leiden	lasch	fanatisch	eitel	1	blank2r.bmp	0	1	+	0	1	blank2r.bmp	500	1	GKQX	500	1	blank2r.bmp	880	6	fair	880	1	!	-1	1	!	-1	0	0	0	0	0	0
2024-05-08	15:45:45	15:53:10	444611	6.6.1	4_exp_EVA_AWA_CON	20	B	A	Rpleas_acq	Oppo	Rpleas	2pleas	acq_US_unple_nomask	acq45_nomask	4	22	400	0	300	300	0	0	504	46	1	0	schön	retten	helfen	spielen	treu	fair	schlecht	rächen	hindern	strafen	tot	faul	schlau	tolerant	lachen	loyal	freundlich	ehrlich	schroff	tyrannisch	leiden	lasch	fanatisch	eitel	1	blank2r.bmp	0	1	+	0	1	blank2r.bmp	500	1	BMVZ	500	1	blank2r.bmp	880	2	rächen	880	1	!	1232	1	!	-1	0	0	0	0	0	0
2024-05-08	15:45:45	15:53:12	446757	6.6.1	4_exp_EVA_AWA_CON	20	B	A	Rpleas_acq	Oppo	Rpleas	2pleas	acq_US_unple_nomask	acq45_nomask	4	23	400	1	300	300	0	0	367	46	1	0	schön	retten	helfen	spielen	treu	fair	schlecht	rächen	hindern	strafen	tot	faul	schlau	tolerant	lachen	loyal	freundlich	ehrlich	schroff	tyrannisch	leiden	lasch	fanatisch	eitel	1	blank2r.bmp	0	1	+	0	1	blank2r.bmp	500	1	BMVZ	500	1	blank2r.bmp	880	1	schlecht	880	1	!	1232	1	!	1268	0	0	0	0	0	0
2024-05-08	15:45:45	15:53:14	448997	6.6.1	4_exp_EVA_AWA_CON	20	B	A	Rpleas_acq	Oppo	Rpleas	2pleas	acq_US_unple_nomask	acq45_nomask	4	24	400	1	300	300	0	0	465	46	1	0	schön	retten	helfen	spielen	treu	fair	schlecht	rächen	hindern	strafen	tot	faul	schlau	tolerant	lachen	loyal	freundlich	ehrlich	schroff	tyrannisch	leiden	lasch	fanatisch	eitel	1	blank2r.bmp	0	1	+	0	1	blank2r.bmp	500	1	BMVZ	500	1	blank2r.bmp	880	2	rächen	880	1	!	1232	1	!	1367	0	0	0	0	0	0
2024-05-08	15:45:45	15:53:16	451157	6.6.1	4_exp_EVA_AWA_CON	20	B	A	Rpleas_acq	Oppo	Rpleas	2pleas	acq_US_pleas_nomask	acq45_nomask	4	25	400	1	300	300	0	0	384	50	1	0	schön	retten	helfen	spielen	treu	fair	schlecht	rächen	hindern	strafen	tot	faul	schlau	tolerant	lachen	loyal	freundlich	ehrlich	schroff	tyrannisch	leiden	lasch	fanatisch	eitel	1	blank2r.bmp	0	1	+	0	1	blank2r.bmp	500	1	GKQX	500	1	blank2r.bmp	880	1	schön	880	1	!	1233	1	!	1285	0	0	0	0	0	0
2024-05-08	15:45:45	15:53:18	453381	6.6.1	4_exp_EVA_AWA_CON	20	B	A	Rpleas_acq	Oppo	Rpleas	2pleas	acq_US_pleas_nomask	acq45_nomask	4	26	400	1	300	300	0	0	446	50	1	0	schön	retten	helfen	spielen	treu	fair	schlecht	rächen	hindern	strafen	tot	faul	schlau	tolerant	lachen	loyal	freundlich	ehrlich	schroff	tyrannisch	leiden	lasch	fanatisch	eitel	1	blank2r.bmp	0	1	+	0	1	blank2r.bmp	500	1	GKQX	500	1	blank2r.bmp	880	2	retten	880	1	!	1232	1	!	1348	0	0	0	0	0	0
2024-05-08	15:45:45	15:53:21	455541	6.6.1	4_exp_EVA_AWA_CON	20	B	A	Rpleas_acq	Oppo	Rpleas	2pleas	acq_US_pleas_nomask	acq45_nomask	4	27	400	1	300	300	0	0	385	50	1	0	schön	retten	helfen	spielen	treu	fair	schlecht	rächen	hindern	strafen	tot	faul	schlau	tolerant	lachen	loyal	freundlich	ehrlich	schroff	tyrannisch	leiden	lasch	fanatisch	eitel	1	blank2r.bmp	0	1	+	0	1	blank2r.bmp	500	1	GKQX	500	1	blank2r.bmp	880	5	treu	880	1	!	1232	1	!	1287	0	0	0	0	0	0
2024-05-08	15:45:45	15:53:23	457627	6.6.1	4_exp_EVA_AWA_CON	20	B	A	Rpleas_acq	Oppo	Rpleas	2pleas	acq_US_unple_nomask	acq45_nomask	4	28	400	0	300	300	0	0	312	46	1	0	schön	retten	helfen	spielen	treu	fair	schlecht	rächen	hindern	strafen	tot	faul	schlau	tolerant	lachen	loyal	freundlich	ehrlich	schroff	tyrannisch	leiden	lasch	fanatisch	eitel	1	blank2r.bmp	0	1	+	0	1	blank2r.bmp	500	1	BMVZ	500	1	blank2r.bmp	880	3	hindern	880	1	!	-1	1	!	-1	0	0	0	0	0	0
2024-05-08	15:45:45	15:53:25	459838	6.6.1	4_exp_EVA_AWA_CON	20	B	A	Rpleas_acq	Oppo	Rpleas	2pleas	acq_US_pleas_nomask	acq45_nomask	4	29	400	1	300	300	0	0	428	50	1	0	schön	retten	helfen	spielen	treu	fair	schlecht	rächen	hindern	strafen	tot	faul	schlau	tolerant	lachen	loyal	freundlich	ehrlich	schroff	tyrannisch	leiden	lasch	fanatisch	eitel	1	blank2r.bmp	0	1	+	0	1	blank2r.bmp	500	1	GKQX	500	1	blank2r.bmp	880	4	spielen	880	1	!	1232	1	!	1330	0	0	0	0	0	0
2024-05-08	15:45:45	15:53:27	462021	6.6.1	4_exp_EVA_AWA_CON	20	B	A	Rpleas_acq	Oppo	Rpleas	2pleas	acq_US_pleas_nomask	acq45_nomask	4	30	400	1	300	300	0	0	401	46	0	0	schön	retten	helfen	spielen	treu	fair	schlecht	rächen	hindern	strafen	tot	faul	schlau	tolerant	lachen	loyal	freundlich	ehrlich	schroff	tyrannisch	leiden	lasch	fanatisch	eitel	1	blank2r.bmp	0	1	+	0	1	blank2r.bmp	500	1	GKQX	500	1	blank2r.bmp	880	2	retten	880	1	!	1232	1	!	1302	0	0	0	0	0	0
2024-05-08	15:45:45	15:53:29	464213	6.6.1	4_exp_EVA_AWA_CON	20	B	A	Rpleas_acq	Oppo	Rpleas	2pleas	acq_US_pleas_nomask	acq45_nomask	4	31	400	1	300	300	0	0	411	50	1	0	schön	retten	helfen	spielen	treu	fair	schlecht	rächen	hindern	strafen	tot	faul	schlau	tolerant	lachen	loyal	freundlich	ehrlich	schroff	tyrannisch	leiden	lasch	fanatisch	eitel	1	blank2r.bmp	0	1	+	0	1	blank2r.bmp	500	1	GKQX	500	1	blank2r.bmp	880	3	helfen	880	1	!	1232	1	!	1313	0	0	0	0	0	0
2024-05-08	15:45:45	15:53:31	466357	6.6.1	4_exp_EVA_AWA_CON	20	B	A	Rpleas_acq	Oppo	Rpleas	2pleas	acq_US_pleas_nomask	acq45_nomask	4	32	400	1	300	300	0	0	364	50	1	0	schön	retten	helfen	spielen	treu	fair	schlecht	rächen	hindern	strafen	tot	faul	schlau	tolerant	lachen	loyal	freundlich	ehrlich	schroff	tyrannisch	leiden	lasch	fanatisch	eitel	1	blank2r.bmp	0	1	+	0	1	blank2r.bmp	500	1	GKQX	500	1	blank2r.bmp	880	1	schön	880	1	!	1232	1	!	1266	0	0	0	0	0	0
2024-05-08	15:45:45	15:53:34	468557	6.6.1	4_exp_EVA_AWA_CON	20	B	A	Rpleas_acq	Oppo	Rpleas	2pleas	acq_US_pleas_nomask	acq45_nomask	4	33	400	1	300	300	0	0	423	46	0	0	schön	retten	helfen	spielen	treu	fair	schlecht	rächen	hindern	strafen	tot	faul	schlau	tolerant	lachen	loyal	freundlich	ehrlich	schroff	tyrannisch	leiden	lasch	fanatisch	eitel	1	blank2r.bmp	0	1	+	0	1	blank2r.bmp	500	1	GKQX	500	1	blank2r.bmp	880	6	fair	880	1	!	1232	1	!	1324	0	0	0	0	0	0
2024-05-08	15:45:45	15:53:36	470859	6.6.1	4_exp_EVA_AWA_CON	20	B	A	Rpleas_acq	Oppo	Rpleas	2pleas	acq_US_unple_nomask	acq45_nomask	4	34	400	0	300	300	0	0	525	46	1	0	schön	retten	helfen	spielen	treu	fair	schlecht	rächen	hindern	strafen	tot	faul	schlau	tolerant	lachen	loyal	freundlich	ehrlich	schroff	tyrannisch	leiden	lasch	fanatisch	eitel	1	blank2r.bmp	0	1	+	0	1	blank2r.bmp	500	1	BMVZ	500	1	blank2r.bmp	880	6	faul	880	1	!	1232	1	!	-1	0	0	0	0	0	0
2024-05-08	15:45:45	15:53:38	473038	6.6.1	4_exp_EVA_AWA_CON	20	B	A	Rpleas_acq	Oppo	Rpleas	2pleas	acq_US_unple_nomask	acq45_nomask	4	35	400	1	300	300	0	0	400	46	1	0	schön	retten	helfen	spielen	treu	fair	schlecht	rächen	hindern	strafen	tot	faul	schlau	tolerant	lachen	loyal	freundlich	ehrlich	schroff	tyrannisch	leiden	lasch	fanatisch	eitel	1	blank2r.bmp	0	1	+	0	1	blank2r.bmp	500	1	BMVZ	500	1	blank2r.bmp	880	4	strafen	880	1	!	1232	1	!	1302	0	0	0	0	0	0
2024-05-08	15:45:45	15:53:40	475205	6.6.1	4_exp_EVA_AWA_CON	20	B	A	Rpleas_acq	Oppo	Rpleas	2pleas	acq_US_unple_nomask	acq45_nomask	4	36	400	1	300	300	0	0	386	46	1	0	schön	retten	helfen	spielen	treu	fair	schlecht	rächen	hindern	strafen	tot	faul	schlau	tolerant	lachen	loyal	freundlich	ehrlich	schroff	tyrannisch	leiden	lasch	fanatisch	eitel	1	blank2r.bmp	0	1	+	0	1	blank2r.bmp	500	1	BMVZ	500	1	blank2r.bmp	880	5	tot	880	1	!	1232	1	!	1288	0	0	0	0	0	0
2024-05-08	15:45:45	15:54:01	496421	6.6.1	4_exp_EVA_AWA_CON	20	B	A	Rpleas_acq	Oppo	Rpleas	2pleas	acq_US_pleas_nomask	acq45_nomask	5	1	400	1	300	300	0	0	359	50	1	0	schön	retten	helfen	spielen	treu	fair	schlecht	rächen	hindern	strafen	tot	faul	schlau	tolerant	lachen	loyal	freundlich	ehrlich	schroff	tyrannisch	leiden	lasch	fanatisch	eitel	1	blank2r.bmp	0	1	+	0	1	blank2r.bmp	500	1	GKQX	500	1	blank2r.bmp	880	1	schön	880	1	!	1232	1	!	1260	0	0	0	0	0	0
2024-05-08	15:45:45	15:54:04	498581	6.6.1	4_exp_EVA_AWA_CON	20	B	A	Rpleas_acq	Oppo	Rpleas	2pleas	acq_US_pleas_nomask	acq45_nomask	5	2	400	1	300	300	0	0	377	50	1	0	schön	retten	helfen	spielen	treu	fair	schlecht	rächen	hindern	strafen	tot	faul	schlau	tolerant	lachen	loyal	freundlich	ehrlich	schroff	tyrannisch	leiden	lasch	fanatisch	eitel	1	blank2r.bmp	0	1	+	0	1	blank2r.bmp	500	1	GKQX	500	1	blank2r.bmp	880	4	spielen	880	1	!	1232	1	!	1279	0	0	0	0	0	0
2024-05-08	15:45:45	15:54:06	500774	6.6.1	4_exp_EVA_AWA_CON	20	B	A	Rpleas_acq	Oppo	Rpleas	2pleas	acq_US_unple_nomask	acq45_nomask	5	3	400	1	300	300	0	0	408	46	1	0	schön	retten	helfen	spielen	treu	fair	schlecht	rächen	hindern	strafen	tot	faul	schlau	tolerant	lachen	loyal	freundlich	ehrlich	schroff	tyrannisch	leiden	lasch	fanatisch	eitel	1	blank2r.bmp	0	1	+	0	1	blank2r.bmp	500	1	BMVZ	500	1	blank2r.bmp	880	5	tot	880	1	!	1232	1	!	1309	0	0	0	0	0	0
2024-05-08	15:45:45	15:54:08	502941	6.6.1	4_exp_EVA_AWA_CON	20	B	A	Rpleas_acq	Oppo	Rpleas	2pleas	acq_US_pleas_nomask	acq45_nomask	5	4	400	1	300	300	0	0	385	50	1	0	schön	retten	helfen	spielen	treu	fair	schlecht	rächen	hindern	strafen	tot	faul	schlau	tolerant	lachen	loyal	freundlich	ehrlich	schroff	tyrannisch	leiden	lasch	fanatisch	eitel	1	blank2r.bmp	0	1	+	0	1	blank2r.bmp	500	1	GKQX	500	1	blank2r.bmp	880	3	helfen	880	1	!	1232	1	!	1286	0	0	0	0	0	0
2024-05-08	15:45:45	15:54:10	505165	6.6.1	4_exp_EVA_AWA_CON	20	B	A	Rpleas_acq	Oppo	Rpleas	2pleas	acq_US_pleas_nomask	acq45_nomask	5	5	400	1	300	300	0	0	447	50	1	0	schön	retten	helfen	spielen	treu	fair	schlecht	rächen	hindern	strafen	tot	faul	schlau	tolerant	lachen	loyal	freundlich	ehrlich	schroff	tyrannisch	leiden	lasch	fanatisch	eitel	1	blank2r.bmp	0	1	+	0	1	blank2r.bmp	500	1	GKQX	500	1	blank2r.bmp	880	5	treu	880	1	!	1232	1	!	1349	0	0	0	0	0	0
2024-05-08	15:45:45	15:54:12	507341	6.6.1	4_exp_EVA_AWA_CON	20	B	A	Rpleas_acq	Oppo	Rpleas	2pleas	acq_US_pleas_nomask	acq45_nomask	5	6	400	1	300	300	0	0	402	46	0	0	schön	retten	helfen	spielen	treu	fair	schlecht	rächen	hindern	strafen	tot	faul	schlau	tolerant	lachen	loyal	freundlich	ehrlich	schroff	tyrannisch	leiden	lasch	fanatisch	eitel	1	blank2r.bmp	0	1	+	0	1	blank2r.bmp	500	1	GKQX	500	1	blank2r.bmp	880	2	retten	880	1	!	1232	1	!	1303	0	0	0	0	0	0
2024-05-08	15:45:45	15:54:15	509541	6.6.1	4_exp_EVA_AWA_CON	20	B	A	Rpleas_acq	Oppo	Rpleas	2pleas	acq_US_unple_nomask	acq45_nomask	5	7	400	1	300	300	0	0	420	46	1	0	schön	retten	helfen	spielen	treu	fair	schlecht	rächen	hindern	strafen	tot	faul	schlau	tolerant	lachen	loyal	freundlich	ehrlich	schroff	tyrannisch	leiden	lasch	fanatisch	eitel	1	blank2r.bmp	0	1	+	0	1	blank2r.bmp	500	1	BMVZ	500	1	blank2r.bmp	880	1	schlecht	880	1	!	1232	1	!	1322	0	0	0	0	0	0
2024-05-08	15:45:45	15:54:17	511741	6.6.1	4_exp_EVA_AWA_CON	20	B	A	Rpleas_acq	Oppo	Rpleas	2pleas	acq_US_unple_nomask	acq45_nomask	5	8	400	1	300	300	0	0	419	46	1	0	schön	retten	helfen	spielen	treu	fair	schlecht	rächen	hindern	strafen	tot	faul	schlau	tolerant	lachen	loyal	freundlich	ehrlich	schroff	tyrannisch	leiden	lasch	fanatisch	eitel	1	blank2r.bmp	0	1	+	0	1	blank2r.bmp	500	1	BMVZ	500	1	blank2r.bmp	880	2	rächen	880	1	!	1232	1	!	1320	0	0	0	0	0	0
2024-05-08	15:45:45	15:54:19	513957	6.6.1	4_exp_EVA_AWA_CON	20	B	A	Rpleas_acq	Oppo	Rpleas	2pleas	acq_US_unple_nomask	acq45_nomask	5	9	400	1	300	300	0	0	434	50	0	0	schön	retten	helfen	spielen	treu	fair	schlecht	rächen	hindern	strafen	tot	faul	schlau	tolerant	lachen	loyal	freundlich	ehrlich	schroff	tyrannisch	leiden	lasch	fanatisch	eitel	1	blank2r.bmp	0	1	+	0	1	blank2r.bmp	500	1	BMVZ	500	1	blank2r.bmp	880	3	hindern	880	1	!	1232	1	!	1335	0	0	0	0	0	0
2024-05-08	15:45:45	15:54:21	516181	6.6.1	4_exp_EVA_AWA_CON	20	B	A	Rpleas_acq	Oppo	Rpleas	2pleas	acq_US_unple_nomask	acq45_nomask	5	10	400	1	300	300	0	0	446	46	1	0	schön	retten	helfen	spielen	treu	fair	schlecht	rächen	hindern	strafen	tot	faul	schlau	tolerant	lachen	loyal	freundlich	ehrlich	schroff	tyrannisch	leiden	lasch	fanatisch	eitel	1	blank2r.bmp	0	1	+	0	1	blank2r.bmp	500	1	BMVZ	500	1	blank2r.bmp	880	6	faul	880	1	!	1232	1	!	1348	0	0	0	0	0	0
2024-05-08	15:45:45	15:54:23	518357	6.6.1	4_exp_EVA_AWA_CON	20	B	A	Rpleas_acq	Oppo	Rpleas	2pleas	acq_US_pleas_nomask	acq45_nomask	5	11	400	1	300	300	0	0	401	50	1	0	schön	retten	helfen	spielen	treu	fair	schlecht	rächen	hindern	strafen	tot	faul	schlau	tolerant	lachen	loyal	freundlich	ehrlich	schroff	tyrannisch	leiden	lasch	fanatisch	eitel	1	blank2r.bmp	0	1	+	0	1	blank2r.bmp	500	1	GKQX	500	1	blank2r.bmp	880	6	fair	880	1	!	1232	1	!	1302	0	0	0	0	0	0
2024-05-08	15:45:45	15:54:26	520525	6.6.1	4_exp_EVA_AWA_CON	20	B	A	Rpleas_acq	Oppo	Rpleas	2pleas	acq_US_unple_nomask	acq45_nomask	5	12	400	1	300	300	0	0	387	46	1	0	schön	retten	helfen	spielen	treu	fair	schlecht	rächen	hindern	strafen	tot	faul	schlau	tolerant	lachen	loyal	freundlich	ehrlich	schroff	tyrannisch	leiden	lasch	fanatisch	eitel	1	blank2r.bmp	0	1	+	0	1	blank2r.bmp	500	1	BMVZ	500	1	blank2r.bmp	880	4	strafen	880	1	!	1232	1	!	1289	0	0	0	0	0	0
2024-05-08	15:45:45	15:54:28	522693	6.6.1	4_exp_EVA_AWA_CON	20	B	A	Rpleas_acq	Oppo	Rpleas	2pleas	acq_US_unple_nomask	acq45_nomask	5	13	400	1	300	300	0	0	384	46	1	0	schön	retten	helfen	spielen	treu	fair	schlecht	rächen	hindern	strafen	tot	faul	schlau	tolerant	lachen	loyal	freundlich	ehrlich	schroff	tyrannisch	leiden	lasch	fanatisch	eitel	1	blank2r.bmp	0	1	+	0	1	blank2r.bmp	500	1	BMVZ	500	1	blank2r.bmp	880	1	schlecht	880	1	!	1232	1	!	1285	0	0	0	0	0	0
2024-05-08	15:45:45	15:54:30	524901	6.6.1	4_exp_EVA_AWA_CON	20	B	A	Rpleas_acq	Oppo	Rpleas	2pleas	acq_US_unple_nomask	acq45_nomask	5	14	400	1	300	300	0	0	430	46	1	0	schön	retten	helfen	spielen	treu	fair	schlecht	rächen	hindern	strafen	tot	faul	schlau	tolerant	lachen	loyal	freundlich	ehrlich	schroff	tyrannisch	leiden	lasch	fanatisch	eitel	1	blank2r.bmp	0	1	+	0	1	blank2r.bmp	500	1	BMVZ	500	1	blank2r.bmp	880	4	strafen	880	1	!	1232	1	!	1332	0	0	0	0	0	0
2024-05-08	15:45:45	15:54:32	527061	6.6.1	4_exp_EVA_AWA_CON	20	B	A	Rpleas_acq	Oppo	Rpleas	2pleas	acq_US_unple_nomask	acq45_nomask	5	15	400	1	300	300	0	0	379	50	0	0	schön	retten	helfen	spielen	treu	fair	schlecht	rächen	hindern	strafen	tot	faul	schlau	tolerant	lachen	loyal	freundlich	ehrlich	schroff	tyrannisch	leiden	lasch	fanatisch	eitel	1	blank2r.bmp	0	1	+	0	1	blank2r.bmp	500	1	BMVZ	500	1	blank2r.bmp	880	6	faul	880	1	!	1232	1	!	1281	0	0	0	0	0	0
2024-05-08	15:45:45	15:54:34	529197	6.6.1	4_exp_EVA_AWA_CON	20	B	A	Rpleas_acq	Oppo	Rpleas	2pleas	acq_US_pleas_nomask	acq45_nomask	5	16	400	1	300	300	0	0	354	50	1	0	schön	retten	helfen	spielen	treu	fair	schlecht	rächen	hindern	strafen	tot	faul	schlau	tolerant	lachen	loyal	freundlich	ehrlich	schroff	tyrannisch	leiden	lasch	fanatisch	eitel	1	blank2r.bmp	0	1	+	0	1	blank2r.bmp	500	1	GKQX	500	1	blank2r.bmp	880	5	treu	880	1	!	1232	1	!	1255	0	0	0	0	0	0
2024-05-08	15:45:45	15:54:36	531405	6.6.1	4_exp_EVA_AWA_CON	20	B	A	Rpleas_acq	Oppo	Rpleas	2pleas	acq_US_pleas_nomask	acq45_nomask	5	17	400	1	300	300	0	0	430	46	0	0	schön	retten	helfen	spielen	treu	fair	schlecht	rächen	hindern	strafen	tot	faul	schlau	tolerant	lachen	loyal	freundlich	ehrlich	schroff	tyrannisch	leiden	lasch	fanatisch	eitel	1	blank2r.bmp	0	1	+	0	1	blank2r.bmp	500	1	GKQX	500	1	blank2r.bmp	880	2	retten	880	1	!	1232	1	!	1332	0	0	0	0	0	0
2024-05-08	15:45:45	15:54:39	533621	6.6.1	4_exp_EVA_AWA_CON	20	B	A	Rpleas_acq	Oppo	Rpleas	2pleas	acq_US_pleas_nomask	acq45_nomask	5	18	400	1	300	300	0	0	435	46	0	0	schön	retten	helfen	spielen	treu	fair	schlecht	rächen	hindern	strafen	tot	faul	schlau	tolerant	lachen	loyal	freundlich	ehrlich	schroff	tyrannisch	leiden	lasch	fanatisch	eitel	1	blank2r.bmp	0	1	+	0	1	blank2r.bmp	500	1	GKQX	500	1	blank2r.bmp	880	6	fair	880	1	!	1232	1	!	1336	0	0	0	0	0	0
2024-05-08	15:45:45	15:54:41	535707	6.6.1	4_exp_EVA_AWA_CON	20	B	A	Rpleas_acq	Oppo	Rpleas	2pleas	acq_US_unple_nomask	acq45_nomask	5	19	400	0	300	300	0	0	311	50	0	0	schön	retten	helfen	spielen	treu	fair	schlecht	rächen	hindern	strafen	tot	faul	schlau	tolerant	lachen	loyal	freundlich	ehrlich	schroff	tyrannisch	leiden	lasch	fanatisch	eitel	1	blank2r.bmp	0	1	+	0	1	blank2r.bmp	500	1	BMVZ	500	1	blank2r.bmp	880	2	rächen	880	1	!	-1	1	!	-1	0	0	0	0	0	0
2024-05-08	15:45:45	15:54:43	537995	6.6.1	4_exp_EVA_AWA_CON	20	B	A	Rpleas_acq	Oppo	Rpleas	2pleas	acq_US_unple_nomask	acq45_nomask	5	20	400	0	300	300	0	0	508	46	1	0	schön	retten	helfen	spielen	treu	fair	schlecht	rächen	hindern	strafen	tot	faul	schlau	tolerant	lachen	loyal	freundlich	ehrlich	schroff	tyrannisch	leiden	lasch	fanatisch	eitel	1	blank2r.bmp	0	1	+	0	1	blank2r.bmp	500	1	BMVZ	500	1	blank2r.bmp	880	5	tot	880	1	!	1232	1	!	-1	0	0	0	0	0	0
2024-05-08	15:45:45	15:54:45	540133	6.6.1	4_exp_EVA_AWA_CON	20	B	A	Rpleas_acq	Oppo	Rpleas	2pleas	acq_US_unple_nomask	acq45_nomask	5	21	400	1	300	300	0	0	363	50	0	0	schön	retten	helfen	spielen	treu	fair	schlecht	rächen	hindern	strafen	tot	faul	schlau	tolerant	lachen	loyal	freundlich	ehrlich	schroff	tyrannisch	leiden	lasch	fanatisch	eitel	1	blank2r.bmp	0	1	+	0	1	blank2r.bmp	500	1	BMVZ	500	1	blank2r.bmp	880	3	hindern	880	1	!	1232	1	!	1264	0	0	0	0	0	0
2024-05-08	15:45:45	15:54:47	542301	6.6.1	4_exp_EVA_AWA_CON	20	B	A	Rpleas_acq	Oppo	Rpleas	2pleas	acq_US_unple_nomask	acq45_nomask	5	22	400	1	300	300	0	0	389	46	1	0	schön	retten	helfen	spielen	treu	fair	schlecht	rächen	hindern	strafen	tot	faul	schlau	tolerant	lachen	loyal	freundlich	ehrlich	schroff	tyrannisch	leiden	lasch	fanatisch	eitel	1	blank2r.bmp	0	1	+	0	1	blank2r.bmp	500	1	BMVZ	500	1	blank2r.bmp	880	5	tot	880	1	!	1232	1	!	1291	0	0	0	0	0	0
2024-05-08	15:45:45	15:54:50	544572	6.6.1	4_exp_EVA_AWA_CON	20	B	A	Rpleas_acq	Oppo	Rpleas	2pleas	acq_US_pleas_nomask	acq45_nomask	5	23	400	0	300	300	0	0	490	50	1	0	schön	retten	helfen	spielen	treu	fair	schlecht	rächen	hindern	strafen	tot	faul	schlau	tolerant	lachen	loyal	freundlich	ehrlich	schroff	tyrannisch	leiden	lasch	fanatisch	eitel	1	blank2r.bmp	0	1	+	0	1	blank2r.bmp	500	1	GKQX	500	1	blank2r.bmp	880	3	helfen	880	1	!	1232	1	!	-1	0	0	0	0	0	0
2024-05-08	15:45:45	15:54:52	546765	6.6.1	4_exp_EVA_AWA_CON	20	B	A	Rpleas_acq	Oppo	Rpleas	2pleas	acq_US_unple_nomask	acq45_nomask	5	24	400	1	300	300	0	0	410	50	0	0	schön	retten	helfen	spielen	treu	fair	schlecht	rächen	hindern	strafen	tot	faul	schlau	tolerant	lachen	loyal	freundlich	ehrlich	schroff	tyrannisch	leiden	lasch	fanatisch	eitel	1	blank2r.bmp	0	1	+	0	1	blank2r.bmp	500	1	BMVZ	500	1	blank2r.bmp	880	1	schlecht	880	1	!	1232	1	!	1312	0	0	0	0	0	0
2024-05-08	15:45:45	15:54:54	549043	6.6.1	4_exp_EVA_AWA_CON	20	B	A	Rpleas_acq	Oppo	Rpleas	2pleas	acq_US_unple_nomask	acq45_nomask	5	25	400	0	300	300	0	0	499	46	1	0	schön	retten	helfen	spielen	treu	fair	schlecht	rächen	hindern	strafen	tot	faul	schlau	tolerant	lachen	loyal	freundlich	ehrlich	schroff	tyrannisch	leiden	lasch	fanatisch	eitel	1	blank2r.bmp	0	1	+	0	1	blank2r.bmp	500	1	BMVZ	500	1	blank2r.bmp	880	2	rächen	880	1	!	1232	1	!	-1	0	0	0	0	0	0
2024-05-08	15:45:45	15:54:56	551107	6.6.1	4_exp_EVA_AWA_CON	20	B	A	Rpleas_acq	Oppo	Rpleas	2pleas	acq_US_pleas_nomask	acq45_nomask	5	26	400	0	300	300	0	0	292	46	0	0	schön	retten	helfen	spielen	treu	fair	schlecht	rächen	hindern	strafen	tot	faul	schlau	tolerant	lachen	loyal	freundlich	ehrlich	schroff	tyrannisch	leiden	lasch	fanatisch	eitel	1	blank2r.bmp	0	1	+	0	1	blank2r.bmp	500	1	GKQX	500	1	blank2r.bmp	880	1	schön	880	1	!	-1	1	!	-1	0	0	0	0	0	0
2024-05-08	15:45:45	15:54:58	553269	6.6.1	4_exp_EVA_AWA_CON	20	B	A	Rpleas_acq	Oppo	Rpleas	2pleas	acq_US_unple_nomask	acq45_nomask	5	27	400	1	300	300	0	0	380	46	1	0	schön	retten	helfen	spielen	treu	fair	schlecht	rächen	hindern	strafen	tot	faul	schlau	tolerant	lachen	loyal	freundlich	ehrlich	schroff	tyrannisch	leiden	lasch	fanatisch	eitel	1	blank2r.bmp	0	1	+	0	1	blank2r.bmp	500	1	BMVZ	500	1	blank2r.bmp	880	3	hindern	880	1	!	1232	1	!	1282	0	0	0	0	0	0
2024-05-08	15:45:45	15:55:00	555387	6.6.1	4_exp_EVA_AWA_CON	20	B	A	Rpleas_acq	Oppo	Rpleas	2pleas	acq_US_pleas_nomask	acq45_nomask	5	28	400	1	300	300	0	0	339	50	1	0	schön	retten	helfen	spielen	treu	fair	schlecht	rächen	hindern	strafen	tot	faul	schlau	tolerant	lachen	loyal	freundlich	ehrlich	schroff	tyrannisch	leiden	lasch	fanatisch	eitel	1	blank2r.bmp	0	1	+	0	1	blank2r.bmp	500	1	GKQX	500	1	blank2r.bmp	880	4	spielen	880	1	!	1232	1	!	1239	0	0	0	0	0	0
2024-05-08	15:45:45	15:55:03	557525	6.6.1	4_exp_EVA_AWA_CON	20	B	A	Rpleas_acq	Oppo	Rpleas	2pleas	acq_US_pleas_nomask	acq45_nomask	5	29	400	1	300	300	0	0	353	46	0	0	schön	retten	helfen	spielen	treu	fair	schlecht	rächen	hindern	strafen	tot	faul	schlau	tolerant	lachen	loyal	freundlich	ehrlich	schroff	tyrannisch	leiden	lasch	fanatisch	eitel	1	blank2r.bmp	0	1	+	0	1	blank2r.bmp	500	1	GKQX	500	1	blank2r.bmp	880	2	retten	880	1	!	1232	1	!	1255	0	0	0	0	0	0
2024-05-08	15:45:45	15:55:05	559867	6.6.1	4_exp_EVA_AWA_CON	20	B	A	Rpleas_acq	Oppo	Rpleas	2pleas	acq_US_unple_nomask	acq45_nomask	5	30	400	0	300	300	0	0	566	46	1	0	schön	retten	helfen	spielen	treu	fair	schlecht	rächen	hindern	strafen	tot	faul	schlau	tolerant	lachen	loyal	freundlich	ehrlich	schroff	tyrannisch	leiden	lasch	fanatisch	eitel	1	blank2r.bmp	0	1	+	0	1	blank2r.bmp	500	1	BMVZ	500	1	blank2r.bmp	880	6	faul	880	1	!	1232	1	!	-1	0	0	0	0	0	0
2024-05-08	15:45:45	15:55:07	561899	6.6.1	4_exp_EVA_AWA_CON	20	B	A	Rpleas_acq	Oppo	Rpleas	2pleas	acq_US_pleas_nomask	acq45_nomask	5	31	400	0	300	300	0	0	257	50	1	0	schön	retten	helfen	spielen	treu	fair	schlecht	rächen	hindern	strafen	tot	faul	schlau	tolerant	lachen	loyal	freundlich	ehrlich	schroff	tyrannisch	leiden	lasch	fanatisch	eitel	1	blank2r.bmp	0	1	+	0	1	blank2r.bmp	500	1	GKQX	500	1	blank2r.bmp	880	3	helfen	880	1	!	-1	1	!	-1	0	0	0	0	0	0
2024-05-08	15:45:45	15:55:09	564053	6.6.1	4_exp_EVA_AWA_CON	20	B	A	Rpleas_acq	Oppo	Rpleas	2pleas	acq_US_pleas_nomask	acq45_nomask	5	32	400	1	300	300	0	0	377	46	0	0	schön	retten	helfen	spielen	treu	fair	schlecht	rächen	hindern	strafen	tot	faul	schlau	tolerant	lachen	loyal	freundlich	ehrlich	schroff	tyrannisch	leiden	lasch	fanatisch	eitel	1	blank2r.bmp	0	1	+	0	1	blank2r.bmp	500	1	GKQX	500	1	blank2r.bmp	880	6	fair	880	1	!	1232	1	!	1279	0	0	0	0	0	0
2024-05-08	15:45:45	15:55:11	566293	6.6.1	4_exp_EVA_AWA_CON	20	B	A	Rpleas_acq	Oppo	Rpleas	2pleas	acq_US_pleas_nomask	acq45_nomask	5	33	400	1	300	300	0	0	466	50	1	0	schön	retten	helfen	spielen	treu	fair	schlecht	rächen	hindern	strafen	tot	faul	schlau	tolerant	lachen	loyal	freundlich	ehrlich	schroff	tyrannisch	leiden	lasch	fanatisch	eitel	1	blank2r.bmp	0	1	+	0	1	blank2r.bmp	500	1	GKQX	500	1	blank2r.bmp	880	1	schön	880	1	!	1233	1	!	1368	0	0	0	0	0	0
2024-05-08	15:45:45	15:55:13	568477	6.6.1	4_exp_EVA_AWA_CON	20	B	A	Rpleas_acq	Oppo	Rpleas	2pleas	acq_US_pleas_nomask	acq45_nomask	5	34	400	1	300	300	0	0	408	50	1	0	schön	retten	helfen	spielen	treu	fair	schlecht	rächen	hindern	strafen	tot	faul	schlau	tolerant	lachen	loyal	freundlich	ehrlich	schroff	tyrannisch	leiden	lasch	fanatisch	eitel	1	blank2r.bmp	0	1	+	0	1	blank2r.bmp	500	1	GKQX	500	1	blank2r.bmp	880	4	spielen	880	1	!	1232	1	!	1310	0	0	0	0	0	0
2024-05-08	15:45:45	15:55:16	570738	6.6.1	4_exp_EVA_AWA_CON	20	B	A	Rpleas_acq	Oppo	Rpleas	2pleas	acq_US_unple_nomask	acq45_nomask	5	35	400	0	300	300	0	0	481	46	1	0	schön	retten	helfen	spielen	treu	fair	schlecht	rächen	hindern	strafen	tot	faul	schlau	tolerant	lachen	loyal	freundlich	ehrlich	schroff	tyrannisch	leiden	lasch	fanatisch	eitel	1	blank2r.bmp	0	1	+	0	1	blank2r.bmp	500	1	BMVZ	500	1	blank2r.bmp	880	4	strafen	880	1	!	1232	1	!	-1	0	0	0	0	0	0
2024-05-08	15:45:45	15:55:18	572893	6.6.1	4_exp_EVA_AWA_CON	20	B	A	Rpleas_acq	Oppo	Rpleas	2pleas	acq_US_pleas_nomask	acq45_nomask	5	36	400	1	300	300	0	0	372	50	1	0	schön	retten	helfen	spielen	treu	fair	schlecht	rächen	hindern	strafen	tot	faul	schlau	tolerant	lachen	loyal	freundlich	ehrlich	schroff	tyrannisch	leiden	lasch	fanatisch	eitel	1	blank2r.bmp	0	1	+	0	1	blank2r.bmp	500	1	GKQX	500	1	blank2r.bmp	880	5	treu	880	1	!	1232	1	!	1273	0	0	0	0	0	0
2024-05-08	15:45:45	15:55:37	591863	6.6.1	4_exp_EVA_AWA_CON	20	B	A	Rpleas_acq	Oppo	Lpleas	2pleas	EvalRating_firsttwo	EvalRating_firsttwo	6	1	0	0	300	300	0	0	4665	line	0	36,1979166666666856145pct	schön	retten	helfen	spielen	treu	fair	schlecht	rächen	hindern	strafen	tot	faul	schlau	tolerant	lachen	loyal	freundlich	ehrlich	schroff	tyrannisch	leiden	lasch	fanatisch	eitel	1		-7	1	Wie angenehm oder unangenehm finden Sie die  Buchstabenkette ZGVK?	-7	1		-7	1		-7	1		-7	1	Unangenehm	-7	1	Angenehm	-7	0	0	0	0	0	0	0	0	0
2024-05-08	15:45:45	15:55:43	597807	6.6.1	4_exp_EVA_AWA_CON	20	B	A	Rpleas_acq	Oppo	Lpleas	2pleas	EvalRating_lastfour	EvalRating_lastfour	7	1	0	0	300	300	0	0	3565	line	0	-49,609375pct	schön	retten	helfen	spielen	treu	fair	schlecht	rächen	hindern	strafen	tot	faul	schlau	tolerant	lachen	loyal	freundlich	ehrlich	schroff	tyrannisch	leiden	lasch	fanatisch	eitel	1		-8	3	Wie angenehm oder unangenehm finden Sie die  Buchstabenkette XBQM?	-8	1		-8	1		-8	1		-8	1	Unangenehm	-8	1	Angenehm	-8	0	0	0	0	0	0	0	0	0
2024-05-08	15:45:45	15:55:45	600179	6.6.1	4_exp_EVA_AWA_CON	20	B	A	Rpleas_acq	Oppo	Lpleas	2pleas	blank_screen	EvalRating_lastfour	7	3	0	0	300	300	0	0	0	0	0	-49,609375pct	schön	retten	helfen	spielen	treu	fair	schlecht	rächen	hindern	strafen	tot	faul	schlau	tolerant	lachen	loyal	freundlich	ehrlich	schroff	tyrannisch	leiden	lasch	fanatisch	eitel	1		-8	0	0	0	0	0	0	0	0	0	0	0	0	0	0	0	0	0	0	0	0	0	0	0	0	0	0	0
2024-05-08	15:45:45	15:55:49	603719	6.6.1	4_exp_EVA_AWA_CON	20	B	A	Rpleas_acq	Oppo	Lpleas	2pleas	EvalRating_lastfour	EvalRating_lastfour	7	4	0	0	300	300	0	0	2953	line	0	-76,953125pct	schön	retten	helfen	spielen	treu	fair	schlecht	rächen	hindern	strafen	tot	faul	schlau	tolerant	lachen	loyal	freundlich	ehrlich	schroff	tyrannisch	leiden	lasch	fanatisch	eitel	1		-8	2	Wie angenehm oder unangenehm finden Sie die  Buchstabenkette GKQX?	-8	1		-8	1		-8	1		-8	1	Unangenehm	-8	1	Angenehm	-8	0	0	0	0	0	0	0	0	0
2024-05-08	15:45:45	15:55:51	606092	6.6.1	4_exp_EVA_AWA_CON	20	B	A	Rpleas_acq	Oppo	Lpleas	2pleas	blank_screen	EvalRating_lastfour	7	6	0	0	300	300	0	0	0	0	0	-76,953125pct	schön	retten	helfen	spielen	treu	fair	schlecht	rächen	hindern	strafen	tot	faul	schlau	tolerant	lachen	loyal	freundlich	ehrlich	schroff	tyrannisch	leiden	lasch	fanatisch	eitel	1		-8	0	0	0	0	0	0	0	0	0	0	0	0	0	0	0	0	0	0	0	0	0	0	0	0	0	0	0
2024-05-08	15:45:45	15:55:54	609159	6.6.1	4_exp_EVA_AWA_CON	20	B	A	Rpleas_acq	Oppo	Lpleas	2pleas	EvalRating_lastfour	EvalRating_lastfour	7	7	0	0	300	300	0	0	2479	line	0	79,4270833333333428072pct	schön	retten	helfen	spielen	treu	fair	schlecht	rächen	hindern	strafen	tot	faul	schlau	tolerant	lachen	loyal	freundlich	ehrlich	schroff	tyrannisch	leiden	lasch	fanatisch	eitel	1		-8	1	Wie angenehm oder unangenehm finden Sie die  Buchstabenkette BMVZ?	-8	1		-8	1		-8	1		-8	1	Unangenehm	-8	1	Angenehm	-8	0	0	0	0	0	0	0	0	0
2024-05-08	15:45:45	15:56:26	640973	6.6.1	4_exp_EVA_AWA_CON	20	B	A	Rpleas_acq	Oppo	Lpleas	2pleas	conawa_CS1_US5	conawa1_nomask	8	1	0	0	300	300	0	0	10125	fanatisch	1	79,4270833333333428072pct	schön	retten	helfen	spielen	treu	fair	schlecht	rächen	hindern	strafen	tot	faul	schlau	tolerant	lachen	loyal	freundlich	ehrlich	schroff	tyrannisch	leiden	lasch	fanatisch	eitel	0	0	0	0	0	0	0	0	0	0	0	0	0	0	0	0	0	0	0	0	0	0	0	0	0	0	0	0	0	0
2024-05-08	15:45:45	15:56:26	640975	6.6.1	4_exp_EVA_AWA_CON	20	B	A	Rpleas_acq	Oppo	Lpleas	2pleas	conawa_CS1_US5_confidence	conawa1_nomask	8	1	0	0	300	300	0	0	10125	guess	1	79,4270833333333428072pct	schön	retten	helfen	spielen	treu	fair	schlecht	rächen	hindern	strafen	tot	faul	schlau	tolerant	lachen	loyal	freundlich	ehrlich	schroff	tyrannisch	leiden	lasch	fanatisch	eitel	0	0	0	0	0	0	0	0	0	0	0	0	0	0	0	0	0	0	0	0	0	0	0	0	0	0	0	0	0	0
2024-05-08	15:45:45	15:56:35	649668	6.6.1	4_exp_EVA_AWA_CON	20	B	A	Rpleas_acq	Oppo	Lpleas	2pleas	conawa_CS2_US1	conawa1_nomask	8	2	0	0	300	300	0	0	8074	schlecht	1	79,4270833333333428072pct	schön	retten	helfen	spielen	treu	fair	schlecht	rächen	hindern	strafen	tot	faul	schlau	tolerant	lachen	loyal	freundlich	ehrlich	schroff	tyrannisch	leiden	lasch	fanatisch	eitel	0	0	0	0	0	0	0	0	0	0	0	0	0	0	0	0	0	0	0	0	0	0	0	0	0	0	0	0	0	0
2024-05-08	15:45:45	15:56:35	649670	6.6.1	4_exp_EVA_AWA_CON	20	B	A	Rpleas_acq	Oppo	Lpleas	2pleas	conawa_CS2_US1_confidence	conawa1_nomask	8	2	0	0	300	300	0	0	8074	guess	1	79,4270833333333428072pct	schön	retten	helfen	spielen	treu	fair	schlecht	rächen	hindern	strafen	tot	faul	schlau	tolerant	lachen	loyal	freundlich	ehrlich	schroff	tyrannisch	leiden	lasch	fanatisch	eitel	0	0	0	0	0	0	0	0	0	0	0	0	0	0	0	0	0	0	0	0	0	0	0	0	0	0	0	0	0	0
2024-05-08	15:45:45	15:56:41	655942	6.6.1	4_exp_EVA_AWA_CON	20	B	A	Rpleas_acq	Oppo	Lpleas	2pleas	conawa_CS1_US4	conawa1_nomask	8	3	0	0	300	300	0	0	5659	loyal	1	79,4270833333333428072pct	schön	retten	helfen	spielen	treu	fair	schlecht	rächen	hindern	strafen	tot	faul	schlau	tolerant	lachen	loyal	freundlich	ehrlich	schroff	tyrannisch	leiden	lasch	fanatisch	eitel	0	0	0	0	0	0	0	0	0	0	0	0	0	0	0	0	0	0	0	0	0	0	0	0	0	0	0	0	0	0
2024-05-08	15:45:45	15:56:41	655944	6.6.1	4_exp_EVA_AWA_CON	20	B	A	Rpleas_acq	Oppo	Lpleas	2pleas	conawa_CS1_US4_confidence	conawa1_nomask	8	3	0	0	300	300	0	0	5659	probably	1	79,4270833333333428072pct	schön	retten	helfen	spielen	treu	fair	schlecht	rächen	hindern	strafen	tot	faul	schlau	tolerant	lachen	loyal	freundlich	ehrlich	schroff	tyrannisch	leiden	lasch	fanatisch	eitel	0	0	0	0	0	0	0	0	0	0	0	0	0	0	0	0	0	0	0	0	0	0	0	0	0	0	0	0	0	0
2024-05-08	15:45:45	15:56:46	661466	6.6.1	4_exp_EVA_AWA_CON	20	B	A	Rpleas_acq	Oppo	Lpleas	2pleas	conawa_CS1_US6	conawa1_nomask	8	4	0	0	300	300	0	0	4908	ehrlich	1	79,4270833333333428072pct	schön	retten	helfen	spielen	treu	fair	schlecht	rächen	hindern	strafen	tot	faul	schlau	tolerant	lachen	loyal	freundlich	ehrlich	schroff	tyrannisch	leiden	lasch	fanatisch	eitel	0	0	0	0	0	0	0	0	0	0	0	0	0	0	0	0	0	0	0	0	0	0	0	0	0	0	0	0	0	0
2024-05-08	15:45:45	15:56:46	661468	6.6.1	4_exp_EVA_AWA_CON	20	B	A	Rpleas_acq	Oppo	Lpleas	2pleas	conawa_CS1_US6_confidence	conawa1_nomask	8	4	0	0	300	300	0	0	4908	guess	1	79,4270833333333428072pct	schön	retten	helfen	spielen	treu	fair	schlecht	rächen	hindern	strafen	tot	faul	schlau	tolerant	lachen	loyal	freundlich	ehrlich	schroff	tyrannisch	leiden	lasch	fanatisch	eitel	0	0	0	0	0	0	0	0	0	0	0	0	0	0	0	0	0	0	0	0	0	0	0	0	0	0	0	0	0	0
2024-05-08	15:45:45	15:56:52	667190	6.6.1	4_exp_EVA_AWA_CON	20	B	A	Rpleas_acq	Oppo	Lpleas	2pleas	conawa_CS1_US1	conawa1_nomask	8	5	0	0	300	300	0	0	5113	schön	1	79,4270833333333428072pct	schön	retten	helfen	spielen	treu	fair	schlecht	rächen	hindern	strafen	tot	faul	schlau	tolerant	lachen	loyal	freundlich	ehrlich	schroff	tyrannisch	leiden	lasch	fanatisch	eitel	0	0	0	0	0	0	0	0	0	0	0	0	0	0	0	0	0	0	0	0	0	0	0	0	0	0	0	0	0	0
2024-05-08	15:45:45	15:56:52	667192	6.6.1	4_exp_EVA_AWA_CON	20	B	A	Rpleas_acq	Oppo	Lpleas	2pleas	conawa_CS1_US1_confidence	conawa1_nomask	8	5	0	0	300	300	0	0	5113	guess	1	79,4270833333333428072pct	schön	retten	helfen	spielen	treu	fair	schlecht	rächen	hindern	strafen	tot	faul	schlau	tolerant	lachen	loyal	freundlich	ehrlich	schroff	tyrannisch	leiden	lasch	fanatisch	eitel	0	0	0	0	0	0	0	0	0	0	0	0	0	0	0	0	0	0	0	0	0	0	0	0	0	0	0	0	0	0
2024-05-08	15:45:45	15:57:00	675295	6.6.1	4_exp_EVA_AWA_CON	20	B	A	Rpleas_acq	Oppo	Lpleas	2pleas	conawa_CS2_US4	conawa1_nomask	8	6	0	0	300	300	0	0	7492	strafen	1	79,4270833333333428072pct	schön	retten	helfen	spielen	treu	fair	schlecht	rächen	hindern	strafen	tot	faul	schlau	tolerant	lachen	loyal	freundlich	ehrlich	schroff	tyrannisch	leiden	lasch	fanatisch	eitel	0	0	0	0	0	0	0	0	0	0	0	0	0	0	0	0	0	0	0	0	0	0	0	0	0	0	0	0	0	0
2024-05-08	15:45:45	15:57:00	675297	6.6.1	4_exp_EVA_AWA_CON	20	B	A	Rpleas_acq	Oppo	Lpleas	2pleas	conawa_CS2_US4_confidence	conawa1_nomask	8	6	0	0	300	300	0	0	7492	guess	1	79,4270833333333428072pct	schön	retten	helfen	spielen	treu	fair	schlecht	rächen	hindern	strafen	tot	faul	schlau	tolerant	lachen	loyal	freundlich	ehrlich	schroff	tyrannisch	leiden	lasch	fanatisch	eitel	0	0	0	0	0	0	0	0	0	0	0	0	0	0	0	0	0	0	0	0	0	0	0	0	0	0	0	0	0	0
2024-05-08	15:45:45	15:57:06	680598	6.6.1	4_exp_EVA_AWA_CON	20	B	A	Rpleas_acq	Oppo	Lpleas	2pleas	conawa_CS1_US2	conawa1_nomask	8	7	0	0	300	300	0	0	4690	tolerant	1	79,4270833333333428072pct	schön	retten	helfen	spielen	treu	fair	schlecht	rächen	hindern	strafen	tot	faul	schlau	tolerant	lachen	loyal	freundlich	ehrlich	schroff	tyrannisch	leiden	lasch	fanatisch	eitel	0	0	0	0	0	0	0	0	0	0	0	0	0	0	0	0	0	0	0	0	0	0	0	0	0	0	0	0	0	0
2024-05-08	15:45:45	15:57:06	680600	6.6.1	4_exp_EVA_AWA_CON	20	B	A	Rpleas_acq	Oppo	Lpleas	2pleas	conawa_CS1_US2_confidence	conawa1_nomask	8	7	0	0	300	300	0	0	4690	guess	1	79,4270833333333428072pct	schön	retten	helfen	spielen	treu	fair	schlecht	rächen	hindern	strafen	tot	faul	schlau	tolerant	lachen	loyal	freundlich	ehrlich	schroff	tyrannisch	leiden	lasch	fanatisch	eitel	0	0	0	0	0	0	0	0	0	0	0	0	0	0	0	0	0	0	0	0	0	0	0	0	0	0	0	0	0	0
2024-05-08	15:45:45	15:57:11	685802	6.6.1	4_exp_EVA_AWA_CON	20	B	A	Rpleas_acq	Oppo	Lpleas	2pleas	conawa_CS2_US3	conawa1_nomask	8	8	0	0	300	300	0	0	4588	hindern	1	79,4270833333333428072pct	schön	retten	helfen	spielen	treu	fair	schlecht	rächen	hindern	strafen	tot	faul	schlau	tolerant	lachen	loyal	freundlich	ehrlich	schroff	tyrannisch	leiden	lasch	fanatisch	eitel	0	0	0	0	0	0	0	0	0	0	0	0	0	0	0	0	0	0	0	0	0	0	0	0	0	0	0	0	0	0
2024-05-08	15:45:45	15:57:11	685804	6.6.1	4_exp_EVA_AWA_CON	20	B	A	Rpleas_acq	Oppo	Lpleas	2pleas	conawa_CS2_US3_confidence	conawa1_nomask	8	8	0	0	300	300	0	0	4588	guess	1	79,4270833333333428072pct	schön	retten	helfen	spielen	treu	fair	schlecht	rächen	hindern	strafen	tot	faul	schlau	tolerant	lachen	loyal	freundlich	ehrlich	schroff	tyrannisch	leiden	lasch	fanatisch	eitel	0	0	0	0	0	0	0	0	0	0	0	0	0	0	0	0	0	0	0	0	0	0	0	0	0	0	0	0	0	0
2024-05-08	15:45:45	15:57:17	691715	6.6.1	4_exp_EVA_AWA_CON	20	B	A	Rpleas_acq	Oppo	Lpleas	2pleas	conawa_CS1_US3	conawa1_nomask	8	9	0	0	300	300	0	0	5297	lachen	1	79,4270833333333428072pct	schön	retten	helfen	spielen	treu	fair	schlecht	rächen	hindern	strafen	tot	faul	schlau	tolerant	lachen	loyal	freundlich	ehrlich	schroff	tyrannisch	leiden	lasch	fanatisch	eitel	0	0	0	0	0	0	0	0	0	0	0	0	0	0	0	0	0	0	0	0	0	0	0	0	0	0	0	0	0	0
2024-05-08	15:45:45	15:57:17	691717	6.6.1	4_exp_EVA_AWA_CON	20	B	A	Rpleas_acq	Oppo	Lpleas	2pleas	conawa_CS1_US3_confidence	conawa1_nomask	8	9	0	0	300	300	0	0	5297	guess	1	79,4270833333333428072pct	schön	retten	helfen	spielen	treu	fair	schlecht	rächen	hindern	strafen	tot	faul	schlau	tolerant	lachen	loyal	freundlich	ehrlich	schroff	tyrannisch	leiden	lasch	fanatisch	eitel	0	0	0	0	0	0	0	0	0	0	0	0	0	0	0	0	0	0	0	0	0	0	0	0	0	0	0	0	0	0
2024-05-08	15:45:45	15:57:22	697159	6.6.1	4_exp_EVA_AWA_CON	20	B	A	Rpleas_acq	Oppo	Lpleas	2pleas	conawa_CS2_US5	conawa1_nomask	8	10	0	0	300	300	0	0	4830	treu	1	79,4270833333333428072pct	schön	retten	helfen	spielen	treu	fair	schlecht	rächen	hindern	strafen	tot	faul	schlau	tolerant	lachen	loyal	freundlich	ehrlich	schroff	tyrannisch	leiden	lasch	fanatisch	eitel	0	0	0	0	0	0	0	0	0	0	0	0	0	0	0	0	0	0	0	0	0	0	0	0	0	0	0	0	0	0
2024-05-08	15:45:45	15:57:22	697161	6.6.1	4_exp_EVA_AWA_CON	20	B	A	Rpleas_acq	Oppo	Lpleas	2pleas	conawa_CS2_US5_confidence	conawa1_nomask	8	10	0	0	300	300	0	0	4830	guess	1	79,4270833333333428072pct	schön	retten	helfen	spielen	treu	fair	schlecht	rächen	hindern	strafen	tot	faul	schlau	tolerant	lachen	loyal	freundlich	ehrlich	schroff	tyrannisch	leiden	lasch	fanatisch	eitel	0	0	0	0	0	0	0	0	0	0	0	0	0	0	0	0	0	0	0	0	0	0	0	0	0	0	0	0	0	0
2024-05-08	15:45:45	15:57:28	702572	6.6.1	4_exp_EVA_AWA_CON	20	B	A	Rpleas_acq	Oppo	Lpleas	2pleas	conawa_CS2_US6	conawa1_nomask	8	11	0	0	300	300	0	0	4804	schroff	1	79,4270833333333428072pct	schön	retten	helfen	spielen	treu	fair	schlecht	rächen	hindern	strafen	tot	faul	schlau	tolerant	lachen	loyal	freundlich	ehrlich	schroff	tyrannisch	leiden	lasch	fanatisch	eitel	0	0	0	0	0	0	0	0	0	0	0	0	0	0	0	0	0	0	0	0	0	0	0	0	0	0	0	0	0	0
2024-05-08	15:45:45	15:57:28	702574	6.6.1	4_exp_EVA_AWA_CON	20	B	A	Rpleas_acq	Oppo	Lpleas	2pleas	conawa_CS2_US6_confidence	conawa1_nomask	8	11	0	0	300	300	0	0	4804	guess	1	79,4270833333333428072pct	schön	retten	helfen	spielen	treu	fair	schlecht	rächen	hindern	strafen	tot	faul	schlau	tolerant	lachen	loyal	freundlich	ehrlich	schroff	tyrannisch	leiden	lasch	fanatisch	eitel	0	0	0	0	0	0	0	0	0	0	0	0	0	0	0	0	0	0	0	0	0	0	0	0	0	0	0	0	0	0
2024-05-08	15:45:45	15:57:31	706005	6.6.1	4_exp_EVA_AWA_CON	20	B	A	Rpleas_acq	Oppo	Lpleas	2pleas	conawa_CS2_US2	conawa1_nomask	8	12	0	0	300	300	0	0	2814	retten	1	79,4270833333333428072pct	schön	retten	helfen	spielen	treu	fair	schlecht	rächen	hindern	strafen	tot	faul	schlau	tolerant	lachen	loyal	freundlich	ehrlich	schroff	tyrannisch	leiden	lasch	fanatisch	eitel	0	0	0	0	0	0	0	0	0	0	0	0	0	0	0	0	0	0	0	0	0	0	0	0	0	0	0	0	0	0
2024-05-08	15:45:45	15:57:31	706006	6.6.1	4_exp_EVA_AWA_CON	20	B	A	Rpleas_acq	Oppo	Lpleas	2pleas	conawa_CS2_US2_confidence	conawa1_nomask	8	12	0	0	300	300	0	0	2814	guess	1	79,4270833333333428072pct	schön	retten	helfen	spielen	treu	fair	schlecht	rächen	hindern	strafen	tot	faul	schlau	tolerant	lachen	loyal	freundlich	ehrlich	schroff	tyrannisch	leiden	lasch	fanatisch	eitel	0	0	0	0	0	0	0	0	0	0	0	0	0	0	0	0	0	0	0	0	0	0	0	0	0	0	0	0	0	0
2024-05-08	15:45:45	15:58:29	764259	6.6.1	4_exp_EVA_AWA_CON	20	B	A	Rpleas_acq	Oppo	Lpleas	2pleas	cond_US_unple_123_nomask_CS2	condtest_nomask_1	11	1	400	0	300	300	0	0	627	50	1	79,4270833333333428072pct	schön	retten	helfen	spielen	treu	fair	schlecht	rächen	hindern	strafen	tot	faul	schlau	tolerant	lachen	loyal	freundlich	ehrlich	schroff	tyrannisch	leiden	lasch	fanatisch	eitel	1	blank2r.bmp	0	1	+	0	1	blank2r.bmp	500	1	GKQX	500	1	blank2r.bmp	880	2	schlecht	880	1	!	1232	1	!	-1	0	0	0	0	0	0
2024-05-08	15:45:45	15:58:31	766469	6.6.1	4_exp_EVA_AWA_CON	20	B	A	Rpleas_acq	Oppo	Lpleas	2pleas	cond_US_pleas_123_nomask_CS2	condtest_nomask_1	11	2	400	1	300	300	0	0	433	46	1	79,4270833333333428072pct	schön	retten	helfen	spielen	treu	fair	schlecht	rächen	hindern	strafen	tot	faul	schlau	tolerant	lachen	loyal	freundlich	ehrlich	schroff	tyrannisch	leiden	lasch	fanatisch	eitel	1	blank2r.bmp	0	1	+	0	1	blank2r.bmp	500	1	GKQX	500	1	blank2r.bmp	880	2	schön	880	1	!	1232	1	!	1335	0	0	0	0	0	0
2024-05-08	15:45:45	15:58:34	768709	6.6.1	4_exp_EVA_AWA_CON	20	B	A	Rpleas_acq	Oppo	Lpleas	2pleas	cond_new_unple_456_nomask_CS1	condtest_nomask_1	11	3	400	1	300	300	0	0	462	46	0	79,4270833333333428072pct	schön	retten	helfen	spielen	treu	fair	schlecht	rächen	hindern	strafen	tot	faul	schlau	tolerant	lachen	loyal	freundlich	ehrlich	schroff	tyrannisch	leiden	lasch	fanatisch	eitel	1	blank2r.bmp	0	1	+	0	1	blank2r.bmp	500	1	BMVZ	500	1	blank2r.bmp	880	2	fanatisch	880	1	!	1232	1	!	1364	0	0	0	0	0	0
2024-05-08	15:45:45	15:58:36	771091	6.6.1	4_exp_EVA_AWA_CON	20	B	A	Rpleas_acq	Oppo	Lpleas	2pleas	cond_US_pleas_123_nomask_CS1	condtest_nomask_1	11	4	400	0	300	300	0	0	605	46	1	79,4270833333333428072pct	schön	retten	helfen	spielen	treu	fair	schlecht	rächen	hindern	strafen	tot	faul	schlau	tolerant	lachen	loyal	freundlich	ehrlich	schroff	tyrannisch	leiden	lasch	fanatisch	eitel	1	blank2r.bmp	0	1	+	0	1	blank2r.bmp	500	1	BMVZ	500	1	blank2r.bmp	880	3	helfen	880	1	!	1232	1	!	-1	0	0	0	0	0	0
2024-05-08	15:45:45	15:58:38	773221	6.6.1	4_exp_EVA_AWA_CON	20	B	A	Rpleas_acq	Oppo	Lpleas	2pleas	cond_new_unple_456_nomask_CS2	condtest_nomask_1	11	5	400	1	300	300	0	0	351	50	1	79,4270833333333428072pct	schön	retten	helfen	spielen	treu	fair	schlecht	rächen	hindern	strafen	tot	faul	schlau	tolerant	lachen	loyal	freundlich	ehrlich	schroff	tyrannisch	leiden	lasch	fanatisch	eitel	1	blank2r.bmp	0	1	+	0	1	blank2r.bmp	500	1	GKQX	500	1	blank2r.bmp	880	1	eitel	880	1	!	1232	1	!	1252	0	0	0	0	0	0
2024-05-08	15:45:45	15:58:41	775571	6.6.1	4_exp_EVA_AWA_CON	20	B	A	Rpleas_acq	Oppo	Lpleas	2pleas	cond_US_unple_123_nomask_CS1	condtest_nomask_1	11	6	400	0	300	300	0	0	572	50	1	79,4270833333333428072pct	schön	retten	helfen	spielen	treu	fair	schlecht	rächen	hindern	strafen	tot	faul	schlau	tolerant	lachen	loyal	freundlich	ehrlich	schroff	tyrannisch	leiden	lasch	fanatisch	eitel	1	blank2r.bmp	0	1	+	0	1	blank2r.bmp	500	1	BMVZ	500	1	blank2r.bmp	880	3	hindern	880	1	!	1232	1	!	-1	0	0	0	0	0	0
2024-05-08	15:45:45	15:58:43	777781	6.6.1	4_exp_EVA_AWA_CON	20	B	A	Rpleas_acq	Oppo	Lpleas	2pleas	cond_new_pleas_456_nomask_CS1	condtest_nomask_1	11	7	400	1	300	300	0	0	428	46	1	79,4270833333333428072pct	schön	retten	helfen	spielen	treu	fair	schlecht	rächen	hindern	strafen	tot	faul	schlau	tolerant	lachen	loyal	freundlich	ehrlich	schroff	tyrannisch	leiden	lasch	fanatisch	eitel	1	blank2r.bmp	0	1	+	0	1	blank2r.bmp	500	1	BMVZ	500	1	blank2r.bmp	880	2	freundlich	880	1	!	1232	1	!	1330	0	0	0	0	0	0
2024-05-08	15:45:45	15:58:45	779981	6.6.1	4_exp_EVA_AWA_CON	20	B	A	Rpleas_acq	Oppo	Lpleas	2pleas	cond_new_pleas_456_nomask_CS2	condtest_nomask_1	11	8	400	1	300	300	0	0	417	46	1	79,4270833333333428072pct	schön	retten	helfen	spielen	treu	fair	schlecht	rächen	hindern	strafen	tot	faul	schlau	tolerant	lachen	loyal	freundlich	ehrlich	schroff	tyrannisch	leiden	lasch	fanatisch	eitel	1	blank2r.bmp	0	1	+	0	1	blank2r.bmp	500	1	GKQX	500	1	blank2r.bmp	880	3	freundlich	880	1	!	1232	1	!	1318	0	0	0	0	0	0
2024-05-08	15:45:45	15:58:56	790875	6.6.1	4_exp_EVA_AWA_CON	20	B	A	Rpleas_acq	Oppo	Lpleas	2pleas	cond_US_pleas_123_nomask_CS2	condtest_nomask_2	12	1	400	0	300	300	0	0	516	50	0	79,4270833333333428072pct	schön	retten	helfen	spielen	treu	fair	schlecht	rächen	hindern	strafen	tot	faul	schlau	tolerant	lachen	loyal	freundlich	ehrlich	schroff	tyrannisch	leiden	lasch	fanatisch	eitel	1	blank2r.bmp	0	1	+	0	1	blank2r.bmp	500	1	GKQX	500	1	blank2r.bmp	880	3	retten	880	1	!	1232	1	!	-1	0	0	0	0	0	0
