date	time	currenttime	elapsedtime	build	currentexpt	subject	CS_AB	US_AB	LRpleas_acq	SameOppo	condition_Lpleas	condition_1pleas	trialcode	blockcode	blocknum	trialnum	windowcenter	inwindow	pretrialpause	posttrialpause	trialduration	trialtimeout	latency	response	correct	correctedscore	US_nomask_pleas1	US_nomask_pleas2	US_nomask_pleas3	US_nomask_pleas4	US_nomask_pleas5	US_nomask_pleas6	US_nomask_unple1	US_nomask_unple2	US_nomask_unple3	US_nomask_unple4	US_nomask_unple5	US_nomask_unple6	new_nomask_pleas1	new_nomask_pleas2	new_nomask_pleas3	new_nomask_pleas4	new_nomask_pleas5	new_nomask_pleas6	new_nomask_unple1	new_nomask_unple2	new_nomask_unple3	new_nomask_unple4	new_nomask_unple5	new_nomask_unple6	stimulusnumber1	stimulusitem1	stimulusonset1	stimulusnumber2	stimulusitem2	stimulusonset2	stimulusnumber3	stimulusitem3	stimulusonset3	stimulusnumber4	stimulusitem4	stimulusonset4	stimulusnumber5	stimulusitem5	stimulusonset5	stimulusnumber6	stimulusitem6	stimulusonset6	stimulusnumber7	stimulusitem7	stimulusonset7	stimulusnumber8	stimulusitem8	stimulusonset8	stimulusnumber9	stimulusitem9	stimulusonset9	stimulusnumber10	stimulusitem10	stimulusonset10
2024-05-28	11:36:20	11:37:50	90026	6.6.1	4_exp_EVA_AWA_CON	56	A	B	Rpleas_acq	Oppo	Rpleas	2pleas	acq_new_pleas_nomask	acq1_nomask	1	1	0	0	300	300	0	0	1242	50	1	0	vertrauen	kreativ	genießen	gesittet	träumen	sonnig	versagen	krank	gemein	geizig	töten	sterben	anregung	gütig	engagiert	vergnügt	kuss	besonnen	ausrottung	gierig	engstirnig	verbissen	krise	bange	1	blank2r.bmp	0	1	+	0	1	blank2r.bmp	500	5	C1r.bmp	500	1	blank2r.bmp	880	3	engagiert	880	0	0	0	0	0	0	0	0	0	0	0	0
2024-05-28	11:36:20	11:37:53	92690	6.6.1	4_exp_EVA_AWA_CON	56	A	B	Rpleas_acq	Oppo	Rpleas	2pleas	acq_new_unple_nomask	acq1_nomask	1	2	0	0	300	300	0	0	1174	46	1	0	vertrauen	kreativ	genießen	gesittet	träumen	sonnig	versagen	krank	gemein	geizig	töten	sterben	anregung	gütig	engagiert	vergnügt	kuss	besonnen	ausrottung	gierig	engstirnig	verbissen	krise	bange	1	blank2r.bmp	0	1	+	0	1	blank2r.bmp	500	7	C3r.bmp	500	1	blank2r.bmp	880	2	gierig	880	0	0	0	0	0	0	0	0	0	0	0	0
2024-05-28	11:36:20	11:37:55	95034	6.6.1	4_exp_EVA_AWA_CON	56	A	B	Rpleas_acq	Oppo	Rpleas	2pleas	acq_new_unple_nomask	acq1_nomask	1	3	0	0	300	300	0	0	856	46	1	0	vertrauen	kreativ	genießen	gesittet	träumen	sonnig	versagen	krank	gemein	geizig	töten	sterben	anregung	gütig	engagiert	vergnügt	kuss	besonnen	ausrottung	gierig	engstirnig	verbissen	krise	bange	1	blank2r.bmp	0	1	+	0	1	blank2r.bmp	500	2	B2r.bmp	500	1	blank2r.bmp	880	1	ausrottung	880	0	0	0	0	0	0	0	0	0	0	0	0
2024-05-28	11:36:20	11:37:57	97322	6.6.1	4_exp_EVA_AWA_CON	56	A	B	Rpleas_acq	Oppo	Rpleas	2pleas	acq_US_unple_nomask	acq1_nomask	1	4	0	0	300	300	0	0	802	46	1	0	vertrauen	kreativ	genießen	gesittet	träumen	sonnig	versagen	krank	gemein	geizig	töten	sterben	anregung	gütig	engagiert	vergnügt	kuss	besonnen	ausrottung	gierig	engstirnig	verbissen	krise	bange	1	blank2r.bmp	0	1	+	0	1	blank2r.bmp	500	1	CPLW	500	1	blank2r.bmp	880	5	töten	880	0	0	0	0	0	0	0	0	0	0	0	0
2024-05-28	11:36:20	11:38:00	99978	6.6.1	4_exp_EVA_AWA_CON	56	A	B	Rpleas_acq	Oppo	Rpleas	2pleas	acq_US_pleas_nomask	acq1_nomask	1	5	0	0	300	300	0	0	1166	50	1	0	vertrauen	kreativ	genießen	gesittet	träumen	sonnig	versagen	krank	gemein	geizig	töten	sterben	anregung	gütig	engagiert	vergnügt	kuss	besonnen	ausrottung	gierig	engstirnig	verbissen	krise	bange	1	blank2r.bmp	0	1	+	0	1	blank2r.bmp	500	1	DHJF	500	1	blank2r.bmp	880	4	gesittet	880	0	0	0	0	0	0	0	0	0	0	0	0
2024-05-28	11:36:20	11:38:02	102306	6.6.1	4_exp_EVA_AWA_CON	56	A	B	Rpleas_acq	Oppo	Rpleas	2pleas	acq_US_unple_nomask	acq1_nomask	1	6	0	0	300	300	0	0	843	46	1	0	vertrauen	kreativ	genießen	gesittet	träumen	sonnig	versagen	krank	gemein	geizig	töten	sterben	anregung	gütig	engagiert	vergnügt	kuss	besonnen	ausrottung	gierig	engstirnig	verbissen	krise	bange	1	blank2r.bmp	0	1	+	0	1	blank2r.bmp	500	1	CPLW	500	1	blank2r.bmp	880	4	geizig	880	0	0	0	0	0	0	0	0	0	0	0	0
2024-05-28	11:36:20	11:38:05	104635	6.6.1	4_exp_EVA_AWA_CON	56	A	B	Rpleas_acq	Oppo	Rpleas	2pleas	acq_US_pleas_nomask	acq1_nomask	1	7	0	0	300	300	0	0	840	50	1	0	vertrauen	kreativ	genießen	gesittet	träumen	sonnig	versagen	krank	gemein	geizig	töten	sterben	anregung	gütig	engagiert	vergnügt	kuss	besonnen	ausrottung	gierig	engstirnig	verbissen	krise	bange	1	blank2r.bmp	0	1	+	0	1	blank2r.bmp	500	1	DHJF	500	1	blank2r.bmp	880	1	vertrauen	880	0	0	0	0	0	0	0	0	0	0	0	0
2024-05-28	11:36:20	11:38:07	106747	6.6.1	4_exp_EVA_AWA_CON	56	A	B	Rpleas_acq	Oppo	Rpleas	2pleas	acq_US_pleas_nomask	acq1_nomask	1	8	0	0	300	300	0	0	631	50	1	0	vertrauen	kreativ	genießen	gesittet	träumen	sonnig	versagen	krank	gemein	geizig	töten	sterben	anregung	gütig	engagiert	vergnügt	kuss	besonnen	ausrottung	gierig	engstirnig	verbissen	krise	bange	1	blank2r.bmp	0	1	+	0	1	blank2r.bmp	500	1	DHJF	500	1	blank2r.bmp	880	2	kreativ	880	0	0	0	0	0	0	0	0	0	0	0	0
2024-05-28	11:36:20	11:38:09	108986	6.6.1	4_exp_EVA_AWA_CON	56	A	B	Rpleas_acq	Oppo	Rpleas	2pleas	acq_new_unple_nomask	acq1_nomask	1	9	0	0	300	300	0	0	759	46	1	0	vertrauen	kreativ	genießen	gesittet	träumen	sonnig	versagen	krank	gemein	geizig	töten	sterben	anregung	gütig	engagiert	vergnügt	kuss	besonnen	ausrottung	gierig	engstirnig	verbissen	krise	bange	1	blank2r.bmp	0	1	+	0	1	blank2r.bmp	500	6	C2r.bmp	500	1	blank2r.bmp	880	4	verbissen	880	0	0	0	0	0	0	0	0	0	0	0	0
2024-05-28	11:36:20	11:38:11	111042	6.6.1	4_exp_EVA_AWA_CON	56	A	B	Rpleas_acq	Oppo	Rpleas	2pleas	acq_US_unple_nomask	acq1_nomask	1	10	0	0	300	300	0	0	573	46	1	0	vertrauen	kreativ	genießen	gesittet	träumen	sonnig	versagen	krank	gemein	geizig	töten	sterben	anregung	gütig	engagiert	vergnügt	kuss	besonnen	ausrottung	gierig	engstirnig	verbissen	krise	bange	1	blank2r.bmp	0	1	+	0	1	blank2r.bmp	500	1	CPLW	500	1	blank2r.bmp	880	3	gemein	880	0	0	0	0	0	0	0	0	0	0	0	0
2024-05-28	11:36:20	11:38:13	113274	6.6.1	4_exp_EVA_AWA_CON	56	A	B	Rpleas_acq	Oppo	Rpleas	2pleas	acq_new_pleas_nomask	acq1_nomask	1	11	0	0	300	300	0	0	744	50	1	0	vertrauen	kreativ	genießen	gesittet	träumen	sonnig	versagen	krank	gemein	geizig	töten	sterben	anregung	gütig	engagiert	vergnügt	kuss	besonnen	ausrottung	gierig	engstirnig	verbissen	krise	bange	1	blank2r.bmp	0	1	+	0	1	blank2r.bmp	500	1	B1r.bmp	500	1	blank2r.bmp	880	1	anregung	880	0	0	0	0	0	0	0	0	0	0	0	0
2024-05-28	11:36:20	11:38:16	115386	6.6.1	4_exp_EVA_AWA_CON	56	A	B	Rpleas_acq	Oppo	Rpleas	2pleas	acq_new_pleas_nomask	acq1_nomask	1	12	0	0	300	300	0	0	625	50	1	0	vertrauen	kreativ	genießen	gesittet	träumen	sonnig	versagen	krank	gemein	geizig	töten	sterben	anregung	gütig	engagiert	vergnügt	kuss	besonnen	ausrottung	gierig	engstirnig	verbissen	krise	bange	1	blank2r.bmp	0	1	+	0	1	blank2r.bmp	500	4	B4r.bmp	500	1	blank2r.bmp	880	2	gütig	880	0	0	0	0	0	0	0	0	0	0	0	0
2024-05-28	11:36:20	11:38:18	117650	6.6.1	4_exp_EVA_AWA_CON	56	A	B	Rpleas_acq	Oppo	Rpleas	2pleas	acq_new_pleas_nomask	acq1_nomask	1	13	0	0	300	300	0	0	777	50	1	0	vertrauen	kreativ	genießen	gesittet	träumen	sonnig	versagen	krank	gemein	geizig	töten	sterben	anregung	gütig	engagiert	vergnügt	kuss	besonnen	ausrottung	gierig	engstirnig	verbissen	krise	bange	1	blank2r.bmp	0	1	+	0	1	blank2r.bmp	500	3	B3r.bmp	500	1	blank2r.bmp	880	4	vergnügt	880	0	0	0	0	0	0	0	0	0	0	0	0
2024-05-28	11:36:20	11:38:20	119762	6.6.1	4_exp_EVA_AWA_CON	56	A	B	Rpleas_acq	Oppo	Rpleas	2pleas	acq_new_pleas_nomask	acq1_nomask	1	14	0	0	300	300	0	0	627	50	1	0	vertrauen	kreativ	genießen	gesittet	träumen	sonnig	versagen	krank	gemein	geizig	töten	sterben	anregung	gütig	engagiert	vergnügt	kuss	besonnen	ausrottung	gierig	engstirnig	verbissen	krise	bange	1	blank2r.bmp	0	1	+	0	1	blank2r.bmp	500	8	C4r.bmp	500	1	blank2r.bmp	880	5	kuss	880	0	0	0	0	0	0	0	0	0	0	0	0
2024-05-28	11:36:20	11:38:22	121954	6.6.1	4_exp_EVA_AWA_CON	56	A	B	Rpleas_acq	Oppo	Rpleas	2pleas	acq_US_unple_nomask	acq1_nomask	1	15	0	0	300	300	0	0	708	46	1	0	vertrauen	kreativ	genießen	gesittet	träumen	sonnig	versagen	krank	gemein	geizig	töten	sterben	anregung	gütig	engagiert	vergnügt	kuss	besonnen	ausrottung	gierig	engstirnig	verbissen	krise	bange	1	blank2r.bmp	0	1	+	0	1	blank2r.bmp	500	1	CPLW	500	1	blank2r.bmp	880	6	sterben	880	0	0	0	0	0	0	0	0	0	0	0	0
2024-05-28	11:36:20	11:38:24	124010	6.6.1	4_exp_EVA_AWA_CON	56	A	B	Rpleas_acq	Oppo	Rpleas	2pleas	acq_US_pleas_nomask	acq1_nomask	1	16	0	0	300	300	0	0	573	50	1	0	vertrauen	kreativ	genießen	gesittet	träumen	sonnig	versagen	krank	gemein	geizig	töten	sterben	anregung	gütig	engagiert	vergnügt	kuss	besonnen	ausrottung	gierig	engstirnig	verbissen	krise	bange	1	blank2r.bmp	0	1	+	0	1	blank2r.bmp	500	1	DHJF	500	1	blank2r.bmp	880	5	träumen	880	0	0	0	0	0	0	0	0	0	0	0	0
2024-05-28	11:36:20	11:38:26	126274	6.6.1	4_exp_EVA_AWA_CON	56	A	B	Rpleas_acq	Oppo	Rpleas	2pleas	acq_US_unple_nomask	acq1_nomask	1	17	0	0	300	300	0	0	775	46	1	0	vertrauen	kreativ	genießen	gesittet	träumen	sonnig	versagen	krank	gemein	geizig	töten	sterben	anregung	gütig	engagiert	vergnügt	kuss	besonnen	ausrottung	gierig	engstirnig	verbissen	krise	bange	1	blank2r.bmp	0	1	+	0	1	blank2r.bmp	500	1	CPLW	500	1	blank2r.bmp	880	1	versagen	880	0	0	0	0	0	0	0	0	0	0	0	0
2024-05-28	11:36:20	11:38:29	128674	6.6.1	4_exp_EVA_AWA_CON	56	A	B	Rpleas_acq	Oppo	Rpleas	2pleas	acq_new_unple_nomask	acq1_nomask	1	18	0	0	300	300	0	0	915	46	1	0	vertrauen	kreativ	genießen	gesittet	träumen	sonnig	versagen	krank	gemein	geizig	töten	sterben	anregung	gütig	engagiert	vergnügt	kuss	besonnen	ausrottung	gierig	engstirnig	verbissen	krise	bange	1	blank2r.bmp	0	1	+	0	1	blank2r.bmp	500	6	C2r.bmp	500	1	blank2r.bmp	880	3	engstirnig	880	0	0	0	0	0	0	0	0	0	0	0	0
2024-05-28	11:36:20	11:38:31	130754	6.6.1	4_exp_EVA_AWA_CON	56	A	B	Rpleas_acq	Oppo	Rpleas	2pleas	acq_US_pleas_nomask	acq1_nomask	1	19	0	0	300	300	0	0	592	50	1	0	vertrauen	kreativ	genießen	gesittet	träumen	sonnig	versagen	krank	gemein	geizig	töten	sterben	anregung	gütig	engagiert	vergnügt	kuss	besonnen	ausrottung	gierig	engstirnig	verbissen	krise	bange	1	blank2r.bmp	0	1	+	0	1	blank2r.bmp	500	1	DHJF	500	1	blank2r.bmp	880	6	sonnig	880	0	0	0	0	0	0	0	0	0	0	0	0
2024-05-28	11:36:20	11:38:34	133690	6.6.1	4_exp_EVA_AWA_CON	56	A	B	Rpleas_acq	Oppo	Rpleas	2pleas	acq_new_unple_nomask	acq1_nomask	1	20	0	0	300	300	0	0	1448	46	1	0	vertrauen	kreativ	genießen	gesittet	träumen	sonnig	versagen	krank	gemein	geizig	töten	sterben	anregung	gütig	engagiert	vergnügt	kuss	besonnen	ausrottung	gierig	engstirnig	verbissen	krise	bange	1	blank2r.bmp	0	1	+	0	1	blank2r.bmp	500	3	B3r.bmp	500	1	blank2r.bmp	880	5	krise	880	0	0	0	0	0	0	0	0	0	0	0	0
2024-05-28	11:36:20	11:38:36	135915	6.6.1	4_exp_EVA_AWA_CON	56	A	B	Rpleas_acq	Oppo	Rpleas	2pleas	acq_new_unple_nomask	acq1_nomask	1	21	0	0	300	300	0	0	740	46	1	0	vertrauen	kreativ	genießen	gesittet	träumen	sonnig	versagen	krank	gemein	geizig	töten	sterben	anregung	gütig	engagiert	vergnügt	kuss	besonnen	ausrottung	gierig	engstirnig	verbissen	krise	bange	1	blank2r.bmp	0	1	+	0	1	blank2r.bmp	500	4	B4r.bmp	500	1	blank2r.bmp	880	6	bange	880	0	0	0	0	0	0	0	0	0	0	0	0
2024-05-28	11:36:20	11:38:38	137962	6.6.1	4_exp_EVA_AWA_CON	56	A	B	Rpleas_acq	Oppo	Rpleas	2pleas	acq_US_unple_nomask	acq1_nomask	1	22	0	0	300	300	0	0	567	46	1	0	vertrauen	kreativ	genießen	gesittet	träumen	sonnig	versagen	krank	gemein	geizig	töten	sterben	anregung	gütig	engagiert	vergnügt	kuss	besonnen	ausrottung	gierig	engstirnig	verbissen	krise	bange	1	blank2r.bmp	0	1	+	0	1	blank2r.bmp	500	1	CPLW	500	1	blank2r.bmp	880	2	krank	880	0	0	0	0	0	0	0	0	0	0	0	0
2024-05-28	11:36:20	11:38:40	140066	6.6.1	4_exp_EVA_AWA_CON	56	A	B	Rpleas_acq	Oppo	Rpleas	2pleas	acq_new_pleas_nomask	acq1_nomask	1	23	0	0	300	300	0	0	619	50	1	0	vertrauen	kreativ	genießen	gesittet	träumen	sonnig	versagen	krank	gemein	geizig	töten	sterben	anregung	gütig	engagiert	vergnügt	kuss	besonnen	ausrottung	gierig	engstirnig	verbissen	krise	bange	1	blank2r.bmp	0	1	+	0	1	blank2r.bmp	500	7	C3r.bmp	500	1	blank2r.bmp	880	6	besonnen	880	0	0	0	0	0	0	0	0	0	0	0	0
2024-05-28	11:36:20	11:38:42	142274	6.6.1	4_exp_EVA_AWA_CON	56	A	B	Rpleas_acq	Oppo	Rpleas	2pleas	acq_US_pleas_nomask	acq1_nomask	1	24	0	0	300	300	0	0	726	50	1	0	vertrauen	kreativ	genießen	gesittet	träumen	sonnig	versagen	krank	gemein	geizig	töten	sterben	anregung	gütig	engagiert	vergnügt	kuss	besonnen	ausrottung	gierig	engstirnig	verbissen	krise	bange	1	blank2r.bmp	0	1	+	0	1	blank2r.bmp	500	1	DHJF	500	1	blank2r.bmp	880	3	genießen	880	0	0	0	0	0	0	0	0	0	0	0	0
2024-05-28	11:36:20	11:38:45	144682	6.6.1	4_exp_EVA_AWA_CON	56	A	B	Rpleas_acq	Oppo	Rpleas	2pleas	acq_US_pleas_nomask	acq1_nomask	1	25	0	0	300	300	0	0	922	50	1	0	vertrauen	kreativ	genießen	gesittet	träumen	sonnig	versagen	krank	gemein	geizig	töten	sterben	anregung	gütig	engagiert	vergnügt	kuss	besonnen	ausrottung	gierig	engstirnig	verbissen	krise	bange	1	blank2r.bmp	0	1	+	0	1	blank2r.bmp	500	1	DHJF	500	1	blank2r.bmp	880	1	vertrauen	880	0	0	0	0	0	0	0	0	0	0	0	0
2024-05-28	11:36:20	11:38:47	146810	6.6.1	4_exp_EVA_AWA_CON	56	A	B	Rpleas_acq	Oppo	Rpleas	2pleas	acq_US_unple_nomask	acq1_nomask	1	26	0	0	300	300	0	0	639	46	1	0	vertrauen	kreativ	genießen	gesittet	träumen	sonnig	versagen	krank	gemein	geizig	töten	sterben	anregung	gütig	engagiert	vergnügt	kuss	besonnen	ausrottung	gierig	engstirnig	verbissen	krise	bange	1	blank2r.bmp	0	1	+	0	1	blank2r.bmp	500	1	CPLW	500	1	blank2r.bmp	880	3	gemein	880	0	0	0	0	0	0	0	0	0	0	0	0
2024-05-28	11:36:20	11:38:49	148778	6.6.1	4_exp_EVA_AWA_CON	56	A	B	Rpleas_acq	Oppo	Rpleas	2pleas	acq_US_unple_nomask	acq1_nomask	1	27	0	0	300	300	0	0	486	46	1	0	vertrauen	kreativ	genießen	gesittet	träumen	sonnig	versagen	krank	gemein	geizig	töten	sterben	anregung	gütig	engagiert	vergnügt	kuss	besonnen	ausrottung	gierig	engstirnig	verbissen	krise	bange	1	blank2r.bmp	0	1	+	0	1	blank2r.bmp	500	1	CPLW	500	1	blank2r.bmp	880	6	sterben	880	0	0	0	0	0	0	0	0	0	0	0	0
2024-05-28	11:36:20	11:38:51	150882	6.6.1	4_exp_EVA_AWA_CON	56	A	B	Rpleas_acq	Oppo	Rpleas	2pleas	acq_new_pleas_nomask	acq1_nomask	1	28	0	0	300	300	0	0	618	50	1	0	vertrauen	kreativ	genießen	gesittet	träumen	sonnig	versagen	krank	gemein	geizig	töten	sterben	anregung	gütig	engagiert	vergnügt	kuss	besonnen	ausrottung	gierig	engstirnig	verbissen	krise	bange	1	blank2r.bmp	0	1	+	0	1	blank2r.bmp	500	8	C4r.bmp	500	1	blank2r.bmp	880	3	engagiert	880	0	0	0	0	0	0	0	0	0	0	0	0
2024-05-28	11:36:20	11:38:53	152986	6.6.1	4_exp_EVA_AWA_CON	56	A	B	Rpleas_acq	Oppo	Rpleas	2pleas	acq_new_unple_nomask	acq1_nomask	1	29	0	0	300	300	0	0	621	46	1	0	vertrauen	kreativ	genießen	gesittet	träumen	sonnig	versagen	krank	gemein	geizig	töten	sterben	anregung	gütig	engagiert	vergnügt	kuss	besonnen	ausrottung	gierig	engstirnig	verbissen	krise	bange	1	blank2r.bmp	0	1	+	0	1	blank2r.bmp	500	1	B1r.bmp	500	1	blank2r.bmp	880	5	krise	880	0	0	0	0	0	0	0	0	0	0	0	0
2024-05-28	11:36:20	11:38:55	155162	6.6.1	4_exp_EVA_AWA_CON	56	A	B	Rpleas_acq	Oppo	Rpleas	2pleas	acq_US_unple_nomask	acq1_nomask	1	30	0	0	300	300	0	0	696	46	1	0	vertrauen	kreativ	genießen	gesittet	träumen	sonnig	versagen	krank	gemein	geizig	töten	sterben	anregung	gütig	engagiert	vergnügt	kuss	besonnen	ausrottung	gierig	engstirnig	verbissen	krise	bange	1	blank2r.bmp	0	1	+	0	1	blank2r.bmp	500	1	CPLW	500	1	blank2r.bmp	880	4	geizig	880	0	0	0	0	0	0	0	0	0	0	0	0
2024-05-28	11:36:20	11:38:57	157274	6.6.1	4_exp_EVA_AWA_CON	56	A	B	Rpleas_acq	Oppo	Rpleas	2pleas	acq_new_unple_nomask	acq1_nomask	1	31	0	0	300	300	0	0	626	46	1	0	vertrauen	kreativ	genießen	gesittet	träumen	sonnig	versagen	krank	gemein	geizig	töten	sterben	anregung	gütig	engagiert	vergnügt	kuss	besonnen	ausrottung	gierig	engstirnig	verbissen	krise	bange	1	blank2r.bmp	0	1	+	0	1	blank2r.bmp	500	2	B2r.bmp	500	1	blank2r.bmp	880	2	gierig	880	0	0	0	0	0	0	0	0	0	0	0	0
2024-05-28	11:36:20	11:39:00	159394	6.6.1	4_exp_EVA_AWA_CON	56	A	B	Rpleas_acq	Oppo	Rpleas	2pleas	acq_new_pleas_nomask	acq1_nomask	1	32	0	0	300	300	0	0	634	50	1	0	vertrauen	kreativ	genießen	gesittet	träumen	sonnig	versagen	krank	gemein	geizig	töten	sterben	anregung	gütig	engagiert	vergnügt	kuss	besonnen	ausrottung	gierig	engstirnig	verbissen	krise	bange	1	blank2r.bmp	0	1	+	0	1	blank2r.bmp	500	5	C1r.bmp	500	1	blank2r.bmp	880	1	anregung	880	0	0	0	0	0	0	0	0	0	0	0	0
2024-05-28	11:36:20	11:39:02	161466	6.6.1	4_exp_EVA_AWA_CON	56	A	B	Rpleas_acq	Oppo	Rpleas	2pleas	acq_new_unple_nomask	acq1_nomask	1	33	0	0	300	300	0	0	586	46	1	0	vertrauen	kreativ	genießen	gesittet	träumen	sonnig	versagen	krank	gemein	geizig	töten	sterben	anregung	gütig	engagiert	vergnügt	kuss	besonnen	ausrottung	gierig	engstirnig	verbissen	krise	bange	1	blank2r.bmp	0	1	+	0	1	blank2r.bmp	500	2	B2r.bmp	500	1	blank2r.bmp	880	4	verbissen	880	0	0	0	0	0	0	0	0	0	0	0	0
2024-05-28	11:36:20	11:39:04	163490	6.6.1	4_exp_EVA_AWA_CON	56	A	B	Rpleas_acq	Oppo	Rpleas	2pleas	acq_US_pleas_nomask	acq1_nomask	1	34	0	0	300	300	0	0	537	50	1	0	vertrauen	kreativ	genießen	gesittet	träumen	sonnig	versagen	krank	gemein	geizig	töten	sterben	anregung	gütig	engagiert	vergnügt	kuss	besonnen	ausrottung	gierig	engstirnig	verbissen	krise	bange	1	blank2r.bmp	0	1	+	0	1	blank2r.bmp	500	1	DHJF	500	1	blank2r.bmp	880	5	träumen	880	0	0	0	0	0	0	0	0	0	0	0	0
2024-05-28	11:36:20	11:39:06	165602	6.6.1	4_exp_EVA_AWA_CON	56	A	B	Rpleas_acq	Oppo	Rpleas	2pleas	acq_US_pleas_nomask	acq1_nomask	1	35	0	0	300	300	0	0	629	50	1	0	vertrauen	kreativ	genießen	gesittet	träumen	sonnig	versagen	krank	gemein	geizig	töten	sterben	anregung	gütig	engagiert	vergnügt	kuss	besonnen	ausrottung	gierig	engstirnig	verbissen	krise	bange	1	blank2r.bmp	0	1	+	0	1	blank2r.bmp	500	1	DHJF	500	1	blank2r.bmp	880	6	sonnig	880	0	0	0	0	0	0	0	0	0	0	0	0
2024-05-28	11:36:20	11:39:08	167650	6.6.1	4_exp_EVA_AWA_CON	56	A	B	Rpleas_acq	Oppo	Rpleas	2pleas	acq_new_pleas_nomask	acq1_nomask	1	36	0	0	300	300	0	0	566	50	1	0	vertrauen	kreativ	genießen	gesittet	träumen	sonnig	versagen	krank	gemein	geizig	töten	sterben	anregung	gütig	engagiert	vergnügt	kuss	besonnen	ausrottung	gierig	engstirnig	verbissen	krise	bange	1	blank2r.bmp	0	1	+	0	1	blank2r.bmp	500	6	C2r.bmp	500	1	blank2r.bmp	880	5	kuss	880	0	0	0	0	0	0	0	0	0	0	0	0
2024-05-28	11:36:20	11:39:37	196396	6.6.1	4_exp_EVA_AWA_CON	56	A	B	Rpleas_acq	Oppo	Rpleas	2pleas	acq_new_unple_nomask	acq2_nomask	2	1	480	0	300	300	0	0	613	46	1	0	vertrauen	kreativ	genießen	gesittet	träumen	sonnig	versagen	krank	gemein	geizig	töten	sterben	anregung	gütig	engagiert	vergnügt	kuss	besonnen	ausrottung	gierig	engstirnig	verbissen	krise	bange	1	blank2r.bmp	0	1	+	0	1	blank2r.bmp	500	1	B1r.bmp	500	1	blank2r.bmp	880	1	ausrottung	880	1	!	1312	1	!	-1	0	0	0	0	0	0
2024-05-28	11:36:20	11:39:39	198892	6.6.1	4_exp_EVA_AWA_CON	56	A	B	Rpleas_acq	Oppo	Rpleas	2pleas	acq_new_pleas_nomask	acq2_nomask	2	2	480	0	300	300	0	0	718	50	1	0	vertrauen	kreativ	genießen	gesittet	träumen	sonnig	versagen	krank	gemein	geizig	töten	sterben	anregung	gütig	engagiert	vergnügt	kuss	besonnen	ausrottung	gierig	engstirnig	verbissen	krise	bange	1	blank2r.bmp	0	1	+	0	1	blank2r.bmp	500	8	C4r.bmp	500	1	blank2r.bmp	880	6	besonnen	880	1	!	1312	1	!	-1	0	0	0	0	0	0
2024-05-28	11:36:20	11:39:41	201068	6.6.1	4_exp_EVA_AWA_CON	56	A	B	Rpleas_acq	Oppo	Rpleas	2pleas	acq_US_unple_nomask	acq2_nomask	2	3	480	0	300	300	0	0	402	46	1	0	vertrauen	kreativ	genießen	gesittet	träumen	sonnig	versagen	krank	gemein	geizig	töten	sterben	anregung	gütig	engagiert	vergnügt	kuss	besonnen	ausrottung	gierig	engstirnig	verbissen	krise	bange	1	blank2r.bmp	0	1	+	0	1	blank2r.bmp	500	1	CPLW	500	1	blank2r.bmp	880	1	versagen	880	1	!	-1	1	!	-1	0	0	0	0	0	0
2024-05-28	11:36:20	11:39:43	203302	6.6.1	4_exp_EVA_AWA_CON	56	A	B	Rpleas_acq	Oppo	Rpleas	2pleas	acq_US_pleas_nomask	acq2_nomask	2	4	480	1	300	300	0	0	453	50	1	0	vertrauen	kreativ	genießen	gesittet	träumen	sonnig	versagen	krank	gemein	geizig	töten	sterben	anregung	gütig	engagiert	vergnügt	kuss	besonnen	ausrottung	gierig	engstirnig	verbissen	krise	bange	1	blank2r.bmp	0	1	+	0	1	blank2r.bmp	500	1	DHJF	500	1	blank2r.bmp	880	2	kreativ	880	1	!	1312	1	!	1354	0	0	0	0	0	0
2024-05-28	11:36:20	11:39:46	205510	6.6.1	4_exp_EVA_AWA_CON	56	A	B	Rpleas_acq	Oppo	Rpleas	2pleas	acq_US_unple_nomask	acq2_nomask	2	5	480	1	300	300	0	0	429	46	1	0	vertrauen	kreativ	genießen	gesittet	träumen	sonnig	versagen	krank	gemein	geizig	töten	sterben	anregung	gütig	engagiert	vergnügt	kuss	besonnen	ausrottung	gierig	engstirnig	verbissen	krise	bange	1	blank2r.bmp	0	1	+	0	1	blank2r.bmp	500	1	CPLW	500	1	blank2r.bmp	880	2	krank	880	1	!	1313	1	!	1330	0	0	0	0	0	0
2024-05-28	11:36:20	11:39:48	207708	6.6.1	4_exp_EVA_AWA_CON	56	A	B	Rpleas_acq	Oppo	Rpleas	2pleas	acq_new_pleas_nomask	acq2_nomask	2	6	480	1	300	300	0	0	418	50	1	0	vertrauen	kreativ	genießen	gesittet	träumen	sonnig	versagen	krank	gemein	geizig	töten	sterben	anregung	gütig	engagiert	vergnügt	kuss	besonnen	ausrottung	gierig	engstirnig	verbissen	krise	bange	1	blank2r.bmp	0	1	+	0	1	blank2r.bmp	500	4	B4r.bmp	500	1	blank2r.bmp	880	2	gütig	880	1	!	1312	1	!	1317	0	0	0	0	0	0
2024-05-28	11:36:20	11:39:50	210053	6.6.1	4_exp_EVA_AWA_CON	56	A	B	Rpleas_acq	Oppo	Rpleas	2pleas	acq_new_unple_nomask	acq2_nomask	2	7	480	0	300	300	0	0	570	46	1	0	vertrauen	kreativ	genießen	gesittet	träumen	sonnig	versagen	krank	gemein	geizig	töten	sterben	anregung	gütig	engagiert	vergnügt	kuss	besonnen	ausrottung	gierig	engstirnig	verbissen	krise	bange	1	blank2r.bmp	0	1	+	0	1	blank2r.bmp	500	3	B3r.bmp	500	1	blank2r.bmp	880	3	engstirnig	880	1	!	1312	1	!	-1	0	0	0	0	0	0
2024-05-28	11:36:20	11:39:53	212447	6.6.1	4_exp_EVA_AWA_CON	56	A	B	Rpleas_acq	Oppo	Rpleas	2pleas	acq_US_pleas_nomask	acq2_nomask	2	8	480	0	300	300	0	0	410	46	0	0	vertrauen	kreativ	genießen	gesittet	träumen	sonnig	versagen	krank	gemein	geizig	töten	sterben	anregung	gütig	engagiert	vergnügt	kuss	besonnen	ausrottung	gierig	engstirnig	verbissen	krise	bange	1	blank2r.bmp	0	1	+	0	1	blank2r.bmp	500	1	DHJF	500	1	blank2r.bmp	880	4	gesittet	880	1	FEHLER	1604	1	!	-1	1	!	-1	0	0	0
2024-05-28	11:36:20	11:39:55	214612	6.6.1	4_exp_EVA_AWA_CON	56	A	B	Rpleas_acq	Oppo	Rpleas	2pleas	acq_new_pleas_nomask	acq2_nomask	2	9	480	0	300	300	0	0	587	50	1	0	vertrauen	kreativ	genießen	gesittet	träumen	sonnig	versagen	krank	gemein	geizig	töten	sterben	anregung	gütig	engagiert	vergnügt	kuss	besonnen	ausrottung	gierig	engstirnig	verbissen	krise	bange	1	blank2r.bmp	0	1	+	0	1	blank2r.bmp	500	7	C3r.bmp	500	1	blank2r.bmp	880	4	vergnügt	880	1	!	1312	1	!	-1	0	0	0	0	0	0
2024-05-28	11:36:20	11:39:57	216717	6.6.1	4_exp_EVA_AWA_CON	56	A	B	Rpleas_acq	Oppo	Rpleas	2pleas	acq_US_unple_nomask	acq2_nomask	2	10	480	0	300	300	0	0	330	46	1	0	vertrauen	kreativ	genießen	gesittet	träumen	sonnig	versagen	krank	gemein	geizig	töten	sterben	anregung	gütig	engagiert	vergnügt	kuss	besonnen	ausrottung	gierig	engstirnig	verbissen	krise	bange	1	blank2r.bmp	0	1	+	0	1	blank2r.bmp	500	1	CPLW	500	1	blank2r.bmp	880	5	töten	880	1	!	-1	1	!	-1	0	0	0	0	0	0
2024-05-28	11:36:20	11:39:59	218973	6.6.1	4_exp_EVA_AWA_CON	56	A	B	Rpleas_acq	Oppo	Rpleas	2pleas	acq_new_unple_nomask	acq2_nomask	2	11	480	1	300	300	0	0	474	46	1	0	vertrauen	kreativ	genießen	gesittet	träumen	sonnig	versagen	krank	gemein	geizig	töten	sterben	anregung	gütig	engagiert	vergnügt	kuss	besonnen	ausrottung	gierig	engstirnig	verbissen	krise	bange	1	blank2r.bmp	0	1	+	0	1	blank2r.bmp	500	5	C1r.bmp	500	1	blank2r.bmp	880	6	bange	880	1	!	1312	1	!	1375	0	0	0	0	0	0
2024-05-28	11:36:20	11:40:02	221373	6.6.1	4_exp_EVA_AWA_CON	56	A	B	Rpleas_acq	Oppo	Rpleas	2pleas	acq_US_pleas_nomask	acq2_nomask	2	12	480	1	300	300	0	0	422	46	0	0	vertrauen	kreativ	genießen	gesittet	träumen	sonnig	versagen	krank	gemein	geizig	töten	sterben	anregung	gütig	engagiert	vergnügt	kuss	besonnen	ausrottung	gierig	engstirnig	verbissen	krise	bange	1	blank2r.bmp	0	1	+	0	1	blank2r.bmp	500	1	DHJF	500	1	blank2r.bmp	880	3	genießen	880	1	FEHLER	1614	1	!	1312	1	!	1322	0	0	0
2024-05-28	11:36:20	11:40:04	223429	6.6.1	4_exp_EVA_AWA_CON	56	A	B	Rpleas_acq	Oppo	Rpleas	2pleas	acq_new_unple_nomask	acq2_nomask	2	13	480	1	300	300	0	0	477	46	1	0	vertrauen	kreativ	genießen	gesittet	träumen	sonnig	versagen	krank	gemein	geizig	töten	sterben	anregung	gütig	engagiert	vergnügt	kuss	besonnen	ausrottung	gierig	engstirnig	verbissen	krise	bange	1	blank2r.bmp	0	1	+	0	1	blank2r.bmp	500	4	B4r.bmp	500	1	blank2r.bmp	880	5	krise	880	1	!	1313	1	!	1379	0	0	0	0	0	0
2024-05-28	11:36:20	11:40:06	225588	6.6.1	4_exp_EVA_AWA_CON	56	A	B	Rpleas_acq	Oppo	Rpleas	2pleas	acq_US_pleas_nomask	acq2_nomask	2	14	480	0	300	300	0	0	386	50	1	0	vertrauen	kreativ	genießen	gesittet	träumen	sonnig	versagen	krank	gemein	geizig	töten	sterben	anregung	gütig	engagiert	vergnügt	kuss	besonnen	ausrottung	gierig	engstirnig	verbissen	krise	bange	1	blank2r.bmp	0	1	+	0	1	blank2r.bmp	500	1	DHJF	500	1	blank2r.bmp	880	4	gesittet	880	1	!	-1	1	!	-1	0	0	0	0	0	0
2024-05-28	11:36:20	11:40:08	227814	6.6.1	4_exp_EVA_AWA_CON	56	A	B	Rpleas_acq	Oppo	Rpleas	2pleas	acq_new_pleas_nomask	acq2_nomask	2	15	480	1	300	300	0	0	449	50	1	0	vertrauen	kreativ	genießen	gesittet	träumen	sonnig	versagen	krank	gemein	geizig	töten	sterben	anregung	gütig	engagiert	vergnügt	kuss	besonnen	ausrottung	gierig	engstirnig	verbissen	krise	bange	1	blank2r.bmp	0	1	+	0	1	blank2r.bmp	500	8	C4r.bmp	500	1	blank2r.bmp	880	1	anregung	880	1	!	1312	1	!	1350	0	0	0	0	0	0
2024-05-28	11:36:20	11:40:10	230222	6.6.1	4_exp_EVA_AWA_CON	56	A	B	Rpleas_acq	Oppo	Rpleas	2pleas	acq_US_unple_nomask	acq2_nomask	2	16	480	1	300	300	0	0	425	50	0	0	vertrauen	kreativ	genießen	gesittet	träumen	sonnig	versagen	krank	gemein	geizig	töten	sterben	anregung	gütig	engagiert	vergnügt	kuss	besonnen	ausrottung	gierig	engstirnig	verbissen	krise	bange	1	blank2r.bmp	0	1	+	0	1	blank2r.bmp	500	1	CPLW	500	1	blank2r.bmp	880	1	versagen	880	1	FEHLER	1618	1	!	1312	1	!	1326	0	0	0
2024-05-28	11:36:20	11:40:12	232270	6.6.1	4_exp_EVA_AWA_CON	56	A	B	Rpleas_acq	Oppo	Rpleas	2pleas	acq_new_pleas_nomask	acq2_nomask	2	17	480	1	300	300	0	0	472	50	1	0	vertrauen	kreativ	genießen	gesittet	träumen	sonnig	versagen	krank	gemein	geizig	töten	sterben	anregung	gütig	engagiert	vergnügt	kuss	besonnen	ausrottung	gierig	engstirnig	verbissen	krise	bange	1	blank2r.bmp	0	1	+	0	1	blank2r.bmp	500	6	C2r.bmp	500	1	blank2r.bmp	880	5	kuss	880	1	!	1312	1	!	1373	0	0	0	0	0	0
2024-05-28	11:36:20	11:40:15	234510	6.6.1	4_exp_EVA_AWA_CON	56	A	B	Rpleas_acq	Oppo	Rpleas	2pleas	acq_US_pleas_nomask	acq2_nomask	2	18	480	1	300	300	0	0	461	50	1	0	vertrauen	kreativ	genießen	gesittet	träumen	sonnig	versagen	krank	gemein	geizig	töten	sterben	anregung	gütig	engagiert	vergnügt	kuss	besonnen	ausrottung	gierig	engstirnig	verbissen	krise	bange	1	blank2r.bmp	0	1	+	0	1	blank2r.bmp	500	1	DHJF	500	1	blank2r.bmp	880	3	genießen	880	1	!	1312	1	!	1362	0	0	0	0	0	0
2024-05-28	11:36:20	11:40:17	236660	6.6.1	4_exp_EVA_AWA_CON	56	A	B	Rpleas_acq	Oppo	Rpleas	2pleas	acq_US_unple_nomask	acq2_nomask	2	19	480	0	300	300	0	0	370	46	1	0	vertrauen	kreativ	genießen	gesittet	träumen	sonnig	versagen	krank	gemein	geizig	töten	sterben	anregung	gütig	engagiert	vergnügt	kuss	besonnen	ausrottung	gierig	engstirnig	verbissen	krise	bange	1	blank2r.bmp	0	1	+	0	1	blank2r.bmp	500	1	CPLW	500	1	blank2r.bmp	880	3	gemein	880	1	!	-1	1	!	-1	0	0	0	0	0	0
2024-05-28	11:36:20	11:40:19	239230	6.6.1	4_exp_EVA_AWA_CON	56	A	B	Rpleas_acq	Oppo	Rpleas	2pleas	acq_new_unple_nomask	acq2_nomask	2	20	480	0	300	300	0	0	587	50	0	0	vertrauen	kreativ	genießen	gesittet	träumen	sonnig	versagen	krank	gemein	geizig	töten	sterben	anregung	gütig	engagiert	vergnügt	kuss	besonnen	ausrottung	gierig	engstirnig	verbissen	krise	bange	1	blank2r.bmp	0	1	+	0	1	blank2r.bmp	500	5	C1r.bmp	500	1	blank2r.bmp	880	1	ausrottung	880	1	FEHLER	1780	1	!	1312	1	!	-1	0	0	0
2024-05-28	11:36:20	11:40:21	241270	6.6.1	4_exp_EVA_AWA_CON	56	A	B	Rpleas_acq	Oppo	Rpleas	2pleas	acq_US_unple_nomask	acq2_nomask	2	21	480	1	300	300	0	0	466	46	1	0	vertrauen	kreativ	genießen	gesittet	träumen	sonnig	versagen	krank	gemein	geizig	töten	sterben	anregung	gütig	engagiert	vergnügt	kuss	besonnen	ausrottung	gierig	engstirnig	verbissen	krise	bange	1	blank2r.bmp	0	1	+	0	1	blank2r.bmp	500	1	CPLW	500	1	blank2r.bmp	880	2	krank	880	1	!	1313	1	!	1367	0	0	0	0	0	0
2024-05-28	11:36:20	11:40:24	243639	6.6.1	4_exp_EVA_AWA_CON	56	A	B	Rpleas_acq	Oppo	Rpleas	2pleas	acq_new_unple_nomask	acq2_nomask	2	22	480	0	300	300	0	0	393	50	0	0	vertrauen	kreativ	genießen	gesittet	träumen	sonnig	versagen	krank	gemein	geizig	töten	sterben	anregung	gütig	engagiert	vergnügt	kuss	besonnen	ausrottung	gierig	engstirnig	verbissen	krise	bange	1	blank2r.bmp	0	1	+	0	1	blank2r.bmp	500	1	B1r.bmp	500	1	blank2r.bmp	880	4	verbissen	880	1	FEHLER	1586	1	!	-1	1	!	-1	0	0	0
2024-05-28	11:36:20	11:40:26	245693	6.6.1	4_exp_EVA_AWA_CON	56	A	B	Rpleas_acq	Oppo	Rpleas	2pleas	acq_US_pleas_nomask	acq2_nomask	2	23	480	1	300	300	0	0	477	50	1	0	vertrauen	kreativ	genießen	gesittet	träumen	sonnig	versagen	krank	gemein	geizig	töten	sterben	anregung	gütig	engagiert	vergnügt	kuss	besonnen	ausrottung	gierig	engstirnig	verbissen	krise	bange	1	blank2r.bmp	0	1	+	0	1	blank2r.bmp	500	1	DHJF	500	1	blank2r.bmp	880	1	vertrauen	880	1	!	1313	1	!	1378	0	0	0	0	0	0
2024-05-28	11:36:20	11:40:28	247894	6.6.1	4_exp_EVA_AWA_CON	56	A	B	Rpleas_acq	Oppo	Rpleas	2pleas	acq_new_pleas_nomask	acq2_nomask	2	24	480	1	300	300	0	0	426	50	1	0	vertrauen	kreativ	genießen	gesittet	träumen	sonnig	versagen	krank	gemein	geizig	töten	sterben	anregung	gütig	engagiert	vergnügt	kuss	besonnen	ausrottung	gierig	engstirnig	verbissen	krise	bange	1	blank2r.bmp	0	1	+	0	1	blank2r.bmp	500	2	B2r.bmp	500	1	blank2r.bmp	880	2	gütig	880	1	!	1313	1	!	1327	0	0	0	0	0	0
2024-05-28	11:36:20	11:40:30	250076	6.6.1	4_exp_EVA_AWA_CON	56	A	B	Rpleas_acq	Oppo	Rpleas	2pleas	acq_new_unple_nomask	acq2_nomask	2	25	480	0	300	300	0	0	408	46	1	0	vertrauen	kreativ	genießen	gesittet	träumen	sonnig	versagen	krank	gemein	geizig	töten	sterben	anregung	gütig	engagiert	vergnügt	kuss	besonnen	ausrottung	gierig	engstirnig	verbissen	krise	bange	1	blank2r.bmp	0	1	+	0	1	blank2r.bmp	500	3	B3r.bmp	500	1	blank2r.bmp	880	2	gierig	880	1	!	-1	1	!	-1	0	0	0	0	0	0
2024-05-28	11:36:20	11:40:32	252244	6.6.1	4_exp_EVA_AWA_CON	56	A	B	Rpleas_acq	Oppo	Rpleas	2pleas	acq_US_pleas_nomask	acq2_nomask	2	26	480	0	300	300	0	0	395	50	1	0	vertrauen	kreativ	genießen	gesittet	träumen	sonnig	versagen	krank	gemein	geizig	töten	sterben	anregung	gütig	engagiert	vergnügt	kuss	besonnen	ausrottung	gierig	engstirnig	verbissen	krise	bange	1	blank2r.bmp	0	1	+	0	1	blank2r.bmp	500	1	DHJF	500	1	blank2r.bmp	880	6	sonnig	880	1	!	-1	1	!	-1	0	0	0	0	0	0
2024-05-28	11:36:20	11:40:35	254703	6.6.1	4_exp_EVA_AWA_CON	56	A	B	Rpleas_acq	Oppo	Rpleas	2pleas	acq_new_unple_nomask	acq2_nomask	2	27	480	1	300	300	0	0	479	50	0	0	vertrauen	kreativ	genießen	gesittet	träumen	sonnig	versagen	krank	gemein	geizig	töten	sterben	anregung	gütig	engagiert	vergnügt	kuss	besonnen	ausrottung	gierig	engstirnig	verbissen	krise	bange	1	blank2r.bmp	0	1	+	0	1	blank2r.bmp	500	7	C3r.bmp	500	1	blank2r.bmp	880	3	engstirnig	880	1	FEHLER	1673	1	!	1312	1	!	1381	0	0	0
2024-05-28	11:36:20	11:40:37	256871	6.6.1	4_exp_EVA_AWA_CON	56	A	B	Rpleas_acq	Oppo	Rpleas	2pleas	acq_new_pleas_nomask	acq2_nomask	2	28	480	0	300	300	0	0	386	46	0	0	vertrauen	kreativ	genießen	gesittet	träumen	sonnig	versagen	krank	gemein	geizig	töten	sterben	anregung	gütig	engagiert	vergnügt	kuss	besonnen	ausrottung	gierig	engstirnig	verbissen	krise	bange	1	blank2r.bmp	0	1	+	0	1	blank2r.bmp	500	3	B3r.bmp	500	1	blank2r.bmp	880	3	engagiert	880	1	FEHLER	1579	1	!	-1	1	!	-1	0	0	0
2024-05-28	11:36:20	11:40:39	259087	6.6.1	4_exp_EVA_AWA_CON	56	A	B	Rpleas_acq	Oppo	Rpleas	2pleas	acq_new_unple_nomask	acq2_nomask	2	29	480	1	300	300	0	0	441	50	0	0	vertrauen	kreativ	genießen	gesittet	träumen	sonnig	versagen	krank	gemein	geizig	töten	sterben	anregung	gütig	engagiert	vergnügt	kuss	besonnen	ausrottung	gierig	engstirnig	verbissen	krise	bange	1	blank2r.bmp	0	1	+	0	1	blank2r.bmp	500	6	C2r.bmp	500	1	blank2r.bmp	880	6	bange	880	1	FEHLER	1634	1	!	1312	1	!	1343	0	0	0
2024-05-28	11:36:20	11:40:41	261141	6.6.1	4_exp_EVA_AWA_CON	56	A	B	Rpleas_acq	Oppo	Rpleas	2pleas	acq_US_unple_nomask	acq2_nomask	2	30	480	1	300	300	0	0	476	46	1	0	vertrauen	kreativ	genießen	gesittet	träumen	sonnig	versagen	krank	gemein	geizig	töten	sterben	anregung	gütig	engagiert	vergnügt	kuss	besonnen	ausrottung	gierig	engstirnig	verbissen	krise	bange	1	blank2r.bmp	0	1	+	0	1	blank2r.bmp	500	1	CPLW	500	1	blank2r.bmp	880	5	töten	880	1	!	1312	1	!	1377	0	0	0	0	0	0
2024-05-28	11:36:20	11:40:44	263503	6.6.1	4_exp_EVA_AWA_CON	56	A	B	Rpleas_acq	Oppo	Rpleas	2pleas	acq_US_unple_nomask	acq2_nomask	2	31	480	0	300	300	0	0	384	50	0	0	vertrauen	kreativ	genießen	gesittet	träumen	sonnig	versagen	krank	gemein	geizig	töten	sterben	anregung	gütig	engagiert	vergnügt	kuss	besonnen	ausrottung	gierig	engstirnig	verbissen	krise	bange	1	blank2r.bmp	0	1	+	0	1	blank2r.bmp	500	1	CPLW	500	1	blank2r.bmp	880	6	sterben	880	1	FEHLER	1577	1	!	-1	1	!	-1	0	0	0
2024-05-28	11:36:20	11:40:46	265581	6.6.1	4_exp_EVA_AWA_CON	56	A	B	Rpleas_acq	Oppo	Rpleas	2pleas	acq_new_pleas_nomask	acq2_nomask	2	32	480	1	300	300	0	0	503	50	1	0	vertrauen	kreativ	genießen	gesittet	träumen	sonnig	versagen	krank	gemein	geizig	töten	sterben	anregung	gütig	engagiert	vergnügt	kuss	besonnen	ausrottung	gierig	engstirnig	verbissen	krise	bange	1	blank2r.bmp	0	1	+	0	1	blank2r.bmp	500	7	C3r.bmp	500	1	blank2r.bmp	880	6	besonnen	880	1	!	1312	1	!	1404	0	0	0	0	0	0
2024-05-28	11:36:20	11:40:48	267756	6.6.1	4_exp_EVA_AWA_CON	56	A	B	Rpleas_acq	Oppo	Rpleas	2pleas	acq_US_unple_nomask	acq2_nomask	2	33	480	0	300	300	0	0	397	46	1	0	vertrauen	kreativ	genießen	gesittet	träumen	sonnig	versagen	krank	gemein	geizig	töten	sterben	anregung	gütig	engagiert	vergnügt	kuss	besonnen	ausrottung	gierig	engstirnig	verbissen	krise	bange	1	blank2r.bmp	0	1	+	0	1	blank2r.bmp	500	1	CPLW	500	1	blank2r.bmp	880	4	geizig	880	1	!	-1	1	!	-1	0	0	0	0	0	0
2024-05-28	11:36:20	11:40:50	270021	6.6.1	4_exp_EVA_AWA_CON	56	A	B	Rpleas_acq	Oppo	Rpleas	2pleas	acq_new_pleas_nomask	acq2_nomask	2	34	480	1	300	300	0	0	489	50	1	0	vertrauen	kreativ	genießen	gesittet	träumen	sonnig	versagen	krank	gemein	geizig	töten	sterben	anregung	gütig	engagiert	vergnügt	kuss	besonnen	ausrottung	gierig	engstirnig	verbissen	krise	bange	1	blank2r.bmp	0	1	+	0	1	blank2r.bmp	500	5	C1r.bmp	500	1	blank2r.bmp	880	4	vergnügt	880	1	!	1312	1	!	1391	0	0	0	0	0	0
2024-05-28	11:36:20	11:40:52	272148	6.6.1	4_exp_EVA_AWA_CON	56	A	B	Rpleas_acq	Oppo	Rpleas	2pleas	acq_US_pleas_nomask	acq2_nomask	2	35	480	0	300	300	0	0	346	50	1	0	vertrauen	kreativ	genießen	gesittet	träumen	sonnig	versagen	krank	gemein	geizig	töten	sterben	anregung	gütig	engagiert	vergnügt	kuss	besonnen	ausrottung	gierig	engstirnig	verbissen	krise	bange	1	blank2r.bmp	0	1	+	0	1	blank2r.bmp	500	1	DHJF	500	1	blank2r.bmp	880	5	träumen	880	1	!	-1	1	!	-1	0	0	0	0	0	0
2024-05-28	11:36:20	11:40:55	274389	6.6.1	4_exp_EVA_AWA_CON	56	A	B	Rpleas_acq	Oppo	Rpleas	2pleas	acq_US_pleas_nomask	acq2_nomask	2	36	480	1	300	300	0	0	465	50	1	0	vertrauen	kreativ	genießen	gesittet	träumen	sonnig	versagen	krank	gemein	geizig	töten	sterben	anregung	gütig	engagiert	vergnügt	kuss	besonnen	ausrottung	gierig	engstirnig	verbissen	krise	bange	1	blank2r.bmp	0	1	+	0	1	blank2r.bmp	500	1	DHJF	500	1	blank2r.bmp	880	2	kreativ	880	1	!	1312	1	!	1366	0	0	0	0	0	0
2024-05-28	11:36:20	11:41:09	288981	6.6.1	4_exp_EVA_AWA_CON	56	A	B	Rpleas_acq	Oppo	Rpleas	2pleas	acq_US_pleas_nomask	acq3_nomask	3	1	453	1	300	300	0	0	467	50	1	0	vertrauen	kreativ	genießen	gesittet	träumen	sonnig	versagen	krank	gemein	geizig	töten	sterben	anregung	gütig	engagiert	vergnügt	kuss	besonnen	ausrottung	gierig	engstirnig	verbissen	krise	bange	1	blank2r.bmp	0	1	+	0	1	blank2r.bmp	500	1	DHJF	500	1	blank2r.bmp	880	4	gesittet	880	1	!	1292	1	!	1368	0	0	0	0	0	0
2024-05-28	11:36:20	11:41:11	291311	6.6.1	4_exp_EVA_AWA_CON	56	A	B	Rpleas_acq	Oppo	Rpleas	2pleas	acq_US_unple_nomask	acq3_nomask	3	2	453	0	300	300	0	0	354	50	0	0	vertrauen	kreativ	genießen	gesittet	träumen	sonnig	versagen	krank	gemein	geizig	töten	sterben	anregung	gütig	engagiert	vergnügt	kuss	besonnen	ausrottung	gierig	engstirnig	verbissen	krise	bange	1	blank2r.bmp	0	1	+	0	1	blank2r.bmp	500	1	CPLW	500	1	blank2r.bmp	880	6	sterben	880	1	FEHLER	1547	1	!	-1	1	!	-1	0	0	0
2024-05-28	11:36:20	11:41:14	293423	6.6.1	4_exp_EVA_AWA_CON	56	A	B	Rpleas_acq	Oppo	Rpleas	2pleas	acq_US_pleas_nomask	acq3_nomask	3	3	453	0	300	300	0	0	334	46	0	0	vertrauen	kreativ	genießen	gesittet	träumen	sonnig	versagen	krank	gemein	geizig	töten	sterben	anregung	gütig	engagiert	vergnügt	kuss	besonnen	ausrottung	gierig	engstirnig	verbissen	krise	bange	1	blank2r.bmp	0	1	+	0	1	blank2r.bmp	500	1	DHJF	500	1	blank2r.bmp	880	3	genießen	880	1	FEHLER	1528	1	!	-1	1	!	-1	0	0	0
2024-05-28	11:36:20	11:41:16	295430	6.6.1	4_exp_EVA_AWA_CON	56	A	B	Rpleas_acq	Oppo	Rpleas	2pleas	acq_US_pleas_nomask	acq3_nomask	3	4	453	1	300	300	0	0	432	50	1	0	vertrauen	kreativ	genießen	gesittet	träumen	sonnig	versagen	krank	gemein	geizig	töten	sterben	anregung	gütig	engagiert	vergnügt	kuss	besonnen	ausrottung	gierig	engstirnig	verbissen	krise	bange	1	blank2r.bmp	0	1	+	0	1	blank2r.bmp	500	1	DHJF	500	1	blank2r.bmp	880	1	vertrauen	880	1	!	1292	1	!	1332	0	0	0	0	0	0
2024-05-28	11:36:20	11:41:18	297588	6.6.1	4_exp_EVA_AWA_CON	56	A	B	Rpleas_acq	Oppo	Rpleas	2pleas	acq_US_unple_nomask	acq3_nomask	3	5	453	0	300	300	0	0	379	46	1	0	vertrauen	kreativ	genießen	gesittet	träumen	sonnig	versagen	krank	gemein	geizig	töten	sterben	anregung	gütig	engagiert	vergnügt	kuss	besonnen	ausrottung	gierig	engstirnig	verbissen	krise	bange	1	blank2r.bmp	0	1	+	0	1	blank2r.bmp	500	1	CPLW	500	1	blank2r.bmp	880	2	krank	880	1	!	-1	1	!	-1	0	0	0	0	0	0
2024-05-28	11:36:20	11:41:20	299996	6.6.1	4_exp_EVA_AWA_CON	56	A	B	Rpleas_acq	Oppo	Rpleas	2pleas	acq_US_unple_nomask	acq3_nomask	3	6	453	0	300	300	0	0	626	46	1	0	vertrauen	kreativ	genießen	gesittet	träumen	sonnig	versagen	krank	gemein	geizig	töten	sterben	anregung	gütig	engagiert	vergnügt	kuss	besonnen	ausrottung	gierig	engstirnig	verbissen	krise	bange	1	blank2r.bmp	0	1	+	0	1	blank2r.bmp	500	1	CPLW	500	1	blank2r.bmp	880	3	gemein	880	1	!	1292	1	!	-1	0	0	0	0	0	0
2024-05-28	11:36:20	11:41:22	302222	6.6.1	4_exp_EVA_AWA_CON	56	A	B	Rpleas_acq	Oppo	Rpleas	2pleas	acq_US_pleas_nomask	acq3_nomask	3	7	453	1	300	300	0	0	449	50	1	0	vertrauen	kreativ	genießen	gesittet	träumen	sonnig	versagen	krank	gemein	geizig	töten	sterben	anregung	gütig	engagiert	vergnügt	kuss	besonnen	ausrottung	gierig	engstirnig	verbissen	krise	bange	1	blank2r.bmp	0	1	+	0	1	blank2r.bmp	500	1	DHJF	500	1	blank2r.bmp	880	6	sonnig	880	1	!	1292	1	!	1350	0	0	0	0	0	0
2024-05-28	11:36:20	11:41:25	304445	6.6.1	4_exp_EVA_AWA_CON	56	A	B	Rpleas_acq	Oppo	Rpleas	2pleas	acq_US_unple_nomask	acq3_nomask	3	8	453	1	300	300	0	0	442	46	1	0	vertrauen	kreativ	genießen	gesittet	träumen	sonnig	versagen	krank	gemein	geizig	töten	sterben	anregung	gütig	engagiert	vergnügt	kuss	besonnen	ausrottung	gierig	engstirnig	verbissen	krise	bange	1	blank2r.bmp	0	1	+	0	1	blank2r.bmp	500	1	CPLW	500	1	blank2r.bmp	880	1	versagen	880	1	!	1292	1	!	1343	0	0	0	0	0	0
2024-05-28	11:36:20	11:41:27	306653	6.6.1	4_exp_EVA_AWA_CON	56	A	B	Rpleas_acq	Oppo	Rpleas	2pleas	acq_US_pleas_nomask	acq3_nomask	3	9	453	1	300	300	0	0	427	50	1	0	vertrauen	kreativ	genießen	gesittet	träumen	sonnig	versagen	krank	gemein	geizig	töten	sterben	anregung	gütig	engagiert	vergnügt	kuss	besonnen	ausrottung	gierig	engstirnig	verbissen	krise	bange	1	blank2r.bmp	0	1	+	0	1	blank2r.bmp	500	1	DHJF	500	1	blank2r.bmp	880	5	träumen	880	1	!	1292	1	!	1329	0	0	0	0	0	0
2024-05-28	11:36:20	11:41:29	308820	6.6.1	4_exp_EVA_AWA_CON	56	A	B	Rpleas_acq	Oppo	Rpleas	2pleas	acq_US_unple_nomask	acq3_nomask	3	10	453	0	300	300	0	0	384	46	1	0	vertrauen	kreativ	genießen	gesittet	träumen	sonnig	versagen	krank	gemein	geizig	töten	sterben	anregung	gütig	engagiert	vergnügt	kuss	besonnen	ausrottung	gierig	engstirnig	verbissen	krise	bange	1	blank2r.bmp	0	1	+	0	1	blank2r.bmp	500	1	CPLW	500	1	blank2r.bmp	880	5	töten	880	1	!	-1	1	!	-1	0	0	0	0	0	0
2024-05-28	11:36:20	11:41:31	310996	6.6.1	4_exp_EVA_AWA_CON	56	A	B	Rpleas_acq	Oppo	Rpleas	2pleas	acq_US_pleas_nomask	acq3_nomask	3	11	453	1	300	300	0	0	400	50	1	0	vertrauen	kreativ	genießen	gesittet	träumen	sonnig	versagen	krank	gemein	geizig	töten	sterben	anregung	gütig	engagiert	vergnügt	kuss	besonnen	ausrottung	gierig	engstirnig	verbissen	krise	bange	1	blank2r.bmp	0	1	+	0	1	blank2r.bmp	500	1	DHJF	500	1	blank2r.bmp	880	2	kreativ	880	1	!	1293	1	!	1299	0	0	0	0	0	0
2024-05-28	11:36:20	11:41:33	313180	6.6.1	4_exp_EVA_AWA_CON	56	A	B	Rpleas_acq	Oppo	Rpleas	2pleas	acq_US_unple_nomask	acq3_nomask	3	12	453	1	300	300	0	0	402	46	1	0	vertrauen	kreativ	genießen	gesittet	träumen	sonnig	versagen	krank	gemein	geizig	töten	sterben	anregung	gütig	engagiert	vergnügt	kuss	besonnen	ausrottung	gierig	engstirnig	verbissen	krise	bange	1	blank2r.bmp	0	1	+	0	1	blank2r.bmp	500	1	CPLW	500	1	blank2r.bmp	880	4	geizig	880	1	!	1293	1	!	1301	0	0	0	0	0	0
2024-05-28	11:36:20	11:41:36	315356	6.6.1	4_exp_EVA_AWA_CON	56	A	B	Rpleas_acq	Oppo	Rpleas	2pleas	acq_US_unple_nomask	acq3_nomask	3	13	453	1	300	300	0	0	397	46	1	0	vertrauen	kreativ	genießen	gesittet	träumen	sonnig	versagen	krank	gemein	geizig	töten	sterben	anregung	gütig	engagiert	vergnügt	kuss	besonnen	ausrottung	gierig	engstirnig	verbissen	krise	bange	1	blank2r.bmp	0	1	+	0	1	blank2r.bmp	500	1	CPLW	500	1	blank2r.bmp	880	2	krank	880	1	!	1292	1	!	1296	0	0	0	0	0	0
2024-05-28	11:36:20	11:41:38	317525	6.6.1	4_exp_EVA_AWA_CON	56	A	B	Rpleas_acq	Oppo	Rpleas	2pleas	acq_US_unple_nomask	acq3_nomask	3	14	453	1	300	300	0	0	393	46	1	0	vertrauen	kreativ	genießen	gesittet	träumen	sonnig	versagen	krank	gemein	geizig	töten	sterben	anregung	gütig	engagiert	vergnügt	kuss	besonnen	ausrottung	gierig	engstirnig	verbissen	krise	bange	1	blank2r.bmp	0	1	+	0	1	blank2r.bmp	500	1	CPLW	500	1	blank2r.bmp	880	4	geizig	880	1	!	1292	1	!	1293	0	0	0	0	0	0
2024-05-28	11:36:20	11:41:40	319684	6.6.1	4_exp_EVA_AWA_CON	56	A	B	Rpleas_acq	Oppo	Rpleas	2pleas	acq_US_unple_nomask	acq3_nomask	3	15	453	0	300	300	0	0	382	46	1	0	vertrauen	kreativ	genießen	gesittet	träumen	sonnig	versagen	krank	gemein	geizig	töten	sterben	anregung	gütig	engagiert	vergnügt	kuss	besonnen	ausrottung	gierig	engstirnig	verbissen	krise	bange	1	blank2r.bmp	0	1	+	0	1	blank2r.bmp	500	1	CPLW	500	1	blank2r.bmp	880	6	sterben	880	1	!	-1	1	!	-1	0	0	0	0	0	0
2024-05-28	11:36:20	11:41:42	321828	6.6.1	4_exp_EVA_AWA_CON	56	A	B	Rpleas_acq	Oppo	Rpleas	2pleas	acq_US_pleas_nomask	acq3_nomask	3	16	453	0	300	300	0	0	365	50	1	0	vertrauen	kreativ	genießen	gesittet	träumen	sonnig	versagen	krank	gemein	geizig	töten	sterben	anregung	gütig	engagiert	vergnügt	kuss	besonnen	ausrottung	gierig	engstirnig	verbissen	krise	bange	1	blank2r.bmp	0	1	+	0	1	blank2r.bmp	500	1	DHJF	500	1	blank2r.bmp	880	6	sonnig	880	1	!	-1	1	!	-1	0	0	0	0	0	0
2024-05-28	11:36:20	11:41:44	324070	6.6.1	4_exp_EVA_AWA_CON	56	A	B	Rpleas_acq	Oppo	Rpleas	2pleas	acq_US_unple_nomask	acq3_nomask	3	17	453	1	300	300	0	0	463	46	1	0	vertrauen	kreativ	genießen	gesittet	träumen	sonnig	versagen	krank	gemein	geizig	töten	sterben	anregung	gütig	engagiert	vergnügt	kuss	besonnen	ausrottung	gierig	engstirnig	verbissen	krise	bange	1	blank2r.bmp	0	1	+	0	1	blank2r.bmp	500	1	CPLW	500	1	blank2r.bmp	880	3	gemein	880	1	!	1292	1	!	1364	0	0	0	0	0	0
2024-05-28	11:36:20	11:41:46	326124	6.6.1	4_exp_EVA_AWA_CON	56	A	B	Rpleas_acq	Oppo	Rpleas	2pleas	acq_US_pleas_nomask	acq3_nomask	3	18	453	0	300	300	0	0	278	50	1	0	vertrauen	kreativ	genießen	gesittet	träumen	sonnig	versagen	krank	gemein	geizig	töten	sterben	anregung	gütig	engagiert	vergnügt	kuss	besonnen	ausrottung	gierig	engstirnig	verbissen	krise	bange	1	blank2r.bmp	0	1	+	0	1	blank2r.bmp	500	1	DHJF	500	1	blank2r.bmp	880	5	träumen	880	1	!	-1	1	!	-1	0	0	0	0	0	0
2024-05-28	11:36:20	11:41:48	328318	6.6.1	4_exp_EVA_AWA_CON	56	A	B	Rpleas_acq	Oppo	Rpleas	2pleas	acq_US_unple_nomask	acq3_nomask	3	19	453	1	300	300	0	0	419	46	1	0	vertrauen	kreativ	genießen	gesittet	träumen	sonnig	versagen	krank	gemein	geizig	töten	sterben	anregung	gütig	engagiert	vergnügt	kuss	besonnen	ausrottung	gierig	engstirnig	verbissen	krise	bange	1	blank2r.bmp	0	1	+	0	1	blank2r.bmp	500	1	CPLW	500	1	blank2r.bmp	880	5	töten	880	1	!	1293	1	!	1319	0	0	0	0	0	0
2024-05-28	11:36:20	11:41:51	330500	6.6.1	4_exp_EVA_AWA_CON	56	A	B	Rpleas_acq	Oppo	Rpleas	2pleas	acq_US_pleas_nomask	acq3_nomask	3	20	453	1	300	300	0	0	401	50	1	0	vertrauen	kreativ	genießen	gesittet	träumen	sonnig	versagen	krank	gemein	geizig	töten	sterben	anregung	gütig	engagiert	vergnügt	kuss	besonnen	ausrottung	gierig	engstirnig	verbissen	krise	bange	1	blank2r.bmp	0	1	+	0	1	blank2r.bmp	500	1	DHJF	500	1	blank2r.bmp	880	2	kreativ	880	1	!	1293	1	!	1300	0	0	0	0	0	0
2024-05-28	11:36:20	11:41:53	332832	6.6.1	4_exp_EVA_AWA_CON	56	A	B	Rpleas_acq	Oppo	Rpleas	2pleas	acq_US_pleas_nomask	acq3_nomask	3	21	453	0	300	300	0	0	348	46	0	0	vertrauen	kreativ	genießen	gesittet	träumen	sonnig	versagen	krank	gemein	geizig	töten	sterben	anregung	gütig	engagiert	vergnügt	kuss	besonnen	ausrottung	gierig	engstirnig	verbissen	krise	bange	1	blank2r.bmp	0	1	+	0	1	blank2r.bmp	500	1	DHJF	500	1	blank2r.bmp	880	1	vertrauen	880	1	FEHLER	1541	1	!	-1	1	!	-1	0	0	0
2024-05-28	11:36:20	11:41:55	334991	6.6.1	4_exp_EVA_AWA_CON	56	A	B	Rpleas_acq	Oppo	Rpleas	2pleas	acq_US_pleas_nomask	acq3_nomask	3	22	453	0	300	300	0	0	386	46	0	0	vertrauen	kreativ	genießen	gesittet	träumen	sonnig	versagen	krank	gemein	geizig	töten	sterben	anregung	gütig	engagiert	vergnügt	kuss	besonnen	ausrottung	gierig	engstirnig	verbissen	krise	bange	1	blank2r.bmp	0	1	+	0	1	blank2r.bmp	500	1	DHJF	500	1	blank2r.bmp	880	3	genießen	880	1	FEHLER	1579	1	!	-1	1	!	-1	0	0	0
2024-05-28	11:36:20	11:41:57	337228	6.6.1	4_exp_EVA_AWA_CON	56	A	B	Rpleas_acq	Oppo	Rpleas	2pleas	acq_US_unple_nomask	acq3_nomask	3	23	453	0	300	300	0	0	665	46	1	0	vertrauen	kreativ	genießen	gesittet	träumen	sonnig	versagen	krank	gemein	geizig	töten	sterben	anregung	gütig	engagiert	vergnügt	kuss	besonnen	ausrottung	gierig	engstirnig	verbissen	krise	bange	1	blank2r.bmp	0	1	+	0	1	blank2r.bmp	500	1	CPLW	500	1	blank2r.bmp	880	1	versagen	880	1	!	1293	1	!	-1	0	0	0	0	0	0
2024-05-28	11:36:20	11:42:00	339671	6.6.1	4_exp_EVA_AWA_CON	56	A	B	Rpleas_acq	Oppo	Rpleas	2pleas	acq_US_pleas_nomask	acq3_nomask	3	24	453	1	300	300	0	0	463	46	0	0	vertrauen	kreativ	genießen	gesittet	träumen	sonnig	versagen	krank	gemein	geizig	töten	sterben	anregung	gütig	engagiert	vergnügt	kuss	besonnen	ausrottung	gierig	engstirnig	verbissen	krise	bange	1	blank2r.bmp	0	1	+	0	1	blank2r.bmp	500	1	DHJF	500	1	blank2r.bmp	880	4	gesittet	880	1	FEHLER	1656	1	!	1292	1	!	1364	0	0	0
2024-05-28	11:36:20	11:42:02	341644	6.6.1	4_exp_EVA_AWA_CON	56	A	B	Rpleas_acq	Oppo	Rpleas	2pleas	acq_US_unple_nomask	acq3_nomask	3	25	453	1	300	300	0	0	397	46	1	0	vertrauen	kreativ	genießen	gesittet	träumen	sonnig	versagen	krank	gemein	geizig	töten	sterben	anregung	gütig	engagiert	vergnügt	kuss	besonnen	ausrottung	gierig	engstirnig	verbissen	krise	bange	1	blank2r.bmp	0	1	+	0	1	blank2r.bmp	500	1	CPLW	500	1	blank2r.bmp	880	4	geizig	880	1	!	1292	1	!	1297	0	0	0	0	0	0
2024-05-28	11:36:20	11:42:04	343845	6.6.1	4_exp_EVA_AWA_CON	56	A	B	Rpleas_acq	Oppo	Rpleas	2pleas	acq_US_pleas_nomask	acq3_nomask	3	26	453	1	300	300	0	0	427	50	1	0	vertrauen	kreativ	genießen	gesittet	träumen	sonnig	versagen	krank	gemein	geizig	töten	sterben	anregung	gütig	engagiert	vergnügt	kuss	besonnen	ausrottung	gierig	engstirnig	verbissen	krise	bange	1	blank2r.bmp	0	1	+	0	1	blank2r.bmp	500	1	DHJF	500	1	blank2r.bmp	880	5	träumen	880	1	!	1293	1	!	1327	0	0	0	0	0	0
2024-05-28	11:36:20	11:42:06	346094	6.6.1	4_exp_EVA_AWA_CON	56	A	B	Rpleas_acq	Oppo	Rpleas	2pleas	acq_US_unple_nomask	acq3_nomask	3	27	453	1	300	300	0	0	473	46	1	0	vertrauen	kreativ	genießen	gesittet	träumen	sonnig	versagen	krank	gemein	geizig	töten	sterben	anregung	gütig	engagiert	vergnügt	kuss	besonnen	ausrottung	gierig	engstirnig	verbissen	krise	bange	1	blank2r.bmp	0	1	+	0	1	blank2r.bmp	500	1	CPLW	500	1	blank2r.bmp	880	2	krank	880	1	!	1292	1	!	1374	0	0	0	0	0	0
2024-05-28	11:36:20	11:42:08	348277	6.6.1	4_exp_EVA_AWA_CON	56	A	B	Rpleas_acq	Oppo	Rpleas	2pleas	acq_US_pleas_nomask	acq3_nomask	3	28	453	1	300	300	0	0	405	50	1	0	vertrauen	kreativ	genießen	gesittet	träumen	sonnig	versagen	krank	gemein	geizig	töten	sterben	anregung	gütig	engagiert	vergnügt	kuss	besonnen	ausrottung	gierig	engstirnig	verbissen	krise	bange	1	blank2r.bmp	0	1	+	0	1	blank2r.bmp	500	1	DHJF	500	1	blank2r.bmp	880	6	sonnig	880	1	!	1292	1	!	1306	0	0	0	0	0	0
2024-05-28	11:36:20	11:42:11	350607	6.6.1	4_exp_EVA_AWA_CON	56	A	B	Rpleas_acq	Oppo	Rpleas	2pleas	acq_US_pleas_nomask	acq3_nomask	3	29	453	0	300	300	0	0	351	46	0	0	vertrauen	kreativ	genießen	gesittet	träumen	sonnig	versagen	krank	gemein	geizig	töten	sterben	anregung	gütig	engagiert	vergnügt	kuss	besonnen	ausrottung	gierig	engstirnig	verbissen	krise	bange	1	blank2r.bmp	0	1	+	0	1	blank2r.bmp	500	1	DHJF	500	1	blank2r.bmp	880	2	kreativ	880	1	FEHLER	1545	1	!	-1	1	!	-1	0	0	0
2024-05-28	11:36:20	11:42:15	354540	6.6.1	4_exp_EVA_AWA_CON	56	A	B	Rpleas_acq	Oppo	Rpleas	2pleas	acq_US_pleas_nomask	acq3_nomask	3	30	453	0	300	300	0	0	2357	50	1	0	vertrauen	kreativ	genießen	gesittet	träumen	sonnig	versagen	krank	gemein	geizig	töten	sterben	anregung	gütig	engagiert	vergnügt	kuss	besonnen	ausrottung	gierig	engstirnig	verbissen	krise	bange	1	blank2r.bmp	0	1	+	0	1	blank2r.bmp	500	1	DHJF	500	1	blank2r.bmp	880	4	gesittet	880	1	!	1292	1	!	-1	0	0	0	0	0	0
2024-05-28	11:36:20	11:42:17	356798	6.6.1	4_exp_EVA_AWA_CON	56	A	B	Rpleas_acq	Oppo	Rpleas	2pleas	acq_US_unple_nomask	acq3_nomask	3	31	453	1	300	300	0	0	479	46	1	0	vertrauen	kreativ	genießen	gesittet	träumen	sonnig	versagen	krank	gemein	geizig	töten	sterben	anregung	gütig	engagiert	vergnügt	kuss	besonnen	ausrottung	gierig	engstirnig	verbissen	krise	bange	1	blank2r.bmp	0	1	+	0	1	blank2r.bmp	500	1	CPLW	500	1	blank2r.bmp	880	5	töten	880	1	!	1292	1	!	1382	0	0	0	0	0	0
2024-05-28	11:36:20	11:42:19	358964	6.6.1	4_exp_EVA_AWA_CON	56	A	B	Rpleas_acq	Oppo	Rpleas	2pleas	acq_US_pleas_nomask	acq3_nomask	3	32	453	0	300	300	0	0	387	50	1	0	vertrauen	kreativ	genießen	gesittet	träumen	sonnig	versagen	krank	gemein	geizig	töten	sterben	anregung	gütig	engagiert	vergnügt	kuss	besonnen	ausrottung	gierig	engstirnig	verbissen	krise	bange	1	blank2r.bmp	0	1	+	0	1	blank2r.bmp	500	1	DHJF	500	1	blank2r.bmp	880	1	vertrauen	880	1	!	-1	1	!	-1	0	0	0	0	0	0
2024-05-28	11:36:20	11:42:21	361266	6.6.1	4_exp_EVA_AWA_CON	56	A	B	Rpleas_acq	Oppo	Rpleas	2pleas	acq_US_unple_nomask	acq3_nomask	3	33	453	0	300	300	0	0	530	46	1	0	vertrauen	kreativ	genießen	gesittet	träumen	sonnig	versagen	krank	gemein	geizig	töten	sterben	anregung	gütig	engagiert	vergnügt	kuss	besonnen	ausrottung	gierig	engstirnig	verbissen	krise	bange	1	blank2r.bmp	0	1	+	0	1	blank2r.bmp	500	1	CPLW	500	1	blank2r.bmp	880	3	gemein	880	1	!	1292	1	!	-1	0	0	0	0	0	0
2024-05-28	11:36:20	11:42:24	363684	6.6.1	4_exp_EVA_AWA_CON	56	A	B	Rpleas_acq	Oppo	Rpleas	2pleas	acq_US_unple_nomask	acq3_nomask	3	34	453	0	300	300	0	0	643	46	1	0	vertrauen	kreativ	genießen	gesittet	träumen	sonnig	versagen	krank	gemein	geizig	töten	sterben	anregung	gütig	engagiert	vergnügt	kuss	besonnen	ausrottung	gierig	engstirnig	verbissen	krise	bange	1	blank2r.bmp	0	1	+	0	1	blank2r.bmp	500	1	CPLW	500	1	blank2r.bmp	880	6	sterben	880	1	!	1293	1	!	-1	0	0	0	0	0	0
2024-05-28	11:36:20	11:42:26	365860	6.6.1	4_exp_EVA_AWA_CON	56	A	B	Rpleas_acq	Oppo	Rpleas	2pleas	acq_US_pleas_nomask	acq3_nomask	3	35	453	1	300	300	0	0	397	50	1	0	vertrauen	kreativ	genießen	gesittet	träumen	sonnig	versagen	krank	gemein	geizig	töten	sterben	anregung	gütig	engagiert	vergnügt	kuss	besonnen	ausrottung	gierig	engstirnig	verbissen	krise	bange	1	blank2r.bmp	0	1	+	0	1	blank2r.bmp	500	1	DHJF	500	1	blank2r.bmp	880	3	genießen	880	1	!	1292	1	!	1297	0	0	0	0	0	0
2024-05-28	11:36:20	11:42:28	368141	6.6.1	4_exp_EVA_AWA_CON	56	A	B	Rpleas_acq	Oppo	Rpleas	2pleas	acq_US_unple_nomask	acq3_nomask	3	36	453	1	300	300	0	0	506	46	1	0	vertrauen	kreativ	genießen	gesittet	träumen	sonnig	versagen	krank	gemein	geizig	töten	sterben	anregung	gütig	engagiert	vergnügt	kuss	besonnen	ausrottung	gierig	engstirnig	verbissen	krise	bange	1	blank2r.bmp	0	1	+	0	1	blank2r.bmp	500	1	CPLW	500	1	blank2r.bmp	880	1	versagen	880	1	!	1293	1	!	1408	0	0	0	0	0	0
2024-05-28	11:36:20	11:42:44	383540	6.6.1	4_exp_EVA_AWA_CON	56	A	B	Rpleas_acq	Oppo	Rpleas	2pleas	acq_US_unple_nomask	acq45_nomask	4	1	400	0	300	300	0	0	527	46	1	0	vertrauen	kreativ	genießen	gesittet	träumen	sonnig	versagen	krank	gemein	geizig	töten	sterben	anregung	gütig	engagiert	vergnügt	kuss	besonnen	ausrottung	gierig	engstirnig	verbissen	krise	bange	1	blank2r.bmp	0	1	+	0	1	blank2r.bmp	500	1	CPLW	500	1	blank2r.bmp	880	3	gemein	880	1	!	1232	1	!	-1	0	0	0	0	0	0
2024-05-28	11:36:20	11:42:46	385766	6.6.1	4_exp_EVA_AWA_CON	56	A	B	Rpleas_acq	Oppo	Rpleas	2pleas	acq_US_unple_nomask	acq45_nomask	4	2	400	1	300	300	0	0	449	46	1	0	vertrauen	kreativ	genießen	gesittet	träumen	sonnig	versagen	krank	gemein	geizig	töten	sterben	anregung	gütig	engagiert	vergnügt	kuss	besonnen	ausrottung	gierig	engstirnig	verbissen	krise	bange	1	blank2r.bmp	0	1	+	0	1	blank2r.bmp	500	1	CPLW	500	1	blank2r.bmp	880	5	töten	880	1	!	1232	1	!	1350	0	0	0	0	0	0
2024-05-28	11:36:20	11:42:48	388212	6.6.1	4_exp_EVA_AWA_CON	56	A	B	Rpleas_acq	Oppo	Rpleas	2pleas	acq_US_unple_nomask	acq45_nomask	4	3	400	0	300	300	0	0	666	46	1	0	vertrauen	kreativ	genießen	gesittet	träumen	sonnig	versagen	krank	gemein	geizig	töten	sterben	anregung	gütig	engagiert	vergnügt	kuss	besonnen	ausrottung	gierig	engstirnig	verbissen	krise	bange	1	blank2r.bmp	0	1	+	0	1	blank2r.bmp	500	1	CPLW	500	1	blank2r.bmp	880	4	geizig	880	1	!	1232	1	!	-1	0	0	0	0	0	0
2024-05-28	11:36:20	11:42:51	390390	6.6.1	4_exp_EVA_AWA_CON	56	A	B	Rpleas_acq	Oppo	Rpleas	2pleas	acq_US_pleas_nomask	acq45_nomask	4	4	400	1	300	300	0	0	401	50	1	0	vertrauen	kreativ	genießen	gesittet	träumen	sonnig	versagen	krank	gemein	geizig	töten	sterben	anregung	gütig	engagiert	vergnügt	kuss	besonnen	ausrottung	gierig	engstirnig	verbissen	krise	bange	1	blank2r.bmp	0	1	+	0	1	blank2r.bmp	500	1	DHJF	500	1	blank2r.bmp	880	5	träumen	880	1	!	1232	1	!	1302	0	0	0	0	0	0
2024-05-28	11:36:20	11:42:53	392550	6.6.1	4_exp_EVA_AWA_CON	56	A	B	Rpleas_acq	Oppo	Rpleas	2pleas	acq_US_unple_nomask	acq45_nomask	4	5	400	1	300	300	0	0	379	46	1	0	vertrauen	kreativ	genießen	gesittet	träumen	sonnig	versagen	krank	gemein	geizig	töten	sterben	anregung	gütig	engagiert	vergnügt	kuss	besonnen	ausrottung	gierig	engstirnig	verbissen	krise	bange	1	blank2r.bmp	0	1	+	0	1	blank2r.bmp	500	1	CPLW	500	1	blank2r.bmp	880	6	sterben	880	1	!	1232	1	!	1280	0	0	0	0	0	0
2024-05-28	11:36:20	11:42:55	394757	6.6.1	4_exp_EVA_AWA_CON	56	A	B	Rpleas_acq	Oppo	Rpleas	2pleas	acq_US_unple_nomask	acq45_nomask	4	6	400	1	300	300	0	0	425	50	0	0	vertrauen	kreativ	genießen	gesittet	träumen	sonnig	versagen	krank	gemein	geizig	töten	sterben	anregung	gütig	engagiert	vergnügt	kuss	besonnen	ausrottung	gierig	engstirnig	verbissen	krise	bange	1	blank2r.bmp	0	1	+	0	1	blank2r.bmp	500	1	CPLW	500	1	blank2r.bmp	880	2	krank	880	1	!	1232	1	!	1326	0	0	0	0	0	0
2024-05-28	11:36:20	11:42:57	396949	6.6.1	4_exp_EVA_AWA_CON	56	A	B	Rpleas_acq	Oppo	Rpleas	2pleas	acq_US_pleas_nomask	acq45_nomask	4	7	400	1	300	300	0	0	416	50	1	0	vertrauen	kreativ	genießen	gesittet	träumen	sonnig	versagen	krank	gemein	geizig	töten	sterben	anregung	gütig	engagiert	vergnügt	kuss	besonnen	ausrottung	gierig	engstirnig	verbissen	krise	bange	1	blank2r.bmp	0	1	+	0	1	blank2r.bmp	500	1	DHJF	500	1	blank2r.bmp	880	6	sonnig	880	1	!	1232	1	!	1317	0	0	0	0	0	0
2024-05-28	11:36:20	11:42:59	399126	6.6.1	4_exp_EVA_AWA_CON	56	A	B	Rpleas_acq	Oppo	Rpleas	2pleas	acq_US_unple_nomask	acq45_nomask	4	8	400	1	300	300	0	0	401	46	1	0	vertrauen	kreativ	genießen	gesittet	träumen	sonnig	versagen	krank	gemein	geizig	töten	sterben	anregung	gütig	engagiert	vergnügt	kuss	besonnen	ausrottung	gierig	engstirnig	verbissen	krise	bange	1	blank2r.bmp	0	1	+	0	1	blank2r.bmp	500	1	CPLW	500	1	blank2r.bmp	880	1	versagen	880	1	!	1232	1	!	1302	0	0	0	0	0	0
2024-05-28	11:36:20	11:43:01	401326	6.6.1	4_exp_EVA_AWA_CON	56	A	B	Rpleas_acq	Oppo	Rpleas	2pleas	acq_US_pleas_nomask	acq45_nomask	4	9	400	1	300	300	0	0	420	50	1	0	vertrauen	kreativ	genießen	gesittet	träumen	sonnig	versagen	krank	gemein	geizig	töten	sterben	anregung	gütig	engagiert	vergnügt	kuss	besonnen	ausrottung	gierig	engstirnig	verbissen	krise	bange	1	blank2r.bmp	0	1	+	0	1	blank2r.bmp	500	1	DHJF	500	1	blank2r.bmp	880	3	genießen	880	1	!	1232	1	!	1321	0	0	0	0	0	0
2024-05-28	11:36:20	11:43:04	403485	6.6.1	4_exp_EVA_AWA_CON	56	A	B	Rpleas_acq	Oppo	Rpleas	2pleas	acq_US_pleas_nomask	acq45_nomask	4	10	400	1	300	300	0	0	377	50	1	0	vertrauen	kreativ	genießen	gesittet	träumen	sonnig	versagen	krank	gemein	geizig	töten	sterben	anregung	gütig	engagiert	vergnügt	kuss	besonnen	ausrottung	gierig	engstirnig	verbissen	krise	bange	1	blank2r.bmp	0	1	+	0	1	blank2r.bmp	500	1	DHJF	500	1	blank2r.bmp	880	2	kreativ	880	1	!	1232	1	!	1279	0	0	0	0	0	0
2024-05-28	11:36:20	11:43:06	405476	6.6.1	4_exp_EVA_AWA_CON	56	A	B	Rpleas_acq	Oppo	Rpleas	2pleas	acq_US_pleas_nomask	acq45_nomask	4	11	400	0	300	300	0	0	218	46	0	0	vertrauen	kreativ	genießen	gesittet	träumen	sonnig	versagen	krank	gemein	geizig	töten	sterben	anregung	gütig	engagiert	vergnügt	kuss	besonnen	ausrottung	gierig	engstirnig	verbissen	krise	bange	1	blank2r.bmp	0	1	+	0	1	blank2r.bmp	500	1	DHJF	500	1	blank2r.bmp	880	4	gesittet	880	1	!	-1	1	!	-1	0	0	0	0	0	0
2024-05-28	11:36:20	11:43:08	407686	6.6.1	4_exp_EVA_AWA_CON	56	A	B	Rpleas_acq	Oppo	Rpleas	2pleas	acq_US_pleas_nomask	acq45_nomask	4	12	400	1	300	300	0	0	436	50	1	0	vertrauen	kreativ	genießen	gesittet	träumen	sonnig	versagen	krank	gemein	geizig	töten	sterben	anregung	gütig	engagiert	vergnügt	kuss	besonnen	ausrottung	gierig	engstirnig	verbissen	krise	bange	1	blank2r.bmp	0	1	+	0	1	blank2r.bmp	500	1	DHJF	500	1	blank2r.bmp	880	1	vertrauen	880	1	!	1233	1	!	1337	0	0	0	0	0	0
2024-05-28	11:36:20	11:43:10	409938	6.6.1	4_exp_EVA_AWA_CON	56	A	B	Rpleas_acq	Oppo	Rpleas	2pleas	acq_US_unple_nomask	acq45_nomask	4	13	400	0	300	300	0	0	480	46	1	0	vertrauen	kreativ	genießen	gesittet	träumen	sonnig	versagen	krank	gemein	geizig	töten	sterben	anregung	gütig	engagiert	vergnügt	kuss	besonnen	ausrottung	gierig	engstirnig	verbissen	krise	bange	1	blank2r.bmp	0	1	+	0	1	blank2r.bmp	500	1	CPLW	500	1	blank2r.bmp	880	3	gemein	880	1	!	1232	1	!	-1	0	0	0	0	0	0
2024-05-28	11:36:20	11:43:12	412004	6.6.1	4_exp_EVA_AWA_CON	56	A	B	Rpleas_acq	Oppo	Rpleas	2pleas	acq_US_unple_nomask	acq45_nomask	4	14	400	0	300	300	0	0	293	50	0	0	vertrauen	kreativ	genießen	gesittet	träumen	sonnig	versagen	krank	gemein	geizig	töten	sterben	anregung	gütig	engagiert	vergnügt	kuss	besonnen	ausrottung	gierig	engstirnig	verbissen	krise	bange	1	blank2r.bmp	0	1	+	0	1	blank2r.bmp	500	1	CPLW	500	1	blank2r.bmp	880	6	sterben	880	1	!	-1	1	!	-1	0	0	0	0	0	0
2024-05-28	11:36:20	11:43:14	414198	6.6.1	4_exp_EVA_AWA_CON	56	A	B	Rpleas_acq	Oppo	Rpleas	2pleas	acq_US_pleas_nomask	acq45_nomask	4	15	400	1	300	300	0	0	413	50	1	0	vertrauen	kreativ	genießen	gesittet	träumen	sonnig	versagen	krank	gemein	geizig	töten	sterben	anregung	gütig	engagiert	vergnügt	kuss	besonnen	ausrottung	gierig	engstirnig	verbissen	krise	bange	1	blank2r.bmp	0	1	+	0	1	blank2r.bmp	500	1	DHJF	500	1	blank2r.bmp	880	2	kreativ	880	1	!	1232	1	!	1314	0	0	0	0	0	0
2024-05-28	11:36:20	11:43:17	416413	6.6.1	4_exp_EVA_AWA_CON	56	A	B	Rpleas_acq	Oppo	Rpleas	2pleas	acq_US_pleas_nomask	acq45_nomask	4	16	400	1	300	300	0	0	437	50	1	0	vertrauen	kreativ	genießen	gesittet	träumen	sonnig	versagen	krank	gemein	geizig	töten	sterben	anregung	gütig	engagiert	vergnügt	kuss	besonnen	ausrottung	gierig	engstirnig	verbissen	krise	bange	1	blank2r.bmp	0	1	+	0	1	blank2r.bmp	500	1	DHJF	500	1	blank2r.bmp	880	1	vertrauen	880	1	!	1232	1	!	1339	0	0	0	0	0	0
2024-05-28	11:36:20	11:43:19	418573	6.6.1	4_exp_EVA_AWA_CON	56	A	B	Rpleas_acq	Oppo	Rpleas	2pleas	acq_US_unple_nomask	acq45_nomask	4	17	400	1	300	300	0	0	386	46	1	0	vertrauen	kreativ	genießen	gesittet	träumen	sonnig	versagen	krank	gemein	geizig	töten	sterben	anregung	gütig	engagiert	vergnügt	kuss	besonnen	ausrottung	gierig	engstirnig	verbissen	krise	bange	1	blank2r.bmp	0	1	+	0	1	blank2r.bmp	500	1	CPLW	500	1	blank2r.bmp	880	5	töten	880	1	!	1233	1	!	1287	0	0	0	0	0	0
2024-05-28	11:36:20	11:43:21	420733	6.6.1	4_exp_EVA_AWA_CON	56	A	B	Rpleas_acq	Oppo	Rpleas	2pleas	acq_US_pleas_nomask	acq45_nomask	4	18	400	1	300	300	0	0	385	50	1	0	vertrauen	kreativ	genießen	gesittet	träumen	sonnig	versagen	krank	gemein	geizig	töten	sterben	anregung	gütig	engagiert	vergnügt	kuss	besonnen	ausrottung	gierig	engstirnig	verbissen	krise	bange	1	blank2r.bmp	0	1	+	0	1	blank2r.bmp	500	1	DHJF	500	1	blank2r.bmp	880	4	gesittet	880	1	!	1232	1	!	1286	0	0	0	0	0	0
2024-05-28	11:36:20	11:43:23	423012	6.6.1	4_exp_EVA_AWA_CON	56	A	B	Rpleas_acq	Oppo	Rpleas	2pleas	acq_US_unple_nomask	acq45_nomask	4	19	400	0	300	300	0	0	504	46	1	0	vertrauen	kreativ	genießen	gesittet	träumen	sonnig	versagen	krank	gemein	geizig	töten	sterben	anregung	gütig	engagiert	vergnügt	kuss	besonnen	ausrottung	gierig	engstirnig	verbissen	krise	bange	1	blank2r.bmp	0	1	+	0	1	blank2r.bmp	500	1	CPLW	500	1	blank2r.bmp	880	1	versagen	880	1	!	1232	1	!	-1	0	0	0	0	0	0
2024-05-28	11:36:20	11:43:25	425292	6.6.1	4_exp_EVA_AWA_CON	56	A	B	Rpleas_acq	Oppo	Rpleas	2pleas	acq_US_unple_nomask	acq45_nomask	4	20	400	0	300	300	0	0	501	46	1	0	vertrauen	kreativ	genießen	gesittet	träumen	sonnig	versagen	krank	gemein	geizig	töten	sterben	anregung	gütig	engagiert	vergnügt	kuss	besonnen	ausrottung	gierig	engstirnig	verbissen	krise	bange	1	blank2r.bmp	0	1	+	0	1	blank2r.bmp	500	1	CPLW	500	1	blank2r.bmp	880	2	krank	880	1	!	1232	1	!	-1	0	0	0	0	0	0
2024-05-28	11:36:20	11:43:28	427620	6.6.1	4_exp_EVA_AWA_CON	56	A	B	Rpleas_acq	Oppo	Rpleas	2pleas	acq_US_unple_nomask	acq45_nomask	4	21	400	0	300	300	0	0	549	46	1	0	vertrauen	kreativ	genießen	gesittet	träumen	sonnig	versagen	krank	gemein	geizig	töten	sterben	anregung	gütig	engagiert	vergnügt	kuss	besonnen	ausrottung	gierig	engstirnig	verbissen	krise	bange	1	blank2r.bmp	0	1	+	0	1	blank2r.bmp	500	1	CPLW	500	1	blank2r.bmp	880	4	geizig	880	1	!	1232	1	!	-1	0	0	0	0	0	0
2024-05-28	11:36:20	11:43:30	429676	6.6.1	4_exp_EVA_AWA_CON	56	A	B	Rpleas_acq	Oppo	Rpleas	2pleas	acq_US_pleas_nomask	acq45_nomask	4	22	400	0	300	300	0	0	283	46	0	0	vertrauen	kreativ	genießen	gesittet	träumen	sonnig	versagen	krank	gemein	geizig	töten	sterben	anregung	gütig	engagiert	vergnügt	kuss	besonnen	ausrottung	gierig	engstirnig	verbissen	krise	bange	1	blank2r.bmp	0	1	+	0	1	blank2r.bmp	500	1	DHJF	500	1	blank2r.bmp	880	5	träumen	880	1	!	-1	1	!	-1	0	0	0	0	0	0
2024-05-28	11:36:20	11:43:32	431846	6.6.1	4_exp_EVA_AWA_CON	56	A	B	Rpleas_acq	Oppo	Rpleas	2pleas	acq_US_unple_nomask	acq45_nomask	4	23	400	1	300	300	0	0	389	46	1	0	vertrauen	kreativ	genießen	gesittet	träumen	sonnig	versagen	krank	gemein	geizig	töten	sterben	anregung	gütig	engagiert	vergnügt	kuss	besonnen	ausrottung	gierig	engstirnig	verbissen	krise	bange	1	blank2r.bmp	0	1	+	0	1	blank2r.bmp	500	1	CPLW	500	1	blank2r.bmp	880	6	sterben	880	1	!	1232	1	!	1292	0	0	0	0	0	0
2024-05-28	11:36:20	11:43:34	433973	6.6.1	4_exp_EVA_AWA_CON	56	A	B	Rpleas_acq	Oppo	Rpleas	2pleas	acq_US_pleas_nomask	acq45_nomask	4	24	400	1	300	300	0	0	346	50	1	0	vertrauen	kreativ	genießen	gesittet	träumen	sonnig	versagen	krank	gemein	geizig	töten	sterben	anregung	gütig	engagiert	vergnügt	kuss	besonnen	ausrottung	gierig	engstirnig	verbissen	krise	bange	1	blank2r.bmp	0	1	+	0	1	blank2r.bmp	500	1	DHJF	500	1	blank2r.bmp	880	6	sonnig	880	1	!	1233	1	!	1248	0	0	0	0	0	0
2024-05-28	11:36:20	11:43:36	436158	6.6.1	4_exp_EVA_AWA_CON	56	A	B	Rpleas_acq	Oppo	Rpleas	2pleas	acq_US_pleas_nomask	acq45_nomask	4	25	400	1	300	300	0	0	409	46	0	0	vertrauen	kreativ	genießen	gesittet	träumen	sonnig	versagen	krank	gemein	geizig	töten	sterben	anregung	gütig	engagiert	vergnügt	kuss	besonnen	ausrottung	gierig	engstirnig	verbissen	krise	bange	1	blank2r.bmp	0	1	+	0	1	blank2r.bmp	500	1	DHJF	500	1	blank2r.bmp	880	3	genießen	880	1	!	1232	1	!	1310	0	0	0	0	0	0
2024-05-28	11:36:20	11:43:39	438405	6.6.1	4_exp_EVA_AWA_CON	56	A	B	Rpleas_acq	Oppo	Rpleas	2pleas	acq_US_pleas_nomask	acq45_nomask	4	26	400	1	300	300	0	0	465	50	1	0	vertrauen	kreativ	genießen	gesittet	träumen	sonnig	versagen	krank	gemein	geizig	töten	sterben	anregung	gütig	engagiert	vergnügt	kuss	besonnen	ausrottung	gierig	engstirnig	verbissen	krise	bange	1	blank2r.bmp	0	1	+	0	1	blank2r.bmp	500	1	DHJF	500	1	blank2r.bmp	880	5	träumen	880	1	!	1232	1	!	1367	0	0	0	0	0	0
2024-05-28	11:36:20	11:43:41	440589	6.6.1	4_exp_EVA_AWA_CON	56	A	B	Rpleas_acq	Oppo	Rpleas	2pleas	acq_US_pleas_nomask	acq45_nomask	4	27	400	1	300	300	0	0	407	46	0	0	vertrauen	kreativ	genießen	gesittet	träumen	sonnig	versagen	krank	gemein	geizig	töten	sterben	anregung	gütig	engagiert	vergnügt	kuss	besonnen	ausrottung	gierig	engstirnig	verbissen	krise	bange	1	blank2r.bmp	0	1	+	0	1	blank2r.bmp	500	1	DHJF	500	1	blank2r.bmp	880	4	gesittet	880	1	!	1232	1	!	1309	0	0	0	0	0	0
2024-05-28	11:36:20	11:43:43	442676	6.6.1	4_exp_EVA_AWA_CON	56	A	B	Rpleas_acq	Oppo	Rpleas	2pleas	acq_US_unple_nomask	acq45_nomask	4	28	400	0	300	300	0	0	314	46	1	0	vertrauen	kreativ	genießen	gesittet	träumen	sonnig	versagen	krank	gemein	geizig	töten	sterben	anregung	gütig	engagiert	vergnügt	kuss	besonnen	ausrottung	gierig	engstirnig	verbissen	krise	bange	1	blank2r.bmp	0	1	+	0	1	blank2r.bmp	500	1	CPLW	500	1	blank2r.bmp	880	3	gemein	880	1	!	-1	1	!	-1	0	0	0	0	0	0
2024-05-28	11:36:20	11:43:45	444814	6.6.1	4_exp_EVA_AWA_CON	56	A	B	Rpleas_acq	Oppo	Rpleas	2pleas	acq_US_pleas_nomask	acq45_nomask	4	29	400	1	300	300	0	0	360	50	1	0	vertrauen	kreativ	genießen	gesittet	träumen	sonnig	versagen	krank	gemein	geizig	töten	sterben	anregung	gütig	engagiert	vergnügt	kuss	besonnen	ausrottung	gierig	engstirnig	verbissen	krise	bange	1	blank2r.bmp	0	1	+	0	1	blank2r.bmp	500	1	DHJF	500	1	blank2r.bmp	880	2	kreativ	880	1	!	1232	1	!	1261	0	0	0	0	0	0
2024-05-28	11:36:20	11:43:47	446941	6.6.1	4_exp_EVA_AWA_CON	56	A	B	Rpleas_acq	Oppo	Rpleas	2pleas	acq_US_unple_nomask	acq45_nomask	4	30	400	1	300	300	0	0	346	46	1	0	vertrauen	kreativ	genießen	gesittet	träumen	sonnig	versagen	krank	gemein	geizig	töten	sterben	anregung	gütig	engagiert	vergnügt	kuss	besonnen	ausrottung	gierig	engstirnig	verbissen	krise	bange	1	blank2r.bmp	0	1	+	0	1	blank2r.bmp	500	1	CPLW	500	1	blank2r.bmp	880	1	versagen	880	1	!	1232	1	!	1247	0	0	0	0	0	0
2024-05-28	11:36:20	11:43:49	449078	6.6.1	4_exp_EVA_AWA_CON	56	A	B	Rpleas_acq	Oppo	Rpleas	2pleas	acq_US_pleas_nomask	acq45_nomask	4	31	400	1	300	300	0	0	361	50	1	0	vertrauen	kreativ	genießen	gesittet	träumen	sonnig	versagen	krank	gemein	geizig	töten	sterben	anregung	gütig	engagiert	vergnügt	kuss	besonnen	ausrottung	gierig	engstirnig	verbissen	krise	bange	1	blank2r.bmp	0	1	+	0	1	blank2r.bmp	500	1	DHJF	500	1	blank2r.bmp	880	1	vertrauen	880	1	!	1233	1	!	1262	0	0	0	0	0	0
2024-05-28	11:36:20	11:43:51	451301	6.6.1	4_exp_EVA_AWA_CON	56	A	B	Rpleas_acq	Oppo	Rpleas	2pleas	acq_US_pleas_nomask	acq45_nomask	4	32	400	1	300	300	0	0	443	46	0	0	vertrauen	kreativ	genießen	gesittet	träumen	sonnig	versagen	krank	gemein	geizig	töten	sterben	anregung	gütig	engagiert	vergnügt	kuss	besonnen	ausrottung	gierig	engstirnig	verbissen	krise	bange	1	blank2r.bmp	0	1	+	0	1	blank2r.bmp	500	1	DHJF	500	1	blank2r.bmp	880	3	genießen	880	1	!	1232	1	!	1344	0	0	0	0	0	0
2024-05-28	11:36:20	11:43:54	453493	6.6.1	4_exp_EVA_AWA_CON	56	A	B	Rpleas_acq	Oppo	Rpleas	2pleas	acq_US_unple_nomask	acq45_nomask	4	33	400	1	300	300	0	0	414	46	1	0	vertrauen	kreativ	genießen	gesittet	träumen	sonnig	versagen	krank	gemein	geizig	töten	sterben	anregung	gütig	engagiert	vergnügt	kuss	besonnen	ausrottung	gierig	engstirnig	verbissen	krise	bange	1	blank2r.bmp	0	1	+	0	1	blank2r.bmp	500	1	CPLW	500	1	blank2r.bmp	880	5	töten	880	1	!	1232	1	!	1315	0	0	0	0	0	0
2024-05-28	11:36:20	11:43:56	455622	6.6.1	4_exp_EVA_AWA_CON	56	A	B	Rpleas_acq	Oppo	Rpleas	2pleas	acq_US_unple_nomask	acq45_nomask	4	34	400	1	300	300	0	0	351	46	1	0	vertrauen	kreativ	genießen	gesittet	träumen	sonnig	versagen	krank	gemein	geizig	töten	sterben	anregung	gütig	engagiert	vergnügt	kuss	besonnen	ausrottung	gierig	engstirnig	verbissen	krise	bange	1	blank2r.bmp	0	1	+	0	1	blank2r.bmp	500	1	CPLW	500	1	blank2r.bmp	880	4	geizig	880	1	!	1232	1	!	1252	0	0	0	0	0	0
2024-05-28	11:36:20	11:43:58	457757	6.6.1	4_exp_EVA_AWA_CON	56	A	B	Rpleas_acq	Oppo	Rpleas	2pleas	acq_US_pleas_nomask	acq45_nomask	4	35	400	1	300	300	0	0	354	46	0	0	vertrauen	kreativ	genießen	gesittet	träumen	sonnig	versagen	krank	gemein	geizig	töten	sterben	anregung	gütig	engagiert	vergnügt	kuss	besonnen	ausrottung	gierig	engstirnig	verbissen	krise	bange	1	blank2r.bmp	0	1	+	0	1	blank2r.bmp	500	1	DHJF	500	1	blank2r.bmp	880	6	sonnig	880	1	!	1232	1	!	1256	0	0	0	0	0	0
2024-05-28	11:36:20	11:44:00	460084	6.6.1	4_exp_EVA_AWA_CON	56	A	B	Rpleas_acq	Oppo	Rpleas	2pleas	acq_US_unple_nomask	acq45_nomask	4	36	400	0	300	300	0	0	552	46	1	0	vertrauen	kreativ	genießen	gesittet	träumen	sonnig	versagen	krank	gemein	geizig	töten	sterben	anregung	gütig	engagiert	vergnügt	kuss	besonnen	ausrottung	gierig	engstirnig	verbissen	krise	bange	1	blank2r.bmp	0	1	+	0	1	blank2r.bmp	500	1	CPLW	500	1	blank2r.bmp	880	2	krank	880	1	!	1232	1	!	-1	0	0	0	0	0	0
2024-05-28	11:36:20	11:44:13	472990	6.6.1	4_exp_EVA_AWA_CON	56	A	B	Rpleas_acq	Oppo	Rpleas	2pleas	acq_US_pleas_nomask	acq45_nomask	5	1	400	1	300	300	0	0	457	50	1	0	vertrauen	kreativ	genießen	gesittet	träumen	sonnig	versagen	krank	gemein	geizig	töten	sterben	anregung	gütig	engagiert	vergnügt	kuss	besonnen	ausrottung	gierig	engstirnig	verbissen	krise	bange	1	blank2r.bmp	0	1	+	0	1	blank2r.bmp	500	1	DHJF	500	1	blank2r.bmp	880	1	vertrauen	880	1	!	1233	1	!	1359	0	0	0	0	0	0
2024-05-28	11:36:20	11:44:15	475174	6.6.1	4_exp_EVA_AWA_CON	56	A	B	Rpleas_acq	Oppo	Rpleas	2pleas	acq_US_unple_nomask	acq45_nomask	5	2	400	1	300	300	0	0	410	50	0	0	vertrauen	kreativ	genießen	gesittet	träumen	sonnig	versagen	krank	gemein	geizig	töten	sterben	anregung	gütig	engagiert	vergnügt	kuss	besonnen	ausrottung	gierig	engstirnig	verbissen	krise	bange	1	blank2r.bmp	0	1	+	0	1	blank2r.bmp	500	1	CPLW	500	1	blank2r.bmp	880	1	versagen	880	1	!	1232	1	!	1312	0	0	0	0	0	0
2024-05-28	11:36:20	11:44:17	477326	6.6.1	4_exp_EVA_AWA_CON	56	A	B	Rpleas_acq	Oppo	Rpleas	2pleas	acq_US_pleas_nomask	acq45_nomask	5	3	400	1	300	300	0	0	370	50	1	0	vertrauen	kreativ	genießen	gesittet	träumen	sonnig	versagen	krank	gemein	geizig	töten	sterben	anregung	gütig	engagiert	vergnügt	kuss	besonnen	ausrottung	gierig	engstirnig	verbissen	krise	bange	1	blank2r.bmp	0	1	+	0	1	blank2r.bmp	500	1	DHJF	500	1	blank2r.bmp	880	6	sonnig	880	1	!	1232	1	!	1272	0	0	0	0	0	0
2024-05-28	11:36:20	11:44:20	479486	6.6.1	4_exp_EVA_AWA_CON	56	A	B	Rpleas_acq	Oppo	Rpleas	2pleas	acq_US_unple_nomask	acq45_nomask	5	4	400	1	300	300	0	0	378	46	1	0	vertrauen	kreativ	genießen	gesittet	träumen	sonnig	versagen	krank	gemein	geizig	töten	sterben	anregung	gütig	engagiert	vergnügt	kuss	besonnen	ausrottung	gierig	engstirnig	verbissen	krise	bange	1	blank2r.bmp	0	1	+	0	1	blank2r.bmp	500	1	CPLW	500	1	blank2r.bmp	880	2	krank	880	1	!	1232	1	!	1280	0	0	0	0	0	0
2024-05-28	11:36:20	11:44:22	481597	6.6.1	4_exp_EVA_AWA_CON	56	A	B	Rpleas_acq	Oppo	Rpleas	2pleas	acq_US_unple_nomask	acq45_nomask	5	5	400	0	300	300	0	0	329	46	1	0	vertrauen	kreativ	genießen	gesittet	träumen	sonnig	versagen	krank	gemein	geizig	töten	sterben	anregung	gütig	engagiert	vergnügt	kuss	besonnen	ausrottung	gierig	engstirnig	verbissen	krise	bange	1	blank2r.bmp	0	1	+	0	1	blank2r.bmp	500	1	CPLW	500	1	blank2r.bmp	880	6	sterben	880	1	!	-1	1	!	-1	0	0	0	0	0	0
2024-05-28	11:36:20	11:44:24	483781	6.6.1	4_exp_EVA_AWA_CON	56	A	B	Rpleas_acq	Oppo	Rpleas	2pleas	acq_US_unple_nomask	acq45_nomask	5	6	400	1	300	300	0	0	402	46	1	0	vertrauen	kreativ	genießen	gesittet	träumen	sonnig	versagen	krank	gemein	geizig	töten	sterben	anregung	gütig	engagiert	vergnügt	kuss	besonnen	ausrottung	gierig	engstirnig	verbissen	krise	bange	1	blank2r.bmp	0	1	+	0	1	blank2r.bmp	500	1	CPLW	500	1	blank2r.bmp	880	4	geizig	880	1	!	1232	1	!	1303	0	0	0	0	0	0
2024-05-28	11:36:20	11:44:26	485942	6.6.1	4_exp_EVA_AWA_CON	56	A	B	Rpleas_acq	Oppo	Rpleas	2pleas	acq_US_unple_nomask	acq45_nomask	5	7	400	1	300	300	0	0	380	50	0	0	vertrauen	kreativ	genießen	gesittet	träumen	sonnig	versagen	krank	gemein	geizig	töten	sterben	anregung	gütig	engagiert	vergnügt	kuss	besonnen	ausrottung	gierig	engstirnig	verbissen	krise	bange	1	blank2r.bmp	0	1	+	0	1	blank2r.bmp	500	1	CPLW	500	1	blank2r.bmp	880	3	gemein	880	1	!	1232	1	!	1282	0	0	0	0	0	0
2024-05-28	11:36:20	11:44:29	488884	6.6.1	4_exp_EVA_AWA_CON	56	A	B	Rpleas_acq	Oppo	Rpleas	2pleas	acq_US_pleas_nomask	acq45_nomask	5	8	400	0	300	300	0	0	1164	50	1	0	vertrauen	kreativ	genießen	gesittet	träumen	sonnig	versagen	krank	gemein	geizig	töten	sterben	anregung	gütig	engagiert	vergnügt	kuss	besonnen	ausrottung	gierig	engstirnig	verbissen	krise	bange	1	blank2r.bmp	0	1	+	0	1	blank2r.bmp	500	1	DHJF	500	1	blank2r.bmp	880	4	gesittet	880	1	!	1232	1	!	-1	0	0	0	0	0	0
2024-05-28	11:36:20	11:44:31	491053	6.6.1	4_exp_EVA_AWA_CON	56	A	B	Rpleas_acq	Oppo	Rpleas	2pleas	acq_US_unple_nomask	acq45_nomask	5	9	400	1	300	300	0	0	389	46	1	0	vertrauen	kreativ	genießen	gesittet	träumen	sonnig	versagen	krank	gemein	geizig	töten	sterben	anregung	gütig	engagiert	vergnügt	kuss	besonnen	ausrottung	gierig	engstirnig	verbissen	krise	bange	1	blank2r.bmp	0	1	+	0	1	blank2r.bmp	500	1	CPLW	500	1	blank2r.bmp	880	5	töten	880	1	!	1232	1	!	1291	0	0	0	0	0	0
2024-05-28	11:36:20	11:44:33	493206	6.6.1	4_exp_EVA_AWA_CON	56	A	B	Rpleas_acq	Oppo	Rpleas	2pleas	acq_US_pleas_nomask	acq45_nomask	5	10	400	1	300	300	0	0	370	50	1	0	vertrauen	kreativ	genießen	gesittet	träumen	sonnig	versagen	krank	gemein	geizig	töten	sterben	anregung	gütig	engagiert	vergnügt	kuss	besonnen	ausrottung	gierig	engstirnig	verbissen	krise	bange	1	blank2r.bmp	0	1	+	0	1	blank2r.bmp	500	1	DHJF	500	1	blank2r.bmp	880	2	kreativ	880	1	!	1232	1	!	1272	0	0	0	0	0	0
2024-05-28	11:36:20	11:44:36	495358	6.6.1	4_exp_EVA_AWA_CON	56	A	B	Rpleas_acq	Oppo	Rpleas	2pleas	acq_US_unple_nomask	acq45_nomask	5	11	400	1	300	300	0	0	371	46	1	0	vertrauen	kreativ	genießen	gesittet	träumen	sonnig	versagen	krank	gemein	geizig	töten	sterben	anregung	gütig	engagiert	vergnügt	kuss	besonnen	ausrottung	gierig	engstirnig	verbissen	krise	bange	1	blank2r.bmp	0	1	+	0	1	blank2r.bmp	500	1	CPLW	500	1	blank2r.bmp	880	5	töten	880	1	!	1232	1	!	1272	0	0	0	0	0	0
2024-05-28	11:36:20	11:44:38	497444	6.6.1	4_exp_EVA_AWA_CON	56	A	B	Rpleas_acq	Oppo	Rpleas	2pleas	acq_US_unple_nomask	acq45_nomask	5	12	400	0	300	300	0	0	308	46	1	0	vertrauen	kreativ	genießen	gesittet	träumen	sonnig	versagen	krank	gemein	geizig	töten	sterben	anregung	gütig	engagiert	vergnügt	kuss	besonnen	ausrottung	gierig	engstirnig	verbissen	krise	bange	1	blank2r.bmp	0	1	+	0	1	blank2r.bmp	500	1	CPLW	500	1	blank2r.bmp	880	4	geizig	880	1	!	-1	1	!	-1	0	0	0	0	0	0
2024-05-28	11:36:20	11:44:40	499476	6.6.1	4_exp_EVA_AWA_CON	56	A	B	Rpleas_acq	Oppo	Rpleas	2pleas	acq_US_pleas_nomask	acq45_nomask	5	13	400	0	300	300	0	0	258	46	0	0	vertrauen	kreativ	genießen	gesittet	träumen	sonnig	versagen	krank	gemein	geizig	töten	sterben	anregung	gütig	engagiert	vergnügt	kuss	besonnen	ausrottung	gierig	engstirnig	verbissen	krise	bange	1	blank2r.bmp	0	1	+	0	1	blank2r.bmp	500	1	DHJF	500	1	blank2r.bmp	880	3	genießen	880	1	!	-1	1	!	-1	0	0	0	0	0	0
2024-05-28	11:36:20	11:44:42	501804	6.6.1	4_exp_EVA_AWA_CON	56	A	B	Rpleas_acq	Oppo	Rpleas	2pleas	acq_US_unple_nomask	acq45_nomask	5	14	400	0	300	300	0	0	554	46	1	0	vertrauen	kreativ	genießen	gesittet	träumen	sonnig	versagen	krank	gemein	geizig	töten	sterben	anregung	gütig	engagiert	vergnügt	kuss	besonnen	ausrottung	gierig	engstirnig	verbissen	krise	bange	1	blank2r.bmp	0	1	+	0	1	blank2r.bmp	500	1	CPLW	500	1	blank2r.bmp	880	3	gemein	880	1	!	1232	1	!	-1	0	0	0	0	0	0
2024-05-28	11:36:20	11:44:44	503892	6.6.1	4_exp_EVA_AWA_CON	56	A	B	Rpleas_acq	Oppo	Rpleas	2pleas	acq_US_pleas_nomask	acq45_nomask	5	15	400	0	300	300	0	0	312	50	1	0	vertrauen	kreativ	genießen	gesittet	träumen	sonnig	versagen	krank	gemein	geizig	töten	sterben	anregung	gütig	engagiert	vergnügt	kuss	besonnen	ausrottung	gierig	engstirnig	verbissen	krise	bange	1	blank2r.bmp	0	1	+	0	1	blank2r.bmp	500	1	DHJF	500	1	blank2r.bmp	880	5	träumen	880	1	!	-1	1	!	-1	0	0	0	0	0	0
2024-05-28	11:36:20	11:44:46	506212	6.6.1	4_exp_EVA_AWA_CON	56	A	B	Rpleas_acq	Oppo	Rpleas	2pleas	acq_US_pleas_nomask	acq45_nomask	5	16	400	0	300	300	0	0	539	50	1	0	vertrauen	kreativ	genießen	gesittet	träumen	sonnig	versagen	krank	gemein	geizig	töten	sterben	anregung	gütig	engagiert	vergnügt	kuss	besonnen	ausrottung	gierig	engstirnig	verbissen	krise	bange	1	blank2r.bmp	0	1	+	0	1	blank2r.bmp	500	1	DHJF	500	1	blank2r.bmp	880	6	sonnig	880	1	!	1232	1	!	-1	0	0	0	0	0	0
2024-05-28	11:36:20	11:44:49	508454	6.6.1	4_exp_EVA_AWA_CON	56	A	B	Rpleas_acq	Oppo	Rpleas	2pleas	acq_US_pleas_nomask	acq45_nomask	5	17	400	1	300	300	0	0	458	50	1	0	vertrauen	kreativ	genießen	gesittet	träumen	sonnig	versagen	krank	gemein	geizig	töten	sterben	anregung	gütig	engagiert	vergnügt	kuss	besonnen	ausrottung	gierig	engstirnig	verbissen	krise	bange	1	blank2r.bmp	0	1	+	0	1	blank2r.bmp	500	1	DHJF	500	1	blank2r.bmp	880	5	träumen	880	1	!	1232	1	!	1360	0	0	0	0	0	0
2024-05-28	11:36:20	11:44:51	510669	6.6.1	4_exp_EVA_AWA_CON	56	A	B	Rpleas_acq	Oppo	Rpleas	2pleas	acq_US_pleas_nomask	acq45_nomask	5	18	400	1	300	300	0	0	433	46	0	0	vertrauen	kreativ	genießen	gesittet	träumen	sonnig	versagen	krank	gemein	geizig	töten	sterben	anregung	gütig	engagiert	vergnügt	kuss	besonnen	ausrottung	gierig	engstirnig	verbissen	krise	bange	1	blank2r.bmp	0	1	+	0	1	blank2r.bmp	500	1	DHJF	500	1	blank2r.bmp	880	3	genießen	880	1	!	1232	1	!	1334	0	0	0	0	0	0
2024-05-28	11:36:20	11:44:53	512861	6.6.1	4_exp_EVA_AWA_CON	56	A	B	Rpleas_acq	Oppo	Rpleas	2pleas	acq_US_pleas_nomask	acq45_nomask	5	19	400	1	300	300	0	0	413	50	1	0	vertrauen	kreativ	genießen	gesittet	träumen	sonnig	versagen	krank	gemein	geizig	töten	sterben	anregung	gütig	engagiert	vergnügt	kuss	besonnen	ausrottung	gierig	engstirnig	verbissen	krise	bange	1	blank2r.bmp	0	1	+	0	1	blank2r.bmp	500	1	DHJF	500	1	blank2r.bmp	880	2	kreativ	880	1	!	1233	1	!	1315	0	0	0	0	0	0
2024-05-28	11:36:20	11:44:55	515085	6.6.1	4_exp_EVA_AWA_CON	56	A	B	Rpleas_acq	Oppo	Rpleas	2pleas	acq_US_unple_nomask	acq45_nomask	5	20	400	1	300	300	0	0	446	46	1	0	vertrauen	kreativ	genießen	gesittet	träumen	sonnig	versagen	krank	gemein	geizig	töten	sterben	anregung	gütig	engagiert	vergnügt	kuss	besonnen	ausrottung	gierig	engstirnig	verbissen	krise	bange	1	blank2r.bmp	0	1	+	0	1	blank2r.bmp	500	1	CPLW	500	1	blank2r.bmp	880	6	sterben	880	1	!	1233	1	!	1347	0	0	0	0	0	0
2024-05-28	11:36:20	11:44:57	517325	6.6.1	4_exp_EVA_AWA_CON	56	A	B	Rpleas_acq	Oppo	Rpleas	2pleas	acq_US_unple_nomask	acq45_nomask	5	21	400	1	300	300	0	0	465	50	0	0	vertrauen	kreativ	genießen	gesittet	träumen	sonnig	versagen	krank	gemein	geizig	töten	sterben	anregung	gütig	engagiert	vergnügt	kuss	besonnen	ausrottung	gierig	engstirnig	verbissen	krise	bange	1	blank2r.bmp	0	1	+	0	1	blank2r.bmp	500	1	CPLW	500	1	blank2r.bmp	880	2	krank	880	1	!	1232	1	!	1366	0	0	0	0	0	0
2024-05-28	11:36:20	11:45:00	519493	6.6.1	4_exp_EVA_AWA_CON	56	A	B	Rpleas_acq	Oppo	Rpleas	2pleas	acq_US_pleas_nomask	acq45_nomask	5	22	400	1	300	300	0	0	391	46	0	0	vertrauen	kreativ	genießen	gesittet	träumen	sonnig	versagen	krank	gemein	geizig	töten	sterben	anregung	gütig	engagiert	vergnügt	kuss	besonnen	ausrottung	gierig	engstirnig	verbissen	krise	bange	1	blank2r.bmp	0	1	+	0	1	blank2r.bmp	500	1	DHJF	500	1	blank2r.bmp	880	4	gesittet	880	1	!	1232	1	!	1292	0	0	0	0	0	0
2024-05-28	11:36:20	11:45:02	521876	6.6.1	4_exp_EVA_AWA_CON	56	A	B	Rpleas_acq	Oppo	Rpleas	2pleas	acq_US_pleas_nomask	acq45_nomask	5	23	400	0	300	300	0	0	603	50	1	0	vertrauen	kreativ	genießen	gesittet	träumen	sonnig	versagen	krank	gemein	geizig	töten	sterben	anregung	gütig	engagiert	vergnügt	kuss	besonnen	ausrottung	gierig	engstirnig	verbissen	krise	bange	1	blank2r.bmp	0	1	+	0	1	blank2r.bmp	500	1	DHJF	500	1	blank2r.bmp	880	1	vertrauen	880	1	!	1232	1	!	-1	0	0	0	0	0	0
2024-05-28	11:36:20	11:45:04	524069	6.6.1	4_exp_EVA_AWA_CON	56	A	B	Rpleas_acq	Oppo	Rpleas	2pleas	acq_US_pleas_nomask	acq45_nomask	5	24	400	1	300	300	0	0	414	50	1	0	vertrauen	kreativ	genießen	gesittet	träumen	sonnig	versagen	krank	gemein	geizig	töten	sterben	anregung	gütig	engagiert	vergnügt	kuss	besonnen	ausrottung	gierig	engstirnig	verbissen	krise	bange	1	blank2r.bmp	0	1	+	0	1	blank2r.bmp	500	1	DHJF	500	1	blank2r.bmp	880	2	kreativ	880	1	!	1232	1	!	1316	0	0	0	0	0	0
2024-05-28	11:36:20	11:45:07	526556	6.6.1	4_exp_EVA_AWA_CON	56	A	B	Rpleas_acq	Oppo	Rpleas	2pleas	acq_US_unple_nomask	acq45_nomask	5	25	400	0	300	300	0	0	711	46	1	0	vertrauen	kreativ	genießen	gesittet	träumen	sonnig	versagen	krank	gemein	geizig	töten	sterben	anregung	gütig	engagiert	vergnügt	kuss	besonnen	ausrottung	gierig	engstirnig	verbissen	krise	bange	1	blank2r.bmp	0	1	+	0	1	blank2r.bmp	500	1	CPLW	500	1	blank2r.bmp	880	1	versagen	880	1	!	1232	1	!	-1	0	0	0	0	0	0
2024-05-28	11:36:20	11:45:09	528956	6.6.1	4_exp_EVA_AWA_CON	56	A	B	Rpleas_acq	Oppo	Rpleas	2pleas	acq_US_unple_nomask	acq45_nomask	5	26	400	0	300	300	0	0	620	46	1	0	vertrauen	kreativ	genießen	gesittet	träumen	sonnig	versagen	krank	gemein	geizig	töten	sterben	anregung	gütig	engagiert	vergnügt	kuss	besonnen	ausrottung	gierig	engstirnig	verbissen	krise	bange	1	blank2r.bmp	0	1	+	0	1	blank2r.bmp	500	1	CPLW	500	1	blank2r.bmp	880	5	töten	880	1	!	1232	1	!	-1	0	0	0	0	0	0
2024-05-28	11:36:20	11:45:11	531252	6.6.1	4_exp_EVA_AWA_CON	56	A	B	Rpleas_acq	Oppo	Rpleas	2pleas	acq_US_unple_nomask	acq45_nomask	5	27	400	0	300	300	0	0	513	50	0	0	vertrauen	kreativ	genießen	gesittet	träumen	sonnig	versagen	krank	gemein	geizig	töten	sterben	anregung	gütig	engagiert	vergnügt	kuss	besonnen	ausrottung	gierig	engstirnig	verbissen	krise	bange	1	blank2r.bmp	0	1	+	0	1	blank2r.bmp	500	1	CPLW	500	1	blank2r.bmp	880	1	versagen	880	1	!	1232	1	!	-1	0	0	0	0	0	0
2024-05-28	11:36:20	11:45:13	533292	6.6.1	4_exp_EVA_AWA_CON	56	A	B	Rpleas_acq	Oppo	Rpleas	2pleas	acq_US_unple_nomask	acq45_nomask	5	28	400	0	300	300	0	0	262	50	0	0	vertrauen	kreativ	genießen	gesittet	träumen	sonnig	versagen	krank	gemein	geizig	töten	sterben	anregung	gütig	engagiert	vergnügt	kuss	besonnen	ausrottung	gierig	engstirnig	verbissen	krise	bange	1	blank2r.bmp	0	1	+	0	1	blank2r.bmp	500	1	CPLW	500	1	blank2r.bmp	880	3	gemein	880	1	!	-1	1	!	-1	0	0	0	0	0	0
2024-05-28	11:36:20	11:45:16	535462	6.6.1	4_exp_EVA_AWA_CON	56	A	B	Rpleas_acq	Oppo	Rpleas	2pleas	acq_US_unple_nomask	acq45_nomask	5	29	400	1	300	300	0	0	389	50	0	0	vertrauen	kreativ	genießen	gesittet	träumen	sonnig	versagen	krank	gemein	geizig	töten	sterben	anregung	gütig	engagiert	vergnügt	kuss	besonnen	ausrottung	gierig	engstirnig	verbissen	krise	bange	1	blank2r.bmp	0	1	+	0	1	blank2r.bmp	500	1	CPLW	500	1	blank2r.bmp	880	2	krank	880	1	!	1232	1	!	1290	0	0	0	0	0	0
2024-05-28	11:36:20	11:45:18	537476	6.6.1	4_exp_EVA_AWA_CON	56	A	B	Rpleas_acq	Oppo	Rpleas	2pleas	acq_US_pleas_nomask	acq45_nomask	5	30	400	0	300	300	0	0	233	46	0	0	vertrauen	kreativ	genießen	gesittet	träumen	sonnig	versagen	krank	gemein	geizig	töten	sterben	anregung	gütig	engagiert	vergnügt	kuss	besonnen	ausrottung	gierig	engstirnig	verbissen	krise	bange	1	blank2r.bmp	0	1	+	0	1	blank2r.bmp	500	1	DHJF	500	1	blank2r.bmp	880	3	genießen	880	1	!	-1	1	!	-1	0	0	0	0	0	0
2024-05-28	11:36:20	11:45:20	539614	6.6.1	4_exp_EVA_AWA_CON	56	A	B	Rpleas_acq	Oppo	Rpleas	2pleas	acq_US_pleas_nomask	acq45_nomask	5	31	400	1	300	300	0	0	358	50	1	0	vertrauen	kreativ	genießen	gesittet	träumen	sonnig	versagen	krank	gemein	geizig	töten	sterben	anregung	gütig	engagiert	vergnügt	kuss	besonnen	ausrottung	gierig	engstirnig	verbissen	krise	bange	1	blank2r.bmp	0	1	+	0	1	blank2r.bmp	500	1	DHJF	500	1	blank2r.bmp	880	4	gesittet	880	1	!	1232	1	!	1259	0	0	0	0	0	0
2024-05-28	11:36:20	11:45:22	541789	6.6.1	4_exp_EVA_AWA_CON	56	A	B	Rpleas_acq	Oppo	Rpleas	2pleas	acq_US_unple_nomask	acq45_nomask	5	32	400	1	300	300	0	0	393	46	1	0	vertrauen	kreativ	genießen	gesittet	träumen	sonnig	versagen	krank	gemein	geizig	töten	sterben	anregung	gütig	engagiert	vergnügt	kuss	besonnen	ausrottung	gierig	engstirnig	verbissen	krise	bange	1	blank2r.bmp	0	1	+	0	1	blank2r.bmp	500	1	CPLW	500	1	blank2r.bmp	880	4	geizig	880	1	!	1232	1	!	1294	0	0	0	0	0	0
2024-05-28	11:36:20	11:45:24	544042	6.6.1	4_exp_EVA_AWA_CON	56	A	B	Rpleas_acq	Oppo	Rpleas	2pleas	acq_US_pleas_nomask	acq45_nomask	5	33	400	0	300	300	0	0	478	50	1	0	vertrauen	kreativ	genießen	gesittet	träumen	sonnig	versagen	krank	gemein	geizig	töten	sterben	anregung	gütig	engagiert	vergnügt	kuss	besonnen	ausrottung	gierig	engstirnig	verbissen	krise	bange	1	blank2r.bmp	0	1	+	0	1	blank2r.bmp	500	1	DHJF	500	1	blank2r.bmp	880	6	sonnig	880	1	!	1232	1	!	-1	0	0	0	0	0	0
2024-05-28	11:36:20	11:45:26	546213	6.6.1	4_exp_EVA_AWA_CON	56	A	B	Rpleas_acq	Oppo	Rpleas	2pleas	acq_US_unple_nomask	acq45_nomask	5	34	400	1	300	300	0	0	395	46	1	0	vertrauen	kreativ	genießen	gesittet	träumen	sonnig	versagen	krank	gemein	geizig	töten	sterben	anregung	gütig	engagiert	vergnügt	kuss	besonnen	ausrottung	gierig	engstirnig	verbissen	krise	bange	1	blank2r.bmp	0	1	+	0	1	blank2r.bmp	500	1	CPLW	500	1	blank2r.bmp	880	6	sterben	880	1	!	1233	1	!	1296	0	0	0	0	0	0
2024-05-28	11:36:20	11:45:28	548196	6.6.1	4_exp_EVA_AWA_CON	56	A	B	Rpleas_acq	Oppo	Rpleas	2pleas	acq_US_pleas_nomask	acq45_nomask	5	35	400	0	300	300	0	0	206	50	1	0	vertrauen	kreativ	genießen	gesittet	träumen	sonnig	versagen	krank	gemein	geizig	töten	sterben	anregung	gütig	engagiert	vergnügt	kuss	besonnen	ausrottung	gierig	engstirnig	verbissen	krise	bange	1	blank2r.bmp	0	1	+	0	1	blank2r.bmp	500	1	DHJF	500	1	blank2r.bmp	880	1	vertrauen	880	1	!	-1	1	!	-1	0	0	0	0	0	0
2024-05-28	11:36:20	11:45:30	550317	6.6.1	4_exp_EVA_AWA_CON	56	A	B	Rpleas_acq	Oppo	Rpleas	2pleas	acq_US_pleas_nomask	acq45_nomask	5	36	400	1	300	300	0	0	345	46	0	0	vertrauen	kreativ	genießen	gesittet	träumen	sonnig	versagen	krank	gemein	geizig	töten	sterben	anregung	gütig	engagiert	vergnügt	kuss	besonnen	ausrottung	gierig	engstirnig	verbissen	krise	bange	1	blank2r.bmp	0	1	+	0	1	blank2r.bmp	500	1	DHJF	500	1	blank2r.bmp	880	5	träumen	880	1	!	1232	1	!	1246	0	0	0	0	0	0
2024-05-28	11:36:20	11:45:51	570936	6.6.1	4_exp_EVA_AWA_CON	56	A	B	Rpleas_acq	Oppo	Lpleas	2pleas	EvalRating_firsttwo	EvalRating_firsttwo	6	1	0	0	300	300	0	0	7608	line	0	-41,40625pct	vertrauen	kreativ	genießen	gesittet	träumen	sonnig	versagen	krank	gemein	geizig	töten	sterben	anregung	gütig	engagiert	vergnügt	kuss	besonnen	ausrottung	gierig	engstirnig	verbissen	krise	bange	1		-7	1	Wie angenehm oder unangenehm finden Sie die  Buchstabenkette WDLH?	-7	1		-7	1		-7	1		-7	1	Unangenehm	-7	1	Angenehm	-7	0	0	0	0	0	0	0	0	0
2024-05-28	11:36:20	11:45:56	575641	6.6.1	4_exp_EVA_AWA_CON	56	A	B	Rpleas_acq	Oppo	Lpleas	2pleas	EvalRating_lastfour	EvalRating_lastfour	7	1	0	0	300	300	0	0	2327	line	0	-25,6510416666666571928pct	vertrauen	kreativ	genießen	gesittet	träumen	sonnig	versagen	krank	gemein	geizig	töten	sterben	anregung	gütig	engagiert	vergnügt	kuss	besonnen	ausrottung	gierig	engstirnig	verbissen	krise	bange	1		-7	1	Wie angenehm oder unangenehm finden Sie die  Buchstabenkette CPLW?	-7	1		-7	1		-7	1		-7	1	Unangenehm	-7	1	Angenehm	-7	0	0	0	0	0	0	0	0	0
2024-05-28	11:36:20	11:45:58	578010	6.6.1	4_exp_EVA_AWA_CON	56	A	B	Rpleas_acq	Oppo	Lpleas	2pleas	blank_screen	EvalRating_lastfour	7	3	0	0	300	300	0	0	0	0	0	-25,6510416666666571928pct	vertrauen	kreativ	genießen	gesittet	träumen	sonnig	versagen	krank	gemein	geizig	töten	sterben	anregung	gütig	engagiert	vergnügt	kuss	besonnen	ausrottung	gierig	engstirnig	verbissen	krise	bange	1		-8	0	0	0	0	0	0	0	0	0	0	0	0	0	0	0	0	0	0	0	0	0	0	0	0	0	0	0
2024-05-28	11:36:20	11:46:00	580344	6.6.1	4_exp_EVA_AWA_CON	56	A	B	Rpleas_acq	Oppo	Lpleas	2pleas	EvalRating_lastfour	EvalRating_lastfour	7	4	0	0	300	300	0	0	1746	line	0	-10,2864583333333285964pct	vertrauen	kreativ	genießen	gesittet	träumen	sonnig	versagen	krank	gemein	geizig	töten	sterben	anregung	gütig	engagiert	vergnügt	kuss	besonnen	ausrottung	gierig	engstirnig	verbissen	krise	bange	1		-8	2	Wie angenehm oder unangenehm finden Sie die  Buchstabenkette DHJF?	-8	1		-8	1		-8	1		-8	1	Unangenehm	-8	1	Angenehm	-8	0	0	0	0	0	0	0	0	0
2024-05-28	11:36:20	11:46:03	582713	6.6.1	4_exp_EVA_AWA_CON	56	A	B	Rpleas_acq	Oppo	Lpleas	2pleas	blank_screen	EvalRating_lastfour	7	6	0	0	300	300	0	0	0	0	0	-10,2864583333333285964pct	vertrauen	kreativ	genießen	gesittet	träumen	sonnig	versagen	krank	gemein	geizig	töten	sterben	anregung	gütig	engagiert	vergnügt	kuss	besonnen	ausrottung	gierig	engstirnig	verbissen	krise	bange	1		-8	0	0	0	0	0	0	0	0	0	0	0	0	0	0	0	0	0	0	0	0	0	0	0	0	0	0	0
2024-05-28	11:36:20	11:46:06	585441	6.6.1	4_exp_EVA_AWA_CON	56	A	B	Rpleas_acq	Oppo	Lpleas	2pleas	EvalRating_lastfour	EvalRating_lastfour	7	7	0	0	300	300	0	0	2140	line	0	-50,78125pct	vertrauen	kreativ	genießen	gesittet	träumen	sonnig	versagen	krank	gemein	geizig	töten	sterben	anregung	gütig	engagiert	vergnügt	kuss	besonnen	ausrottung	gierig	engstirnig	verbissen	krise	bange	1		-8	3	Wie angenehm oder unangenehm finden Sie die  Buchstabenkette FCJP?	-8	1		-8	1		-8	1		-8	1	Unangenehm	-8	1	Angenehm	-8	0	0	0	0	0	0	0	0	0
2024-05-28	11:36:20	11:46:37	616452	6.6.1	4_exp_EVA_AWA_CON	56	A	B	Rpleas_acq	Oppo	Lpleas	2pleas	conawa_CS1_US4	conawa1_nomask	8	1	0	0	300	300	0	0	8797	vergnügt	1	-50,78125pct	vertrauen	kreativ	genießen	gesittet	träumen	sonnig	versagen	krank	gemein	geizig	töten	sterben	anregung	gütig	engagiert	vergnügt	kuss	besonnen	ausrottung	gierig	engstirnig	verbissen	krise	bange	0	0	0	0	0	0	0	0	0	0	0	0	0	0	0	0	0	0	0	0	0	0	0	0	0	0	0	0	0	0
2024-05-28	11:36:20	11:46:37	616454	6.6.1	4_exp_EVA_AWA_CON	56	A	B	Rpleas_acq	Oppo	Lpleas	2pleas	conawa_CS1_US4_confidence	conawa1_nomask	8	1	0	0	300	300	0	0	8797	probably	1	-50,78125pct	vertrauen	kreativ	genießen	gesittet	träumen	sonnig	versagen	krank	gemein	geizig	töten	sterben	anregung	gütig	engagiert	vergnügt	kuss	besonnen	ausrottung	gierig	engstirnig	verbissen	krise	bange	0	0	0	0	0	0	0	0	0	0	0	0	0	0	0	0	0	0	0	0	0	0	0	0	0	0	0	0	0	0
2024-05-28	11:36:20	11:46:46	626239	6.6.1	4_exp_EVA_AWA_CON	56	A	B	Rpleas_acq	Oppo	Lpleas	2pleas	conawa_CS1_US1	conawa1_nomask	8	2	0	0	300	300	0	0	9172	anregung	1	-50,78125pct	vertrauen	kreativ	genießen	gesittet	träumen	sonnig	versagen	krank	gemein	geizig	töten	sterben	anregung	gütig	engagiert	vergnügt	kuss	besonnen	ausrottung	gierig	engstirnig	verbissen	krise	bange	0	0	0	0	0	0	0	0	0	0	0	0	0	0	0	0	0	0	0	0	0	0	0	0	0	0	0	0	0	0
2024-05-28	11:36:20	11:46:46	626241	6.6.1	4_exp_EVA_AWA_CON	56	A	B	Rpleas_acq	Oppo	Lpleas	2pleas	conawa_CS1_US1_confidence	conawa1_nomask	8	2	0	0	300	300	0	0	9172	guess	1	-50,78125pct	vertrauen	kreativ	genießen	gesittet	träumen	sonnig	versagen	krank	gemein	geizig	töten	sterben	anregung	gütig	engagiert	vergnügt	kuss	besonnen	ausrottung	gierig	engstirnig	verbissen	krise	bange	0	0	0	0	0	0	0	0	0	0	0	0	0	0	0	0	0	0	0	0	0	0	0	0	0	0	0	0	0	0
2024-05-28	11:36:20	11:46:54	633574	6.6.1	4_exp_EVA_AWA_CON	56	A	B	Rpleas_acq	Oppo	Lpleas	2pleas	conawa_CS2_US3	conawa1_nomask	8	3	0	0	300	300	0	0	6721	verbissen	1	-50,78125pct	vertrauen	kreativ	genießen	gesittet	träumen	sonnig	versagen	krank	gemein	geizig	töten	sterben	anregung	gütig	engagiert	vergnügt	kuss	besonnen	ausrottung	gierig	engstirnig	verbissen	krise	bange	0	0	0	0	0	0	0	0	0	0	0	0	0	0	0	0	0	0	0	0	0	0	0	0	0	0	0	0	0	0
2024-05-28	11:36:20	11:46:54	633575	6.6.1	4_exp_EVA_AWA_CON	56	A	B	Rpleas_acq	Oppo	Lpleas	2pleas	conawa_CS2_US3_confidence	conawa1_nomask	8	3	0	0	300	300	0	0	6721	probably	1	-50,78125pct	vertrauen	kreativ	genießen	gesittet	träumen	sonnig	versagen	krank	gemein	geizig	töten	sterben	anregung	gütig	engagiert	vergnügt	kuss	besonnen	ausrottung	gierig	engstirnig	verbissen	krise	bange	0	0	0	0	0	0	0	0	0	0	0	0	0	0	0	0	0	0	0	0	0	0	0	0	0	0	0	0	0	0
2024-05-28	11:36:20	11:47:00	639597	6.6.1	4_exp_EVA_AWA_CON	56	A	B	Rpleas_acq	Oppo	Lpleas	2pleas	conawa_CS1_US5	conawa1_nomask	8	4	0	0	300	300	0	0	5404	träumen	1	-50,78125pct	vertrauen	kreativ	genießen	gesittet	träumen	sonnig	versagen	krank	gemein	geizig	töten	sterben	anregung	gütig	engagiert	vergnügt	kuss	besonnen	ausrottung	gierig	engstirnig	verbissen	krise	bange	0	0	0	0	0	0	0	0	0	0	0	0	0	0	0	0	0	0	0	0	0	0	0	0	0	0	0	0	0	0
2024-05-28	11:36:20	11:47:00	639599	6.6.1	4_exp_EVA_AWA_CON	56	A	B	Rpleas_acq	Oppo	Lpleas	2pleas	conawa_CS1_US5_confidence	conawa1_nomask	8	4	0	0	300	300	0	0	5404	probably	1	-50,78125pct	vertrauen	kreativ	genießen	gesittet	träumen	sonnig	versagen	krank	gemein	geizig	töten	sterben	anregung	gütig	engagiert	vergnügt	kuss	besonnen	ausrottung	gierig	engstirnig	verbissen	krise	bange	0	0	0	0	0	0	0	0	0	0	0	0	0	0	0	0	0	0	0	0	0	0	0	0	0	0	0	0	0	0
2024-05-28	11:36:20	11:47:07	646762	6.6.1	4_exp_EVA_AWA_CON	56	A	B	Rpleas_acq	Oppo	Lpleas	2pleas	conawa_CS2_US2	conawa1_nomask	8	5	0	0	300	300	0	0	6550	kreativ	1	-50,78125pct	vertrauen	kreativ	genießen	gesittet	träumen	sonnig	versagen	krank	gemein	geizig	töten	sterben	anregung	gütig	engagiert	vergnügt	kuss	besonnen	ausrottung	gierig	engstirnig	verbissen	krise	bange	0	0	0	0	0	0	0	0	0	0	0	0	0	0	0	0	0	0	0	0	0	0	0	0	0	0	0	0	0	0
2024-05-28	11:36:20	11:47:07	646764	6.6.1	4_exp_EVA_AWA_CON	56	A	B	Rpleas_acq	Oppo	Lpleas	2pleas	conawa_CS2_US2_confidence	conawa1_nomask	8	5	0	0	300	300	0	0	6550	probably	1	-50,78125pct	vertrauen	kreativ	genießen	gesittet	träumen	sonnig	versagen	krank	gemein	geizig	töten	sterben	anregung	gütig	engagiert	vergnügt	kuss	besonnen	ausrottung	gierig	engstirnig	verbissen	krise	bange	0	0	0	0	0	0	0	0	0	0	0	0	0	0	0	0	0	0	0	0	0	0	0	0	0	0	0	0	0	0
2024-05-28	11:36:20	11:47:11	651325	6.6.1	4_exp_EVA_AWA_CON	56	A	B	Rpleas_acq	Oppo	Lpleas	2pleas	conawa_CS1_US2	conawa1_nomask	8	6	0	0	300	300	0	0	3952	gierig	1	-50,78125pct	vertrauen	kreativ	genießen	gesittet	träumen	sonnig	versagen	krank	gemein	geizig	töten	sterben	anregung	gütig	engagiert	vergnügt	kuss	besonnen	ausrottung	gierig	engstirnig	verbissen	krise	bange	0	0	0	0	0	0	0	0	0	0	0	0	0	0	0	0	0	0	0	0	0	0	0	0	0	0	0	0	0	0
2024-05-28	11:36:20	11:47:11	651327	6.6.1	4_exp_EVA_AWA_CON	56	A	B	Rpleas_acq	Oppo	Lpleas	2pleas	conawa_CS1_US2_confidence	conawa1_nomask	8	6	0	0	300	300	0	0	3952	probably	1	-50,78125pct	vertrauen	kreativ	genießen	gesittet	träumen	sonnig	versagen	krank	gemein	geizig	töten	sterben	anregung	gütig	engagiert	vergnügt	kuss	besonnen	ausrottung	gierig	engstirnig	verbissen	krise	bange	0	0	0	0	0	0	0	0	0	0	0	0	0	0	0	0	0	0	0	0	0	0	0	0	0	0	0	0	0	0
2024-05-28	11:36:20	11:47:18	657950	6.6.1	4_exp_EVA_AWA_CON	56	A	B	Rpleas_acq	Oppo	Lpleas	2pleas	conawa_CS2_US4	conawa1_nomask	8	7	0	0	300	300	0	0	6007	gesittet	1	-50,78125pct	vertrauen	kreativ	genießen	gesittet	träumen	sonnig	versagen	krank	gemein	geizig	töten	sterben	anregung	gütig	engagiert	vergnügt	kuss	besonnen	ausrottung	gierig	engstirnig	verbissen	krise	bange	0	0	0	0	0	0	0	0	0	0	0	0	0	0	0	0	0	0	0	0	0	0	0	0	0	0	0	0	0	0
2024-05-28	11:36:20	11:47:18	657951	6.6.1	4_exp_EVA_AWA_CON	56	A	B	Rpleas_acq	Oppo	Lpleas	2pleas	conawa_CS2_US4_confidence	conawa1_nomask	8	7	0	0	300	300	0	0	6007	probably	1	-50,78125pct	vertrauen	kreativ	genießen	gesittet	träumen	sonnig	versagen	krank	gemein	geizig	töten	sterben	anregung	gütig	engagiert	vergnügt	kuss	besonnen	ausrottung	gierig	engstirnig	verbissen	krise	bange	0	0	0	0	0	0	0	0	0	0	0	0	0	0	0	0	0	0	0	0	0	0	0	0	0	0	0	0	0	0
2024-05-28	11:36:20	11:47:26	666075	6.6.1	4_exp_EVA_AWA_CON	56	A	B	Rpleas_acq	Oppo	Lpleas	2pleas	conawa_CS2_US1	conawa1_nomask	8	8	0	0	300	300	0	0	7508	vertrauen	1	-50,78125pct	vertrauen	kreativ	genießen	gesittet	träumen	sonnig	versagen	krank	gemein	geizig	töten	sterben	anregung	gütig	engagiert	vergnügt	kuss	besonnen	ausrottung	gierig	engstirnig	verbissen	krise	bange	0	0	0	0	0	0	0	0	0	0	0	0	0	0	0	0	0	0	0	0	0	0	0	0	0	0	0	0	0	0
2024-05-28	11:36:20	11:47:26	666077	6.6.1	4_exp_EVA_AWA_CON	56	A	B	Rpleas_acq	Oppo	Lpleas	2pleas	conawa_CS2_US1_confidence	conawa1_nomask	8	8	0	0	300	300	0	0	7508	probably	1	-50,78125pct	vertrauen	kreativ	genießen	gesittet	träumen	sonnig	versagen	krank	gemein	geizig	töten	sterben	anregung	gütig	engagiert	vergnügt	kuss	besonnen	ausrottung	gierig	engstirnig	verbissen	krise	bange	0	0	0	0	0	0	0	0	0	0	0	0	0	0	0	0	0	0	0	0	0	0	0	0	0	0	0	0	0	0
2024-05-28	11:36:20	11:47:32	671438	6.6.1	4_exp_EVA_AWA_CON	56	A	B	Rpleas_acq	Oppo	Lpleas	2pleas	conawa_CS1_US3	conawa1_nomask	8	9	0	0	300	300	0	0	4744	engagiert	1	-50,78125pct	vertrauen	kreativ	genießen	gesittet	träumen	sonnig	versagen	krank	gemein	geizig	töten	sterben	anregung	gütig	engagiert	vergnügt	kuss	besonnen	ausrottung	gierig	engstirnig	verbissen	krise	bange	0	0	0	0	0	0	0	0	0	0	0	0	0	0	0	0	0	0	0	0	0	0	0	0	0	0	0	0	0	0
2024-05-28	11:36:20	11:47:32	671440	6.6.1	4_exp_EVA_AWA_CON	56	A	B	Rpleas_acq	Oppo	Lpleas	2pleas	conawa_CS1_US3_confidence	conawa1_nomask	8	9	0	0	300	300	0	0	4744	probably	1	-50,78125pct	vertrauen	kreativ	genießen	gesittet	träumen	sonnig	versagen	krank	gemein	geizig	töten	sterben	anregung	gütig	engagiert	vergnügt	kuss	besonnen	ausrottung	gierig	engstirnig	verbissen	krise	bange	0	0	0	0	0	0	0	0	0	0	0	0	0	0	0	0	0	0	0	0	0	0	0	0	0	0	0	0	0	0
2024-05-28	11:36:20	11:47:39	678742	6.6.1	4_exp_EVA_AWA_CON	56	A	B	Rpleas_acq	Oppo	Lpleas	2pleas	conawa_CS2_US6	conawa1_nomask	8	10	0	0	300	300	0	0	6684	sterben	1	-50,78125pct	vertrauen	kreativ	genießen	gesittet	träumen	sonnig	versagen	krank	gemein	geizig	töten	sterben	anregung	gütig	engagiert	vergnügt	kuss	besonnen	ausrottung	gierig	engstirnig	verbissen	krise	bange	0	0	0	0	0	0	0	0	0	0	0	0	0	0	0	0	0	0	0	0	0	0	0	0	0	0	0	0	0	0
2024-05-28	11:36:20	11:47:39	678744	6.6.1	4_exp_EVA_AWA_CON	56	A	B	Rpleas_acq	Oppo	Lpleas	2pleas	conawa_CS2_US6_confidence	conawa1_nomask	8	10	0	0	300	300	0	0	6684	probably	1	-50,78125pct	vertrauen	kreativ	genießen	gesittet	träumen	sonnig	versagen	krank	gemein	geizig	töten	sterben	anregung	gütig	engagiert	vergnügt	kuss	besonnen	ausrottung	gierig	engstirnig	verbissen	krise	bange	0	0	0	0	0	0	0	0	0	0	0	0	0	0	0	0	0	0	0	0	0	0	0	0	0	0	0	0	0	0
2024-05-28	11:36:20	11:47:44	683675	6.6.1	4_exp_EVA_AWA_CON	56	A	B	Rpleas_acq	Oppo	Lpleas	2pleas	conawa_CS1_US6	conawa1_nomask	8	11	0	0	300	300	0	0	4315	sterben	1	-50,78125pct	vertrauen	kreativ	genießen	gesittet	träumen	sonnig	versagen	krank	gemein	geizig	töten	sterben	anregung	gütig	engagiert	vergnügt	kuss	besonnen	ausrottung	gierig	engstirnig	verbissen	krise	bange	0	0	0	0	0	0	0	0	0	0	0	0	0	0	0	0	0	0	0	0	0	0	0	0	0	0	0	0	0	0
2024-05-28	11:36:20	11:47:44	683677	6.6.1	4_exp_EVA_AWA_CON	56	A	B	Rpleas_acq	Oppo	Lpleas	2pleas	conawa_CS1_US6_confidence	conawa1_nomask	8	11	0	0	300	300	0	0	4315	probably	1	-50,78125pct	vertrauen	kreativ	genießen	gesittet	träumen	sonnig	versagen	krank	gemein	geizig	töten	sterben	anregung	gütig	engagiert	vergnügt	kuss	besonnen	ausrottung	gierig	engstirnig	verbissen	krise	bange	0	0	0	0	0	0	0	0	0	0	0	0	0	0	0	0	0	0	0	0	0	0	0	0	0	0	0	0	0	0
2024-05-28	11:36:20	11:47:50	689880	6.6.1	4_exp_EVA_AWA_CON	56	A	B	Rpleas_acq	Oppo	Lpleas	2pleas	conawa_CS2_US5	conawa1_nomask	8	12	0	0	300	300	0	0	5591	träumen	1	-50,78125pct	vertrauen	kreativ	genießen	gesittet	träumen	sonnig	versagen	krank	gemein	geizig	töten	sterben	anregung	gütig	engagiert	vergnügt	kuss	besonnen	ausrottung	gierig	engstirnig	verbissen	krise	bange	0	0	0	0	0	0	0	0	0	0	0	0	0	0	0	0	0	0	0	0	0	0	0	0	0	0	0	0	0	0
2024-05-28	11:36:20	11:47:50	689882	6.6.1	4_exp_EVA_AWA_CON	56	A	B	Rpleas_acq	Oppo	Lpleas	2pleas	conawa_CS2_US5_confidence	conawa1_nomask	8	12	0	0	300	300	0	0	5591	probably	1	-50,78125pct	vertrauen	kreativ	genießen	gesittet	träumen	sonnig	versagen	krank	gemein	geizig	töten	sterben	anregung	gütig	engagiert	vergnügt	kuss	besonnen	ausrottung	gierig	engstirnig	verbissen	krise	bange	0	0	0	0	0	0	0	0	0	0	0	0	0	0	0	0	0	0	0	0	0	0	0	0	0	0	0	0	0	0
2024-05-28	11:36:20	11:48:48	748092	6.6.1	4_exp_EVA_AWA_CON	56	A	B	Rpleas_acq	Oppo	Lpleas	2pleas	cond_new_unple_456_nomask_CS1	condtest_nomask_1	11	1	400	0	300	300	0	0	614	50	1	-50,78125pct	vertrauen	kreativ	genießen	gesittet	träumen	sonnig	versagen	krank	gemein	geizig	töten	sterben	anregung	gütig	engagiert	vergnügt	kuss	besonnen	ausrottung	gierig	engstirnig	verbissen	krise	bange	1	blank2r.bmp	0	1	+	0	1	blank2r.bmp	500	1	CPLW	500	1	blank2r.bmp	880	1	verbissen	880	1	!	1232	1	!	-1	0	0	0	0	0	0
2024-05-28	11:36:20	11:48:50	750204	6.6.1	4_exp_EVA_AWA_CON	56	A	B	Rpleas_acq	Oppo	Lpleas	2pleas	cond_US_pleas_123_nomask_CS1	condtest_nomask_1	11	2	400	1	300	300	0	0	335	46	1	-50,78125pct	vertrauen	kreativ	genießen	gesittet	träumen	sonnig	versagen	krank	gemein	geizig	töten	sterben	anregung	gütig	engagiert	vergnügt	kuss	besonnen	ausrottung	gierig	engstirnig	verbissen	krise	bange	1	blank2r.bmp	0	1	+	0	1	blank2r.bmp	500	1	CPLW	500	1	blank2r.bmp	880	1	vertrauen	880	1	!	1232	1	!	1235	0	0	0	0	0	0
