date	time	currenttime	elapsedtime	build	currentexpt	subject	CS_AB	US_AB	LRpleas_acq	SameOppo	condition_Lpleas	condition_1pleas	trialcode	blockcode	blocknum	trialnum	windowcenter	inwindow	pretrialpause	posttrialpause	trialduration	trialtimeout	latency	response	correct	correctedscore	US_nomask_pleas1	US_nomask_pleas2	US_nomask_pleas3	US_nomask_pleas4	US_nomask_pleas5	US_nomask_pleas6	US_nomask_unple1	US_nomask_unple2	US_nomask_unple3	US_nomask_unple4	US_nomask_unple5	US_nomask_unple6	new_nomask_pleas1	new_nomask_pleas2	new_nomask_pleas3	new_nomask_pleas4	new_nomask_pleas5	new_nomask_pleas6	new_nomask_unple1	new_nomask_unple2	new_nomask_unple3	new_nomask_unple4	new_nomask_unple5	new_nomask_unple6	stimulusnumber1	stimulusitem1	stimulusonset1	stimulusnumber2	stimulusitem2	stimulusonset2	stimulusnumber3	stimulusitem3	stimulusonset3	stimulusnumber4	stimulusitem4	stimulusonset4	stimulusnumber5	stimulusitem5	stimulusonset5	stimulusnumber6	stimulusitem6	stimulusonset6	stimulusnumber7	stimulusitem7	stimulusonset7	stimulusnumber8	stimulusitem8	stimulusonset8	stimulusnumber9	stimulusitem9	stimulusonset9	stimulusnumber10	stimulusitem10	stimulusonset10
2024-06-12	12:28:14	12:31:59	225264	6.6.1	4_exp_EVA_AWA_CON	84	B	A	Rpleas_acq	Oppo	Rpleas	2pleas	acq_new_unple_nomask	acq1_nomask	1	1	0	0	300	300	0	0	3457	46	1	0	loyal	helfen	lachen	retten	tolerant	treu	lasch	hindern	leiden	rächen	tyrannisch	tot	schlau	fair	ehrlich	schön	freundlich	spielen	schroff	faul	eitel	schlecht	fanatisch	strafen	1	blank2r.bmp	0	1	+	0	1	blank2r.bmp	500	2	B2r.bmp	500	1	blank2r.bmp	880	2	faul	880	0	0	0	0	0	0	0	0	0	0	0	0
2024-06-12	12:28:14	12:32:02	228032	6.6.1	4_exp_EVA_AWA_CON	84	B	A	Rpleas_acq	Oppo	Rpleas	2pleas	acq_new_unple_nomask	acq1_nomask	1	2	0	0	300	300	0	0	1282	46	1	0	loyal	helfen	lachen	retten	tolerant	treu	lasch	hindern	leiden	rächen	tyrannisch	tot	schlau	fair	ehrlich	schön	freundlich	spielen	schroff	faul	eitel	schlecht	fanatisch	strafen	1	blank2r.bmp	0	1	+	0	1	blank2r.bmp	500	8	C4r.bmp	500	1	blank2r.bmp	880	6	strafen	880	0	0	0	0	0	0	0	0	0	0	0	0
2024-06-12	12:28:14	12:32:06	231360	6.6.1	4_exp_EVA_AWA_CON	84	B	A	Rpleas_acq	Oppo	Rpleas	2pleas	acq_new_unple_nomask	acq1_nomask	1	3	0	0	300	300	0	0	1838	46	1	0	loyal	helfen	lachen	retten	tolerant	treu	lasch	hindern	leiden	rächen	tyrannisch	tot	schlau	fair	ehrlich	schön	freundlich	spielen	schroff	faul	eitel	schlecht	fanatisch	strafen	1	blank2r.bmp	0	1	+	0	1	blank2r.bmp	500	3	B3r.bmp	500	1	blank2r.bmp	880	5	fanatisch	880	0	0	0	0	0	0	0	0	0	0	0	0
2024-06-12	12:28:14	12:32:09	234464	6.6.1	4_exp_EVA_AWA_CON	84	B	A	Rpleas_acq	Oppo	Rpleas	2pleas	acq_US_unple_nomask	acq1_nomask	1	4	0	0	300	300	0	0	1620	46	1	0	loyal	helfen	lachen	retten	tolerant	treu	lasch	hindern	leiden	rächen	tyrannisch	tot	schlau	fair	ehrlich	schön	freundlich	spielen	schroff	faul	eitel	schlecht	fanatisch	strafen	1	blank2r.bmp	0	1	+	0	1	blank2r.bmp	500	1	BMVZ	500	1	blank2r.bmp	880	1	lasch	880	0	0	0	0	0	0	0	0	0	0	0	0
2024-06-12	12:28:14	12:32:11	236777	6.6.1	4_exp_EVA_AWA_CON	84	B	A	Rpleas_acq	Oppo	Rpleas	2pleas	acq_new_pleas_nomask	acq1_nomask	1	5	0	0	300	300	0	0	830	50	1	0	loyal	helfen	lachen	retten	tolerant	treu	lasch	hindern	leiden	rächen	tyrannisch	tot	schlau	fair	ehrlich	schön	freundlich	spielen	schroff	faul	eitel	schlecht	fanatisch	strafen	1	blank2r.bmp	0	1	+	0	1	blank2r.bmp	500	5	C1r.bmp	500	1	blank2r.bmp	880	5	freundlich	880	0	0	0	0	0	0	0	0	0	0	0	0
2024-06-12	12:28:14	12:32:13	239232	6.6.1	4_exp_EVA_AWA_CON	84	B	A	Rpleas_acq	Oppo	Rpleas	2pleas	acq_US_unple_nomask	acq1_nomask	1	6	0	0	300	300	0	0	974	46	1	0	loyal	helfen	lachen	retten	tolerant	treu	lasch	hindern	leiden	rächen	tyrannisch	tot	schlau	fair	ehrlich	schön	freundlich	spielen	schroff	faul	eitel	schlecht	fanatisch	strafen	1	blank2r.bmp	0	1	+	0	1	blank2r.bmp	500	1	BMVZ	500	1	blank2r.bmp	880	4	rächen	880	0	0	0	0	0	0	0	0	0	0	0	0
2024-06-12	12:28:14	12:32:16	241688	6.6.1	4_exp_EVA_AWA_CON	84	B	A	Rpleas_acq	Oppo	Rpleas	2pleas	acq_new_pleas_nomask	acq1_nomask	1	7	0	0	300	300	0	0	969	50	1	0	loyal	helfen	lachen	retten	tolerant	treu	lasch	hindern	leiden	rächen	tyrannisch	tot	schlau	fair	ehrlich	schön	freundlich	spielen	schroff	faul	eitel	schlecht	fanatisch	strafen	1	blank2r.bmp	0	1	+	0	1	blank2r.bmp	500	6	C2r.bmp	500	1	blank2r.bmp	880	4	schön	880	0	0	0	0	0	0	0	0	0	0	0	0
2024-06-12	12:28:14	12:32:18	244048	6.6.1	4_exp_EVA_AWA_CON	84	B	A	Rpleas_acq	Oppo	Rpleas	2pleas	acq_US_pleas_nomask	acq1_nomask	1	8	0	0	300	300	0	0	877	50	1	0	loyal	helfen	lachen	retten	tolerant	treu	lasch	hindern	leiden	rächen	tyrannisch	tot	schlau	fair	ehrlich	schön	freundlich	spielen	schroff	faul	eitel	schlecht	fanatisch	strafen	1	blank2r.bmp	0	1	+	0	1	blank2r.bmp	500	1	GKQX	500	1	blank2r.bmp	880	2	helfen	880	0	0	0	0	0	0	0	0	0	0	0	0
2024-06-12	12:28:14	12:32:20	246168	6.6.1	4_exp_EVA_AWA_CON	84	B	A	Rpleas_acq	Oppo	Rpleas	2pleas	acq_US_pleas_nomask	acq1_nomask	1	9	0	0	300	300	0	0	636	50	1	0	loyal	helfen	lachen	retten	tolerant	treu	lasch	hindern	leiden	rächen	tyrannisch	tot	schlau	fair	ehrlich	schön	freundlich	spielen	schroff	faul	eitel	schlecht	fanatisch	strafen	1	blank2r.bmp	0	1	+	0	1	blank2r.bmp	500	1	GKQX	500	1	blank2r.bmp	880	3	lachen	880	0	0	0	0	0	0	0	0	0	0	0	0
2024-06-12	12:28:14	12:32:23	248385	6.6.1	4_exp_EVA_AWA_CON	84	B	A	Rpleas_acq	Oppo	Rpleas	2pleas	acq_new_pleas_nomask	acq1_nomask	1	10	0	0	300	300	0	0	730	50	1	0	loyal	helfen	lachen	retten	tolerant	treu	lasch	hindern	leiden	rächen	tyrannisch	tot	schlau	fair	ehrlich	schön	freundlich	spielen	schroff	faul	eitel	schlecht	fanatisch	strafen	1	blank2r.bmp	0	1	+	0	1	blank2r.bmp	500	4	B4r.bmp	500	1	blank2r.bmp	880	3	ehrlich	880	0	0	0	0	0	0	0	0	0	0	0	0
2024-06-12	12:28:14	12:32:25	250600	6.6.1	4_exp_EVA_AWA_CON	84	B	A	Rpleas_acq	Oppo	Rpleas	2pleas	acq_US_unple_nomask	acq1_nomask	1	11	0	0	300	300	0	0	735	46	1	0	loyal	helfen	lachen	retten	tolerant	treu	lasch	hindern	leiden	rächen	tyrannisch	tot	schlau	fair	ehrlich	schön	freundlich	spielen	schroff	faul	eitel	schlecht	fanatisch	strafen	1	blank2r.bmp	0	1	+	0	1	blank2r.bmp	500	1	BMVZ	500	1	blank2r.bmp	880	3	leiden	880	0	0	0	0	0	0	0	0	0	0	0	0
2024-06-12	12:28:14	12:32:27	253120	6.6.1	4_exp_EVA_AWA_CON	84	B	A	Rpleas_acq	Oppo	Rpleas	2pleas	acq_US_pleas_nomask	acq1_nomask	1	12	0	0	300	300	0	0	1034	50	1	0	loyal	helfen	lachen	retten	tolerant	treu	lasch	hindern	leiden	rächen	tyrannisch	tot	schlau	fair	ehrlich	schön	freundlich	spielen	schroff	faul	eitel	schlecht	fanatisch	strafen	1	blank2r.bmp	0	1	+	0	1	blank2r.bmp	500	1	GKQX	500	1	blank2r.bmp	880	1	loyal	880	0	0	0	0	0	0	0	0	0	0	0	0
2024-06-12	12:28:14	12:32:30	255416	6.6.1	4_exp_EVA_AWA_CON	84	B	A	Rpleas_acq	Oppo	Rpleas	2pleas	acq_new_unple_nomask	acq1_nomask	1	13	0	0	300	300	0	0	808	46	1	0	loyal	helfen	lachen	retten	tolerant	treu	lasch	hindern	leiden	rächen	tyrannisch	tot	schlau	fair	ehrlich	schön	freundlich	spielen	schroff	faul	eitel	schlecht	fanatisch	strafen	1	blank2r.bmp	0	1	+	0	1	blank2r.bmp	500	7	C3r.bmp	500	1	blank2r.bmp	880	4	schlecht	880	0	0	0	0	0	0	0	0	0	0	0	0
2024-06-12	12:28:14	12:32:32	257592	6.6.1	4_exp_EVA_AWA_CON	84	B	A	Rpleas_acq	Oppo	Rpleas	2pleas	acq_new_unple_nomask	acq1_nomask	1	14	0	0	300	300	0	0	692	46	1	0	loyal	helfen	lachen	retten	tolerant	treu	lasch	hindern	leiden	rächen	tyrannisch	tot	schlau	fair	ehrlich	schön	freundlich	spielen	schroff	faul	eitel	schlecht	fanatisch	strafen	1	blank2r.bmp	0	1	+	0	1	blank2r.bmp	500	1	B1r.bmp	500	1	blank2r.bmp	880	1	schroff	880	0	0	0	0	0	0	0	0	0	0	0	0
2024-06-12	12:28:14	12:32:34	260168	6.6.1	4_exp_EVA_AWA_CON	84	B	A	Rpleas_acq	Oppo	Rpleas	2pleas	acq_new_unple_nomask	acq1_nomask	1	15	0	0	300	300	0	0	1087	46	1	0	loyal	helfen	lachen	retten	tolerant	treu	lasch	hindern	leiden	rächen	tyrannisch	tot	schlau	fair	ehrlich	schön	freundlich	spielen	schroff	faul	eitel	schlecht	fanatisch	strafen	1	blank2r.bmp	0	1	+	0	1	blank2r.bmp	500	3	B3r.bmp	500	1	blank2r.bmp	880	3	eitel	880	0	0	0	0	0	0	0	0	0	0	0	0
2024-06-12	12:28:14	12:32:37	262952	6.6.1	4_exp_EVA_AWA_CON	84	B	A	Rpleas_acq	Oppo	Rpleas	2pleas	acq_US_unple_nomask	acq1_nomask	1	16	0	0	300	300	0	0	1299	46	1	0	loyal	helfen	lachen	retten	tolerant	treu	lasch	hindern	leiden	rächen	tyrannisch	tot	schlau	fair	ehrlich	schön	freundlich	spielen	schroff	faul	eitel	schlecht	fanatisch	strafen	1	blank2r.bmp	0	1	+	0	1	blank2r.bmp	500	1	BMVZ	500	1	blank2r.bmp	880	2	hindern	880	0	0	0	0	0	0	0	0	0	0	0	0
2024-06-12	12:28:14	12:32:39	265184	6.6.1	4_exp_EVA_AWA_CON	84	B	A	Rpleas_acq	Oppo	Rpleas	2pleas	acq_US_pleas_nomask	acq1_nomask	1	17	0	0	300	300	0	0	749	50	1	0	loyal	helfen	lachen	retten	tolerant	treu	lasch	hindern	leiden	rächen	tyrannisch	tot	schlau	fair	ehrlich	schön	freundlich	spielen	schroff	faul	eitel	schlecht	fanatisch	strafen	1	blank2r.bmp	0	1	+	0	1	blank2r.bmp	500	1	GKQX	500	1	blank2r.bmp	880	6	treu	880	0	0	0	0	0	0	0	0	0	0	0	0
2024-06-12	12:28:14	12:32:42	267912	6.6.1	4_exp_EVA_AWA_CON	84	B	A	Rpleas_acq	Oppo	Rpleas	2pleas	acq_new_pleas_nomask	acq1_nomask	1	18	0	0	300	300	0	0	1246	50	1	0	loyal	helfen	lachen	retten	tolerant	treu	lasch	hindern	leiden	rächen	tyrannisch	tot	schlau	fair	ehrlich	schön	freundlich	spielen	schroff	faul	eitel	schlecht	fanatisch	strafen	1	blank2r.bmp	0	1	+	0	1	blank2r.bmp	500	4	B4r.bmp	500	1	blank2r.bmp	880	1	schlau	880	0	0	0	0	0	0	0	0	0	0	0	0
2024-06-12	12:28:14	12:32:44	270344	6.6.1	4_exp_EVA_AWA_CON	84	B	A	Rpleas_acq	Oppo	Rpleas	2pleas	acq_US_pleas_nomask	acq1_nomask	1	19	0	0	300	300	0	0	946	50	1	0	loyal	helfen	lachen	retten	tolerant	treu	lasch	hindern	leiden	rächen	tyrannisch	tot	schlau	fair	ehrlich	schön	freundlich	spielen	schroff	faul	eitel	schlecht	fanatisch	strafen	1	blank2r.bmp	0	1	+	0	1	blank2r.bmp	500	1	GKQX	500	1	blank2r.bmp	880	5	tolerant	880	0	0	0	0	0	0	0	0	0	0	0	0
2024-06-12	12:28:14	12:32:47	272512	6.6.1	4_exp_EVA_AWA_CON	84	B	A	Rpleas_acq	Oppo	Rpleas	2pleas	acq_new_pleas_nomask	acq1_nomask	1	20	0	0	300	300	0	0	683	50	1	0	loyal	helfen	lachen	retten	tolerant	treu	lasch	hindern	leiden	rächen	tyrannisch	tot	schlau	fair	ehrlich	schön	freundlich	spielen	schroff	faul	eitel	schlecht	fanatisch	strafen	1	blank2r.bmp	0	1	+	0	1	blank2r.bmp	500	8	C4r.bmp	500	1	blank2r.bmp	880	6	spielen	880	0	0	0	0	0	0	0	0	0	0	0	0
2024-06-12	12:28:14	12:32:49	275128	6.6.1	4_exp_EVA_AWA_CON	84	B	A	Rpleas_acq	Oppo	Rpleas	2pleas	acq_new_pleas_nomask	acq1_nomask	1	21	0	0	300	300	0	0	1127	50	1	0	loyal	helfen	lachen	retten	tolerant	treu	lasch	hindern	leiden	rächen	tyrannisch	tot	schlau	fair	ehrlich	schön	freundlich	spielen	schroff	faul	eitel	schlecht	fanatisch	strafen	1	blank2r.bmp	0	1	+	0	1	blank2r.bmp	500	6	C2r.bmp	500	1	blank2r.bmp	880	2	fair	880	0	0	0	0	0	0	0	0	0	0	0	0
2024-06-12	12:28:14	12:32:52	277776	6.6.1	4_exp_EVA_AWA_CON	84	B	A	Rpleas_acq	Oppo	Rpleas	2pleas	acq_US_pleas_nomask	acq1_nomask	1	22	0	0	300	300	0	0	1163	50	1	0	loyal	helfen	lachen	retten	tolerant	treu	lasch	hindern	leiden	rächen	tyrannisch	tot	schlau	fair	ehrlich	schön	freundlich	spielen	schroff	faul	eitel	schlecht	fanatisch	strafen	1	blank2r.bmp	0	1	+	0	1	blank2r.bmp	500	1	GKQX	500	1	blank2r.bmp	880	4	retten	880	0	0	0	0	0	0	0	0	0	0	0	0
2024-06-12	12:28:14	12:32:54	280104	6.6.1	4_exp_EVA_AWA_CON	84	B	A	Rpleas_acq	Oppo	Rpleas	2pleas	acq_US_unple_nomask	acq1_nomask	1	23	0	0	300	300	0	0	840	46	1	0	loyal	helfen	lachen	retten	tolerant	treu	lasch	hindern	leiden	rächen	tyrannisch	tot	schlau	fair	ehrlich	schön	freundlich	spielen	schroff	faul	eitel	schlecht	fanatisch	strafen	1	blank2r.bmp	0	1	+	0	1	blank2r.bmp	500	1	BMVZ	500	1	blank2r.bmp	880	6	tot	880	0	0	0	0	0	0	0	0	0	0	0	0
2024-06-12	12:28:14	12:32:56	282280	6.6.1	4_exp_EVA_AWA_CON	84	B	A	Rpleas_acq	Oppo	Rpleas	2pleas	acq_US_unple_nomask	acq1_nomask	1	24	0	0	300	300	0	0	694	46	1	0	loyal	helfen	lachen	retten	tolerant	treu	lasch	hindern	leiden	rächen	tyrannisch	tot	schlau	fair	ehrlich	schön	freundlich	spielen	schroff	faul	eitel	schlecht	fanatisch	strafen	1	blank2r.bmp	0	1	+	0	1	blank2r.bmp	500	1	BMVZ	500	1	blank2r.bmp	880	5	tyrannisch	880	0	0	0	0	0	0	0	0	0	0	0	0
2024-06-12	12:28:14	12:32:59	284528	6.6.1	4_exp_EVA_AWA_CON	84	B	A	Rpleas_acq	Oppo	Rpleas	2pleas	acq_US_pleas_nomask	acq1_nomask	1	25	0	0	300	300	0	0	761	50	1	0	loyal	helfen	lachen	retten	tolerant	treu	lasch	hindern	leiden	rächen	tyrannisch	tot	schlau	fair	ehrlich	schön	freundlich	spielen	schroff	faul	eitel	schlecht	fanatisch	strafen	1	blank2r.bmp	0	1	+	0	1	blank2r.bmp	500	1	GKQX	500	1	blank2r.bmp	880	4	retten	880	0	0	0	0	0	0	0	0	0	0	0	0
2024-06-12	12:28:14	12:33:01	286768	6.6.1	4_exp_EVA_AWA_CON	84	B	A	Rpleas_acq	Oppo	Rpleas	2pleas	acq_US_unple_nomask	acq1_nomask	1	26	0	0	300	300	0	0	759	46	1	0	loyal	helfen	lachen	retten	tolerant	treu	lasch	hindern	leiden	rächen	tyrannisch	tot	schlau	fair	ehrlich	schön	freundlich	spielen	schroff	faul	eitel	schlecht	fanatisch	strafen	1	blank2r.bmp	0	1	+	0	1	blank2r.bmp	500	1	BMVZ	500	1	blank2r.bmp	880	1	lasch	880	0	0	0	0	0	0	0	0	0	0	0	0
2024-06-12	12:28:14	12:33:03	289288	6.6.1	4_exp_EVA_AWA_CON	84	B	A	Rpleas_acq	Oppo	Rpleas	2pleas	acq_new_pleas_nomask	acq1_nomask	1	27	0	0	300	300	0	0	1038	50	1	0	loyal	helfen	lachen	retten	tolerant	treu	lasch	hindern	leiden	rächen	tyrannisch	tot	schlau	fair	ehrlich	schön	freundlich	spielen	schroff	faul	eitel	schlecht	fanatisch	strafen	1	blank2r.bmp	0	1	+	0	1	blank2r.bmp	500	5	C1r.bmp	500	1	blank2r.bmp	880	6	spielen	880	0	0	0	0	0	0	0	0	0	0	0	0
2024-06-12	12:28:14	12:33:06	291776	6.6.1	4_exp_EVA_AWA_CON	84	B	A	Rpleas_acq	Oppo	Rpleas	2pleas	acq_US_unple_nomask	acq1_nomask	1	28	0	0	300	300	0	0	1004	46	1	0	loyal	helfen	lachen	retten	tolerant	treu	lasch	hindern	leiden	rächen	tyrannisch	tot	schlau	fair	ehrlich	schön	freundlich	spielen	schroff	faul	eitel	schlecht	fanatisch	strafen	1	blank2r.bmp	0	1	+	0	1	blank2r.bmp	500	1	BMVZ	500	1	blank2r.bmp	880	3	leiden	880	0	0	0	0	0	0	0	0	0	0	0	0
2024-06-12	12:28:14	12:33:08	293856	6.6.1	4_exp_EVA_AWA_CON	84	B	A	Rpleas_acq	Oppo	Rpleas	2pleas	acq_new_unple_nomask	acq1_nomask	1	29	0	0	300	300	0	0	593	46	1	0	loyal	helfen	lachen	retten	tolerant	treu	lasch	hindern	leiden	rächen	tyrannisch	tot	schlau	fair	ehrlich	schön	freundlich	spielen	schroff	faul	eitel	schlecht	fanatisch	strafen	1	blank2r.bmp	0	1	+	0	1	blank2r.bmp	500	1	B1r.bmp	500	1	blank2r.bmp	880	4	schlecht	880	0	0	0	0	0	0	0	0	0	0	0	0
2024-06-12	12:28:14	12:33:10	295864	6.6.1	4_exp_EVA_AWA_CON	84	B	A	Rpleas_acq	Oppo	Rpleas	2pleas	acq_US_unple_nomask	acq1_nomask	1	30	0	0	300	300	0	0	519	46	1	0	loyal	helfen	lachen	retten	tolerant	treu	lasch	hindern	leiden	rächen	tyrannisch	tot	schlau	fair	ehrlich	schön	freundlich	spielen	schroff	faul	eitel	schlecht	fanatisch	strafen	1	blank2r.bmp	0	1	+	0	1	blank2r.bmp	500	1	BMVZ	500	1	blank2r.bmp	880	6	tot	880	0	0	0	0	0	0	0	0	0	0	0	0
2024-06-12	12:28:14	12:33:12	298112	6.6.1	4_exp_EVA_AWA_CON	84	B	A	Rpleas_acq	Oppo	Rpleas	2pleas	acq_new_pleas_nomask	acq1_nomask	1	31	0	0	300	300	0	0	766	50	1	0	loyal	helfen	lachen	retten	tolerant	treu	lasch	hindern	leiden	rächen	tyrannisch	tot	schlau	fair	ehrlich	schön	freundlich	spielen	schroff	faul	eitel	schlecht	fanatisch	strafen	1	blank2r.bmp	0	1	+	0	1	blank2r.bmp	500	2	B2r.bmp	500	1	blank2r.bmp	880	1	schlau	880	0	0	0	0	0	0	0	0	0	0	0	0
2024-06-12	12:28:14	12:33:14	300280	6.6.1	4_exp_EVA_AWA_CON	84	B	A	Rpleas_acq	Oppo	Rpleas	2pleas	acq_new_unple_nomask	acq1_nomask	1	32	0	0	300	300	0	0	682	46	1	0	loyal	helfen	lachen	retten	tolerant	treu	lasch	hindern	leiden	rächen	tyrannisch	tot	schlau	fair	ehrlich	schön	freundlich	spielen	schroff	faul	eitel	schlecht	fanatisch	strafen	1	blank2r.bmp	0	1	+	0	1	blank2r.bmp	500	7	C3r.bmp	500	1	blank2r.bmp	880	1	schroff	880	0	0	0	0	0	0	0	0	0	0	0	0
2024-06-12	12:28:14	12:33:17	302408	6.6.1	4_exp_EVA_AWA_CON	84	B	A	Rpleas_acq	Oppo	Rpleas	2pleas	acq_US_pleas_nomask	acq1_nomask	1	33	0	0	300	300	0	0	639	50	1	0	loyal	helfen	lachen	retten	tolerant	treu	lasch	hindern	leiden	rächen	tyrannisch	tot	schlau	fair	ehrlich	schön	freundlich	spielen	schroff	faul	eitel	schlecht	fanatisch	strafen	1	blank2r.bmp	0	1	+	0	1	blank2r.bmp	500	1	GKQX	500	1	blank2r.bmp	880	2	helfen	880	0	0	0	0	0	0	0	0	0	0	0	0
2024-06-12	12:28:14	12:33:19	304768	6.6.1	4_exp_EVA_AWA_CON	84	B	A	Rpleas_acq	Oppo	Rpleas	2pleas	acq_new_pleas_nomask	acq1_nomask	1	34	0	0	300	300	0	0	878	50	1	0	loyal	helfen	lachen	retten	tolerant	treu	lasch	hindern	leiden	rächen	tyrannisch	tot	schlau	fair	ehrlich	schön	freundlich	spielen	schroff	faul	eitel	schlecht	fanatisch	strafen	1	blank2r.bmp	0	1	+	0	1	blank2r.bmp	500	8	C4r.bmp	500	1	blank2r.bmp	880	2	fair	880	0	0	0	0	0	0	0	0	0	0	0	0
2024-06-12	12:28:14	12:33:21	306953	6.6.1	4_exp_EVA_AWA_CON	84	B	A	Rpleas_acq	Oppo	Rpleas	2pleas	acq_new_unple_nomask	acq1_nomask	1	35	0	0	300	300	0	0	700	46	1	0	loyal	helfen	lachen	retten	tolerant	treu	lasch	hindern	leiden	rächen	tyrannisch	tot	schlau	fair	ehrlich	schön	freundlich	spielen	schroff	faul	eitel	schlecht	fanatisch	strafen	1	blank2r.bmp	0	1	+	0	1	blank2r.bmp	500	5	C1r.bmp	500	1	blank2r.bmp	880	6	strafen	880	0	0	0	0	0	0	0	0	0	0	0	0
2024-06-12	12:28:14	12:33:24	309472	6.6.1	4_exp_EVA_AWA_CON	84	B	A	Rpleas_acq	Oppo	Rpleas	2pleas	acq_US_pleas_nomask	acq1_nomask	1	36	0	0	300	300	0	0	1039	50	1	0	loyal	helfen	lachen	retten	tolerant	treu	lasch	hindern	leiden	rächen	tyrannisch	tot	schlau	fair	ehrlich	schön	freundlich	spielen	schroff	faul	eitel	schlecht	fanatisch	strafen	1	blank2r.bmp	0	1	+	0	1	blank2r.bmp	500	1	GKQX	500	1	blank2r.bmp	880	5	tolerant	880	0	0	0	0	0	0	0	0	0	0	0	0
2024-06-12	12:28:14	12:33:54	340106	6.6.1	4_exp_EVA_AWA_CON	84	B	A	Rpleas_acq	Oppo	Rpleas	2pleas	acq_new_pleas_nomask	acq2_nomask	2	1	480	0	300	300	0	0	853	50	1	0	loyal	helfen	lachen	retten	tolerant	treu	lasch	hindern	leiden	rächen	tyrannisch	tot	schlau	fair	ehrlich	schön	freundlich	spielen	schroff	faul	eitel	schlecht	fanatisch	strafen	1	blank2r.bmp	0	1	+	0	1	blank2r.bmp	500	4	B4r.bmp	500	1	blank2r.bmp	880	5	freundlich	880	1	!	1312	1	!	-1	0	0	0	0	0	0
2024-06-12	12:28:14	12:33:57	342493	6.6.1	4_exp_EVA_AWA_CON	84	B	A	Rpleas_acq	Oppo	Rpleas	2pleas	acq_US_pleas_nomask	acq2_nomask	2	2	480	0	300	300	0	0	405	46	0	0	loyal	helfen	lachen	retten	tolerant	treu	lasch	hindern	leiden	rächen	tyrannisch	tot	schlau	fair	ehrlich	schön	freundlich	spielen	schroff	faul	eitel	schlecht	fanatisch	strafen	1	blank2r.bmp	0	1	+	0	1	blank2r.bmp	500	1	GKQX	500	1	blank2r.bmp	880	1	loyal	880	1	FEHLER	1598	1	!	-1	1	!	-1	0	0	0
2024-06-12	12:28:14	12:33:59	344620	6.6.1	4_exp_EVA_AWA_CON	84	B	A	Rpleas_acq	Oppo	Rpleas	2pleas	acq_US_unple_nomask	acq2_nomask	2	3	480	0	300	300	0	0	352	50	0	0	loyal	helfen	lachen	retten	tolerant	treu	lasch	hindern	leiden	rächen	tyrannisch	tot	schlau	fair	ehrlich	schön	freundlich	spielen	schroff	faul	eitel	schlecht	fanatisch	strafen	1	blank2r.bmp	0	1	+	0	1	blank2r.bmp	500	1	BMVZ	500	1	blank2r.bmp	880	5	tyrannisch	880	1	FEHLER	1544	1	!	-1	1	!	-1	0	0	0
2024-06-12	12:28:14	12:34:01	347085	6.6.1	4_exp_EVA_AWA_CON	84	B	A	Rpleas_acq	Oppo	Rpleas	2pleas	acq_new_pleas_nomask	acq2_nomask	2	4	480	0	300	300	0	0	684	46	0	0	loyal	helfen	lachen	retten	tolerant	treu	lasch	hindern	leiden	rächen	tyrannisch	tot	schlau	fair	ehrlich	schön	freundlich	spielen	schroff	faul	eitel	schlecht	fanatisch	strafen	1	blank2r.bmp	0	1	+	0	1	blank2r.bmp	500	3	B3r.bmp	500	1	blank2r.bmp	880	4	schön	880	1	FEHLER	1877	1	!	1313	1	!	-1	0	0	0
2024-06-12	12:28:14	12:34:03	349132	6.6.1	4_exp_EVA_AWA_CON	84	B	A	Rpleas_acq	Oppo	Rpleas	2pleas	acq_new_pleas_nomask	acq2_nomask	2	5	480	1	300	300	0	0	471	50	1	0	loyal	helfen	lachen	retten	tolerant	treu	lasch	hindern	leiden	rächen	tyrannisch	tot	schlau	fair	ehrlich	schön	freundlich	spielen	schroff	faul	eitel	schlecht	fanatisch	strafen	1	blank2r.bmp	0	1	+	0	1	blank2r.bmp	500	6	C2r.bmp	500	1	blank2r.bmp	880	3	ehrlich	880	1	!	1313	1	!	1372	0	0	0	0	0	0
2024-06-12	12:28:14	12:34:06	351629	6.6.1	4_exp_EVA_AWA_CON	84	B	A	Rpleas_acq	Oppo	Rpleas	2pleas	acq_new_unple_nomask	acq2_nomask	2	6	480	1	300	300	0	0	515	50	0	0	loyal	helfen	lachen	retten	tolerant	treu	lasch	hindern	leiden	rächen	tyrannisch	tot	schlau	fair	ehrlich	schön	freundlich	spielen	schroff	faul	eitel	schlecht	fanatisch	strafen	1	blank2r.bmp	0	1	+	0	1	blank2r.bmp	500	2	B2r.bmp	500	1	blank2r.bmp	880	3	eitel	880	1	FEHLER	1708	1	!	1313	1	!	1416	0	0	0
2024-06-12	12:28:14	12:34:08	353570	6.6.1	4_exp_EVA_AWA_CON	84	B	A	Rpleas_acq	Oppo	Rpleas	2pleas	acq_new_unple_nomask	acq2_nomask	2	7	480	0	300	300	0	0	368	46	1	0	loyal	helfen	lachen	retten	tolerant	treu	lasch	hindern	leiden	rächen	tyrannisch	tot	schlau	fair	ehrlich	schön	freundlich	spielen	schroff	faul	eitel	schlecht	fanatisch	strafen	1	blank2r.bmp	0	1	+	0	1	blank2r.bmp	500	1	B1r.bmp	500	1	blank2r.bmp	880	5	fanatisch	880	1	!	-1	1	!	-1	0	0	0	0	0	0
2024-06-12	12:28:14	12:34:10	355896	6.6.1	4_exp_EVA_AWA_CON	84	B	A	Rpleas_acq	Oppo	Rpleas	2pleas	acq_US_unple_nomask	acq2_nomask	2	8	480	0	300	300	0	0	554	46	1	0	loyal	helfen	lachen	retten	tolerant	treu	lasch	hindern	leiden	rächen	tyrannisch	tot	schlau	fair	ehrlich	schön	freundlich	spielen	schroff	faul	eitel	schlecht	fanatisch	strafen	1	blank2r.bmp	0	1	+	0	1	blank2r.bmp	500	1	BMVZ	500	1	blank2r.bmp	880	2	hindern	880	1	!	1313	1	!	-1	0	0	0	0	0	0
2024-06-12	12:28:14	12:34:12	357978	6.6.1	4_exp_EVA_AWA_CON	84	B	A	Rpleas_acq	Oppo	Rpleas	2pleas	acq_US_unple_nomask	acq2_nomask	2	9	480	0	300	300	0	0	303	46	1	0	loyal	helfen	lachen	retten	tolerant	treu	lasch	hindern	leiden	rächen	tyrannisch	tot	schlau	fair	ehrlich	schön	freundlich	spielen	schroff	faul	eitel	schlecht	fanatisch	strafen	1	blank2r.bmp	0	1	+	0	1	blank2r.bmp	500	1	BMVZ	500	1	blank2r.bmp	880	4	rächen	880	1	!	-1	1	!	-1	0	0	0	0	0	0
2024-06-12	12:28:14	12:34:15	360397	6.6.1	4_exp_EVA_AWA_CON	84	B	A	Rpleas_acq	Oppo	Rpleas	2pleas	acq_new_unple_nomask	acq2_nomask	2	10	480	1	300	300	0	0	437	50	0	0	loyal	helfen	lachen	retten	tolerant	treu	lasch	hindern	leiden	rächen	tyrannisch	tot	schlau	fair	ehrlich	schön	freundlich	spielen	schroff	faul	eitel	schlecht	fanatisch	strafen	1	blank2r.bmp	0	1	+	0	1	blank2r.bmp	500	7	C3r.bmp	500	1	blank2r.bmp	880	2	faul	880	1	FEHLER	1630	1	!	1312	1	!	1338	0	0	0
2024-06-12	12:28:14	12:34:17	362476	6.6.1	4_exp_EVA_AWA_CON	84	B	A	Rpleas_acq	Oppo	Rpleas	2pleas	acq_US_pleas_nomask	acq2_nomask	2	11	480	1	300	300	0	0	506	50	1	0	loyal	helfen	lachen	retten	tolerant	treu	lasch	hindern	leiden	rächen	tyrannisch	tot	schlau	fair	ehrlich	schön	freundlich	spielen	schroff	faul	eitel	schlecht	fanatisch	strafen	1	blank2r.bmp	0	1	+	0	1	blank2r.bmp	500	1	GKQX	500	1	blank2r.bmp	880	6	treu	880	1	!	1313	1	!	1407	0	0	0	0	0	0
2024-06-12	12:28:14	12:34:19	364805	6.6.1	4_exp_EVA_AWA_CON	84	B	A	Rpleas_acq	Oppo	Rpleas	2pleas	acq_US_pleas_nomask	acq2_nomask	2	12	480	0	300	300	0	0	352	46	0	0	loyal	helfen	lachen	retten	tolerant	treu	lasch	hindern	leiden	rächen	tyrannisch	tot	schlau	fair	ehrlich	schön	freundlich	spielen	schroff	faul	eitel	schlecht	fanatisch	strafen	1	blank2r.bmp	0	1	+	0	1	blank2r.bmp	500	1	GKQX	500	1	blank2r.bmp	880	3	lachen	880	1	FEHLER	1545	1	!	-1	1	!	-1	0	0	0
2024-06-12	12:28:14	12:34:21	366770	6.6.1	4_exp_EVA_AWA_CON	84	B	A	Rpleas_acq	Oppo	Rpleas	2pleas	acq_new_pleas_nomask	acq2_nomask	2	13	480	0	300	300	0	0	389	50	1	0	loyal	helfen	lachen	retten	tolerant	treu	lasch	hindern	leiden	rächen	tyrannisch	tot	schlau	fair	ehrlich	schön	freundlich	spielen	schroff	faul	eitel	schlecht	fanatisch	strafen	1	blank2r.bmp	0	1	+	0	1	blank2r.bmp	500	4	B4r.bmp	500	1	blank2r.bmp	880	2	fair	880	1	!	-1	1	!	-1	0	0	0	0	0	0
2024-06-12	12:28:14	12:34:24	369493	6.6.1	4_exp_EVA_AWA_CON	84	B	A	Rpleas_acq	Oppo	Rpleas	2pleas	acq_new_unple_nomask	acq2_nomask	2	14	480	0	300	300	0	0	748	50	0	0	loyal	helfen	lachen	retten	tolerant	treu	lasch	hindern	leiden	rächen	tyrannisch	tot	schlau	fair	ehrlich	schön	freundlich	spielen	schroff	faul	eitel	schlecht	fanatisch	strafen	1	blank2r.bmp	0	1	+	0	1	blank2r.bmp	500	5	C1r.bmp	500	1	blank2r.bmp	880	4	schlecht	880	1	FEHLER	1940	1	!	1312	1	!	-1	0	0	0
2024-06-12	12:28:14	12:34:26	371669	6.6.1	4_exp_EVA_AWA_CON	84	B	A	Rpleas_acq	Oppo	Rpleas	2pleas	acq_US_pleas_nomask	acq2_nomask	2	15	480	0	300	300	0	0	402	46	0	0	loyal	helfen	lachen	retten	tolerant	treu	lasch	hindern	leiden	rächen	tyrannisch	tot	schlau	fair	ehrlich	schön	freundlich	spielen	schroff	faul	eitel	schlecht	fanatisch	strafen	1	blank2r.bmp	0	1	+	0	1	blank2r.bmp	500	1	GKQX	500	1	blank2r.bmp	880	5	tolerant	880	1	FEHLER	1595	1	!	-1	1	!	-1	0	0	0
2024-06-12	12:28:14	12:34:32	377462	6.6.1	4_exp_EVA_AWA_CON	84	B	A	Rpleas_acq	Oppo	Rpleas	2pleas	acq_US_unple_nomask	acq2_nomask	2	16	480	0	300	300	0	0	4012	50	0	0	loyal	helfen	lachen	retten	tolerant	treu	lasch	hindern	leiden	rächen	tyrannisch	tot	schlau	fair	ehrlich	schön	freundlich	spielen	schroff	faul	eitel	schlecht	fanatisch	strafen	1	blank2r.bmp	0	1	+	0	1	blank2r.bmp	500	1	BMVZ	500	1	blank2r.bmp	880	6	tot	880	1	FEHLER	5206	1	!	1312	1	!	-1	0	0	0
2024-06-12	12:28:14	12:34:34	379442	6.6.1	4_exp_EVA_AWA_CON	84	B	A	Rpleas_acq	Oppo	Rpleas	2pleas	acq_US_pleas_nomask	acq2_nomask	2	17	480	0	300	300	0	0	403	50	1	0	loyal	helfen	lachen	retten	tolerant	treu	lasch	hindern	leiden	rächen	tyrannisch	tot	schlau	fair	ehrlich	schön	freundlich	spielen	schroff	faul	eitel	schlecht	fanatisch	strafen	1	blank2r.bmp	0	1	+	0	1	blank2r.bmp	500	1	GKQX	500	1	blank2r.bmp	880	1	loyal	880	1	!	-1	1	!	-1	0	0	0	0	0	0
2024-06-12	12:28:14	12:34:36	381917	6.6.1	4_exp_EVA_AWA_CON	84	B	A	Rpleas_acq	Oppo	Rpleas	2pleas	acq_US_pleas_nomask	acq2_nomask	2	18	480	1	300	300	0	0	493	46	0	0	loyal	helfen	lachen	retten	tolerant	treu	lasch	hindern	leiden	rächen	tyrannisch	tot	schlau	fair	ehrlich	schön	freundlich	spielen	schroff	faul	eitel	schlecht	fanatisch	strafen	1	blank2r.bmp	0	1	+	0	1	blank2r.bmp	500	1	GKQX	500	1	blank2r.bmp	880	3	lachen	880	1	FEHLER	1686	1	!	1313	1	!	1394	0	0	0
2024-06-12	12:28:14	12:34:38	383964	6.6.1	4_exp_EVA_AWA_CON	84	B	A	Rpleas_acq	Oppo	Rpleas	2pleas	acq_new_pleas_nomask	acq2_nomask	2	19	480	1	300	300	0	0	470	50	1	0	loyal	helfen	lachen	retten	tolerant	treu	lasch	hindern	leiden	rächen	tyrannisch	tot	schlau	fair	ehrlich	schön	freundlich	spielen	schroff	faul	eitel	schlecht	fanatisch	strafen	1	blank2r.bmp	0	1	+	0	1	blank2r.bmp	500	2	B2r.bmp	500	1	blank2r.bmp	880	4	schön	880	1	!	1313	1	!	1371	0	0	0	0	0	0
2024-06-12	12:28:14	12:34:41	386558	6.6.1	4_exp_EVA_AWA_CON	84	B	A	Rpleas_acq	Oppo	Rpleas	2pleas	acq_new_unple_nomask	acq2_nomask	2	20	480	0	300	300	0	0	610	50	0	0	loyal	helfen	lachen	retten	tolerant	treu	lasch	hindern	leiden	rächen	tyrannisch	tot	schlau	fair	ehrlich	schön	freundlich	spielen	schroff	faul	eitel	schlecht	fanatisch	strafen	1	blank2r.bmp	0	1	+	0	1	blank2r.bmp	500	8	C4r.bmp	500	1	blank2r.bmp	880	2	faul	880	1	FEHLER	1804	1	!	1313	1	!	-1	0	0	0
2024-06-12	12:28:14	12:34:43	388965	6.6.1	4_exp_EVA_AWA_CON	84	B	A	Rpleas_acq	Oppo	Rpleas	2pleas	acq_new_unple_nomask	acq2_nomask	2	21	480	0	300	300	0	0	627	50	0	0	loyal	helfen	lachen	retten	tolerant	treu	lasch	hindern	leiden	rächen	tyrannisch	tot	schlau	fair	ehrlich	schön	freundlich	spielen	schroff	faul	eitel	schlecht	fanatisch	strafen	1	blank2r.bmp	0	1	+	0	1	blank2r.bmp	500	6	C2r.bmp	500	1	blank2r.bmp	880	5	fanatisch	880	1	FEHLER	1820	1	!	1313	1	!	-1	0	0	0
2024-06-12	12:28:14	12:34:45	391221	6.6.1	4_exp_EVA_AWA_CON	84	B	A	Rpleas_acq	Oppo	Rpleas	2pleas	acq_new_pleas_nomask	acq2_nomask	2	22	480	1	300	300	0	0	481	46	0	0	loyal	helfen	lachen	retten	tolerant	treu	lasch	hindern	leiden	rächen	tyrannisch	tot	schlau	fair	ehrlich	schön	freundlich	spielen	schroff	faul	eitel	schlecht	fanatisch	strafen	1	blank2r.bmp	0	1	+	0	1	blank2r.bmp	500	3	B3r.bmp	500	1	blank2r.bmp	880	3	ehrlich	880	1	FEHLER	1674	1	!	1312	1	!	1383	0	0	0
2024-06-12	12:28:14	12:34:48	393485	6.6.1	4_exp_EVA_AWA_CON	84	B	A	Rpleas_acq	Oppo	Rpleas	2pleas	acq_US_unple_nomask	acq2_nomask	2	23	480	1	300	300	0	0	484	50	0	0	loyal	helfen	lachen	retten	tolerant	treu	lasch	hindern	leiden	rächen	tyrannisch	tot	schlau	fair	ehrlich	schön	freundlich	spielen	schroff	faul	eitel	schlecht	fanatisch	strafen	1	blank2r.bmp	0	1	+	0	1	blank2r.bmp	500	1	BMVZ	500	1	blank2r.bmp	880	5	tyrannisch	880	1	FEHLER	1677	1	!	1312	1	!	1385	0	0	0
2024-06-12	12:28:14	12:34:50	395778	6.6.1	4_exp_EVA_AWA_CON	84	B	A	Rpleas_acq	Oppo	Rpleas	2pleas	acq_US_unple_nomask	acq2_nomask	2	24	480	0	300	300	0	0	718	46	1	0	loyal	helfen	lachen	retten	tolerant	treu	lasch	hindern	leiden	rächen	tyrannisch	tot	schlau	fair	ehrlich	schön	freundlich	spielen	schroff	faul	eitel	schlecht	fanatisch	strafen	1	blank2r.bmp	0	1	+	0	1	blank2r.bmp	500	1	BMVZ	500	1	blank2r.bmp	880	1	lasch	880	1	!	1312	1	!	-1	0	0	0	0	0	0
2024-06-12	12:28:14	12:34:52	398165	6.6.1	4_exp_EVA_AWA_CON	84	B	A	Rpleas_acq	Oppo	Rpleas	2pleas	acq_new_unple_nomask	acq2_nomask	2	25	480	0	300	300	0	0	411	50	0	0	loyal	helfen	lachen	retten	tolerant	treu	lasch	hindern	leiden	rächen	tyrannisch	tot	schlau	fair	ehrlich	schön	freundlich	spielen	schroff	faul	eitel	schlecht	fanatisch	strafen	1	blank2r.bmp	0	1	+	0	1	blank2r.bmp	500	7	C3r.bmp	500	1	blank2r.bmp	880	3	eitel	880	1	FEHLER	1604	1	!	-1	1	!	-1	0	0	0
2024-06-12	12:28:14	12:34:55	400426	6.6.1	4_exp_EVA_AWA_CON	84	B	A	Rpleas_acq	Oppo	Rpleas	2pleas	acq_US_unple_nomask	acq2_nomask	2	26	480	0	300	300	0	0	683	46	1	0	loyal	helfen	lachen	retten	tolerant	treu	lasch	hindern	leiden	rächen	tyrannisch	tot	schlau	fair	ehrlich	schön	freundlich	spielen	schroff	faul	eitel	schlecht	fanatisch	strafen	1	blank2r.bmp	0	1	+	0	1	blank2r.bmp	500	1	BMVZ	500	1	blank2r.bmp	880	3	leiden	880	1	!	1312	1	!	-1	0	0	0	0	0	0
2024-06-12	12:28:14	12:34:57	402834	6.6.1	4_exp_EVA_AWA_CON	84	B	A	Rpleas_acq	Oppo	Rpleas	2pleas	acq_US_pleas_nomask	acq2_nomask	2	27	480	0	300	300	0	0	630	50	1	0	loyal	helfen	lachen	retten	tolerant	treu	lasch	hindern	leiden	rächen	tyrannisch	tot	schlau	fair	ehrlich	schön	freundlich	spielen	schroff	faul	eitel	schlecht	fanatisch	strafen	1	blank2r.bmp	0	1	+	0	1	blank2r.bmp	500	1	GKQX	500	1	blank2r.bmp	880	2	helfen	880	1	!	1313	1	!	-1	0	0	0	0	0	0
2024-06-12	12:28:14	12:35:00	405371	6.6.1	4_exp_EVA_AWA_CON	84	B	A	Rpleas_acq	Oppo	Rpleas	2pleas	acq_new_unple_nomask	acq2_nomask	2	28	480	0	300	300	0	0	554	50	0	0	loyal	helfen	lachen	retten	tolerant	treu	lasch	hindern	leiden	rächen	tyrannisch	tot	schlau	fair	ehrlich	schön	freundlich	spielen	schroff	faul	eitel	schlecht	fanatisch	strafen	1	blank2r.bmp	0	1	+	0	1	blank2r.bmp	500	1	B1r.bmp	500	1	blank2r.bmp	880	6	strafen	880	1	FEHLER	1745	1	!	1313	1	!	-1	0	0	0
2024-06-12	12:28:14	12:35:02	407530	6.6.1	4_exp_EVA_AWA_CON	84	B	A	Rpleas_acq	Oppo	Rpleas	2pleas	acq_US_unple_nomask	acq2_nomask	2	29	480	0	300	300	0	0	583	46	1	0	loyal	helfen	lachen	retten	tolerant	treu	lasch	hindern	leiden	rächen	tyrannisch	tot	schlau	fair	ehrlich	schön	freundlich	spielen	schroff	faul	eitel	schlecht	fanatisch	strafen	1	blank2r.bmp	0	1	+	0	1	blank2r.bmp	500	1	BMVZ	500	1	blank2r.bmp	880	2	hindern	880	1	!	1312	1	!	-1	0	0	0	0	0	0
2024-06-12	12:28:14	12:35:04	409788	6.6.1	4_exp_EVA_AWA_CON	84	B	A	Rpleas_acq	Oppo	Rpleas	2pleas	acq_new_pleas_nomask	acq2_nomask	2	30	480	1	300	300	0	0	477	50	1	0	loyal	helfen	lachen	retten	tolerant	treu	lasch	hindern	leiden	rächen	tyrannisch	tot	schlau	fair	ehrlich	schön	freundlich	spielen	schroff	faul	eitel	schlecht	fanatisch	strafen	1	blank2r.bmp	0	1	+	0	1	blank2r.bmp	500	8	C4r.bmp	500	1	blank2r.bmp	880	6	spielen	880	1	!	1312	1	!	1378	0	0	0	0	0	0
2024-06-12	12:28:14	12:35:06	412213	6.6.1	4_exp_EVA_AWA_CON	84	B	A	Rpleas_acq	Oppo	Rpleas	2pleas	acq_US_unple_nomask	acq2_nomask	2	31	480	1	300	300	0	0	449	50	0	0	loyal	helfen	lachen	retten	tolerant	treu	lasch	hindern	leiden	rächen	tyrannisch	tot	schlau	fair	ehrlich	schön	freundlich	spielen	schroff	faul	eitel	schlecht	fanatisch	strafen	1	blank2r.bmp	0	1	+	0	1	blank2r.bmp	500	1	BMVZ	500	1	blank2r.bmp	880	4	rächen	880	1	FEHLER	1643	1	!	1312	1	!	1350	0	0	0
2024-06-12	12:28:14	12:35:09	414523	6.6.1	4_exp_EVA_AWA_CON	84	B	A	Rpleas_acq	Oppo	Rpleas	2pleas	acq_US_pleas_nomask	acq2_nomask	2	32	480	0	300	300	0	0	730	50	1	0	loyal	helfen	lachen	retten	tolerant	treu	lasch	hindern	leiden	rächen	tyrannisch	tot	schlau	fair	ehrlich	schön	freundlich	spielen	schroff	faul	eitel	schlecht	fanatisch	strafen	1	blank2r.bmp	0	1	+	0	1	blank2r.bmp	500	1	GKQX	500	1	blank2r.bmp	880	6	treu	880	1	!	1312	1	!	-1	0	0	0	0	0	0
2024-06-12	12:28:14	12:35:11	416820	6.6.1	4_exp_EVA_AWA_CON	84	B	A	Rpleas_acq	Oppo	Rpleas	2pleas	acq_new_pleas_nomask	acq2_nomask	2	33	480	1	300	300	0	0	515	50	1	0	loyal	helfen	lachen	retten	tolerant	treu	lasch	hindern	leiden	rächen	tyrannisch	tot	schlau	fair	ehrlich	schön	freundlich	spielen	schroff	faul	eitel	schlecht	fanatisch	strafen	1	blank2r.bmp	0	1	+	0	1	blank2r.bmp	500	3	B3r.bmp	500	1	blank2r.bmp	880	5	freundlich	880	1	!	1313	1	!	1415	0	0	0	0	0	0
2024-06-12	12:28:14	12:35:13	419202	6.6.1	4_exp_EVA_AWA_CON	84	B	A	Rpleas_acq	Oppo	Rpleas	2pleas	acq_new_unple_nomask	acq2_nomask	2	34	480	0	300	300	0	0	607	46	1	0	loyal	helfen	lachen	retten	tolerant	treu	lasch	hindern	leiden	rächen	tyrannisch	tot	schlau	fair	ehrlich	schön	freundlich	spielen	schroff	faul	eitel	schlecht	fanatisch	strafen	1	blank2r.bmp	0	1	+	0	1	blank2r.bmp	500	4	B4r.bmp	500	1	blank2r.bmp	880	1	schroff	880	1	!	1313	1	!	-1	0	0	0	0	0	0
2024-06-12	12:28:14	12:35:16	421634	6.6.1	4_exp_EVA_AWA_CON	84	B	A	Rpleas_acq	Oppo	Rpleas	2pleas	acq_new_pleas_nomask	acq2_nomask	2	35	480	0	300	300	0	0	657	50	1	0	loyal	helfen	lachen	retten	tolerant	treu	lasch	hindern	leiden	rächen	tyrannisch	tot	schlau	fair	ehrlich	schön	freundlich	spielen	schroff	faul	eitel	schlecht	fanatisch	strafen	1	blank2r.bmp	0	1	+	0	1	blank2r.bmp	500	2	B2r.bmp	500	1	blank2r.bmp	880	1	schlau	880	1	!	1313	1	!	-1	0	0	0	0	0	0
2024-06-12	12:28:14	12:35:18	423819	6.6.1	4_exp_EVA_AWA_CON	84	B	A	Rpleas_acq	Oppo	Rpleas	2pleas	acq_US_pleas_nomask	acq2_nomask	2	36	480	0	300	300	0	0	410	50	1	0	loyal	helfen	lachen	retten	tolerant	treu	lasch	hindern	leiden	rächen	tyrannisch	tot	schlau	fair	ehrlich	schön	freundlich	spielen	schroff	faul	eitel	schlecht	fanatisch	strafen	1	blank2r.bmp	0	1	+	0	1	blank2r.bmp	500	1	GKQX	500	1	blank2r.bmp	880	4	retten	880	1	!	-1	1	!	-1	0	0	0	0	0	0
2024-06-12	12:28:14	12:35:35	441253	6.6.1	4_exp_EVA_AWA_CON	84	B	A	Rpleas_acq	Oppo	Rpleas	2pleas	acq_US_unple_nomask	acq3_nomask	3	1	453	0	300	300	0	0	691	50	0	0	loyal	helfen	lachen	retten	tolerant	treu	lasch	hindern	leiden	rächen	tyrannisch	tot	schlau	fair	ehrlich	schön	freundlich	spielen	schroff	faul	eitel	schlecht	fanatisch	strafen	1	blank2r.bmp	0	1	+	0	1	blank2r.bmp	500	1	BMVZ	500	1	blank2r.bmp	880	3	leiden	880	1	FEHLER	1884	1	!	1293	1	!	-1	0	0	0
2024-06-12	12:28:14	12:35:37	443234	6.6.1	4_exp_EVA_AWA_CON	84	B	A	Rpleas_acq	Oppo	Rpleas	2pleas	acq_US_unple_nomask	acq3_nomask	3	2	453	1	300	300	0	0	402	46	1	0	loyal	helfen	lachen	retten	tolerant	treu	lasch	hindern	leiden	rächen	tyrannisch	tot	schlau	fair	ehrlich	schön	freundlich	spielen	schroff	faul	eitel	schlecht	fanatisch	strafen	1	blank2r.bmp	0	1	+	0	1	blank2r.bmp	500	1	BMVZ	500	1	blank2r.bmp	880	5	tyrannisch	880	1	!	1292	1	!	1302	0	0	0	0	0	0
2024-06-12	12:28:14	12:35:43	448634	6.6.1	4_exp_EVA_AWA_CON	84	B	A	Rpleas_acq	Oppo	Rpleas	2pleas	acq_US_unple_nomask	acq3_nomask	3	3	453	0	300	300	0	0	3622	46	1	0	loyal	helfen	lachen	retten	tolerant	treu	lasch	hindern	leiden	rächen	tyrannisch	tot	schlau	fair	ehrlich	schön	freundlich	spielen	schroff	faul	eitel	schlecht	fanatisch	strafen	1	blank2r.bmp	0	1	+	0	1	blank2r.bmp	500	1	BMVZ	500	1	blank2r.bmp	880	2	hindern	880	1	!	1293	1	!	-1	0	0	0	0	0	0
2024-06-12	12:28:14	12:35:45	451030	6.6.1	4_exp_EVA_AWA_CON	84	B	A	Rpleas_acq	Oppo	Rpleas	2pleas	acq_US_unple_nomask	acq3_nomask	3	4	453	1	300	300	0	0	409	50	0	0	loyal	helfen	lachen	retten	tolerant	treu	lasch	hindern	leiden	rächen	tyrannisch	tot	schlau	fair	ehrlich	schön	freundlich	spielen	schroff	faul	eitel	schlecht	fanatisch	strafen	1	blank2r.bmp	0	1	+	0	1	blank2r.bmp	500	1	BMVZ	500	1	blank2r.bmp	880	6	tot	880	1	FEHLER	1604	1	!	1292	1	!	1312	0	0	0
2024-06-12	12:28:14	12:35:47	453181	6.6.1	4_exp_EVA_AWA_CON	84	B	A	Rpleas_acq	Oppo	Rpleas	2pleas	acq_US_pleas_nomask	acq3_nomask	3	5	453	0	300	300	0	0	370	46	0	0	loyal	helfen	lachen	retten	tolerant	treu	lasch	hindern	leiden	rächen	tyrannisch	tot	schlau	fair	ehrlich	schön	freundlich	spielen	schroff	faul	eitel	schlecht	fanatisch	strafen	1	blank2r.bmp	0	1	+	0	1	blank2r.bmp	500	1	GKQX	500	1	blank2r.bmp	880	1	loyal	880	1	FEHLER	1564	1	!	-1	1	!	-1	0	0	0
2024-06-12	12:28:14	12:35:50	455338	6.6.1	4_exp_EVA_AWA_CON	84	B	A	Rpleas_acq	Oppo	Rpleas	2pleas	acq_US_pleas_nomask	acq3_nomask	3	6	453	0	300	300	0	0	578	50	1	0	loyal	helfen	lachen	retten	tolerant	treu	lasch	hindern	leiden	rächen	tyrannisch	tot	schlau	fair	ehrlich	schön	freundlich	spielen	schroff	faul	eitel	schlecht	fanatisch	strafen	1	blank2r.bmp	0	1	+	0	1	blank2r.bmp	500	1	GKQX	500	1	blank2r.bmp	880	5	tolerant	880	1	!	1292	1	!	-1	0	0	0	0	0	0
2024-06-12	12:28:14	12:35:52	457523	6.6.1	4_exp_EVA_AWA_CON	84	B	A	Rpleas_acq	Oppo	Rpleas	2pleas	acq_US_pleas_nomask	acq3_nomask	3	7	453	1	300	300	0	0	412	50	1	0	loyal	helfen	lachen	retten	tolerant	treu	lasch	hindern	leiden	rächen	tyrannisch	tot	schlau	fair	ehrlich	schön	freundlich	spielen	schroff	faul	eitel	schlecht	fanatisch	strafen	1	blank2r.bmp	0	1	+	0	1	blank2r.bmp	500	1	GKQX	500	1	blank2r.bmp	880	4	retten	880	1	!	1292	1	!	1313	0	0	0	0	0	0
2024-06-12	12:28:14	12:35:54	459894	6.6.1	4_exp_EVA_AWA_CON	84	B	A	Rpleas_acq	Oppo	Rpleas	2pleas	acq_US_pleas_nomask	acq3_nomask	3	8	453	0	300	300	0	0	388	46	0	0	loyal	helfen	lachen	retten	tolerant	treu	lasch	hindern	leiden	rächen	tyrannisch	tot	schlau	fair	ehrlich	schön	freundlich	spielen	schroff	faul	eitel	schlecht	fanatisch	strafen	1	blank2r.bmp	0	1	+	0	1	blank2r.bmp	500	1	GKQX	500	1	blank2r.bmp	880	3	lachen	880	1	FEHLER	1582	1	!	-1	1	!	-1	0	0	0
2024-06-12	12:28:14	12:35:56	461956	6.6.1	4_exp_EVA_AWA_CON	84	B	A	Rpleas_acq	Oppo	Rpleas	2pleas	acq_US_pleas_nomask	acq3_nomask	3	9	453	1	300	300	0	0	491	50	1	0	loyal	helfen	lachen	retten	tolerant	treu	lasch	hindern	leiden	rächen	tyrannisch	tot	schlau	fair	ehrlich	schön	freundlich	spielen	schroff	faul	eitel	schlecht	fanatisch	strafen	1	blank2r.bmp	0	1	+	0	1	blank2r.bmp	500	1	GKQX	500	1	blank2r.bmp	880	2	helfen	880	1	!	1293	1	!	1392	0	0	0	0	0	0
2024-06-12	12:28:14	12:35:58	464322	6.6.1	4_exp_EVA_AWA_CON	84	B	A	Rpleas_acq	Oppo	Rpleas	2pleas	acq_US_unple_nomask	acq3_nomask	3	10	453	0	300	300	0	0	588	46	1	0	loyal	helfen	lachen	retten	tolerant	treu	lasch	hindern	leiden	rächen	tyrannisch	tot	schlau	fair	ehrlich	schön	freundlich	spielen	schroff	faul	eitel	schlecht	fanatisch	strafen	1	blank2r.bmp	0	1	+	0	1	blank2r.bmp	500	1	BMVZ	500	1	blank2r.bmp	880	4	rächen	880	1	!	1293	1	!	-1	0	0	0	0	0	0
2024-06-12	12:28:14	12:36:01	466508	6.6.1	4_exp_EVA_AWA_CON	84	B	A	Rpleas_acq	Oppo	Rpleas	2pleas	acq_US_unple_nomask	acq3_nomask	3	11	453	1	300	300	0	0	409	46	1	0	loyal	helfen	lachen	retten	tolerant	treu	lasch	hindern	leiden	rächen	tyrannisch	tot	schlau	fair	ehrlich	schön	freundlich	spielen	schroff	faul	eitel	schlecht	fanatisch	strafen	1	blank2r.bmp	0	1	+	0	1	blank2r.bmp	500	1	BMVZ	500	1	blank2r.bmp	880	1	lasch	880	1	!	1292	1	!	1311	0	0	0	0	0	0
2024-06-12	12:28:14	12:36:03	468724	6.6.1	4_exp_EVA_AWA_CON	84	B	A	Rpleas_acq	Oppo	Rpleas	2pleas	acq_US_pleas_nomask	acq3_nomask	3	12	453	1	300	300	0	0	435	50	1	0	loyal	helfen	lachen	retten	tolerant	treu	lasch	hindern	leiden	rächen	tyrannisch	tot	schlau	fair	ehrlich	schön	freundlich	spielen	schroff	faul	eitel	schlecht	fanatisch	strafen	1	blank2r.bmp	0	1	+	0	1	blank2r.bmp	500	1	GKQX	500	1	blank2r.bmp	880	6	treu	880	1	!	1293	1	!	1335	0	0	0	0	0	0
2024-06-12	12:28:14	12:36:05	470948	6.6.1	4_exp_EVA_AWA_CON	84	B	A	Rpleas_acq	Oppo	Rpleas	2pleas	acq_US_pleas_nomask	acq3_nomask	3	13	453	1	300	300	0	0	447	50	1	0	loyal	helfen	lachen	retten	tolerant	treu	lasch	hindern	leiden	rächen	tyrannisch	tot	schlau	fair	ehrlich	schön	freundlich	spielen	schroff	faul	eitel	schlecht	fanatisch	strafen	1	blank2r.bmp	0	1	+	0	1	blank2r.bmp	500	1	GKQX	500	1	blank2r.bmp	880	4	retten	880	1	!	1292	1	!	1348	0	0	0	0	0	0
2024-06-12	12:28:14	12:36:08	473428	6.6.1	4_exp_EVA_AWA_CON	84	B	A	Rpleas_acq	Oppo	Rpleas	2pleas	acq_US_unple_nomask	acq3_nomask	3	14	453	1	300	300	0	0	506	50	0	0	loyal	helfen	lachen	retten	tolerant	treu	lasch	hindern	leiden	rächen	tyrannisch	tot	schlau	fair	ehrlich	schön	freundlich	spielen	schroff	faul	eitel	schlecht	fanatisch	strafen	1	blank2r.bmp	0	1	+	0	1	blank2r.bmp	500	1	BMVZ	500	1	blank2r.bmp	880	6	tot	880	1	FEHLER	1698	1	!	1292	1	!	1406	0	0	0
2024-06-12	12:28:14	12:36:10	475476	6.6.1	4_exp_EVA_AWA_CON	84	B	A	Rpleas_acq	Oppo	Rpleas	2pleas	acq_US_unple_nomask	acq3_nomask	3	15	453	1	300	300	0	0	472	46	1	0	loyal	helfen	lachen	retten	tolerant	treu	lasch	hindern	leiden	rächen	tyrannisch	tot	schlau	fair	ehrlich	schön	freundlich	spielen	schroff	faul	eitel	schlecht	fanatisch	strafen	1	blank2r.bmp	0	1	+	0	1	blank2r.bmp	500	1	BMVZ	500	1	blank2r.bmp	880	3	leiden	880	1	!	1292	1	!	1373	0	0	0	0	0	0
2024-06-12	12:28:14	12:36:12	477776	6.6.1	4_exp_EVA_AWA_CON	84	B	A	Rpleas_acq	Oppo	Rpleas	2pleas	acq_US_unple_nomask	acq3_nomask	3	16	453	0	300	300	0	0	525	46	1	0	loyal	helfen	lachen	retten	tolerant	treu	lasch	hindern	leiden	rächen	tyrannisch	tot	schlau	fair	ehrlich	schön	freundlich	spielen	schroff	faul	eitel	schlecht	fanatisch	strafen	1	blank2r.bmp	0	1	+	0	1	blank2r.bmp	500	1	BMVZ	500	1	blank2r.bmp	880	5	tyrannisch	880	1	!	1292	1	!	-1	0	0	0	0	0	0
2024-06-12	12:28:14	12:36:14	480221	6.6.1	4_exp_EVA_AWA_CON	84	B	A	Rpleas_acq	Oppo	Rpleas	2pleas	acq_US_pleas_nomask	acq3_nomask	3	17	453	1	300	300	0	0	463	46	0	0	loyal	helfen	lachen	retten	tolerant	treu	lasch	hindern	leiden	rächen	tyrannisch	tot	schlau	fair	ehrlich	schön	freundlich	spielen	schroff	faul	eitel	schlecht	fanatisch	strafen	1	blank2r.bmp	0	1	+	0	1	blank2r.bmp	500	1	GKQX	500	1	blank2r.bmp	880	5	tolerant	880	1	FEHLER	1656	1	!	1292	1	!	1364	0	0	0
2024-06-12	12:28:14	12:36:17	482354	6.6.1	4_exp_EVA_AWA_CON	84	B	A	Rpleas_acq	Oppo	Rpleas	2pleas	acq_US_unple_nomask	acq3_nomask	3	18	453	0	300	300	0	0	557	46	1	0	loyal	helfen	lachen	retten	tolerant	treu	lasch	hindern	leiden	rächen	tyrannisch	tot	schlau	fair	ehrlich	schön	freundlich	spielen	schroff	faul	eitel	schlecht	fanatisch	strafen	1	blank2r.bmp	0	1	+	0	1	blank2r.bmp	500	1	BMVZ	500	1	blank2r.bmp	880	4	rächen	880	1	!	1292	1	!	-1	0	0	0	0	0	0
2024-06-12	12:28:14	12:36:19	484813	6.6.1	4_exp_EVA_AWA_CON	84	B	A	Rpleas_acq	Oppo	Rpleas	2pleas	acq_US_pleas_nomask	acq3_nomask	3	19	453	1	300	300	0	0	482	46	0	0	loyal	helfen	lachen	retten	tolerant	treu	lasch	hindern	leiden	rächen	tyrannisch	tot	schlau	fair	ehrlich	schön	freundlich	spielen	schroff	faul	eitel	schlecht	fanatisch	strafen	1	blank2r.bmp	0	1	+	0	1	blank2r.bmp	500	1	GKQX	500	1	blank2r.bmp	880	6	treu	880	1	FEHLER	1675	1	!	1293	1	!	1383	0	0	0
2024-06-12	12:28:14	12:36:21	486860	6.6.1	4_exp_EVA_AWA_CON	84	B	A	Rpleas_acq	Oppo	Rpleas	2pleas	acq_US_unple_nomask	acq3_nomask	3	20	453	1	300	300	0	0	469	46	1	0	loyal	helfen	lachen	retten	tolerant	treu	lasch	hindern	leiden	rächen	tyrannisch	tot	schlau	fair	ehrlich	schön	freundlich	spielen	schroff	faul	eitel	schlecht	fanatisch	strafen	1	blank2r.bmp	0	1	+	0	1	blank2r.bmp	500	1	BMVZ	500	1	blank2r.bmp	880	2	hindern	880	1	!	1293	1	!	1370	0	0	0	0	0	0
2024-06-12	12:28:14	12:36:23	489168	6.6.1	4_exp_EVA_AWA_CON	84	B	A	Rpleas_acq	Oppo	Rpleas	2pleas	acq_US_pleas_nomask	acq3_nomask	3	21	453	0	300	300	0	0	529	50	1	0	loyal	helfen	lachen	retten	tolerant	treu	lasch	hindern	leiden	rächen	tyrannisch	tot	schlau	fair	ehrlich	schön	freundlich	spielen	schroff	faul	eitel	schlecht	fanatisch	strafen	1	blank2r.bmp	0	1	+	0	1	blank2r.bmp	500	1	GKQX	500	1	blank2r.bmp	880	2	helfen	880	1	!	1292	1	!	-1	0	0	0	0	0	0
2024-06-12	12:28:14	12:36:26	491404	6.6.1	4_exp_EVA_AWA_CON	84	B	A	Rpleas_acq	Oppo	Rpleas	2pleas	acq_US_pleas_nomask	acq3_nomask	3	22	453	1	300	300	0	0	459	50	1	0	loyal	helfen	lachen	retten	tolerant	treu	lasch	hindern	leiden	rächen	tyrannisch	tot	schlau	fair	ehrlich	schön	freundlich	spielen	schroff	faul	eitel	schlecht	fanatisch	strafen	1	blank2r.bmp	0	1	+	0	1	blank2r.bmp	500	1	GKQX	500	1	blank2r.bmp	880	1	loyal	880	1	!	1292	1	!	1360	0	0	0	0	0	0
2024-06-12	12:28:14	12:36:28	493611	6.6.1	4_exp_EVA_AWA_CON	84	B	A	Rpleas_acq	Oppo	Rpleas	2pleas	acq_US_pleas_nomask	acq3_nomask	3	23	453	1	300	300	0	0	425	50	1	0	loyal	helfen	lachen	retten	tolerant	treu	lasch	hindern	leiden	rächen	tyrannisch	tot	schlau	fair	ehrlich	schön	freundlich	spielen	schroff	faul	eitel	schlecht	fanatisch	strafen	1	blank2r.bmp	0	1	+	0	1	blank2r.bmp	500	1	GKQX	500	1	blank2r.bmp	880	3	lachen	880	1	!	1292	1	!	1327	0	0	0	0	0	0
2024-06-12	12:28:14	12:36:30	495738	6.6.1	4_exp_EVA_AWA_CON	84	B	A	Rpleas_acq	Oppo	Rpleas	2pleas	acq_US_unple_nomask	acq3_nomask	3	24	453	0	300	300	0	0	353	46	1	0	loyal	helfen	lachen	retten	tolerant	treu	lasch	hindern	leiden	rächen	tyrannisch	tot	schlau	fair	ehrlich	schön	freundlich	spielen	schroff	faul	eitel	schlecht	fanatisch	strafen	1	blank2r.bmp	0	1	+	0	1	blank2r.bmp	500	1	BMVZ	500	1	blank2r.bmp	880	1	lasch	880	1	!	-1	1	!	-1	0	0	0	0	0	0
2024-06-12	12:28:14	12:36:32	498141	6.6.1	4_exp_EVA_AWA_CON	84	B	A	Rpleas_acq	Oppo	Rpleas	2pleas	acq_US_pleas_nomask	acq3_nomask	3	25	453	1	300	300	0	0	422	46	0	0	loyal	helfen	lachen	retten	tolerant	treu	lasch	hindern	leiden	rächen	tyrannisch	tot	schlau	fair	ehrlich	schön	freundlich	spielen	schroff	faul	eitel	schlecht	fanatisch	strafen	1	blank2r.bmp	0	1	+	0	1	blank2r.bmp	500	1	GKQX	500	1	blank2r.bmp	880	4	retten	880	1	FEHLER	1614	1	!	1293	1	!	1323	0	0	0
2024-06-12	12:28:14	12:36:34	500266	6.6.1	4_exp_EVA_AWA_CON	84	B	A	Rpleas_acq	Oppo	Rpleas	2pleas	acq_US_unple_nomask	acq3_nomask	3	26	453	0	300	300	0	0	547	46	1	0	loyal	helfen	lachen	retten	tolerant	treu	lasch	hindern	leiden	rächen	tyrannisch	tot	schlau	fair	ehrlich	schön	freundlich	spielen	schroff	faul	eitel	schlecht	fanatisch	strafen	1	blank2r.bmp	0	1	+	0	1	blank2r.bmp	500	1	BMVZ	500	1	blank2r.bmp	880	5	tyrannisch	880	1	!	1292	1	!	-1	0	0	0	0	0	0
2024-06-12	12:28:14	12:36:37	502499	6.6.1	4_exp_EVA_AWA_CON	84	B	A	Rpleas_acq	Oppo	Rpleas	2pleas	acq_US_pleas_nomask	acq3_nomask	3	27	453	1	300	300	0	0	458	50	1	0	loyal	helfen	lachen	retten	tolerant	treu	lasch	hindern	leiden	rächen	tyrannisch	tot	schlau	fair	ehrlich	schön	freundlich	spielen	schroff	faul	eitel	schlecht	fanatisch	strafen	1	blank2r.bmp	0	1	+	0	1	blank2r.bmp	500	1	GKQX	500	1	blank2r.bmp	880	2	helfen	880	1	!	1293	1	!	1359	0	0	0	0	0	0
2024-06-12	12:28:14	12:36:39	504893	6.6.1	4_exp_EVA_AWA_CON	84	B	A	Rpleas_acq	Oppo	Rpleas	2pleas	acq_US_pleas_nomask	acq3_nomask	3	28	453	1	300	300	0	0	419	46	0	0	loyal	helfen	lachen	retten	tolerant	treu	lasch	hindern	leiden	rächen	tyrannisch	tot	schlau	fair	ehrlich	schön	freundlich	spielen	schroff	faul	eitel	schlecht	fanatisch	strafen	1	blank2r.bmp	0	1	+	0	1	blank2r.bmp	500	1	GKQX	500	1	blank2r.bmp	880	6	treu	880	1	FEHLER	1612	1	!	1293	1	!	1320	0	0	0
2024-06-12	12:28:14	12:36:41	507076	6.6.1	4_exp_EVA_AWA_CON	84	B	A	Rpleas_acq	Oppo	Rpleas	2pleas	acq_US_unple_nomask	acq3_nomask	3	29	453	1	300	300	0	0	402	50	0	0	loyal	helfen	lachen	retten	tolerant	treu	lasch	hindern	leiden	rächen	tyrannisch	tot	schlau	fair	ehrlich	schön	freundlich	spielen	schroff	faul	eitel	schlecht	fanatisch	strafen	1	blank2r.bmp	0	1	+	0	1	blank2r.bmp	500	1	BMVZ	500	1	blank2r.bmp	880	4	rächen	880	1	FEHLER	1593	1	!	1292	1	!	1301	0	0	0
2024-06-12	12:28:14	12:36:43	509261	6.6.1	4_exp_EVA_AWA_CON	84	B	A	Rpleas_acq	Oppo	Rpleas	2pleas	acq_US_pleas_nomask	acq3_nomask	3	30	453	1	300	300	0	0	404	46	0	0	loyal	helfen	lachen	retten	tolerant	treu	lasch	hindern	leiden	rächen	tyrannisch	tot	schlau	fair	ehrlich	schön	freundlich	spielen	schroff	faul	eitel	schlecht	fanatisch	strafen	1	blank2r.bmp	0	1	+	0	1	blank2r.bmp	500	1	GKQX	500	1	blank2r.bmp	880	5	tolerant	880	1	FEHLER	1597	1	!	1292	1	!	1305	0	0	0
2024-06-12	12:28:14	12:36:46	511532	6.6.1	4_exp_EVA_AWA_CON	84	B	A	Rpleas_acq	Oppo	Rpleas	2pleas	acq_US_unple_nomask	acq3_nomask	3	31	453	1	300	300	0	0	494	50	0	0	loyal	helfen	lachen	retten	tolerant	treu	lasch	hindern	leiden	rächen	tyrannisch	tot	schlau	fair	ehrlich	schön	freundlich	spielen	schroff	faul	eitel	schlecht	fanatisch	strafen	1	blank2r.bmp	0	1	+	0	1	blank2r.bmp	500	1	BMVZ	500	1	blank2r.bmp	880	1	lasch	880	1	FEHLER	1687	1	!	1293	1	!	1396	0	0	0
2024-06-12	12:28:14	12:36:48	513749	6.6.1	4_exp_EVA_AWA_CON	84	B	A	Rpleas_acq	Oppo	Rpleas	2pleas	acq_US_pleas_nomask	acq3_nomask	3	32	453	1	300	300	0	0	439	46	0	0	loyal	helfen	lachen	retten	tolerant	treu	lasch	hindern	leiden	rächen	tyrannisch	tot	schlau	fair	ehrlich	schön	freundlich	spielen	schroff	faul	eitel	schlecht	fanatisch	strafen	1	blank2r.bmp	0	1	+	0	1	blank2r.bmp	500	1	GKQX	500	1	blank2r.bmp	880	1	loyal	880	1	FEHLER	1632	1	!	1293	1	!	1340	0	0	0
2024-06-12	12:28:14	12:36:50	515730	6.6.1	4_exp_EVA_AWA_CON	84	B	A	Rpleas_acq	Oppo	Rpleas	2pleas	acq_US_unple_nomask	acq3_nomask	3	33	453	1	300	300	0	0	401	46	1	0	loyal	helfen	lachen	retten	tolerant	treu	lasch	hindern	leiden	rächen	tyrannisch	tot	schlau	fair	ehrlich	schön	freundlich	spielen	schroff	faul	eitel	schlecht	fanatisch	strafen	1	blank2r.bmp	0	1	+	0	1	blank2r.bmp	500	1	BMVZ	500	1	blank2r.bmp	880	6	tot	880	1	!	1292	1	!	1301	0	0	0	0	0	0
2024-06-12	12:28:14	12:36:52	518040	6.6.1	4_exp_EVA_AWA_CON	84	B	A	Rpleas_acq	Oppo	Rpleas	2pleas	acq_US_unple_nomask	acq3_nomask	3	34	453	0	300	300	0	0	532	46	1	0	loyal	helfen	lachen	retten	tolerant	treu	lasch	hindern	leiden	rächen	tyrannisch	tot	schlau	fair	ehrlich	schön	freundlich	spielen	schroff	faul	eitel	schlecht	fanatisch	strafen	1	blank2r.bmp	0	1	+	0	1	blank2r.bmp	500	1	BMVZ	500	1	blank2r.bmp	880	2	hindern	880	1	!	1293	1	!	-1	0	0	0	0	0	0
2024-06-12	12:28:14	12:36:55	520389	6.6.1	4_exp_EVA_AWA_CON	84	B	A	Rpleas_acq	Oppo	Rpleas	2pleas	acq_US_unple_nomask	acq3_nomask	3	35	453	0	300	300	0	0	364	50	0	0	loyal	helfen	lachen	retten	tolerant	treu	lasch	hindern	leiden	rächen	tyrannisch	tot	schlau	fair	ehrlich	schön	freundlich	spielen	schroff	faul	eitel	schlecht	fanatisch	strafen	1	blank2r.bmp	0	1	+	0	1	blank2r.bmp	500	1	BMVZ	500	1	blank2r.bmp	880	3	leiden	880	1	FEHLER	1558	1	!	-1	1	!	-1	0	0	0
2024-06-12	12:28:14	12:36:57	522581	6.6.1	4_exp_EVA_AWA_CON	84	B	A	Rpleas_acq	Oppo	Rpleas	2pleas	acq_US_pleas_nomask	acq3_nomask	3	36	453	1	300	300	0	0	415	46	0	0	loyal	helfen	lachen	retten	tolerant	treu	lasch	hindern	leiden	rächen	tyrannisch	tot	schlau	fair	ehrlich	schön	freundlich	spielen	schroff	faul	eitel	schlecht	fanatisch	strafen	1	blank2r.bmp	0	1	+	0	1	blank2r.bmp	500	1	GKQX	500	1	blank2r.bmp	880	3	lachen	880	1	FEHLER	1608	1	!	1292	1	!	1316	0	0	0
2024-06-12	12:28:14	12:37:16	542018	6.6.1	4_exp_EVA_AWA_CON	84	B	A	Rpleas_acq	Oppo	Rpleas	2pleas	acq_US_pleas_nomask	acq45_nomask	4	1	400	0	300	300	0	0	663	50	1	0	loyal	helfen	lachen	retten	tolerant	treu	lasch	hindern	leiden	rächen	tyrannisch	tot	schlau	fair	ehrlich	schön	freundlich	spielen	schroff	faul	eitel	schlecht	fanatisch	strafen	1	blank2r.bmp	0	1	+	0	1	blank2r.bmp	500	1	GKQX	500	1	blank2r.bmp	880	2	helfen	880	1	!	1232	1	!	-1	0	0	0	0	0	0
2024-06-12	12:28:14	12:37:18	544260	6.6.1	4_exp_EVA_AWA_CON	84	B	A	Rpleas_acq	Oppo	Rpleas	2pleas	acq_US_unple_nomask	acq45_nomask	4	2	400	1	300	300	0	0	460	50	0	0	loyal	helfen	lachen	retten	tolerant	treu	lasch	hindern	leiden	rächen	tyrannisch	tot	schlau	fair	ehrlich	schön	freundlich	spielen	schroff	faul	eitel	schlecht	fanatisch	strafen	1	blank2r.bmp	0	1	+	0	1	blank2r.bmp	500	1	BMVZ	500	1	blank2r.bmp	880	2	hindern	880	1	!	1233	1	!	1362	0	0	0	0	0	0
2024-06-12	12:28:14	12:37:21	546460	6.6.1	4_exp_EVA_AWA_CON	84	B	A	Rpleas_acq	Oppo	Rpleas	2pleas	acq_US_unple_nomask	acq45_nomask	4	3	400	1	300	300	0	0	420	46	1	0	loyal	helfen	lachen	retten	tolerant	treu	lasch	hindern	leiden	rächen	tyrannisch	tot	schlau	fair	ehrlich	schön	freundlich	spielen	schroff	faul	eitel	schlecht	fanatisch	strafen	1	blank2r.bmp	0	1	+	0	1	blank2r.bmp	500	1	BMVZ	500	1	blank2r.bmp	880	4	rächen	880	1	!	1232	1	!	1321	0	0	0	0	0	0
2024-06-12	12:28:14	12:37:23	548620	6.6.1	4_exp_EVA_AWA_CON	84	B	A	Rpleas_acq	Oppo	Rpleas	2pleas	acq_US_pleas_nomask	acq45_nomask	4	4	400	1	300	300	0	0	378	50	1	0	loyal	helfen	lachen	retten	tolerant	treu	lasch	hindern	leiden	rächen	tyrannisch	tot	schlau	fair	ehrlich	schön	freundlich	spielen	schroff	faul	eitel	schlecht	fanatisch	strafen	1	blank2r.bmp	0	1	+	0	1	blank2r.bmp	500	1	GKQX	500	1	blank2r.bmp	880	6	treu	880	1	!	1232	1	!	1279	0	0	0	0	0	0
2024-06-12	12:28:14	12:37:25	550698	6.6.1	4_exp_EVA_AWA_CON	84	B	A	Rpleas_acq	Oppo	Rpleas	2pleas	acq_US_pleas_nomask	acq45_nomask	4	5	400	0	300	300	0	0	297	46	0	0	loyal	helfen	lachen	retten	tolerant	treu	lasch	hindern	leiden	rächen	tyrannisch	tot	schlau	fair	ehrlich	schön	freundlich	spielen	schroff	faul	eitel	schlecht	fanatisch	strafen	1	blank2r.bmp	0	1	+	0	1	blank2r.bmp	500	1	GKQX	500	1	blank2r.bmp	880	5	tolerant	880	1	!	-1	1	!	-1	0	0	0	0	0	0
2024-06-12	12:28:14	12:37:27	552802	6.6.1	4_exp_EVA_AWA_CON	84	B	A	Rpleas_acq	Oppo	Rpleas	2pleas	acq_US_unple_nomask	acq45_nomask	4	6	400	0	300	300	0	0	330	50	0	0	loyal	helfen	lachen	retten	tolerant	treu	lasch	hindern	leiden	rächen	tyrannisch	tot	schlau	fair	ehrlich	schön	freundlich	spielen	schroff	faul	eitel	schlecht	fanatisch	strafen	1	blank2r.bmp	0	1	+	0	1	blank2r.bmp	500	1	BMVZ	500	1	blank2r.bmp	880	3	leiden	880	1	!	-1	1	!	-1	0	0	0	0	0	0
2024-06-12	12:28:14	12:37:29	555114	6.6.1	4_exp_EVA_AWA_CON	84	B	A	Rpleas_acq	Oppo	Rpleas	2pleas	acq_US_unple_nomask	acq45_nomask	4	7	400	0	300	300	0	0	529	46	1	0	loyal	helfen	lachen	retten	tolerant	treu	lasch	hindern	leiden	rächen	tyrannisch	tot	schlau	fair	ehrlich	schön	freundlich	spielen	schroff	faul	eitel	schlecht	fanatisch	strafen	1	blank2r.bmp	0	1	+	0	1	blank2r.bmp	500	1	BMVZ	500	1	blank2r.bmp	880	1	lasch	880	1	!	1232	1	!	-1	0	0	0	0	0	0
2024-06-12	12:28:14	12:37:32	557498	6.6.1	4_exp_EVA_AWA_CON	84	B	A	Rpleas_acq	Oppo	Rpleas	2pleas	acq_US_unple_nomask	acq45_nomask	4	8	400	0	300	300	0	0	602	50	0	0	loyal	helfen	lachen	retten	tolerant	treu	lasch	hindern	leiden	rächen	tyrannisch	tot	schlau	fair	ehrlich	schön	freundlich	spielen	schroff	faul	eitel	schlecht	fanatisch	strafen	1	blank2r.bmp	0	1	+	0	1	blank2r.bmp	500	1	BMVZ	500	1	blank2r.bmp	880	5	tyrannisch	880	1	!	1232	1	!	-1	0	0	0	0	0	0
2024-06-12	12:28:14	12:37:34	559748	6.6.1	4_exp_EVA_AWA_CON	84	B	A	Rpleas_acq	Oppo	Rpleas	2pleas	acq_US_unple_nomask	acq45_nomask	4	9	400	1	300	300	0	0	468	46	1	0	loyal	helfen	lachen	retten	tolerant	treu	lasch	hindern	leiden	rächen	tyrannisch	tot	schlau	fair	ehrlich	schön	freundlich	spielen	schroff	faul	eitel	schlecht	fanatisch	strafen	1	blank2r.bmp	0	1	+	0	1	blank2r.bmp	500	1	BMVZ	500	1	blank2r.bmp	880	6	tot	880	1	!	1232	1	!	1370	0	0	0	0	0	0
2024-06-12	12:28:14	12:37:36	562042	6.6.1	4_exp_EVA_AWA_CON	84	B	A	Rpleas_acq	Oppo	Rpleas	2pleas	acq_US_unple_nomask	acq45_nomask	4	10	400	0	300	300	0	0	513	46	1	0	loyal	helfen	lachen	retten	tolerant	treu	lasch	hindern	leiden	rächen	tyrannisch	tot	schlau	fair	ehrlich	schön	freundlich	spielen	schroff	faul	eitel	schlecht	fanatisch	strafen	1	blank2r.bmp	0	1	+	0	1	blank2r.bmp	500	1	BMVZ	500	1	blank2r.bmp	880	4	rächen	880	1	!	1233	1	!	-1	0	0	0	0	0	0
2024-06-12	12:28:14	12:37:38	564235	6.6.1	4_exp_EVA_AWA_CON	84	B	A	Rpleas_acq	Oppo	Rpleas	2pleas	acq_US_unple_nomask	acq45_nomask	4	11	400	1	300	300	0	0	413	46	1	0	loyal	helfen	lachen	retten	tolerant	treu	lasch	hindern	leiden	rächen	tyrannisch	tot	schlau	fair	ehrlich	schön	freundlich	spielen	schroff	faul	eitel	schlecht	fanatisch	strafen	1	blank2r.bmp	0	1	+	0	1	blank2r.bmp	500	1	BMVZ	500	1	blank2r.bmp	880	5	tyrannisch	880	1	!	1232	1	!	1315	0	0	0	0	0	0
2024-06-12	12:28:14	12:37:41	566514	6.6.1	4_exp_EVA_AWA_CON	84	B	A	Rpleas_acq	Oppo	Rpleas	2pleas	acq_US_pleas_nomask	acq45_nomask	4	12	400	0	300	300	0	0	502	50	1	0	loyal	helfen	lachen	retten	tolerant	treu	lasch	hindern	leiden	rächen	tyrannisch	tot	schlau	fair	ehrlich	schön	freundlich	spielen	schroff	faul	eitel	schlecht	fanatisch	strafen	1	blank2r.bmp	0	1	+	0	1	blank2r.bmp	500	1	GKQX	500	1	blank2r.bmp	880	1	loyal	880	1	!	1232	1	!	-1	0	0	0	0	0	0
2024-06-12	12:28:14	12:37:43	568739	6.6.1	4_exp_EVA_AWA_CON	84	B	A	Rpleas_acq	Oppo	Rpleas	2pleas	acq_US_pleas_nomask	acq45_nomask	4	13	400	1	300	300	0	0	444	50	1	0	loyal	helfen	lachen	retten	tolerant	treu	lasch	hindern	leiden	rächen	tyrannisch	tot	schlau	fair	ehrlich	schön	freundlich	spielen	schroff	faul	eitel	schlecht	fanatisch	strafen	1	blank2r.bmp	0	1	+	0	1	blank2r.bmp	500	1	GKQX	500	1	blank2r.bmp	880	3	lachen	880	1	!	1232	1	!	1346	0	0	0	0	0	0
2024-06-12	12:28:14	12:37:45	571018	6.6.1	4_exp_EVA_AWA_CON	84	B	A	Rpleas_acq	Oppo	Rpleas	2pleas	acq_US_pleas_nomask	acq45_nomask	4	14	400	0	300	300	0	0	503	50	1	0	loyal	helfen	lachen	retten	tolerant	treu	lasch	hindern	leiden	rächen	tyrannisch	tot	schlau	fair	ehrlich	schön	freundlich	spielen	schroff	faul	eitel	schlecht	fanatisch	strafen	1	blank2r.bmp	0	1	+	0	1	blank2r.bmp	500	1	GKQX	500	1	blank2r.bmp	880	4	retten	880	1	!	1232	1	!	-1	0	0	0	0	0	0
2024-06-12	12:28:14	12:37:47	573314	6.6.1	4_exp_EVA_AWA_CON	84	B	A	Rpleas_acq	Oppo	Rpleas	2pleas	acq_US_pleas_nomask	acq45_nomask	4	15	400	0	300	300	0	0	517	46	0	0	loyal	helfen	lachen	retten	tolerant	treu	lasch	hindern	leiden	rächen	tyrannisch	tot	schlau	fair	ehrlich	schön	freundlich	spielen	schroff	faul	eitel	schlecht	fanatisch	strafen	1	blank2r.bmp	0	1	+	0	1	blank2r.bmp	500	1	GKQX	500	1	blank2r.bmp	880	6	treu	880	1	!	1232	1	!	-1	0	0	0	0	0	0
2024-06-12	12:28:14	12:37:50	575491	6.6.1	4_exp_EVA_AWA_CON	84	B	A	Rpleas_acq	Oppo	Rpleas	2pleas	acq_US_pleas_nomask	acq45_nomask	4	16	400	1	300	300	0	0	402	46	0	0	loyal	helfen	lachen	retten	tolerant	treu	lasch	hindern	leiden	rächen	tyrannisch	tot	schlau	fair	ehrlich	schön	freundlich	spielen	schroff	faul	eitel	schlecht	fanatisch	strafen	1	blank2r.bmp	0	1	+	0	1	blank2r.bmp	500	1	GKQX	500	1	blank2r.bmp	880	2	helfen	880	1	!	1233	1	!	1304	0	0	0	0	0	0
2024-06-12	12:28:14	12:37:52	577660	6.6.1	4_exp_EVA_AWA_CON	84	B	A	Rpleas_acq	Oppo	Rpleas	2pleas	acq_US_pleas_nomask	acq45_nomask	4	17	400	1	300	300	0	0	388	50	1	0	loyal	helfen	lachen	retten	tolerant	treu	lasch	hindern	leiden	rächen	tyrannisch	tot	schlau	fair	ehrlich	schön	freundlich	spielen	schroff	faul	eitel	schlecht	fanatisch	strafen	1	blank2r.bmp	0	1	+	0	1	blank2r.bmp	500	1	GKQX	500	1	blank2r.bmp	880	4	retten	880	1	!	1232	1	!	1290	0	0	0	0	0	0
2024-06-12	12:28:14	12:37:54	579819	6.6.1	4_exp_EVA_AWA_CON	84	B	A	Rpleas_acq	Oppo	Rpleas	2pleas	acq_US_unple_nomask	acq45_nomask	4	18	400	1	300	300	0	0	377	50	0	0	loyal	helfen	lachen	retten	tolerant	treu	lasch	hindern	leiden	rächen	tyrannisch	tot	schlau	fair	ehrlich	schön	freundlich	spielen	schroff	faul	eitel	schlecht	fanatisch	strafen	1	blank2r.bmp	0	1	+	0	1	blank2r.bmp	500	1	BMVZ	500	1	blank2r.bmp	880	3	leiden	880	1	!	1232	1	!	1279	0	0	0	0	0	0
2024-06-12	12:28:14	12:37:56	582020	6.6.1	4_exp_EVA_AWA_CON	84	B	A	Rpleas_acq	Oppo	Rpleas	2pleas	acq_US_pleas_nomask	acq45_nomask	4	19	400	1	300	300	0	0	426	46	0	0	loyal	helfen	lachen	retten	tolerant	treu	lasch	hindern	leiden	rächen	tyrannisch	tot	schlau	fair	ehrlich	schön	freundlich	spielen	schroff	faul	eitel	schlecht	fanatisch	strafen	1	blank2r.bmp	0	1	+	0	1	blank2r.bmp	500	1	GKQX	500	1	blank2r.bmp	880	1	loyal	880	1	!	1232	1	!	1327	0	0	0	0	0	0
2024-06-12	12:28:14	12:37:58	584179	6.6.1	4_exp_EVA_AWA_CON	84	B	A	Rpleas_acq	Oppo	Rpleas	2pleas	acq_US_pleas_nomask	acq45_nomask	4	20	400	1	300	300	0	0	384	50	1	0	loyal	helfen	lachen	retten	tolerant	treu	lasch	hindern	leiden	rächen	tyrannisch	tot	schlau	fair	ehrlich	schön	freundlich	spielen	schroff	faul	eitel	schlecht	fanatisch	strafen	1	blank2r.bmp	0	1	+	0	1	blank2r.bmp	500	1	GKQX	500	1	blank2r.bmp	880	3	lachen	880	1	!	1233	1	!	1286	0	0	0	0	0	0
2024-06-12	12:28:14	12:38:01	586371	6.6.1	4_exp_EVA_AWA_CON	84	B	A	Rpleas_acq	Oppo	Rpleas	2pleas	acq_US_unple_nomask	acq45_nomask	4	21	400	1	300	300	0	0	415	46	1	0	loyal	helfen	lachen	retten	tolerant	treu	lasch	hindern	leiden	rächen	tyrannisch	tot	schlau	fair	ehrlich	schön	freundlich	spielen	schroff	faul	eitel	schlecht	fanatisch	strafen	1	blank2r.bmp	0	1	+	0	1	blank2r.bmp	500	1	BMVZ	500	1	blank2r.bmp	880	6	tot	880	1	!	1232	1	!	1316	0	0	0	0	0	0
2024-06-12	12:28:14	12:38:03	588394	6.6.1	4_exp_EVA_AWA_CON	84	B	A	Rpleas_acq	Oppo	Rpleas	2pleas	acq_US_unple_nomask	acq45_nomask	4	22	400	0	300	300	0	0	248	50	0	0	loyal	helfen	lachen	retten	tolerant	treu	lasch	hindern	leiden	rächen	tyrannisch	tot	schlau	fair	ehrlich	schön	freundlich	spielen	schroff	faul	eitel	schlecht	fanatisch	strafen	1	blank2r.bmp	0	1	+	0	1	blank2r.bmp	500	1	BMVZ	500	1	blank2r.bmp	880	2	hindern	880	1	!	-1	1	!	-1	0	0	0	0	0	0
2024-06-12	12:28:14	12:38:05	590515	6.6.1	4_exp_EVA_AWA_CON	84	B	A	Rpleas_acq	Oppo	Rpleas	2pleas	acq_US_pleas_nomask	acq45_nomask	4	23	400	1	300	300	0	0	346	46	0	0	loyal	helfen	lachen	retten	tolerant	treu	lasch	hindern	leiden	rächen	tyrannisch	tot	schlau	fair	ehrlich	schön	freundlich	spielen	schroff	faul	eitel	schlecht	fanatisch	strafen	1	blank2r.bmp	0	1	+	0	1	blank2r.bmp	500	1	GKQX	500	1	blank2r.bmp	880	5	tolerant	880	1	!	1232	1	!	1248	0	0	0	0	0	0
2024-06-12	12:28:14	12:38:07	592834	6.6.1	4_exp_EVA_AWA_CON	84	B	A	Rpleas_acq	Oppo	Rpleas	2pleas	acq_US_unple_nomask	acq45_nomask	4	24	400	0	300	300	0	0	545	50	0	0	loyal	helfen	lachen	retten	tolerant	treu	lasch	hindern	leiden	rächen	tyrannisch	tot	schlau	fair	ehrlich	schön	freundlich	spielen	schroff	faul	eitel	schlecht	fanatisch	strafen	1	blank2r.bmp	0	1	+	0	1	blank2r.bmp	500	1	BMVZ	500	1	blank2r.bmp	880	1	lasch	880	1	!	1232	1	!	-1	0	0	0	0	0	0
2024-06-12	12:28:14	12:38:11	596866	6.6.1	4_exp_EVA_AWA_CON	84	B	A	Rpleas_acq	Oppo	Rpleas	2pleas	acq_US_pleas_nomask	acq45_nomask	4	25	400	0	300	300	0	0	2255	50	1	0	loyal	helfen	lachen	retten	tolerant	treu	lasch	hindern	leiden	rächen	tyrannisch	tot	schlau	fair	ehrlich	schön	freundlich	spielen	schroff	faul	eitel	schlecht	fanatisch	strafen	1	blank2r.bmp	0	1	+	0	1	blank2r.bmp	500	1	GKQX	500	1	blank2r.bmp	880	6	treu	880	1	!	1232	1	!	-1	0	0	0	0	0	0
2024-06-12	12:28:14	12:38:13	599130	6.6.1	4_exp_EVA_AWA_CON	84	B	A	Rpleas_acq	Oppo	Rpleas	2pleas	acq_US_unple_nomask	acq45_nomask	4	26	400	0	300	300	0	0	487	46	1	0	loyal	helfen	lachen	retten	tolerant	treu	lasch	hindern	leiden	rächen	tyrannisch	tot	schlau	fair	ehrlich	schön	freundlich	spielen	schroff	faul	eitel	schlecht	fanatisch	strafen	1	blank2r.bmp	0	1	+	0	1	blank2r.bmp	500	1	BMVZ	500	1	blank2r.bmp	880	6	tot	880	1	!	1232	1	!	-1	0	0	0	0	0	0
2024-06-12	12:28:14	12:38:15	601324	6.6.1	4_exp_EVA_AWA_CON	84	B	A	Rpleas_acq	Oppo	Rpleas	2pleas	acq_US_pleas_nomask	acq45_nomask	4	27	400	1	300	300	0	0	417	50	1	0	loyal	helfen	lachen	retten	tolerant	treu	lasch	hindern	leiden	rächen	tyrannisch	tot	schlau	fair	ehrlich	schön	freundlich	spielen	schroff	faul	eitel	schlecht	fanatisch	strafen	1	blank2r.bmp	0	1	+	0	1	blank2r.bmp	500	1	GKQX	500	1	blank2r.bmp	880	4	retten	880	1	!	1233	1	!	1319	0	0	0	0	0	0
2024-06-12	12:28:14	12:38:18	603426	6.6.1	4_exp_EVA_AWA_CON	84	B	A	Rpleas_acq	Oppo	Rpleas	2pleas	acq_US_unple_nomask	acq45_nomask	4	28	400	0	300	300	0	0	320	46	1	0	loyal	helfen	lachen	retten	tolerant	treu	lasch	hindern	leiden	rächen	tyrannisch	tot	schlau	fair	ehrlich	schön	freundlich	spielen	schroff	faul	eitel	schlecht	fanatisch	strafen	1	blank2r.bmp	0	1	+	0	1	blank2r.bmp	500	1	BMVZ	500	1	blank2r.bmp	880	4	rächen	880	1	!	-1	1	!	-1	0	0	0	0	0	0
2024-06-12	12:28:14	12:38:20	605620	6.6.1	4_exp_EVA_AWA_CON	84	B	A	Rpleas_acq	Oppo	Rpleas	2pleas	acq_US_unple_nomask	acq45_nomask	4	29	400	1	300	300	0	0	410	46	1	0	loyal	helfen	lachen	retten	tolerant	treu	lasch	hindern	leiden	rächen	tyrannisch	tot	schlau	fair	ehrlich	schön	freundlich	spielen	schroff	faul	eitel	schlecht	fanatisch	strafen	1	blank2r.bmp	0	1	+	0	1	blank2r.bmp	500	1	BMVZ	500	1	blank2r.bmp	880	5	tyrannisch	880	1	!	1233	1	!	1312	0	0	0	0	0	0
2024-06-12	12:28:14	12:38:22	607787	6.6.1	4_exp_EVA_AWA_CON	84	B	A	Rpleas_acq	Oppo	Rpleas	2pleas	acq_US_unple_nomask	acq45_nomask	4	30	400	1	300	300	0	0	387	46	1	0	loyal	helfen	lachen	retten	tolerant	treu	lasch	hindern	leiden	rächen	tyrannisch	tot	schlau	fair	ehrlich	schön	freundlich	spielen	schroff	faul	eitel	schlecht	fanatisch	strafen	1	blank2r.bmp	0	1	+	0	1	blank2r.bmp	500	1	BMVZ	500	1	blank2r.bmp	880	2	hindern	880	1	!	1232	1	!	1288	0	0	0	0	0	0
2024-06-12	12:28:14	12:38:24	609963	6.6.1	4_exp_EVA_AWA_CON	84	B	A	Rpleas_acq	Oppo	Rpleas	2pleas	acq_US_pleas_nomask	acq45_nomask	4	31	400	1	300	300	0	0	401	50	1	0	loyal	helfen	lachen	retten	tolerant	treu	lasch	hindern	leiden	rächen	tyrannisch	tot	schlau	fair	ehrlich	schön	freundlich	spielen	schroff	faul	eitel	schlecht	fanatisch	strafen	1	blank2r.bmp	0	1	+	0	1	blank2r.bmp	500	1	GKQX	500	1	blank2r.bmp	880	2	helfen	880	1	!	1232	1	!	1303	0	0	0	0	0	0
2024-06-12	12:28:14	12:38:26	612066	6.6.1	4_exp_EVA_AWA_CON	84	B	A	Rpleas_acq	Oppo	Rpleas	2pleas	acq_US_unple_nomask	acq45_nomask	4	32	400	0	300	300	0	0	324	46	1	0	loyal	helfen	lachen	retten	tolerant	treu	lasch	hindern	leiden	rächen	tyrannisch	tot	schlau	fair	ehrlich	schön	freundlich	spielen	schroff	faul	eitel	schlecht	fanatisch	strafen	1	blank2r.bmp	0	1	+	0	1	blank2r.bmp	500	1	BMVZ	500	1	blank2r.bmp	880	3	leiden	880	1	!	-1	1	!	-1	0	0	0	0	0	0
2024-06-12	12:28:14	12:38:28	614219	6.6.1	4_exp_EVA_AWA_CON	84	B	A	Rpleas_acq	Oppo	Rpleas	2pleas	acq_US_pleas_nomask	acq45_nomask	4	33	400	1	300	300	0	0	376	46	0	0	loyal	helfen	lachen	retten	tolerant	treu	lasch	hindern	leiden	rächen	tyrannisch	tot	schlau	fair	ehrlich	schön	freundlich	spielen	schroff	faul	eitel	schlecht	fanatisch	strafen	1	blank2r.bmp	0	1	+	0	1	blank2r.bmp	500	1	GKQX	500	1	blank2r.bmp	880	1	loyal	880	1	!	1232	1	!	1276	0	0	0	0	0	0
2024-06-12	12:28:14	12:38:31	616356	6.6.1	4_exp_EVA_AWA_CON	84	B	A	Rpleas_acq	Oppo	Rpleas	2pleas	acq_US_pleas_nomask	acq45_nomask	4	34	400	1	300	300	0	0	359	50	1	0	loyal	helfen	lachen	retten	tolerant	treu	lasch	hindern	leiden	rächen	tyrannisch	tot	schlau	fair	ehrlich	schön	freundlich	spielen	schroff	faul	eitel	schlecht	fanatisch	strafen	1	blank2r.bmp	0	1	+	0	1	blank2r.bmp	500	1	GKQX	500	1	blank2r.bmp	880	3	lachen	880	1	!	1232	1	!	1262	0	0	0	0	0	0
2024-06-12	12:28:14	12:38:33	618571	6.6.1	4_exp_EVA_AWA_CON	84	B	A	Rpleas_acq	Oppo	Rpleas	2pleas	acq_US_pleas_nomask	acq45_nomask	4	35	400	1	300	300	0	0	434	46	0	0	loyal	helfen	lachen	retten	tolerant	treu	lasch	hindern	leiden	rächen	tyrannisch	tot	schlau	fair	ehrlich	schön	freundlich	spielen	schroff	faul	eitel	schlecht	fanatisch	strafen	1	blank2r.bmp	0	1	+	0	1	blank2r.bmp	500	1	GKQX	500	1	blank2r.bmp	880	5	tolerant	880	1	!	1232	1	!	1336	0	0	0	0	0	0
2024-06-12	12:28:14	12:38:35	620780	6.6.1	4_exp_EVA_AWA_CON	84	B	A	Rpleas_acq	Oppo	Rpleas	2pleas	acq_US_unple_nomask	acq45_nomask	4	36	400	1	300	300	0	0	431	46	1	0	loyal	helfen	lachen	retten	tolerant	treu	lasch	hindern	leiden	rächen	tyrannisch	tot	schlau	fair	ehrlich	schön	freundlich	spielen	schroff	faul	eitel	schlecht	fanatisch	strafen	1	blank2r.bmp	0	1	+	0	1	blank2r.bmp	500	1	BMVZ	500	1	blank2r.bmp	880	1	lasch	880	1	!	1232	1	!	1332	0	0	0	0	0	0
2024-06-12	12:28:14	12:38:44	630164	6.6.1	4_exp_EVA_AWA_CON	84	B	A	Rpleas_acq	Oppo	Rpleas	2pleas	acq_US_unple_nomask	acq45_nomask	5	1	400	1	300	300	0	0	348	50	0	0	loyal	helfen	lachen	retten	tolerant	treu	lasch	hindern	leiden	rächen	tyrannisch	tot	schlau	fair	ehrlich	schön	freundlich	spielen	schroff	faul	eitel	schlecht	fanatisch	strafen	1	blank2r.bmp	0	1	+	0	1	blank2r.bmp	500	1	BMVZ	500	1	blank2r.bmp	880	6	tot	880	1	!	1233	1	!	1250	0	0	0	0	0	0
2024-06-12	12:28:14	12:38:46	632258	6.6.1	4_exp_EVA_AWA_CON	84	B	A	Rpleas_acq	Oppo	Rpleas	2pleas	acq_US_pleas_nomask	acq45_nomask	5	2	400	0	300	300	0	0	313	46	0	0	loyal	helfen	lachen	retten	tolerant	treu	lasch	hindern	leiden	rächen	tyrannisch	tot	schlau	fair	ehrlich	schön	freundlich	spielen	schroff	faul	eitel	schlecht	fanatisch	strafen	1	blank2r.bmp	0	1	+	0	1	blank2r.bmp	500	1	GKQX	500	1	blank2r.bmp	880	6	treu	880	1	!	-1	1	!	-1	0	0	0	0	0	0
2024-06-12	12:28:14	12:38:49	634388	6.6.1	4_exp_EVA_AWA_CON	84	B	A	Rpleas_acq	Oppo	Rpleas	2pleas	acq_US_pleas_nomask	acq45_nomask	5	3	400	1	300	300	0	0	349	50	1	0	loyal	helfen	lachen	retten	tolerant	treu	lasch	hindern	leiden	rächen	tyrannisch	tot	schlau	fair	ehrlich	schön	freundlich	spielen	schroff	faul	eitel	schlecht	fanatisch	strafen	1	blank2r.bmp	0	1	+	0	1	blank2r.bmp	500	1	GKQX	500	1	blank2r.bmp	880	5	tolerant	880	1	!	1232	1	!	1252	0	0	0	0	0	0
2024-06-12	12:28:14	12:38:51	636628	6.6.1	4_exp_EVA_AWA_CON	84	B	A	Rpleas_acq	Oppo	Rpleas	2pleas	acq_US_pleas_nomask	acq45_nomask	5	4	400	1	300	300	0	0	458	46	0	0	loyal	helfen	lachen	retten	tolerant	treu	lasch	hindern	leiden	rächen	tyrannisch	tot	schlau	fair	ehrlich	schön	freundlich	spielen	schroff	faul	eitel	schlecht	fanatisch	strafen	1	blank2r.bmp	0	1	+	0	1	blank2r.bmp	500	1	GKQX	500	1	blank2r.bmp	880	3	lachen	880	1	!	1232	1	!	1360	0	0	0	0	0	0
2024-06-12	12:28:14	12:38:53	638898	6.6.1	4_exp_EVA_AWA_CON	84	B	A	Rpleas_acq	Oppo	Rpleas	2pleas	acq_US_unple_nomask	acq45_nomask	5	5	400	0	300	300	0	0	489	50	0	0	loyal	helfen	lachen	retten	tolerant	treu	lasch	hindern	leiden	rächen	tyrannisch	tot	schlau	fair	ehrlich	schön	freundlich	spielen	schroff	faul	eitel	schlecht	fanatisch	strafen	1	blank2r.bmp	0	1	+	0	1	blank2r.bmp	500	1	BMVZ	500	1	blank2r.bmp	880	2	hindern	880	1	!	1232	1	!	-1	0	0	0	0	0	0
2024-06-12	12:28:14	12:38:55	641123	6.6.1	4_exp_EVA_AWA_CON	84	B	A	Rpleas_acq	Oppo	Rpleas	2pleas	acq_US_pleas_nomask	acq45_nomask	5	6	400	1	300	300	0	0	441	50	1	0	loyal	helfen	lachen	retten	tolerant	treu	lasch	hindern	leiden	rächen	tyrannisch	tot	schlau	fair	ehrlich	schön	freundlich	spielen	schroff	faul	eitel	schlecht	fanatisch	strafen	1	blank2r.bmp	0	1	+	0	1	blank2r.bmp	500	1	GKQX	500	1	blank2r.bmp	880	2	helfen	880	1	!	1232	1	!	1343	0	0	0	0	0	0
2024-06-12	12:28:14	12:38:57	643332	6.6.1	4_exp_EVA_AWA_CON	84	B	A	Rpleas_acq	Oppo	Rpleas	2pleas	acq_US_pleas_nomask	acq45_nomask	5	7	400	1	300	300	0	0	428	50	1	0	loyal	helfen	lachen	retten	tolerant	treu	lasch	hindern	leiden	rächen	tyrannisch	tot	schlau	fair	ehrlich	schön	freundlich	spielen	schroff	faul	eitel	schlecht	fanatisch	strafen	1	blank2r.bmp	0	1	+	0	1	blank2r.bmp	500	1	GKQX	500	1	blank2r.bmp	880	4	retten	880	1	!	1232	1	!	1329	0	0	0	0	0	0
2024-06-12	12:28:14	12:39:00	645476	6.6.1	4_exp_EVA_AWA_CON	84	B	A	Rpleas_acq	Oppo	Rpleas	2pleas	acq_US_unple_nomask	acq45_nomask	5	8	400	1	300	300	0	0	360	46	1	0	loyal	helfen	lachen	retten	tolerant	treu	lasch	hindern	leiden	rächen	tyrannisch	tot	schlau	fair	ehrlich	schön	freundlich	spielen	schroff	faul	eitel	schlecht	fanatisch	strafen	1	blank2r.bmp	0	1	+	0	1	blank2r.bmp	500	1	BMVZ	500	1	blank2r.bmp	880	3	leiden	880	1	!	1232	1	!	1262	0	0	0	0	0	0
2024-06-12	12:28:14	12:39:02	647651	6.6.1	4_exp_EVA_AWA_CON	84	B	A	Rpleas_acq	Oppo	Rpleas	2pleas	acq_US_pleas_nomask	acq45_nomask	5	9	400	1	300	300	0	0	395	50	1	0	loyal	helfen	lachen	retten	tolerant	treu	lasch	hindern	leiden	rächen	tyrannisch	tot	schlau	fair	ehrlich	schön	freundlich	spielen	schroff	faul	eitel	schlecht	fanatisch	strafen	1	blank2r.bmp	0	1	+	0	1	blank2r.bmp	500	1	GKQX	500	1	blank2r.bmp	880	1	loyal	880	1	!	1232	1	!	1296	0	0	0	0	0	0
2024-06-12	12:28:14	12:39:04	649779	6.6.1	4_exp_EVA_AWA_CON	84	B	A	Rpleas_acq	Oppo	Rpleas	2pleas	acq_US_pleas_nomask	acq45_nomask	5	10	400	1	300	300	0	0	351	50	1	0	loyal	helfen	lachen	retten	tolerant	treu	lasch	hindern	leiden	rächen	tyrannisch	tot	schlau	fair	ehrlich	schön	freundlich	spielen	schroff	faul	eitel	schlecht	fanatisch	strafen	1	blank2r.bmp	0	1	+	0	1	blank2r.bmp	500	1	GKQX	500	1	blank2r.bmp	880	1	loyal	880	1	!	1232	1	!	1253	0	0	0	0	0	0
2024-06-12	12:28:14	12:39:06	651956	6.6.1	4_exp_EVA_AWA_CON	84	B	A	Rpleas_acq	Oppo	Rpleas	2pleas	acq_US_unple_nomask	acq45_nomask	5	11	400	1	300	300	0	0	396	46	1	0	loyal	helfen	lachen	retten	tolerant	treu	lasch	hindern	leiden	rächen	tyrannisch	tot	schlau	fair	ehrlich	schön	freundlich	spielen	schroff	faul	eitel	schlecht	fanatisch	strafen	1	blank2r.bmp	0	1	+	0	1	blank2r.bmp	500	1	BMVZ	500	1	blank2r.bmp	880	5	tyrannisch	880	1	!	1232	1	!	1298	0	0	0	0	0	0
2024-06-12	12:28:14	12:39:08	654147	6.6.1	4_exp_EVA_AWA_CON	84	B	A	Rpleas_acq	Oppo	Rpleas	2pleas	acq_US_unple_nomask	acq45_nomask	5	12	400	1	300	300	0	0	417	50	0	0	loyal	helfen	lachen	retten	tolerant	treu	lasch	hindern	leiden	rächen	tyrannisch	tot	schlau	fair	ehrlich	schön	freundlich	spielen	schroff	faul	eitel	schlecht	fanatisch	strafen	1	blank2r.bmp	0	1	+	0	1	blank2r.bmp	500	1	BMVZ	500	1	blank2r.bmp	880	1	lasch	880	1	!	1232	1	!	1318	0	0	0	0	0	0
2024-06-12	12:28:14	12:39:10	656250	6.6.1	4_exp_EVA_AWA_CON	84	B	A	Rpleas_acq	Oppo	Rpleas	2pleas	acq_US_unple_nomask	acq45_nomask	5	13	400	0	300	300	0	0	329	46	1	0	loyal	helfen	lachen	retten	tolerant	treu	lasch	hindern	leiden	rächen	tyrannisch	tot	schlau	fair	ehrlich	schön	freundlich	spielen	schroff	faul	eitel	schlecht	fanatisch	strafen	1	blank2r.bmp	0	1	+	0	1	blank2r.bmp	500	1	BMVZ	500	1	blank2r.bmp	880	4	rächen	880	1	!	-1	1	!	-1	0	0	0	0	0	0
2024-06-12	12:28:14	12:39:13	658419	6.6.1	4_exp_EVA_AWA_CON	84	B	A	Rpleas_acq	Oppo	Rpleas	2pleas	acq_US_unple_nomask	acq45_nomask	5	14	400	1	300	300	0	0	386	46	1	0	loyal	helfen	lachen	retten	tolerant	treu	lasch	hindern	leiden	rächen	tyrannisch	tot	schlau	fair	ehrlich	schön	freundlich	spielen	schroff	faul	eitel	schlecht	fanatisch	strafen	1	blank2r.bmp	0	1	+	0	1	blank2r.bmp	500	1	BMVZ	500	1	blank2r.bmp	880	6	tot	880	1	!	1233	1	!	1287	0	0	0	0	0	0
2024-06-12	12:28:14	12:39:15	660627	6.6.1	4_exp_EVA_AWA_CON	84	B	A	Rpleas_acq	Oppo	Rpleas	2pleas	acq_US_pleas_nomask	acq45_nomask	5	15	400	1	300	300	0	0	432	46	0	0	loyal	helfen	lachen	retten	tolerant	treu	lasch	hindern	leiden	rächen	tyrannisch	tot	schlau	fair	ehrlich	schön	freundlich	spielen	schroff	faul	eitel	schlecht	fanatisch	strafen	1	blank2r.bmp	0	1	+	0	1	blank2r.bmp	500	1	GKQX	500	1	blank2r.bmp	880	4	retten	880	1	!	1232	1	!	1334	0	0	0	0	0	0
2024-06-12	12:28:14	12:39:17	662787	6.6.1	4_exp_EVA_AWA_CON	84	B	A	Rpleas_acq	Oppo	Rpleas	2pleas	acq_US_unple_nomask	acq45_nomask	5	16	400	1	300	300	0	0	381	50	0	0	loyal	helfen	lachen	retten	tolerant	treu	lasch	hindern	leiden	rächen	tyrannisch	tot	schlau	fair	ehrlich	schön	freundlich	spielen	schroff	faul	eitel	schlecht	fanatisch	strafen	1	blank2r.bmp	0	1	+	0	1	blank2r.bmp	500	1	BMVZ	500	1	blank2r.bmp	880	3	leiden	880	1	!	1232	1	!	1282	0	0	0	0	0	0
2024-06-12	12:28:14	12:39:20	665954	6.6.1	4_exp_EVA_AWA_CON	84	B	A	Rpleas_acq	Oppo	Rpleas	2pleas	acq_US_unple_nomask	acq45_nomask	5	17	400	0	300	300	0	0	1388	46	1	0	loyal	helfen	lachen	retten	tolerant	treu	lasch	hindern	leiden	rächen	tyrannisch	tot	schlau	fair	ehrlich	schön	freundlich	spielen	schroff	faul	eitel	schlecht	fanatisch	strafen	1	blank2r.bmp	0	1	+	0	1	blank2r.bmp	500	1	BMVZ	500	1	blank2r.bmp	880	1	lasch	880	1	!	1232	1	!	-1	0	0	0	0	0	0
2024-06-12	12:28:14	12:39:22	668050	6.6.1	4_exp_EVA_AWA_CON	84	B	A	Rpleas_acq	Oppo	Rpleas	2pleas	acq_US_pleas_nomask	acq45_nomask	5	18	400	0	300	300	0	0	321	46	0	0	loyal	helfen	lachen	retten	tolerant	treu	lasch	hindern	leiden	rächen	tyrannisch	tot	schlau	fair	ehrlich	schön	freundlich	spielen	schroff	faul	eitel	schlecht	fanatisch	strafen	1	blank2r.bmp	0	1	+	0	1	blank2r.bmp	500	1	GKQX	500	1	blank2r.bmp	880	6	treu	880	1	!	-1	1	!	-1	0	0	0	0	0	0
2024-06-12	12:28:14	12:39:24	670283	6.6.1	4_exp_EVA_AWA_CON	84	B	A	Rpleas_acq	Oppo	Rpleas	2pleas	acq_US_pleas_nomask	acq45_nomask	5	19	400	1	300	300	0	0	452	50	1	0	loyal	helfen	lachen	retten	tolerant	treu	lasch	hindern	leiden	rächen	tyrannisch	tot	schlau	fair	ehrlich	schön	freundlich	spielen	schroff	faul	eitel	schlecht	fanatisch	strafen	1	blank2r.bmp	0	1	+	0	1	blank2r.bmp	500	1	GKQX	500	1	blank2r.bmp	880	5	tolerant	880	1	!	1233	1	!	1354	0	0	0	0	0	0
2024-06-12	12:28:14	12:39:27	672586	6.6.1	4_exp_EVA_AWA_CON	84	B	A	Rpleas_acq	Oppo	Rpleas	2pleas	acq_US_unple_nomask	acq45_nomask	5	20	400	0	300	300	0	0	525	46	1	0	loyal	helfen	lachen	retten	tolerant	treu	lasch	hindern	leiden	rächen	tyrannisch	tot	schlau	fair	ehrlich	schön	freundlich	spielen	schroff	faul	eitel	schlecht	fanatisch	strafen	1	blank2r.bmp	0	1	+	0	1	blank2r.bmp	500	1	BMVZ	500	1	blank2r.bmp	880	4	rächen	880	1	!	1232	1	!	-1	0	0	0	0	0	0
2024-06-12	12:28:14	12:39:29	674819	6.6.1	4_exp_EVA_AWA_CON	84	B	A	Rpleas_acq	Oppo	Rpleas	2pleas	acq_US_pleas_nomask	acq45_nomask	5	21	400	1	300	300	0	0	455	50	1	0	loyal	helfen	lachen	retten	tolerant	treu	lasch	hindern	leiden	rächen	tyrannisch	tot	schlau	fair	ehrlich	schön	freundlich	spielen	schroff	faul	eitel	schlecht	fanatisch	strafen	1	blank2r.bmp	0	1	+	0	1	blank2r.bmp	500	1	GKQX	500	1	blank2r.bmp	880	3	lachen	880	1	!	1232	1	!	1357	0	0	0	0	0	0
2024-06-12	12:28:14	12:39:31	677003	6.6.1	4_exp_EVA_AWA_CON	84	B	A	Rpleas_acq	Oppo	Rpleas	2pleas	acq_US_unple_nomask	acq45_nomask	5	22	400	1	300	300	0	0	408	46	1	0	loyal	helfen	lachen	retten	tolerant	treu	lasch	hindern	leiden	rächen	tyrannisch	tot	schlau	fair	ehrlich	schön	freundlich	spielen	schroff	faul	eitel	schlecht	fanatisch	strafen	1	blank2r.bmp	0	1	+	0	1	blank2r.bmp	500	1	BMVZ	500	1	blank2r.bmp	880	5	tyrannisch	880	1	!	1232	1	!	1309	0	0	0	0	0	0
2024-06-12	12:28:14	12:39:33	679114	6.6.1	4_exp_EVA_AWA_CON	84	B	A	Rpleas_acq	Oppo	Rpleas	2pleas	acq_US_unple_nomask	acq45_nomask	5	23	400	1	300	300	0	0	338	50	0	0	loyal	helfen	lachen	retten	tolerant	treu	lasch	hindern	leiden	rächen	tyrannisch	tot	schlau	fair	ehrlich	schön	freundlich	spielen	schroff	faul	eitel	schlecht	fanatisch	strafen	1	blank2r.bmp	0	1	+	0	1	blank2r.bmp	500	1	BMVZ	500	1	blank2r.bmp	880	2	hindern	880	1	!	1232	1	!	1238	0	0	0	0	0	0
2024-06-12	12:28:14	12:39:35	681276	6.6.1	4_exp_EVA_AWA_CON	84	B	A	Rpleas_acq	Oppo	Rpleas	2pleas	acq_US_pleas_nomask	acq45_nomask	5	24	400	1	300	300	0	0	377	46	0	0	loyal	helfen	lachen	retten	tolerant	treu	lasch	hindern	leiden	rächen	tyrannisch	tot	schlau	fair	ehrlich	schön	freundlich	spielen	schroff	faul	eitel	schlecht	fanatisch	strafen	1	blank2r.bmp	0	1	+	0	1	blank2r.bmp	500	1	GKQX	500	1	blank2r.bmp	880	2	helfen	880	1	!	1232	1	!	1279	0	0	0	0	0	0
2024-06-12	12:28:14	12:39:38	683420	6.6.1	4_exp_EVA_AWA_CON	84	B	A	Rpleas_acq	Oppo	Rpleas	2pleas	acq_US_pleas_nomask	acq45_nomask	5	25	400	1	300	300	0	0	369	46	0	0	loyal	helfen	lachen	retten	tolerant	treu	lasch	hindern	leiden	rächen	tyrannisch	tot	schlau	fair	ehrlich	schön	freundlich	spielen	schroff	faul	eitel	schlecht	fanatisch	strafen	1	blank2r.bmp	0	1	+	0	1	blank2r.bmp	500	1	GKQX	500	1	blank2r.bmp	880	4	retten	880	1	!	1232	1	!	1272	0	0	0	0	0	0
2024-06-12	12:28:14	12:39:40	685595	6.6.1	4_exp_EVA_AWA_CON	84	B	A	Rpleas_acq	Oppo	Rpleas	2pleas	acq_US_pleas_nomask	acq45_nomask	5	26	400	1	300	300	0	0	394	50	1	0	loyal	helfen	lachen	retten	tolerant	treu	lasch	hindern	leiden	rächen	tyrannisch	tot	schlau	fair	ehrlich	schön	freundlich	spielen	schroff	faul	eitel	schlecht	fanatisch	strafen	1	blank2r.bmp	0	1	+	0	1	blank2r.bmp	500	1	GKQX	500	1	blank2r.bmp	880	6	treu	880	1	!	1233	1	!	1296	0	0	0	0	0	0
2024-06-12	12:28:14	12:39:42	687914	6.6.1	4_exp_EVA_AWA_CON	84	B	A	Rpleas_acq	Oppo	Rpleas	2pleas	acq_US_unple_nomask	acq45_nomask	5	27	400	0	300	300	0	0	543	50	0	0	loyal	helfen	lachen	retten	tolerant	treu	lasch	hindern	leiden	rächen	tyrannisch	tot	schlau	fair	ehrlich	schön	freundlich	spielen	schroff	faul	eitel	schlecht	fanatisch	strafen	1	blank2r.bmp	0	1	+	0	1	blank2r.bmp	500	1	BMVZ	500	1	blank2r.bmp	880	2	hindern	880	1	!	1232	1	!	-1	0	0	0	0	0	0
2024-06-12	12:28:14	12:39:44	690002	6.6.1	4_exp_EVA_AWA_CON	84	B	A	Rpleas_acq	Oppo	Rpleas	2pleas	acq_US_unple_nomask	acq45_nomask	5	28	400	0	300	300	0	0	309	50	0	0	loyal	helfen	lachen	retten	tolerant	treu	lasch	hindern	leiden	rächen	tyrannisch	tot	schlau	fair	ehrlich	schön	freundlich	spielen	schroff	faul	eitel	schlecht	fanatisch	strafen	1	blank2r.bmp	0	1	+	0	1	blank2r.bmp	500	1	BMVZ	500	1	blank2r.bmp	880	6	tot	880	1	!	-1	1	!	-1	0	0	0	0	0	0
2024-06-12	12:28:14	12:39:46	692164	6.6.1	4_exp_EVA_AWA_CON	84	B	A	Rpleas_acq	Oppo	Rpleas	2pleas	acq_US_unple_nomask	acq45_nomask	5	29	400	1	300	300	0	0	378	46	1	0	loyal	helfen	lachen	retten	tolerant	treu	lasch	hindern	leiden	rächen	tyrannisch	tot	schlau	fair	ehrlich	schön	freundlich	spielen	schroff	faul	eitel	schlecht	fanatisch	strafen	1	blank2r.bmp	0	1	+	0	1	blank2r.bmp	500	1	BMVZ	500	1	blank2r.bmp	880	4	rächen	880	1	!	1233	1	!	1279	0	0	0	0	0	0
2024-06-12	12:28:14	12:39:48	694323	6.6.1	4_exp_EVA_AWA_CON	84	B	A	Rpleas_acq	Oppo	Rpleas	2pleas	acq_US_pleas_nomask	acq45_nomask	5	30	400	1	300	300	0	0	376	50	1	0	loyal	helfen	lachen	retten	tolerant	treu	lasch	hindern	leiden	rächen	tyrannisch	tot	schlau	fair	ehrlich	schön	freundlich	spielen	schroff	faul	eitel	schlecht	fanatisch	strafen	1	blank2r.bmp	0	1	+	0	1	blank2r.bmp	500	1	GKQX	500	1	blank2r.bmp	880	2	helfen	880	1	!	1232	1	!	1278	0	0	0	0	0	0
2024-06-12	12:28:14	12:39:51	696468	6.6.1	4_exp_EVA_AWA_CON	84	B	A	Rpleas_acq	Oppo	Rpleas	2pleas	acq_US_pleas_nomask	acq45_nomask	5	31	400	1	300	300	0	0	369	46	0	0	loyal	helfen	lachen	retten	tolerant	treu	lasch	hindern	leiden	rächen	tyrannisch	tot	schlau	fair	ehrlich	schön	freundlich	spielen	schroff	faul	eitel	schlecht	fanatisch	strafen	1	blank2r.bmp	0	1	+	0	1	blank2r.bmp	500	1	GKQX	500	1	blank2r.bmp	880	3	lachen	880	1	!	1233	1	!	1271	0	0	0	0	0	0
2024-06-12	12:28:14	12:39:53	698802	6.6.1	4_exp_EVA_AWA_CON	84	B	A	Rpleas_acq	Oppo	Rpleas	2pleas	acq_US_unple_nomask	acq45_nomask	5	32	400	0	300	300	0	0	554	50	0	0	loyal	helfen	lachen	retten	tolerant	treu	lasch	hindern	leiden	rächen	tyrannisch	tot	schlau	fair	ehrlich	schön	freundlich	spielen	schroff	faul	eitel	schlecht	fanatisch	strafen	1	blank2r.bmp	0	1	+	0	1	blank2r.bmp	500	1	BMVZ	500	1	blank2r.bmp	880	1	lasch	880	1	!	1232	1	!	-1	0	0	0	0	0	0
2024-06-12	12:28:14	12:39:55	700874	6.6.1	4_exp_EVA_AWA_CON	84	B	A	Rpleas_acq	Oppo	Rpleas	2pleas	acq_US_pleas_nomask	acq45_nomask	5	33	400	0	300	300	0	0	294	50	1	0	loyal	helfen	lachen	retten	tolerant	treu	lasch	hindern	leiden	rächen	tyrannisch	tot	schlau	fair	ehrlich	schön	freundlich	spielen	schroff	faul	eitel	schlecht	fanatisch	strafen	1	blank2r.bmp	0	1	+	0	1	blank2r.bmp	500	1	GKQX	500	1	blank2r.bmp	880	5	tolerant	880	1	!	-1	1	!	-1	0	0	0	0	0	0
2024-06-12	12:28:14	12:39:57	702994	6.6.1	4_exp_EVA_AWA_CON	84	B	A	Rpleas_acq	Oppo	Rpleas	2pleas	acq_US_unple_nomask	acq45_nomask	5	34	400	1	300	300	0	0	343	50	0	0	loyal	helfen	lachen	retten	tolerant	treu	lasch	hindern	leiden	rächen	tyrannisch	tot	schlau	fair	ehrlich	schön	freundlich	spielen	schroff	faul	eitel	schlecht	fanatisch	strafen	1	blank2r.bmp	0	1	+	0	1	blank2r.bmp	500	1	BMVZ	500	1	blank2r.bmp	880	5	tyrannisch	880	1	!	1232	1	!	1242	0	0	0	0	0	0
2024-06-12	12:28:14	12:39:59	705220	6.6.1	4_exp_EVA_AWA_CON	84	B	A	Rpleas_acq	Oppo	Rpleas	2pleas	acq_US_unple_nomask	acq45_nomask	5	35	400	1	300	300	0	0	445	46	1	0	loyal	helfen	lachen	retten	tolerant	treu	lasch	hindern	leiden	rächen	tyrannisch	tot	schlau	fair	ehrlich	schön	freundlich	spielen	schroff	faul	eitel	schlecht	fanatisch	strafen	1	blank2r.bmp	0	1	+	0	1	blank2r.bmp	500	1	BMVZ	500	1	blank2r.bmp	880	3	leiden	880	1	!	1233	1	!	1347	0	0	0	0	0	0
2024-06-12	12:28:14	12:40:02	707371	6.6.1	4_exp_EVA_AWA_CON	84	B	A	Rpleas_acq	Oppo	Rpleas	2pleas	acq_US_pleas_nomask	acq45_nomask	5	36	400	1	300	300	0	0	376	46	0	0	loyal	helfen	lachen	retten	tolerant	treu	lasch	hindern	leiden	rächen	tyrannisch	tot	schlau	fair	ehrlich	schön	freundlich	spielen	schroff	faul	eitel	schlecht	fanatisch	strafen	1	blank2r.bmp	0	1	+	0	1	blank2r.bmp	500	1	GKQX	500	1	blank2r.bmp	880	1	loyal	880	1	!	1232	1	!	1278	0	0	0	0	0	0
2024-06-12	12:28:14	12:40:24	729871	6.6.1	4_exp_EVA_AWA_CON	84	B	A	Rpleas_acq	Oppo	Lpleas	2pleas	EvalRating_firsttwo	EvalRating_firsttwo	6	1	0	0	300	300	0	0	5777	line	0	-54,0364583333333285964pct	loyal	helfen	lachen	retten	tolerant	treu	lasch	hindern	leiden	rächen	tyrannisch	tot	schlau	fair	ehrlich	schön	freundlich	spielen	schroff	faul	eitel	schlecht	fanatisch	strafen	1		-8	1	Wie angenehm oder unangenehm finden Sie die  Buchstabenkette ZGVK?	-8	1		-8	1		-8	1		-8	1	Unangenehm	-8	1	Angenehm	-8	0	0	0	0	0	0	0	0	0
2024-06-12	12:28:14	12:40:31	736582	6.6.1	4_exp_EVA_AWA_CON	84	B	A	Rpleas_acq	Oppo	Lpleas	2pleas	EvalRating_lastfour	EvalRating_lastfour	7	1	0	0	300	300	0	0	4333	line	0	1,953125pct	loyal	helfen	lachen	retten	tolerant	treu	lasch	hindern	leiden	rächen	tyrannisch	tot	schlau	fair	ehrlich	schön	freundlich	spielen	schroff	faul	eitel	schlecht	fanatisch	strafen	1		-7	2	Wie angenehm oder unangenehm finden Sie die  Buchstabenkette GKQX?	-7	1		-7	1		-7	1		-7	1	Unangenehm	-7	1	Angenehm	-7	0	0	0	0	0	0	0	0	0
2024-06-12	12:28:14	12:40:33	738946	6.6.1	4_exp_EVA_AWA_CON	84	B	A	Rpleas_acq	Oppo	Lpleas	2pleas	blank_screen	EvalRating_lastfour	7	3	0	0	300	300	0	0	0	0	0	1,953125pct	loyal	helfen	lachen	retten	tolerant	treu	lasch	hindern	leiden	rächen	tyrannisch	tot	schlau	fair	ehrlich	schön	freundlich	spielen	schroff	faul	eitel	schlecht	fanatisch	strafen	1		-8	0	0	0	0	0	0	0	0	0	0	0	0	0	0	0	0	0	0	0	0	0	0	0	0	0	0	0
2024-06-12	12:28:14	12:40:37	742366	6.6.1	4_exp_EVA_AWA_CON	84	B	A	Rpleas_acq	Oppo	Lpleas	2pleas	EvalRating_lastfour	EvalRating_lastfour	7	4	0	0	300	300	0	0	2832	line	0	-48,9583333333333285964pct	loyal	helfen	lachen	retten	tolerant	treu	lasch	hindern	leiden	rächen	tyrannisch	tot	schlau	fair	ehrlich	schön	freundlich	spielen	schroff	faul	eitel	schlecht	fanatisch	strafen	1		-8	1	Wie angenehm oder unangenehm finden Sie die  Buchstabenkette BMVZ?	-8	1		-8	1		-8	1		-8	1	Unangenehm	-8	1	Angenehm	-8	0	0	0	0	0	0	0	0	0
2024-06-12	12:28:14	12:40:39	744740	6.6.1	4_exp_EVA_AWA_CON	84	B	A	Rpleas_acq	Oppo	Lpleas	2pleas	blank_screen	EvalRating_lastfour	7	6	0	0	300	300	0	0	0	0	0	-48,9583333333333285964pct	loyal	helfen	lachen	retten	tolerant	treu	lasch	hindern	leiden	rächen	tyrannisch	tot	schlau	fair	ehrlich	schön	freundlich	spielen	schroff	faul	eitel	schlecht	fanatisch	strafen	1		-8	0	0	0	0	0	0	0	0	0	0	0	0	0	0	0	0	0	0	0	0	0	0	0	0	0	0	0
2024-06-12	12:28:14	12:40:42	747350	6.6.1	4_exp_EVA_AWA_CON	84	B	A	Rpleas_acq	Oppo	Lpleas	2pleas	EvalRating_lastfour	EvalRating_lastfour	7	7	0	0	300	300	0	0	2022	line	0	-49,4791666666666642982pct	loyal	helfen	lachen	retten	tolerant	treu	lasch	hindern	leiden	rächen	tyrannisch	tot	schlau	fair	ehrlich	schön	freundlich	spielen	schroff	faul	eitel	schlecht	fanatisch	strafen	1		-8	3	Wie angenehm oder unangenehm finden Sie die  Buchstabenkette XBQM?	-8	1		-8	1		-8	1		-8	1	Unangenehm	-8	1	Angenehm	-8	0	0	0	0	0	0	0	0	0
2024-06-12	12:28:14	12:41:59	825180	6.6.1	4_exp_EVA_AWA_CON	84	B	A	Rpleas_acq	Oppo	Lpleas	2pleas	conawa_CS2_US4	conawa1_nomask	8	1	0	0	300	300	0	0	10142	fanatisch	1	-49,4791666666666642982pct	loyal	helfen	lachen	retten	tolerant	treu	lasch	hindern	leiden	rächen	tyrannisch	tot	schlau	fair	ehrlich	schön	freundlich	spielen	schroff	faul	eitel	schlecht	fanatisch	strafen	0	0	0	0	0	0	0	0	0	0	0	0	0	0	0	0	0	0	0	0	0	0	0	0	0	0	0	0	0	0
2024-06-12	12:28:14	12:41:59	825182	6.6.1	4_exp_EVA_AWA_CON	84	B	A	Rpleas_acq	Oppo	Lpleas	2pleas	conawa_CS2_US4_confidence	conawa1_nomask	8	1	0	0	300	300	0	0	10142	guess	1	-49,4791666666666642982pct	loyal	helfen	lachen	retten	tolerant	treu	lasch	hindern	leiden	rächen	tyrannisch	tot	schlau	fair	ehrlich	schön	freundlich	spielen	schroff	faul	eitel	schlecht	fanatisch	strafen	0	0	0	0	0	0	0	0	0	0	0	0	0	0	0	0	0	0	0	0	0	0	0	0	0	0	0	0	0	0
2024-06-12	12:28:14	12:42:06	831484	6.6.1	4_exp_EVA_AWA_CON	84	B	A	Rpleas_acq	Oppo	Lpleas	2pleas	conawa_CS1_US2	conawa1_nomask	8	2	0	0	300	300	0	0	5691	fair	1	-49,4791666666666642982pct	loyal	helfen	lachen	retten	tolerant	treu	lasch	hindern	leiden	rächen	tyrannisch	tot	schlau	fair	ehrlich	schön	freundlich	spielen	schroff	faul	eitel	schlecht	fanatisch	strafen	0	0	0	0	0	0	0	0	0	0	0	0	0	0	0	0	0	0	0	0	0	0	0	0	0	0	0	0	0	0
2024-06-12	12:28:14	12:42:06	831486	6.6.1	4_exp_EVA_AWA_CON	84	B	A	Rpleas_acq	Oppo	Lpleas	2pleas	conawa_CS1_US2_confidence	conawa1_nomask	8	2	0	0	300	300	0	0	5691	guess	1	-49,4791666666666642982pct	loyal	helfen	lachen	retten	tolerant	treu	lasch	hindern	leiden	rächen	tyrannisch	tot	schlau	fair	ehrlich	schön	freundlich	spielen	schroff	faul	eitel	schlecht	fanatisch	strafen	0	0	0	0	0	0	0	0	0	0	0	0	0	0	0	0	0	0	0	0	0	0	0	0	0	0	0	0	0	0
2024-06-12	12:28:14	12:42:10	836147	6.6.1	4_exp_EVA_AWA_CON	84	B	A	Rpleas_acq	Oppo	Lpleas	2pleas	conawa_CS2_US3	conawa1_nomask	8	3	0	0	300	300	0	0	4050	schön	1	-49,4791666666666642982pct	loyal	helfen	lachen	retten	tolerant	treu	lasch	hindern	leiden	rächen	tyrannisch	tot	schlau	fair	ehrlich	schön	freundlich	spielen	schroff	faul	eitel	schlecht	fanatisch	strafen	0	0	0	0	0	0	0	0	0	0	0	0	0	0	0	0	0	0	0	0	0	0	0	0	0	0	0	0	0	0
2024-06-12	12:28:14	12:42:10	836149	6.6.1	4_exp_EVA_AWA_CON	84	B	A	Rpleas_acq	Oppo	Lpleas	2pleas	conawa_CS2_US3_confidence	conawa1_nomask	8	3	0	0	300	300	0	0	4050	guess	1	-49,4791666666666642982pct	loyal	helfen	lachen	retten	tolerant	treu	lasch	hindern	leiden	rächen	tyrannisch	tot	schlau	fair	ehrlich	schön	freundlich	spielen	schroff	faul	eitel	schlecht	fanatisch	strafen	0	0	0	0	0	0	0	0	0	0	0	0	0	0	0	0	0	0	0	0	0	0	0	0	0	0	0	0	0	0
2024-06-12	12:28:14	12:42:14	839499	6.6.1	4_exp_EVA_AWA_CON	84	B	A	Rpleas_acq	Oppo	Lpleas	2pleas	conawa_CS1_US3	conawa1_nomask	8	4	0	0	300	300	0	0	2736	eitel	1	-49,4791666666666642982pct	loyal	helfen	lachen	retten	tolerant	treu	lasch	hindern	leiden	rächen	tyrannisch	tot	schlau	fair	ehrlich	schön	freundlich	spielen	schroff	faul	eitel	schlecht	fanatisch	strafen	0	0	0	0	0	0	0	0	0	0	0	0	0	0	0	0	0	0	0	0	0	0	0	0	0	0	0	0	0	0
2024-06-12	12:28:14	12:42:14	839502	6.6.1	4_exp_EVA_AWA_CON	84	B	A	Rpleas_acq	Oppo	Lpleas	2pleas	conawa_CS1_US3_confidence	conawa1_nomask	8	4	0	0	300	300	0	0	2736	guess	1	-49,4791666666666642982pct	loyal	helfen	lachen	retten	tolerant	treu	lasch	hindern	leiden	rächen	tyrannisch	tot	schlau	fair	ehrlich	schön	freundlich	spielen	schroff	faul	eitel	schlecht	fanatisch	strafen	0	0	0	0	0	0	0	0	0	0	0	0	0	0	0	0	0	0	0	0	0	0	0	0	0	0	0	0	0	0
2024-06-12	12:28:14	12:42:16	842131	6.6.1	4_exp_EVA_AWA_CON	84	B	A	Rpleas_acq	Oppo	Lpleas	2pleas	conawa_CS1_US1	conawa1_nomask	8	5	0	0	300	300	0	0	2010	lasch	1	-49,4791666666666642982pct	loyal	helfen	lachen	retten	tolerant	treu	lasch	hindern	leiden	rächen	tyrannisch	tot	schlau	fair	ehrlich	schön	freundlich	spielen	schroff	faul	eitel	schlecht	fanatisch	strafen	0	0	0	0	0	0	0	0	0	0	0	0	0	0	0	0	0	0	0	0	0	0	0	0	0	0	0	0	0	0
2024-06-12	12:28:14	12:42:16	842133	6.6.1	4_exp_EVA_AWA_CON	84	B	A	Rpleas_acq	Oppo	Lpleas	2pleas	conawa_CS1_US1_confidence	conawa1_nomask	8	5	0	0	300	300	0	0	2010	guess	1	-49,4791666666666642982pct	loyal	helfen	lachen	retten	tolerant	treu	lasch	hindern	leiden	rächen	tyrannisch	tot	schlau	fair	ehrlich	schön	freundlich	spielen	schroff	faul	eitel	schlecht	fanatisch	strafen	0	0	0	0	0	0	0	0	0	0	0	0	0	0	0	0	0	0	0	0	0	0	0	0	0	0	0	0	0	0
2024-06-12	12:28:14	12:42:19	844883	6.6.1	4_exp_EVA_AWA_CON	84	B	A	Rpleas_acq	Oppo	Lpleas	2pleas	conawa_CS2_US2	conawa1_nomask	8	6	0	0	300	300	0	0	2142	ehrlich	1	-49,4791666666666642982pct	loyal	helfen	lachen	retten	tolerant	treu	lasch	hindern	leiden	rächen	tyrannisch	tot	schlau	fair	ehrlich	schön	freundlich	spielen	schroff	faul	eitel	schlecht	fanatisch	strafen	0	0	0	0	0	0	0	0	0	0	0	0	0	0	0	0	0	0	0	0	0	0	0	0	0	0	0	0	0	0
2024-06-12	12:28:14	12:42:19	844885	6.6.1	4_exp_EVA_AWA_CON	84	B	A	Rpleas_acq	Oppo	Lpleas	2pleas	conawa_CS2_US2_confidence	conawa1_nomask	8	6	0	0	300	300	0	0	2142	guess	1	-49,4791666666666642982pct	loyal	helfen	lachen	retten	tolerant	treu	lasch	hindern	leiden	rächen	tyrannisch	tot	schlau	fair	ehrlich	schön	freundlich	spielen	schroff	faul	eitel	schlecht	fanatisch	strafen	0	0	0	0	0	0	0	0	0	0	0	0	0	0	0	0	0	0	0	0	0	0	0	0	0	0	0	0	0	0
2024-06-12	12:28:14	12:42:22	847965	6.6.1	4_exp_EVA_AWA_CON	84	B	A	Rpleas_acq	Oppo	Lpleas	2pleas	conawa_CS2_US1	conawa1_nomask	8	7	0	0	300	300	0	0	2471	fair	1	-49,4791666666666642982pct	loyal	helfen	lachen	retten	tolerant	treu	lasch	hindern	leiden	rächen	tyrannisch	tot	schlau	fair	ehrlich	schön	freundlich	spielen	schroff	faul	eitel	schlecht	fanatisch	strafen	0	0	0	0	0	0	0	0	0	0	0	0	0	0	0	0	0	0	0	0	0	0	0	0	0	0	0	0	0	0
2024-06-12	12:28:14	12:42:22	847967	6.6.1	4_exp_EVA_AWA_CON	84	B	A	Rpleas_acq	Oppo	Lpleas	2pleas	conawa_CS2_US1_confidence	conawa1_nomask	8	7	0	0	300	300	0	0	2471	guess	1	-49,4791666666666642982pct	loyal	helfen	lachen	retten	tolerant	treu	lasch	hindern	leiden	rächen	tyrannisch	tot	schlau	fair	ehrlich	schön	freundlich	spielen	schroff	faul	eitel	schlecht	fanatisch	strafen	0	0	0	0	0	0	0	0	0	0	0	0	0	0	0	0	0	0	0	0	0	0	0	0	0	0	0	0	0	0
2024-06-12	12:28:14	12:42:25	850417	6.6.1	4_exp_EVA_AWA_CON	84	B	A	Rpleas_acq	Oppo	Lpleas	2pleas	conawa_CS1_US5	conawa1_nomask	8	8	0	0	300	300	0	0	1837	fanatisch	1	-49,4791666666666642982pct	loyal	helfen	lachen	retten	tolerant	treu	lasch	hindern	leiden	rächen	tyrannisch	tot	schlau	fair	ehrlich	schön	freundlich	spielen	schroff	faul	eitel	schlecht	fanatisch	strafen	0	0	0	0	0	0	0	0	0	0	0	0	0	0	0	0	0	0	0	0	0	0	0	0	0	0	0	0	0	0
2024-06-12	12:28:14	12:42:25	850418	6.6.1	4_exp_EVA_AWA_CON	84	B	A	Rpleas_acq	Oppo	Lpleas	2pleas	conawa_CS1_US5_confidence	conawa1_nomask	8	8	0	0	300	300	0	0	1837	guess	1	-49,4791666666666642982pct	loyal	helfen	lachen	retten	tolerant	treu	lasch	hindern	leiden	rächen	tyrannisch	tot	schlau	fair	ehrlich	schön	freundlich	spielen	schroff	faul	eitel	schlecht	fanatisch	strafen	0	0	0	0	0	0	0	0	0	0	0	0	0	0	0	0	0	0	0	0	0	0	0	0	0	0	0	0	0	0
2024-06-12	12:28:14	12:42:27	853308	6.6.1	4_exp_EVA_AWA_CON	84	B	A	Rpleas_acq	Oppo	Lpleas	2pleas	conawa_CS1_US4	conawa1_nomask	8	9	0	0	300	300	0	0	2274	retten	1	-49,4791666666666642982pct	loyal	helfen	lachen	retten	tolerant	treu	lasch	hindern	leiden	rächen	tyrannisch	tot	schlau	fair	ehrlich	schön	freundlich	spielen	schroff	faul	eitel	schlecht	fanatisch	strafen	0	0	0	0	0	0	0	0	0	0	0	0	0	0	0	0	0	0	0	0	0	0	0	0	0	0	0	0	0	0
2024-06-12	12:28:14	12:42:27	853310	6.6.1	4_exp_EVA_AWA_CON	84	B	A	Rpleas_acq	Oppo	Lpleas	2pleas	conawa_CS1_US4_confidence	conawa1_nomask	8	9	0	0	300	300	0	0	2274	guess	1	-49,4791666666666642982pct	loyal	helfen	lachen	retten	tolerant	treu	lasch	hindern	leiden	rächen	tyrannisch	tot	schlau	fair	ehrlich	schön	freundlich	spielen	schroff	faul	eitel	schlecht	fanatisch	strafen	0	0	0	0	0	0	0	0	0	0	0	0	0	0	0	0	0	0	0	0	0	0	0	0	0	0	0	0	0	0
2024-06-12	12:28:14	12:42:30	856060	6.6.1	4_exp_EVA_AWA_CON	84	B	A	Rpleas_acq	Oppo	Lpleas	2pleas	conawa_CS2_US6	conawa1_nomask	8	10	0	0	300	300	0	0	2142	treu	1	-49,4791666666666642982pct	loyal	helfen	lachen	retten	tolerant	treu	lasch	hindern	leiden	rächen	tyrannisch	tot	schlau	fair	ehrlich	schön	freundlich	spielen	schroff	faul	eitel	schlecht	fanatisch	strafen	0	0	0	0	0	0	0	0	0	0	0	0	0	0	0	0	0	0	0	0	0	0	0	0	0	0	0	0	0	0
2024-06-12	12:28:14	12:42:30	856062	6.6.1	4_exp_EVA_AWA_CON	84	B	A	Rpleas_acq	Oppo	Lpleas	2pleas	conawa_CS2_US6_confidence	conawa1_nomask	8	10	0	0	300	300	0	0	2142	guess	1	-49,4791666666666642982pct	loyal	helfen	lachen	retten	tolerant	treu	lasch	hindern	leiden	rächen	tyrannisch	tot	schlau	fair	ehrlich	schön	freundlich	spielen	schroff	faul	eitel	schlecht	fanatisch	strafen	0	0	0	0	0	0	0	0	0	0	0	0	0	0	0	0	0	0	0	0	0	0	0	0	0	0	0	0	0	0
2024-06-12	12:28:14	12:42:33	859122	6.6.1	4_exp_EVA_AWA_CON	84	B	A	Rpleas_acq	Oppo	Lpleas	2pleas	conawa_CS2_US5	conawa1_nomask	8	11	0	0	300	300	0	0	2445	tolerant	1	-49,4791666666666642982pct	loyal	helfen	lachen	retten	tolerant	treu	lasch	hindern	leiden	rächen	tyrannisch	tot	schlau	fair	ehrlich	schön	freundlich	spielen	schroff	faul	eitel	schlecht	fanatisch	strafen	0	0	0	0	0	0	0	0	0	0	0	0	0	0	0	0	0	0	0	0	0	0	0	0	0	0	0	0	0	0
2024-06-12	12:28:14	12:42:33	859124	6.6.1	4_exp_EVA_AWA_CON	84	B	A	Rpleas_acq	Oppo	Lpleas	2pleas	conawa_CS2_US5_confidence	conawa1_nomask	8	11	0	0	300	300	0	0	2445	guess	1	-49,4791666666666642982pct	loyal	helfen	lachen	retten	tolerant	treu	lasch	hindern	leiden	rächen	tyrannisch	tot	schlau	fair	ehrlich	schön	freundlich	spielen	schroff	faul	eitel	schlecht	fanatisch	strafen	0	0	0	0	0	0	0	0	0	0	0	0	0	0	0	0	0	0	0	0	0	0	0	0	0	0	0	0	0	0
2024-06-12	12:28:14	12:42:37	862845	6.6.1	4_exp_EVA_AWA_CON	84	B	A	Rpleas_acq	Oppo	Lpleas	2pleas	conawa_CS1_US6	conawa1_nomask	8	12	0	0	300	300	0	0	3113	spielen	1	-49,4791666666666642982pct	loyal	helfen	lachen	retten	tolerant	treu	lasch	hindern	leiden	rächen	tyrannisch	tot	schlau	fair	ehrlich	schön	freundlich	spielen	schroff	faul	eitel	schlecht	fanatisch	strafen	0	0	0	0	0	0	0	0	0	0	0	0	0	0	0	0	0	0	0	0	0	0	0	0	0	0	0	0	0	0
2024-06-12	12:28:14	12:42:37	862847	6.6.1	4_exp_EVA_AWA_CON	84	B	A	Rpleas_acq	Oppo	Lpleas	2pleas	conawa_CS1_US6_confidence	conawa1_nomask	8	12	0	0	300	300	0	0	3113	guess	1	-49,4791666666666642982pct	loyal	helfen	lachen	retten	tolerant	treu	lasch	hindern	leiden	rächen	tyrannisch	tot	schlau	fair	ehrlich	schön	freundlich	spielen	schroff	faul	eitel	schlecht	fanatisch	strafen	0	0	0	0	0	0	0	0	0	0	0	0	0	0	0	0	0	0	0	0	0	0	0	0	0	0	0	0	0	0
2024-06-12	12:28:14	12:43:49	934747	6.6.1	4_exp_EVA_AWA_CON	84	B	A	Rpleas_acq	Oppo	Lpleas	2pleas	cond_US_pleas_123_nomask_CS1	condtest_nomask_1	11	1	400	1	300	300	0	0	344	46	1	-49,4791666666666642982pct	loyal	helfen	lachen	retten	tolerant	treu	lasch	hindern	leiden	rächen	tyrannisch	tot	schlau	fair	ehrlich	schön	freundlich	spielen	schroff	faul	eitel	schlecht	fanatisch	strafen	1	blank2r.bmp	0	1	+	0	1	blank2r.bmp	500	1	BMVZ	500	1	blank2r.bmp	880	2	helfen	880	1	!	1233	1	!	1245	0	0	0	0	0	0
2024-06-12	12:28:14	12:43:51	937074	6.6.1	4_exp_EVA_AWA_CON	84	B	A	Rpleas_acq	Oppo	Lpleas	2pleas	cond_US_pleas_123_nomask_CS2	condtest_nomask_1	11	2	400	0	300	300	0	0	550	46	1	-49,4791666666666642982pct	loyal	helfen	lachen	retten	tolerant	treu	lasch	hindern	leiden	rächen	tyrannisch	tot	schlau	fair	ehrlich	schön	freundlich	spielen	schroff	faul	eitel	schlecht	fanatisch	strafen	1	blank2r.bmp	0	1	+	0	1	blank2r.bmp	500	1	GKQX	500	1	blank2r.bmp	880	1	lachen	880	1	!	1233	1	!	-1	0	0	0	0	0	0
2024-06-12	12:28:14	12:43:53	939243	6.6.1	4_exp_EVA_AWA_CON	84	B	A	Rpleas_acq	Oppo	Lpleas	2pleas	cond_new_unple_456_nomask_CS1	condtest_nomask_1	11	3	400	1	300	300	0	0	387	50	1	-49,4791666666666642982pct	loyal	helfen	lachen	retten	tolerant	treu	lasch	hindern	leiden	rächen	tyrannisch	tot	schlau	fair	ehrlich	schön	freundlich	spielen	schroff	faul	eitel	schlecht	fanatisch	strafen	1	blank2r.bmp	0	1	+	0	1	blank2r.bmp	500	1	BMVZ	500	1	blank2r.bmp	880	2	fanatisch	880	1	!	1232	1	!	1288	0	0	0	0	0	0
2024-06-12	12:28:14	12:43:56	941379	6.6.1	4_exp_EVA_AWA_CON	84	B	A	Rpleas_acq	Oppo	Lpleas	2pleas	cond_new_pleas_456_nomask_CS2	condtest_nomask_1	11	4	400	1	300	300	0	0	361	46	1	-49,4791666666666642982pct	loyal	helfen	lachen	retten	tolerant	treu	lasch	hindern	leiden	rächen	tyrannisch	tot	schlau	fair	ehrlich	schön	freundlich	spielen	schroff	faul	eitel	schlecht	fanatisch	strafen	1	blank2r.bmp	0	1	+	0	1	blank2r.bmp	500	1	GKQX	500	1	blank2r.bmp	880	2	schön	880	1	!	1232	1	!	1262	0	0	0	0	0	0
2024-06-12	12:28:14	12:43:58	943745	6.6.1	4_exp_EVA_AWA_CON	84	B	A	Rpleas_acq	Oppo	Lpleas	2pleas	cond_US_unple_123_nomask_CS2	condtest_nomask_1	11	5	400	0	300	300	0	0	588	50	1	-49,4791666666666642982pct	loyal	helfen	lachen	retten	tolerant	treu	lasch	hindern	leiden	rächen	tyrannisch	tot	schlau	fair	ehrlich	schön	freundlich	spielen	schroff	faul	eitel	schlecht	fanatisch	strafen	1	blank2r.bmp	0	1	+	0	1	blank2r.bmp	500	1	GKQX	500	1	blank2r.bmp	880	2	lasch	880	1	!	1232	1	!	-1	0	0	0	0	0	0
2024-06-12	12:28:14	12:44:00	945992	6.6.1	4_exp_EVA_AWA_CON	84	B	A	Rpleas_acq	Oppo	Lpleas	2pleas	cond_US_unple_123_nomask_CS1	condtest_nomask_1	11	6	400	0	300	300	0	0	474	50	1	-49,4791666666666642982pct	loyal	helfen	lachen	retten	tolerant	treu	lasch	hindern	leiden	rächen	tyrannisch	tot	schlau	fair	ehrlich	schön	freundlich	spielen	schroff	faul	eitel	schlecht	fanatisch	strafen	1	blank2r.bmp	0	1	+	0	1	blank2r.bmp	500	1	BMVZ	500	1	blank2r.bmp	880	2	hindern	880	1	!	1232	1	!	-1	0	0	0	0	0	0
2024-06-12	12:28:14	12:44:02	948179	6.6.1	4_exp_EVA_AWA_CON	84	B	A	Rpleas_acq	Oppo	Lpleas	2pleas	cond_new_pleas_456_nomask_CS1	condtest_nomask_1	11	7	400	1	300	300	0	0	407	46	1	-49,4791666666666642982pct	loyal	helfen	lachen	retten	tolerant	treu	lasch	hindern	leiden	rächen	tyrannisch	tot	schlau	fair	ehrlich	schön	freundlich	spielen	schroff	faul	eitel	schlecht	fanatisch	strafen	1	blank2r.bmp	0	1	+	0	1	blank2r.bmp	500	1	BMVZ	500	1	blank2r.bmp	880	3	spielen	880	1	!	1233	1	!	1308	0	0	0	0	0	0
2024-06-12	12:28:14	12:44:05	950355	6.6.1	4_exp_EVA_AWA_CON	84	B	A	Rpleas_acq	Oppo	Lpleas	2pleas	cond_new_unple_456_nomask_CS2	condtest_nomask_1	11	8	400	1	300	300	0	0	401	46	0	-49,4791666666666642982pct	loyal	helfen	lachen	retten	tolerant	treu	lasch	hindern	leiden	rächen	tyrannisch	tot	schlau	fair	ehrlich	schön	freundlich	spielen	schroff	faul	eitel	schlecht	fanatisch	strafen	1	blank2r.bmp	0	1	+	0	1	blank2r.bmp	500	1	GKQX	500	1	blank2r.bmp	880	2	schlecht	880	1	!	1232	1	!	1303	0	0	0	0	0	0
2024-06-12	12:28:14	12:44:14	959529	6.6.1	4_exp_EVA_AWA_CON	84	B	A	Rpleas_acq	Oppo	Lpleas	2pleas	cond_US_pleas_123_nomask_CS2	condtest_nomask_2	12	1	400	0	300	300	0	0	311	46	1	-49,4791666666666642982pct	loyal	helfen	lachen	retten	tolerant	treu	lasch	hindern	leiden	rächen	tyrannisch	tot	schlau	fair	ehrlich	schön	freundlich	spielen	schroff	faul	eitel	schlecht	fanatisch	strafen	1	blank2r.bmp	0	1	+	0	1	blank2r.bmp	500	1	GKQX	500	1	blank2r.bmp	880	3	helfen	880	1	!	-1	1	!	-1	0	0	0	0	0	0
