date	time	currenttime	elapsedtime	build	currentexpt	subject	CS_AB	US_AB	LRpleas_acq	SameOppo	condition_Lpleas	condition_1pleas	trialcode	blockcode	blocknum	trialnum	windowcenter	inwindow	pretrialpause	posttrialpause	trialduration	trialtimeout	latency	response	correct	correctedscore	US_nomask_pleas1	US_nomask_pleas2	US_nomask_pleas3	US_nomask_pleas4	US_nomask_pleas5	US_nomask_pleas6	US_nomask_unple1	US_nomask_unple2	US_nomask_unple3	US_nomask_unple4	US_nomask_unple5	US_nomask_unple6	new_nomask_pleas1	new_nomask_pleas2	new_nomask_pleas3	new_nomask_pleas4	new_nomask_pleas5	new_nomask_pleas6	new_nomask_unple1	new_nomask_unple2	new_nomask_unple3	new_nomask_unple4	new_nomask_unple5	new_nomask_unple6	stimulusnumber1	stimulusitem1	stimulusonset1	stimulusnumber2	stimulusitem2	stimulusonset2	stimulusnumber3	stimulusitem3	stimulusonset3	stimulusnumber4	stimulusitem4	stimulusonset4	stimulusnumber5	stimulusitem5	stimulusonset5	stimulusnumber6	stimulusitem6	stimulusonset6	stimulusnumber7	stimulusitem7	stimulusonset7	stimulusnumber8	stimulusitem8	stimulusonset8	stimulusnumber9	stimulusitem9	stimulusonset9	stimulusnumber10	stimulusitem10	stimulusonset10
2024-06-06	11:32:17	11:34:42	144336	6.6.1	4_exp_EVA_AWA_CON	72	A	B	Rpleas_acq	Oppo	Rpleas	2pleas	acq_US_pleas_nomask	acq1_nomask	1	1	0	0	300	300	0	0	981	50	1	0	kreativ	engagiert	gesittet	kuss	besonnen	träumen	krank	engstirnig	geizig	krise	bange	töten	sonnig	vergnügt	gütig	anregung	vertrauen	genießen	sterben	verbissen	gierig	ausrottung	versagen	gemein	1	blank2r.bmp	0	1	+	0	1	blank2r.bmp	500	1	DHJF	500	1	blank2r.bmp	880	1	kreativ	880	0	0	0	0	0	0	0	0	0	0	0	0
2024-06-06	11:32:17	11:34:44	146359	6.6.1	4_exp_EVA_AWA_CON	72	A	B	Rpleas_acq	Oppo	Rpleas	2pleas	acq_new_unple_nomask	acq1_nomask	1	2	0	0	300	300	0	0	544	46	1	0	kreativ	engagiert	gesittet	kuss	besonnen	träumen	krank	engstirnig	geizig	krise	bange	töten	sonnig	vergnügt	gütig	anregung	vertrauen	genießen	sterben	verbissen	gierig	ausrottung	versagen	gemein	1	blank2r.bmp	0	1	+	0	1	blank2r.bmp	500	3	B3r.bmp	500	1	blank2r.bmp	880	6	gemein	880	0	0	0	0	0	0	0	0	0	0	0	0
2024-06-06	11:32:17	11:34:46	148632	6.6.1	4_exp_EVA_AWA_CON	72	A	B	Rpleas_acq	Oppo	Rpleas	2pleas	acq_new_pleas_nomask	acq1_nomask	1	3	0	0	300	300	0	0	784	50	1	0	kreativ	engagiert	gesittet	kuss	besonnen	träumen	krank	engstirnig	geizig	krise	bange	töten	sonnig	vergnügt	gütig	anregung	vertrauen	genießen	sterben	verbissen	gierig	ausrottung	versagen	gemein	1	blank2r.bmp	0	1	+	0	1	blank2r.bmp	500	2	B2r.bmp	500	1	blank2r.bmp	880	6	genießen	880	0	0	0	0	0	0	0	0	0	0	0	0
2024-06-06	11:32:17	11:34:49	151336	6.6.1	4_exp_EVA_AWA_CON	72	A	B	Rpleas_acq	Oppo	Rpleas	2pleas	acq_US_unple_nomask	acq1_nomask	1	4	0	0	300	300	0	0	1217	46	1	0	kreativ	engagiert	gesittet	kuss	besonnen	träumen	krank	engstirnig	geizig	krise	bange	töten	sonnig	vergnügt	gütig	anregung	vertrauen	genießen	sterben	verbissen	gierig	ausrottung	versagen	gemein	1	blank2r.bmp	0	1	+	0	1	blank2r.bmp	500	1	CPLW	500	1	blank2r.bmp	880	2	engstirnig	880	0	0	0	0	0	0	0	0	0	0	0	0
2024-06-06	11:32:17	11:34:51	153463	6.6.1	4_exp_EVA_AWA_CON	72	A	B	Rpleas_acq	Oppo	Rpleas	2pleas	acq_new_pleas_nomask	acq1_nomask	1	5	0	0	300	300	0	0	643	50	1	0	kreativ	engagiert	gesittet	kuss	besonnen	träumen	krank	engstirnig	geizig	krise	bange	töten	sonnig	vergnügt	gütig	anregung	vertrauen	genießen	sterben	verbissen	gierig	ausrottung	versagen	gemein	1	blank2r.bmp	0	1	+	0	1	blank2r.bmp	500	6	C2r.bmp	500	1	blank2r.bmp	880	2	vergnügt	880	0	0	0	0	0	0	0	0	0	0	0	0
2024-06-06	11:32:17	11:34:53	155663	6.6.1	4_exp_EVA_AWA_CON	72	A	B	Rpleas_acq	Oppo	Rpleas	2pleas	acq_new_pleas_nomask	acq1_nomask	1	6	0	0	300	300	0	0	712	50	1	0	kreativ	engagiert	gesittet	kuss	besonnen	träumen	krank	engstirnig	geizig	krise	bange	töten	sonnig	vergnügt	gütig	anregung	vertrauen	genießen	sterben	verbissen	gierig	ausrottung	versagen	gemein	1	blank2r.bmp	0	1	+	0	1	blank2r.bmp	500	7	C3r.bmp	500	1	blank2r.bmp	880	5	vertrauen	880	0	0	0	0	0	0	0	0	0	0	0	0
2024-06-06	11:32:17	11:34:55	157751	6.6.1	4_exp_EVA_AWA_CON	72	A	B	Rpleas_acq	Oppo	Rpleas	2pleas	acq_new_unple_nomask	acq1_nomask	1	7	0	0	300	300	0	0	598	46	1	0	kreativ	engagiert	gesittet	kuss	besonnen	träumen	krank	engstirnig	geizig	krise	bange	töten	sonnig	vergnügt	gütig	anregung	vertrauen	genießen	sterben	verbissen	gierig	ausrottung	versagen	gemein	1	blank2r.bmp	0	1	+	0	1	blank2r.bmp	500	1	B1r.bmp	500	1	blank2r.bmp	880	3	gierig	880	0	0	0	0	0	0	0	0	0	0	0	0
2024-06-06	11:32:17	11:34:58	160079	6.6.1	4_exp_EVA_AWA_CON	72	A	B	Rpleas_acq	Oppo	Rpleas	2pleas	acq_US_unple_nomask	acq1_nomask	1	8	0	0	300	300	0	0	845	46	1	0	kreativ	engagiert	gesittet	kuss	besonnen	träumen	krank	engstirnig	geizig	krise	bange	töten	sonnig	vergnügt	gütig	anregung	vertrauen	genießen	sterben	verbissen	gierig	ausrottung	versagen	gemein	1	blank2r.bmp	0	1	+	0	1	blank2r.bmp	500	1	CPLW	500	1	blank2r.bmp	880	5	bange	880	0	0	0	0	0	0	0	0	0	0	0	0
2024-06-06	11:32:17	11:35:00	162199	6.6.1	4_exp_EVA_AWA_CON	72	A	B	Rpleas_acq	Oppo	Rpleas	2pleas	acq_US_pleas_nomask	acq1_nomask	1	9	0	0	300	300	0	0	634	50	1	0	kreativ	engagiert	gesittet	kuss	besonnen	träumen	krank	engstirnig	geizig	krise	bange	töten	sonnig	vergnügt	gütig	anregung	vertrauen	genießen	sterben	verbissen	gierig	ausrottung	versagen	gemein	1	blank2r.bmp	0	1	+	0	1	blank2r.bmp	500	1	DHJF	500	1	blank2r.bmp	880	5	besonnen	880	0	0	0	0	0	0	0	0	0	0	0	0
2024-06-06	11:32:17	11:35:02	164391	6.6.1	4_exp_EVA_AWA_CON	72	A	B	Rpleas_acq	Oppo	Rpleas	2pleas	acq_US_unple_nomask	acq1_nomask	1	10	0	0	300	300	0	0	704	46	1	0	kreativ	engagiert	gesittet	kuss	besonnen	träumen	krank	engstirnig	geizig	krise	bange	töten	sonnig	vergnügt	gütig	anregung	vertrauen	genießen	sterben	verbissen	gierig	ausrottung	versagen	gemein	1	blank2r.bmp	0	1	+	0	1	blank2r.bmp	500	1	CPLW	500	1	blank2r.bmp	880	1	krank	880	0	0	0	0	0	0	0	0	0	0	0	0
2024-06-06	11:32:17	11:35:04	166712	6.6.1	4_exp_EVA_AWA_CON	72	A	B	Rpleas_acq	Oppo	Rpleas	2pleas	acq_US_pleas_nomask	acq1_nomask	1	11	0	0	300	300	0	0	833	50	1	0	kreativ	engagiert	gesittet	kuss	besonnen	träumen	krank	engstirnig	geizig	krise	bange	töten	sonnig	vergnügt	gütig	anregung	vertrauen	genießen	sterben	verbissen	gierig	ausrottung	versagen	gemein	1	blank2r.bmp	0	1	+	0	1	blank2r.bmp	500	1	DHJF	500	1	blank2r.bmp	880	6	träumen	880	0	0	0	0	0	0	0	0	0	0	0	0
2024-06-06	11:32:17	11:35:06	168807	6.6.1	4_exp_EVA_AWA_CON	72	A	B	Rpleas_acq	Oppo	Rpleas	2pleas	acq_new_unple_nomask	acq1_nomask	1	12	0	0	300	300	0	0	607	46	1	0	kreativ	engagiert	gesittet	kuss	besonnen	träumen	krank	engstirnig	geizig	krise	bange	töten	sonnig	vergnügt	gütig	anregung	vertrauen	genießen	sterben	verbissen	gierig	ausrottung	versagen	gemein	1	blank2r.bmp	0	1	+	0	1	blank2r.bmp	500	5	C1r.bmp	500	1	blank2r.bmp	880	5	versagen	880	0	0	0	0	0	0	0	0	0	0	0	0
2024-06-06	11:32:17	11:35:09	170903	6.6.1	4_exp_EVA_AWA_CON	72	A	B	Rpleas_acq	Oppo	Rpleas	2pleas	acq_US_pleas_nomask	acq1_nomask	1	13	0	0	300	300	0	0	612	50	1	0	kreativ	engagiert	gesittet	kuss	besonnen	träumen	krank	engstirnig	geizig	krise	bange	töten	sonnig	vergnügt	gütig	anregung	vertrauen	genießen	sterben	verbissen	gierig	ausrottung	versagen	gemein	1	blank2r.bmp	0	1	+	0	1	blank2r.bmp	500	1	DHJF	500	1	blank2r.bmp	880	2	engagiert	880	0	0	0	0	0	0	0	0	0	0	0	0
2024-06-06	11:32:17	11:35:11	173217	6.6.1	4_exp_EVA_AWA_CON	72	A	B	Rpleas_acq	Oppo	Rpleas	2pleas	acq_US_pleas_nomask	acq1_nomask	1	14	0	0	300	300	0	0	623	46	0	0	kreativ	engagiert	gesittet	kuss	besonnen	träumen	krank	engstirnig	geizig	krise	bange	töten	sonnig	vergnügt	gütig	anregung	vertrauen	genießen	sterben	verbissen	gierig	ausrottung	versagen	gemein	1	blank2r.bmp	0	1	+	0	1	blank2r.bmp	500	1	DHJF	500	1	blank2r.bmp	880	3	gesittet	880	1	FEHLER	1524	0	0	0	0	0	0	0	0	0
2024-06-06	11:32:17	11:35:13	175183	6.6.1	4_exp_EVA_AWA_CON	72	A	B	Rpleas_acq	Oppo	Rpleas	2pleas	acq_US_unple_nomask	acq1_nomask	1	15	0	0	300	300	0	0	679	46	1	0	kreativ	engagiert	gesittet	kuss	besonnen	träumen	krank	engstirnig	geizig	krise	bange	töten	sonnig	vergnügt	gütig	anregung	vertrauen	genießen	sterben	verbissen	gierig	ausrottung	versagen	gemein	1	blank2r.bmp	0	1	+	0	1	blank2r.bmp	500	1	CPLW	500	1	blank2r.bmp	880	4	krise	880	0	0	0	0	0	0	0	0	0	0	0	0
2024-06-06	11:32:17	11:35:15	177591	6.6.1	4_exp_EVA_AWA_CON	72	A	B	Rpleas_acq	Oppo	Rpleas	2pleas	acq_new_unple_nomask	acq1_nomask	1	16	0	0	300	300	0	0	926	46	1	0	kreativ	engagiert	gesittet	kuss	besonnen	träumen	krank	engstirnig	geizig	krise	bange	töten	sonnig	vergnügt	gütig	anregung	vertrauen	genießen	sterben	verbissen	gierig	ausrottung	versagen	gemein	1	blank2r.bmp	0	1	+	0	1	blank2r.bmp	500	8	C4r.bmp	500	1	blank2r.bmp	880	4	ausrottung	880	0	0	0	0	0	0	0	0	0	0	0	0
2024-06-06	11:32:17	11:35:17	179855	6.6.1	4_exp_EVA_AWA_CON	72	A	B	Rpleas_acq	Oppo	Rpleas	2pleas	acq_new_unple_nomask	acq1_nomask	1	17	0	0	300	300	0	0	778	46	1	0	kreativ	engagiert	gesittet	kuss	besonnen	träumen	krank	engstirnig	geizig	krise	bange	töten	sonnig	vergnügt	gütig	anregung	vertrauen	genießen	sterben	verbissen	gierig	ausrottung	versagen	gemein	1	blank2r.bmp	0	1	+	0	1	blank2r.bmp	500	4	B4r.bmp	500	1	blank2r.bmp	880	2	verbissen	880	0	0	0	0	0	0	0	0	0	0	0	0
2024-06-06	11:32:17	11:35:20	181912	6.6.1	4_exp_EVA_AWA_CON	72	A	B	Rpleas_acq	Oppo	Rpleas	2pleas	acq_US_pleas_nomask	acq1_nomask	1	18	0	0	300	300	0	0	573	50	1	0	kreativ	engagiert	gesittet	kuss	besonnen	träumen	krank	engstirnig	geizig	krise	bange	töten	sonnig	vergnügt	gütig	anregung	vertrauen	genießen	sterben	verbissen	gierig	ausrottung	versagen	gemein	1	blank2r.bmp	0	1	+	0	1	blank2r.bmp	500	1	DHJF	500	1	blank2r.bmp	880	4	kuss	880	0	0	0	0	0	0	0	0	0	0	0	0
2024-06-06	11:32:17	11:35:22	183927	6.6.1	4_exp_EVA_AWA_CON	72	A	B	Rpleas_acq	Oppo	Rpleas	2pleas	acq_US_unple_nomask	acq1_nomask	1	19	0	0	300	300	0	0	528	46	1	0	kreativ	engagiert	gesittet	kuss	besonnen	träumen	krank	engstirnig	geizig	krise	bange	töten	sonnig	vergnügt	gütig	anregung	vertrauen	genießen	sterben	verbissen	gierig	ausrottung	versagen	gemein	1	blank2r.bmp	0	1	+	0	1	blank2r.bmp	500	1	CPLW	500	1	blank2r.bmp	880	6	töten	880	0	0	0	0	0	0	0	0	0	0	0	0
2024-06-06	11:32:17	11:35:24	186585	6.6.1	4_exp_EVA_AWA_CON	72	A	B	Rpleas_acq	Oppo	Rpleas	2pleas	acq_new_pleas_nomask	acq1_nomask	1	20	0	0	300	300	0	0	972	46	0	0	kreativ	engagiert	gesittet	kuss	besonnen	träumen	krank	engstirnig	geizig	krise	bange	töten	sonnig	vergnügt	gütig	anregung	vertrauen	genießen	sterben	verbissen	gierig	ausrottung	versagen	gemein	1	blank2r.bmp	0	1	+	0	1	blank2r.bmp	500	1	B1r.bmp	500	1	blank2r.bmp	880	4	anregung	880	1	FEHLER	1874	0	0	0	0	0	0	0	0	0
2024-06-06	11:32:17	11:35:26	188816	6.6.1	4_exp_EVA_AWA_CON	72	A	B	Rpleas_acq	Oppo	Rpleas	2pleas	acq_new_pleas_nomask	acq1_nomask	1	21	0	0	300	300	0	0	943	50	1	0	kreativ	engagiert	gesittet	kuss	besonnen	träumen	krank	engstirnig	geizig	krise	bange	töten	sonnig	vergnügt	gütig	anregung	vertrauen	genießen	sterben	verbissen	gierig	ausrottung	versagen	gemein	1	blank2r.bmp	0	1	+	0	1	blank2r.bmp	500	6	C2r.bmp	500	1	blank2r.bmp	880	3	gütig	880	0	0	0	0	0	0	0	0	0	0	0	0
2024-06-06	11:32:17	11:35:29	190951	6.6.1	4_exp_EVA_AWA_CON	72	A	B	Rpleas_acq	Oppo	Rpleas	2pleas	acq_new_pleas_nomask	acq1_nomask	1	22	0	0	300	300	0	0	647	50	1	0	kreativ	engagiert	gesittet	kuss	besonnen	träumen	krank	engstirnig	geizig	krise	bange	töten	sonnig	vergnügt	gütig	anregung	vertrauen	genießen	sterben	verbissen	gierig	ausrottung	versagen	gemein	1	blank2r.bmp	0	1	+	0	1	blank2r.bmp	500	4	B4r.bmp	500	1	blank2r.bmp	880	1	sonnig	880	0	0	0	0	0	0	0	0	0	0	0	0
2024-06-06	11:32:17	11:35:31	193079	6.6.1	4_exp_EVA_AWA_CON	72	A	B	Rpleas_acq	Oppo	Rpleas	2pleas	acq_new_unple_nomask	acq1_nomask	1	23	0	0	300	300	0	0	644	46	1	0	kreativ	engagiert	gesittet	kuss	besonnen	träumen	krank	engstirnig	geizig	krise	bange	töten	sonnig	vergnügt	gütig	anregung	vertrauen	genießen	sterben	verbissen	gierig	ausrottung	versagen	gemein	1	blank2r.bmp	0	1	+	0	1	blank2r.bmp	500	5	C1r.bmp	500	1	blank2r.bmp	880	1	sterben	880	0	0	0	0	0	0	0	0	0	0	0	0
2024-06-06	11:32:17	11:35:33	195495	6.6.1	4_exp_EVA_AWA_CON	72	A	B	Rpleas_acq	Oppo	Rpleas	2pleas	acq_US_unple_nomask	acq1_nomask	1	24	0	0	300	300	0	0	928	46	1	0	kreativ	engagiert	gesittet	kuss	besonnen	träumen	krank	engstirnig	geizig	krise	bange	töten	sonnig	vergnügt	gütig	anregung	vertrauen	genießen	sterben	verbissen	gierig	ausrottung	versagen	gemein	1	blank2r.bmp	0	1	+	0	1	blank2r.bmp	500	1	CPLW	500	1	blank2r.bmp	880	3	geizig	880	0	0	0	0	0	0	0	0	0	0	0	0
2024-06-06	11:32:17	11:35:35	197640	6.6.1	4_exp_EVA_AWA_CON	72	A	B	Rpleas_acq	Oppo	Rpleas	2pleas	acq_new_unple_nomask	acq1_nomask	1	25	0	0	300	300	0	0	661	46	1	0	kreativ	engagiert	gesittet	kuss	besonnen	träumen	krank	engstirnig	geizig	krise	bange	töten	sonnig	vergnügt	gütig	anregung	vertrauen	genießen	sterben	verbissen	gierig	ausrottung	versagen	gemein	1	blank2r.bmp	0	1	+	0	1	blank2r.bmp	500	7	C3r.bmp	500	1	blank2r.bmp	880	5	versagen	880	0	0	0	0	0	0	0	0	0	0	0	0
2024-06-06	11:32:17	11:35:37	199736	6.6.1	4_exp_EVA_AWA_CON	72	A	B	Rpleas_acq	Oppo	Rpleas	2pleas	acq_new_pleas_nomask	acq1_nomask	1	26	0	0	300	300	0	0	615	50	1	0	kreativ	engagiert	gesittet	kuss	besonnen	träumen	krank	engstirnig	geizig	krise	bange	töten	sonnig	vergnügt	gütig	anregung	vertrauen	genießen	sterben	verbissen	gierig	ausrottung	versagen	gemein	1	blank2r.bmp	0	1	+	0	1	blank2r.bmp	500	8	C4r.bmp	500	1	blank2r.bmp	880	2	vergnügt	880	0	0	0	0	0	0	0	0	0	0	0	0
2024-06-06	11:32:17	11:35:39	201855	6.6.1	4_exp_EVA_AWA_CON	72	A	B	Rpleas_acq	Oppo	Rpleas	2pleas	acq_new_unple_nomask	acq1_nomask	1	27	0	0	300	300	0	0	634	46	1	0	kreativ	engagiert	gesittet	kuss	besonnen	träumen	krank	engstirnig	geizig	krise	bange	töten	sonnig	vergnügt	gütig	anregung	vertrauen	genießen	sterben	verbissen	gierig	ausrottung	versagen	gemein	1	blank2r.bmp	0	1	+	0	1	blank2r.bmp	500	2	B2r.bmp	500	1	blank2r.bmp	880	3	gierig	880	0	0	0	0	0	0	0	0	0	0	0	0
2024-06-06	11:32:17	11:35:42	204071	6.6.1	4_exp_EVA_AWA_CON	72	A	B	Rpleas_acq	Oppo	Rpleas	2pleas	acq_US_pleas_nomask	acq1_nomask	1	28	0	0	300	300	0	0	729	50	1	0	kreativ	engagiert	gesittet	kuss	besonnen	träumen	krank	engstirnig	geizig	krise	bange	töten	sonnig	vergnügt	gütig	anregung	vertrauen	genießen	sterben	verbissen	gierig	ausrottung	versagen	gemein	1	blank2r.bmp	0	1	+	0	1	blank2r.bmp	500	1	DHJF	500	1	blank2r.bmp	880	2	engagiert	880	0	0	0	0	0	0	0	0	0	0	0	0
2024-06-06	11:32:17	11:35:44	206232	6.6.1	4_exp_EVA_AWA_CON	72	A	B	Rpleas_acq	Oppo	Rpleas	2pleas	acq_new_unple_nomask	acq1_nomask	1	29	0	0	300	300	0	0	677	46	1	0	kreativ	engagiert	gesittet	kuss	besonnen	träumen	krank	engstirnig	geizig	krise	bange	töten	sonnig	vergnügt	gütig	anregung	vertrauen	genießen	sterben	verbissen	gierig	ausrottung	versagen	gemein	1	blank2r.bmp	0	1	+	0	1	blank2r.bmp	500	3	B3r.bmp	500	1	blank2r.bmp	880	4	ausrottung	880	0	0	0	0	0	0	0	0	0	0	0	0
2024-06-06	11:32:17	11:35:46	208631	6.6.1	4_exp_EVA_AWA_CON	72	A	B	Rpleas_acq	Oppo	Rpleas	2pleas	acq_US_pleas_nomask	acq1_nomask	1	30	0	0	300	300	0	0	916	50	1	0	kreativ	engagiert	gesittet	kuss	besonnen	träumen	krank	engstirnig	geizig	krise	bange	töten	sonnig	vergnügt	gütig	anregung	vertrauen	genießen	sterben	verbissen	gierig	ausrottung	versagen	gemein	1	blank2r.bmp	0	1	+	0	1	blank2r.bmp	500	1	DHJF	500	1	blank2r.bmp	880	1	kreativ	880	0	0	0	0	0	0	0	0	0	0	0	0
2024-06-06	11:32:17	11:35:49	211448	6.6.1	4_exp_EVA_AWA_CON	72	A	B	Rpleas_acq	Oppo	Rpleas	2pleas	acq_US_unple_nomask	acq1_nomask	1	31	0	0	300	300	0	0	1330	46	1	0	kreativ	engagiert	gesittet	kuss	besonnen	träumen	krank	engstirnig	geizig	krise	bange	töten	sonnig	vergnügt	gütig	anregung	vertrauen	genießen	sterben	verbissen	gierig	ausrottung	versagen	gemein	1	blank2r.bmp	0	1	+	0	1	blank2r.bmp	500	1	CPLW	500	1	blank2r.bmp	880	5	bange	880	0	0	0	0	0	0	0	0	0	0	0	0
2024-06-06	11:32:17	11:35:51	213672	6.6.1	4_exp_EVA_AWA_CON	72	A	B	Rpleas_acq	Oppo	Rpleas	2pleas	acq_US_unple_nomask	acq1_nomask	1	32	0	0	300	300	0	0	743	46	1	0	kreativ	engagiert	gesittet	kuss	besonnen	träumen	krank	engstirnig	geizig	krise	bange	töten	sonnig	vergnügt	gütig	anregung	vertrauen	genießen	sterben	verbissen	gierig	ausrottung	versagen	gemein	1	blank2r.bmp	0	1	+	0	1	blank2r.bmp	500	1	CPLW	500	1	blank2r.bmp	880	4	krise	880	0	0	0	0	0	0	0	0	0	0	0	0
2024-06-06	11:32:17	11:35:53	215792	6.6.1	4_exp_EVA_AWA_CON	72	A	B	Rpleas_acq	Oppo	Rpleas	2pleas	acq_new_pleas_nomask	acq1_nomask	1	33	0	0	300	300	0	0	631	50	1	0	kreativ	engagiert	gesittet	kuss	besonnen	träumen	krank	engstirnig	geizig	krise	bange	töten	sonnig	vergnügt	gütig	anregung	vertrauen	genießen	sterben	verbissen	gierig	ausrottung	versagen	gemein	1	blank2r.bmp	0	1	+	0	1	blank2r.bmp	500	6	C2r.bmp	500	1	blank2r.bmp	880	6	genießen	880	0	0	0	0	0	0	0	0	0	0	0	0
2024-06-06	11:32:17	11:35:56	218039	6.6.1	4_exp_EVA_AWA_CON	72	A	B	Rpleas_acq	Oppo	Rpleas	2pleas	acq_US_pleas_nomask	acq1_nomask	1	34	0	0	300	300	0	0	768	50	1	0	kreativ	engagiert	gesittet	kuss	besonnen	träumen	krank	engstirnig	geizig	krise	bange	töten	sonnig	vergnügt	gütig	anregung	vertrauen	genießen	sterben	verbissen	gierig	ausrottung	versagen	gemein	1	blank2r.bmp	0	1	+	0	1	blank2r.bmp	500	1	DHJF	500	1	blank2r.bmp	880	4	kuss	880	0	0	0	0	0	0	0	0	0	0	0	0
2024-06-06	11:32:17	11:35:58	220095	6.6.1	4_exp_EVA_AWA_CON	72	A	B	Rpleas_acq	Oppo	Rpleas	2pleas	acq_US_unple_nomask	acq1_nomask	1	35	0	0	300	300	0	0	572	46	1	0	kreativ	engagiert	gesittet	kuss	besonnen	träumen	krank	engstirnig	geizig	krise	bange	töten	sonnig	vergnügt	gütig	anregung	vertrauen	genießen	sterben	verbissen	gierig	ausrottung	versagen	gemein	1	blank2r.bmp	0	1	+	0	1	blank2r.bmp	500	1	CPLW	500	1	blank2r.bmp	880	6	töten	880	0	0	0	0	0	0	0	0	0	0	0	0
2024-06-06	11:32:17	11:36:00	222232	6.6.1	4_exp_EVA_AWA_CON	72	A	B	Rpleas_acq	Oppo	Rpleas	2pleas	acq_new_pleas_nomask	acq1_nomask	1	36	0	0	300	300	0	0	647	50	1	0	kreativ	engagiert	gesittet	kuss	besonnen	träumen	krank	engstirnig	geizig	krise	bange	töten	sonnig	vergnügt	gütig	anregung	vertrauen	genießen	sterben	verbissen	gierig	ausrottung	versagen	gemein	1	blank2r.bmp	0	1	+	0	1	blank2r.bmp	500	5	C1r.bmp	500	1	blank2r.bmp	880	5	vertrauen	880	0	0	0	0	0	0	0	0	0	0	0	0
2024-06-06	11:32:17	11:36:40	262834	6.6.1	4_exp_EVA_AWA_CON	72	A	B	Rpleas_acq	Oppo	Rpleas	2pleas	acq_US_pleas_nomask	acq2_nomask	2	1	480	0	300	300	0	0	1224	50	1	0	kreativ	engagiert	gesittet	kuss	besonnen	träumen	krank	engstirnig	geizig	krise	bange	töten	sonnig	vergnügt	gütig	anregung	vertrauen	genießen	sterben	verbissen	gierig	ausrottung	versagen	gemein	1	blank2r.bmp	0	1	+	0	1	blank2r.bmp	500	1	DHJF	500	1	blank2r.bmp	880	6	träumen	880	1	!	1313	1	!	-1	0	0	0	0	0	0
2024-06-06	11:32:17	11:36:43	265115	6.6.1	4_exp_EVA_AWA_CON	72	A	B	Rpleas_acq	Oppo	Rpleas	2pleas	acq_US_unple_nomask	acq2_nomask	2	2	480	1	300	300	0	0	502	46	1	0	kreativ	engagiert	gesittet	kuss	besonnen	träumen	krank	engstirnig	geizig	krise	bange	töten	sonnig	vergnügt	gütig	anregung	vertrauen	genießen	sterben	verbissen	gierig	ausrottung	versagen	gemein	1	blank2r.bmp	0	1	+	0	1	blank2r.bmp	500	1	CPLW	500	1	blank2r.bmp	880	3	geizig	880	1	!	1313	1	!	1403	0	0	0	0	0	0
2024-06-06	11:32:17	11:36:45	267645	6.6.1	4_exp_EVA_AWA_CON	72	A	B	Rpleas_acq	Oppo	Rpleas	2pleas	acq_US_pleas_nomask	acq2_nomask	2	3	480	1	300	300	0	0	548	46	0	0	kreativ	engagiert	gesittet	kuss	besonnen	träumen	krank	engstirnig	geizig	krise	bange	töten	sonnig	vergnügt	gütig	anregung	vertrauen	genießen	sterben	verbissen	gierig	ausrottung	versagen	gemein	1	blank2r.bmp	0	1	+	0	1	blank2r.bmp	500	1	DHJF	500	1	blank2r.bmp	880	3	gesittet	880	1	FEHLER	1741	1	!	1312	1	!	1449	0	0	0
2024-06-06	11:32:17	11:36:48	270004	6.6.1	4_exp_EVA_AWA_CON	72	A	B	Rpleas_acq	Oppo	Rpleas	2pleas	acq_new_pleas_nomask	acq2_nomask	2	4	480	0	300	300	0	0	587	46	0	0	kreativ	engagiert	gesittet	kuss	besonnen	träumen	krank	engstirnig	geizig	krise	bange	töten	sonnig	vergnügt	gütig	anregung	vertrauen	genießen	sterben	verbissen	gierig	ausrottung	versagen	gemein	1	blank2r.bmp	0	1	+	0	1	blank2r.bmp	500	8	C4r.bmp	500	1	blank2r.bmp	880	3	gütig	880	1	FEHLER	1779	1	!	1313	1	!	-1	0	0	0
2024-06-06	11:32:17	11:36:50	272091	6.6.1	4_exp_EVA_AWA_CON	72	A	B	Rpleas_acq	Oppo	Rpleas	2pleas	acq_US_unple_nomask	acq2_nomask	2	5	480	1	300	300	0	0	513	46	1	0	kreativ	engagiert	gesittet	kuss	besonnen	träumen	krank	engstirnig	geizig	krise	bange	töten	sonnig	vergnügt	gütig	anregung	vertrauen	genießen	sterben	verbissen	gierig	ausrottung	versagen	gemein	1	blank2r.bmp	0	1	+	0	1	blank2r.bmp	500	1	CPLW	500	1	blank2r.bmp	880	2	engstirnig	880	1	!	1312	1	!	1414	0	0	0	0	0	0
2024-06-06	11:32:17	11:36:52	274299	6.6.1	4_exp_EVA_AWA_CON	72	A	B	Rpleas_acq	Oppo	Rpleas	2pleas	acq_new_pleas_nomask	acq2_nomask	2	6	480	1	300	300	0	0	430	50	1	0	kreativ	engagiert	gesittet	kuss	besonnen	träumen	krank	engstirnig	geizig	krise	bange	töten	sonnig	vergnügt	gütig	anregung	vertrauen	genießen	sterben	verbissen	gierig	ausrottung	versagen	gemein	1	blank2r.bmp	0	1	+	0	1	blank2r.bmp	500	3	B3r.bmp	500	1	blank2r.bmp	880	4	anregung	880	1	!	1312	1	!	1330	0	0	0	0	0	0
2024-06-06	11:32:17	11:36:54	276579	6.6.1	4_exp_EVA_AWA_CON	72	A	B	Rpleas_acq	Oppo	Rpleas	2pleas	acq_US_unple_nomask	acq2_nomask	2	7	480	1	300	300	0	0	498	46	1	0	kreativ	engagiert	gesittet	kuss	besonnen	träumen	krank	engstirnig	geizig	krise	bange	töten	sonnig	vergnügt	gütig	anregung	vertrauen	genießen	sterben	verbissen	gierig	ausrottung	versagen	gemein	1	blank2r.bmp	0	1	+	0	1	blank2r.bmp	500	1	CPLW	500	1	blank2r.bmp	880	1	krank	880	1	!	1313	1	!	1399	0	0	0	0	0	0
2024-06-06	11:32:17	11:36:57	279052	6.6.1	4_exp_EVA_AWA_CON	72	A	B	Rpleas_acq	Oppo	Rpleas	2pleas	acq_new_unple_nomask	acq2_nomask	2	8	480	1	300	300	0	0	499	50	0	0	kreativ	engagiert	gesittet	kuss	besonnen	träumen	krank	engstirnig	geizig	krise	bange	töten	sonnig	vergnügt	gütig	anregung	vertrauen	genießen	sterben	verbissen	gierig	ausrottung	versagen	gemein	1	blank2r.bmp	0	1	+	0	1	blank2r.bmp	500	2	B2r.bmp	500	1	blank2r.bmp	880	1	sterben	880	1	FEHLER	1692	1	!	1313	1	!	1400	0	0	0
2024-06-06	11:32:17	11:36:59	281340	6.6.1	4_exp_EVA_AWA_CON	72	A	B	Rpleas_acq	Oppo	Rpleas	2pleas	acq_US_pleas_nomask	acq2_nomask	2	9	480	1	300	300	0	0	505	46	0	0	kreativ	engagiert	gesittet	kuss	besonnen	träumen	krank	engstirnig	geizig	krise	bange	töten	sonnig	vergnügt	gütig	anregung	vertrauen	genießen	sterben	verbissen	gierig	ausrottung	versagen	gemein	1	blank2r.bmp	0	1	+	0	1	blank2r.bmp	500	1	DHJF	500	1	blank2r.bmp	880	5	besonnen	880	1	FEHLER	1698	1	!	1312	1	!	1406	0	0	0
2024-06-06	11:32:17	11:37:01	283673	6.6.1	4_exp_EVA_AWA_CON	72	A	B	Rpleas_acq	Oppo	Rpleas	2pleas	acq_new_unple_nomask	acq2_nomask	2	10	480	0	300	300	0	0	760	46	1	0	kreativ	engagiert	gesittet	kuss	besonnen	träumen	krank	engstirnig	geizig	krise	bange	töten	sonnig	vergnügt	gütig	anregung	vertrauen	genießen	sterben	verbissen	gierig	ausrottung	versagen	gemein	1	blank2r.bmp	0	1	+	0	1	blank2r.bmp	500	1	B1r.bmp	500	1	blank2r.bmp	880	2	verbissen	880	1	!	1312	1	!	-1	0	0	0	0	0	0
2024-06-06	11:32:17	11:37:04	286073	6.6.1	4_exp_EVA_AWA_CON	72	A	B	Rpleas_acq	Oppo	Rpleas	2pleas	acq_new_pleas_nomask	acq2_nomask	2	11	480	0	300	300	0	0	618	50	1	0	kreativ	engagiert	gesittet	kuss	besonnen	träumen	krank	engstirnig	geizig	krise	bange	töten	sonnig	vergnügt	gütig	anregung	vertrauen	genießen	sterben	verbissen	gierig	ausrottung	versagen	gemein	1	blank2r.bmp	0	1	+	0	1	blank2r.bmp	500	7	C3r.bmp	500	1	blank2r.bmp	880	1	sonnig	880	1	!	1313	1	!	-1	0	0	0	0	0	0
2024-06-06	11:32:17	11:37:06	288458	6.6.1	4_exp_EVA_AWA_CON	72	A	B	Rpleas_acq	Oppo	Rpleas	2pleas	acq_new_unple_nomask	acq2_nomask	2	12	480	0	300	300	0	0	611	46	1	0	kreativ	engagiert	gesittet	kuss	besonnen	träumen	krank	engstirnig	geizig	krise	bange	töten	sonnig	vergnügt	gütig	anregung	vertrauen	genießen	sterben	verbissen	gierig	ausrottung	versagen	gemein	1	blank2r.bmp	0	1	+	0	1	blank2r.bmp	500	4	B4r.bmp	500	1	blank2r.bmp	880	6	gemein	880	1	!	1313	1	!	-1	0	0	0	0	0	0
2024-06-06	11:32:17	11:37:08	290731	6.6.1	4_exp_EVA_AWA_CON	72	A	B	Rpleas_acq	Oppo	Rpleas	2pleas	acq_new_pleas_nomask	acq2_nomask	2	13	480	1	300	300	0	0	491	50	1	0	kreativ	engagiert	gesittet	kuss	besonnen	träumen	krank	engstirnig	geizig	krise	bange	töten	sonnig	vergnügt	gütig	anregung	vertrauen	genießen	sterben	verbissen	gierig	ausrottung	versagen	gemein	1	blank2r.bmp	0	1	+	0	1	blank2r.bmp	500	5	C1r.bmp	500	1	blank2r.bmp	880	4	anregung	880	1	!	1312	1	!	1393	0	0	0	0	0	0
2024-06-06	11:32:17	11:37:11	292963	6.6.1	4_exp_EVA_AWA_CON	72	A	B	Rpleas_acq	Oppo	Rpleas	2pleas	acq_new_unple_nomask	acq2_nomask	2	14	480	1	300	300	0	0	452	46	1	0	kreativ	engagiert	gesittet	kuss	besonnen	träumen	krank	engstirnig	geizig	krise	bange	töten	sonnig	vergnügt	gütig	anregung	vertrauen	genießen	sterben	verbissen	gierig	ausrottung	versagen	gemein	1	blank2r.bmp	0	1	+	0	1	blank2r.bmp	500	4	B4r.bmp	500	1	blank2r.bmp	880	4	ausrottung	880	1	!	1313	1	!	1353	0	0	0	0	0	0
2024-06-06	11:32:17	11:37:13	295219	6.6.1	4_exp_EVA_AWA_CON	72	A	B	Rpleas_acq	Oppo	Rpleas	2pleas	acq_new_pleas_nomask	acq2_nomask	2	15	480	1	300	300	0	0	476	50	1	0	kreativ	engagiert	gesittet	kuss	besonnen	träumen	krank	engstirnig	geizig	krise	bange	töten	sonnig	vergnügt	gütig	anregung	vertrauen	genießen	sterben	verbissen	gierig	ausrottung	versagen	gemein	1	blank2r.bmp	0	1	+	0	1	blank2r.bmp	500	3	B3r.bmp	500	1	blank2r.bmp	880	3	gütig	880	1	!	1312	1	!	1377	0	0	0	0	0	0
2024-06-06	11:32:17	11:37:15	297484	6.6.1	4_exp_EVA_AWA_CON	72	A	B	Rpleas_acq	Oppo	Rpleas	2pleas	acq_new_unple_nomask	acq2_nomask	2	16	480	1	300	300	0	0	489	46	1	0	kreativ	engagiert	gesittet	kuss	besonnen	träumen	krank	engstirnig	geizig	krise	bange	töten	sonnig	vergnügt	gütig	anregung	vertrauen	genießen	sterben	verbissen	gierig	ausrottung	versagen	gemein	1	blank2r.bmp	0	1	+	0	1	blank2r.bmp	500	1	B1r.bmp	500	1	blank2r.bmp	880	3	gierig	880	1	!	1312	1	!	1390	0	0	0	0	0	0
2024-06-06	11:32:17	11:37:17	299755	6.6.1	4_exp_EVA_AWA_CON	72	A	B	Rpleas_acq	Oppo	Rpleas	2pleas	acq_US_unple_nomask	acq2_nomask	2	17	480	1	300	300	0	0	489	46	1	0	kreativ	engagiert	gesittet	kuss	besonnen	träumen	krank	engstirnig	geizig	krise	bange	töten	sonnig	vergnügt	gütig	anregung	vertrauen	genießen	sterben	verbissen	gierig	ausrottung	versagen	gemein	1	blank2r.bmp	0	1	+	0	1	blank2r.bmp	500	1	CPLW	500	1	blank2r.bmp	880	5	bange	880	1	!	1312	1	!	1390	0	0	0	0	0	0
2024-06-06	11:32:17	11:37:20	302083	6.6.1	4_exp_EVA_AWA_CON	72	A	B	Rpleas_acq	Oppo	Rpleas	2pleas	acq_US_pleas_nomask	acq2_nomask	2	18	480	1	300	300	0	0	546	50	1	0	kreativ	engagiert	gesittet	kuss	besonnen	träumen	krank	engstirnig	geizig	krise	bange	töten	sonnig	vergnügt	gütig	anregung	vertrauen	genießen	sterben	verbissen	gierig	ausrottung	versagen	gemein	1	blank2r.bmp	0	1	+	0	1	blank2r.bmp	500	1	DHJF	500	1	blank2r.bmp	880	4	kuss	880	1	!	1313	1	!	1447	0	0	0	0	0	0
2024-06-06	11:32:17	11:37:22	304629	6.6.1	4_exp_EVA_AWA_CON	72	A	B	Rpleas_acq	Oppo	Rpleas	2pleas	acq_US_pleas_nomask	acq2_nomask	2	19	480	0	300	300	0	0	568	46	0	0	kreativ	engagiert	gesittet	kuss	besonnen	träumen	krank	engstirnig	geizig	krise	bange	töten	sonnig	vergnügt	gütig	anregung	vertrauen	genießen	sterben	verbissen	gierig	ausrottung	versagen	gemein	1	blank2r.bmp	0	1	+	0	1	blank2r.bmp	500	1	DHJF	500	1	blank2r.bmp	880	5	besonnen	880	1	FEHLER	1762	1	!	1312	1	!	-1	0	0	0
2024-06-06	11:32:17	11:37:24	306757	6.6.1	4_exp_EVA_AWA_CON	72	A	B	Rpleas_acq	Oppo	Rpleas	2pleas	acq_new_pleas_nomask	acq2_nomask	2	20	480	0	300	300	0	0	355	46	0	0	kreativ	engagiert	gesittet	kuss	besonnen	träumen	krank	engstirnig	geizig	krise	bange	töten	sonnig	vergnügt	gütig	anregung	vertrauen	genießen	sterben	verbissen	gierig	ausrottung	versagen	gemein	1	blank2r.bmp	0	1	+	0	1	blank2r.bmp	500	2	B2r.bmp	500	1	blank2r.bmp	880	5	vertrauen	880	1	FEHLER	1548	1	!	-1	1	!	-1	0	0	0
2024-06-06	11:32:17	11:37:27	309013	6.6.1	4_exp_EVA_AWA_CON	72	A	B	Rpleas_acq	Oppo	Rpleas	2pleas	acq_US_pleas_nomask	acq2_nomask	2	21	480	1	300	300	0	0	480	46	0	0	kreativ	engagiert	gesittet	kuss	besonnen	träumen	krank	engstirnig	geizig	krise	bange	töten	sonnig	vergnügt	gütig	anregung	vertrauen	genießen	sterben	verbissen	gierig	ausrottung	versagen	gemein	1	blank2r.bmp	0	1	+	0	1	blank2r.bmp	500	1	DHJF	500	1	blank2r.bmp	880	3	gesittet	880	1	FEHLER	1673	1	!	1312	1	!	1381	0	0	0
2024-06-06	11:32:17	11:37:29	311162	6.6.1	4_exp_EVA_AWA_CON	72	A	B	Rpleas_acq	Oppo	Rpleas	2pleas	acq_US_unple_nomask	acq2_nomask	2	22	480	0	300	300	0	0	570	46	1	0	kreativ	engagiert	gesittet	kuss	besonnen	träumen	krank	engstirnig	geizig	krise	bange	töten	sonnig	vergnügt	gütig	anregung	vertrauen	genießen	sterben	verbissen	gierig	ausrottung	versagen	gemein	1	blank2r.bmp	0	1	+	0	1	blank2r.bmp	500	1	CPLW	500	1	blank2r.bmp	880	3	geizig	880	1	!	1312	1	!	-1	0	0	0	0	0	0
2024-06-06	11:32:17	11:37:31	313597	6.6.1	4_exp_EVA_AWA_CON	72	A	B	Rpleas_acq	Oppo	Rpleas	2pleas	acq_US_unple_nomask	acq2_nomask	2	23	480	1	300	300	0	0	451	50	0	0	kreativ	engagiert	gesittet	kuss	besonnen	träumen	krank	engstirnig	geizig	krise	bange	töten	sonnig	vergnügt	gütig	anregung	vertrauen	genießen	sterben	verbissen	gierig	ausrottung	versagen	gemein	1	blank2r.bmp	0	1	+	0	1	blank2r.bmp	500	1	CPLW	500	1	blank2r.bmp	880	1	krank	880	1	FEHLER	1644	1	!	1312	1	!	1352	0	0	0
2024-06-06	11:32:17	11:37:33	315753	6.6.1	4_exp_EVA_AWA_CON	72	A	B	Rpleas_acq	Oppo	Rpleas	2pleas	acq_new_unple_nomask	acq2_nomask	2	24	480	0	300	300	0	0	579	46	1	0	kreativ	engagiert	gesittet	kuss	besonnen	träumen	krank	engstirnig	geizig	krise	bange	töten	sonnig	vergnügt	gütig	anregung	vertrauen	genießen	sterben	verbissen	gierig	ausrottung	versagen	gemein	1	blank2r.bmp	0	1	+	0	1	blank2r.bmp	500	8	C4r.bmp	500	1	blank2r.bmp	880	5	versagen	880	1	!	1313	1	!	-1	0	0	0	0	0	0
2024-06-06	11:32:17	11:37:36	317995	6.6.1	4_exp_EVA_AWA_CON	72	A	B	Rpleas_acq	Oppo	Rpleas	2pleas	acq_US_pleas_nomask	acq2_nomask	2	25	480	1	300	300	0	0	468	50	1	0	kreativ	engagiert	gesittet	kuss	besonnen	träumen	krank	engstirnig	geizig	krise	bange	töten	sonnig	vergnügt	gütig	anregung	vertrauen	genießen	sterben	verbissen	gierig	ausrottung	versagen	gemein	1	blank2r.bmp	0	1	+	0	1	blank2r.bmp	500	1	DHJF	500	1	blank2r.bmp	880	6	träumen	880	1	!	1313	1	!	1368	0	0	0	0	0	0
2024-06-06	11:32:17	11:37:38	320211	6.6.1	4_exp_EVA_AWA_CON	72	A	B	Rpleas_acq	Oppo	Rpleas	2pleas	acq_new_pleas_nomask	acq2_nomask	2	26	480	1	300	300	0	0	442	50	1	0	kreativ	engagiert	gesittet	kuss	besonnen	träumen	krank	engstirnig	geizig	krise	bange	töten	sonnig	vergnügt	gütig	anregung	vertrauen	genießen	sterben	verbissen	gierig	ausrottung	versagen	gemein	1	blank2r.bmp	0	1	+	0	1	blank2r.bmp	500	7	C3r.bmp	500	1	blank2r.bmp	880	2	vergnügt	880	1	!	1313	1	!	1343	0	0	0	0	0	0
2024-06-06	11:32:17	11:37:40	322645	6.6.1	4_exp_EVA_AWA_CON	72	A	B	Rpleas_acq	Oppo	Rpleas	2pleas	acq_new_pleas_nomask	acq2_nomask	2	27	480	1	300	300	0	0	453	46	0	0	kreativ	engagiert	gesittet	kuss	besonnen	träumen	krank	engstirnig	geizig	krise	bange	töten	sonnig	vergnügt	gütig	anregung	vertrauen	genießen	sterben	verbissen	gierig	ausrottung	versagen	gemein	1	blank2r.bmp	0	1	+	0	1	blank2r.bmp	500	6	C2r.bmp	500	1	blank2r.bmp	880	6	genießen	880	1	FEHLER	1646	1	!	1313	1	!	1354	0	0	0
2024-06-06	11:32:17	11:37:42	324731	6.6.1	4_exp_EVA_AWA_CON	72	A	B	Rpleas_acq	Oppo	Rpleas	2pleas	acq_new_unple_nomask	acq2_nomask	2	28	480	1	300	300	0	0	509	46	1	0	kreativ	engagiert	gesittet	kuss	besonnen	träumen	krank	engstirnig	geizig	krise	bange	töten	sonnig	vergnügt	gütig	anregung	vertrauen	genießen	sterben	verbissen	gierig	ausrottung	versagen	gemein	1	blank2r.bmp	0	1	+	0	1	blank2r.bmp	500	7	C3r.bmp	500	1	blank2r.bmp	880	1	sterben	880	1	!	1312	1	!	1410	0	0	0	0	0	0
2024-06-06	11:32:17	11:37:45	327267	6.6.1	4_exp_EVA_AWA_CON	72	A	B	Rpleas_acq	Oppo	Rpleas	2pleas	acq_US_pleas_nomask	acq2_nomask	2	29	480	0	300	300	0	0	554	46	0	0	kreativ	engagiert	gesittet	kuss	besonnen	träumen	krank	engstirnig	geizig	krise	bange	töten	sonnig	vergnügt	gütig	anregung	vertrauen	genießen	sterben	verbissen	gierig	ausrottung	versagen	gemein	1	blank2r.bmp	0	1	+	0	1	blank2r.bmp	500	1	DHJF	500	1	blank2r.bmp	880	2	engagiert	880	1	FEHLER	1745	1	!	1312	1	!	-1	0	0	0
2024-06-06	11:32:17	11:37:47	329276	6.6.1	4_exp_EVA_AWA_CON	72	A	B	Rpleas_acq	Oppo	Rpleas	2pleas	acq_US_unple_nomask	acq2_nomask	2	30	480	1	300	300	0	0	430	46	1	0	kreativ	engagiert	gesittet	kuss	besonnen	träumen	krank	engstirnig	geizig	krise	bange	töten	sonnig	vergnügt	gütig	anregung	vertrauen	genießen	sterben	verbissen	gierig	ausrottung	versagen	gemein	1	blank2r.bmp	0	1	+	0	1	blank2r.bmp	500	1	CPLW	500	1	blank2r.bmp	880	4	krise	880	1	!	1313	1	!	1332	0	0	0	0	0	0
2024-06-06	11:32:17	11:37:49	331708	6.6.1	4_exp_EVA_AWA_CON	72	A	B	Rpleas_acq	Oppo	Rpleas	2pleas	acq_US_unple_nomask	acq2_nomask	2	31	480	1	300	300	0	0	451	50	0	0	kreativ	engagiert	gesittet	kuss	besonnen	träumen	krank	engstirnig	geizig	krise	bange	töten	sonnig	vergnügt	gütig	anregung	vertrauen	genießen	sterben	verbissen	gierig	ausrottung	versagen	gemein	1	blank2r.bmp	0	1	+	0	1	blank2r.bmp	500	1	CPLW	500	1	blank2r.bmp	880	6	töten	880	1	FEHLER	1644	1	!	1313	1	!	1353	0	0	0
2024-06-06	11:32:17	11:37:52	334069	6.6.1	4_exp_EVA_AWA_CON	72	A	B	Rpleas_acq	Oppo	Rpleas	2pleas	acq_US_unple_nomask	acq2_nomask	2	32	480	0	300	300	0	0	580	50	0	0	kreativ	engagiert	gesittet	kuss	besonnen	träumen	krank	engstirnig	geizig	krise	bange	töten	sonnig	vergnügt	gütig	anregung	vertrauen	genießen	sterben	verbissen	gierig	ausrottung	versagen	gemein	1	blank2r.bmp	0	1	+	0	1	blank2r.bmp	500	1	CPLW	500	1	blank2r.bmp	880	2	engstirnig	880	1	FEHLER	1773	1	!	1313	1	!	-1	0	0	0
2024-06-06	11:32:17	11:37:54	336187	6.6.1	4_exp_EVA_AWA_CON	72	A	B	Rpleas_acq	Oppo	Rpleas	2pleas	acq_new_unple_nomask	acq2_nomask	2	33	480	1	300	300	0	0	548	46	1	0	kreativ	engagiert	gesittet	kuss	besonnen	träumen	krank	engstirnig	geizig	krise	bange	töten	sonnig	vergnügt	gütig	anregung	vertrauen	genießen	sterben	verbissen	gierig	ausrottung	versagen	gemein	1	blank2r.bmp	0	1	+	0	1	blank2r.bmp	500	6	C2r.bmp	500	1	blank2r.bmp	880	6	gemein	880	1	!	1313	1	!	1449	0	0	0	0	0	0
2024-06-06	11:32:17	11:37:56	338528	6.6.1	4_exp_EVA_AWA_CON	72	A	B	Rpleas_acq	Oppo	Rpleas	2pleas	acq_US_pleas_nomask	acq2_nomask	2	34	480	0	300	300	0	0	560	50	1	0	kreativ	engagiert	gesittet	kuss	besonnen	träumen	krank	engstirnig	geizig	krise	bange	töten	sonnig	vergnügt	gütig	anregung	vertrauen	genießen	sterben	verbissen	gierig	ausrottung	versagen	gemein	1	blank2r.bmp	0	1	+	0	1	blank2r.bmp	500	1	DHJF	500	1	blank2r.bmp	880	1	kreativ	880	1	!	1312	1	!	-1	0	0	0	0	0	0
2024-06-06	11:32:17	11:37:58	340787	6.6.1	4_exp_EVA_AWA_CON	72	A	B	Rpleas_acq	Oppo	Rpleas	2pleas	acq_new_unple_nomask	acq2_nomask	2	35	480	1	300	300	0	0	485	46	1	0	kreativ	engagiert	gesittet	kuss	besonnen	träumen	krank	engstirnig	geizig	krise	bange	töten	sonnig	vergnügt	gütig	anregung	vertrauen	genießen	sterben	verbissen	gierig	ausrottung	versagen	gemein	1	blank2r.bmp	0	1	+	0	1	blank2r.bmp	500	4	B4r.bmp	500	1	blank2r.bmp	880	2	verbissen	880	1	!	1312	1	!	1386	0	0	0	0	0	0
2024-06-06	11:32:17	11:38:01	342995	6.6.1	4_exp_EVA_AWA_CON	72	A	B	Rpleas_acq	Oppo	Rpleas	2pleas	acq_new_pleas_nomask	acq2_nomask	2	36	480	1	300	300	0	0	431	50	1	0	kreativ	engagiert	gesittet	kuss	besonnen	träumen	krank	engstirnig	geizig	krise	bange	töten	sonnig	vergnügt	gütig	anregung	vertrauen	genießen	sterben	verbissen	gierig	ausrottung	versagen	gemein	1	blank2r.bmp	0	1	+	0	1	blank2r.bmp	500	2	B2r.bmp	500	1	blank2r.bmp	880	1	sonnig	880	1	!	1312	1	!	1332	0	0	0	0	0	0
2024-06-06	11:32:17	11:38:19	361665	6.6.1	4_exp_EVA_AWA_CON	72	A	B	Rpleas_acq	Oppo	Rpleas	2pleas	acq_US_pleas_nomask	acq3_nomask	3	1	453	0	300	300	0	0	612	50	1	0	kreativ	engagiert	gesittet	kuss	besonnen	träumen	krank	engstirnig	geizig	krise	bange	töten	sonnig	vergnügt	gütig	anregung	vertrauen	genießen	sterben	verbissen	gierig	ausrottung	versagen	gemein	1	blank2r.bmp	0	1	+	0	1	blank2r.bmp	500	1	DHJF	500	1	blank2r.bmp	880	2	engagiert	880	1	!	1292	1	!	-1	0	0	0	0	0	0
2024-06-06	11:32:17	11:38:21	363817	6.6.1	4_exp_EVA_AWA_CON	72	A	B	Rpleas_acq	Oppo	Rpleas	2pleas	acq_US_unple_nomask	acq3_nomask	3	2	453	0	300	300	0	0	372	46	1	0	kreativ	engagiert	gesittet	kuss	besonnen	träumen	krank	engstirnig	geizig	krise	bange	töten	sonnig	vergnügt	gütig	anregung	vertrauen	genießen	sterben	verbissen	gierig	ausrottung	versagen	gemein	1	blank2r.bmp	0	1	+	0	1	blank2r.bmp	500	1	CPLW	500	1	blank2r.bmp	880	5	bange	880	1	!	-1	1	!	-1	0	0	0	0	0	0
2024-06-06	11:32:17	11:38:24	366469	6.6.1	4_exp_EVA_AWA_CON	72	A	B	Rpleas_acq	Oppo	Rpleas	2pleas	acq_US_unple_nomask	acq3_nomask	3	3	453	0	300	300	0	0	669	50	0	0	kreativ	engagiert	gesittet	kuss	besonnen	träumen	krank	engstirnig	geizig	krise	bange	töten	sonnig	vergnügt	gütig	anregung	vertrauen	genießen	sterben	verbissen	gierig	ausrottung	versagen	gemein	1	blank2r.bmp	0	1	+	0	1	blank2r.bmp	500	1	CPLW	500	1	blank2r.bmp	880	1	krank	880	1	FEHLER	1862	1	!	1293	1	!	-1	0	0	0
2024-06-06	11:32:17	11:38:26	368836	6.6.1	4_exp_EVA_AWA_CON	72	A	B	Rpleas_acq	Oppo	Rpleas	2pleas	acq_US_unple_nomask	acq3_nomask	3	4	453	0	300	300	0	0	595	50	0	0	kreativ	engagiert	gesittet	kuss	besonnen	träumen	krank	engstirnig	geizig	krise	bange	töten	sonnig	vergnügt	gütig	anregung	vertrauen	genießen	sterben	verbissen	gierig	ausrottung	versagen	gemein	1	blank2r.bmp	0	1	+	0	1	blank2r.bmp	500	1	CPLW	500	1	blank2r.bmp	880	2	engstirnig	880	1	FEHLER	1788	1	!	1292	1	!	-1	0	0	0
2024-06-06	11:32:17	11:38:29	370883	6.6.1	4_exp_EVA_AWA_CON	72	A	B	Rpleas_acq	Oppo	Rpleas	2pleas	acq_US_pleas_nomask	acq3_nomask	3	5	453	1	300	300	0	0	472	50	1	0	kreativ	engagiert	gesittet	kuss	besonnen	träumen	krank	engstirnig	geizig	krise	bange	töten	sonnig	vergnügt	gütig	anregung	vertrauen	genießen	sterben	verbissen	gierig	ausrottung	versagen	gemein	1	blank2r.bmp	0	1	+	0	1	blank2r.bmp	500	1	DHJF	500	1	blank2r.bmp	880	1	kreativ	880	1	!	1292	1	!	1373	0	0	0	0	0	0
2024-06-06	11:32:17	11:38:31	373164	6.6.1	4_exp_EVA_AWA_CON	72	A	B	Rpleas_acq	Oppo	Rpleas	2pleas	acq_US_unple_nomask	acq3_nomask	3	6	453	1	300	300	0	0	500	46	1	0	kreativ	engagiert	gesittet	kuss	besonnen	träumen	krank	engstirnig	geizig	krise	bange	töten	sonnig	vergnügt	gütig	anregung	vertrauen	genießen	sterben	verbissen	gierig	ausrottung	versagen	gemein	1	blank2r.bmp	0	1	+	0	1	blank2r.bmp	500	1	CPLW	500	1	blank2r.bmp	880	3	geizig	880	1	!	1292	1	!	1402	0	0	0	0	0	0
2024-06-06	11:32:17	11:38:33	375577	6.6.1	4_exp_EVA_AWA_CON	72	A	B	Rpleas_acq	Oppo	Rpleas	2pleas	acq_US_pleas_nomask	acq3_nomask	3	7	453	0	300	300	0	0	635	50	1	0	kreativ	engagiert	gesittet	kuss	besonnen	träumen	krank	engstirnig	geizig	krise	bange	töten	sonnig	vergnügt	gütig	anregung	vertrauen	genießen	sterben	verbissen	gierig	ausrottung	versagen	gemein	1	blank2r.bmp	0	1	+	0	1	blank2r.bmp	500	1	DHJF	500	1	blank2r.bmp	880	3	gesittet	880	1	!	1293	1	!	-1	0	0	0	0	0	0
2024-06-06	11:32:17	11:38:36	377929	6.6.1	4_exp_EVA_AWA_CON	72	A	B	Rpleas_acq	Oppo	Rpleas	2pleas	acq_US_pleas_nomask	acq3_nomask	3	8	453	0	300	300	0	0	575	50	1	0	kreativ	engagiert	gesittet	kuss	besonnen	träumen	krank	engstirnig	geizig	krise	bange	töten	sonnig	vergnügt	gütig	anregung	vertrauen	genießen	sterben	verbissen	gierig	ausrottung	versagen	gemein	1	blank2r.bmp	0	1	+	0	1	blank2r.bmp	500	1	DHJF	500	1	blank2r.bmp	880	6	träumen	880	1	!	1292	1	!	-1	0	0	0	0	0	0
2024-06-06	11:32:17	11:38:38	380211	6.6.1	4_exp_EVA_AWA_CON	72	A	B	Rpleas_acq	Oppo	Rpleas	2pleas	acq_US_pleas_nomask	acq3_nomask	3	9	453	1	300	300	0	0	504	50	1	0	kreativ	engagiert	gesittet	kuss	besonnen	träumen	krank	engstirnig	geizig	krise	bange	töten	sonnig	vergnügt	gütig	anregung	vertrauen	genießen	sterben	verbissen	gierig	ausrottung	versagen	gemein	1	blank2r.bmp	0	1	+	0	1	blank2r.bmp	500	1	DHJF	500	1	blank2r.bmp	880	4	kuss	880	1	!	1293	1	!	1405	0	0	0	0	0	0
2024-06-06	11:32:17	11:38:40	382403	6.6.1	4_exp_EVA_AWA_CON	72	A	B	Rpleas_acq	Oppo	Rpleas	2pleas	acq_US_unple_nomask	acq3_nomask	3	10	453	1	300	300	0	0	414	46	1	0	kreativ	engagiert	gesittet	kuss	besonnen	träumen	krank	engstirnig	geizig	krise	bange	töten	sonnig	vergnügt	gütig	anregung	vertrauen	genießen	sterben	verbissen	gierig	ausrottung	versagen	gemein	1	blank2r.bmp	0	1	+	0	1	blank2r.bmp	500	1	CPLW	500	1	blank2r.bmp	880	6	töten	880	1	!	1292	1	!	1315	0	0	0	0	0	0
2024-06-06	11:32:17	11:38:42	384721	6.6.1	4_exp_EVA_AWA_CON	72	A	B	Rpleas_acq	Oppo	Rpleas	2pleas	acq_US_pleas_nomask	acq3_nomask	3	11	453	0	300	300	0	0	543	50	1	0	kreativ	engagiert	gesittet	kuss	besonnen	träumen	krank	engstirnig	geizig	krise	bange	töten	sonnig	vergnügt	gütig	anregung	vertrauen	genießen	sterben	verbissen	gierig	ausrottung	versagen	gemein	1	blank2r.bmp	0	1	+	0	1	blank2r.bmp	500	1	DHJF	500	1	blank2r.bmp	880	5	besonnen	880	1	!	1292	1	!	-1	0	0	0	0	0	0
2024-06-06	11:32:17	11:38:45	386995	6.6.1	4_exp_EVA_AWA_CON	72	A	B	Rpleas_acq	Oppo	Rpleas	2pleas	acq_US_unple_nomask	acq3_nomask	3	12	453	1	300	300	0	0	493	46	1	0	kreativ	engagiert	gesittet	kuss	besonnen	träumen	krank	engstirnig	geizig	krise	bange	töten	sonnig	vergnügt	gütig	anregung	vertrauen	genießen	sterben	verbissen	gierig	ausrottung	versagen	gemein	1	blank2r.bmp	0	1	+	0	1	blank2r.bmp	500	1	CPLW	500	1	blank2r.bmp	880	4	krise	880	1	!	1293	1	!	1394	0	0	0	0	0	0
2024-06-06	11:32:17	11:38:47	389284	6.6.1	4_exp_EVA_AWA_CON	72	A	B	Rpleas_acq	Oppo	Rpleas	2pleas	acq_US_unple_nomask	acq3_nomask	3	13	453	1	300	300	0	0	510	46	1	0	kreativ	engagiert	gesittet	kuss	besonnen	träumen	krank	engstirnig	geizig	krise	bange	töten	sonnig	vergnügt	gütig	anregung	vertrauen	genießen	sterben	verbissen	gierig	ausrottung	versagen	gemein	1	blank2r.bmp	0	1	+	0	1	blank2r.bmp	500	1	CPLW	500	1	blank2r.bmp	880	4	krise	880	1	!	1292	1	!	1412	0	0	0	0	0	0
2024-06-06	11:32:17	11:38:49	391457	6.6.1	4_exp_EVA_AWA_CON	72	A	B	Rpleas_acq	Oppo	Rpleas	2pleas	acq_US_pleas_nomask	acq3_nomask	3	14	453	1	300	300	0	0	394	50	1	0	kreativ	engagiert	gesittet	kuss	besonnen	träumen	krank	engstirnig	geizig	krise	bange	töten	sonnig	vergnügt	gütig	anregung	vertrauen	genießen	sterben	verbissen	gierig	ausrottung	versagen	gemein	1	blank2r.bmp	0	1	+	0	1	blank2r.bmp	500	1	DHJF	500	1	blank2r.bmp	880	4	kuss	880	1	!	1292	1	!	1294	0	0	0	0	0	0
2024-06-06	11:32:17	11:38:51	393769	6.6.1	4_exp_EVA_AWA_CON	72	A	B	Rpleas_acq	Oppo	Rpleas	2pleas	acq_US_unple_nomask	acq3_nomask	3	15	453	0	300	300	0	0	535	46	1	0	kreativ	engagiert	gesittet	kuss	besonnen	träumen	krank	engstirnig	geizig	krise	bange	töten	sonnig	vergnügt	gütig	anregung	vertrauen	genießen	sterben	verbissen	gierig	ausrottung	versagen	gemein	1	blank2r.bmp	0	1	+	0	1	blank2r.bmp	500	1	CPLW	500	1	blank2r.bmp	880	1	krank	880	1	!	1293	1	!	-1	0	0	0	0	0	0
2024-06-06	11:32:17	11:38:54	396204	6.6.1	4_exp_EVA_AWA_CON	72	A	B	Rpleas_acq	Oppo	Rpleas	2pleas	acq_US_unple_nomask	acq3_nomask	3	16	453	1	300	300	0	0	456	50	0	0	kreativ	engagiert	gesittet	kuss	besonnen	träumen	krank	engstirnig	geizig	krise	bange	töten	sonnig	vergnügt	gütig	anregung	vertrauen	genießen	sterben	verbissen	gierig	ausrottung	versagen	gemein	1	blank2r.bmp	0	1	+	0	1	blank2r.bmp	500	1	CPLW	500	1	blank2r.bmp	880	5	bange	880	1	FEHLER	1648	1	!	1293	1	!	1356	0	0	0
2024-06-06	11:32:17	11:38:56	398516	6.6.1	4_exp_EVA_AWA_CON	72	A	B	Rpleas_acq	Oppo	Rpleas	2pleas	acq_US_pleas_nomask	acq3_nomask	3	17	453	0	300	300	0	0	536	46	0	0	kreativ	engagiert	gesittet	kuss	besonnen	träumen	krank	engstirnig	geizig	krise	bange	töten	sonnig	vergnügt	gütig	anregung	vertrauen	genießen	sterben	verbissen	gierig	ausrottung	versagen	gemein	1	blank2r.bmp	0	1	+	0	1	blank2r.bmp	500	1	DHJF	500	1	blank2r.bmp	880	6	träumen	880	1	FEHLER	1729	1	!	1292	1	!	-1	0	0	0
2024-06-06	11:32:17	11:38:58	400616	6.6.1	4_exp_EVA_AWA_CON	72	A	B	Rpleas_acq	Oppo	Rpleas	2pleas	acq_US_pleas_nomask	acq3_nomask	3	18	453	0	300	300	0	0	529	50	1	0	kreativ	engagiert	gesittet	kuss	besonnen	träumen	krank	engstirnig	geizig	krise	bange	töten	sonnig	vergnügt	gütig	anregung	vertrauen	genießen	sterben	verbissen	gierig	ausrottung	versagen	gemein	1	blank2r.bmp	0	1	+	0	1	blank2r.bmp	500	1	DHJF	500	1	blank2r.bmp	880	5	besonnen	880	1	!	1292	1	!	-1	0	0	0	0	0	0
2024-06-06	11:32:17	11:39:01	402883	6.6.1	4_exp_EVA_AWA_CON	72	A	B	Rpleas_acq	Oppo	Rpleas	2pleas	acq_US_unple_nomask	acq3_nomask	3	19	453	1	300	300	0	0	491	46	1	0	kreativ	engagiert	gesittet	kuss	besonnen	träumen	krank	engstirnig	geizig	krise	bange	töten	sonnig	vergnügt	gütig	anregung	vertrauen	genießen	sterben	verbissen	gierig	ausrottung	versagen	gemein	1	blank2r.bmp	0	1	+	0	1	blank2r.bmp	500	1	CPLW	500	1	blank2r.bmp	880	2	engstirnig	880	1	!	1293	1	!	1393	0	0	0	0	0	0
2024-06-06	11:32:17	11:39:03	405349	6.6.1	4_exp_EVA_AWA_CON	72	A	B	Rpleas_acq	Oppo	Rpleas	2pleas	acq_US_unple_nomask	acq3_nomask	3	20	453	1	300	300	0	0	484	50	0	0	kreativ	engagiert	gesittet	kuss	besonnen	träumen	krank	engstirnig	geizig	krise	bange	töten	sonnig	vergnügt	gütig	anregung	vertrauen	genießen	sterben	verbissen	gierig	ausrottung	versagen	gemein	1	blank2r.bmp	0	1	+	0	1	blank2r.bmp	500	1	CPLW	500	1	blank2r.bmp	880	6	töten	880	1	FEHLER	1677	1	!	1292	1	!	1385	0	0	0
2024-06-06	11:32:17	11:39:05	407339	6.6.1	4_exp_EVA_AWA_CON	72	A	B	Rpleas_acq	Oppo	Rpleas	2pleas	acq_US_unple_nomask	acq3_nomask	3	21	453	1	300	300	0	0	414	46	1	0	kreativ	engagiert	gesittet	kuss	besonnen	träumen	krank	engstirnig	geizig	krise	bange	töten	sonnig	vergnügt	gütig	anregung	vertrauen	genießen	sterben	verbissen	gierig	ausrottung	versagen	gemein	1	blank2r.bmp	0	1	+	0	1	blank2r.bmp	500	1	CPLW	500	1	blank2r.bmp	880	3	geizig	880	1	!	1292	1	!	1315	0	0	0	0	0	0
2024-06-06	11:32:17	11:39:07	409523	6.6.1	4_exp_EVA_AWA_CON	72	A	B	Rpleas_acq	Oppo	Rpleas	2pleas	acq_US_pleas_nomask	acq3_nomask	3	22	453	1	300	300	0	0	407	50	1	0	kreativ	engagiert	gesittet	kuss	besonnen	träumen	krank	engstirnig	geizig	krise	bange	töten	sonnig	vergnügt	gütig	anregung	vertrauen	genießen	sterben	verbissen	gierig	ausrottung	versagen	gemein	1	blank2r.bmp	0	1	+	0	1	blank2r.bmp	500	1	DHJF	500	1	blank2r.bmp	880	1	kreativ	880	1	!	1292	1	!	1308	0	0	0	0	0	0
2024-06-06	11:32:17	11:39:10	411940	6.6.1	4_exp_EVA_AWA_CON	72	A	B	Rpleas_acq	Oppo	Rpleas	2pleas	acq_US_pleas_nomask	acq3_nomask	3	23	453	1	300	300	0	0	441	46	0	0	kreativ	engagiert	gesittet	kuss	besonnen	träumen	krank	engstirnig	geizig	krise	bange	töten	sonnig	vergnügt	gütig	anregung	vertrauen	genießen	sterben	verbissen	gierig	ausrottung	versagen	gemein	1	blank2r.bmp	0	1	+	0	1	blank2r.bmp	500	1	DHJF	500	1	blank2r.bmp	880	3	gesittet	880	1	FEHLER	1634	1	!	1292	1	!	1342	0	0	0
2024-06-06	11:32:17	11:39:12	414081	6.6.1	4_exp_EVA_AWA_CON	72	A	B	Rpleas_acq	Oppo	Rpleas	2pleas	acq_US_pleas_nomask	acq3_nomask	3	24	453	0	300	300	0	0	564	50	1	0	kreativ	engagiert	gesittet	kuss	besonnen	träumen	krank	engstirnig	geizig	krise	bange	töten	sonnig	vergnügt	gütig	anregung	vertrauen	genießen	sterben	verbissen	gierig	ausrottung	versagen	gemein	1	blank2r.bmp	0	1	+	0	1	blank2r.bmp	500	1	DHJF	500	1	blank2r.bmp	880	2	engagiert	880	1	!	1292	1	!	-1	0	0	0	0	0	0
2024-06-06	11:32:17	11:39:14	416372	6.6.1	4_exp_EVA_AWA_CON	72	A	B	Rpleas_acq	Oppo	Rpleas	2pleas	acq_US_pleas_nomask	acq3_nomask	3	25	453	1	300	300	0	0	511	50	1	0	kreativ	engagiert	gesittet	kuss	besonnen	träumen	krank	engstirnig	geizig	krise	bange	töten	sonnig	vergnügt	gütig	anregung	vertrauen	genießen	sterben	verbissen	gierig	ausrottung	versagen	gemein	1	blank2r.bmp	0	1	+	0	1	blank2r.bmp	500	1	DHJF	500	1	blank2r.bmp	880	5	besonnen	880	1	!	1292	1	!	1412	0	0	0	0	0	0
2024-06-06	11:32:17	11:39:16	418604	6.6.1	4_exp_EVA_AWA_CON	72	A	B	Rpleas_acq	Oppo	Rpleas	2pleas	acq_US_unple_nomask	acq3_nomask	3	26	453	1	300	300	0	0	451	46	1	0	kreativ	engagiert	gesittet	kuss	besonnen	träumen	krank	engstirnig	geizig	krise	bange	töten	sonnig	vergnügt	gütig	anregung	vertrauen	genießen	sterben	verbissen	gierig	ausrottung	versagen	gemein	1	blank2r.bmp	0	1	+	0	1	blank2r.bmp	500	1	CPLW	500	1	blank2r.bmp	880	6	töten	880	1	!	1292	1	!	1353	0	0	0	0	0	0
2024-06-06	11:32:17	11:39:18	420803	6.6.1	4_exp_EVA_AWA_CON	72	A	B	Rpleas_acq	Oppo	Rpleas	2pleas	acq_US_pleas_nomask	acq3_nomask	3	27	453	1	300	300	0	0	420	50	1	0	kreativ	engagiert	gesittet	kuss	besonnen	träumen	krank	engstirnig	geizig	krise	bange	töten	sonnig	vergnügt	gütig	anregung	vertrauen	genießen	sterben	verbissen	gierig	ausrottung	versagen	gemein	1	blank2r.bmp	0	1	+	0	1	blank2r.bmp	500	1	DHJF	500	1	blank2r.bmp	880	3	gesittet	880	1	!	1292	1	!	1320	0	0	0	0	0	0
2024-06-06	11:32:17	11:39:21	423212	6.6.1	4_exp_EVA_AWA_CON	72	A	B	Rpleas_acq	Oppo	Rpleas	2pleas	acq_US_pleas_nomask	acq3_nomask	3	28	453	1	300	300	0	0	426	46	0	0	kreativ	engagiert	gesittet	kuss	besonnen	träumen	krank	engstirnig	geizig	krise	bange	töten	sonnig	vergnügt	gütig	anregung	vertrauen	genießen	sterben	verbissen	gierig	ausrottung	versagen	gemein	1	blank2r.bmp	0	1	+	0	1	blank2r.bmp	500	1	DHJF	500	1	blank2r.bmp	880	2	engagiert	880	1	FEHLER	1619	1	!	1293	1	!	1327	0	0	0
2024-06-06	11:32:17	11:39:23	425329	6.6.1	4_exp_EVA_AWA_CON	72	A	B	Rpleas_acq	Oppo	Rpleas	2pleas	acq_US_unple_nomask	acq3_nomask	3	29	453	0	300	300	0	0	545	46	1	0	kreativ	engagiert	gesittet	kuss	besonnen	träumen	krank	engstirnig	geizig	krise	bange	töten	sonnig	vergnügt	gütig	anregung	vertrauen	genießen	sterben	verbissen	gierig	ausrottung	versagen	gemein	1	blank2r.bmp	0	1	+	0	1	blank2r.bmp	500	1	CPLW	500	1	blank2r.bmp	880	1	krank	880	1	!	1293	1	!	-1	0	0	0	0	0	0
2024-06-06	11:32:17	11:39:25	427555	6.6.1	4_exp_EVA_AWA_CON	72	A	B	Rpleas_acq	Oppo	Rpleas	2pleas	acq_US_pleas_nomask	acq3_nomask	3	30	453	1	300	300	0	0	447	50	1	0	kreativ	engagiert	gesittet	kuss	besonnen	träumen	krank	engstirnig	geizig	krise	bange	töten	sonnig	vergnügt	gütig	anregung	vertrauen	genießen	sterben	verbissen	gierig	ausrottung	versagen	gemein	1	blank2r.bmp	0	1	+	0	1	blank2r.bmp	500	1	DHJF	500	1	blank2r.bmp	880	6	träumen	880	1	!	1292	1	!	1348	0	0	0	0	0	0
2024-06-06	11:32:17	11:39:27	429849	6.6.1	4_exp_EVA_AWA_CON	72	A	B	Rpleas_acq	Oppo	Rpleas	2pleas	acq_US_unple_nomask	acq3_nomask	3	31	453	0	300	300	0	0	524	46	1	0	kreativ	engagiert	gesittet	kuss	besonnen	träumen	krank	engstirnig	geizig	krise	bange	töten	sonnig	vergnügt	gütig	anregung	vertrauen	genießen	sterben	verbissen	gierig	ausrottung	versagen	gemein	1	blank2r.bmp	0	1	+	0	1	blank2r.bmp	500	1	CPLW	500	1	blank2r.bmp	880	5	bange	880	1	!	1292	1	!	-1	0	0	0	0	0	0
2024-06-06	11:32:17	11:39:30	432213	6.6.1	4_exp_EVA_AWA_CON	72	A	B	Rpleas_acq	Oppo	Rpleas	2pleas	acq_US_unple_nomask	acq3_nomask	3	32	453	0	300	300	0	0	380	50	0	0	kreativ	engagiert	gesittet	kuss	besonnen	träumen	krank	engstirnig	geizig	krise	bange	töten	sonnig	vergnügt	gütig	anregung	vertrauen	genießen	sterben	verbissen	gierig	ausrottung	versagen	gemein	1	blank2r.bmp	0	1	+	0	1	blank2r.bmp	500	1	CPLW	500	1	blank2r.bmp	880	4	krise	880	1	FEHLER	1574	1	!	-1	1	!	-1	0	0	0
2024-06-06	11:32:17	11:39:32	434275	6.6.1	4_exp_EVA_AWA_CON	72	A	B	Rpleas_acq	Oppo	Rpleas	2pleas	acq_US_unple_nomask	acq3_nomask	3	33	453	1	300	300	0	0	483	46	1	0	kreativ	engagiert	gesittet	kuss	besonnen	träumen	krank	engstirnig	geizig	krise	bange	töten	sonnig	vergnügt	gütig	anregung	vertrauen	genießen	sterben	verbissen	gierig	ausrottung	versagen	gemein	1	blank2r.bmp	0	1	+	0	1	blank2r.bmp	500	1	CPLW	500	1	blank2r.bmp	880	3	geizig	880	1	!	1292	1	!	1384	0	0	0	0	0	0
2024-06-06	11:32:17	11:39:34	436633	6.6.1	4_exp_EVA_AWA_CON	72	A	B	Rpleas_acq	Oppo	Rpleas	2pleas	acq_US_unple_nomask	acq3_nomask	3	34	453	0	300	300	0	0	581	46	1	0	kreativ	engagiert	gesittet	kuss	besonnen	träumen	krank	engstirnig	geizig	krise	bange	töten	sonnig	vergnügt	gütig	anregung	vertrauen	genießen	sterben	verbissen	gierig	ausrottung	versagen	gemein	1	blank2r.bmp	0	1	+	0	1	blank2r.bmp	500	1	CPLW	500	1	blank2r.bmp	880	2	engstirnig	880	1	!	1292	1	!	-1	0	0	0	0	0	0
2024-06-06	11:32:17	11:39:36	438867	6.6.1	4_exp_EVA_AWA_CON	72	A	B	Rpleas_acq	Oppo	Rpleas	2pleas	acq_US_pleas_nomask	acq3_nomask	3	35	453	1	300	300	0	0	452	50	1	0	kreativ	engagiert	gesittet	kuss	besonnen	träumen	krank	engstirnig	geizig	krise	bange	töten	sonnig	vergnügt	gütig	anregung	vertrauen	genießen	sterben	verbissen	gierig	ausrottung	versagen	gemein	1	blank2r.bmp	0	1	+	0	1	blank2r.bmp	500	1	DHJF	500	1	blank2r.bmp	880	4	kuss	880	1	!	1293	1	!	1353	0	0	0	0	0	0
2024-06-06	11:32:17	11:39:39	441252	6.6.1	4_exp_EVA_AWA_CON	72	A	B	Rpleas_acq	Oppo	Rpleas	2pleas	acq_US_pleas_nomask	acq3_nomask	3	36	453	1	300	300	0	0	405	46	0	0	kreativ	engagiert	gesittet	kuss	besonnen	träumen	krank	engstirnig	geizig	krise	bange	töten	sonnig	vergnügt	gütig	anregung	vertrauen	genießen	sterben	verbissen	gierig	ausrottung	versagen	gemein	1	blank2r.bmp	0	1	+	0	1	blank2r.bmp	500	1	DHJF	500	1	blank2r.bmp	880	1	kreativ	880	1	FEHLER	1597	1	!	1292	1	!	1305	0	0	0
2024-06-06	11:32:17	11:39:59	461259	6.6.1	4_exp_EVA_AWA_CON	72	A	B	Rpleas_acq	Oppo	Rpleas	2pleas	acq_US_pleas_nomask	acq45_nomask	4	1	400	1	300	300	0	0	450	50	1	0	kreativ	engagiert	gesittet	kuss	besonnen	träumen	krank	engstirnig	geizig	krise	bange	töten	sonnig	vergnügt	gütig	anregung	vertrauen	genießen	sterben	verbissen	gierig	ausrottung	versagen	gemein	1	blank2r.bmp	0	1	+	0	1	blank2r.bmp	500	1	DHJF	500	1	blank2r.bmp	880	4	kuss	880	1	!	1232	1	!	1351	0	0	0	0	0	0
2024-06-06	11:32:17	11:40:01	463452	6.6.1	4_exp_EVA_AWA_CON	72	A	B	Rpleas_acq	Oppo	Rpleas	2pleas	acq_US_unple_nomask	acq45_nomask	4	2	400	1	300	300	0	0	410	46	1	0	kreativ	engagiert	gesittet	kuss	besonnen	träumen	krank	engstirnig	geizig	krise	bange	töten	sonnig	vergnügt	gütig	anregung	vertrauen	genießen	sterben	verbissen	gierig	ausrottung	versagen	gemein	1	blank2r.bmp	0	1	+	0	1	blank2r.bmp	500	1	CPLW	500	1	blank2r.bmp	880	5	bange	880	1	!	1232	1	!	1312	0	0	0	0	0	0
2024-06-06	11:32:17	11:40:03	465683	6.6.1	4_exp_EVA_AWA_CON	72	A	B	Rpleas_acq	Oppo	Rpleas	2pleas	acq_US_pleas_nomask	acq45_nomask	4	3	400	1	300	300	0	0	451	50	1	0	kreativ	engagiert	gesittet	kuss	besonnen	träumen	krank	engstirnig	geizig	krise	bange	töten	sonnig	vergnügt	gütig	anregung	vertrauen	genießen	sterben	verbissen	gierig	ausrottung	versagen	gemein	1	blank2r.bmp	0	1	+	0	1	blank2r.bmp	500	1	DHJF	500	1	blank2r.bmp	880	1	kreativ	880	1	!	1232	1	!	1352	0	0	0	0	0	0
2024-06-06	11:32:17	11:40:06	467891	6.6.1	4_exp_EVA_AWA_CON	72	A	B	Rpleas_acq	Oppo	Rpleas	2pleas	acq_US_pleas_nomask	acq45_nomask	4	4	400	1	300	300	0	0	427	50	1	0	kreativ	engagiert	gesittet	kuss	besonnen	träumen	krank	engstirnig	geizig	krise	bange	töten	sonnig	vergnügt	gütig	anregung	vertrauen	genießen	sterben	verbissen	gierig	ausrottung	versagen	gemein	1	blank2r.bmp	0	1	+	0	1	blank2r.bmp	500	1	DHJF	500	1	blank2r.bmp	880	6	träumen	880	1	!	1232	1	!	1328	0	0	0	0	0	0
2024-06-06	11:32:17	11:40:08	470083	6.6.1	4_exp_EVA_AWA_CON	72	A	B	Rpleas_acq	Oppo	Rpleas	2pleas	acq_US_unple_nomask	acq45_nomask	4	5	400	1	300	300	0	0	418	50	0	0	kreativ	engagiert	gesittet	kuss	besonnen	träumen	krank	engstirnig	geizig	krise	bange	töten	sonnig	vergnügt	gütig	anregung	vertrauen	genießen	sterben	verbissen	gierig	ausrottung	versagen	gemein	1	blank2r.bmp	0	1	+	0	1	blank2r.bmp	500	1	CPLW	500	1	blank2r.bmp	880	4	krise	880	1	!	1232	1	!	1319	0	0	0	0	0	0
2024-06-06	11:32:17	11:40:10	472267	6.6.1	4_exp_EVA_AWA_CON	72	A	B	Rpleas_acq	Oppo	Rpleas	2pleas	acq_US_unple_nomask	acq45_nomask	4	6	400	1	300	300	0	0	411	46	1	0	kreativ	engagiert	gesittet	kuss	besonnen	träumen	krank	engstirnig	geizig	krise	bange	töten	sonnig	vergnügt	gütig	anregung	vertrauen	genießen	sterben	verbissen	gierig	ausrottung	versagen	gemein	1	blank2r.bmp	0	1	+	0	1	blank2r.bmp	500	1	CPLW	500	1	blank2r.bmp	880	1	krank	880	1	!	1232	1	!	1312	0	0	0	0	0	0
2024-06-06	11:32:17	11:40:12	474459	6.6.1	4_exp_EVA_AWA_CON	72	A	B	Rpleas_acq	Oppo	Rpleas	2pleas	acq_US_pleas_nomask	acq45_nomask	4	7	400	1	300	300	0	0	411	46	0	0	kreativ	engagiert	gesittet	kuss	besonnen	träumen	krank	engstirnig	geizig	krise	bange	töten	sonnig	vergnügt	gütig	anregung	vertrauen	genießen	sterben	verbissen	gierig	ausrottung	versagen	gemein	1	blank2r.bmp	0	1	+	0	1	blank2r.bmp	500	1	DHJF	500	1	blank2r.bmp	880	5	besonnen	880	1	!	1232	1	!	1312	0	0	0	0	0	0
2024-06-06	11:32:17	11:40:14	476691	6.6.1	4_exp_EVA_AWA_CON	72	A	B	Rpleas_acq	Oppo	Rpleas	2pleas	acq_US_unple_nomask	acq45_nomask	4	8	400	1	300	300	0	0	452	46	1	0	kreativ	engagiert	gesittet	kuss	besonnen	träumen	krank	engstirnig	geizig	krise	bange	töten	sonnig	vergnügt	gütig	anregung	vertrauen	genießen	sterben	verbissen	gierig	ausrottung	versagen	gemein	1	blank2r.bmp	0	1	+	0	1	blank2r.bmp	500	1	CPLW	500	1	blank2r.bmp	880	6	töten	880	1	!	1232	1	!	1353	0	0	0	0	0	0
2024-06-06	11:32:17	11:40:17	478875	6.6.1	4_exp_EVA_AWA_CON	72	A	B	Rpleas_acq	Oppo	Rpleas	2pleas	acq_US_unple_nomask	acq45_nomask	4	9	400	1	300	300	0	0	404	50	0	0	kreativ	engagiert	gesittet	kuss	besonnen	träumen	krank	engstirnig	geizig	krise	bange	töten	sonnig	vergnügt	gütig	anregung	vertrauen	genießen	sterben	verbissen	gierig	ausrottung	versagen	gemein	1	blank2r.bmp	0	1	+	0	1	blank2r.bmp	500	1	CPLW	500	1	blank2r.bmp	880	3	geizig	880	1	!	1232	1	!	1305	0	0	0	0	0	0
2024-06-06	11:32:17	11:40:19	481123	6.6.1	4_exp_EVA_AWA_CON	72	A	B	Rpleas_acq	Oppo	Rpleas	2pleas	acq_US_pleas_nomask	acq45_nomask	4	10	400	1	300	300	0	0	471	46	0	0	kreativ	engagiert	gesittet	kuss	besonnen	träumen	krank	engstirnig	geizig	krise	bange	töten	sonnig	vergnügt	gütig	anregung	vertrauen	genießen	sterben	verbissen	gierig	ausrottung	versagen	gemein	1	blank2r.bmp	0	1	+	0	1	blank2r.bmp	500	1	DHJF	500	1	blank2r.bmp	880	2	engagiert	880	1	!	1232	1	!	1372	0	0	0	0	0	0
2024-06-06	11:32:17	11:40:21	483371	6.6.1	4_exp_EVA_AWA_CON	72	A	B	Rpleas_acq	Oppo	Rpleas	2pleas	acq_US_unple_nomask	acq45_nomask	4	11	400	1	300	300	0	0	467	50	0	0	kreativ	engagiert	gesittet	kuss	besonnen	träumen	krank	engstirnig	geizig	krise	bange	töten	sonnig	vergnügt	gütig	anregung	vertrauen	genießen	sterben	verbissen	gierig	ausrottung	versagen	gemein	1	blank2r.bmp	0	1	+	0	1	blank2r.bmp	500	1	CPLW	500	1	blank2r.bmp	880	2	engstirnig	880	1	!	1232	1	!	1368	0	0	0	0	0	0
2024-06-06	11:32:17	11:40:25	487289	6.6.1	4_exp_EVA_AWA_CON	72	A	B	Rpleas_acq	Oppo	Rpleas	2pleas	acq_US_pleas_nomask	acq45_nomask	4	12	400	0	300	300	0	0	2146	46	0	0	kreativ	engagiert	gesittet	kuss	besonnen	träumen	krank	engstirnig	geizig	krise	bange	töten	sonnig	vergnügt	gütig	anregung	vertrauen	genießen	sterben	verbissen	gierig	ausrottung	versagen	gemein	1	blank2r.bmp	0	1	+	0	1	blank2r.bmp	500	1	DHJF	500	1	blank2r.bmp	880	3	gesittet	880	1	!	1232	1	!	-1	0	0	0	0	0	0
2024-06-06	11:32:17	11:40:27	489435	6.6.1	4_exp_EVA_AWA_CON	72	A	B	Rpleas_acq	Oppo	Rpleas	2pleas	acq_US_unple_nomask	acq45_nomask	4	13	400	1	300	300	0	0	367	46	1	0	kreativ	engagiert	gesittet	kuss	besonnen	träumen	krank	engstirnig	geizig	krise	bange	töten	sonnig	vergnügt	gütig	anregung	vertrauen	genießen	sterben	verbissen	gierig	ausrottung	versagen	gemein	1	blank2r.bmp	0	1	+	0	1	blank2r.bmp	500	1	CPLW	500	1	blank2r.bmp	880	3	geizig	880	1	!	1232	1	!	1268	0	0	0	0	0	0
2024-06-06	11:32:17	11:40:29	491713	6.6.1	4_exp_EVA_AWA_CON	72	A	B	Rpleas_acq	Oppo	Rpleas	2pleas	acq_US_unple_nomask	acq45_nomask	4	14	400	0	300	300	0	0	506	46	1	0	kreativ	engagiert	gesittet	kuss	besonnen	träumen	krank	engstirnig	geizig	krise	bange	töten	sonnig	vergnügt	gütig	anregung	vertrauen	genießen	sterben	verbissen	gierig	ausrottung	versagen	gemein	1	blank2r.bmp	0	1	+	0	1	blank2r.bmp	500	1	CPLW	500	1	blank2r.bmp	880	5	bange	880	1	!	1232	1	!	-1	0	0	0	0	0	0
2024-06-06	11:32:17	11:40:32	493923	6.6.1	4_exp_EVA_AWA_CON	72	A	B	Rpleas_acq	Oppo	Rpleas	2pleas	acq_US_pleas_nomask	acq45_nomask	4	15	400	1	300	300	0	0	433	50	1	0	kreativ	engagiert	gesittet	kuss	besonnen	träumen	krank	engstirnig	geizig	krise	bange	töten	sonnig	vergnügt	gütig	anregung	vertrauen	genießen	sterben	verbissen	gierig	ausrottung	versagen	gemein	1	blank2r.bmp	0	1	+	0	1	blank2r.bmp	500	1	DHJF	500	1	blank2r.bmp	880	3	gesittet	880	1	!	1232	1	!	1334	0	0	0	0	0	0
2024-06-06	11:32:17	11:40:34	496099	6.6.1	4_exp_EVA_AWA_CON	72	A	B	Rpleas_acq	Oppo	Rpleas	2pleas	acq_US_unple_nomask	acq45_nomask	4	16	400	1	300	300	0	0	397	46	1	0	kreativ	engagiert	gesittet	kuss	besonnen	träumen	krank	engstirnig	geizig	krise	bange	töten	sonnig	vergnügt	gütig	anregung	vertrauen	genießen	sterben	verbissen	gierig	ausrottung	versagen	gemein	1	blank2r.bmp	0	1	+	0	1	blank2r.bmp	500	1	CPLW	500	1	blank2r.bmp	880	1	krank	880	1	!	1232	1	!	1298	0	0	0	0	0	0
2024-06-06	11:32:17	11:40:36	498315	6.6.1	4_exp_EVA_AWA_CON	72	A	B	Rpleas_acq	Oppo	Rpleas	2pleas	acq_US_pleas_nomask	acq45_nomask	4	17	400	1	300	300	0	0	442	46	0	0	kreativ	engagiert	gesittet	kuss	besonnen	träumen	krank	engstirnig	geizig	krise	bange	töten	sonnig	vergnügt	gütig	anregung	vertrauen	genießen	sterben	verbissen	gierig	ausrottung	versagen	gemein	1	blank2r.bmp	0	1	+	0	1	blank2r.bmp	500	1	DHJF	500	1	blank2r.bmp	880	2	engagiert	880	1	!	1232	1	!	1343	0	0	0	0	0	0
2024-06-06	11:32:17	11:40:38	500491	6.6.1	4_exp_EVA_AWA_CON	72	A	B	Rpleas_acq	Oppo	Rpleas	2pleas	acq_US_pleas_nomask	acq45_nomask	4	18	400	1	300	300	0	0	396	50	1	0	kreativ	engagiert	gesittet	kuss	besonnen	träumen	krank	engstirnig	geizig	krise	bange	töten	sonnig	vergnügt	gütig	anregung	vertrauen	genießen	sterben	verbissen	gierig	ausrottung	versagen	gemein	1	blank2r.bmp	0	1	+	0	1	blank2r.bmp	500	1	DHJF	500	1	blank2r.bmp	880	4	kuss	880	1	!	1232	1	!	1297	0	0	0	0	0	0
2024-06-06	11:32:17	11:40:40	502433	6.6.1	4_exp_EVA_AWA_CON	72	A	B	Rpleas_acq	Oppo	Rpleas	2pleas	acq_US_unple_nomask	acq45_nomask	4	19	400	0	300	300	0	0	169	46	1	0	kreativ	engagiert	gesittet	kuss	besonnen	träumen	krank	engstirnig	geizig	krise	bange	töten	sonnig	vergnügt	gütig	anregung	vertrauen	genießen	sterben	verbissen	gierig	ausrottung	versagen	gemein	1	blank2r.bmp	0	1	+	0	1	blank2r.bmp	500	1	CPLW	500	1	blank2r.bmp	880	4	krise	880	1	!	-1	1	!	-1	0	0	0	0	0	0
2024-06-06	11:32:17	11:40:42	504603	6.6.1	4_exp_EVA_AWA_CON	72	A	B	Rpleas_acq	Oppo	Rpleas	2pleas	acq_US_unple_nomask	acq45_nomask	4	20	400	1	300	300	0	0	396	50	0	0	kreativ	engagiert	gesittet	kuss	besonnen	träumen	krank	engstirnig	geizig	krise	bange	töten	sonnig	vergnügt	gütig	anregung	vertrauen	genießen	sterben	verbissen	gierig	ausrottung	versagen	gemein	1	blank2r.bmp	0	1	+	0	1	blank2r.bmp	500	1	CPLW	500	1	blank2r.bmp	880	6	töten	880	1	!	1232	1	!	1297	0	0	0	0	0	0
2024-06-06	11:32:17	11:40:45	506865	6.6.1	4_exp_EVA_AWA_CON	72	A	B	Rpleas_acq	Oppo	Rpleas	2pleas	acq_US_pleas_nomask	acq45_nomask	4	21	400	0	300	300	0	0	488	50	1	0	kreativ	engagiert	gesittet	kuss	besonnen	träumen	krank	engstirnig	geizig	krise	bange	töten	sonnig	vergnügt	gütig	anregung	vertrauen	genießen	sterben	verbissen	gierig	ausrottung	versagen	gemein	1	blank2r.bmp	0	1	+	0	1	blank2r.bmp	500	1	DHJF	500	1	blank2r.bmp	880	6	träumen	880	1	!	1233	1	!	-1	0	0	0	0	0	0
2024-06-06	11:32:17	11:40:47	509075	6.6.1	4_exp_EVA_AWA_CON	72	A	B	Rpleas_acq	Oppo	Rpleas	2pleas	acq_US_unple_nomask	acq45_nomask	4	22	400	1	300	300	0	0	435	46	1	0	kreativ	engagiert	gesittet	kuss	besonnen	träumen	krank	engstirnig	geizig	krise	bange	töten	sonnig	vergnügt	gütig	anregung	vertrauen	genießen	sterben	verbissen	gierig	ausrottung	versagen	gemein	1	blank2r.bmp	0	1	+	0	1	blank2r.bmp	500	1	CPLW	500	1	blank2r.bmp	880	2	engstirnig	880	1	!	1232	1	!	1336	0	0	0	0	0	0
2024-06-06	11:32:17	11:40:49	511353	6.6.1	4_exp_EVA_AWA_CON	72	A	B	Rpleas_acq	Oppo	Rpleas	2pleas	acq_US_unple_nomask	acq45_nomask	4	23	400	0	300	300	0	0	504	46	1	0	kreativ	engagiert	gesittet	kuss	besonnen	träumen	krank	engstirnig	geizig	krise	bange	töten	sonnig	vergnügt	gütig	anregung	vertrauen	genießen	sterben	verbissen	gierig	ausrottung	versagen	gemein	1	blank2r.bmp	0	1	+	0	1	blank2r.bmp	500	1	CPLW	500	1	blank2r.bmp	880	6	töten	880	1	!	1232	1	!	-1	0	0	0	0	0	0
2024-06-06	11:32:17	11:40:51	513595	6.6.1	4_exp_EVA_AWA_CON	72	A	B	Rpleas_acq	Oppo	Rpleas	2pleas	acq_US_pleas_nomask	acq45_nomask	4	24	400	1	300	300	0	0	462	50	1	0	kreativ	engagiert	gesittet	kuss	besonnen	träumen	krank	engstirnig	geizig	krise	bange	töten	sonnig	vergnügt	gütig	anregung	vertrauen	genießen	sterben	verbissen	gierig	ausrottung	versagen	gemein	1	blank2r.bmp	0	1	+	0	1	blank2r.bmp	500	1	DHJF	500	1	blank2r.bmp	880	5	besonnen	880	1	!	1232	1	!	1363	0	0	0	0	0	0
2024-06-06	11:32:17	11:40:53	515731	6.6.1	4_exp_EVA_AWA_CON	72	A	B	Rpleas_acq	Oppo	Rpleas	2pleas	acq_US_unple_nomask	acq45_nomask	4	25	400	1	300	300	0	0	357	46	1	0	kreativ	engagiert	gesittet	kuss	besonnen	träumen	krank	engstirnig	geizig	krise	bange	töten	sonnig	vergnügt	gütig	anregung	vertrauen	genießen	sterben	verbissen	gierig	ausrottung	versagen	gemein	1	blank2r.bmp	0	1	+	0	1	blank2r.bmp	500	1	CPLW	500	1	blank2r.bmp	880	5	bange	880	1	!	1232	1	!	1258	0	0	0	0	0	0
2024-06-06	11:32:17	11:40:56	517899	6.6.1	4_exp_EVA_AWA_CON	72	A	B	Rpleas_acq	Oppo	Rpleas	2pleas	acq_US_unple_nomask	acq45_nomask	4	26	400	1	300	300	0	0	393	46	1	0	kreativ	engagiert	gesittet	kuss	besonnen	träumen	krank	engstirnig	geizig	krise	bange	töten	sonnig	vergnügt	gütig	anregung	vertrauen	genießen	sterben	verbissen	gierig	ausrottung	versagen	gemein	1	blank2r.bmp	0	1	+	0	1	blank2r.bmp	500	1	CPLW	500	1	blank2r.bmp	880	2	engstirnig	880	1	!	1232	1	!	1294	0	0	0	0	0	0
2024-06-06	11:32:17	11:40:58	520043	6.6.1	4_exp_EVA_AWA_CON	72	A	B	Rpleas_acq	Oppo	Rpleas	2pleas	acq_US_pleas_nomask	acq45_nomask	4	27	400	1	300	300	0	0	366	50	1	0	kreativ	engagiert	gesittet	kuss	besonnen	träumen	krank	engstirnig	geizig	krise	bange	töten	sonnig	vergnügt	gütig	anregung	vertrauen	genießen	sterben	verbissen	gierig	ausrottung	versagen	gemein	1	blank2r.bmp	0	1	+	0	1	blank2r.bmp	500	1	DHJF	500	1	blank2r.bmp	880	1	kreativ	880	1	!	1232	1	!	1267	0	0	0	0	0	0
2024-06-06	11:32:17	11:41:00	522289	6.6.1	4_exp_EVA_AWA_CON	72	A	B	Rpleas_acq	Oppo	Rpleas	2pleas	acq_US_pleas_nomask	acq45_nomask	4	28	400	0	300	300	0	0	474	46	0	0	kreativ	engagiert	gesittet	kuss	besonnen	träumen	krank	engstirnig	geizig	krise	bange	töten	sonnig	vergnügt	gütig	anregung	vertrauen	genießen	sterben	verbissen	gierig	ausrottung	versagen	gemein	1	blank2r.bmp	0	1	+	0	1	blank2r.bmp	500	1	DHJF	500	1	blank2r.bmp	880	1	kreativ	880	1	!	1232	1	!	-1	0	0	0	0	0	0
2024-06-06	11:32:17	11:41:02	524427	6.6.1	4_exp_EVA_AWA_CON	72	A	B	Rpleas_acq	Oppo	Rpleas	2pleas	acq_US_pleas_nomask	acq45_nomask	4	29	400	1	300	300	0	0	357	46	0	0	kreativ	engagiert	gesittet	kuss	besonnen	träumen	krank	engstirnig	geizig	krise	bange	töten	sonnig	vergnügt	gütig	anregung	vertrauen	genießen	sterben	verbissen	gierig	ausrottung	versagen	gemein	1	blank2r.bmp	0	1	+	0	1	blank2r.bmp	500	1	DHJF	500	1	blank2r.bmp	880	5	besonnen	880	1	!	1232	1	!	1258	0	0	0	0	0	0
2024-06-06	11:32:17	11:41:04	526643	6.6.1	4_exp_EVA_AWA_CON	72	A	B	Rpleas_acq	Oppo	Rpleas	2pleas	acq_US_pleas_nomask	acq45_nomask	4	30	400	1	300	300	0	0	442	46	0	0	kreativ	engagiert	gesittet	kuss	besonnen	träumen	krank	engstirnig	geizig	krise	bange	töten	sonnig	vergnügt	gütig	anregung	vertrauen	genießen	sterben	verbissen	gierig	ausrottung	versagen	gemein	1	blank2r.bmp	0	1	+	0	1	blank2r.bmp	500	1	DHJF	500	1	blank2r.bmp	880	2	engagiert	880	1	!	1232	1	!	1343	0	0	0	0	0	0
2024-06-06	11:32:17	11:41:06	528625	6.6.1	4_exp_EVA_AWA_CON	72	A	B	Rpleas_acq	Oppo	Rpleas	2pleas	acq_US_pleas_nomask	acq45_nomask	4	31	400	0	300	300	0	0	204	46	0	0	kreativ	engagiert	gesittet	kuss	besonnen	träumen	krank	engstirnig	geizig	krise	bange	töten	sonnig	vergnügt	gütig	anregung	vertrauen	genießen	sterben	verbissen	gierig	ausrottung	versagen	gemein	1	blank2r.bmp	0	1	+	0	1	blank2r.bmp	500	1	DHJF	500	1	blank2r.bmp	880	6	träumen	880	1	!	-1	1	!	-1	0	0	0	0	0	0
2024-06-06	11:32:17	11:41:08	530721	6.6.1	4_exp_EVA_AWA_CON	72	A	B	Rpleas_acq	Oppo	Rpleas	2pleas	acq_US_unple_nomask	acq45_nomask	4	32	400	0	300	300	0	0	319	46	1	0	kreativ	engagiert	gesittet	kuss	besonnen	träumen	krank	engstirnig	geizig	krise	bange	töten	sonnig	vergnügt	gütig	anregung	vertrauen	genießen	sterben	verbissen	gierig	ausrottung	versagen	gemein	1	blank2r.bmp	0	1	+	0	1	blank2r.bmp	500	1	CPLW	500	1	blank2r.bmp	880	3	geizig	880	1	!	-1	1	!	-1	0	0	0	0	0	0
2024-06-06	11:32:17	11:41:11	533185	6.6.1	4_exp_EVA_AWA_CON	72	A	B	Rpleas_acq	Oppo	Rpleas	2pleas	acq_US_unple_nomask	acq45_nomask	4	33	400	0	300	300	0	0	692	50	0	0	kreativ	engagiert	gesittet	kuss	besonnen	träumen	krank	engstirnig	geizig	krise	bange	töten	sonnig	vergnügt	gütig	anregung	vertrauen	genießen	sterben	verbissen	gierig	ausrottung	versagen	gemein	1	blank2r.bmp	0	1	+	0	1	blank2r.bmp	500	1	CPLW	500	1	blank2r.bmp	880	4	krise	880	1	!	1232	1	!	-1	0	0	0	0	0	0
2024-06-06	11:32:17	11:41:13	535586	6.6.1	4_exp_EVA_AWA_CON	72	A	B	Rpleas_acq	Oppo	Rpleas	2pleas	acq_US_pleas_nomask	acq45_nomask	4	34	400	0	300	300	0	0	620	46	0	0	kreativ	engagiert	gesittet	kuss	besonnen	träumen	krank	engstirnig	geizig	krise	bange	töten	sonnig	vergnügt	gütig	anregung	vertrauen	genießen	sterben	verbissen	gierig	ausrottung	versagen	gemein	1	blank2r.bmp	0	1	+	0	1	blank2r.bmp	500	1	DHJF	500	1	blank2r.bmp	880	3	gesittet	880	1	!	1232	1	!	-1	0	0	0	0	0	0
2024-06-06	11:32:17	11:41:16	537873	6.6.1	4_exp_EVA_AWA_CON	72	A	B	Rpleas_acq	Oppo	Rpleas	2pleas	acq_US_pleas_nomask	acq45_nomask	4	35	400	0	300	300	0	0	507	50	1	0	kreativ	engagiert	gesittet	kuss	besonnen	träumen	krank	engstirnig	geizig	krise	bange	töten	sonnig	vergnügt	gütig	anregung	vertrauen	genießen	sterben	verbissen	gierig	ausrottung	versagen	gemein	1	blank2r.bmp	0	1	+	0	1	blank2r.bmp	500	1	DHJF	500	1	blank2r.bmp	880	4	kuss	880	1	!	1232	1	!	-1	0	0	0	0	0	0
2024-06-06	11:32:17	11:41:18	540043	6.6.1	4_exp_EVA_AWA_CON	72	A	B	Rpleas_acq	Oppo	Rpleas	2pleas	acq_US_unple_nomask	acq45_nomask	4	36	400	1	300	300	0	0	393	46	1	0	kreativ	engagiert	gesittet	kuss	besonnen	träumen	krank	engstirnig	geizig	krise	bange	töten	sonnig	vergnügt	gütig	anregung	vertrauen	genießen	sterben	verbissen	gierig	ausrottung	versagen	gemein	1	blank2r.bmp	0	1	+	0	1	blank2r.bmp	500	1	CPLW	500	1	blank2r.bmp	880	1	krank	880	1	!	1232	1	!	1294	0	0	0	0	0	0
2024-06-06	11:32:17	11:41:39	561089	6.6.1	4_exp_EVA_AWA_CON	72	A	B	Rpleas_acq	Oppo	Rpleas	2pleas	acq_US_unple_nomask	acq45_nomask	5	1	400	0	300	300	0	0	508	46	1	0	kreativ	engagiert	gesittet	kuss	besonnen	träumen	krank	engstirnig	geizig	krise	bange	töten	sonnig	vergnügt	gütig	anregung	vertrauen	genießen	sterben	verbissen	gierig	ausrottung	versagen	gemein	1	blank2r.bmp	0	1	+	0	1	blank2r.bmp	500	1	CPLW	500	1	blank2r.bmp	880	2	engstirnig	880	1	!	1232	1	!	-1	0	0	0	0	0	0
2024-06-06	11:32:17	11:41:41	563291	6.6.1	4_exp_EVA_AWA_CON	72	A	B	Rpleas_acq	Oppo	Rpleas	2pleas	acq_US_pleas_nomask	acq45_nomask	5	2	400	1	300	300	0	0	426	50	1	0	kreativ	engagiert	gesittet	kuss	besonnen	träumen	krank	engstirnig	geizig	krise	bange	töten	sonnig	vergnügt	gütig	anregung	vertrauen	genießen	sterben	verbissen	gierig	ausrottung	versagen	gemein	1	blank2r.bmp	0	1	+	0	1	blank2r.bmp	500	1	DHJF	500	1	blank2r.bmp	880	1	kreativ	880	1	!	1233	1	!	1327	0	0	0	0	0	0
2024-06-06	11:32:17	11:41:43	565499	6.6.1	4_exp_EVA_AWA_CON	72	A	B	Rpleas_acq	Oppo	Rpleas	2pleas	acq_US_pleas_nomask	acq45_nomask	5	3	400	1	300	300	0	0	433	46	0	0	kreativ	engagiert	gesittet	kuss	besonnen	träumen	krank	engstirnig	geizig	krise	bange	töten	sonnig	vergnügt	gütig	anregung	vertrauen	genießen	sterben	verbissen	gierig	ausrottung	versagen	gemein	1	blank2r.bmp	0	1	+	0	1	blank2r.bmp	500	1	DHJF	500	1	blank2r.bmp	880	6	träumen	880	1	!	1232	1	!	1334	0	0	0	0	0	0
2024-06-06	11:32:17	11:41:45	567667	6.6.1	4_exp_EVA_AWA_CON	72	A	B	Rpleas_acq	Oppo	Rpleas	2pleas	acq_US_unple_nomask	acq45_nomask	5	4	400	1	300	300	0	0	389	46	1	0	kreativ	engagiert	gesittet	kuss	besonnen	träumen	krank	engstirnig	geizig	krise	bange	töten	sonnig	vergnügt	gütig	anregung	vertrauen	genießen	sterben	verbissen	gierig	ausrottung	versagen	gemein	1	blank2r.bmp	0	1	+	0	1	blank2r.bmp	500	1	CPLW	500	1	blank2r.bmp	880	4	krise	880	1	!	1232	1	!	1290	0	0	0	0	0	0
2024-06-06	11:32:17	11:41:48	569928	6.6.1	4_exp_EVA_AWA_CON	72	A	B	Rpleas_acq	Oppo	Rpleas	2pleas	acq_US_pleas_nomask	acq45_nomask	5	5	400	0	300	300	0	0	482	46	0	0	kreativ	engagiert	gesittet	kuss	besonnen	träumen	krank	engstirnig	geizig	krise	bange	töten	sonnig	vergnügt	gütig	anregung	vertrauen	genießen	sterben	verbissen	gierig	ausrottung	versagen	gemein	1	blank2r.bmp	0	1	+	0	1	blank2r.bmp	500	1	DHJF	500	1	blank2r.bmp	880	3	gesittet	880	1	!	1232	1	!	-1	0	0	0	0	0	0
2024-06-06	11:32:17	11:41:50	572075	6.6.1	4_exp_EVA_AWA_CON	72	A	B	Rpleas_acq	Oppo	Rpleas	2pleas	acq_US_pleas_nomask	acq45_nomask	5	6	400	1	300	300	0	0	364	46	0	0	kreativ	engagiert	gesittet	kuss	besonnen	träumen	krank	engstirnig	geizig	krise	bange	töten	sonnig	vergnügt	gütig	anregung	vertrauen	genießen	sterben	verbissen	gierig	ausrottung	versagen	gemein	1	blank2r.bmp	0	1	+	0	1	blank2r.bmp	500	1	DHJF	500	1	blank2r.bmp	880	2	engagiert	880	1	!	1232	1	!	1265	0	0	0	0	0	0
2024-06-06	11:32:17	11:41:52	574345	6.6.1	4_exp_EVA_AWA_CON	72	A	B	Rpleas_acq	Oppo	Rpleas	2pleas	acq_US_unple_nomask	acq45_nomask	5	7	400	0	300	300	0	0	495	46	1	0	kreativ	engagiert	gesittet	kuss	besonnen	träumen	krank	engstirnig	geizig	krise	bange	töten	sonnig	vergnügt	gütig	anregung	vertrauen	genießen	sterben	verbissen	gierig	ausrottung	versagen	gemein	1	blank2r.bmp	0	1	+	0	1	blank2r.bmp	500	1	CPLW	500	1	blank2r.bmp	880	6	töten	880	1	!	1232	1	!	-1	0	0	0	0	0	0
2024-06-06	11:32:17	11:41:54	576483	6.6.1	4_exp_EVA_AWA_CON	72	A	B	Rpleas_acq	Oppo	Rpleas	2pleas	acq_US_unple_nomask	acq45_nomask	5	8	400	1	300	300	0	0	360	50	0	0	kreativ	engagiert	gesittet	kuss	besonnen	träumen	krank	engstirnig	geizig	krise	bange	töten	sonnig	vergnügt	gütig	anregung	vertrauen	genießen	sterben	verbissen	gierig	ausrottung	versagen	gemein	1	blank2r.bmp	0	1	+	0	1	blank2r.bmp	500	1	CPLW	500	1	blank2r.bmp	880	3	geizig	880	1	!	1232	1	!	1261	0	0	0	0	0	0
2024-06-06	11:32:17	11:41:56	578667	6.6.1	4_exp_EVA_AWA_CON	72	A	B	Rpleas_acq	Oppo	Rpleas	2pleas	acq_US_pleas_nomask	acq45_nomask	5	9	400	1	300	300	0	0	402	46	0	0	kreativ	engagiert	gesittet	kuss	besonnen	träumen	krank	engstirnig	geizig	krise	bange	töten	sonnig	vergnügt	gütig	anregung	vertrauen	genießen	sterben	verbissen	gierig	ausrottung	versagen	gemein	1	blank2r.bmp	0	1	+	0	1	blank2r.bmp	500	1	DHJF	500	1	blank2r.bmp	880	5	besonnen	880	1	!	1233	1	!	1303	0	0	0	0	0	0
2024-06-06	11:32:17	11:41:59	580929	6.6.1	4_exp_EVA_AWA_CON	72	A	B	Rpleas_acq	Oppo	Rpleas	2pleas	acq_US_pleas_nomask	acq45_nomask	5	10	400	0	300	300	0	0	485	50	1	0	kreativ	engagiert	gesittet	kuss	besonnen	träumen	krank	engstirnig	geizig	krise	bange	töten	sonnig	vergnügt	gütig	anregung	vertrauen	genießen	sterben	verbissen	gierig	ausrottung	versagen	gemein	1	blank2r.bmp	0	1	+	0	1	blank2r.bmp	500	1	DHJF	500	1	blank2r.bmp	880	4	kuss	880	1	!	1232	1	!	-1	0	0	0	0	0	0
2024-06-06	11:32:17	11:42:01	583099	6.6.1	4_exp_EVA_AWA_CON	72	A	B	Rpleas_acq	Oppo	Rpleas	2pleas	acq_US_pleas_nomask	acq45_nomask	5	11	400	1	300	300	0	0	391	50	1	0	kreativ	engagiert	gesittet	kuss	besonnen	träumen	krank	engstirnig	geizig	krise	bange	töten	sonnig	vergnügt	gütig	anregung	vertrauen	genießen	sterben	verbissen	gierig	ausrottung	versagen	gemein	1	blank2r.bmp	0	1	+	0	1	blank2r.bmp	500	1	DHJF	500	1	blank2r.bmp	880	5	besonnen	880	1	!	1232	1	!	1292	0	0	0	0	0	0
2024-06-06	11:32:17	11:42:03	585283	6.6.1	4_exp_EVA_AWA_CON	72	A	B	Rpleas_acq	Oppo	Rpleas	2pleas	acq_US_pleas_nomask	acq45_nomask	5	12	400	1	300	300	0	0	404	46	0	0	kreativ	engagiert	gesittet	kuss	besonnen	träumen	krank	engstirnig	geizig	krise	bange	töten	sonnig	vergnügt	gütig	anregung	vertrauen	genießen	sterben	verbissen	gierig	ausrottung	versagen	gemein	1	blank2r.bmp	0	1	+	0	1	blank2r.bmp	500	1	DHJF	500	1	blank2r.bmp	880	6	träumen	880	1	!	1232	1	!	1305	0	0	0	0	0	0
2024-06-06	11:32:17	11:42:05	587460	6.6.1	4_exp_EVA_AWA_CON	72	A	B	Rpleas_acq	Oppo	Rpleas	2pleas	acq_US_unple_nomask	acq45_nomask	5	13	400	1	300	300	0	0	399	46	1	0	kreativ	engagiert	gesittet	kuss	besonnen	träumen	krank	engstirnig	geizig	krise	bange	töten	sonnig	vergnügt	gütig	anregung	vertrauen	genießen	sterben	verbissen	gierig	ausrottung	versagen	gemein	1	blank2r.bmp	0	1	+	0	1	blank2r.bmp	500	1	CPLW	500	1	blank2r.bmp	880	5	bange	880	1	!	1232	1	!	1300	0	0	0	0	0	0
2024-06-06	11:32:17	11:42:07	589635	6.6.1	4_exp_EVA_AWA_CON	72	A	B	Rpleas_acq	Oppo	Rpleas	2pleas	acq_US_unple_nomask	acq45_nomask	5	14	400	1	300	300	0	0	393	46	1	0	kreativ	engagiert	gesittet	kuss	besonnen	träumen	krank	engstirnig	geizig	krise	bange	töten	sonnig	vergnügt	gütig	anregung	vertrauen	genießen	sterben	verbissen	gierig	ausrottung	versagen	gemein	1	blank2r.bmp	0	1	+	0	1	blank2r.bmp	500	1	CPLW	500	1	blank2r.bmp	880	1	krank	880	1	!	1232	1	!	1294	0	0	0	0	0	0
2024-06-06	11:32:17	11:42:09	591827	6.6.1	4_exp_EVA_AWA_CON	72	A	B	Rpleas_acq	Oppo	Rpleas	2pleas	acq_US_unple_nomask	acq45_nomask	5	15	400	1	300	300	0	0	414	50	0	0	kreativ	engagiert	gesittet	kuss	besonnen	träumen	krank	engstirnig	geizig	krise	bange	töten	sonnig	vergnügt	gütig	anregung	vertrauen	genießen	sterben	verbissen	gierig	ausrottung	versagen	gemein	1	blank2r.bmp	0	1	+	0	1	blank2r.bmp	500	1	CPLW	500	1	blank2r.bmp	880	2	engstirnig	880	1	!	1232	1	!	1314	0	0	0	0	0	0
2024-06-06	11:32:17	11:42:12	594035	6.6.1	4_exp_EVA_AWA_CON	72	A	B	Rpleas_acq	Oppo	Rpleas	2pleas	acq_US_unple_nomask	acq45_nomask	5	16	400	1	300	300	0	0	430	46	1	0	kreativ	engagiert	gesittet	kuss	besonnen	träumen	krank	engstirnig	geizig	krise	bange	töten	sonnig	vergnügt	gütig	anregung	vertrauen	genießen	sterben	verbissen	gierig	ausrottung	versagen	gemein	1	blank2r.bmp	0	1	+	0	1	blank2r.bmp	500	1	CPLW	500	1	blank2r.bmp	880	6	töten	880	1	!	1233	1	!	1332	0	0	0	0	0	0
2024-06-06	11:32:17	11:42:14	596236	6.6.1	4_exp_EVA_AWA_CON	72	A	B	Rpleas_acq	Oppo	Rpleas	2pleas	acq_US_pleas_nomask	acq45_nomask	5	17	400	1	300	300	0	0	419	50	1	0	kreativ	engagiert	gesittet	kuss	besonnen	träumen	krank	engstirnig	geizig	krise	bange	töten	sonnig	vergnügt	gütig	anregung	vertrauen	genießen	sterben	verbissen	gierig	ausrottung	versagen	gemein	1	blank2r.bmp	0	1	+	0	1	blank2r.bmp	500	1	DHJF	500	1	blank2r.bmp	880	1	kreativ	880	1	!	1232	1	!	1320	0	0	0	0	0	0
2024-06-06	11:32:17	11:42:16	598395	6.6.1	4_exp_EVA_AWA_CON	72	A	B	Rpleas_acq	Oppo	Rpleas	2pleas	acq_US_unple_nomask	acq45_nomask	5	18	400	1	300	300	0	0	378	50	0	0	kreativ	engagiert	gesittet	kuss	besonnen	träumen	krank	engstirnig	geizig	krise	bange	töten	sonnig	vergnügt	gütig	anregung	vertrauen	genießen	sterben	verbissen	gierig	ausrottung	versagen	gemein	1	blank2r.bmp	0	1	+	0	1	blank2r.bmp	500	1	CPLW	500	1	blank2r.bmp	880	4	krise	880	1	!	1232	1	!	1279	0	0	0	0	0	0
2024-06-06	11:32:17	11:42:18	600563	6.6.1	4_exp_EVA_AWA_CON	72	A	B	Rpleas_acq	Oppo	Rpleas	2pleas	acq_US_pleas_nomask	acq45_nomask	5	19	400	1	300	300	0	0	394	46	0	0	kreativ	engagiert	gesittet	kuss	besonnen	träumen	krank	engstirnig	geizig	krise	bange	töten	sonnig	vergnügt	gütig	anregung	vertrauen	genießen	sterben	verbissen	gierig	ausrottung	versagen	gemein	1	blank2r.bmp	0	1	+	0	1	blank2r.bmp	500	1	DHJF	500	1	blank2r.bmp	880	4	kuss	880	1	!	1232	1	!	1295	0	0	0	0	0	0
2024-06-06	11:32:17	11:42:20	602755	6.6.1	4_exp_EVA_AWA_CON	72	A	B	Rpleas_acq	Oppo	Rpleas	2pleas	acq_US_pleas_nomask	acq45_nomask	5	20	400	1	300	300	0	0	415	50	1	0	kreativ	engagiert	gesittet	kuss	besonnen	träumen	krank	engstirnig	geizig	krise	bange	töten	sonnig	vergnügt	gütig	anregung	vertrauen	genießen	sterben	verbissen	gierig	ausrottung	versagen	gemein	1	blank2r.bmp	0	1	+	0	1	blank2r.bmp	500	1	DHJF	500	1	blank2r.bmp	880	3	gesittet	880	1	!	1232	1	!	1316	0	0	0	0	0	0
2024-06-06	11:32:17	11:42:23	605033	6.6.1	4_exp_EVA_AWA_CON	72	A	B	Rpleas_acq	Oppo	Rpleas	2pleas	acq_US_pleas_nomask	acq45_nomask	5	21	400	0	300	300	0	0	503	46	0	0	kreativ	engagiert	gesittet	kuss	besonnen	träumen	krank	engstirnig	geizig	krise	bange	töten	sonnig	vergnügt	gütig	anregung	vertrauen	genießen	sterben	verbissen	gierig	ausrottung	versagen	gemein	1	blank2r.bmp	0	1	+	0	1	blank2r.bmp	500	1	DHJF	500	1	blank2r.bmp	880	2	engagiert	880	1	!	1232	1	!	-1	0	0	0	0	0	0
2024-06-06	11:32:17	11:42:25	607227	6.6.1	4_exp_EVA_AWA_CON	72	A	B	Rpleas_acq	Oppo	Rpleas	2pleas	acq_US_pleas_nomask	acq45_nomask	5	22	400	1	300	300	0	0	414	50	1	0	kreativ	engagiert	gesittet	kuss	besonnen	träumen	krank	engstirnig	geizig	krise	bange	töten	sonnig	vergnügt	gütig	anregung	vertrauen	genießen	sterben	verbissen	gierig	ausrottung	versagen	gemein	1	blank2r.bmp	0	1	+	0	1	blank2r.bmp	500	1	DHJF	500	1	blank2r.bmp	880	2	engagiert	880	1	!	1233	1	!	1315	0	0	0	0	0	0
2024-06-06	11:32:17	11:42:27	609451	6.6.1	4_exp_EVA_AWA_CON	72	A	B	Rpleas_acq	Oppo	Rpleas	2pleas	acq_US_unple_nomask	acq45_nomask	5	23	400	1	300	300	0	0	447	46	1	0	kreativ	engagiert	gesittet	kuss	besonnen	träumen	krank	engstirnig	geizig	krise	bange	töten	sonnig	vergnügt	gütig	anregung	vertrauen	genießen	sterben	verbissen	gierig	ausrottung	versagen	gemein	1	blank2r.bmp	0	1	+	0	1	blank2r.bmp	500	1	CPLW	500	1	blank2r.bmp	880	1	krank	880	1	!	1232	1	!	1347	0	0	0	0	0	0
2024-06-06	11:32:17	11:42:29	611703	6.6.1	4_exp_EVA_AWA_CON	72	A	B	Rpleas_acq	Oppo	Rpleas	2pleas	acq_US_unple_nomask	acq45_nomask	5	24	400	0	300	300	0	0	481	46	1	0	kreativ	engagiert	gesittet	kuss	besonnen	träumen	krank	engstirnig	geizig	krise	bange	töten	sonnig	vergnügt	gütig	anregung	vertrauen	genießen	sterben	verbissen	gierig	ausrottung	versagen	gemein	1	blank2r.bmp	0	1	+	0	1	blank2r.bmp	500	1	CPLW	500	1	blank2r.bmp	880	5	bange	880	1	!	1232	1	!	-1	0	0	0	0	0	0
2024-06-06	11:32:17	11:42:32	613952	6.6.1	4_exp_EVA_AWA_CON	72	A	B	Rpleas_acq	Oppo	Rpleas	2pleas	acq_US_unple_nomask	acq45_nomask	5	25	400	0	300	300	0	0	478	50	0	0	kreativ	engagiert	gesittet	kuss	besonnen	träumen	krank	engstirnig	geizig	krise	bange	töten	sonnig	vergnügt	gütig	anregung	vertrauen	genießen	sterben	verbissen	gierig	ausrottung	versagen	gemein	1	blank2r.bmp	0	1	+	0	1	blank2r.bmp	500	1	CPLW	500	1	blank2r.bmp	880	3	geizig	880	1	!	1232	1	!	-1	0	0	0	0	0	0
2024-06-06	11:32:17	11:42:34	616233	6.6.1	4_exp_EVA_AWA_CON	72	A	B	Rpleas_acq	Oppo	Rpleas	2pleas	acq_US_pleas_nomask	acq45_nomask	5	26	400	0	300	300	0	0	506	46	0	0	kreativ	engagiert	gesittet	kuss	besonnen	träumen	krank	engstirnig	geizig	krise	bange	töten	sonnig	vergnügt	gütig	anregung	vertrauen	genießen	sterben	verbissen	gierig	ausrottung	versagen	gemein	1	blank2r.bmp	0	1	+	0	1	blank2r.bmp	500	1	DHJF	500	1	blank2r.bmp	880	4	kuss	880	1	!	1232	1	!	-1	0	0	0	0	0	0
2024-06-06	11:32:17	11:42:36	618467	6.6.1	4_exp_EVA_AWA_CON	72	A	B	Rpleas_acq	Oppo	Rpleas	2pleas	acq_US_pleas_nomask	acq45_nomask	5	27	400	1	300	300	0	0	457	50	1	0	kreativ	engagiert	gesittet	kuss	besonnen	träumen	krank	engstirnig	geizig	krise	bange	töten	sonnig	vergnügt	gütig	anregung	vertrauen	genießen	sterben	verbissen	gierig	ausrottung	versagen	gemein	1	blank2r.bmp	0	1	+	0	1	blank2r.bmp	500	1	DHJF	500	1	blank2r.bmp	880	1	kreativ	880	1	!	1232	1	!	1358	0	0	0	0	0	0
2024-06-06	11:32:17	11:42:38	620667	6.6.1	4_exp_EVA_AWA_CON	72	A	B	Rpleas_acq	Oppo	Rpleas	2pleas	acq_US_unple_nomask	acq45_nomask	5	28	400	1	300	300	0	0	425	46	1	0	kreativ	engagiert	gesittet	kuss	besonnen	träumen	krank	engstirnig	geizig	krise	bange	töten	sonnig	vergnügt	gütig	anregung	vertrauen	genießen	sterben	verbissen	gierig	ausrottung	versagen	gemein	1	blank2r.bmp	0	1	+	0	1	blank2r.bmp	500	1	CPLW	500	1	blank2r.bmp	880	3	geizig	880	1	!	1232	1	!	1326	0	0	0	0	0	0
2024-06-06	11:32:17	11:42:41	622875	6.6.1	4_exp_EVA_AWA_CON	72	A	B	Rpleas_acq	Oppo	Rpleas	2pleas	acq_US_unple_nomask	acq45_nomask	5	29	400	1	300	300	0	0	432	46	1	0	kreativ	engagiert	gesittet	kuss	besonnen	träumen	krank	engstirnig	geizig	krise	bange	töten	sonnig	vergnügt	gütig	anregung	vertrauen	genießen	sterben	verbissen	gierig	ausrottung	versagen	gemein	1	blank2r.bmp	0	1	+	0	1	blank2r.bmp	500	1	CPLW	500	1	blank2r.bmp	880	1	krank	880	1	!	1232	1	!	1333	0	0	0	0	0	0
2024-06-06	11:32:17	11:42:43	625116	6.6.1	4_exp_EVA_AWA_CON	72	A	B	Rpleas_acq	Oppo	Rpleas	2pleas	acq_US_unple_nomask	acq45_nomask	5	30	400	1	300	300	0	0	460	46	1	0	kreativ	engagiert	gesittet	kuss	besonnen	träumen	krank	engstirnig	geizig	krise	bange	töten	sonnig	vergnügt	gütig	anregung	vertrauen	genießen	sterben	verbissen	gierig	ausrottung	versagen	gemein	1	blank2r.bmp	0	1	+	0	1	blank2r.bmp	500	1	CPLW	500	1	blank2r.bmp	880	5	bange	880	1	!	1232	1	!	1362	0	0	0	0	0	0
2024-06-06	11:32:17	11:42:45	627299	6.6.1	4_exp_EVA_AWA_CON	72	A	B	Rpleas_acq	Oppo	Rpleas	2pleas	acq_US_unple_nomask	acq45_nomask	5	31	400	1	300	300	0	0	403	50	0	0	kreativ	engagiert	gesittet	kuss	besonnen	träumen	krank	engstirnig	geizig	krise	bange	töten	sonnig	vergnügt	gütig	anregung	vertrauen	genießen	sterben	verbissen	gierig	ausrottung	versagen	gemein	1	blank2r.bmp	0	1	+	0	1	blank2r.bmp	500	1	CPLW	500	1	blank2r.bmp	880	2	engstirnig	880	1	!	1232	1	!	1304	0	0	0	0	0	0
2024-06-06	11:32:17	11:42:47	629499	6.6.1	4_exp_EVA_AWA_CON	72	A	B	Rpleas_acq	Oppo	Rpleas	2pleas	acq_US_unple_nomask	acq45_nomask	5	32	400	1	300	300	0	0	422	50	0	0	kreativ	engagiert	gesittet	kuss	besonnen	träumen	krank	engstirnig	geizig	krise	bange	töten	sonnig	vergnügt	gütig	anregung	vertrauen	genießen	sterben	verbissen	gierig	ausrottung	versagen	gemein	1	blank2r.bmp	0	1	+	0	1	blank2r.bmp	500	1	CPLW	500	1	blank2r.bmp	880	6	töten	880	1	!	1232	1	!	1322	0	0	0	0	0	0
2024-06-06	11:32:17	11:42:49	631700	6.6.1	4_exp_EVA_AWA_CON	72	A	B	Rpleas_acq	Oppo	Rpleas	2pleas	acq_US_pleas_nomask	acq45_nomask	5	33	400	1	300	300	0	0	420	46	0	0	kreativ	engagiert	gesittet	kuss	besonnen	träumen	krank	engstirnig	geizig	krise	bange	töten	sonnig	vergnügt	gütig	anregung	vertrauen	genießen	sterben	verbissen	gierig	ausrottung	versagen	gemein	1	blank2r.bmp	0	1	+	0	1	blank2r.bmp	500	1	DHJF	500	1	blank2r.bmp	880	6	träumen	880	1	!	1232	1	!	1322	0	0	0	0	0	0
2024-06-06	11:32:17	11:42:52	633851	6.6.1	4_exp_EVA_AWA_CON	72	A	B	Rpleas_acq	Oppo	Rpleas	2pleas	acq_US_unple_nomask	acq45_nomask	5	34	400	1	300	300	0	0	371	46	1	0	kreativ	engagiert	gesittet	kuss	besonnen	träumen	krank	engstirnig	geizig	krise	bange	töten	sonnig	vergnügt	gütig	anregung	vertrauen	genießen	sterben	verbissen	gierig	ausrottung	versagen	gemein	1	blank2r.bmp	0	1	+	0	1	blank2r.bmp	500	1	CPLW	500	1	blank2r.bmp	880	4	krise	880	1	!	1232	1	!	1272	0	0	0	0	0	0
2024-06-06	11:32:17	11:42:54	636067	6.6.1	4_exp_EVA_AWA_CON	72	A	B	Rpleas_acq	Oppo	Rpleas	2pleas	acq_US_pleas_nomask	acq45_nomask	5	35	400	1	300	300	0	0	435	46	0	0	kreativ	engagiert	gesittet	kuss	besonnen	träumen	krank	engstirnig	geizig	krise	bange	töten	sonnig	vergnügt	gütig	anregung	vertrauen	genießen	sterben	verbissen	gierig	ausrottung	versagen	gemein	1	blank2r.bmp	0	1	+	0	1	blank2r.bmp	500	1	DHJF	500	1	blank2r.bmp	880	5	besonnen	880	1	!	1232	1	!	1336	0	0	0	0	0	0
2024-06-06	11:32:17	11:42:56	638291	6.6.1	4_exp_EVA_AWA_CON	72	A	B	Rpleas_acq	Oppo	Rpleas	2pleas	acq_US_pleas_nomask	acq45_nomask	5	36	400	1	300	300	0	0	448	46	0	0	kreativ	engagiert	gesittet	kuss	besonnen	träumen	krank	engstirnig	geizig	krise	bange	töten	sonnig	vergnügt	gütig	anregung	vertrauen	genießen	sterben	verbissen	gierig	ausrottung	versagen	gemein	1	blank2r.bmp	0	1	+	0	1	blank2r.bmp	500	1	DHJF	500	1	blank2r.bmp	880	3	gesittet	880	1	!	1233	1	!	1349	0	0	0	0	0	0
2024-06-06	11:32:17	11:43:19	661029	6.6.1	4_exp_EVA_AWA_CON	72	A	B	Rpleas_acq	Oppo	Lpleas	2pleas	EvalRating_firsttwo	EvalRating_firsttwo	6	1	0	0	300	300	0	0	5968	line	0	-8,59375pct	kreativ	engagiert	gesittet	kuss	besonnen	träumen	krank	engstirnig	geizig	krise	bange	töten	sonnig	vergnügt	gütig	anregung	vertrauen	genießen	sterben	verbissen	gierig	ausrottung	versagen	gemein	1		-7	1	Wie angenehm oder unangenehm finden Sie die  Buchstabenkette WDLH?	-7	1		-7	1		-7	1		-7	1	Unangenehm	-7	1	Angenehm	-7	0	0	0	0	0	0	0	0	0
2024-06-06	11:32:17	11:43:25	667054	6.6.1	4_exp_EVA_AWA_CON	72	A	B	Rpleas_acq	Oppo	Lpleas	2pleas	EvalRating_lastfour	EvalRating_lastfour	7	1	0	0	300	300	0	0	3646	line	0	33,984375pct	kreativ	engagiert	gesittet	kuss	besonnen	träumen	krank	engstirnig	geizig	krise	bange	töten	sonnig	vergnügt	gütig	anregung	vertrauen	genießen	sterben	verbissen	gierig	ausrottung	versagen	gemein	1		-8	3	Wie angenehm oder unangenehm finden Sie die  Buchstabenkette FCJP?	-8	1		-8	1		-8	1		-8	1	Unangenehm	-8	1	Angenehm	-8	0	0	0	0	0	0	0	0	0
2024-06-06	11:32:17	11:43:27	669423	6.6.1	4_exp_EVA_AWA_CON	72	A	B	Rpleas_acq	Oppo	Lpleas	2pleas	blank_screen	EvalRating_lastfour	7	3	0	0	300	300	0	0	0	0	0	33,984375pct	kreativ	engagiert	gesittet	kuss	besonnen	träumen	krank	engstirnig	geizig	krise	bange	töten	sonnig	vergnügt	gütig	anregung	vertrauen	genießen	sterben	verbissen	gierig	ausrottung	versagen	gemein	1		-8	0	0	0	0	0	0	0	0	0	0	0	0	0	0	0	0	0	0	0	0	0	0	0	0	0	0	0
2024-06-06	11:32:17	11:43:30	672830	6.6.1	4_exp_EVA_AWA_CON	72	A	B	Rpleas_acq	Oppo	Lpleas	2pleas	EvalRating_lastfour	EvalRating_lastfour	7	4	0	0	300	300	0	0	2818	line	0	49,609375pct	kreativ	engagiert	gesittet	kuss	besonnen	träumen	krank	engstirnig	geizig	krise	bange	töten	sonnig	vergnügt	gütig	anregung	vertrauen	genießen	sterben	verbissen	gierig	ausrottung	versagen	gemein	1		-8	1	Wie angenehm oder unangenehm finden Sie die  Buchstabenkette CPLW?	-8	1		-8	1		-8	1		-8	1	Unangenehm	-8	1	Angenehm	-8	0	0	0	0	0	0	0	0	0
2024-06-06	11:32:17	11:43:33	675197	6.6.1	4_exp_EVA_AWA_CON	72	A	B	Rpleas_acq	Oppo	Lpleas	2pleas	blank_screen	EvalRating_lastfour	7	6	0	0	300	300	0	0	0	0	0	49,609375pct	kreativ	engagiert	gesittet	kuss	besonnen	träumen	krank	engstirnig	geizig	krise	bange	töten	sonnig	vergnügt	gütig	anregung	vertrauen	genießen	sterben	verbissen	gierig	ausrottung	versagen	gemein	1		-8	0	0	0	0	0	0	0	0	0	0	0	0	0	0	0	0	0	0	0	0	0	0	0	0	0	0	0
2024-06-06	11:32:17	11:43:35	677695	6.6.1	4_exp_EVA_AWA_CON	72	A	B	Rpleas_acq	Oppo	Lpleas	2pleas	EvalRating_lastfour	EvalRating_lastfour	7	7	0	0	300	300	0	0	1909	line	0	39,84375pct	kreativ	engagiert	gesittet	kuss	besonnen	träumen	krank	engstirnig	geizig	krise	bange	töten	sonnig	vergnügt	gütig	anregung	vertrauen	genießen	sterben	verbissen	gierig	ausrottung	versagen	gemein	1		-8	2	Wie angenehm oder unangenehm finden Sie die  Buchstabenkette DHJF?	-8	1		-8	1		-8	1		-8	1	Unangenehm	-8	1	Angenehm	-8	0	0	0	0	0	0	0	0	0
2024-06-06	11:32:17	11:44:18	719964	6.6.1	4_exp_EVA_AWA_CON	72	A	B	Rpleas_acq	Oppo	Lpleas	2pleas	conawa_CS2_US3	conawa1_nomask	8	1	0	0	300	300	0	0	9068	geizig	1	39,84375pct	kreativ	engagiert	gesittet	kuss	besonnen	träumen	krank	engstirnig	geizig	krise	bange	töten	sonnig	vergnügt	gütig	anregung	vertrauen	genießen	sterben	verbissen	gierig	ausrottung	versagen	gemein	0	0	0	0	0	0	0	0	0	0	0	0	0	0	0	0	0	0	0	0	0	0	0	0	0	0	0	0	0	0
2024-06-06	11:32:17	11:44:18	719966	6.6.1	4_exp_EVA_AWA_CON	72	A	B	Rpleas_acq	Oppo	Lpleas	2pleas	conawa_CS2_US3_confidence	conawa1_nomask	8	1	0	0	300	300	0	0	9068	guess	1	39,84375pct	kreativ	engagiert	gesittet	kuss	besonnen	träumen	krank	engstirnig	geizig	krise	bange	töten	sonnig	vergnügt	gütig	anregung	vertrauen	genießen	sterben	verbissen	gierig	ausrottung	versagen	gemein	0	0	0	0	0	0	0	0	0	0	0	0	0	0	0	0	0	0	0	0	0	0	0	0	0	0	0	0	0	0
2024-06-06	11:32:17	11:44:25	727048	6.6.1	4_exp_EVA_AWA_CON	72	A	B	Rpleas_acq	Oppo	Lpleas	2pleas	conawa_CS2_US5	conawa1_nomask	8	2	0	0	300	300	0	0	6467	genießen	1	39,84375pct	kreativ	engagiert	gesittet	kuss	besonnen	träumen	krank	engstirnig	geizig	krise	bange	töten	sonnig	vergnügt	gütig	anregung	vertrauen	genießen	sterben	verbissen	gierig	ausrottung	versagen	gemein	0	0	0	0	0	0	0	0	0	0	0	0	0	0	0	0	0	0	0	0	0	0	0	0	0	0	0	0	0	0
2024-06-06	11:32:17	11:44:25	727050	6.6.1	4_exp_EVA_AWA_CON	72	A	B	Rpleas_acq	Oppo	Lpleas	2pleas	conawa_CS2_US5_confidence	conawa1_nomask	8	2	0	0	300	300	0	0	6467	probably	1	39,84375pct	kreativ	engagiert	gesittet	kuss	besonnen	träumen	krank	engstirnig	geizig	krise	bange	töten	sonnig	vergnügt	gütig	anregung	vertrauen	genießen	sterben	verbissen	gierig	ausrottung	versagen	gemein	0	0	0	0	0	0	0	0	0	0	0	0	0	0	0	0	0	0	0	0	0	0	0	0	0	0	0	0	0	0
2024-06-06	11:32:17	11:44:35	736995	6.6.1	4_exp_EVA_AWA_CON	72	A	B	Rpleas_acq	Oppo	Lpleas	2pleas	conawa_CS2_US1	conawa1_nomask	8	3	0	0	300	300	0	0	9334	krank	1	39,84375pct	kreativ	engagiert	gesittet	kuss	besonnen	träumen	krank	engstirnig	geizig	krise	bange	töten	sonnig	vergnügt	gütig	anregung	vertrauen	genießen	sterben	verbissen	gierig	ausrottung	versagen	gemein	0	0	0	0	0	0	0	0	0	0	0	0	0	0	0	0	0	0	0	0	0	0	0	0	0	0	0	0	0	0
2024-06-06	11:32:17	11:44:35	736996	6.6.1	4_exp_EVA_AWA_CON	72	A	B	Rpleas_acq	Oppo	Lpleas	2pleas	conawa_CS2_US1_confidence	conawa1_nomask	8	3	0	0	300	300	0	0	9334	probably	1	39,84375pct	kreativ	engagiert	gesittet	kuss	besonnen	träumen	krank	engstirnig	geizig	krise	bange	töten	sonnig	vergnügt	gütig	anregung	vertrauen	genießen	sterben	verbissen	gierig	ausrottung	versagen	gemein	0	0	0	0	0	0	0	0	0	0	0	0	0	0	0	0	0	0	0	0	0	0	0	0	0	0	0	0	0	0
2024-06-06	11:32:17	11:44:47	749313	6.6.1	4_exp_EVA_AWA_CON	72	A	B	Rpleas_acq	Oppo	Lpleas	2pleas	conawa_CS2_US4	conawa1_nomask	8	4	0	0	300	300	0	0	11700	kuss	1	39,84375pct	kreativ	engagiert	gesittet	kuss	besonnen	träumen	krank	engstirnig	geizig	krise	bange	töten	sonnig	vergnügt	gütig	anregung	vertrauen	genießen	sterben	verbissen	gierig	ausrottung	versagen	gemein	0	0	0	0	0	0	0	0	0	0	0	0	0	0	0	0	0	0	0	0	0	0	0	0	0	0	0	0	0	0
2024-06-06	11:32:17	11:44:47	749315	6.6.1	4_exp_EVA_AWA_CON	72	A	B	Rpleas_acq	Oppo	Lpleas	2pleas	conawa_CS2_US4_confidence	conawa1_nomask	8	4	0	0	300	300	0	0	11700	guess	1	39,84375pct	kreativ	engagiert	gesittet	kuss	besonnen	träumen	krank	engstirnig	geizig	krise	bange	töten	sonnig	vergnügt	gütig	anregung	vertrauen	genießen	sterben	verbissen	gierig	ausrottung	versagen	gemein	0	0	0	0	0	0	0	0	0	0	0	0	0	0	0	0	0	0	0	0	0	0	0	0	0	0	0	0	0	0
2024-06-06	11:32:17	11:44:54	756768	6.6.1	4_exp_EVA_AWA_CON	72	A	B	Rpleas_acq	Oppo	Lpleas	2pleas	conawa_CS1_US2	conawa1_nomask	8	5	0	0	300	300	0	0	6837	engstirnig	1	39,84375pct	kreativ	engagiert	gesittet	kuss	besonnen	träumen	krank	engstirnig	geizig	krise	bange	töten	sonnig	vergnügt	gütig	anregung	vertrauen	genießen	sterben	verbissen	gierig	ausrottung	versagen	gemein	0	0	0	0	0	0	0	0	0	0	0	0	0	0	0	0	0	0	0	0	0	0	0	0	0	0	0	0	0	0
2024-06-06	11:32:17	11:44:54	756769	6.6.1	4_exp_EVA_AWA_CON	72	A	B	Rpleas_acq	Oppo	Lpleas	2pleas	conawa_CS1_US2_confidence	conawa1_nomask	8	5	0	0	300	300	0	0	6837	probably	1	39,84375pct	kreativ	engagiert	gesittet	kuss	besonnen	träumen	krank	engstirnig	geizig	krise	bange	töten	sonnig	vergnügt	gütig	anregung	vertrauen	genießen	sterben	verbissen	gierig	ausrottung	versagen	gemein	0	0	0	0	0	0	0	0	0	0	0	0	0	0	0	0	0	0	0	0	0	0	0	0	0	0	0	0	0	0
2024-06-06	11:32:17	11:45:03	765533	6.6.1	4_exp_EVA_AWA_CON	72	A	B	Rpleas_acq	Oppo	Lpleas	2pleas	conawa_CS2_US2	conawa1_nomask	8	6	0	0	300	300	0	0	8153	gierig	1	39,84375pct	kreativ	engagiert	gesittet	kuss	besonnen	träumen	krank	engstirnig	geizig	krise	bange	töten	sonnig	vergnügt	gütig	anregung	vertrauen	genießen	sterben	verbissen	gierig	ausrottung	versagen	gemein	0	0	0	0	0	0	0	0	0	0	0	0	0	0	0	0	0	0	0	0	0	0	0	0	0	0	0	0	0	0
2024-06-06	11:32:17	11:45:03	765535	6.6.1	4_exp_EVA_AWA_CON	72	A	B	Rpleas_acq	Oppo	Lpleas	2pleas	conawa_CS2_US2_confidence	conawa1_nomask	8	6	0	0	300	300	0	0	8153	probably	1	39,84375pct	kreativ	engagiert	gesittet	kuss	besonnen	träumen	krank	engstirnig	geizig	krise	bange	töten	sonnig	vergnügt	gütig	anregung	vertrauen	genießen	sterben	verbissen	gierig	ausrottung	versagen	gemein	0	0	0	0	0	0	0	0	0	0	0	0	0	0	0	0	0	0	0	0	0	0	0	0	0	0	0	0	0	0
2024-06-06	11:32:17	11:45:12	774609	6.6.1	4_exp_EVA_AWA_CON	72	A	B	Rpleas_acq	Oppo	Lpleas	2pleas	conawa_CS1_US6	conawa1_nomask	8	7	0	0	300	300	0	0	8456	träumen	1	39,84375pct	kreativ	engagiert	gesittet	kuss	besonnen	träumen	krank	engstirnig	geizig	krise	bange	töten	sonnig	vergnügt	gütig	anregung	vertrauen	genießen	sterben	verbissen	gierig	ausrottung	versagen	gemein	0	0	0	0	0	0	0	0	0	0	0	0	0	0	0	0	0	0	0	0	0	0	0	0	0	0	0	0	0	0
2024-06-06	11:32:17	11:45:12	774611	6.6.1	4_exp_EVA_AWA_CON	72	A	B	Rpleas_acq	Oppo	Lpleas	2pleas	conawa_CS1_US6_confidence	conawa1_nomask	8	7	0	0	300	300	0	0	8456	guess	1	39,84375pct	kreativ	engagiert	gesittet	kuss	besonnen	träumen	krank	engstirnig	geizig	krise	bange	töten	sonnig	vergnügt	gütig	anregung	vertrauen	genießen	sterben	verbissen	gierig	ausrottung	versagen	gemein	0	0	0	0	0	0	0	0	0	0	0	0	0	0	0	0	0	0	0	0	0	0	0	0	0	0	0	0	0	0
2024-06-06	11:32:17	11:45:22	784426	6.6.1	4_exp_EVA_AWA_CON	72	A	B	Rpleas_acq	Oppo	Lpleas	2pleas	conawa_CS1_US5	conawa1_nomask	8	8	0	0	300	300	0	0	9200	besonnen	1	39,84375pct	kreativ	engagiert	gesittet	kuss	besonnen	träumen	krank	engstirnig	geizig	krise	bange	töten	sonnig	vergnügt	gütig	anregung	vertrauen	genießen	sterben	verbissen	gierig	ausrottung	versagen	gemein	0	0	0	0	0	0	0	0	0	0	0	0	0	0	0	0	0	0	0	0	0	0	0	0	0	0	0	0	0	0
2024-06-06	11:32:17	11:45:22	784427	6.6.1	4_exp_EVA_AWA_CON	72	A	B	Rpleas_acq	Oppo	Lpleas	2pleas	conawa_CS1_US5_confidence	conawa1_nomask	8	8	0	0	300	300	0	0	9200	guess	1	39,84375pct	kreativ	engagiert	gesittet	kuss	besonnen	träumen	krank	engstirnig	geizig	krise	bange	töten	sonnig	vergnügt	gütig	anregung	vertrauen	genießen	sterben	verbissen	gierig	ausrottung	versagen	gemein	0	0	0	0	0	0	0	0	0	0	0	0	0	0	0	0	0	0	0	0	0	0	0	0	0	0	0	0	0	0
2024-06-06	11:32:17	11:45:29	790930	6.6.1	4_exp_EVA_AWA_CON	72	A	B	Rpleas_acq	Oppo	Lpleas	2pleas	conawa_CS1_US3	conawa1_nomask	8	9	0	0	300	300	0	0	5886	geizig	1	39,84375pct	kreativ	engagiert	gesittet	kuss	besonnen	träumen	krank	engstirnig	geizig	krise	bange	töten	sonnig	vergnügt	gütig	anregung	vertrauen	genießen	sterben	verbissen	gierig	ausrottung	versagen	gemein	0	0	0	0	0	0	0	0	0	0	0	0	0	0	0	0	0	0	0	0	0	0	0	0	0	0	0	0	0	0
2024-06-06	11:32:17	11:45:29	790931	6.6.1	4_exp_EVA_AWA_CON	72	A	B	Rpleas_acq	Oppo	Lpleas	2pleas	conawa_CS1_US3_confidence	conawa1_nomask	8	9	0	0	300	300	0	0	5886	guess	1	39,84375pct	kreativ	engagiert	gesittet	kuss	besonnen	träumen	krank	engstirnig	geizig	krise	bange	töten	sonnig	vergnügt	gütig	anregung	vertrauen	genießen	sterben	verbissen	gierig	ausrottung	versagen	gemein	0	0	0	0	0	0	0	0	0	0	0	0	0	0	0	0	0	0	0	0	0	0	0	0	0	0	0	0	0	0
2024-06-06	11:32:17	11:45:34	796314	6.6.1	4_exp_EVA_AWA_CON	72	A	B	Rpleas_acq	Oppo	Lpleas	2pleas	conawa_CS1_US4	conawa1_nomask	8	10	0	0	300	300	0	0	4765	krise	1	39,84375pct	kreativ	engagiert	gesittet	kuss	besonnen	träumen	krank	engstirnig	geizig	krise	bange	töten	sonnig	vergnügt	gütig	anregung	vertrauen	genießen	sterben	verbissen	gierig	ausrottung	versagen	gemein	0	0	0	0	0	0	0	0	0	0	0	0	0	0	0	0	0	0	0	0	0	0	0	0	0	0	0	0	0	0
2024-06-06	11:32:17	11:45:34	796315	6.6.1	4_exp_EVA_AWA_CON	72	A	B	Rpleas_acq	Oppo	Lpleas	2pleas	conawa_CS1_US4_confidence	conawa1_nomask	8	10	0	0	300	300	0	0	4765	probably	1	39,84375pct	kreativ	engagiert	gesittet	kuss	besonnen	träumen	krank	engstirnig	geizig	krise	bange	töten	sonnig	vergnügt	gütig	anregung	vertrauen	genießen	sterben	verbissen	gierig	ausrottung	versagen	gemein	0	0	0	0	0	0	0	0	0	0	0	0	0	0	0	0	0	0	0	0	0	0	0	0	0	0	0	0	0	0
2024-06-06	11:32:17	11:45:40	802357	6.6.1	4_exp_EVA_AWA_CON	72	A	B	Rpleas_acq	Oppo	Lpleas	2pleas	conawa_CS1_US1	conawa1_nomask	8	11	0	0	300	300	0	0	5430	krank	1	39,84375pct	kreativ	engagiert	gesittet	kuss	besonnen	träumen	krank	engstirnig	geizig	krise	bange	töten	sonnig	vergnügt	gütig	anregung	vertrauen	genießen	sterben	verbissen	gierig	ausrottung	versagen	gemein	0	0	0	0	0	0	0	0	0	0	0	0	0	0	0	0	0	0	0	0	0	0	0	0	0	0	0	0	0	0
2024-06-06	11:32:17	11:45:40	802359	6.6.1	4_exp_EVA_AWA_CON	72	A	B	Rpleas_acq	Oppo	Lpleas	2pleas	conawa_CS1_US1_confidence	conawa1_nomask	8	11	0	0	300	300	0	0	5430	guess	1	39,84375pct	kreativ	engagiert	gesittet	kuss	besonnen	träumen	krank	engstirnig	geizig	krise	bange	töten	sonnig	vergnügt	gütig	anregung	vertrauen	genießen	sterben	verbissen	gierig	ausrottung	versagen	gemein	0	0	0	0	0	0	0	0	0	0	0	0	0	0	0	0	0	0	0	0	0	0	0	0	0	0	0	0	0	0
2024-06-06	11:32:17	11:45:45	807380	6.6.1	4_exp_EVA_AWA_CON	72	A	B	Rpleas_acq	Oppo	Lpleas	2pleas	conawa_CS2_US6	conawa1_nomask	8	12	0	0	300	300	0	0	4411	träumen	1	39,84375pct	kreativ	engagiert	gesittet	kuss	besonnen	träumen	krank	engstirnig	geizig	krise	bange	töten	sonnig	vergnügt	gütig	anregung	vertrauen	genießen	sterben	verbissen	gierig	ausrottung	versagen	gemein	0	0	0	0	0	0	0	0	0	0	0	0	0	0	0	0	0	0	0	0	0	0	0	0	0	0	0	0	0	0
2024-06-06	11:32:17	11:45:45	807382	6.6.1	4_exp_EVA_AWA_CON	72	A	B	Rpleas_acq	Oppo	Lpleas	2pleas	conawa_CS2_US6_confidence	conawa1_nomask	8	12	0	0	300	300	0	0	4411	guess	1	39,84375pct	kreativ	engagiert	gesittet	kuss	besonnen	träumen	krank	engstirnig	geizig	krise	bange	töten	sonnig	vergnügt	gütig	anregung	vertrauen	genießen	sterben	verbissen	gierig	ausrottung	versagen	gemein	0	0	0	0	0	0	0	0	0	0	0	0	0	0	0	0	0	0	0	0	0	0	0	0	0	0	0	0	0	0
2024-06-06	11:32:17	11:46:45	867115	6.6.1	4_exp_EVA_AWA_CON	72	A	B	Rpleas_acq	Oppo	Lpleas	2pleas	cond_new_pleas_456_nomask_CS1	condtest_nomask_1	11	1	400	1	300	300	0	0	385	46	1	39,84375pct	kreativ	engagiert	gesittet	kuss	besonnen	träumen	krank	engstirnig	geizig	krise	bange	töten	sonnig	vergnügt	gütig	anregung	vertrauen	genießen	sterben	verbissen	gierig	ausrottung	versagen	gemein	1	blank2r.bmp	0	1	+	0	1	blank2r.bmp	500	1	CPLW	500	1	blank2r.bmp	880	3	genießen	880	1	!	1232	1	!	1286	0	0	0	0	0	0
2024-06-06	11:32:17	11:46:47	869323	6.6.1	4_exp_EVA_AWA_CON	72	A	B	Rpleas_acq	Oppo	Lpleas	2pleas	cond_US_pleas_123_nomask_CS1	condtest_nomask_1	11	2	400	1	300	300	0	0	431	46	1	39,84375pct	kreativ	engagiert	gesittet	kuss	besonnen	träumen	krank	engstirnig	geizig	krise	bange	töten	sonnig	vergnügt	gütig	anregung	vertrauen	genießen	sterben	verbissen	gierig	ausrottung	versagen	gemein	1	blank2r.bmp	0	1	+	0	1	blank2r.bmp	500	1	CPLW	500	1	blank2r.bmp	880	3	gesittet	880	1	!	1232	1	!	1333	0	0	0	0	0	0
