date	time	currenttime	elapsedtime	build	currentexpt	subject	CS_AB	US_AB	LRpleas_acq	SameOppo	condition_Lpleas	condition_1pleas	trialcode	blockcode	blocknum	trialnum	windowcenter	inwindow	pretrialpause	posttrialpause	trialduration	trialtimeout	latency	response	correct	correctedscore	US_nomask_pleas1	US_nomask_pleas2	US_nomask_pleas3	US_nomask_pleas4	US_nomask_pleas5	US_nomask_pleas6	US_nomask_unple1	US_nomask_unple2	US_nomask_unple3	US_nomask_unple4	US_nomask_unple5	US_nomask_unple6	new_nomask_pleas1	new_nomask_pleas2	new_nomask_pleas3	new_nomask_pleas4	new_nomask_pleas5	new_nomask_pleas6	new_nomask_unple1	new_nomask_unple2	new_nomask_unple3	new_nomask_unple4	new_nomask_unple5	new_nomask_unple6	stimulusnumber1	stimulusitem1	stimulusonset1	stimulusnumber2	stimulusitem2	stimulusonset2	stimulusnumber3	stimulusitem3	stimulusonset3	stimulusnumber4	stimulusitem4	stimulusonset4	stimulusnumber5	stimulusitem5	stimulusonset5	stimulusnumber6	stimulusitem6	stimulusonset6	stimulusnumber7	stimulusitem7	stimulusonset7	stimulusnumber8	stimulusitem8	stimulusonset8	stimulusnumber9	stimulusitem9	stimulusonset9	stimulusnumber10	stimulusitem10	stimulusonset10
2024-05-29	10:32:26	10:34:06	99937	6.6.1	4_exp_EVA_AWA_CON	59	B	A	Rpleas_acq	Same	Rpleas	2pleas	acq_new_unple_nomask	acq1_nomask	1	1	0	0	300	300	0	0	1630	46	1	0	lachen	retten	helfen	tolerant	spielen	loyal	leiden	rächen	hindern	tyrannisch	strafen	lasch	ehrlich	fair	schön	treu	schlau	freundlich	eitel	faul	schlecht	tot	schroff	fanatisch	1	blank2r.bmp	0	1	+	0	1	blank2r.bmp	500	1	B1r.bmp	500	1	blank2r.bmp	880	6	fanatisch	880	0	0	0	0	0	0	0	0	0	0	0	0
2024-05-29	10:32:26	10:34:08	102522	6.6.1	4_exp_EVA_AWA_CON	59	B	A	Rpleas_acq	Same	Rpleas	2pleas	acq_new_unple_nomask	acq1_nomask	1	2	0	0	300	300	0	0	1102	46	1	0	lachen	retten	helfen	tolerant	spielen	loyal	leiden	rächen	hindern	tyrannisch	strafen	lasch	ehrlich	fair	schön	treu	schlau	freundlich	eitel	faul	schlecht	tot	schroff	fanatisch	1	blank2r.bmp	0	1	+	0	1	blank2r.bmp	500	5	C1r.bmp	500	1	blank2r.bmp	880	4	tot	880	0	0	0	0	0	0	0	0	0	0	0	0
2024-05-29	10:32:26	10:34:11	105081	6.6.1	4_exp_EVA_AWA_CON	59	B	A	Rpleas_acq	Same	Rpleas	2pleas	acq_US_pleas_nomask	acq1_nomask	1	3	0	0	300	300	0	0	1080	50	1	0	lachen	retten	helfen	tolerant	spielen	loyal	leiden	rächen	hindern	tyrannisch	strafen	lasch	ehrlich	fair	schön	treu	schlau	freundlich	eitel	faul	schlecht	tot	schroff	fanatisch	1	blank2r.bmp	0	1	+	0	1	blank2r.bmp	500	1	GKQX	500	1	blank2r.bmp	880	4	tolerant	880	0	0	0	0	0	0	0	0	0	0	0	0
2024-05-29	10:32:26	10:34:13	107474	6.6.1	4_exp_EVA_AWA_CON	59	B	A	Rpleas_acq	Same	Rpleas	2pleas	acq_new_pleas_nomask	acq1_nomask	1	4	0	0	300	300	0	0	910	50	1	0	lachen	retten	helfen	tolerant	spielen	loyal	leiden	rächen	hindern	tyrannisch	strafen	lasch	ehrlich	fair	schön	treu	schlau	freundlich	eitel	faul	schlecht	tot	schroff	fanatisch	1	blank2r.bmp	0	1	+	0	1	blank2r.bmp	500	8	C4r.bmp	500	1	blank2r.bmp	880	2	fair	880	0	0	0	0	0	0	0	0	0	0	0	0
2024-05-29	10:32:26	10:34:17	111321	6.6.1	4_exp_EVA_AWA_CON	59	B	A	Rpleas_acq	Same	Rpleas	2pleas	acq_US_unple_nomask	acq1_nomask	1	5	0	0	300	300	0	0	2367	46	1	0	lachen	retten	helfen	tolerant	spielen	loyal	leiden	rächen	hindern	tyrannisch	strafen	lasch	ehrlich	fair	schön	treu	schlau	freundlich	eitel	faul	schlecht	tot	schroff	fanatisch	1	blank2r.bmp	0	1	+	0	1	blank2r.bmp	500	1	BMVZ	500	1	blank2r.bmp	880	4	tyrannisch	880	0	0	0	0	0	0	0	0	0	0	0	0
2024-05-29	10:32:26	10:34:20	113953	6.6.1	4_exp_EVA_AWA_CON	59	B	A	Rpleas_acq	Same	Rpleas	2pleas	acq_US_pleas_nomask	acq1_nomask	1	6	0	0	300	300	0	0	1146	50	1	0	lachen	retten	helfen	tolerant	spielen	loyal	leiden	rächen	hindern	tyrannisch	strafen	lasch	ehrlich	fair	schön	treu	schlau	freundlich	eitel	faul	schlecht	tot	schroff	fanatisch	1	blank2r.bmp	0	1	+	0	1	blank2r.bmp	500	1	GKQX	500	1	blank2r.bmp	880	1	lachen	880	0	0	0	0	0	0	0	0	0	0	0	0
2024-05-29	10:32:26	10:34:22	116362	6.6.1	4_exp_EVA_AWA_CON	59	B	A	Rpleas_acq	Same	Rpleas	2pleas	acq_new_unple_nomask	acq1_nomask	1	7	0	0	300	300	0	0	923	46	1	0	lachen	retten	helfen	tolerant	spielen	loyal	leiden	rächen	hindern	tyrannisch	strafen	lasch	ehrlich	fair	schön	treu	schlau	freundlich	eitel	faul	schlecht	tot	schroff	fanatisch	1	blank2r.bmp	0	1	+	0	1	blank2r.bmp	500	3	B3r.bmp	500	1	blank2r.bmp	880	2	faul	880	0	0	0	0	0	0	0	0	0	0	0	0
2024-05-29	10:32:26	10:34:25	118745	6.6.1	4_exp_EVA_AWA_CON	59	B	A	Rpleas_acq	Same	Rpleas	2pleas	acq_new_pleas_nomask	acq1_nomask	1	8	0	0	300	300	0	0	895	50	1	0	lachen	retten	helfen	tolerant	spielen	loyal	leiden	rächen	hindern	tyrannisch	strafen	lasch	ehrlich	fair	schön	treu	schlau	freundlich	eitel	faul	schlecht	tot	schroff	fanatisch	1	blank2r.bmp	0	1	+	0	1	blank2r.bmp	500	2	B2r.bmp	500	1	blank2r.bmp	880	3	schön	880	0	0	0	0	0	0	0	0	0	0	0	0
2024-05-29	10:32:26	10:34:27	120961	6.6.1	4_exp_EVA_AWA_CON	59	B	A	Rpleas_acq	Same	Rpleas	2pleas	acq_new_pleas_nomask	acq1_nomask	1	9	0	0	300	300	0	0	729	50	1	0	lachen	retten	helfen	tolerant	spielen	loyal	leiden	rächen	hindern	tyrannisch	strafen	lasch	ehrlich	fair	schön	treu	schlau	freundlich	eitel	faul	schlecht	tot	schroff	fanatisch	1	blank2r.bmp	0	1	+	0	1	blank2r.bmp	500	6	C2r.bmp	500	1	blank2r.bmp	880	4	treu	880	0	0	0	0	0	0	0	0	0	0	0	0
2024-05-29	10:32:26	10:34:29	123049	6.6.1	4_exp_EVA_AWA_CON	59	B	A	Rpleas_acq	Same	Rpleas	2pleas	acq_US_unple_nomask	acq1_nomask	1	10	0	0	300	300	0	0	606	46	1	0	lachen	retten	helfen	tolerant	spielen	loyal	leiden	rächen	hindern	tyrannisch	strafen	lasch	ehrlich	fair	schön	treu	schlau	freundlich	eitel	faul	schlecht	tot	schroff	fanatisch	1	blank2r.bmp	0	1	+	0	1	blank2r.bmp	500	1	BMVZ	500	1	blank2r.bmp	880	2	rächen	880	0	0	0	0	0	0	0	0	0	0	0	0
2024-05-29	10:32:26	10:34:31	125193	6.6.1	4_exp_EVA_AWA_CON	59	B	A	Rpleas_acq	Same	Rpleas	2pleas	acq_US_unple_nomask	acq1_nomask	1	11	0	0	300	300	0	0	659	46	1	0	lachen	retten	helfen	tolerant	spielen	loyal	leiden	rächen	hindern	tyrannisch	strafen	lasch	ehrlich	fair	schön	treu	schlau	freundlich	eitel	faul	schlecht	tot	schroff	fanatisch	1	blank2r.bmp	0	1	+	0	1	blank2r.bmp	500	1	BMVZ	500	1	blank2r.bmp	880	1	leiden	880	0	0	0	0	0	0	0	0	0	0	0	0
2024-05-29	10:32:26	10:34:33	127265	6.6.1	4_exp_EVA_AWA_CON	59	B	A	Rpleas_acq	Same	Rpleas	2pleas	acq_US_pleas_nomask	acq1_nomask	1	12	0	0	300	300	0	0	589	50	1	0	lachen	retten	helfen	tolerant	spielen	loyal	leiden	rächen	hindern	tyrannisch	strafen	lasch	ehrlich	fair	schön	treu	schlau	freundlich	eitel	faul	schlecht	tot	schroff	fanatisch	1	blank2r.bmp	0	1	+	0	1	blank2r.bmp	500	1	GKQX	500	1	blank2r.bmp	880	6	loyal	880	0	0	0	0	0	0	0	0	0	0	0	0
2024-05-29	10:32:26	10:34:35	129433	6.6.1	4_exp_EVA_AWA_CON	59	B	A	Rpleas_acq	Same	Rpleas	2pleas	acq_US_unple_nomask	acq1_nomask	1	13	0	0	300	300	0	0	686	46	1	0	lachen	retten	helfen	tolerant	spielen	loyal	leiden	rächen	hindern	tyrannisch	strafen	lasch	ehrlich	fair	schön	treu	schlau	freundlich	eitel	faul	schlecht	tot	schroff	fanatisch	1	blank2r.bmp	0	1	+	0	1	blank2r.bmp	500	1	BMVZ	500	1	blank2r.bmp	880	3	hindern	880	0	0	0	0	0	0	0	0	0	0	0	0
2024-05-29	10:32:26	10:34:37	131465	6.6.1	4_exp_EVA_AWA_CON	59	B	A	Rpleas_acq	Same	Rpleas	2pleas	acq_US_pleas_nomask	acq1_nomask	1	14	0	0	300	300	0	0	546	50	1	0	lachen	retten	helfen	tolerant	spielen	loyal	leiden	rächen	hindern	tyrannisch	strafen	lasch	ehrlich	fair	schön	treu	schlau	freundlich	eitel	faul	schlecht	tot	schroff	fanatisch	1	blank2r.bmp	0	1	+	0	1	blank2r.bmp	500	1	GKQX	500	1	blank2r.bmp	880	3	helfen	880	0	0	0	0	0	0	0	0	0	0	0	0
2024-05-29	10:32:26	10:34:40	133562	6.6.1	4_exp_EVA_AWA_CON	59	B	A	Rpleas_acq	Same	Rpleas	2pleas	acq_US_pleas_nomask	acq1_nomask	1	15	0	0	300	300	0	0	611	50	1	0	lachen	retten	helfen	tolerant	spielen	loyal	leiden	rächen	hindern	tyrannisch	strafen	lasch	ehrlich	fair	schön	treu	schlau	freundlich	eitel	faul	schlecht	tot	schroff	fanatisch	1	blank2r.bmp	0	1	+	0	1	blank2r.bmp	500	1	GKQX	500	1	blank2r.bmp	880	5	spielen	880	0	0	0	0	0	0	0	0	0	0	0	0
2024-05-29	10:32:26	10:34:42	135537	6.6.1	4_exp_EVA_AWA_CON	59	B	A	Rpleas_acq	Same	Rpleas	2pleas	acq_new_unple_nomask	acq1_nomask	1	16	0	0	300	300	0	0	496	46	1	0	lachen	retten	helfen	tolerant	spielen	loyal	leiden	rächen	hindern	tyrannisch	strafen	lasch	ehrlich	fair	schön	treu	schlau	freundlich	eitel	faul	schlecht	tot	schroff	fanatisch	1	blank2r.bmp	0	1	+	0	1	blank2r.bmp	500	7	C3r.bmp	500	1	blank2r.bmp	880	3	schlecht	880	0	0	0	0	0	0	0	0	0	0	0	0
2024-05-29	10:32:26	10:34:44	137569	6.6.1	4_exp_EVA_AWA_CON	59	B	A	Rpleas_acq	Same	Rpleas	2pleas	acq_US_unple_nomask	acq1_nomask	1	17	0	0	300	300	0	0	546	46	1	0	lachen	retten	helfen	tolerant	spielen	loyal	leiden	rächen	hindern	tyrannisch	strafen	lasch	ehrlich	fair	schön	treu	schlau	freundlich	eitel	faul	schlecht	tot	schroff	fanatisch	1	blank2r.bmp	0	1	+	0	1	blank2r.bmp	500	1	BMVZ	500	1	blank2r.bmp	880	5	strafen	880	0	0	0	0	0	0	0	0	0	0	0	0
2024-05-29	10:32:26	10:34:46	139553	6.6.1	4_exp_EVA_AWA_CON	59	B	A	Rpleas_acq	Same	Rpleas	2pleas	acq_new_pleas_nomask	acq1_nomask	1	18	0	0	300	300	0	0	499	50	1	0	lachen	retten	helfen	tolerant	spielen	loyal	leiden	rächen	hindern	tyrannisch	strafen	lasch	ehrlich	fair	schön	treu	schlau	freundlich	eitel	faul	schlecht	tot	schroff	fanatisch	1	blank2r.bmp	0	1	+	0	1	blank2r.bmp	500	4	B4r.bmp	500	1	blank2r.bmp	880	6	freundlich	880	0	0	0	0	0	0	0	0	0	0	0	0
2024-05-29	10:32:26	10:34:48	141601	6.6.1	4_exp_EVA_AWA_CON	59	B	A	Rpleas_acq	Same	Rpleas	2pleas	acq_new_pleas_nomask	acq1_nomask	1	19	0	0	300	300	0	0	566	50	1	0	lachen	retten	helfen	tolerant	spielen	loyal	leiden	rächen	hindern	tyrannisch	strafen	lasch	ehrlich	fair	schön	treu	schlau	freundlich	eitel	faul	schlecht	tot	schroff	fanatisch	1	blank2r.bmp	0	1	+	0	1	blank2r.bmp	500	1	B1r.bmp	500	1	blank2r.bmp	880	1	ehrlich	880	0	0	0	0	0	0	0	0	0	0	0	0
2024-05-29	10:32:26	10:34:50	143561	6.6.1	4_exp_EVA_AWA_CON	59	B	A	Rpleas_acq	Same	Rpleas	2pleas	acq_new_pleas_nomask	acq1_nomask	1	20	0	0	300	300	0	0	474	50	1	0	lachen	retten	helfen	tolerant	spielen	loyal	leiden	rächen	hindern	tyrannisch	strafen	lasch	ehrlich	fair	schön	treu	schlau	freundlich	eitel	faul	schlecht	tot	schroff	fanatisch	1	blank2r.bmp	0	1	+	0	1	blank2r.bmp	500	6	C2r.bmp	500	1	blank2r.bmp	880	5	schlau	880	0	0	0	0	0	0	0	0	0	0	0	0
2024-05-29	10:32:26	10:34:52	145673	6.6.1	4_exp_EVA_AWA_CON	59	B	A	Rpleas_acq	Same	Rpleas	2pleas	acq_US_unple_nomask	acq1_nomask	1	21	0	0	300	300	0	0	625	46	1	0	lachen	retten	helfen	tolerant	spielen	loyal	leiden	rächen	hindern	tyrannisch	strafen	lasch	ehrlich	fair	schön	treu	schlau	freundlich	eitel	faul	schlecht	tot	schroff	fanatisch	1	blank2r.bmp	0	1	+	0	1	blank2r.bmp	500	1	BMVZ	500	1	blank2r.bmp	880	6	lasch	880	0	0	0	0	0	0	0	0	0	0	0	0
2024-05-29	10:32:26	10:34:54	147817	6.6.1	4_exp_EVA_AWA_CON	59	B	A	Rpleas_acq	Same	Rpleas	2pleas	acq_new_unple_nomask	acq1_nomask	1	22	0	0	300	300	0	0	658	46	1	0	lachen	retten	helfen	tolerant	spielen	loyal	leiden	rächen	hindern	tyrannisch	strafen	lasch	ehrlich	fair	schön	treu	schlau	freundlich	eitel	faul	schlecht	tot	schroff	fanatisch	1	blank2r.bmp	0	1	+	0	1	blank2r.bmp	500	4	B4r.bmp	500	1	blank2r.bmp	880	5	schroff	880	0	0	0	0	0	0	0	0	0	0	0	0
2024-05-29	10:32:26	10:34:56	149897	6.6.1	4_exp_EVA_AWA_CON	59	B	A	Rpleas_acq	Same	Rpleas	2pleas	acq_US_pleas_nomask	acq1_nomask	1	23	0	0	300	300	0	0	596	50	1	0	lachen	retten	helfen	tolerant	spielen	loyal	leiden	rächen	hindern	tyrannisch	strafen	lasch	ehrlich	fair	schön	treu	schlau	freundlich	eitel	faul	schlecht	tot	schroff	fanatisch	1	blank2r.bmp	0	1	+	0	1	blank2r.bmp	500	1	GKQX	500	1	blank2r.bmp	880	2	retten	880	0	0	0	0	0	0	0	0	0	0	0	0
2024-05-29	10:32:26	10:34:58	152194	6.6.1	4_exp_EVA_AWA_CON	59	B	A	Rpleas_acq	Same	Rpleas	2pleas	acq_new_unple_nomask	acq1_nomask	1	24	0	0	300	300	0	0	811	46	1	0	lachen	retten	helfen	tolerant	spielen	loyal	leiden	rächen	hindern	tyrannisch	strafen	lasch	ehrlich	fair	schön	treu	schlau	freundlich	eitel	faul	schlecht	tot	schroff	fanatisch	1	blank2r.bmp	0	1	+	0	1	blank2r.bmp	500	5	C1r.bmp	500	1	blank2r.bmp	880	1	eitel	880	0	0	0	0	0	0	0	0	0	0	0	0
2024-05-29	10:32:26	10:35:00	154481	6.6.1	4_exp_EVA_AWA_CON	59	B	A	Rpleas_acq	Same	Rpleas	2pleas	acq_US_unple_nomask	acq1_nomask	1	25	0	0	300	300	0	0	808	46	1	0	lachen	retten	helfen	tolerant	spielen	loyal	leiden	rächen	hindern	tyrannisch	strafen	lasch	ehrlich	fair	schön	treu	schlau	freundlich	eitel	faul	schlecht	tot	schroff	fanatisch	1	blank2r.bmp	0	1	+	0	1	blank2r.bmp	500	1	BMVZ	500	1	blank2r.bmp	880	1	leiden	880	0	0	0	0	0	0	0	0	0	0	0	0
2024-05-29	10:32:26	10:35:03	156657	6.6.1	4_exp_EVA_AWA_CON	59	B	A	Rpleas_acq	Same	Rpleas	2pleas	acq_US_pleas_nomask	acq1_nomask	1	26	0	0	300	300	0	0	692	50	1	0	lachen	retten	helfen	tolerant	spielen	loyal	leiden	rächen	hindern	tyrannisch	strafen	lasch	ehrlich	fair	schön	treu	schlau	freundlich	eitel	faul	schlecht	tot	schroff	fanatisch	1	blank2r.bmp	0	1	+	0	1	blank2r.bmp	500	1	GKQX	500	1	blank2r.bmp	880	2	retten	880	0	0	0	0	0	0	0	0	0	0	0	0
2024-05-29	10:32:26	10:35:05	158801	6.6.1	4_exp_EVA_AWA_CON	59	B	A	Rpleas_acq	Same	Rpleas	2pleas	acq_new_pleas_nomask	acq1_nomask	1	27	0	0	300	300	0	0	655	50	1	0	lachen	retten	helfen	tolerant	spielen	loyal	leiden	rächen	hindern	tyrannisch	strafen	lasch	ehrlich	fair	schön	treu	schlau	freundlich	eitel	faul	schlecht	tot	schroff	fanatisch	1	blank2r.bmp	0	1	+	0	1	blank2r.bmp	500	3	B3r.bmp	500	1	blank2r.bmp	880	3	schön	880	0	0	0	0	0	0	0	0	0	0	0	0
2024-05-29	10:32:26	10:35:07	161170	6.6.1	4_exp_EVA_AWA_CON	59	B	A	Rpleas_acq	Same	Rpleas	2pleas	acq_new_unple_nomask	acq1_nomask	1	28	0	0	300	300	0	0	881	46	1	0	lachen	retten	helfen	tolerant	spielen	loyal	leiden	rächen	hindern	tyrannisch	strafen	lasch	ehrlich	fair	schön	treu	schlau	freundlich	eitel	faul	schlecht	tot	schroff	fanatisch	1	blank2r.bmp	0	1	+	0	1	blank2r.bmp	500	8	C4r.bmp	500	1	blank2r.bmp	880	4	tot	880	0	0	0	0	0	0	0	0	0	0	0	0
2024-05-29	10:32:26	10:35:09	163185	6.6.1	4_exp_EVA_AWA_CON	59	B	A	Rpleas_acq	Same	Rpleas	2pleas	acq_new_pleas_nomask	acq1_nomask	1	29	0	0	300	300	0	0	536	50	1	0	lachen	retten	helfen	tolerant	spielen	loyal	leiden	rächen	hindern	tyrannisch	strafen	lasch	ehrlich	fair	schön	treu	schlau	freundlich	eitel	faul	schlecht	tot	schroff	fanatisch	1	blank2r.bmp	0	1	+	0	1	blank2r.bmp	500	7	C3r.bmp	500	1	blank2r.bmp	880	1	ehrlich	880	0	0	0	0	0	0	0	0	0	0	0	0
2024-05-29	10:32:26	10:35:11	165282	6.6.1	4_exp_EVA_AWA_CON	59	B	A	Rpleas_acq	Same	Rpleas	2pleas	acq_US_pleas_nomask	acq1_nomask	1	30	0	0	300	300	0	0	610	50	1	0	lachen	retten	helfen	tolerant	spielen	loyal	leiden	rächen	hindern	tyrannisch	strafen	lasch	ehrlich	fair	schön	treu	schlau	freundlich	eitel	faul	schlecht	tot	schroff	fanatisch	1	blank2r.bmp	0	1	+	0	1	blank2r.bmp	500	1	GKQX	500	1	blank2r.bmp	880	6	loyal	880	0	0	0	0	0	0	0	0	0	0	0	0
2024-05-29	10:32:26	10:35:13	167401	6.6.1	4_exp_EVA_AWA_CON	59	B	A	Rpleas_acq	Same	Rpleas	2pleas	acq_US_unple_nomask	acq1_nomask	1	31	0	0	300	300	0	0	639	46	1	0	lachen	retten	helfen	tolerant	spielen	loyal	leiden	rächen	hindern	tyrannisch	strafen	lasch	ehrlich	fair	schön	treu	schlau	freundlich	eitel	faul	schlecht	tot	schroff	fanatisch	1	blank2r.bmp	0	1	+	0	1	blank2r.bmp	500	1	BMVZ	500	1	blank2r.bmp	880	5	strafen	880	0	0	0	0	0	0	0	0	0	0	0	0
2024-05-29	10:32:26	10:35:16	169577	6.6.1	4_exp_EVA_AWA_CON	59	B	A	Rpleas_acq	Same	Rpleas	2pleas	acq_US_unple_nomask	acq1_nomask	1	32	0	0	300	300	0	0	694	46	1	0	lachen	retten	helfen	tolerant	spielen	loyal	leiden	rächen	hindern	tyrannisch	strafen	lasch	ehrlich	fair	schön	treu	schlau	freundlich	eitel	faul	schlecht	tot	schroff	fanatisch	1	blank2r.bmp	0	1	+	0	1	blank2r.bmp	500	1	BMVZ	500	1	blank2r.bmp	880	4	tyrannisch	880	0	0	0	0	0	0	0	0	0	0	0	0
2024-05-29	10:32:26	10:35:18	171657	6.6.1	4_exp_EVA_AWA_CON	59	B	A	Rpleas_acq	Same	Rpleas	2pleas	acq_new_unple_nomask	acq1_nomask	1	33	0	0	300	300	0	0	592	46	1	0	lachen	retten	helfen	tolerant	spielen	loyal	leiden	rächen	hindern	tyrannisch	strafen	lasch	ehrlich	fair	schön	treu	schlau	freundlich	eitel	faul	schlecht	tot	schroff	fanatisch	1	blank2r.bmp	0	1	+	0	1	blank2r.bmp	500	2	B2r.bmp	500	1	blank2r.bmp	880	5	schroff	880	0	0	0	0	0	0	0	0	0	0	0	0
2024-05-29	10:32:26	10:35:20	173698	6.6.1	4_exp_EVA_AWA_CON	59	B	A	Rpleas_acq	Same	Rpleas	2pleas	acq_US_pleas_nomask	acq1_nomask	1	34	0	0	300	300	0	0	551	50	1	0	lachen	retten	helfen	tolerant	spielen	loyal	leiden	rächen	hindern	tyrannisch	strafen	lasch	ehrlich	fair	schön	treu	schlau	freundlich	eitel	faul	schlecht	tot	schroff	fanatisch	1	blank2r.bmp	0	1	+	0	1	blank2r.bmp	500	1	GKQX	500	1	blank2r.bmp	880	1	lachen	880	0	0	0	0	0	0	0	0	0	0	0	0
2024-05-29	10:32:26	10:35:22	175577	6.6.1	4_exp_EVA_AWA_CON	59	B	A	Rpleas_acq	Same	Rpleas	2pleas	acq_new_unple_nomask	acq1_nomask	1	35	0	0	300	300	0	0	400	46	1	0	lachen	retten	helfen	tolerant	spielen	loyal	leiden	rächen	hindern	tyrannisch	strafen	lasch	ehrlich	fair	schön	treu	schlau	freundlich	eitel	faul	schlecht	tot	schroff	fanatisch	1	blank2r.bmp	0	1	+	0	1	blank2r.bmp	500	3	B3r.bmp	500	1	blank2r.bmp	880	3	schlecht	880	0	0	0	0	0	0	0	0	0	0	0	0
2024-05-29	10:32:26	10:35:24	177570	6.6.1	4_exp_EVA_AWA_CON	59	B	A	Rpleas_acq	Same	Rpleas	2pleas	acq_new_pleas_nomask	acq1_nomask	1	36	0	0	300	300	0	0	510	50	1	0	lachen	retten	helfen	tolerant	spielen	loyal	leiden	rächen	hindern	tyrannisch	strafen	lasch	ehrlich	fair	schön	treu	schlau	freundlich	eitel	faul	schlecht	tot	schroff	fanatisch	1	blank2r.bmp	0	1	+	0	1	blank2r.bmp	500	4	B4r.bmp	500	1	blank2r.bmp	880	4	treu	880	0	0	0	0	0	0	0	0	0	0	0	0
2024-05-29	10:32:26	10:36:17	231147	6.6.1	4_exp_EVA_AWA_CON	59	B	A	Rpleas_acq	Same	Rpleas	2pleas	acq_US_pleas_nomask	acq2_nomask	2	1	480	0	300	300	0	0	1024	50	1	0	lachen	retten	helfen	tolerant	spielen	loyal	leiden	rächen	hindern	tyrannisch	strafen	lasch	ehrlich	fair	schön	treu	schlau	freundlich	eitel	faul	schlecht	tot	schroff	fanatisch	1	blank2r.bmp	0	1	+	0	1	blank2r.bmp	500	1	GKQX	500	1	blank2r.bmp	880	3	helfen	880	1	!	1312	1	!	-1	0	0	0	0	0	0
2024-05-29	10:32:26	10:36:20	233630	6.6.1	4_exp_EVA_AWA_CON	59	B	A	Rpleas_acq	Same	Rpleas	2pleas	acq_new_unple_nomask	acq2_nomask	2	2	480	1	300	300	0	0	502	50	0	0	lachen	retten	helfen	tolerant	spielen	loyal	leiden	rächen	hindern	tyrannisch	strafen	lasch	ehrlich	fair	schön	treu	schlau	freundlich	eitel	faul	schlecht	tot	schroff	fanatisch	1	blank2r.bmp	0	1	+	0	1	blank2r.bmp	500	2	B2r.bmp	500	1	blank2r.bmp	880	1	eitel	880	1	FEHLER	1695	1	!	1312	1	!	1403	0	0	0
2024-05-29	10:32:26	10:36:22	235661	6.6.1	4_exp_EVA_AWA_CON	59	B	A	Rpleas_acq	Same	Rpleas	2pleas	acq_US_unple_nomask	acq2_nomask	2	3	480	1	300	300	0	0	453	46	1	0	lachen	retten	helfen	tolerant	spielen	loyal	leiden	rächen	hindern	tyrannisch	strafen	lasch	ehrlich	fair	schön	treu	schlau	freundlich	eitel	faul	schlecht	tot	schroff	fanatisch	1	blank2r.bmp	0	1	+	0	1	blank2r.bmp	500	1	BMVZ	500	1	blank2r.bmp	880	6	lasch	880	1	!	1313	1	!	1353	0	0	0	0	0	0
2024-05-29	10:32:26	10:36:24	238171	6.6.1	4_exp_EVA_AWA_CON	59	B	A	Rpleas_acq	Same	Rpleas	2pleas	acq_US_unple_nomask	acq2_nomask	2	4	480	0	300	300	0	0	733	46	1	0	lachen	retten	helfen	tolerant	spielen	loyal	leiden	rächen	hindern	tyrannisch	strafen	lasch	ehrlich	fair	schön	treu	schlau	freundlich	eitel	faul	schlecht	tot	schroff	fanatisch	1	blank2r.bmp	0	1	+	0	1	blank2r.bmp	500	1	BMVZ	500	1	blank2r.bmp	880	2	rächen	880	1	!	1312	1	!	-1	0	0	0	0	0	0
2024-05-29	10:32:26	10:36:26	240251	6.6.1	4_exp_EVA_AWA_CON	59	B	A	Rpleas_acq	Same	Rpleas	2pleas	acq_new_unple_nomask	acq2_nomask	2	5	480	0	300	300	0	0	301	46	1	0	lachen	retten	helfen	tolerant	spielen	loyal	leiden	rächen	hindern	tyrannisch	strafen	lasch	ehrlich	fair	schön	treu	schlau	freundlich	eitel	faul	schlecht	tot	schroff	fanatisch	1	blank2r.bmp	0	1	+	0	1	blank2r.bmp	500	5	C1r.bmp	500	1	blank2r.bmp	880	2	faul	880	1	!	-1	1	!	-1	0	0	0	0	0	0
2024-05-29	10:32:26	10:36:29	242852	6.6.1	4_exp_EVA_AWA_CON	59	B	A	Rpleas_acq	Same	Rpleas	2pleas	acq_new_pleas_nomask	acq2_nomask	2	6	480	0	300	300	0	0	820	50	1	0	lachen	retten	helfen	tolerant	spielen	loyal	leiden	rächen	hindern	tyrannisch	strafen	lasch	ehrlich	fair	schön	treu	schlau	freundlich	eitel	faul	schlecht	tot	schroff	fanatisch	1	blank2r.bmp	0	1	+	0	1	blank2r.bmp	500	1	B1r.bmp	500	1	blank2r.bmp	880	6	freundlich	880	1	!	1313	1	!	-1	0	0	0	0	0	0
2024-05-29	10:32:26	10:36:31	245347	6.6.1	4_exp_EVA_AWA_CON	59	B	A	Rpleas_acq	Same	Rpleas	2pleas	acq_new_unple_nomask	acq2_nomask	2	7	480	0	300	300	0	0	714	46	1	0	lachen	retten	helfen	tolerant	spielen	loyal	leiden	rächen	hindern	tyrannisch	strafen	lasch	ehrlich	fair	schön	treu	schlau	freundlich	eitel	faul	schlecht	tot	schroff	fanatisch	1	blank2r.bmp	0	1	+	0	1	blank2r.bmp	500	7	C3r.bmp	500	1	blank2r.bmp	880	6	fanatisch	880	1	!	1313	1	!	-1	0	0	0	0	0	0
2024-05-29	10:32:26	10:36:34	247735	6.6.1	4_exp_EVA_AWA_CON	59	B	A	Rpleas_acq	Same	Rpleas	2pleas	acq_new_pleas_nomask	acq2_nomask	2	8	480	0	300	300	0	0	407	46	0	0	lachen	retten	helfen	tolerant	spielen	loyal	leiden	rächen	hindern	tyrannisch	strafen	lasch	ehrlich	fair	schön	treu	schlau	freundlich	eitel	faul	schlecht	tot	schroff	fanatisch	1	blank2r.bmp	0	1	+	0	1	blank2r.bmp	500	6	C2r.bmp	500	1	blank2r.bmp	880	2	fair	880	1	FEHLER	1600	1	!	-1	1	!	-1	0	0	0
2024-05-29	10:32:26	10:36:36	249797	6.6.1	4_exp_EVA_AWA_CON	59	B	A	Rpleas_acq	Same	Rpleas	2pleas	acq_US_pleas_nomask	acq2_nomask	2	9	480	1	300	300	0	0	489	50	1	0	lachen	retten	helfen	tolerant	spielen	loyal	leiden	rächen	hindern	tyrannisch	strafen	lasch	ehrlich	fair	schön	treu	schlau	freundlich	eitel	faul	schlecht	tot	schroff	fanatisch	1	blank2r.bmp	0	1	+	0	1	blank2r.bmp	500	1	GKQX	500	1	blank2r.bmp	880	4	tolerant	880	1	!	1313	1	!	1390	0	0	0	0	0	0
2024-05-29	10:32:26	10:36:38	252053	6.6.1	4_exp_EVA_AWA_CON	59	B	A	Rpleas_acq	Same	Rpleas	2pleas	acq_US_unple_nomask	acq2_nomask	2	10	480	1	300	300	0	0	474	46	1	0	lachen	retten	helfen	tolerant	spielen	loyal	leiden	rächen	hindern	tyrannisch	strafen	lasch	ehrlich	fair	schön	treu	schlau	freundlich	eitel	faul	schlecht	tot	schroff	fanatisch	1	blank2r.bmp	0	1	+	0	1	blank2r.bmp	500	1	BMVZ	500	1	blank2r.bmp	880	3	hindern	880	1	!	1313	1	!	1375	0	0	0	0	0	0
2024-05-29	10:32:26	10:36:40	254325	6.6.1	4_exp_EVA_AWA_CON	59	B	A	Rpleas_acq	Same	Rpleas	2pleas	acq_US_pleas_nomask	acq2_nomask	2	11	480	1	300	300	0	0	494	50	1	0	lachen	retten	helfen	tolerant	spielen	loyal	leiden	rächen	hindern	tyrannisch	strafen	lasch	ehrlich	fair	schön	treu	schlau	freundlich	eitel	faul	schlecht	tot	schroff	fanatisch	1	blank2r.bmp	0	1	+	0	1	blank2r.bmp	500	1	GKQX	500	1	blank2r.bmp	880	5	spielen	880	1	!	1312	1	!	1395	0	0	0	0	0	0
2024-05-29	10:32:26	10:36:43	256758	6.6.1	4_exp_EVA_AWA_CON	59	B	A	Rpleas_acq	Same	Rpleas	2pleas	acq_new_pleas_nomask	acq2_nomask	2	12	480	1	300	300	0	0	455	46	0	0	lachen	retten	helfen	tolerant	spielen	loyal	leiden	rächen	hindern	tyrannisch	strafen	lasch	ehrlich	fair	schön	treu	schlau	freundlich	eitel	faul	schlecht	tot	schroff	fanatisch	1	blank2r.bmp	0	1	+	0	1	blank2r.bmp	500	8	C4r.bmp	500	1	blank2r.bmp	880	5	schlau	880	1	FEHLER	1648	1	!	1313	1	!	1356	0	0	0
2024-05-29	10:32:26	10:36:45	258853	6.6.1	4_exp_EVA_AWA_CON	59	B	A	Rpleas_acq	Same	Rpleas	2pleas	acq_new_pleas_nomask	acq2_nomask	2	13	480	1	300	300	0	0	519	50	1	0	lachen	retten	helfen	tolerant	spielen	loyal	leiden	rächen	hindern	tyrannisch	strafen	lasch	ehrlich	fair	schön	treu	schlau	freundlich	eitel	faul	schlecht	tot	schroff	fanatisch	1	blank2r.bmp	0	1	+	0	1	blank2r.bmp	500	3	B3r.bmp	500	1	blank2r.bmp	880	1	ehrlich	880	1	!	1312	1	!	1420	0	0	0	0	0	0
2024-05-29	10:32:26	10:36:47	261004	6.6.1	4_exp_EVA_AWA_CON	59	B	A	Rpleas_acq	Same	Rpleas	2pleas	acq_US_unple_nomask	acq2_nomask	2	14	480	0	300	300	0	0	370	46	1	0	lachen	retten	helfen	tolerant	spielen	loyal	leiden	rächen	hindern	tyrannisch	strafen	lasch	ehrlich	fair	schön	treu	schlau	freundlich	eitel	faul	schlecht	tot	schroff	fanatisch	1	blank2r.bmp	0	1	+	0	1	blank2r.bmp	500	1	BMVZ	500	1	blank2r.bmp	880	5	strafen	880	1	!	-1	1	!	-1	0	0	0	0	0	0
2024-05-29	10:32:26	10:36:49	263261	6.6.1	4_exp_EVA_AWA_CON	59	B	A	Rpleas_acq	Same	Rpleas	2pleas	acq_new_pleas_nomask	acq2_nomask	2	15	480	1	300	300	0	0	475	50	1	0	lachen	retten	helfen	tolerant	spielen	loyal	leiden	rächen	hindern	tyrannisch	strafen	lasch	ehrlich	fair	schön	treu	schlau	freundlich	eitel	faul	schlecht	tot	schroff	fanatisch	1	blank2r.bmp	0	1	+	0	1	blank2r.bmp	500	2	B2r.bmp	500	1	blank2r.bmp	880	4	treu	880	1	!	1313	1	!	1376	0	0	0	0	0	0
2024-05-29	10:32:26	10:36:51	265485	6.6.1	4_exp_EVA_AWA_CON	59	B	A	Rpleas_acq	Same	Rpleas	2pleas	acq_new_pleas_nomask	acq2_nomask	2	16	480	1	300	300	0	0	447	50	1	0	lachen	retten	helfen	tolerant	spielen	loyal	leiden	rächen	hindern	tyrannisch	strafen	lasch	ehrlich	fair	schön	treu	schlau	freundlich	eitel	faul	schlecht	tot	schroff	fanatisch	1	blank2r.bmp	0	1	+	0	1	blank2r.bmp	500	7	C3r.bmp	500	1	blank2r.bmp	880	3	schön	880	1	!	1312	1	!	1348	0	0	0	0	0	0
2024-05-29	10:32:26	10:36:54	267781	6.6.1	4_exp_EVA_AWA_CON	59	B	A	Rpleas_acq	Same	Rpleas	2pleas	acq_US_unple_nomask	acq2_nomask	2	17	480	1	300	300	0	0	522	46	1	0	lachen	retten	helfen	tolerant	spielen	loyal	leiden	rächen	hindern	tyrannisch	strafen	lasch	ehrlich	fair	schön	treu	schlau	freundlich	eitel	faul	schlecht	tot	schroff	fanatisch	1	blank2r.bmp	0	1	+	0	1	blank2r.bmp	500	1	BMVZ	500	1	blank2r.bmp	880	1	leiden	880	1	!	1313	1	!	1423	0	0	0	0	0	0
2024-05-29	10:32:26	10:36:56	270093	6.6.1	4_exp_EVA_AWA_CON	59	B	A	Rpleas_acq	Same	Rpleas	2pleas	acq_US_pleas_nomask	acq2_nomask	2	18	480	1	300	300	0	0	532	50	1	0	lachen	retten	helfen	tolerant	spielen	loyal	leiden	rächen	hindern	tyrannisch	strafen	lasch	ehrlich	fair	schön	treu	schlau	freundlich	eitel	faul	schlecht	tot	schroff	fanatisch	1	blank2r.bmp	0	1	+	0	1	blank2r.bmp	500	1	GKQX	500	1	blank2r.bmp	880	1	lachen	880	1	!	1312	1	!	1433	0	0	0	0	0	0
2024-05-29	10:32:26	10:36:58	272373	6.6.1	4_exp_EVA_AWA_CON	59	B	A	Rpleas_acq	Same	Rpleas	2pleas	acq_US_pleas_nomask	acq2_nomask	2	19	480	1	300	300	0	0	501	50	1	0	lachen	retten	helfen	tolerant	spielen	loyal	leiden	rächen	hindern	tyrannisch	strafen	lasch	ehrlich	fair	schön	treu	schlau	freundlich	eitel	faul	schlecht	tot	schroff	fanatisch	1	blank2r.bmp	0	1	+	0	1	blank2r.bmp	500	1	GKQX	500	1	blank2r.bmp	880	4	tolerant	880	1	!	1313	1	!	1402	0	0	0	0	0	0
2024-05-29	10:32:26	10:37:01	274685	6.6.1	4_exp_EVA_AWA_CON	59	B	A	Rpleas_acq	Same	Rpleas	2pleas	acq_new_unple_nomask	acq2_nomask	2	20	480	1	300	300	0	0	531	46	1	0	lachen	retten	helfen	tolerant	spielen	loyal	leiden	rächen	hindern	tyrannisch	strafen	lasch	ehrlich	fair	schön	treu	schlau	freundlich	eitel	faul	schlecht	tot	schroff	fanatisch	1	blank2r.bmp	0	1	+	0	1	blank2r.bmp	500	1	B1r.bmp	500	1	blank2r.bmp	880	3	schlecht	880	1	!	1312	1	!	1432	0	0	0	0	0	0
2024-05-29	10:32:26	10:37:03	276973	6.6.1	4_exp_EVA_AWA_CON	59	B	A	Rpleas_acq	Same	Rpleas	2pleas	acq_new_unple_nomask	acq2_nomask	2	21	480	1	300	300	0	0	508	46	1	0	lachen	retten	helfen	tolerant	spielen	loyal	leiden	rächen	hindern	tyrannisch	strafen	lasch	ehrlich	fair	schön	treu	schlau	freundlich	eitel	faul	schlecht	tot	schroff	fanatisch	1	blank2r.bmp	0	1	+	0	1	blank2r.bmp	500	6	C2r.bmp	500	1	blank2r.bmp	880	1	eitel	880	1	!	1313	1	!	1408	0	0	0	0	0	0
2024-05-29	10:32:26	10:37:05	279297	6.6.1	4_exp_EVA_AWA_CON	59	B	A	Rpleas_acq	Same	Rpleas	2pleas	acq_US_unple_nomask	acq2_nomask	2	22	480	0	300	300	0	0	554	46	1	0	lachen	retten	helfen	tolerant	spielen	loyal	leiden	rächen	hindern	tyrannisch	strafen	lasch	ehrlich	fair	schön	treu	schlau	freundlich	eitel	faul	schlecht	tot	schroff	fanatisch	1	blank2r.bmp	0	1	+	0	1	blank2r.bmp	500	1	BMVZ	500	1	blank2r.bmp	880	6	lasch	880	1	!	1312	1	!	-1	0	0	0	0	0	0
2024-05-29	10:32:26	10:37:08	281565	6.6.1	4_exp_EVA_AWA_CON	59	B	A	Rpleas_acq	Same	Rpleas	2pleas	acq_new_unple_nomask	acq2_nomask	2	23	480	1	300	300	0	0	487	46	1	0	lachen	retten	helfen	tolerant	spielen	loyal	leiden	rächen	hindern	tyrannisch	strafen	lasch	ehrlich	fair	schön	treu	schlau	freundlich	eitel	faul	schlecht	tot	schroff	fanatisch	1	blank2r.bmp	0	1	+	0	1	blank2r.bmp	500	5	C1r.bmp	500	1	blank2r.bmp	880	4	tot	880	1	!	1313	1	!	1388	0	0	0	0	0	0
2024-05-29	10:32:26	10:37:10	283755	6.6.1	4_exp_EVA_AWA_CON	59	B	A	Rpleas_acq	Same	Rpleas	2pleas	acq_US_pleas_nomask	acq2_nomask	2	24	480	1	300	300	0	0	416	50	1	0	lachen	retten	helfen	tolerant	spielen	loyal	leiden	rächen	hindern	tyrannisch	strafen	lasch	ehrlich	fair	schön	treu	schlau	freundlich	eitel	faul	schlecht	tot	schroff	fanatisch	1	blank2r.bmp	0	1	+	0	1	blank2r.bmp	500	1	GKQX	500	1	blank2r.bmp	880	5	spielen	880	1	!	1312	1	!	1316	0	0	0	0	0	0
2024-05-29	10:32:26	10:37:12	286069	6.6.1	4_exp_EVA_AWA_CON	59	B	A	Rpleas_acq	Same	Rpleas	2pleas	acq_US_pleas_nomask	acq2_nomask	2	25	480	1	300	300	0	0	537	50	1	0	lachen	retten	helfen	tolerant	spielen	loyal	leiden	rächen	hindern	tyrannisch	strafen	lasch	ehrlich	fair	schön	treu	schlau	freundlich	eitel	faul	schlecht	tot	schroff	fanatisch	1	blank2r.bmp	0	1	+	0	1	blank2r.bmp	500	1	GKQX	500	1	blank2r.bmp	880	3	helfen	880	1	!	1313	1	!	1438	0	0	0	0	0	0
2024-05-29	10:32:26	10:37:14	288317	6.6.1	4_exp_EVA_AWA_CON	59	B	A	Rpleas_acq	Same	Rpleas	2pleas	acq_new_unple_nomask	acq2_nomask	2	26	480	1	300	300	0	0	474	46	1	0	lachen	retten	helfen	tolerant	spielen	loyal	leiden	rächen	hindern	tyrannisch	strafen	lasch	ehrlich	fair	schön	treu	schlau	freundlich	eitel	faul	schlecht	tot	schroff	fanatisch	1	blank2r.bmp	0	1	+	0	1	blank2r.bmp	500	4	B4r.bmp	500	1	blank2r.bmp	880	2	faul	880	1	!	1312	1	!	1375	0	0	0	0	0	0
2024-05-29	10:32:26	10:37:17	290887	6.6.1	4_exp_EVA_AWA_CON	59	B	A	Rpleas_acq	Same	Rpleas	2pleas	acq_new_unple_nomask	acq2_nomask	2	27	480	0	300	300	0	0	591	50	0	0	lachen	retten	helfen	tolerant	spielen	loyal	leiden	rächen	hindern	tyrannisch	strafen	lasch	ehrlich	fair	schön	treu	schlau	freundlich	eitel	faul	schlecht	tot	schroff	fanatisch	1	blank2r.bmp	0	1	+	0	1	blank2r.bmp	500	8	C4r.bmp	500	1	blank2r.bmp	880	6	fanatisch	880	1	FEHLER	1784	1	!	1312	1	!	-1	0	0	0
2024-05-29	10:32:26	10:37:19	293150	6.6.1	4_exp_EVA_AWA_CON	59	B	A	Rpleas_acq	Same	Rpleas	2pleas	acq_US_pleas_nomask	acq2_nomask	2	28	480	1	300	300	0	0	482	46	0	0	lachen	retten	helfen	tolerant	spielen	loyal	leiden	rächen	hindern	tyrannisch	strafen	lasch	ehrlich	fair	schön	treu	schlau	freundlich	eitel	faul	schlecht	tot	schroff	fanatisch	1	blank2r.bmp	0	1	+	0	1	blank2r.bmp	500	1	GKQX	500	1	blank2r.bmp	880	6	loyal	880	1	FEHLER	1676	1	!	1312	1	!	1384	0	0	0
2024-05-29	10:32:26	10:37:21	295245	6.6.1	4_exp_EVA_AWA_CON	59	B	A	Rpleas_acq	Same	Rpleas	2pleas	acq_US_unple_nomask	acq2_nomask	2	29	480	1	300	300	0	0	518	46	1	0	lachen	retten	helfen	tolerant	spielen	loyal	leiden	rächen	hindern	tyrannisch	strafen	lasch	ehrlich	fair	schön	treu	schlau	freundlich	eitel	faul	schlecht	tot	schroff	fanatisch	1	blank2r.bmp	0	1	+	0	1	blank2r.bmp	500	1	BMVZ	500	1	blank2r.bmp	880	3	hindern	880	1	!	1313	1	!	1419	0	0	0	0	0	0
2024-05-29	10:32:26	10:37:24	297635	6.6.1	4_exp_EVA_AWA_CON	59	B	A	Rpleas_acq	Same	Rpleas	2pleas	acq_US_unple_nomask	acq2_nomask	2	30	480	0	300	300	0	0	607	46	1	0	lachen	retten	helfen	tolerant	spielen	loyal	leiden	rächen	hindern	tyrannisch	strafen	lasch	ehrlich	fair	schön	treu	schlau	freundlich	eitel	faul	schlecht	tot	schroff	fanatisch	1	blank2r.bmp	0	1	+	0	1	blank2r.bmp	500	1	BMVZ	500	1	blank2r.bmp	880	2	rächen	880	1	!	1313	1	!	-1	0	0	0	0	0	0
2024-05-29	10:32:26	10:37:26	299877	6.6.1	4_exp_EVA_AWA_CON	59	B	A	Rpleas_acq	Same	Rpleas	2pleas	acq_new_pleas_nomask	acq2_nomask	2	31	480	1	300	300	0	0	467	50	1	0	lachen	retten	helfen	tolerant	spielen	loyal	leiden	rächen	hindern	tyrannisch	strafen	lasch	ehrlich	fair	schön	treu	schlau	freundlich	eitel	faul	schlecht	tot	schroff	fanatisch	1	blank2r.bmp	0	1	+	0	1	blank2r.bmp	500	5	C1r.bmp	500	1	blank2r.bmp	880	5	schlau	880	1	!	1313	1	!	1367	0	0	0	0	0	0
2024-05-29	10:32:26	10:37:28	302141	6.6.1	4_exp_EVA_AWA_CON	59	B	A	Rpleas_acq	Same	Rpleas	2pleas	acq_US_unple_nomask	acq2_nomask	2	32	480	1	300	300	0	0	489	46	1	0	lachen	retten	helfen	tolerant	spielen	loyal	leiden	rächen	hindern	tyrannisch	strafen	lasch	ehrlich	fair	schön	treu	schlau	freundlich	eitel	faul	schlecht	tot	schroff	fanatisch	1	blank2r.bmp	0	1	+	0	1	blank2r.bmp	500	1	BMVZ	500	1	blank2r.bmp	880	4	tyrannisch	880	1	!	1312	1	!	1390	0	0	0	0	0	0
2024-05-29	10:32:26	10:37:30	304405	6.6.1	4_exp_EVA_AWA_CON	59	B	A	Rpleas_acq	Same	Rpleas	2pleas	acq_new_pleas_nomask	acq2_nomask	2	33	480	1	300	300	0	0	482	50	1	0	lachen	retten	helfen	tolerant	spielen	loyal	leiden	rächen	hindern	tyrannisch	strafen	lasch	ehrlich	fair	schön	treu	schlau	freundlich	eitel	faul	schlecht	tot	schroff	fanatisch	1	blank2r.bmp	0	1	+	0	1	blank2r.bmp	500	3	B3r.bmp	500	1	blank2r.bmp	880	6	freundlich	880	1	!	1313	1	!	1383	0	0	0	0	0	0
2024-05-29	10:32:26	10:37:33	306855	6.6.1	4_exp_EVA_AWA_CON	59	B	A	Rpleas_acq	Same	Rpleas	2pleas	acq_new_unple_nomask	acq2_nomask	2	34	480	1	300	300	0	0	467	50	0	0	lachen	retten	helfen	tolerant	spielen	loyal	leiden	rächen	hindern	tyrannisch	strafen	lasch	ehrlich	fair	schön	treu	schlau	freundlich	eitel	faul	schlecht	tot	schroff	fanatisch	1	blank2r.bmp	0	1	+	0	1	blank2r.bmp	500	6	C2r.bmp	500	1	blank2r.bmp	880	5	schroff	880	1	FEHLER	1661	1	!	1312	1	!	1369	0	0	0
2024-05-29	10:32:26	10:37:35	308973	6.6.1	4_exp_EVA_AWA_CON	59	B	A	Rpleas_acq	Same	Rpleas	2pleas	acq_new_pleas_nomask	acq2_nomask	2	35	480	1	300	300	0	0	547	50	1	0	lachen	retten	helfen	tolerant	spielen	loyal	leiden	rächen	hindern	tyrannisch	strafen	lasch	ehrlich	fair	schön	treu	schlau	freundlich	eitel	faul	schlecht	tot	schroff	fanatisch	1	blank2r.bmp	0	1	+	0	1	blank2r.bmp	500	4	B4r.bmp	500	1	blank2r.bmp	880	2	fair	880	1	!	1313	1	!	1448	0	0	0	0	0	0
2024-05-29	10:32:26	10:37:37	311277	6.6.1	4_exp_EVA_AWA_CON	59	B	A	Rpleas_acq	Same	Rpleas	2pleas	acq_US_pleas_nomask	acq2_nomask	2	36	480	1	300	300	0	0	528	50	1	0	lachen	retten	helfen	tolerant	spielen	loyal	leiden	rächen	hindern	tyrannisch	strafen	lasch	ehrlich	fair	schön	treu	schlau	freundlich	eitel	faul	schlecht	tot	schroff	fanatisch	1	blank2r.bmp	0	1	+	0	1	blank2r.bmp	500	1	GKQX	500	1	blank2r.bmp	880	2	retten	880	1	!	1313	1	!	1430	0	0	0	0	0	0
2024-05-29	10:32:26	10:38:00	334349	6.6.1	4_exp_EVA_AWA_CON	59	B	A	Rpleas_acq	Same	Rpleas	2pleas	acq_US_unple_nomask	acq3_nomask	3	1	453	1	300	300	0	0	416	46	1	0	lachen	retten	helfen	tolerant	spielen	loyal	leiden	rächen	hindern	tyrannisch	strafen	lasch	ehrlich	fair	schön	treu	schlau	freundlich	eitel	faul	schlecht	tot	schroff	fanatisch	1	blank2r.bmp	0	1	+	0	1	blank2r.bmp	500	1	BMVZ	500	1	blank2r.bmp	880	5	strafen	880	1	!	1293	1	!	1317	0	0	0	0	0	0
2024-05-29	10:32:26	10:38:03	336605	6.6.1	4_exp_EVA_AWA_CON	59	B	A	Rpleas_acq	Same	Rpleas	2pleas	acq_US_unple_nomask	acq3_nomask	3	2	453	1	300	300	0	0	480	46	1	0	lachen	retten	helfen	tolerant	spielen	loyal	leiden	rächen	hindern	tyrannisch	strafen	lasch	ehrlich	fair	schön	treu	schlau	freundlich	eitel	faul	schlecht	tot	schroff	fanatisch	1	blank2r.bmp	0	1	+	0	1	blank2r.bmp	500	1	BMVZ	500	1	blank2r.bmp	880	4	tyrannisch	880	1	!	1292	1	!	1382	0	0	0	0	0	0
2024-05-29	10:32:26	10:38:05	338829	6.6.1	4_exp_EVA_AWA_CON	59	B	A	Rpleas_acq	Same	Rpleas	2pleas	acq_US_pleas_nomask	acq3_nomask	3	3	453	1	300	300	0	0	442	50	1	0	lachen	retten	helfen	tolerant	spielen	loyal	leiden	rächen	hindern	tyrannisch	strafen	lasch	ehrlich	fair	schön	treu	schlau	freundlich	eitel	faul	schlecht	tot	schroff	fanatisch	1	blank2r.bmp	0	1	+	0	1	blank2r.bmp	500	1	GKQX	500	1	blank2r.bmp	880	3	helfen	880	1	!	1293	1	!	1344	0	0	0	0	0	0
2024-05-29	10:32:26	10:38:07	341085	6.6.1	4_exp_EVA_AWA_CON	59	B	A	Rpleas_acq	Same	Rpleas	2pleas	acq_US_pleas_nomask	acq3_nomask	3	4	453	1	300	300	0	0	477	50	1	0	lachen	retten	helfen	tolerant	spielen	loyal	leiden	rächen	hindern	tyrannisch	strafen	lasch	ehrlich	fair	schön	treu	schlau	freundlich	eitel	faul	schlecht	tot	schroff	fanatisch	1	blank2r.bmp	0	1	+	0	1	blank2r.bmp	500	1	GKQX	500	1	blank2r.bmp	880	6	loyal	880	1	!	1292	1	!	1378	0	0	0	0	0	0
2024-05-29	10:32:26	10:38:09	343469	6.6.1	4_exp_EVA_AWA_CON	59	B	A	Rpleas_acq	Same	Rpleas	2pleas	acq_US_unple_nomask	acq3_nomask	3	5	453	1	300	300	0	0	400	50	0	0	lachen	retten	helfen	tolerant	spielen	loyal	leiden	rächen	hindern	tyrannisch	strafen	lasch	ehrlich	fair	schön	treu	schlau	freundlich	eitel	faul	schlecht	tot	schroff	fanatisch	1	blank2r.bmp	0	1	+	0	1	blank2r.bmp	500	1	BMVZ	500	1	blank2r.bmp	880	2	rächen	880	1	FEHLER	1592	1	!	1293	1	!	1299	0	0	0
2024-05-29	10:32:26	10:38:12	345787	6.6.1	4_exp_EVA_AWA_CON	59	B	A	Rpleas_acq	Same	Rpleas	2pleas	acq_US_unple_nomask	acq3_nomask	3	6	453	0	300	300	0	0	739	46	1	0	lachen	retten	helfen	tolerant	spielen	loyal	leiden	rächen	hindern	tyrannisch	strafen	lasch	ehrlich	fair	schön	treu	schlau	freundlich	eitel	faul	schlecht	tot	schroff	fanatisch	1	blank2r.bmp	0	1	+	0	1	blank2r.bmp	500	1	BMVZ	500	1	blank2r.bmp	880	3	hindern	880	1	!	1292	1	!	-1	0	0	0	0	0	0
2024-05-29	10:32:26	10:38:14	348069	6.6.1	4_exp_EVA_AWA_CON	59	B	A	Rpleas_acq	Same	Rpleas	2pleas	acq_US_pleas_nomask	acq3_nomask	3	7	453	1	300	300	0	0	506	50	1	0	lachen	retten	helfen	tolerant	spielen	loyal	leiden	rächen	hindern	tyrannisch	strafen	lasch	ehrlich	fair	schön	treu	schlau	freundlich	eitel	faul	schlecht	tot	schroff	fanatisch	1	blank2r.bmp	0	1	+	0	1	blank2r.bmp	500	1	GKQX	500	1	blank2r.bmp	880	5	spielen	880	1	!	1293	1	!	1408	0	0	0	0	0	0
2024-05-29	10:32:26	10:38:17	350598	6.6.1	4_exp_EVA_AWA_CON	59	B	A	Rpleas_acq	Same	Rpleas	2pleas	acq_US_unple_nomask	acq3_nomask	3	8	453	0	300	300	0	0	554	50	0	0	lachen	retten	helfen	tolerant	spielen	loyal	leiden	rächen	hindern	tyrannisch	strafen	lasch	ehrlich	fair	schön	treu	schlau	freundlich	eitel	faul	schlecht	tot	schroff	fanatisch	1	blank2r.bmp	0	1	+	0	1	blank2r.bmp	500	1	BMVZ	500	1	blank2r.bmp	880	6	lasch	880	1	FEHLER	1747	1	!	1293	1	!	-1	0	0	0
2024-05-29	10:32:26	10:38:19	352731	6.6.1	4_exp_EVA_AWA_CON	59	B	A	Rpleas_acq	Same	Rpleas	2pleas	acq_US_pleas_nomask	acq3_nomask	3	9	453	0	300	300	0	0	558	50	1	0	lachen	retten	helfen	tolerant	spielen	loyal	leiden	rächen	hindern	tyrannisch	strafen	lasch	ehrlich	fair	schön	treu	schlau	freundlich	eitel	faul	schlecht	tot	schroff	fanatisch	1	blank2r.bmp	0	1	+	0	1	blank2r.bmp	500	1	GKQX	500	1	blank2r.bmp	880	4	tolerant	880	1	!	1292	1	!	-1	0	0	0	0	0	0
2024-05-29	10:32:26	10:38:21	354997	6.6.1	4_exp_EVA_AWA_CON	59	B	A	Rpleas_acq	Same	Rpleas	2pleas	acq_US_pleas_nomask	acq3_nomask	3	10	453	1	300	300	0	0	490	50	1	0	lachen	retten	helfen	tolerant	spielen	loyal	leiden	rächen	hindern	tyrannisch	strafen	lasch	ehrlich	fair	schön	treu	schlau	freundlich	eitel	faul	schlecht	tot	schroff	fanatisch	1	blank2r.bmp	0	1	+	0	1	blank2r.bmp	500	1	GKQX	500	1	blank2r.bmp	880	1	lachen	880	1	!	1292	1	!	1392	0	0	0	0	0	0
2024-05-29	10:32:26	10:38:23	357253	6.6.1	4_exp_EVA_AWA_CON	59	B	A	Rpleas_acq	Same	Rpleas	2pleas	acq_US_pleas_nomask	acq3_nomask	3	11	453	1	300	300	0	0	475	50	1	0	lachen	retten	helfen	tolerant	spielen	loyal	leiden	rächen	hindern	tyrannisch	strafen	lasch	ehrlich	fair	schön	treu	schlau	freundlich	eitel	faul	schlecht	tot	schroff	fanatisch	1	blank2r.bmp	0	1	+	0	1	blank2r.bmp	500	1	GKQX	500	1	blank2r.bmp	880	2	retten	880	1	!	1292	1	!	1376	0	0	0	0	0	0
2024-05-29	10:32:26	10:38:25	359395	6.6.1	4_exp_EVA_AWA_CON	59	B	A	Rpleas_acq	Same	Rpleas	2pleas	acq_US_unple_nomask	acq3_nomask	3	12	453	0	300	300	0	0	368	46	1	0	lachen	retten	helfen	tolerant	spielen	loyal	leiden	rächen	hindern	tyrannisch	strafen	lasch	ehrlich	fair	schön	treu	schlau	freundlich	eitel	faul	schlecht	tot	schroff	fanatisch	1	blank2r.bmp	0	1	+	0	1	blank2r.bmp	500	1	BMVZ	500	1	blank2r.bmp	880	1	leiden	880	1	!	-1	1	!	-1	0	0	0	0	0	0
2024-05-29	10:32:26	10:38:28	361731	6.6.1	4_exp_EVA_AWA_CON	59	B	A	Rpleas_acq	Same	Rpleas	2pleas	acq_US_unple_nomask	acq3_nomask	3	13	453	0	300	300	0	0	561	46	1	0	lachen	retten	helfen	tolerant	spielen	loyal	leiden	rächen	hindern	tyrannisch	strafen	lasch	ehrlich	fair	schön	treu	schlau	freundlich	eitel	faul	schlecht	tot	schroff	fanatisch	1	blank2r.bmp	0	1	+	0	1	blank2r.bmp	500	1	BMVZ	500	1	blank2r.bmp	880	1	leiden	880	1	!	1292	1	!	-1	0	0	0	0	0	0
2024-05-29	10:32:26	10:38:30	363933	6.6.1	4_exp_EVA_AWA_CON	59	B	A	Rpleas_acq	Same	Rpleas	2pleas	acq_US_pleas_nomask	acq3_nomask	3	14	453	1	300	300	0	0	420	50	1	0	lachen	retten	helfen	tolerant	spielen	loyal	leiden	rächen	hindern	tyrannisch	strafen	lasch	ehrlich	fair	schön	treu	schlau	freundlich	eitel	faul	schlecht	tot	schroff	fanatisch	1	blank2r.bmp	0	1	+	0	1	blank2r.bmp	500	1	GKQX	500	1	blank2r.bmp	880	3	helfen	880	1	!	1293	1	!	1322	0	0	0	0	0	0
2024-05-29	10:32:26	10:38:32	366181	6.6.1	4_exp_EVA_AWA_CON	59	B	A	Rpleas_acq	Same	Rpleas	2pleas	acq_US_unple_nomask	acq3_nomask	3	15	453	1	300	300	0	0	466	46	1	0	lachen	retten	helfen	tolerant	spielen	loyal	leiden	rächen	hindern	tyrannisch	strafen	lasch	ehrlich	fair	schön	treu	schlau	freundlich	eitel	faul	schlecht	tot	schroff	fanatisch	1	blank2r.bmp	0	1	+	0	1	blank2r.bmp	500	1	BMVZ	500	1	blank2r.bmp	880	6	lasch	880	1	!	1292	1	!	1368	0	0	0	0	0	0
2024-05-29	10:32:26	10:38:34	368413	6.6.1	4_exp_EVA_AWA_CON	59	B	A	Rpleas_acq	Same	Rpleas	2pleas	acq_US_pleas_nomask	acq3_nomask	3	16	453	1	300	300	0	0	457	50	1	0	lachen	retten	helfen	tolerant	spielen	loyal	leiden	rächen	hindern	tyrannisch	strafen	lasch	ehrlich	fair	schön	treu	schlau	freundlich	eitel	faul	schlecht	tot	schroff	fanatisch	1	blank2r.bmp	0	1	+	0	1	blank2r.bmp	500	1	GKQX	500	1	blank2r.bmp	880	4	tolerant	880	1	!	1292	1	!	1359	0	0	0	0	0	0
2024-05-29	10:32:26	10:38:37	370645	6.6.1	4_exp_EVA_AWA_CON	59	B	A	Rpleas_acq	Same	Rpleas	2pleas	acq_US_unple_nomask	acq3_nomask	3	17	453	1	300	300	0	0	459	46	1	0	lachen	retten	helfen	tolerant	spielen	loyal	leiden	rächen	hindern	tyrannisch	strafen	lasch	ehrlich	fair	schön	treu	schlau	freundlich	eitel	faul	schlecht	tot	schroff	fanatisch	1	blank2r.bmp	0	1	+	0	1	blank2r.bmp	500	1	BMVZ	500	1	blank2r.bmp	880	2	rächen	880	1	!	1293	1	!	1359	0	0	0	0	0	0
2024-05-29	10:32:26	10:38:39	372988	6.6.1	4_exp_EVA_AWA_CON	59	B	A	Rpleas_acq	Same	Rpleas	2pleas	acq_US_unple_nomask	acq3_nomask	3	18	453	0	300	300	0	0	560	46	1	0	lachen	retten	helfen	tolerant	spielen	loyal	leiden	rächen	hindern	tyrannisch	strafen	lasch	ehrlich	fair	schön	treu	schlau	freundlich	eitel	faul	schlecht	tot	schroff	fanatisch	1	blank2r.bmp	0	1	+	0	1	blank2r.bmp	500	1	BMVZ	500	1	blank2r.bmp	880	5	strafen	880	1	!	1293	1	!	-1	0	0	0	0	0	0
2024-05-29	10:32:26	10:38:41	375315	6.6.1	4_exp_EVA_AWA_CON	59	B	A	Rpleas_acq	Same	Rpleas	2pleas	acq_US_unple_nomask	acq3_nomask	3	19	453	0	300	300	0	0	547	46	1	0	lachen	retten	helfen	tolerant	spielen	loyal	leiden	rächen	hindern	tyrannisch	strafen	lasch	ehrlich	fair	schön	treu	schlau	freundlich	eitel	faul	schlecht	tot	schroff	fanatisch	1	blank2r.bmp	0	1	+	0	1	blank2r.bmp	500	1	BMVZ	500	1	blank2r.bmp	880	3	hindern	880	1	!	1293	1	!	-1	0	0	0	0	0	0
2024-05-29	10:32:26	10:38:44	377549	6.6.1	4_exp_EVA_AWA_CON	59	B	A	Rpleas_acq	Same	Rpleas	2pleas	acq_US_unple_nomask	acq3_nomask	3	20	453	1	300	300	0	0	457	46	1	0	lachen	retten	helfen	tolerant	spielen	loyal	leiden	rächen	hindern	tyrannisch	strafen	lasch	ehrlich	fair	schön	treu	schlau	freundlich	eitel	faul	schlecht	tot	schroff	fanatisch	1	blank2r.bmp	0	1	+	0	1	blank2r.bmp	500	1	BMVZ	500	1	blank2r.bmp	880	4	tyrannisch	880	1	!	1292	1	!	1359	0	0	0	0	0	0
2024-05-29	10:32:26	10:38:46	379773	6.6.1	4_exp_EVA_AWA_CON	59	B	A	Rpleas_acq	Same	Rpleas	2pleas	acq_US_pleas_nomask	acq3_nomask	3	21	453	1	300	300	0	0	450	50	1	0	lachen	retten	helfen	tolerant	spielen	loyal	leiden	rächen	hindern	tyrannisch	strafen	lasch	ehrlich	fair	schön	treu	schlau	freundlich	eitel	faul	schlecht	tot	schroff	fanatisch	1	blank2r.bmp	0	1	+	0	1	blank2r.bmp	500	1	GKQX	500	1	blank2r.bmp	880	2	retten	880	1	!	1293	1	!	1352	0	0	0	0	0	0
2024-05-29	10:32:26	10:38:48	381939	6.6.1	4_exp_EVA_AWA_CON	59	B	A	Rpleas_acq	Same	Rpleas	2pleas	acq_US_pleas_nomask	acq3_nomask	3	22	453	0	300	300	0	0	387	50	1	0	lachen	retten	helfen	tolerant	spielen	loyal	leiden	rächen	hindern	tyrannisch	strafen	lasch	ehrlich	fair	schön	treu	schlau	freundlich	eitel	faul	schlecht	tot	schroff	fanatisch	1	blank2r.bmp	0	1	+	0	1	blank2r.bmp	500	1	GKQX	500	1	blank2r.bmp	880	1	lachen	880	1	!	-1	1	!	-1	0	0	0	0	0	0
2024-05-29	10:32:26	10:38:50	384390	6.6.1	4_exp_EVA_AWA_CON	59	B	A	Rpleas_acq	Same	Rpleas	2pleas	acq_US_pleas_nomask	acq3_nomask	3	23	453	1	300	300	0	0	472	46	0	0	lachen	retten	helfen	tolerant	spielen	loyal	leiden	rächen	hindern	tyrannisch	strafen	lasch	ehrlich	fair	schön	treu	schlau	freundlich	eitel	faul	schlecht	tot	schroff	fanatisch	1	blank2r.bmp	0	1	+	0	1	blank2r.bmp	500	1	GKQX	500	1	blank2r.bmp	880	6	loyal	880	1	FEHLER	1666	1	!	1292	1	!	1374	0	0	0
2024-05-29	10:32:26	10:38:52	386437	6.6.1	4_exp_EVA_AWA_CON	59	B	A	Rpleas_acq	Same	Rpleas	2pleas	acq_US_pleas_nomask	acq3_nomask	3	24	453	1	300	300	0	0	470	50	1	0	lachen	retten	helfen	tolerant	spielen	loyal	leiden	rächen	hindern	tyrannisch	strafen	lasch	ehrlich	fair	schön	treu	schlau	freundlich	eitel	faul	schlecht	tot	schroff	fanatisch	1	blank2r.bmp	0	1	+	0	1	blank2r.bmp	500	1	GKQX	500	1	blank2r.bmp	880	5	spielen	880	1	!	1293	1	!	1372	0	0	0	0	0	0
2024-05-29	10:32:26	10:38:55	388645	6.6.1	4_exp_EVA_AWA_CON	59	B	A	Rpleas_acq	Same	Rpleas	2pleas	acq_US_pleas_nomask	acq3_nomask	3	25	453	1	300	300	0	0	426	50	1	0	lachen	retten	helfen	tolerant	spielen	loyal	leiden	rächen	hindern	tyrannisch	strafen	lasch	ehrlich	fair	schön	treu	schlau	freundlich	eitel	faul	schlecht	tot	schroff	fanatisch	1	blank2r.bmp	0	1	+	0	1	blank2r.bmp	500	1	GKQX	500	1	blank2r.bmp	880	6	loyal	880	1	!	1292	1	!	1327	0	0	0	0	0	0
2024-05-29	10:32:26	10:38:57	390901	6.6.1	4_exp_EVA_AWA_CON	59	B	A	Rpleas_acq	Same	Rpleas	2pleas	acq_US_pleas_nomask	acq3_nomask	3	26	453	1	300	300	0	0	480	50	1	0	lachen	retten	helfen	tolerant	spielen	loyal	leiden	rächen	hindern	tyrannisch	strafen	lasch	ehrlich	fair	schön	treu	schlau	freundlich	eitel	faul	schlecht	tot	schroff	fanatisch	1	blank2r.bmp	0	1	+	0	1	blank2r.bmp	500	1	GKQX	500	1	blank2r.bmp	880	2	retten	880	1	!	1292	1	!	1382	0	0	0	0	0	0
2024-05-29	10:32:26	10:38:59	393117	6.6.1	4_exp_EVA_AWA_CON	59	B	A	Rpleas_acq	Same	Rpleas	2pleas	acq_US_unple_nomask	acq3_nomask	3	27	453	1	300	300	0	0	435	46	1	0	lachen	retten	helfen	tolerant	spielen	loyal	leiden	rächen	hindern	tyrannisch	strafen	lasch	ehrlich	fair	schön	treu	schlau	freundlich	eitel	faul	schlecht	tot	schroff	fanatisch	1	blank2r.bmp	0	1	+	0	1	blank2r.bmp	500	1	BMVZ	500	1	blank2r.bmp	880	5	strafen	880	1	!	1293	1	!	1336	0	0	0	0	0	0
2024-05-29	10:32:26	10:39:01	395349	6.6.1	4_exp_EVA_AWA_CON	59	B	A	Rpleas_acq	Same	Rpleas	2pleas	acq_US_unple_nomask	acq3_nomask	3	28	453	1	300	300	0	0	456	46	1	0	lachen	retten	helfen	tolerant	spielen	loyal	leiden	rächen	hindern	tyrannisch	strafen	lasch	ehrlich	fair	schön	treu	schlau	freundlich	eitel	faul	schlecht	tot	schroff	fanatisch	1	blank2r.bmp	0	1	+	0	1	blank2r.bmp	500	1	BMVZ	500	1	blank2r.bmp	880	4	tyrannisch	880	1	!	1292	1	!	1357	0	0	0	0	0	0
2024-05-29	10:32:26	10:39:03	397507	6.6.1	4_exp_EVA_AWA_CON	59	B	A	Rpleas_acq	Same	Rpleas	2pleas	acq_US_pleas_nomask	acq3_nomask	3	29	453	0	300	300	0	0	384	50	1	0	lachen	retten	helfen	tolerant	spielen	loyal	leiden	rächen	hindern	tyrannisch	strafen	lasch	ehrlich	fair	schön	treu	schlau	freundlich	eitel	faul	schlecht	tot	schroff	fanatisch	1	blank2r.bmp	0	1	+	0	1	blank2r.bmp	500	1	GKQX	500	1	blank2r.bmp	880	5	spielen	880	1	!	-1	1	!	-1	0	0	0	0	0	0
2024-05-29	10:32:26	10:39:06	399805	6.6.1	4_exp_EVA_AWA_CON	59	B	A	Rpleas_acq	Same	Rpleas	2pleas	acq_US_unple_nomask	acq3_nomask	3	30	453	1	300	300	0	0	518	46	1	0	lachen	retten	helfen	tolerant	spielen	loyal	leiden	rächen	hindern	tyrannisch	strafen	lasch	ehrlich	fair	schön	treu	schlau	freundlich	eitel	faul	schlecht	tot	schroff	fanatisch	1	blank2r.bmp	0	1	+	0	1	blank2r.bmp	500	1	BMVZ	500	1	blank2r.bmp	880	1	leiden	880	1	!	1292	1	!	1420	0	0	0	0	0	0
2024-05-29	10:32:26	10:39:08	402069	6.6.1	4_exp_EVA_AWA_CON	59	B	A	Rpleas_acq	Same	Rpleas	2pleas	acq_US_pleas_nomask	acq3_nomask	3	31	453	1	300	300	0	0	481	50	1	0	lachen	retten	helfen	tolerant	spielen	loyal	leiden	rächen	hindern	tyrannisch	strafen	lasch	ehrlich	fair	schön	treu	schlau	freundlich	eitel	faul	schlecht	tot	schroff	fanatisch	1	blank2r.bmp	0	1	+	0	1	blank2r.bmp	500	1	GKQX	500	1	blank2r.bmp	880	3	helfen	880	1	!	1292	1	!	1383	0	0	0	0	0	0
2024-05-29	10:32:26	10:39:10	404333	6.6.1	4_exp_EVA_AWA_CON	59	B	A	Rpleas_acq	Same	Rpleas	2pleas	acq_US_unple_nomask	acq3_nomask	3	32	453	1	300	300	0	0	483	46	1	0	lachen	retten	helfen	tolerant	spielen	loyal	leiden	rächen	hindern	tyrannisch	strafen	lasch	ehrlich	fair	schön	treu	schlau	freundlich	eitel	faul	schlecht	tot	schroff	fanatisch	1	blank2r.bmp	0	1	+	0	1	blank2r.bmp	500	1	BMVZ	500	1	blank2r.bmp	880	3	hindern	880	1	!	1293	1	!	1385	0	0	0	0	0	0
2024-05-29	10:32:26	10:39:13	406694	6.6.1	4_exp_EVA_AWA_CON	59	B	A	Rpleas_acq	Same	Rpleas	2pleas	acq_US_pleas_nomask	acq3_nomask	3	33	453	0	300	300	0	0	383	46	0	0	lachen	retten	helfen	tolerant	spielen	loyal	leiden	rächen	hindern	tyrannisch	strafen	lasch	ehrlich	fair	schön	treu	schlau	freundlich	eitel	faul	schlecht	tot	schroff	fanatisch	1	blank2r.bmp	0	1	+	0	1	blank2r.bmp	500	1	GKQX	500	1	blank2r.bmp	880	4	tolerant	880	1	FEHLER	1576	1	!	-1	1	!	-1	0	0	0
2024-05-29	10:32:26	10:39:15	408733	6.6.1	4_exp_EVA_AWA_CON	59	B	A	Rpleas_acq	Same	Rpleas	2pleas	acq_US_pleas_nomask	acq3_nomask	3	34	453	1	300	300	0	0	462	50	1	0	lachen	retten	helfen	tolerant	spielen	loyal	leiden	rächen	hindern	tyrannisch	strafen	lasch	ehrlich	fair	schön	treu	schlau	freundlich	eitel	faul	schlecht	tot	schroff	fanatisch	1	blank2r.bmp	0	1	+	0	1	blank2r.bmp	500	1	GKQX	500	1	blank2r.bmp	880	1	lachen	880	1	!	1292	1	!	1363	0	0	0	0	0	0
2024-05-29	10:32:26	10:39:17	410924	6.6.1	4_exp_EVA_AWA_CON	59	B	A	Rpleas_acq	Same	Rpleas	2pleas	acq_US_unple_nomask	acq3_nomask	3	35	453	1	300	300	0	0	411	46	1	0	lachen	retten	helfen	tolerant	spielen	loyal	leiden	rächen	hindern	tyrannisch	strafen	lasch	ehrlich	fair	schön	treu	schlau	freundlich	eitel	faul	schlecht	tot	schroff	fanatisch	1	blank2r.bmp	0	1	+	0	1	blank2r.bmp	500	1	BMVZ	500	1	blank2r.bmp	880	6	lasch	880	1	!	1292	1	!	1313	0	0	0	0	0	0
2024-05-29	10:32:26	10:39:19	413189	6.6.1	4_exp_EVA_AWA_CON	59	B	A	Rpleas_acq	Same	Rpleas	2pleas	acq_US_unple_nomask	acq3_nomask	3	36	453	1	300	300	0	0	485	46	1	0	lachen	retten	helfen	tolerant	spielen	loyal	leiden	rächen	hindern	tyrannisch	strafen	lasch	ehrlich	fair	schön	treu	schlau	freundlich	eitel	faul	schlecht	tot	schroff	fanatisch	1	blank2r.bmp	0	1	+	0	1	blank2r.bmp	500	1	BMVZ	500	1	blank2r.bmp	880	2	rächen	880	1	!	1292	1	!	1385	0	0	0	0	0	0
2024-05-29	10:32:26	10:39:40	434398	6.6.1	4_exp_EVA_AWA_CON	59	B	A	Rpleas_acq	Same	Rpleas	2pleas	acq_US_unple_nomask	acq45_nomask	4	1	400	1	300	300	0	0	468	46	1	0	lachen	retten	helfen	tolerant	spielen	loyal	leiden	rächen	hindern	tyrannisch	strafen	lasch	ehrlich	fair	schön	treu	schlau	freundlich	eitel	faul	schlecht	tot	schroff	fanatisch	1	blank2r.bmp	0	1	+	0	1	blank2r.bmp	500	1	BMVZ	500	1	blank2r.bmp	880	6	lasch	880	1	!	1232	1	!	1370	0	0	0	0	0	0
2024-05-29	10:32:26	10:39:43	436597	6.6.1	4_exp_EVA_AWA_CON	59	B	A	Rpleas_acq	Same	Rpleas	2pleas	acq_US_pleas_nomask	acq45_nomask	4	2	400	1	300	300	0	0	417	50	1	0	lachen	retten	helfen	tolerant	spielen	loyal	leiden	rächen	hindern	tyrannisch	strafen	lasch	ehrlich	fair	schön	treu	schlau	freundlich	eitel	faul	schlecht	tot	schroff	fanatisch	1	blank2r.bmp	0	1	+	0	1	blank2r.bmp	500	1	GKQX	500	1	blank2r.bmp	880	1	lachen	880	1	!	1232	1	!	1318	0	0	0	0	0	0
2024-05-29	10:32:26	10:39:45	439035	6.6.1	4_exp_EVA_AWA_CON	59	B	A	Rpleas_acq	Same	Rpleas	2pleas	acq_US_pleas_nomask	acq45_nomask	4	3	400	0	300	300	0	0	665	46	0	0	lachen	retten	helfen	tolerant	spielen	loyal	leiden	rächen	hindern	tyrannisch	strafen	lasch	ehrlich	fair	schön	treu	schlau	freundlich	eitel	faul	schlecht	tot	schroff	fanatisch	1	blank2r.bmp	0	1	+	0	1	blank2r.bmp	500	1	GKQX	500	1	blank2r.bmp	880	6	loyal	880	1	!	1232	1	!	-1	0	0	0	0	0	0
2024-05-29	10:32:26	10:39:47	441299	6.6.1	4_exp_EVA_AWA_CON	59	B	A	Rpleas_acq	Same	Rpleas	2pleas	acq_US_unple_nomask	acq45_nomask	4	4	400	0	300	300	0	0	487	46	1	0	lachen	retten	helfen	tolerant	spielen	loyal	leiden	rächen	hindern	tyrannisch	strafen	lasch	ehrlich	fair	schön	treu	schlau	freundlich	eitel	faul	schlecht	tot	schroff	fanatisch	1	blank2r.bmp	0	1	+	0	1	blank2r.bmp	500	1	BMVZ	500	1	blank2r.bmp	880	5	strafen	880	1	!	1233	1	!	-1	0	0	0	0	0	0
2024-05-29	10:32:26	10:39:49	443485	6.6.1	4_exp_EVA_AWA_CON	59	B	A	Rpleas_acq	Same	Rpleas	2pleas	acq_US_unple_nomask	acq45_nomask	4	5	400	1	300	300	0	0	410	50	0	0	lachen	retten	helfen	tolerant	spielen	loyal	leiden	rächen	hindern	tyrannisch	strafen	lasch	ehrlich	fair	schön	treu	schlau	freundlich	eitel	faul	schlecht	tot	schroff	fanatisch	1	blank2r.bmp	0	1	+	0	1	blank2r.bmp	500	1	BMVZ	500	1	blank2r.bmp	880	2	rächen	880	1	!	1232	1	!	1312	0	0	0	0	0	0
2024-05-29	10:32:26	10:39:52	445685	6.6.1	4_exp_EVA_AWA_CON	59	B	A	Rpleas_acq	Same	Rpleas	2pleas	acq_US_unple_nomask	acq45_nomask	4	6	400	1	300	300	0	0	418	46	1	0	lachen	retten	helfen	tolerant	spielen	loyal	leiden	rächen	hindern	tyrannisch	strafen	lasch	ehrlich	fair	schön	treu	schlau	freundlich	eitel	faul	schlecht	tot	schroff	fanatisch	1	blank2r.bmp	0	1	+	0	1	blank2r.bmp	500	1	BMVZ	500	1	blank2r.bmp	880	1	leiden	880	1	!	1232	1	!	1320	0	0	0	0	0	0
2024-05-29	10:32:26	10:39:54	447885	6.6.1	4_exp_EVA_AWA_CON	59	B	A	Rpleas_acq	Same	Rpleas	2pleas	acq_US_unple_nomask	acq45_nomask	4	7	400	1	300	300	0	0	417	46	1	0	lachen	retten	helfen	tolerant	spielen	loyal	leiden	rächen	hindern	tyrannisch	strafen	lasch	ehrlich	fair	schön	treu	schlau	freundlich	eitel	faul	schlecht	tot	schroff	fanatisch	1	blank2r.bmp	0	1	+	0	1	blank2r.bmp	500	1	BMVZ	500	1	blank2r.bmp	880	4	tyrannisch	880	1	!	1233	1	!	1319	0	0	0	0	0	0
2024-05-29	10:32:26	10:39:56	450061	6.6.1	4_exp_EVA_AWA_CON	59	B	A	Rpleas_acq	Same	Rpleas	2pleas	acq_US_pleas_nomask	acq45_nomask	4	8	400	1	300	300	0	0	392	50	1	0	lachen	retten	helfen	tolerant	spielen	loyal	leiden	rächen	hindern	tyrannisch	strafen	lasch	ehrlich	fair	schön	treu	schlau	freundlich	eitel	faul	schlecht	tot	schroff	fanatisch	1	blank2r.bmp	0	1	+	0	1	blank2r.bmp	500	1	GKQX	500	1	blank2r.bmp	880	3	helfen	880	1	!	1232	1	!	1293	0	0	0	0	0	0
2024-05-29	10:32:26	10:39:58	452180	6.6.1	4_exp_EVA_AWA_CON	59	B	A	Rpleas_acq	Same	Rpleas	2pleas	acq_US_unple_nomask	acq45_nomask	4	9	400	1	300	300	0	0	341	46	1	0	lachen	retten	helfen	tolerant	spielen	loyal	leiden	rächen	hindern	tyrannisch	strafen	lasch	ehrlich	fair	schön	treu	schlau	freundlich	eitel	faul	schlecht	tot	schroff	fanatisch	1	blank2r.bmp	0	1	+	0	1	blank2r.bmp	500	1	BMVZ	500	1	blank2r.bmp	880	3	hindern	880	1	!	1232	1	!	1240	0	0	0	0	0	0
2024-05-29	10:32:26	10:40:00	454389	6.6.1	4_exp_EVA_AWA_CON	59	B	A	Rpleas_acq	Same	Rpleas	2pleas	acq_US_pleas_nomask	acq45_nomask	4	10	400	1	300	300	0	0	427	50	1	0	lachen	retten	helfen	tolerant	spielen	loyal	leiden	rächen	hindern	tyrannisch	strafen	lasch	ehrlich	fair	schön	treu	schlau	freundlich	eitel	faul	schlecht	tot	schroff	fanatisch	1	blank2r.bmp	0	1	+	0	1	blank2r.bmp	500	1	GKQX	500	1	blank2r.bmp	880	5	spielen	880	1	!	1232	1	!	1328	0	0	0	0	0	0
2024-05-29	10:32:26	10:40:03	456509	6.6.1	4_exp_EVA_AWA_CON	59	B	A	Rpleas_acq	Same	Rpleas	2pleas	acq_US_pleas_nomask	acq45_nomask	4	11	400	1	300	300	0	0	345	46	0	0	lachen	retten	helfen	tolerant	spielen	loyal	leiden	rächen	hindern	tyrannisch	strafen	lasch	ehrlich	fair	schön	treu	schlau	freundlich	eitel	faul	schlecht	tot	schroff	fanatisch	1	blank2r.bmp	0	1	+	0	1	blank2r.bmp	500	1	GKQX	500	1	blank2r.bmp	880	2	retten	880	1	!	1233	1	!	1247	0	0	0	0	0	0
2024-05-29	10:32:26	10:40:05	458685	6.6.1	4_exp_EVA_AWA_CON	59	B	A	Rpleas_acq	Same	Rpleas	2pleas	acq_US_unple_nomask	acq45_nomask	4	12	400	1	300	300	0	0	400	46	1	0	lachen	retten	helfen	tolerant	spielen	loyal	leiden	rächen	hindern	tyrannisch	strafen	lasch	ehrlich	fair	schön	treu	schlau	freundlich	eitel	faul	schlecht	tot	schroff	fanatisch	1	blank2r.bmp	0	1	+	0	1	blank2r.bmp	500	1	BMVZ	500	1	blank2r.bmp	880	5	strafen	880	1	!	1232	1	!	1302	0	0	0	0	0	0
2024-05-29	10:32:26	10:40:07	460971	6.6.1	4_exp_EVA_AWA_CON	59	B	A	Rpleas_acq	Same	Rpleas	2pleas	acq_US_unple_nomask	acq45_nomask	4	13	400	0	300	300	0	0	506	46	1	0	lachen	retten	helfen	tolerant	spielen	loyal	leiden	rächen	hindern	tyrannisch	strafen	lasch	ehrlich	fair	schön	treu	schlau	freundlich	eitel	faul	schlecht	tot	schroff	fanatisch	1	blank2r.bmp	0	1	+	0	1	blank2r.bmp	500	1	BMVZ	500	1	blank2r.bmp	880	3	hindern	880	1	!	1232	1	!	-1	0	0	0	0	0	0
2024-05-29	10:32:26	10:40:09	463173	6.6.1	4_exp_EVA_AWA_CON	59	B	A	Rpleas_acq	Same	Rpleas	2pleas	acq_US_unple_nomask	acq45_nomask	4	14	400	1	300	300	0	0	426	46	1	0	lachen	retten	helfen	tolerant	spielen	loyal	leiden	rächen	hindern	tyrannisch	strafen	lasch	ehrlich	fair	schön	treu	schlau	freundlich	eitel	faul	schlecht	tot	schroff	fanatisch	1	blank2r.bmp	0	1	+	0	1	blank2r.bmp	500	1	BMVZ	500	1	blank2r.bmp	880	2	rächen	880	1	!	1233	1	!	1327	0	0	0	0	0	0
2024-05-29	10:32:26	10:40:11	465357	6.6.1	4_exp_EVA_AWA_CON	59	B	A	Rpleas_acq	Same	Rpleas	2pleas	acq_US_pleas_nomask	acq45_nomask	4	15	400	1	300	300	0	0	408	50	1	0	lachen	retten	helfen	tolerant	spielen	loyal	leiden	rächen	hindern	tyrannisch	strafen	lasch	ehrlich	fair	schön	treu	schlau	freundlich	eitel	faul	schlecht	tot	schroff	fanatisch	1	blank2r.bmp	0	1	+	0	1	blank2r.bmp	500	1	GKQX	500	1	blank2r.bmp	880	4	tolerant	880	1	!	1233	1	!	1309	0	0	0	0	0	0
2024-05-29	10:32:26	10:40:13	467484	6.6.1	4_exp_EVA_AWA_CON	59	B	A	Rpleas_acq	Same	Rpleas	2pleas	acq_US_pleas_nomask	acq45_nomask	4	16	400	1	300	300	0	0	344	46	0	0	lachen	retten	helfen	tolerant	spielen	loyal	leiden	rächen	hindern	tyrannisch	strafen	lasch	ehrlich	fair	schön	treu	schlau	freundlich	eitel	faul	schlecht	tot	schroff	fanatisch	1	blank2r.bmp	0	1	+	0	1	blank2r.bmp	500	1	GKQX	500	1	blank2r.bmp	880	6	loyal	880	1	!	1232	1	!	1246	0	0	0	0	0	0
2024-05-29	10:32:26	10:40:16	469669	6.6.1	4_exp_EVA_AWA_CON	59	B	A	Rpleas_acq	Same	Rpleas	2pleas	acq_US_pleas_nomask	acq45_nomask	4	17	400	1	300	300	0	0	408	46	0	0	lachen	retten	helfen	tolerant	spielen	loyal	leiden	rächen	hindern	tyrannisch	strafen	lasch	ehrlich	fair	schön	treu	schlau	freundlich	eitel	faul	schlecht	tot	schroff	fanatisch	1	blank2r.bmp	0	1	+	0	1	blank2r.bmp	500	1	GKQX	500	1	blank2r.bmp	880	5	spielen	880	1	!	1233	1	!	1309	0	0	0	0	0	0
2024-05-29	10:32:26	10:40:18	471917	6.6.1	4_exp_EVA_AWA_CON	59	B	A	Rpleas_acq	Same	Rpleas	2pleas	acq_US_pleas_nomask	acq45_nomask	4	18	400	1	300	300	0	0	463	50	1	0	lachen	retten	helfen	tolerant	spielen	loyal	leiden	rächen	hindern	tyrannisch	strafen	lasch	ehrlich	fair	schön	treu	schlau	freundlich	eitel	faul	schlecht	tot	schroff	fanatisch	1	blank2r.bmp	0	1	+	0	1	blank2r.bmp	500	1	GKQX	500	1	blank2r.bmp	880	2	retten	880	1	!	1232	1	!	1365	0	0	0	0	0	0
2024-05-29	10:32:26	10:40:20	474109	6.6.1	4_exp_EVA_AWA_CON	59	B	A	Rpleas_acq	Same	Rpleas	2pleas	acq_US_unple_nomask	acq45_nomask	4	19	400	1	300	300	0	0	414	46	1	0	lachen	retten	helfen	tolerant	spielen	loyal	leiden	rächen	hindern	tyrannisch	strafen	lasch	ehrlich	fair	schön	treu	schlau	freundlich	eitel	faul	schlecht	tot	schroff	fanatisch	1	blank2r.bmp	0	1	+	0	1	blank2r.bmp	500	1	BMVZ	500	1	blank2r.bmp	880	4	tyrannisch	880	1	!	1232	1	!	1315	0	0	0	0	0	0
2024-05-29	10:32:26	10:40:22	476301	6.6.1	4_exp_EVA_AWA_CON	59	B	A	Rpleas_acq	Same	Rpleas	2pleas	acq_US_pleas_nomask	acq45_nomask	4	20	400	1	300	300	0	0	414	46	0	0	lachen	retten	helfen	tolerant	spielen	loyal	leiden	rächen	hindern	tyrannisch	strafen	lasch	ehrlich	fair	schön	treu	schlau	freundlich	eitel	faul	schlecht	tot	schroff	fanatisch	1	blank2r.bmp	0	1	+	0	1	blank2r.bmp	500	1	GKQX	500	1	blank2r.bmp	880	4	tolerant	880	1	!	1232	1	!	1316	0	0	0	0	0	0
2024-05-29	10:32:26	10:40:25	478553	6.6.1	4_exp_EVA_AWA_CON	59	B	A	Rpleas_acq	Same	Rpleas	2pleas	acq_US_unple_nomask	acq45_nomask	4	21	400	0	300	300	0	0	479	46	1	0	lachen	retten	helfen	tolerant	spielen	loyal	leiden	rächen	hindern	tyrannisch	strafen	lasch	ehrlich	fair	schön	treu	schlau	freundlich	eitel	faul	schlecht	tot	schroff	fanatisch	1	blank2r.bmp	0	1	+	0	1	blank2r.bmp	500	1	BMVZ	500	1	blank2r.bmp	880	1	leiden	880	1	!	1232	1	!	-1	0	0	0	0	0	0
2024-05-29	10:32:26	10:40:27	480668	6.6.1	4_exp_EVA_AWA_CON	59	B	A	Rpleas_acq	Same	Rpleas	2pleas	acq_US_unple_nomask	acq45_nomask	4	22	400	1	300	300	0	0	340	50	0	0	lachen	retten	helfen	tolerant	spielen	loyal	leiden	rächen	hindern	tyrannisch	strafen	lasch	ehrlich	fair	schön	treu	schlau	freundlich	eitel	faul	schlecht	tot	schroff	fanatisch	1	blank2r.bmp	0	1	+	0	1	blank2r.bmp	500	1	BMVZ	500	1	blank2r.bmp	880	6	lasch	880	1	!	1233	1	!	1240	0	0	0	0	0	0
2024-05-29	10:32:26	10:40:29	482852	6.6.1	4_exp_EVA_AWA_CON	59	B	A	Rpleas_acq	Same	Rpleas	2pleas	acq_US_unple_nomask	acq45_nomask	4	23	400	1	300	300	0	0	402	46	1	0	lachen	retten	helfen	tolerant	spielen	loyal	leiden	rächen	hindern	tyrannisch	strafen	lasch	ehrlich	fair	schön	treu	schlau	freundlich	eitel	faul	schlecht	tot	schroff	fanatisch	1	blank2r.bmp	0	1	+	0	1	blank2r.bmp	500	1	BMVZ	500	1	blank2r.bmp	880	1	leiden	880	1	!	1232	1	!	1304	0	0	0	0	0	0
2024-05-29	10:32:26	10:40:31	484963	6.6.1	4_exp_EVA_AWA_CON	59	B	A	Rpleas_acq	Same	Rpleas	2pleas	acq_US_pleas_nomask	acq45_nomask	4	24	400	1	300	300	0	0	334	46	0	0	lachen	retten	helfen	tolerant	spielen	loyal	leiden	rächen	hindern	tyrannisch	strafen	lasch	ehrlich	fair	schön	treu	schlau	freundlich	eitel	faul	schlecht	tot	schroff	fanatisch	1	blank2r.bmp	0	1	+	0	1	blank2r.bmp	500	1	GKQX	500	1	blank2r.bmp	880	1	lachen	880	1	!	1232	1	!	1233	0	0	0	0	0	0
2024-05-29	10:32:26	10:40:33	486987	6.6.1	4_exp_EVA_AWA_CON	59	B	A	Rpleas_acq	Same	Rpleas	2pleas	acq_US_unple_nomask	acq45_nomask	4	25	400	0	300	300	0	0	245	46	1	0	lachen	retten	helfen	tolerant	spielen	loyal	leiden	rächen	hindern	tyrannisch	strafen	lasch	ehrlich	fair	schön	treu	schlau	freundlich	eitel	faul	schlecht	tot	schroff	fanatisch	1	blank2r.bmp	0	1	+	0	1	blank2r.bmp	500	1	BMVZ	500	1	blank2r.bmp	880	5	strafen	880	1	!	-1	1	!	-1	0	0	0	0	0	0
2024-05-29	10:32:26	10:40:35	489141	6.6.1	4_exp_EVA_AWA_CON	59	B	A	Rpleas_acq	Same	Rpleas	2pleas	acq_US_unple_nomask	acq45_nomask	4	26	400	1	300	300	0	0	376	46	1	0	lachen	retten	helfen	tolerant	spielen	loyal	leiden	rächen	hindern	tyrannisch	strafen	lasch	ehrlich	fair	schön	treu	schlau	freundlich	eitel	faul	schlecht	tot	schroff	fanatisch	1	blank2r.bmp	0	1	+	0	1	blank2r.bmp	500	1	BMVZ	500	1	blank2r.bmp	880	4	tyrannisch	880	1	!	1232	1	!	1278	0	0	0	0	0	0
2024-05-29	10:32:26	10:40:37	491365	6.6.1	4_exp_EVA_AWA_CON	59	B	A	Rpleas_acq	Same	Rpleas	2pleas	acq_US_unple_nomask	acq45_nomask	4	27	400	1	300	300	0	0	449	46	1	0	lachen	retten	helfen	tolerant	spielen	loyal	leiden	rächen	hindern	tyrannisch	strafen	lasch	ehrlich	fair	schön	treu	schlau	freundlich	eitel	faul	schlecht	tot	schroff	fanatisch	1	blank2r.bmp	0	1	+	0	1	blank2r.bmp	500	1	BMVZ	500	1	blank2r.bmp	880	3	hindern	880	1	!	1232	1	!	1350	0	0	0	0	0	0
2024-05-29	10:32:26	10:40:40	493509	6.6.1	4_exp_EVA_AWA_CON	59	B	A	Rpleas_acq	Same	Rpleas	2pleas	acq_US_unple_nomask	acq45_nomask	4	28	400	1	300	300	0	0	361	50	0	0	lachen	retten	helfen	tolerant	spielen	loyal	leiden	rächen	hindern	tyrannisch	strafen	lasch	ehrlich	fair	schön	treu	schlau	freundlich	eitel	faul	schlecht	tot	schroff	fanatisch	1	blank2r.bmp	0	1	+	0	1	blank2r.bmp	500	1	BMVZ	500	1	blank2r.bmp	880	2	rächen	880	1	!	1232	1	!	1263	0	0	0	0	0	0
2024-05-29	10:32:26	10:40:42	495661	6.6.1	4_exp_EVA_AWA_CON	59	B	A	Rpleas_acq	Same	Rpleas	2pleas	acq_US_unple_nomask	acq45_nomask	4	29	400	1	300	300	0	0	372	46	1	0	lachen	retten	helfen	tolerant	spielen	loyal	leiden	rächen	hindern	tyrannisch	strafen	lasch	ehrlich	fair	schön	treu	schlau	freundlich	eitel	faul	schlecht	tot	schroff	fanatisch	1	blank2r.bmp	0	1	+	0	1	blank2r.bmp	500	1	BMVZ	500	1	blank2r.bmp	880	6	lasch	880	1	!	1232	1	!	1273	0	0	0	0	0	0
2024-05-29	10:32:26	10:40:44	497797	6.6.1	4_exp_EVA_AWA_CON	59	B	A	Rpleas_acq	Same	Rpleas	2pleas	acq_US_pleas_nomask	acq45_nomask	4	30	400	1	300	300	0	0	356	46	0	0	lachen	retten	helfen	tolerant	spielen	loyal	leiden	rächen	hindern	tyrannisch	strafen	lasch	ehrlich	fair	schön	treu	schlau	freundlich	eitel	faul	schlecht	tot	schroff	fanatisch	1	blank2r.bmp	0	1	+	0	1	blank2r.bmp	500	1	GKQX	500	1	blank2r.bmp	880	3	helfen	880	1	!	1233	1	!	1258	0	0	0	0	0	0
2024-05-29	10:32:26	10:40:46	499787	6.6.1	4_exp_EVA_AWA_CON	59	B	A	Rpleas_acq	Same	Rpleas	2pleas	acq_US_pleas_nomask	acq45_nomask	4	31	400	0	300	300	0	0	217	46	0	0	lachen	retten	helfen	tolerant	spielen	loyal	leiden	rächen	hindern	tyrannisch	strafen	lasch	ehrlich	fair	schön	treu	schlau	freundlich	eitel	faul	schlecht	tot	schroff	fanatisch	1	blank2r.bmp	0	1	+	0	1	blank2r.bmp	500	1	GKQX	500	1	blank2r.bmp	880	5	spielen	880	1	!	-1	1	!	-1	0	0	0	0	0	0
2024-05-29	10:32:26	10:40:48	501988	6.6.1	4_exp_EVA_AWA_CON	59	B	A	Rpleas_acq	Same	Rpleas	2pleas	acq_US_pleas_nomask	acq45_nomask	4	32	400	1	300	300	0	0	426	50	1	0	lachen	retten	helfen	tolerant	spielen	loyal	leiden	rächen	hindern	tyrannisch	strafen	lasch	ehrlich	fair	schön	treu	schlau	freundlich	eitel	faul	schlecht	tot	schroff	fanatisch	1	blank2r.bmp	0	1	+	0	1	blank2r.bmp	500	1	GKQX	500	1	blank2r.bmp	880	3	helfen	880	1	!	1232	1	!	1327	0	0	0	0	0	0
2024-05-29	10:32:26	10:40:50	504181	6.6.1	4_exp_EVA_AWA_CON	59	B	A	Rpleas_acq	Same	Rpleas	2pleas	acq_US_pleas_nomask	acq45_nomask	4	33	400	1	300	300	0	0	416	50	1	0	lachen	retten	helfen	tolerant	spielen	loyal	leiden	rächen	hindern	tyrannisch	strafen	lasch	ehrlich	fair	schön	treu	schlau	freundlich	eitel	faul	schlecht	tot	schroff	fanatisch	1	blank2r.bmp	0	1	+	0	1	blank2r.bmp	500	1	GKQX	500	1	blank2r.bmp	880	1	lachen	880	1	!	1232	1	!	1318	0	0	0	0	0	0
2024-05-29	10:32:26	10:40:52	506381	6.6.1	4_exp_EVA_AWA_CON	59	B	A	Rpleas_acq	Same	Rpleas	2pleas	acq_US_pleas_nomask	acq45_nomask	4	34	400	1	300	300	0	0	425	50	1	0	lachen	retten	helfen	tolerant	spielen	loyal	leiden	rächen	hindern	tyrannisch	strafen	lasch	ehrlich	fair	schön	treu	schlau	freundlich	eitel	faul	schlecht	tot	schroff	fanatisch	1	blank2r.bmp	0	1	+	0	1	blank2r.bmp	500	1	GKQX	500	1	blank2r.bmp	880	4	tolerant	880	1	!	1233	1	!	1327	0	0	0	0	0	0
2024-05-29	10:32:26	10:40:54	508501	6.6.1	4_exp_EVA_AWA_CON	59	B	A	Rpleas_acq	Same	Rpleas	2pleas	acq_US_pleas_nomask	acq45_nomask	4	35	400	1	300	300	0	0	343	50	1	0	lachen	retten	helfen	tolerant	spielen	loyal	leiden	rächen	hindern	tyrannisch	strafen	lasch	ehrlich	fair	schön	treu	schlau	freundlich	eitel	faul	schlecht	tot	schroff	fanatisch	1	blank2r.bmp	0	1	+	0	1	blank2r.bmp	500	1	GKQX	500	1	blank2r.bmp	880	6	loyal	880	1	!	1232	1	!	1245	0	0	0	0	0	0
2024-05-29	10:32:26	10:40:57	510645	6.6.1	4_exp_EVA_AWA_CON	59	B	A	Rpleas_acq	Same	Rpleas	2pleas	acq_US_pleas_nomask	acq45_nomask	4	36	400	1	300	300	0	0	366	50	1	0	lachen	retten	helfen	tolerant	spielen	loyal	leiden	rächen	hindern	tyrannisch	strafen	lasch	ehrlich	fair	schön	treu	schlau	freundlich	eitel	faul	schlecht	tot	schroff	fanatisch	1	blank2r.bmp	0	1	+	0	1	blank2r.bmp	500	1	GKQX	500	1	blank2r.bmp	880	2	retten	880	1	!	1232	1	!	1268	0	0	0	0	0	0
2024-05-29	10:32:26	10:41:13	526659	6.6.1	4_exp_EVA_AWA_CON	59	B	A	Rpleas_acq	Same	Rpleas	2pleas	acq_US_unple_nomask	acq45_nomask	5	1	400	0	300	300	0	0	322	50	0	0	lachen	retten	helfen	tolerant	spielen	loyal	leiden	rächen	hindern	tyrannisch	strafen	lasch	ehrlich	fair	schön	treu	schlau	freundlich	eitel	faul	schlecht	tot	schroff	fanatisch	1	blank2r.bmp	0	1	+	0	1	blank2r.bmp	500	1	BMVZ	500	1	blank2r.bmp	880	1	leiden	880	1	!	-1	1	!	-1	0	0	0	0	0	0
2024-05-29	10:32:26	10:41:15	528923	6.6.1	4_exp_EVA_AWA_CON	59	B	A	Rpleas_acq	Same	Rpleas	2pleas	acq_US_pleas_nomask	acq45_nomask	5	2	400	0	300	300	0	0	484	50	1	0	lachen	retten	helfen	tolerant	spielen	loyal	leiden	rächen	hindern	tyrannisch	strafen	lasch	ehrlich	fair	schön	treu	schlau	freundlich	eitel	faul	schlecht	tot	schroff	fanatisch	1	blank2r.bmp	0	1	+	0	1	blank2r.bmp	500	1	GKQX	500	1	blank2r.bmp	880	6	loyal	880	1	!	1233	1	!	-1	0	0	0	0	0	0
2024-05-29	10:32:26	10:41:17	531069	6.6.1	4_exp_EVA_AWA_CON	59	B	A	Rpleas_acq	Same	Rpleas	2pleas	acq_US_unple_nomask	acq45_nomask	5	3	400	1	300	300	0	0	367	46	1	0	lachen	retten	helfen	tolerant	spielen	loyal	leiden	rächen	hindern	tyrannisch	strafen	lasch	ehrlich	fair	schön	treu	schlau	freundlich	eitel	faul	schlecht	tot	schroff	fanatisch	1	blank2r.bmp	0	1	+	0	1	blank2r.bmp	500	1	BMVZ	500	1	blank2r.bmp	880	6	lasch	880	1	!	1233	1	!	1268	0	0	0	0	0	0
2024-05-29	10:32:26	10:41:19	533196	6.6.1	4_exp_EVA_AWA_CON	59	B	A	Rpleas_acq	Same	Rpleas	2pleas	acq_US_unple_nomask	acq45_nomask	5	4	400	1	300	300	0	0	353	46	1	0	lachen	retten	helfen	tolerant	spielen	loyal	leiden	rächen	hindern	tyrannisch	strafen	lasch	ehrlich	fair	schön	treu	schlau	freundlich	eitel	faul	schlecht	tot	schroff	fanatisch	1	blank2r.bmp	0	1	+	0	1	blank2r.bmp	500	1	BMVZ	500	1	blank2r.bmp	880	4	tyrannisch	880	1	!	1232	1	!	1255	0	0	0	0	0	0
2024-05-29	10:32:26	10:41:21	535449	6.6.1	4_exp_EVA_AWA_CON	59	B	A	Rpleas_acq	Same	Rpleas	2pleas	acq_US_unple_nomask	acq45_nomask	5	5	400	0	300	300	0	0	478	46	1	0	lachen	retten	helfen	tolerant	spielen	loyal	leiden	rächen	hindern	tyrannisch	strafen	lasch	ehrlich	fair	schön	treu	schlau	freundlich	eitel	faul	schlecht	tot	schroff	fanatisch	1	blank2r.bmp	0	1	+	0	1	blank2r.bmp	500	1	BMVZ	500	1	blank2r.bmp	880	3	hindern	880	1	!	1232	1	!	-1	0	0	0	0	0	0
2024-05-29	10:32:26	10:41:24	537621	6.6.1	4_exp_EVA_AWA_CON	59	B	A	Rpleas_acq	Same	Rpleas	2pleas	acq_US_pleas_nomask	acq45_nomask	5	6	400	1	300	300	0	0	394	50	1	0	lachen	retten	helfen	tolerant	spielen	loyal	leiden	rächen	hindern	tyrannisch	strafen	lasch	ehrlich	fair	schön	treu	schlau	freundlich	eitel	faul	schlecht	tot	schroff	fanatisch	1	blank2r.bmp	0	1	+	0	1	blank2r.bmp	500	1	GKQX	500	1	blank2r.bmp	880	2	retten	880	1	!	1232	1	!	1296	0	0	0	0	0	0
2024-05-29	10:32:26	10:41:26	539828	6.6.1	4_exp_EVA_AWA_CON	59	B	A	Rpleas_acq	Same	Rpleas	2pleas	acq_US_pleas_nomask	acq45_nomask	5	7	400	1	300	300	0	0	431	50	1	0	lachen	retten	helfen	tolerant	spielen	loyal	leiden	rächen	hindern	tyrannisch	strafen	lasch	ehrlich	fair	schön	treu	schlau	freundlich	eitel	faul	schlecht	tot	schroff	fanatisch	1	blank2r.bmp	0	1	+	0	1	blank2r.bmp	500	1	GKQX	500	1	blank2r.bmp	880	5	spielen	880	1	!	1233	1	!	1333	0	0	0	0	0	0
2024-05-29	10:32:26	10:41:28	542037	6.6.1	4_exp_EVA_AWA_CON	59	B	A	Rpleas_acq	Same	Rpleas	2pleas	acq_US_pleas_nomask	acq45_nomask	5	8	400	1	300	300	0	0	427	50	1	0	lachen	retten	helfen	tolerant	spielen	loyal	leiden	rächen	hindern	tyrannisch	strafen	lasch	ehrlich	fair	schön	treu	schlau	freundlich	eitel	faul	schlecht	tot	schroff	fanatisch	1	blank2r.bmp	0	1	+	0	1	blank2r.bmp	500	1	GKQX	500	1	blank2r.bmp	880	4	tolerant	880	1	!	1232	1	!	1329	0	0	0	0	0	0
2024-05-29	10:32:26	10:41:30	544253	6.6.1	4_exp_EVA_AWA_CON	59	B	A	Rpleas_acq	Same	Rpleas	2pleas	acq_US_pleas_nomask	acq45_nomask	5	9	400	1	300	300	0	0	432	50	1	0	lachen	retten	helfen	tolerant	spielen	loyal	leiden	rächen	hindern	tyrannisch	strafen	lasch	ehrlich	fair	schön	treu	schlau	freundlich	eitel	faul	schlecht	tot	schroff	fanatisch	1	blank2r.bmp	0	1	+	0	1	blank2r.bmp	500	1	GKQX	500	1	blank2r.bmp	880	1	lachen	880	1	!	1232	1	!	1334	0	0	0	0	0	0
2024-05-29	10:32:26	10:41:32	546461	6.6.1	4_exp_EVA_AWA_CON	59	B	A	Rpleas_acq	Same	Rpleas	2pleas	acq_US_unple_nomask	acq45_nomask	5	10	400	1	300	300	0	0	429	50	0	0	lachen	retten	helfen	tolerant	spielen	loyal	leiden	rächen	hindern	tyrannisch	strafen	lasch	ehrlich	fair	schön	treu	schlau	freundlich	eitel	faul	schlecht	tot	schroff	fanatisch	1	blank2r.bmp	0	1	+	0	1	blank2r.bmp	500	1	BMVZ	500	1	blank2r.bmp	880	2	rächen	880	1	!	1233	1	!	1330	0	0	0	0	0	0
2024-05-29	10:32:26	10:41:35	548588	6.6.1	4_exp_EVA_AWA_CON	59	B	A	Rpleas_acq	Same	Rpleas	2pleas	acq_US_unple_nomask	acq45_nomask	5	11	400	1	300	300	0	0	345	46	1	0	lachen	retten	helfen	tolerant	spielen	loyal	leiden	rächen	hindern	tyrannisch	strafen	lasch	ehrlich	fair	schön	treu	schlau	freundlich	eitel	faul	schlecht	tot	schroff	fanatisch	1	blank2r.bmp	0	1	+	0	1	blank2r.bmp	500	1	BMVZ	500	1	blank2r.bmp	880	5	strafen	880	1	!	1232	1	!	1247	0	0	0	0	0	0
2024-05-29	10:32:26	10:41:37	550699	6.6.1	4_exp_EVA_AWA_CON	59	B	A	Rpleas_acq	Same	Rpleas	2pleas	acq_US_pleas_nomask	acq45_nomask	5	12	400	1	300	300	0	0	336	46	0	0	lachen	retten	helfen	tolerant	spielen	loyal	leiden	rächen	hindern	tyrannisch	strafen	lasch	ehrlich	fair	schön	treu	schlau	freundlich	eitel	faul	schlecht	tot	schroff	fanatisch	1	blank2r.bmp	0	1	+	0	1	blank2r.bmp	500	1	GKQX	500	1	blank2r.bmp	880	3	helfen	880	1	!	1232	1	!	1236	0	0	0	0	0	0
2024-05-29	10:32:26	10:41:39	552901	6.6.1	4_exp_EVA_AWA_CON	59	B	A	Rpleas_acq	Same	Rpleas	2pleas	acq_US_unple_nomask	acq45_nomask	5	13	400	1	300	300	0	0	424	46	1	0	lachen	retten	helfen	tolerant	spielen	loyal	leiden	rächen	hindern	tyrannisch	strafen	lasch	ehrlich	fair	schön	treu	schlau	freundlich	eitel	faul	schlecht	tot	schroff	fanatisch	1	blank2r.bmp	0	1	+	0	1	blank2r.bmp	500	1	BMVZ	500	1	blank2r.bmp	880	2	rächen	880	1	!	1232	1	!	1326	0	0	0	0	0	0
2024-05-29	10:32:26	10:41:41	555029	6.6.1	4_exp_EVA_AWA_CON	59	B	A	Rpleas_acq	Same	Rpleas	2pleas	acq_US_pleas_nomask	acq45_nomask	5	14	400	1	300	300	0	0	351	50	1	0	lachen	retten	helfen	tolerant	spielen	loyal	leiden	rächen	hindern	tyrannisch	strafen	lasch	ehrlich	fair	schön	treu	schlau	freundlich	eitel	faul	schlecht	tot	schroff	fanatisch	1	blank2r.bmp	0	1	+	0	1	blank2r.bmp	500	1	GKQX	500	1	blank2r.bmp	880	2	retten	880	1	!	1232	1	!	1253	0	0	0	0	0	0
2024-05-29	10:32:26	10:41:43	557269	6.6.1	4_exp_EVA_AWA_CON	59	B	A	Rpleas_acq	Same	Rpleas	2pleas	acq_US_unple_nomask	acq45_nomask	5	15	400	1	300	300	0	0	460	46	1	0	lachen	retten	helfen	tolerant	spielen	loyal	leiden	rächen	hindern	tyrannisch	strafen	lasch	ehrlich	fair	schön	treu	schlau	freundlich	eitel	faul	schlecht	tot	schroff	fanatisch	1	blank2r.bmp	0	1	+	0	1	blank2r.bmp	500	1	BMVZ	500	1	blank2r.bmp	880	5	strafen	880	1	!	1232	1	!	1362	0	0	0	0	0	0
2024-05-29	10:32:26	10:41:45	559461	6.6.1	4_exp_EVA_AWA_CON	59	B	A	Rpleas_acq	Same	Rpleas	2pleas	acq_US_unple_nomask	acq45_nomask	5	16	400	1	300	300	0	0	410	46	1	0	lachen	retten	helfen	tolerant	spielen	loyal	leiden	rächen	hindern	tyrannisch	strafen	lasch	ehrlich	fair	schön	treu	schlau	freundlich	eitel	faul	schlecht	tot	schroff	fanatisch	1	blank2r.bmp	0	1	+	0	1	blank2r.bmp	500	1	BMVZ	500	1	blank2r.bmp	880	4	tyrannisch	880	1	!	1232	1	!	1312	0	0	0	0	0	0
2024-05-29	10:32:26	10:41:48	561645	6.6.1	4_exp_EVA_AWA_CON	59	B	A	Rpleas_acq	Same	Rpleas	2pleas	acq_US_pleas_nomask	acq45_nomask	5	17	400	1	300	300	0	0	403	46	0	0	lachen	retten	helfen	tolerant	spielen	loyal	leiden	rächen	hindern	tyrannisch	strafen	lasch	ehrlich	fair	schön	treu	schlau	freundlich	eitel	faul	schlecht	tot	schroff	fanatisch	1	blank2r.bmp	0	1	+	0	1	blank2r.bmp	500	1	GKQX	500	1	blank2r.bmp	880	3	helfen	880	1	!	1232	1	!	1304	0	0	0	0	0	0
2024-05-29	10:32:26	10:41:50	563861	6.6.1	4_exp_EVA_AWA_CON	59	B	A	Rpleas_acq	Same	Rpleas	2pleas	acq_US_pleas_nomask	acq45_nomask	5	18	400	1	300	300	0	0	437	50	1	0	lachen	retten	helfen	tolerant	spielen	loyal	leiden	rächen	hindern	tyrannisch	strafen	lasch	ehrlich	fair	schön	treu	schlau	freundlich	eitel	faul	schlecht	tot	schroff	fanatisch	1	blank2r.bmp	0	1	+	0	1	blank2r.bmp	500	1	GKQX	500	1	blank2r.bmp	880	4	tolerant	880	1	!	1232	1	!	1339	0	0	0	0	0	0
2024-05-29	10:32:26	10:41:52	566036	6.6.1	4_exp_EVA_AWA_CON	59	B	A	Rpleas_acq	Same	Rpleas	2pleas	acq_US_unple_nomask	acq45_nomask	5	19	400	1	300	300	0	0	402	46	1	0	lachen	retten	helfen	tolerant	spielen	loyal	leiden	rächen	hindern	tyrannisch	strafen	lasch	ehrlich	fair	schön	treu	schlau	freundlich	eitel	faul	schlecht	tot	schroff	fanatisch	1	blank2r.bmp	0	1	+	0	1	blank2r.bmp	500	1	BMVZ	500	1	blank2r.bmp	880	3	hindern	880	1	!	1233	1	!	1303	0	0	0	0	0	0
2024-05-29	10:32:26	10:41:54	568213	6.6.1	4_exp_EVA_AWA_CON	59	B	A	Rpleas_acq	Same	Rpleas	2pleas	acq_US_pleas_nomask	acq45_nomask	5	20	400	1	300	300	0	0	396	50	1	0	lachen	retten	helfen	tolerant	spielen	loyal	leiden	rächen	hindern	tyrannisch	strafen	lasch	ehrlich	fair	schön	treu	schlau	freundlich	eitel	faul	schlecht	tot	schroff	fanatisch	1	blank2r.bmp	0	1	+	0	1	blank2r.bmp	500	1	GKQX	500	1	blank2r.bmp	880	5	spielen	880	1	!	1232	1	!	1298	0	0	0	0	0	0
2024-05-29	10:32:26	10:41:56	570465	6.6.1	4_exp_EVA_AWA_CON	59	B	A	Rpleas_acq	Same	Rpleas	2pleas	acq_US_pleas_nomask	acq45_nomask	5	21	400	0	300	300	0	0	481	46	0	0	lachen	retten	helfen	tolerant	spielen	loyal	leiden	rächen	hindern	tyrannisch	strafen	lasch	ehrlich	fair	schön	treu	schlau	freundlich	eitel	faul	schlecht	tot	schroff	fanatisch	1	blank2r.bmp	0	1	+	0	1	blank2r.bmp	500	1	GKQX	500	1	blank2r.bmp	880	1	lachen	880	1	!	1233	1	!	-1	0	0	0	0	0	0
2024-05-29	10:32:26	10:41:59	572763	6.6.1	4_exp_EVA_AWA_CON	59	B	A	Rpleas_acq	Same	Rpleas	2pleas	acq_US_unple_nomask	acq45_nomask	5	22	400	0	300	300	0	0	526	46	1	0	lachen	retten	helfen	tolerant	spielen	loyal	leiden	rächen	hindern	tyrannisch	strafen	lasch	ehrlich	fair	schön	treu	schlau	freundlich	eitel	faul	schlecht	tot	schroff	fanatisch	1	blank2r.bmp	0	1	+	0	1	blank2r.bmp	500	1	BMVZ	500	1	blank2r.bmp	880	6	lasch	880	1	!	1232	1	!	-1	0	0	0	0	0	0
2024-05-29	10:32:26	10:42:01	574851	6.6.1	4_exp_EVA_AWA_CON	59	B	A	Rpleas_acq	Same	Rpleas	2pleas	acq_US_pleas_nomask	acq45_nomask	5	23	400	0	300	300	0	0	312	46	0	0	lachen	retten	helfen	tolerant	spielen	loyal	leiden	rächen	hindern	tyrannisch	strafen	lasch	ehrlich	fair	schön	treu	schlau	freundlich	eitel	faul	schlecht	tot	schroff	fanatisch	1	blank2r.bmp	0	1	+	0	1	blank2r.bmp	500	1	GKQX	500	1	blank2r.bmp	880	6	loyal	880	1	!	-1	1	!	-1	0	0	0	0	0	0
2024-05-29	10:32:26	10:42:03	577085	6.6.1	4_exp_EVA_AWA_CON	59	B	A	Rpleas_acq	Same	Rpleas	2pleas	acq_US_unple_nomask	acq45_nomask	5	24	400	1	300	300	0	0	453	46	1	0	lachen	retten	helfen	tolerant	spielen	loyal	leiden	rächen	hindern	tyrannisch	strafen	lasch	ehrlich	fair	schön	treu	schlau	freundlich	eitel	faul	schlecht	tot	schroff	fanatisch	1	blank2r.bmp	0	1	+	0	1	blank2r.bmp	500	1	BMVZ	500	1	blank2r.bmp	880	1	leiden	880	1	!	1232	1	!	1354	0	0	0	0	0	0
2024-05-29	10:32:26	10:42:05	579213	6.6.1	4_exp_EVA_AWA_CON	59	B	A	Rpleas_acq	Same	Rpleas	2pleas	acq_US_pleas_nomask	acq45_nomask	5	25	400	1	300	300	0	0	349	50	1	0	lachen	retten	helfen	tolerant	spielen	loyal	leiden	rächen	hindern	tyrannisch	strafen	lasch	ehrlich	fair	schön	treu	schlau	freundlich	eitel	faul	schlecht	tot	schroff	fanatisch	1	blank2r.bmp	0	1	+	0	1	blank2r.bmp	500	1	GKQX	500	1	blank2r.bmp	880	3	helfen	880	1	!	1232	1	!	1252	0	0	0	0	0	0
2024-05-29	10:32:26	10:42:07	581356	6.6.1	4_exp_EVA_AWA_CON	59	B	A	Rpleas_acq	Same	Rpleas	2pleas	acq_US_pleas_nomask	acq45_nomask	5	26	400	1	300	300	0	0	362	50	1	0	lachen	retten	helfen	tolerant	spielen	loyal	leiden	rächen	hindern	tyrannisch	strafen	lasch	ehrlich	fair	schön	treu	schlau	freundlich	eitel	faul	schlecht	tot	schroff	fanatisch	1	blank2r.bmp	0	1	+	0	1	blank2r.bmp	500	1	GKQX	500	1	blank2r.bmp	880	5	spielen	880	1	!	1232	1	!	1263	0	0	0	0	0	0
2024-05-29	10:32:26	10:42:10	583581	6.6.1	4_exp_EVA_AWA_CON	59	B	A	Rpleas_acq	Same	Rpleas	2pleas	acq_US_pleas_nomask	acq45_nomask	5	27	400	1	300	300	0	0	444	46	0	0	lachen	retten	helfen	tolerant	spielen	loyal	leiden	rächen	hindern	tyrannisch	strafen	lasch	ehrlich	fair	schön	treu	schlau	freundlich	eitel	faul	schlecht	tot	schroff	fanatisch	1	blank2r.bmp	0	1	+	0	1	blank2r.bmp	500	1	GKQX	500	1	blank2r.bmp	880	2	retten	880	1	!	1233	1	!	1346	0	0	0	0	0	0
2024-05-29	10:32:26	10:42:12	585780	6.6.1	4_exp_EVA_AWA_CON	59	B	A	Rpleas_acq	Same	Rpleas	2pleas	acq_US_pleas_nomask	acq45_nomask	5	28	400	1	300	300	0	0	423	50	1	0	lachen	retten	helfen	tolerant	spielen	loyal	leiden	rächen	hindern	tyrannisch	strafen	lasch	ehrlich	fair	schön	treu	schlau	freundlich	eitel	faul	schlecht	tot	schroff	fanatisch	1	blank2r.bmp	0	1	+	0	1	blank2r.bmp	500	1	GKQX	500	1	blank2r.bmp	880	6	loyal	880	1	!	1232	1	!	1325	0	0	0	0	0	0
2024-05-29	10:32:26	10:42:14	588043	6.6.1	4_exp_EVA_AWA_CON	59	B	A	Rpleas_acq	Same	Rpleas	2pleas	acq_US_unple_nomask	acq45_nomask	5	29	400	0	300	300	0	0	485	46	1	0	lachen	retten	helfen	tolerant	spielen	loyal	leiden	rächen	hindern	tyrannisch	strafen	lasch	ehrlich	fair	schön	treu	schlau	freundlich	eitel	faul	schlecht	tot	schroff	fanatisch	1	blank2r.bmp	0	1	+	0	1	blank2r.bmp	500	1	BMVZ	500	1	blank2r.bmp	880	6	lasch	880	1	!	1232	1	!	-1	0	0	0	0	0	0
2024-05-29	10:32:26	10:42:16	590290	6.6.1	4_exp_EVA_AWA_CON	59	B	A	Rpleas_acq	Same	Rpleas	2pleas	acq_US_unple_nomask	acq45_nomask	5	30	400	0	300	300	0	0	473	46	1	0	lachen	retten	helfen	tolerant	spielen	loyal	leiden	rächen	hindern	tyrannisch	strafen	lasch	ehrlich	fair	schön	treu	schlau	freundlich	eitel	faul	schlecht	tot	schroff	fanatisch	1	blank2r.bmp	0	1	+	0	1	blank2r.bmp	500	1	BMVZ	500	1	blank2r.bmp	880	4	tyrannisch	880	1	!	1233	1	!	-1	0	0	0	0	0	0
2024-05-29	10:32:26	10:42:18	592461	6.6.1	4_exp_EVA_AWA_CON	59	B	A	Rpleas_acq	Same	Rpleas	2pleas	acq_US_unple_nomask	acq45_nomask	5	31	400	1	300	300	0	0	389	46	1	0	lachen	retten	helfen	tolerant	spielen	loyal	leiden	rächen	hindern	tyrannisch	strafen	lasch	ehrlich	fair	schön	treu	schlau	freundlich	eitel	faul	schlecht	tot	schroff	fanatisch	1	blank2r.bmp	0	1	+	0	1	blank2r.bmp	500	1	BMVZ	500	1	blank2r.bmp	880	5	strafen	880	1	!	1232	1	!	1290	0	0	0	0	0	0
2024-05-29	10:32:26	10:42:21	594637	6.6.1	4_exp_EVA_AWA_CON	59	B	A	Rpleas_acq	Same	Rpleas	2pleas	acq_US_unple_nomask	acq45_nomask	5	32	400	1	300	300	0	0	393	46	1	0	lachen	retten	helfen	tolerant	spielen	loyal	leiden	rächen	hindern	tyrannisch	strafen	lasch	ehrlich	fair	schön	treu	schlau	freundlich	eitel	faul	schlecht	tot	schroff	fanatisch	1	blank2r.bmp	0	1	+	0	1	blank2r.bmp	500	1	BMVZ	500	1	blank2r.bmp	880	2	rächen	880	1	!	1232	1	!	1295	0	0	0	0	0	0
2024-05-29	10:32:26	10:42:23	596899	6.6.1	4_exp_EVA_AWA_CON	59	B	A	Rpleas_acq	Same	Rpleas	2pleas	acq_US_unple_nomask	acq45_nomask	5	33	400	0	300	300	0	0	486	46	1	0	lachen	retten	helfen	tolerant	spielen	loyal	leiden	rächen	hindern	tyrannisch	strafen	lasch	ehrlich	fair	schön	treu	schlau	freundlich	eitel	faul	schlecht	tot	schroff	fanatisch	1	blank2r.bmp	0	1	+	0	1	blank2r.bmp	500	1	BMVZ	500	1	blank2r.bmp	880	3	hindern	880	1	!	1233	1	!	-1	0	0	0	0	0	0
2024-05-29	10:32:26	10:42:25	599077	6.6.1	4_exp_EVA_AWA_CON	59	B	A	Rpleas_acq	Same	Rpleas	2pleas	acq_US_pleas_nomask	acq45_nomask	5	34	400	1	300	300	0	0	400	46	0	0	lachen	retten	helfen	tolerant	spielen	loyal	leiden	rächen	hindern	tyrannisch	strafen	lasch	ehrlich	fair	schön	treu	schlau	freundlich	eitel	faul	schlecht	tot	schroff	fanatisch	1	blank2r.bmp	0	1	+	0	1	blank2r.bmp	500	1	GKQX	500	1	blank2r.bmp	880	4	tolerant	880	1	!	1232	1	!	1303	0	0	0	0	0	0
2024-05-29	10:32:26	10:42:27	601228	6.6.1	4_exp_EVA_AWA_CON	59	B	A	Rpleas_acq	Same	Rpleas	2pleas	acq_US_pleas_nomask	acq45_nomask	5	35	400	1	300	300	0	0	371	50	1	0	lachen	retten	helfen	tolerant	spielen	loyal	leiden	rächen	hindern	tyrannisch	strafen	lasch	ehrlich	fair	schön	treu	schlau	freundlich	eitel	faul	schlecht	tot	schroff	fanatisch	1	blank2r.bmp	0	1	+	0	1	blank2r.bmp	500	1	GKQX	500	1	blank2r.bmp	880	1	lachen	880	1	!	1232	1	!	1272	0	0	0	0	0	0
2024-05-29	10:32:26	10:42:29	603452	6.6.1	4_exp_EVA_AWA_CON	59	B	A	Rpleas_acq	Same	Rpleas	2pleas	acq_US_unple_nomask	acq45_nomask	5	36	400	1	300	300	0	0	444	46	1	0	lachen	retten	helfen	tolerant	spielen	loyal	leiden	rächen	hindern	tyrannisch	strafen	lasch	ehrlich	fair	schön	treu	schlau	freundlich	eitel	faul	schlecht	tot	schroff	fanatisch	1	blank2r.bmp	0	1	+	0	1	blank2r.bmp	500	1	BMVZ	500	1	blank2r.bmp	880	1	leiden	880	1	!	1232	1	!	1345	0	0	0	0	0	0
2024-05-29	10:32:26	10:43:01	635087	6.6.1	4_exp_EVA_AWA_CON	59	B	A	Rpleas_acq	Same	Rpleas	2pleas	EvalRating_firsttwo	EvalRating_firsttwo	6	1	0	0	300	300	0	0	6264	line	0	-79,6875pct	lachen	retten	helfen	tolerant	spielen	loyal	leiden	rächen	hindern	tyrannisch	strafen	lasch	ehrlich	fair	schön	treu	schlau	freundlich	eitel	faul	schlecht	tot	schroff	fanatisch	1		-8	1	Wie angenehm oder unangenehm finden Sie die  Buchstabenkette ZGVK?	-8	1		-8	1		-8	1		-8	1	Unangenehm	-8	1	Angenehm	-8	0	0	0	0	0	0	0	0	0
2024-05-29	10:32:26	10:43:06	640463	6.6.1	4_exp_EVA_AWA_CON	59	B	A	Rpleas_acq	Same	Rpleas	2pleas	EvalRating_lastfour	EvalRating_lastfour	7	1	0	0	300	300	0	0	3004	line	0	-63,8020833333333285964pct	lachen	retten	helfen	tolerant	spielen	loyal	leiden	rächen	hindern	tyrannisch	strafen	lasch	ehrlich	fair	schön	treu	schlau	freundlich	eitel	faul	schlecht	tot	schroff	fanatisch	1		-7	3	Wie angenehm oder unangenehm finden Sie die  Buchstabenkette XBQM?	-7	1		-7	1		-7	1		-7	1	Unangenehm	-7	1	Angenehm	-7	0	0	0	0	0	0	0	0	0
2024-05-29	10:32:26	10:43:09	642835	6.6.1	4_exp_EVA_AWA_CON	59	B	A	Rpleas_acq	Same	Rpleas	2pleas	blank_screen	EvalRating_lastfour	7	3	0	0	300	300	0	0	0	0	0	-63,8020833333333285964pct	lachen	retten	helfen	tolerant	spielen	loyal	leiden	rächen	hindern	tyrannisch	strafen	lasch	ehrlich	fair	schön	treu	schlau	freundlich	eitel	faul	schlecht	tot	schroff	fanatisch	1		-8	0	0	0	0	0	0	0	0	0	0	0	0	0	0	0	0	0	0	0	0	0	0	0	0	0	0	0
2024-05-29	10:32:26	10:43:12	645615	6.6.1	4_exp_EVA_AWA_CON	59	B	A	Rpleas_acq	Same	Rpleas	2pleas	EvalRating_lastfour	EvalRating_lastfour	7	4	0	0	300	300	0	0	2192	line	0	27,34375pct	lachen	retten	helfen	tolerant	spielen	loyal	leiden	rächen	hindern	tyrannisch	strafen	lasch	ehrlich	fair	schön	treu	schlau	freundlich	eitel	faul	schlecht	tot	schroff	fanatisch	1		-8	1	Wie angenehm oder unangenehm finden Sie die  Buchstabenkette BMVZ?	-8	1		-8	1		-8	1		-8	1	Unangenehm	-8	1	Angenehm	-8	0	0	0	0	0	0	0	0	0
2024-05-29	10:32:26	10:43:14	647988	6.6.1	4_exp_EVA_AWA_CON	59	B	A	Rpleas_acq	Same	Rpleas	2pleas	blank_screen	EvalRating_lastfour	7	6	0	0	300	300	0	0	0	0	0	27,34375pct	lachen	retten	helfen	tolerant	spielen	loyal	leiden	rächen	hindern	tyrannisch	strafen	lasch	ehrlich	fair	schön	treu	schlau	freundlich	eitel	faul	schlecht	tot	schroff	fanatisch	1		-8	0	0	0	0	0	0	0	0	0	0	0	0	0	0	0	0	0	0	0	0	0	0	0	0	0	0	0
2024-05-29	10:32:26	10:43:20	653616	6.6.1	4_exp_EVA_AWA_CON	59	B	A	Rpleas_acq	Same	Rpleas	2pleas	EvalRating_lastfour	EvalRating_lastfour	7	7	0	0	300	300	0	0	5039	line	0	-67,4479166666666571928pct	lachen	retten	helfen	tolerant	spielen	loyal	leiden	rächen	hindern	tyrannisch	strafen	lasch	ehrlich	fair	schön	treu	schlau	freundlich	eitel	faul	schlecht	tot	schroff	fanatisch	1		-7	2	Wie angenehm oder unangenehm finden Sie die  Buchstabenkette GKQX?	-7	1		-7	1		-7	1		-7	1	Unangenehm	-7	1	Angenehm	-7	0	0	0	0	0	0	0	0	0
2024-05-29	10:32:26	10:44:08	702262	6.6.1	4_exp_EVA_AWA_CON	59	B	A	Rpleas_acq	Same	Rpleas	2pleas	conawa_CS2_US4	conawa1_nomask	8	1	0	0	300	300	0	0	9678	schroff	1	-67,4479166666666571928pct	lachen	retten	helfen	tolerant	spielen	loyal	leiden	rächen	hindern	tyrannisch	strafen	lasch	ehrlich	fair	schön	treu	schlau	freundlich	eitel	faul	schlecht	tot	schroff	fanatisch	0	0	0	0	0	0	0	0	0	0	0	0	0	0	0	0	0	0	0	0	0	0	0	0	0	0	0	0	0	0
2024-05-29	10:32:26	10:44:08	702263	6.6.1	4_exp_EVA_AWA_CON	59	B	A	Rpleas_acq	Same	Rpleas	2pleas	conawa_CS2_US4_confidence	conawa1_nomask	8	1	0	0	300	300	0	0	9678	guess	1	-67,4479166666666571928pct	lachen	retten	helfen	tolerant	spielen	loyal	leiden	rächen	hindern	tyrannisch	strafen	lasch	ehrlich	fair	schön	treu	schlau	freundlich	eitel	faul	schlecht	tot	schroff	fanatisch	0	0	0	0	0	0	0	0	0	0	0	0	0	0	0	0	0	0	0	0	0	0	0	0	0	0	0	0	0	0
2024-05-29	10:32:26	10:44:20	713779	6.6.1	4_exp_EVA_AWA_CON	59	B	A	Rpleas_acq	Same	Rpleas	2pleas	conawa_CS2_US5	conawa1_nomask	8	2	0	0	300	300	0	0	10899	strafen	1	-67,4479166666666571928pct	lachen	retten	helfen	tolerant	spielen	loyal	leiden	rächen	hindern	tyrannisch	strafen	lasch	ehrlich	fair	schön	treu	schlau	freundlich	eitel	faul	schlecht	tot	schroff	fanatisch	0	0	0	0	0	0	0	0	0	0	0	0	0	0	0	0	0	0	0	0	0	0	0	0	0	0	0	0	0	0
2024-05-29	10:32:26	10:44:20	713781	6.6.1	4_exp_EVA_AWA_CON	59	B	A	Rpleas_acq	Same	Rpleas	2pleas	conawa_CS2_US5_confidence	conawa1_nomask	8	2	0	0	300	300	0	0	10899	guess	1	-67,4479166666666571928pct	lachen	retten	helfen	tolerant	spielen	loyal	leiden	rächen	hindern	tyrannisch	strafen	lasch	ehrlich	fair	schön	treu	schlau	freundlich	eitel	faul	schlecht	tot	schroff	fanatisch	0	0	0	0	0	0	0	0	0	0	0	0	0	0	0	0	0	0	0	0	0	0	0	0	0	0	0	0	0	0
2024-05-29	10:32:26	10:44:31	724916	6.6.1	4_exp_EVA_AWA_CON	59	B	A	Rpleas_acq	Same	Rpleas	2pleas	conawa_CS2_US2	conawa1_nomask	8	3	0	0	300	300	0	0	10526	rächen	1	-67,4479166666666571928pct	lachen	retten	helfen	tolerant	spielen	loyal	leiden	rächen	hindern	tyrannisch	strafen	lasch	ehrlich	fair	schön	treu	schlau	freundlich	eitel	faul	schlecht	tot	schroff	fanatisch	0	0	0	0	0	0	0	0	0	0	0	0	0	0	0	0	0	0	0	0	0	0	0	0	0	0	0	0	0	0
2024-05-29	10:32:26	10:44:31	724917	6.6.1	4_exp_EVA_AWA_CON	59	B	A	Rpleas_acq	Same	Rpleas	2pleas	conawa_CS2_US2_confidence	conawa1_nomask	8	3	0	0	300	300	0	0	10526	guess	1	-67,4479166666666571928pct	lachen	retten	helfen	tolerant	spielen	loyal	leiden	rächen	hindern	tyrannisch	strafen	lasch	ehrlich	fair	schön	treu	schlau	freundlich	eitel	faul	schlecht	tot	schroff	fanatisch	0	0	0	0	0	0	0	0	0	0	0	0	0	0	0	0	0	0	0	0	0	0	0	0	0	0	0	0	0	0
2024-05-29	10:32:26	10:44:38	731721	6.6.1	4_exp_EVA_AWA_CON	59	B	A	Rpleas_acq	Same	Rpleas	2pleas	conawa_CS1_US4	conawa1_nomask	8	4	0	0	300	300	0	0	6188	tolerant	1	-67,4479166666666571928pct	lachen	retten	helfen	tolerant	spielen	loyal	leiden	rächen	hindern	tyrannisch	strafen	lasch	ehrlich	fair	schön	treu	schlau	freundlich	eitel	faul	schlecht	tot	schroff	fanatisch	0	0	0	0	0	0	0	0	0	0	0	0	0	0	0	0	0	0	0	0	0	0	0	0	0	0	0	0	0	0
2024-05-29	10:32:26	10:44:38	731723	6.6.1	4_exp_EVA_AWA_CON	59	B	A	Rpleas_acq	Same	Rpleas	2pleas	conawa_CS1_US4_confidence	conawa1_nomask	8	4	0	0	300	300	0	0	6188	guess	1	-67,4479166666666571928pct	lachen	retten	helfen	tolerant	spielen	loyal	leiden	rächen	hindern	tyrannisch	strafen	lasch	ehrlich	fair	schön	treu	schlau	freundlich	eitel	faul	schlecht	tot	schroff	fanatisch	0	0	0	0	0	0	0	0	0	0	0	0	0	0	0	0	0	0	0	0	0	0	0	0	0	0	0	0	0	0
2024-05-29	10:32:26	10:44:47	741327	6.6.1	4_exp_EVA_AWA_CON	59	B	A	Rpleas_acq	Same	Rpleas	2pleas	conawa_CS1_US1	conawa1_nomask	8	5	0	0	300	300	0	0	8994	eitel	1	-67,4479166666666571928pct	lachen	retten	helfen	tolerant	spielen	loyal	leiden	rächen	hindern	tyrannisch	strafen	lasch	ehrlich	fair	schön	treu	schlau	freundlich	eitel	faul	schlecht	tot	schroff	fanatisch	0	0	0	0	0	0	0	0	0	0	0	0	0	0	0	0	0	0	0	0	0	0	0	0	0	0	0	0	0	0
2024-05-29	10:32:26	10:44:47	741329	6.6.1	4_exp_EVA_AWA_CON	59	B	A	Rpleas_acq	Same	Rpleas	2pleas	conawa_CS1_US1_confidence	conawa1_nomask	8	5	0	0	300	300	0	0	8994	guess	1	-67,4479166666666571928pct	lachen	retten	helfen	tolerant	spielen	loyal	leiden	rächen	hindern	tyrannisch	strafen	lasch	ehrlich	fair	schön	treu	schlau	freundlich	eitel	faul	schlecht	tot	schroff	fanatisch	0	0	0	0	0	0	0	0	0	0	0	0	0	0	0	0	0	0	0	0	0	0	0	0	0	0	0	0	0	0
2024-05-29	10:32:26	10:44:55	749122	6.6.1	4_exp_EVA_AWA_CON	59	B	A	Rpleas_acq	Same	Rpleas	2pleas	conawa_CS1_US6	conawa1_nomask	8	6	0	0	300	300	0	0	7188	freundlich	1	-67,4479166666666571928pct	lachen	retten	helfen	tolerant	spielen	loyal	leiden	rächen	hindern	tyrannisch	strafen	lasch	ehrlich	fair	schön	treu	schlau	freundlich	eitel	faul	schlecht	tot	schroff	fanatisch	0	0	0	0	0	0	0	0	0	0	0	0	0	0	0	0	0	0	0	0	0	0	0	0	0	0	0	0	0	0
2024-05-29	10:32:26	10:44:55	749124	6.6.1	4_exp_EVA_AWA_CON	59	B	A	Rpleas_acq	Same	Rpleas	2pleas	conawa_CS1_US6_confidence	conawa1_nomask	8	6	0	0	300	300	0	0	7188	guess	1	-67,4479166666666571928pct	lachen	retten	helfen	tolerant	spielen	loyal	leiden	rächen	hindern	tyrannisch	strafen	lasch	ehrlich	fair	schön	treu	schlau	freundlich	eitel	faul	schlecht	tot	schroff	fanatisch	0	0	0	0	0	0	0	0	0	0	0	0	0	0	0	0	0	0	0	0	0	0	0	0	0	0	0	0	0	0
2024-05-29	10:32:26	10:45:01	754836	6.6.1	4_exp_EVA_AWA_CON	59	B	A	Rpleas_acq	Same	Rpleas	2pleas	conawa_CS1_US5	conawa1_nomask	8	7	0	0	300	300	0	0	5096	spielen	1	-67,4479166666666571928pct	lachen	retten	helfen	tolerant	spielen	loyal	leiden	rächen	hindern	tyrannisch	strafen	lasch	ehrlich	fair	schön	treu	schlau	freundlich	eitel	faul	schlecht	tot	schroff	fanatisch	0	0	0	0	0	0	0	0	0	0	0	0	0	0	0	0	0	0	0	0	0	0	0	0	0	0	0	0	0	0
2024-05-29	10:32:26	10:45:01	754837	6.6.1	4_exp_EVA_AWA_CON	59	B	A	Rpleas_acq	Same	Rpleas	2pleas	conawa_CS1_US5_confidence	conawa1_nomask	8	7	0	0	300	300	0	0	5096	guess	1	-67,4479166666666571928pct	lachen	retten	helfen	tolerant	spielen	loyal	leiden	rächen	hindern	tyrannisch	strafen	lasch	ehrlich	fair	schön	treu	schlau	freundlich	eitel	faul	schlecht	tot	schroff	fanatisch	0	0	0	0	0	0	0	0	0	0	0	0	0	0	0	0	0	0	0	0	0	0	0	0	0	0	0	0	0	0
2024-05-29	10:32:26	10:45:08	761740	6.6.1	4_exp_EVA_AWA_CON	59	B	A	Rpleas_acq	Same	Rpleas	2pleas	conawa_CS1_US2	conawa1_nomask	8	8	0	0	300	300	0	0	6296	retten	1	-67,4479166666666571928pct	lachen	retten	helfen	tolerant	spielen	loyal	leiden	rächen	hindern	tyrannisch	strafen	lasch	ehrlich	fair	schön	treu	schlau	freundlich	eitel	faul	schlecht	tot	schroff	fanatisch	0	0	0	0	0	0	0	0	0	0	0	0	0	0	0	0	0	0	0	0	0	0	0	0	0	0	0	0	0	0
2024-05-29	10:32:26	10:45:08	761742	6.6.1	4_exp_EVA_AWA_CON	59	B	A	Rpleas_acq	Same	Rpleas	2pleas	conawa_CS1_US2_confidence	conawa1_nomask	8	8	0	0	300	300	0	0	6296	guess	1	-67,4479166666666571928pct	lachen	retten	helfen	tolerant	spielen	loyal	leiden	rächen	hindern	tyrannisch	strafen	lasch	ehrlich	fair	schön	treu	schlau	freundlich	eitel	faul	schlecht	tot	schroff	fanatisch	0	0	0	0	0	0	0	0	0	0	0	0	0	0	0	0	0	0	0	0	0	0	0	0	0	0	0	0	0	0
2024-05-29	10:32:26	10:45:15	769415	6.6.1	4_exp_EVA_AWA_CON	59	B	A	Rpleas_acq	Same	Rpleas	2pleas	conawa_CS2_US1	conawa1_nomask	8	9	0	0	300	300	0	0	7062	leiden	1	-67,4479166666666571928pct	lachen	retten	helfen	tolerant	spielen	loyal	leiden	rächen	hindern	tyrannisch	strafen	lasch	ehrlich	fair	schön	treu	schlau	freundlich	eitel	faul	schlecht	tot	schroff	fanatisch	0	0	0	0	0	0	0	0	0	0	0	0	0	0	0	0	0	0	0	0	0	0	0	0	0	0	0	0	0	0
2024-05-29	10:32:26	10:45:15	769417	6.6.1	4_exp_EVA_AWA_CON	59	B	A	Rpleas_acq	Same	Rpleas	2pleas	conawa_CS2_US1_confidence	conawa1_nomask	8	9	0	0	300	300	0	0	7062	guess	1	-67,4479166666666571928pct	lachen	retten	helfen	tolerant	spielen	loyal	leiden	rächen	hindern	tyrannisch	strafen	lasch	ehrlich	fair	schön	treu	schlau	freundlich	eitel	faul	schlecht	tot	schroff	fanatisch	0	0	0	0	0	0	0	0	0	0	0	0	0	0	0	0	0	0	0	0	0	0	0	0	0	0	0	0	0	0
2024-05-29	10:32:26	10:45:22	776400	6.6.1	4_exp_EVA_AWA_CON	59	B	A	Rpleas_acq	Same	Rpleas	2pleas	conawa_CS2_US3	conawa1_nomask	8	10	0	0	300	300	0	0	6370	hindern	1	-67,4479166666666571928pct	lachen	retten	helfen	tolerant	spielen	loyal	leiden	rächen	hindern	tyrannisch	strafen	lasch	ehrlich	fair	schön	treu	schlau	freundlich	eitel	faul	schlecht	tot	schroff	fanatisch	0	0	0	0	0	0	0	0	0	0	0	0	0	0	0	0	0	0	0	0	0	0	0	0	0	0	0	0	0	0
2024-05-29	10:32:26	10:45:22	776402	6.6.1	4_exp_EVA_AWA_CON	59	B	A	Rpleas_acq	Same	Rpleas	2pleas	conawa_CS2_US3_confidence	conawa1_nomask	8	10	0	0	300	300	0	0	6370	guess	1	-67,4479166666666571928pct	lachen	retten	helfen	tolerant	spielen	loyal	leiden	rächen	hindern	tyrannisch	strafen	lasch	ehrlich	fair	schön	treu	schlau	freundlich	eitel	faul	schlecht	tot	schroff	fanatisch	0	0	0	0	0	0	0	0	0	0	0	0	0	0	0	0	0	0	0	0	0	0	0	0	0	0	0	0	0	0
2024-05-29	10:32:26	10:45:30	784365	6.6.1	4_exp_EVA_AWA_CON	59	B	A	Rpleas_acq	Same	Rpleas	2pleas	conawa_CS1_US3	conawa1_nomask	8	11	0	0	300	300	0	0	7347	schön	1	-67,4479166666666571928pct	lachen	retten	helfen	tolerant	spielen	loyal	leiden	rächen	hindern	tyrannisch	strafen	lasch	ehrlich	fair	schön	treu	schlau	freundlich	eitel	faul	schlecht	tot	schroff	fanatisch	0	0	0	0	0	0	0	0	0	0	0	0	0	0	0	0	0	0	0	0	0	0	0	0	0	0	0	0	0	0
2024-05-29	10:32:26	10:45:30	784367	6.6.1	4_exp_EVA_AWA_CON	59	B	A	Rpleas_acq	Same	Rpleas	2pleas	conawa_CS1_US3_confidence	conawa1_nomask	8	11	0	0	300	300	0	0	7347	guess	1	-67,4479166666666571928pct	lachen	retten	helfen	tolerant	spielen	loyal	leiden	rächen	hindern	tyrannisch	strafen	lasch	ehrlich	fair	schön	treu	schlau	freundlich	eitel	faul	schlecht	tot	schroff	fanatisch	0	0	0	0	0	0	0	0	0	0	0	0	0	0	0	0	0	0	0	0	0	0	0	0	0	0	0	0	0	0
2024-05-29	10:32:26	10:45:37	790880	6.6.1	4_exp_EVA_AWA_CON	59	B	A	Rpleas_acq	Same	Rpleas	2pleas	conawa_CS2_US6	conawa1_nomask	8	12	0	0	300	300	0	0	5903	lasch	1	-67,4479166666666571928pct	lachen	retten	helfen	tolerant	spielen	loyal	leiden	rächen	hindern	tyrannisch	strafen	lasch	ehrlich	fair	schön	treu	schlau	freundlich	eitel	faul	schlecht	tot	schroff	fanatisch	0	0	0	0	0	0	0	0	0	0	0	0	0	0	0	0	0	0	0	0	0	0	0	0	0	0	0	0	0	0
2024-05-29	10:32:26	10:45:37	790881	6.6.1	4_exp_EVA_AWA_CON	59	B	A	Rpleas_acq	Same	Rpleas	2pleas	conawa_CS2_US6_confidence	conawa1_nomask	8	12	0	0	300	300	0	0	5903	guess	1	-67,4479166666666571928pct	lachen	retten	helfen	tolerant	spielen	loyal	leiden	rächen	hindern	tyrannisch	strafen	lasch	ehrlich	fair	schön	treu	schlau	freundlich	eitel	faul	schlecht	tot	schroff	fanatisch	0	0	0	0	0	0	0	0	0	0	0	0	0	0	0	0	0	0	0	0	0	0	0	0	0	0	0	0	0	0
2024-05-29	10:32:26	10:46:47	861444	6.6.1	4_exp_EVA_AWA_CON	59	B	A	Rpleas_acq	Same	Rpleas	2pleas	cond_new_unple_456_nomask_CS1	condtest_nomask_1	11	1	400	1	300	300	0	0	437	50	0	-67,4479166666666571928pct	lachen	retten	helfen	tolerant	spielen	loyal	leiden	rächen	hindern	tyrannisch	strafen	lasch	ehrlich	fair	schön	treu	schlau	freundlich	eitel	faul	schlecht	tot	schroff	fanatisch	1	blank2r.bmp	0	1	+	0	1	blank2r.bmp	500	1	BMVZ	500	1	blank2r.bmp	880	3	fanatisch	880	1	!	1232	1	!	1339	0	0	0	0	0	0
2024-05-29	10:32:26	10:46:50	863604	6.6.1	4_exp_EVA_AWA_CON	59	B	A	Rpleas_acq	Same	Rpleas	2pleas	cond_US_pleas_123_nomask_CS2	condtest_nomask_1	11	2	400	1	300	300	0	0	386	50	1	-67,4479166666666571928pct	lachen	retten	helfen	tolerant	spielen	loyal	leiden	rächen	hindern	tyrannisch	strafen	lasch	ehrlich	fair	schön	treu	schlau	freundlich	eitel	faul	schlecht	tot	schroff	fanatisch	1	blank2r.bmp	0	1	+	0	1	blank2r.bmp	500	1	GKQX	500	1	blank2r.bmp	880	1	helfen	880	1	!	1232	1	!	1287	0	0	0	0	0	0
2024-05-29	10:32:26	10:46:52	865844	6.6.1	4_exp_EVA_AWA_CON	59	B	A	Rpleas_acq	Same	Rpleas	2pleas	cond_new_pleas_456_nomask_CS2	condtest_nomask_1	11	3	400	1	300	300	0	0	464	50	1	-67,4479166666666571928pct	lachen	retten	helfen	tolerant	spielen	loyal	leiden	rächen	hindern	tyrannisch	strafen	lasch	ehrlich	fair	schön	treu	schlau	freundlich	eitel	faul	schlecht	tot	schroff	fanatisch	1	blank2r.bmp	0	1	+	0	1	blank2r.bmp	500	1	GKQX	500	1	blank2r.bmp	880	2	treu	880	1	!	1232	1	!	1366	0	0	0	0	0	0
2024-05-29	10:32:26	10:46:54	868084	6.6.1	4_exp_EVA_AWA_CON	59	B	A	Rpleas_acq	Same	Rpleas	2pleas	cond_new_unple_456_nomask_CS2	condtest_nomask_1	11	4	400	1	300	300	0	0	463	46	1	-67,4479166666666571928pct	lachen	retten	helfen	tolerant	spielen	loyal	leiden	rächen	hindern	tyrannisch	strafen	lasch	ehrlich	fair	schön	treu	schlau	freundlich	eitel	faul	schlecht	tot	schroff	fanatisch	1	blank2r.bmp	0	1	+	0	1	blank2r.bmp	500	1	GKQX	500	1	blank2r.bmp	880	3	schroff	880	1	!	1232	1	!	1364	0	0	0	0	0	0
2024-05-29	10:32:26	10:46:56	870362	6.6.1	4_exp_EVA_AWA_CON	59	B	A	Rpleas_acq	Same	Rpleas	2pleas	cond_US_unple_123_nomask_CS1	condtest_nomask_1	11	5	400	0	300	300	0	0	501	46	1	-67,4479166666666571928pct	lachen	retten	helfen	tolerant	spielen	loyal	leiden	rächen	hindern	tyrannisch	strafen	lasch	ehrlich	fair	schön	treu	schlau	freundlich	eitel	faul	schlecht	tot	schroff	fanatisch	1	blank2r.bmp	0	1	+	0	1	blank2r.bmp	500	1	BMVZ	500	1	blank2r.bmp	880	1	leiden	880	1	!	1233	1	!	-1	0	0	0	0	0	0
2024-05-29	10:32:26	10:46:59	872556	6.6.1	4_exp_EVA_AWA_CON	59	B	A	Rpleas_acq	Same	Rpleas	2pleas	cond_new_pleas_456_nomask_CS1	condtest_nomask_1	11	6	400	1	300	300	0	0	412	46	0	-67,4479166666666571928pct	lachen	retten	helfen	tolerant	spielen	loyal	leiden	rächen	hindern	tyrannisch	strafen	lasch	ehrlich	fair	schön	treu	schlau	freundlich	eitel	faul	schlecht	tot	schroff	fanatisch	1	blank2r.bmp	0	1	+	0	1	blank2r.bmp	500	1	BMVZ	500	1	blank2r.bmp	880	1	treu	880	1	!	1232	1	!	1313	0	0	0	0	0	0
2024-05-29	10:32:26	10:47:01	874717	6.6.1	4_exp_EVA_AWA_CON	59	B	A	Rpleas_acq	Same	Rpleas	2pleas	cond_US_unple_123_nomask_CS2	condtest_nomask_1	11	7	400	1	300	300	0	0	380	46	1	-67,4479166666666571928pct	lachen	retten	helfen	tolerant	spielen	loyal	leiden	rächen	hindern	tyrannisch	strafen	lasch	ehrlich	fair	schön	treu	schlau	freundlich	eitel	faul	schlecht	tot	schroff	fanatisch	1	blank2r.bmp	0	1	+	0	1	blank2r.bmp	500	1	GKQX	500	1	blank2r.bmp	880	1	hindern	880	1	!	1232	1	!	1282	0	0	0	0	0	0
2024-05-29	10:32:26	10:47:03	877275	6.6.1	4_exp_EVA_AWA_CON	59	B	A	Rpleas_acq	Same	Rpleas	2pleas	cond_US_pleas_123_nomask_CS1	condtest_nomask_1	11	8	400	0	300	300	0	0	779	50	1	-67,4479166666666571928pct	lachen	retten	helfen	tolerant	spielen	loyal	leiden	rächen	hindern	tyrannisch	strafen	lasch	ehrlich	fair	schön	treu	schlau	freundlich	eitel	faul	schlecht	tot	schroff	fanatisch	1	blank2r.bmp	0	1	+	0	1	blank2r.bmp	500	1	BMVZ	500	1	blank2r.bmp	880	3	helfen	880	1	!	1232	1	!	-1	0	0	0	0	0	0
2024-05-29	10:32:26	10:47:23	897187	6.6.1	4_exp_EVA_AWA_CON	59	B	A	Rpleas_acq	Same	Rpleas	2pleas	cond_new_unple_456_nomask_CS2	condtest_nomask_2	12	1	400	0	300	300	0	0	518	50	0	-67,4479166666666571928pct	lachen	retten	helfen	tolerant	spielen	loyal	leiden	rächen	hindern	tyrannisch	strafen	lasch	ehrlich	fair	schön	treu	schlau	freundlich	eitel	faul	schlecht	tot	schroff	fanatisch	1	blank2r.bmp	0	1	+	0	1	blank2r.bmp	500	1	GKQX	500	1	blank2r.bmp	880	1	fanatisch	880	1	!	1232	1	!	-1	0	0	0	0	0	0
