date	time	currenttime	elapsedtime	build	currentexpt	subject	CS_AB	US_AB	LRpleas_acq	SameOppo	condition_Lpleas	condition_1pleas	trialcode	blockcode	blocknum	trialnum	windowcenter	inwindow	pretrialpause	posttrialpause	trialduration	trialtimeout	latency	response	correct	correctedscore	US_nomask_pleas1	US_nomask_pleas2	US_nomask_pleas3	US_nomask_pleas4	US_nomask_pleas5	US_nomask_pleas6	US_nomask_unple1	US_nomask_unple2	US_nomask_unple3	US_nomask_unple4	US_nomask_unple5	US_nomask_unple6	new_nomask_pleas1	new_nomask_pleas2	new_nomask_pleas3	new_nomask_pleas4	new_nomask_pleas5	new_nomask_pleas6	new_nomask_unple1	new_nomask_unple2	new_nomask_unple3	new_nomask_unple4	new_nomask_unple5	new_nomask_unple6	stimulusnumber1	stimulusitem1	stimulusonset1	stimulusnumber2	stimulusitem2	stimulusonset2	stimulusnumber3	stimulusitem3	stimulusonset3	stimulusnumber4	stimulusitem4	stimulusonset4	stimulusnumber5	stimulusitem5	stimulusonset5	stimulusnumber6	stimulusitem6	stimulusonset6	stimulusnumber7	stimulusitem7	stimulusonset7	stimulusnumber8	stimulusitem8	stimulusonset8	stimulusnumber9	stimulusitem9	stimulusonset9	stimulusnumber10	stimulusitem10	stimulusonset10
2024-06-04	09:17:21	09:18:45	84032	6.6.1	4_exp_EVA_AWA_CON	65	A	B	Rpleas_acq	Same	Rpleas	1pleas	acq_US_unple_nomask	acq1_nomask	1	1	0	0	300	300	0	0	2986	46	1	0	anregung	genießen	träumen	kuss	engagiert	gütig	ausrottung	gemein	töten	krise	engstirnig	gierig	besonnen	vergnügt	kreativ	gesittet	vertrauen	sonnig	bange	verbissen	krank	geizig	versagen	sterben	1	blank2r.bmp	0	1	+	0	1	blank2r.bmp	500	1	DHJF	500	1	blank2r.bmp	880	2	gemein	880	0	0	0	0	0	0	0	0	0	0	0	0
2024-06-04	09:17:21	09:18:48	86707	6.6.1	4_exp_EVA_AWA_CON	65	A	B	Rpleas_acq	Same	Rpleas	1pleas	acq_US_pleas_nomask	acq1_nomask	1	2	0	0	300	300	0	0	1188	50	1	0	anregung	genießen	träumen	kuss	engagiert	gütig	ausrottung	gemein	töten	krise	engstirnig	gierig	besonnen	vergnügt	kreativ	gesittet	vertrauen	sonnig	bange	verbissen	krank	geizig	versagen	sterben	1	blank2r.bmp	0	1	+	0	1	blank2r.bmp	500	1	CPLW	500	1	blank2r.bmp	880	4	kuss	880	0	0	0	0	0	0	0	0	0	0	0	0
2024-06-04	09:17:21	09:18:51	89683	6.6.1	4_exp_EVA_AWA_CON	65	A	B	Rpleas_acq	Same	Rpleas	1pleas	acq_new_unple_nomask	acq1_nomask	1	3	0	0	300	300	0	0	1493	46	1	0	anregung	genießen	träumen	kuss	engagiert	gütig	ausrottung	gemein	töten	krise	engstirnig	gierig	besonnen	vergnügt	kreativ	gesittet	vertrauen	sonnig	bange	verbissen	krank	geizig	versagen	sterben	1	blank2r.bmp	0	1	+	0	1	blank2r.bmp	500	7	C3r.bmp	500	1	blank2r.bmp	880	4	geizig	880	0	0	0	0	0	0	0	0	0	0	0	0
2024-06-04	09:17:21	09:18:53	91883	6.6.1	4_exp_EVA_AWA_CON	65	A	B	Rpleas_acq	Same	Rpleas	1pleas	acq_new_pleas_nomask	acq1_nomask	1	4	0	0	300	300	0	0	711	50	1	0	anregung	genießen	träumen	kuss	engagiert	gütig	ausrottung	gemein	töten	krise	engstirnig	gierig	besonnen	vergnügt	kreativ	gesittet	vertrauen	sonnig	bange	verbissen	krank	geizig	versagen	sterben	1	blank2r.bmp	0	1	+	0	1	blank2r.bmp	500	8	C4r.bmp	500	1	blank2r.bmp	880	2	vergnügt	880	0	0	0	0	0	0	0	0	0	0	0	0
2024-06-04	09:17:21	09:18:57	95507	6.6.1	4_exp_EVA_AWA_CON	65	A	B	Rpleas_acq	Same	Rpleas	1pleas	acq_US_unple_nomask	acq1_nomask	1	5	0	0	300	300	0	0	2143	46	1	0	anregung	genießen	träumen	kuss	engagiert	gütig	ausrottung	gemein	töten	krise	engstirnig	gierig	besonnen	vergnügt	kreativ	gesittet	vertrauen	sonnig	bange	verbissen	krank	geizig	versagen	sterben	1	blank2r.bmp	0	1	+	0	1	blank2r.bmp	500	1	DHJF	500	1	blank2r.bmp	880	5	engstirnig	880	0	0	0	0	0	0	0	0	0	0	0	0
2024-06-04	09:17:21	09:18:59	97907	6.6.1	4_exp_EVA_AWA_CON	65	A	B	Rpleas_acq	Same	Rpleas	1pleas	acq_new_pleas_nomask	acq1_nomask	1	6	0	0	300	300	0	0	911	50	1	0	anregung	genießen	träumen	kuss	engagiert	gütig	ausrottung	gemein	töten	krise	engstirnig	gierig	besonnen	vergnügt	kreativ	gesittet	vertrauen	sonnig	bange	verbissen	krank	geizig	versagen	sterben	1	blank2r.bmp	0	1	+	0	1	blank2r.bmp	500	6	C2r.bmp	500	1	blank2r.bmp	880	4	gesittet	880	0	0	0	0	0	0	0	0	0	0	0	0
2024-06-04	09:17:21	09:19:01	99979	6.6.1	4_exp_EVA_AWA_CON	65	A	B	Rpleas_acq	Same	Rpleas	1pleas	acq_new_pleas_nomask	acq1_nomask	1	7	0	0	300	300	0	0	591	50	1	0	anregung	genießen	träumen	kuss	engagiert	gütig	ausrottung	gemein	töten	krise	engstirnig	gierig	besonnen	vergnügt	kreativ	gesittet	vertrauen	sonnig	bange	verbissen	krank	geizig	versagen	sterben	1	blank2r.bmp	0	1	+	0	1	blank2r.bmp	500	2	B2r.bmp	500	1	blank2r.bmp	880	3	kreativ	880	0	0	0	0	0	0	0	0	0	0	0	0
2024-06-04	09:17:21	09:19:03	102051	6.6.1	4_exp_EVA_AWA_CON	65	A	B	Rpleas_acq	Same	Rpleas	1pleas	acq_new_unple_nomask	acq1_nomask	1	8	0	0	300	300	0	0	582	46	1	0	anregung	genießen	träumen	kuss	engagiert	gütig	ausrottung	gemein	töten	krise	engstirnig	gierig	besonnen	vergnügt	kreativ	gesittet	vertrauen	sonnig	bange	verbissen	krank	geizig	versagen	sterben	1	blank2r.bmp	0	1	+	0	1	blank2r.bmp	500	3	B3r.bmp	500	1	blank2r.bmp	880	1	bange	880	0	0	0	0	0	0	0	0	0	0	0	0
2024-06-04	09:17:21	09:19:05	104123	6.6.1	4_exp_EVA_AWA_CON	65	A	B	Rpleas_acq	Same	Rpleas	1pleas	acq_US_unple_nomask	acq1_nomask	1	9	0	0	300	300	0	0	583	46	1	0	anregung	genießen	träumen	kuss	engagiert	gütig	ausrottung	gemein	töten	krise	engstirnig	gierig	besonnen	vergnügt	kreativ	gesittet	vertrauen	sonnig	bange	verbissen	krank	geizig	versagen	sterben	1	blank2r.bmp	0	1	+	0	1	blank2r.bmp	500	1	DHJF	500	1	blank2r.bmp	880	6	gierig	880	0	0	0	0	0	0	0	0	0	0	0	0
2024-06-04	09:17:21	09:19:08	106468	6.6.1	4_exp_EVA_AWA_CON	65	A	B	Rpleas_acq	Same	Rpleas	1pleas	acq_US_pleas_nomask	acq1_nomask	1	10	0	0	300	300	0	0	655	46	0	0	anregung	genießen	träumen	kuss	engagiert	gütig	ausrottung	gemein	töten	krise	engstirnig	gierig	besonnen	vergnügt	kreativ	gesittet	vertrauen	sonnig	bange	verbissen	krank	geizig	versagen	sterben	1	blank2r.bmp	0	1	+	0	1	blank2r.bmp	500	1	CPLW	500	1	blank2r.bmp	880	6	gütig	880	1	FEHLER	1557	0	0	0	0	0	0	0	0	0
2024-06-04	09:17:21	09:19:10	108427	6.6.1	4_exp_EVA_AWA_CON	65	A	B	Rpleas_acq	Same	Rpleas	1pleas	acq_US_pleas_nomask	acq1_nomask	1	11	0	0	300	300	0	0	674	50	1	0	anregung	genießen	träumen	kuss	engagiert	gütig	ausrottung	gemein	töten	krise	engstirnig	gierig	besonnen	vergnügt	kreativ	gesittet	vertrauen	sonnig	bange	verbissen	krank	geizig	versagen	sterben	1	blank2r.bmp	0	1	+	0	1	blank2r.bmp	500	1	CPLW	500	1	blank2r.bmp	880	1	anregung	880	0	0	0	0	0	0	0	0	0	0	0	0
2024-06-04	09:17:21	09:19:12	110451	6.6.1	4_exp_EVA_AWA_CON	65	A	B	Rpleas_acq	Same	Rpleas	1pleas	acq_new_unple_nomask	acq1_nomask	1	12	0	0	300	300	0	0	537	46	1	0	anregung	genießen	träumen	kuss	engagiert	gütig	ausrottung	gemein	töten	krise	engstirnig	gierig	besonnen	vergnügt	kreativ	gesittet	vertrauen	sonnig	bange	verbissen	krank	geizig	versagen	sterben	1	blank2r.bmp	0	1	+	0	1	blank2r.bmp	500	4	B4r.bmp	500	1	blank2r.bmp	880	2	verbissen	880	0	0	0	0	0	0	0	0	0	0	0	0
2024-06-04	09:17:21	09:19:14	112723	6.6.1	4_exp_EVA_AWA_CON	65	A	B	Rpleas_acq	Same	Rpleas	1pleas	acq_US_pleas_nomask	acq1_nomask	1	13	0	0	300	300	0	0	787	50	1	0	anregung	genießen	träumen	kuss	engagiert	gütig	ausrottung	gemein	töten	krise	engstirnig	gierig	besonnen	vergnügt	kreativ	gesittet	vertrauen	sonnig	bange	verbissen	krank	geizig	versagen	sterben	1	blank2r.bmp	0	1	+	0	1	blank2r.bmp	500	1	CPLW	500	1	blank2r.bmp	880	5	engagiert	880	0	0	0	0	0	0	0	0	0	0	0	0
2024-06-04	09:17:21	09:19:16	114867	6.6.1	4_exp_EVA_AWA_CON	65	A	B	Rpleas_acq	Same	Rpleas	1pleas	acq_new_unple_nomask	acq1_nomask	1	14	0	0	300	300	0	0	660	46	1	0	anregung	genießen	träumen	kuss	engagiert	gütig	ausrottung	gemein	töten	krise	engstirnig	gierig	besonnen	vergnügt	kreativ	gesittet	vertrauen	sonnig	bange	verbissen	krank	geizig	versagen	sterben	1	blank2r.bmp	0	1	+	0	1	blank2r.bmp	500	1	B1r.bmp	500	1	blank2r.bmp	880	6	sterben	880	0	0	0	0	0	0	0	0	0	0	0	0
2024-06-04	09:17:21	09:19:18	117051	6.6.1	4_exp_EVA_AWA_CON	65	A	B	Rpleas_acq	Same	Rpleas	1pleas	acq_new_pleas_nomask	acq1_nomask	1	15	0	0	300	300	0	0	702	50	1	0	anregung	genießen	träumen	kuss	engagiert	gütig	ausrottung	gemein	töten	krise	engstirnig	gierig	besonnen	vergnügt	kreativ	gesittet	vertrauen	sonnig	bange	verbissen	krank	geizig	versagen	sterben	1	blank2r.bmp	0	1	+	0	1	blank2r.bmp	500	5	C1r.bmp	500	1	blank2r.bmp	880	5	vertrauen	880	0	0	0	0	0	0	0	0	0	0	0	0
2024-06-04	09:17:21	09:19:21	119227	6.6.1	4_exp_EVA_AWA_CON	65	A	B	Rpleas_acq	Same	Rpleas	1pleas	acq_new_pleas_nomask	acq1_nomask	1	16	0	0	300	300	0	0	687	50	1	0	anregung	genießen	träumen	kuss	engagiert	gütig	ausrottung	gemein	töten	krise	engstirnig	gierig	besonnen	vergnügt	kreativ	gesittet	vertrauen	sonnig	bange	verbissen	krank	geizig	versagen	sterben	1	blank2r.bmp	0	1	+	0	1	blank2r.bmp	500	7	C3r.bmp	500	1	blank2r.bmp	880	1	besonnen	880	0	0	0	0	0	0	0	0	0	0	0	0
2024-06-04	09:17:21	09:19:23	121451	6.6.1	4_exp_EVA_AWA_CON	65	A	B	Rpleas_acq	Same	Rpleas	1pleas	acq_new_unple_nomask	acq1_nomask	1	17	0	0	300	300	0	0	740	46	1	0	anregung	genießen	träumen	kuss	engagiert	gütig	ausrottung	gemein	töten	krise	engstirnig	gierig	besonnen	vergnügt	kreativ	gesittet	vertrauen	sonnig	bange	verbissen	krank	geizig	versagen	sterben	1	blank2r.bmp	0	1	+	0	1	blank2r.bmp	500	3	B3r.bmp	500	1	blank2r.bmp	880	5	versagen	880	0	0	0	0	0	0	0	0	0	0	0	0
2024-06-04	09:17:21	09:19:25	123723	6.6.1	4_exp_EVA_AWA_CON	65	A	B	Rpleas_acq	Same	Rpleas	1pleas	acq_US_unple_nomask	acq1_nomask	1	18	0	0	300	300	0	0	790	46	1	0	anregung	genießen	träumen	kuss	engagiert	gütig	ausrottung	gemein	töten	krise	engstirnig	gierig	besonnen	vergnügt	kreativ	gesittet	vertrauen	sonnig	bange	verbissen	krank	geizig	versagen	sterben	1	blank2r.bmp	0	1	+	0	1	blank2r.bmp	500	1	DHJF	500	1	blank2r.bmp	880	4	krise	880	0	0	0	0	0	0	0	0	0	0	0	0
2024-06-04	09:17:21	09:19:27	125747	6.6.1	4_exp_EVA_AWA_CON	65	A	B	Rpleas_acq	Same	Rpleas	1pleas	acq_US_unple_nomask	acq1_nomask	1	19	0	0	300	300	0	0	543	46	1	0	anregung	genießen	träumen	kuss	engagiert	gütig	ausrottung	gemein	töten	krise	engstirnig	gierig	besonnen	vergnügt	kreativ	gesittet	vertrauen	sonnig	bange	verbissen	krank	geizig	versagen	sterben	1	blank2r.bmp	0	1	+	0	1	blank2r.bmp	500	1	DHJF	500	1	blank2r.bmp	880	3	töten	880	0	0	0	0	0	0	0	0	0	0	0	0
2024-06-04	09:17:21	09:19:29	127876	6.6.1	4_exp_EVA_AWA_CON	65	A	B	Rpleas_acq	Same	Rpleas	1pleas	acq_new_pleas_nomask	acq1_nomask	1	20	0	0	300	300	0	0	639	50	1	0	anregung	genießen	träumen	kuss	engagiert	gütig	ausrottung	gemein	töten	krise	engstirnig	gierig	besonnen	vergnügt	kreativ	gesittet	vertrauen	sonnig	bange	verbissen	krank	geizig	versagen	sterben	1	blank2r.bmp	0	1	+	0	1	blank2r.bmp	500	2	B2r.bmp	500	1	blank2r.bmp	880	6	sonnig	880	0	0	0	0	0	0	0	0	0	0	0	0
2024-06-04	09:17:21	09:19:31	129867	6.6.1	4_exp_EVA_AWA_CON	65	A	B	Rpleas_acq	Same	Rpleas	1pleas	acq_new_unple_nomask	acq1_nomask	1	21	0	0	300	300	0	0	510	46	1	0	anregung	genießen	träumen	kuss	engagiert	gütig	ausrottung	gemein	töten	krise	engstirnig	gierig	besonnen	vergnügt	kreativ	gesittet	vertrauen	sonnig	bange	verbissen	krank	geizig	versagen	sterben	1	blank2r.bmp	0	1	+	0	1	blank2r.bmp	500	1	B1r.bmp	500	1	blank2r.bmp	880	3	krank	880	0	0	0	0	0	0	0	0	0	0	0	0
2024-06-04	09:17:21	09:19:33	131867	6.6.1	4_exp_EVA_AWA_CON	65	A	B	Rpleas_acq	Same	Rpleas	1pleas	acq_US_unple_nomask	acq1_nomask	1	22	0	0	300	300	0	0	519	46	1	0	anregung	genießen	träumen	kuss	engagiert	gütig	ausrottung	gemein	töten	krise	engstirnig	gierig	besonnen	vergnügt	kreativ	gesittet	vertrauen	sonnig	bange	verbissen	krank	geizig	versagen	sterben	1	blank2r.bmp	0	1	+	0	1	blank2r.bmp	500	1	DHJF	500	1	blank2r.bmp	880	1	ausrottung	880	0	0	0	0	0	0	0	0	0	0	0	0
2024-06-04	09:17:21	09:19:35	133867	6.6.1	4_exp_EVA_AWA_CON	65	A	B	Rpleas_acq	Same	Rpleas	1pleas	acq_US_pleas_nomask	acq1_nomask	1	23	0	0	300	300	0	0	518	50	1	0	anregung	genießen	träumen	kuss	engagiert	gütig	ausrottung	gemein	töten	krise	engstirnig	gierig	besonnen	vergnügt	kreativ	gesittet	vertrauen	sonnig	bange	verbissen	krank	geizig	versagen	sterben	1	blank2r.bmp	0	1	+	0	1	blank2r.bmp	500	1	CPLW	500	1	blank2r.bmp	880	2	genießen	880	0	0	0	0	0	0	0	0	0	0	0	0
2024-06-04	09:17:21	09:19:37	135987	6.6.1	4_exp_EVA_AWA_CON	65	A	B	Rpleas_acq	Same	Rpleas	1pleas	acq_US_pleas_nomask	acq1_nomask	1	24	0	0	300	300	0	0	636	50	1	0	anregung	genießen	träumen	kuss	engagiert	gütig	ausrottung	gemein	töten	krise	engstirnig	gierig	besonnen	vergnügt	kreativ	gesittet	vertrauen	sonnig	bange	verbissen	krank	geizig	versagen	sterben	1	blank2r.bmp	0	1	+	0	1	blank2r.bmp	500	1	CPLW	500	1	blank2r.bmp	880	3	träumen	880	0	0	0	0	0	0	0	0	0	0	0	0
2024-06-04	09:17:21	09:19:39	137995	6.6.1	4_exp_EVA_AWA_CON	65	A	B	Rpleas_acq	Same	Rpleas	1pleas	acq_new_unple_nomask	acq1_nomask	1	25	0	0	300	300	0	0	523	46	1	0	anregung	genießen	träumen	kuss	engagiert	gütig	ausrottung	gemein	töten	krise	engstirnig	gierig	besonnen	vergnügt	kreativ	gesittet	vertrauen	sonnig	bange	verbissen	krank	geizig	versagen	sterben	1	blank2r.bmp	0	1	+	0	1	blank2r.bmp	500	8	C4r.bmp	500	1	blank2r.bmp	880	4	geizig	880	0	0	0	0	0	0	0	0	0	0	0	0
2024-06-04	09:17:21	09:19:41	140003	6.6.1	4_exp_EVA_AWA_CON	65	A	B	Rpleas_acq	Same	Rpleas	1pleas	acq_new_pleas_nomask	acq1_nomask	1	26	0	0	300	300	0	0	520	50	1	0	anregung	genießen	träumen	kuss	engagiert	gütig	ausrottung	gemein	töten	krise	engstirnig	gierig	besonnen	vergnügt	kreativ	gesittet	vertrauen	sonnig	bange	verbissen	krank	geizig	versagen	sterben	1	blank2r.bmp	0	1	+	0	1	blank2r.bmp	500	6	C2r.bmp	500	1	blank2r.bmp	880	3	kreativ	880	0	0	0	0	0	0	0	0	0	0	0	0
2024-06-04	09:17:21	09:19:43	141995	6.6.1	4_exp_EVA_AWA_CON	65	A	B	Rpleas_acq	Same	Rpleas	1pleas	acq_US_unple_nomask	acq1_nomask	1	27	0	0	300	300	0	0	510	46	1	0	anregung	genießen	träumen	kuss	engagiert	gütig	ausrottung	gemein	töten	krise	engstirnig	gierig	besonnen	vergnügt	kreativ	gesittet	vertrauen	sonnig	bange	verbissen	krank	geizig	versagen	sterben	1	blank2r.bmp	0	1	+	0	1	blank2r.bmp	500	1	DHJF	500	1	blank2r.bmp	880	3	töten	880	0	0	0	0	0	0	0	0	0	0	0	0
2024-06-04	09:17:21	09:19:45	144036	6.6.1	4_exp_EVA_AWA_CON	65	A	B	Rpleas_acq	Same	Rpleas	1pleas	acq_new_pleas_nomask	acq1_nomask	1	28	0	0	300	300	0	0	559	50	1	0	anregung	genießen	träumen	kuss	engagiert	gütig	ausrottung	gemein	töten	krise	engstirnig	gierig	besonnen	vergnügt	kreativ	gesittet	vertrauen	sonnig	bange	verbissen	krank	geizig	versagen	sterben	1	blank2r.bmp	0	1	+	0	1	blank2r.bmp	500	4	B4r.bmp	500	1	blank2r.bmp	880	2	vergnügt	880	0	0	0	0	0	0	0	0	0	0	0	0
2024-06-04	09:17:21	09:19:47	146115	6.6.1	4_exp_EVA_AWA_CON	65	A	B	Rpleas_acq	Same	Rpleas	1pleas	acq_new_pleas_nomask	acq1_nomask	1	29	0	0	300	300	0	0	598	50	1	0	anregung	genießen	träumen	kuss	engagiert	gütig	ausrottung	gemein	töten	krise	engstirnig	gierig	besonnen	vergnügt	kreativ	gesittet	vertrauen	sonnig	bange	verbissen	krank	geizig	versagen	sterben	1	blank2r.bmp	0	1	+	0	1	blank2r.bmp	500	5	C1r.bmp	500	1	blank2r.bmp	880	4	gesittet	880	0	0	0	0	0	0	0	0	0	0	0	0
2024-06-04	09:17:21	09:19:49	148099	6.6.1	4_exp_EVA_AWA_CON	65	A	B	Rpleas_acq	Same	Rpleas	1pleas	acq_US_pleas_nomask	acq1_nomask	1	30	0	0	300	300	0	0	500	50	1	0	anregung	genießen	träumen	kuss	engagiert	gütig	ausrottung	gemein	töten	krise	engstirnig	gierig	besonnen	vergnügt	kreativ	gesittet	vertrauen	sonnig	bange	verbissen	krank	geizig	versagen	sterben	1	blank2r.bmp	0	1	+	0	1	blank2r.bmp	500	1	CPLW	500	1	blank2r.bmp	880	3	träumen	880	0	0	0	0	0	0	0	0	0	0	0	0
2024-06-04	09:17:21	09:19:52	150163	6.6.1	4_exp_EVA_AWA_CON	65	A	B	Rpleas_acq	Same	Rpleas	1pleas	acq_US_unple_nomask	acq1_nomask	1	31	0	0	300	300	0	0	573	46	1	0	anregung	genießen	träumen	kuss	engagiert	gütig	ausrottung	gemein	töten	krise	engstirnig	gierig	besonnen	vergnügt	kreativ	gesittet	vertrauen	sonnig	bange	verbissen	krank	geizig	versagen	sterben	1	blank2r.bmp	0	1	+	0	1	blank2r.bmp	500	1	DHJF	500	1	blank2r.bmp	880	2	gemein	880	0	0	0	0	0	0	0	0	0	0	0	0
2024-06-04	09:17:21	09:19:54	152187	6.6.1	4_exp_EVA_AWA_CON	65	A	B	Rpleas_acq	Same	Rpleas	1pleas	acq_US_unple_nomask	acq1_nomask	1	32	0	0	300	300	0	0	536	46	1	0	anregung	genießen	träumen	kuss	engagiert	gütig	ausrottung	gemein	töten	krise	engstirnig	gierig	besonnen	vergnügt	kreativ	gesittet	vertrauen	sonnig	bange	verbissen	krank	geizig	versagen	sterben	1	blank2r.bmp	0	1	+	0	1	blank2r.bmp	500	1	DHJF	500	1	blank2r.bmp	880	1	ausrottung	880	0	0	0	0	0	0	0	0	0	0	0	0
2024-06-04	09:17:21	09:19:56	154235	6.6.1	4_exp_EVA_AWA_CON	65	A	B	Rpleas_acq	Same	Rpleas	1pleas	acq_new_unple_nomask	acq1_nomask	1	33	0	0	300	300	0	0	562	46	1	0	anregung	genießen	träumen	kuss	engagiert	gütig	ausrottung	gemein	töten	krise	engstirnig	gierig	besonnen	vergnügt	kreativ	gesittet	vertrauen	sonnig	bange	verbissen	krank	geizig	versagen	sterben	1	blank2r.bmp	0	1	+	0	1	blank2r.bmp	500	4	B4r.bmp	500	1	blank2r.bmp	880	1	bange	880	0	0	0	0	0	0	0	0	0	0	0	0
2024-06-04	09:17:21	09:19:58	156315	6.6.1	4_exp_EVA_AWA_CON	65	A	B	Rpleas_acq	Same	Rpleas	1pleas	acq_US_pleas_nomask	acq1_nomask	1	34	0	0	300	300	0	0	591	50	1	0	anregung	genießen	träumen	kuss	engagiert	gütig	ausrottung	gemein	töten	krise	engstirnig	gierig	besonnen	vergnügt	kreativ	gesittet	vertrauen	sonnig	bange	verbissen	krank	geizig	versagen	sterben	1	blank2r.bmp	0	1	+	0	1	blank2r.bmp	500	1	CPLW	500	1	blank2r.bmp	880	5	engagiert	880	0	0	0	0	0	0	0	0	0	0	0	0
2024-06-04	09:17:21	09:20:00	158339	6.6.1	4_exp_EVA_AWA_CON	65	A	B	Rpleas_acq	Same	Rpleas	1pleas	acq_new_unple_nomask	acq1_nomask	1	35	0	0	300	300	0	0	534	46	1	0	anregung	genießen	träumen	kuss	engagiert	gütig	ausrottung	gemein	töten	krise	engstirnig	gierig	besonnen	vergnügt	kreativ	gesittet	vertrauen	sonnig	bange	verbissen	krank	geizig	versagen	sterben	1	blank2r.bmp	0	1	+	0	1	blank2r.bmp	500	1	B1r.bmp	500	1	blank2r.bmp	880	3	krank	880	0	0	0	0	0	0	0	0	0	0	0	0
2024-06-04	09:17:21	09:20:02	160699	6.6.1	4_exp_EVA_AWA_CON	65	A	B	Rpleas_acq	Same	Rpleas	1pleas	acq_US_pleas_nomask	acq1_nomask	1	36	0	0	300	300	0	0	873	50	1	0	anregung	genießen	träumen	kuss	engagiert	gütig	ausrottung	gemein	töten	krise	engstirnig	gierig	besonnen	vergnügt	kreativ	gesittet	vertrauen	sonnig	bange	verbissen	krank	geizig	versagen	sterben	1	blank2r.bmp	0	1	+	0	1	blank2r.bmp	500	1	CPLW	500	1	blank2r.bmp	880	2	genießen	880	0	0	0	0	0	0	0	0	0	0	0	0
2024-06-04	09:17:21	09:20:25	183605	6.6.1	4_exp_EVA_AWA_CON	65	A	B	Rpleas_acq	Same	Rpleas	1pleas	acq_US_pleas_nomask	acq2_nomask	2	1	480	0	300	300	0	0	994	50	1	0	anregung	genießen	träumen	kuss	engagiert	gütig	ausrottung	gemein	töten	krise	engstirnig	gierig	besonnen	vergnügt	kreativ	gesittet	vertrauen	sonnig	bange	verbissen	krank	geizig	versagen	sterben	1	blank2r.bmp	0	1	+	0	1	blank2r.bmp	500	1	CPLW	500	1	blank2r.bmp	880	6	gütig	880	1	!	1312	1	!	-1	0	0	0	0	0	0
2024-06-04	09:17:21	09:20:27	186037	6.6.1	4_exp_EVA_AWA_CON	65	A	B	Rpleas_acq	Same	Rpleas	1pleas	acq_new_pleas_nomask	acq2_nomask	2	2	480	0	300	300	0	0	654	50	1	0	anregung	genießen	träumen	kuss	engagiert	gütig	ausrottung	gemein	töten	krise	engstirnig	gierig	besonnen	vergnügt	kreativ	gesittet	vertrauen	sonnig	bange	verbissen	krank	geizig	versagen	sterben	1	blank2r.bmp	0	1	+	0	1	blank2r.bmp	500	8	C4r.bmp	500	1	blank2r.bmp	880	6	sonnig	880	1	!	1312	1	!	-1	0	0	0	0	0	0
2024-06-04	09:17:21	09:20:30	188237	6.6.1	4_exp_EVA_AWA_CON	65	A	B	Rpleas_acq	Same	Rpleas	1pleas	acq_new_unple_nomask	acq2_nomask	2	3	480	1	300	300	0	0	423	46	1	0	anregung	genießen	träumen	kuss	engagiert	gütig	ausrottung	gemein	töten	krise	engstirnig	gierig	besonnen	vergnügt	kreativ	gesittet	vertrauen	sonnig	bange	verbissen	krank	geizig	versagen	sterben	1	blank2r.bmp	0	1	+	0	1	blank2r.bmp	500	5	C1r.bmp	500	1	blank2r.bmp	880	6	sterben	880	1	!	1312	1	!	1323	0	0	0	0	0	0
2024-06-04	09:17:21	09:20:32	190558	6.6.1	4_exp_EVA_AWA_CON	65	A	B	Rpleas_acq	Same	Rpleas	1pleas	acq_US_unple_nomask	acq2_nomask	2	4	480	1	300	300	0	0	541	46	1	0	anregung	genießen	träumen	kuss	engagiert	gütig	ausrottung	gemein	töten	krise	engstirnig	gierig	besonnen	vergnügt	kreativ	gesittet	vertrauen	sonnig	bange	verbissen	krank	geizig	versagen	sterben	1	blank2r.bmp	0	1	+	0	1	blank2r.bmp	500	1	DHJF	500	1	blank2r.bmp	880	4	krise	880	1	!	1313	1	!	1443	0	0	0	0	0	0
2024-06-04	09:17:21	09:20:34	192909	6.6.1	4_exp_EVA_AWA_CON	65	A	B	Rpleas_acq	Same	Rpleas	1pleas	acq_new_unple_nomask	acq2_nomask	2	5	480	0	300	300	0	0	572	46	1	0	anregung	genießen	träumen	kuss	engagiert	gütig	ausrottung	gemein	töten	krise	engstirnig	gierig	besonnen	vergnügt	kreativ	gesittet	vertrauen	sonnig	bange	verbissen	krank	geizig	versagen	sterben	1	blank2r.bmp	0	1	+	0	1	blank2r.bmp	500	2	B2r.bmp	500	1	blank2r.bmp	880	5	versagen	880	1	!	1313	1	!	-1	0	0	0	0	0	0
2024-06-04	09:17:21	09:20:36	195069	6.6.1	4_exp_EVA_AWA_CON	65	A	B	Rpleas_acq	Same	Rpleas	1pleas	acq_US_pleas_nomask	acq2_nomask	2	6	480	0	300	300	0	0	380	50	1	0	anregung	genießen	träumen	kuss	engagiert	gütig	ausrottung	gemein	töten	krise	engstirnig	gierig	besonnen	vergnügt	kreativ	gesittet	vertrauen	sonnig	bange	verbissen	krank	geizig	versagen	sterben	1	blank2r.bmp	0	1	+	0	1	blank2r.bmp	500	1	CPLW	500	1	blank2r.bmp	880	1	anregung	880	1	!	-1	1	!	-1	0	0	0	0	0	0
2024-06-04	09:17:21	09:20:39	197366	6.6.1	4_exp_EVA_AWA_CON	65	A	B	Rpleas_acq	Same	Rpleas	1pleas	acq_new_pleas_nomask	acq2_nomask	2	7	480	1	300	300	0	0	515	50	1	0	anregung	genießen	träumen	kuss	engagiert	gütig	ausrottung	gemein	töten	krise	engstirnig	gierig	besonnen	vergnügt	kreativ	gesittet	vertrauen	sonnig	bange	verbissen	krank	geizig	versagen	sterben	1	blank2r.bmp	0	1	+	0	1	blank2r.bmp	500	7	C3r.bmp	500	1	blank2r.bmp	880	5	vertrauen	880	1	!	1312	1	!	1417	0	0	0	0	0	0
2024-06-04	09:17:21	09:20:41	199566	6.6.1	4_exp_EVA_AWA_CON	65	A	B	Rpleas_acq	Same	Rpleas	1pleas	acq_new_unple_nomask	acq2_nomask	2	8	480	1	300	300	0	0	423	46	1	0	anregung	genießen	träumen	kuss	engagiert	gütig	ausrottung	gemein	töten	krise	engstirnig	gierig	besonnen	vergnügt	kreativ	gesittet	vertrauen	sonnig	bange	verbissen	krank	geizig	versagen	sterben	1	blank2r.bmp	0	1	+	0	1	blank2r.bmp	500	3	B3r.bmp	500	1	blank2r.bmp	880	2	verbissen	880	1	!	1312	1	!	1325	0	0	0	0	0	0
2024-06-04	09:17:21	09:20:43	201741	6.6.1	4_exp_EVA_AWA_CON	65	A	B	Rpleas_acq	Same	Rpleas	1pleas	acq_new_pleas_nomask	acq2_nomask	2	9	480	0	300	300	0	0	398	50	1	0	anregung	genießen	träumen	kuss	engagiert	gütig	ausrottung	gemein	töten	krise	engstirnig	gierig	besonnen	vergnügt	kreativ	gesittet	vertrauen	sonnig	bange	verbissen	krank	geizig	versagen	sterben	1	blank2r.bmp	0	1	+	0	1	blank2r.bmp	500	6	C2r.bmp	500	1	blank2r.bmp	880	1	besonnen	880	1	!	-1	1	!	-1	0	0	0	0	0	0
2024-06-04	09:17:21	09:20:45	204067	6.6.1	4_exp_EVA_AWA_CON	65	A	B	Rpleas_acq	Same	Rpleas	1pleas	acq_US_unple_nomask	acq2_nomask	2	10	480	0	300	300	0	0	555	46	1	0	anregung	genießen	träumen	kuss	engagiert	gütig	ausrottung	gemein	töten	krise	engstirnig	gierig	besonnen	vergnügt	kreativ	gesittet	vertrauen	sonnig	bange	verbissen	krank	geizig	versagen	sterben	1	blank2r.bmp	0	1	+	0	1	blank2r.bmp	500	1	DHJF	500	1	blank2r.bmp	880	5	engstirnig	880	1	!	1313	1	!	-1	0	0	0	0	0	0
2024-06-04	09:17:21	09:20:48	206253	6.6.1	4_exp_EVA_AWA_CON	65	A	B	Rpleas_acq	Same	Rpleas	1pleas	acq_US_pleas_nomask	acq2_nomask	2	11	480	0	300	300	0	0	407	50	1	0	anregung	genießen	träumen	kuss	engagiert	gütig	ausrottung	gemein	töten	krise	engstirnig	gierig	besonnen	vergnügt	kreativ	gesittet	vertrauen	sonnig	bange	verbissen	krank	geizig	versagen	sterben	1	blank2r.bmp	0	1	+	0	1	blank2r.bmp	500	1	CPLW	500	1	blank2r.bmp	880	4	kuss	880	1	!	-1	1	!	-1	0	0	0	0	0	0
2024-06-04	09:17:21	09:20:50	208693	6.6.1	4_exp_EVA_AWA_CON	65	A	B	Rpleas_acq	Same	Rpleas	1pleas	acq_US_unple_nomask	acq2_nomask	2	12	480	0	300	300	0	0	666	46	1	0	anregung	genießen	träumen	kuss	engagiert	gütig	ausrottung	gemein	töten	krise	engstirnig	gierig	besonnen	vergnügt	kreativ	gesittet	vertrauen	sonnig	bange	verbissen	krank	geizig	versagen	sterben	1	blank2r.bmp	0	1	+	0	1	blank2r.bmp	500	1	DHJF	500	1	blank2r.bmp	880	6	gierig	880	1	!	1313	1	!	-1	0	0	0	0	0	0
2024-06-04	09:17:21	09:20:52	210894	6.6.1	4_exp_EVA_AWA_CON	65	A	B	Rpleas_acq	Same	Rpleas	1pleas	acq_new_pleas_nomask	acq2_nomask	2	13	480	1	300	300	0	0	424	50	1	0	anregung	genießen	träumen	kuss	engagiert	gütig	ausrottung	gemein	töten	krise	engstirnig	gierig	besonnen	vergnügt	kreativ	gesittet	vertrauen	sonnig	bange	verbissen	krank	geizig	versagen	sterben	1	blank2r.bmp	0	1	+	0	1	blank2r.bmp	500	7	C3r.bmp	500	1	blank2r.bmp	880	5	vertrauen	880	1	!	1312	1	!	1326	0	0	0	0	0	0
2024-06-04	09:17:21	09:20:54	213037	6.6.1	4_exp_EVA_AWA_CON	65	A	B	Rpleas_acq	Same	Rpleas	1pleas	acq_US_unple_nomask	acq2_nomask	2	14	480	0	300	300	0	0	367	46	1	0	anregung	genießen	träumen	kuss	engagiert	gütig	ausrottung	gemein	töten	krise	engstirnig	gierig	besonnen	vergnügt	kreativ	gesittet	vertrauen	sonnig	bange	verbissen	krank	geizig	versagen	sterben	1	blank2r.bmp	0	1	+	0	1	blank2r.bmp	500	1	DHJF	500	1	blank2r.bmp	880	6	gierig	880	1	!	-1	1	!	-1	0	0	0	0	0	0
2024-06-04	09:17:21	09:20:57	215254	6.6.1	4_exp_EVA_AWA_CON	65	A	B	Rpleas_acq	Same	Rpleas	1pleas	acq_US_pleas_nomask	acq2_nomask	2	15	480	1	300	300	0	0	441	50	1	0	anregung	genießen	träumen	kuss	engagiert	gütig	ausrottung	gemein	töten	krise	engstirnig	gierig	besonnen	vergnügt	kreativ	gesittet	vertrauen	sonnig	bange	verbissen	krank	geizig	versagen	sterben	1	blank2r.bmp	0	1	+	0	1	blank2r.bmp	500	1	CPLW	500	1	blank2r.bmp	880	3	träumen	880	1	!	1312	1	!	1343	0	0	0	0	0	0
2024-06-04	09:17:21	09:20:59	217543	6.6.1	4_exp_EVA_AWA_CON	65	A	B	Rpleas_acq	Same	Rpleas	1pleas	acq_new_unple_nomask	acq2_nomask	2	16	480	1	300	300	0	0	508	46	1	0	anregung	genießen	träumen	kuss	engagiert	gütig	ausrottung	gemein	töten	krise	engstirnig	gierig	besonnen	vergnügt	kreativ	gesittet	vertrauen	sonnig	bange	verbissen	krank	geizig	versagen	sterben	1	blank2r.bmp	0	1	+	0	1	blank2r.bmp	500	8	C4r.bmp	500	1	blank2r.bmp	880	1	bange	880	1	!	1313	1	!	1409	0	0	0	0	0	0
2024-06-04	09:17:21	09:21:01	220020	6.6.1	4_exp_EVA_AWA_CON	65	A	B	Rpleas_acq	Same	Rpleas	1pleas	acq_US_unple_nomask	acq2_nomask	2	17	480	0	300	300	0	0	697	46	1	0	anregung	genießen	träumen	kuss	engagiert	gütig	ausrottung	gemein	töten	krise	engstirnig	gierig	besonnen	vergnügt	kreativ	gesittet	vertrauen	sonnig	bange	verbissen	krank	geizig	versagen	sterben	1	blank2r.bmp	0	1	+	0	1	blank2r.bmp	500	1	DHJF	500	1	blank2r.bmp	880	5	engstirnig	880	1	!	1313	1	!	-1	0	0	0	0	0	0
2024-06-04	09:17:21	09:21:04	222262	6.6.1	4_exp_EVA_AWA_CON	65	A	B	Rpleas_acq	Same	Rpleas	1pleas	acq_US_pleas_nomask	acq2_nomask	2	18	480	1	300	300	0	0	465	50	1	0	anregung	genießen	träumen	kuss	engagiert	gütig	ausrottung	gemein	töten	krise	engstirnig	gierig	besonnen	vergnügt	kreativ	gesittet	vertrauen	sonnig	bange	verbissen	krank	geizig	versagen	sterben	1	blank2r.bmp	0	1	+	0	1	blank2r.bmp	500	1	CPLW	500	1	blank2r.bmp	880	5	engagiert	880	1	!	1312	1	!	1366	0	0	0	0	0	0
2024-06-04	09:17:21	09:21:06	224588	6.6.1	4_exp_EVA_AWA_CON	65	A	B	Rpleas_acq	Same	Rpleas	1pleas	acq_new_pleas_nomask	acq2_nomask	2	19	480	0	300	300	0	0	553	50	1	0	anregung	genießen	träumen	kuss	engagiert	gütig	ausrottung	gemein	töten	krise	engstirnig	gierig	besonnen	vergnügt	kreativ	gesittet	vertrauen	sonnig	bange	verbissen	krank	geizig	versagen	sterben	1	blank2r.bmp	0	1	+	0	1	blank2r.bmp	500	4	B4r.bmp	500	1	blank2r.bmp	880	3	kreativ	880	1	!	1313	1	!	-1	0	0	0	0	0	0
2024-06-04	09:17:21	09:21:08	226902	6.6.1	4_exp_EVA_AWA_CON	65	A	B	Rpleas_acq	Same	Rpleas	1pleas	acq_US_unple_nomask	acq2_nomask	2	20	480	1	300	300	0	0	532	46	1	0	anregung	genießen	träumen	kuss	engagiert	gütig	ausrottung	gemein	töten	krise	engstirnig	gierig	besonnen	vergnügt	kreativ	gesittet	vertrauen	sonnig	bange	verbissen	krank	geizig	versagen	sterben	1	blank2r.bmp	0	1	+	0	1	blank2r.bmp	500	1	DHJF	500	1	blank2r.bmp	880	1	ausrottung	880	1	!	1313	1	!	1434	0	0	0	0	0	0
2024-06-04	09:17:21	09:21:10	229085	6.6.1	4_exp_EVA_AWA_CON	65	A	B	Rpleas_acq	Same	Rpleas	1pleas	acq_US_pleas_nomask	acq2_nomask	2	21	480	0	300	300	0	0	405	50	1	0	anregung	genießen	träumen	kuss	engagiert	gütig	ausrottung	gemein	töten	krise	engstirnig	gierig	besonnen	vergnügt	kreativ	gesittet	vertrauen	sonnig	bange	verbissen	krank	geizig	versagen	sterben	1	blank2r.bmp	0	1	+	0	1	blank2r.bmp	500	1	CPLW	500	1	blank2r.bmp	880	2	genießen	880	1	!	-1	1	!	-1	0	0	0	0	0	0
2024-06-04	09:17:21	09:21:13	231492	6.6.1	4_exp_EVA_AWA_CON	65	A	B	Rpleas_acq	Same	Rpleas	1pleas	acq_new_unple_nomask	acq2_nomask	2	22	480	0	300	300	0	0	631	46	1	0	anregung	genießen	träumen	kuss	engagiert	gütig	ausrottung	gemein	töten	krise	engstirnig	gierig	besonnen	vergnügt	kreativ	gesittet	vertrauen	sonnig	bange	verbissen	krank	geizig	versagen	sterben	1	blank2r.bmp	0	1	+	0	1	blank2r.bmp	500	2	B2r.bmp	500	1	blank2r.bmp	880	6	sterben	880	1	!	1312	1	!	-1	0	0	0	0	0	0
2024-06-04	09:17:21	09:21:15	233836	6.6.1	4_exp_EVA_AWA_CON	65	A	B	Rpleas_acq	Same	Rpleas	1pleas	acq_new_unple_nomask	acq2_nomask	2	23	480	0	300	300	0	0	564	46	1	0	anregung	genießen	träumen	kuss	engagiert	gütig	ausrottung	gemein	töten	krise	engstirnig	gierig	besonnen	vergnügt	kreativ	gesittet	vertrauen	sonnig	bange	verbissen	krank	geizig	versagen	sterben	1	blank2r.bmp	0	1	+	0	1	blank2r.bmp	500	1	B1r.bmp	500	1	blank2r.bmp	880	5	versagen	880	1	!	1313	1	!	-1	0	0	0	0	0	0
2024-06-04	09:17:21	09:21:18	236256	6.6.1	4_exp_EVA_AWA_CON	65	A	B	Rpleas_acq	Same	Rpleas	1pleas	acq_new_pleas_nomask	acq2_nomask	2	24	480	1	300	300	0	0	438	46	0	0	anregung	genießen	träumen	kuss	engagiert	gütig	ausrottung	gemein	töten	krise	engstirnig	gierig	besonnen	vergnügt	kreativ	gesittet	vertrauen	sonnig	bange	verbissen	krank	geizig	versagen	sterben	1	blank2r.bmp	0	1	+	0	1	blank2r.bmp	500	3	B3r.bmp	500	1	blank2r.bmp	880	1	besonnen	880	1	FEHLER	1632	1	!	1312	1	!	1340	0	0	0
2024-06-04	09:17:21	09:21:20	238605	6.6.1	4_exp_EVA_AWA_CON	65	A	B	Rpleas_acq	Same	Rpleas	1pleas	acq_US_unple_nomask	acq2_nomask	2	25	480	0	300	300	0	0	769	46	1	0	anregung	genießen	träumen	kuss	engagiert	gütig	ausrottung	gemein	töten	krise	engstirnig	gierig	besonnen	vergnügt	kreativ	gesittet	vertrauen	sonnig	bange	verbissen	krank	geizig	versagen	sterben	1	blank2r.bmp	0	1	+	0	1	blank2r.bmp	500	1	DHJF	500	1	blank2r.bmp	880	2	gemein	880	1	!	1313	1	!	-1	0	0	0	0	0	0
2024-06-04	09:17:21	09:21:22	241071	6.6.1	4_exp_EVA_AWA_CON	65	A	B	Rpleas_acq	Same	Rpleas	1pleas	acq_US_pleas_nomask	acq2_nomask	2	26	480	1	300	300	0	0	491	46	0	0	anregung	genießen	träumen	kuss	engagiert	gütig	ausrottung	gemein	töten	krise	engstirnig	gierig	besonnen	vergnügt	kreativ	gesittet	vertrauen	sonnig	bange	verbissen	krank	geizig	versagen	sterben	1	blank2r.bmp	0	1	+	0	1	blank2r.bmp	500	1	CPLW	500	1	blank2r.bmp	880	6	gütig	880	1	FEHLER	1684	1	!	1312	1	!	1392	0	0	0
2024-06-04	09:17:21	09:21:27	245448	6.6.1	4_exp_EVA_AWA_CON	65	A	B	Rpleas_acq	Same	Rpleas	1pleas	acq_new_unple_nomask	acq2_nomask	2	27	480	0	300	300	0	0	2596	50	0	0	anregung	genießen	träumen	kuss	engagiert	gütig	ausrottung	gemein	töten	krise	engstirnig	gierig	besonnen	vergnügt	kreativ	gesittet	vertrauen	sonnig	bange	verbissen	krank	geizig	versagen	sterben	1	blank2r.bmp	0	1	+	0	1	blank2r.bmp	500	5	C1r.bmp	500	1	blank2r.bmp	880	3	krank	880	1	FEHLER	3789	1	!	1312	1	!	-1	0	0	0
2024-06-04	09:17:21	09:21:29	247767	6.6.1	4_exp_EVA_AWA_CON	65	A	B	Rpleas_acq	Same	Rpleas	1pleas	acq_US_pleas_nomask	acq2_nomask	2	28	480	1	300	300	0	0	543	46	0	0	anregung	genießen	träumen	kuss	engagiert	gütig	ausrottung	gemein	töten	krise	engstirnig	gierig	besonnen	vergnügt	kreativ	gesittet	vertrauen	sonnig	bange	verbissen	krank	geizig	versagen	sterben	1	blank2r.bmp	0	1	+	0	1	blank2r.bmp	500	1	CPLW	500	1	blank2r.bmp	880	1	anregung	880	1	FEHLER	1736	1	!	1312	1	!	1444	0	0	0
2024-06-04	09:17:21	09:21:31	249814	6.6.1	4_exp_EVA_AWA_CON	65	A	B	Rpleas_acq	Same	Rpleas	1pleas	acq_US_pleas_nomask	acq2_nomask	2	29	480	1	300	300	0	0	469	50	1	0	anregung	genießen	träumen	kuss	engagiert	gütig	ausrottung	gemein	töten	krise	engstirnig	gierig	besonnen	vergnügt	kreativ	gesittet	vertrauen	sonnig	bange	verbissen	krank	geizig	versagen	sterben	1	blank2r.bmp	0	1	+	0	1	blank2r.bmp	500	1	CPLW	500	1	blank2r.bmp	880	4	kuss	880	1	!	1313	1	!	1371	0	0	0	0	0	0
2024-06-04	09:17:21	09:21:34	252189	6.6.1	4_exp_EVA_AWA_CON	65	A	B	Rpleas_acq	Same	Rpleas	1pleas	acq_new_pleas_nomask	acq2_nomask	2	30	480	0	300	300	0	0	594	50	1	0	anregung	genießen	träumen	kuss	engagiert	gütig	ausrottung	gemein	töten	krise	engstirnig	gierig	besonnen	vergnügt	kreativ	gesittet	vertrauen	sonnig	bange	verbissen	krank	geizig	versagen	sterben	1	blank2r.bmp	0	1	+	0	1	blank2r.bmp	500	6	C2r.bmp	500	1	blank2r.bmp	880	2	vergnügt	880	1	!	1313	1	!	-1	0	0	0	0	0	0
2024-06-04	09:17:21	09:21:36	254624	6.6.1	4_exp_EVA_AWA_CON	65	A	B	Rpleas_acq	Same	Rpleas	1pleas	acq_new_pleas_nomask	acq2_nomask	2	31	480	1	300	300	0	0	454	46	0	0	anregung	genießen	träumen	kuss	engagiert	gütig	ausrottung	gemein	töten	krise	engstirnig	gierig	besonnen	vergnügt	kreativ	gesittet	vertrauen	sonnig	bange	verbissen	krank	geizig	versagen	sterben	1	blank2r.bmp	0	1	+	0	1	blank2r.bmp	500	5	C1r.bmp	500	1	blank2r.bmp	880	4	gesittet	880	1	FEHLER	1648	1	!	1312	1	!	1356	0	0	0
2024-06-04	09:17:21	09:21:38	256829	6.6.1	4_exp_EVA_AWA_CON	65	A	B	Rpleas_acq	Same	Rpleas	1pleas	acq_US_unple_nomask	acq2_nomask	2	32	480	0	300	300	0	0	631	46	1	0	anregung	genießen	träumen	kuss	engagiert	gütig	ausrottung	gemein	töten	krise	engstirnig	gierig	besonnen	vergnügt	kreativ	gesittet	vertrauen	sonnig	bange	verbissen	krank	geizig	versagen	sterben	1	blank2r.bmp	0	1	+	0	1	blank2r.bmp	500	1	DHJF	500	1	blank2r.bmp	880	4	krise	880	1	!	1313	1	!	-1	0	0	0	0	0	0
2024-06-04	09:17:21	09:21:40	259071	6.6.1	4_exp_EVA_AWA_CON	65	A	B	Rpleas_acq	Same	Rpleas	1pleas	acq_US_unple_nomask	acq2_nomask	2	33	480	1	300	300	0	0	459	46	1	0	anregung	genießen	träumen	kuss	engagiert	gütig	ausrottung	gemein	töten	krise	engstirnig	gierig	besonnen	vergnügt	kreativ	gesittet	vertrauen	sonnig	bange	verbissen	krank	geizig	versagen	sterben	1	blank2r.bmp	0	1	+	0	1	blank2r.bmp	500	1	DHJF	500	1	blank2r.bmp	880	3	töten	880	1	!	1313	1	!	1362	0	0	0	0	0	0
2024-06-04	09:17:21	09:21:43	261374	6.6.1	4_exp_EVA_AWA_CON	65	A	B	Rpleas_acq	Same	Rpleas	1pleas	acq_new_unple_nomask	acq2_nomask	2	34	480	1	300	300	0	0	522	46	1	0	anregung	genießen	träumen	kuss	engagiert	gütig	ausrottung	gemein	töten	krise	engstirnig	gierig	besonnen	vergnügt	kreativ	gesittet	vertrauen	sonnig	bange	verbissen	krank	geizig	versagen	sterben	1	blank2r.bmp	0	1	+	0	1	blank2r.bmp	500	6	C2r.bmp	500	1	blank2r.bmp	880	4	geizig	880	1	!	1312	1	!	1423	0	0	0	0	0	0
2024-06-04	09:17:21	09:21:45	263678	6.6.1	4_exp_EVA_AWA_CON	65	A	B	Rpleas_acq	Same	Rpleas	1pleas	acq_new_unple_nomask	acq2_nomask	2	35	480	1	300	300	0	0	524	46	1	0	anregung	genießen	träumen	kuss	engagiert	gütig	ausrottung	gemein	töten	krise	engstirnig	gierig	besonnen	vergnügt	kreativ	gesittet	vertrauen	sonnig	bange	verbissen	krank	geizig	versagen	sterben	1	blank2r.bmp	0	1	+	0	1	blank2r.bmp	500	8	C4r.bmp	500	1	blank2r.bmp	880	2	verbissen	880	1	!	1312	1	!	1426	0	0	0	0	0	0
2024-06-04	09:17:21	09:21:47	265895	6.6.1	4_exp_EVA_AWA_CON	65	A	B	Rpleas_acq	Same	Rpleas	1pleas	acq_new_pleas_nomask	acq2_nomask	2	36	480	1	300	300	0	0	439	50	1	0	anregung	genießen	träumen	kuss	engagiert	gütig	ausrottung	gemein	töten	krise	engstirnig	gierig	besonnen	vergnügt	kreativ	gesittet	vertrauen	sonnig	bange	verbissen	krank	geizig	versagen	sterben	1	blank2r.bmp	0	1	+	0	1	blank2r.bmp	500	4	B4r.bmp	500	1	blank2r.bmp	880	6	sonnig	880	1	!	1312	1	!	1340	0	0	0	0	0	0
2024-06-04	09:17:21	09:22:01	279583	6.6.1	4_exp_EVA_AWA_CON	65	A	B	Rpleas_acq	Same	Rpleas	1pleas	acq_US_unple_nomask	acq3_nomask	3	1	453	1	300	300	0	0	498	46	1	0	anregung	genießen	träumen	kuss	engagiert	gütig	ausrottung	gemein	töten	krise	engstirnig	gierig	besonnen	vergnügt	kreativ	gesittet	vertrauen	sonnig	bange	verbissen	krank	geizig	versagen	sterben	1	blank2r.bmp	0	1	+	0	1	blank2r.bmp	500	1	DHJF	500	1	blank2r.bmp	880	4	krise	880	1	!	1293	1	!	1400	0	0	0	0	0	0
2024-06-04	09:17:21	09:22:03	281822	6.6.1	4_exp_EVA_AWA_CON	65	A	B	Rpleas_acq	Same	Rpleas	1pleas	acq_US_unple_nomask	acq3_nomask	3	2	453	1	300	300	0	0	457	46	1	0	anregung	genießen	träumen	kuss	engagiert	gütig	ausrottung	gemein	töten	krise	engstirnig	gierig	besonnen	vergnügt	kreativ	gesittet	vertrauen	sonnig	bange	verbissen	krank	geizig	versagen	sterben	1	blank2r.bmp	0	1	+	0	1	blank2r.bmp	500	1	DHJF	500	1	blank2r.bmp	880	6	gierig	880	1	!	1292	1	!	1358	0	0	0	0	0	0
2024-06-04	09:17:21	09:22:05	284038	6.6.1	4_exp_EVA_AWA_CON	65	A	B	Rpleas_acq	Same	Rpleas	1pleas	acq_US_pleas_nomask	acq3_nomask	3	3	453	1	300	300	0	0	441	50	1	0	anregung	genießen	träumen	kuss	engagiert	gütig	ausrottung	gemein	töten	krise	engstirnig	gierig	besonnen	vergnügt	kreativ	gesittet	vertrauen	sonnig	bange	verbissen	krank	geizig	versagen	sterben	1	blank2r.bmp	0	1	+	0	1	blank2r.bmp	500	1	CPLW	500	1	blank2r.bmp	880	3	träumen	880	1	!	1293	1	!	1343	0	0	0	0	0	0
2024-06-04	09:17:21	09:22:08	286339	6.6.1	4_exp_EVA_AWA_CON	65	A	B	Rpleas_acq	Same	Rpleas	1pleas	acq_US_unple_nomask	acq3_nomask	3	4	453	0	300	300	0	0	524	46	1	0	anregung	genießen	träumen	kuss	engagiert	gütig	ausrottung	gemein	töten	krise	engstirnig	gierig	besonnen	vergnügt	kreativ	gesittet	vertrauen	sonnig	bange	verbissen	krank	geizig	versagen	sterben	1	blank2r.bmp	0	1	+	0	1	blank2r.bmp	500	1	DHJF	500	1	blank2r.bmp	880	1	ausrottung	880	1	!	1293	1	!	-1	0	0	0	0	0	0
2024-06-04	09:17:21	09:22:10	288680	6.6.1	4_exp_EVA_AWA_CON	65	A	B	Rpleas_acq	Same	Rpleas	1pleas	acq_US_pleas_nomask	acq3_nomask	3	5	453	0	300	300	0	0	358	46	0	0	anregung	genießen	träumen	kuss	engagiert	gütig	ausrottung	gemein	töten	krise	engstirnig	gierig	besonnen	vergnügt	kreativ	gesittet	vertrauen	sonnig	bange	verbissen	krank	geizig	versagen	sterben	1	blank2r.bmp	0	1	+	0	1	blank2r.bmp	500	1	CPLW	500	1	blank2r.bmp	880	5	engagiert	880	1	FEHLER	1552	1	!	-1	1	!	-1	0	0	0
2024-06-04	09:17:21	09:22:12	290678	6.6.1	4_exp_EVA_AWA_CON	65	A	B	Rpleas_acq	Same	Rpleas	1pleas	acq_US_pleas_nomask	acq3_nomask	3	6	453	1	300	300	0	0	427	50	1	0	anregung	genießen	träumen	kuss	engagiert	gütig	ausrottung	gemein	töten	krise	engstirnig	gierig	besonnen	vergnügt	kreativ	gesittet	vertrauen	sonnig	bange	verbissen	krank	geizig	versagen	sterben	1	blank2r.bmp	0	1	+	0	1	blank2r.bmp	500	1	CPLW	500	1	blank2r.bmp	880	2	genießen	880	1	!	1293	1	!	1329	0	0	0	0	0	0
2024-06-04	09:17:21	09:22:14	293105	6.6.1	4_exp_EVA_AWA_CON	65	A	B	Rpleas_acq	Same	Rpleas	1pleas	acq_US_pleas_nomask	acq3_nomask	3	7	453	1	300	300	0	0	449	46	0	0	anregung	genießen	träumen	kuss	engagiert	gütig	ausrottung	gemein	töten	krise	engstirnig	gierig	besonnen	vergnügt	kreativ	gesittet	vertrauen	sonnig	bange	verbissen	krank	geizig	versagen	sterben	1	blank2r.bmp	0	1	+	0	1	blank2r.bmp	500	1	CPLW	500	1	blank2r.bmp	880	1	anregung	880	1	FEHLER	1644	1	!	1292	1	!	1352	0	0	0
2024-06-04	09:17:21	09:22:17	295158	6.6.1	4_exp_EVA_AWA_CON	65	A	B	Rpleas_acq	Same	Rpleas	1pleas	acq_US_unple_nomask	acq3_nomask	3	8	453	1	300	300	0	0	474	46	1	0	anregung	genießen	träumen	kuss	engagiert	gütig	ausrottung	gemein	töten	krise	engstirnig	gierig	besonnen	vergnügt	kreativ	gesittet	vertrauen	sonnig	bange	verbissen	krank	geizig	versagen	sterben	1	blank2r.bmp	0	1	+	0	1	blank2r.bmp	500	1	DHJF	500	1	blank2r.bmp	880	2	gemein	880	1	!	1293	1	!	1376	0	0	0	0	0	0
2024-06-04	09:17:21	09:22:19	297624	6.6.1	4_exp_EVA_AWA_CON	65	A	B	Rpleas_acq	Same	Rpleas	1pleas	acq_US_pleas_nomask	acq3_nomask	3	9	453	1	300	300	0	0	487	46	0	0	anregung	genießen	träumen	kuss	engagiert	gütig	ausrottung	gemein	töten	krise	engstirnig	gierig	besonnen	vergnügt	kreativ	gesittet	vertrauen	sonnig	bange	verbissen	krank	geizig	versagen	sterben	1	blank2r.bmp	0	1	+	0	1	blank2r.bmp	500	1	CPLW	500	1	blank2r.bmp	880	6	gütig	880	1	FEHLER	1680	1	!	1293	1	!	1388	0	0	0
2024-06-04	09:17:21	09:22:21	299885	6.6.1	4_exp_EVA_AWA_CON	65	A	B	Rpleas_acq	Same	Rpleas	1pleas	acq_US_unple_nomask	acq3_nomask	3	10	453	0	300	300	0	0	689	46	1	0	anregung	genießen	träumen	kuss	engagiert	gütig	ausrottung	gemein	töten	krise	engstirnig	gierig	besonnen	vergnügt	kreativ	gesittet	vertrauen	sonnig	bange	verbissen	krank	geizig	versagen	sterben	1	blank2r.bmp	0	1	+	0	1	blank2r.bmp	500	1	DHJF	500	1	blank2r.bmp	880	5	engstirnig	880	1	!	1292	1	!	-1	0	0	0	0	0	0
2024-06-04	09:17:21	09:22:23	302053	6.6.1	4_exp_EVA_AWA_CON	65	A	B	Rpleas_acq	Same	Rpleas	1pleas	acq_US_pleas_nomask	acq3_nomask	3	11	453	0	300	300	0	0	386	50	1	0	anregung	genießen	träumen	kuss	engagiert	gütig	ausrottung	gemein	töten	krise	engstirnig	gierig	besonnen	vergnügt	kreativ	gesittet	vertrauen	sonnig	bange	verbissen	krank	geizig	versagen	sterben	1	blank2r.bmp	0	1	+	0	1	blank2r.bmp	500	1	CPLW	500	1	blank2r.bmp	880	4	kuss	880	1	!	-1	1	!	-1	0	0	0	0	0	0
2024-06-04	09:17:21	09:22:26	304271	6.6.1	4_exp_EVA_AWA_CON	65	A	B	Rpleas_acq	Same	Rpleas	1pleas	acq_US_unple_nomask	acq3_nomask	3	12	453	1	300	300	0	0	440	46	1	0	anregung	genießen	träumen	kuss	engagiert	gütig	ausrottung	gemein	töten	krise	engstirnig	gierig	besonnen	vergnügt	kreativ	gesittet	vertrauen	sonnig	bange	verbissen	krank	geizig	versagen	sterben	1	blank2r.bmp	0	1	+	0	1	blank2r.bmp	500	1	DHJF	500	1	blank2r.bmp	880	3	töten	880	1	!	1293	1	!	1343	0	0	0	0	0	0
2024-06-04	09:17:21	09:22:28	306453	6.6.1	4_exp_EVA_AWA_CON	65	A	B	Rpleas_acq	Same	Rpleas	1pleas	acq_US_unple_nomask	acq3_nomask	3	13	453	1	300	300	0	0	403	46	1	0	anregung	genießen	träumen	kuss	engagiert	gütig	ausrottung	gemein	töten	krise	engstirnig	gierig	besonnen	vergnügt	kreativ	gesittet	vertrauen	sonnig	bange	verbissen	krank	geizig	versagen	sterben	1	blank2r.bmp	0	1	+	0	1	blank2r.bmp	500	1	DHJF	500	1	blank2r.bmp	880	4	krise	880	1	!	1293	1	!	1303	0	0	0	0	0	0
2024-06-04	09:17:21	09:22:30	308597	6.6.1	4_exp_EVA_AWA_CON	65	A	B	Rpleas_acq	Same	Rpleas	1pleas	acq_US_pleas_nomask	acq3_nomask	3	14	453	0	300	300	0	0	365	50	1	0	anregung	genießen	träumen	kuss	engagiert	gütig	ausrottung	gemein	töten	krise	engstirnig	gierig	besonnen	vergnügt	kreativ	gesittet	vertrauen	sonnig	bange	verbissen	krank	geizig	versagen	sterben	1	blank2r.bmp	0	1	+	0	1	blank2r.bmp	500	1	CPLW	500	1	blank2r.bmp	880	3	träumen	880	1	!	-1	1	!	-1	0	0	0	0	0	0
2024-06-04	09:17:21	09:22:32	310886	6.6.1	4_exp_EVA_AWA_CON	65	A	B	Rpleas_acq	Same	Rpleas	1pleas	acq_US_pleas_nomask	acq3_nomask	3	15	453	1	300	300	0	0	512	50	1	0	anregung	genießen	träumen	kuss	engagiert	gütig	ausrottung	gemein	töten	krise	engstirnig	gierig	besonnen	vergnügt	kreativ	gesittet	vertrauen	sonnig	bange	verbissen	krank	geizig	versagen	sterben	1	blank2r.bmp	0	1	+	0	1	blank2r.bmp	500	1	CPLW	500	1	blank2r.bmp	880	6	gütig	880	1	!	1292	1	!	1413	0	0	0	0	0	0
2024-06-04	09:17:21	09:22:35	313407	6.6.1	4_exp_EVA_AWA_CON	65	A	B	Rpleas_acq	Same	Rpleas	1pleas	acq_US_unple_nomask	acq3_nomask	3	16	453	0	300	300	0	0	541	50	0	0	anregung	genießen	träumen	kuss	engagiert	gütig	ausrottung	gemein	töten	krise	engstirnig	gierig	besonnen	vergnügt	kreativ	gesittet	vertrauen	sonnig	bange	verbissen	krank	geizig	versagen	sterben	1	blank2r.bmp	0	1	+	0	1	blank2r.bmp	500	1	DHJF	500	1	blank2r.bmp	880	1	ausrottung	880	1	FEHLER	1734	1	!	1292	1	!	-1	0	0	0
2024-06-04	09:17:21	09:22:37	315381	6.6.1	4_exp_EVA_AWA_CON	65	A	B	Rpleas_acq	Same	Rpleas	1pleas	acq_US_unple_nomask	acq3_nomask	3	17	453	1	300	300	0	0	395	46	1	0	anregung	genießen	träumen	kuss	engagiert	gütig	ausrottung	gemein	töten	krise	engstirnig	gierig	besonnen	vergnügt	kreativ	gesittet	vertrauen	sonnig	bange	verbissen	krank	geizig	versagen	sterben	1	blank2r.bmp	0	1	+	0	1	blank2r.bmp	500	1	DHJF	500	1	blank2r.bmp	880	2	gemein	880	1	!	1292	1	!	1295	0	0	0	0	0	0
2024-06-04	09:17:21	09:22:39	317708	6.6.1	4_exp_EVA_AWA_CON	65	A	B	Rpleas_acq	Same	Rpleas	1pleas	acq_US_unple_nomask	acq3_nomask	3	18	453	0	300	300	0	0	552	46	1	0	anregung	genießen	träumen	kuss	engagiert	gütig	ausrottung	gemein	töten	krise	engstirnig	gierig	besonnen	vergnügt	kreativ	gesittet	vertrauen	sonnig	bange	verbissen	krank	geizig	versagen	sterben	1	blank2r.bmp	0	1	+	0	1	blank2r.bmp	500	1	DHJF	500	1	blank2r.bmp	880	5	engstirnig	880	1	!	1292	1	!	-1	0	0	0	0	0	0
2024-06-04	09:17:21	09:22:41	320085	6.6.1	4_exp_EVA_AWA_CON	65	A	B	Rpleas_acq	Same	Rpleas	1pleas	acq_US_pleas_nomask	acq3_nomask	3	19	453	0	300	300	0	0	596	50	1	0	anregung	genießen	träumen	kuss	engagiert	gütig	ausrottung	gemein	töten	krise	engstirnig	gierig	besonnen	vergnügt	kreativ	gesittet	vertrauen	sonnig	bange	verbissen	krank	geizig	versagen	sterben	1	blank2r.bmp	0	1	+	0	1	blank2r.bmp	500	1	CPLW	500	1	blank2r.bmp	880	4	kuss	880	1	!	1293	1	!	-1	0	0	0	0	0	0
2024-06-04	09:17:21	09:22:44	322431	6.6.1	4_exp_EVA_AWA_CON	65	A	B	Rpleas_acq	Same	Rpleas	1pleas	acq_US_pleas_nomask	acq3_nomask	3	20	453	0	300	300	0	0	369	46	0	0	anregung	genießen	träumen	kuss	engagiert	gütig	ausrottung	gemein	töten	krise	engstirnig	gierig	besonnen	vergnügt	kreativ	gesittet	vertrauen	sonnig	bange	verbissen	krank	geizig	versagen	sterben	1	blank2r.bmp	0	1	+	0	1	blank2r.bmp	500	1	CPLW	500	1	blank2r.bmp	880	5	engagiert	880	1	FEHLER	1562	1	!	-1	1	!	-1	0	0	0
2024-06-04	09:17:21	09:22:46	324804	6.6.1	4_exp_EVA_AWA_CON	65	A	B	Rpleas_acq	Same	Rpleas	1pleas	acq_US_pleas_nomask	acq3_nomask	3	21	453	0	300	300	0	0	793	50	1	0	anregung	genießen	träumen	kuss	engagiert	gütig	ausrottung	gemein	töten	krise	engstirnig	gierig	besonnen	vergnügt	kreativ	gesittet	vertrauen	sonnig	bange	verbissen	krank	geizig	versagen	sterben	1	blank2r.bmp	0	1	+	0	1	blank2r.bmp	500	1	CPLW	500	1	blank2r.bmp	880	1	anregung	880	1	!	1292	1	!	-1	0	0	0	0	0	0
2024-06-04	09:17:21	09:22:49	327140	6.6.1	4_exp_EVA_AWA_CON	65	A	B	Rpleas_acq	Same	Rpleas	1pleas	acq_US_unple_nomask	acq3_nomask	3	22	453	0	300	300	0	0	558	46	1	0	anregung	genießen	träumen	kuss	engagiert	gütig	ausrottung	gemein	töten	krise	engstirnig	gierig	besonnen	vergnügt	kreativ	gesittet	vertrauen	sonnig	bange	verbissen	krank	geizig	versagen	sterben	1	blank2r.bmp	0	1	+	0	1	blank2r.bmp	500	1	DHJF	500	1	blank2r.bmp	880	6	gierig	880	1	!	1292	1	!	-1	0	0	0	0	0	0
2024-06-04	09:17:21	09:22:51	329422	6.6.1	4_exp_EVA_AWA_CON	65	A	B	Rpleas_acq	Same	Rpleas	1pleas	acq_US_pleas_nomask	acq3_nomask	3	23	453	1	300	300	0	0	506	50	1	0	anregung	genießen	träumen	kuss	engagiert	gütig	ausrottung	gemein	töten	krise	engstirnig	gierig	besonnen	vergnügt	kreativ	gesittet	vertrauen	sonnig	bange	verbissen	krank	geizig	versagen	sterben	1	blank2r.bmp	0	1	+	0	1	blank2r.bmp	500	1	CPLW	500	1	blank2r.bmp	880	2	genießen	880	1	!	1292	1	!	1408	0	0	0	0	0	0
2024-06-04	09:17:21	09:22:53	331670	6.6.1	4_exp_EVA_AWA_CON	65	A	B	Rpleas_acq	Same	Rpleas	1pleas	acq_US_unple_nomask	acq3_nomask	3	24	453	1	300	300	0	0	473	46	1	0	anregung	genießen	träumen	kuss	engagiert	gütig	ausrottung	gemein	töten	krise	engstirnig	gierig	besonnen	vergnügt	kreativ	gesittet	vertrauen	sonnig	bange	verbissen	krank	geizig	versagen	sterben	1	blank2r.bmp	0	1	+	0	1	blank2r.bmp	500	1	DHJF	500	1	blank2r.bmp	880	3	töten	880	1	!	1293	1	!	1374	0	0	0	0	0	0
2024-06-04	09:17:21	09:22:55	334112	6.6.1	4_exp_EVA_AWA_CON	65	A	B	Rpleas_acq	Same	Rpleas	1pleas	acq_US_unple_nomask	acq3_nomask	3	25	453	1	300	300	0	0	461	50	0	0	anregung	genießen	träumen	kuss	engagiert	gütig	ausrottung	gemein	töten	krise	engstirnig	gierig	besonnen	vergnügt	kreativ	gesittet	vertrauen	sonnig	bange	verbissen	krank	geizig	versagen	sterben	1	blank2r.bmp	0	1	+	0	1	blank2r.bmp	500	1	DHJF	500	1	blank2r.bmp	880	6	gierig	880	1	FEHLER	1655	1	!	1292	1	!	1363	0	0	0
2024-06-04	09:17:21	09:22:58	336397	6.6.1	4_exp_EVA_AWA_CON	65	A	B	Rpleas_acq	Same	Rpleas	1pleas	acq_US_unple_nomask	acq3_nomask	3	26	453	0	300	300	0	0	708	46	1	0	anregung	genießen	träumen	kuss	engagiert	gütig	ausrottung	gemein	töten	krise	engstirnig	gierig	besonnen	vergnügt	kreativ	gesittet	vertrauen	sonnig	bange	verbissen	krank	geizig	versagen	sterben	1	blank2r.bmp	0	1	+	0	1	blank2r.bmp	500	1	DHJF	500	1	blank2r.bmp	880	4	krise	880	1	!	1292	1	!	-1	0	0	0	0	0	0
2024-06-04	09:17:21	09:23:00	338728	6.6.1	4_exp_EVA_AWA_CON	65	A	B	Rpleas_acq	Same	Rpleas	1pleas	acq_US_unple_nomask	acq3_nomask	3	27	453	0	300	300	0	0	354	50	0	0	anregung	genießen	träumen	kuss	engagiert	gütig	ausrottung	gemein	töten	krise	engstirnig	gierig	besonnen	vergnügt	kreativ	gesittet	vertrauen	sonnig	bange	verbissen	krank	geizig	versagen	sterben	1	blank2r.bmp	0	1	+	0	1	blank2r.bmp	500	1	DHJF	500	1	blank2r.bmp	880	1	ausrottung	880	1	FEHLER	1548	1	!	-1	1	!	-1	0	0	0
2024-06-04	09:17:21	09:23:02	340743	6.6.1	4_exp_EVA_AWA_CON	65	A	B	Rpleas_acq	Same	Rpleas	1pleas	acq_US_pleas_nomask	acq3_nomask	3	28	453	1	300	300	0	0	439	50	1	0	anregung	genießen	träumen	kuss	engagiert	gütig	ausrottung	gemein	töten	krise	engstirnig	gierig	besonnen	vergnügt	kreativ	gesittet	vertrauen	sonnig	bange	verbissen	krank	geizig	versagen	sterben	1	blank2r.bmp	0	1	+	0	1	blank2r.bmp	500	1	CPLW	500	1	blank2r.bmp	880	5	engagiert	880	1	!	1292	1	!	1340	0	0	0	0	0	0
2024-06-04	09:17:21	09:23:04	342917	6.6.1	4_exp_EVA_AWA_CON	65	A	B	Rpleas_acq	Same	Rpleas	1pleas	acq_US_unple_nomask	acq3_nomask	3	29	453	1	300	300	0	0	393	46	1	0	anregung	genießen	träumen	kuss	engagiert	gütig	ausrottung	gemein	töten	krise	engstirnig	gierig	besonnen	vergnügt	kreativ	gesittet	vertrauen	sonnig	bange	verbissen	krank	geizig	versagen	sterben	1	blank2r.bmp	0	1	+	0	1	blank2r.bmp	500	1	DHJF	500	1	blank2r.bmp	880	3	töten	880	1	!	1292	1	!	1293	0	0	0	0	0	0
2024-06-04	09:17:21	09:23:07	345182	6.6.1	4_exp_EVA_AWA_CON	65	A	B	Rpleas_acq	Same	Rpleas	1pleas	acq_US_unple_nomask	acq3_nomask	3	30	453	1	300	300	0	0	486	46	1	0	anregung	genießen	träumen	kuss	engagiert	gütig	ausrottung	gemein	töten	krise	engstirnig	gierig	besonnen	vergnügt	kreativ	gesittet	vertrauen	sonnig	bange	verbissen	krank	geizig	versagen	sterben	1	blank2r.bmp	0	1	+	0	1	blank2r.bmp	500	1	DHJF	500	1	blank2r.bmp	880	2	gemein	880	1	!	1292	1	!	1388	0	0	0	0	0	0
2024-06-04	09:17:21	09:23:09	347483	6.6.1	4_exp_EVA_AWA_CON	65	A	B	Rpleas_acq	Same	Rpleas	1pleas	acq_US_unple_nomask	acq3_nomask	3	31	453	0	300	300	0	0	529	46	1	0	anregung	genießen	träumen	kuss	engagiert	gütig	ausrottung	gemein	töten	krise	engstirnig	gierig	besonnen	vergnügt	kreativ	gesittet	vertrauen	sonnig	bange	verbissen	krank	geizig	versagen	sterben	1	blank2r.bmp	0	1	+	0	1	blank2r.bmp	500	1	DHJF	500	1	blank2r.bmp	880	5	engstirnig	880	1	!	1292	1	!	-1	0	0	0	0	0	0
2024-06-04	09:17:21	09:23:11	349888	6.6.1	4_exp_EVA_AWA_CON	65	A	B	Rpleas_acq	Same	Rpleas	1pleas	acq_US_pleas_nomask	acq3_nomask	3	32	453	1	300	300	0	0	427	46	0	0	anregung	genießen	träumen	kuss	engagiert	gütig	ausrottung	gemein	töten	krise	engstirnig	gierig	besonnen	vergnügt	kreativ	gesittet	vertrauen	sonnig	bange	verbissen	krank	geizig	versagen	sterben	1	blank2r.bmp	0	1	+	0	1	blank2r.bmp	500	1	CPLW	500	1	blank2r.bmp	880	6	gütig	880	1	FEHLER	1621	1	!	1293	1	!	1329	0	0	0
2024-06-04	09:17:21	09:23:13	352021	6.6.1	4_exp_EVA_AWA_CON	65	A	B	Rpleas_acq	Same	Rpleas	1pleas	acq_US_pleas_nomask	acq3_nomask	3	33	453	0	300	300	0	0	562	50	1	0	anregung	genießen	träumen	kuss	engagiert	gütig	ausrottung	gemein	töten	krise	engstirnig	gierig	besonnen	vergnügt	kreativ	gesittet	vertrauen	sonnig	bange	verbissen	krank	geizig	versagen	sterben	1	blank2r.bmp	0	1	+	0	1	blank2r.bmp	500	1	CPLW	500	1	blank2r.bmp	880	3	träumen	880	1	!	1293	1	!	-1	0	0	0	0	0	0
2024-06-04	09:17:21	09:23:16	354223	6.6.1	4_exp_EVA_AWA_CON	65	A	B	Rpleas_acq	Same	Rpleas	1pleas	acq_US_pleas_nomask	acq3_nomask	3	34	453	1	300	300	0	0	420	50	1	0	anregung	genießen	träumen	kuss	engagiert	gütig	ausrottung	gemein	töten	krise	engstirnig	gierig	besonnen	vergnügt	kreativ	gesittet	vertrauen	sonnig	bange	verbissen	krank	geizig	versagen	sterben	1	blank2r.bmp	0	1	+	0	1	blank2r.bmp	500	1	CPLW	500	1	blank2r.bmp	880	4	kuss	880	1	!	1292	1	!	1322	0	0	0	0	0	0
2024-06-04	09:17:21	09:23:18	356647	6.6.1	4_exp_EVA_AWA_CON	65	A	B	Rpleas_acq	Same	Rpleas	1pleas	acq_US_pleas_nomask	acq3_nomask	3	35	453	1	300	300	0	0	443	46	0	0	anregung	genießen	träumen	kuss	engagiert	gütig	ausrottung	gemein	töten	krise	engstirnig	gierig	besonnen	vergnügt	kreativ	gesittet	vertrauen	sonnig	bange	verbissen	krank	geizig	versagen	sterben	1	blank2r.bmp	0	1	+	0	1	blank2r.bmp	500	1	CPLW	500	1	blank2r.bmp	880	1	anregung	880	1	FEHLER	1636	1	!	1292	1	!	1344	0	0	0
2024-06-04	09:17:21	09:23:20	358908	6.6.1	4_exp_EVA_AWA_CON	65	A	B	Rpleas_acq	Same	Rpleas	1pleas	acq_US_pleas_nomask	acq3_nomask	3	36	453	0	300	300	0	0	685	50	1	0	anregung	genießen	träumen	kuss	engagiert	gütig	ausrottung	gemein	töten	krise	engstirnig	gierig	besonnen	vergnügt	kreativ	gesittet	vertrauen	sonnig	bange	verbissen	krank	geizig	versagen	sterben	1	blank2r.bmp	0	1	+	0	1	blank2r.bmp	500	1	CPLW	500	1	blank2r.bmp	880	2	genießen	880	1	!	1292	1	!	-1	0	0	0	0	0	0
2024-06-04	09:17:21	09:23:35	374067	6.6.1	4_exp_EVA_AWA_CON	65	A	B	Rpleas_acq	Same	Rpleas	1pleas	acq_US_pleas_nomask	acq45_nomask	4	1	400	0	300	300	0	0	475	50	1	0	anregung	genießen	träumen	kuss	engagiert	gütig	ausrottung	gemein	töten	krise	engstirnig	gierig	besonnen	vergnügt	kreativ	gesittet	vertrauen	sonnig	bange	verbissen	krank	geizig	versagen	sterben	1	blank2r.bmp	0	1	+	0	1	blank2r.bmp	500	1	CPLW	500	1	blank2r.bmp	880	4	kuss	880	1	!	1233	1	!	-1	0	0	0	0	0	0
2024-06-04	09:17:21	09:23:38	376141	6.6.1	4_exp_EVA_AWA_CON	65	A	B	Rpleas_acq	Same	Rpleas	1pleas	acq_US_unple_nomask	acq45_nomask	4	2	400	0	300	300	0	0	296	46	1	0	anregung	genießen	träumen	kuss	engagiert	gütig	ausrottung	gemein	töten	krise	engstirnig	gierig	besonnen	vergnügt	kreativ	gesittet	vertrauen	sonnig	bange	verbissen	krank	geizig	versagen	sterben	1	blank2r.bmp	0	1	+	0	1	blank2r.bmp	500	1	DHJF	500	1	blank2r.bmp	880	1	ausrottung	880	1	!	-1	1	!	-1	0	0	0	0	0	0
2024-06-04	09:17:21	09:23:40	378350	6.6.1	4_exp_EVA_AWA_CON	65	A	B	Rpleas_acq	Same	Rpleas	1pleas	acq_US_unple_nomask	acq45_nomask	4	3	400	1	300	300	0	0	433	50	0	0	anregung	genießen	träumen	kuss	engagiert	gütig	ausrottung	gemein	töten	krise	engstirnig	gierig	besonnen	vergnügt	kreativ	gesittet	vertrauen	sonnig	bange	verbissen	krank	geizig	versagen	sterben	1	blank2r.bmp	0	1	+	0	1	blank2r.bmp	500	1	DHJF	500	1	blank2r.bmp	880	5	engstirnig	880	1	!	1232	1	!	1334	0	0	0	0	0	0
2024-06-04	09:17:21	09:23:42	380603	6.6.1	4_exp_EVA_AWA_CON	65	A	B	Rpleas_acq	Same	Rpleas	1pleas	acq_US_pleas_nomask	acq45_nomask	4	4	400	0	300	300	0	0	477	50	1	0	anregung	genießen	träumen	kuss	engagiert	gütig	ausrottung	gemein	töten	krise	engstirnig	gierig	besonnen	vergnügt	kreativ	gesittet	vertrauen	sonnig	bange	verbissen	krank	geizig	versagen	sterben	1	blank2r.bmp	0	1	+	0	1	blank2r.bmp	500	1	CPLW	500	1	blank2r.bmp	880	1	anregung	880	1	!	1232	1	!	-1	0	0	0	0	0	0
2024-06-04	09:17:21	09:23:44	382734	6.6.1	4_exp_EVA_AWA_CON	65	A	B	Rpleas_acq	Same	Rpleas	1pleas	acq_US_pleas_nomask	acq45_nomask	4	5	400	1	300	300	0	0	354	46	0	0	anregung	genießen	träumen	kuss	engagiert	gütig	ausrottung	gemein	töten	krise	engstirnig	gierig	besonnen	vergnügt	kreativ	gesittet	vertrauen	sonnig	bange	verbissen	krank	geizig	versagen	sterben	1	blank2r.bmp	0	1	+	0	1	blank2r.bmp	500	1	CPLW	500	1	blank2r.bmp	880	2	genießen	880	1	!	1232	1	!	1255	0	0	0	0	0	0
2024-06-04	09:17:21	09:23:46	384951	6.6.1	4_exp_EVA_AWA_CON	65	A	B	Rpleas_acq	Same	Rpleas	1pleas	acq_US_pleas_nomask	acq45_nomask	4	6	400	1	300	300	0	0	438	50	1	0	anregung	genießen	träumen	kuss	engagiert	gütig	ausrottung	gemein	töten	krise	engstirnig	gierig	besonnen	vergnügt	kreativ	gesittet	vertrauen	sonnig	bange	verbissen	krank	geizig	versagen	sterben	1	blank2r.bmp	0	1	+	0	1	blank2r.bmp	500	1	CPLW	500	1	blank2r.bmp	880	3	träumen	880	1	!	1232	1	!	1340	0	0	0	0	0	0
2024-06-04	09:17:21	09:23:49	387198	6.6.1	4_exp_EVA_AWA_CON	65	A	B	Rpleas_acq	Same	Rpleas	1pleas	acq_US_unple_nomask	acq45_nomask	4	7	400	1	300	300	0	0	465	46	1	0	anregung	genießen	träumen	kuss	engagiert	gütig	ausrottung	gemein	töten	krise	engstirnig	gierig	besonnen	vergnügt	kreativ	gesittet	vertrauen	sonnig	bange	verbissen	krank	geizig	versagen	sterben	1	blank2r.bmp	0	1	+	0	1	blank2r.bmp	500	1	DHJF	500	1	blank2r.bmp	880	6	gierig	880	1	!	1232	1	!	1366	0	0	0	0	0	0
2024-06-04	09:17:21	09:23:51	389541	6.6.1	4_exp_EVA_AWA_CON	65	A	B	Rpleas_acq	Same	Rpleas	1pleas	acq_US_unple_nomask	acq45_nomask	4	8	400	0	300	300	0	0	568	46	1	0	anregung	genießen	träumen	kuss	engagiert	gütig	ausrottung	gemein	töten	krise	engstirnig	gierig	besonnen	vergnügt	kreativ	gesittet	vertrauen	sonnig	bange	verbissen	krank	geizig	versagen	sterben	1	blank2r.bmp	0	1	+	0	1	blank2r.bmp	500	1	DHJF	500	1	blank2r.bmp	880	4	krise	880	1	!	1232	1	!	-1	0	0	0	0	0	0
2024-06-04	09:17:21	09:23:53	391678	6.6.1	4_exp_EVA_AWA_CON	65	A	B	Rpleas_acq	Same	Rpleas	1pleas	acq_US_pleas_nomask	acq45_nomask	4	9	400	1	300	300	0	0	362	50	1	0	anregung	genießen	träumen	kuss	engagiert	gütig	ausrottung	gemein	töten	krise	engstirnig	gierig	besonnen	vergnügt	kreativ	gesittet	vertrauen	sonnig	bange	verbissen	krank	geizig	versagen	sterben	1	blank2r.bmp	0	1	+	0	1	blank2r.bmp	500	1	CPLW	500	1	blank2r.bmp	880	5	engagiert	880	1	!	1232	1	!	1264	0	0	0	0	0	0
2024-06-04	09:17:21	09:23:55	393879	6.6.1	4_exp_EVA_AWA_CON	65	A	B	Rpleas_acq	Same	Rpleas	1pleas	acq_US_unple_nomask	acq45_nomask	4	10	400	1	300	300	0	0	421	50	0	0	anregung	genießen	träumen	kuss	engagiert	gütig	ausrottung	gemein	töten	krise	engstirnig	gierig	besonnen	vergnügt	kreativ	gesittet	vertrauen	sonnig	bange	verbissen	krank	geizig	versagen	sterben	1	blank2r.bmp	0	1	+	0	1	blank2r.bmp	500	1	DHJF	500	1	blank2r.bmp	880	3	töten	880	1	!	1232	1	!	1323	0	0	0	0	0	0
2024-06-04	09:17:21	09:23:58	396126	6.6.1	4_exp_EVA_AWA_CON	65	A	B	Rpleas_acq	Same	Rpleas	1pleas	acq_US_unple_nomask	acq45_nomask	4	11	400	1	300	300	0	0	467	50	0	0	anregung	genießen	träumen	kuss	engagiert	gütig	ausrottung	gemein	töten	krise	engstirnig	gierig	besonnen	vergnügt	kreativ	gesittet	vertrauen	sonnig	bange	verbissen	krank	geizig	versagen	sterben	1	blank2r.bmp	0	1	+	0	1	blank2r.bmp	500	1	DHJF	500	1	blank2r.bmp	880	2	gemein	880	1	!	1232	1	!	1369	0	0	0	0	0	0
2024-06-04	09:17:21	09:24:00	398319	6.6.1	4_exp_EVA_AWA_CON	65	A	B	Rpleas_acq	Same	Rpleas	1pleas	acq_US_pleas_nomask	acq45_nomask	4	12	400	1	300	300	0	0	418	50	1	0	anregung	genießen	träumen	kuss	engagiert	gütig	ausrottung	gemein	töten	krise	engstirnig	gierig	besonnen	vergnügt	kreativ	gesittet	vertrauen	sonnig	bange	verbissen	krank	geizig	versagen	sterben	1	blank2r.bmp	0	1	+	0	1	blank2r.bmp	500	1	CPLW	500	1	blank2r.bmp	880	6	gütig	880	1	!	1233	1	!	1319	0	0	0	0	0	0
2024-06-04	09:17:21	09:24:02	400566	6.6.1	4_exp_EVA_AWA_CON	65	A	B	Rpleas_acq	Same	Rpleas	1pleas	acq_US_unple_nomask	acq45_nomask	4	13	400	1	300	300	0	0	464	46	1	0	anregung	genießen	träumen	kuss	engagiert	gütig	ausrottung	gemein	töten	krise	engstirnig	gierig	besonnen	vergnügt	kreativ	gesittet	vertrauen	sonnig	bange	verbissen	krank	geizig	versagen	sterben	1	blank2r.bmp	0	1	+	0	1	blank2r.bmp	500	1	DHJF	500	1	blank2r.bmp	880	6	gierig	880	1	!	1232	1	!	1366	0	0	0	0	0	0
2024-06-04	09:17:21	09:24:04	402718	6.6.1	4_exp_EVA_AWA_CON	65	A	B	Rpleas_acq	Same	Rpleas	1pleas	acq_US_unple_nomask	acq45_nomask	4	14	400	1	300	300	0	0	375	50	0	0	anregung	genießen	träumen	kuss	engagiert	gütig	ausrottung	gemein	töten	krise	engstirnig	gierig	besonnen	vergnügt	kreativ	gesittet	vertrauen	sonnig	bange	verbissen	krank	geizig	versagen	sterben	1	blank2r.bmp	0	1	+	0	1	blank2r.bmp	500	1	DHJF	500	1	blank2r.bmp	880	4	krise	880	1	!	1232	1	!	1277	0	0	0	0	0	0
2024-06-04	09:17:21	09:24:06	404870	6.6.1	4_exp_EVA_AWA_CON	65	A	B	Rpleas_acq	Same	Rpleas	1pleas	acq_US_pleas_nomask	acq45_nomask	4	15	400	1	300	300	0	0	375	50	1	0	anregung	genießen	träumen	kuss	engagiert	gütig	ausrottung	gemein	töten	krise	engstirnig	gierig	besonnen	vergnügt	kreativ	gesittet	vertrauen	sonnig	bange	verbissen	krank	geizig	versagen	sterben	1	blank2r.bmp	0	1	+	0	1	blank2r.bmp	500	1	CPLW	500	1	blank2r.bmp	880	3	träumen	880	1	!	1232	1	!	1277	0	0	0	0	0	0
2024-06-04	09:17:21	09:24:08	407062	6.6.1	4_exp_EVA_AWA_CON	65	A	B	Rpleas_acq	Same	Rpleas	1pleas	acq_US_pleas_nomask	acq45_nomask	4	16	400	1	300	300	0	0	416	46	0	0	anregung	genießen	träumen	kuss	engagiert	gütig	ausrottung	gemein	töten	krise	engstirnig	gierig	besonnen	vergnügt	kreativ	gesittet	vertrauen	sonnig	bange	verbissen	krank	geizig	versagen	sterben	1	blank2r.bmp	0	1	+	0	1	blank2r.bmp	500	1	CPLW	500	1	blank2r.bmp	880	2	genießen	880	1	!	1232	1	!	1318	0	0	0	0	0	0
2024-06-04	09:17:21	09:24:11	409397	6.6.1	4_exp_EVA_AWA_CON	65	A	B	Rpleas_acq	Same	Rpleas	1pleas	acq_US_pleas_nomask	acq45_nomask	4	17	400	0	300	300	0	0	561	50	1	0	anregung	genießen	träumen	kuss	engagiert	gütig	ausrottung	gemein	töten	krise	engstirnig	gierig	besonnen	vergnügt	kreativ	gesittet	vertrauen	sonnig	bange	verbissen	krank	geizig	versagen	sterben	1	blank2r.bmp	0	1	+	0	1	blank2r.bmp	500	1	CPLW	500	1	blank2r.bmp	880	1	anregung	880	1	!	1233	1	!	-1	0	0	0	0	0	0
2024-06-04	09:17:21	09:24:13	411461	6.6.1	4_exp_EVA_AWA_CON	65	A	B	Rpleas_acq	Same	Rpleas	1pleas	acq_US_unple_nomask	acq45_nomask	4	18	400	0	300	300	0	0	283	46	1	0	anregung	genießen	träumen	kuss	engagiert	gütig	ausrottung	gemein	töten	krise	engstirnig	gierig	besonnen	vergnügt	kreativ	gesittet	vertrauen	sonnig	bange	verbissen	krank	geizig	versagen	sterben	1	blank2r.bmp	0	1	+	0	1	blank2r.bmp	500	1	DHJF	500	1	blank2r.bmp	880	2	gemein	880	1	!	-1	1	!	-1	0	0	0	0	0	0
2024-06-04	09:17:21	09:24:15	413573	6.6.1	4_exp_EVA_AWA_CON	65	A	B	Rpleas_acq	Same	Rpleas	1pleas	acq_US_pleas_nomask	acq45_nomask	4	19	400	1	300	300	0	0	334	50	1	0	anregung	genießen	träumen	kuss	engagiert	gütig	ausrottung	gemein	töten	krise	engstirnig	gierig	besonnen	vergnügt	kreativ	gesittet	vertrauen	sonnig	bange	verbissen	krank	geizig	versagen	sterben	1	blank2r.bmp	0	1	+	0	1	blank2r.bmp	500	1	CPLW	500	1	blank2r.bmp	880	6	gütig	880	1	!	1232	1	!	1234	0	0	0	0	0	0
2024-06-04	09:17:21	09:24:17	415711	6.6.1	4_exp_EVA_AWA_CON	65	A	B	Rpleas_acq	Same	Rpleas	1pleas	acq_US_pleas_nomask	acq45_nomask	4	20	400	1	300	300	0	0	359	46	0	0	anregung	genießen	träumen	kuss	engagiert	gütig	ausrottung	gemein	töten	krise	engstirnig	gierig	besonnen	vergnügt	kreativ	gesittet	vertrauen	sonnig	bange	verbissen	krank	geizig	versagen	sterben	1	blank2r.bmp	0	1	+	0	1	blank2r.bmp	500	1	CPLW	500	1	blank2r.bmp	880	4	kuss	880	1	!	1232	1	!	1260	0	0	0	0	0	0
2024-06-04	09:17:21	09:24:19	417926	6.6.1	4_exp_EVA_AWA_CON	65	A	B	Rpleas_acq	Same	Rpleas	1pleas	acq_US_unple_nomask	acq45_nomask	4	21	400	1	300	300	0	0	433	46	1	0	anregung	genießen	träumen	kuss	engagiert	gütig	ausrottung	gemein	töten	krise	engstirnig	gierig	besonnen	vergnügt	kreativ	gesittet	vertrauen	sonnig	bange	verbissen	krank	geizig	versagen	sterben	1	blank2r.bmp	0	1	+	0	1	blank2r.bmp	500	1	DHJF	500	1	blank2r.bmp	880	5	engstirnig	880	1	!	1232	1	!	1335	0	0	0	0	0	0
2024-06-04	09:17:21	09:24:21	420063	6.6.1	4_exp_EVA_AWA_CON	65	A	B	Rpleas_acq	Same	Rpleas	1pleas	acq_US_pleas_nomask	acq45_nomask	4	22	400	1	300	300	0	0	358	50	1	0	anregung	genießen	träumen	kuss	engagiert	gütig	ausrottung	gemein	töten	krise	engstirnig	gierig	besonnen	vergnügt	kreativ	gesittet	vertrauen	sonnig	bange	verbissen	krank	geizig	versagen	sterben	1	blank2r.bmp	0	1	+	0	1	blank2r.bmp	500	1	CPLW	500	1	blank2r.bmp	880	5	engagiert	880	1	!	1232	1	!	1259	0	0	0	0	0	0
2024-06-04	09:17:21	09:24:24	422238	6.6.1	4_exp_EVA_AWA_CON	65	A	B	Rpleas_acq	Same	Rpleas	1pleas	acq_US_unple_nomask	acq45_nomask	4	23	400	1	300	300	0	0	392	50	0	0	anregung	genießen	träumen	kuss	engagiert	gütig	ausrottung	gemein	töten	krise	engstirnig	gierig	besonnen	vergnügt	kreativ	gesittet	vertrauen	sonnig	bange	verbissen	krank	geizig	versagen	sterben	1	blank2r.bmp	0	1	+	0	1	blank2r.bmp	500	1	DHJF	500	1	blank2r.bmp	880	1	ausrottung	880	1	!	1232	1	!	1294	0	0	0	0	0	0
2024-06-04	09:17:21	09:24:26	424487	6.6.1	4_exp_EVA_AWA_CON	65	A	B	Rpleas_acq	Same	Rpleas	1pleas	acq_US_pleas_nomask	acq45_nomask	4	24	400	1	300	300	0	0	469	46	0	0	anregung	genießen	träumen	kuss	engagiert	gütig	ausrottung	gemein	töten	krise	engstirnig	gierig	besonnen	vergnügt	kreativ	gesittet	vertrauen	sonnig	bange	verbissen	krank	geizig	versagen	sterben	1	blank2r.bmp	0	1	+	0	1	blank2r.bmp	500	1	CPLW	500	1	blank2r.bmp	880	1	anregung	880	1	!	1232	1	!	1370	0	0	0	0	0	0
2024-06-04	09:17:21	09:24:28	426662	6.6.1	4_exp_EVA_AWA_CON	65	A	B	Rpleas_acq	Same	Rpleas	1pleas	acq_US_unple_nomask	acq45_nomask	4	25	400	1	300	300	0	0	394	46	1	0	anregung	genießen	träumen	kuss	engagiert	gütig	ausrottung	gemein	töten	krise	engstirnig	gierig	besonnen	vergnügt	kreativ	gesittet	vertrauen	sonnig	bange	verbissen	krank	geizig	versagen	sterben	1	blank2r.bmp	0	1	+	0	1	blank2r.bmp	500	1	DHJF	500	1	blank2r.bmp	880	3	töten	880	1	!	1232	1	!	1295	0	0	0	0	0	0
2024-06-04	09:17:21	09:24:30	428886	6.6.1	4_exp_EVA_AWA_CON	65	A	B	Rpleas_acq	Same	Rpleas	1pleas	acq_US_pleas_nomask	acq45_nomask	4	26	400	1	300	300	0	0	446	50	1	0	anregung	genießen	träumen	kuss	engagiert	gütig	ausrottung	gemein	töten	krise	engstirnig	gierig	besonnen	vergnügt	kreativ	gesittet	vertrauen	sonnig	bange	verbissen	krank	geizig	versagen	sterben	1	blank2r.bmp	0	1	+	0	1	blank2r.bmp	500	1	CPLW	500	1	blank2r.bmp	880	5	engagiert	880	1	!	1232	1	!	1348	0	0	0	0	0	0
2024-06-04	09:17:21	09:24:33	431253	6.6.1	4_exp_EVA_AWA_CON	65	A	B	Rpleas_acq	Same	Rpleas	1pleas	acq_US_unple_nomask	acq45_nomask	4	27	400	0	300	300	0	0	593	46	1	0	anregung	genießen	träumen	kuss	engagiert	gütig	ausrottung	gemein	töten	krise	engstirnig	gierig	besonnen	vergnügt	kreativ	gesittet	vertrauen	sonnig	bange	verbissen	krank	geizig	versagen	sterben	1	blank2r.bmp	0	1	+	0	1	blank2r.bmp	500	1	DHJF	500	1	blank2r.bmp	880	5	engstirnig	880	1	!	1232	1	!	-1	0	0	0	0	0	0
2024-06-04	09:17:21	09:24:35	433341	6.6.1	4_exp_EVA_AWA_CON	65	A	B	Rpleas_acq	Same	Rpleas	1pleas	acq_US_pleas_nomask	acq45_nomask	4	28	400	0	300	300	0	0	309	50	1	0	anregung	genießen	träumen	kuss	engagiert	gütig	ausrottung	gemein	töten	krise	engstirnig	gierig	besonnen	vergnügt	kreativ	gesittet	vertrauen	sonnig	bange	verbissen	krank	geizig	versagen	sterben	1	blank2r.bmp	0	1	+	0	1	blank2r.bmp	500	1	CPLW	500	1	blank2r.bmp	880	2	genießen	880	1	!	-1	1	!	-1	0	0	0	0	0	0
2024-06-04	09:17:21	09:24:37	435535	6.6.1	4_exp_EVA_AWA_CON	65	A	B	Rpleas_acq	Same	Rpleas	1pleas	acq_US_unple_nomask	acq45_nomask	4	29	400	1	300	300	0	0	410	46	1	0	anregung	genießen	träumen	kuss	engagiert	gütig	ausrottung	gemein	töten	krise	engstirnig	gierig	besonnen	vergnügt	kreativ	gesittet	vertrauen	sonnig	bange	verbissen	krank	geizig	versagen	sterben	1	blank2r.bmp	0	1	+	0	1	blank2r.bmp	500	1	DHJF	500	1	blank2r.bmp	880	2	gemein	880	1	!	1232	1	!	1312	0	0	0	0	0	0
2024-06-04	09:17:21	09:24:39	437795	6.6.1	4_exp_EVA_AWA_CON	65	A	B	Rpleas_acq	Same	Rpleas	1pleas	acq_US_unple_nomask	acq45_nomask	4	30	400	0	300	300	0	0	483	46	1	0	anregung	genießen	träumen	kuss	engagiert	gütig	ausrottung	gemein	töten	krise	engstirnig	gierig	besonnen	vergnügt	kreativ	gesittet	vertrauen	sonnig	bange	verbissen	krank	geizig	versagen	sterben	1	blank2r.bmp	0	1	+	0	1	blank2r.bmp	500	1	DHJF	500	1	blank2r.bmp	880	1	ausrottung	880	1	!	1232	1	!	-1	0	0	0	0	0	0
2024-06-04	09:17:21	09:24:41	439990	6.6.1	4_exp_EVA_AWA_CON	65	A	B	Rpleas_acq	Same	Rpleas	1pleas	acq_US_unple_nomask	acq45_nomask	4	31	400	1	300	300	0	0	413	50	0	0	anregung	genießen	träumen	kuss	engagiert	gütig	ausrottung	gemein	töten	krise	engstirnig	gierig	besonnen	vergnügt	kreativ	gesittet	vertrauen	sonnig	bange	verbissen	krank	geizig	versagen	sterben	1	blank2r.bmp	0	1	+	0	1	blank2r.bmp	500	1	DHJF	500	1	blank2r.bmp	880	3	töten	880	1	!	1232	1	!	1315	0	0	0	0	0	0
2024-06-04	09:17:21	09:24:44	442182	6.6.1	4_exp_EVA_AWA_CON	65	A	B	Rpleas_acq	Same	Rpleas	1pleas	acq_US_pleas_nomask	acq45_nomask	4	32	400	1	300	300	0	0	414	50	1	0	anregung	genießen	träumen	kuss	engagiert	gütig	ausrottung	gemein	töten	krise	engstirnig	gierig	besonnen	vergnügt	kreativ	gesittet	vertrauen	sonnig	bange	verbissen	krank	geizig	versagen	sterben	1	blank2r.bmp	0	1	+	0	1	blank2r.bmp	500	1	CPLW	500	1	blank2r.bmp	880	3	träumen	880	1	!	1232	1	!	1315	0	0	0	0	0	0
2024-06-04	09:17:21	09:24:46	444391	6.6.1	4_exp_EVA_AWA_CON	65	A	B	Rpleas_acq	Same	Rpleas	1pleas	acq_US_pleas_nomask	acq45_nomask	4	33	400	1	300	300	0	0	430	50	1	0	anregung	genießen	träumen	kuss	engagiert	gütig	ausrottung	gemein	töten	krise	engstirnig	gierig	besonnen	vergnügt	kreativ	gesittet	vertrauen	sonnig	bange	verbissen	krank	geizig	versagen	sterben	1	blank2r.bmp	0	1	+	0	1	blank2r.bmp	500	1	CPLW	500	1	blank2r.bmp	880	4	kuss	880	1	!	1232	1	!	1332	0	0	0	0	0	0
2024-06-04	09:17:21	09:24:48	446542	6.6.1	4_exp_EVA_AWA_CON	65	A	B	Rpleas_acq	Same	Rpleas	1pleas	acq_US_pleas_nomask	acq45_nomask	4	34	400	1	300	300	0	0	371	46	0	0	anregung	genießen	träumen	kuss	engagiert	gütig	ausrottung	gemein	töten	krise	engstirnig	gierig	besonnen	vergnügt	kreativ	gesittet	vertrauen	sonnig	bange	verbissen	krank	geizig	versagen	sterben	1	blank2r.bmp	0	1	+	0	1	blank2r.bmp	500	1	CPLW	500	1	blank2r.bmp	880	6	gütig	880	1	!	1232	1	!	1272	0	0	0	0	0	0
2024-06-04	09:17:21	09:24:50	448743	6.6.1	4_exp_EVA_AWA_CON	65	A	B	Rpleas_acq	Same	Rpleas	1pleas	acq_US_unple_nomask	acq45_nomask	4	35	400	1	300	300	0	0	419	46	1	0	anregung	genießen	träumen	kuss	engagiert	gütig	ausrottung	gemein	töten	krise	engstirnig	gierig	besonnen	vergnügt	kreativ	gesittet	vertrauen	sonnig	bange	verbissen	krank	geizig	versagen	sterben	1	blank2r.bmp	0	1	+	0	1	blank2r.bmp	500	1	DHJF	500	1	blank2r.bmp	880	4	krise	880	1	!	1232	1	!	1322	0	0	0	0	0	0
2024-06-04	09:17:21	09:24:52	451061	6.6.1	4_exp_EVA_AWA_CON	65	A	B	Rpleas_acq	Same	Rpleas	1pleas	acq_US_unple_nomask	acq45_nomask	4	36	400	0	300	300	0	0	538	46	1	0	anregung	genießen	träumen	kuss	engagiert	gütig	ausrottung	gemein	töten	krise	engstirnig	gierig	besonnen	vergnügt	kreativ	gesittet	vertrauen	sonnig	bange	verbissen	krank	geizig	versagen	sterben	1	blank2r.bmp	0	1	+	0	1	blank2r.bmp	500	1	DHJF	500	1	blank2r.bmp	880	6	gierig	880	1	!	1233	1	!	-1	0	0	0	0	0	0
2024-06-04	09:17:21	09:25:08	466798	6.6.1	4_exp_EVA_AWA_CON	65	A	B	Rpleas_acq	Same	Rpleas	1pleas	acq_US_unple_nomask	acq45_nomask	5	1	400	1	300	300	0	0	424	46	1	0	anregung	genießen	träumen	kuss	engagiert	gütig	ausrottung	gemein	töten	krise	engstirnig	gierig	besonnen	vergnügt	kreativ	gesittet	vertrauen	sonnig	bange	verbissen	krank	geizig	versagen	sterben	1	blank2r.bmp	0	1	+	0	1	blank2r.bmp	500	1	DHJF	500	1	blank2r.bmp	880	3	töten	880	1	!	1232	1	!	1325	0	0	0	0	0	0
2024-06-04	09:17:21	09:25:10	469015	6.6.1	4_exp_EVA_AWA_CON	65	A	B	Rpleas_acq	Same	Rpleas	1pleas	acq_US_unple_nomask	acq45_nomask	5	2	400	1	300	300	0	0	438	46	1	0	anregung	genießen	träumen	kuss	engagiert	gütig	ausrottung	gemein	töten	krise	engstirnig	gierig	besonnen	vergnügt	kreativ	gesittet	vertrauen	sonnig	bange	verbissen	krank	geizig	versagen	sterben	1	blank2r.bmp	0	1	+	0	1	blank2r.bmp	500	1	DHJF	500	1	blank2r.bmp	880	1	ausrottung	880	1	!	1232	1	!	1340	0	0	0	0	0	0
2024-06-04	09:17:21	09:25:13	471301	6.6.1	4_exp_EVA_AWA_CON	65	A	B	Rpleas_acq	Same	Rpleas	1pleas	acq_US_pleas_nomask	acq45_nomask	5	3	400	0	300	300	0	0	505	46	0	0	anregung	genießen	träumen	kuss	engagiert	gütig	ausrottung	gemein	töten	krise	engstirnig	gierig	besonnen	vergnügt	kreativ	gesittet	vertrauen	sonnig	bange	verbissen	krank	geizig	versagen	sterben	1	blank2r.bmp	0	1	+	0	1	blank2r.bmp	500	1	CPLW	500	1	blank2r.bmp	880	6	gütig	880	1	!	1232	1	!	-1	0	0	0	0	0	0
2024-06-04	09:17:21	09:25:15	473486	6.6.1	4_exp_EVA_AWA_CON	65	A	B	Rpleas_acq	Same	Rpleas	1pleas	acq_US_pleas_nomask	acq45_nomask	5	4	400	1	300	300	0	0	408	50	1	0	anregung	genießen	träumen	kuss	engagiert	gütig	ausrottung	gemein	töten	krise	engstirnig	gierig	besonnen	vergnügt	kreativ	gesittet	vertrauen	sonnig	bange	verbissen	krank	geizig	versagen	sterben	1	blank2r.bmp	0	1	+	0	1	blank2r.bmp	500	1	CPLW	500	1	blank2r.bmp	880	4	kuss	880	1	!	1232	1	!	1309	0	0	0	0	0	0
2024-06-04	09:17:21	09:25:17	475694	6.6.1	4_exp_EVA_AWA_CON	65	A	B	Rpleas_acq	Same	Rpleas	1pleas	acq_US_unple_nomask	acq45_nomask	5	5	400	1	300	300	0	0	434	50	0	0	anregung	genießen	träumen	kuss	engagiert	gütig	ausrottung	gemein	töten	krise	engstirnig	gierig	besonnen	vergnügt	kreativ	gesittet	vertrauen	sonnig	bange	verbissen	krank	geizig	versagen	sterben	1	blank2r.bmp	0	1	+	0	1	blank2r.bmp	500	1	DHJF	500	1	blank2r.bmp	880	4	krise	880	1	!	1232	1	!	1336	0	0	0	0	0	0
2024-06-04	09:17:21	09:25:19	477846	6.6.1	4_exp_EVA_AWA_CON	65	A	B	Rpleas_acq	Same	Rpleas	1pleas	acq_US_pleas_nomask	acq45_nomask	5	6	400	1	300	300	0	0	375	46	0	0	anregung	genießen	träumen	kuss	engagiert	gütig	ausrottung	gemein	töten	krise	engstirnig	gierig	besonnen	vergnügt	kreativ	gesittet	vertrauen	sonnig	bange	verbissen	krank	geizig	versagen	sterben	1	blank2r.bmp	0	1	+	0	1	blank2r.bmp	500	1	CPLW	500	1	blank2r.bmp	880	5	engagiert	880	1	!	1232	1	!	1276	0	0	0	0	0	0
2024-06-04	09:17:21	09:25:22	480157	6.6.1	4_exp_EVA_AWA_CON	65	A	B	Rpleas_acq	Same	Rpleas	1pleas	acq_US_unple_nomask	acq45_nomask	5	7	400	0	300	300	0	0	535	46	1	0	anregung	genießen	träumen	kuss	engagiert	gütig	ausrottung	gemein	töten	krise	engstirnig	gierig	besonnen	vergnügt	kreativ	gesittet	vertrauen	sonnig	bange	verbissen	krank	geizig	versagen	sterben	1	blank2r.bmp	0	1	+	0	1	blank2r.bmp	500	1	DHJF	500	1	blank2r.bmp	880	6	gierig	880	1	!	1232	1	!	-1	0	0	0	0	0	0
2024-06-04	09:17:21	09:25:24	482453	6.6.1	4_exp_EVA_AWA_CON	65	A	B	Rpleas_acq	Same	Rpleas	1pleas	acq_US_unple_nomask	acq45_nomask	5	8	400	0	300	300	0	0	520	46	1	0	anregung	genießen	träumen	kuss	engagiert	gütig	ausrottung	gemein	töten	krise	engstirnig	gierig	besonnen	vergnügt	kreativ	gesittet	vertrauen	sonnig	bange	verbissen	krank	geizig	versagen	sterben	1	blank2r.bmp	0	1	+	0	1	blank2r.bmp	500	1	DHJF	500	1	blank2r.bmp	880	2	gemein	880	1	!	1232	1	!	-1	0	0	0	0	0	0
2024-06-04	09:17:21	09:25:26	484615	6.6.1	4_exp_EVA_AWA_CON	65	A	B	Rpleas_acq	Same	Rpleas	1pleas	acq_US_pleas_nomask	acq45_nomask	5	9	400	1	300	300	0	0	378	50	1	0	anregung	genießen	träumen	kuss	engagiert	gütig	ausrottung	gemein	töten	krise	engstirnig	gierig	besonnen	vergnügt	kreativ	gesittet	vertrauen	sonnig	bange	verbissen	krank	geizig	versagen	sterben	1	blank2r.bmp	0	1	+	0	1	blank2r.bmp	500	1	CPLW	500	1	blank2r.bmp	880	3	träumen	880	1	!	1232	1	!	1280	0	0	0	0	0	0
2024-06-04	09:17:21	09:25:28	486916	6.6.1	4_exp_EVA_AWA_CON	65	A	B	Rpleas_acq	Same	Rpleas	1pleas	acq_US_pleas_nomask	acq45_nomask	5	10	400	0	300	300	0	0	521	50	1	0	anregung	genießen	träumen	kuss	engagiert	gütig	ausrottung	gemein	töten	krise	engstirnig	gierig	besonnen	vergnügt	kreativ	gesittet	vertrauen	sonnig	bange	verbissen	krank	geizig	versagen	sterben	1	blank2r.bmp	0	1	+	0	1	blank2r.bmp	500	1	CPLW	500	1	blank2r.bmp	880	1	anregung	880	1	!	1232	1	!	-1	0	0	0	0	0	0
2024-06-04	09:17:21	09:25:31	489268	6.6.1	4_exp_EVA_AWA_CON	65	A	B	Rpleas_acq	Same	Rpleas	1pleas	acq_US_pleas_nomask	acq45_nomask	5	11	400	0	300	300	0	0	572	50	1	0	anregung	genießen	träumen	kuss	engagiert	gütig	ausrottung	gemein	töten	krise	engstirnig	gierig	besonnen	vergnügt	kreativ	gesittet	vertrauen	sonnig	bange	verbissen	krank	geizig	versagen	sterben	1	blank2r.bmp	0	1	+	0	1	blank2r.bmp	500	1	CPLW	500	1	blank2r.bmp	880	2	genießen	880	1	!	1232	1	!	-1	0	0	0	0	0	0
2024-06-04	09:17:21	09:25:33	491519	6.6.1	4_exp_EVA_AWA_CON	65	A	B	Rpleas_acq	Same	Rpleas	1pleas	acq_US_pleas_nomask	acq45_nomask	5	12	400	1	300	300	0	0	468	50	1	0	anregung	genießen	träumen	kuss	engagiert	gütig	ausrottung	gemein	töten	krise	engstirnig	gierig	besonnen	vergnügt	kreativ	gesittet	vertrauen	sonnig	bange	verbissen	krank	geizig	versagen	sterben	1	blank2r.bmp	0	1	+	0	1	blank2r.bmp	500	1	CPLW	500	1	blank2r.bmp	880	5	engagiert	880	1	!	1232	1	!	1370	0	0	0	0	0	0
2024-06-04	09:17:21	09:25:35	493751	6.6.1	4_exp_EVA_AWA_CON	65	A	B	Rpleas_acq	Same	Rpleas	1pleas	acq_US_unple_nomask	acq45_nomask	5	13	400	1	300	300	0	0	449	46	1	0	anregung	genießen	träumen	kuss	engagiert	gütig	ausrottung	gemein	töten	krise	engstirnig	gierig	besonnen	vergnügt	kreativ	gesittet	vertrauen	sonnig	bange	verbissen	krank	geizig	versagen	sterben	1	blank2r.bmp	0	1	+	0	1	blank2r.bmp	500	1	DHJF	500	1	blank2r.bmp	880	5	engstirnig	880	1	!	1232	1	!	1350	0	0	0	0	0	0
2024-06-04	09:17:21	09:25:37	496037	6.6.1	4_exp_EVA_AWA_CON	65	A	B	Rpleas_acq	Same	Rpleas	1pleas	acq_US_unple_nomask	acq45_nomask	5	14	400	0	300	300	0	0	505	46	1	0	anregung	genießen	träumen	kuss	engagiert	gütig	ausrottung	gemein	töten	krise	engstirnig	gierig	besonnen	vergnügt	kreativ	gesittet	vertrauen	sonnig	bange	verbissen	krank	geizig	versagen	sterben	1	blank2r.bmp	0	1	+	0	1	blank2r.bmp	500	1	DHJF	500	1	blank2r.bmp	880	2	gemein	880	1	!	1232	1	!	-1	0	0	0	0	0	0
2024-06-04	09:17:21	09:25:40	498230	6.6.1	4_exp_EVA_AWA_CON	65	A	B	Rpleas_acq	Same	Rpleas	1pleas	acq_US_unple_nomask	acq45_nomask	5	15	400	1	300	300	0	0	416	46	1	0	anregung	genießen	träumen	kuss	engagiert	gütig	ausrottung	gemein	töten	krise	engstirnig	gierig	besonnen	vergnügt	kreativ	gesittet	vertrauen	sonnig	bange	verbissen	krank	geizig	versagen	sterben	1	blank2r.bmp	0	1	+	0	1	blank2r.bmp	500	1	DHJF	500	1	blank2r.bmp	880	1	ausrottung	880	1	!	1232	1	!	1317	0	0	0	0	0	0
2024-06-04	09:17:21	09:25:42	500462	6.6.1	4_exp_EVA_AWA_CON	65	A	B	Rpleas_acq	Same	Rpleas	1pleas	acq_US_unple_nomask	acq45_nomask	5	16	400	1	300	300	0	0	456	46	1	0	anregung	genießen	träumen	kuss	engagiert	gütig	ausrottung	gemein	töten	krise	engstirnig	gierig	besonnen	vergnügt	kreativ	gesittet	vertrauen	sonnig	bange	verbissen	krank	geizig	versagen	sterben	1	blank2r.bmp	0	1	+	0	1	blank2r.bmp	500	1	DHJF	500	1	blank2r.bmp	880	3	töten	880	1	!	1232	1	!	1358	0	0	0	0	0	0
2024-06-04	09:17:21	09:25:44	502606	6.6.1	4_exp_EVA_AWA_CON	65	A	B	Rpleas_acq	Same	Rpleas	1pleas	acq_US_pleas_nomask	acq45_nomask	5	17	400	1	300	300	0	0	369	50	1	0	anregung	genießen	träumen	kuss	engagiert	gütig	ausrottung	gemein	töten	krise	engstirnig	gierig	besonnen	vergnügt	kreativ	gesittet	vertrauen	sonnig	bange	verbissen	krank	geizig	versagen	sterben	1	blank2r.bmp	0	1	+	0	1	blank2r.bmp	500	1	CPLW	500	1	blank2r.bmp	880	2	genießen	880	1	!	1232	1	!	1270	0	0	0	0	0	0
2024-06-04	09:17:21	09:25:46	504839	6.6.1	4_exp_EVA_AWA_CON	65	A	B	Rpleas_acq	Same	Rpleas	1pleas	acq_US_pleas_nomask	acq45_nomask	5	18	400	1	300	300	0	0	449	50	1	0	anregung	genießen	träumen	kuss	engagiert	gütig	ausrottung	gemein	töten	krise	engstirnig	gierig	besonnen	vergnügt	kreativ	gesittet	vertrauen	sonnig	bange	verbissen	krank	geizig	versagen	sterben	1	blank2r.bmp	0	1	+	0	1	blank2r.bmp	500	1	CPLW	500	1	blank2r.bmp	880	6	gütig	880	1	!	1232	1	!	1352	0	0	0	0	0	0
2024-06-04	09:17:21	09:25:48	507014	6.6.1	4_exp_EVA_AWA_CON	65	A	B	Rpleas_acq	Same	Rpleas	1pleas	acq_US_pleas_nomask	acq45_nomask	5	19	400	1	300	300	0	0	394	50	1	0	anregung	genießen	träumen	kuss	engagiert	gütig	ausrottung	gemein	töten	krise	engstirnig	gierig	besonnen	vergnügt	kreativ	gesittet	vertrauen	sonnig	bange	verbissen	krank	geizig	versagen	sterben	1	blank2r.bmp	0	1	+	0	1	blank2r.bmp	500	1	CPLW	500	1	blank2r.bmp	880	3	träumen	880	1	!	1232	1	!	1296	0	0	0	0	0	0
2024-06-04	09:17:21	09:25:51	509222	6.6.1	4_exp_EVA_AWA_CON	65	A	B	Rpleas_acq	Same	Rpleas	1pleas	acq_US_pleas_nomask	acq45_nomask	5	20	400	1	300	300	0	0	431	46	0	0	anregung	genießen	träumen	kuss	engagiert	gütig	ausrottung	gemein	töten	krise	engstirnig	gierig	besonnen	vergnügt	kreativ	gesittet	vertrauen	sonnig	bange	verbissen	krank	geizig	versagen	sterben	1	blank2r.bmp	0	1	+	0	1	blank2r.bmp	500	1	CPLW	500	1	blank2r.bmp	880	1	anregung	880	1	!	1232	1	!	1332	0	0	0	0	0	0
2024-06-04	09:17:21	09:25:53	511446	6.6.1	4_exp_EVA_AWA_CON	65	A	B	Rpleas_acq	Same	Rpleas	1pleas	acq_US_pleas_nomask	acq45_nomask	5	21	400	1	300	300	0	0	443	50	1	0	anregung	genießen	träumen	kuss	engagiert	gütig	ausrottung	gemein	töten	krise	engstirnig	gierig	besonnen	vergnügt	kreativ	gesittet	vertrauen	sonnig	bange	verbissen	krank	geizig	versagen	sterben	1	blank2r.bmp	0	1	+	0	1	blank2r.bmp	500	1	CPLW	500	1	blank2r.bmp	880	4	kuss	880	1	!	1232	1	!	1345	0	0	0	0	0	0
2024-06-04	09:17:21	09:25:55	513796	6.6.1	4_exp_EVA_AWA_CON	65	A	B	Rpleas_acq	Same	Rpleas	1pleas	acq_US_unple_nomask	acq45_nomask	5	22	400	0	300	300	0	0	574	46	1	0	anregung	genießen	träumen	kuss	engagiert	gütig	ausrottung	gemein	töten	krise	engstirnig	gierig	besonnen	vergnügt	kreativ	gesittet	vertrauen	sonnig	bange	verbissen	krank	geizig	versagen	sterben	1	blank2r.bmp	0	1	+	0	1	blank2r.bmp	500	1	DHJF	500	1	blank2r.bmp	880	6	gierig	880	1	!	1232	1	!	-1	0	0	0	0	0	0
2024-06-04	09:17:21	09:25:57	516085	6.6.1	4_exp_EVA_AWA_CON	65	A	B	Rpleas_acq	Same	Rpleas	1pleas	acq_US_unple_nomask	acq45_nomask	5	23	400	0	300	300	0	0	510	46	1	0	anregung	genießen	träumen	kuss	engagiert	gütig	ausrottung	gemein	töten	krise	engstirnig	gierig	besonnen	vergnügt	kreativ	gesittet	vertrauen	sonnig	bange	verbissen	krank	geizig	versagen	sterben	1	blank2r.bmp	0	1	+	0	1	blank2r.bmp	500	1	DHJF	500	1	blank2r.bmp	880	4	krise	880	1	!	1232	1	!	-1	0	0	0	0	0	0
2024-06-04	09:17:21	09:26:00	518222	6.6.1	4_exp_EVA_AWA_CON	65	A	B	Rpleas_acq	Same	Rpleas	1pleas	acq_US_unple_nomask	acq45_nomask	5	24	400	1	300	300	0	0	355	50	0	0	anregung	genießen	träumen	kuss	engagiert	gütig	ausrottung	gemein	töten	krise	engstirnig	gierig	besonnen	vergnügt	kreativ	gesittet	vertrauen	sonnig	bange	verbissen	krank	geizig	versagen	sterben	1	blank2r.bmp	0	1	+	0	1	blank2r.bmp	500	1	DHJF	500	1	blank2r.bmp	880	5	engstirnig	880	1	!	1232	1	!	1256	0	0	0	0	0	0
2024-06-04	09:17:21	09:26:02	520454	6.6.1	4_exp_EVA_AWA_CON	65	A	B	Rpleas_acq	Same	Rpleas	1pleas	acq_US_pleas_nomask	acq45_nomask	5	25	400	1	300	300	0	0	455	46	0	0	anregung	genießen	träumen	kuss	engagiert	gütig	ausrottung	gemein	töten	krise	engstirnig	gierig	besonnen	vergnügt	kreativ	gesittet	vertrauen	sonnig	bange	verbissen	krank	geizig	versagen	sterben	1	blank2r.bmp	0	1	+	0	1	blank2r.bmp	500	1	CPLW	500	1	blank2r.bmp	880	2	genießen	880	1	!	1232	1	!	1357	0	0	0	0	0	0
2024-06-04	09:17:21	09:26:06	524165	6.6.1	4_exp_EVA_AWA_CON	65	A	B	Rpleas_acq	Same	Rpleas	1pleas	acq_US_pleas_nomask	acq45_nomask	5	26	400	0	300	300	0	0	1936	50	1	0	anregung	genießen	träumen	kuss	engagiert	gütig	ausrottung	gemein	töten	krise	engstirnig	gierig	besonnen	vergnügt	kreativ	gesittet	vertrauen	sonnig	bange	verbissen	krank	geizig	versagen	sterben	1	blank2r.bmp	0	1	+	0	1	blank2r.bmp	500	1	CPLW	500	1	blank2r.bmp	880	1	anregung	880	1	!	1232	1	!	-1	0	0	0	0	0	0
2024-06-04	09:17:21	09:26:08	526509	6.6.1	4_exp_EVA_AWA_CON	65	A	B	Rpleas_acq	Same	Rpleas	1pleas	acq_US_unple_nomask	acq45_nomask	5	27	400	0	300	300	0	0	568	46	1	0	anregung	genießen	träumen	kuss	engagiert	gütig	ausrottung	gemein	töten	krise	engstirnig	gierig	besonnen	vergnügt	kreativ	gesittet	vertrauen	sonnig	bange	verbissen	krank	geizig	versagen	sterben	1	blank2r.bmp	0	1	+	0	1	blank2r.bmp	500	1	DHJF	500	1	blank2r.bmp	880	4	krise	880	1	!	1232	1	!	-1	0	0	0	0	0	0
2024-06-04	09:17:21	09:26:10	528703	6.6.1	4_exp_EVA_AWA_CON	65	A	B	Rpleas_acq	Same	Rpleas	1pleas	acq_US_pleas_nomask	acq45_nomask	5	28	400	1	300	300	0	0	418	50	1	0	anregung	genießen	träumen	kuss	engagiert	gütig	ausrottung	gemein	töten	krise	engstirnig	gierig	besonnen	vergnügt	kreativ	gesittet	vertrauen	sonnig	bange	verbissen	krank	geizig	versagen	sterben	1	blank2r.bmp	0	1	+	0	1	blank2r.bmp	500	1	CPLW	500	1	blank2r.bmp	880	4	kuss	880	1	!	1232	1	!	1319	0	0	0	0	0	0
2024-06-04	09:17:21	09:26:12	531100	6.6.1	4_exp_EVA_AWA_CON	65	A	B	Rpleas_acq	Same	Rpleas	1pleas	acq_US_pleas_nomask	acq45_nomask	5	29	400	0	300	300	0	0	617	50	1	0	anregung	genießen	träumen	kuss	engagiert	gütig	ausrottung	gemein	töten	krise	engstirnig	gierig	besonnen	vergnügt	kreativ	gesittet	vertrauen	sonnig	bange	verbissen	krank	geizig	versagen	sterben	1	blank2r.bmp	0	1	+	0	1	blank2r.bmp	500	1	CPLW	500	1	blank2r.bmp	880	6	gütig	880	1	!	1232	1	!	-1	0	0	0	0	0	0
2024-06-04	09:17:21	09:26:15	533412	6.6.1	4_exp_EVA_AWA_CON	65	A	B	Rpleas_acq	Same	Rpleas	1pleas	acq_US_pleas_nomask	acq45_nomask	5	30	400	0	300	300	0	0	537	50	1	0	anregung	genießen	träumen	kuss	engagiert	gütig	ausrottung	gemein	töten	krise	engstirnig	gierig	besonnen	vergnügt	kreativ	gesittet	vertrauen	sonnig	bange	verbissen	krank	geizig	versagen	sterben	1	blank2r.bmp	0	1	+	0	1	blank2r.bmp	500	1	CPLW	500	1	blank2r.bmp	880	3	träumen	880	1	!	1232	1	!	-1	0	0	0	0	0	0
2024-06-04	09:17:21	09:26:17	535717	6.6.1	4_exp_EVA_AWA_CON	65	A	B	Rpleas_acq	Same	Rpleas	1pleas	acq_US_pleas_nomask	acq45_nomask	5	31	400	0	300	300	0	0	530	50	1	0	anregung	genießen	träumen	kuss	engagiert	gütig	ausrottung	gemein	töten	krise	engstirnig	gierig	besonnen	vergnügt	kreativ	gesittet	vertrauen	sonnig	bange	verbissen	krank	geizig	versagen	sterben	1	blank2r.bmp	0	1	+	0	1	blank2r.bmp	500	1	CPLW	500	1	blank2r.bmp	880	5	engagiert	880	1	!	1232	1	!	-1	0	0	0	0	0	0
2024-06-04	09:17:21	09:26:19	537919	6.6.1	4_exp_EVA_AWA_CON	65	A	B	Rpleas_acq	Same	Rpleas	1pleas	acq_US_unple_nomask	acq45_nomask	5	32	400	1	300	300	0	0	418	46	1	0	anregung	genießen	träumen	kuss	engagiert	gütig	ausrottung	gemein	töten	krise	engstirnig	gierig	besonnen	vergnügt	kreativ	gesittet	vertrauen	sonnig	bange	verbissen	krank	geizig	versagen	sterben	1	blank2r.bmp	0	1	+	0	1	blank2r.bmp	500	1	DHJF	500	1	blank2r.bmp	880	1	ausrottung	880	1	!	1232	1	!	1320	0	0	0	0	0	0
2024-06-04	09:17:21	09:26:22	540301	6.6.1	4_exp_EVA_AWA_CON	65	A	B	Rpleas_acq	Same	Rpleas	1pleas	acq_US_unple_nomask	acq45_nomask	5	33	400	0	300	300	0	0	601	50	0	0	anregung	genießen	träumen	kuss	engagiert	gütig	ausrottung	gemein	töten	krise	engstirnig	gierig	besonnen	vergnügt	kreativ	gesittet	vertrauen	sonnig	bange	verbissen	krank	geizig	versagen	sterben	1	blank2r.bmp	0	1	+	0	1	blank2r.bmp	500	1	DHJF	500	1	blank2r.bmp	880	2	gemein	880	1	!	1232	1	!	-1	0	0	0	0	0	0
2024-06-04	09:17:21	09:26:25	543165	6.6.1	4_exp_EVA_AWA_CON	65	A	B	Rpleas_acq	Same	Rpleas	1pleas	acq_US_unple_nomask	acq45_nomask	5	34	400	0	300	300	0	0	1083	46	1	0	anregung	genießen	träumen	kuss	engagiert	gütig	ausrottung	gemein	töten	krise	engstirnig	gierig	besonnen	vergnügt	kreativ	gesittet	vertrauen	sonnig	bange	verbissen	krank	geizig	versagen	sterben	1	blank2r.bmp	0	1	+	0	1	blank2r.bmp	500	1	DHJF	500	1	blank2r.bmp	880	3	töten	880	1	!	1232	1	!	-1	0	0	0	0	0	0
2024-06-04	09:17:21	09:26:27	545269	6.6.1	4_exp_EVA_AWA_CON	65	A	B	Rpleas_acq	Same	Rpleas	1pleas	acq_US_unple_nomask	acq45_nomask	5	35	400	0	300	300	0	0	325	50	0	0	anregung	genießen	träumen	kuss	engagiert	gütig	ausrottung	gemein	töten	krise	engstirnig	gierig	besonnen	vergnügt	kreativ	gesittet	vertrauen	sonnig	bange	verbissen	krank	geizig	versagen	sterben	1	blank2r.bmp	0	1	+	0	1	blank2r.bmp	500	1	DHJF	500	1	blank2r.bmp	880	6	gierig	880	1	!	-1	1	!	-1	0	0	0	0	0	0
2024-06-04	09:17:21	09:26:29	547717	6.6.1	4_exp_EVA_AWA_CON	65	A	B	Rpleas_acq	Same	Rpleas	1pleas	acq_US_unple_nomask	acq45_nomask	5	36	400	0	300	300	0	0	672	46	1	0	anregung	genießen	träumen	kuss	engagiert	gütig	ausrottung	gemein	töten	krise	engstirnig	gierig	besonnen	vergnügt	kreativ	gesittet	vertrauen	sonnig	bange	verbissen	krank	geizig	versagen	sterben	1	blank2r.bmp	0	1	+	0	1	blank2r.bmp	500	1	DHJF	500	1	blank2r.bmp	880	5	engstirnig	880	1	!	1232	1	!	-1	0	0	0	0	0	0
2024-06-04	09:17:21	09:26:47	565193	6.6.1	4_exp_EVA_AWA_CON	65	A	B	Rpleas_acq	Same	Rpleas	1pleas	EvalRating_firsttwo	EvalRating_firsttwo	6	1	0	0	300	300	0	0	8453	line	0	-54,5572916666666642982pct	anregung	genießen	träumen	kuss	engagiert	gütig	ausrottung	gemein	töten	krise	engstirnig	gierig	besonnen	vergnügt	kreativ	gesittet	vertrauen	sonnig	bange	verbissen	krank	geizig	versagen	sterben	1		-8	1	Wie angenehm oder unangenehm finden Sie die  Buchstabenkette WDLH?	-8	1		-8	1		-8	1		-8	1	Unangenehm	-8	1	Angenehm	-8	0	0	0	0	0	0	0	0	0
2024-06-04	09:17:21	09:26:54	572498	6.6.1	4_exp_EVA_AWA_CON	65	A	B	Rpleas_acq	Same	Rpleas	1pleas	EvalRating_lastfour	EvalRating_lastfour	7	1	0	0	300	300	0	0	4931	line	0	-60,6770833333333285964pct	anregung	genießen	träumen	kuss	engagiert	gütig	ausrottung	gemein	töten	krise	engstirnig	gierig	besonnen	vergnügt	kreativ	gesittet	vertrauen	sonnig	bange	verbissen	krank	geizig	versagen	sterben	1		-7	1	Wie angenehm oder unangenehm finden Sie die  Buchstabenkette CPLW?	-7	1		-7	1		-7	1		-7	1	Unangenehm	-7	1	Angenehm	-7	0	0	0	0	0	0	0	0	0
2024-06-04	09:17:21	09:26:56	574864	6.6.1	4_exp_EVA_AWA_CON	65	A	B	Rpleas_acq	Same	Rpleas	1pleas	blank_screen	EvalRating_lastfour	7	3	0	0	300	300	0	0	0	0	0	-60,6770833333333285964pct	anregung	genießen	träumen	kuss	engagiert	gütig	ausrottung	gemein	töten	krise	engstirnig	gierig	besonnen	vergnügt	kreativ	gesittet	vertrauen	sonnig	bange	verbissen	krank	geizig	versagen	sterben	1		-8	0	0	0	0	0	0	0	0	0	0	0	0	0	0	0	0	0	0	0	0	0	0	0	0	0	0	0
2024-06-04	09:17:21	09:26:59	577361	6.6.1	4_exp_EVA_AWA_CON	65	A	B	Rpleas_acq	Same	Rpleas	1pleas	EvalRating_lastfour	EvalRating_lastfour	7	4	0	0	300	300	0	0	1909	line	0	-43,4895833333333285964pct	anregung	genießen	träumen	kuss	engagiert	gütig	ausrottung	gemein	töten	krise	engstirnig	gierig	besonnen	vergnügt	kreativ	gesittet	vertrauen	sonnig	bange	verbissen	krank	geizig	versagen	sterben	1		-8	3	Wie angenehm oder unangenehm finden Sie die  Buchstabenkette FCJP?	-8	1		-8	1		-8	1		-8	1	Unangenehm	-8	1	Angenehm	-8	0	0	0	0	0	0	0	0	0
2024-06-04	09:17:21	09:27:01	579727	6.6.1	4_exp_EVA_AWA_CON	65	A	B	Rpleas_acq	Same	Rpleas	1pleas	blank_screen	EvalRating_lastfour	7	6	0	0	300	300	0	0	0	0	0	-43,4895833333333285964pct	anregung	genießen	träumen	kuss	engagiert	gütig	ausrottung	gemein	töten	krise	engstirnig	gierig	besonnen	vergnügt	kreativ	gesittet	vertrauen	sonnig	bange	verbissen	krank	geizig	versagen	sterben	1		-8	0	0	0	0	0	0	0	0	0	0	0	0	0	0	0	0	0	0	0	0	0	0	0	0	0	0	0
2024-06-04	09:17:21	09:27:04	582482	6.6.1	4_exp_EVA_AWA_CON	65	A	B	Rpleas_acq	Same	Rpleas	1pleas	EvalRating_lastfour	EvalRating_lastfour	7	7	0	0	300	300	0	0	2166	line	0	24,8697916666666714036pct	anregung	genießen	träumen	kuss	engagiert	gütig	ausrottung	gemein	töten	krise	engstirnig	gierig	besonnen	vergnügt	kreativ	gesittet	vertrauen	sonnig	bange	verbissen	krank	geizig	versagen	sterben	1		-8	2	Wie angenehm oder unangenehm finden Sie die  Buchstabenkette DHJF?	-8	1		-8	1		-8	1		-8	1	Unangenehm	-8	1	Angenehm	-8	0	0	0	0	0	0	0	0	0
2024-06-04	09:17:21	09:27:35	613647	6.6.1	4_exp_EVA_AWA_CON	65	A	B	Rpleas_acq	Same	Rpleas	1pleas	conawa_CS2_US3	conawa1_nomask	8	1	0	0	300	300	0	0	10708	träumen	1	24,8697916666666714036pct	anregung	genießen	träumen	kuss	engagiert	gütig	ausrottung	gemein	töten	krise	engstirnig	gierig	besonnen	vergnügt	kreativ	gesittet	vertrauen	sonnig	bange	verbissen	krank	geizig	versagen	sterben	0	0	0	0	0	0	0	0	0	0	0	0	0	0	0	0	0	0	0	0	0	0	0	0	0	0	0	0	0	0
2024-06-04	09:17:21	09:27:35	613648	6.6.1	4_exp_EVA_AWA_CON	65	A	B	Rpleas_acq	Same	Rpleas	1pleas	conawa_CS2_US3_confidence	conawa1_nomask	8	1	0	0	300	300	0	0	10708	guess	1	24,8697916666666714036pct	anregung	genießen	träumen	kuss	engagiert	gütig	ausrottung	gemein	töten	krise	engstirnig	gierig	besonnen	vergnügt	kreativ	gesittet	vertrauen	sonnig	bange	verbissen	krank	geizig	versagen	sterben	0	0	0	0	0	0	0	0	0	0	0	0	0	0	0	0	0	0	0	0	0	0	0	0	0	0	0	0	0	0
2024-06-04	09:17:21	09:27:41	619601	6.6.1	4_exp_EVA_AWA_CON	65	A	B	Rpleas_acq	Same	Rpleas	1pleas	conawa_CS2_US4	conawa1_nomask	8	2	0	0	300	300	0	0	5339	krise	1	24,8697916666666714036pct	anregung	genießen	träumen	kuss	engagiert	gütig	ausrottung	gemein	töten	krise	engstirnig	gierig	besonnen	vergnügt	kreativ	gesittet	vertrauen	sonnig	bange	verbissen	krank	geizig	versagen	sterben	0	0	0	0	0	0	0	0	0	0	0	0	0	0	0	0	0	0	0	0	0	0	0	0	0	0	0	0	0	0
2024-06-04	09:17:21	09:27:41	619602	6.6.1	4_exp_EVA_AWA_CON	65	A	B	Rpleas_acq	Same	Rpleas	1pleas	conawa_CS2_US4_confidence	conawa1_nomask	8	2	0	0	300	300	0	0	5339	probably	1	24,8697916666666714036pct	anregung	genießen	träumen	kuss	engagiert	gütig	ausrottung	gemein	töten	krise	engstirnig	gierig	besonnen	vergnügt	kreativ	gesittet	vertrauen	sonnig	bange	verbissen	krank	geizig	versagen	sterben	0	0	0	0	0	0	0	0	0	0	0	0	0	0	0	0	0	0	0	0	0	0	0	0	0	0	0	0	0	0
2024-06-04	09:17:21	09:27:47	626005	6.6.1	4_exp_EVA_AWA_CON	65	A	B	Rpleas_acq	Same	Rpleas	1pleas	conawa_CS1_US4	conawa1_nomask	8	3	0	0	300	300	0	0	5784	krise	1	24,8697916666666714036pct	anregung	genießen	träumen	kuss	engagiert	gütig	ausrottung	gemein	töten	krise	engstirnig	gierig	besonnen	vergnügt	kreativ	gesittet	vertrauen	sonnig	bange	verbissen	krank	geizig	versagen	sterben	0	0	0	0	0	0	0	0	0	0	0	0	0	0	0	0	0	0	0	0	0	0	0	0	0	0	0	0	0	0
2024-06-04	09:17:21	09:27:47	626006	6.6.1	4_exp_EVA_AWA_CON	65	A	B	Rpleas_acq	Same	Rpleas	1pleas	conawa_CS1_US4_confidence	conawa1_nomask	8	3	0	0	300	300	0	0	5784	guess	1	24,8697916666666714036pct	anregung	genießen	träumen	kuss	engagiert	gütig	ausrottung	gemein	töten	krise	engstirnig	gierig	besonnen	vergnügt	kreativ	gesittet	vertrauen	sonnig	bange	verbissen	krank	geizig	versagen	sterben	0	0	0	0	0	0	0	0	0	0	0	0	0	0	0	0	0	0	0	0	0	0	0	0	0	0	0	0	0	0
2024-06-04	09:17:21	09:27:54	632879	6.6.1	4_exp_EVA_AWA_CON	65	A	B	Rpleas_acq	Same	Rpleas	1pleas	conawa_CS2_US6	conawa1_nomask	8	4	0	0	300	300	0	0	6253	besonnen	1	24,8697916666666714036pct	anregung	genießen	träumen	kuss	engagiert	gütig	ausrottung	gemein	töten	krise	engstirnig	gierig	besonnen	vergnügt	kreativ	gesittet	vertrauen	sonnig	bange	verbissen	krank	geizig	versagen	sterben	0	0	0	0	0	0	0	0	0	0	0	0	0	0	0	0	0	0	0	0	0	0	0	0	0	0	0	0	0	0
2024-06-04	09:17:21	09:27:54	632880	6.6.1	4_exp_EVA_AWA_CON	65	A	B	Rpleas_acq	Same	Rpleas	1pleas	conawa_CS2_US6_confidence	conawa1_nomask	8	4	0	0	300	300	0	0	6253	guess	1	24,8697916666666714036pct	anregung	genießen	träumen	kuss	engagiert	gütig	ausrottung	gemein	töten	krise	engstirnig	gierig	besonnen	vergnügt	kreativ	gesittet	vertrauen	sonnig	bange	verbissen	krank	geizig	versagen	sterben	0	0	0	0	0	0	0	0	0	0	0	0	0	0	0	0	0	0	0	0	0	0	0	0	0	0	0	0	0	0
2024-06-04	09:17:21	09:28:02	640935	6.6.1	4_exp_EVA_AWA_CON	65	A	B	Rpleas_acq	Same	Rpleas	1pleas	conawa_CS1_US1	conawa1_nomask	8	5	0	0	300	300	0	0	7443	anregung	1	24,8697916666666714036pct	anregung	genießen	träumen	kuss	engagiert	gütig	ausrottung	gemein	töten	krise	engstirnig	gierig	besonnen	vergnügt	kreativ	gesittet	vertrauen	sonnig	bange	verbissen	krank	geizig	versagen	sterben	0	0	0	0	0	0	0	0	0	0	0	0	0	0	0	0	0	0	0	0	0	0	0	0	0	0	0	0	0	0
2024-06-04	09:17:21	09:28:02	640935	6.6.1	4_exp_EVA_AWA_CON	65	A	B	Rpleas_acq	Same	Rpleas	1pleas	conawa_CS1_US1_confidence	conawa1_nomask	8	5	0	0	300	300	0	0	7443	guess	1	24,8697916666666714036pct	anregung	genießen	träumen	kuss	engagiert	gütig	ausrottung	gemein	töten	krise	engstirnig	gierig	besonnen	vergnügt	kreativ	gesittet	vertrauen	sonnig	bange	verbissen	krank	geizig	versagen	sterben	0	0	0	0	0	0	0	0	0	0	0	0	0	0	0	0	0	0	0	0	0	0	0	0	0	0	0	0	0	0
2024-06-04	09:17:21	09:28:12	650211	6.6.1	4_exp_EVA_AWA_CON	65	A	B	Rpleas_acq	Same	Rpleas	1pleas	conawa_CS2_US2	conawa1_nomask	8	6	0	0	300	300	0	0	8659	krank	1	24,8697916666666714036pct	anregung	genießen	träumen	kuss	engagiert	gütig	ausrottung	gemein	töten	krise	engstirnig	gierig	besonnen	vergnügt	kreativ	gesittet	vertrauen	sonnig	bange	verbissen	krank	geizig	versagen	sterben	0	0	0	0	0	0	0	0	0	0	0	0	0	0	0	0	0	0	0	0	0	0	0	0	0	0	0	0	0	0
2024-06-04	09:17:21	09:28:12	650212	6.6.1	4_exp_EVA_AWA_CON	65	A	B	Rpleas_acq	Same	Rpleas	1pleas	conawa_CS2_US2_confidence	conawa1_nomask	8	6	0	0	300	300	0	0	8659	guess	1	24,8697916666666714036pct	anregung	genießen	träumen	kuss	engagiert	gütig	ausrottung	gemein	töten	krise	engstirnig	gierig	besonnen	vergnügt	kreativ	gesittet	vertrauen	sonnig	bange	verbissen	krank	geizig	versagen	sterben	0	0	0	0	0	0	0	0	0	0	0	0	0	0	0	0	0	0	0	0	0	0	0	0	0	0	0	0	0	0
2024-06-04	09:17:21	09:28:18	656584	6.6.1	4_exp_EVA_AWA_CON	65	A	B	Rpleas_acq	Same	Rpleas	1pleas	conawa_CS1_US5	conawa1_nomask	8	7	0	0	300	300	0	0	5758	engstirnig	1	24,8697916666666714036pct	anregung	genießen	träumen	kuss	engagiert	gütig	ausrottung	gemein	töten	krise	engstirnig	gierig	besonnen	vergnügt	kreativ	gesittet	vertrauen	sonnig	bange	verbissen	krank	geizig	versagen	sterben	0	0	0	0	0	0	0	0	0	0	0	0	0	0	0	0	0	0	0	0	0	0	0	0	0	0	0	0	0	0
2024-06-04	09:17:21	09:28:18	656585	6.6.1	4_exp_EVA_AWA_CON	65	A	B	Rpleas_acq	Same	Rpleas	1pleas	conawa_CS1_US5_confidence	conawa1_nomask	8	7	0	0	300	300	0	0	5758	guess	1	24,8697916666666714036pct	anregung	genießen	träumen	kuss	engagiert	gütig	ausrottung	gemein	töten	krise	engstirnig	gierig	besonnen	vergnügt	kreativ	gesittet	vertrauen	sonnig	bange	verbissen	krank	geizig	versagen	sterben	0	0	0	0	0	0	0	0	0	0	0	0	0	0	0	0	0	0	0	0	0	0	0	0	0	0	0	0	0	0
2024-06-04	09:17:21	09:28:22	661097	6.6.1	4_exp_EVA_AWA_CON	65	A	B	Rpleas_acq	Same	Rpleas	1pleas	conawa_CS1_US3	conawa1_nomask	8	8	0	0	300	300	0	0	3900	kreativ	1	24,8697916666666714036pct	anregung	genießen	träumen	kuss	engagiert	gütig	ausrottung	gemein	töten	krise	engstirnig	gierig	besonnen	vergnügt	kreativ	gesittet	vertrauen	sonnig	bange	verbissen	krank	geizig	versagen	sterben	0	0	0	0	0	0	0	0	0	0	0	0	0	0	0	0	0	0	0	0	0	0	0	0	0	0	0	0	0	0
2024-06-04	09:17:21	09:28:22	661098	6.6.1	4_exp_EVA_AWA_CON	65	A	B	Rpleas_acq	Same	Rpleas	1pleas	conawa_CS1_US3_confidence	conawa1_nomask	8	8	0	0	300	300	0	0	3900	guess	1	24,8697916666666714036pct	anregung	genießen	träumen	kuss	engagiert	gütig	ausrottung	gemein	töten	krise	engstirnig	gierig	besonnen	vergnügt	kreativ	gesittet	vertrauen	sonnig	bange	verbissen	krank	geizig	versagen	sterben	0	0	0	0	0	0	0	0	0	0	0	0	0	0	0	0	0	0	0	0	0	0	0	0	0	0	0	0	0	0
2024-06-04	09:17:21	09:28:27	665590	6.6.1	4_exp_EVA_AWA_CON	65	A	B	Rpleas_acq	Same	Rpleas	1pleas	conawa_CS2_US1	conawa1_nomask	8	9	0	0	300	300	0	0	3881	anregung	1	24,8697916666666714036pct	anregung	genießen	träumen	kuss	engagiert	gütig	ausrottung	gemein	töten	krise	engstirnig	gierig	besonnen	vergnügt	kreativ	gesittet	vertrauen	sonnig	bange	verbissen	krank	geizig	versagen	sterben	0	0	0	0	0	0	0	0	0	0	0	0	0	0	0	0	0	0	0	0	0	0	0	0	0	0	0	0	0	0
2024-06-04	09:17:21	09:28:27	665591	6.6.1	4_exp_EVA_AWA_CON	65	A	B	Rpleas_acq	Same	Rpleas	1pleas	conawa_CS2_US1_confidence	conawa1_nomask	8	9	0	0	300	300	0	0	3881	guess	1	24,8697916666666714036pct	anregung	genießen	träumen	kuss	engagiert	gütig	ausrottung	gemein	töten	krise	engstirnig	gierig	besonnen	vergnügt	kreativ	gesittet	vertrauen	sonnig	bange	verbissen	krank	geizig	versagen	sterben	0	0	0	0	0	0	0	0	0	0	0	0	0	0	0	0	0	0	0	0	0	0	0	0	0	0	0	0	0	0
2024-06-04	09:17:21	09:28:31	669663	6.6.1	4_exp_EVA_AWA_CON	65	A	B	Rpleas_acq	Same	Rpleas	1pleas	conawa_CS1_US2	conawa1_nomask	8	10	0	0	300	300	0	0	3454	gemein	1	24,8697916666666714036pct	anregung	genießen	träumen	kuss	engagiert	gütig	ausrottung	gemein	töten	krise	engstirnig	gierig	besonnen	vergnügt	kreativ	gesittet	vertrauen	sonnig	bange	verbissen	krank	geizig	versagen	sterben	0	0	0	0	0	0	0	0	0	0	0	0	0	0	0	0	0	0	0	0	0	0	0	0	0	0	0	0	0	0
2024-06-04	09:17:21	09:28:31	669664	6.6.1	4_exp_EVA_AWA_CON	65	A	B	Rpleas_acq	Same	Rpleas	1pleas	conawa_CS1_US2_confidence	conawa1_nomask	8	10	0	0	300	300	0	0	3454	guess	1	24,8697916666666714036pct	anregung	genießen	träumen	kuss	engagiert	gütig	ausrottung	gemein	töten	krise	engstirnig	gierig	besonnen	vergnügt	kreativ	gesittet	vertrauen	sonnig	bange	verbissen	krank	geizig	versagen	sterben	0	0	0	0	0	0	0	0	0	0	0	0	0	0	0	0	0	0	0	0	0	0	0	0	0	0	0	0	0	0
2024-06-04	09:17:21	09:28:36	675076	6.6.1	4_exp_EVA_AWA_CON	65	A	B	Rpleas_acq	Same	Rpleas	1pleas	conawa_CS1_US6	conawa1_nomask	8	11	0	0	300	300	0	0	4797	sonnig	1	24,8697916666666714036pct	anregung	genießen	träumen	kuss	engagiert	gütig	ausrottung	gemein	töten	krise	engstirnig	gierig	besonnen	vergnügt	kreativ	gesittet	vertrauen	sonnig	bange	verbissen	krank	geizig	versagen	sterben	0	0	0	0	0	0	0	0	0	0	0	0	0	0	0	0	0	0	0	0	0	0	0	0	0	0	0	0	0	0
2024-06-04	09:17:21	09:28:36	675077	6.6.1	4_exp_EVA_AWA_CON	65	A	B	Rpleas_acq	Same	Rpleas	1pleas	conawa_CS1_US6_confidence	conawa1_nomask	8	11	0	0	300	300	0	0	4797	guess	1	24,8697916666666714036pct	anregung	genießen	träumen	kuss	engagiert	gütig	ausrottung	gemein	töten	krise	engstirnig	gierig	besonnen	vergnügt	kreativ	gesittet	vertrauen	sonnig	bange	verbissen	krank	geizig	versagen	sterben	0	0	0	0	0	0	0	0	0	0	0	0	0	0	0	0	0	0	0	0	0	0	0	0	0	0	0	0	0	0
2024-06-04	09:17:21	09:28:42	680199	6.6.1	4_exp_EVA_AWA_CON	65	A	B	Rpleas_acq	Same	Rpleas	1pleas	conawa_CS2_US5	conawa1_nomask	8	12	0	0	300	300	0	0	4503	engstirnig	1	24,8697916666666714036pct	anregung	genießen	träumen	kuss	engagiert	gütig	ausrottung	gemein	töten	krise	engstirnig	gierig	besonnen	vergnügt	kreativ	gesittet	vertrauen	sonnig	bange	verbissen	krank	geizig	versagen	sterben	0	0	0	0	0	0	0	0	0	0	0	0	0	0	0	0	0	0	0	0	0	0	0	0	0	0	0	0	0	0
2024-06-04	09:17:21	09:28:42	680200	6.6.1	4_exp_EVA_AWA_CON	65	A	B	Rpleas_acq	Same	Rpleas	1pleas	conawa_CS2_US5_confidence	conawa1_nomask	8	12	0	0	300	300	0	0	4503	guess	1	24,8697916666666714036pct	anregung	genießen	träumen	kuss	engagiert	gütig	ausrottung	gemein	töten	krise	engstirnig	gierig	besonnen	vergnügt	kreativ	gesittet	vertrauen	sonnig	bange	verbissen	krank	geizig	versagen	sterben	0	0	0	0	0	0	0	0	0	0	0	0	0	0	0	0	0	0	0	0	0	0	0	0	0	0	0	0	0	0
2024-06-04	09:17:21	09:29:39	737293	6.6.1	4_exp_EVA_AWA_CON	65	A	B	Rpleas_acq	Same	Rpleas	1pleas	cond_US_unple_123_nomask_CS1	condtest_nomask_1	11	1	400	0	300	300	0	0	1427	46	1	24,8697916666666714036pct	anregung	genießen	träumen	kuss	engagiert	gütig	ausrottung	gemein	töten	krise	engstirnig	gierig	besonnen	vergnügt	kreativ	gesittet	vertrauen	sonnig	bange	verbissen	krank	geizig	versagen	sterben	1	blank2r.bmp	0	1	+	0	1	blank2r.bmp	500	1	CPLW	500	1	blank2r.bmp	880	2	gemein	880	1	!	1232	1	!	-1	0	0	0	0	0	0
