date	time	currenttime	elapsedtime	build	currentexpt	subject	CS_AB	US_AB	LRpleas_acq	SameOppo	condition_Lpleas	condition_1pleas	trialcode	blockcode	blocknum	trialnum	windowcenter	inwindow	pretrialpause	posttrialpause	trialduration	trialtimeout	latency	response	correct	correctedscore	US_nomask_pleas1	US_nomask_pleas2	US_nomask_pleas3	US_nomask_pleas4	US_nomask_pleas5	US_nomask_pleas6	US_nomask_unple1	US_nomask_unple2	US_nomask_unple3	US_nomask_unple4	US_nomask_unple5	US_nomask_unple6	new_nomask_pleas1	new_nomask_pleas2	new_nomask_pleas3	new_nomask_pleas4	new_nomask_pleas5	new_nomask_pleas6	new_nomask_unple1	new_nomask_unple2	new_nomask_unple3	new_nomask_unple4	new_nomask_unple5	new_nomask_unple6	stimulusnumber1	stimulusitem1	stimulusonset1	stimulusnumber2	stimulusitem2	stimulusonset2	stimulusnumber3	stimulusitem3	stimulusonset3	stimulusnumber4	stimulusitem4	stimulusonset4	stimulusnumber5	stimulusitem5	stimulusonset5	stimulusnumber6	stimulusitem6	stimulusonset6	stimulusnumber7	stimulusitem7	stimulusonset7	stimulusnumber8	stimulusitem8	stimulusonset8	stimulusnumber9	stimulusitem9	stimulusonset9	stimulusnumber10	stimulusitem10	stimulusonset10
2024-05-08	11:26:29	11:28:17	108157	6.6.1	4_exp_EVA_AWA_CON	18	A	B	Rpleas_acq	Oppo	Rpleas	1pleas	acq_new_pleas_nomask	acq1_nomask	1	1	0	0	300	300	0	0	979	50	1	0	engagiert	träumen	gesittet	kreativ	vergnügt	kuss	engstirnig	töten	geizig	krank	verbissen	krise	genießen	anregung	vertrauen	gütig	besonnen	sonnig	gemein	ausrottung	versagen	gierig	bange	sterben	1	blank2r.bmp	0	1	+	0	1	blank2r.bmp	500	6	C2r.bmp	500	1	blank2r.bmp	880	1	genießen	880	0	0	0	0	0	0	0	0	0	0	0	0
2024-05-08	11:26:29	11:28:19	110341	6.6.1	4_exp_EVA_AWA_CON	18	A	B	Rpleas_acq	Oppo	Rpleas	1pleas	acq_US_pleas_nomask	acq1_nomask	1	2	0	0	300	300	0	0	702	50	1	0	engagiert	träumen	gesittet	kreativ	vergnügt	kuss	engstirnig	töten	geizig	krank	verbissen	krise	genießen	anregung	vertrauen	gütig	besonnen	sonnig	gemein	ausrottung	versagen	gierig	bange	sterben	1	blank2r.bmp	0	1	+	0	1	blank2r.bmp	500	1	CPLW	500	1	blank2r.bmp	880	6	kuss	880	0	0	0	0	0	0	0	0	0	0	0	0
2024-05-08	11:26:29	11:28:22	112782	6.6.1	4_exp_EVA_AWA_CON	18	A	B	Rpleas_acq	Oppo	Rpleas	1pleas	acq_new_pleas_nomask	acq1_nomask	1	3	0	0	300	300	0	0	950	50	1	0	engagiert	träumen	gesittet	kreativ	vergnügt	kuss	engstirnig	töten	geizig	krank	verbissen	krise	genießen	anregung	vertrauen	gütig	besonnen	sonnig	gemein	ausrottung	versagen	gierig	bange	sterben	1	blank2r.bmp	0	1	+	0	1	blank2r.bmp	500	2	B2r.bmp	500	1	blank2r.bmp	880	2	anregung	880	0	0	0	0	0	0	0	0	0	0	0	0
2024-05-08	11:26:29	11:28:24	114709	6.6.1	4_exp_EVA_AWA_CON	18	A	B	Rpleas_acq	Oppo	Rpleas	1pleas	acq_new_unple_nomask	acq1_nomask	1	4	0	0	300	300	0	0	447	46	1	0	engagiert	träumen	gesittet	kreativ	vergnügt	kuss	engstirnig	töten	geizig	krank	verbissen	krise	genießen	anregung	vertrauen	gütig	besonnen	sonnig	gemein	ausrottung	versagen	gierig	bange	sterben	1	blank2r.bmp	0	1	+	0	1	blank2r.bmp	500	4	B4r.bmp	500	1	blank2r.bmp	880	6	sterben	880	0	0	0	0	0	0	0	0	0	0	0	0
2024-05-08	11:26:29	11:28:26	116734	6.6.1	4_exp_EVA_AWA_CON	18	A	B	Rpleas_acq	Oppo	Rpleas	1pleas	acq_new_unple_nomask	acq1_nomask	1	5	0	0	300	300	0	0	539	46	1	0	engagiert	träumen	gesittet	kreativ	vergnügt	kuss	engstirnig	töten	geizig	krank	verbissen	krise	genießen	anregung	vertrauen	gütig	besonnen	sonnig	gemein	ausrottung	versagen	gierig	bange	sterben	1	blank2r.bmp	0	1	+	0	1	blank2r.bmp	500	1	B1r.bmp	500	1	blank2r.bmp	880	5	bange	880	0	0	0	0	0	0	0	0	0	0	0	0
2024-05-08	11:26:29	11:28:28	118749	6.6.1	4_exp_EVA_AWA_CON	18	A	B	Rpleas_acq	Oppo	Rpleas	1pleas	acq_new_unple_nomask	acq1_nomask	1	6	0	0	300	300	0	0	534	46	1	0	engagiert	träumen	gesittet	kreativ	vergnügt	kuss	engstirnig	töten	geizig	krank	verbissen	krise	genießen	anregung	vertrauen	gütig	besonnen	sonnig	gemein	ausrottung	versagen	gierig	bange	sterben	1	blank2r.bmp	0	1	+	0	1	blank2r.bmp	500	7	C3r.bmp	500	1	blank2r.bmp	880	4	gierig	880	0	0	0	0	0	0	0	0	0	0	0	0
2024-05-08	11:26:29	11:28:30	120877	6.6.1	4_exp_EVA_AWA_CON	18	A	B	Rpleas_acq	Oppo	Rpleas	1pleas	acq_US_unple_nomask	acq1_nomask	1	7	0	0	300	300	0	0	641	46	1	0	engagiert	träumen	gesittet	kreativ	vergnügt	kuss	engstirnig	töten	geizig	krank	verbissen	krise	genießen	anregung	vertrauen	gütig	besonnen	sonnig	gemein	ausrottung	versagen	gierig	bange	sterben	1	blank2r.bmp	0	1	+	0	1	blank2r.bmp	500	1	DHJF	500	1	blank2r.bmp	880	6	krise	880	0	0	0	0	0	0	0	0	0	0	0	0
2024-05-08	11:26:29	11:28:32	123069	6.6.1	4_exp_EVA_AWA_CON	18	A	B	Rpleas_acq	Oppo	Rpleas	1pleas	acq_US_pleas_nomask	acq1_nomask	1	8	0	0	300	300	0	0	711	50	1	0	engagiert	träumen	gesittet	kreativ	vergnügt	kuss	engstirnig	töten	geizig	krank	verbissen	krise	genießen	anregung	vertrauen	gütig	besonnen	sonnig	gemein	ausrottung	versagen	gierig	bange	sterben	1	blank2r.bmp	0	1	+	0	1	blank2r.bmp	500	1	CPLW	500	1	blank2r.bmp	880	5	vergnügt	880	0	0	0	0	0	0	0	0	0	0	0	0
2024-05-08	11:26:29	11:28:34	125190	6.6.1	4_exp_EVA_AWA_CON	18	A	B	Rpleas_acq	Oppo	Rpleas	1pleas	acq_US_unple_nomask	acq1_nomask	1	9	0	0	300	300	0	0	640	46	1	0	engagiert	träumen	gesittet	kreativ	vergnügt	kuss	engstirnig	töten	geizig	krank	verbissen	krise	genießen	anregung	vertrauen	gütig	besonnen	sonnig	gemein	ausrottung	versagen	gierig	bange	sterben	1	blank2r.bmp	0	1	+	0	1	blank2r.bmp	500	1	DHJF	500	1	blank2r.bmp	880	5	verbissen	880	0	0	0	0	0	0	0	0	0	0	0	0
2024-05-08	11:26:29	11:28:36	127189	6.6.1	4_exp_EVA_AWA_CON	18	A	B	Rpleas_acq	Oppo	Rpleas	1pleas	acq_US_unple_nomask	acq1_nomask	1	10	0	0	300	300	0	0	519	46	1	0	engagiert	träumen	gesittet	kreativ	vergnügt	kuss	engstirnig	töten	geizig	krank	verbissen	krise	genießen	anregung	vertrauen	gütig	besonnen	sonnig	gemein	ausrottung	versagen	gierig	bange	sterben	1	blank2r.bmp	0	1	+	0	1	blank2r.bmp	500	1	DHJF	500	1	blank2r.bmp	880	3	geizig	880	0	0	0	0	0	0	0	0	0	0	0	0
2024-05-08	11:26:29	11:28:38	129293	6.6.1	4_exp_EVA_AWA_CON	18	A	B	Rpleas_acq	Oppo	Rpleas	1pleas	acq_US_pleas_nomask	acq1_nomask	1	11	0	0	300	300	0	0	621	50	1	0	engagiert	träumen	gesittet	kreativ	vergnügt	kuss	engstirnig	töten	geizig	krank	verbissen	krise	genießen	anregung	vertrauen	gütig	besonnen	sonnig	gemein	ausrottung	versagen	gierig	bange	sterben	1	blank2r.bmp	0	1	+	0	1	blank2r.bmp	500	1	CPLW	500	1	blank2r.bmp	880	1	engagiert	880	0	0	0	0	0	0	0	0	0	0	0	0
2024-05-08	11:26:29	11:28:41	131397	6.6.1	4_exp_EVA_AWA_CON	18	A	B	Rpleas_acq	Oppo	Rpleas	1pleas	acq_new_pleas_nomask	acq1_nomask	1	12	0	0	300	300	0	0	614	50	1	0	engagiert	träumen	gesittet	kreativ	vergnügt	kuss	engstirnig	töten	geizig	krank	verbissen	krise	genießen	anregung	vertrauen	gütig	besonnen	sonnig	gemein	ausrottung	versagen	gierig	bange	sterben	1	blank2r.bmp	0	1	+	0	1	blank2r.bmp	500	3	B3r.bmp	500	1	blank2r.bmp	880	5	besonnen	880	0	0	0	0	0	0	0	0	0	0	0	0
2024-05-08	11:26:29	11:28:43	133533	6.6.1	4_exp_EVA_AWA_CON	18	A	B	Rpleas_acq	Oppo	Rpleas	1pleas	acq_new_unple_nomask	acq1_nomask	1	13	0	0	300	300	0	0	648	46	1	0	engagiert	träumen	gesittet	kreativ	vergnügt	kuss	engstirnig	töten	geizig	krank	verbissen	krise	genießen	anregung	vertrauen	gütig	besonnen	sonnig	gemein	ausrottung	versagen	gierig	bange	sterben	1	blank2r.bmp	0	1	+	0	1	blank2r.bmp	500	8	C4r.bmp	500	1	blank2r.bmp	880	2	ausrottung	880	0	0	0	0	0	0	0	0	0	0	0	0
2024-05-08	11:26:29	11:28:45	135877	6.6.1	4_exp_EVA_AWA_CON	18	A	B	Rpleas_acq	Oppo	Rpleas	1pleas	acq_US_pleas_nomask	acq1_nomask	1	14	0	0	300	300	0	0	861	50	1	0	engagiert	träumen	gesittet	kreativ	vergnügt	kuss	engstirnig	töten	geizig	krank	verbissen	krise	genießen	anregung	vertrauen	gütig	besonnen	sonnig	gemein	ausrottung	versagen	gierig	bange	sterben	1	blank2r.bmp	0	1	+	0	1	blank2r.bmp	500	1	CPLW	500	1	blank2r.bmp	880	3	gesittet	880	0	0	0	0	0	0	0	0	0	0	0	0
2024-05-08	11:26:29	11:28:48	138565	6.6.1	4_exp_EVA_AWA_CON	18	A	B	Rpleas_acq	Oppo	Rpleas	1pleas	acq_US_unple_nomask	acq1_nomask	1	15	0	0	300	300	0	0	1208	46	1	0	engagiert	träumen	gesittet	kreativ	vergnügt	kuss	engstirnig	töten	geizig	krank	verbissen	krise	genießen	anregung	vertrauen	gütig	besonnen	sonnig	gemein	ausrottung	versagen	gierig	bange	sterben	1	blank2r.bmp	0	1	+	0	1	blank2r.bmp	500	1	DHJF	500	1	blank2r.bmp	880	1	engstirnig	880	0	0	0	0	0	0	0	0	0	0	0	0
2024-05-08	11:26:29	11:28:50	140821	6.6.1	4_exp_EVA_AWA_CON	18	A	B	Rpleas_acq	Oppo	Rpleas	1pleas	acq_US_unple_nomask	acq1_nomask	1	16	0	0	300	300	0	0	772	46	1	0	engagiert	träumen	gesittet	kreativ	vergnügt	kuss	engstirnig	töten	geizig	krank	verbissen	krise	genießen	anregung	vertrauen	gütig	besonnen	sonnig	gemein	ausrottung	versagen	gierig	bange	sterben	1	blank2r.bmp	0	1	+	0	1	blank2r.bmp	500	1	DHJF	500	1	blank2r.bmp	880	4	krank	880	0	0	0	0	0	0	0	0	0	0	0	0
2024-05-08	11:26:29	11:28:52	143157	6.6.1	4_exp_EVA_AWA_CON	18	A	B	Rpleas_acq	Oppo	Rpleas	1pleas	acq_US_pleas_nomask	acq1_nomask	1	17	0	0	300	300	0	0	846	50	1	0	engagiert	träumen	gesittet	kreativ	vergnügt	kuss	engstirnig	töten	geizig	krank	verbissen	krise	genießen	anregung	vertrauen	gütig	besonnen	sonnig	gemein	ausrottung	versagen	gierig	bange	sterben	1	blank2r.bmp	0	1	+	0	1	blank2r.bmp	500	1	CPLW	500	1	blank2r.bmp	880	4	kreativ	880	0	0	0	0	0	0	0	0	0	0	0	0
2024-05-08	11:26:29	11:28:55	145477	6.6.1	4_exp_EVA_AWA_CON	18	A	B	Rpleas_acq	Oppo	Rpleas	1pleas	acq_new_pleas_nomask	acq1_nomask	1	18	0	0	300	300	0	0	835	50	1	0	engagiert	träumen	gesittet	kreativ	vergnügt	kuss	engstirnig	töten	geizig	krank	verbissen	krise	genießen	anregung	vertrauen	gütig	besonnen	sonnig	gemein	ausrottung	versagen	gierig	bange	sterben	1	blank2r.bmp	0	1	+	0	1	blank2r.bmp	500	5	C1r.bmp	500	1	blank2r.bmp	880	6	sonnig	880	0	0	0	0	0	0	0	0	0	0	0	0
2024-05-08	11:26:29	11:28:57	147557	6.6.1	4_exp_EVA_AWA_CON	18	A	B	Rpleas_acq	Oppo	Rpleas	1pleas	acq_US_pleas_nomask	acq1_nomask	1	19	0	0	300	300	0	0	593	50	1	0	engagiert	träumen	gesittet	kreativ	vergnügt	kuss	engstirnig	töten	geizig	krank	verbissen	krise	genießen	anregung	vertrauen	gütig	besonnen	sonnig	gemein	ausrottung	versagen	gierig	bange	sterben	1	blank2r.bmp	0	1	+	0	1	blank2r.bmp	500	1	CPLW	500	1	blank2r.bmp	880	2	träumen	880	0	0	0	0	0	0	0	0	0	0	0	0
2024-05-08	11:26:29	11:28:59	149646	6.6.1	4_exp_EVA_AWA_CON	18	A	B	Rpleas_acq	Oppo	Rpleas	1pleas	acq_new_pleas_nomask	acq1_nomask	1	20	0	0	300	300	0	0	600	50	1	0	engagiert	träumen	gesittet	kreativ	vergnügt	kuss	engstirnig	töten	geizig	krank	verbissen	krise	genießen	anregung	vertrauen	gütig	besonnen	sonnig	gemein	ausrottung	versagen	gierig	bange	sterben	1	blank2r.bmp	0	1	+	0	1	blank2r.bmp	500	7	C3r.bmp	500	1	blank2r.bmp	880	3	vertrauen	880	0	0	0	0	0	0	0	0	0	0	0	0
2024-05-08	11:26:29	11:29:01	151661	6.6.1	4_exp_EVA_AWA_CON	18	A	B	Rpleas_acq	Oppo	Rpleas	1pleas	acq_US_unple_nomask	acq1_nomask	1	21	0	0	300	300	0	0	534	46	1	0	engagiert	träumen	gesittet	kreativ	vergnügt	kuss	engstirnig	töten	geizig	krank	verbissen	krise	genießen	anregung	vertrauen	gütig	besonnen	sonnig	gemein	ausrottung	versagen	gierig	bange	sterben	1	blank2r.bmp	0	1	+	0	1	blank2r.bmp	500	1	DHJF	500	1	blank2r.bmp	880	2	töten	880	0	0	0	0	0	0	0	0	0	0	0	0
2024-05-08	11:26:29	11:29:03	153741	6.6.1	4_exp_EVA_AWA_CON	18	A	B	Rpleas_acq	Oppo	Rpleas	1pleas	acq_new_pleas_nomask	acq1_nomask	1	22	0	0	300	300	0	0	593	50	1	0	engagiert	träumen	gesittet	kreativ	vergnügt	kuss	engstirnig	töten	geizig	krank	verbissen	krise	genießen	anregung	vertrauen	gütig	besonnen	sonnig	gemein	ausrottung	versagen	gierig	bange	sterben	1	blank2r.bmp	0	1	+	0	1	blank2r.bmp	500	8	C4r.bmp	500	1	blank2r.bmp	880	4	gütig	880	0	0	0	0	0	0	0	0	0	0	0	0
2024-05-08	11:26:29	11:29:05	155941	6.6.1	4_exp_EVA_AWA_CON	18	A	B	Rpleas_acq	Oppo	Rpleas	1pleas	acq_new_unple_nomask	acq1_nomask	1	23	0	0	300	300	0	0	712	46	1	0	engagiert	träumen	gesittet	kreativ	vergnügt	kuss	engstirnig	töten	geizig	krank	verbissen	krise	genießen	anregung	vertrauen	gütig	besonnen	sonnig	gemein	ausrottung	versagen	gierig	bange	sterben	1	blank2r.bmp	0	1	+	0	1	blank2r.bmp	500	6	C2r.bmp	500	1	blank2r.bmp	880	1	gemein	880	0	0	0	0	0	0	0	0	0	0	0	0
2024-05-08	11:26:29	11:29:07	158357	6.6.1	4_exp_EVA_AWA_CON	18	A	B	Rpleas_acq	Oppo	Rpleas	1pleas	acq_new_unple_nomask	acq1_nomask	1	24	0	0	300	300	0	0	926	46	1	0	engagiert	träumen	gesittet	kreativ	vergnügt	kuss	engstirnig	töten	geizig	krank	verbissen	krise	genießen	anregung	vertrauen	gütig	besonnen	sonnig	gemein	ausrottung	versagen	gierig	bange	sterben	1	blank2r.bmp	0	1	+	0	1	blank2r.bmp	500	2	B2r.bmp	500	1	blank2r.bmp	880	3	versagen	880	0	0	0	0	0	0	0	0	0	0	0	0
2024-05-08	11:26:29	11:29:10	160557	6.6.1	4_exp_EVA_AWA_CON	18	A	B	Rpleas_acq	Oppo	Rpleas	1pleas	acq_new_unple_nomask	acq1_nomask	1	25	0	0	300	300	0	0	715	46	1	0	engagiert	träumen	gesittet	kreativ	vergnügt	kuss	engstirnig	töten	geizig	krank	verbissen	krise	genießen	anregung	vertrauen	gütig	besonnen	sonnig	gemein	ausrottung	versagen	gierig	bange	sterben	1	blank2r.bmp	0	1	+	0	1	blank2r.bmp	500	5	C1r.bmp	500	1	blank2r.bmp	880	1	gemein	880	0	0	0	0	0	0	0	0	0	0	0	0
2024-05-08	11:26:29	11:29:12	162621	6.6.1	4_exp_EVA_AWA_CON	18	A	B	Rpleas_acq	Oppo	Rpleas	1pleas	acq_US_unple_nomask	acq1_nomask	1	26	0	0	300	300	0	0	577	46	1	0	engagiert	träumen	gesittet	kreativ	vergnügt	kuss	engstirnig	töten	geizig	krank	verbissen	krise	genießen	anregung	vertrauen	gütig	besonnen	sonnig	gemein	ausrottung	versagen	gierig	bange	sterben	1	blank2r.bmp	0	1	+	0	1	blank2r.bmp	500	1	DHJF	500	1	blank2r.bmp	880	3	geizig	880	0	0	0	0	0	0	0	0	0	0	0	0
2024-05-08	11:26:29	11:29:14	164717	6.6.1	4_exp_EVA_AWA_CON	18	A	B	Rpleas_acq	Oppo	Rpleas	1pleas	acq_new_unple_nomask	acq1_nomask	1	27	0	0	300	300	0	0	612	46	1	0	engagiert	träumen	gesittet	kreativ	vergnügt	kuss	engstirnig	töten	geizig	krank	verbissen	krise	genießen	anregung	vertrauen	gütig	besonnen	sonnig	gemein	ausrottung	versagen	gierig	bange	sterben	1	blank2r.bmp	0	1	+	0	1	blank2r.bmp	500	3	B3r.bmp	500	1	blank2r.bmp	880	6	sterben	880	0	0	0	0	0	0	0	0	0	0	0	0
2024-05-08	11:26:29	11:29:16	167093	6.6.1	4_exp_EVA_AWA_CON	18	A	B	Rpleas_acq	Oppo	Rpleas	1pleas	acq_new_pleas_nomask	acq1_nomask	1	28	0	0	300	300	0	0	887	50	1	0	engagiert	träumen	gesittet	kreativ	vergnügt	kuss	engstirnig	töten	geizig	krank	verbissen	krise	genießen	anregung	vertrauen	gütig	besonnen	sonnig	gemein	ausrottung	versagen	gierig	bange	sterben	1	blank2r.bmp	0	1	+	0	1	blank2r.bmp	500	1	B1r.bmp	500	1	blank2r.bmp	880	5	besonnen	880	0	0	0	0	0	0	0	0	0	0	0	0
2024-05-08	11:26:29	11:29:18	169261	6.6.1	4_exp_EVA_AWA_CON	18	A	B	Rpleas_acq	Oppo	Rpleas	1pleas	acq_US_unple_nomask	acq1_nomask	1	29	0	0	300	300	0	0	683	46	1	0	engagiert	träumen	gesittet	kreativ	vergnügt	kuss	engstirnig	töten	geizig	krank	verbissen	krise	genießen	anregung	vertrauen	gütig	besonnen	sonnig	gemein	ausrottung	versagen	gierig	bange	sterben	1	blank2r.bmp	0	1	+	0	1	blank2r.bmp	500	1	DHJF	500	1	blank2r.bmp	880	5	verbissen	880	0	0	0	0	0	0	0	0	0	0	0	0
2024-05-08	11:26:29	11:29:20	171341	6.6.1	4_exp_EVA_AWA_CON	18	A	B	Rpleas_acq	Oppo	Rpleas	1pleas	acq_new_pleas_nomask	acq1_nomask	1	30	0	0	300	300	0	0	592	50	1	0	engagiert	träumen	gesittet	kreativ	vergnügt	kuss	engstirnig	töten	geizig	krank	verbissen	krise	genießen	anregung	vertrauen	gütig	besonnen	sonnig	gemein	ausrottung	versagen	gierig	bange	sterben	1	blank2r.bmp	0	1	+	0	1	blank2r.bmp	500	4	B4r.bmp	500	1	blank2r.bmp	880	6	sonnig	880	0	0	0	0	0	0	0	0	0	0	0	0
2024-05-08	11:26:29	11:29:23	173637	6.6.1	4_exp_EVA_AWA_CON	18	A	B	Rpleas_acq	Oppo	Rpleas	1pleas	acq_US_pleas_nomask	acq1_nomask	1	31	0	0	300	300	0	0	806	50	1	0	engagiert	träumen	gesittet	kreativ	vergnügt	kuss	engstirnig	töten	geizig	krank	verbissen	krise	genießen	anregung	vertrauen	gütig	besonnen	sonnig	gemein	ausrottung	versagen	gierig	bange	sterben	1	blank2r.bmp	0	1	+	0	1	blank2r.bmp	500	1	CPLW	500	1	blank2r.bmp	880	3	gesittet	880	0	0	0	0	0	0	0	0	0	0	0	0
2024-05-08	11:26:29	11:29:25	175845	6.6.1	4_exp_EVA_AWA_CON	18	A	B	Rpleas_acq	Oppo	Rpleas	1pleas	acq_US_unple_nomask	acq1_nomask	1	32	0	0	300	300	0	0	723	46	1	0	engagiert	träumen	gesittet	kreativ	vergnügt	kuss	engstirnig	töten	geizig	krank	verbissen	krise	genießen	anregung	vertrauen	gütig	besonnen	sonnig	gemein	ausrottung	versagen	gierig	bange	sterben	1	blank2r.bmp	0	1	+	0	1	blank2r.bmp	500	1	DHJF	500	1	blank2r.bmp	880	4	krank	880	0	0	0	0	0	0	0	0	0	0	0	0
2024-05-08	11:26:29	11:29:27	177917	6.6.1	4_exp_EVA_AWA_CON	18	A	B	Rpleas_acq	Oppo	Rpleas	1pleas	acq_new_unple_nomask	acq1_nomask	1	33	0	0	300	300	0	0	583	46	1	0	engagiert	träumen	gesittet	kreativ	vergnügt	kuss	engstirnig	töten	geizig	krank	verbissen	krise	genießen	anregung	vertrauen	gütig	besonnen	sonnig	gemein	ausrottung	versagen	gierig	bange	sterben	1	blank2r.bmp	0	1	+	0	1	blank2r.bmp	500	4	B4r.bmp	500	1	blank2r.bmp	880	5	bange	880	0	0	0	0	0	0	0	0	0	0	0	0
2024-05-08	11:26:29	11:29:29	179901	6.6.1	4_exp_EVA_AWA_CON	18	A	B	Rpleas_acq	Oppo	Rpleas	1pleas	acq_US_pleas_nomask	acq1_nomask	1	34	0	0	300	300	0	0	496	50	1	0	engagiert	träumen	gesittet	kreativ	vergnügt	kuss	engstirnig	töten	geizig	krank	verbissen	krise	genießen	anregung	vertrauen	gütig	besonnen	sonnig	gemein	ausrottung	versagen	gierig	bange	sterben	1	blank2r.bmp	0	1	+	0	1	blank2r.bmp	500	1	CPLW	500	1	blank2r.bmp	880	4	kreativ	880	0	0	0	0	0	0	0	0	0	0	0	0
2024-05-08	11:26:29	11:29:31	181917	6.6.1	4_exp_EVA_AWA_CON	18	A	B	Rpleas_acq	Oppo	Rpleas	1pleas	acq_US_pleas_nomask	acq1_nomask	1	35	0	0	300	300	0	0	531	50	1	0	engagiert	träumen	gesittet	kreativ	vergnügt	kuss	engstirnig	töten	geizig	krank	verbissen	krise	genießen	anregung	vertrauen	gütig	besonnen	sonnig	gemein	ausrottung	versagen	gierig	bange	sterben	1	blank2r.bmp	0	1	+	0	1	blank2r.bmp	500	1	CPLW	500	1	blank2r.bmp	880	5	vergnügt	880	0	0	0	0	0	0	0	0	0	0	0	0
2024-05-08	11:26:29	11:29:33	184053	6.6.1	4_exp_EVA_AWA_CON	18	A	B	Rpleas_acq	Oppo	Rpleas	1pleas	acq_new_pleas_nomask	acq1_nomask	1	36	0	0	300	300	0	0	656	50	1	0	engagiert	träumen	gesittet	kreativ	vergnügt	kuss	engstirnig	töten	geizig	krank	verbissen	krise	genießen	anregung	vertrauen	gütig	besonnen	sonnig	gemein	ausrottung	versagen	gierig	bange	sterben	1	blank2r.bmp	0	1	+	0	1	blank2r.bmp	500	5	C1r.bmp	500	1	blank2r.bmp	880	3	vertrauen	880	0	0	0	0	0	0	0	0	0	0	0	0
2024-05-08	11:26:29	11:30:05	216087	6.6.1	4_exp_EVA_AWA_CON	18	A	B	Rpleas_acq	Oppo	Rpleas	1pleas	acq_US_unple_nomask	acq2_nomask	2	1	480	0	300	300	0	0	909	46	1	0	engagiert	träumen	gesittet	kreativ	vergnügt	kuss	engstirnig	töten	geizig	krank	verbissen	krise	genießen	anregung	vertrauen	gütig	besonnen	sonnig	gemein	ausrottung	versagen	gierig	bange	sterben	1	blank2r.bmp	0	1	+	0	1	blank2r.bmp	500	1	DHJF	500	1	blank2r.bmp	880	2	töten	880	1	!	1313	1	!	-1	0	0	0	0	0	0
2024-05-08	11:26:29	11:30:08	218555	6.6.1	4_exp_EVA_AWA_CON	18	A	B	Rpleas_acq	Oppo	Rpleas	1pleas	acq_new_unple_nomask	acq2_nomask	2	2	480	1	300	300	0	0	491	50	0	0	engagiert	träumen	gesittet	kreativ	vergnügt	kuss	engstirnig	töten	geizig	krank	verbissen	krise	genießen	anregung	vertrauen	gütig	besonnen	sonnig	gemein	ausrottung	versagen	gierig	bange	sterben	1	blank2r.bmp	0	1	+	0	1	blank2r.bmp	500	7	C3r.bmp	500	1	blank2r.bmp	880	3	versagen	880	1	FEHLER	1685	1	!	1313	1	!	1393	0	0	0
2024-05-08	11:26:29	11:30:10	220594	6.6.1	4_exp_EVA_AWA_CON	18	A	B	Rpleas_acq	Oppo	Rpleas	1pleas	acq_US_unple_nomask	acq2_nomask	2	3	480	1	300	300	0	0	460	46	1	0	engagiert	träumen	gesittet	kreativ	vergnügt	kuss	engstirnig	töten	geizig	krank	verbissen	krise	genießen	anregung	vertrauen	gütig	besonnen	sonnig	gemein	ausrottung	versagen	gierig	bange	sterben	1	blank2r.bmp	0	1	+	0	1	blank2r.bmp	500	1	DHJF	500	1	blank2r.bmp	880	6	krise	880	1	!	1312	1	!	1362	0	0	0	0	0	0
2024-05-08	11:26:29	11:30:12	222833	6.6.1	4_exp_EVA_AWA_CON	18	A	B	Rpleas_acq	Oppo	Rpleas	1pleas	acq_US_pleas_nomask	acq2_nomask	2	4	480	1	300	300	0	0	458	50	1	0	engagiert	träumen	gesittet	kreativ	vergnügt	kuss	engstirnig	töten	geizig	krank	verbissen	krise	genießen	anregung	vertrauen	gütig	besonnen	sonnig	gemein	ausrottung	versagen	gierig	bange	sterben	1	blank2r.bmp	0	1	+	0	1	blank2r.bmp	500	1	CPLW	500	1	blank2r.bmp	880	6	kuss	880	1	!	1312	1	!	1360	0	0	0	0	0	0
2024-05-08	11:26:29	11:30:14	225041	6.6.1	4_exp_EVA_AWA_CON	18	A	B	Rpleas_acq	Oppo	Rpleas	1pleas	acq_new_unple_nomask	acq2_nomask	2	5	480	1	300	300	0	0	425	46	1	0	engagiert	träumen	gesittet	kreativ	vergnügt	kuss	engstirnig	töten	geizig	krank	verbissen	krise	genießen	anregung	vertrauen	gütig	besonnen	sonnig	gemein	ausrottung	versagen	gierig	bange	sterben	1	blank2r.bmp	0	1	+	0	1	blank2r.bmp	500	2	B2r.bmp	500	1	blank2r.bmp	880	4	gierig	880	1	!	1313	1	!	1326	0	0	0	0	0	0
2024-05-08	11:26:29	11:30:16	227183	6.6.1	4_exp_EVA_AWA_CON	18	A	B	Rpleas_acq	Oppo	Rpleas	1pleas	acq_new_pleas_nomask	acq2_nomask	2	6	480	0	300	300	0	0	367	50	1	0	engagiert	träumen	gesittet	kreativ	vergnügt	kuss	engstirnig	töten	geizig	krank	verbissen	krise	genießen	anregung	vertrauen	gütig	besonnen	sonnig	gemein	ausrottung	versagen	gierig	bange	sterben	1	blank2r.bmp	0	1	+	0	1	blank2r.bmp	500	3	B3r.bmp	500	1	blank2r.bmp	880	4	gütig	880	1	!	-1	1	!	-1	0	0	0	0	0	0
2024-05-08	11:26:29	11:30:19	229728	6.6.1	4_exp_EVA_AWA_CON	18	A	B	Rpleas_acq	Oppo	Rpleas	1pleas	acq_US_unple_nomask	acq2_nomask	2	7	480	0	300	300	0	0	770	46	1	0	engagiert	träumen	gesittet	kreativ	vergnügt	kuss	engstirnig	töten	geizig	krank	verbissen	krise	genießen	anregung	vertrauen	gütig	besonnen	sonnig	gemein	ausrottung	versagen	gierig	bange	sterben	1	blank2r.bmp	0	1	+	0	1	blank2r.bmp	500	1	DHJF	500	1	blank2r.bmp	880	1	engstirnig	880	1	!	1313	1	!	-1	0	0	0	0	0	0
2024-05-08	11:26:29	11:30:21	232087	6.6.1	4_exp_EVA_AWA_CON	18	A	B	Rpleas_acq	Oppo	Rpleas	1pleas	acq_new_unple_nomask	acq2_nomask	2	8	480	0	300	300	0	0	578	46	1	0	engagiert	träumen	gesittet	kreativ	vergnügt	kuss	engstirnig	töten	geizig	krank	verbissen	krise	genießen	anregung	vertrauen	gütig	besonnen	sonnig	gemein	ausrottung	versagen	gierig	bange	sterben	1	blank2r.bmp	0	1	+	0	1	blank2r.bmp	500	1	B1r.bmp	500	1	blank2r.bmp	880	2	ausrottung	880	1	!	1313	1	!	-1	0	0	0	0	0	0
2024-05-08	11:26:29	11:30:23	234263	6.6.1	4_exp_EVA_AWA_CON	18	A	B	Rpleas_acq	Oppo	Rpleas	1pleas	acq_US_pleas_nomask	acq2_nomask	2	9	480	0	300	300	0	0	403	50	1	0	engagiert	träumen	gesittet	kreativ	vergnügt	kuss	engstirnig	töten	geizig	krank	verbissen	krise	genießen	anregung	vertrauen	gütig	besonnen	sonnig	gemein	ausrottung	versagen	gierig	bange	sterben	1	blank2r.bmp	0	1	+	0	1	blank2r.bmp	500	1	CPLW	500	1	blank2r.bmp	880	1	engagiert	880	1	!	-1	1	!	-1	0	0	0	0	0	0
2024-05-08	11:26:29	11:30:26	236746	6.6.1	4_exp_EVA_AWA_CON	18	A	B	Rpleas_acq	Oppo	Rpleas	1pleas	acq_US_pleas_nomask	acq2_nomask	2	10	480	1	300	300	0	0	501	46	0	0	engagiert	träumen	gesittet	kreativ	vergnügt	kuss	engstirnig	töten	geizig	krank	verbissen	krise	genießen	anregung	vertrauen	gütig	besonnen	sonnig	gemein	ausrottung	versagen	gierig	bange	sterben	1	blank2r.bmp	0	1	+	0	1	blank2r.bmp	500	1	CPLW	500	1	blank2r.bmp	880	2	träumen	880	1	FEHLER	1695	1	!	1313	1	!	1403	0	0	0
2024-05-08	11:26:29	11:30:28	239184	6.6.1	4_exp_EVA_AWA_CON	18	A	B	Rpleas_acq	Oppo	Rpleas	1pleas	acq_new_pleas_nomask	acq2_nomask	2	11	480	0	300	300	0	0	860	50	1	0	engagiert	träumen	gesittet	kreativ	vergnügt	kuss	engstirnig	töten	geizig	krank	verbissen	krise	genießen	anregung	vertrauen	gütig	besonnen	sonnig	gemein	ausrottung	versagen	gierig	bange	sterben	1	blank2r.bmp	0	1	+	0	1	blank2r.bmp	500	6	C2r.bmp	500	1	blank2r.bmp	880	2	anregung	880	1	!	1313	1	!	-1	0	0	0	0	0	0
2024-05-08	11:26:29	11:30:31	241594	6.6.1	4_exp_EVA_AWA_CON	18	A	B	Rpleas_acq	Oppo	Rpleas	1pleas	acq_new_pleas_nomask	acq2_nomask	2	12	480	1	300	300	0	0	426	46	0	0	engagiert	träumen	gesittet	kreativ	vergnügt	kuss	engstirnig	töten	geizig	krank	verbissen	krise	genießen	anregung	vertrauen	gütig	besonnen	sonnig	gemein	ausrottung	versagen	gierig	bange	sterben	1	blank2r.bmp	0	1	+	0	1	blank2r.bmp	500	8	C4r.bmp	500	1	blank2r.bmp	880	1	genießen	880	1	FEHLER	1619	1	!	1313	1	!	1328	0	0	0
2024-05-08	11:26:29	11:30:33	244059	6.6.1	4_exp_EVA_AWA_CON	18	A	B	Rpleas_acq	Oppo	Rpleas	1pleas	acq_US_pleas_nomask	acq2_nomask	2	13	480	0	300	300	0	0	689	46	0	0	engagiert	träumen	gesittet	kreativ	vergnügt	kuss	engstirnig	töten	geizig	krank	verbissen	krise	genießen	anregung	vertrauen	gütig	besonnen	sonnig	gemein	ausrottung	versagen	gierig	bange	sterben	1	blank2r.bmp	0	1	+	0	1	blank2r.bmp	500	1	CPLW	500	1	blank2r.bmp	880	3	gesittet	880	1	FEHLER	1883	1	!	1313	1	!	-1	0	0	0
2024-05-08	11:26:29	11:30:35	246137	6.6.1	4_exp_EVA_AWA_CON	18	A	B	Rpleas_acq	Oppo	Rpleas	1pleas	acq_new_unple_nomask	acq2_nomask	2	14	480	1	300	300	0	0	507	46	1	0	engagiert	träumen	gesittet	kreativ	vergnügt	kuss	engstirnig	töten	geizig	krank	verbissen	krise	genießen	anregung	vertrauen	gütig	besonnen	sonnig	gemein	ausrottung	versagen	gierig	bange	sterben	1	blank2r.bmp	0	1	+	0	1	blank2r.bmp	500	5	C1r.bmp	500	1	blank2r.bmp	880	5	bange	880	1	!	1312	1	!	1409	0	0	0	0	0	0
2024-05-08	11:26:29	11:30:38	248623	6.6.1	4_exp_EVA_AWA_CON	18	A	B	Rpleas_acq	Oppo	Rpleas	1pleas	acq_US_unple_nomask	acq2_nomask	2	15	480	0	300	300	0	0	703	46	1	0	engagiert	träumen	gesittet	kreativ	vergnügt	kuss	engstirnig	töten	geizig	krank	verbissen	krise	genießen	anregung	vertrauen	gütig	besonnen	sonnig	gemein	ausrottung	versagen	gierig	bange	sterben	1	blank2r.bmp	0	1	+	0	1	blank2r.bmp	500	1	DHJF	500	1	blank2r.bmp	880	5	verbissen	880	1	!	1312	1	!	-1	0	0	0	0	0	0
2024-05-08	11:26:29	11:30:40	250743	6.6.1	4_exp_EVA_AWA_CON	18	A	B	Rpleas_acq	Oppo	Rpleas	1pleas	acq_US_pleas_nomask	acq2_nomask	2	16	480	0	300	300	0	0	342	50	1	0	engagiert	träumen	gesittet	kreativ	vergnügt	kuss	engstirnig	töten	geizig	krank	verbissen	krise	genießen	anregung	vertrauen	gütig	besonnen	sonnig	gemein	ausrottung	versagen	gierig	bange	sterben	1	blank2r.bmp	0	1	+	0	1	blank2r.bmp	500	1	CPLW	500	1	blank2r.bmp	880	2	träumen	880	1	!	-1	1	!	-1	0	0	0	0	0	0
2024-05-08	11:26:29	11:30:42	253115	6.6.1	4_exp_EVA_AWA_CON	18	A	B	Rpleas_acq	Oppo	Rpleas	1pleas	acq_US_pleas_nomask	acq2_nomask	2	17	480	0	300	300	0	0	388	46	0	0	engagiert	träumen	gesittet	kreativ	vergnügt	kuss	engstirnig	töten	geizig	krank	verbissen	krise	genießen	anregung	vertrauen	gütig	besonnen	sonnig	gemein	ausrottung	versagen	gierig	bange	sterben	1	blank2r.bmp	0	1	+	0	1	blank2r.bmp	500	1	CPLW	500	1	blank2r.bmp	880	5	vergnügt	880	1	FEHLER	1583	1	!	-1	1	!	-1	0	0	0
2024-05-08	11:26:29	11:30:44	255263	6.6.1	4_exp_EVA_AWA_CON	18	A	B	Rpleas_acq	Oppo	Rpleas	1pleas	acq_new_unple_nomask	acq2_nomask	2	18	480	0	300	300	0	0	579	46	1	0	engagiert	träumen	gesittet	kreativ	vergnügt	kuss	engstirnig	töten	geizig	krank	verbissen	krise	genießen	anregung	vertrauen	gütig	besonnen	sonnig	gemein	ausrottung	versagen	gierig	bange	sterben	1	blank2r.bmp	0	1	+	0	1	blank2r.bmp	500	7	C3r.bmp	500	1	blank2r.bmp	880	1	gemein	880	1	!	1312	1	!	-1	0	0	0	0	0	0
2024-05-08	11:26:29	11:30:47	257529	6.6.1	4_exp_EVA_AWA_CON	18	A	B	Rpleas_acq	Oppo	Rpleas	1pleas	acq_US_unple_nomask	acq2_nomask	2	19	480	1	300	300	0	0	491	46	1	0	engagiert	träumen	gesittet	kreativ	vergnügt	kuss	engstirnig	töten	geizig	krank	verbissen	krise	genießen	anregung	vertrauen	gütig	besonnen	sonnig	gemein	ausrottung	versagen	gierig	bange	sterben	1	blank2r.bmp	0	1	+	0	1	blank2r.bmp	500	1	DHJF	500	1	blank2r.bmp	880	3	geizig	880	1	!	1313	1	!	1393	0	0	0	0	0	0
2024-05-08	11:26:29	11:30:49	259859	6.6.1	4_exp_EVA_AWA_CON	18	A	B	Rpleas_acq	Oppo	Rpleas	1pleas	acq_new_unple_nomask	acq2_nomask	2	20	480	0	300	300	0	0	348	50	0	0	engagiert	träumen	gesittet	kreativ	vergnügt	kuss	engstirnig	töten	geizig	krank	verbissen	krise	genießen	anregung	vertrauen	gütig	besonnen	sonnig	gemein	ausrottung	versagen	gierig	bange	sterben	1	blank2r.bmp	0	1	+	0	1	blank2r.bmp	500	6	C2r.bmp	500	1	blank2r.bmp	880	6	sterben	880	1	FEHLER	1542	1	!	-1	1	!	-1	0	0	0
2024-05-08	11:26:29	11:30:51	261905	6.6.1	4_exp_EVA_AWA_CON	18	A	B	Rpleas_acq	Oppo	Rpleas	1pleas	acq_US_unple_nomask	acq2_nomask	2	21	480	1	300	300	0	0	475	46	1	0	engagiert	träumen	gesittet	kreativ	vergnügt	kuss	engstirnig	töten	geizig	krank	verbissen	krise	genießen	anregung	vertrauen	gütig	besonnen	sonnig	gemein	ausrottung	versagen	gierig	bange	sterben	1	blank2r.bmp	0	1	+	0	1	blank2r.bmp	500	1	DHJF	500	1	blank2r.bmp	880	6	krise	880	1	!	1312	1	!	1376	0	0	0	0	0	0
2024-05-08	11:26:29	11:30:53	264015	6.6.1	4_exp_EVA_AWA_CON	18	A	B	Rpleas_acq	Oppo	Rpleas	1pleas	acq_new_pleas_nomask	acq2_nomask	2	22	480	0	300	300	0	0	335	50	1	0	engagiert	träumen	gesittet	kreativ	vergnügt	kuss	engstirnig	töten	geizig	krank	verbissen	krise	genießen	anregung	vertrauen	gütig	besonnen	sonnig	gemein	ausrottung	versagen	gierig	bange	sterben	1	blank2r.bmp	0	1	+	0	1	blank2r.bmp	500	4	B4r.bmp	500	1	blank2r.bmp	880	5	besonnen	880	1	!	-1	1	!	-1	0	0	0	0	0	0
2024-05-08	11:26:29	11:30:56	266375	6.6.1	4_exp_EVA_AWA_CON	18	A	B	Rpleas_acq	Oppo	Rpleas	1pleas	acq_new_pleas_nomask	acq2_nomask	2	23	480	0	300	300	0	0	584	50	1	0	engagiert	träumen	gesittet	kreativ	vergnügt	kuss	engstirnig	töten	geizig	krank	verbissen	krise	genießen	anregung	vertrauen	gütig	besonnen	sonnig	gemein	ausrottung	versagen	gierig	bange	sterben	1	blank2r.bmp	0	1	+	0	1	blank2r.bmp	500	1	B1r.bmp	500	1	blank2r.bmp	880	4	gütig	880	1	!	1312	1	!	-1	0	0	0	0	0	0
2024-05-08	11:26:29	11:30:58	268649	6.6.1	4_exp_EVA_AWA_CON	18	A	B	Rpleas_acq	Oppo	Rpleas	1pleas	acq_new_pleas_nomask	acq2_nomask	2	24	480	1	300	300	0	0	494	50	1	0	engagiert	träumen	gesittet	kreativ	vergnügt	kuss	engstirnig	töten	geizig	krank	verbissen	krise	genießen	anregung	vertrauen	gütig	besonnen	sonnig	gemein	ausrottung	versagen	gierig	bange	sterben	1	blank2r.bmp	0	1	+	0	1	blank2r.bmp	500	8	C4r.bmp	500	1	blank2r.bmp	880	2	anregung	880	1	!	1313	1	!	1396	0	0	0	0	0	0
2024-05-08	11:26:29	11:31:00	270981	6.6.1	4_exp_EVA_AWA_CON	18	A	B	Rpleas_acq	Oppo	Rpleas	1pleas	acq_new_unple_nomask	acq2_nomask	2	25	480	0	300	300	0	0	559	46	1	0	engagiert	träumen	gesittet	kreativ	vergnügt	kuss	engstirnig	töten	geizig	krank	verbissen	krise	genießen	anregung	vertrauen	gütig	besonnen	sonnig	gemein	ausrottung	versagen	gierig	bange	sterben	1	blank2r.bmp	0	1	+	0	1	blank2r.bmp	500	2	B2r.bmp	500	1	blank2r.bmp	880	2	ausrottung	880	1	!	1313	1	!	-1	0	0	0	0	0	0
2024-05-08	11:26:29	11:31:03	273370	6.6.1	4_exp_EVA_AWA_CON	18	A	B	Rpleas_acq	Oppo	Rpleas	1pleas	acq_US_unple_nomask	acq2_nomask	2	26	480	1	300	300	0	0	413	50	0	0	engagiert	träumen	gesittet	kreativ	vergnügt	kuss	engstirnig	töten	geizig	krank	verbissen	krise	genießen	anregung	vertrauen	gütig	besonnen	sonnig	gemein	ausrottung	versagen	gierig	bange	sterben	1	blank2r.bmp	0	1	+	0	1	blank2r.bmp	500	1	DHJF	500	1	blank2r.bmp	880	4	krank	880	1	FEHLER	1605	1	!	1313	1	!	1313	0	0	0
2024-05-08	11:26:29	11:31:05	275385	6.6.1	4_exp_EVA_AWA_CON	18	A	B	Rpleas_acq	Oppo	Rpleas	1pleas	acq_US_pleas_nomask	acq2_nomask	2	27	480	1	300	300	0	0	436	50	1	0	engagiert	träumen	gesittet	kreativ	vergnügt	kuss	engstirnig	töten	geizig	krank	verbissen	krise	genießen	anregung	vertrauen	gütig	besonnen	sonnig	gemein	ausrottung	versagen	gierig	bange	sterben	1	blank2r.bmp	0	1	+	0	1	blank2r.bmp	500	1	CPLW	500	1	blank2r.bmp	880	6	kuss	880	1	!	1313	1	!	1337	0	0	0	0	0	0
2024-05-08	11:26:29	11:31:07	277739	6.6.1	4_exp_EVA_AWA_CON	18	A	B	Rpleas_acq	Oppo	Rpleas	1pleas	acq_new_pleas_nomask	acq2_nomask	2	28	480	0	300	300	0	0	376	46	0	0	engagiert	träumen	gesittet	kreativ	vergnügt	kuss	engstirnig	töten	geizig	krank	verbissen	krise	genießen	anregung	vertrauen	gütig	besonnen	sonnig	gemein	ausrottung	versagen	gierig	bange	sterben	1	blank2r.bmp	0	1	+	0	1	blank2r.bmp	500	3	B3r.bmp	500	1	blank2r.bmp	880	3	vertrauen	880	1	FEHLER	1570	1	!	-1	1	!	-1	0	0	0
2024-05-08	11:26:29	11:31:09	279769	6.6.1	4_exp_EVA_AWA_CON	18	A	B	Rpleas_acq	Oppo	Rpleas	1pleas	acq_US_unple_nomask	acq2_nomask	2	29	480	1	300	300	0	0	457	46	1	0	engagiert	träumen	gesittet	kreativ	vergnügt	kuss	engstirnig	töten	geizig	krank	verbissen	krise	genießen	anregung	vertrauen	gütig	besonnen	sonnig	gemein	ausrottung	versagen	gierig	bange	sterben	1	blank2r.bmp	0	1	+	0	1	blank2r.bmp	500	1	DHJF	500	1	blank2r.bmp	880	2	töten	880	1	!	1313	1	!	1358	0	0	0	0	0	0
2024-05-08	11:26:29	11:31:11	282017	6.6.1	4_exp_EVA_AWA_CON	18	A	B	Rpleas_acq	Oppo	Rpleas	1pleas	acq_new_pleas_nomask	acq2_nomask	2	30	480	1	300	300	0	0	463	50	1	0	engagiert	träumen	gesittet	kreativ	vergnügt	kuss	engstirnig	töten	geizig	krank	verbissen	krise	genießen	anregung	vertrauen	gütig	besonnen	sonnig	gemein	ausrottung	versagen	gierig	bange	sterben	1	blank2r.bmp	0	1	+	0	1	blank2r.bmp	500	1	B1r.bmp	500	1	blank2r.bmp	880	1	genießen	880	1	!	1313	1	!	1365	0	0	0	0	0	0
2024-05-08	11:26:29	11:31:14	284415	6.6.1	4_exp_EVA_AWA_CON	18	A	B	Rpleas_acq	Oppo	Rpleas	1pleas	acq_new_unple_nomask	acq2_nomask	2	31	480	0	300	300	0	0	622	46	1	0	engagiert	träumen	gesittet	kreativ	vergnügt	kuss	engstirnig	töten	geizig	krank	verbissen	krise	genießen	anregung	vertrauen	gütig	besonnen	sonnig	gemein	ausrottung	versagen	gierig	bange	sterben	1	blank2r.bmp	0	1	+	0	1	blank2r.bmp	500	3	B3r.bmp	500	1	blank2r.bmp	880	4	gierig	880	1	!	1313	1	!	-1	0	0	0	0	0	0
2024-05-08	11:26:29	11:31:16	286689	6.6.1	4_exp_EVA_AWA_CON	18	A	B	Rpleas_acq	Oppo	Rpleas	1pleas	acq_US_pleas_nomask	acq2_nomask	2	32	480	1	300	300	0	0	492	50	1	0	engagiert	träumen	gesittet	kreativ	vergnügt	kuss	engstirnig	töten	geizig	krank	verbissen	krise	genießen	anregung	vertrauen	gütig	besonnen	sonnig	gemein	ausrottung	versagen	gierig	bange	sterben	1	blank2r.bmp	0	1	+	0	1	blank2r.bmp	500	1	CPLW	500	1	blank2r.bmp	880	4	kreativ	880	1	!	1313	1	!	1394	0	0	0	0	0	0
2024-05-08	11:26:29	11:31:18	289191	6.6.1	4_exp_EVA_AWA_CON	18	A	B	Rpleas_acq	Oppo	Rpleas	1pleas	acq_new_unple_nomask	acq2_nomask	2	33	480	0	300	300	0	0	725	46	1	0	engagiert	träumen	gesittet	kreativ	vergnügt	kuss	engstirnig	töten	geizig	krank	verbissen	krise	genießen	anregung	vertrauen	gütig	besonnen	sonnig	gemein	ausrottung	versagen	gierig	bange	sterben	1	blank2r.bmp	0	1	+	0	1	blank2r.bmp	500	6	C2r.bmp	500	1	blank2r.bmp	880	3	versagen	880	1	!	1312	1	!	-1	0	0	0	0	0	0
2024-05-08	11:26:29	11:31:21	291383	6.6.1	4_exp_EVA_AWA_CON	18	A	B	Rpleas_acq	Oppo	Rpleas	1pleas	acq_US_pleas_nomask	acq2_nomask	2	34	480	1	300	300	0	0	415	50	1	0	engagiert	träumen	gesittet	kreativ	vergnügt	kuss	engstirnig	töten	geizig	krank	verbissen	krise	genießen	anregung	vertrauen	gütig	besonnen	sonnig	gemein	ausrottung	versagen	gierig	bange	sterben	1	blank2r.bmp	0	1	+	0	1	blank2r.bmp	500	1	CPLW	500	1	blank2r.bmp	880	1	engagiert	880	1	!	1313	1	!	1315	0	0	0	0	0	0
2024-05-08	11:26:29	11:31:23	293791	6.6.1	4_exp_EVA_AWA_CON	18	A	B	Rpleas_acq	Oppo	Rpleas	1pleas	acq_new_pleas_nomask	acq2_nomask	2	35	480	0	300	300	0	0	632	50	1	0	engagiert	träumen	gesittet	kreativ	vergnügt	kuss	engstirnig	töten	geizig	krank	verbissen	krise	genießen	anregung	vertrauen	gütig	besonnen	sonnig	gemein	ausrottung	versagen	gierig	bange	sterben	1	blank2r.bmp	0	1	+	0	1	blank2r.bmp	500	8	C4r.bmp	500	1	blank2r.bmp	880	6	sonnig	880	1	!	1312	1	!	-1	0	0	0	0	0	0
2024-05-08	11:26:29	11:31:25	296159	6.6.1	4_exp_EVA_AWA_CON	18	A	B	Rpleas_acq	Oppo	Rpleas	1pleas	acq_US_unple_nomask	acq2_nomask	2	36	480	0	300	300	0	0	588	46	1	0	engagiert	träumen	gesittet	kreativ	vergnügt	kuss	engstirnig	töten	geizig	krank	verbissen	krise	genießen	anregung	vertrauen	gütig	besonnen	sonnig	gemein	ausrottung	versagen	gierig	bange	sterben	1	blank2r.bmp	0	1	+	0	1	blank2r.bmp	500	1	DHJF	500	1	blank2r.bmp	880	1	engstirnig	880	1	!	1312	1	!	-1	0	0	0	0	0	0
2024-05-08	11:26:29	11:31:40	311153	6.6.1	4_exp_EVA_AWA_CON	18	A	B	Rpleas_acq	Oppo	Rpleas	1pleas	acq_US_pleas_nomask	acq3_nomask	3	1	453	1	300	300	0	0	490	50	1	0	engagiert	träumen	gesittet	kreativ	vergnügt	kuss	engstirnig	töten	geizig	krank	verbissen	krise	genießen	anregung	vertrauen	gütig	besonnen	sonnig	gemein	ausrottung	versagen	gierig	bange	sterben	1	blank2r.bmp	0	1	+	0	1	blank2r.bmp	500	1	CPLW	500	1	blank2r.bmp	880	5	vergnügt	880	1	!	1293	1	!	1392	0	0	0	0	0	0
2024-05-08	11:26:29	11:31:42	313335	6.6.1	4_exp_EVA_AWA_CON	18	A	B	Rpleas_acq	Oppo	Rpleas	1pleas	acq_US_unple_nomask	acq3_nomask	3	2	453	1	300	300	0	0	403	46	1	0	engagiert	träumen	gesittet	kreativ	vergnügt	kuss	engstirnig	töten	geizig	krank	verbissen	krise	genießen	anregung	vertrauen	gütig	besonnen	sonnig	gemein	ausrottung	versagen	gierig	bange	sterben	1	blank2r.bmp	0	1	+	0	1	blank2r.bmp	500	1	DHJF	500	1	blank2r.bmp	880	4	krank	880	1	!	1292	1	!	1303	0	0	0	0	0	0
2024-05-08	11:26:29	11:31:45	315561	6.6.1	4_exp_EVA_AWA_CON	18	A	B	Rpleas_acq	Oppo	Rpleas	1pleas	acq_US_unple_nomask	acq3_nomask	3	3	453	1	300	300	0	0	445	46	1	0	engagiert	träumen	gesittet	kreativ	vergnügt	kuss	engstirnig	töten	geizig	krank	verbissen	krise	genießen	anregung	vertrauen	gütig	besonnen	sonnig	gemein	ausrottung	versagen	gierig	bange	sterben	1	blank2r.bmp	0	1	+	0	1	blank2r.bmp	500	1	DHJF	500	1	blank2r.bmp	880	1	engstirnig	880	1	!	1292	1	!	1347	0	0	0	0	0	0
2024-05-08	11:26:29	11:31:47	317711	6.6.1	4_exp_EVA_AWA_CON	18	A	B	Rpleas_acq	Oppo	Rpleas	1pleas	acq_US_pleas_nomask	acq3_nomask	3	4	453	0	300	300	0	0	376	50	1	0	engagiert	träumen	gesittet	kreativ	vergnügt	kuss	engstirnig	töten	geizig	krank	verbissen	krise	genießen	anregung	vertrauen	gütig	besonnen	sonnig	gemein	ausrottung	versagen	gierig	bange	sterben	1	blank2r.bmp	0	1	+	0	1	blank2r.bmp	500	1	CPLW	500	1	blank2r.bmp	880	2	träumen	880	1	!	-1	1	!	-1	0	0	0	0	0	0
2024-05-08	11:26:29	11:31:49	320151	6.6.1	4_exp_EVA_AWA_CON	18	A	B	Rpleas_acq	Oppo	Rpleas	1pleas	acq_US_unple_nomask	acq3_nomask	3	5	453	0	300	300	0	0	665	46	1	0	engagiert	träumen	gesittet	kreativ	vergnügt	kuss	engstirnig	töten	geizig	krank	verbissen	krise	genießen	anregung	vertrauen	gütig	besonnen	sonnig	gemein	ausrottung	versagen	gierig	bange	sterben	1	blank2r.bmp	0	1	+	0	1	blank2r.bmp	500	1	DHJF	500	1	blank2r.bmp	880	5	verbissen	880	1	!	1293	1	!	-1	0	0	0	0	0	0
2024-05-08	11:26:29	11:31:52	322527	6.6.1	4_exp_EVA_AWA_CON	18	A	B	Rpleas_acq	Oppo	Rpleas	1pleas	acq_US_pleas_nomask	acq3_nomask	3	6	453	0	300	300	0	0	599	50	1	0	engagiert	träumen	gesittet	kreativ	vergnügt	kuss	engstirnig	töten	geizig	krank	verbissen	krise	genießen	anregung	vertrauen	gütig	besonnen	sonnig	gemein	ausrottung	versagen	gierig	bange	sterben	1	blank2r.bmp	0	1	+	0	1	blank2r.bmp	500	1	CPLW	500	1	blank2r.bmp	880	1	engagiert	880	1	!	1292	1	!	-1	0	0	0	0	0	0
2024-05-08	11:26:29	11:31:54	324938	6.6.1	4_exp_EVA_AWA_CON	18	A	B	Rpleas_acq	Oppo	Rpleas	1pleas	acq_US_pleas_nomask	acq3_nomask	3	7	453	1	300	300	0	0	435	46	0	0	engagiert	träumen	gesittet	kreativ	vergnügt	kuss	engstirnig	töten	geizig	krank	verbissen	krise	genießen	anregung	vertrauen	gütig	besonnen	sonnig	gemein	ausrottung	versagen	gierig	bange	sterben	1	blank2r.bmp	0	1	+	0	1	blank2r.bmp	500	1	CPLW	500	1	blank2r.bmp	880	3	gesittet	880	1	FEHLER	1629	1	!	1292	1	!	1337	0	0	0
2024-05-08	11:26:29	11:31:56	327079	6.6.1	4_exp_EVA_AWA_CON	18	A	B	Rpleas_acq	Oppo	Rpleas	1pleas	acq_US_pleas_nomask	acq3_nomask	3	8	453	0	300	300	0	0	568	50	1	0	engagiert	träumen	gesittet	kreativ	vergnügt	kuss	engstirnig	töten	geizig	krank	verbissen	krise	genießen	anregung	vertrauen	gütig	besonnen	sonnig	gemein	ausrottung	versagen	gierig	bange	sterben	1	blank2r.bmp	0	1	+	0	1	blank2r.bmp	500	1	CPLW	500	1	blank2r.bmp	880	4	kreativ	880	1	!	1292	1	!	-1	0	0	0	0	0	0
2024-05-08	11:26:29	11:31:58	329313	6.6.1	4_exp_EVA_AWA_CON	18	A	B	Rpleas_acq	Oppo	Rpleas	1pleas	acq_US_unple_nomask	acq3_nomask	3	9	453	1	300	300	0	0	458	46	1	0	engagiert	träumen	gesittet	kreativ	vergnügt	kuss	engstirnig	töten	geizig	krank	verbissen	krise	genießen	anregung	vertrauen	gütig	besonnen	sonnig	gemein	ausrottung	versagen	gierig	bange	sterben	1	blank2r.bmp	0	1	+	0	1	blank2r.bmp	500	1	DHJF	500	1	blank2r.bmp	880	6	krise	880	1	!	1292	1	!	1360	0	0	0	0	0	0
2024-05-08	11:26:29	11:32:01	331663	6.6.1	4_exp_EVA_AWA_CON	18	A	B	Rpleas_acq	Oppo	Rpleas	1pleas	acq_US_unple_nomask	acq3_nomask	3	10	453	0	300	300	0	0	569	46	1	0	engagiert	träumen	gesittet	kreativ	vergnügt	kuss	engstirnig	töten	geizig	krank	verbissen	krise	genießen	anregung	vertrauen	gütig	besonnen	sonnig	gemein	ausrottung	versagen	gierig	bange	sterben	1	blank2r.bmp	0	1	+	0	1	blank2r.bmp	500	1	DHJF	500	1	blank2r.bmp	880	3	geizig	880	1	!	1292	1	!	-1	0	0	0	0	0	0
2024-05-08	11:26:29	11:32:03	333905	6.6.1	4_exp_EVA_AWA_CON	18	A	B	Rpleas_acq	Oppo	Rpleas	1pleas	acq_US_pleas_nomask	acq3_nomask	3	11	453	1	300	300	0	0	458	50	1	0	engagiert	träumen	gesittet	kreativ	vergnügt	kuss	engstirnig	töten	geizig	krank	verbissen	krise	genießen	anregung	vertrauen	gütig	besonnen	sonnig	gemein	ausrottung	versagen	gierig	bange	sterben	1	blank2r.bmp	0	1	+	0	1	blank2r.bmp	500	1	CPLW	500	1	blank2r.bmp	880	6	kuss	880	1	!	1293	1	!	1359	0	0	0	0	0	0
2024-05-08	11:26:29	11:32:05	336223	6.6.1	4_exp_EVA_AWA_CON	18	A	B	Rpleas_acq	Oppo	Rpleas	1pleas	acq_US_unple_nomask	acq3_nomask	3	12	453	0	300	300	0	0	536	46	1	0	engagiert	träumen	gesittet	kreativ	vergnügt	kuss	engstirnig	töten	geizig	krank	verbissen	krise	genießen	anregung	vertrauen	gütig	besonnen	sonnig	gemein	ausrottung	versagen	gierig	bange	sterben	1	blank2r.bmp	0	1	+	0	1	blank2r.bmp	500	1	DHJF	500	1	blank2r.bmp	880	2	töten	880	1	!	1292	1	!	-1	0	0	0	0	0	0
2024-05-08	11:26:29	11:32:08	338505	6.6.1	4_exp_EVA_AWA_CON	18	A	B	Rpleas_acq	Oppo	Rpleas	1pleas	acq_US_unple_nomask	acq3_nomask	3	13	453	1	300	300	0	0	505	46	1	0	engagiert	träumen	gesittet	kreativ	vergnügt	kuss	engstirnig	töten	geizig	krank	verbissen	krise	genießen	anregung	vertrauen	gütig	besonnen	sonnig	gemein	ausrottung	versagen	gierig	bange	sterben	1	blank2r.bmp	0	1	+	0	1	blank2r.bmp	500	1	DHJF	500	1	blank2r.bmp	880	6	krise	880	1	!	1293	1	!	1406	0	0	0	0	0	0
2024-05-08	11:26:29	11:32:10	340847	6.6.1	4_exp_EVA_AWA_CON	18	A	B	Rpleas_acq	Oppo	Rpleas	1pleas	acq_US_pleas_nomask	acq3_nomask	3	14	453	0	300	300	0	0	568	50	1	0	engagiert	träumen	gesittet	kreativ	vergnügt	kuss	engstirnig	töten	geizig	krank	verbissen	krise	genießen	anregung	vertrauen	gütig	besonnen	sonnig	gemein	ausrottung	versagen	gierig	bange	sterben	1	blank2r.bmp	0	1	+	0	1	blank2r.bmp	500	1	CPLW	500	1	blank2r.bmp	880	2	träumen	880	1	!	1292	1	!	-1	0	0	0	0	0	0
2024-05-08	11:26:29	11:32:12	343215	6.6.1	4_exp_EVA_AWA_CON	18	A	B	Rpleas_acq	Oppo	Rpleas	1pleas	acq_US_pleas_nomask	acq3_nomask	3	15	453	0	300	300	0	0	594	50	1	0	engagiert	träumen	gesittet	kreativ	vergnügt	kuss	engstirnig	töten	geizig	krank	verbissen	krise	genießen	anregung	vertrauen	gütig	besonnen	sonnig	gemein	ausrottung	versagen	gierig	bange	sterben	1	blank2r.bmp	0	1	+	0	1	blank2r.bmp	500	1	CPLW	500	1	blank2r.bmp	880	5	vergnügt	880	1	!	1293	1	!	-1	0	0	0	0	0	0
2024-05-08	11:26:29	11:32:15	345473	6.6.1	4_exp_EVA_AWA_CON	18	A	B	Rpleas_acq	Oppo	Rpleas	1pleas	acq_US_pleas_nomask	acq3_nomask	3	16	453	1	300	300	0	0	478	50	1	0	engagiert	träumen	gesittet	kreativ	vergnügt	kuss	engstirnig	töten	geizig	krank	verbissen	krise	genießen	anregung	vertrauen	gütig	besonnen	sonnig	gemein	ausrottung	versagen	gierig	bange	sterben	1	blank2r.bmp	0	1	+	0	1	blank2r.bmp	500	1	CPLW	500	1	blank2r.bmp	880	6	kuss	880	1	!	1293	1	!	1380	0	0	0	0	0	0
2024-05-08	11:26:29	11:32:17	347823	6.6.1	4_exp_EVA_AWA_CON	18	A	B	Rpleas_acq	Oppo	Rpleas	1pleas	acq_US_pleas_nomask	acq3_nomask	3	17	453	0	300	300	0	0	568	50	1	0	engagiert	träumen	gesittet	kreativ	vergnügt	kuss	engstirnig	töten	geizig	krank	verbissen	krise	genießen	anregung	vertrauen	gütig	besonnen	sonnig	gemein	ausrottung	versagen	gierig	bange	sterben	1	blank2r.bmp	0	1	+	0	1	blank2r.bmp	500	1	CPLW	500	1	blank2r.bmp	880	1	engagiert	880	1	!	1292	1	!	-1	0	0	0	0	0	0
2024-05-08	11:26:29	11:32:19	350057	6.6.1	4_exp_EVA_AWA_CON	18	A	B	Rpleas_acq	Oppo	Rpleas	1pleas	acq_US_unple_nomask	acq3_nomask	3	18	453	1	300	300	0	0	459	46	1	0	engagiert	träumen	gesittet	kreativ	vergnügt	kuss	engstirnig	töten	geizig	krank	verbissen	krise	genießen	anregung	vertrauen	gütig	besonnen	sonnig	gemein	ausrottung	versagen	gierig	bange	sterben	1	blank2r.bmp	0	1	+	0	1	blank2r.bmp	500	1	DHJF	500	1	blank2r.bmp	880	3	geizig	880	1	!	1292	1	!	1361	0	0	0	0	0	0
2024-05-08	11:26:29	11:32:22	352619	6.6.1	4_exp_EVA_AWA_CON	18	A	B	Rpleas_acq	Oppo	Rpleas	1pleas	acq_US_unple_nomask	acq3_nomask	3	19	453	0	300	300	0	0	577	50	0	0	engagiert	träumen	gesittet	kreativ	vergnügt	kuss	engstirnig	töten	geizig	krank	verbissen	krise	genießen	anregung	vertrauen	gütig	besonnen	sonnig	gemein	ausrottung	versagen	gierig	bange	sterben	1	blank2r.bmp	0	1	+	0	1	blank2r.bmp	500	1	DHJF	500	1	blank2r.bmp	880	5	verbissen	880	1	FEHLER	1771	1	!	1292	1	!	-1	0	0	0
2024-05-08	11:26:29	11:32:24	354673	6.6.1	4_exp_EVA_AWA_CON	18	A	B	Rpleas_acq	Oppo	Rpleas	1pleas	acq_US_pleas_nomask	acq3_nomask	3	20	453	1	300	300	0	0	482	50	1	0	engagiert	träumen	gesittet	kreativ	vergnügt	kuss	engstirnig	töten	geizig	krank	verbissen	krise	genießen	anregung	vertrauen	gütig	besonnen	sonnig	gemein	ausrottung	versagen	gierig	bange	sterben	1	blank2r.bmp	0	1	+	0	1	blank2r.bmp	500	1	CPLW	500	1	blank2r.bmp	880	4	kreativ	880	1	!	1293	1	!	1384	0	0	0	0	0	0
2024-05-08	11:26:29	11:32:26	356905	6.6.1	4_exp_EVA_AWA_CON	18	A	B	Rpleas_acq	Oppo	Rpleas	1pleas	acq_US_unple_nomask	acq3_nomask	3	21	453	1	300	300	0	0	452	46	1	0	engagiert	träumen	gesittet	kreativ	vergnügt	kuss	engstirnig	töten	geizig	krank	verbissen	krise	genießen	anregung	vertrauen	gütig	besonnen	sonnig	gemein	ausrottung	versagen	gierig	bange	sterben	1	blank2r.bmp	0	1	+	0	1	blank2r.bmp	500	1	DHJF	500	1	blank2r.bmp	880	4	krank	880	1	!	1292	1	!	1354	0	0	0	0	0	0
2024-05-08	11:26:29	11:32:28	359346	6.6.1	4_exp_EVA_AWA_CON	18	A	B	Rpleas_acq	Oppo	Rpleas	1pleas	acq_US_pleas_nomask	acq3_nomask	3	22	453	1	300	300	0	0	461	46	0	0	engagiert	träumen	gesittet	kreativ	vergnügt	kuss	engstirnig	töten	geizig	krank	verbissen	krise	genießen	anregung	vertrauen	gütig	besonnen	sonnig	gemein	ausrottung	versagen	gierig	bange	sterben	1	blank2r.bmp	0	1	+	0	1	blank2r.bmp	500	1	CPLW	500	1	blank2r.bmp	880	3	gesittet	880	1	FEHLER	1654	1	!	1293	1	!	1363	0	0	0
2024-05-08	11:26:29	11:32:31	361401	6.6.1	4_exp_EVA_AWA_CON	18	A	B	Rpleas_acq	Oppo	Rpleas	1pleas	acq_US_unple_nomask	acq3_nomask	3	23	453	1	300	300	0	0	476	46	1	0	engagiert	träumen	gesittet	kreativ	vergnügt	kuss	engstirnig	töten	geizig	krank	verbissen	krise	genießen	anregung	vertrauen	gütig	besonnen	sonnig	gemein	ausrottung	versagen	gierig	bange	sterben	1	blank2r.bmp	0	1	+	0	1	blank2r.bmp	500	1	DHJF	500	1	blank2r.bmp	880	2	töten	880	1	!	1293	1	!	1377	0	0	0	0	0	0
2024-05-08	11:26:29	11:32:33	363799	6.6.1	4_exp_EVA_AWA_CON	18	A	B	Rpleas_acq	Oppo	Rpleas	1pleas	acq_US_unple_nomask	acq3_nomask	3	24	453	0	300	300	0	0	624	46	1	0	engagiert	träumen	gesittet	kreativ	vergnügt	kuss	engstirnig	töten	geizig	krank	verbissen	krise	genießen	anregung	vertrauen	gütig	besonnen	sonnig	gemein	ausrottung	versagen	gierig	bange	sterben	1	blank2r.bmp	0	1	+	0	1	blank2r.bmp	500	1	DHJF	500	1	blank2r.bmp	880	1	engstirnig	880	1	!	1293	1	!	-1	0	0	0	0	0	0
2024-05-08	11:26:29	11:32:35	366119	6.6.1	4_exp_EVA_AWA_CON	18	A	B	Rpleas_acq	Oppo	Rpleas	1pleas	acq_US_pleas_nomask	acq3_nomask	3	25	453	0	300	300	0	0	543	50	1	0	engagiert	träumen	gesittet	kreativ	vergnügt	kuss	engstirnig	töten	geizig	krank	verbissen	krise	genießen	anregung	vertrauen	gütig	besonnen	sonnig	gemein	ausrottung	versagen	gierig	bange	sterben	1	blank2r.bmp	0	1	+	0	1	blank2r.bmp	500	1	CPLW	500	1	blank2r.bmp	880	2	träumen	880	1	!	1293	1	!	-1	0	0	0	0	0	0
2024-05-08	11:26:29	11:32:38	368595	6.6.1	4_exp_EVA_AWA_CON	18	A	B	Rpleas_acq	Oppo	Rpleas	1pleas	acq_US_pleas_nomask	acq3_nomask	3	26	453	1	300	300	0	0	493	46	0	0	engagiert	träumen	gesittet	kreativ	vergnügt	kuss	engstirnig	töten	geizig	krank	verbissen	krise	genießen	anregung	vertrauen	gütig	besonnen	sonnig	gemein	ausrottung	versagen	gierig	bange	sterben	1	blank2r.bmp	0	1	+	0	1	blank2r.bmp	500	1	CPLW	500	1	blank2r.bmp	880	3	gesittet	880	1	FEHLER	1687	1	!	1293	1	!	1395	0	0	0
2024-05-08	11:26:29	11:32:40	370887	6.6.1	4_exp_EVA_AWA_CON	18	A	B	Rpleas_acq	Oppo	Rpleas	1pleas	acq_US_pleas_nomask	acq3_nomask	3	27	453	0	300	300	0	0	718	50	1	0	engagiert	träumen	gesittet	kreativ	vergnügt	kuss	engstirnig	töten	geizig	krank	verbissen	krise	genießen	anregung	vertrauen	gütig	besonnen	sonnig	gemein	ausrottung	versagen	gierig	bange	sterben	1	blank2r.bmp	0	1	+	0	1	blank2r.bmp	500	1	CPLW	500	1	blank2r.bmp	880	4	kreativ	880	1	!	1293	1	!	-1	0	0	0	0	0	0
2024-05-08	11:26:29	11:32:43	373475	6.6.1	4_exp_EVA_AWA_CON	18	A	B	Rpleas_acq	Oppo	Rpleas	1pleas	acq_US_pleas_nomask	acq3_nomask	3	28	453	0	300	300	0	0	610	46	0	0	engagiert	träumen	gesittet	kreativ	vergnügt	kuss	engstirnig	töten	geizig	krank	verbissen	krise	genießen	anregung	vertrauen	gütig	besonnen	sonnig	gemein	ausrottung	versagen	gierig	bange	sterben	1	blank2r.bmp	0	1	+	0	1	blank2r.bmp	500	1	CPLW	500	1	blank2r.bmp	880	1	engagiert	880	1	FEHLER	1804	1	!	1292	1	!	-1	0	0	0
2024-05-08	11:26:29	11:32:45	375505	6.6.1	4_exp_EVA_AWA_CON	18	A	B	Rpleas_acq	Oppo	Rpleas	1pleas	acq_US_unple_nomask	acq3_nomask	3	29	453	1	300	300	0	0	450	46	1	0	engagiert	träumen	gesittet	kreativ	vergnügt	kuss	engstirnig	töten	geizig	krank	verbissen	krise	genießen	anregung	vertrauen	gütig	besonnen	sonnig	gemein	ausrottung	versagen	gierig	bange	sterben	1	blank2r.bmp	0	1	+	0	1	blank2r.bmp	500	1	DHJF	500	1	blank2r.bmp	880	1	engstirnig	880	1	!	1293	1	!	1353	0	0	0	0	0	0
2024-05-08	11:26:29	11:32:47	377721	6.6.1	4_exp_EVA_AWA_CON	18	A	B	Rpleas_acq	Oppo	Rpleas	1pleas	acq_US_pleas_nomask	acq3_nomask	3	30	453	1	300	300	0	0	435	50	1	0	engagiert	träumen	gesittet	kreativ	vergnügt	kuss	engstirnig	töten	geizig	krank	verbissen	krise	genießen	anregung	vertrauen	gütig	besonnen	sonnig	gemein	ausrottung	versagen	gierig	bange	sterben	1	blank2r.bmp	0	1	+	0	1	blank2r.bmp	500	1	CPLW	500	1	blank2r.bmp	880	5	vergnügt	880	1	!	1293	1	!	1337	0	0	0	0	0	0
2024-05-08	11:26:29	11:32:49	379929	6.6.1	4_exp_EVA_AWA_CON	18	A	B	Rpleas_acq	Oppo	Rpleas	1pleas	acq_US_unple_nomask	acq3_nomask	3	31	453	1	300	300	0	0	431	46	1	0	engagiert	träumen	gesittet	kreativ	vergnügt	kuss	engstirnig	töten	geizig	krank	verbissen	krise	genießen	anregung	vertrauen	gütig	besonnen	sonnig	gemein	ausrottung	versagen	gierig	bange	sterben	1	blank2r.bmp	0	1	+	0	1	blank2r.bmp	500	1	DHJF	500	1	blank2r.bmp	880	2	töten	880	1	!	1293	1	!	1333	0	0	0	0	0	0
2024-05-08	11:26:29	11:32:51	382161	6.6.1	4_exp_EVA_AWA_CON	18	A	B	Rpleas_acq	Oppo	Rpleas	1pleas	acq_US_unple_nomask	acq3_nomask	3	32	453	1	300	300	0	0	452	46	1	0	engagiert	träumen	gesittet	kreativ	vergnügt	kuss	engstirnig	töten	geizig	krank	verbissen	krise	genießen	anregung	vertrauen	gütig	besonnen	sonnig	gemein	ausrottung	versagen	gierig	bange	sterben	1	blank2r.bmp	0	1	+	0	1	blank2r.bmp	500	1	DHJF	500	1	blank2r.bmp	880	6	krise	880	1	!	1292	1	!	1354	0	0	0	0	0	0
2024-05-08	11:26:29	11:32:53	384345	6.6.1	4_exp_EVA_AWA_CON	18	A	B	Rpleas_acq	Oppo	Rpleas	1pleas	acq_US_pleas_nomask	acq3_nomask	3	33	453	1	300	300	0	0	404	50	1	0	engagiert	träumen	gesittet	kreativ	vergnügt	kuss	engstirnig	töten	geizig	krank	verbissen	krise	genießen	anregung	vertrauen	gütig	besonnen	sonnig	gemein	ausrottung	versagen	gierig	bange	sterben	1	blank2r.bmp	0	1	+	0	1	blank2r.bmp	500	1	CPLW	500	1	blank2r.bmp	880	6	kuss	880	1	!	1292	1	!	1306	0	0	0	0	0	0
2024-05-08	11:26:29	11:32:56	386641	6.6.1	4_exp_EVA_AWA_CON	18	A	B	Rpleas_acq	Oppo	Rpleas	1pleas	acq_US_unple_nomask	acq3_nomask	3	34	453	1	300	300	0	0	519	46	1	0	engagiert	träumen	gesittet	kreativ	vergnügt	kuss	engstirnig	töten	geizig	krank	verbissen	krise	genießen	anregung	vertrauen	gütig	besonnen	sonnig	gemein	ausrottung	versagen	gierig	bange	sterben	1	blank2r.bmp	0	1	+	0	1	blank2r.bmp	500	1	DHJF	500	1	blank2r.bmp	880	3	geizig	880	1	!	1292	1	!	1421	0	0	0	0	0	0
2024-05-08	11:26:29	11:32:58	389010	6.6.1	4_exp_EVA_AWA_CON	18	A	B	Rpleas_acq	Oppo	Rpleas	1pleas	acq_US_unple_nomask	acq3_nomask	3	35	453	0	300	300	0	0	385	50	0	0	engagiert	träumen	gesittet	kreativ	vergnügt	kuss	engstirnig	töten	geizig	krank	verbissen	krise	genießen	anregung	vertrauen	gütig	besonnen	sonnig	gemein	ausrottung	versagen	gierig	bange	sterben	1	blank2r.bmp	0	1	+	0	1	blank2r.bmp	500	1	DHJF	500	1	blank2r.bmp	880	5	verbissen	880	1	FEHLER	1579	1	!	-1	1	!	-1	0	0	0
2024-05-08	11:26:29	11:33:00	391163	6.6.1	4_exp_EVA_AWA_CON	18	A	B	Rpleas_acq	Oppo	Rpleas	1pleas	acq_US_unple_nomask	acq3_nomask	3	36	453	0	300	300	0	0	376	50	0	0	engagiert	träumen	gesittet	kreativ	vergnügt	kuss	engstirnig	töten	geizig	krank	verbissen	krise	genießen	anregung	vertrauen	gütig	besonnen	sonnig	gemein	ausrottung	versagen	gierig	bange	sterben	1	blank2r.bmp	0	1	+	0	1	blank2r.bmp	500	1	DHJF	500	1	blank2r.bmp	880	4	krank	880	1	FEHLER	1570	1	!	-1	1	!	-1	0	0	0
2024-05-08	11:26:29	11:33:14	404569	6.6.1	4_exp_EVA_AWA_CON	18	A	B	Rpleas_acq	Oppo	Rpleas	1pleas	acq_US_unple_nomask	acq45_nomask	4	1	400	1	300	300	0	0	445	46	1	0	engagiert	träumen	gesittet	kreativ	vergnügt	kuss	engstirnig	töten	geizig	krank	verbissen	krise	genießen	anregung	vertrauen	gütig	besonnen	sonnig	gemein	ausrottung	versagen	gierig	bange	sterben	1	blank2r.bmp	0	1	+	0	1	blank2r.bmp	500	1	DHJF	500	1	blank2r.bmp	880	6	krise	880	1	!	1233	1	!	1347	0	0	0	0	0	0
2024-05-08	11:26:29	11:33:16	406975	6.6.1	4_exp_EVA_AWA_CON	18	A	B	Rpleas_acq	Oppo	Rpleas	1pleas	acq_US_pleas_nomask	acq45_nomask	4	2	400	0	300	300	0	0	632	50	1	0	engagiert	träumen	gesittet	kreativ	vergnügt	kuss	engstirnig	töten	geizig	krank	verbissen	krise	genießen	anregung	vertrauen	gütig	besonnen	sonnig	gemein	ausrottung	versagen	gierig	bange	sterben	1	blank2r.bmp	0	1	+	0	1	blank2r.bmp	500	1	CPLW	500	1	blank2r.bmp	880	1	engagiert	880	1	!	1232	1	!	-1	0	0	0	0	0	0
2024-05-08	11:26:29	11:33:18	409121	6.6.1	4_exp_EVA_AWA_CON	18	A	B	Rpleas_acq	Oppo	Rpleas	1pleas	acq_US_unple_nomask	acq45_nomask	4	3	400	1	300	300	0	0	364	46	1	0	engagiert	träumen	gesittet	kreativ	vergnügt	kuss	engstirnig	töten	geizig	krank	verbissen	krise	genießen	anregung	vertrauen	gütig	besonnen	sonnig	gemein	ausrottung	versagen	gierig	bange	sterben	1	blank2r.bmp	0	1	+	0	1	blank2r.bmp	500	1	DHJF	500	1	blank2r.bmp	880	5	verbissen	880	1	!	1233	1	!	1266	0	0	0	0	0	0
2024-05-08	11:26:29	11:33:21	411471	6.6.1	4_exp_EVA_AWA_CON	18	A	B	Rpleas_acq	Oppo	Rpleas	1pleas	acq_US_pleas_nomask	acq45_nomask	4	4	400	0	300	300	0	0	575	50	1	0	engagiert	träumen	gesittet	kreativ	vergnügt	kuss	engstirnig	töten	geizig	krank	verbissen	krise	genießen	anregung	vertrauen	gütig	besonnen	sonnig	gemein	ausrottung	versagen	gierig	bange	sterben	1	blank2r.bmp	0	1	+	0	1	blank2r.bmp	500	1	CPLW	500	1	blank2r.bmp	880	5	vergnügt	880	1	!	1232	1	!	-1	0	0	0	0	0	0
2024-05-08	11:26:29	11:33:23	413610	6.6.1	4_exp_EVA_AWA_CON	18	A	B	Rpleas_acq	Oppo	Rpleas	1pleas	acq_US_unple_nomask	acq45_nomask	4	5	400	1	300	300	0	0	359	46	1	0	engagiert	träumen	gesittet	kreativ	vergnügt	kuss	engstirnig	töten	geizig	krank	verbissen	krise	genießen	anregung	vertrauen	gütig	besonnen	sonnig	gemein	ausrottung	versagen	gierig	bange	sterben	1	blank2r.bmp	0	1	+	0	1	blank2r.bmp	500	1	DHJF	500	1	blank2r.bmp	880	1	engstirnig	880	1	!	1232	1	!	1262	0	0	0	0	0	0
2024-05-08	11:26:29	11:33:25	415777	6.6.1	4_exp_EVA_AWA_CON	18	A	B	Rpleas_acq	Oppo	Rpleas	1pleas	acq_US_pleas_nomask	acq45_nomask	4	6	400	1	300	300	0	0	386	50	1	0	engagiert	träumen	gesittet	kreativ	vergnügt	kuss	engstirnig	töten	geizig	krank	verbissen	krise	genießen	anregung	vertrauen	gütig	besonnen	sonnig	gemein	ausrottung	versagen	gierig	bange	sterben	1	blank2r.bmp	0	1	+	0	1	blank2r.bmp	500	1	CPLW	500	1	blank2r.bmp	880	2	träumen	880	1	!	1233	1	!	1288	0	0	0	0	0	0
2024-05-08	11:26:29	11:33:27	417913	6.6.1	4_exp_EVA_AWA_CON	18	A	B	Rpleas_acq	Oppo	Rpleas	1pleas	acq_US_unple_nomask	acq45_nomask	4	7	400	1	300	300	0	0	360	46	1	0	engagiert	träumen	gesittet	kreativ	vergnügt	kuss	engstirnig	töten	geizig	krank	verbissen	krise	genießen	anregung	vertrauen	gütig	besonnen	sonnig	gemein	ausrottung	versagen	gierig	bange	sterben	1	blank2r.bmp	0	1	+	0	1	blank2r.bmp	500	1	DHJF	500	1	blank2r.bmp	880	2	töten	880	1	!	1232	1	!	1262	0	0	0	0	0	0
2024-05-08	11:26:29	11:33:29	420031	6.6.1	4_exp_EVA_AWA_CON	18	A	B	Rpleas_acq	Oppo	Rpleas	1pleas	acq_US_unple_nomask	acq45_nomask	4	8	400	1	300	300	0	0	339	46	1	0	engagiert	träumen	gesittet	kreativ	vergnügt	kuss	engstirnig	töten	geizig	krank	verbissen	krise	genießen	anregung	vertrauen	gütig	besonnen	sonnig	gemein	ausrottung	versagen	gierig	bange	sterben	1	blank2r.bmp	0	1	+	0	1	blank2r.bmp	500	1	DHJF	500	1	blank2r.bmp	880	4	krank	880	1	!	1232	1	!	1239	0	0	0	0	0	0
2024-05-08	11:26:29	11:33:31	422201	6.6.1	4_exp_EVA_AWA_CON	18	A	B	Rpleas_acq	Oppo	Rpleas	1pleas	acq_US_pleas_nomask	acq45_nomask	4	9	400	1	300	300	0	0	396	46	0	0	engagiert	träumen	gesittet	kreativ	vergnügt	kuss	engstirnig	töten	geizig	krank	verbissen	krise	genießen	anregung	vertrauen	gütig	besonnen	sonnig	gemein	ausrottung	versagen	gierig	bange	sterben	1	blank2r.bmp	0	1	+	0	1	blank2r.bmp	500	1	CPLW	500	1	blank2r.bmp	880	3	gesittet	880	1	!	1233	1	!	1298	0	0	0	0	0	0
2024-05-08	11:26:29	11:33:34	424417	6.6.1	4_exp_EVA_AWA_CON	18	A	B	Rpleas_acq	Oppo	Rpleas	1pleas	acq_US_unple_nomask	acq45_nomask	4	10	400	1	300	300	0	0	440	46	1	0	engagiert	träumen	gesittet	kreativ	vergnügt	kuss	engstirnig	töten	geizig	krank	verbissen	krise	genießen	anregung	vertrauen	gütig	besonnen	sonnig	gemein	ausrottung	versagen	gierig	bange	sterben	1	blank2r.bmp	0	1	+	0	1	blank2r.bmp	500	1	DHJF	500	1	blank2r.bmp	880	3	geizig	880	1	!	1232	1	!	1343	0	0	0	0	0	0
2024-05-08	11:26:29	11:33:36	426496	6.6.1	4_exp_EVA_AWA_CON	18	A	B	Rpleas_acq	Oppo	Rpleas	1pleas	acq_US_pleas_nomask	acq45_nomask	4	11	400	0	300	300	0	0	299	50	1	0	engagiert	träumen	gesittet	kreativ	vergnügt	kuss	engstirnig	töten	geizig	krank	verbissen	krise	genießen	anregung	vertrauen	gütig	besonnen	sonnig	gemein	ausrottung	versagen	gierig	bange	sterben	1	blank2r.bmp	0	1	+	0	1	blank2r.bmp	500	1	CPLW	500	1	blank2r.bmp	880	6	kuss	880	1	!	-1	1	!	-1	0	0	0	0	0	0
2024-05-08	11:26:29	11:33:38	428713	6.6.1	4_exp_EVA_AWA_CON	18	A	B	Rpleas_acq	Oppo	Rpleas	1pleas	acq_US_unple_nomask	acq45_nomask	4	12	400	1	300	300	0	0	433	46	1	0	engagiert	träumen	gesittet	kreativ	vergnügt	kuss	engstirnig	töten	geizig	krank	verbissen	krise	genießen	anregung	vertrauen	gütig	besonnen	sonnig	gemein	ausrottung	versagen	gierig	bange	sterben	1	blank2r.bmp	0	1	+	0	1	blank2r.bmp	500	1	DHJF	500	1	blank2r.bmp	880	5	verbissen	880	1	!	1232	1	!	1335	0	0	0	0	0	0
2024-05-08	11:26:29	11:33:40	430865	6.6.1	4_exp_EVA_AWA_CON	18	A	B	Rpleas_acq	Oppo	Rpleas	1pleas	acq_US_pleas_nomask	acq45_nomask	4	13	400	1	300	300	0	0	374	50	1	0	engagiert	träumen	gesittet	kreativ	vergnügt	kuss	engstirnig	töten	geizig	krank	verbissen	krise	genießen	anregung	vertrauen	gütig	besonnen	sonnig	gemein	ausrottung	versagen	gierig	bange	sterben	1	blank2r.bmp	0	1	+	0	1	blank2r.bmp	500	1	CPLW	500	1	blank2r.bmp	880	4	kreativ	880	1	!	1233	1	!	1276	0	0	0	0	0	0
2024-05-08	11:26:29	11:33:42	432983	6.6.1	4_exp_EVA_AWA_CON	18	A	B	Rpleas_acq	Oppo	Rpleas	1pleas	acq_US_unple_nomask	acq45_nomask	4	14	400	1	300	300	0	0	343	46	1	0	engagiert	träumen	gesittet	kreativ	vergnügt	kuss	engstirnig	töten	geizig	krank	verbissen	krise	genießen	anregung	vertrauen	gütig	besonnen	sonnig	gemein	ausrottung	versagen	gierig	bange	sterben	1	blank2r.bmp	0	1	+	0	1	blank2r.bmp	500	1	DHJF	500	1	blank2r.bmp	880	6	krise	880	1	!	1232	1	!	1243	0	0	0	0	0	0
2024-05-08	11:26:29	11:33:44	435129	6.6.1	4_exp_EVA_AWA_CON	18	A	B	Rpleas_acq	Oppo	Rpleas	1pleas	acq_US_unple_nomask	acq45_nomask	4	15	400	1	300	300	0	0	365	50	0	0	engagiert	träumen	gesittet	kreativ	vergnügt	kuss	engstirnig	töten	geizig	krank	verbissen	krise	genießen	anregung	vertrauen	gütig	besonnen	sonnig	gemein	ausrottung	versagen	gierig	bange	sterben	1	blank2r.bmp	0	1	+	0	1	blank2r.bmp	500	1	DHJF	500	1	blank2r.bmp	880	3	geizig	880	1	!	1232	1	!	1267	0	0	0	0	0	0
2024-05-08	11:26:29	11:33:47	437381	6.6.1	4_exp_EVA_AWA_CON	18	A	B	Rpleas_acq	Oppo	Rpleas	1pleas	acq_US_pleas_nomask	acq45_nomask	4	16	400	0	300	300	0	0	480	50	1	0	engagiert	träumen	gesittet	kreativ	vergnügt	kuss	engstirnig	töten	geizig	krank	verbissen	krise	genießen	anregung	vertrauen	gütig	besonnen	sonnig	gemein	ausrottung	versagen	gierig	bange	sterben	1	blank2r.bmp	0	1	+	0	1	blank2r.bmp	500	1	CPLW	500	1	blank2r.bmp	880	1	engagiert	880	1	!	1232	1	!	-1	0	0	0	0	0	0
2024-05-08	11:26:29	11:33:49	439505	6.6.1	4_exp_EVA_AWA_CON	18	A	B	Rpleas_acq	Oppo	Rpleas	1pleas	acq_US_pleas_nomask	acq45_nomask	4	17	400	1	300	300	0	0	348	46	0	0	engagiert	träumen	gesittet	kreativ	vergnügt	kuss	engstirnig	töten	geizig	krank	verbissen	krise	genießen	anregung	vertrauen	gütig	besonnen	sonnig	gemein	ausrottung	versagen	gierig	bange	sterben	1	blank2r.bmp	0	1	+	0	1	blank2r.bmp	500	1	CPLW	500	1	blank2r.bmp	880	5	vergnügt	880	1	!	1232	1	!	1250	0	0	0	0	0	0
2024-05-08	11:26:29	11:33:51	441753	6.6.1	4_exp_EVA_AWA_CON	18	A	B	Rpleas_acq	Oppo	Rpleas	1pleas	acq_US_pleas_nomask	acq45_nomask	4	18	400	1	300	300	0	0	465	46	0	0	engagiert	träumen	gesittet	kreativ	vergnügt	kuss	engstirnig	töten	geizig	krank	verbissen	krise	genießen	anregung	vertrauen	gütig	besonnen	sonnig	gemein	ausrottung	versagen	gierig	bange	sterben	1	blank2r.bmp	0	1	+	0	1	blank2r.bmp	500	1	CPLW	500	1	blank2r.bmp	880	3	gesittet	880	1	!	1232	1	!	1367	0	0	0	0	0	0
2024-05-08	11:26:29	11:33:53	443855	6.6.1	4_exp_EVA_AWA_CON	18	A	B	Rpleas_acq	Oppo	Rpleas	1pleas	acq_US_unple_nomask	acq45_nomask	4	19	400	0	300	300	0	0	327	46	1	0	engagiert	träumen	gesittet	kreativ	vergnügt	kuss	engstirnig	töten	geizig	krank	verbissen	krise	genießen	anregung	vertrauen	gütig	besonnen	sonnig	gemein	ausrottung	versagen	gierig	bange	sterben	1	blank2r.bmp	0	1	+	0	1	blank2r.bmp	500	1	DHJF	500	1	blank2r.bmp	880	2	töten	880	1	!	-1	1	!	-1	0	0	0	0	0	0
2024-05-08	11:26:29	11:33:55	446041	6.6.1	4_exp_EVA_AWA_CON	18	A	B	Rpleas_acq	Oppo	Rpleas	1pleas	acq_US_pleas_nomask	acq45_nomask	4	20	400	1	300	300	0	0	410	50	1	0	engagiert	träumen	gesittet	kreativ	vergnügt	kuss	engstirnig	töten	geizig	krank	verbissen	krise	genießen	anregung	vertrauen	gütig	besonnen	sonnig	gemein	ausrottung	versagen	gierig	bange	sterben	1	blank2r.bmp	0	1	+	0	1	blank2r.bmp	500	1	CPLW	500	1	blank2r.bmp	880	6	kuss	880	1	!	1233	1	!	1312	0	0	0	0	0	0
2024-05-08	11:26:29	11:33:57	448201	6.6.1	4_exp_EVA_AWA_CON	18	A	B	Rpleas_acq	Oppo	Rpleas	1pleas	acq_US_pleas_nomask	acq45_nomask	4	21	400	1	300	300	0	0	379	50	1	0	engagiert	träumen	gesittet	kreativ	vergnügt	kuss	engstirnig	töten	geizig	krank	verbissen	krise	genießen	anregung	vertrauen	gütig	besonnen	sonnig	gemein	ausrottung	versagen	gierig	bange	sterben	1	blank2r.bmp	0	1	+	0	1	blank2r.bmp	500	1	CPLW	500	1	blank2r.bmp	880	4	kreativ	880	1	!	1232	1	!	1280	0	0	0	0	0	0
2024-05-08	11:26:29	11:34:00	450377	6.6.1	4_exp_EVA_AWA_CON	18	A	B	Rpleas_acq	Oppo	Rpleas	1pleas	acq_US_unple_nomask	acq45_nomask	4	22	400	1	300	300	0	0	393	46	1	0	engagiert	träumen	gesittet	kreativ	vergnügt	kuss	engstirnig	töten	geizig	krank	verbissen	krise	genießen	anregung	vertrauen	gütig	besonnen	sonnig	gemein	ausrottung	versagen	gierig	bange	sterben	1	blank2r.bmp	0	1	+	0	1	blank2r.bmp	500	1	DHJF	500	1	blank2r.bmp	880	4	krank	880	1	!	1232	1	!	1295	0	0	0	0	0	0
2024-05-08	11:26:29	11:34:02	452655	6.6.1	4_exp_EVA_AWA_CON	18	A	B	Rpleas_acq	Oppo	Rpleas	1pleas	acq_US_unple_nomask	acq45_nomask	4	23	400	0	300	300	0	0	502	46	1	0	engagiert	träumen	gesittet	kreativ	vergnügt	kuss	engstirnig	töten	geizig	krank	verbissen	krise	genießen	anregung	vertrauen	gütig	besonnen	sonnig	gemein	ausrottung	versagen	gierig	bange	sterben	1	blank2r.bmp	0	1	+	0	1	blank2r.bmp	500	1	DHJF	500	1	blank2r.bmp	880	1	engstirnig	880	1	!	1233	1	!	-1	0	0	0	0	0	0
2024-05-08	11:26:29	11:34:04	454809	6.6.1	4_exp_EVA_AWA_CON	18	A	B	Rpleas_acq	Oppo	Rpleas	1pleas	acq_US_pleas_nomask	acq45_nomask	4	24	400	1	300	300	0	0	372	50	1	0	engagiert	träumen	gesittet	kreativ	vergnügt	kuss	engstirnig	töten	geizig	krank	verbissen	krise	genießen	anregung	vertrauen	gütig	besonnen	sonnig	gemein	ausrottung	versagen	gierig	bange	sterben	1	blank2r.bmp	0	1	+	0	1	blank2r.bmp	500	1	CPLW	500	1	blank2r.bmp	880	2	träumen	880	1	!	1232	1	!	1274	0	0	0	0	0	0
2024-05-08	11:26:29	11:34:06	456977	6.6.1	4_exp_EVA_AWA_CON	18	A	B	Rpleas_acq	Oppo	Rpleas	1pleas	acq_US_pleas_nomask	acq45_nomask	4	25	400	1	300	300	0	0	389	50	1	0	engagiert	träumen	gesittet	kreativ	vergnügt	kuss	engstirnig	töten	geizig	krank	verbissen	krise	genießen	anregung	vertrauen	gütig	besonnen	sonnig	gemein	ausrottung	versagen	gierig	bange	sterben	1	blank2r.bmp	0	1	+	0	1	blank2r.bmp	500	1	CPLW	500	1	blank2r.bmp	880	2	träumen	880	1	!	1233	1	!	1291	0	0	0	0	0	0
2024-05-08	11:26:29	11:34:08	459288	6.6.1	4_exp_EVA_AWA_CON	18	A	B	Rpleas_acq	Oppo	Rpleas	1pleas	acq_US_pleas_nomask	acq45_nomask	4	26	400	0	300	300	0	0	530	50	1	0	engagiert	träumen	gesittet	kreativ	vergnügt	kuss	engstirnig	töten	geizig	krank	verbissen	krise	genießen	anregung	vertrauen	gütig	besonnen	sonnig	gemein	ausrottung	versagen	gierig	bange	sterben	1	blank2r.bmp	0	1	+	0	1	blank2r.bmp	500	1	CPLW	500	1	blank2r.bmp	880	1	engagiert	880	1	!	1232	1	!	-1	0	0	0	0	0	0
2024-05-08	11:26:29	11:34:11	461442	6.6.1	4_exp_EVA_AWA_CON	18	A	B	Rpleas_acq	Oppo	Rpleas	1pleas	acq_US_unple_nomask	acq45_nomask	4	27	400	1	300	300	0	0	370	50	0	0	engagiert	träumen	gesittet	kreativ	vergnügt	kuss	engstirnig	töten	geizig	krank	verbissen	krise	genießen	anregung	vertrauen	gütig	besonnen	sonnig	gemein	ausrottung	versagen	gierig	bange	sterben	1	blank2r.bmp	0	1	+	0	1	blank2r.bmp	500	1	DHJF	500	1	blank2r.bmp	880	1	engstirnig	880	1	!	1232	1	!	1273	0	0	0	0	0	0
2024-05-08	11:26:29	11:34:13	463719	6.6.1	4_exp_EVA_AWA_CON	18	A	B	Rpleas_acq	Oppo	Rpleas	1pleas	acq_US_pleas_nomask	acq45_nomask	4	28	400	0	300	300	0	0	499	50	1	0	engagiert	träumen	gesittet	kreativ	vergnügt	kuss	engstirnig	töten	geizig	krank	verbissen	krise	genießen	anregung	vertrauen	gütig	besonnen	sonnig	gemein	ausrottung	versagen	gierig	bange	sterben	1	blank2r.bmp	0	1	+	0	1	blank2r.bmp	500	1	CPLW	500	1	blank2r.bmp	880	6	kuss	880	1	!	1232	1	!	-1	0	0	0	0	0	0
2024-05-08	11:26:29	11:34:15	465961	6.6.1	4_exp_EVA_AWA_CON	18	A	B	Rpleas_acq	Oppo	Rpleas	1pleas	acq_US_unple_nomask	acq45_nomask	4	29	400	1	300	300	0	0	467	46	1	0	engagiert	träumen	gesittet	kreativ	vergnügt	kuss	engstirnig	töten	geizig	krank	verbissen	krise	genießen	anregung	vertrauen	gütig	besonnen	sonnig	gemein	ausrottung	versagen	gierig	bange	sterben	1	blank2r.bmp	0	1	+	0	1	blank2r.bmp	500	1	DHJF	500	1	blank2r.bmp	880	3	geizig	880	1	!	1233	1	!	1369	0	0	0	0	0	0
2024-05-08	11:26:29	11:34:17	468231	6.6.1	4_exp_EVA_AWA_CON	18	A	B	Rpleas_acq	Oppo	Rpleas	1pleas	acq_US_pleas_nomask	acq45_nomask	4	30	400	0	300	300	0	0	488	46	0	0	engagiert	träumen	gesittet	kreativ	vergnügt	kuss	engstirnig	töten	geizig	krank	verbissen	krise	genießen	anregung	vertrauen	gütig	besonnen	sonnig	gemein	ausrottung	versagen	gierig	bange	sterben	1	blank2r.bmp	0	1	+	0	1	blank2r.bmp	500	1	CPLW	500	1	blank2r.bmp	880	5	vergnügt	880	1	!	1232	1	!	-1	0	0	0	0	0	0
2024-05-08	11:26:29	11:34:20	470393	6.6.1	4_exp_EVA_AWA_CON	18	A	B	Rpleas_acq	Oppo	Rpleas	1pleas	acq_US_unple_nomask	acq45_nomask	4	31	400	1	300	300	0	0	386	46	1	0	engagiert	träumen	gesittet	kreativ	vergnügt	kuss	engstirnig	töten	geizig	krank	verbissen	krise	genießen	anregung	vertrauen	gütig	besonnen	sonnig	gemein	ausrottung	versagen	gierig	bange	sterben	1	blank2r.bmp	0	1	+	0	1	blank2r.bmp	500	1	DHJF	500	1	blank2r.bmp	880	4	krank	880	1	!	1233	1	!	1288	0	0	0	0	0	0
2024-05-08	11:26:29	11:34:22	472561	6.6.1	4_exp_EVA_AWA_CON	18	A	B	Rpleas_acq	Oppo	Rpleas	1pleas	acq_US_pleas_nomask	acq45_nomask	4	32	400	1	300	300	0	0	393	50	1	0	engagiert	träumen	gesittet	kreativ	vergnügt	kuss	engstirnig	töten	geizig	krank	verbissen	krise	genießen	anregung	vertrauen	gütig	besonnen	sonnig	gemein	ausrottung	versagen	gierig	bange	sterben	1	blank2r.bmp	0	1	+	0	1	blank2r.bmp	500	1	CPLW	500	1	blank2r.bmp	880	4	kreativ	880	1	!	1232	1	!	1295	0	0	0	0	0	0
2024-05-08	11:26:29	11:34:24	474753	6.6.1	4_exp_EVA_AWA_CON	18	A	B	Rpleas_acq	Oppo	Rpleas	1pleas	acq_US_unple_nomask	acq45_nomask	4	33	400	1	300	300	0	0	413	50	0	0	engagiert	träumen	gesittet	kreativ	vergnügt	kuss	engstirnig	töten	geizig	krank	verbissen	krise	genießen	anregung	vertrauen	gütig	besonnen	sonnig	gemein	ausrottung	versagen	gierig	bange	sterben	1	blank2r.bmp	0	1	+	0	1	blank2r.bmp	500	1	DHJF	500	1	blank2r.bmp	880	6	krise	880	1	!	1232	1	!	1315	0	0	0	0	0	0
2024-05-08	11:26:29	11:34:26	477063	6.6.1	4_exp_EVA_AWA_CON	18	A	B	Rpleas_acq	Oppo	Rpleas	1pleas	acq_US_unple_nomask	acq45_nomask	4	34	400	0	300	300	0	0	534	50	0	0	engagiert	träumen	gesittet	kreativ	vergnügt	kuss	engstirnig	töten	geizig	krank	verbissen	krise	genießen	anregung	vertrauen	gütig	besonnen	sonnig	gemein	ausrottung	versagen	gierig	bange	sterben	1	blank2r.bmp	0	1	+	0	1	blank2r.bmp	500	1	DHJF	500	1	blank2r.bmp	880	5	verbissen	880	1	!	1232	1	!	-1	0	0	0	0	0	0
2024-05-08	11:26:29	11:34:29	479392	6.6.1	4_exp_EVA_AWA_CON	18	A	B	Rpleas_acq	Oppo	Rpleas	1pleas	acq_US_pleas_nomask	acq45_nomask	4	35	400	0	300	300	0	0	550	46	0	0	engagiert	träumen	gesittet	kreativ	vergnügt	kuss	engstirnig	töten	geizig	krank	verbissen	krise	genießen	anregung	vertrauen	gütig	besonnen	sonnig	gemein	ausrottung	versagen	gierig	bange	sterben	1	blank2r.bmp	0	1	+	0	1	blank2r.bmp	500	1	CPLW	500	1	blank2r.bmp	880	3	gesittet	880	1	!	1232	1	!	-1	0	0	0	0	0	0
2024-05-08	11:26:29	11:34:31	481617	6.6.1	4_exp_EVA_AWA_CON	18	A	B	Rpleas_acq	Oppo	Rpleas	1pleas	acq_US_unple_nomask	acq45_nomask	4	36	400	1	300	300	0	0	443	46	1	0	engagiert	träumen	gesittet	kreativ	vergnügt	kuss	engstirnig	töten	geizig	krank	verbissen	krise	genießen	anregung	vertrauen	gütig	besonnen	sonnig	gemein	ausrottung	versagen	gierig	bange	sterben	1	blank2r.bmp	0	1	+	0	1	blank2r.bmp	500	1	DHJF	500	1	blank2r.bmp	880	2	töten	880	1	!	1232	1	!	1345	0	0	0	0	0	0
2024-05-08	11:26:29	11:34:40	491305	6.6.1	4_exp_EVA_AWA_CON	18	A	B	Rpleas_acq	Oppo	Rpleas	1pleas	acq_US_unple_nomask	acq45_nomask	5	1	400	1	300	300	0	0	395	46	1	0	engagiert	träumen	gesittet	kreativ	vergnügt	kuss	engstirnig	töten	geizig	krank	verbissen	krise	genießen	anregung	vertrauen	gütig	besonnen	sonnig	gemein	ausrottung	versagen	gierig	bange	sterben	1	blank2r.bmp	0	1	+	0	1	blank2r.bmp	500	1	DHJF	500	1	blank2r.bmp	880	5	verbissen	880	1	!	1233	1	!	1296	0	0	0	0	0	0
2024-05-08	11:26:29	11:34:43	493497	6.6.1	4_exp_EVA_AWA_CON	18	A	B	Rpleas_acq	Oppo	Rpleas	1pleas	acq_US_pleas_nomask	acq45_nomask	5	2	400	1	300	300	0	0	415	50	1	0	engagiert	träumen	gesittet	kreativ	vergnügt	kuss	engstirnig	töten	geizig	krank	verbissen	krise	genießen	anregung	vertrauen	gütig	besonnen	sonnig	gemein	ausrottung	versagen	gierig	bange	sterben	1	blank2r.bmp	0	1	+	0	1	blank2r.bmp	500	1	CPLW	500	1	blank2r.bmp	880	2	träumen	880	1	!	1233	1	!	1317	0	0	0	0	0	0
2024-05-08	11:26:29	11:34:45	495799	6.6.1	4_exp_EVA_AWA_CON	18	A	B	Rpleas_acq	Oppo	Rpleas	1pleas	acq_US_pleas_nomask	acq45_nomask	5	3	400	0	300	300	0	0	528	50	1	0	engagiert	träumen	gesittet	kreativ	vergnügt	kuss	engstirnig	töten	geizig	krank	verbissen	krise	genießen	anregung	vertrauen	gütig	besonnen	sonnig	gemein	ausrottung	versagen	gierig	bange	sterben	1	blank2r.bmp	0	1	+	0	1	blank2r.bmp	500	1	CPLW	500	1	blank2r.bmp	880	4	kreativ	880	1	!	1233	1	!	-1	0	0	0	0	0	0
2024-05-08	11:26:29	11:34:47	498095	6.6.1	4_exp_EVA_AWA_CON	18	A	B	Rpleas_acq	Oppo	Rpleas	1pleas	acq_US_pleas_nomask	acq45_nomask	5	4	400	0	300	300	0	0	522	46	0	0	engagiert	träumen	gesittet	kreativ	vergnügt	kuss	engstirnig	töten	geizig	krank	verbissen	krise	genießen	anregung	vertrauen	gütig	besonnen	sonnig	gemein	ausrottung	versagen	gierig	bange	sterben	1	blank2r.bmp	0	1	+	0	1	blank2r.bmp	500	1	CPLW	500	1	blank2r.bmp	880	3	gesittet	880	1	!	1232	1	!	-1	0	0	0	0	0	0
2024-05-08	11:26:29	11:34:49	500313	6.6.1	4_exp_EVA_AWA_CON	18	A	B	Rpleas_acq	Oppo	Rpleas	1pleas	acq_US_pleas_nomask	acq45_nomask	5	5	400	1	300	300	0	0	437	46	0	0	engagiert	träumen	gesittet	kreativ	vergnügt	kuss	engstirnig	töten	geizig	krank	verbissen	krise	genießen	anregung	vertrauen	gütig	besonnen	sonnig	gemein	ausrottung	versagen	gierig	bange	sterben	1	blank2r.bmp	0	1	+	0	1	blank2r.bmp	500	1	CPLW	500	1	blank2r.bmp	880	5	vergnügt	880	1	!	1232	1	!	1339	0	0	0	0	0	0
2024-05-08	11:26:29	11:34:52	502449	6.6.1	4_exp_EVA_AWA_CON	18	A	B	Rpleas_acq	Oppo	Rpleas	1pleas	acq_US_unple_nomask	acq45_nomask	5	6	400	1	300	300	0	0	361	46	1	0	engagiert	träumen	gesittet	kreativ	vergnügt	kuss	engstirnig	töten	geizig	krank	verbissen	krise	genießen	anregung	vertrauen	gütig	besonnen	sonnig	gemein	ausrottung	versagen	gierig	bange	sterben	1	blank2r.bmp	0	1	+	0	1	blank2r.bmp	500	1	DHJF	500	1	blank2r.bmp	880	4	krank	880	1	!	1232	1	!	1263	0	0	0	0	0	0
2024-05-08	11:26:29	11:34:54	504618	6.6.1	4_exp_EVA_AWA_CON	18	A	B	Rpleas_acq	Oppo	Rpleas	1pleas	acq_US_unple_nomask	acq45_nomask	5	7	400	1	300	300	0	0	388	46	1	0	engagiert	träumen	gesittet	kreativ	vergnügt	kuss	engstirnig	töten	geizig	krank	verbissen	krise	genießen	anregung	vertrauen	gütig	besonnen	sonnig	gemein	ausrottung	versagen	gierig	bange	sterben	1	blank2r.bmp	0	1	+	0	1	blank2r.bmp	500	1	DHJF	500	1	blank2r.bmp	880	3	geizig	880	1	!	1233	1	!	1290	0	0	0	0	0	0
2024-05-08	11:26:29	11:34:56	506801	6.6.1	4_exp_EVA_AWA_CON	18	A	B	Rpleas_acq	Oppo	Rpleas	1pleas	acq_US_unple_nomask	acq45_nomask	5	8	400	1	300	300	0	0	400	50	0	0	engagiert	träumen	gesittet	kreativ	vergnügt	kuss	engstirnig	töten	geizig	krank	verbissen	krise	genießen	anregung	vertrauen	gütig	besonnen	sonnig	gemein	ausrottung	versagen	gierig	bange	sterben	1	blank2r.bmp	0	1	+	0	1	blank2r.bmp	500	1	DHJF	500	1	blank2r.bmp	880	1	engstirnig	880	1	!	1232	1	!	1302	0	0	0	0	0	0
2024-05-08	11:26:29	11:34:58	508945	6.6.1	4_exp_EVA_AWA_CON	18	A	B	Rpleas_acq	Oppo	Rpleas	1pleas	acq_US_unple_nomask	acq45_nomask	5	9	400	1	300	300	0	0	363	50	0	0	engagiert	träumen	gesittet	kreativ	vergnügt	kuss	engstirnig	töten	geizig	krank	verbissen	krise	genießen	anregung	vertrauen	gütig	besonnen	sonnig	gemein	ausrottung	versagen	gierig	bange	sterben	1	blank2r.bmp	0	1	+	0	1	blank2r.bmp	500	1	DHJF	500	1	blank2r.bmp	880	6	krise	880	1	!	1232	1	!	1265	0	0	0	0	0	0
2024-05-08	11:26:29	11:35:00	511162	6.6.1	4_exp_EVA_AWA_CON	18	A	B	Rpleas_acq	Oppo	Rpleas	1pleas	acq_US_pleas_nomask	acq45_nomask	5	10	400	1	300	300	0	0	438	50	1	0	engagiert	träumen	gesittet	kreativ	vergnügt	kuss	engstirnig	töten	geizig	krank	verbissen	krise	genießen	anregung	vertrauen	gütig	besonnen	sonnig	gemein	ausrottung	versagen	gierig	bange	sterben	1	blank2r.bmp	0	1	+	0	1	blank2r.bmp	500	1	CPLW	500	1	blank2r.bmp	880	1	engagiert	880	1	!	1232	1	!	1339	0	0	0	0	0	0
2024-05-08	11:26:29	11:35:02	513314	6.6.1	4_exp_EVA_AWA_CON	18	A	B	Rpleas_acq	Oppo	Rpleas	1pleas	acq_US_pleas_nomask	acq45_nomask	5	11	400	1	300	300	0	0	368	50	1	0	engagiert	träumen	gesittet	kreativ	vergnügt	kuss	engstirnig	töten	geizig	krank	verbissen	krise	genießen	anregung	vertrauen	gütig	besonnen	sonnig	gemein	ausrottung	versagen	gierig	bange	sterben	1	blank2r.bmp	0	1	+	0	1	blank2r.bmp	500	1	CPLW	500	1	blank2r.bmp	880	6	kuss	880	1	!	1232	1	!	1270	0	0	0	0	0	0
2024-05-08	11:26:29	11:35:05	515521	6.6.1	4_exp_EVA_AWA_CON	18	A	B	Rpleas_acq	Oppo	Rpleas	1pleas	acq_US_unple_nomask	acq45_nomask	5	12	400	1	300	300	0	0	425	50	0	0	engagiert	träumen	gesittet	kreativ	vergnügt	kuss	engstirnig	töten	geizig	krank	verbissen	krise	genießen	anregung	vertrauen	gütig	besonnen	sonnig	gemein	ausrottung	versagen	gierig	bange	sterben	1	blank2r.bmp	0	1	+	0	1	blank2r.bmp	500	1	DHJF	500	1	blank2r.bmp	880	2	töten	880	1	!	1233	1	!	1327	0	0	0	0	0	0
2024-05-08	11:26:29	11:35:07	517559	6.6.1	4_exp_EVA_AWA_CON	18	A	B	Rpleas_acq	Oppo	Rpleas	1pleas	acq_US_pleas_nomask	acq45_nomask	5	13	400	0	300	300	0	0	263	46	0	0	engagiert	träumen	gesittet	kreativ	vergnügt	kuss	engstirnig	töten	geizig	krank	verbissen	krise	genießen	anregung	vertrauen	gütig	besonnen	sonnig	gemein	ausrottung	versagen	gierig	bange	sterben	1	blank2r.bmp	0	1	+	0	1	blank2r.bmp	500	1	CPLW	500	1	blank2r.bmp	880	1	engagiert	880	1	!	-1	1	!	-1	0	0	0	0	0	0
2024-05-08	11:26:29	11:35:09	519831	6.6.1	4_exp_EVA_AWA_CON	18	A	B	Rpleas_acq	Oppo	Rpleas	1pleas	acq_US_pleas_nomask	acq45_nomask	5	14	400	0	300	300	0	0	494	50	1	0	engagiert	träumen	gesittet	kreativ	vergnügt	kuss	engstirnig	töten	geizig	krank	verbissen	krise	genießen	anregung	vertrauen	gütig	besonnen	sonnig	gemein	ausrottung	versagen	gierig	bange	sterben	1	blank2r.bmp	0	1	+	0	1	blank2r.bmp	500	1	CPLW	500	1	blank2r.bmp	880	5	vergnügt	880	1	!	1232	1	!	-1	0	0	0	0	0	0
2024-05-08	11:26:29	11:35:11	522086	6.6.1	4_exp_EVA_AWA_CON	18	A	B	Rpleas_acq	Oppo	Rpleas	1pleas	acq_US_pleas_nomask	acq45_nomask	5	15	400	0	300	300	0	0	478	46	0	0	engagiert	träumen	gesittet	kreativ	vergnügt	kuss	engstirnig	töten	geizig	krank	verbissen	krise	genießen	anregung	vertrauen	gütig	besonnen	sonnig	gemein	ausrottung	versagen	gierig	bange	sterben	1	blank2r.bmp	0	1	+	0	1	blank2r.bmp	500	1	CPLW	500	1	blank2r.bmp	880	3	gesittet	880	1	!	1232	1	!	-1	0	0	0	0	0	0
2024-05-08	11:26:29	11:35:13	524297	6.6.1	4_exp_EVA_AWA_CON	18	A	B	Rpleas_acq	Oppo	Rpleas	1pleas	acq_US_unple_nomask	acq45_nomask	5	16	400	1	300	300	0	0	435	46	1	0	engagiert	träumen	gesittet	kreativ	vergnügt	kuss	engstirnig	töten	geizig	krank	verbissen	krise	genießen	anregung	vertrauen	gütig	besonnen	sonnig	gemein	ausrottung	versagen	gierig	bange	sterben	1	blank2r.bmp	0	1	+	0	1	blank2r.bmp	500	1	DHJF	500	1	blank2r.bmp	880	3	geizig	880	1	!	1233	1	!	1337	0	0	0	0	0	0
2024-05-08	11:26:29	11:35:16	526575	6.6.1	4_exp_EVA_AWA_CON	18	A	B	Rpleas_acq	Oppo	Rpleas	1pleas	acq_US_unple_nomask	acq45_nomask	5	17	400	0	300	300	0	0	504	46	1	0	engagiert	träumen	gesittet	kreativ	vergnügt	kuss	engstirnig	töten	geizig	krank	verbissen	krise	genießen	anregung	vertrauen	gütig	besonnen	sonnig	gemein	ausrottung	versagen	gierig	bange	sterben	1	blank2r.bmp	0	1	+	0	1	blank2r.bmp	500	1	DHJF	500	1	blank2r.bmp	880	1	engstirnig	880	1	!	1232	1	!	-1	0	0	0	0	0	0
2024-05-08	11:26:29	11:35:18	528794	6.6.1	4_exp_EVA_AWA_CON	18	A	B	Rpleas_acq	Oppo	Rpleas	1pleas	acq_US_unple_nomask	acq45_nomask	5	18	400	1	300	300	0	0	438	46	1	0	engagiert	träumen	gesittet	kreativ	vergnügt	kuss	engstirnig	töten	geizig	krank	verbissen	krise	genießen	anregung	vertrauen	gütig	besonnen	sonnig	gemein	ausrottung	versagen	gierig	bange	sterben	1	blank2r.bmp	0	1	+	0	1	blank2r.bmp	500	1	DHJF	500	1	blank2r.bmp	880	4	krank	880	1	!	1233	1	!	1340	0	0	0	0	0	0
2024-05-08	11:26:29	11:35:20	530985	6.6.1	4_exp_EVA_AWA_CON	18	A	B	Rpleas_acq	Oppo	Rpleas	1pleas	acq_US_pleas_nomask	acq45_nomask	5	19	400	1	300	300	0	0	409	50	1	0	engagiert	träumen	gesittet	kreativ	vergnügt	kuss	engstirnig	töten	geizig	krank	verbissen	krise	genießen	anregung	vertrauen	gütig	besonnen	sonnig	gemein	ausrottung	versagen	gierig	bange	sterben	1	blank2r.bmp	0	1	+	0	1	blank2r.bmp	500	1	CPLW	500	1	blank2r.bmp	880	4	kreativ	880	1	!	1232	1	!	1310	0	0	0	0	0	0
2024-05-08	11:26:29	11:35:22	533218	6.6.1	4_exp_EVA_AWA_CON	18	A	B	Rpleas_acq	Oppo	Rpleas	1pleas	acq_US_pleas_nomask	acq45_nomask	5	20	400	1	300	300	0	0	449	50	1	0	engagiert	träumen	gesittet	kreativ	vergnügt	kuss	engstirnig	töten	geizig	krank	verbissen	krise	genießen	anregung	vertrauen	gütig	besonnen	sonnig	gemein	ausrottung	versagen	gierig	bange	sterben	1	blank2r.bmp	0	1	+	0	1	blank2r.bmp	500	1	CPLW	500	1	blank2r.bmp	880	6	kuss	880	1	!	1232	1	!	1352	0	0	0	0	0	0
2024-05-08	11:26:29	11:35:25	535519	6.6.1	4_exp_EVA_AWA_CON	18	A	B	Rpleas_acq	Oppo	Rpleas	1pleas	acq_US_pleas_nomask	acq45_nomask	5	21	400	0	300	300	0	0	522	50	1	0	engagiert	träumen	gesittet	kreativ	vergnügt	kuss	engstirnig	töten	geizig	krank	verbissen	krise	genießen	anregung	vertrauen	gütig	besonnen	sonnig	gemein	ausrottung	versagen	gierig	bange	sterben	1	blank2r.bmp	0	1	+	0	1	blank2r.bmp	500	1	CPLW	500	1	blank2r.bmp	880	2	träumen	880	1	!	1232	1	!	-1	0	0	0	0	0	0
2024-05-08	11:26:29	11:35:27	537697	6.6.1	4_exp_EVA_AWA_CON	18	A	B	Rpleas_acq	Oppo	Rpleas	1pleas	acq_US_unple_nomask	acq45_nomask	5	22	400	1	300	300	0	0	396	46	1	0	engagiert	träumen	gesittet	kreativ	vergnügt	kuss	engstirnig	töten	geizig	krank	verbissen	krise	genießen	anregung	vertrauen	gütig	besonnen	sonnig	gemein	ausrottung	versagen	gierig	bange	sterben	1	blank2r.bmp	0	1	+	0	1	blank2r.bmp	500	1	DHJF	500	1	blank2r.bmp	880	6	krise	880	1	!	1232	1	!	1298	0	0	0	0	0	0
2024-05-08	11:26:29	11:35:29	540039	6.6.1	4_exp_EVA_AWA_CON	18	A	B	Rpleas_acq	Oppo	Rpleas	1pleas	acq_US_unple_nomask	acq45_nomask	5	23	400	0	300	300	0	0	569	46	1	0	engagiert	träumen	gesittet	kreativ	vergnügt	kuss	engstirnig	töten	geizig	krank	verbissen	krise	genießen	anregung	vertrauen	gütig	besonnen	sonnig	gemein	ausrottung	versagen	gierig	bange	sterben	1	blank2r.bmp	0	1	+	0	1	blank2r.bmp	500	1	DHJF	500	1	blank2r.bmp	880	2	töten	880	1	!	1232	1	!	-1	0	0	0	0	0	0
2024-05-08	11:26:29	11:35:31	542250	6.6.1	4_exp_EVA_AWA_CON	18	A	B	Rpleas_acq	Oppo	Rpleas	1pleas	acq_US_pleas_nomask	acq45_nomask	5	24	400	1	300	300	0	0	435	50	1	0	engagiert	träumen	gesittet	kreativ	vergnügt	kuss	engstirnig	töten	geizig	krank	verbissen	krise	genießen	anregung	vertrauen	gütig	besonnen	sonnig	gemein	ausrottung	versagen	gierig	bange	sterben	1	blank2r.bmp	0	1	+	0	1	blank2r.bmp	500	1	CPLW	500	1	blank2r.bmp	880	1	engagiert	880	1	!	1232	1	!	1338	0	0	0	0	0	0
2024-05-08	11:26:29	11:35:34	544489	6.6.1	4_exp_EVA_AWA_CON	18	A	B	Rpleas_acq	Oppo	Rpleas	1pleas	acq_US_unple_nomask	acq45_nomask	5	25	400	1	300	300	0	0	464	50	0	0	engagiert	träumen	gesittet	kreativ	vergnügt	kuss	engstirnig	töten	geizig	krank	verbissen	krise	genießen	anregung	vertrauen	gütig	besonnen	sonnig	gemein	ausrottung	versagen	gierig	bange	sterben	1	blank2r.bmp	0	1	+	0	1	blank2r.bmp	500	1	DHJF	500	1	blank2r.bmp	880	5	verbissen	880	1	!	1232	1	!	1366	0	0	0	0	0	0
2024-05-08	11:26:29	11:35:36	546729	6.6.1	4_exp_EVA_AWA_CON	18	A	B	Rpleas_acq	Oppo	Rpleas	1pleas	acq_US_pleas_nomask	acq45_nomask	5	26	400	1	300	300	0	0	462	50	1	0	engagiert	träumen	gesittet	kreativ	vergnügt	kuss	engstirnig	töten	geizig	krank	verbissen	krise	genießen	anregung	vertrauen	gütig	besonnen	sonnig	gemein	ausrottung	versagen	gierig	bange	sterben	1	blank2r.bmp	0	1	+	0	1	blank2r.bmp	500	1	CPLW	500	1	blank2r.bmp	880	3	gesittet	880	1	!	1233	1	!	1364	0	0	0	0	0	0
2024-05-08	11:26:29	11:35:38	548999	6.6.1	4_exp_EVA_AWA_CON	18	A	B	Rpleas_acq	Oppo	Rpleas	1pleas	acq_US_pleas_nomask	acq45_nomask	5	27	400	0	300	300	0	0	493	50	1	0	engagiert	träumen	gesittet	kreativ	vergnügt	kuss	engstirnig	töten	geizig	krank	verbissen	krise	genießen	anregung	vertrauen	gütig	besonnen	sonnig	gemein	ausrottung	versagen	gierig	bange	sterben	1	blank2r.bmp	0	1	+	0	1	blank2r.bmp	500	1	CPLW	500	1	blank2r.bmp	880	6	kuss	880	1	!	1232	1	!	-1	0	0	0	0	0	0
2024-05-08	11:26:29	11:35:40	551161	6.6.1	4_exp_EVA_AWA_CON	18	A	B	Rpleas_acq	Oppo	Rpleas	1pleas	acq_US_unple_nomask	acq45_nomask	5	28	400	1	300	300	0	0	382	46	1	0	engagiert	träumen	gesittet	kreativ	vergnügt	kuss	engstirnig	töten	geizig	krank	verbissen	krise	genießen	anregung	vertrauen	gütig	besonnen	sonnig	gemein	ausrottung	versagen	gierig	bange	sterben	1	blank2r.bmp	0	1	+	0	1	blank2r.bmp	500	1	DHJF	500	1	blank2r.bmp	880	1	engstirnig	880	1	!	1232	1	!	1283	0	0	0	0	0	0
2024-05-08	11:26:29	11:35:42	553345	6.6.1	4_exp_EVA_AWA_CON	18	A	B	Rpleas_acq	Oppo	Rpleas	1pleas	acq_US_pleas_nomask	acq45_nomask	5	29	400	1	300	300	0	0	404	50	1	0	engagiert	träumen	gesittet	kreativ	vergnügt	kuss	engstirnig	töten	geizig	krank	verbissen	krise	genießen	anregung	vertrauen	gütig	besonnen	sonnig	gemein	ausrottung	versagen	gierig	bange	sterben	1	blank2r.bmp	0	1	+	0	1	blank2r.bmp	500	1	CPLW	500	1	blank2r.bmp	880	4	kreativ	880	1	!	1232	1	!	1306	0	0	0	0	0	0
2024-05-08	11:26:29	11:35:45	555431	6.6.1	4_exp_EVA_AWA_CON	18	A	B	Rpleas_acq	Oppo	Rpleas	1pleas	acq_US_unple_nomask	acq45_nomask	5	30	400	0	300	300	0	0	312	46	1	0	engagiert	träumen	gesittet	kreativ	vergnügt	kuss	engstirnig	töten	geizig	krank	verbissen	krise	genießen	anregung	vertrauen	gütig	besonnen	sonnig	gemein	ausrottung	versagen	gierig	bange	sterben	1	blank2r.bmp	0	1	+	0	1	blank2r.bmp	500	1	DHJF	500	1	blank2r.bmp	880	2	töten	880	1	!	-1	1	!	-1	0	0	0	0	0	0
2024-05-08	11:26:29	11:35:47	557594	6.6.1	4_exp_EVA_AWA_CON	18	A	B	Rpleas_acq	Oppo	Rpleas	1pleas	acq_US_unple_nomask	acq45_nomask	5	31	400	1	300	300	0	0	379	50	0	0	engagiert	träumen	gesittet	kreativ	vergnügt	kuss	engstirnig	töten	geizig	krank	verbissen	krise	genießen	anregung	vertrauen	gütig	besonnen	sonnig	gemein	ausrottung	versagen	gierig	bange	sterben	1	blank2r.bmp	0	1	+	0	1	blank2r.bmp	500	1	DHJF	500	1	blank2r.bmp	880	5	verbissen	880	1	!	1232	1	!	1282	0	0	0	0	0	0
2024-05-08	11:26:29	11:35:49	559761	6.6.1	4_exp_EVA_AWA_CON	18	A	B	Rpleas_acq	Oppo	Rpleas	1pleas	acq_US_unple_nomask	acq45_nomask	5	32	400	1	300	300	0	0	386	46	1	0	engagiert	träumen	gesittet	kreativ	vergnügt	kuss	engstirnig	töten	geizig	krank	verbissen	krise	genießen	anregung	vertrauen	gütig	besonnen	sonnig	gemein	ausrottung	versagen	gierig	bange	sterben	1	blank2r.bmp	0	1	+	0	1	blank2r.bmp	500	1	DHJF	500	1	blank2r.bmp	880	4	krank	880	1	!	1232	1	!	1288	0	0	0	0	0	0
2024-05-08	11:26:29	11:35:51	561945	6.6.1	4_exp_EVA_AWA_CON	18	A	B	Rpleas_acq	Oppo	Rpleas	1pleas	acq_US_unple_nomask	acq45_nomask	5	33	400	1	300	300	0	0	408	46	1	0	engagiert	träumen	gesittet	kreativ	vergnügt	kuss	engstirnig	töten	geizig	krank	verbissen	krise	genießen	anregung	vertrauen	gütig	besonnen	sonnig	gemein	ausrottung	versagen	gierig	bange	sterben	1	blank2r.bmp	0	1	+	0	1	blank2r.bmp	500	1	DHJF	500	1	blank2r.bmp	880	3	geizig	880	1	!	1232	1	!	1310	0	0	0	0	0	0
2024-05-08	11:26:29	11:35:53	564081	6.6.1	4_exp_EVA_AWA_CON	18	A	B	Rpleas_acq	Oppo	Rpleas	1pleas	acq_US_pleas_nomask	acq45_nomask	5	34	400	1	300	300	0	0	353	50	1	0	engagiert	träumen	gesittet	kreativ	vergnügt	kuss	engstirnig	töten	geizig	krank	verbissen	krise	genießen	anregung	vertrauen	gütig	besonnen	sonnig	gemein	ausrottung	versagen	gierig	bange	sterben	1	blank2r.bmp	0	1	+	0	1	blank2r.bmp	500	1	CPLW	500	1	blank2r.bmp	880	2	träumen	880	1	!	1233	1	!	1255	0	0	0	0	0	0
2024-05-08	11:26:29	11:35:55	566210	6.6.1	4_exp_EVA_AWA_CON	18	A	B	Rpleas_acq	Oppo	Rpleas	1pleas	acq_US_pleas_nomask	acq45_nomask	5	35	400	1	300	300	0	0	350	50	1	0	engagiert	träumen	gesittet	kreativ	vergnügt	kuss	engstirnig	töten	geizig	krank	verbissen	krise	genießen	anregung	vertrauen	gütig	besonnen	sonnig	gemein	ausrottung	versagen	gierig	bange	sterben	1	blank2r.bmp	0	1	+	0	1	blank2r.bmp	500	1	CPLW	500	1	blank2r.bmp	880	5	vergnügt	880	1	!	1233	1	!	1252	0	0	0	0	0	0
2024-05-08	11:26:29	11:35:57	568303	6.6.1	4_exp_EVA_AWA_CON	18	A	B	Rpleas_acq	Oppo	Rpleas	1pleas	acq_US_unple_nomask	acq45_nomask	5	36	400	0	300	300	0	0	314	46	1	0	engagiert	träumen	gesittet	kreativ	vergnügt	kuss	engstirnig	töten	geizig	krank	verbissen	krise	genießen	anregung	vertrauen	gütig	besonnen	sonnig	gemein	ausrottung	versagen	gierig	bange	sterben	1	blank2r.bmp	0	1	+	0	1	blank2r.bmp	500	1	DHJF	500	1	blank2r.bmp	880	6	krise	880	1	!	-1	1	!	-1	0	0	0	0	0	0
2024-05-08	11:26:29	11:36:15	585429	6.6.1	4_exp_EVA_AWA_CON	18	A	B	Rpleas_acq	Oppo	Lpleas	1pleas	EvalRating_firsttwo	EvalRating_firsttwo	6	1	0	0	300	300	0	0	3471	line	0	16,1458333333333428072pct	engagiert	träumen	gesittet	kreativ	vergnügt	kuss	engstirnig	töten	geizig	krank	verbissen	krise	genießen	anregung	vertrauen	gütig	besonnen	sonnig	gemein	ausrottung	versagen	gierig	bange	sterben	1		-8	1	Wie angenehm oder unangenehm finden Sie die  Buchstabenkette WDLH?	-8	1		-8	1		-8	1		-8	1	Unangenehm	-8	1	Angenehm	-8	0	0	0	0	0	0	0	0	0
2024-05-08	11:26:29	11:36:19	589485	6.6.1	4_exp_EVA_AWA_CON	18	A	B	Rpleas_acq	Oppo	Lpleas	1pleas	EvalRating_lastfour	EvalRating_lastfour	7	1	0	0	300	300	0	0	1683	line	0	-14,5833333333333285964pct	engagiert	träumen	gesittet	kreativ	vergnügt	kuss	engstirnig	töten	geizig	krank	verbissen	krise	genießen	anregung	vertrauen	gütig	besonnen	sonnig	gemein	ausrottung	versagen	gierig	bange	sterben	1		-8	3	Wie angenehm oder unangenehm finden Sie die  Buchstabenkette FCJP?	-8	1		-8	1		-8	1		-8	1	Unangenehm	-8	1	Angenehm	-8	0	0	0	0	0	0	0	0	0
2024-05-08	11:26:29	11:36:21	591856	6.6.1	4_exp_EVA_AWA_CON	18	A	B	Rpleas_acq	Oppo	Lpleas	1pleas	blank_screen	EvalRating_lastfour	7	3	0	0	300	300	0	0	0	0	0	-14,5833333333333285964pct	engagiert	träumen	gesittet	kreativ	vergnügt	kuss	engstirnig	töten	geizig	krank	verbissen	krise	genießen	anregung	vertrauen	gütig	besonnen	sonnig	gemein	ausrottung	versagen	gierig	bange	sterben	1		-8	0	0	0	0	0	0	0	0	0	0	0	0	0	0	0	0	0	0	0	0	0	0	0	0	0	0	0
2024-05-08	11:26:29	11:36:25	595509	6.6.1	4_exp_EVA_AWA_CON	18	A	B	Rpleas_acq	Oppo	Lpleas	1pleas	EvalRating_lastfour	EvalRating_lastfour	7	4	0	0	300	300	0	0	3064	line	0	-3,125pct	engagiert	träumen	gesittet	kreativ	vergnügt	kuss	engstirnig	töten	geizig	krank	verbissen	krise	genießen	anregung	vertrauen	gütig	besonnen	sonnig	gemein	ausrottung	versagen	gierig	bange	sterben	1		-8	1	Wie angenehm oder unangenehm finden Sie die  Buchstabenkette CPLW?	-8	1		-8	1		-8	1		-8	1	Unangenehm	-8	1	Angenehm	-8	0	0	0	0	0	0	0	0	0
2024-05-08	11:26:29	11:36:27	597880	6.6.1	4_exp_EVA_AWA_CON	18	A	B	Rpleas_acq	Oppo	Lpleas	1pleas	blank_screen	EvalRating_lastfour	7	6	0	0	300	300	0	0	0	0	0	-3,125pct	engagiert	träumen	gesittet	kreativ	vergnügt	kuss	engstirnig	töten	geizig	krank	verbissen	krise	genießen	anregung	vertrauen	gütig	besonnen	sonnig	gemein	ausrottung	versagen	gierig	bange	sterben	1		-8	0	0	0	0	0	0	0	0	0	0	0	0	0	0	0	0	0	0	0	0	0	0	0	0	0	0	0
2024-05-08	11:26:29	11:36:30	600884	6.6.1	4_exp_EVA_AWA_CON	18	A	B	Rpleas_acq	Oppo	Lpleas	1pleas	EvalRating_lastfour	EvalRating_lastfour	7	7	0	0	300	300	0	0	2415	line	0	27,34375pct	engagiert	träumen	gesittet	kreativ	vergnügt	kuss	engstirnig	töten	geizig	krank	verbissen	krise	genießen	anregung	vertrauen	gütig	besonnen	sonnig	gemein	ausrottung	versagen	gierig	bange	sterben	1		-8	2	Wie angenehm oder unangenehm finden Sie die  Buchstabenkette DHJF?	-8	1		-8	1		-8	1		-8	1	Unangenehm	-8	1	Angenehm	-8	0	0	0	0	0	0	0	0	0
2024-05-08	11:26:29	11:37:05	636293	6.6.1	4_exp_EVA_AWA_CON	18	A	B	Rpleas_acq	Oppo	Lpleas	1pleas	conawa_CS1_US2	conawa1_nomask	8	1	0	0	300	300	0	0	11646	töten	1	27,34375pct	engagiert	träumen	gesittet	kreativ	vergnügt	kuss	engstirnig	töten	geizig	krank	verbissen	krise	genießen	anregung	vertrauen	gütig	besonnen	sonnig	gemein	ausrottung	versagen	gierig	bange	sterben	0	0	0	0	0	0	0	0	0	0	0	0	0	0	0	0	0	0	0	0	0	0	0	0	0	0	0	0	0	0
2024-05-08	11:26:29	11:37:05	636294	6.6.1	4_exp_EVA_AWA_CON	18	A	B	Rpleas_acq	Oppo	Lpleas	1pleas	conawa_CS1_US2_confidence	conawa1_nomask	8	1	0	0	300	300	0	0	11646	guess	1	27,34375pct	engagiert	träumen	gesittet	kreativ	vergnügt	kuss	engstirnig	töten	geizig	krank	verbissen	krise	genießen	anregung	vertrauen	gütig	besonnen	sonnig	gemein	ausrottung	versagen	gierig	bange	sterben	0	0	0	0	0	0	0	0	0	0	0	0	0	0	0	0	0	0	0	0	0	0	0	0	0	0	0	0	0	0
2024-05-08	11:26:29	11:37:13	643598	6.6.1	4_exp_EVA_AWA_CON	18	A	B	Rpleas_acq	Oppo	Lpleas	1pleas	conawa_CS2_US2	conawa1_nomask	8	2	0	0	300	300	0	0	6686	träumen	1	27,34375pct	engagiert	träumen	gesittet	kreativ	vergnügt	kuss	engstirnig	töten	geizig	krank	verbissen	krise	genießen	anregung	vertrauen	gütig	besonnen	sonnig	gemein	ausrottung	versagen	gierig	bange	sterben	0	0	0	0	0	0	0	0	0	0	0	0	0	0	0	0	0	0	0	0	0	0	0	0	0	0	0	0	0	0
2024-05-08	11:26:29	11:37:13	643599	6.6.1	4_exp_EVA_AWA_CON	18	A	B	Rpleas_acq	Oppo	Lpleas	1pleas	conawa_CS2_US2_confidence	conawa1_nomask	8	2	0	0	300	300	0	0	6686	guess	1	27,34375pct	engagiert	träumen	gesittet	kreativ	vergnügt	kuss	engstirnig	töten	geizig	krank	verbissen	krise	genießen	anregung	vertrauen	gütig	besonnen	sonnig	gemein	ausrottung	versagen	gierig	bange	sterben	0	0	0	0	0	0	0	0	0	0	0	0	0	0	0	0	0	0	0	0	0	0	0	0	0	0	0	0	0	0
2024-05-08	11:26:29	11:37:20	650672	6.6.1	4_exp_EVA_AWA_CON	18	A	B	Rpleas_acq	Oppo	Lpleas	1pleas	conawa_CS2_US1	conawa1_nomask	8	3	0	0	300	300	0	0	6465	anregung	1	27,34375pct	engagiert	träumen	gesittet	kreativ	vergnügt	kuss	engstirnig	töten	geizig	krank	verbissen	krise	genießen	anregung	vertrauen	gütig	besonnen	sonnig	gemein	ausrottung	versagen	gierig	bange	sterben	0	0	0	0	0	0	0	0	0	0	0	0	0	0	0	0	0	0	0	0	0	0	0	0	0	0	0	0	0	0
2024-05-08	11:26:29	11:37:20	650673	6.6.1	4_exp_EVA_AWA_CON	18	A	B	Rpleas_acq	Oppo	Lpleas	1pleas	conawa_CS2_US1_confidence	conawa1_nomask	8	3	0	0	300	300	0	0	6465	guess	1	27,34375pct	engagiert	träumen	gesittet	kreativ	vergnügt	kuss	engstirnig	töten	geizig	krank	verbissen	krise	genießen	anregung	vertrauen	gütig	besonnen	sonnig	gemein	ausrottung	versagen	gierig	bange	sterben	0	0	0	0	0	0	0	0	0	0	0	0	0	0	0	0	0	0	0	0	0	0	0	0	0	0	0	0	0	0
2024-05-08	11:26:29	11:37:26	657107	6.6.1	4_exp_EVA_AWA_CON	18	A	B	Rpleas_acq	Oppo	Lpleas	1pleas	conawa_CS2_US3	conawa1_nomask	8	4	0	0	300	300	0	0	5822	gütig	1	27,34375pct	engagiert	träumen	gesittet	kreativ	vergnügt	kuss	engstirnig	töten	geizig	krank	verbissen	krise	genießen	anregung	vertrauen	gütig	besonnen	sonnig	gemein	ausrottung	versagen	gierig	bange	sterben	0	0	0	0	0	0	0	0	0	0	0	0	0	0	0	0	0	0	0	0	0	0	0	0	0	0	0	0	0	0
2024-05-08	11:26:29	11:37:26	657108	6.6.1	4_exp_EVA_AWA_CON	18	A	B	Rpleas_acq	Oppo	Lpleas	1pleas	conawa_CS2_US3_confidence	conawa1_nomask	8	4	0	0	300	300	0	0	5822	guess	1	27,34375pct	engagiert	träumen	gesittet	kreativ	vergnügt	kuss	engstirnig	töten	geizig	krank	verbissen	krise	genießen	anregung	vertrauen	gütig	besonnen	sonnig	gemein	ausrottung	versagen	gierig	bange	sterben	0	0	0	0	0	0	0	0	0	0	0	0	0	0	0	0	0	0	0	0	0	0	0	0	0	0	0	0	0	0
2024-05-08	11:26:29	11:37:33	663761	6.6.1	4_exp_EVA_AWA_CON	18	A	B	Rpleas_acq	Oppo	Lpleas	1pleas	conawa_CS2_US4	conawa1_nomask	8	5	0	0	300	300	0	0	6036	kreativ	1	27,34375pct	engagiert	träumen	gesittet	kreativ	vergnügt	kuss	engstirnig	töten	geizig	krank	verbissen	krise	genießen	anregung	vertrauen	gütig	besonnen	sonnig	gemein	ausrottung	versagen	gierig	bange	sterben	0	0	0	0	0	0	0	0	0	0	0	0	0	0	0	0	0	0	0	0	0	0	0	0	0	0	0	0	0	0
2024-05-08	11:26:29	11:37:33	663762	6.6.1	4_exp_EVA_AWA_CON	18	A	B	Rpleas_acq	Oppo	Lpleas	1pleas	conawa_CS2_US4_confidence	conawa1_nomask	8	5	0	0	300	300	0	0	6036	probably	1	27,34375pct	engagiert	träumen	gesittet	kreativ	vergnügt	kuss	engstirnig	töten	geizig	krank	verbissen	krise	genießen	anregung	vertrauen	gütig	besonnen	sonnig	gemein	ausrottung	versagen	gierig	bange	sterben	0	0	0	0	0	0	0	0	0	0	0	0	0	0	0	0	0	0	0	0	0	0	0	0	0	0	0	0	0	0
2024-05-08	11:26:29	11:37:43	673547	6.6.1	4_exp_EVA_AWA_CON	18	A	B	Rpleas_acq	Oppo	Lpleas	1pleas	conawa_CS1_US3	conawa1_nomask	8	6	0	0	300	300	0	0	9175	geizig	1	27,34375pct	engagiert	träumen	gesittet	kreativ	vergnügt	kuss	engstirnig	töten	geizig	krank	verbissen	krise	genießen	anregung	vertrauen	gütig	besonnen	sonnig	gemein	ausrottung	versagen	gierig	bange	sterben	0	0	0	0	0	0	0	0	0	0	0	0	0	0	0	0	0	0	0	0	0	0	0	0	0	0	0	0	0	0
2024-05-08	11:26:29	11:37:43	673549	6.6.1	4_exp_EVA_AWA_CON	18	A	B	Rpleas_acq	Oppo	Lpleas	1pleas	conawa_CS1_US3_confidence	conawa1_nomask	8	6	0	0	300	300	0	0	9175	guess	1	27,34375pct	engagiert	träumen	gesittet	kreativ	vergnügt	kuss	engstirnig	töten	geizig	krank	verbissen	krise	genießen	anregung	vertrauen	gütig	besonnen	sonnig	gemein	ausrottung	versagen	gierig	bange	sterben	0	0	0	0	0	0	0	0	0	0	0	0	0	0	0	0	0	0	0	0	0	0	0	0	0	0	0	0	0	0
2024-05-08	11:26:29	11:37:48	679011	6.6.1	4_exp_EVA_AWA_CON	18	A	B	Rpleas_acq	Oppo	Lpleas	1pleas	conawa_CS2_US5	conawa1_nomask	8	7	0	0	300	300	0	0	4851	vergnügt	1	27,34375pct	engagiert	träumen	gesittet	kreativ	vergnügt	kuss	engstirnig	töten	geizig	krank	verbissen	krise	genießen	anregung	vertrauen	gütig	besonnen	sonnig	gemein	ausrottung	versagen	gierig	bange	sterben	0	0	0	0	0	0	0	0	0	0	0	0	0	0	0	0	0	0	0	0	0	0	0	0	0	0	0	0	0	0
2024-05-08	11:26:29	11:37:48	679012	6.6.1	4_exp_EVA_AWA_CON	18	A	B	Rpleas_acq	Oppo	Lpleas	1pleas	conawa_CS2_US5_confidence	conawa1_nomask	8	7	0	0	300	300	0	0	4851	guess	1	27,34375pct	engagiert	träumen	gesittet	kreativ	vergnügt	kuss	engstirnig	töten	geizig	krank	verbissen	krise	genießen	anregung	vertrauen	gütig	besonnen	sonnig	gemein	ausrottung	versagen	gierig	bange	sterben	0	0	0	0	0	0	0	0	0	0	0	0	0	0	0	0	0	0	0	0	0	0	0	0	0	0	0	0	0	0
2024-05-08	11:26:29	11:37:54	684714	6.6.1	4_exp_EVA_AWA_CON	18	A	B	Rpleas_acq	Oppo	Lpleas	1pleas	conawa_CS1_US6	conawa1_nomask	8	8	0	0	300	300	0	0	5093	sterben	1	27,34375pct	engagiert	träumen	gesittet	kreativ	vergnügt	kuss	engstirnig	töten	geizig	krank	verbissen	krise	genießen	anregung	vertrauen	gütig	besonnen	sonnig	gemein	ausrottung	versagen	gierig	bange	sterben	0	0	0	0	0	0	0	0	0	0	0	0	0	0	0	0	0	0	0	0	0	0	0	0	0	0	0	0	0	0
2024-05-08	11:26:29	11:37:54	684716	6.6.1	4_exp_EVA_AWA_CON	18	A	B	Rpleas_acq	Oppo	Lpleas	1pleas	conawa_CS1_US6_confidence	conawa1_nomask	8	8	0	0	300	300	0	0	5093	guess	1	27,34375pct	engagiert	träumen	gesittet	kreativ	vergnügt	kuss	engstirnig	töten	geizig	krank	verbissen	krise	genießen	anregung	vertrauen	gütig	besonnen	sonnig	gemein	ausrottung	versagen	gierig	bange	sterben	0	0	0	0	0	0	0	0	0	0	0	0	0	0	0	0	0	0	0	0	0	0	0	0	0	0	0	0	0	0
2024-05-08	11:26:29	11:38:03	693490	6.6.1	4_exp_EVA_AWA_CON	18	A	B	Rpleas_acq	Oppo	Lpleas	1pleas	conawa_CS1_US5	conawa1_nomask	8	9	0	0	300	300	0	0	8165	bange	1	27,34375pct	engagiert	träumen	gesittet	kreativ	vergnügt	kuss	engstirnig	töten	geizig	krank	verbissen	krise	genießen	anregung	vertrauen	gütig	besonnen	sonnig	gemein	ausrottung	versagen	gierig	bange	sterben	0	0	0	0	0	0	0	0	0	0	0	0	0	0	0	0	0	0	0	0	0	0	0	0	0	0	0	0	0	0
2024-05-08	11:26:29	11:38:03	693491	6.6.1	4_exp_EVA_AWA_CON	18	A	B	Rpleas_acq	Oppo	Lpleas	1pleas	conawa_CS1_US5_confidence	conawa1_nomask	8	9	0	0	300	300	0	0	8165	guess	1	27,34375pct	engagiert	träumen	gesittet	kreativ	vergnügt	kuss	engstirnig	töten	geizig	krank	verbissen	krise	genießen	anregung	vertrauen	gütig	besonnen	sonnig	gemein	ausrottung	versagen	gierig	bange	sterben	0	0	0	0	0	0	0	0	0	0	0	0	0	0	0	0	0	0	0	0	0	0	0	0	0	0	0	0	0	0
2024-05-08	11:26:29	11:38:10	701325	6.6.1	4_exp_EVA_AWA_CON	18	A	B	Rpleas_acq	Oppo	Lpleas	1pleas	conawa_CS1_US4	conawa1_nomask	8	10	0	0	300	300	0	0	7222	krank	1	27,34375pct	engagiert	träumen	gesittet	kreativ	vergnügt	kuss	engstirnig	töten	geizig	krank	verbissen	krise	genießen	anregung	vertrauen	gütig	besonnen	sonnig	gemein	ausrottung	versagen	gierig	bange	sterben	0	0	0	0	0	0	0	0	0	0	0	0	0	0	0	0	0	0	0	0	0	0	0	0	0	0	0	0	0	0
2024-05-08	11:26:29	11:38:10	701327	6.6.1	4_exp_EVA_AWA_CON	18	A	B	Rpleas_acq	Oppo	Lpleas	1pleas	conawa_CS1_US4_confidence	conawa1_nomask	8	10	0	0	300	300	0	0	7222	guess	1	27,34375pct	engagiert	träumen	gesittet	kreativ	vergnügt	kuss	engstirnig	töten	geizig	krank	verbissen	krise	genießen	anregung	vertrauen	gütig	besonnen	sonnig	gemein	ausrottung	versagen	gierig	bange	sterben	0	0	0	0	0	0	0	0	0	0	0	0	0	0	0	0	0	0	0	0	0	0	0	0	0	0	0	0	0	0
2024-05-08	11:26:29	11:38:20	710862	6.6.1	4_exp_EVA_AWA_CON	18	A	B	Rpleas_acq	Oppo	Lpleas	1pleas	conawa_CS2_US6	conawa1_nomask	8	11	0	0	300	300	0	0	8921	kuss	1	27,34375pct	engagiert	träumen	gesittet	kreativ	vergnügt	kuss	engstirnig	töten	geizig	krank	verbissen	krise	genießen	anregung	vertrauen	gütig	besonnen	sonnig	gemein	ausrottung	versagen	gierig	bange	sterben	0	0	0	0	0	0	0	0	0	0	0	0	0	0	0	0	0	0	0	0	0	0	0	0	0	0	0	0	0	0
2024-05-08	11:26:29	11:38:20	710863	6.6.1	4_exp_EVA_AWA_CON	18	A	B	Rpleas_acq	Oppo	Lpleas	1pleas	conawa_CS2_US6_confidence	conawa1_nomask	8	11	0	0	300	300	0	0	8921	guess	1	27,34375pct	engagiert	träumen	gesittet	kreativ	vergnügt	kuss	engstirnig	töten	geizig	krank	verbissen	krise	genießen	anregung	vertrauen	gütig	besonnen	sonnig	gemein	ausrottung	versagen	gierig	bange	sterben	0	0	0	0	0	0	0	0	0	0	0	0	0	0	0	0	0	0	0	0	0	0	0	0	0	0	0	0	0	0
2024-05-08	11:26:29	11:38:30	720939	6.6.1	4_exp_EVA_AWA_CON	18	A	B	Rpleas_acq	Oppo	Lpleas	1pleas	conawa_CS1_US1	conawa1_nomask	8	12	0	0	300	300	0	0	9458	gemein	1	27,34375pct	engagiert	träumen	gesittet	kreativ	vergnügt	kuss	engstirnig	töten	geizig	krank	verbissen	krise	genießen	anregung	vertrauen	gütig	besonnen	sonnig	gemein	ausrottung	versagen	gierig	bange	sterben	0	0	0	0	0	0	0	0	0	0	0	0	0	0	0	0	0	0	0	0	0	0	0	0	0	0	0	0	0	0
2024-05-08	11:26:29	11:38:30	720940	6.6.1	4_exp_EVA_AWA_CON	18	A	B	Rpleas_acq	Oppo	Lpleas	1pleas	conawa_CS1_US1_confidence	conawa1_nomask	8	12	0	0	300	300	0	0	9458	guess	1	27,34375pct	engagiert	träumen	gesittet	kreativ	vergnügt	kuss	engstirnig	töten	geizig	krank	verbissen	krise	genießen	anregung	vertrauen	gütig	besonnen	sonnig	gemein	ausrottung	versagen	gierig	bange	sterben	0	0	0	0	0	0	0	0	0	0	0	0	0	0	0	0	0	0	0	0	0	0	0	0	0	0	0	0	0	0
2024-05-08	11:26:29	11:39:30	781337	6.6.1	4_exp_EVA_AWA_CON	18	A	B	Rpleas_acq	Oppo	Lpleas	1pleas	cond_new_pleas_456_nomask_CS1	condtest_nomask_1	11	1	400	1	300	300	0	0	468	46	1	27,34375pct	engagiert	träumen	gesittet	kreativ	vergnügt	kuss	engstirnig	töten	geizig	krank	verbissen	krise	genießen	anregung	vertrauen	gütig	besonnen	sonnig	gemein	ausrottung	versagen	gierig	bange	sterben	1	blank2r.bmp	0	1	+	0	1	blank2r.bmp	500	1	CPLW	500	1	blank2r.bmp	880	2	besonnen	880	1	!	1232	1	!	1369	0	0	0	0	0	0
2024-05-08	11:26:29	11:39:33	783751	6.6.1	4_exp_EVA_AWA_CON	18	A	B	Rpleas_acq	Oppo	Lpleas	1pleas	cond_US_pleas_123_nomask_CS1	condtest_nomask_1	11	2	400	0	300	300	0	0	632	46	1	27,34375pct	engagiert	träumen	gesittet	kreativ	vergnügt	kuss	engstirnig	töten	geizig	krank	verbissen	krise	genießen	anregung	vertrauen	gütig	besonnen	sonnig	gemein	ausrottung	versagen	gierig	bange	sterben	1	blank2r.bmp	0	1	+	0	1	blank2r.bmp	500	1	CPLW	500	1	blank2r.bmp	880	1	engagiert	880	1	!	1232	1	!	-1	0	0	0	0	0	0
