date	time	currenttime	elapsedtime	build	currentexpt	subject	CS_AB	US_AB	LRpleas_acq	SameOppo	condition_Lpleas	condition_1pleas	trialcode	blockcode	blocknum	trialnum	windowcenter	inwindow	pretrialpause	posttrialpause	trialduration	trialtimeout	latency	response	correct	correctedscore	US_nomask_pleas1	US_nomask_pleas2	US_nomask_pleas3	US_nomask_pleas4	US_nomask_pleas5	US_nomask_pleas6	US_nomask_unple1	US_nomask_unple2	US_nomask_unple3	US_nomask_unple4	US_nomask_unple5	US_nomask_unple6	new_nomask_pleas1	new_nomask_pleas2	new_nomask_pleas3	new_nomask_pleas4	new_nomask_pleas5	new_nomask_pleas6	new_nomask_unple1	new_nomask_unple2	new_nomask_unple3	new_nomask_unple4	new_nomask_unple5	new_nomask_unple6	stimulusnumber1	stimulusitem1	stimulusonset1	stimulusnumber2	stimulusitem2	stimulusonset2	stimulusnumber3	stimulusitem3	stimulusonset3	stimulusnumber4	stimulusitem4	stimulusonset4	stimulusnumber5	stimulusitem5	stimulusonset5	stimulusnumber6	stimulusitem6	stimulusonset6	stimulusnumber7	stimulusitem7	stimulusonset7	stimulusnumber8	stimulusitem8	stimulusonset8	stimulusnumber9	stimulusitem9	stimulusonset9	stimulusnumber10	stimulusitem10	stimulusonset10
2024-06-06	10:25:10	10:27:33	140831	6.6.1	4_exp_EVA_AWA_CON	71	A	B	Rpleas_acq	Same	Rpleas	2pleas	acq_US_pleas_nomask	acq1_nomask	1	1	0	0	300	300	0	0	1128	50	1	0	vergnügt	kuss	gütig	anregung	genießen	sonnig	verbissen	krise	gierig	ausrottung	gemein	sterben	kreativ	träumen	besonnen	vertrauen	gesittet	engagiert	krank	töten	bange	versagen	geizig	engstirnig	1	blank2r.bmp	0	1	+	0	1	blank2r.bmp	500	1	DHJF	500	1	blank2r.bmp	880	3	gütig	880	0	0	0	0	0	0	0	0	0	0	0	0
2024-06-06	10:25:10	10:27:36	143522	6.6.1	4_exp_EVA_AWA_CON	71	A	B	Rpleas_acq	Same	Rpleas	2pleas	acq_US_unple_nomask	acq1_nomask	1	2	0	0	300	300	0	0	1197	46	1	0	vergnügt	kuss	gütig	anregung	genießen	sonnig	verbissen	krise	gierig	ausrottung	gemein	sterben	kreativ	träumen	besonnen	vertrauen	gesittet	engagiert	krank	töten	bange	versagen	geizig	engstirnig	1	blank2r.bmp	0	1	+	0	1	blank2r.bmp	500	1	CPLW	500	1	blank2r.bmp	880	2	krise	880	0	0	0	0	0	0	0	0	0	0	0	0
2024-06-06	10:25:10	10:27:38	146031	6.6.1	4_exp_EVA_AWA_CON	71	A	B	Rpleas_acq	Same	Rpleas	2pleas	acq_new_unple_nomask	acq1_nomask	1	3	0	0	300	300	0	0	1025	46	1	0	vergnügt	kuss	gütig	anregung	genießen	sonnig	verbissen	krise	gierig	ausrottung	gemein	sterben	kreativ	träumen	besonnen	vertrauen	gesittet	engagiert	krank	töten	bange	versagen	geizig	engstirnig	1	blank2r.bmp	0	1	+	0	1	blank2r.bmp	500	4	B4r.bmp	500	1	blank2r.bmp	880	3	bange	880	0	0	0	0	0	0	0	0	0	0	0	0
2024-06-06	10:25:10	10:27:40	148119	6.6.1	4_exp_EVA_AWA_CON	71	A	B	Rpleas_acq	Same	Rpleas	2pleas	acq_US_unple_nomask	acq1_nomask	1	4	0	0	300	300	0	0	601	46	1	0	vergnügt	kuss	gütig	anregung	genießen	sonnig	verbissen	krise	gierig	ausrottung	gemein	sterben	kreativ	träumen	besonnen	vertrauen	gesittet	engagiert	krank	töten	bange	versagen	geizig	engstirnig	1	blank2r.bmp	0	1	+	0	1	blank2r.bmp	500	1	CPLW	500	1	blank2r.bmp	880	5	gemein	880	0	0	0	0	0	0	0	0	0	0	0	0
2024-06-06	10:25:10	10:27:42	150391	6.6.1	4_exp_EVA_AWA_CON	71	A	B	Rpleas_acq	Same	Rpleas	2pleas	acq_US_pleas_nomask	acq1_nomask	1	5	0	0	300	300	0	0	782	50	1	0	vergnügt	kuss	gütig	anregung	genießen	sonnig	verbissen	krise	gierig	ausrottung	gemein	sterben	kreativ	träumen	besonnen	vertrauen	gesittet	engagiert	krank	töten	bange	versagen	geizig	engstirnig	1	blank2r.bmp	0	1	+	0	1	blank2r.bmp	500	1	DHJF	500	1	blank2r.bmp	880	1	vergnügt	880	0	0	0	0	0	0	0	0	0	0	0	0
2024-06-06	10:25:10	10:27:45	152935	6.6.1	4_exp_EVA_AWA_CON	71	A	B	Rpleas_acq	Same	Rpleas	2pleas	acq_new_pleas_nomask	acq1_nomask	1	6	0	0	300	300	0	0	1055	50	1	0	vergnügt	kuss	gütig	anregung	genießen	sonnig	verbissen	krise	gierig	ausrottung	gemein	sterben	kreativ	träumen	besonnen	vertrauen	gesittet	engagiert	krank	töten	bange	versagen	geizig	engstirnig	1	blank2r.bmp	0	1	+	0	1	blank2r.bmp	500	7	C3r.bmp	500	1	blank2r.bmp	880	5	gesittet	880	0	0	0	0	0	0	0	0	0	0	0	0
2024-06-06	10:25:10	10:27:47	154991	6.6.1	4_exp_EVA_AWA_CON	71	A	B	Rpleas_acq	Same	Rpleas	2pleas	acq_new_unple_nomask	acq1_nomask	1	7	0	0	300	300	0	0	569	46	1	0	vergnügt	kuss	gütig	anregung	genießen	sonnig	verbissen	krise	gierig	ausrottung	gemein	sterben	kreativ	träumen	besonnen	vertrauen	gesittet	engagiert	krank	töten	bange	versagen	geizig	engstirnig	1	blank2r.bmp	0	1	+	0	1	blank2r.bmp	500	5	C1r.bmp	500	1	blank2r.bmp	880	1	krank	880	0	0	0	0	0	0	0	0	0	0	0	0
2024-06-06	10:25:10	10:27:49	157055	6.6.1	4_exp_EVA_AWA_CON	71	A	B	Rpleas_acq	Same	Rpleas	2pleas	acq_new_unple_nomask	acq1_nomask	1	8	0	0	300	300	0	0	581	46	1	0	vergnügt	kuss	gütig	anregung	genießen	sonnig	verbissen	krise	gierig	ausrottung	gemein	sterben	kreativ	träumen	besonnen	vertrauen	gesittet	engagiert	krank	töten	bange	versagen	geizig	engstirnig	1	blank2r.bmp	0	1	+	0	1	blank2r.bmp	500	3	B3r.bmp	500	1	blank2r.bmp	880	2	töten	880	0	0	0	0	0	0	0	0	0	0	0	0
2024-06-06	10:25:10	10:27:51	159096	6.6.1	4_exp_EVA_AWA_CON	71	A	B	Rpleas_acq	Same	Rpleas	2pleas	acq_US_unple_nomask	acq1_nomask	1	9	0	0	300	300	0	0	560	46	1	0	vergnügt	kuss	gütig	anregung	genießen	sonnig	verbissen	krise	gierig	ausrottung	gemein	sterben	kreativ	träumen	besonnen	vertrauen	gesittet	engagiert	krank	töten	bange	versagen	geizig	engstirnig	1	blank2r.bmp	0	1	+	0	1	blank2r.bmp	500	1	CPLW	500	1	blank2r.bmp	880	6	sterben	880	0	0	0	0	0	0	0	0	0	0	0	0
2024-06-06	10:25:10	10:27:53	161119	6.6.1	4_exp_EVA_AWA_CON	71	A	B	Rpleas_acq	Same	Rpleas	2pleas	acq_US_pleas_nomask	acq1_nomask	1	10	0	0	300	300	0	0	543	50	1	0	vergnügt	kuss	gütig	anregung	genießen	sonnig	verbissen	krise	gierig	ausrottung	gemein	sterben	kreativ	träumen	besonnen	vertrauen	gesittet	engagiert	krank	töten	bange	versagen	geizig	engstirnig	1	blank2r.bmp	0	1	+	0	1	blank2r.bmp	500	1	DHJF	500	1	blank2r.bmp	880	2	kuss	880	0	0	0	0	0	0	0	0	0	0	0	0
2024-06-06	10:25:10	10:27:55	163319	6.6.1	4_exp_EVA_AWA_CON	71	A	B	Rpleas_acq	Same	Rpleas	2pleas	acq_new_pleas_nomask	acq1_nomask	1	11	0	0	300	300	0	0	712	50	1	0	vergnügt	kuss	gütig	anregung	genießen	sonnig	verbissen	krise	gierig	ausrottung	gemein	sterben	kreativ	träumen	besonnen	vertrauen	gesittet	engagiert	krank	töten	bange	versagen	geizig	engstirnig	1	blank2r.bmp	0	1	+	0	1	blank2r.bmp	500	2	B2r.bmp	500	1	blank2r.bmp	880	6	engagiert	880	0	0	0	0	0	0	0	0	0	0	0	0
2024-06-06	10:25:10	10:27:57	165400	6.6.1	4_exp_EVA_AWA_CON	71	A	B	Rpleas_acq	Same	Rpleas	2pleas	acq_new_pleas_nomask	acq1_nomask	1	12	0	0	300	300	0	0	590	50	1	0	vergnügt	kuss	gütig	anregung	genießen	sonnig	verbissen	krise	gierig	ausrottung	gemein	sterben	kreativ	träumen	besonnen	vertrauen	gesittet	engagiert	krank	töten	bange	versagen	geizig	engstirnig	1	blank2r.bmp	0	1	+	0	1	blank2r.bmp	500	1	B1r.bmp	500	1	blank2r.bmp	880	2	träumen	880	0	0	0	0	0	0	0	0	0	0	0	0
2024-06-06	10:25:10	10:28:00	167599	6.6.1	4_exp_EVA_AWA_CON	71	A	B	Rpleas_acq	Same	Rpleas	2pleas	acq_US_unple_nomask	acq1_nomask	1	13	0	0	300	300	0	0	719	46	1	0	vergnügt	kuss	gütig	anregung	genießen	sonnig	verbissen	krise	gierig	ausrottung	gemein	sterben	kreativ	träumen	besonnen	vertrauen	gesittet	engagiert	krank	töten	bange	versagen	geizig	engstirnig	1	blank2r.bmp	0	1	+	0	1	blank2r.bmp	500	1	CPLW	500	1	blank2r.bmp	880	1	verbissen	880	0	0	0	0	0	0	0	0	0	0	0	0
2024-06-06	10:25:10	10:28:02	169841	6.6.1	4_exp_EVA_AWA_CON	71	A	B	Rpleas_acq	Same	Rpleas	2pleas	acq_US_pleas_nomask	acq1_nomask	1	14	0	0	300	300	0	0	557	46	0	0	vergnügt	kuss	gütig	anregung	genießen	sonnig	verbissen	krise	gierig	ausrottung	gemein	sterben	kreativ	träumen	besonnen	vertrauen	gesittet	engagiert	krank	töten	bange	versagen	geizig	engstirnig	1	blank2r.bmp	0	1	+	0	1	blank2r.bmp	500	1	DHJF	500	1	blank2r.bmp	880	5	genießen	880	1	FEHLER	1459	0	0	0	0	0	0	0	0	0
2024-06-06	10:25:10	10:28:04	172039	6.6.1	4_exp_EVA_AWA_CON	71	A	B	Rpleas_acq	Same	Rpleas	2pleas	acq_new_unple_nomask	acq1_nomask	1	15	0	0	300	300	0	0	916	46	1	0	vergnügt	kuss	gütig	anregung	genießen	sonnig	verbissen	krise	gierig	ausrottung	gemein	sterben	kreativ	träumen	besonnen	vertrauen	gesittet	engagiert	krank	töten	bange	versagen	geizig	engstirnig	1	blank2r.bmp	0	1	+	0	1	blank2r.bmp	500	6	C2r.bmp	500	1	blank2r.bmp	880	6	engstirnig	880	0	0	0	0	0	0	0	0	0	0	0	0
2024-06-06	10:25:10	10:28:07	174616	6.6.1	4_exp_EVA_AWA_CON	71	A	B	Rpleas_acq	Same	Rpleas	2pleas	acq_US_unple_nomask	acq1_nomask	1	16	0	0	300	300	0	0	1091	46	1	0	vergnügt	kuss	gütig	anregung	genießen	sonnig	verbissen	krise	gierig	ausrottung	gemein	sterben	kreativ	träumen	besonnen	vertrauen	gesittet	engagiert	krank	töten	bange	versagen	geizig	engstirnig	1	blank2r.bmp	0	1	+	0	1	blank2r.bmp	500	1	CPLW	500	1	blank2r.bmp	880	4	ausrottung	880	0	0	0	0	0	0	0	0	0	0	0	0
2024-06-06	10:25:10	10:28:10	177511	6.6.1	4_exp_EVA_AWA_CON	71	A	B	Rpleas_acq	Same	Rpleas	2pleas	acq_new_unple_nomask	acq1_nomask	1	17	0	0	300	300	0	0	1415	46	1	0	vergnügt	kuss	gütig	anregung	genießen	sonnig	verbissen	krise	gierig	ausrottung	gemein	sterben	kreativ	träumen	besonnen	vertrauen	gesittet	engagiert	krank	töten	bange	versagen	geizig	engstirnig	1	blank2r.bmp	0	1	+	0	1	blank2r.bmp	500	8	C4r.bmp	500	1	blank2r.bmp	880	4	versagen	880	0	0	0	0	0	0	0	0	0	0	0	0
2024-06-06	10:25:10	10:28:12	179863	6.6.1	4_exp_EVA_AWA_CON	71	A	B	Rpleas_acq	Same	Rpleas	2pleas	acq_new_pleas_nomask	acq1_nomask	1	18	0	0	300	300	0	0	865	50	1	0	vergnügt	kuss	gütig	anregung	genießen	sonnig	verbissen	krise	gierig	ausrottung	gemein	sterben	kreativ	träumen	besonnen	vertrauen	gesittet	engagiert	krank	töten	bange	versagen	geizig	engstirnig	1	blank2r.bmp	0	1	+	0	1	blank2r.bmp	500	2	B2r.bmp	500	1	blank2r.bmp	880	3	besonnen	880	0	0	0	0	0	0	0	0	0	0	0	0
2024-06-06	10:25:10	10:28:14	182248	6.6.1	4_exp_EVA_AWA_CON	71	A	B	Rpleas_acq	Same	Rpleas	2pleas	acq_new_unple_nomask	acq1_nomask	1	19	0	0	300	300	0	0	898	46	1	0	vergnügt	kuss	gütig	anregung	genießen	sonnig	verbissen	krise	gierig	ausrottung	gemein	sterben	kreativ	träumen	besonnen	vertrauen	gesittet	engagiert	krank	töten	bange	versagen	geizig	engstirnig	1	blank2r.bmp	0	1	+	0	1	blank2r.bmp	500	5	C1r.bmp	500	1	blank2r.bmp	880	5	geizig	880	0	0	0	0	0	0	0	0	0	0	0	0
2024-06-06	10:25:10	10:28:17	184575	6.6.1	4_exp_EVA_AWA_CON	71	A	B	Rpleas_acq	Same	Rpleas	2pleas	acq_US_pleas_nomask	acq1_nomask	1	20	0	0	300	300	0	0	844	50	1	0	vergnügt	kuss	gütig	anregung	genießen	sonnig	verbissen	krise	gierig	ausrottung	gemein	sterben	kreativ	träumen	besonnen	vertrauen	gesittet	engagiert	krank	töten	bange	versagen	geizig	engstirnig	1	blank2r.bmp	0	1	+	0	1	blank2r.bmp	500	1	DHJF	500	1	blank2r.bmp	880	6	sonnig	880	0	0	0	0	0	0	0	0	0	0	0	0
2024-06-06	10:25:10	10:28:19	186751	6.6.1	4_exp_EVA_AWA_CON	71	A	B	Rpleas_acq	Same	Rpleas	2pleas	acq_new_pleas_nomask	acq1_nomask	1	21	0	0	300	300	0	0	689	50	1	0	vergnügt	kuss	gütig	anregung	genießen	sonnig	verbissen	krise	gierig	ausrottung	gemein	sterben	kreativ	träumen	besonnen	vertrauen	gesittet	engagiert	krank	töten	bange	versagen	geizig	engstirnig	1	blank2r.bmp	0	1	+	0	1	blank2r.bmp	500	4	B4r.bmp	500	1	blank2r.bmp	880	1	kreativ	880	0	0	0	0	0	0	0	0	0	0	0	0
2024-06-06	10:25:10	10:28:21	189023	6.6.1	4_exp_EVA_AWA_CON	71	A	B	Rpleas_acq	Same	Rpleas	2pleas	acq_US_unple_nomask	acq1_nomask	1	22	0	0	300	300	0	0	789	46	1	0	vergnügt	kuss	gütig	anregung	genießen	sonnig	verbissen	krise	gierig	ausrottung	gemein	sterben	kreativ	träumen	besonnen	vertrauen	gesittet	engagiert	krank	töten	bange	versagen	geizig	engstirnig	1	blank2r.bmp	0	1	+	0	1	blank2r.bmp	500	1	CPLW	500	1	blank2r.bmp	880	3	gierig	880	0	0	0	0	0	0	0	0	0	0	0	0
2024-06-06	10:25:10	10:28:23	191351	6.6.1	4_exp_EVA_AWA_CON	71	A	B	Rpleas_acq	Same	Rpleas	2pleas	acq_new_pleas_nomask	acq1_nomask	1	23	0	0	300	300	0	0	846	50	1	0	vergnügt	kuss	gütig	anregung	genießen	sonnig	verbissen	krise	gierig	ausrottung	gemein	sterben	kreativ	träumen	besonnen	vertrauen	gesittet	engagiert	krank	töten	bange	versagen	geizig	engstirnig	1	blank2r.bmp	0	1	+	0	1	blank2r.bmp	500	6	C2r.bmp	500	1	blank2r.bmp	880	4	vertrauen	880	0	0	0	0	0	0	0	0	0	0	0	0
2024-06-06	10:25:10	10:28:26	193671	6.6.1	4_exp_EVA_AWA_CON	71	A	B	Rpleas_acq	Same	Rpleas	2pleas	acq_US_pleas_nomask	acq1_nomask	1	24	0	0	300	300	0	0	834	50	1	0	vergnügt	kuss	gütig	anregung	genießen	sonnig	verbissen	krise	gierig	ausrottung	gemein	sterben	kreativ	träumen	besonnen	vertrauen	gesittet	engagiert	krank	töten	bange	versagen	geizig	engstirnig	1	blank2r.bmp	0	1	+	0	1	blank2r.bmp	500	1	DHJF	500	1	blank2r.bmp	880	4	anregung	880	0	0	0	0	0	0	0	0	0	0	0	0
2024-06-06	10:25:10	10:28:28	195672	6.6.1	4_exp_EVA_AWA_CON	71	A	B	Rpleas_acq	Same	Rpleas	2pleas	acq_new_unple_nomask	acq1_nomask	1	25	0	0	300	300	0	0	513	46	1	0	vergnügt	kuss	gütig	anregung	genießen	sonnig	verbissen	krise	gierig	ausrottung	gemein	sterben	kreativ	träumen	besonnen	vertrauen	gesittet	engagiert	krank	töten	bange	versagen	geizig	engstirnig	1	blank2r.bmp	0	1	+	0	1	blank2r.bmp	500	3	B3r.bmp	500	1	blank2r.bmp	880	2	töten	880	0	0	0	0	0	0	0	0	0	0	0	0
2024-06-06	10:25:10	10:28:30	197984	6.6.1	4_exp_EVA_AWA_CON	71	A	B	Rpleas_acq	Same	Rpleas	2pleas	acq_US_unple_nomask	acq1_nomask	1	26	0	0	300	300	0	0	823	46	1	0	vergnügt	kuss	gütig	anregung	genießen	sonnig	verbissen	krise	gierig	ausrottung	gemein	sterben	kreativ	träumen	besonnen	vertrauen	gesittet	engagiert	krank	töten	bange	versagen	geizig	engstirnig	1	blank2r.bmp	0	1	+	0	1	blank2r.bmp	500	1	CPLW	500	1	blank2r.bmp	880	6	sterben	880	0	0	0	0	0	0	0	0	0	0	0	0
2024-06-06	10:25:10	10:28:32	200272	6.6.1	4_exp_EVA_AWA_CON	71	A	B	Rpleas_acq	Same	Rpleas	2pleas	acq_new_pleas_nomask	acq1_nomask	1	27	0	0	300	300	0	0	800	50	1	0	vergnügt	kuss	gütig	anregung	genießen	sonnig	verbissen	krise	gierig	ausrottung	gemein	sterben	kreativ	träumen	besonnen	vertrauen	gesittet	engagiert	krank	töten	bange	versagen	geizig	engstirnig	1	blank2r.bmp	0	1	+	0	1	blank2r.bmp	500	7	C3r.bmp	500	1	blank2r.bmp	880	4	vertrauen	880	0	0	0	0	0	0	0	0	0	0	0	0
2024-06-06	10:25:10	10:28:35	202424	6.6.1	4_exp_EVA_AWA_CON	71	A	B	Rpleas_acq	Same	Rpleas	2pleas	acq_US_pleas_nomask	acq1_nomask	1	28	0	0	300	300	0	0	670	50	1	0	vergnügt	kuss	gütig	anregung	genießen	sonnig	verbissen	krise	gierig	ausrottung	gemein	sterben	kreativ	träumen	besonnen	vertrauen	gesittet	engagiert	krank	töten	bange	versagen	geizig	engstirnig	1	blank2r.bmp	0	1	+	0	1	blank2r.bmp	500	1	DHJF	500	1	blank2r.bmp	880	1	vergnügt	880	0	0	0	0	0	0	0	0	0	0	0	0
2024-06-06	10:25:10	10:28:37	204992	6.6.1	4_exp_EVA_AWA_CON	71	A	B	Rpleas_acq	Same	Rpleas	2pleas	acq_new_unple_nomask	acq1_nomask	1	29	0	0	300	300	0	0	1087	46	1	0	vergnügt	kuss	gütig	anregung	genießen	sonnig	verbissen	krise	gierig	ausrottung	gemein	sterben	kreativ	träumen	besonnen	vertrauen	gesittet	engagiert	krank	töten	bange	versagen	geizig	engstirnig	1	blank2r.bmp	0	1	+	0	1	blank2r.bmp	500	8	C4r.bmp	500	1	blank2r.bmp	880	4	versagen	880	0	0	0	0	0	0	0	0	0	0	0	0
2024-06-06	10:25:10	10:28:39	207190	6.6.1	4_exp_EVA_AWA_CON	71	A	B	Rpleas_acq	Same	Rpleas	2pleas	acq_US_unple_nomask	acq1_nomask	1	30	0	0	300	300	0	0	715	46	1	0	vergnügt	kuss	gütig	anregung	genießen	sonnig	verbissen	krise	gierig	ausrottung	gemein	sterben	kreativ	träumen	besonnen	vertrauen	gesittet	engagiert	krank	töten	bange	versagen	geizig	engstirnig	1	blank2r.bmp	0	1	+	0	1	blank2r.bmp	500	1	CPLW	500	1	blank2r.bmp	880	5	gemein	880	0	0	0	0	0	0	0	0	0	0	0	0
2024-06-06	10:25:10	10:28:41	209359	6.6.1	4_exp_EVA_AWA_CON	71	A	B	Rpleas_acq	Same	Rpleas	2pleas	acq_US_pleas_nomask	acq1_nomask	1	31	0	0	300	300	0	0	682	50	1	0	vergnügt	kuss	gütig	anregung	genießen	sonnig	verbissen	krise	gierig	ausrottung	gemein	sterben	kreativ	träumen	besonnen	vertrauen	gesittet	engagiert	krank	töten	bange	versagen	geizig	engstirnig	1	blank2r.bmp	0	1	+	0	1	blank2r.bmp	500	1	DHJF	500	1	blank2r.bmp	880	4	anregung	880	0	0	0	0	0	0	0	0	0	0	0	0
2024-06-06	10:25:10	10:28:44	211800	6.6.1	4_exp_EVA_AWA_CON	71	A	B	Rpleas_acq	Same	Rpleas	2pleas	acq_new_pleas_nomask	acq1_nomask	1	32	0	0	300	300	0	0	951	50	1	0	vergnügt	kuss	gütig	anregung	genießen	sonnig	verbissen	krise	gierig	ausrottung	gemein	sterben	kreativ	träumen	besonnen	vertrauen	gesittet	engagiert	krank	töten	bange	versagen	geizig	engstirnig	1	blank2r.bmp	0	1	+	0	1	blank2r.bmp	500	1	B1r.bmp	500	1	blank2r.bmp	880	5	gesittet	880	0	0	0	0	0	0	0	0	0	0	0	0
2024-06-06	10:25:10	10:28:46	214055	6.6.1	4_exp_EVA_AWA_CON	71	A	B	Rpleas_acq	Same	Rpleas	2pleas	acq_US_unple_nomask	acq1_nomask	1	33	0	0	300	300	0	0	775	46	1	0	vergnügt	kuss	gütig	anregung	genießen	sonnig	verbissen	krise	gierig	ausrottung	gemein	sterben	kreativ	träumen	besonnen	vertrauen	gesittet	engagiert	krank	töten	bange	versagen	geizig	engstirnig	1	blank2r.bmp	0	1	+	0	1	blank2r.bmp	500	1	CPLW	500	1	blank2r.bmp	880	1	verbissen	880	0	0	0	0	0	0	0	0	0	0	0	0
2024-06-06	10:25:10	10:28:48	216127	6.6.1	4_exp_EVA_AWA_CON	71	A	B	Rpleas_acq	Same	Rpleas	2pleas	acq_new_pleas_nomask	acq1_nomask	1	34	0	0	300	300	0	0	586	50	1	0	vergnügt	kuss	gütig	anregung	genießen	sonnig	verbissen	krise	gierig	ausrottung	gemein	sterben	kreativ	träumen	besonnen	vertrauen	gesittet	engagiert	krank	töten	bange	versagen	geizig	engstirnig	1	blank2r.bmp	0	1	+	0	1	blank2r.bmp	500	8	C4r.bmp	500	1	blank2r.bmp	880	3	besonnen	880	0	0	0	0	0	0	0	0	0	0	0	0
2024-06-06	10:25:10	10:28:50	218328	6.6.1	4_exp_EVA_AWA_CON	71	A	B	Rpleas_acq	Same	Rpleas	2pleas	acq_US_pleas_nomask	acq1_nomask	1	35	0	0	300	300	0	0	714	50	1	0	vergnügt	kuss	gütig	anregung	genießen	sonnig	verbissen	krise	gierig	ausrottung	gemein	sterben	kreativ	träumen	besonnen	vertrauen	gesittet	engagiert	krank	töten	bange	versagen	geizig	engstirnig	1	blank2r.bmp	0	1	+	0	1	blank2r.bmp	500	1	DHJF	500	1	blank2r.bmp	880	5	genießen	880	0	0	0	0	0	0	0	0	0	0	0	0
2024-06-06	10:25:10	10:28:52	220408	6.6.1	4_exp_EVA_AWA_CON	71	A	B	Rpleas_acq	Same	Rpleas	2pleas	acq_new_unple_nomask	acq1_nomask	1	36	0	0	300	300	0	0	593	46	1	0	vergnügt	kuss	gütig	anregung	genießen	sonnig	verbissen	krise	gierig	ausrottung	gemein	sterben	kreativ	träumen	besonnen	vertrauen	gesittet	engagiert	krank	töten	bange	versagen	geizig	engstirnig	1	blank2r.bmp	0	1	+	0	1	blank2r.bmp	500	4	B4r.bmp	500	1	blank2r.bmp	880	1	krank	880	0	0	0	0	0	0	0	0	0	0	0	0
2024-06-06	10:25:10	10:29:19	247370	6.6.1	4_exp_EVA_AWA_CON	71	A	B	Rpleas_acq	Same	Rpleas	2pleas	acq_US_unple_nomask	acq2_nomask	2	1	480	0	300	300	0	0	1018	46	1	0	vergnügt	kuss	gütig	anregung	genießen	sonnig	verbissen	krise	gierig	ausrottung	gemein	sterben	kreativ	träumen	besonnen	vertrauen	gesittet	engagiert	krank	töten	bange	versagen	geizig	engstirnig	1	blank2r.bmp	0	1	+	0	1	blank2r.bmp	500	1	CPLW	500	1	blank2r.bmp	880	3	gierig	880	1	!	1313	1	!	-1	0	0	0	0	0	0
2024-06-06	10:25:10	10:29:22	249985	6.6.1	4_exp_EVA_AWA_CON	71	A	B	Rpleas_acq	Same	Rpleas	2pleas	acq_US_unple_nomask	acq2_nomask	2	2	480	0	300	300	0	0	842	46	1	0	vergnügt	kuss	gütig	anregung	genießen	sonnig	verbissen	krise	gierig	ausrottung	gemein	sterben	kreativ	träumen	besonnen	vertrauen	gesittet	engagiert	krank	töten	bange	versagen	geizig	engstirnig	1	blank2r.bmp	0	1	+	0	1	blank2r.bmp	500	1	CPLW	500	1	blank2r.bmp	880	4	ausrottung	880	1	!	1313	1	!	-1	0	0	0	0	0	0
2024-06-06	10:25:10	10:29:25	252429	6.6.1	4_exp_EVA_AWA_CON	71	A	B	Rpleas_acq	Same	Rpleas	2pleas	acq_new_pleas_nomask	acq2_nomask	2	3	480	1	300	300	0	0	461	46	0	0	vergnügt	kuss	gütig	anregung	genießen	sonnig	verbissen	krise	gierig	ausrottung	gemein	sterben	kreativ	träumen	besonnen	vertrauen	gesittet	engagiert	krank	töten	bange	versagen	geizig	engstirnig	1	blank2r.bmp	0	1	+	0	1	blank2r.bmp	500	7	C3r.bmp	500	1	blank2r.bmp	880	2	träumen	880	1	FEHLER	1654	1	!	1313	1	!	1362	0	0	0
2024-06-06	10:25:10	10:29:27	254745	6.6.1	4_exp_EVA_AWA_CON	71	A	B	Rpleas_acq	Same	Rpleas	2pleas	acq_new_pleas_nomask	acq2_nomask	2	4	480	0	300	300	0	0	739	50	1	0	vergnügt	kuss	gütig	anregung	genießen	sonnig	verbissen	krise	gierig	ausrottung	gemein	sterben	kreativ	träumen	besonnen	vertrauen	gesittet	engagiert	krank	töten	bange	versagen	geizig	engstirnig	1	blank2r.bmp	0	1	+	0	1	blank2r.bmp	500	1	B1r.bmp	500	1	blank2r.bmp	880	6	engagiert	880	1	!	1312	1	!	-1	0	0	0	0	0	0
2024-06-06	10:25:10	10:29:29	257003	6.6.1	4_exp_EVA_AWA_CON	71	A	B	Rpleas_acq	Same	Rpleas	2pleas	acq_new_unple_nomask	acq2_nomask	2	5	480	1	300	300	0	0	484	46	1	0	vergnügt	kuss	gütig	anregung	genießen	sonnig	verbissen	krise	gierig	ausrottung	gemein	sterben	kreativ	träumen	besonnen	vertrauen	gesittet	engagiert	krank	töten	bange	versagen	geizig	engstirnig	1	blank2r.bmp	0	1	+	0	1	blank2r.bmp	500	5	C1r.bmp	500	1	blank2r.bmp	880	5	geizig	880	1	!	1313	1	!	1385	0	0	0	0	0	0
2024-06-06	10:25:10	10:29:31	259314	6.6.1	4_exp_EVA_AWA_CON	71	A	B	Rpleas_acq	Same	Rpleas	2pleas	acq_new_pleas_nomask	acq2_nomask	2	6	480	1	300	300	0	0	534	50	1	0	vergnügt	kuss	gütig	anregung	genießen	sonnig	verbissen	krise	gierig	ausrottung	gemein	sterben	kreativ	träumen	besonnen	vertrauen	gesittet	engagiert	krank	töten	bange	versagen	geizig	engstirnig	1	blank2r.bmp	0	1	+	0	1	blank2r.bmp	500	6	C2r.bmp	500	1	blank2r.bmp	880	1	kreativ	880	1	!	1312	1	!	1435	0	0	0	0	0	0
2024-06-06	10:25:10	10:29:34	261617	6.6.1	4_exp_EVA_AWA_CON	71	A	B	Rpleas_acq	Same	Rpleas	2pleas	acq_new_unple_nomask	acq2_nomask	2	7	480	1	300	300	0	0	527	46	1	0	vergnügt	kuss	gütig	anregung	genießen	sonnig	verbissen	krise	gierig	ausrottung	gemein	sterben	kreativ	träumen	besonnen	vertrauen	gesittet	engagiert	krank	töten	bange	versagen	geizig	engstirnig	1	blank2r.bmp	0	1	+	0	1	blank2r.bmp	500	2	B2r.bmp	500	1	blank2r.bmp	880	3	bange	880	1	!	1311	1	!	1427	0	0	0	0	0	0
2024-06-06	10:25:10	10:29:36	263977	6.6.1	4_exp_EVA_AWA_CON	71	A	B	Rpleas_acq	Same	Rpleas	2pleas	acq_new_unple_nomask	acq2_nomask	2	8	480	0	300	300	0	0	585	46	1	0	vergnügt	kuss	gütig	anregung	genießen	sonnig	verbissen	krise	gierig	ausrottung	gemein	sterben	kreativ	träumen	besonnen	vertrauen	gesittet	engagiert	krank	töten	bange	versagen	geizig	engstirnig	1	blank2r.bmp	0	1	+	0	1	blank2r.bmp	500	3	B3r.bmp	500	1	blank2r.bmp	880	6	engstirnig	880	1	!	1312	1	!	-1	0	0	0	0	0	0
2024-06-06	10:25:10	10:29:38	266235	6.6.1	4_exp_EVA_AWA_CON	71	A	B	Rpleas_acq	Same	Rpleas	2pleas	acq_US_pleas_nomask	acq2_nomask	2	9	480	1	300	300	0	0	480	50	1	0	vergnügt	kuss	gütig	anregung	genießen	sonnig	verbissen	krise	gierig	ausrottung	gemein	sterben	kreativ	träumen	besonnen	vertrauen	gesittet	engagiert	krank	töten	bange	versagen	geizig	engstirnig	1	blank2r.bmp	0	1	+	0	1	blank2r.bmp	500	1	DHJF	500	1	blank2r.bmp	880	3	gütig	880	1	!	1313	1	!	1381	0	0	0	0	0	0
2024-06-06	10:25:10	10:29:41	268426	6.6.1	4_exp_EVA_AWA_CON	71	A	B	Rpleas_acq	Same	Rpleas	2pleas	acq_US_pleas_nomask	acq2_nomask	2	10	480	0	300	300	0	0	410	50	1	0	vergnügt	kuss	gütig	anregung	genießen	sonnig	verbissen	krise	gierig	ausrottung	gemein	sterben	kreativ	träumen	besonnen	vertrauen	gesittet	engagiert	krank	töten	bange	versagen	geizig	engstirnig	1	blank2r.bmp	0	1	+	0	1	blank2r.bmp	500	1	DHJF	500	1	blank2r.bmp	880	2	kuss	880	1	!	-1	1	!	-1	0	0	0	0	0	0
2024-06-06	10:25:10	10:29:43	270833	6.6.1	4_exp_EVA_AWA_CON	71	A	B	Rpleas_acq	Same	Rpleas	2pleas	acq_US_pleas_nomask	acq2_nomask	2	11	480	0	300	300	0	0	627	50	1	0	vergnügt	kuss	gütig	anregung	genießen	sonnig	verbissen	krise	gierig	ausrottung	gemein	sterben	kreativ	träumen	besonnen	vertrauen	gesittet	engagiert	krank	töten	bange	versagen	geizig	engstirnig	1	blank2r.bmp	0	1	+	0	1	blank2r.bmp	500	1	DHJF	500	1	blank2r.bmp	880	6	sonnig	880	1	!	1313	1	!	-1	0	0	0	0	0	0
2024-06-06	10:25:10	10:29:45	273115	6.6.1	4_exp_EVA_AWA_CON	71	A	B	Rpleas_acq	Same	Rpleas	2pleas	acq_US_unple_nomask	acq2_nomask	2	12	480	1	300	300	0	0	505	46	1	0	vergnügt	kuss	gütig	anregung	genießen	sonnig	verbissen	krise	gierig	ausrottung	gemein	sterben	kreativ	träumen	besonnen	vertrauen	gesittet	engagiert	krank	töten	bange	versagen	geizig	engstirnig	1	blank2r.bmp	0	1	+	0	1	blank2r.bmp	500	1	CPLW	500	1	blank2r.bmp	880	2	krise	880	1	!	1312	1	!	1406	0	0	0	0	0	0
2024-06-06	10:25:10	10:29:48	275545	6.6.1	4_exp_EVA_AWA_CON	71	A	B	Rpleas_acq	Same	Rpleas	2pleas	acq_new_pleas_nomask	acq2_nomask	2	13	480	0	300	300	0	0	656	50	1	0	vergnügt	kuss	gütig	anregung	genießen	sonnig	verbissen	krise	gierig	ausrottung	gemein	sterben	kreativ	träumen	besonnen	vertrauen	gesittet	engagiert	krank	töten	bange	versagen	geizig	engstirnig	1	blank2r.bmp	0	1	+	0	1	blank2r.bmp	500	7	C3r.bmp	500	1	blank2r.bmp	880	2	träumen	880	1	!	1312	1	!	-1	0	0	0	0	0	0
2024-06-06	10:25:10	10:29:50	277713	6.6.1	4_exp_EVA_AWA_CON	71	A	B	Rpleas_acq	Same	Rpleas	2pleas	acq_US_pleas_nomask	acq2_nomask	2	14	480	0	300	300	0	0	392	50	1	0	vergnügt	kuss	gütig	anregung	genießen	sonnig	verbissen	krise	gierig	ausrottung	gemein	sterben	kreativ	träumen	besonnen	vertrauen	gesittet	engagiert	krank	töten	bange	versagen	geizig	engstirnig	1	blank2r.bmp	0	1	+	0	1	blank2r.bmp	500	1	DHJF	500	1	blank2r.bmp	880	2	kuss	880	1	!	-1	1	!	-1	0	0	0	0	0	0
2024-06-06	10:25:10	10:29:52	280044	6.6.1	4_exp_EVA_AWA_CON	71	A	B	Rpleas_acq	Same	Rpleas	2pleas	acq_US_unple_nomask	acq2_nomask	2	15	480	1	300	300	0	0	549	46	1	0	vergnügt	kuss	gütig	anregung	genießen	sonnig	verbissen	krise	gierig	ausrottung	gemein	sterben	kreativ	träumen	besonnen	vertrauen	gesittet	engagiert	krank	töten	bange	versagen	geizig	engstirnig	1	blank2r.bmp	0	1	+	0	1	blank2r.bmp	500	1	CPLW	500	1	blank2r.bmp	880	1	verbissen	880	1	!	1313	1	!	1450	0	0	0	0	0	0
2024-06-06	10:25:10	10:29:54	282259	6.6.1	4_exp_EVA_AWA_CON	71	A	B	Rpleas_acq	Same	Rpleas	2pleas	acq_US_pleas_nomask	acq2_nomask	2	16	480	1	300	300	0	0	433	50	1	0	vergnügt	kuss	gütig	anregung	genießen	sonnig	verbissen	krise	gierig	ausrottung	gemein	sterben	kreativ	träumen	besonnen	vertrauen	gesittet	engagiert	krank	töten	bange	versagen	geizig	engstirnig	1	blank2r.bmp	0	1	+	0	1	blank2r.bmp	500	1	DHJF	500	1	blank2r.bmp	880	3	gütig	880	1	!	1313	1	!	1335	0	0	0	0	0	0
2024-06-06	10:25:10	10:29:57	284649	6.6.1	4_exp_EVA_AWA_CON	71	A	B	Rpleas_acq	Same	Rpleas	2pleas	acq_US_unple_nomask	acq2_nomask	2	17	480	0	300	300	0	0	614	46	1	0	vergnügt	kuss	gütig	anregung	genießen	sonnig	verbissen	krise	gierig	ausrottung	gemein	sterben	kreativ	träumen	besonnen	vertrauen	gesittet	engagiert	krank	töten	bange	versagen	geizig	engstirnig	1	blank2r.bmp	0	1	+	0	1	blank2r.bmp	500	1	CPLW	500	1	blank2r.bmp	880	4	ausrottung	880	1	!	1312	1	!	-1	0	0	0	0	0	0
2024-06-06	10:25:10	10:29:59	286901	6.6.1	4_exp_EVA_AWA_CON	71	A	B	Rpleas_acq	Same	Rpleas	2pleas	acq_US_unple_nomask	acq2_nomask	2	18	480	0	300	300	0	0	270	50	0	0	vergnügt	kuss	gütig	anregung	genießen	sonnig	verbissen	krise	gierig	ausrottung	gemein	sterben	kreativ	träumen	besonnen	vertrauen	gesittet	engagiert	krank	töten	bange	versagen	geizig	engstirnig	1	blank2r.bmp	0	1	+	0	1	blank2r.bmp	500	1	CPLW	500	1	blank2r.bmp	880	6	sterben	880	1	FEHLER	1464	1	!	-1	1	!	-1	0	0	0
2024-06-06	10:25:10	10:30:01	288995	6.6.1	4_exp_EVA_AWA_CON	71	A	B	Rpleas_acq	Same	Rpleas	2pleas	acq_US_pleas_nomask	acq2_nomask	2	19	480	1	300	300	0	0	515	50	1	0	vergnügt	kuss	gütig	anregung	genießen	sonnig	verbissen	krise	gierig	ausrottung	gemein	sterben	kreativ	träumen	besonnen	vertrauen	gesittet	engagiert	krank	töten	bange	versagen	geizig	engstirnig	1	blank2r.bmp	0	1	+	0	1	blank2r.bmp	500	1	DHJF	500	1	blank2r.bmp	880	4	anregung	880	1	!	1313	1	!	1416	0	0	0	0	0	0
2024-06-06	10:25:10	10:30:03	291401	6.6.1	4_exp_EVA_AWA_CON	71	A	B	Rpleas_acq	Same	Rpleas	2pleas	acq_new_pleas_nomask	acq2_nomask	2	20	480	0	300	300	0	0	632	50	1	0	vergnügt	kuss	gütig	anregung	genießen	sonnig	verbissen	krise	gierig	ausrottung	gemein	sterben	kreativ	träumen	besonnen	vertrauen	gesittet	engagiert	krank	töten	bange	versagen	geizig	engstirnig	1	blank2r.bmp	0	1	+	0	1	blank2r.bmp	500	8	C4r.bmp	500	1	blank2r.bmp	880	3	besonnen	880	1	!	1313	1	!	-1	0	0	0	0	0	0
2024-06-06	10:25:10	10:30:06	293777	6.6.1	4_exp_EVA_AWA_CON	71	A	B	Rpleas_acq	Same	Rpleas	2pleas	acq_new_pleas_nomask	acq2_nomask	2	21	480	0	300	300	0	0	596	50	1	0	vergnügt	kuss	gütig	anregung	genießen	sonnig	verbissen	krise	gierig	ausrottung	gemein	sterben	kreativ	träumen	besonnen	vertrauen	gesittet	engagiert	krank	töten	bange	versagen	geizig	engstirnig	1	blank2r.bmp	0	1	+	0	1	blank2r.bmp	500	1	B1r.bmp	500	1	blank2r.bmp	880	1	kreativ	880	1	!	1312	1	!	-1	0	0	0	0	0	0
2024-06-06	10:25:10	10:30:08	296044	6.6.1	4_exp_EVA_AWA_CON	71	A	B	Rpleas_acq	Same	Rpleas	2pleas	acq_new_unple_nomask	acq2_nomask	2	22	480	1	300	300	0	0	488	46	1	0	vergnügt	kuss	gütig	anregung	genießen	sonnig	verbissen	krise	gierig	ausrottung	gemein	sterben	kreativ	träumen	besonnen	vertrauen	gesittet	engagiert	krank	töten	bange	versagen	geizig	engstirnig	1	blank2r.bmp	0	1	+	0	1	blank2r.bmp	500	3	B3r.bmp	500	1	blank2r.bmp	880	6	engstirnig	880	1	!	1312	1	!	1389	0	0	0	0	0	0
2024-06-06	10:25:10	10:30:11	298579	6.6.1	4_exp_EVA_AWA_CON	71	A	B	Rpleas_acq	Same	Rpleas	2pleas	acq_new_unple_nomask	acq2_nomask	2	23	480	0	300	300	0	0	553	50	0	0	vergnügt	kuss	gütig	anregung	genießen	sonnig	verbissen	krise	gierig	ausrottung	gemein	sterben	kreativ	träumen	besonnen	vertrauen	gesittet	engagiert	krank	töten	bange	versagen	geizig	engstirnig	1	blank2r.bmp	0	1	+	0	1	blank2r.bmp	500	4	B4r.bmp	500	1	blank2r.bmp	880	5	geizig	880	1	FEHLER	1745	1	!	1313	1	!	-1	0	0	0
2024-06-06	10:25:10	10:30:13	300635	6.6.1	4_exp_EVA_AWA_CON	71	A	B	Rpleas_acq	Same	Rpleas	2pleas	acq_new_unple_nomask	acq2_nomask	2	24	480	1	300	300	0	0	477	46	1	0	vergnügt	kuss	gütig	anregung	genießen	sonnig	verbissen	krise	gierig	ausrottung	gemein	sterben	kreativ	träumen	besonnen	vertrauen	gesittet	engagiert	krank	töten	bange	versagen	geizig	engstirnig	1	blank2r.bmp	0	1	+	0	1	blank2r.bmp	500	2	B2r.bmp	500	1	blank2r.bmp	880	3	bange	880	1	!	1313	1	!	1379	0	0	0	0	0	0
2024-06-06	10:25:10	10:30:15	302915	6.6.1	4_exp_EVA_AWA_CON	71	A	B	Rpleas_acq	Same	Rpleas	2pleas	acq_US_unple_nomask	acq2_nomask	2	25	480	1	300	300	0	0	496	46	1	0	vergnügt	kuss	gütig	anregung	genießen	sonnig	verbissen	krise	gierig	ausrottung	gemein	sterben	kreativ	träumen	besonnen	vertrauen	gesittet	engagiert	krank	töten	bange	versagen	geizig	engstirnig	1	blank2r.bmp	0	1	+	0	1	blank2r.bmp	500	1	CPLW	500	1	blank2r.bmp	880	3	gierig	880	1	!	1313	1	!	1397	0	0	0	0	0	0
2024-06-06	10:25:10	10:30:17	305297	6.6.1	4_exp_EVA_AWA_CON	71	A	B	Rpleas_acq	Same	Rpleas	2pleas	acq_new_unple_nomask	acq2_nomask	2	26	480	0	300	300	0	0	609	46	1	0	vergnügt	kuss	gütig	anregung	genießen	sonnig	verbissen	krise	gierig	ausrottung	gemein	sterben	kreativ	träumen	besonnen	vertrauen	gesittet	engagiert	krank	töten	bange	versagen	geizig	engstirnig	1	blank2r.bmp	0	1	+	0	1	blank2r.bmp	500	6	C2r.bmp	500	1	blank2r.bmp	880	1	krank	880	1	!	1313	1	!	-1	0	0	0	0	0	0
2024-06-06	10:25:10	10:30:20	307737	6.6.1	4_exp_EVA_AWA_CON	71	A	B	Rpleas_acq	Same	Rpleas	2pleas	acq_new_unple_nomask	acq2_nomask	2	27	480	0	300	300	0	0	667	46	1	0	vergnügt	kuss	gütig	anregung	genießen	sonnig	verbissen	krise	gierig	ausrottung	gemein	sterben	kreativ	träumen	besonnen	vertrauen	gesittet	engagiert	krank	töten	bange	versagen	geizig	engstirnig	1	blank2r.bmp	0	1	+	0	1	blank2r.bmp	500	5	C1r.bmp	500	1	blank2r.bmp	880	4	versagen	880	1	!	1313	1	!	-1	0	0	0	0	0	0
2024-06-06	10:25:10	10:30:22	310035	6.6.1	4_exp_EVA_AWA_CON	71	A	B	Rpleas_acq	Same	Rpleas	2pleas	acq_US_pleas_nomask	acq2_nomask	2	28	480	1	300	300	0	0	521	50	1	0	vergnügt	kuss	gütig	anregung	genießen	sonnig	verbissen	krise	gierig	ausrottung	gemein	sterben	kreativ	träumen	besonnen	vertrauen	gesittet	engagiert	krank	töten	bange	versagen	geizig	engstirnig	1	blank2r.bmp	0	1	+	0	1	blank2r.bmp	500	1	DHJF	500	1	blank2r.bmp	880	5	genießen	880	1	!	1312	1	!	1422	0	0	0	0	0	0
2024-06-06	10:25:10	10:30:24	312276	6.6.1	4_exp_EVA_AWA_CON	71	A	B	Rpleas_acq	Same	Rpleas	2pleas	acq_US_pleas_nomask	acq2_nomask	2	29	480	1	300	300	0	0	460	50	1	0	vergnügt	kuss	gütig	anregung	genießen	sonnig	verbissen	krise	gierig	ausrottung	gemein	sterben	kreativ	träumen	besonnen	vertrauen	gesittet	engagiert	krank	töten	bange	versagen	geizig	engstirnig	1	blank2r.bmp	0	1	+	0	1	blank2r.bmp	500	1	DHJF	500	1	blank2r.bmp	880	6	sonnig	880	1	!	1312	1	!	1362	0	0	0	0	0	0
2024-06-06	10:25:10	10:30:27	314507	6.6.1	4_exp_EVA_AWA_CON	71	A	B	Rpleas_acq	Same	Rpleas	2pleas	acq_US_unple_nomask	acq2_nomask	2	30	480	1	300	300	0	0	451	46	1	0	vergnügt	kuss	gütig	anregung	genießen	sonnig	verbissen	krise	gierig	ausrottung	gemein	sterben	kreativ	träumen	besonnen	vertrauen	gesittet	engagiert	krank	töten	bange	versagen	geizig	engstirnig	1	blank2r.bmp	0	1	+	0	1	blank2r.bmp	500	1	CPLW	500	1	blank2r.bmp	880	5	gemein	880	1	!	1312	1	!	1352	0	0	0	0	0	0
2024-06-06	10:25:10	10:30:29	316763	6.6.1	4_exp_EVA_AWA_CON	71	A	B	Rpleas_acq	Same	Rpleas	2pleas	acq_US_pleas_nomask	acq2_nomask	2	31	480	1	300	300	0	0	475	50	1	0	vergnügt	kuss	gütig	anregung	genießen	sonnig	verbissen	krise	gierig	ausrottung	gemein	sterben	kreativ	träumen	besonnen	vertrauen	gesittet	engagiert	krank	töten	bange	versagen	geizig	engstirnig	1	blank2r.bmp	0	1	+	0	1	blank2r.bmp	500	1	DHJF	500	1	blank2r.bmp	880	1	vergnügt	880	1	!	1313	1	!	1376	0	0	0	0	0	0
2024-06-06	10:25:10	10:30:31	318995	6.6.1	4_exp_EVA_AWA_CON	71	A	B	Rpleas_acq	Same	Rpleas	2pleas	acq_new_unple_nomask	acq2_nomask	2	32	480	1	300	300	0	0	456	46	1	0	vergnügt	kuss	gütig	anregung	genießen	sonnig	verbissen	krise	gierig	ausrottung	gemein	sterben	kreativ	träumen	besonnen	vertrauen	gesittet	engagiert	krank	töten	bange	versagen	geizig	engstirnig	1	blank2r.bmp	0	1	+	0	1	blank2r.bmp	500	2	B2r.bmp	500	1	blank2r.bmp	880	2	töten	880	1	!	1312	1	!	1357	0	0	0	0	0	0
2024-06-06	10:25:10	10:30:33	321321	6.6.1	4_exp_EVA_AWA_CON	71	A	B	Rpleas_acq	Same	Rpleas	2pleas	acq_new_pleas_nomask	acq2_nomask	2	33	480	0	300	300	0	0	553	50	1	0	vergnügt	kuss	gütig	anregung	genießen	sonnig	verbissen	krise	gierig	ausrottung	gemein	sterben	kreativ	träumen	besonnen	vertrauen	gesittet	engagiert	krank	töten	bange	versagen	geizig	engstirnig	1	blank2r.bmp	0	1	+	0	1	blank2r.bmp	500	5	C1r.bmp	500	1	blank2r.bmp	880	4	vertrauen	880	1	!	1312	1	!	-1	0	0	0	0	0	0
2024-06-06	10:25:10	10:30:36	323836	6.6.1	4_exp_EVA_AWA_CON	71	A	B	Rpleas_acq	Same	Rpleas	2pleas	acq_new_pleas_nomask	acq2_nomask	2	34	480	1	300	300	0	0	533	46	0	0	vergnügt	kuss	gütig	anregung	genießen	sonnig	verbissen	krise	gierig	ausrottung	gemein	sterben	kreativ	träumen	besonnen	vertrauen	gesittet	engagiert	krank	töten	bange	versagen	geizig	engstirnig	1	blank2r.bmp	0	1	+	0	1	blank2r.bmp	500	4	B4r.bmp	500	1	blank2r.bmp	880	5	gesittet	880	1	FEHLER	1726	1	!	1312	1	!	1434	0	0	0
2024-06-06	10:25:10	10:30:38	325899	6.6.1	4_exp_EVA_AWA_CON	71	A	B	Rpleas_acq	Same	Rpleas	2pleas	acq_US_unple_nomask	acq2_nomask	2	35	480	1	300	300	0	0	485	46	1	0	vergnügt	kuss	gütig	anregung	genießen	sonnig	verbissen	krise	gierig	ausrottung	gemein	sterben	kreativ	träumen	besonnen	vertrauen	gesittet	engagiert	krank	töten	bange	versagen	geizig	engstirnig	1	blank2r.bmp	0	1	+	0	1	blank2r.bmp	500	1	CPLW	500	1	blank2r.bmp	880	2	krise	880	1	!	1312	1	!	1386	0	0	0	0	0	0
2024-06-06	10:25:10	10:30:40	328241	6.6.1	4_exp_EVA_AWA_CON	71	A	B	Rpleas_acq	Same	Rpleas	2pleas	acq_new_pleas_nomask	acq2_nomask	2	36	480	0	300	300	0	0	568	50	1	0	vergnügt	kuss	gütig	anregung	genießen	sonnig	verbissen	krise	gierig	ausrottung	gemein	sterben	kreativ	träumen	besonnen	vertrauen	gesittet	engagiert	krank	töten	bange	versagen	geizig	engstirnig	1	blank2r.bmp	0	1	+	0	1	blank2r.bmp	500	3	B3r.bmp	500	1	blank2r.bmp	880	6	engagiert	880	1	!	1312	1	!	-1	0	0	0	0	0	0
2024-06-06	10:25:10	10:30:53	340673	6.6.1	4_exp_EVA_AWA_CON	71	A	B	Rpleas_acq	Same	Rpleas	2pleas	acq_US_pleas_nomask	acq3_nomask	3	1	453	0	300	300	0	0	582	50	1	0	vergnügt	kuss	gütig	anregung	genießen	sonnig	verbissen	krise	gierig	ausrottung	gemein	sterben	kreativ	träumen	besonnen	vertrauen	gesittet	engagiert	krank	töten	bange	versagen	geizig	engstirnig	1	blank2r.bmp	0	1	+	0	1	blank2r.bmp	500	1	DHJF	500	1	blank2r.bmp	880	5	genießen	880	1	!	1293	1	!	-1	0	0	0	0	0	0
2024-06-06	10:25:10	10:30:55	342964	6.6.1	4_exp_EVA_AWA_CON	71	A	B	Rpleas_acq	Same	Rpleas	2pleas	acq_US_unple_nomask	acq3_nomask	3	2	453	1	300	300	0	0	508	46	1	0	vergnügt	kuss	gütig	anregung	genießen	sonnig	verbissen	krise	gierig	ausrottung	gemein	sterben	kreativ	träumen	besonnen	vertrauen	gesittet	engagiert	krank	töten	bange	versagen	geizig	engstirnig	1	blank2r.bmp	0	1	+	0	1	blank2r.bmp	500	1	CPLW	500	1	blank2r.bmp	880	5	gemein	880	1	!	1292	1	!	1410	0	0	0	0	0	0
2024-06-06	10:25:10	10:30:57	345313	6.6.1	4_exp_EVA_AWA_CON	71	A	B	Rpleas_acq	Same	Rpleas	2pleas	acq_US_pleas_nomask	acq3_nomask	3	3	453	0	300	300	0	0	569	50	1	0	vergnügt	kuss	gütig	anregung	genießen	sonnig	verbissen	krise	gierig	ausrottung	gemein	sterben	kreativ	träumen	besonnen	vertrauen	gesittet	engagiert	krank	töten	bange	versagen	geizig	engstirnig	1	blank2r.bmp	0	1	+	0	1	blank2r.bmp	500	1	DHJF	500	1	blank2r.bmp	880	6	sonnig	880	1	!	1292	1	!	-1	0	0	0	0	0	0
2024-06-06	10:25:10	10:31:00	347587	6.6.1	4_exp_EVA_AWA_CON	71	A	B	Rpleas_acq	Same	Rpleas	2pleas	acq_US_unple_nomask	acq3_nomask	3	4	453	1	300	300	0	0	499	46	1	0	vergnügt	kuss	gütig	anregung	genießen	sonnig	verbissen	krise	gierig	ausrottung	gemein	sterben	kreativ	träumen	besonnen	vertrauen	gesittet	engagiert	krank	töten	bange	versagen	geizig	engstirnig	1	blank2r.bmp	0	1	+	0	1	blank2r.bmp	500	1	CPLW	500	1	blank2r.bmp	880	2	krise	880	1	!	1292	1	!	1400	0	0	0	0	0	0
2024-06-06	10:25:10	10:31:02	349835	6.6.1	4_exp_EVA_AWA_CON	71	A	B	Rpleas_acq	Same	Rpleas	2pleas	acq_US_pleas_nomask	acq3_nomask	3	5	453	1	300	300	0	0	466	50	1	0	vergnügt	kuss	gütig	anregung	genießen	sonnig	verbissen	krise	gierig	ausrottung	gemein	sterben	kreativ	träumen	besonnen	vertrauen	gesittet	engagiert	krank	töten	bange	versagen	geizig	engstirnig	1	blank2r.bmp	0	1	+	0	1	blank2r.bmp	500	1	DHJF	500	1	blank2r.bmp	880	3	gütig	880	1	!	1292	1	!	1367	0	0	0	0	0	0
2024-06-06	10:25:10	10:31:04	352201	6.6.1	4_exp_EVA_AWA_CON	71	A	B	Rpleas_acq	Same	Rpleas	2pleas	acq_US_pleas_nomask	acq3_nomask	3	6	453	0	300	300	0	0	592	50	1	0	vergnügt	kuss	gütig	anregung	genießen	sonnig	verbissen	krise	gierig	ausrottung	gemein	sterben	kreativ	träumen	besonnen	vertrauen	gesittet	engagiert	krank	töten	bange	versagen	geizig	engstirnig	1	blank2r.bmp	0	1	+	0	1	blank2r.bmp	500	1	DHJF	500	1	blank2r.bmp	880	1	vergnügt	880	1	!	1293	1	!	-1	0	0	0	0	0	0
2024-06-06	10:25:10	10:31:07	354499	6.6.1	4_exp_EVA_AWA_CON	71	A	B	Rpleas_acq	Same	Rpleas	2pleas	acq_US_unple_nomask	acq3_nomask	3	7	453	1	300	300	0	0	517	46	1	0	vergnügt	kuss	gütig	anregung	genießen	sonnig	verbissen	krise	gierig	ausrottung	gemein	sterben	kreativ	träumen	besonnen	vertrauen	gesittet	engagiert	krank	töten	bange	versagen	geizig	engstirnig	1	blank2r.bmp	0	1	+	0	1	blank2r.bmp	500	1	CPLW	500	1	blank2r.bmp	880	1	verbissen	880	1	!	1292	1	!	1418	0	0	0	0	0	0
2024-06-06	10:25:10	10:31:09	356809	6.6.1	4_exp_EVA_AWA_CON	71	A	B	Rpleas_acq	Same	Rpleas	2pleas	acq_US_pleas_nomask	acq3_nomask	3	8	453	0	300	300	0	0	537	50	1	0	vergnügt	kuss	gütig	anregung	genießen	sonnig	verbissen	krise	gierig	ausrottung	gemein	sterben	kreativ	träumen	besonnen	vertrauen	gesittet	engagiert	krank	töten	bange	versagen	geizig	engstirnig	1	blank2r.bmp	0	1	+	0	1	blank2r.bmp	500	1	DHJF	500	1	blank2r.bmp	880	4	anregung	880	1	!	1292	1	!	-1	0	0	0	0	0	0
2024-06-06	10:25:10	10:31:11	359268	6.6.1	4_exp_EVA_AWA_CON	71	A	B	Rpleas_acq	Same	Rpleas	2pleas	acq_US_unple_nomask	acq3_nomask	3	9	453	1	300	300	0	0	482	50	0	0	vergnügt	kuss	gütig	anregung	genießen	sonnig	verbissen	krise	gierig	ausrottung	gemein	sterben	kreativ	träumen	besonnen	vertrauen	gesittet	engagiert	krank	töten	bange	versagen	geizig	engstirnig	1	blank2r.bmp	0	1	+	0	1	blank2r.bmp	500	1	CPLW	500	1	blank2r.bmp	880	4	ausrottung	880	1	FEHLER	1675	1	!	1293	1	!	1383	0	0	0
2024-06-06	10:25:10	10:31:13	361259	6.6.1	4_exp_EVA_AWA_CON	71	A	B	Rpleas_acq	Same	Rpleas	2pleas	acq_US_pleas_nomask	acq3_nomask	3	10	453	1	300	300	0	0	413	50	1	0	vergnügt	kuss	gütig	anregung	genießen	sonnig	verbissen	krise	gierig	ausrottung	gemein	sterben	kreativ	träumen	besonnen	vertrauen	gesittet	engagiert	krank	töten	bange	versagen	geizig	engstirnig	1	blank2r.bmp	0	1	+	0	1	blank2r.bmp	500	1	DHJF	500	1	blank2r.bmp	880	2	kuss	880	1	!	1292	1	!	1314	0	0	0	0	0	0
2024-06-06	10:25:10	10:31:16	363577	6.6.1	4_exp_EVA_AWA_CON	71	A	B	Rpleas_acq	Same	Rpleas	2pleas	acq_US_unple_nomask	acq3_nomask	3	11	453	0	300	300	0	0	541	46	1	0	vergnügt	kuss	gütig	anregung	genießen	sonnig	verbissen	krise	gierig	ausrottung	gemein	sterben	kreativ	träumen	besonnen	vertrauen	gesittet	engagiert	krank	töten	bange	versagen	geizig	engstirnig	1	blank2r.bmp	0	1	+	0	1	blank2r.bmp	500	1	CPLW	500	1	blank2r.bmp	880	3	gierig	880	1	!	1292	1	!	-1	0	0	0	0	0	0
2024-06-06	10:25:10	10:31:18	365867	6.6.1	4_exp_EVA_AWA_CON	71	A	B	Rpleas_acq	Same	Rpleas	2pleas	acq_US_unple_nomask	acq3_nomask	3	12	453	1	300	300	0	0	508	46	1	0	vergnügt	kuss	gütig	anregung	genießen	sonnig	verbissen	krise	gierig	ausrottung	gemein	sterben	kreativ	träumen	besonnen	vertrauen	gesittet	engagiert	krank	töten	bange	versagen	geizig	engstirnig	1	blank2r.bmp	0	1	+	0	1	blank2r.bmp	500	1	CPLW	500	1	blank2r.bmp	880	6	sterben	880	1	!	1293	1	!	1409	0	0	0	0	0	0
2024-06-06	10:25:10	10:31:20	368115	6.6.1	4_exp_EVA_AWA_CON	71	A	B	Rpleas_acq	Same	Rpleas	2pleas	acq_US_pleas_nomask	acq3_nomask	3	13	453	1	300	300	0	0	464	50	1	0	vergnügt	kuss	gütig	anregung	genießen	sonnig	verbissen	krise	gierig	ausrottung	gemein	sterben	kreativ	träumen	besonnen	vertrauen	gesittet	engagiert	krank	töten	bange	versagen	geizig	engstirnig	1	blank2r.bmp	0	1	+	0	1	blank2r.bmp	500	1	DHJF	500	1	blank2r.bmp	880	1	vergnügt	880	1	!	1293	1	!	1365	0	0	0	0	0	0
2024-06-06	10:25:10	10:31:23	370692	6.6.1	4_exp_EVA_AWA_CON	71	A	B	Rpleas_acq	Same	Rpleas	2pleas	acq_US_unple_nomask	acq3_nomask	3	14	453	0	300	300	0	0	599	50	0	0	vergnügt	kuss	gütig	anregung	genießen	sonnig	verbissen	krise	gierig	ausrottung	gemein	sterben	kreativ	träumen	besonnen	vertrauen	gesittet	engagiert	krank	töten	bange	versagen	geizig	engstirnig	1	blank2r.bmp	0	1	+	0	1	blank2r.bmp	500	1	CPLW	500	1	blank2r.bmp	880	3	gierig	880	1	FEHLER	1792	1	!	1292	1	!	-1	0	0	0
2024-06-06	10:25:10	10:31:25	372817	6.6.1	4_exp_EVA_AWA_CON	71	A	B	Rpleas_acq	Same	Rpleas	2pleas	acq_US_pleas_nomask	acq3_nomask	3	15	453	0	300	300	0	0	555	50	1	0	vergnügt	kuss	gütig	anregung	genießen	sonnig	verbissen	krise	gierig	ausrottung	gemein	sterben	kreativ	träumen	besonnen	vertrauen	gesittet	engagiert	krank	töten	bange	versagen	geizig	engstirnig	1	blank2r.bmp	0	1	+	0	1	blank2r.bmp	500	1	DHJF	500	1	blank2r.bmp	880	3	gütig	880	1	!	1292	1	!	-1	0	0	0	0	0	0
2024-06-06	10:25:10	10:31:27	375340	6.6.1	4_exp_EVA_AWA_CON	71	A	B	Rpleas_acq	Same	Rpleas	2pleas	acq_US_pleas_nomask	acq3_nomask	3	16	453	0	300	300	0	0	544	46	0	0	vergnügt	kuss	gütig	anregung	genießen	sonnig	verbissen	krise	gierig	ausrottung	gemein	sterben	kreativ	träumen	besonnen	vertrauen	gesittet	engagiert	krank	töten	bange	versagen	geizig	engstirnig	1	blank2r.bmp	0	1	+	0	1	blank2r.bmp	500	1	DHJF	500	1	blank2r.bmp	880	5	genießen	880	1	FEHLER	1737	1	!	1292	1	!	-1	0	0	0
2024-06-06	10:25:10	10:31:29	377395	6.6.1	4_exp_EVA_AWA_CON	71	A	B	Rpleas_acq	Same	Rpleas	2pleas	acq_US_pleas_nomask	acq3_nomask	3	17	453	1	300	300	0	0	478	50	1	0	vergnügt	kuss	gütig	anregung	genießen	sonnig	verbissen	krise	gierig	ausrottung	gemein	sterben	kreativ	träumen	besonnen	vertrauen	gesittet	engagiert	krank	töten	bange	versagen	geizig	engstirnig	1	blank2r.bmp	0	1	+	0	1	blank2r.bmp	500	1	DHJF	500	1	blank2r.bmp	880	6	sonnig	880	1	!	1293	1	!	1379	0	0	0	0	0	0
2024-06-06	10:25:10	10:31:32	379675	6.6.1	4_exp_EVA_AWA_CON	71	A	B	Rpleas_acq	Same	Rpleas	2pleas	acq_US_unple_nomask	acq3_nomask	3	18	453	1	300	300	0	0	497	46	1	0	vergnügt	kuss	gütig	anregung	genießen	sonnig	verbissen	krise	gierig	ausrottung	gemein	sterben	kreativ	träumen	besonnen	vertrauen	gesittet	engagiert	krank	töten	bange	versagen	geizig	engstirnig	1	blank2r.bmp	0	1	+	0	1	blank2r.bmp	500	1	CPLW	500	1	blank2r.bmp	880	1	verbissen	880	1	!	1293	1	!	1398	0	0	0	0	0	0
2024-06-06	10:25:10	10:31:34	381970	6.6.1	4_exp_EVA_AWA_CON	71	A	B	Rpleas_acq	Same	Rpleas	2pleas	acq_US_unple_nomask	acq3_nomask	3	19	453	0	300	300	0	0	523	46	1	0	vergnügt	kuss	gütig	anregung	genießen	sonnig	verbissen	krise	gierig	ausrottung	gemein	sterben	kreativ	träumen	besonnen	vertrauen	gesittet	engagiert	krank	töten	bange	versagen	geizig	engstirnig	1	blank2r.bmp	0	1	+	0	1	blank2r.bmp	500	1	CPLW	500	1	blank2r.bmp	880	5	gemein	880	1	!	1292	1	!	-1	0	0	0	0	0	0
2024-06-06	10:25:10	10:31:36	384235	6.6.1	4_exp_EVA_AWA_CON	71	A	B	Rpleas_acq	Same	Rpleas	2pleas	acq_US_pleas_nomask	acq3_nomask	3	20	453	1	300	300	0	0	484	50	1	0	vergnügt	kuss	gütig	anregung	genießen	sonnig	verbissen	krise	gierig	ausrottung	gemein	sterben	kreativ	träumen	besonnen	vertrauen	gesittet	engagiert	krank	töten	bange	versagen	geizig	engstirnig	1	blank2r.bmp	0	1	+	0	1	blank2r.bmp	500	1	DHJF	500	1	blank2r.bmp	880	2	kuss	880	1	!	1292	1	!	1385	0	0	0	0	0	0
2024-06-06	10:25:10	10:31:39	386876	6.6.1	4_exp_EVA_AWA_CON	71	A	B	Rpleas_acq	Same	Rpleas	2pleas	acq_US_pleas_nomask	acq3_nomask	3	21	453	0	300	300	0	0	662	46	0	0	vergnügt	kuss	gütig	anregung	genießen	sonnig	verbissen	krise	gierig	ausrottung	gemein	sterben	kreativ	träumen	besonnen	vertrauen	gesittet	engagiert	krank	töten	bange	versagen	geizig	engstirnig	1	blank2r.bmp	0	1	+	0	1	blank2r.bmp	500	1	DHJF	500	1	blank2r.bmp	880	4	anregung	880	1	FEHLER	1855	1	!	1292	1	!	-1	0	0	0
2024-06-06	10:25:10	10:31:41	389041	6.6.1	4_exp_EVA_AWA_CON	71	A	B	Rpleas_acq	Same	Rpleas	2pleas	acq_US_unple_nomask	acq3_nomask	3	22	453	0	300	300	0	0	589	46	1	0	vergnügt	kuss	gütig	anregung	genießen	sonnig	verbissen	krise	gierig	ausrottung	gemein	sterben	kreativ	träumen	besonnen	vertrauen	gesittet	engagiert	krank	töten	bange	versagen	geizig	engstirnig	1	blank2r.bmp	0	1	+	0	1	blank2r.bmp	500	1	CPLW	500	1	blank2r.bmp	880	2	krise	880	1	!	1293	1	!	-1	0	0	0	0	0	0
2024-06-06	10:25:10	10:31:44	391449	6.6.1	4_exp_EVA_AWA_CON	71	A	B	Rpleas_acq	Same	Rpleas	2pleas	acq_US_unple_nomask	acq3_nomask	3	23	453	0	300	300	0	0	635	46	1	0	vergnügt	kuss	gütig	anregung	genießen	sonnig	verbissen	krise	gierig	ausrottung	gemein	sterben	kreativ	träumen	besonnen	vertrauen	gesittet	engagiert	krank	töten	bange	versagen	geizig	engstirnig	1	blank2r.bmp	0	1	+	0	1	blank2r.bmp	500	1	CPLW	500	1	blank2r.bmp	880	4	ausrottung	880	1	!	1292	1	!	-1	0	0	0	0	0	0
2024-06-06	10:25:10	10:31:46	393786	6.6.1	4_exp_EVA_AWA_CON	71	A	B	Rpleas_acq	Same	Rpleas	2pleas	acq_US_unple_nomask	acq3_nomask	3	24	453	0	300	300	0	0	560	46	1	0	vergnügt	kuss	gütig	anregung	genießen	sonnig	verbissen	krise	gierig	ausrottung	gemein	sterben	kreativ	träumen	besonnen	vertrauen	gesittet	engagiert	krank	töten	bange	versagen	geizig	engstirnig	1	blank2r.bmp	0	1	+	0	1	blank2r.bmp	500	1	CPLW	500	1	blank2r.bmp	880	6	sterben	880	1	!	1292	1	!	-1	0	0	0	0	0	0
2024-06-06	10:25:10	10:31:48	396043	6.6.1	4_exp_EVA_AWA_CON	71	A	B	Rpleas_acq	Same	Rpleas	2pleas	acq_US_pleas_nomask	acq3_nomask	3	25	453	1	300	300	0	0	474	50	1	0	vergnügt	kuss	gütig	anregung	genießen	sonnig	verbissen	krise	gierig	ausrottung	gemein	sterben	kreativ	träumen	besonnen	vertrauen	gesittet	engagiert	krank	töten	bange	versagen	geizig	engstirnig	1	blank2r.bmp	0	1	+	0	1	blank2r.bmp	500	1	DHJF	500	1	blank2r.bmp	880	3	gütig	880	1	!	1293	1	!	1375	0	0	0	0	0	0
2024-06-06	10:25:10	10:31:50	398267	6.6.1	4_exp_EVA_AWA_CON	71	A	B	Rpleas_acq	Same	Rpleas	2pleas	acq_US_unple_nomask	acq3_nomask	3	26	453	1	300	300	0	0	447	46	1	0	vergnügt	kuss	gütig	anregung	genießen	sonnig	verbissen	krise	gierig	ausrottung	gemein	sterben	kreativ	träumen	besonnen	vertrauen	gesittet	engagiert	krank	töten	bange	versagen	geizig	engstirnig	1	blank2r.bmp	0	1	+	0	1	blank2r.bmp	500	1	CPLW	500	1	blank2r.bmp	880	2	krise	880	1	!	1292	1	!	1348	0	0	0	0	0	0
2024-06-06	10:25:10	10:31:53	400625	6.6.1	4_exp_EVA_AWA_CON	71	A	B	Rpleas_acq	Same	Rpleas	2pleas	acq_US_pleas_nomask	acq3_nomask	3	27	453	0	300	300	0	0	585	50	1	0	vergnügt	kuss	gütig	anregung	genießen	sonnig	verbissen	krise	gierig	ausrottung	gemein	sterben	kreativ	träumen	besonnen	vertrauen	gesittet	engagiert	krank	töten	bange	versagen	geizig	engstirnig	1	blank2r.bmp	0	1	+	0	1	blank2r.bmp	500	1	DHJF	500	1	blank2r.bmp	880	4	anregung	880	1	!	1292	1	!	-1	0	0	0	0	0	0
2024-06-06	10:25:10	10:31:55	402945	6.6.1	4_exp_EVA_AWA_CON	71	A	B	Rpleas_acq	Same	Rpleas	2pleas	acq_US_unple_nomask	acq3_nomask	3	28	453	0	300	300	0	0	544	46	1	0	vergnügt	kuss	gütig	anregung	genießen	sonnig	verbissen	krise	gierig	ausrottung	gemein	sterben	kreativ	träumen	besonnen	vertrauen	gesittet	engagiert	krank	töten	bange	versagen	geizig	engstirnig	1	blank2r.bmp	0	1	+	0	1	blank2r.bmp	500	1	CPLW	500	1	blank2r.bmp	880	1	verbissen	880	1	!	1292	1	!	-1	0	0	0	0	0	0
2024-06-06	10:25:10	10:31:57	405341	6.6.1	4_exp_EVA_AWA_CON	71	A	B	Rpleas_acq	Same	Rpleas	2pleas	acq_US_pleas_nomask	acq3_nomask	3	29	453	1	300	300	0	0	414	46	0	0	vergnügt	kuss	gütig	anregung	genießen	sonnig	verbissen	krise	gierig	ausrottung	gemein	sterben	kreativ	träumen	besonnen	vertrauen	gesittet	engagiert	krank	töten	bange	versagen	geizig	engstirnig	1	blank2r.bmp	0	1	+	0	1	blank2r.bmp	500	1	DHJF	500	1	blank2r.bmp	880	6	sonnig	880	1	FEHLER	1608	1	!	1292	1	!	1316	0	0	0
2024-06-06	10:25:10	10:31:59	407419	6.6.1	4_exp_EVA_AWA_CON	71	A	B	Rpleas_acq	Same	Rpleas	2pleas	acq_US_unple_nomask	acq3_nomask	3	30	453	1	300	300	0	0	503	46	1	0	vergnügt	kuss	gütig	anregung	genießen	sonnig	verbissen	krise	gierig	ausrottung	gemein	sterben	kreativ	träumen	besonnen	vertrauen	gesittet	engagiert	krank	töten	bange	versagen	geizig	engstirnig	1	blank2r.bmp	0	1	+	0	1	blank2r.bmp	500	1	CPLW	500	1	blank2r.bmp	880	6	sterben	880	1	!	1292	1	!	1404	0	0	0	0	0	0
2024-06-06	10:25:10	10:32:02	409745	6.6.1	4_exp_EVA_AWA_CON	71	A	B	Rpleas_acq	Same	Rpleas	2pleas	acq_US_pleas_nomask	acq3_nomask	3	31	453	0	300	300	0	0	550	50	1	0	vergnügt	kuss	gütig	anregung	genießen	sonnig	verbissen	krise	gierig	ausrottung	gemein	sterben	kreativ	träumen	besonnen	vertrauen	gesittet	engagiert	krank	töten	bange	versagen	geizig	engstirnig	1	blank2r.bmp	0	1	+	0	1	blank2r.bmp	500	1	DHJF	500	1	blank2r.bmp	880	1	vergnügt	880	1	!	1292	1	!	-1	0	0	0	0	0	0
2024-06-06	10:25:10	10:32:04	412244	6.6.1	4_exp_EVA_AWA_CON	71	A	B	Rpleas_acq	Same	Rpleas	2pleas	acq_US_unple_nomask	acq3_nomask	3	32	453	1	300	300	0	0	514	50	0	0	vergnügt	kuss	gütig	anregung	genießen	sonnig	verbissen	krise	gierig	ausrottung	gemein	sterben	kreativ	träumen	besonnen	vertrauen	gesittet	engagiert	krank	töten	bange	versagen	geizig	engstirnig	1	blank2r.bmp	0	1	+	0	1	blank2r.bmp	500	1	CPLW	500	1	blank2r.bmp	880	3	gierig	880	1	FEHLER	1707	1	!	1293	1	!	1415	0	0	0
2024-06-06	10:25:10	10:32:06	414267	6.6.1	4_exp_EVA_AWA_CON	71	A	B	Rpleas_acq	Same	Rpleas	2pleas	acq_US_unple_nomask	acq3_nomask	3	33	453	1	300	300	0	0	447	46	1	0	vergnügt	kuss	gütig	anregung	genießen	sonnig	verbissen	krise	gierig	ausrottung	gemein	sterben	kreativ	träumen	besonnen	vertrauen	gesittet	engagiert	krank	töten	bange	versagen	geizig	engstirnig	1	blank2r.bmp	0	1	+	0	1	blank2r.bmp	500	1	CPLW	500	1	blank2r.bmp	880	5	gemein	880	1	!	1292	1	!	1348	0	0	0	0	0	0
2024-06-06	10:25:10	10:32:09	416697	6.6.1	4_exp_EVA_AWA_CON	71	A	B	Rpleas_acq	Same	Rpleas	2pleas	acq_US_pleas_nomask	acq3_nomask	3	34	453	0	300	300	0	0	657	50	1	0	vergnügt	kuss	gütig	anregung	genießen	sonnig	verbissen	krise	gierig	ausrottung	gemein	sterben	kreativ	träumen	besonnen	vertrauen	gesittet	engagiert	krank	töten	bange	versagen	geizig	engstirnig	1	blank2r.bmp	0	1	+	0	1	blank2r.bmp	500	1	DHJF	500	1	blank2r.bmp	880	5	genießen	880	1	!	1292	1	!	-1	0	0	0	0	0	0
2024-06-06	10:25:10	10:32:11	419341	6.6.1	4_exp_EVA_AWA_CON	71	A	B	Rpleas_acq	Same	Rpleas	2pleas	acq_US_pleas_nomask	acq3_nomask	3	35	453	0	300	300	0	0	665	46	0	0	vergnügt	kuss	gütig	anregung	genießen	sonnig	verbissen	krise	gierig	ausrottung	gemein	sterben	kreativ	träumen	besonnen	vertrauen	gesittet	engagiert	krank	töten	bange	versagen	geizig	engstirnig	1	blank2r.bmp	0	1	+	0	1	blank2r.bmp	500	1	DHJF	500	1	blank2r.bmp	880	2	kuss	880	1	FEHLER	1859	1	!	1292	1	!	-1	0	0	0
2024-06-06	10:25:10	10:32:14	421440	6.6.1	4_exp_EVA_AWA_CON	71	A	B	Rpleas_acq	Same	Rpleas	2pleas	acq_US_unple_nomask	acq3_nomask	3	36	453	0	300	300	0	0	528	46	1	0	vergnügt	kuss	gütig	anregung	genießen	sonnig	verbissen	krise	gierig	ausrottung	gemein	sterben	kreativ	träumen	besonnen	vertrauen	gesittet	engagiert	krank	töten	bange	versagen	geizig	engstirnig	1	blank2r.bmp	0	1	+	0	1	blank2r.bmp	500	1	CPLW	500	1	blank2r.bmp	880	4	ausrottung	880	1	!	1292	1	!	-1	0	0	0	0	0	0
2024-06-06	10:25:10	10:32:25	433059	6.6.1	4_exp_EVA_AWA_CON	71	A	B	Rpleas_acq	Same	Rpleas	2pleas	acq_US_pleas_nomask	acq45_nomask	4	1	400	1	300	300	0	0	456	50	1	0	vergnügt	kuss	gütig	anregung	genießen	sonnig	verbissen	krise	gierig	ausrottung	gemein	sterben	kreativ	träumen	besonnen	vertrauen	gesittet	engagiert	krank	töten	bange	versagen	geizig	engstirnig	1	blank2r.bmp	0	1	+	0	1	blank2r.bmp	500	1	DHJF	500	1	blank2r.bmp	880	2	kuss	880	1	!	1232	1	!	1358	0	0	0	0	0	0
2024-06-06	10:25:10	10:32:27	435312	6.6.1	4_exp_EVA_AWA_CON	71	A	B	Rpleas_acq	Same	Rpleas	2pleas	acq_US_unple_nomask	acq45_nomask	4	2	400	0	300	300	0	0	481	46	1	0	vergnügt	kuss	gütig	anregung	genießen	sonnig	verbissen	krise	gierig	ausrottung	gemein	sterben	kreativ	träumen	besonnen	vertrauen	gesittet	engagiert	krank	töten	bange	versagen	geizig	engstirnig	1	blank2r.bmp	0	1	+	0	1	blank2r.bmp	500	1	CPLW	500	1	blank2r.bmp	880	4	ausrottung	880	1	!	1232	1	!	-1	0	0	0	0	0	0
2024-06-06	10:25:10	10:32:30	437531	6.6.1	4_exp_EVA_AWA_CON	71	A	B	Rpleas_acq	Same	Rpleas	2pleas	acq_US_unple_nomask	acq45_nomask	4	3	400	1	300	300	0	0	435	50	0	0	vergnügt	kuss	gütig	anregung	genießen	sonnig	verbissen	krise	gierig	ausrottung	gemein	sterben	kreativ	träumen	besonnen	vertrauen	gesittet	engagiert	krank	töten	bange	versagen	geizig	engstirnig	1	blank2r.bmp	0	1	+	0	1	blank2r.bmp	500	1	CPLW	500	1	blank2r.bmp	880	2	krise	880	1	!	1232	1	!	1337	0	0	0	0	0	0
2024-06-06	10:25:10	10:32:32	439748	6.6.1	4_exp_EVA_AWA_CON	71	A	B	Rpleas_acq	Same	Rpleas	2pleas	acq_US_unple_nomask	acq45_nomask	4	4	400	1	300	300	0	0	440	50	0	0	vergnügt	kuss	gütig	anregung	genießen	sonnig	verbissen	krise	gierig	ausrottung	gemein	sterben	kreativ	träumen	besonnen	vertrauen	gesittet	engagiert	krank	töten	bange	versagen	geizig	engstirnig	1	blank2r.bmp	0	1	+	0	1	blank2r.bmp	500	1	CPLW	500	1	blank2r.bmp	880	6	sterben	880	1	!	1233	1	!	1342	0	0	0	0	0	0
2024-06-06	10:25:10	10:32:34	441825	6.6.1	4_exp_EVA_AWA_CON	71	A	B	Rpleas_acq	Same	Rpleas	2pleas	acq_US_unple_nomask	acq45_nomask	4	5	400	0	300	300	0	0	299	46	1	0	vergnügt	kuss	gütig	anregung	genießen	sonnig	verbissen	krise	gierig	ausrottung	gemein	sterben	kreativ	träumen	besonnen	vertrauen	gesittet	engagiert	krank	töten	bange	versagen	geizig	engstirnig	1	blank2r.bmp	0	1	+	0	1	blank2r.bmp	500	1	CPLW	500	1	blank2r.bmp	880	3	gierig	880	1	!	-1	1	!	-1	0	0	0	0	0	0
2024-06-06	10:25:10	10:32:36	444089	6.6.1	4_exp_EVA_AWA_CON	71	A	B	Rpleas_acq	Same	Rpleas	2pleas	acq_US_unple_nomask	acq45_nomask	4	6	400	0	300	300	0	0	492	46	1	0	vergnügt	kuss	gütig	anregung	genießen	sonnig	verbissen	krise	gierig	ausrottung	gemein	sterben	kreativ	träumen	besonnen	vertrauen	gesittet	engagiert	krank	töten	bange	versagen	geizig	engstirnig	1	blank2r.bmp	0	1	+	0	1	blank2r.bmp	500	1	CPLW	500	1	blank2r.bmp	880	5	gemein	880	1	!	1232	1	!	-1	0	0	0	0	0	0
2024-06-06	10:25:10	10:32:38	446353	6.6.1	4_exp_EVA_AWA_CON	71	A	B	Rpleas_acq	Same	Rpleas	2pleas	acq_US_unple_nomask	acq45_nomask	4	7	400	0	300	300	0	0	484	46	1	0	vergnügt	kuss	gütig	anregung	genießen	sonnig	verbissen	krise	gierig	ausrottung	gemein	sterben	kreativ	träumen	besonnen	vertrauen	gesittet	engagiert	krank	töten	bange	versagen	geizig	engstirnig	1	blank2r.bmp	0	1	+	0	1	blank2r.bmp	500	1	CPLW	500	1	blank2r.bmp	880	1	verbissen	880	1	!	1232	1	!	-1	0	0	0	0	0	0
2024-06-06	10:25:10	10:32:41	448595	6.6.1	4_exp_EVA_AWA_CON	71	A	B	Rpleas_acq	Same	Rpleas	2pleas	acq_US_pleas_nomask	acq45_nomask	4	8	400	1	300	300	0	0	463	50	1	0	vergnügt	kuss	gütig	anregung	genießen	sonnig	verbissen	krise	gierig	ausrottung	gemein	sterben	kreativ	träumen	besonnen	vertrauen	gesittet	engagiert	krank	töten	bange	versagen	geizig	engstirnig	1	blank2r.bmp	0	1	+	0	1	blank2r.bmp	500	1	DHJF	500	1	blank2r.bmp	880	3	gütig	880	1	!	1232	1	!	1364	0	0	0	0	0	0
2024-06-06	10:25:10	10:32:43	450779	6.6.1	4_exp_EVA_AWA_CON	71	A	B	Rpleas_acq	Same	Rpleas	2pleas	acq_US_pleas_nomask	acq45_nomask	4	9	400	1	300	300	0	0	405	46	0	0	vergnügt	kuss	gütig	anregung	genießen	sonnig	verbissen	krise	gierig	ausrottung	gemein	sterben	kreativ	träumen	besonnen	vertrauen	gesittet	engagiert	krank	töten	bange	versagen	geizig	engstirnig	1	blank2r.bmp	0	1	+	0	1	blank2r.bmp	500	1	DHJF	500	1	blank2r.bmp	880	1	vergnügt	880	1	!	1232	1	!	1306	0	0	0	0	0	0
2024-06-06	10:25:10	10:32:45	452849	6.6.1	4_exp_EVA_AWA_CON	71	A	B	Rpleas_acq	Same	Rpleas	2pleas	acq_US_pleas_nomask	acq45_nomask	4	10	400	0	300	300	0	0	296	46	0	0	vergnügt	kuss	gütig	anregung	genießen	sonnig	verbissen	krise	gierig	ausrottung	gemein	sterben	kreativ	träumen	besonnen	vertrauen	gesittet	engagiert	krank	töten	bange	versagen	geizig	engstirnig	1	blank2r.bmp	0	1	+	0	1	blank2r.bmp	500	1	DHJF	500	1	blank2r.bmp	880	6	sonnig	880	1	!	-1	1	!	-1	0	0	0	0	0	0
2024-06-06	10:25:10	10:32:47	455019	6.6.1	4_exp_EVA_AWA_CON	71	A	B	Rpleas_acq	Same	Rpleas	2pleas	acq_US_pleas_nomask	acq45_nomask	4	11	400	1	300	300	0	0	392	46	0	0	vergnügt	kuss	gütig	anregung	genießen	sonnig	verbissen	krise	gierig	ausrottung	gemein	sterben	kreativ	träumen	besonnen	vertrauen	gesittet	engagiert	krank	töten	bange	versagen	geizig	engstirnig	1	blank2r.bmp	0	1	+	0	1	blank2r.bmp	500	1	DHJF	500	1	blank2r.bmp	880	4	anregung	880	1	!	1232	1	!	1293	0	0	0	0	0	0
2024-06-06	10:25:10	10:32:49	457251	6.6.1	4_exp_EVA_AWA_CON	71	A	B	Rpleas_acq	Same	Rpleas	2pleas	acq_US_pleas_nomask	acq45_nomask	4	12	400	1	300	300	0	0	453	50	1	0	vergnügt	kuss	gütig	anregung	genießen	sonnig	verbissen	krise	gierig	ausrottung	gemein	sterben	kreativ	träumen	besonnen	vertrauen	gesittet	engagiert	krank	töten	bange	versagen	geizig	engstirnig	1	blank2r.bmp	0	1	+	0	1	blank2r.bmp	500	1	DHJF	500	1	blank2r.bmp	880	5	genießen	880	1	!	1232	1	!	1354	0	0	0	0	0	0
2024-06-06	10:25:10	10:32:52	459483	6.6.1	4_exp_EVA_AWA_CON	71	A	B	Rpleas_acq	Same	Rpleas	2pleas	acq_US_pleas_nomask	acq45_nomask	4	13	400	1	300	300	0	0	454	50	1	0	vergnügt	kuss	gütig	anregung	genießen	sonnig	verbissen	krise	gierig	ausrottung	gemein	sterben	kreativ	träumen	besonnen	vertrauen	gesittet	engagiert	krank	töten	bange	versagen	geizig	engstirnig	1	blank2r.bmp	0	1	+	0	1	blank2r.bmp	500	1	DHJF	500	1	blank2r.bmp	880	6	sonnig	880	1	!	1232	1	!	1355	0	0	0	0	0	0
2024-06-06	10:25:10	10:32:54	461667	6.6.1	4_exp_EVA_AWA_CON	71	A	B	Rpleas_acq	Same	Rpleas	2pleas	acq_US_unple_nomask	acq45_nomask	4	14	400	1	300	300	0	0	406	46	1	0	vergnügt	kuss	gütig	anregung	genießen	sonnig	verbissen	krise	gierig	ausrottung	gemein	sterben	kreativ	träumen	besonnen	vertrauen	gesittet	engagiert	krank	töten	bange	versagen	geizig	engstirnig	1	blank2r.bmp	0	1	+	0	1	blank2r.bmp	500	1	CPLW	500	1	blank2r.bmp	880	6	sterben	880	1	!	1232	1	!	1307	0	0	0	0	0	0
2024-06-06	10:25:10	10:32:56	463977	6.6.1	4_exp_EVA_AWA_CON	71	A	B	Rpleas_acq	Same	Rpleas	2pleas	acq_US_unple_nomask	acq45_nomask	4	15	400	0	300	300	0	0	537	50	0	0	vergnügt	kuss	gütig	anregung	genießen	sonnig	verbissen	krise	gierig	ausrottung	gemein	sterben	kreativ	träumen	besonnen	vertrauen	gesittet	engagiert	krank	töten	bange	versagen	geizig	engstirnig	1	blank2r.bmp	0	1	+	0	1	blank2r.bmp	500	1	CPLW	500	1	blank2r.bmp	880	4	ausrottung	880	1	!	1232	1	!	-1	0	0	0	0	0	0
2024-06-06	10:25:10	10:32:58	466273	6.6.1	4_exp_EVA_AWA_CON	71	A	B	Rpleas_acq	Same	Rpleas	2pleas	acq_US_pleas_nomask	acq45_nomask	4	16	400	0	300	300	0	0	521	50	1	0	vergnügt	kuss	gütig	anregung	genießen	sonnig	verbissen	krise	gierig	ausrottung	gemein	sterben	kreativ	träumen	besonnen	vertrauen	gesittet	engagiert	krank	töten	bange	versagen	geizig	engstirnig	1	blank2r.bmp	0	1	+	0	1	blank2r.bmp	500	1	DHJF	500	1	blank2r.bmp	880	3	gütig	880	1	!	1232	1	!	-1	0	0	0	0	0	0
2024-06-06	10:25:10	10:33:01	468569	6.6.1	4_exp_EVA_AWA_CON	71	A	B	Rpleas_acq	Same	Rpleas	2pleas	acq_US_pleas_nomask	acq45_nomask	4	17	400	0	300	300	0	0	516	46	0	0	vergnügt	kuss	gütig	anregung	genießen	sonnig	verbissen	krise	gierig	ausrottung	gemein	sterben	kreativ	träumen	besonnen	vertrauen	gesittet	engagiert	krank	töten	bange	versagen	geizig	engstirnig	1	blank2r.bmp	0	1	+	0	1	blank2r.bmp	500	1	DHJF	500	1	blank2r.bmp	880	5	genießen	880	1	!	1232	1	!	-1	0	0	0	0	0	0
2024-06-06	10:25:10	10:33:03	470811	6.6.1	4_exp_EVA_AWA_CON	71	A	B	Rpleas_acq	Same	Rpleas	2pleas	acq_US_unple_nomask	acq45_nomask	4	18	400	1	300	300	0	0	464	46	1	0	vergnügt	kuss	gütig	anregung	genießen	sonnig	verbissen	krise	gierig	ausrottung	gemein	sterben	kreativ	träumen	besonnen	vertrauen	gesittet	engagiert	krank	töten	bange	versagen	geizig	engstirnig	1	blank2r.bmp	0	1	+	0	1	blank2r.bmp	500	1	CPLW	500	1	blank2r.bmp	880	2	krise	880	1	!	1233	1	!	1365	0	0	0	0	0	0
2024-06-06	10:25:10	10:33:05	473121	6.6.1	4_exp_EVA_AWA_CON	71	A	B	Rpleas_acq	Same	Rpleas	2pleas	acq_US_pleas_nomask	acq45_nomask	4	19	400	0	300	300	0	0	535	50	1	0	vergnügt	kuss	gütig	anregung	genießen	sonnig	verbissen	krise	gierig	ausrottung	gemein	sterben	kreativ	träumen	besonnen	vertrauen	gesittet	engagiert	krank	töten	bange	versagen	geizig	engstirnig	1	blank2r.bmp	0	1	+	0	1	blank2r.bmp	500	1	DHJF	500	1	blank2r.bmp	880	4	anregung	880	1	!	1233	1	!	-1	0	0	0	0	0	0
2024-06-06	10:25:10	10:33:08	475433	6.6.1	4_exp_EVA_AWA_CON	71	A	B	Rpleas_acq	Same	Rpleas	2pleas	acq_US_pleas_nomask	acq45_nomask	4	20	400	0	300	300	0	0	535	50	1	0	vergnügt	kuss	gütig	anregung	genießen	sonnig	verbissen	krise	gierig	ausrottung	gemein	sterben	kreativ	träumen	besonnen	vertrauen	gesittet	engagiert	krank	töten	bange	versagen	geizig	engstirnig	1	blank2r.bmp	0	1	+	0	1	blank2r.bmp	500	1	DHJF	500	1	blank2r.bmp	880	2	kuss	880	1	!	1233	1	!	-1	0	0	0	0	0	0
2024-06-06	10:25:10	10:33:10	477705	6.6.1	4_exp_EVA_AWA_CON	71	A	B	Rpleas_acq	Same	Rpleas	2pleas	acq_US_pleas_nomask	acq45_nomask	4	21	400	0	300	300	0	0	496	50	1	0	vergnügt	kuss	gütig	anregung	genießen	sonnig	verbissen	krise	gierig	ausrottung	gemein	sterben	kreativ	träumen	besonnen	vertrauen	gesittet	engagiert	krank	töten	bange	versagen	geizig	engstirnig	1	blank2r.bmp	0	1	+	0	1	blank2r.bmp	500	1	DHJF	500	1	blank2r.bmp	880	1	vergnügt	880	1	!	1232	1	!	-1	0	0	0	0	0	0
2024-06-06	10:25:10	10:33:12	479899	6.6.1	4_exp_EVA_AWA_CON	71	A	B	Rpleas_acq	Same	Rpleas	2pleas	acq_US_unple_nomask	acq45_nomask	4	22	400	1	300	300	0	0	416	46	1	0	vergnügt	kuss	gütig	anregung	genießen	sonnig	verbissen	krise	gierig	ausrottung	gemein	sterben	kreativ	träumen	besonnen	vertrauen	gesittet	engagiert	krank	töten	bange	versagen	geizig	engstirnig	1	blank2r.bmp	0	1	+	0	1	blank2r.bmp	500	1	CPLW	500	1	blank2r.bmp	880	3	gierig	880	1	!	1232	1	!	1317	0	0	0	0	0	0
2024-06-06	10:25:10	10:33:14	482201	6.6.1	4_exp_EVA_AWA_CON	71	A	B	Rpleas_acq	Same	Rpleas	2pleas	acq_US_pleas_nomask	acq45_nomask	4	23	400	0	300	300	0	0	529	50	1	0	vergnügt	kuss	gütig	anregung	genießen	sonnig	verbissen	krise	gierig	ausrottung	gemein	sterben	kreativ	träumen	besonnen	vertrauen	gesittet	engagiert	krank	töten	bange	versagen	geizig	engstirnig	1	blank2r.bmp	0	1	+	0	1	blank2r.bmp	500	1	DHJF	500	1	blank2r.bmp	880	4	anregung	880	1	!	1233	1	!	-1	0	0	0	0	0	0
2024-06-06	10:25:10	10:33:17	484443	6.6.1	4_exp_EVA_AWA_CON	71	A	B	Rpleas_acq	Same	Rpleas	2pleas	acq_US_unple_nomask	acq45_nomask	4	24	400	1	300	300	0	0	467	46	1	0	vergnügt	kuss	gütig	anregung	genießen	sonnig	verbissen	krise	gierig	ausrottung	gemein	sterben	kreativ	träumen	besonnen	vertrauen	gesittet	engagiert	krank	töten	bange	versagen	geizig	engstirnig	1	blank2r.bmp	0	1	+	0	1	blank2r.bmp	500	1	CPLW	500	1	blank2r.bmp	880	5	gemein	880	1	!	1232	1	!	1369	0	0	0	0	0	0
2024-06-06	10:25:10	10:33:19	486595	6.6.1	4_exp_EVA_AWA_CON	71	A	B	Rpleas_acq	Same	Rpleas	2pleas	acq_US_pleas_nomask	acq45_nomask	4	25	400	1	300	300	0	0	378	50	1	0	vergnügt	kuss	gütig	anregung	genießen	sonnig	verbissen	krise	gierig	ausrottung	gemein	sterben	kreativ	träumen	besonnen	vertrauen	gesittet	engagiert	krank	töten	bange	versagen	geizig	engstirnig	1	blank2r.bmp	0	1	+	0	1	blank2r.bmp	500	1	DHJF	500	1	blank2r.bmp	880	6	sonnig	880	1	!	1233	1	!	1279	0	0	0	0	0	0
2024-06-06	10:25:10	10:33:21	488795	6.6.1	4_exp_EVA_AWA_CON	71	A	B	Rpleas_acq	Same	Rpleas	2pleas	acq_US_pleas_nomask	acq45_nomask	4	26	400	1	300	300	0	0	417	46	0	0	vergnügt	kuss	gütig	anregung	genießen	sonnig	verbissen	krise	gierig	ausrottung	gemein	sterben	kreativ	träumen	besonnen	vertrauen	gesittet	engagiert	krank	töten	bange	versagen	geizig	engstirnig	1	blank2r.bmp	0	1	+	0	1	blank2r.bmp	500	1	DHJF	500	1	blank2r.bmp	880	3	gütig	880	1	!	1232	1	!	1318	0	0	0	0	0	0
2024-06-06	10:25:10	10:33:23	490980	6.6.1	4_exp_EVA_AWA_CON	71	A	B	Rpleas_acq	Same	Rpleas	2pleas	acq_US_unple_nomask	acq45_nomask	4	27	400	1	300	300	0	0	409	46	1	0	vergnügt	kuss	gütig	anregung	genießen	sonnig	verbissen	krise	gierig	ausrottung	gemein	sterben	kreativ	träumen	besonnen	vertrauen	gesittet	engagiert	krank	töten	bange	versagen	geizig	engstirnig	1	blank2r.bmp	0	1	+	0	1	blank2r.bmp	500	1	CPLW	500	1	blank2r.bmp	880	1	verbissen	880	1	!	1233	1	!	1311	0	0	0	0	0	0
2024-06-06	10:25:10	10:33:25	493090	6.6.1	4_exp_EVA_AWA_CON	71	A	B	Rpleas_acq	Same	Rpleas	2pleas	acq_US_unple_nomask	acq45_nomask	4	28	400	0	300	300	0	0	330	46	1	0	vergnügt	kuss	gütig	anregung	genießen	sonnig	verbissen	krise	gierig	ausrottung	gemein	sterben	kreativ	träumen	besonnen	vertrauen	gesittet	engagiert	krank	töten	bange	versagen	geizig	engstirnig	1	blank2r.bmp	0	1	+	0	1	blank2r.bmp	500	1	CPLW	500	1	blank2r.bmp	880	3	gierig	880	1	!	-1	1	!	-1	0	0	0	0	0	0
2024-06-06	10:25:10	10:33:27	495351	6.6.1	4_exp_EVA_AWA_CON	71	A	B	Rpleas_acq	Same	Rpleas	2pleas	acq_US_pleas_nomask	acq45_nomask	4	29	400	0	300	300	0	0	482	50	1	0	vergnügt	kuss	gütig	anregung	genießen	sonnig	verbissen	krise	gierig	ausrottung	gemein	sterben	kreativ	träumen	besonnen	vertrauen	gesittet	engagiert	krank	töten	bange	versagen	geizig	engstirnig	1	blank2r.bmp	0	1	+	0	1	blank2r.bmp	500	1	DHJF	500	1	blank2r.bmp	880	1	vergnügt	880	1	!	1232	1	!	-1	0	0	0	0	0	0
2024-06-06	10:25:10	10:33:30	497625	6.6.1	4_exp_EVA_AWA_CON	71	A	B	Rpleas_acq	Same	Rpleas	2pleas	acq_US_unple_nomask	acq45_nomask	4	30	400	0	300	300	0	0	493	50	0	0	vergnügt	kuss	gütig	anregung	genießen	sonnig	verbissen	krise	gierig	ausrottung	gemein	sterben	kreativ	träumen	besonnen	vertrauen	gesittet	engagiert	krank	töten	bange	versagen	geizig	engstirnig	1	blank2r.bmp	0	1	+	0	1	blank2r.bmp	500	1	CPLW	500	1	blank2r.bmp	880	4	ausrottung	880	1	!	1232	1	!	-1	0	0	0	0	0	0
2024-06-06	10:25:10	10:33:32	499763	6.6.1	4_exp_EVA_AWA_CON	71	A	B	Rpleas_acq	Same	Rpleas	2pleas	acq_US_pleas_nomask	acq45_nomask	4	31	400	1	300	300	0	0	358	50	1	0	vergnügt	kuss	gütig	anregung	genießen	sonnig	verbissen	krise	gierig	ausrottung	gemein	sterben	kreativ	träumen	besonnen	vertrauen	gesittet	engagiert	krank	töten	bange	versagen	geizig	engstirnig	1	blank2r.bmp	0	1	+	0	1	blank2r.bmp	500	1	DHJF	500	1	blank2r.bmp	880	2	kuss	880	1	!	1232	1	!	1259	0	0	0	0	0	0
2024-06-06	10:25:10	10:33:34	501963	6.6.1	4_exp_EVA_AWA_CON	71	A	B	Rpleas_acq	Same	Rpleas	2pleas	acq_US_unple_nomask	acq45_nomask	4	32	400	1	300	300	0	0	416	46	1	0	vergnügt	kuss	gütig	anregung	genießen	sonnig	verbissen	krise	gierig	ausrottung	gemein	sterben	kreativ	träumen	besonnen	vertrauen	gesittet	engagiert	krank	töten	bange	versagen	geizig	engstirnig	1	blank2r.bmp	0	1	+	0	1	blank2r.bmp	500	1	CPLW	500	1	blank2r.bmp	880	6	sterben	880	1	!	1232	1	!	1317	0	0	0	0	0	0
2024-06-06	10:25:10	10:33:36	504225	6.6.1	4_exp_EVA_AWA_CON	71	A	B	Rpleas_acq	Same	Rpleas	2pleas	acq_US_unple_nomask	acq45_nomask	4	33	400	0	300	300	0	0	489	50	0	0	vergnügt	kuss	gütig	anregung	genießen	sonnig	verbissen	krise	gierig	ausrottung	gemein	sterben	kreativ	träumen	besonnen	vertrauen	gesittet	engagiert	krank	töten	bange	versagen	geizig	engstirnig	1	blank2r.bmp	0	1	+	0	1	blank2r.bmp	500	1	CPLW	500	1	blank2r.bmp	880	5	gemein	880	1	!	1232	1	!	-1	0	0	0	0	0	0
2024-06-06	10:25:10	10:33:38	506411	6.6.1	4_exp_EVA_AWA_CON	71	A	B	Rpleas_acq	Same	Rpleas	2pleas	acq_US_unple_nomask	acq45_nomask	4	34	400	1	300	300	0	0	411	46	1	0	vergnügt	kuss	gütig	anregung	genießen	sonnig	verbissen	krise	gierig	ausrottung	gemein	sterben	kreativ	träumen	besonnen	vertrauen	gesittet	engagiert	krank	töten	bange	versagen	geizig	engstirnig	1	blank2r.bmp	0	1	+	0	1	blank2r.bmp	500	1	CPLW	500	1	blank2r.bmp	880	1	verbissen	880	1	!	1232	1	!	1313	0	0	0	0	0	0
2024-06-06	10:25:10	10:33:41	508635	6.6.1	4_exp_EVA_AWA_CON	71	A	B	Rpleas_acq	Same	Rpleas	2pleas	acq_US_unple_nomask	acq45_nomask	4	35	400	1	300	300	0	0	444	46	1	0	vergnügt	kuss	gütig	anregung	genießen	sonnig	verbissen	krise	gierig	ausrottung	gemein	sterben	kreativ	träumen	besonnen	vertrauen	gesittet	engagiert	krank	töten	bange	versagen	geizig	engstirnig	1	blank2r.bmp	0	1	+	0	1	blank2r.bmp	500	1	CPLW	500	1	blank2r.bmp	880	2	krise	880	1	!	1232	1	!	1345	0	0	0	0	0	0
2024-06-06	10:25:10	10:33:43	510827	6.6.1	4_exp_EVA_AWA_CON	71	A	B	Rpleas_acq	Same	Rpleas	2pleas	acq_US_pleas_nomask	acq45_nomask	4	36	400	1	300	300	0	0	414	46	0	0	vergnügt	kuss	gütig	anregung	genießen	sonnig	verbissen	krise	gierig	ausrottung	gemein	sterben	kreativ	träumen	besonnen	vertrauen	gesittet	engagiert	krank	töten	bange	versagen	geizig	engstirnig	1	blank2r.bmp	0	1	+	0	1	blank2r.bmp	500	1	DHJF	500	1	blank2r.bmp	880	5	genießen	880	1	!	1232	1	!	1316	0	0	0	0	0	0
2024-06-06	10:25:10	10:33:49	516706	6.6.1	4_exp_EVA_AWA_CON	71	A	B	Rpleas_acq	Same	Rpleas	2pleas	acq_US_unple_nomask	acq45_nomask	5	1	400	0	300	300	0	0	691	46	1	0	vergnügt	kuss	gütig	anregung	genießen	sonnig	verbissen	krise	gierig	ausrottung	gemein	sterben	kreativ	träumen	besonnen	vertrauen	gesittet	engagiert	krank	töten	bange	versagen	geizig	engstirnig	1	blank2r.bmp	0	1	+	0	1	blank2r.bmp	500	1	CPLW	500	1	blank2r.bmp	880	4	ausrottung	880	1	!	1232	1	!	-1	0	0	0	0	0	0
2024-06-06	10:25:10	10:33:51	518985	6.6.1	4_exp_EVA_AWA_CON	71	A	B	Rpleas_acq	Same	Rpleas	2pleas	acq_US_unple_nomask	acq45_nomask	5	2	400	0	300	300	0	0	499	46	1	0	vergnügt	kuss	gütig	anregung	genießen	sonnig	verbissen	krise	gierig	ausrottung	gemein	sterben	kreativ	träumen	besonnen	vertrauen	gesittet	engagiert	krank	töten	bange	versagen	geizig	engstirnig	1	blank2r.bmp	0	1	+	0	1	blank2r.bmp	500	1	CPLW	500	1	blank2r.bmp	880	6	sterben	880	1	!	1233	1	!	-1	0	0	0	0	0	0
2024-06-06	10:25:10	10:33:53	521305	6.6.1	4_exp_EVA_AWA_CON	71	A	B	Rpleas_acq	Same	Rpleas	2pleas	acq_US_unple_nomask	acq45_nomask	5	3	400	0	300	300	0	0	548	46	1	0	vergnügt	kuss	gütig	anregung	genießen	sonnig	verbissen	krise	gierig	ausrottung	gemein	sterben	kreativ	träumen	besonnen	vertrauen	gesittet	engagiert	krank	töten	bange	versagen	geizig	engstirnig	1	blank2r.bmp	0	1	+	0	1	blank2r.bmp	500	1	CPLW	500	1	blank2r.bmp	880	5	gemein	880	1	!	1233	1	!	-1	0	0	0	0	0	0
2024-06-06	10:25:10	10:33:55	523401	6.6.1	4_exp_EVA_AWA_CON	71	A	B	Rpleas_acq	Same	Rpleas	2pleas	acq_US_pleas_nomask	acq45_nomask	5	4	400	0	300	300	0	0	322	46	0	0	vergnügt	kuss	gütig	anregung	genießen	sonnig	verbissen	krise	gierig	ausrottung	gemein	sterben	kreativ	träumen	besonnen	vertrauen	gesittet	engagiert	krank	töten	bange	versagen	geizig	engstirnig	1	blank2r.bmp	0	1	+	0	1	blank2r.bmp	500	1	DHJF	500	1	blank2r.bmp	880	4	anregung	880	1	!	-1	1	!	-1	0	0	0	0	0	0
2024-06-06	10:25:10	10:33:58	525563	6.6.1	4_exp_EVA_AWA_CON	71	A	B	Rpleas_acq	Same	Rpleas	2pleas	acq_US_unple_nomask	acq45_nomask	5	5	400	1	300	300	0	0	381	46	1	0	vergnügt	kuss	gütig	anregung	genießen	sonnig	verbissen	krise	gierig	ausrottung	gemein	sterben	kreativ	träumen	besonnen	vertrauen	gesittet	engagiert	krank	töten	bange	versagen	geizig	engstirnig	1	blank2r.bmp	0	1	+	0	1	blank2r.bmp	500	1	CPLW	500	1	blank2r.bmp	880	1	verbissen	880	1	!	1233	1	!	1282	0	0	0	0	0	0
2024-06-06	10:25:10	10:34:00	527985	6.6.1	4_exp_EVA_AWA_CON	71	A	B	Rpleas_acq	Same	Rpleas	2pleas	acq_US_pleas_nomask	acq45_nomask	5	6	400	0	300	300	0	0	644	50	1	0	vergnügt	kuss	gütig	anregung	genießen	sonnig	verbissen	krise	gierig	ausrottung	gemein	sterben	kreativ	träumen	besonnen	vertrauen	gesittet	engagiert	krank	töten	bange	versagen	geizig	engstirnig	1	blank2r.bmp	0	1	+	0	1	blank2r.bmp	500	1	DHJF	500	1	blank2r.bmp	880	5	genießen	880	1	!	1232	1	!	-1	0	0	0	0	0	0
2024-06-06	10:25:10	10:34:02	530297	6.6.1	4_exp_EVA_AWA_CON	71	A	B	Rpleas_acq	Same	Rpleas	2pleas	acq_US_pleas_nomask	acq45_nomask	5	7	400	0	300	300	0	0	534	50	1	0	vergnügt	kuss	gütig	anregung	genießen	sonnig	verbissen	krise	gierig	ausrottung	gemein	sterben	kreativ	träumen	besonnen	vertrauen	gesittet	engagiert	krank	töten	bange	versagen	geizig	engstirnig	1	blank2r.bmp	0	1	+	0	1	blank2r.bmp	500	1	DHJF	500	1	blank2r.bmp	880	1	vergnügt	880	1	!	1232	1	!	-1	0	0	0	0	0	0
2024-06-06	10:25:10	10:34:05	532561	6.6.1	4_exp_EVA_AWA_CON	71	A	B	Rpleas_acq	Same	Rpleas	2pleas	acq_US_pleas_nomask	acq45_nomask	5	8	400	0	300	300	0	0	487	50	1	0	vergnügt	kuss	gütig	anregung	genießen	sonnig	verbissen	krise	gierig	ausrottung	gemein	sterben	kreativ	träumen	besonnen	vertrauen	gesittet	engagiert	krank	töten	bange	versagen	geizig	engstirnig	1	blank2r.bmp	0	1	+	0	1	blank2r.bmp	500	1	DHJF	500	1	blank2r.bmp	880	6	sonnig	880	1	!	1232	1	!	-1	0	0	0	0	0	0
2024-06-06	10:25:10	10:34:07	534731	6.6.1	4_exp_EVA_AWA_CON	71	A	B	Rpleas_acq	Same	Rpleas	2pleas	acq_US_pleas_nomask	acq45_nomask	5	9	400	1	300	300	0	0	393	50	1	0	vergnügt	kuss	gütig	anregung	genießen	sonnig	verbissen	krise	gierig	ausrottung	gemein	sterben	kreativ	träumen	besonnen	vertrauen	gesittet	engagiert	krank	töten	bange	versagen	geizig	engstirnig	1	blank2r.bmp	0	1	+	0	1	blank2r.bmp	500	1	DHJF	500	1	blank2r.bmp	880	2	kuss	880	1	!	1232	1	!	1294	0	0	0	0	0	0
2024-06-06	10:25:10	10:34:09	537289	6.6.1	4_exp_EVA_AWA_CON	71	A	B	Rpleas_acq	Same	Rpleas	2pleas	acq_US_unple_nomask	acq45_nomask	5	10	400	0	300	300	0	0	782	46	1	0	vergnügt	kuss	gütig	anregung	genießen	sonnig	verbissen	krise	gierig	ausrottung	gemein	sterben	kreativ	träumen	besonnen	vertrauen	gesittet	engagiert	krank	töten	bange	versagen	geizig	engstirnig	1	blank2r.bmp	0	1	+	0	1	blank2r.bmp	500	1	CPLW	500	1	blank2r.bmp	880	3	gierig	880	1	!	1232	1	!	-1	0	0	0	0	0	0
2024-06-06	10:25:10	10:34:12	540265	6.6.1	4_exp_EVA_AWA_CON	71	A	B	Rpleas_acq	Same	Rpleas	2pleas	acq_US_unple_nomask	acq45_nomask	5	11	400	0	300	300	0	0	1196	46	1	0	vergnügt	kuss	gütig	anregung	genießen	sonnig	verbissen	krise	gierig	ausrottung	gemein	sterben	kreativ	träumen	besonnen	vertrauen	gesittet	engagiert	krank	töten	bange	versagen	geizig	engstirnig	1	blank2r.bmp	0	1	+	0	1	blank2r.bmp	500	1	CPLW	500	1	blank2r.bmp	880	2	krise	880	1	!	1233	1	!	-1	0	0	0	0	0	0
2024-06-06	10:25:10	10:34:15	542642	6.6.1	4_exp_EVA_AWA_CON	71	A	B	Rpleas_acq	Same	Rpleas	2pleas	acq_US_unple_nomask	acq45_nomask	5	12	400	0	300	300	0	0	600	46	1	0	vergnügt	kuss	gütig	anregung	genießen	sonnig	verbissen	krise	gierig	ausrottung	gemein	sterben	kreativ	träumen	besonnen	vertrauen	gesittet	engagiert	krank	töten	bange	versagen	geizig	engstirnig	1	blank2r.bmp	0	1	+	0	1	blank2r.bmp	500	1	CPLW	500	1	blank2r.bmp	880	2	krise	880	1	!	1232	1	!	-1	0	0	0	0	0	0
2024-06-06	10:25:10	10:34:17	545081	6.6.1	4_exp_EVA_AWA_CON	71	A	B	Rpleas_acq	Same	Rpleas	2pleas	acq_US_unple_nomask	acq45_nomask	5	13	400	0	300	300	0	0	659	46	1	0	vergnügt	kuss	gütig	anregung	genießen	sonnig	verbissen	krise	gierig	ausrottung	gemein	sterben	kreativ	träumen	besonnen	vertrauen	gesittet	engagiert	krank	töten	bange	versagen	geizig	engstirnig	1	blank2r.bmp	0	1	+	0	1	blank2r.bmp	500	1	CPLW	500	1	blank2r.bmp	880	4	ausrottung	880	1	!	1232	1	!	-1	0	0	0	0	0	0
2024-06-06	10:25:10	10:34:20	547873	6.6.1	4_exp_EVA_AWA_CON	71	A	B	Rpleas_acq	Same	Rpleas	2pleas	acq_US_pleas_nomask	acq45_nomask	5	14	400	0	300	300	0	0	1019	50	1	0	vergnügt	kuss	gütig	anregung	genießen	sonnig	verbissen	krise	gierig	ausrottung	gemein	sterben	kreativ	träumen	besonnen	vertrauen	gesittet	engagiert	krank	töten	bange	versagen	geizig	engstirnig	1	blank2r.bmp	0	1	+	0	1	blank2r.bmp	500	1	DHJF	500	1	blank2r.bmp	880	3	gütig	880	1	!	1232	1	!	-1	0	0	0	0	0	0
2024-06-06	10:25:10	10:34:23	550425	6.6.1	4_exp_EVA_AWA_CON	71	A	B	Rpleas_acq	Same	Rpleas	2pleas	acq_US_pleas_nomask	acq45_nomask	5	15	400	0	300	300	0	0	779	50	1	0	vergnügt	kuss	gütig	anregung	genießen	sonnig	verbissen	krise	gierig	ausrottung	gemein	sterben	kreativ	träumen	besonnen	vertrauen	gesittet	engagiert	krank	töten	bange	versagen	geizig	engstirnig	1	blank2r.bmp	0	1	+	0	1	blank2r.bmp	500	1	DHJF	500	1	blank2r.bmp	880	3	gütig	880	1	!	1232	1	!	-1	0	0	0	0	0	0
2024-06-06	10:25:10	10:34:25	552769	6.6.1	4_exp_EVA_AWA_CON	71	A	B	Rpleas_acq	Same	Rpleas	2pleas	acq_US_pleas_nomask	acq45_nomask	5	16	400	0	300	300	0	0	572	50	1	0	vergnügt	kuss	gütig	anregung	genießen	sonnig	verbissen	krise	gierig	ausrottung	gemein	sterben	kreativ	träumen	besonnen	vertrauen	gesittet	engagiert	krank	töten	bange	versagen	geizig	engstirnig	1	blank2r.bmp	0	1	+	0	1	blank2r.bmp	500	1	DHJF	500	1	blank2r.bmp	880	2	kuss	880	1	!	1232	1	!	-1	0	0	0	0	0	0
2024-06-06	10:25:10	10:34:27	555377	6.6.1	4_exp_EVA_AWA_CON	71	A	B	Rpleas_acq	Same	Rpleas	2pleas	acq_US_unple_nomask	acq45_nomask	5	17	400	0	300	300	0	0	828	46	1	0	vergnügt	kuss	gütig	anregung	genießen	sonnig	verbissen	krise	gierig	ausrottung	gemein	sterben	kreativ	träumen	besonnen	vertrauen	gesittet	engagiert	krank	töten	bange	versagen	geizig	engstirnig	1	blank2r.bmp	0	1	+	0	1	blank2r.bmp	500	1	CPLW	500	1	blank2r.bmp	880	3	gierig	880	1	!	1232	1	!	-1	0	0	0	0	0	0
2024-06-06	10:25:10	10:34:30	558273	6.6.1	4_exp_EVA_AWA_CON	71	A	B	Rpleas_acq	Same	Rpleas	2pleas	acq_US_pleas_nomask	acq45_nomask	5	18	400	0	300	300	0	0	1122	50	1	0	vergnügt	kuss	gütig	anregung	genießen	sonnig	verbissen	krise	gierig	ausrottung	gemein	sterben	kreativ	träumen	besonnen	vertrauen	gesittet	engagiert	krank	töten	bange	versagen	geizig	engstirnig	1	blank2r.bmp	0	1	+	0	1	blank2r.bmp	500	1	DHJF	500	1	blank2r.bmp	880	4	anregung	880	1	!	1232	1	!	-1	0	0	0	0	0	0
2024-06-06	10:25:10	10:34:33	560681	6.6.1	4_exp_EVA_AWA_CON	71	A	B	Rpleas_acq	Same	Rpleas	2pleas	acq_US_unple_nomask	acq45_nomask	5	19	400	0	300	300	0	0	629	46	1	0	vergnügt	kuss	gütig	anregung	genießen	sonnig	verbissen	krise	gierig	ausrottung	gemein	sterben	kreativ	träumen	besonnen	vertrauen	gesittet	engagiert	krank	töten	bange	versagen	geizig	engstirnig	1	blank2r.bmp	0	1	+	0	1	blank2r.bmp	500	1	CPLW	500	1	blank2r.bmp	880	6	sterben	880	1	!	1232	1	!	-1	0	0	0	0	0	0
2024-06-06	10:25:10	10:34:35	562961	6.6.1	4_exp_EVA_AWA_CON	71	A	B	Rpleas_acq	Same	Rpleas	2pleas	acq_US_unple_nomask	acq45_nomask	5	20	400	0	300	300	0	0	507	46	1	0	vergnügt	kuss	gütig	anregung	genießen	sonnig	verbissen	krise	gierig	ausrottung	gemein	sterben	kreativ	träumen	besonnen	vertrauen	gesittet	engagiert	krank	töten	bange	versagen	geizig	engstirnig	1	blank2r.bmp	0	1	+	0	1	blank2r.bmp	500	1	CPLW	500	1	blank2r.bmp	880	5	gemein	880	1	!	1232	1	!	-1	0	0	0	0	0	0
2024-06-06	10:25:10	10:34:37	565265	6.6.1	4_exp_EVA_AWA_CON	71	A	B	Rpleas_acq	Same	Rpleas	2pleas	acq_US_unple_nomask	acq45_nomask	5	21	400	0	300	300	0	0	530	46	1	0	vergnügt	kuss	gütig	anregung	genießen	sonnig	verbissen	krise	gierig	ausrottung	gemein	sterben	kreativ	träumen	besonnen	vertrauen	gesittet	engagiert	krank	töten	bange	versagen	geizig	engstirnig	1	blank2r.bmp	0	1	+	0	1	blank2r.bmp	500	1	CPLW	500	1	blank2r.bmp	880	1	verbissen	880	1	!	1233	1	!	-1	0	0	0	0	0	0
2024-06-06	10:25:10	10:34:40	567681	6.6.1	4_exp_EVA_AWA_CON	71	A	B	Rpleas_acq	Same	Rpleas	2pleas	acq_US_unple_nomask	acq45_nomask	5	22	400	0	300	300	0	0	634	46	1	0	vergnügt	kuss	gütig	anregung	genießen	sonnig	verbissen	krise	gierig	ausrottung	gemein	sterben	kreativ	träumen	besonnen	vertrauen	gesittet	engagiert	krank	töten	bange	versagen	geizig	engstirnig	1	blank2r.bmp	0	1	+	0	1	blank2r.bmp	500	1	CPLW	500	1	blank2r.bmp	880	1	verbissen	880	1	!	1232	1	!	-1	0	0	0	0	0	0
2024-06-06	10:25:10	10:34:43	571193	6.6.1	4_exp_EVA_AWA_CON	71	A	B	Rpleas_acq	Same	Rpleas	2pleas	acq_US_unple_nomask	acq45_nomask	5	23	400	0	300	300	0	0	1735	46	1	0	vergnügt	kuss	gütig	anregung	genießen	sonnig	verbissen	krise	gierig	ausrottung	gemein	sterben	kreativ	träumen	besonnen	vertrauen	gesittet	engagiert	krank	töten	bange	versagen	geizig	engstirnig	1	blank2r.bmp	0	1	+	0	1	blank2r.bmp	500	1	CPLW	500	1	blank2r.bmp	880	3	gierig	880	1	!	1232	1	!	-1	0	0	0	0	0	0
2024-06-06	10:25:10	10:34:46	573673	6.6.1	4_exp_EVA_AWA_CON	71	A	B	Rpleas_acq	Same	Rpleas	2pleas	acq_US_pleas_nomask	acq45_nomask	5	24	400	0	300	300	0	0	702	50	1	0	vergnügt	kuss	gütig	anregung	genießen	sonnig	verbissen	krise	gierig	ausrottung	gemein	sterben	kreativ	träumen	besonnen	vertrauen	gesittet	engagiert	krank	töten	bange	versagen	geizig	engstirnig	1	blank2r.bmp	0	1	+	0	1	blank2r.bmp	500	1	DHJF	500	1	blank2r.bmp	880	1	vergnügt	880	1	!	1232	1	!	-1	0	0	0	0	0	0
2024-06-06	10:25:10	10:34:49	576937	6.6.1	4_exp_EVA_AWA_CON	71	A	B	Rpleas_acq	Same	Rpleas	2pleas	acq_US_pleas_nomask	acq45_nomask	5	25	400	0	300	300	0	0	1485	50	1	0	vergnügt	kuss	gütig	anregung	genießen	sonnig	verbissen	krise	gierig	ausrottung	gemein	sterben	kreativ	träumen	besonnen	vertrauen	gesittet	engagiert	krank	töten	bange	versagen	geizig	engstirnig	1	blank2r.bmp	0	1	+	0	1	blank2r.bmp	500	1	DHJF	500	1	blank2r.bmp	880	5	genießen	880	1	!	1232	1	!	-1	0	0	0	0	0	0
2024-06-06	10:25:10	10:34:52	579761	6.6.1	4_exp_EVA_AWA_CON	71	A	B	Rpleas_acq	Same	Rpleas	2pleas	acq_US_unple_nomask	acq45_nomask	5	26	400	0	300	300	0	0	1047	46	1	0	vergnügt	kuss	gütig	anregung	genießen	sonnig	verbissen	krise	gierig	ausrottung	gemein	sterben	kreativ	träumen	besonnen	vertrauen	gesittet	engagiert	krank	töten	bange	versagen	geizig	engstirnig	1	blank2r.bmp	0	1	+	0	1	blank2r.bmp	500	1	CPLW	500	1	blank2r.bmp	880	2	krise	880	1	!	1232	1	!	-1	0	0	0	0	0	0
2024-06-06	10:25:10	10:34:55	582665	6.6.1	4_exp_EVA_AWA_CON	71	A	B	Rpleas_acq	Same	Rpleas	2pleas	acq_US_pleas_nomask	acq45_nomask	5	27	400	0	300	300	0	0	1128	50	1	0	vergnügt	kuss	gütig	anregung	genießen	sonnig	verbissen	krise	gierig	ausrottung	gemein	sterben	kreativ	träumen	besonnen	vertrauen	gesittet	engagiert	krank	töten	bange	versagen	geizig	engstirnig	1	blank2r.bmp	0	1	+	0	1	blank2r.bmp	500	1	DHJF	500	1	blank2r.bmp	880	6	sonnig	880	1	!	1232	1	!	-1	0	0	0	0	0	0
2024-06-06	10:25:10	10:34:57	585105	6.6.1	4_exp_EVA_AWA_CON	71	A	B	Rpleas_acq	Same	Rpleas	2pleas	acq_US_unple_nomask	acq45_nomask	5	28	400	0	300	300	0	0	667	46	1	0	vergnügt	kuss	gütig	anregung	genießen	sonnig	verbissen	krise	gierig	ausrottung	gemein	sterben	kreativ	träumen	besonnen	vertrauen	gesittet	engagiert	krank	töten	bange	versagen	geizig	engstirnig	1	blank2r.bmp	0	1	+	0	1	blank2r.bmp	500	1	CPLW	500	1	blank2r.bmp	880	6	sterben	880	1	!	1232	1	!	-1	0	0	0	0	0	0
2024-06-06	10:25:10	10:35:00	587769	6.6.1	4_exp_EVA_AWA_CON	71	A	B	Rpleas_acq	Same	Rpleas	2pleas	acq_US_pleas_nomask	acq45_nomask	5	29	400	0	300	300	0	0	889	46	0	0	vergnügt	kuss	gütig	anregung	genießen	sonnig	verbissen	krise	gierig	ausrottung	gemein	sterben	kreativ	träumen	besonnen	vertrauen	gesittet	engagiert	krank	töten	bange	versagen	geizig	engstirnig	1	blank2r.bmp	0	1	+	0	1	blank2r.bmp	500	1	DHJF	500	1	blank2r.bmp	880	4	anregung	880	1	!	1232	1	!	-1	0	0	0	0	0	0
2024-06-06	10:25:10	10:35:03	590433	6.6.1	4_exp_EVA_AWA_CON	71	A	B	Rpleas_acq	Same	Rpleas	2pleas	acq_US_unple_nomask	acq45_nomask	5	30	400	0	300	300	0	0	892	46	1	0	vergnügt	kuss	gütig	anregung	genießen	sonnig	verbissen	krise	gierig	ausrottung	gemein	sterben	kreativ	träumen	besonnen	vertrauen	gesittet	engagiert	krank	töten	bange	versagen	geizig	engstirnig	1	blank2r.bmp	0	1	+	0	1	blank2r.bmp	500	1	CPLW	500	1	blank2r.bmp	880	5	gemein	880	1	!	1232	1	!	-1	0	0	0	0	0	0
2024-06-06	10:25:10	10:35:05	592889	6.6.1	4_exp_EVA_AWA_CON	71	A	B	Rpleas_acq	Same	Rpleas	2pleas	acq_US_pleas_nomask	acq45_nomask	5	31	400	0	300	300	0	0	676	50	1	0	vergnügt	kuss	gütig	anregung	genießen	sonnig	verbissen	krise	gierig	ausrottung	gemein	sterben	kreativ	träumen	besonnen	vertrauen	gesittet	engagiert	krank	töten	bange	versagen	geizig	engstirnig	1	blank2r.bmp	0	1	+	0	1	blank2r.bmp	500	1	DHJF	500	1	blank2r.bmp	880	2	kuss	880	1	!	1232	1	!	-1	0	0	0	0	0	0
2024-06-06	10:25:10	10:35:08	596346	6.6.1	4_exp_EVA_AWA_CON	71	A	B	Rpleas_acq	Same	Rpleas	2pleas	acq_US_pleas_nomask	acq45_nomask	5	32	400	0	300	300	0	0	1680	50	1	0	vergnügt	kuss	gütig	anregung	genießen	sonnig	verbissen	krise	gierig	ausrottung	gemein	sterben	kreativ	träumen	besonnen	vertrauen	gesittet	engagiert	krank	töten	bange	versagen	geizig	engstirnig	1	blank2r.bmp	0	1	+	0	1	blank2r.bmp	500	1	DHJF	500	1	blank2r.bmp	880	1	vergnügt	880	1	!	1232	1	!	-1	0	0	0	0	0	0
2024-06-06	10:25:10	10:35:12	600113	6.6.1	4_exp_EVA_AWA_CON	71	A	B	Rpleas_acq	Same	Rpleas	2pleas	acq_US_pleas_nomask	acq45_nomask	5	33	400	0	300	300	0	0	1986	50	1	0	vergnügt	kuss	gütig	anregung	genießen	sonnig	verbissen	krise	gierig	ausrottung	gemein	sterben	kreativ	träumen	besonnen	vertrauen	gesittet	engagiert	krank	töten	bange	versagen	geizig	engstirnig	1	blank2r.bmp	0	1	+	0	1	blank2r.bmp	500	1	DHJF	500	1	blank2r.bmp	880	5	genießen	880	1	!	1232	1	!	-1	0	0	0	0	0	0
2024-06-06	10:25:10	10:35:15	602905	6.6.1	4_exp_EVA_AWA_CON	71	A	B	Rpleas_acq	Same	Rpleas	2pleas	acq_US_pleas_nomask	acq45_nomask	5	34	400	0	300	300	0	0	1016	50	1	0	vergnügt	kuss	gütig	anregung	genießen	sonnig	verbissen	krise	gierig	ausrottung	gemein	sterben	kreativ	träumen	besonnen	vertrauen	gesittet	engagiert	krank	töten	bange	versagen	geizig	engstirnig	1	blank2r.bmp	0	1	+	0	1	blank2r.bmp	500	1	DHJF	500	1	blank2r.bmp	880	6	sonnig	880	1	!	1232	1	!	-1	0	0	0	0	0	0
2024-06-06	10:25:10	10:35:17	605242	6.6.1	4_exp_EVA_AWA_CON	71	A	B	Rpleas_acq	Same	Rpleas	2pleas	acq_US_unple_nomask	acq45_nomask	5	35	400	0	300	300	0	0	560	46	1	0	vergnügt	kuss	gütig	anregung	genießen	sonnig	verbissen	krise	gierig	ausrottung	gemein	sterben	kreativ	träumen	besonnen	vertrauen	gesittet	engagiert	krank	töten	bange	versagen	geizig	engstirnig	1	blank2r.bmp	0	1	+	0	1	blank2r.bmp	500	1	CPLW	500	1	blank2r.bmp	880	4	ausrottung	880	1	!	1233	1	!	-1	0	0	0	0	0	0
2024-06-06	10:25:10	10:35:20	607514	6.6.1	4_exp_EVA_AWA_CON	71	A	B	Rpleas_acq	Same	Rpleas	2pleas	acq_US_pleas_nomask	acq45_nomask	5	36	400	0	300	300	0	0	490	46	0	0	vergnügt	kuss	gütig	anregung	genießen	sonnig	verbissen	krise	gierig	ausrottung	gemein	sterben	kreativ	träumen	besonnen	vertrauen	gesittet	engagiert	krank	töten	bange	versagen	geizig	engstirnig	1	blank2r.bmp	0	1	+	0	1	blank2r.bmp	500	1	DHJF	500	1	blank2r.bmp	880	3	gütig	880	1	!	1232	1	!	-1	0	0	0	0	0	0
2024-06-06	10:25:10	10:36:06	653461	6.6.1	4_exp_EVA_AWA_CON	71	A	B	Rpleas_acq	Same	Rpleas	2pleas	EvalRating_firsttwo	EvalRating_firsttwo	6	1	0	0	300	300	0	0	37284	line	0	-69,4010416666666571928pct	vergnügt	kuss	gütig	anregung	genießen	sonnig	verbissen	krise	gierig	ausrottung	gemein	sterben	kreativ	träumen	besonnen	vertrauen	gesittet	engagiert	krank	töten	bange	versagen	geizig	engstirnig	1		-8	1	Wie angenehm oder unangenehm finden Sie die  Buchstabenkette WDLH?	-8	1		-8	1		-8	1		-8	1	Unangenehm	-8	1	Angenehm	-8	0	0	0	0	0	0	0	0	0
2024-06-06	10:25:10	10:36:10	658261	6.6.1	4_exp_EVA_AWA_CON	71	A	B	Rpleas_acq	Same	Rpleas	2pleas	EvalRating_lastfour	EvalRating_lastfour	7	1	0	0	300	300	0	0	2428	line	0	-78,125pct	vergnügt	kuss	gütig	anregung	genießen	sonnig	verbissen	krise	gierig	ausrottung	gemein	sterben	kreativ	träumen	besonnen	vertrauen	gesittet	engagiert	krank	töten	bange	versagen	geizig	engstirnig	1		-7	1	Wie angenehm oder unangenehm finden Sie die  Buchstabenkette CPLW?	-7	1		-7	1		-7	1		-7	1	Unangenehm	-7	1	Angenehm	-7	0	0	0	0	0	0	0	0	0
2024-06-06	10:25:10	10:36:13	660629	6.6.1	4_exp_EVA_AWA_CON	71	A	B	Rpleas_acq	Same	Rpleas	2pleas	blank_screen	EvalRating_lastfour	7	3	0	0	300	300	0	0	0	0	0	-78,125pct	vergnügt	kuss	gütig	anregung	genießen	sonnig	verbissen	krise	gierig	ausrottung	gemein	sterben	kreativ	träumen	besonnen	vertrauen	gesittet	engagiert	krank	töten	bange	versagen	geizig	engstirnig	1		-8	0	0	0	0	0	0	0	0	0	0	0	0	0	0	0	0	0	0	0	0	0	0	0	0	0	0	0
2024-06-06	10:25:10	10:36:16	663943	6.6.1	4_exp_EVA_AWA_CON	71	A	B	Rpleas_acq	Same	Rpleas	2pleas	EvalRating_lastfour	EvalRating_lastfour	7	4	0	0	300	300	0	0	2725	line	0	-64,453125pct	vergnügt	kuss	gütig	anregung	genießen	sonnig	verbissen	krise	gierig	ausrottung	gemein	sterben	kreativ	träumen	besonnen	vertrauen	gesittet	engagiert	krank	töten	bange	versagen	geizig	engstirnig	1		-8	2	Wie angenehm oder unangenehm finden Sie die  Buchstabenkette DHJF?	-8	1		-8	1		-8	1		-8	1	Unangenehm	-8	1	Angenehm	-8	0	0	0	0	0	0	0	0	0
2024-06-06	10:25:10	10:36:18	666312	6.6.1	4_exp_EVA_AWA_CON	71	A	B	Rpleas_acq	Same	Rpleas	2pleas	blank_screen	EvalRating_lastfour	7	6	0	0	300	300	0	0	0	0	0	-64,453125pct	vergnügt	kuss	gütig	anregung	genießen	sonnig	verbissen	krise	gierig	ausrottung	gemein	sterben	kreativ	träumen	besonnen	vertrauen	gesittet	engagiert	krank	töten	bange	versagen	geizig	engstirnig	1		-8	0	0	0	0	0	0	0	0	0	0	0	0	0	0	0	0	0	0	0	0	0	0	0	0	0	0	0
2024-06-06	10:25:10	10:36:22	670022	6.6.1	4_exp_EVA_AWA_CON	71	A	B	Rpleas_acq	Same	Rpleas	2pleas	EvalRating_lastfour	EvalRating_lastfour	7	7	0	0	300	300	0	0	3121	line	0	-72,5260416666666571928pct	vergnügt	kuss	gütig	anregung	genießen	sonnig	verbissen	krise	gierig	ausrottung	gemein	sterben	kreativ	träumen	besonnen	vertrauen	gesittet	engagiert	krank	töten	bange	versagen	geizig	engstirnig	1		-8	3	Wie angenehm oder unangenehm finden Sie die  Buchstabenkette FCJP?	-8	1		-8	1		-8	1		-8	1	Unangenehm	-8	1	Angenehm	-8	0	0	0	0	0	0	0	0	0
2024-06-06	10:25:10	10:36:52	700403	6.6.1	4_exp_EVA_AWA_CON	71	A	B	Rpleas_acq	Same	Rpleas	2pleas	conawa_CS1_US4	conawa1_nomask	8	1	0	0	300	300	0	0	14508	vertrauen	1	-72,5260416666666571928pct	vergnügt	kuss	gütig	anregung	genießen	sonnig	verbissen	krise	gierig	ausrottung	gemein	sterben	kreativ	träumen	besonnen	vertrauen	gesittet	engagiert	krank	töten	bange	versagen	geizig	engstirnig	0	0	0	0	0	0	0	0	0	0	0	0	0	0	0	0	0	0	0	0	0	0	0	0	0	0	0	0	0	0
2024-06-06	10:25:10	10:36:52	700404	6.6.1	4_exp_EVA_AWA_CON	71	A	B	Rpleas_acq	Same	Rpleas	2pleas	conawa_CS1_US4_confidence	conawa1_nomask	8	1	0	0	300	300	0	0	14508	probably	1	-72,5260416666666571928pct	vergnügt	kuss	gütig	anregung	genießen	sonnig	verbissen	krise	gierig	ausrottung	gemein	sterben	kreativ	träumen	besonnen	vertrauen	gesittet	engagiert	krank	töten	bange	versagen	geizig	engstirnig	0	0	0	0	0	0	0	0	0	0	0	0	0	0	0	0	0	0	0	0	0	0	0	0	0	0	0	0	0	0
2024-06-06	10:25:10	10:36:57	705226	6.6.1	4_exp_EVA_AWA_CON	71	A	B	Rpleas_acq	Same	Rpleas	2pleas	conawa_CS2_US3	conawa1_nomask	8	2	0	0	300	300	0	0	4182	gierig	1	-72,5260416666666571928pct	vergnügt	kuss	gütig	anregung	genießen	sonnig	verbissen	krise	gierig	ausrottung	gemein	sterben	kreativ	träumen	besonnen	vertrauen	gesittet	engagiert	krank	töten	bange	versagen	geizig	engstirnig	0	0	0	0	0	0	0	0	0	0	0	0	0	0	0	0	0	0	0	0	0	0	0	0	0	0	0	0	0	0
2024-06-06	10:25:10	10:36:57	705227	6.6.1	4_exp_EVA_AWA_CON	71	A	B	Rpleas_acq	Same	Rpleas	2pleas	conawa_CS2_US3_confidence	conawa1_nomask	8	2	0	0	300	300	0	0	4182	probably	1	-72,5260416666666571928pct	vergnügt	kuss	gütig	anregung	genießen	sonnig	verbissen	krise	gierig	ausrottung	gemein	sterben	kreativ	träumen	besonnen	vertrauen	gesittet	engagiert	krank	töten	bange	versagen	geizig	engstirnig	0	0	0	0	0	0	0	0	0	0	0	0	0	0	0	0	0	0	0	0	0	0	0	0	0	0	0	0	0	0
2024-06-06	10:25:10	10:37:02	709749	6.6.1	4_exp_EVA_AWA_CON	71	A	B	Rpleas_acq	Same	Rpleas	2pleas	conawa_CS2_US1	conawa1_nomask	8	3	0	0	300	300	0	0	3909	töten	1	-72,5260416666666571928pct	vergnügt	kuss	gütig	anregung	genießen	sonnig	verbissen	krise	gierig	ausrottung	gemein	sterben	kreativ	träumen	besonnen	vertrauen	gesittet	engagiert	krank	töten	bange	versagen	geizig	engstirnig	0	0	0	0	0	0	0	0	0	0	0	0	0	0	0	0	0	0	0	0	0	0	0	0	0	0	0	0	0	0
2024-06-06	10:25:10	10:37:02	709750	6.6.1	4_exp_EVA_AWA_CON	71	A	B	Rpleas_acq	Same	Rpleas	2pleas	conawa_CS2_US1_confidence	conawa1_nomask	8	3	0	0	300	300	0	0	3909	probably	1	-72,5260416666666571928pct	vergnügt	kuss	gütig	anregung	genießen	sonnig	verbissen	krise	gierig	ausrottung	gemein	sterben	kreativ	träumen	besonnen	vertrauen	gesittet	engagiert	krank	töten	bange	versagen	geizig	engstirnig	0	0	0	0	0	0	0	0	0	0	0	0	0	0	0	0	0	0	0	0	0	0	0	0	0	0	0	0	0	0
2024-06-06	10:25:10	10:37:07	714942	6.6.1	4_exp_EVA_AWA_CON	71	A	B	Rpleas_acq	Same	Rpleas	2pleas	conawa_CS2_US5	conawa1_nomask	8	4	0	0	300	300	0	0	4579	engstirnig	1	-72,5260416666666571928pct	vergnügt	kuss	gütig	anregung	genießen	sonnig	verbissen	krise	gierig	ausrottung	gemein	sterben	kreativ	träumen	besonnen	vertrauen	gesittet	engagiert	krank	töten	bange	versagen	geizig	engstirnig	0	0	0	0	0	0	0	0	0	0	0	0	0	0	0	0	0	0	0	0	0	0	0	0	0	0	0	0	0	0
2024-06-06	10:25:10	10:37:07	714943	6.6.1	4_exp_EVA_AWA_CON	71	A	B	Rpleas_acq	Same	Rpleas	2pleas	conawa_CS2_US5_confidence	conawa1_nomask	8	4	0	0	300	300	0	0	4579	probably	1	-72,5260416666666571928pct	vergnügt	kuss	gütig	anregung	genießen	sonnig	verbissen	krise	gierig	ausrottung	gemein	sterben	kreativ	träumen	besonnen	vertrauen	gesittet	engagiert	krank	töten	bange	versagen	geizig	engstirnig	0	0	0	0	0	0	0	0	0	0	0	0	0	0	0	0	0	0	0	0	0	0	0	0	0	0	0	0	0	0
2024-06-06	10:25:10	10:37:10	717914	6.6.1	4_exp_EVA_AWA_CON	71	A	B	Rpleas_acq	Same	Rpleas	2pleas	conawa_CS2_US6	conawa1_nomask	8	5	0	0	300	300	0	0	2354	krank	1	-72,5260416666666571928pct	vergnügt	kuss	gütig	anregung	genießen	sonnig	verbissen	krise	gierig	ausrottung	gemein	sterben	kreativ	träumen	besonnen	vertrauen	gesittet	engagiert	krank	töten	bange	versagen	geizig	engstirnig	0	0	0	0	0	0	0	0	0	0	0	0	0	0	0	0	0	0	0	0	0	0	0	0	0	0	0	0	0	0
2024-06-06	10:25:10	10:37:10	717916	6.6.1	4_exp_EVA_AWA_CON	71	A	B	Rpleas_acq	Same	Rpleas	2pleas	conawa_CS2_US6_confidence	conawa1_nomask	8	5	0	0	300	300	0	0	2354	probably	1	-72,5260416666666571928pct	vergnügt	kuss	gütig	anregung	genießen	sonnig	verbissen	krise	gierig	ausrottung	gemein	sterben	kreativ	träumen	besonnen	vertrauen	gesittet	engagiert	krank	töten	bange	versagen	geizig	engstirnig	0	0	0	0	0	0	0	0	0	0	0	0	0	0	0	0	0	0	0	0	0	0	0	0	0	0	0	0	0	0
2024-06-06	10:25:10	10:37:15	722867	6.6.1	4_exp_EVA_AWA_CON	71	A	B	Rpleas_acq	Same	Rpleas	2pleas	conawa_CS1_US1	conawa1_nomask	8	6	0	0	300	300	0	0	4342	kreativ	1	-72,5260416666666571928pct	vergnügt	kuss	gütig	anregung	genießen	sonnig	verbissen	krise	gierig	ausrottung	gemein	sterben	kreativ	träumen	besonnen	vertrauen	gesittet	engagiert	krank	töten	bange	versagen	geizig	engstirnig	0	0	0	0	0	0	0	0	0	0	0	0	0	0	0	0	0	0	0	0	0	0	0	0	0	0	0	0	0	0
2024-06-06	10:25:10	10:37:15	722869	6.6.1	4_exp_EVA_AWA_CON	71	A	B	Rpleas_acq	Same	Rpleas	2pleas	conawa_CS1_US1_confidence	conawa1_nomask	8	6	0	0	300	300	0	0	4342	probably	1	-72,5260416666666571928pct	vergnügt	kuss	gütig	anregung	genießen	sonnig	verbissen	krise	gierig	ausrottung	gemein	sterben	kreativ	träumen	besonnen	vertrauen	gesittet	engagiert	krank	töten	bange	versagen	geizig	engstirnig	0	0	0	0	0	0	0	0	0	0	0	0	0	0	0	0	0	0	0	0	0	0	0	0	0	0	0	0	0	0
2024-06-06	10:25:10	10:37:19	727019	6.6.1	4_exp_EVA_AWA_CON	71	A	B	Rpleas_acq	Same	Rpleas	2pleas	conawa_CS1_US5	conawa1_nomask	8	7	0	0	300	300	0	0	3533	gemein	1	-72,5260416666666571928pct	vergnügt	kuss	gütig	anregung	genießen	sonnig	verbissen	krise	gierig	ausrottung	gemein	sterben	kreativ	träumen	besonnen	vertrauen	gesittet	engagiert	krank	töten	bange	versagen	geizig	engstirnig	0	0	0	0	0	0	0	0	0	0	0	0	0	0	0	0	0	0	0	0	0	0	0	0	0	0	0	0	0	0
2024-06-06	10:25:10	10:37:19	727021	6.6.1	4_exp_EVA_AWA_CON	71	A	B	Rpleas_acq	Same	Rpleas	2pleas	conawa_CS1_US5_confidence	conawa1_nomask	8	7	0	0	300	300	0	0	3533	probably	1	-72,5260416666666571928pct	vergnügt	kuss	gütig	anregung	genießen	sonnig	verbissen	krise	gierig	ausrottung	gemein	sterben	kreativ	träumen	besonnen	vertrauen	gesittet	engagiert	krank	töten	bange	versagen	geizig	engstirnig	0	0	0	0	0	0	0	0	0	0	0	0	0	0	0	0	0	0	0	0	0	0	0	0	0	0	0	0	0	0
2024-06-06	10:25:10	10:37:21	729332	6.6.1	4_exp_EVA_AWA_CON	71	A	B	Rpleas_acq	Same	Rpleas	2pleas	conawa_CS2_US4	conawa1_nomask	8	8	0	0	300	300	0	0	1692	anregung	1	-72,5260416666666571928pct	vergnügt	kuss	gütig	anregung	genießen	sonnig	verbissen	krise	gierig	ausrottung	gemein	sterben	kreativ	träumen	besonnen	vertrauen	gesittet	engagiert	krank	töten	bange	versagen	geizig	engstirnig	0	0	0	0	0	0	0	0	0	0	0	0	0	0	0	0	0	0	0	0	0	0	0	0	0	0	0	0	0	0
2024-06-06	10:25:10	10:37:21	729333	6.6.1	4_exp_EVA_AWA_CON	71	A	B	Rpleas_acq	Same	Rpleas	2pleas	conawa_CS2_US4_confidence	conawa1_nomask	8	8	0	0	300	300	0	0	1692	probably	1	-72,5260416666666571928pct	vergnügt	kuss	gütig	anregung	genießen	sonnig	verbissen	krise	gierig	ausrottung	gemein	sterben	kreativ	träumen	besonnen	vertrauen	gesittet	engagiert	krank	töten	bange	versagen	geizig	engstirnig	0	0	0	0	0	0	0	0	0	0	0	0	0	0	0	0	0	0	0	0	0	0	0	0	0	0	0	0	0	0
2024-06-06	10:25:10	10:37:25	733044	6.6.1	4_exp_EVA_AWA_CON	71	A	B	Rpleas_acq	Same	Rpleas	2pleas	conawa_CS1_US6	conawa1_nomask	8	9	0	0	300	300	0	0	3092	engstirnig	1	-72,5260416666666571928pct	vergnügt	kuss	gütig	anregung	genießen	sonnig	verbissen	krise	gierig	ausrottung	gemein	sterben	kreativ	träumen	besonnen	vertrauen	gesittet	engagiert	krank	töten	bange	versagen	geizig	engstirnig	0	0	0	0	0	0	0	0	0	0	0	0	0	0	0	0	0	0	0	0	0	0	0	0	0	0	0	0	0	0
2024-06-06	10:25:10	10:37:25	733046	6.6.1	4_exp_EVA_AWA_CON	71	A	B	Rpleas_acq	Same	Rpleas	2pleas	conawa_CS1_US6_confidence	conawa1_nomask	8	9	0	0	300	300	0	0	3092	probably	1	-72,5260416666666571928pct	vergnügt	kuss	gütig	anregung	genießen	sonnig	verbissen	krise	gierig	ausrottung	gemein	sterben	kreativ	träumen	besonnen	vertrauen	gesittet	engagiert	krank	töten	bange	versagen	geizig	engstirnig	0	0	0	0	0	0	0	0	0	0	0	0	0	0	0	0	0	0	0	0	0	0	0	0	0	0	0	0	0	0
2024-06-06	10:25:10	10:37:28	736256	6.6.1	4_exp_EVA_AWA_CON	71	A	B	Rpleas_acq	Same	Rpleas	2pleas	conawa_CS2_US2	conawa1_nomask	8	10	0	0	300	300	0	0	2597	krise	1	-72,5260416666666571928pct	vergnügt	kuss	gütig	anregung	genießen	sonnig	verbissen	krise	gierig	ausrottung	gemein	sterben	kreativ	träumen	besonnen	vertrauen	gesittet	engagiert	krank	töten	bange	versagen	geizig	engstirnig	0	0	0	0	0	0	0	0	0	0	0	0	0	0	0	0	0	0	0	0	0	0	0	0	0	0	0	0	0	0
2024-06-06	10:25:10	10:37:28	736257	6.6.1	4_exp_EVA_AWA_CON	71	A	B	Rpleas_acq	Same	Rpleas	2pleas	conawa_CS2_US2_confidence	conawa1_nomask	8	10	0	0	300	300	0	0	2597	probably	1	-72,5260416666666571928pct	vergnügt	kuss	gütig	anregung	genießen	sonnig	verbissen	krise	gierig	ausrottung	gemein	sterben	kreativ	träumen	besonnen	vertrauen	gesittet	engagiert	krank	töten	bange	versagen	geizig	engstirnig	0	0	0	0	0	0	0	0	0	0	0	0	0	0	0	0	0	0	0	0	0	0	0	0	0	0	0	0	0	0
2024-06-06	10:25:10	10:37:31	738767	6.6.1	4_exp_EVA_AWA_CON	71	A	B	Rpleas_acq	Same	Rpleas	2pleas	conawa_CS1_US2	conawa1_nomask	8	11	0	0	300	300	0	0	1896	träumen	1	-72,5260416666666571928pct	vergnügt	kuss	gütig	anregung	genießen	sonnig	verbissen	krise	gierig	ausrottung	gemein	sterben	kreativ	träumen	besonnen	vertrauen	gesittet	engagiert	krank	töten	bange	versagen	geizig	engstirnig	0	0	0	0	0	0	0	0	0	0	0	0	0	0	0	0	0	0	0	0	0	0	0	0	0	0	0	0	0	0
2024-06-06	10:25:10	10:37:31	738769	6.6.1	4_exp_EVA_AWA_CON	71	A	B	Rpleas_acq	Same	Rpleas	2pleas	conawa_CS1_US2_confidence	conawa1_nomask	8	11	0	0	300	300	0	0	1896	probably	1	-72,5260416666666571928pct	vergnügt	kuss	gütig	anregung	genießen	sonnig	verbissen	krise	gierig	ausrottung	gemein	sterben	kreativ	träumen	besonnen	vertrauen	gesittet	engagiert	krank	töten	bange	versagen	geizig	engstirnig	0	0	0	0	0	0	0	0	0	0	0	0	0	0	0	0	0	0	0	0	0	0	0	0	0	0	0	0	0	0
2024-06-06	10:25:10	10:37:34	742049	6.6.1	4_exp_EVA_AWA_CON	71	A	B	Rpleas_acq	Same	Rpleas	2pleas	conawa_CS1_US3	conawa1_nomask	8	12	0	0	300	300	0	0	2666	bange	1	-72,5260416666666571928pct	vergnügt	kuss	gütig	anregung	genießen	sonnig	verbissen	krise	gierig	ausrottung	gemein	sterben	kreativ	träumen	besonnen	vertrauen	gesittet	engagiert	krank	töten	bange	versagen	geizig	engstirnig	0	0	0	0	0	0	0	0	0	0	0	0	0	0	0	0	0	0	0	0	0	0	0	0	0	0	0	0	0	0
2024-06-06	10:25:10	10:37:34	742051	6.6.1	4_exp_EVA_AWA_CON	71	A	B	Rpleas_acq	Same	Rpleas	2pleas	conawa_CS1_US3_confidence	conawa1_nomask	8	12	0	0	300	300	0	0	2666	probably	1	-72,5260416666666571928pct	vergnügt	kuss	gütig	anregung	genießen	sonnig	verbissen	krise	gierig	ausrottung	gemein	sterben	kreativ	träumen	besonnen	vertrauen	gesittet	engagiert	krank	töten	bange	versagen	geizig	engstirnig	0	0	0	0	0	0	0	0	0	0	0	0	0	0	0	0	0	0	0	0	0	0	0	0	0	0	0	0	0	0
2024-06-06	10:25:10	10:38:12	780145	6.6.1	4_exp_EVA_AWA_CON	71	A	B	Rpleas_acq	Same	Rpleas	2pleas	cond_new_unple_456_nomask_CS1	condtest_nomask_1	11	1	400	0	300	300	0	0	862	46	1	-72,5260416666666571928pct	vergnügt	kuss	gütig	anregung	genießen	sonnig	verbissen	krise	gierig	ausrottung	gemein	sterben	kreativ	träumen	besonnen	vertrauen	gesittet	engagiert	krank	töten	bange	versagen	geizig	engstirnig	1	blank2r.bmp	0	1	+	0	1	blank2r.bmp	500	1	CPLW	500	1	blank2r.bmp	880	2	geizig	880	1	!	1232	1	!	-1	0	0	0	0	0	0
