date	time	currenttime	elapsedtime	build	currentexpt	subject	CS_AB	US_AB	LRpleas_acq	SameOppo	condition_Lpleas	condition_1pleas	trialcode	blockcode	blocknum	trialnum	windowcenter	inwindow	pretrialpause	posttrialpause	trialduration	trialtimeout	latency	response	correct	correctedscore	US_nomask_pleas1	US_nomask_pleas2	US_nomask_pleas3	US_nomask_pleas4	US_nomask_pleas5	US_nomask_pleas6	US_nomask_unple1	US_nomask_unple2	US_nomask_unple3	US_nomask_unple4	US_nomask_unple5	US_nomask_unple6	new_nomask_pleas1	new_nomask_pleas2	new_nomask_pleas3	new_nomask_pleas4	new_nomask_pleas5	new_nomask_pleas6	new_nomask_unple1	new_nomask_unple2	new_nomask_unple3	new_nomask_unple4	new_nomask_unple5	new_nomask_unple6	stimulusnumber1	stimulusitem1	stimulusonset1	stimulusnumber2	stimulusitem2	stimulusonset2	stimulusnumber3	stimulusitem3	stimulusonset3	stimulusnumber4	stimulusitem4	stimulusonset4	stimulusnumber5	stimulusitem5	stimulusonset5	stimulusnumber6	stimulusitem6	stimulusonset6	stimulusnumber7	stimulusitem7	stimulusonset7	stimulusnumber8	stimulusitem8	stimulusonset8	stimulusnumber9	stimulusitem9	stimulusonset9	stimulusnumber10	stimulusitem10	stimulusonset10
2024-05-10	11:52:58	12:00:26	448235	6.6.1	4_exp_EVA_AWA_CON	23	A	B	Rpleas_acq	Same	Rpleas	2pleas	acq_new_unple_nomask	acq1_nomask	1	1	0	0	300	300	0	0	1235	46	1	0	engagiert	kreativ	anregung	kuss	vertrauen	träumen	engstirnig	krank	ausrottung	krise	versagen	töten	genießen	besonnen	vergnügt	gütig	sonnig	gesittet	gemein	bange	verbissen	gierig	sterben	geizig	1	blank2r.bmp	0	1	+	0	1	blank2r.bmp	500	5	C1r.bmp	500	1	blank2r.bmp	880	4	gierig	880	0	0	0	0	0	0	0	0	0	0	0	0
2024-05-10	11:52:58	12:00:29	450451	6.6.1	4_exp_EVA_AWA_CON	23	A	B	Rpleas_acq	Same	Rpleas	2pleas	acq_new_pleas_nomask	acq1_nomask	1	2	0	0	300	300	0	0	729	50	1	0	engagiert	kreativ	anregung	kuss	vertrauen	träumen	engstirnig	krank	ausrottung	krise	versagen	töten	genießen	besonnen	vergnügt	gütig	sonnig	gesittet	gemein	bange	verbissen	gierig	sterben	geizig	1	blank2r.bmp	0	1	+	0	1	blank2r.bmp	500	7	C3r.bmp	500	1	blank2r.bmp	880	2	besonnen	880	0	0	0	0	0	0	0	0	0	0	0	0
2024-05-10	11:52:58	12:00:31	452651	6.6.1	4_exp_EVA_AWA_CON	23	A	B	Rpleas_acq	Same	Rpleas	2pleas	acq_US_unple_nomask	acq1_nomask	1	3	0	0	300	300	0	0	718	46	1	0	engagiert	kreativ	anregung	kuss	vertrauen	träumen	engstirnig	krank	ausrottung	krise	versagen	töten	genießen	besonnen	vergnügt	gütig	sonnig	gesittet	gemein	bange	verbissen	gierig	sterben	geizig	1	blank2r.bmp	0	1	+	0	1	blank2r.bmp	500	1	CPLW	500	1	blank2r.bmp	880	4	krise	880	0	0	0	0	0	0	0	0	0	0	0	0
2024-05-10	11:52:58	12:00:33	454859	6.6.1	4_exp_EVA_AWA_CON	23	A	B	Rpleas_acq	Same	Rpleas	2pleas	acq_US_unple_nomask	acq1_nomask	1	4	0	0	300	300	0	0	724	46	1	0	engagiert	kreativ	anregung	kuss	vertrauen	träumen	engstirnig	krank	ausrottung	krise	versagen	töten	genießen	besonnen	vergnügt	gütig	sonnig	gesittet	gemein	bange	verbissen	gierig	sterben	geizig	1	blank2r.bmp	0	1	+	0	1	blank2r.bmp	500	1	CPLW	500	1	blank2r.bmp	880	6	töten	880	0	0	0	0	0	0	0	0	0	0	0	0
2024-05-10	11:52:58	12:00:35	456995	6.6.1	4_exp_EVA_AWA_CON	23	A	B	Rpleas_acq	Same	Rpleas	2pleas	acq_US_pleas_nomask	acq1_nomask	1	5	0	0	300	300	0	0	649	50	1	0	engagiert	kreativ	anregung	kuss	vertrauen	träumen	engstirnig	krank	ausrottung	krise	versagen	töten	genießen	besonnen	vergnügt	gütig	sonnig	gesittet	gemein	bange	verbissen	gierig	sterben	geizig	1	blank2r.bmp	0	1	+	0	1	blank2r.bmp	500	1	DHJF	500	1	blank2r.bmp	880	1	engagiert	880	0	0	0	0	0	0	0	0	0	0	0	0
2024-05-10	11:52:58	12:00:37	459091	6.6.1	4_exp_EVA_AWA_CON	23	A	B	Rpleas_acq	Same	Rpleas	2pleas	acq_US_pleas_nomask	acq1_nomask	1	6	0	0	300	300	0	0	614	50	1	0	engagiert	kreativ	anregung	kuss	vertrauen	träumen	engstirnig	krank	ausrottung	krise	versagen	töten	genießen	besonnen	vergnügt	gütig	sonnig	gesittet	gemein	bange	verbissen	gierig	sterben	geizig	1	blank2r.bmp	0	1	+	0	1	blank2r.bmp	500	1	DHJF	500	1	blank2r.bmp	880	2	kreativ	880	0	0	0	0	0	0	0	0	0	0	0	0
2024-05-10	11:52:58	12:00:39	461235	6.6.1	4_exp_EVA_AWA_CON	23	A	B	Rpleas_acq	Same	Rpleas	2pleas	acq_new_unple_nomask	acq1_nomask	1	7	0	0	300	300	0	0	656	46	1	0	engagiert	kreativ	anregung	kuss	vertrauen	träumen	engstirnig	krank	ausrottung	krise	versagen	töten	genießen	besonnen	vergnügt	gütig	sonnig	gesittet	gemein	bange	verbissen	gierig	sterben	geizig	1	blank2r.bmp	0	1	+	0	1	blank2r.bmp	500	8	C4r.bmp	500	1	blank2r.bmp	880	3	verbissen	880	0	0	0	0	0	0	0	0	0	0	0	0
2024-05-10	11:52:58	12:00:42	463379	6.6.1	4_exp_EVA_AWA_CON	23	A	B	Rpleas_acq	Same	Rpleas	2pleas	acq_US_unple_nomask	acq1_nomask	1	8	0	0	300	300	0	0	659	46	1	0	engagiert	kreativ	anregung	kuss	vertrauen	träumen	engstirnig	krank	ausrottung	krise	versagen	töten	genießen	besonnen	vergnügt	gütig	sonnig	gesittet	gemein	bange	verbissen	gierig	sterben	geizig	1	blank2r.bmp	0	1	+	0	1	blank2r.bmp	500	1	CPLW	500	1	blank2r.bmp	880	2	krank	880	0	0	0	0	0	0	0	0	0	0	0	0
2024-05-10	11:52:58	12:00:44	465299	6.6.1	4_exp_EVA_AWA_CON	23	A	B	Rpleas_acq	Same	Rpleas	2pleas	acq_US_pleas_nomask	acq1_nomask	1	9	0	0	300	300	0	0	437	50	1	0	engagiert	kreativ	anregung	kuss	vertrauen	träumen	engstirnig	krank	ausrottung	krise	versagen	töten	genießen	besonnen	vergnügt	gütig	sonnig	gesittet	gemein	bange	verbissen	gierig	sterben	geizig	1	blank2r.bmp	0	1	+	0	1	blank2r.bmp	500	1	DHJF	500	1	blank2r.bmp	880	6	träumen	880	0	0	0	0	0	0	0	0	0	0	0	0
2024-05-10	11:52:58	12:00:46	467691	6.6.1	4_exp_EVA_AWA_CON	23	A	B	Rpleas_acq	Same	Rpleas	2pleas	acq_new_unple_nomask	acq1_nomask	1	10	0	0	300	300	0	0	908	46	1	0	engagiert	kreativ	anregung	kuss	vertrauen	träumen	engstirnig	krank	ausrottung	krise	versagen	töten	genießen	besonnen	vergnügt	gütig	sonnig	gesittet	gemein	bange	verbissen	gierig	sterben	geizig	1	blank2r.bmp	0	1	+	0	1	blank2r.bmp	500	6	C2r.bmp	500	1	blank2r.bmp	880	5	sterben	880	0	0	0	0	0	0	0	0	0	0	0	0
2024-05-10	11:52:58	12:00:48	469995	6.6.1	4_exp_EVA_AWA_CON	23	A	B	Rpleas_acq	Same	Rpleas	2pleas	acq_new_pleas_nomask	acq1_nomask	1	11	0	0	300	300	0	0	821	50	1	0	engagiert	kreativ	anregung	kuss	vertrauen	träumen	engstirnig	krank	ausrottung	krise	versagen	töten	genießen	besonnen	vergnügt	gütig	sonnig	gesittet	gemein	bange	verbissen	gierig	sterben	geizig	1	blank2r.bmp	0	1	+	0	1	blank2r.bmp	500	3	B3r.bmp	500	1	blank2r.bmp	880	4	gütig	880	0	0	0	0	0	0	0	0	0	0	0	0
2024-05-10	11:52:58	12:00:51	472347	6.6.1	4_exp_EVA_AWA_CON	23	A	B	Rpleas_acq	Same	Rpleas	2pleas	acq_new_pleas_nomask	acq1_nomask	1	12	0	0	300	300	0	0	871	50	1	0	engagiert	kreativ	anregung	kuss	vertrauen	träumen	engstirnig	krank	ausrottung	krise	versagen	töten	genießen	besonnen	vergnügt	gütig	sonnig	gesittet	gemein	bange	verbissen	gierig	sterben	geizig	1	blank2r.bmp	0	1	+	0	1	blank2r.bmp	500	4	B4r.bmp	500	1	blank2r.bmp	880	1	genießen	880	0	0	0	0	0	0	0	0	0	0	0	0
2024-05-10	11:52:58	12:00:53	474483	6.6.1	4_exp_EVA_AWA_CON	23	A	B	Rpleas_acq	Same	Rpleas	2pleas	acq_US_pleas_nomask	acq1_nomask	1	13	0	0	300	300	0	0	656	50	1	0	engagiert	kreativ	anregung	kuss	vertrauen	träumen	engstirnig	krank	ausrottung	krise	versagen	töten	genießen	besonnen	vergnügt	gütig	sonnig	gesittet	gemein	bange	verbissen	gierig	sterben	geizig	1	blank2r.bmp	0	1	+	0	1	blank2r.bmp	500	1	DHJF	500	1	blank2r.bmp	880	5	vertrauen	880	0	0	0	0	0	0	0	0	0	0	0	0
2024-05-10	11:52:58	12:00:55	476603	6.6.1	4_exp_EVA_AWA_CON	23	A	B	Rpleas_acq	Same	Rpleas	2pleas	acq_new_pleas_nomask	acq1_nomask	1	14	0	0	300	300	0	0	634	50	1	0	engagiert	kreativ	anregung	kuss	vertrauen	träumen	engstirnig	krank	ausrottung	krise	versagen	töten	genießen	besonnen	vergnügt	gütig	sonnig	gesittet	gemein	bange	verbissen	gierig	sterben	geizig	1	blank2r.bmp	0	1	+	0	1	blank2r.bmp	500	2	B2r.bmp	500	1	blank2r.bmp	880	6	gesittet	880	0	0	0	0	0	0	0	0	0	0	0	0
2024-05-10	11:52:58	12:00:57	478933	6.6.1	4_exp_EVA_AWA_CON	23	A	B	Rpleas_acq	Same	Rpleas	2pleas	acq_new_unple_nomask	acq1_nomask	1	15	0	0	300	300	0	0	641	50	0	0	engagiert	kreativ	anregung	kuss	vertrauen	träumen	engstirnig	krank	ausrottung	krise	versagen	töten	genießen	besonnen	vergnügt	gütig	sonnig	gesittet	gemein	bange	verbissen	gierig	sterben	geizig	1	blank2r.bmp	0	1	+	0	1	blank2r.bmp	500	1	B1r.bmp	500	1	blank2r.bmp	880	2	bange	880	1	FEHLER	1543	0	0	0	0	0	0	0	0	0
2024-05-10	11:52:58	12:00:59	481003	6.6.1	4_exp_EVA_AWA_CON	23	A	B	Rpleas_acq	Same	Rpleas	2pleas	acq_new_pleas_nomask	acq1_nomask	1	16	0	0	300	300	0	0	792	50	1	0	engagiert	kreativ	anregung	kuss	vertrauen	träumen	engstirnig	krank	ausrottung	krise	versagen	töten	genießen	besonnen	vergnügt	gütig	sonnig	gesittet	gemein	bange	verbissen	gierig	sterben	geizig	1	blank2r.bmp	0	1	+	0	1	blank2r.bmp	500	4	B4r.bmp	500	1	blank2r.bmp	880	3	vergnügt	880	0	0	0	0	0	0	0	0	0	0	0	0
2024-05-10	11:52:58	12:01:01	483115	6.6.1	4_exp_EVA_AWA_CON	23	A	B	Rpleas_acq	Same	Rpleas	2pleas	acq_new_unple_nomask	acq1_nomask	1	17	0	0	300	300	0	0	622	46	1	0	engagiert	kreativ	anregung	kuss	vertrauen	träumen	engstirnig	krank	ausrottung	krise	versagen	töten	genießen	besonnen	vergnügt	gütig	sonnig	gesittet	gemein	bange	verbissen	gierig	sterben	geizig	1	blank2r.bmp	0	1	+	0	1	blank2r.bmp	500	6	C2r.bmp	500	1	blank2r.bmp	880	1	gemein	880	0	0	0	0	0	0	0	0	0	0	0	0
2024-05-10	11:52:58	12:01:04	485483	6.6.1	4_exp_EVA_AWA_CON	23	A	B	Rpleas_acq	Same	Rpleas	2pleas	acq_US_pleas_nomask	acq1_nomask	1	18	0	0	300	300	0	0	879	50	1	0	engagiert	kreativ	anregung	kuss	vertrauen	träumen	engstirnig	krank	ausrottung	krise	versagen	töten	genießen	besonnen	vergnügt	gütig	sonnig	gesittet	gemein	bange	verbissen	gierig	sterben	geizig	1	blank2r.bmp	0	1	+	0	1	blank2r.bmp	500	1	DHJF	500	1	blank2r.bmp	880	3	anregung	880	0	0	0	0	0	0	0	0	0	0	0	0
2024-05-10	11:52:58	12:01:06	487683	6.6.1	4_exp_EVA_AWA_CON	23	A	B	Rpleas_acq	Same	Rpleas	2pleas	acq_US_unple_nomask	acq1_nomask	1	19	0	0	300	300	0	0	717	46	1	0	engagiert	kreativ	anregung	kuss	vertrauen	träumen	engstirnig	krank	ausrottung	krise	versagen	töten	genießen	besonnen	vergnügt	gütig	sonnig	gesittet	gemein	bange	verbissen	gierig	sterben	geizig	1	blank2r.bmp	0	1	+	0	1	blank2r.bmp	500	1	CPLW	500	1	blank2r.bmp	880	3	ausrottung	880	0	0	0	0	0	0	0	0	0	0	0	0
2024-05-10	11:52:58	12:01:08	489603	6.6.1	4_exp_EVA_AWA_CON	23	A	B	Rpleas_acq	Same	Rpleas	2pleas	acq_US_pleas_nomask	acq1_nomask	1	20	0	0	300	300	0	0	436	50	1	0	engagiert	kreativ	anregung	kuss	vertrauen	träumen	engstirnig	krank	ausrottung	krise	versagen	töten	genießen	besonnen	vergnügt	gütig	sonnig	gesittet	gemein	bange	verbissen	gierig	sterben	geizig	1	blank2r.bmp	0	1	+	0	1	blank2r.bmp	500	1	DHJF	500	1	blank2r.bmp	880	4	kuss	880	0	0	0	0	0	0	0	0	0	0	0	0
2024-05-10	11:52:58	12:01:10	491875	6.6.1	4_exp_EVA_AWA_CON	23	A	B	Rpleas_acq	Same	Rpleas	2pleas	acq_US_unple_nomask	acq1_nomask	1	21	0	0	300	300	0	0	787	46	1	0	engagiert	kreativ	anregung	kuss	vertrauen	träumen	engstirnig	krank	ausrottung	krise	versagen	töten	genießen	besonnen	vergnügt	gütig	sonnig	gesittet	gemein	bange	verbissen	gierig	sterben	geizig	1	blank2r.bmp	0	1	+	0	1	blank2r.bmp	500	1	CPLW	500	1	blank2r.bmp	880	1	engstirnig	880	0	0	0	0	0	0	0	0	0	0	0	0
2024-05-10	11:52:58	12:01:12	493883	6.6.1	4_exp_EVA_AWA_CON	23	A	B	Rpleas_acq	Same	Rpleas	2pleas	acq_US_unple_nomask	acq1_nomask	1	22	0	0	300	300	0	0	523	46	1	0	engagiert	kreativ	anregung	kuss	vertrauen	träumen	engstirnig	krank	ausrottung	krise	versagen	töten	genießen	besonnen	vergnügt	gütig	sonnig	gesittet	gemein	bange	verbissen	gierig	sterben	geizig	1	blank2r.bmp	0	1	+	0	1	blank2r.bmp	500	1	CPLW	500	1	blank2r.bmp	880	5	versagen	880	0	0	0	0	0	0	0	0	0	0	0	0
2024-05-10	11:52:58	12:01:15	496275	6.6.1	4_exp_EVA_AWA_CON	23	A	B	Rpleas_acq	Same	Rpleas	2pleas	acq_new_unple_nomask	acq1_nomask	1	23	0	0	300	300	0	0	904	46	1	0	engagiert	kreativ	anregung	kuss	vertrauen	träumen	engstirnig	krank	ausrottung	krise	versagen	töten	genießen	besonnen	vergnügt	gütig	sonnig	gesittet	gemein	bange	verbissen	gierig	sterben	geizig	1	blank2r.bmp	0	1	+	0	1	blank2r.bmp	500	3	B3r.bmp	500	1	blank2r.bmp	880	6	geizig	880	0	0	0	0	0	0	0	0	0	0	0	0
2024-05-10	11:52:58	12:01:17	498387	6.6.1	4_exp_EVA_AWA_CON	23	A	B	Rpleas_acq	Same	Rpleas	2pleas	acq_new_pleas_nomask	acq1_nomask	1	24	0	0	300	300	0	0	624	50	1	0	engagiert	kreativ	anregung	kuss	vertrauen	träumen	engstirnig	krank	ausrottung	krise	versagen	töten	genießen	besonnen	vergnügt	gütig	sonnig	gesittet	gemein	bange	verbissen	gierig	sterben	geizig	1	blank2r.bmp	0	1	+	0	1	blank2r.bmp	500	5	C1r.bmp	500	1	blank2r.bmp	880	5	sonnig	880	0	0	0	0	0	0	0	0	0	0	0	0
2024-05-10	11:52:58	12:01:19	500579	6.6.1	4_exp_EVA_AWA_CON	23	A	B	Rpleas_acq	Same	Rpleas	2pleas	acq_US_unple_nomask	acq1_nomask	1	25	0	0	300	300	0	0	705	46	1	0	engagiert	kreativ	anregung	kuss	vertrauen	träumen	engstirnig	krank	ausrottung	krise	versagen	töten	genießen	besonnen	vergnügt	gütig	sonnig	gesittet	gemein	bange	verbissen	gierig	sterben	geizig	1	blank2r.bmp	0	1	+	0	1	blank2r.bmp	500	1	CPLW	500	1	blank2r.bmp	880	6	töten	880	0	0	0	0	0	0	0	0	0	0	0	0
2024-05-10	11:52:58	12:01:21	502587	6.6.1	4_exp_EVA_AWA_CON	23	A	B	Rpleas_acq	Same	Rpleas	2pleas	acq_new_pleas_nomask	acq1_nomask	1	26	0	0	300	300	0	0	522	50	1	0	engagiert	kreativ	anregung	kuss	vertrauen	träumen	engstirnig	krank	ausrottung	krise	versagen	töten	genießen	besonnen	vergnügt	gütig	sonnig	gesittet	gemein	bange	verbissen	gierig	sterben	geizig	1	blank2r.bmp	0	1	+	0	1	blank2r.bmp	500	2	B2r.bmp	500	1	blank2r.bmp	880	2	besonnen	880	0	0	0	0	0	0	0	0	0	0	0	0
2024-05-10	11:52:58	12:01:23	504475	6.6.1	4_exp_EVA_AWA_CON	23	A	B	Rpleas_acq	Same	Rpleas	2pleas	acq_US_unple_nomask	acq1_nomask	1	27	0	0	300	300	0	0	398	46	1	0	engagiert	kreativ	anregung	kuss	vertrauen	träumen	engstirnig	krank	ausrottung	krise	versagen	töten	genießen	besonnen	vergnügt	gütig	sonnig	gesittet	gemein	bange	verbissen	gierig	sterben	geizig	1	blank2r.bmp	0	1	+	0	1	blank2r.bmp	500	1	CPLW	500	1	blank2r.bmp	880	2	krank	880	0	0	0	0	0	0	0	0	0	0	0	0
2024-05-10	11:52:58	12:01:25	506819	6.6.1	4_exp_EVA_AWA_CON	23	A	B	Rpleas_acq	Same	Rpleas	2pleas	acq_new_pleas_nomask	acq1_nomask	1	28	0	0	300	300	0	0	861	50	1	0	engagiert	kreativ	anregung	kuss	vertrauen	träumen	engstirnig	krank	ausrottung	krise	versagen	töten	genießen	besonnen	vergnügt	gütig	sonnig	gesittet	gemein	bange	verbissen	gierig	sterben	geizig	1	blank2r.bmp	0	1	+	0	1	blank2r.bmp	500	7	C3r.bmp	500	1	blank2r.bmp	880	1	genießen	880	0	0	0	0	0	0	0	0	0	0	0	0
2024-05-10	11:52:58	12:01:27	508955	6.6.1	4_exp_EVA_AWA_CON	23	A	B	Rpleas_acq	Same	Rpleas	2pleas	acq_new_unple_nomask	acq1_nomask	1	29	0	0	300	300	0	0	656	46	1	0	engagiert	kreativ	anregung	kuss	vertrauen	träumen	engstirnig	krank	ausrottung	krise	versagen	töten	genießen	besonnen	vergnügt	gütig	sonnig	gesittet	gemein	bange	verbissen	gierig	sterben	geizig	1	blank2r.bmp	0	1	+	0	1	blank2r.bmp	500	1	B1r.bmp	500	1	blank2r.bmp	880	4	gierig	880	0	0	0	0	0	0	0	0	0	0	0	0
2024-05-10	11:52:58	12:01:29	511027	6.6.1	4_exp_EVA_AWA_CON	23	A	B	Rpleas_acq	Same	Rpleas	2pleas	acq_US_pleas_nomask	acq1_nomask	1	30	0	0	300	300	0	0	586	50	1	0	engagiert	kreativ	anregung	kuss	vertrauen	träumen	engstirnig	krank	ausrottung	krise	versagen	töten	genießen	besonnen	vergnügt	gütig	sonnig	gesittet	gemein	bange	verbissen	gierig	sterben	geizig	1	blank2r.bmp	0	1	+	0	1	blank2r.bmp	500	1	DHJF	500	1	blank2r.bmp	880	6	träumen	880	0	0	0	0	0	0	0	0	0	0	0	0
2024-05-10	11:52:58	12:01:32	513476	6.6.1	4_exp_EVA_AWA_CON	23	A	B	Rpleas_acq	Same	Rpleas	2pleas	acq_new_pleas_nomask	acq1_nomask	1	31	0	0	300	300	0	0	763	46	0	0	engagiert	kreativ	anregung	kuss	vertrauen	träumen	engstirnig	krank	ausrottung	krise	versagen	töten	genießen	besonnen	vergnügt	gütig	sonnig	gesittet	gemein	bange	verbissen	gierig	sterben	geizig	1	blank2r.bmp	0	1	+	0	1	blank2r.bmp	500	8	C4r.bmp	500	1	blank2r.bmp	880	3	vergnügt	880	1	FEHLER	1664	0	0	0	0	0	0	0	0	0
2024-05-10	11:52:58	12:01:34	515643	6.6.1	4_exp_EVA_AWA_CON	23	A	B	Rpleas_acq	Same	Rpleas	2pleas	acq_new_unple_nomask	acq1_nomask	1	32	0	0	300	300	0	0	879	46	1	0	engagiert	kreativ	anregung	kuss	vertrauen	träumen	engstirnig	krank	ausrottung	krise	versagen	töten	genießen	besonnen	vergnügt	gütig	sonnig	gesittet	gemein	bange	verbissen	gierig	sterben	geizig	1	blank2r.bmp	0	1	+	0	1	blank2r.bmp	500	5	C1r.bmp	500	1	blank2r.bmp	880	5	sterben	880	0	0	0	0	0	0	0	0	0	0	0	0
2024-05-10	11:52:58	12:01:36	517331	6.6.1	4_exp_EVA_AWA_CON	23	A	B	Rpleas_acq	Same	Rpleas	2pleas	acq_US_pleas_nomask	acq1_nomask	1	33	0	0	300	300	0	0	206	50	1	0	engagiert	kreativ	anregung	kuss	vertrauen	träumen	engstirnig	krank	ausrottung	krise	versagen	töten	genießen	besonnen	vergnügt	gütig	sonnig	gesittet	gemein	bange	verbissen	gierig	sterben	geizig	1	blank2r.bmp	0	1	+	0	1	blank2r.bmp	500	1	DHJF	500	1	blank2r.bmp	880	4	kuss	880	0	0	0	0	0	0	0	0	0	0	0	0
2024-05-10	11:52:58	12:01:38	519571	6.6.1	4_exp_EVA_AWA_CON	23	A	B	Rpleas_acq	Same	Rpleas	2pleas	acq_US_unple_nomask	acq1_nomask	1	34	0	0	300	300	0	0	755	46	1	0	engagiert	kreativ	anregung	kuss	vertrauen	träumen	engstirnig	krank	ausrottung	krise	versagen	töten	genießen	besonnen	vergnügt	gütig	sonnig	gesittet	gemein	bange	verbissen	gierig	sterben	geizig	1	blank2r.bmp	0	1	+	0	1	blank2r.bmp	500	1	CPLW	500	1	blank2r.bmp	880	5	versagen	880	0	0	0	0	0	0	0	0	0	0	0	0
2024-05-10	11:52:58	12:01:40	521419	6.6.1	4_exp_EVA_AWA_CON	23	A	B	Rpleas_acq	Same	Rpleas	2pleas	acq_US_pleas_nomask	acq1_nomask	1	35	0	0	300	300	0	0	361	50	1	0	engagiert	kreativ	anregung	kuss	vertrauen	träumen	engstirnig	krank	ausrottung	krise	versagen	töten	genießen	besonnen	vergnügt	gütig	sonnig	gesittet	gemein	bange	verbissen	gierig	sterben	geizig	1	blank2r.bmp	0	1	+	0	1	blank2r.bmp	500	1	DHJF	500	1	blank2r.bmp	880	2	kreativ	880	0	0	0	0	0	0	0	0	0	0	0	0
2024-05-10	11:52:58	12:01:42	523467	6.6.1	4_exp_EVA_AWA_CON	23	A	B	Rpleas_acq	Same	Rpleas	2pleas	acq_new_unple_nomask	acq1_nomask	1	36	0	0	300	300	0	0	558	46	1	0	engagiert	kreativ	anregung	kuss	vertrauen	träumen	engstirnig	krank	ausrottung	krise	versagen	töten	genießen	besonnen	vergnügt	gütig	sonnig	gesittet	gemein	bange	verbissen	gierig	sterben	geizig	1	blank2r.bmp	0	1	+	0	1	blank2r.bmp	500	7	C3r.bmp	500	1	blank2r.bmp	880	6	geizig	880	0	0	0	0	0	0	0	0	0	0	0	0
2024-05-10	11:52:58	12:02:26	567325	6.6.1	4_exp_EVA_AWA_CON	23	A	B	Rpleas_acq	Same	Rpleas	2pleas	acq_US_unple_nomask	acq2_nomask	2	1	480	0	300	300	0	0	778	46	1	0	engagiert	kreativ	anregung	kuss	vertrauen	träumen	engstirnig	krank	ausrottung	krise	versagen	töten	genießen	besonnen	vergnügt	gütig	sonnig	gesittet	gemein	bange	verbissen	gierig	sterben	geizig	1	blank2r.bmp	0	1	+	0	1	blank2r.bmp	500	1	CPLW	500	1	blank2r.bmp	880	3	ausrottung	880	1	!	1313	1	!	-1	0	0	0	0	0	0
2024-05-10	11:52:58	12:02:28	569869	6.6.1	4_exp_EVA_AWA_CON	23	A	B	Rpleas_acq	Same	Rpleas	2pleas	acq_new_unple_nomask	acq2_nomask	2	2	480	0	300	300	0	0	771	46	1	0	engagiert	kreativ	anregung	kuss	vertrauen	träumen	engstirnig	krank	ausrottung	krise	versagen	töten	genießen	besonnen	vergnügt	gütig	sonnig	gesittet	gemein	bange	verbissen	gierig	sterben	geizig	1	blank2r.bmp	0	1	+	0	1	blank2r.bmp	500	1	B1r.bmp	500	1	blank2r.bmp	880	2	bange	880	1	!	1312	1	!	-1	0	0	0	0	0	0
2024-05-10	11:52:58	12:02:30	572203	6.6.1	4_exp_EVA_AWA_CON	23	A	B	Rpleas_acq	Same	Rpleas	2pleas	acq_new_pleas_nomask	acq2_nomask	2	3	480	0	300	300	0	0	555	50	1	0	engagiert	kreativ	anregung	kuss	vertrauen	träumen	engstirnig	krank	ausrottung	krise	versagen	töten	genießen	besonnen	vergnügt	gütig	sonnig	gesittet	gemein	bange	verbissen	gierig	sterben	geizig	1	blank2r.bmp	0	1	+	0	1	blank2r.bmp	500	6	C2r.bmp	500	1	blank2r.bmp	880	4	gütig	880	1	!	1312	1	!	-1	0	0	0	0	0	0
2024-05-10	11:52:58	12:02:33	574414	6.6.1	4_exp_EVA_AWA_CON	23	A	B	Rpleas_acq	Same	Rpleas	2pleas	acq_US_pleas_nomask	acq2_nomask	2	4	480	1	300	300	0	0	432	50	1	0	engagiert	kreativ	anregung	kuss	vertrauen	träumen	engstirnig	krank	ausrottung	krise	versagen	töten	genießen	besonnen	vergnügt	gütig	sonnig	gesittet	gemein	bange	verbissen	gierig	sterben	geizig	1	blank2r.bmp	0	1	+	0	1	blank2r.bmp	500	1	DHJF	500	1	blank2r.bmp	880	1	engagiert	880	1	!	1312	1	!	1332	0	0	0	0	0	0
2024-05-10	11:52:58	12:02:35	576735	6.6.1	4_exp_EVA_AWA_CON	23	A	B	Rpleas_acq	Same	Rpleas	2pleas	acq_new_unple_nomask	acq2_nomask	2	5	480	1	300	300	0	0	540	46	1	0	engagiert	kreativ	anregung	kuss	vertrauen	träumen	engstirnig	krank	ausrottung	krise	versagen	töten	genießen	besonnen	vergnügt	gütig	sonnig	gesittet	gemein	bange	verbissen	gierig	sterben	geizig	1	blank2r.bmp	0	1	+	0	1	blank2r.bmp	500	2	B2r.bmp	500	1	blank2r.bmp	880	3	verbissen	880	1	!	1312	1	!	1442	0	0	0	0	0	0
2024-05-10	11:52:58	12:02:37	578813	6.6.1	4_exp_EVA_AWA_CON	23	A	B	Rpleas_acq	Same	Rpleas	2pleas	acq_US_pleas_nomask	acq2_nomask	2	6	480	0	300	300	0	0	299	50	1	0	engagiert	kreativ	anregung	kuss	vertrauen	träumen	engstirnig	krank	ausrottung	krise	versagen	töten	genießen	besonnen	vergnügt	gütig	sonnig	gesittet	gemein	bange	verbissen	gierig	sterben	geizig	1	blank2r.bmp	0	1	+	0	1	blank2r.bmp	500	1	DHJF	500	1	blank2r.bmp	880	5	vertrauen	880	1	!	-1	1	!	-1	0	0	0	0	0	0
2024-05-10	11:52:58	12:02:39	581087	6.6.1	4_exp_EVA_AWA_CON	23	A	B	Rpleas_acq	Same	Rpleas	2pleas	acq_US_unple_nomask	acq2_nomask	2	7	480	1	300	300	0	0	499	46	1	0	engagiert	kreativ	anregung	kuss	vertrauen	träumen	engstirnig	krank	ausrottung	krise	versagen	töten	genießen	besonnen	vergnügt	gütig	sonnig	gesittet	gemein	bange	verbissen	gierig	sterben	geizig	1	blank2r.bmp	0	1	+	0	1	blank2r.bmp	500	1	CPLW	500	1	blank2r.bmp	880	1	engstirnig	880	1	!	1312	1	!	1400	0	0	0	0	0	0
2024-05-10	11:52:58	12:02:42	583516	6.6.1	4_exp_EVA_AWA_CON	23	A	B	Rpleas_acq	Same	Rpleas	2pleas	acq_new_unple_nomask	acq2_nomask	2	8	480	0	300	300	0	0	650	46	1	0	engagiert	kreativ	anregung	kuss	vertrauen	träumen	engstirnig	krank	ausrottung	krise	versagen	töten	genießen	besonnen	vergnügt	gütig	sonnig	gesittet	gemein	bange	verbissen	gierig	sterben	geizig	1	blank2r.bmp	0	1	+	0	1	blank2r.bmp	500	4	B4r.bmp	500	1	blank2r.bmp	880	1	gemein	880	1	!	1313	1	!	-1	0	0	0	0	0	0
2024-05-10	11:52:58	12:02:44	585365	6.6.1	4_exp_EVA_AWA_CON	23	A	B	Rpleas_acq	Same	Rpleas	2pleas	acq_US_pleas_nomask	acq2_nomask	2	9	480	0	300	300	0	0	76	50	1	0	engagiert	kreativ	anregung	kuss	vertrauen	träumen	engstirnig	krank	ausrottung	krise	versagen	töten	genießen	besonnen	vergnügt	gütig	sonnig	gesittet	gemein	bange	verbissen	gierig	sterben	geizig	1	blank2r.bmp	0	1	+	0	1	blank2r.bmp	500	1	DHJF	500	1	blank2r.bmp	880	3	anregung	880	1	!	-1	1	!	-1	0	0	0	0	0	0
2024-05-10	11:52:58	12:02:46	587773	6.6.1	4_exp_EVA_AWA_CON	23	A	B	Rpleas_acq	Same	Rpleas	2pleas	acq_new_pleas_nomask	acq2_nomask	2	10	480	0	300	300	0	0	633	50	1	0	engagiert	kreativ	anregung	kuss	vertrauen	träumen	engstirnig	krank	ausrottung	krise	versagen	töten	genießen	besonnen	vergnügt	gütig	sonnig	gesittet	gemein	bange	verbissen	gierig	sterben	geizig	1	blank2r.bmp	0	1	+	0	1	blank2r.bmp	500	3	B3r.bmp	500	1	blank2r.bmp	880	5	sonnig	880	1	!	1312	1	!	-1	0	0	0	0	0	0
2024-05-10	11:52:58	12:02:48	589933	6.6.1	4_exp_EVA_AWA_CON	23	A	B	Rpleas_acq	Same	Rpleas	2pleas	acq_US_unple_nomask	acq2_nomask	2	11	480	0	300	300	0	0	382	46	1	0	engagiert	kreativ	anregung	kuss	vertrauen	träumen	engstirnig	krank	ausrottung	krise	versagen	töten	genießen	besonnen	vergnügt	gütig	sonnig	gesittet	gemein	bange	verbissen	gierig	sterben	geizig	1	blank2r.bmp	0	1	+	0	1	blank2r.bmp	500	1	CPLW	500	1	blank2r.bmp	880	4	krise	880	1	!	-1	1	!	-1	0	0	0	0	0	0
2024-05-10	11:52:58	12:02:51	592712	6.6.1	4_exp_EVA_AWA_CON	23	A	B	Rpleas_acq	Same	Rpleas	2pleas	acq_new_pleas_nomask	acq2_nomask	2	12	480	0	300	300	0	0	796	46	0	0	engagiert	kreativ	anregung	kuss	vertrauen	träumen	engstirnig	krank	ausrottung	krise	versagen	töten	genießen	besonnen	vergnügt	gütig	sonnig	gesittet	gemein	bange	verbissen	gierig	sterben	geizig	1	blank2r.bmp	0	1	+	0	1	blank2r.bmp	500	8	C4r.bmp	500	1	blank2r.bmp	880	6	gesittet	880	1	FEHLER	1989	1	!	1312	1	!	-1	0	0	0
2024-05-10	11:52:58	12:02:53	594790	6.6.1	4_exp_EVA_AWA_CON	23	A	B	Rpleas_acq	Same	Rpleas	2pleas	acq_new_pleas_nomask	acq2_nomask	2	13	480	1	300	300	0	0	505	50	1	0	engagiert	kreativ	anregung	kuss	vertrauen	träumen	engstirnig	krank	ausrottung	krise	versagen	töten	genießen	besonnen	vergnügt	gütig	sonnig	gesittet	gemein	bange	verbissen	gierig	sterben	geizig	1	blank2r.bmp	0	1	+	0	1	blank2r.bmp	500	3	B3r.bmp	500	1	blank2r.bmp	880	6	gesittet	880	1	!	1312	1	!	1405	0	0	0	0	0	0
2024-05-10	11:52:58	12:02:56	597301	6.6.1	4_exp_EVA_AWA_CON	23	A	B	Rpleas_acq	Same	Rpleas	2pleas	acq_new_unple_nomask	acq2_nomask	2	14	480	0	300	300	0	0	735	46	1	0	engagiert	kreativ	anregung	kuss	vertrauen	träumen	engstirnig	krank	ausrottung	krise	versagen	töten	genießen	besonnen	vergnügt	gütig	sonnig	gesittet	gemein	bange	verbissen	gierig	sterben	geizig	1	blank2r.bmp	0	1	+	0	1	blank2r.bmp	500	1	B1r.bmp	500	1	blank2r.bmp	880	1	gemein	880	1	!	1312	1	!	-1	0	0	0	0	0	0
2024-05-10	11:52:58	12:02:58	599574	6.6.1	4_exp_EVA_AWA_CON	23	A	B	Rpleas_acq	Same	Rpleas	2pleas	acq_new_pleas_nomask	acq2_nomask	2	15	480	1	300	300	0	0	495	50	1	0	engagiert	kreativ	anregung	kuss	vertrauen	träumen	engstirnig	krank	ausrottung	krise	versagen	töten	genießen	besonnen	vergnügt	gütig	sonnig	gesittet	gemein	bange	verbissen	gierig	sterben	geizig	1	blank2r.bmp	0	1	+	0	1	blank2r.bmp	500	6	C2r.bmp	500	1	blank2r.bmp	880	5	sonnig	880	1	!	1312	1	!	1396	0	0	0	0	0	0
2024-05-10	11:52:58	12:03:00	601948	6.6.1	4_exp_EVA_AWA_CON	23	A	B	Rpleas_acq	Same	Rpleas	2pleas	acq_US_unple_nomask	acq2_nomask	2	16	480	0	300	300	0	0	600	46	1	0	engagiert	kreativ	anregung	kuss	vertrauen	träumen	engstirnig	krank	ausrottung	krise	versagen	töten	genießen	besonnen	vergnügt	gütig	sonnig	gesittet	gemein	bange	verbissen	gierig	sterben	geizig	1	blank2r.bmp	0	1	+	0	1	blank2r.bmp	500	1	CPLW	500	1	blank2r.bmp	880	5	versagen	880	1	!	1312	1	!	-1	0	0	0	0	0	0
2024-05-10	11:52:58	12:03:02	604167	6.6.1	4_exp_EVA_AWA_CON	23	A	B	Rpleas_acq	Same	Rpleas	2pleas	acq_US_unple_nomask	acq2_nomask	2	17	480	0	300	300	0	0	245	50	0	0	engagiert	kreativ	anregung	kuss	vertrauen	träumen	engstirnig	krank	ausrottung	krise	versagen	töten	genießen	besonnen	vergnügt	gütig	sonnig	gesittet	gemein	bange	verbissen	gierig	sterben	geizig	1	blank2r.bmp	0	1	+	0	1	blank2r.bmp	500	1	CPLW	500	1	blank2r.bmp	880	4	krise	880	1	FEHLER	1437	1	!	-1	1	!	-1	0	0	0
2024-05-10	11:52:58	12:03:05	606437	6.6.1	4_exp_EVA_AWA_CON	23	A	B	Rpleas_acq	Same	Rpleas	2pleas	acq_new_unple_nomask	acq2_nomask	2	18	480	0	300	300	0	0	695	46	1	0	engagiert	kreativ	anregung	kuss	vertrauen	träumen	engstirnig	krank	ausrottung	krise	versagen	töten	genießen	besonnen	vergnügt	gütig	sonnig	gesittet	gemein	bange	verbissen	gierig	sterben	geizig	1	blank2r.bmp	0	1	+	0	1	blank2r.bmp	500	8	C4r.bmp	500	1	blank2r.bmp	880	6	geizig	880	1	!	1313	1	!	-1	0	0	0	0	0	0
2024-05-10	11:52:58	12:03:07	608726	6.6.1	4_exp_EVA_AWA_CON	23	A	B	Rpleas_acq	Same	Rpleas	2pleas	acq_US_unple_nomask	acq2_nomask	2	19	480	1	300	300	0	0	512	46	1	0	engagiert	kreativ	anregung	kuss	vertrauen	träumen	engstirnig	krank	ausrottung	krise	versagen	töten	genießen	besonnen	vergnügt	gütig	sonnig	gesittet	gemein	bange	verbissen	gierig	sterben	geizig	1	blank2r.bmp	0	1	+	0	1	blank2r.bmp	500	1	CPLW	500	1	blank2r.bmp	880	6	töten	880	1	!	1312	1	!	1413	0	0	0	0	0	0
2024-05-10	11:52:58	12:03:09	611165	6.6.1	4_exp_EVA_AWA_CON	23	A	B	Rpleas_acq	Same	Rpleas	2pleas	acq_US_pleas_nomask	acq2_nomask	2	20	480	0	300	300	0	0	660	50	1	0	engagiert	kreativ	anregung	kuss	vertrauen	träumen	engstirnig	krank	ausrottung	krise	versagen	töten	genießen	besonnen	vergnügt	gütig	sonnig	gesittet	gemein	bange	verbissen	gierig	sterben	geizig	1	blank2r.bmp	0	1	+	0	1	blank2r.bmp	500	1	DHJF	500	1	blank2r.bmp	880	3	anregung	880	1	!	1312	1	!	-1	0	0	0	0	0	0
2024-05-10	11:52:58	12:03:12	613628	6.6.1	4_exp_EVA_AWA_CON	23	A	B	Rpleas_acq	Same	Rpleas	2pleas	acq_new_pleas_nomask	acq2_nomask	2	21	480	0	300	300	0	0	683	50	1	0	engagiert	kreativ	anregung	kuss	vertrauen	träumen	engstirnig	krank	ausrottung	krise	versagen	töten	genießen	besonnen	vergnügt	gütig	sonnig	gesittet	gemein	bange	verbissen	gierig	sterben	geizig	1	blank2r.bmp	0	1	+	0	1	blank2r.bmp	500	2	B2r.bmp	500	1	blank2r.bmp	880	2	besonnen	880	1	!	1312	1	!	-1	0	0	0	0	0	0
2024-05-10	11:52:58	12:03:14	615765	6.6.1	4_exp_EVA_AWA_CON	23	A	B	Rpleas_acq	Same	Rpleas	2pleas	acq_US_pleas_nomask	acq2_nomask	2	22	480	0	300	300	0	0	357	50	1	0	engagiert	kreativ	anregung	kuss	vertrauen	träumen	engstirnig	krank	ausrottung	krise	versagen	töten	genießen	besonnen	vergnügt	gütig	sonnig	gesittet	gemein	bange	verbissen	gierig	sterben	geizig	1	blank2r.bmp	0	1	+	0	1	blank2r.bmp	500	1	DHJF	500	1	blank2r.bmp	880	6	träumen	880	1	!	-1	1	!	-1	0	0	0	0	0	0
2024-05-10	11:52:58	12:03:16	618221	6.6.1	4_exp_EVA_AWA_CON	23	A	B	Rpleas_acq	Same	Rpleas	2pleas	acq_US_pleas_nomask	acq2_nomask	2	23	480	0	300	300	0	0	682	50	1	0	engagiert	kreativ	anregung	kuss	vertrauen	träumen	engstirnig	krank	ausrottung	krise	versagen	töten	genießen	besonnen	vergnügt	gütig	sonnig	gesittet	gemein	bange	verbissen	gierig	sterben	geizig	1	blank2r.bmp	0	1	+	0	1	blank2r.bmp	500	1	DHJF	500	1	blank2r.bmp	880	1	engagiert	880	1	!	1312	1	!	-1	0	0	0	0	0	0
2024-05-10	11:52:58	12:03:19	620758	6.6.1	4_exp_EVA_AWA_CON	23	A	B	Rpleas_acq	Same	Rpleas	2pleas	acq_new_unple_nomask	acq2_nomask	2	24	480	0	300	300	0	0	556	50	0	0	engagiert	kreativ	anregung	kuss	vertrauen	träumen	engstirnig	krank	ausrottung	krise	versagen	töten	genießen	besonnen	vergnügt	gütig	sonnig	gesittet	gemein	bange	verbissen	gierig	sterben	geizig	1	blank2r.bmp	0	1	+	0	1	blank2r.bmp	500	5	C1r.bmp	500	1	blank2r.bmp	880	3	verbissen	880	1	FEHLER	1747	1	!	1312	1	!	-1	0	0	0
2024-05-10	11:52:58	12:03:21	623045	6.6.1	4_exp_EVA_AWA_CON	23	A	B	Rpleas_acq	Same	Rpleas	2pleas	acq_US_pleas_nomask	acq2_nomask	2	25	480	0	300	300	0	0	712	50	1	0	engagiert	kreativ	anregung	kuss	vertrauen	träumen	engstirnig	krank	ausrottung	krise	versagen	töten	genießen	besonnen	vergnügt	gütig	sonnig	gesittet	gemein	bange	verbissen	gierig	sterben	geizig	1	blank2r.bmp	0	1	+	0	1	blank2r.bmp	500	1	DHJF	500	1	blank2r.bmp	880	5	vertrauen	880	1	!	1312	1	!	-1	0	0	0	0	0	0
2024-05-10	11:52:58	12:03:24	625479	6.6.1	4_exp_EVA_AWA_CON	23	A	B	Rpleas_acq	Same	Rpleas	2pleas	acq_new_pleas_nomask	acq2_nomask	2	26	480	1	300	300	0	0	453	46	0	0	engagiert	kreativ	anregung	kuss	vertrauen	träumen	engstirnig	krank	ausrottung	krise	versagen	töten	genießen	besonnen	vergnügt	gütig	sonnig	gesittet	gemein	bange	verbissen	gierig	sterben	geizig	1	blank2r.bmp	0	1	+	0	1	blank2r.bmp	500	7	C3r.bmp	500	1	blank2r.bmp	880	3	vergnügt	880	1	FEHLER	1645	1	!	1312	1	!	1354	0	0	0
2024-05-10	11:52:58	12:03:28	629629	6.6.1	4_exp_EVA_AWA_CON	23	A	B	Rpleas_acq	Same	Rpleas	2pleas	acq_new_pleas_nomask	acq2_nomask	2	27	480	0	300	300	0	0	2573	50	1	0	engagiert	kreativ	anregung	kuss	vertrauen	träumen	engstirnig	krank	ausrottung	krise	versagen	töten	genießen	besonnen	vergnügt	gütig	sonnig	gesittet	gemein	bange	verbissen	gierig	sterben	geizig	1	blank2r.bmp	0	1	+	0	1	blank2r.bmp	500	4	B4r.bmp	500	1	blank2r.bmp	880	1	genießen	880	1	!	1312	1	!	-1	0	0	0	0	0	0
2024-05-10	11:52:58	12:03:30	631669	6.6.1	4_exp_EVA_AWA_CON	23	A	B	Rpleas_acq	Same	Rpleas	2pleas	acq_US_pleas_nomask	acq2_nomask	2	28	480	0	300	300	0	0	261	50	1	0	engagiert	kreativ	anregung	kuss	vertrauen	träumen	engstirnig	krank	ausrottung	krise	versagen	töten	genießen	besonnen	vergnügt	gütig	sonnig	gesittet	gemein	bange	verbissen	gierig	sterben	geizig	1	blank2r.bmp	0	1	+	0	1	blank2r.bmp	500	1	DHJF	500	1	blank2r.bmp	880	2	kreativ	880	1	!	-1	1	!	-1	0	0	0	0	0	0
2024-05-10	11:52:58	12:03:32	634173	6.6.1	4_exp_EVA_AWA_CON	23	A	B	Rpleas_acq	Same	Rpleas	2pleas	acq_US_pleas_nomask	acq2_nomask	2	29	480	0	300	300	0	0	723	50	1	0	engagiert	kreativ	anregung	kuss	vertrauen	träumen	engstirnig	krank	ausrottung	krise	versagen	töten	genießen	besonnen	vergnügt	gütig	sonnig	gesittet	gemein	bange	verbissen	gierig	sterben	geizig	1	blank2r.bmp	0	1	+	0	1	blank2r.bmp	500	1	DHJF	500	1	blank2r.bmp	880	4	kuss	880	1	!	1313	1	!	-1	0	0	0	0	0	0
2024-05-10	11:52:58	12:03:35	636645	6.6.1	4_exp_EVA_AWA_CON	23	A	B	Rpleas_acq	Same	Rpleas	2pleas	acq_new_unple_nomask	acq2_nomask	2	30	480	0	300	300	0	0	694	46	1	0	engagiert	kreativ	anregung	kuss	vertrauen	träumen	engstirnig	krank	ausrottung	krise	versagen	töten	genießen	besonnen	vergnügt	gütig	sonnig	gesittet	gemein	bange	verbissen	gierig	sterben	geizig	1	blank2r.bmp	0	1	+	0	1	blank2r.bmp	500	2	B2r.bmp	500	1	blank2r.bmp	880	4	gierig	880	1	!	1312	1	!	-1	0	0	0	0	0	0
2024-05-10	11:52:58	12:03:37	639124	6.6.1	4_exp_EVA_AWA_CON	23	A	B	Rpleas_acq	Same	Rpleas	2pleas	acq_US_unple_nomask	acq2_nomask	2	31	480	0	300	300	0	0	702	46	1	0	engagiert	kreativ	anregung	kuss	vertrauen	träumen	engstirnig	krank	ausrottung	krise	versagen	töten	genießen	besonnen	vergnügt	gütig	sonnig	gesittet	gemein	bange	verbissen	gierig	sterben	geizig	1	blank2r.bmp	0	1	+	0	1	blank2r.bmp	500	1	CPLW	500	1	blank2r.bmp	880	1	engstirnig	880	1	!	1312	1	!	-1	0	0	0	0	0	0
2024-05-10	11:52:58	12:03:40	641725	6.6.1	4_exp_EVA_AWA_CON	23	A	B	Rpleas_acq	Same	Rpleas	2pleas	acq_new_unple_nomask	acq2_nomask	2	32	480	0	300	300	0	0	821	46	1	0	engagiert	kreativ	anregung	kuss	vertrauen	träumen	engstirnig	krank	ausrottung	krise	versagen	töten	genießen	besonnen	vergnügt	gütig	sonnig	gesittet	gemein	bange	verbissen	gierig	sterben	geizig	1	blank2r.bmp	0	1	+	0	1	blank2r.bmp	500	3	B3r.bmp	500	1	blank2r.bmp	880	2	bange	880	1	!	1313	1	!	-1	0	0	0	0	0	0
2024-05-10	11:52:58	12:03:42	644067	6.6.1	4_exp_EVA_AWA_CON	23	A	B	Rpleas_acq	Same	Rpleas	2pleas	acq_new_unple_nomask	acq2_nomask	2	33	480	0	300	300	0	0	563	46	1	0	engagiert	kreativ	anregung	kuss	vertrauen	träumen	engstirnig	krank	ausrottung	krise	versagen	töten	genießen	besonnen	vergnügt	gütig	sonnig	gesittet	gemein	bange	verbissen	gierig	sterben	geizig	1	blank2r.bmp	0	1	+	0	1	blank2r.bmp	500	6	C2r.bmp	500	1	blank2r.bmp	880	5	sterben	880	1	!	1312	1	!	-1	0	0	0	0	0	0
2024-05-10	11:52:58	12:03:45	646390	6.6.1	4_exp_EVA_AWA_CON	23	A	B	Rpleas_acq	Same	Rpleas	2pleas	acq_new_pleas_nomask	acq2_nomask	2	34	480	1	300	300	0	0	541	50	1	0	engagiert	kreativ	anregung	kuss	vertrauen	träumen	engstirnig	krank	ausrottung	krise	versagen	töten	genießen	besonnen	vergnügt	gütig	sonnig	gesittet	gemein	bange	verbissen	gierig	sterben	geizig	1	blank2r.bmp	0	1	+	0	1	blank2r.bmp	500	5	C1r.bmp	500	1	blank2r.bmp	880	4	gütig	880	1	!	1312	1	!	1443	0	0	0	0	0	0
2024-05-10	11:52:58	12:03:47	648836	6.6.1	4_exp_EVA_AWA_CON	23	A	B	Rpleas_acq	Same	Rpleas	2pleas	acq_US_unple_nomask	acq2_nomask	2	35	480	0	300	300	0	0	668	46	1	0	engagiert	kreativ	anregung	kuss	vertrauen	träumen	engstirnig	krank	ausrottung	krise	versagen	töten	genießen	besonnen	vergnügt	gütig	sonnig	gesittet	gemein	bange	verbissen	gierig	sterben	geizig	1	blank2r.bmp	0	1	+	0	1	blank2r.bmp	500	1	CPLW	500	1	blank2r.bmp	880	3	ausrottung	880	1	!	1312	1	!	-1	0	0	0	0	0	0
2024-05-10	11:52:58	12:03:50	651268	6.6.1	4_exp_EVA_AWA_CON	23	A	B	Rpleas_acq	Same	Rpleas	2pleas	acq_US_unple_nomask	acq2_nomask	2	36	480	0	300	300	0	0	658	46	1	0	engagiert	kreativ	anregung	kuss	vertrauen	träumen	engstirnig	krank	ausrottung	krise	versagen	töten	genießen	besonnen	vergnügt	gütig	sonnig	gesittet	gemein	bange	verbissen	gierig	sterben	geizig	1	blank2r.bmp	0	1	+	0	1	blank2r.bmp	500	1	CPLW	500	1	blank2r.bmp	880	2	krank	880	1	!	1312	1	!	-1	0	0	0	0	0	0
2024-05-10	11:52:58	12:04:04	666069	6.6.1	4_exp_EVA_AWA_CON	23	A	B	Rpleas_acq	Same	Rpleas	2pleas	acq_US_unple_nomask	acq3_nomask	3	1	453	0	300	300	0	0	729	46	1	0	engagiert	kreativ	anregung	kuss	vertrauen	träumen	engstirnig	krank	ausrottung	krise	versagen	töten	genießen	besonnen	vergnügt	gütig	sonnig	gesittet	gemein	bange	verbissen	gierig	sterben	geizig	1	blank2r.bmp	0	1	+	0	1	blank2r.bmp	500	1	CPLW	500	1	blank2r.bmp	880	5	versagen	880	1	!	1292	1	!	-1	0	0	0	0	0	0
2024-05-10	11:52:58	12:04:06	668053	6.6.1	4_exp_EVA_AWA_CON	23	A	B	Rpleas_acq	Same	Rpleas	2pleas	acq_US_pleas_nomask	acq3_nomask	3	2	453	0	300	300	0	0	211	50	1	0	engagiert	kreativ	anregung	kuss	vertrauen	träumen	engstirnig	krank	ausrottung	krise	versagen	töten	genießen	besonnen	vergnügt	gütig	sonnig	gesittet	gemein	bange	verbissen	gierig	sterben	geizig	1	blank2r.bmp	0	1	+	0	1	blank2r.bmp	500	1	DHJF	500	1	blank2r.bmp	880	4	kuss	880	1	!	-1	1	!	-1	0	0	0	0	0	0
2024-05-10	11:52:58	12:04:08	670213	6.6.1	4_exp_EVA_AWA_CON	23	A	B	Rpleas_acq	Same	Rpleas	2pleas	acq_US_unple_nomask	acq3_nomask	3	3	453	0	300	300	0	0	380	46	1	0	engagiert	kreativ	anregung	kuss	vertrauen	träumen	engstirnig	krank	ausrottung	krise	versagen	töten	genießen	besonnen	vergnügt	gütig	sonnig	gesittet	gemein	bange	verbissen	gierig	sterben	geizig	1	blank2r.bmp	0	1	+	0	1	blank2r.bmp	500	1	CPLW	500	1	blank2r.bmp	880	2	krank	880	1	!	-1	1	!	-1	0	0	0	0	0	0
2024-05-10	11:52:58	12:04:11	672692	6.6.1	4_exp_EVA_AWA_CON	23	A	B	Rpleas_acq	Same	Rpleas	2pleas	acq_US_unple_nomask	acq3_nomask	3	4	453	0	300	300	0	0	699	46	1	0	engagiert	kreativ	anregung	kuss	vertrauen	träumen	engstirnig	krank	ausrottung	krise	versagen	töten	genießen	besonnen	vergnügt	gütig	sonnig	gesittet	gemein	bange	verbissen	gierig	sterben	geizig	1	blank2r.bmp	0	1	+	0	1	blank2r.bmp	500	1	CPLW	500	1	blank2r.bmp	880	3	ausrottung	880	1	!	1292	1	!	-1	0	0	0	0	0	0
2024-05-10	11:52:58	12:04:13	675117	6.6.1	4_exp_EVA_AWA_CON	23	A	B	Rpleas_acq	Same	Rpleas	2pleas	acq_US_unple_nomask	acq3_nomask	3	5	453	0	300	300	0	0	651	46	1	0	engagiert	kreativ	anregung	kuss	vertrauen	träumen	engstirnig	krank	ausrottung	krise	versagen	töten	genießen	besonnen	vergnügt	gütig	sonnig	gesittet	gemein	bange	verbissen	gierig	sterben	geizig	1	blank2r.bmp	0	1	+	0	1	blank2r.bmp	500	1	CPLW	500	1	blank2r.bmp	880	1	engstirnig	880	1	!	1292	1	!	-1	0	0	0	0	0	0
2024-05-10	11:52:58	12:04:15	677028	6.6.1	4_exp_EVA_AWA_CON	23	A	B	Rpleas_acq	Same	Rpleas	2pleas	acq_US_unple_nomask	acq3_nomask	3	6	453	0	300	300	0	0	131	46	1	0	engagiert	kreativ	anregung	kuss	vertrauen	träumen	engstirnig	krank	ausrottung	krise	versagen	töten	genießen	besonnen	vergnügt	gütig	sonnig	gesittet	gemein	bange	verbissen	gierig	sterben	geizig	1	blank2r.bmp	0	1	+	0	1	blank2r.bmp	500	1	CPLW	500	1	blank2r.bmp	880	6	töten	880	1	!	-1	1	!	-1	0	0	0	0	0	0
2024-05-10	11:52:58	12:04:17	679076	6.6.1	4_exp_EVA_AWA_CON	23	A	B	Rpleas_acq	Same	Rpleas	2pleas	acq_US_unple_nomask	acq3_nomask	3	7	453	0	300	300	0	0	268	46	1	0	engagiert	kreativ	anregung	kuss	vertrauen	träumen	engstirnig	krank	ausrottung	krise	versagen	töten	genießen	besonnen	vergnügt	gütig	sonnig	gesittet	gemein	bange	verbissen	gierig	sterben	geizig	1	blank2r.bmp	0	1	+	0	1	blank2r.bmp	500	1	CPLW	500	1	blank2r.bmp	880	4	krise	880	1	!	-1	1	!	-1	0	0	0	0	0	0
2024-05-10	11:52:58	12:04:20	681469	6.6.1	4_exp_EVA_AWA_CON	23	A	B	Rpleas_acq	Same	Rpleas	2pleas	acq_US_pleas_nomask	acq3_nomask	3	8	453	0	300	300	0	0	619	50	1	0	engagiert	kreativ	anregung	kuss	vertrauen	träumen	engstirnig	krank	ausrottung	krise	versagen	töten	genießen	besonnen	vergnügt	gütig	sonnig	gesittet	gemein	bange	verbissen	gierig	sterben	geizig	1	blank2r.bmp	0	1	+	0	1	blank2r.bmp	500	1	DHJF	500	1	blank2r.bmp	880	2	kreativ	880	1	!	1292	1	!	-1	0	0	0	0	0	0
2024-05-10	11:52:58	12:04:22	683461	6.6.1	4_exp_EVA_AWA_CON	23	A	B	Rpleas_acq	Same	Rpleas	2pleas	acq_US_pleas_nomask	acq3_nomask	3	9	453	0	300	300	0	0	219	50	1	0	engagiert	kreativ	anregung	kuss	vertrauen	träumen	engstirnig	krank	ausrottung	krise	versagen	töten	genießen	besonnen	vergnügt	gütig	sonnig	gesittet	gemein	bange	verbissen	gierig	sterben	geizig	1	blank2r.bmp	0	1	+	0	1	blank2r.bmp	500	1	DHJF	500	1	blank2r.bmp	880	1	engagiert	880	1	!	-1	1	!	-1	0	0	0	0	0	0
2024-05-10	11:52:58	12:04:24	685908	6.6.1	4_exp_EVA_AWA_CON	23	A	B	Rpleas_acq	Same	Rpleas	2pleas	acq_US_pleas_nomask	acq3_nomask	3	10	453	0	300	300	0	0	666	50	1	0	engagiert	kreativ	anregung	kuss	vertrauen	träumen	engstirnig	krank	ausrottung	krise	versagen	töten	genießen	besonnen	vergnügt	gütig	sonnig	gesittet	gemein	bange	verbissen	gierig	sterben	geizig	1	blank2r.bmp	0	1	+	0	1	blank2r.bmp	500	1	DHJF	500	1	blank2r.bmp	880	3	anregung	880	1	!	1292	1	!	-1	0	0	0	0	0	0
2024-05-10	11:52:58	12:04:26	688127	6.6.1	4_exp_EVA_AWA_CON	23	A	B	Rpleas_acq	Same	Rpleas	2pleas	acq_US_pleas_nomask	acq3_nomask	3	11	453	1	300	300	0	0	440	50	1	0	engagiert	kreativ	anregung	kuss	vertrauen	träumen	engstirnig	krank	ausrottung	krise	versagen	töten	genießen	besonnen	vergnügt	gütig	sonnig	gesittet	gemein	bange	verbissen	gierig	sterben	geizig	1	blank2r.bmp	0	1	+	0	1	blank2r.bmp	500	1	DHJF	500	1	blank2r.bmp	880	5	vertrauen	880	1	!	1292	1	!	1342	0	0	0	0	0	0
2024-05-10	11:52:58	12:04:29	690557	6.6.1	4_exp_EVA_AWA_CON	23	A	B	Rpleas_acq	Same	Rpleas	2pleas	acq_US_pleas_nomask	acq3_nomask	3	12	453	0	300	300	0	0	651	50	1	0	engagiert	kreativ	anregung	kuss	vertrauen	träumen	engstirnig	krank	ausrottung	krise	versagen	töten	genießen	besonnen	vergnügt	gütig	sonnig	gesittet	gemein	bange	verbissen	gierig	sterben	geizig	1	blank2r.bmp	0	1	+	0	1	blank2r.bmp	500	1	DHJF	500	1	blank2r.bmp	880	6	träumen	880	1	!	1293	1	!	-1	0	0	0	0	0	0
2024-05-10	11:52:58	12:04:31	692790	6.6.1	4_exp_EVA_AWA_CON	23	A	B	Rpleas_acq	Same	Rpleas	2pleas	acq_US_unple_nomask	acq3_nomask	3	13	453	1	300	300	0	0	452	46	1	0	engagiert	kreativ	anregung	kuss	vertrauen	träumen	engstirnig	krank	ausrottung	krise	versagen	töten	genießen	besonnen	vergnügt	gütig	sonnig	gesittet	gemein	bange	verbissen	gierig	sterben	geizig	1	blank2r.bmp	0	1	+	0	1	blank2r.bmp	500	1	CPLW	500	1	blank2r.bmp	880	2	krank	880	1	!	1292	1	!	1352	0	0	0	0	0	0
2024-05-10	11:52:58	12:04:33	695172	6.6.1	4_exp_EVA_AWA_CON	23	A	B	Rpleas_acq	Same	Rpleas	2pleas	acq_US_unple_nomask	acq3_nomask	3	14	453	0	300	300	0	0	603	46	1	0	engagiert	kreativ	anregung	kuss	vertrauen	träumen	engstirnig	krank	ausrottung	krise	versagen	töten	genießen	besonnen	vergnügt	gütig	sonnig	gesittet	gemein	bange	verbissen	gierig	sterben	geizig	1	blank2r.bmp	0	1	+	0	1	blank2r.bmp	500	1	CPLW	500	1	blank2r.bmp	880	6	töten	880	1	!	1292	1	!	-1	0	0	0	0	0	0
2024-05-10	11:52:58	12:04:36	697548	6.6.1	4_exp_EVA_AWA_CON	23	A	B	Rpleas_acq	Same	Rpleas	2pleas	acq_US_pleas_nomask	acq3_nomask	3	15	453	0	300	300	0	0	599	50	1	0	engagiert	kreativ	anregung	kuss	vertrauen	träumen	engstirnig	krank	ausrottung	krise	versagen	töten	genießen	besonnen	vergnügt	gütig	sonnig	gesittet	gemein	bange	verbissen	gierig	sterben	geizig	1	blank2r.bmp	0	1	+	0	1	blank2r.bmp	500	1	DHJF	500	1	blank2r.bmp	880	5	vertrauen	880	1	!	1292	1	!	-1	0	0	0	0	0	0
2024-05-10	11:52:58	12:04:38	699868	6.6.1	4_exp_EVA_AWA_CON	23	A	B	Rpleas_acq	Same	Rpleas	2pleas	acq_US_unple_nomask	acq3_nomask	3	16	453	0	300	300	0	0	547	46	1	0	engagiert	kreativ	anregung	kuss	vertrauen	träumen	engstirnig	krank	ausrottung	krise	versagen	töten	genießen	besonnen	vergnügt	gütig	sonnig	gesittet	gemein	bange	verbissen	gierig	sterben	geizig	1	blank2r.bmp	0	1	+	0	1	blank2r.bmp	500	1	CPLW	500	1	blank2r.bmp	880	4	krise	880	1	!	1292	1	!	-1	0	0	0	0	0	0
2024-05-10	11:52:58	12:04:40	701900	6.6.1	4_exp_EVA_AWA_CON	23	A	B	Rpleas_acq	Same	Rpleas	2pleas	acq_US_unple_nomask	acq3_nomask	3	17	453	0	300	300	0	0	258	46	1	0	engagiert	kreativ	anregung	kuss	vertrauen	träumen	engstirnig	krank	ausrottung	krise	versagen	töten	genießen	besonnen	vergnügt	gütig	sonnig	gesittet	gemein	bange	verbissen	gierig	sterben	geizig	1	blank2r.bmp	0	1	+	0	1	blank2r.bmp	500	1	CPLW	500	1	blank2r.bmp	880	5	versagen	880	1	!	-1	1	!	-1	0	0	0	0	0	0
2024-05-10	11:52:58	12:04:42	703877	6.6.1	4_exp_EVA_AWA_CON	23	A	B	Rpleas_acq	Same	Rpleas	2pleas	acq_US_pleas_nomask	acq3_nomask	3	18	453	0	300	300	0	0	202	50	1	0	engagiert	kreativ	anregung	kuss	vertrauen	träumen	engstirnig	krank	ausrottung	krise	versagen	töten	genießen	besonnen	vergnügt	gütig	sonnig	gesittet	gemein	bange	verbissen	gierig	sterben	geizig	1	blank2r.bmp	0	1	+	0	1	blank2r.bmp	500	1	DHJF	500	1	blank2r.bmp	880	6	träumen	880	1	!	-1	1	!	-1	0	0	0	0	0	0
2024-05-10	11:52:58	12:04:45	706325	6.6.1	4_exp_EVA_AWA_CON	23	A	B	Rpleas_acq	Same	Rpleas	2pleas	acq_US_pleas_nomask	acq3_nomask	3	19	453	0	300	300	0	0	669	50	1	0	engagiert	kreativ	anregung	kuss	vertrauen	träumen	engstirnig	krank	ausrottung	krise	versagen	töten	genießen	besonnen	vergnügt	gütig	sonnig	gesittet	gemein	bange	verbissen	gierig	sterben	geizig	1	blank2r.bmp	0	1	+	0	1	blank2r.bmp	500	1	DHJF	500	1	blank2r.bmp	880	1	engagiert	880	1	!	1292	1	!	-1	0	0	0	0	0	0
2024-05-10	11:52:58	12:04:47	708700	6.6.1	4_exp_EVA_AWA_CON	23	A	B	Rpleas_acq	Same	Rpleas	2pleas	acq_US_unple_nomask	acq3_nomask	3	20	453	0	300	300	0	0	603	46	1	0	engagiert	kreativ	anregung	kuss	vertrauen	träumen	engstirnig	krank	ausrottung	krise	versagen	töten	genießen	besonnen	vergnügt	gütig	sonnig	gesittet	gemein	bange	verbissen	gierig	sterben	geizig	1	blank2r.bmp	0	1	+	0	1	blank2r.bmp	500	1	CPLW	500	1	blank2r.bmp	880	3	ausrottung	880	1	!	1292	1	!	-1	0	0	0	0	0	0
2024-05-10	11:52:58	12:04:49	711180	6.6.1	4_exp_EVA_AWA_CON	23	A	B	Rpleas_acq	Same	Rpleas	2pleas	acq_US_pleas_nomask	acq3_nomask	3	21	453	0	300	300	0	0	702	50	1	0	engagiert	kreativ	anregung	kuss	vertrauen	träumen	engstirnig	krank	ausrottung	krise	versagen	töten	genießen	besonnen	vergnügt	gütig	sonnig	gesittet	gemein	bange	verbissen	gierig	sterben	geizig	1	blank2r.bmp	0	1	+	0	1	blank2r.bmp	500	1	DHJF	500	1	blank2r.bmp	880	3	anregung	880	1	!	1292	1	!	-1	0	0	0	0	0	0
2024-05-10	11:52:58	12:04:52	713524	6.6.1	4_exp_EVA_AWA_CON	23	A	B	Rpleas_acq	Same	Rpleas	2pleas	acq_US_pleas_nomask	acq3_nomask	3	22	453	0	300	300	0	0	564	50	1	0	engagiert	kreativ	anregung	kuss	vertrauen	träumen	engstirnig	krank	ausrottung	krise	versagen	töten	genießen	besonnen	vergnügt	gütig	sonnig	gesittet	gemein	bange	verbissen	gierig	sterben	geizig	1	blank2r.bmp	0	1	+	0	1	blank2r.bmp	500	1	DHJF	500	1	blank2r.bmp	880	4	kuss	880	1	!	1292	1	!	-1	0	0	0	0	0	0
2024-05-10	11:52:58	12:04:54	715973	6.6.1	4_exp_EVA_AWA_CON	23	A	B	Rpleas_acq	Same	Rpleas	2pleas	acq_US_pleas_nomask	acq3_nomask	3	23	453	0	300	300	0	0	671	50	1	0	engagiert	kreativ	anregung	kuss	vertrauen	träumen	engstirnig	krank	ausrottung	krise	versagen	töten	genießen	besonnen	vergnügt	gütig	sonnig	gesittet	gemein	bange	verbissen	gierig	sterben	geizig	1	blank2r.bmp	0	1	+	0	1	blank2r.bmp	500	1	DHJF	500	1	blank2r.bmp	880	2	kreativ	880	1	!	1292	1	!	-1	0	0	0	0	0	0
2024-05-10	11:52:58	12:04:57	718405	6.6.1	4_exp_EVA_AWA_CON	23	A	B	Rpleas_acq	Same	Rpleas	2pleas	acq_US_unple_nomask	acq3_nomask	3	24	453	0	300	300	0	0	651	46	1	0	engagiert	kreativ	anregung	kuss	vertrauen	träumen	engstirnig	krank	ausrottung	krise	versagen	töten	genießen	besonnen	vergnügt	gütig	sonnig	gesittet	gemein	bange	verbissen	gierig	sterben	geizig	1	blank2r.bmp	0	1	+	0	1	blank2r.bmp	500	1	CPLW	500	1	blank2r.bmp	880	1	engstirnig	880	1	!	1292	1	!	-1	0	0	0	0	0	0
2024-05-10	11:52:58	12:04:59	720421	6.6.1	4_exp_EVA_AWA_CON	23	A	B	Rpleas_acq	Same	Rpleas	2pleas	acq_US_unple_nomask	acq3_nomask	3	25	453	0	300	300	0	0	236	46	1	0	engagiert	kreativ	anregung	kuss	vertrauen	träumen	engstirnig	krank	ausrottung	krise	versagen	töten	genießen	besonnen	vergnügt	gütig	sonnig	gesittet	gemein	bange	verbissen	gierig	sterben	geizig	1	blank2r.bmp	0	1	+	0	1	blank2r.bmp	500	1	CPLW	500	1	blank2r.bmp	880	5	versagen	880	1	!	-1	1	!	-1	0	0	0	0	0	0
2024-05-10	11:52:58	12:05:01	722469	6.6.1	4_exp_EVA_AWA_CON	23	A	B	Rpleas_acq	Same	Rpleas	2pleas	acq_US_pleas_nomask	acq3_nomask	3	26	453	0	300	300	0	0	272	50	1	0	engagiert	kreativ	anregung	kuss	vertrauen	träumen	engstirnig	krank	ausrottung	krise	versagen	töten	genießen	besonnen	vergnügt	gütig	sonnig	gesittet	gemein	bange	verbissen	gierig	sterben	geizig	1	blank2r.bmp	0	1	+	0	1	blank2r.bmp	500	1	DHJF	500	1	blank2r.bmp	880	1	engagiert	880	1	!	-1	1	!	-1	0	0	0	0	0	0
2024-05-10	11:52:58	12:05:03	724509	6.6.1	4_exp_EVA_AWA_CON	23	A	B	Rpleas_acq	Same	Rpleas	2pleas	acq_US_unple_nomask	acq3_nomask	3	27	453	0	300	300	0	0	260	46	1	0	engagiert	kreativ	anregung	kuss	vertrauen	träumen	engstirnig	krank	ausrottung	krise	versagen	töten	genießen	besonnen	vergnügt	gütig	sonnig	gesittet	gemein	bange	verbissen	gierig	sterben	geizig	1	blank2r.bmp	0	1	+	0	1	blank2r.bmp	500	1	CPLW	500	1	blank2r.bmp	880	6	töten	880	1	!	-1	1	!	-1	0	0	0	0	0	0
2024-05-10	11:52:58	12:05:05	726636	6.6.1	4_exp_EVA_AWA_CON	23	A	B	Rpleas_acq	Same	Rpleas	2pleas	acq_US_pleas_nomask	acq3_nomask	3	28	453	0	300	300	0	0	348	50	1	0	engagiert	kreativ	anregung	kuss	vertrauen	träumen	engstirnig	krank	ausrottung	krise	versagen	töten	genießen	besonnen	vergnügt	gütig	sonnig	gesittet	gemein	bange	verbissen	gierig	sterben	geizig	1	blank2r.bmp	0	1	+	0	1	blank2r.bmp	500	1	DHJF	500	1	blank2r.bmp	880	5	vertrauen	880	1	!	-1	1	!	-1	0	0	0	0	0	0
2024-05-10	11:52:58	12:05:07	728501	6.6.1	4_exp_EVA_AWA_CON	23	A	B	Rpleas_acq	Same	Rpleas	2pleas	acq_US_unple_nomask	acq3_nomask	3	29	453	0	300	300	0	0	90	46	1	0	engagiert	kreativ	anregung	kuss	vertrauen	träumen	engstirnig	krank	ausrottung	krise	versagen	töten	genießen	besonnen	vergnügt	gütig	sonnig	gesittet	gemein	bange	verbissen	gierig	sterben	geizig	1	blank2r.bmp	0	1	+	0	1	blank2r.bmp	500	1	CPLW	500	1	blank2r.bmp	880	3	ausrottung	880	1	!	-1	1	!	-1	0	0	0	0	0	0
2024-05-10	11:52:58	12:05:09	730588	6.6.1	4_exp_EVA_AWA_CON	23	A	B	Rpleas_acq	Same	Rpleas	2pleas	acq_US_pleas_nomask	acq3_nomask	3	30	453	0	300	300	0	0	307	50	1	0	engagiert	kreativ	anregung	kuss	vertrauen	träumen	engstirnig	krank	ausrottung	krise	versagen	töten	genießen	besonnen	vergnügt	gütig	sonnig	gesittet	gemein	bange	verbissen	gierig	sterben	geizig	1	blank2r.bmp	0	1	+	0	1	blank2r.bmp	500	1	DHJF	500	1	blank2r.bmp	880	6	träumen	880	1	!	-1	1	!	-1	0	0	0	0	0	0
2024-05-10	11:52:58	12:05:11	733117	6.6.1	4_exp_EVA_AWA_CON	23	A	B	Rpleas_acq	Same	Rpleas	2pleas	acq_US_unple_nomask	acq3_nomask	3	31	453	0	300	300	0	0	754	46	1	0	engagiert	kreativ	anregung	kuss	vertrauen	träumen	engstirnig	krank	ausrottung	krise	versagen	töten	genießen	besonnen	vergnügt	gütig	sonnig	gesittet	gemein	bange	verbissen	gierig	sterben	geizig	1	blank2r.bmp	0	1	+	0	1	blank2r.bmp	500	1	CPLW	500	1	blank2r.bmp	880	2	krank	880	1	!	1292	1	!	-1	0	0	0	0	0	0
2024-05-10	11:52:58	12:05:14	735616	6.6.1	4_exp_EVA_AWA_CON	23	A	B	Rpleas_acq	Same	Rpleas	2pleas	acq_US_pleas_nomask	acq3_nomask	3	32	453	1	300	300	0	0	518	46	0	0	engagiert	kreativ	anregung	kuss	vertrauen	träumen	engstirnig	krank	ausrottung	krise	versagen	töten	genießen	besonnen	vergnügt	gütig	sonnig	gesittet	gemein	bange	verbissen	gierig	sterben	geizig	1	blank2r.bmp	0	1	+	0	1	blank2r.bmp	500	1	DHJF	500	1	blank2r.bmp	880	3	anregung	880	1	FEHLER	1711	1	!	1293	1	!	1419	0	0	0
2024-05-10	11:52:58	12:05:16	737877	6.6.1	4_exp_EVA_AWA_CON	23	A	B	Rpleas_acq	Same	Rpleas	2pleas	acq_US_pleas_nomask	acq3_nomask	3	33	453	0	300	300	0	0	680	50	1	0	engagiert	kreativ	anregung	kuss	vertrauen	träumen	engstirnig	krank	ausrottung	krise	versagen	töten	genießen	besonnen	vergnügt	gütig	sonnig	gesittet	gemein	bange	verbissen	gierig	sterben	geizig	1	blank2r.bmp	0	1	+	0	1	blank2r.bmp	500	1	DHJF	500	1	blank2r.bmp	880	4	kuss	880	1	!	1292	1	!	-1	0	0	0	0	0	0
2024-05-10	11:52:58	12:05:18	739996	6.6.1	4_exp_EVA_AWA_CON	23	A	B	Rpleas_acq	Same	Rpleas	2pleas	acq_US_unple_nomask	acq3_nomask	3	34	453	0	300	300	0	0	339	46	1	0	engagiert	kreativ	anregung	kuss	vertrauen	träumen	engstirnig	krank	ausrottung	krise	versagen	töten	genießen	besonnen	vergnügt	gütig	sonnig	gesittet	gemein	bange	verbissen	gierig	sterben	geizig	1	blank2r.bmp	0	1	+	0	1	blank2r.bmp	500	1	CPLW	500	1	blank2r.bmp	880	4	krise	880	1	!	-1	1	!	-1	0	0	0	0	0	0
2024-05-10	11:52:58	12:05:21	742332	6.6.1	4_exp_EVA_AWA_CON	23	A	B	Rpleas_acq	Same	Rpleas	2pleas	acq_US_unple_nomask	acq3_nomask	3	35	453	0	300	300	0	0	564	46	1	0	engagiert	kreativ	anregung	kuss	vertrauen	träumen	engstirnig	krank	ausrottung	krise	versagen	töten	genießen	besonnen	vergnügt	gütig	sonnig	gesittet	gemein	bange	verbissen	gierig	sterben	geizig	1	blank2r.bmp	0	1	+	0	1	blank2r.bmp	500	1	CPLW	500	1	blank2r.bmp	880	1	engstirnig	880	1	!	1292	1	!	-1	0	0	0	0	0	0
2024-05-10	11:52:58	12:05:23	744590	6.6.1	4_exp_EVA_AWA_CON	23	A	B	Rpleas_acq	Same	Rpleas	2pleas	acq_US_pleas_nomask	acq3_nomask	3	36	453	1	300	300	0	0	478	50	1	0	engagiert	kreativ	anregung	kuss	vertrauen	träumen	engstirnig	krank	ausrottung	krise	versagen	töten	genießen	besonnen	vergnügt	gütig	sonnig	gesittet	gemein	bange	verbissen	gierig	sterben	geizig	1	blank2r.bmp	0	1	+	0	1	blank2r.bmp	500	1	DHJF	500	1	blank2r.bmp	880	2	kreativ	880	1	!	1293	1	!	1379	0	0	0	0	0	0
2024-05-10	11:52:58	12:05:36	758044	6.6.1	4_exp_EVA_AWA_CON	23	A	B	Rpleas_acq	Same	Rpleas	2pleas	acq_US_unple_nomask	acq45_nomask	4	1	400	0	300	300	0	0	626	46	1	0	engagiert	kreativ	anregung	kuss	vertrauen	träumen	engstirnig	krank	ausrottung	krise	versagen	töten	genießen	besonnen	vergnügt	gütig	sonnig	gesittet	gemein	bange	verbissen	gierig	sterben	geizig	1	blank2r.bmp	0	1	+	0	1	blank2r.bmp	500	1	CPLW	500	1	blank2r.bmp	880	3	ausrottung	880	1	!	1232	1	!	-1	0	0	0	0	0	0
2024-05-10	11:52:58	12:05:38	760166	6.6.1	4_exp_EVA_AWA_CON	23	A	B	Rpleas_acq	Same	Rpleas	2pleas	acq_US_unple_nomask	acq45_nomask	4	2	400	1	300	300	0	0	344	46	1	0	engagiert	kreativ	anregung	kuss	vertrauen	träumen	engstirnig	krank	ausrottung	krise	versagen	töten	genießen	besonnen	vergnügt	gütig	sonnig	gesittet	gemein	bange	verbissen	gierig	sterben	geizig	1	blank2r.bmp	0	1	+	0	1	blank2r.bmp	500	1	CPLW	500	1	blank2r.bmp	880	1	engstirnig	880	1	!	1232	1	!	1245	0	0	0	0	0	0
2024-05-10	11:52:58	12:05:40	762020	6.6.1	4_exp_EVA_AWA_CON	23	A	B	Rpleas_acq	Same	Rpleas	2pleas	acq_US_pleas_nomask	acq45_nomask	4	3	400	0	300	300	0	0	79	50	1	0	engagiert	kreativ	anregung	kuss	vertrauen	träumen	engstirnig	krank	ausrottung	krise	versagen	töten	genießen	besonnen	vergnügt	gütig	sonnig	gesittet	gemein	bange	verbissen	gierig	sterben	geizig	1	blank2r.bmp	0	1	+	0	1	blank2r.bmp	500	1	DHJF	500	1	blank2r.bmp	880	6	träumen	880	1	!	-1	1	!	-1	0	0	0	0	0	0
2024-05-10	11:52:58	12:05:43	764373	6.6.1	4_exp_EVA_AWA_CON	23	A	B	Rpleas_acq	Same	Rpleas	2pleas	acq_US_pleas_nomask	acq45_nomask	4	4	400	0	300	300	0	0	580	50	1	0	engagiert	kreativ	anregung	kuss	vertrauen	träumen	engstirnig	krank	ausrottung	krise	versagen	töten	genießen	besonnen	vergnügt	gütig	sonnig	gesittet	gemein	bange	verbissen	gierig	sterben	geizig	1	blank2r.bmp	0	1	+	0	1	blank2r.bmp	500	1	DHJF	500	1	blank2r.bmp	880	5	vertrauen	880	1	!	1232	1	!	-1	0	0	0	0	0	0
2024-05-10	11:52:58	12:05:45	766700	6.6.1	4_exp_EVA_AWA_CON	23	A	B	Rpleas_acq	Same	Rpleas	2pleas	acq_US_pleas_nomask	acq45_nomask	4	5	400	0	300	300	0	0	556	50	1	0	engagiert	kreativ	anregung	kuss	vertrauen	träumen	engstirnig	krank	ausrottung	krise	versagen	töten	genießen	besonnen	vergnügt	gütig	sonnig	gesittet	gemein	bange	verbissen	gierig	sterben	geizig	1	blank2r.bmp	0	1	+	0	1	blank2r.bmp	500	1	DHJF	500	1	blank2r.bmp	880	2	kreativ	880	1	!	1232	1	!	-1	0	0	0	0	0	0
2024-05-10	11:52:58	12:05:47	768709	6.6.1	4_exp_EVA_AWA_CON	23	A	B	Rpleas_acq	Same	Rpleas	2pleas	acq_US_unple_nomask	acq45_nomask	4	6	400	0	300	300	0	0	233	46	1	0	engagiert	kreativ	anregung	kuss	vertrauen	träumen	engstirnig	krank	ausrottung	krise	versagen	töten	genießen	besonnen	vergnügt	gütig	sonnig	gesittet	gemein	bange	verbissen	gierig	sterben	geizig	1	blank2r.bmp	0	1	+	0	1	blank2r.bmp	500	1	CPLW	500	1	blank2r.bmp	880	4	krise	880	1	!	-1	1	!	-1	0	0	0	0	0	0
2024-05-10	11:52:58	12:05:49	770652	6.6.1	4_exp_EVA_AWA_CON	23	A	B	Rpleas_acq	Same	Rpleas	2pleas	acq_US_pleas_nomask	acq45_nomask	4	7	400	0	300	300	0	0	164	50	1	0	engagiert	kreativ	anregung	kuss	vertrauen	träumen	engstirnig	krank	ausrottung	krise	versagen	töten	genießen	besonnen	vergnügt	gütig	sonnig	gesittet	gemein	bange	verbissen	gierig	sterben	geizig	1	blank2r.bmp	0	1	+	0	1	blank2r.bmp	500	1	DHJF	500	1	blank2r.bmp	880	1	engagiert	880	1	!	-1	1	!	-1	0	0	0	0	0	0
2024-05-10	11:52:58	12:05:51	773076	6.6.1	4_exp_EVA_AWA_CON	23	A	B	Rpleas_acq	Same	Rpleas	2pleas	acq_US_unple_nomask	acq45_nomask	4	8	400	0	300	300	0	0	648	46	1	0	engagiert	kreativ	anregung	kuss	vertrauen	träumen	engstirnig	krank	ausrottung	krise	versagen	töten	genießen	besonnen	vergnügt	gütig	sonnig	gesittet	gemein	bange	verbissen	gierig	sterben	geizig	1	blank2r.bmp	0	1	+	0	1	blank2r.bmp	500	1	CPLW	500	1	blank2r.bmp	880	6	töten	880	1	!	1232	1	!	-1	0	0	0	0	0	0
2024-05-10	11:52:58	12:05:54	775271	6.6.1	4_exp_EVA_AWA_CON	23	A	B	Rpleas_acq	Same	Rpleas	2pleas	acq_US_unple_nomask	acq45_nomask	4	9	400	1	300	300	0	0	419	46	1	0	engagiert	kreativ	anregung	kuss	vertrauen	träumen	engstirnig	krank	ausrottung	krise	versagen	töten	genießen	besonnen	vergnügt	gütig	sonnig	gesittet	gemein	bange	verbissen	gierig	sterben	geizig	1	blank2r.bmp	0	1	+	0	1	blank2r.bmp	500	1	CPLW	500	1	blank2r.bmp	880	2	krank	880	1	!	1232	1	!	1319	0	0	0	0	0	0
2024-05-10	11:52:58	12:05:56	777604	6.6.1	4_exp_EVA_AWA_CON	23	A	B	Rpleas_acq	Same	Rpleas	2pleas	acq_US_unple_nomask	acq45_nomask	4	10	400	0	300	300	0	0	552	46	1	0	engagiert	kreativ	anregung	kuss	vertrauen	träumen	engstirnig	krank	ausrottung	krise	versagen	töten	genießen	besonnen	vergnügt	gütig	sonnig	gesittet	gemein	bange	verbissen	gierig	sterben	geizig	1	blank2r.bmp	0	1	+	0	1	blank2r.bmp	500	1	CPLW	500	1	blank2r.bmp	880	5	versagen	880	1	!	1232	1	!	-1	0	0	0	0	0	0
2024-05-10	11:52:58	12:05:58	779564	6.6.1	4_exp_EVA_AWA_CON	23	A	B	Rpleas_acq	Same	Rpleas	2pleas	acq_US_pleas_nomask	acq45_nomask	4	11	400	0	300	300	0	0	182	50	1	0	engagiert	kreativ	anregung	kuss	vertrauen	träumen	engstirnig	krank	ausrottung	krise	versagen	töten	genießen	besonnen	vergnügt	gütig	sonnig	gesittet	gemein	bange	verbissen	gierig	sterben	geizig	1	blank2r.bmp	0	1	+	0	1	blank2r.bmp	500	1	DHJF	500	1	blank2r.bmp	880	4	kuss	880	1	!	-1	1	!	-1	0	0	0	0	0	0
2024-05-10	11:52:58	12:06:00	781940	6.6.1	4_exp_EVA_AWA_CON	23	A	B	Rpleas_acq	Same	Rpleas	2pleas	acq_US_pleas_nomask	acq45_nomask	4	12	400	0	300	300	0	0	595	50	1	0	engagiert	kreativ	anregung	kuss	vertrauen	träumen	engstirnig	krank	ausrottung	krise	versagen	töten	genießen	besonnen	vergnügt	gütig	sonnig	gesittet	gemein	bange	verbissen	gierig	sterben	geizig	1	blank2r.bmp	0	1	+	0	1	blank2r.bmp	500	1	DHJF	500	1	blank2r.bmp	880	3	anregung	880	1	!	1232	1	!	-1	0	0	0	0	0	0
2024-05-10	11:52:58	12:06:02	784062	6.6.1	4_exp_EVA_AWA_CON	23	A	B	Rpleas_acq	Same	Rpleas	2pleas	acq_US_unple_nomask	acq45_nomask	4	13	400	1	300	300	0	0	344	46	1	0	engagiert	kreativ	anregung	kuss	vertrauen	träumen	engstirnig	krank	ausrottung	krise	versagen	töten	genießen	besonnen	vergnügt	gütig	sonnig	gesittet	gemein	bange	verbissen	gierig	sterben	geizig	1	blank2r.bmp	0	1	+	0	1	blank2r.bmp	500	1	CPLW	500	1	blank2r.bmp	880	2	krank	880	1	!	1232	1	!	1246	0	0	0	0	0	0
2024-05-10	11:52:58	12:06:05	786315	6.6.1	4_exp_EVA_AWA_CON	23	A	B	Rpleas_acq	Same	Rpleas	2pleas	acq_US_pleas_nomask	acq45_nomask	4	14	400	0	300	300	0	0	480	50	1	0	engagiert	kreativ	anregung	kuss	vertrauen	träumen	engstirnig	krank	ausrottung	krise	versagen	töten	genießen	besonnen	vergnügt	gütig	sonnig	gesittet	gemein	bange	verbissen	gierig	sterben	geizig	1	blank2r.bmp	0	1	+	0	1	blank2r.bmp	500	1	DHJF	500	1	blank2r.bmp	880	2	kreativ	880	1	!	1232	1	!	-1	0	0	0	0	0	0
2024-05-10	11:52:58	12:06:07	788692	6.6.1	4_exp_EVA_AWA_CON	23	A	B	Rpleas_acq	Same	Rpleas	2pleas	acq_US_unple_nomask	acq45_nomask	4	15	400	0	300	300	0	0	604	46	1	0	engagiert	kreativ	anregung	kuss	vertrauen	träumen	engstirnig	krank	ausrottung	krise	versagen	töten	genießen	besonnen	vergnügt	gütig	sonnig	gesittet	gemein	bange	verbissen	gierig	sterben	geizig	1	blank2r.bmp	0	1	+	0	1	blank2r.bmp	500	1	CPLW	500	1	blank2r.bmp	880	1	engstirnig	880	1	!	1232	1	!	-1	0	0	0	0	0	0
2024-05-10	11:52:58	12:06:09	790764	6.6.1	4_exp_EVA_AWA_CON	23	A	B	Rpleas_acq	Same	Rpleas	2pleas	acq_US_unple_nomask	acq45_nomask	4	16	400	0	300	300	0	0	295	46	1	0	engagiert	kreativ	anregung	kuss	vertrauen	träumen	engstirnig	krank	ausrottung	krise	versagen	töten	genießen	besonnen	vergnügt	gütig	sonnig	gesittet	gemein	bange	verbissen	gierig	sterben	geizig	1	blank2r.bmp	0	1	+	0	1	blank2r.bmp	500	1	CPLW	500	1	blank2r.bmp	880	4	krise	880	1	!	-1	1	!	-1	0	0	0	0	0	0
2024-05-10	11:52:58	12:06:11	793006	6.6.1	4_exp_EVA_AWA_CON	23	A	B	Rpleas_acq	Same	Rpleas	2pleas	acq_US_pleas_nomask	acq45_nomask	4	17	400	1	300	300	0	0	463	50	1	0	engagiert	kreativ	anregung	kuss	vertrauen	träumen	engstirnig	krank	ausrottung	krise	versagen	töten	genießen	besonnen	vergnügt	gütig	sonnig	gesittet	gemein	bange	verbissen	gierig	sterben	geizig	1	blank2r.bmp	0	1	+	0	1	blank2r.bmp	500	1	DHJF	500	1	blank2r.bmp	880	5	vertrauen	880	1	!	1232	1	!	1364	0	0	0	0	0	0
2024-05-10	11:52:58	12:06:14	795380	6.6.1	4_exp_EVA_AWA_CON	23	A	B	Rpleas_acq	Same	Rpleas	2pleas	acq_US_pleas_nomask	acq45_nomask	4	18	400	0	300	300	0	0	597	50	1	0	engagiert	kreativ	anregung	kuss	vertrauen	träumen	engstirnig	krank	ausrottung	krise	versagen	töten	genießen	besonnen	vergnügt	gütig	sonnig	gesittet	gemein	bange	verbissen	gierig	sterben	geizig	1	blank2r.bmp	0	1	+	0	1	blank2r.bmp	500	1	DHJF	500	1	blank2r.bmp	880	4	kuss	880	1	!	1232	1	!	-1	0	0	0	0	0	0
2024-05-10	11:52:58	12:06:16	797748	6.6.1	4_exp_EVA_AWA_CON	23	A	B	Rpleas_acq	Same	Rpleas	2pleas	acq_US_unple_nomask	acq45_nomask	4	19	400	0	300	300	0	0	594	46	1	0	engagiert	kreativ	anregung	kuss	vertrauen	träumen	engstirnig	krank	ausrottung	krise	versagen	töten	genießen	besonnen	vergnügt	gütig	sonnig	gesittet	gemein	bange	verbissen	gierig	sterben	geizig	1	blank2r.bmp	0	1	+	0	1	blank2r.bmp	500	1	CPLW	500	1	blank2r.bmp	880	6	töten	880	1	!	1232	1	!	-1	0	0	0	0	0	0
2024-05-10	11:52:58	12:06:18	800092	6.6.1	4_exp_EVA_AWA_CON	23	A	B	Rpleas_acq	Same	Rpleas	2pleas	acq_US_pleas_nomask	acq45_nomask	4	20	400	0	300	300	0	0	566	50	1	0	engagiert	kreativ	anregung	kuss	vertrauen	träumen	engstirnig	krank	ausrottung	krise	versagen	töten	genießen	besonnen	vergnügt	gütig	sonnig	gesittet	gemein	bange	verbissen	gierig	sterben	geizig	1	blank2r.bmp	0	1	+	0	1	blank2r.bmp	500	1	DHJF	500	1	blank2r.bmp	880	1	engagiert	880	1	!	1232	1	!	-1	0	0	0	0	0	0
2024-05-10	11:52:58	12:06:21	802517	6.6.1	4_exp_EVA_AWA_CON	23	A	B	Rpleas_acq	Same	Rpleas	2pleas	acq_US_pleas_nomask	acq45_nomask	4	21	400	0	300	300	0	0	649	50	1	0	engagiert	kreativ	anregung	kuss	vertrauen	träumen	engstirnig	krank	ausrottung	krise	versagen	töten	genießen	besonnen	vergnügt	gütig	sonnig	gesittet	gemein	bange	verbissen	gierig	sterben	geizig	1	blank2r.bmp	0	1	+	0	1	blank2r.bmp	500	1	DHJF	500	1	blank2r.bmp	880	3	anregung	880	1	!	1232	1	!	-1	0	0	0	0	0	0
2024-05-10	11:52:58	12:06:23	804820	6.6.1	4_exp_EVA_AWA_CON	23	A	B	Rpleas_acq	Same	Rpleas	2pleas	acq_US_unple_nomask	acq45_nomask	4	22	400	0	300	300	0	0	531	46	1	0	engagiert	kreativ	anregung	kuss	vertrauen	träumen	engstirnig	krank	ausrottung	krise	versagen	töten	genießen	besonnen	vergnügt	gütig	sonnig	gesittet	gemein	bange	verbissen	gierig	sterben	geizig	1	blank2r.bmp	0	1	+	0	1	blank2r.bmp	500	1	CPLW	500	1	blank2r.bmp	880	3	ausrottung	880	1	!	1232	1	!	-1	0	0	0	0	0	0
2024-05-10	11:52:58	12:06:29	810341	6.6.1	4_exp_EVA_AWA_CON	23	A	B	Rpleas_acq	Same	Rpleas	2pleas	acq_US_unple_nomask	acq45_nomask	4	23	400	0	300	300	0	0	3740	50	0	0	engagiert	kreativ	anregung	kuss	vertrauen	träumen	engstirnig	krank	ausrottung	krise	versagen	töten	genießen	besonnen	vergnügt	gütig	sonnig	gesittet	gemein	bange	verbissen	gierig	sterben	geizig	1	blank2r.bmp	0	1	+	0	1	blank2r.bmp	500	1	CPLW	500	1	blank2r.bmp	880	5	versagen	880	1	!	1232	1	!	-1	0	0	0	0	0	0
2024-05-10	11:52:58	12:06:31	812828	6.6.1	4_exp_EVA_AWA_CON	23	A	B	Rpleas_acq	Same	Rpleas	2pleas	acq_US_unple_nomask	acq45_nomask	4	24	400	0	300	300	0	0	714	46	1	0	engagiert	kreativ	anregung	kuss	vertrauen	träumen	engstirnig	krank	ausrottung	krise	versagen	töten	genießen	besonnen	vergnügt	gütig	sonnig	gesittet	gemein	bange	verbissen	gierig	sterben	geizig	1	blank2r.bmp	0	1	+	0	1	blank2r.bmp	500	1	CPLW	500	1	blank2r.bmp	880	1	engstirnig	880	1	!	1232	1	!	-1	0	0	0	0	0	0
2024-05-10	11:52:58	12:06:33	814982	6.6.1	4_exp_EVA_AWA_CON	23	A	B	Rpleas_acq	Same	Rpleas	2pleas	acq_US_unple_nomask	acq45_nomask	4	25	400	1	300	300	0	0	375	46	1	0	engagiert	kreativ	anregung	kuss	vertrauen	träumen	engstirnig	krank	ausrottung	krise	versagen	töten	genießen	besonnen	vergnügt	gütig	sonnig	gesittet	gemein	bange	verbissen	gierig	sterben	geizig	1	blank2r.bmp	0	1	+	0	1	blank2r.bmp	500	1	CPLW	500	1	blank2r.bmp	880	5	versagen	880	1	!	1232	1	!	1276	0	0	0	0	0	0
2024-05-10	11:52:58	12:06:36	817284	6.6.1	4_exp_EVA_AWA_CON	23	A	B	Rpleas_acq	Same	Rpleas	2pleas	acq_US_unple_nomask	acq45_nomask	4	26	400	0	300	300	0	0	527	46	1	0	engagiert	kreativ	anregung	kuss	vertrauen	träumen	engstirnig	krank	ausrottung	krise	versagen	töten	genießen	besonnen	vergnügt	gütig	sonnig	gesittet	gemein	bange	verbissen	gierig	sterben	geizig	1	blank2r.bmp	0	1	+	0	1	blank2r.bmp	500	1	CPLW	500	1	blank2r.bmp	880	3	ausrottung	880	1	!	1232	1	!	-1	0	0	0	0	0	0
2024-05-10	11:52:58	12:06:38	819422	6.6.1	4_exp_EVA_AWA_CON	23	A	B	Rpleas_acq	Same	Rpleas	2pleas	acq_US_pleas_nomask	acq45_nomask	4	27	400	1	300	300	0	0	361	50	1	0	engagiert	kreativ	anregung	kuss	vertrauen	träumen	engstirnig	krank	ausrottung	krise	versagen	töten	genießen	besonnen	vergnügt	gütig	sonnig	gesittet	gemein	bange	verbissen	gierig	sterben	geizig	1	blank2r.bmp	0	1	+	0	1	blank2r.bmp	500	1	DHJF	500	1	blank2r.bmp	880	6	träumen	880	1	!	1232	1	!	1263	0	0	0	0	0	0
2024-05-10	11:52:58	12:06:40	821551	6.6.1	4_exp_EVA_AWA_CON	23	A	B	Rpleas_acq	Same	Rpleas	2pleas	acq_US_pleas_nomask	acq45_nomask	4	28	400	1	300	300	0	0	348	50	1	0	engagiert	kreativ	anregung	kuss	vertrauen	träumen	engstirnig	krank	ausrottung	krise	versagen	töten	genießen	besonnen	vergnügt	gütig	sonnig	gesittet	gemein	bange	verbissen	gierig	sterben	geizig	1	blank2r.bmp	0	1	+	0	1	blank2r.bmp	500	1	DHJF	500	1	blank2r.bmp	880	2	kreativ	880	1	!	1232	1	!	1250	0	0	0	0	0	0
2024-05-10	11:52:58	12:06:42	823694	6.6.1	4_exp_EVA_AWA_CON	23	A	B	Rpleas_acq	Same	Rpleas	2pleas	acq_US_pleas_nomask	acq45_nomask	4	29	400	1	300	300	0	0	360	50	1	0	engagiert	kreativ	anregung	kuss	vertrauen	träumen	engstirnig	krank	ausrottung	krise	versagen	töten	genießen	besonnen	vergnügt	gütig	sonnig	gesittet	gemein	bange	verbissen	gierig	sterben	geizig	1	blank2r.bmp	0	1	+	0	1	blank2r.bmp	500	1	DHJF	500	1	blank2r.bmp	880	4	kuss	880	1	!	1232	1	!	1262	0	0	0	0	0	0
2024-05-10	11:52:58	12:06:44	825748	6.6.1	4_exp_EVA_AWA_CON	23	A	B	Rpleas_acq	Same	Rpleas	2pleas	acq_US_pleas_nomask	acq45_nomask	4	30	400	0	300	300	0	0	275	50	1	0	engagiert	kreativ	anregung	kuss	vertrauen	träumen	engstirnig	krank	ausrottung	krise	versagen	töten	genießen	besonnen	vergnügt	gütig	sonnig	gesittet	gemein	bange	verbissen	gierig	sterben	geizig	1	blank2r.bmp	0	1	+	0	1	blank2r.bmp	500	1	DHJF	500	1	blank2r.bmp	880	3	anregung	880	1	!	-1	1	!	-1	0	0	0	0	0	0
2024-05-10	11:52:58	12:06:46	828036	6.6.1	4_exp_EVA_AWA_CON	23	A	B	Rpleas_acq	Same	Rpleas	2pleas	acq_US_unple_nomask	acq45_nomask	4	31	400	0	300	300	0	0	512	46	1	0	engagiert	kreativ	anregung	kuss	vertrauen	träumen	engstirnig	krank	ausrottung	krise	versagen	töten	genießen	besonnen	vergnügt	gütig	sonnig	gesittet	gemein	bange	verbissen	gierig	sterben	geizig	1	blank2r.bmp	0	1	+	0	1	blank2r.bmp	500	1	CPLW	500	1	blank2r.bmp	880	4	krise	880	1	!	1232	1	!	-1	0	0	0	0	0	0
2024-05-10	11:52:58	12:06:48	830060	6.6.1	4_exp_EVA_AWA_CON	23	A	B	Rpleas_acq	Same	Rpleas	2pleas	acq_US_pleas_nomask	acq45_nomask	4	32	400	0	300	300	0	0	244	50	1	0	engagiert	kreativ	anregung	kuss	vertrauen	träumen	engstirnig	krank	ausrottung	krise	versagen	töten	genießen	besonnen	vergnügt	gütig	sonnig	gesittet	gemein	bange	verbissen	gierig	sterben	geizig	1	blank2r.bmp	0	1	+	0	1	blank2r.bmp	500	1	DHJF	500	1	blank2r.bmp	880	5	vertrauen	880	1	!	-1	1	!	-1	0	0	0	0	0	0
2024-05-10	11:52:58	12:06:50	832140	6.6.1	4_exp_EVA_AWA_CON	23	A	B	Rpleas_acq	Same	Rpleas	2pleas	acq_US_pleas_nomask	acq45_nomask	4	33	400	0	300	300	0	0	304	50	1	0	engagiert	kreativ	anregung	kuss	vertrauen	träumen	engstirnig	krank	ausrottung	krise	versagen	töten	genießen	besonnen	vergnügt	gütig	sonnig	gesittet	gemein	bange	verbissen	gierig	sterben	geizig	1	blank2r.bmp	0	1	+	0	1	blank2r.bmp	500	1	DHJF	500	1	blank2r.bmp	880	6	träumen	880	1	!	-1	1	!	-1	0	0	0	0	0	0
2024-05-10	11:52:58	12:06:52	834212	6.6.1	4_exp_EVA_AWA_CON	23	A	B	Rpleas_acq	Same	Rpleas	2pleas	acq_US_unple_nomask	acq45_nomask	4	34	400	0	300	300	0	0	294	46	1	0	engagiert	kreativ	anregung	kuss	vertrauen	träumen	engstirnig	krank	ausrottung	krise	versagen	töten	genießen	besonnen	vergnügt	gütig	sonnig	gesittet	gemein	bange	verbissen	gierig	sterben	geizig	1	blank2r.bmp	0	1	+	0	1	blank2r.bmp	500	1	CPLW	500	1	blank2r.bmp	880	6	töten	880	1	!	-1	1	!	-1	0	0	0	0	0	0
2024-05-10	11:52:58	12:06:55	836621	6.6.1	4_exp_EVA_AWA_CON	23	A	B	Rpleas_acq	Same	Rpleas	2pleas	acq_US_pleas_nomask	acq45_nomask	4	35	400	0	300	300	0	0	630	50	1	0	engagiert	kreativ	anregung	kuss	vertrauen	träumen	engstirnig	krank	ausrottung	krise	versagen	töten	genießen	besonnen	vergnügt	gütig	sonnig	gesittet	gemein	bange	verbissen	gierig	sterben	geizig	1	blank2r.bmp	0	1	+	0	1	blank2r.bmp	500	1	DHJF	500	1	blank2r.bmp	880	1	engagiert	880	1	!	1232	1	!	-1	0	0	0	0	0	0
2024-05-10	11:52:58	12:06:57	838708	6.6.1	4_exp_EVA_AWA_CON	23	A	B	Rpleas_acq	Same	Rpleas	2pleas	acq_US_unple_nomask	acq45_nomask	4	36	400	0	300	300	0	0	308	46	1	0	engagiert	kreativ	anregung	kuss	vertrauen	träumen	engstirnig	krank	ausrottung	krise	versagen	töten	genießen	besonnen	vergnügt	gütig	sonnig	gesittet	gemein	bange	verbissen	gierig	sterben	geizig	1	blank2r.bmp	0	1	+	0	1	blank2r.bmp	500	1	CPLW	500	1	blank2r.bmp	880	2	krank	880	1	!	-1	1	!	-1	0	0	0	0	0	0
2024-05-10	11:52:58	12:07:12	853484	6.6.1	4_exp_EVA_AWA_CON	23	A	B	Rpleas_acq	Same	Rpleas	2pleas	acq_US_pleas_nomask	acq45_nomask	5	1	400	0	300	300	0	0	654	50	1	0	engagiert	kreativ	anregung	kuss	vertrauen	träumen	engstirnig	krank	ausrottung	krise	versagen	töten	genießen	besonnen	vergnügt	gütig	sonnig	gesittet	gemein	bange	verbissen	gierig	sterben	geizig	1	blank2r.bmp	0	1	+	0	1	blank2r.bmp	500	1	DHJF	500	1	blank2r.bmp	880	6	träumen	880	1	!	1232	1	!	-1	0	0	0	0	0	0
2024-05-10	11:52:58	12:07:14	855789	6.6.1	4_exp_EVA_AWA_CON	23	A	B	Rpleas_acq	Same	Rpleas	2pleas	acq_US_unple_nomask	acq45_nomask	5	2	400	0	300	300	0	0	527	46	1	0	engagiert	kreativ	anregung	kuss	vertrauen	träumen	engstirnig	krank	ausrottung	krise	versagen	töten	genießen	besonnen	vergnügt	gütig	sonnig	gesittet	gemein	bange	verbissen	gierig	sterben	geizig	1	blank2r.bmp	0	1	+	0	1	blank2r.bmp	500	1	CPLW	500	1	blank2r.bmp	880	5	versagen	880	1	!	1232	1	!	-1	0	0	0	0	0	0
2024-05-10	11:52:58	12:07:16	857926	6.6.1	4_exp_EVA_AWA_CON	23	A	B	Rpleas_acq	Same	Rpleas	2pleas	acq_US_pleas_nomask	acq45_nomask	5	3	400	1	300	300	0	0	361	50	1	0	engagiert	kreativ	anregung	kuss	vertrauen	träumen	engstirnig	krank	ausrottung	krise	versagen	töten	genießen	besonnen	vergnügt	gütig	sonnig	gesittet	gemein	bange	verbissen	gierig	sterben	geizig	1	blank2r.bmp	0	1	+	0	1	blank2r.bmp	500	1	DHJF	500	1	blank2r.bmp	880	2	kreativ	880	1	!	1232	1	!	1262	0	0	0	0	0	0
2024-05-10	11:52:58	12:07:19	860252	6.6.1	4_exp_EVA_AWA_CON	23	A	B	Rpleas_acq	Same	Rpleas	2pleas	acq_US_unple_nomask	acq45_nomask	5	4	400	0	300	300	0	0	547	46	1	0	engagiert	kreativ	anregung	kuss	vertrauen	träumen	engstirnig	krank	ausrottung	krise	versagen	töten	genießen	besonnen	vergnügt	gütig	sonnig	gesittet	gemein	bange	verbissen	gierig	sterben	geizig	1	blank2r.bmp	0	1	+	0	1	blank2r.bmp	500	1	CPLW	500	1	blank2r.bmp	880	4	krise	880	1	!	1232	1	!	-1	0	0	0	0	0	0
2024-05-10	11:52:58	12:07:21	862268	6.6.1	4_exp_EVA_AWA_CON	23	A	B	Rpleas_acq	Same	Rpleas	2pleas	acq_US_unple_nomask	acq45_nomask	5	5	400	0	300	300	0	0	242	46	1	0	engagiert	kreativ	anregung	kuss	vertrauen	träumen	engstirnig	krank	ausrottung	krise	versagen	töten	genießen	besonnen	vergnügt	gütig	sonnig	gesittet	gemein	bange	verbissen	gierig	sterben	geizig	1	blank2r.bmp	0	1	+	0	1	blank2r.bmp	500	1	CPLW	500	1	blank2r.bmp	880	6	töten	880	1	!	-1	1	!	-1	0	0	0	0	0	0
2024-05-10	11:52:58	12:07:23	864356	6.6.1	4_exp_EVA_AWA_CON	23	A	B	Rpleas_acq	Same	Rpleas	2pleas	acq_US_unple_nomask	acq45_nomask	5	6	400	0	300	300	0	0	308	46	1	0	engagiert	kreativ	anregung	kuss	vertrauen	träumen	engstirnig	krank	ausrottung	krise	versagen	töten	genießen	besonnen	vergnügt	gütig	sonnig	gesittet	gemein	bange	verbissen	gierig	sterben	geizig	1	blank2r.bmp	0	1	+	0	1	blank2r.bmp	500	1	CPLW	500	1	blank2r.bmp	880	3	ausrottung	880	1	!	-1	1	!	-1	0	0	0	0	0	0
2024-05-10	11:52:58	12:07:25	866684	6.6.1	4_exp_EVA_AWA_CON	23	A	B	Rpleas_acq	Same	Rpleas	2pleas	acq_US_unple_nomask	acq45_nomask	5	7	400	0	300	300	0	0	555	46	1	0	engagiert	kreativ	anregung	kuss	vertrauen	träumen	engstirnig	krank	ausrottung	krise	versagen	töten	genießen	besonnen	vergnügt	gütig	sonnig	gesittet	gemein	bange	verbissen	gierig	sterben	geizig	1	blank2r.bmp	0	1	+	0	1	blank2r.bmp	500	1	CPLW	500	1	blank2r.bmp	880	2	krank	880	1	!	1232	1	!	-1	0	0	0	0	0	0
2024-05-10	11:52:58	12:07:27	868676	6.6.1	4_exp_EVA_AWA_CON	23	A	B	Rpleas_acq	Same	Rpleas	2pleas	acq_US_pleas_nomask	acq45_nomask	5	8	400	0	300	300	0	0	216	50	1	0	engagiert	kreativ	anregung	kuss	vertrauen	träumen	engstirnig	krank	ausrottung	krise	versagen	töten	genießen	besonnen	vergnügt	gütig	sonnig	gesittet	gemein	bange	verbissen	gierig	sterben	geizig	1	blank2r.bmp	0	1	+	0	1	blank2r.bmp	500	1	DHJF	500	1	blank2r.bmp	880	1	engagiert	880	1	!	-1	1	!	-1	0	0	0	0	0	0
2024-05-10	11:52:58	12:07:29	870988	6.6.1	4_exp_EVA_AWA_CON	23	A	B	Rpleas_acq	Same	Rpleas	2pleas	acq_US_pleas_nomask	acq45_nomask	5	9	400	0	300	300	0	0	536	50	1	0	engagiert	kreativ	anregung	kuss	vertrauen	träumen	engstirnig	krank	ausrottung	krise	versagen	töten	genießen	besonnen	vergnügt	gütig	sonnig	gesittet	gemein	bange	verbissen	gierig	sterben	geizig	1	blank2r.bmp	0	1	+	0	1	blank2r.bmp	500	1	DHJF	500	1	blank2r.bmp	880	5	vertrauen	880	1	!	1232	1	!	-1	0	0	0	0	0	0
2024-05-10	11:52:58	12:07:31	873110	6.6.1	4_exp_EVA_AWA_CON	23	A	B	Rpleas_acq	Same	Rpleas	2pleas	acq_US_unple_nomask	acq45_nomask	5	10	400	1	300	300	0	0	345	46	1	0	engagiert	kreativ	anregung	kuss	vertrauen	träumen	engstirnig	krank	ausrottung	krise	versagen	töten	genießen	besonnen	vergnügt	gütig	sonnig	gesittet	gemein	bange	verbissen	gierig	sterben	geizig	1	blank2r.bmp	0	1	+	0	1	blank2r.bmp	500	1	CPLW	500	1	blank2r.bmp	880	1	engstirnig	880	1	!	1232	1	!	1246	0	0	0	0	0	0
2024-05-10	11:52:58	12:07:34	875500	6.6.1	4_exp_EVA_AWA_CON	23	A	B	Rpleas_acq	Same	Rpleas	2pleas	acq_US_unple_nomask	acq45_nomask	5	11	400	0	300	300	0	0	615	46	1	0	engagiert	kreativ	anregung	kuss	vertrauen	träumen	engstirnig	krank	ausrottung	krise	versagen	töten	genießen	besonnen	vergnügt	gütig	sonnig	gesittet	gemein	bange	verbissen	gierig	sterben	geizig	1	blank2r.bmp	0	1	+	0	1	blank2r.bmp	500	1	CPLW	500	1	blank2r.bmp	880	6	töten	880	1	!	1232	1	!	-1	0	0	0	0	0	0
2024-05-10	11:52:58	12:07:36	877581	6.6.1	4_exp_EVA_AWA_CON	23	A	B	Rpleas_acq	Same	Rpleas	2pleas	acq_US_unple_nomask	acq45_nomask	5	12	400	0	300	300	0	0	304	46	1	0	engagiert	kreativ	anregung	kuss	vertrauen	träumen	engstirnig	krank	ausrottung	krise	versagen	töten	genießen	besonnen	vergnügt	gütig	sonnig	gesittet	gemein	bange	verbissen	gierig	sterben	geizig	1	blank2r.bmp	0	1	+	0	1	blank2r.bmp	500	1	CPLW	500	1	blank2r.bmp	880	2	krank	880	1	!	-1	1	!	-1	0	0	0	0	0	0
2024-05-10	11:52:58	12:07:38	879869	6.6.1	4_exp_EVA_AWA_CON	23	A	B	Rpleas_acq	Same	Rpleas	2pleas	acq_US_pleas_nomask	acq45_nomask	5	13	400	0	300	300	0	0	512	50	1	0	engagiert	kreativ	anregung	kuss	vertrauen	träumen	engstirnig	krank	ausrottung	krise	versagen	töten	genießen	besonnen	vergnügt	gütig	sonnig	gesittet	gemein	bange	verbissen	gierig	sterben	geizig	1	blank2r.bmp	0	1	+	0	1	blank2r.bmp	500	1	DHJF	500	1	blank2r.bmp	880	3	anregung	880	1	!	1232	1	!	-1	0	0	0	0	0	0
2024-05-10	11:52:58	12:07:40	882110	6.6.1	4_exp_EVA_AWA_CON	23	A	B	Rpleas_acq	Same	Rpleas	2pleas	acq_US_pleas_nomask	acq45_nomask	5	14	400	1	300	300	0	0	459	50	1	0	engagiert	kreativ	anregung	kuss	vertrauen	träumen	engstirnig	krank	ausrottung	krise	versagen	töten	genießen	besonnen	vergnügt	gütig	sonnig	gesittet	gemein	bange	verbissen	gierig	sterben	geizig	1	blank2r.bmp	0	1	+	0	1	blank2r.bmp	500	1	DHJF	500	1	blank2r.bmp	880	4	kuss	880	1	!	1232	1	!	1361	0	0	0	0	0	0
2024-05-10	11:52:58	12:07:43	884516	6.6.1	4_exp_EVA_AWA_CON	23	A	B	Rpleas_acq	Same	Rpleas	2pleas	acq_US_pleas_nomask	acq45_nomask	5	15	400	0	300	300	0	0	626	50	1	0	engagiert	kreativ	anregung	kuss	vertrauen	träumen	engstirnig	krank	ausrottung	krise	versagen	töten	genießen	besonnen	vergnügt	gütig	sonnig	gesittet	gemein	bange	verbissen	gierig	sterben	geizig	1	blank2r.bmp	0	1	+	0	1	blank2r.bmp	500	1	DHJF	500	1	blank2r.bmp	880	2	kreativ	880	1	!	1232	1	!	-1	0	0	0	0	0	0
2024-05-10	11:52:58	12:07:45	886860	6.6.1	4_exp_EVA_AWA_CON	23	A	B	Rpleas_acq	Same	Rpleas	2pleas	acq_US_pleas_nomask	acq45_nomask	5	16	400	0	300	300	0	0	568	50	1	0	engagiert	kreativ	anregung	kuss	vertrauen	träumen	engstirnig	krank	ausrottung	krise	versagen	töten	genießen	besonnen	vergnügt	gütig	sonnig	gesittet	gemein	bange	verbissen	gierig	sterben	geizig	1	blank2r.bmp	0	1	+	0	1	blank2r.bmp	500	1	DHJF	500	1	blank2r.bmp	880	1	engagiert	880	1	!	1232	1	!	-1	0	0	0	0	0	0
2024-05-10	11:52:58	12:07:48	889332	6.6.1	4_exp_EVA_AWA_CON	23	A	B	Rpleas_acq	Same	Rpleas	2pleas	acq_US_unple_nomask	acq45_nomask	5	17	400	0	300	300	0	0	699	46	1	0	engagiert	kreativ	anregung	kuss	vertrauen	träumen	engstirnig	krank	ausrottung	krise	versagen	töten	genießen	besonnen	vergnügt	gütig	sonnig	gesittet	gemein	bange	verbissen	gierig	sterben	geizig	1	blank2r.bmp	0	1	+	0	1	blank2r.bmp	500	1	CPLW	500	1	blank2r.bmp	880	3	ausrottung	880	1	!	1232	1	!	-1	0	0	0	0	0	0
2024-05-10	11:52:58	12:07:50	891700	6.6.1	4_exp_EVA_AWA_CON	23	A	B	Rpleas_acq	Same	Rpleas	2pleas	acq_US_pleas_nomask	acq45_nomask	5	18	400	0	300	300	0	0	595	50	1	0	engagiert	kreativ	anregung	kuss	vertrauen	träumen	engstirnig	krank	ausrottung	krise	versagen	töten	genießen	besonnen	vergnügt	gütig	sonnig	gesittet	gemein	bange	verbissen	gierig	sterben	geizig	1	blank2r.bmp	0	1	+	0	1	blank2r.bmp	500	1	DHJF	500	1	blank2r.bmp	880	5	vertrauen	880	1	!	1232	1	!	-1	0	0	0	0	0	0
2024-05-10	11:52:58	12:07:52	893894	6.6.1	4_exp_EVA_AWA_CON	23	A	B	Rpleas_acq	Same	Rpleas	2pleas	acq_US_unple_nomask	acq45_nomask	5	19	400	1	300	300	0	0	415	46	1	0	engagiert	kreativ	anregung	kuss	vertrauen	träumen	engstirnig	krank	ausrottung	krise	versagen	töten	genießen	besonnen	vergnügt	gütig	sonnig	gesittet	gemein	bange	verbissen	gierig	sterben	geizig	1	blank2r.bmp	0	1	+	0	1	blank2r.bmp	500	1	CPLW	500	1	blank2r.bmp	880	4	krise	880	1	!	1232	1	!	1317	0	0	0	0	0	0
2024-05-10	11:52:58	12:07:55	896252	6.6.1	4_exp_EVA_AWA_CON	23	A	B	Rpleas_acq	Same	Rpleas	2pleas	acq_US_pleas_nomask	acq45_nomask	5	20	400	0	300	300	0	0	584	50	1	0	engagiert	kreativ	anregung	kuss	vertrauen	träumen	engstirnig	krank	ausrottung	krise	versagen	töten	genießen	besonnen	vergnügt	gütig	sonnig	gesittet	gemein	bange	verbissen	gierig	sterben	geizig	1	blank2r.bmp	0	1	+	0	1	blank2r.bmp	500	1	DHJF	500	1	blank2r.bmp	880	3	anregung	880	1	!	1232	1	!	-1	0	0	0	0	0	0
2024-05-10	11:52:58	12:07:57	898652	6.6.1	4_exp_EVA_AWA_CON	23	A	B	Rpleas_acq	Same	Rpleas	2pleas	acq_US_pleas_nomask	acq45_nomask	5	21	400	0	300	300	0	0	622	50	1	0	engagiert	kreativ	anregung	kuss	vertrauen	träumen	engstirnig	krank	ausrottung	krise	versagen	töten	genießen	besonnen	vergnügt	gütig	sonnig	gesittet	gemein	bange	verbissen	gierig	sterben	geizig	1	blank2r.bmp	0	1	+	0	1	blank2r.bmp	500	1	DHJF	500	1	blank2r.bmp	880	6	träumen	880	1	!	1232	1	!	-1	0	0	0	0	0	0
2024-05-10	11:52:58	12:07:59	900637	6.6.1	4_exp_EVA_AWA_CON	23	A	B	Rpleas_acq	Same	Rpleas	2pleas	acq_US_unple_nomask	acq45_nomask	5	22	400	0	300	300	0	0	206	46	1	0	engagiert	kreativ	anregung	kuss	vertrauen	träumen	engstirnig	krank	ausrottung	krise	versagen	töten	genießen	besonnen	vergnügt	gütig	sonnig	gesittet	gemein	bange	verbissen	gierig	sterben	geizig	1	blank2r.bmp	0	1	+	0	1	blank2r.bmp	500	1	CPLW	500	1	blank2r.bmp	880	1	engstirnig	880	1	!	-1	1	!	-1	0	0	0	0	0	0
2024-05-10	11:52:58	12:08:01	903084	6.6.1	4_exp_EVA_AWA_CON	23	A	B	Rpleas_acq	Same	Rpleas	2pleas	acq_US_unple_nomask	acq45_nomask	5	23	400	0	300	300	0	0	672	46	1	0	engagiert	kreativ	anregung	kuss	vertrauen	träumen	engstirnig	krank	ausrottung	krise	versagen	töten	genießen	besonnen	vergnügt	gütig	sonnig	gesittet	gemein	bange	verbissen	gierig	sterben	geizig	1	blank2r.bmp	0	1	+	0	1	blank2r.bmp	500	1	CPLW	500	1	blank2r.bmp	880	5	versagen	880	1	!	1232	1	!	-1	0	0	0	0	0	0
2024-05-10	11:52:58	12:08:03	905205	6.6.1	4_exp_EVA_AWA_CON	23	A	B	Rpleas_acq	Same	Rpleas	2pleas	acq_US_unple_nomask	acq45_nomask	5	24	400	1	300	300	0	0	340	46	1	0	engagiert	kreativ	anregung	kuss	vertrauen	träumen	engstirnig	krank	ausrottung	krise	versagen	töten	genießen	besonnen	vergnügt	gütig	sonnig	gesittet	gemein	bange	verbissen	gierig	sterben	geizig	1	blank2r.bmp	0	1	+	0	1	blank2r.bmp	500	1	CPLW	500	1	blank2r.bmp	880	2	krank	880	1	!	1232	1	!	1240	0	0	0	0	0	0
2024-05-10	11:52:58	12:08:06	907492	6.6.1	4_exp_EVA_AWA_CON	23	A	B	Rpleas_acq	Same	Rpleas	2pleas	acq_US_pleas_nomask	acq45_nomask	5	25	400	0	300	300	0	0	507	50	1	0	engagiert	kreativ	anregung	kuss	vertrauen	träumen	engstirnig	krank	ausrottung	krise	versagen	töten	genießen	besonnen	vergnügt	gütig	sonnig	gesittet	gemein	bange	verbissen	gierig	sterben	geizig	1	blank2r.bmp	0	1	+	0	1	blank2r.bmp	500	1	DHJF	500	1	blank2r.bmp	880	4	kuss	880	1	!	1232	1	!	-1	0	0	0	0	0	0
2024-05-10	11:52:58	12:08:08	909719	6.6.1	4_exp_EVA_AWA_CON	23	A	B	Rpleas_acq	Same	Rpleas	2pleas	acq_US_pleas_nomask	acq45_nomask	5	26	400	1	300	300	0	0	449	50	1	0	engagiert	kreativ	anregung	kuss	vertrauen	träumen	engstirnig	krank	ausrottung	krise	versagen	töten	genießen	besonnen	vergnügt	gütig	sonnig	gesittet	gemein	bange	verbissen	gierig	sterben	geizig	1	blank2r.bmp	0	1	+	0	1	blank2r.bmp	500	1	DHJF	500	1	blank2r.bmp	880	4	kuss	880	1	!	1232	1	!	1352	0	0	0	0	0	0
2024-05-10	11:52:58	12:08:10	912156	6.6.1	4_exp_EVA_AWA_CON	23	A	B	Rpleas_acq	Same	Rpleas	2pleas	acq_US_pleas_nomask	acq45_nomask	5	27	400	0	300	300	0	0	658	50	1	0	engagiert	kreativ	anregung	kuss	vertrauen	träumen	engstirnig	krank	ausrottung	krise	versagen	töten	genießen	besonnen	vergnügt	gütig	sonnig	gesittet	gemein	bange	verbissen	gierig	sterben	geizig	1	blank2r.bmp	0	1	+	0	1	blank2r.bmp	500	1	DHJF	500	1	blank2r.bmp	880	6	träumen	880	1	!	1232	1	!	-1	0	0	0	0	0	0
2024-05-10	11:52:58	12:08:13	914581	6.6.1	4_exp_EVA_AWA_CON	23	A	B	Rpleas_acq	Same	Rpleas	2pleas	acq_US_pleas_nomask	acq45_nomask	5	28	400	0	300	300	0	0	650	50	1	0	engagiert	kreativ	anregung	kuss	vertrauen	träumen	engstirnig	krank	ausrottung	krise	versagen	töten	genießen	besonnen	vergnügt	gütig	sonnig	gesittet	gemein	bange	verbissen	gierig	sterben	geizig	1	blank2r.bmp	0	1	+	0	1	blank2r.bmp	500	1	DHJF	500	1	blank2r.bmp	880	1	engagiert	880	1	!	1232	1	!	-1	0	0	0	0	0	0
2024-05-10	11:52:58	12:08:15	916956	6.6.1	4_exp_EVA_AWA_CON	23	A	B	Rpleas_acq	Same	Rpleas	2pleas	acq_US_unple_nomask	acq45_nomask	5	29	400	0	300	300	0	0	595	46	1	0	engagiert	kreativ	anregung	kuss	vertrauen	träumen	engstirnig	krank	ausrottung	krise	versagen	töten	genießen	besonnen	vergnügt	gütig	sonnig	gesittet	gemein	bange	verbissen	gierig	sterben	geizig	1	blank2r.bmp	0	1	+	0	1	blank2r.bmp	500	1	CPLW	500	1	blank2r.bmp	880	4	krise	880	1	!	1232	1	!	-1	0	0	0	0	0	0
2024-05-10	11:52:58	12:08:18	919388	6.6.1	4_exp_EVA_AWA_CON	23	A	B	Rpleas_acq	Same	Rpleas	2pleas	acq_US_unple_nomask	acq45_nomask	5	30	400	0	300	300	0	0	655	46	1	0	engagiert	kreativ	anregung	kuss	vertrauen	träumen	engstirnig	krank	ausrottung	krise	versagen	töten	genießen	besonnen	vergnügt	gütig	sonnig	gesittet	gemein	bange	verbissen	gierig	sterben	geizig	1	blank2r.bmp	0	1	+	0	1	blank2r.bmp	500	1	CPLW	500	1	blank2r.bmp	880	1	engstirnig	880	1	!	1232	1	!	-1	0	0	0	0	0	0
2024-05-10	11:52:58	12:08:20	921622	6.6.1	4_exp_EVA_AWA_CON	23	A	B	Rpleas_acq	Same	Rpleas	2pleas	acq_US_pleas_nomask	acq45_nomask	5	31	400	1	300	300	0	0	456	50	1	0	engagiert	kreativ	anregung	kuss	vertrauen	träumen	engstirnig	krank	ausrottung	krise	versagen	töten	genießen	besonnen	vergnügt	gütig	sonnig	gesittet	gemein	bange	verbissen	gierig	sterben	geizig	1	blank2r.bmp	0	1	+	0	1	blank2r.bmp	500	1	DHJF	500	1	blank2r.bmp	880	2	kreativ	880	1	!	1232	1	!	1357	0	0	0	0	0	0
2024-05-10	11:52:58	12:08:22	924084	6.6.1	4_exp_EVA_AWA_CON	23	A	B	Rpleas_acq	Same	Rpleas	2pleas	acq_US_unple_nomask	acq45_nomask	5	32	400	0	300	300	0	0	689	46	1	0	engagiert	kreativ	anregung	kuss	vertrauen	träumen	engstirnig	krank	ausrottung	krise	versagen	töten	genießen	besonnen	vergnügt	gütig	sonnig	gesittet	gemein	bange	verbissen	gierig	sterben	geizig	1	blank2r.bmp	0	1	+	0	1	blank2r.bmp	500	1	CPLW	500	1	blank2r.bmp	880	5	versagen	880	1	!	1232	1	!	-1	0	0	0	0	0	0
2024-05-10	11:52:58	12:08:25	926532	6.6.1	4_exp_EVA_AWA_CON	23	A	B	Rpleas_acq	Same	Rpleas	2pleas	acq_US_pleas_nomask	acq45_nomask	5	33	400	0	300	300	0	0	675	50	1	0	engagiert	kreativ	anregung	kuss	vertrauen	träumen	engstirnig	krank	ausrottung	krise	versagen	töten	genießen	besonnen	vergnügt	gütig	sonnig	gesittet	gemein	bange	verbissen	gierig	sterben	geizig	1	blank2r.bmp	0	1	+	0	1	blank2r.bmp	500	1	DHJF	500	1	blank2r.bmp	880	5	vertrauen	880	1	!	1232	1	!	-1	0	0	0	0	0	0
2024-05-10	11:52:58	12:08:27	928948	6.6.1	4_exp_EVA_AWA_CON	23	A	B	Rpleas_acq	Same	Rpleas	2pleas	acq_US_pleas_nomask	acq45_nomask	5	34	400	0	300	300	0	0	639	50	1	0	engagiert	kreativ	anregung	kuss	vertrauen	träumen	engstirnig	krank	ausrottung	krise	versagen	töten	genießen	besonnen	vergnügt	gütig	sonnig	gesittet	gemein	bange	verbissen	gierig	sterben	geizig	1	blank2r.bmp	0	1	+	0	1	blank2r.bmp	500	1	DHJF	500	1	blank2r.bmp	880	3	anregung	880	1	!	1233	1	!	-1	0	0	0	0	0	0
2024-05-10	11:52:58	12:08:30	931316	6.6.1	4_exp_EVA_AWA_CON	23	A	B	Rpleas_acq	Same	Rpleas	2pleas	acq_US_unple_nomask	acq45_nomask	5	35	400	0	300	300	0	0	596	46	1	0	engagiert	kreativ	anregung	kuss	vertrauen	träumen	engstirnig	krank	ausrottung	krise	versagen	töten	genießen	besonnen	vergnügt	gütig	sonnig	gesittet	gemein	bange	verbissen	gierig	sterben	geizig	1	blank2r.bmp	0	1	+	0	1	blank2r.bmp	500	1	CPLW	500	1	blank2r.bmp	880	3	ausrottung	880	1	!	1232	1	!	-1	0	0	0	0	0	0
2024-05-10	11:52:58	12:08:32	933588	6.6.1	4_exp_EVA_AWA_CON	23	A	B	Rpleas_acq	Same	Rpleas	2pleas	acq_US_unple_nomask	acq45_nomask	5	36	400	0	300	300	0	0	496	46	1	0	engagiert	kreativ	anregung	kuss	vertrauen	träumen	engstirnig	krank	ausrottung	krise	versagen	töten	genießen	besonnen	vergnügt	gütig	sonnig	gesittet	gemein	bange	verbissen	gierig	sterben	geizig	1	blank2r.bmp	0	1	+	0	1	blank2r.bmp	500	1	CPLW	500	1	blank2r.bmp	880	6	töten	880	1	!	1232	1	!	-1	0	0	0	0	0	0
2024-05-10	11:52:58	12:08:58	960160	6.6.1	4_exp_EVA_AWA_CON	23	A	B	Rpleas_acq	Same	Rpleas	2pleas	EvalRating_firsttwo	EvalRating_firsttwo	6	1	0	0	300	300	0	0	6236	line	0	-15,625pct	engagiert	kreativ	anregung	kuss	vertrauen	träumen	engstirnig	krank	ausrottung	krise	versagen	töten	genießen	besonnen	vergnügt	gütig	sonnig	gesittet	gemein	bange	verbissen	gierig	sterben	geizig	1		-8	1	Wie angenehm oder unangenehm finden Sie die  Buchstabenkette WDLH?	-8	1		-8	1		-8	1		-8	1	Unangenehm	-8	1	Angenehm	-8	0	0	0	0	0	0	0	0	0
2024-05-10	11:52:58	12:09:05	966521	6.6.1	4_exp_EVA_AWA_CON	23	A	B	Rpleas_acq	Same	Rpleas	2pleas	EvalRating_lastfour	EvalRating_lastfour	7	1	0	0	300	300	0	0	3980	line	0	-4,8177083333333285964pct	engagiert	kreativ	anregung	kuss	vertrauen	träumen	engstirnig	krank	ausrottung	krise	versagen	töten	genießen	besonnen	vergnügt	gütig	sonnig	gesittet	gemein	bange	verbissen	gierig	sterben	geizig	1		-7	2	Wie angenehm oder unangenehm finden Sie die  Buchstabenkette DHJF?	-7	1		-7	1		-7	1		-7	1	Unangenehm	-7	1	Angenehm	-7	0	0	0	0	0	0	0	0	0
2024-05-10	11:52:58	12:09:07	968886	6.6.1	4_exp_EVA_AWA_CON	23	A	B	Rpleas_acq	Same	Rpleas	2pleas	blank_screen	EvalRating_lastfour	7	3	0	0	300	300	0	0	0	0	0	-4,8177083333333285964pct	engagiert	kreativ	anregung	kuss	vertrauen	träumen	engstirnig	krank	ausrottung	krise	versagen	töten	genießen	besonnen	vergnügt	gütig	sonnig	gesittet	gemein	bange	verbissen	gierig	sterben	geizig	1		-8	0	0	0	0	0	0	0	0	0	0	0	0	0	0	0	0	0	0	0	0	0	0	0	0	0	0	0
2024-05-10	11:52:58	12:09:10	972017	6.6.1	4_exp_EVA_AWA_CON	23	A	B	Rpleas_acq	Same	Rpleas	2pleas	EvalRating_lastfour	EvalRating_lastfour	7	4	0	0	300	300	0	0	2542	line	0	-12,6302083333333285964pct	engagiert	kreativ	anregung	kuss	vertrauen	träumen	engstirnig	krank	ausrottung	krise	versagen	töten	genießen	besonnen	vergnügt	gütig	sonnig	gesittet	gemein	bange	verbissen	gierig	sterben	geizig	1		-8	1	Wie angenehm oder unangenehm finden Sie die  Buchstabenkette CPLW?	-8	1		-8	1		-8	1		-8	1	Unangenehm	-8	1	Angenehm	-8	0	0	0	0	0	0	0	0	0
2024-05-10	11:52:58	12:09:13	974390	6.6.1	4_exp_EVA_AWA_CON	23	A	B	Rpleas_acq	Same	Rpleas	2pleas	blank_screen	EvalRating_lastfour	7	6	0	0	300	300	0	0	0	0	0	-12,6302083333333285964pct	engagiert	kreativ	anregung	kuss	vertrauen	träumen	engstirnig	krank	ausrottung	krise	versagen	töten	genießen	besonnen	vergnügt	gütig	sonnig	gesittet	gemein	bange	verbissen	gierig	sterben	geizig	1		-8	0	0	0	0	0	0	0	0	0	0	0	0	0	0	0	0	0	0	0	0	0	0	0	0	0	0	0
2024-05-10	11:52:58	12:09:16	978201	6.6.1	4_exp_EVA_AWA_CON	23	A	B	Rpleas_acq	Same	Rpleas	2pleas	EvalRating_lastfour	EvalRating_lastfour	7	7	0	0	300	300	0	0	3222	line	0	13,4114583333333428072pct	engagiert	kreativ	anregung	kuss	vertrauen	träumen	engstirnig	krank	ausrottung	krise	versagen	töten	genießen	besonnen	vergnügt	gütig	sonnig	gesittet	gemein	bange	verbissen	gierig	sterben	geizig	1		-8	3	Wie angenehm oder unangenehm finden Sie die  Buchstabenkette FCJP?	-8	1		-8	1		-8	1		-8	1	Unangenehm	-8	1	Angenehm	-8	0	0	0	0	0	0	0	0	0
2024-05-10	11:52:58	12:10:08	1030234	6.6.1	4_exp_EVA_AWA_CON	23	A	B	Rpleas_acq	Same	Rpleas	2pleas	conawa_CS2_US5	conawa1_nomask	8	1	0	0	300	300	0	0	21101	vertrauen	1	13,4114583333333428072pct	engagiert	kreativ	anregung	kuss	vertrauen	träumen	engstirnig	krank	ausrottung	krise	versagen	töten	genießen	besonnen	vergnügt	gütig	sonnig	gesittet	gemein	bange	verbissen	gierig	sterben	geizig	0	0	0	0	0	0	0	0	0	0	0	0	0	0	0	0	0	0	0	0	0	0	0	0	0	0	0	0	0	0
2024-05-10	11:52:58	12:10:08	1030236	6.6.1	4_exp_EVA_AWA_CON	23	A	B	Rpleas_acq	Same	Rpleas	2pleas	conawa_CS2_US5_confidence	conawa1_nomask	8	1	0	0	300	300	0	0	21101	sure	1	13,4114583333333428072pct	engagiert	kreativ	anregung	kuss	vertrauen	träumen	engstirnig	krank	ausrottung	krise	versagen	töten	genießen	besonnen	vergnügt	gütig	sonnig	gesittet	gemein	bange	verbissen	gierig	sterben	geizig	0	0	0	0	0	0	0	0	0	0	0	0	0	0	0	0	0	0	0	0	0	0	0	0	0	0	0	0	0	0
2024-05-10	11:52:58	12:10:17	1038619	6.6.1	4_exp_EVA_AWA_CON	23	A	B	Rpleas_acq	Same	Rpleas	2pleas	conawa_CS1_US4	conawa1_nomask	8	2	0	0	300	300	0	0	7766	krise	1	13,4114583333333428072pct	engagiert	kreativ	anregung	kuss	vertrauen	träumen	engstirnig	krank	ausrottung	krise	versagen	töten	genießen	besonnen	vergnügt	gütig	sonnig	gesittet	gemein	bange	verbissen	gierig	sterben	geizig	0	0	0	0	0	0	0	0	0	0	0	0	0	0	0	0	0	0	0	0	0	0	0	0	0	0	0	0	0	0
2024-05-10	11:52:58	12:10:17	1038621	6.6.1	4_exp_EVA_AWA_CON	23	A	B	Rpleas_acq	Same	Rpleas	2pleas	conawa_CS1_US4_confidence	conawa1_nomask	8	2	0	0	300	300	0	0	7766	sure	1	13,4114583333333428072pct	engagiert	kreativ	anregung	kuss	vertrauen	träumen	engstirnig	krank	ausrottung	krise	versagen	töten	genießen	besonnen	vergnügt	gütig	sonnig	gesittet	gemein	bange	verbissen	gierig	sterben	geizig	0	0	0	0	0	0	0	0	0	0	0	0	0	0	0	0	0	0	0	0	0	0	0	0	0	0	0	0	0	0
2024-05-10	11:52:58	12:10:27	1049166	6.6.1	4_exp_EVA_AWA_CON	23	A	B	Rpleas_acq	Same	Rpleas	2pleas	conawa_CS1_US2	conawa1_nomask	8	3	0	0	300	300	0	0	9936	krank	1	13,4114583333333428072pct	engagiert	kreativ	anregung	kuss	vertrauen	träumen	engstirnig	krank	ausrottung	krise	versagen	töten	genießen	besonnen	vergnügt	gütig	sonnig	gesittet	gemein	bange	verbissen	gierig	sterben	geizig	0	0	0	0	0	0	0	0	0	0	0	0	0	0	0	0	0	0	0	0	0	0	0	0	0	0	0	0	0	0
2024-05-10	11:52:58	12:10:27	1049168	6.6.1	4_exp_EVA_AWA_CON	23	A	B	Rpleas_acq	Same	Rpleas	2pleas	conawa_CS1_US2_confidence	conawa1_nomask	8	3	0	0	300	300	0	0	9936	sure	1	13,4114583333333428072pct	engagiert	kreativ	anregung	kuss	vertrauen	träumen	engstirnig	krank	ausrottung	krise	versagen	töten	genießen	besonnen	vergnügt	gütig	sonnig	gesittet	gemein	bange	verbissen	gierig	sterben	geizig	0	0	0	0	0	0	0	0	0	0	0	0	0	0	0	0	0	0	0	0	0	0	0	0	0	0	0	0	0	0
2024-05-10	11:52:58	12:10:34	1055250	6.6.1	4_exp_EVA_AWA_CON	23	A	B	Rpleas_acq	Same	Rpleas	2pleas	conawa_CS2_US4	conawa1_nomask	8	4	0	0	300	300	0	0	5468	kuss	1	13,4114583333333428072pct	engagiert	kreativ	anregung	kuss	vertrauen	träumen	engstirnig	krank	ausrottung	krise	versagen	töten	genießen	besonnen	vergnügt	gütig	sonnig	gesittet	gemein	bange	verbissen	gierig	sterben	geizig	0	0	0	0	0	0	0	0	0	0	0	0	0	0	0	0	0	0	0	0	0	0	0	0	0	0	0	0	0	0
2024-05-10	11:52:58	12:10:34	1055252	6.6.1	4_exp_EVA_AWA_CON	23	A	B	Rpleas_acq	Same	Rpleas	2pleas	conawa_CS2_US4_confidence	conawa1_nomask	8	4	0	0	300	300	0	0	5468	sure	1	13,4114583333333428072pct	engagiert	kreativ	anregung	kuss	vertrauen	träumen	engstirnig	krank	ausrottung	krise	versagen	töten	genießen	besonnen	vergnügt	gütig	sonnig	gesittet	gemein	bange	verbissen	gierig	sterben	geizig	0	0	0	0	0	0	0	0	0	0	0	0	0	0	0	0	0	0	0	0	0	0	0	0	0	0	0	0	0	0
2024-05-10	11:52:58	12:10:41	1062885	6.6.1	4_exp_EVA_AWA_CON	23	A	B	Rpleas_acq	Same	Rpleas	2pleas	conawa_CS1_US3	conawa1_nomask	8	5	0	0	300	300	0	0	7018	ausrottung	1	13,4114583333333428072pct	engagiert	kreativ	anregung	kuss	vertrauen	träumen	engstirnig	krank	ausrottung	krise	versagen	töten	genießen	besonnen	vergnügt	gütig	sonnig	gesittet	gemein	bange	verbissen	gierig	sterben	geizig	0	0	0	0	0	0	0	0	0	0	0	0	0	0	0	0	0	0	0	0	0	0	0	0	0	0	0	0	0	0
2024-05-10	11:52:58	12:10:41	1062887	6.6.1	4_exp_EVA_AWA_CON	23	A	B	Rpleas_acq	Same	Rpleas	2pleas	conawa_CS1_US3_confidence	conawa1_nomask	8	5	0	0	300	300	0	0	7018	sure	1	13,4114583333333428072pct	engagiert	kreativ	anregung	kuss	vertrauen	träumen	engstirnig	krank	ausrottung	krise	versagen	töten	genießen	besonnen	vergnügt	gütig	sonnig	gesittet	gemein	bange	verbissen	gierig	sterben	geizig	0	0	0	0	0	0	0	0	0	0	0	0	0	0	0	0	0	0	0	0	0	0	0	0	0	0	0	0	0	0
2024-05-10	11:52:58	12:10:50	1071781	6.6.1	4_exp_EVA_AWA_CON	23	A	B	Rpleas_acq	Same	Rpleas	2pleas	conawa_CS2_US1	conawa1_nomask	8	6	0	0	300	300	0	0	8278	besonnen	1	13,4114583333333428072pct	engagiert	kreativ	anregung	kuss	vertrauen	träumen	engstirnig	krank	ausrottung	krise	versagen	töten	genießen	besonnen	vergnügt	gütig	sonnig	gesittet	gemein	bange	verbissen	gierig	sterben	geizig	0	0	0	0	0	0	0	0	0	0	0	0	0	0	0	0	0	0	0	0	0	0	0	0	0	0	0	0	0	0
2024-05-10	11:52:58	12:10:50	1071782	6.6.1	4_exp_EVA_AWA_CON	23	A	B	Rpleas_acq	Same	Rpleas	2pleas	conawa_CS2_US1_confidence	conawa1_nomask	8	6	0	0	300	300	0	0	8278	sure	1	13,4114583333333428072pct	engagiert	kreativ	anregung	kuss	vertrauen	träumen	engstirnig	krank	ausrottung	krise	versagen	töten	genießen	besonnen	vergnügt	gütig	sonnig	gesittet	gemein	bange	verbissen	gierig	sterben	geizig	0	0	0	0	0	0	0	0	0	0	0	0	0	0	0	0	0	0	0	0	0	0	0	0	0	0	0	0	0	0
2024-05-10	11:52:58	12:10:59	1080476	6.6.1	4_exp_EVA_AWA_CON	23	A	B	Rpleas_acq	Same	Rpleas	2pleas	conawa_CS1_US5	conawa1_nomask	8	7	0	0	300	300	0	0	8078	versagen	1	13,4114583333333428072pct	engagiert	kreativ	anregung	kuss	vertrauen	träumen	engstirnig	krank	ausrottung	krise	versagen	töten	genießen	besonnen	vergnügt	gütig	sonnig	gesittet	gemein	bange	verbissen	gierig	sterben	geizig	0	0	0	0	0	0	0	0	0	0	0	0	0	0	0	0	0	0	0	0	0	0	0	0	0	0	0	0	0	0
2024-05-10	11:52:58	12:10:59	1080478	6.6.1	4_exp_EVA_AWA_CON	23	A	B	Rpleas_acq	Same	Rpleas	2pleas	conawa_CS1_US5_confidence	conawa1_nomask	8	7	0	0	300	300	0	0	8078	sure	1	13,4114583333333428072pct	engagiert	kreativ	anregung	kuss	vertrauen	träumen	engstirnig	krank	ausrottung	krise	versagen	töten	genießen	besonnen	vergnügt	gütig	sonnig	gesittet	gemein	bange	verbissen	gierig	sterben	geizig	0	0	0	0	0	0	0	0	0	0	0	0	0	0	0	0	0	0	0	0	0	0	0	0	0	0	0	0	0	0
2024-05-10	11:52:58	12:11:07	1088882	6.6.1	4_exp_EVA_AWA_CON	23	A	B	Rpleas_acq	Same	Rpleas	2pleas	conawa_CS2_US3	conawa1_nomask	8	8	0	0	300	300	0	0	7791	anregung	1	13,4114583333333428072pct	engagiert	kreativ	anregung	kuss	vertrauen	träumen	engstirnig	krank	ausrottung	krise	versagen	töten	genießen	besonnen	vergnügt	gütig	sonnig	gesittet	gemein	bange	verbissen	gierig	sterben	geizig	0	0	0	0	0	0	0	0	0	0	0	0	0	0	0	0	0	0	0	0	0	0	0	0	0	0	0	0	0	0
2024-05-10	11:52:58	12:11:07	1088883	6.6.1	4_exp_EVA_AWA_CON	23	A	B	Rpleas_acq	Same	Rpleas	2pleas	conawa_CS2_US3_confidence	conawa1_nomask	8	8	0	0	300	300	0	0	7791	sure	1	13,4114583333333428072pct	engagiert	kreativ	anregung	kuss	vertrauen	träumen	engstirnig	krank	ausrottung	krise	versagen	töten	genießen	besonnen	vergnügt	gütig	sonnig	gesittet	gemein	bange	verbissen	gierig	sterben	geizig	0	0	0	0	0	0	0	0	0	0	0	0	0	0	0	0	0	0	0	0	0	0	0	0	0	0	0	0	0	0
2024-05-10	11:52:58	12:11:14	1096066	6.6.1	4_exp_EVA_AWA_CON	23	A	B	Rpleas_acq	Same	Rpleas	2pleas	conawa_CS1_US1	conawa1_nomask	8	9	0	0	300	300	0	0	6569	engstirnig	1	13,4114583333333428072pct	engagiert	kreativ	anregung	kuss	vertrauen	träumen	engstirnig	krank	ausrottung	krise	versagen	töten	genießen	besonnen	vergnügt	gütig	sonnig	gesittet	gemein	bange	verbissen	gierig	sterben	geizig	0	0	0	0	0	0	0	0	0	0	0	0	0	0	0	0	0	0	0	0	0	0	0	0	0	0	0	0	0	0
2024-05-10	11:52:58	12:11:14	1096068	6.6.1	4_exp_EVA_AWA_CON	23	A	B	Rpleas_acq	Same	Rpleas	2pleas	conawa_CS1_US1_confidence	conawa1_nomask	8	9	0	0	300	300	0	0	6569	sure	1	13,4114583333333428072pct	engagiert	kreativ	anregung	kuss	vertrauen	träumen	engstirnig	krank	ausrottung	krise	versagen	töten	genießen	besonnen	vergnügt	gütig	sonnig	gesittet	gemein	bange	verbissen	gierig	sterben	geizig	0	0	0	0	0	0	0	0	0	0	0	0	0	0	0	0	0	0	0	0	0	0	0	0	0	0	0	0	0	0
2024-05-10	11:52:58	12:11:23	1104652	6.6.1	4_exp_EVA_AWA_CON	23	A	B	Rpleas_acq	Same	Rpleas	2pleas	conawa_CS2_US2	conawa1_nomask	8	10	0	0	300	300	0	0	7970	vergnügt	1	13,4114583333333428072pct	engagiert	kreativ	anregung	kuss	vertrauen	träumen	engstirnig	krank	ausrottung	krise	versagen	töten	genießen	besonnen	vergnügt	gütig	sonnig	gesittet	gemein	bange	verbissen	gierig	sterben	geizig	0	0	0	0	0	0	0	0	0	0	0	0	0	0	0	0	0	0	0	0	0	0	0	0	0	0	0	0	0	0
2024-05-10	11:52:58	12:11:23	1104653	6.6.1	4_exp_EVA_AWA_CON	23	A	B	Rpleas_acq	Same	Rpleas	2pleas	conawa_CS2_US2_confidence	conawa1_nomask	8	10	0	0	300	300	0	0	7970	sure	1	13,4114583333333428072pct	engagiert	kreativ	anregung	kuss	vertrauen	träumen	engstirnig	krank	ausrottung	krise	versagen	töten	genießen	besonnen	vergnügt	gütig	sonnig	gesittet	gemein	bange	verbissen	gierig	sterben	geizig	0	0	0	0	0	0	0	0	0	0	0	0	0	0	0	0	0	0	0	0	0	0	0	0	0	0	0	0	0	0
2024-05-10	11:52:58	12:11:37	1118620	6.6.1	4_exp_EVA_AWA_CON	23	A	B	Rpleas_acq	Same	Rpleas	2pleas	conawa_CS2_US6	conawa1_nomask	8	11	0	0	300	300	0	0	13351	genießen	1	13,4114583333333428072pct	engagiert	kreativ	anregung	kuss	vertrauen	träumen	engstirnig	krank	ausrottung	krise	versagen	töten	genießen	besonnen	vergnügt	gütig	sonnig	gesittet	gemein	bange	verbissen	gierig	sterben	geizig	0	0	0	0	0	0	0	0	0	0	0	0	0	0	0	0	0	0	0	0	0	0	0	0	0	0	0	0	0	0
2024-05-10	11:52:58	12:11:37	1118622	6.6.1	4_exp_EVA_AWA_CON	23	A	B	Rpleas_acq	Same	Rpleas	2pleas	conawa_CS2_US6_confidence	conawa1_nomask	8	11	0	0	300	300	0	0	13351	sure	1	13,4114583333333428072pct	engagiert	kreativ	anregung	kuss	vertrauen	träumen	engstirnig	krank	ausrottung	krise	versagen	töten	genießen	besonnen	vergnügt	gütig	sonnig	gesittet	gemein	bange	verbissen	gierig	sterben	geizig	0	0	0	0	0	0	0	0	0	0	0	0	0	0	0	0	0	0	0	0	0	0	0	0	0	0	0	0	0	0
2024-05-10	11:52:58	12:11:44	1125405	6.6.1	4_exp_EVA_AWA_CON	23	A	B	Rpleas_acq	Same	Rpleas	2pleas	conawa_CS1_US6	conawa1_nomask	8	12	0	0	300	300	0	0	6166	töten	1	13,4114583333333428072pct	engagiert	kreativ	anregung	kuss	vertrauen	träumen	engstirnig	krank	ausrottung	krise	versagen	töten	genießen	besonnen	vergnügt	gütig	sonnig	gesittet	gemein	bange	verbissen	gierig	sterben	geizig	0	0	0	0	0	0	0	0	0	0	0	0	0	0	0	0	0	0	0	0	0	0	0	0	0	0	0	0	0	0
2024-05-10	11:52:58	12:11:44	1125407	6.6.1	4_exp_EVA_AWA_CON	23	A	B	Rpleas_acq	Same	Rpleas	2pleas	conawa_CS1_US6_confidence	conawa1_nomask	8	12	0	0	300	300	0	0	6166	sure	1	13,4114583333333428072pct	engagiert	kreativ	anregung	kuss	vertrauen	träumen	engstirnig	krank	ausrottung	krise	versagen	töten	genießen	besonnen	vergnügt	gütig	sonnig	gesittet	gemein	bange	verbissen	gierig	sterben	geizig	0	0	0	0	0	0	0	0	0	0	0	0	0	0	0	0	0	0	0	0	0	0	0	0	0	0	0	0	0	0
2024-05-10	11:52:58	12:13:27	1229023	6.6.1	4_exp_EVA_AWA_CON	23	A	B	Rpleas_acq	Same	Rpleas	2pleas	cond_US_pleas_123_nomask_CS2	condtest_nomask_1	11	1	400	1	300	300	0	0	448	50	1	13,4114583333333428072pct	engagiert	kreativ	anregung	kuss	vertrauen	träumen	engstirnig	krank	ausrottung	krise	versagen	töten	genießen	besonnen	vergnügt	gütig	sonnig	gesittet	gemein	bange	verbissen	gierig	sterben	geizig	1	blank2r.bmp	0	1	+	0	1	blank2r.bmp	500	1	DHJF	500	1	blank2r.bmp	880	3	kreativ	880	1	!	1232	1	!	1350	0	0	0	0	0	0
