date	time	currenttime	elapsedtime	build	currentexpt	subject	CS_AB	US_AB	LRpleas_acq	SameOppo	condition_Lpleas	condition_1pleas	trialcode	blockcode	blocknum	trialnum	windowcenter	inwindow	pretrialpause	posttrialpause	trialduration	trialtimeout	latency	response	correct	correctedscore	US_nomask_pleas1	US_nomask_pleas2	US_nomask_pleas3	US_nomask_pleas4	US_nomask_pleas5	US_nomask_pleas6	US_nomask_unple1	US_nomask_unple2	US_nomask_unple3	US_nomask_unple4	US_nomask_unple5	US_nomask_unple6	new_nomask_pleas1	new_nomask_pleas2	new_nomask_pleas3	new_nomask_pleas4	new_nomask_pleas5	new_nomask_pleas6	new_nomask_unple1	new_nomask_unple2	new_nomask_unple3	new_nomask_unple4	new_nomask_unple5	new_nomask_unple6	stimulusnumber1	stimulusitem1	stimulusonset1	stimulusnumber2	stimulusitem2	stimulusonset2	stimulusnumber3	stimulusitem3	stimulusonset3	stimulusnumber4	stimulusitem4	stimulusonset4	stimulusnumber5	stimulusitem5	stimulusonset5	stimulusnumber6	stimulusitem6	stimulusonset6	stimulusnumber7	stimulusitem7	stimulusonset7	stimulusnumber8	stimulusitem8	stimulusonset8	stimulusnumber9	stimulusitem9	stimulusonset9	stimulusnumber10	stimulusitem10	stimulusonset10
2024-05-14	10:09:51	10:11:09	77778	6.6.1	4_exp_EVA_AWA_CON	28	B	A	Rpleas_acq	Oppo	Rpleas	2pleas	acq_US_pleas_nomask	acq1_nomask	1	1	0	0	300	300	0	0	1449	50	1	0	tolerant	schlau	treu	retten	ehrlich	schön	tyrannisch	schroff	tot	rächen	eitel	schlecht	helfen	spielen	loyal	freundlich	fair	lachen	hindern	strafen	lasch	fanatisch	faul	leiden	1	blank2r.bmp	0	1	+	0	1	blank2r.bmp	500	1	GKQX	500	1	blank2r.bmp	880	4	retten	880	0	0	0	0	0	0	0	0	0	0	0	0
2024-05-14	10:09:51	10:11:12	80522	6.6.1	4_exp_EVA_AWA_CON	28	B	A	Rpleas_acq	Oppo	Rpleas	2pleas	acq_US_pleas_nomask	acq1_nomask	1	2	0	0	300	300	0	0	1261	50	1	0	tolerant	schlau	treu	retten	ehrlich	schön	tyrannisch	schroff	tot	rächen	eitel	schlecht	helfen	spielen	loyal	freundlich	fair	lachen	hindern	strafen	lasch	fanatisch	faul	leiden	1	blank2r.bmp	0	1	+	0	1	blank2r.bmp	500	1	GKQX	500	1	blank2r.bmp	880	1	tolerant	880	0	0	0	0	0	0	0	0	0	0	0	0
2024-05-14	10:09:51	10:11:15	83066	6.6.1	4_exp_EVA_AWA_CON	28	B	A	Rpleas_acq	Oppo	Rpleas	2pleas	acq_new_pleas_nomask	acq1_nomask	1	3	0	0	300	300	0	0	1064	50	1	0	tolerant	schlau	treu	retten	ehrlich	schön	tyrannisch	schroff	tot	rächen	eitel	schlecht	helfen	spielen	loyal	freundlich	fair	lachen	hindern	strafen	lasch	fanatisch	faul	leiden	1	blank2r.bmp	0	1	+	0	1	blank2r.bmp	500	8	C4r.bmp	500	1	blank2r.bmp	880	2	spielen	880	0	0	0	0	0	0	0	0	0	0	0	0
2024-05-14	10:09:51	10:11:17	85618	6.6.1	4_exp_EVA_AWA_CON	28	B	A	Rpleas_acq	Oppo	Rpleas	2pleas	acq_new_unple_nomask	acq1_nomask	1	4	0	0	300	300	0	0	1064	46	1	0	tolerant	schlau	treu	retten	ehrlich	schön	tyrannisch	schroff	tot	rächen	eitel	schlecht	helfen	spielen	loyal	freundlich	fair	lachen	hindern	strafen	lasch	fanatisch	faul	leiden	1	blank2r.bmp	0	1	+	0	1	blank2r.bmp	500	6	C2r.bmp	500	1	blank2r.bmp	880	5	faul	880	0	0	0	0	0	0	0	0	0	0	0	0
2024-05-14	10:09:51	10:11:20	88386	6.6.1	4_exp_EVA_AWA_CON	28	B	A	Rpleas_acq	Oppo	Rpleas	2pleas	acq_US_unple_nomask	acq1_nomask	1	5	0	0	300	300	0	0	1280	46	1	0	tolerant	schlau	treu	retten	ehrlich	schön	tyrannisch	schroff	tot	rächen	eitel	schlecht	helfen	spielen	loyal	freundlich	fair	lachen	hindern	strafen	lasch	fanatisch	faul	leiden	1	blank2r.bmp	0	1	+	0	1	blank2r.bmp	500	1	BMVZ	500	1	blank2r.bmp	880	2	schroff	880	0	0	0	0	0	0	0	0	0	0	0	0
2024-05-14	10:09:51	10:11:23	91018	6.6.1	4_exp_EVA_AWA_CON	28	B	A	Rpleas_acq	Oppo	Rpleas	2pleas	acq_US_unple_nomask	acq1_nomask	1	6	0	0	300	300	0	0	1150	46	1	0	tolerant	schlau	treu	retten	ehrlich	schön	tyrannisch	schroff	tot	rächen	eitel	schlecht	helfen	spielen	loyal	freundlich	fair	lachen	hindern	strafen	lasch	fanatisch	faul	leiden	1	blank2r.bmp	0	1	+	0	1	blank2r.bmp	500	1	BMVZ	500	1	blank2r.bmp	880	5	eitel	880	0	0	0	0	0	0	0	0	0	0	0	0
2024-05-14	10:09:51	10:11:26	94435	6.6.1	4_exp_EVA_AWA_CON	28	B	A	Rpleas_acq	Oppo	Rpleas	2pleas	acq_new_unple_nomask	acq1_nomask	1	7	0	0	300	300	0	0	1735	50	0	0	tolerant	schlau	treu	retten	ehrlich	schön	tyrannisch	schroff	tot	rächen	eitel	schlecht	helfen	spielen	loyal	freundlich	fair	lachen	hindern	strafen	lasch	fanatisch	faul	leiden	1	blank2r.bmp	0	1	+	0	1	blank2r.bmp	500	2	B2r.bmp	500	1	blank2r.bmp	880	4	fanatisch	880	1	FEHLER	2636	0	0	0	0	0	0	0	0	0
2024-05-14	10:09:51	10:11:28	96506	6.6.1	4_exp_EVA_AWA_CON	28	B	A	Rpleas_acq	Oppo	Rpleas	2pleas	acq_new_pleas_nomask	acq1_nomask	1	8	0	0	300	300	0	0	785	50	1	0	tolerant	schlau	treu	retten	ehrlich	schön	tyrannisch	schroff	tot	rächen	eitel	schlecht	helfen	spielen	loyal	freundlich	fair	lachen	hindern	strafen	lasch	fanatisch	faul	leiden	1	blank2r.bmp	0	1	+	0	1	blank2r.bmp	500	4	B4r.bmp	500	1	blank2r.bmp	880	6	lachen	880	0	0	0	0	0	0	0	0	0	0	0	0
2024-05-14	10:09:51	10:11:30	98650	6.6.1	4_exp_EVA_AWA_CON	28	B	A	Rpleas_acq	Oppo	Rpleas	2pleas	acq_new_pleas_nomask	acq1_nomask	1	9	0	0	300	300	0	0	657	50	1	0	tolerant	schlau	treu	retten	ehrlich	schön	tyrannisch	schroff	tot	rächen	eitel	schlecht	helfen	spielen	loyal	freundlich	fair	lachen	hindern	strafen	lasch	fanatisch	faul	leiden	1	blank2r.bmp	0	1	+	0	1	blank2r.bmp	500	3	B3r.bmp	500	1	blank2r.bmp	880	5	fair	880	0	0	0	0	0	0	0	0	0	0	0	0
2024-05-14	10:09:51	10:11:32	100898	6.6.1	4_exp_EVA_AWA_CON	28	B	A	Rpleas_acq	Oppo	Rpleas	2pleas	acq_US_unple_nomask	acq1_nomask	1	10	0	0	300	300	0	0	764	46	1	0	tolerant	schlau	treu	retten	ehrlich	schön	tyrannisch	schroff	tot	rächen	eitel	schlecht	helfen	spielen	loyal	freundlich	fair	lachen	hindern	strafen	lasch	fanatisch	faul	leiden	1	blank2r.bmp	0	1	+	0	1	blank2r.bmp	500	1	BMVZ	500	1	blank2r.bmp	880	3	tot	880	0	0	0	0	0	0	0	0	0	0	0	0
2024-05-14	10:09:51	10:11:35	102978	6.6.1	4_exp_EVA_AWA_CON	28	B	A	Rpleas_acq	Oppo	Rpleas	2pleas	acq_US_pleas_nomask	acq1_nomask	1	11	0	0	300	300	0	0	593	50	1	0	tolerant	schlau	treu	retten	ehrlich	schön	tyrannisch	schroff	tot	rächen	eitel	schlecht	helfen	spielen	loyal	freundlich	fair	lachen	hindern	strafen	lasch	fanatisch	faul	leiden	1	blank2r.bmp	0	1	+	0	1	blank2r.bmp	500	1	GKQX	500	1	blank2r.bmp	880	6	schön	880	0	0	0	0	0	0	0	0	0	0	0	0
2024-05-14	10:09:51	10:11:37	105410	6.6.1	4_exp_EVA_AWA_CON	28	B	A	Rpleas_acq	Oppo	Rpleas	2pleas	acq_new_unple_nomask	acq1_nomask	1	12	0	0	300	300	0	0	943	46	1	0	tolerant	schlau	treu	retten	ehrlich	schön	tyrannisch	schroff	tot	rächen	eitel	schlecht	helfen	spielen	loyal	freundlich	fair	lachen	hindern	strafen	lasch	fanatisch	faul	leiden	1	blank2r.bmp	0	1	+	0	1	blank2r.bmp	500	1	B1r.bmp	500	1	blank2r.bmp	880	1	hindern	880	0	0	0	0	0	0	0	0	0	0	0	0
2024-05-14	10:09:51	10:11:40	108050	6.6.1	4_exp_EVA_AWA_CON	28	B	A	Rpleas_acq	Oppo	Rpleas	2pleas	acq_US_unple_nomask	acq1_nomask	1	13	0	0	300	300	0	0	1152	46	1	0	tolerant	schlau	treu	retten	ehrlich	schön	tyrannisch	schroff	tot	rächen	eitel	schlecht	helfen	spielen	loyal	freundlich	fair	lachen	hindern	strafen	lasch	fanatisch	faul	leiden	1	blank2r.bmp	0	1	+	0	1	blank2r.bmp	500	1	BMVZ	500	1	blank2r.bmp	880	4	rächen	880	0	0	0	0	0	0	0	0	0	0	0	0
2024-05-14	10:09:51	10:11:42	110514	6.6.1	4_exp_EVA_AWA_CON	28	B	A	Rpleas_acq	Oppo	Rpleas	2pleas	acq_new_unple_nomask	acq1_nomask	1	14	0	0	300	300	0	0	974	46	1	0	tolerant	schlau	treu	retten	ehrlich	schön	tyrannisch	schroff	tot	rächen	eitel	schlecht	helfen	spielen	loyal	freundlich	fair	lachen	hindern	strafen	lasch	fanatisch	faul	leiden	1	blank2r.bmp	0	1	+	0	1	blank2r.bmp	500	5	C1r.bmp	500	1	blank2r.bmp	880	2	strafen	880	0	0	0	0	0	0	0	0	0	0	0	0
2024-05-14	10:09:51	10:11:44	112698	6.6.1	4_exp_EVA_AWA_CON	28	B	A	Rpleas_acq	Oppo	Rpleas	2pleas	acq_US_pleas_nomask	acq1_nomask	1	15	0	0	300	300	0	0	696	50	1	0	tolerant	schlau	treu	retten	ehrlich	schön	tyrannisch	schroff	tot	rächen	eitel	schlecht	helfen	spielen	loyal	freundlich	fair	lachen	hindern	strafen	lasch	fanatisch	faul	leiden	1	blank2r.bmp	0	1	+	0	1	blank2r.bmp	500	1	GKQX	500	1	blank2r.bmp	880	2	schlau	880	0	0	0	0	0	0	0	0	0	0	0	0
2024-05-14	10:09:51	10:11:46	114794	6.6.1	4_exp_EVA_AWA_CON	28	B	A	Rpleas_acq	Oppo	Rpleas	2pleas	acq_new_pleas_nomask	acq1_nomask	1	16	0	0	300	300	0	0	611	50	1	0	tolerant	schlau	treu	retten	ehrlich	schön	tyrannisch	schroff	tot	rächen	eitel	schlecht	helfen	spielen	loyal	freundlich	fair	lachen	hindern	strafen	lasch	fanatisch	faul	leiden	1	blank2r.bmp	0	1	+	0	1	blank2r.bmp	500	7	C3r.bmp	500	1	blank2r.bmp	880	4	freundlich	880	0	0	0	0	0	0	0	0	0	0	0	0
2024-05-14	10:09:51	10:11:48	116946	6.6.1	4_exp_EVA_AWA_CON	28	B	A	Rpleas_acq	Oppo	Rpleas	2pleas	acq_US_pleas_nomask	acq1_nomask	1	17	0	0	300	300	0	0	672	50	1	0	tolerant	schlau	treu	retten	ehrlich	schön	tyrannisch	schroff	tot	rächen	eitel	schlecht	helfen	spielen	loyal	freundlich	fair	lachen	hindern	strafen	lasch	fanatisch	faul	leiden	1	blank2r.bmp	0	1	+	0	1	blank2r.bmp	500	1	GKQX	500	1	blank2r.bmp	880	5	ehrlich	880	0	0	0	0	0	0	0	0	0	0	0	0
2024-05-14	10:09:51	10:11:51	119130	6.6.1	4_exp_EVA_AWA_CON	28	B	A	Rpleas_acq	Oppo	Rpleas	2pleas	acq_new_pleas_nomask	acq1_nomask	1	18	0	0	300	300	0	0	694	50	1	0	tolerant	schlau	treu	retten	ehrlich	schön	tyrannisch	schroff	tot	rächen	eitel	schlecht	helfen	spielen	loyal	freundlich	fair	lachen	hindern	strafen	lasch	fanatisch	faul	leiden	1	blank2r.bmp	0	1	+	0	1	blank2r.bmp	500	6	C2r.bmp	500	1	blank2r.bmp	880	1	helfen	880	0	0	0	0	0	0	0	0	0	0	0	0
2024-05-14	10:09:51	10:11:53	121378	6.6.1	4_exp_EVA_AWA_CON	28	B	A	Rpleas_acq	Oppo	Rpleas	2pleas	acq_new_unple_nomask	acq1_nomask	1	19	0	0	300	300	0	0	761	46	1	0	tolerant	schlau	treu	retten	ehrlich	schön	tyrannisch	schroff	tot	rächen	eitel	schlecht	helfen	spielen	loyal	freundlich	fair	lachen	hindern	strafen	lasch	fanatisch	faul	leiden	1	blank2r.bmp	0	1	+	0	1	blank2r.bmp	500	7	C3r.bmp	500	1	blank2r.bmp	880	6	leiden	880	0	0	0	0	0	0	0	0	0	0	0	0
2024-05-14	10:09:51	10:11:55	123546	6.6.1	4_exp_EVA_AWA_CON	28	B	A	Rpleas_acq	Oppo	Rpleas	2pleas	acq_new_pleas_nomask	acq1_nomask	1	20	0	0	300	300	0	0	687	50	1	0	tolerant	schlau	treu	retten	ehrlich	schön	tyrannisch	schroff	tot	rächen	eitel	schlecht	helfen	spielen	loyal	freundlich	fair	lachen	hindern	strafen	lasch	fanatisch	faul	leiden	1	blank2r.bmp	0	1	+	0	1	blank2r.bmp	500	2	B2r.bmp	500	1	blank2r.bmp	880	3	loyal	880	0	0	0	0	0	0	0	0	0	0	0	0
2024-05-14	10:09:51	10:11:57	125610	6.6.1	4_exp_EVA_AWA_CON	28	B	A	Rpleas_acq	Oppo	Rpleas	2pleas	acq_US_pleas_nomask	acq1_nomask	1	21	0	0	300	300	0	0	580	50	1	0	tolerant	schlau	treu	retten	ehrlich	schön	tyrannisch	schroff	tot	rächen	eitel	schlecht	helfen	spielen	loyal	freundlich	fair	lachen	hindern	strafen	lasch	fanatisch	faul	leiden	1	blank2r.bmp	0	1	+	0	1	blank2r.bmp	500	1	GKQX	500	1	blank2r.bmp	880	3	treu	880	0	0	0	0	0	0	0	0	0	0	0	0
2024-05-14	10:09:51	10:12:00	127986	6.6.1	4_exp_EVA_AWA_CON	28	B	A	Rpleas_acq	Oppo	Rpleas	2pleas	acq_new_unple_nomask	acq1_nomask	1	22	0	0	300	300	0	0	895	46	1	0	tolerant	schlau	treu	retten	ehrlich	schön	tyrannisch	schroff	tot	rächen	eitel	schlecht	helfen	spielen	loyal	freundlich	fair	lachen	hindern	strafen	lasch	fanatisch	faul	leiden	1	blank2r.bmp	0	1	+	0	1	blank2r.bmp	500	3	B3r.bmp	500	1	blank2r.bmp	880	3	lasch	880	0	0	0	0	0	0	0	0	0	0	0	0
2024-05-14	10:09:51	10:12:02	130178	6.6.1	4_exp_EVA_AWA_CON	28	B	A	Rpleas_acq	Oppo	Rpleas	2pleas	acq_US_unple_nomask	acq1_nomask	1	23	0	0	300	300	0	0	705	46	1	0	tolerant	schlau	treu	retten	ehrlich	schön	tyrannisch	schroff	tot	rächen	eitel	schlecht	helfen	spielen	loyal	freundlich	fair	lachen	hindern	strafen	lasch	fanatisch	faul	leiden	1	blank2r.bmp	0	1	+	0	1	blank2r.bmp	500	1	BMVZ	500	1	blank2r.bmp	880	1	tyrannisch	880	0	0	0	0	0	0	0	0	0	0	0	0
2024-05-14	10:09:51	10:12:04	132402	6.6.1	4_exp_EVA_AWA_CON	28	B	A	Rpleas_acq	Oppo	Rpleas	2pleas	acq_US_unple_nomask	acq1_nomask	1	24	0	0	300	300	0	0	738	46	1	0	tolerant	schlau	treu	retten	ehrlich	schön	tyrannisch	schroff	tot	rächen	eitel	schlecht	helfen	spielen	loyal	freundlich	fair	lachen	hindern	strafen	lasch	fanatisch	faul	leiden	1	blank2r.bmp	0	1	+	0	1	blank2r.bmp	500	1	BMVZ	500	1	blank2r.bmp	880	6	schlecht	880	0	0	0	0	0	0	0	0	0	0	0	0
2024-05-14	10:09:51	10:12:06	134450	6.6.1	4_exp_EVA_AWA_CON	28	B	A	Rpleas_acq	Oppo	Rpleas	2pleas	acq_US_pleas_nomask	acq1_nomask	1	25	0	0	300	300	0	0	564	50	1	0	tolerant	schlau	treu	retten	ehrlich	schön	tyrannisch	schroff	tot	rächen	eitel	schlecht	helfen	spielen	loyal	freundlich	fair	lachen	hindern	strafen	lasch	fanatisch	faul	leiden	1	blank2r.bmp	0	1	+	0	1	blank2r.bmp	500	1	GKQX	500	1	blank2r.bmp	880	3	treu	880	0	0	0	0	0	0	0	0	0	0	0	0
2024-05-14	10:09:51	10:12:08	136602	6.6.1	4_exp_EVA_AWA_CON	28	B	A	Rpleas_acq	Oppo	Rpleas	2pleas	acq_new_unple_nomask	acq1_nomask	1	26	0	0	300	300	0	0	665	46	1	0	tolerant	schlau	treu	retten	ehrlich	schön	tyrannisch	schroff	tot	rächen	eitel	schlecht	helfen	spielen	loyal	freundlich	fair	lachen	hindern	strafen	lasch	fanatisch	faul	leiden	1	blank2r.bmp	0	1	+	0	1	blank2r.bmp	500	8	C4r.bmp	500	1	blank2r.bmp	880	3	lasch	880	0	0	0	0	0	0	0	0	0	0	0	0
2024-05-14	10:09:51	10:12:10	138914	6.6.1	4_exp_EVA_AWA_CON	28	B	A	Rpleas_acq	Oppo	Rpleas	2pleas	acq_US_pleas_nomask	acq1_nomask	1	27	0	0	300	300	0	0	826	50	1	0	tolerant	schlau	treu	retten	ehrlich	schön	tyrannisch	schroff	tot	rächen	eitel	schlecht	helfen	spielen	loyal	freundlich	fair	lachen	hindern	strafen	lasch	fanatisch	faul	leiden	1	blank2r.bmp	0	1	+	0	1	blank2r.bmp	500	1	GKQX	500	1	blank2r.bmp	880	1	tolerant	880	0	0	0	0	0	0	0	0	0	0	0	0
2024-05-14	10:09:51	10:12:13	140986	6.6.1	4_exp_EVA_AWA_CON	28	B	A	Rpleas_acq	Oppo	Rpleas	2pleas	acq_US_pleas_nomask	acq1_nomask	1	28	0	0	300	300	0	0	586	50	1	0	tolerant	schlau	treu	retten	ehrlich	schön	tyrannisch	schroff	tot	rächen	eitel	schlecht	helfen	spielen	loyal	freundlich	fair	lachen	hindern	strafen	lasch	fanatisch	faul	leiden	1	blank2r.bmp	0	1	+	0	1	blank2r.bmp	500	1	GKQX	500	1	blank2r.bmp	880	6	schön	880	0	0	0	0	0	0	0	0	0	0	0	0
2024-05-14	10:09:51	10:12:15	143106	6.6.1	4_exp_EVA_AWA_CON	28	B	A	Rpleas_acq	Oppo	Rpleas	2pleas	acq_US_unple_nomask	acq1_nomask	1	29	0	0	300	300	0	0	635	46	1	0	tolerant	schlau	treu	retten	ehrlich	schön	tyrannisch	schroff	tot	rächen	eitel	schlecht	helfen	spielen	loyal	freundlich	fair	lachen	hindern	strafen	lasch	fanatisch	faul	leiden	1	blank2r.bmp	0	1	+	0	1	blank2r.bmp	500	1	BMVZ	500	1	blank2r.bmp	880	5	eitel	880	0	0	0	0	0	0	0	0	0	0	0	0
2024-05-14	10:09:51	10:12:17	145130	6.6.1	4_exp_EVA_AWA_CON	28	B	A	Rpleas_acq	Oppo	Rpleas	2pleas	acq_US_unple_nomask	acq1_nomask	1	30	0	0	300	300	0	0	537	46	1	0	tolerant	schlau	treu	retten	ehrlich	schön	tyrannisch	schroff	tot	rächen	eitel	schlecht	helfen	spielen	loyal	freundlich	fair	lachen	hindern	strafen	lasch	fanatisch	faul	leiden	1	blank2r.bmp	0	1	+	0	1	blank2r.bmp	500	1	BMVZ	500	1	blank2r.bmp	880	2	schroff	880	0	0	0	0	0	0	0	0	0	0	0	0
2024-05-14	10:09:51	10:12:19	147210	6.6.1	4_exp_EVA_AWA_CON	28	B	A	Rpleas_acq	Oppo	Rpleas	2pleas	acq_US_unple_nomask	acq1_nomask	1	31	0	0	300	300	0	0	596	46	1	0	tolerant	schlau	treu	retten	ehrlich	schön	tyrannisch	schroff	tot	rächen	eitel	schlecht	helfen	spielen	loyal	freundlich	fair	lachen	hindern	strafen	lasch	fanatisch	faul	leiden	1	blank2r.bmp	0	1	+	0	1	blank2r.bmp	500	1	BMVZ	500	1	blank2r.bmp	880	4	rächen	880	0	0	0	0	0	0	0	0	0	0	0	0
2024-05-14	10:09:51	10:12:21	149242	6.6.1	4_exp_EVA_AWA_CON	28	B	A	Rpleas_acq	Oppo	Rpleas	2pleas	acq_new_pleas_nomask	acq1_nomask	1	32	0	0	300	300	0	0	547	50	1	0	tolerant	schlau	treu	retten	ehrlich	schön	tyrannisch	schroff	tot	rächen	eitel	schlecht	helfen	spielen	loyal	freundlich	fair	lachen	hindern	strafen	lasch	fanatisch	faul	leiden	1	blank2r.bmp	0	1	+	0	1	blank2r.bmp	500	1	B1r.bmp	500	1	blank2r.bmp	880	3	loyal	880	0	0	0	0	0	0	0	0	0	0	0	0
2024-05-14	10:09:51	10:12:23	151595	6.6.1	4_exp_EVA_AWA_CON	28	B	A	Rpleas_acq	Oppo	Rpleas	2pleas	acq_new_unple_nomask	acq1_nomask	1	33	0	0	300	300	0	0	667	50	0	0	tolerant	schlau	treu	retten	ehrlich	schön	tyrannisch	schroff	tot	rächen	eitel	schlecht	helfen	spielen	loyal	freundlich	fair	lachen	hindern	strafen	lasch	fanatisch	faul	leiden	1	blank2r.bmp	0	1	+	0	1	blank2r.bmp	500	5	C1r.bmp	500	1	blank2r.bmp	880	4	fanatisch	880	1	FEHLER	1569	0	0	0	0	0	0	0	0	0
2024-05-14	10:09:51	10:12:25	153514	6.6.1	4_exp_EVA_AWA_CON	28	B	A	Rpleas_acq	Oppo	Rpleas	2pleas	acq_new_pleas_nomask	acq1_nomask	1	34	0	0	300	300	0	0	636	50	1	0	tolerant	schlau	treu	retten	ehrlich	schön	tyrannisch	schroff	tot	rächen	eitel	schlecht	helfen	spielen	loyal	freundlich	fair	lachen	hindern	strafen	lasch	fanatisch	faul	leiden	1	blank2r.bmp	0	1	+	0	1	blank2r.bmp	500	4	B4r.bmp	500	1	blank2r.bmp	880	1	helfen	880	0	0	0	0	0	0	0	0	0	0	0	0
2024-05-14	10:09:51	10:12:27	155666	6.6.1	4_exp_EVA_AWA_CON	28	B	A	Rpleas_acq	Oppo	Rpleas	2pleas	acq_new_unple_nomask	acq1_nomask	1	35	0	0	300	300	0	0	667	46	1	0	tolerant	schlau	treu	retten	ehrlich	schön	tyrannisch	schroff	tot	rächen	eitel	schlecht	helfen	spielen	loyal	freundlich	fair	lachen	hindern	strafen	lasch	fanatisch	faul	leiden	1	blank2r.bmp	0	1	+	0	1	blank2r.bmp	500	3	B3r.bmp	500	1	blank2r.bmp	880	5	faul	880	0	0	0	0	0	0	0	0	0	0	0	0
2024-05-14	10:09:51	10:12:29	157714	6.6.1	4_exp_EVA_AWA_CON	28	B	A	Rpleas_acq	Oppo	Rpleas	2pleas	acq_new_pleas_nomask	acq1_nomask	1	36	0	0	300	300	0	0	563	50	1	0	tolerant	schlau	treu	retten	ehrlich	schön	tyrannisch	schroff	tot	rächen	eitel	schlecht	helfen	spielen	loyal	freundlich	fair	lachen	hindern	strafen	lasch	fanatisch	faul	leiden	1	blank2r.bmp	0	1	+	0	1	blank2r.bmp	500	5	C1r.bmp	500	1	blank2r.bmp	880	5	fair	880	0	0	0	0	0	0	0	0	0	0	0	0
2024-05-14	10:09:51	10:13:03	191071	6.6.1	4_exp_EVA_AWA_CON	28	B	A	Rpleas_acq	Oppo	Rpleas	2pleas	acq_new_unple_nomask	acq2_nomask	2	1	480	0	300	300	0	0	1587	50	0	0	tolerant	schlau	treu	retten	ehrlich	schön	tyrannisch	schroff	tot	rächen	eitel	schlecht	helfen	spielen	loyal	freundlich	fair	lachen	hindern	strafen	lasch	fanatisch	faul	leiden	1	blank2r.bmp	0	1	+	0	1	blank2r.bmp	500	7	C3r.bmp	500	1	blank2r.bmp	880	2	strafen	880	1	FEHLER	2780	1	!	1312	1	!	-1	0	0	0
2024-05-14	10:09:51	10:13:05	193812	6.6.1	4_exp_EVA_AWA_CON	28	B	A	Rpleas_acq	Oppo	Rpleas	2pleas	acq_new_pleas_nomask	acq2_nomask	2	2	480	0	300	300	0	0	1169	50	1	0	tolerant	schlau	treu	retten	ehrlich	schön	tyrannisch	schroff	tot	rächen	eitel	schlecht	helfen	spielen	loyal	freundlich	fair	lachen	hindern	strafen	lasch	fanatisch	faul	leiden	1	blank2r.bmp	0	1	+	0	1	blank2r.bmp	500	2	B2r.bmp	500	1	blank2r.bmp	880	4	freundlich	880	1	!	1312	1	!	-1	0	0	0	0	0	0
2024-05-14	10:09:51	10:13:08	196500	6.6.1	4_exp_EVA_AWA_CON	28	B	A	Rpleas_acq	Oppo	Rpleas	2pleas	acq_new_pleas_nomask	acq2_nomask	2	3	480	0	300	300	0	0	915	50	1	0	tolerant	schlau	treu	retten	ehrlich	schön	tyrannisch	schroff	tot	rächen	eitel	schlecht	helfen	spielen	loyal	freundlich	fair	lachen	hindern	strafen	lasch	fanatisch	faul	leiden	1	blank2r.bmp	0	1	+	0	1	blank2r.bmp	500	1	B1r.bmp	500	1	blank2r.bmp	880	2	spielen	880	1	!	1312	1	!	-1	0	0	0	0	0	0
2024-05-14	10:09:51	10:13:10	198821	6.6.1	4_exp_EVA_AWA_CON	28	B	A	Rpleas_acq	Oppo	Rpleas	2pleas	acq_US_pleas_nomask	acq2_nomask	2	4	480	1	300	300	0	0	543	50	1	0	tolerant	schlau	treu	retten	ehrlich	schön	tyrannisch	schroff	tot	rächen	eitel	schlecht	helfen	spielen	loyal	freundlich	fair	lachen	hindern	strafen	lasch	fanatisch	faul	leiden	1	blank2r.bmp	0	1	+	0	1	blank2r.bmp	500	1	GKQX	500	1	blank2r.bmp	880	5	ehrlich	880	1	!	1313	1	!	1444	0	0	0	0	0	0
2024-05-14	10:09:51	10:13:13	201718	6.6.1	4_exp_EVA_AWA_CON	28	B	A	Rpleas_acq	Oppo	Rpleas	2pleas	acq_US_unple_nomask	acq2_nomask	2	5	480	0	300	300	0	0	918	50	0	0	tolerant	schlau	treu	retten	ehrlich	schön	tyrannisch	schroff	tot	rächen	eitel	schlecht	helfen	spielen	loyal	freundlich	fair	lachen	hindern	strafen	lasch	fanatisch	faul	leiden	1	blank2r.bmp	0	1	+	0	1	blank2r.bmp	500	1	BMVZ	500	1	blank2r.bmp	880	6	schlecht	880	1	FEHLER	2110	1	!	1312	1	!	-1	0	0	0
2024-05-14	10:09:51	10:13:16	204308	6.6.1	4_exp_EVA_AWA_CON	28	B	A	Rpleas_acq	Oppo	Rpleas	2pleas	acq_new_unple_nomask	acq2_nomask	2	6	480	0	300	300	0	0	1018	46	1	0	tolerant	schlau	treu	retten	ehrlich	schön	tyrannisch	schroff	tot	rächen	eitel	schlecht	helfen	spielen	loyal	freundlich	fair	lachen	hindern	strafen	lasch	fanatisch	faul	leiden	1	blank2r.bmp	0	1	+	0	1	blank2r.bmp	500	6	C2r.bmp	500	1	blank2r.bmp	880	6	leiden	880	1	!	1313	1	!	-1	0	0	0	0	0	0
2024-05-14	10:09:51	10:13:19	207092	6.6.1	4_exp_EVA_AWA_CON	28	B	A	Rpleas_acq	Oppo	Rpleas	2pleas	acq_new_pleas_nomask	acq2_nomask	2	7	480	0	300	300	0	0	1010	50	1	0	tolerant	schlau	treu	retten	ehrlich	schön	tyrannisch	schroff	tot	rächen	eitel	schlecht	helfen	spielen	loyal	freundlich	fair	lachen	hindern	strafen	lasch	fanatisch	faul	leiden	1	blank2r.bmp	0	1	+	0	1	blank2r.bmp	500	8	C4r.bmp	500	1	blank2r.bmp	880	6	lachen	880	1	!	1313	1	!	-1	0	0	0	0	0	0
2024-05-14	10:09:51	10:13:21	209988	6.6.1	4_exp_EVA_AWA_CON	28	B	A	Rpleas_acq	Oppo	Rpleas	2pleas	acq_US_unple_nomask	acq2_nomask	2	8	480	0	300	300	0	0	1114	46	1	0	tolerant	schlau	treu	retten	ehrlich	schön	tyrannisch	schroff	tot	rächen	eitel	schlecht	helfen	spielen	loyal	freundlich	fair	lachen	hindern	strafen	lasch	fanatisch	faul	leiden	1	blank2r.bmp	0	1	+	0	1	blank2r.bmp	500	1	BMVZ	500	1	blank2r.bmp	880	1	tyrannisch	880	1	!	1312	1	!	-1	0	0	0	0	0	0
2024-05-14	10:09:51	10:13:24	212286	6.6.1	4_exp_EVA_AWA_CON	28	B	A	Rpleas_acq	Oppo	Rpleas	2pleas	acq_US_pleas_nomask	acq2_nomask	2	9	480	1	300	300	0	0	518	50	1	0	tolerant	schlau	treu	retten	ehrlich	schön	tyrannisch	schroff	tot	rächen	eitel	schlecht	helfen	spielen	loyal	freundlich	fair	lachen	hindern	strafen	lasch	fanatisch	faul	leiden	1	blank2r.bmp	0	1	+	0	1	blank2r.bmp	500	1	GKQX	500	1	blank2r.bmp	880	2	schlau	880	1	!	1312	1	!	1419	0	0	0	0	0	0
2024-05-14	10:09:51	10:13:26	214605	6.6.1	4_exp_EVA_AWA_CON	28	B	A	Rpleas_acq	Oppo	Rpleas	2pleas	acq_US_unple_nomask	acq2_nomask	2	10	480	1	300	300	0	0	537	46	1	0	tolerant	schlau	treu	retten	ehrlich	schön	tyrannisch	schroff	tot	rächen	eitel	schlecht	helfen	spielen	loyal	freundlich	fair	lachen	hindern	strafen	lasch	fanatisch	faul	leiden	1	blank2r.bmp	0	1	+	0	1	blank2r.bmp	500	1	BMVZ	500	1	blank2r.bmp	880	3	tot	880	1	!	1313	1	!	1438	0	0	0	0	0	0
2024-05-14	10:09:51	10:13:29	217012	6.6.1	4_exp_EVA_AWA_CON	28	B	A	Rpleas_acq	Oppo	Rpleas	2pleas	acq_new_unple_nomask	acq2_nomask	2	11	480	0	300	300	0	0	634	46	1	0	tolerant	schlau	treu	retten	ehrlich	schön	tyrannisch	schroff	tot	rächen	eitel	schlecht	helfen	spielen	loyal	freundlich	fair	lachen	hindern	strafen	lasch	fanatisch	faul	leiden	1	blank2r.bmp	0	1	+	0	1	blank2r.bmp	500	4	B4r.bmp	500	1	blank2r.bmp	880	1	hindern	880	1	!	1312	1	!	-1	0	0	0	0	0	0
2024-05-14	10:09:51	10:13:31	219556	6.6.1	4_exp_EVA_AWA_CON	28	B	A	Rpleas_acq	Oppo	Rpleas	2pleas	acq_US_pleas_nomask	acq2_nomask	2	12	480	0	300	300	0	0	766	50	1	0	tolerant	schlau	treu	retten	ehrlich	schön	tyrannisch	schroff	tot	rächen	eitel	schlecht	helfen	spielen	loyal	freundlich	fair	lachen	hindern	strafen	lasch	fanatisch	faul	leiden	1	blank2r.bmp	0	1	+	0	1	blank2r.bmp	500	1	GKQX	500	1	blank2r.bmp	880	4	retten	880	1	!	1312	1	!	-1	0	0	0	0	0	0
2024-05-14	10:09:51	10:13:33	221644	6.6.1	4_exp_EVA_AWA_CON	28	B	A	Rpleas_acq	Oppo	Rpleas	2pleas	acq_US_unple_nomask	acq2_nomask	2	13	480	0	300	300	0	0	312	46	1	0	tolerant	schlau	treu	retten	ehrlich	schön	tyrannisch	schroff	tot	rächen	eitel	schlecht	helfen	spielen	loyal	freundlich	fair	lachen	hindern	strafen	lasch	fanatisch	faul	leiden	1	blank2r.bmp	0	1	+	0	1	blank2r.bmp	500	1	BMVZ	500	1	blank2r.bmp	880	1	tyrannisch	880	1	!	-1	1	!	-1	0	0	0	0	0	0
2024-05-14	10:09:51	10:13:35	223820	6.6.1	4_exp_EVA_AWA_CON	28	B	A	Rpleas_acq	Oppo	Rpleas	2pleas	acq_new_pleas_nomask	acq2_nomask	2	14	480	0	300	300	0	0	397	50	1	0	tolerant	schlau	treu	retten	ehrlich	schön	tyrannisch	schroff	tot	rächen	eitel	schlecht	helfen	spielen	loyal	freundlich	fair	lachen	hindern	strafen	lasch	fanatisch	faul	leiden	1	blank2r.bmp	0	1	+	0	1	blank2r.bmp	500	1	B1r.bmp	500	1	blank2r.bmp	880	4	freundlich	880	1	!	-1	1	!	-1	0	0	0	0	0	0
2024-05-14	10:09:51	10:13:38	226300	6.6.1	4_exp_EVA_AWA_CON	28	B	A	Rpleas_acq	Oppo	Rpleas	2pleas	acq_US_unple_nomask	acq2_nomask	2	15	480	0	300	300	0	0	706	46	1	0	tolerant	schlau	treu	retten	ehrlich	schön	tyrannisch	schroff	tot	rächen	eitel	schlecht	helfen	spielen	loyal	freundlich	fair	lachen	hindern	strafen	lasch	fanatisch	faul	leiden	1	blank2r.bmp	0	1	+	0	1	blank2r.bmp	500	1	BMVZ	500	1	blank2r.bmp	880	2	schroff	880	1	!	1312	1	!	-1	0	0	0	0	0	0
2024-05-14	10:09:51	10:13:40	228747	6.6.1	4_exp_EVA_AWA_CON	28	B	A	Rpleas_acq	Oppo	Rpleas	2pleas	acq_US_unple_nomask	acq2_nomask	2	16	480	0	300	300	0	0	672	46	1	0	tolerant	schlau	treu	retten	ehrlich	schön	tyrannisch	schroff	tot	rächen	eitel	schlecht	helfen	spielen	loyal	freundlich	fair	lachen	hindern	strafen	lasch	fanatisch	faul	leiden	1	blank2r.bmp	0	1	+	0	1	blank2r.bmp	500	1	BMVZ	500	1	blank2r.bmp	880	6	schlecht	880	1	!	1312	1	!	-1	0	0	0	0	0	0
2024-05-14	10:09:51	10:13:42	230965	6.6.1	4_exp_EVA_AWA_CON	28	B	A	Rpleas_acq	Oppo	Rpleas	2pleas	acq_new_unple_nomask	acq2_nomask	2	17	480	1	300	300	0	0	436	46	1	0	tolerant	schlau	treu	retten	ehrlich	schön	tyrannisch	schroff	tot	rächen	eitel	schlecht	helfen	spielen	loyal	freundlich	fair	lachen	hindern	strafen	lasch	fanatisch	faul	leiden	1	blank2r.bmp	0	1	+	0	1	blank2r.bmp	500	8	C4r.bmp	500	1	blank2r.bmp	880	1	hindern	880	1	!	1312	1	!	1337	0	0	0	0	0	0
2024-05-14	10:09:51	10:13:45	233148	6.6.1	4_exp_EVA_AWA_CON	28	B	A	Rpleas_acq	Oppo	Rpleas	2pleas	acq_new_pleas_nomask	acq2_nomask	2	18	480	0	300	300	0	0	409	50	1	0	tolerant	schlau	treu	retten	ehrlich	schön	tyrannisch	schroff	tot	rächen	eitel	schlecht	helfen	spielen	loyal	freundlich	fair	lachen	hindern	strafen	lasch	fanatisch	faul	leiden	1	blank2r.bmp	0	1	+	0	1	blank2r.bmp	500	2	B2r.bmp	500	1	blank2r.bmp	880	2	spielen	880	1	!	-1	1	!	-1	0	0	0	0	0	0
2024-05-14	10:09:51	10:13:47	235532	6.6.1	4_exp_EVA_AWA_CON	28	B	A	Rpleas_acq	Oppo	Rpleas	2pleas	acq_US_pleas_nomask	acq2_nomask	2	19	480	0	300	300	0	0	612	50	1	0	tolerant	schlau	treu	retten	ehrlich	schön	tyrannisch	schroff	tot	rächen	eitel	schlecht	helfen	spielen	loyal	freundlich	fair	lachen	hindern	strafen	lasch	fanatisch	faul	leiden	1	blank2r.bmp	0	1	+	0	1	blank2r.bmp	500	1	GKQX	500	1	blank2r.bmp	880	3	treu	880	1	!	1312	1	!	-1	0	0	0	0	0	0
2024-05-14	10:09:51	10:13:49	237749	6.6.1	4_exp_EVA_AWA_CON	28	B	A	Rpleas_acq	Oppo	Rpleas	2pleas	acq_US_pleas_nomask	acq2_nomask	2	20	480	1	300	300	0	0	436	50	1	0	tolerant	schlau	treu	retten	ehrlich	schön	tyrannisch	schroff	tot	rächen	eitel	schlecht	helfen	spielen	loyal	freundlich	fair	lachen	hindern	strafen	lasch	fanatisch	faul	leiden	1	blank2r.bmp	0	1	+	0	1	blank2r.bmp	500	1	GKQX	500	1	blank2r.bmp	880	5	ehrlich	880	1	!	1313	1	!	1337	0	0	0	0	0	0
2024-05-14	10:09:51	10:13:51	239852	6.6.1	4_exp_EVA_AWA_CON	28	B	A	Rpleas_acq	Oppo	Rpleas	2pleas	acq_US_pleas_nomask	acq2_nomask	2	21	480	0	300	300	0	0	329	50	1	0	tolerant	schlau	treu	retten	ehrlich	schön	tyrannisch	schroff	tot	rächen	eitel	schlecht	helfen	spielen	loyal	freundlich	fair	lachen	hindern	strafen	lasch	fanatisch	faul	leiden	1	blank2r.bmp	0	1	+	0	1	blank2r.bmp	500	1	GKQX	500	1	blank2r.bmp	880	6	schön	880	1	!	-1	1	!	-1	0	0	0	0	0	0
2024-05-14	10:09:51	10:13:54	242061	6.6.1	4_exp_EVA_AWA_CON	28	B	A	Rpleas_acq	Oppo	Rpleas	2pleas	acq_new_pleas_nomask	acq2_nomask	2	22	480	1	300	300	0	0	435	50	1	0	tolerant	schlau	treu	retten	ehrlich	schön	tyrannisch	schroff	tot	rächen	eitel	schlecht	helfen	spielen	loyal	freundlich	fair	lachen	hindern	strafen	lasch	fanatisch	faul	leiden	1	blank2r.bmp	0	1	+	0	1	blank2r.bmp	500	4	B4r.bmp	500	1	blank2r.bmp	880	3	loyal	880	1	!	1313	1	!	1336	0	0	0	0	0	0
2024-05-14	10:09:51	10:13:56	244503	6.6.1	4_exp_EVA_AWA_CON	28	B	A	Rpleas_acq	Oppo	Rpleas	2pleas	acq_new_unple_nomask	acq2_nomask	2	23	480	1	300	300	0	0	464	50	0	0	tolerant	schlau	treu	retten	ehrlich	schön	tyrannisch	schroff	tot	rächen	eitel	schlecht	helfen	spielen	loyal	freundlich	fair	lachen	hindern	strafen	lasch	fanatisch	faul	leiden	1	blank2r.bmp	0	1	+	0	1	blank2r.bmp	500	7	C3r.bmp	500	1	blank2r.bmp	880	6	leiden	880	1	FEHLER	1657	1	!	1313	1	!	1365	0	0	0
2024-05-14	10:09:51	10:13:58	246613	6.6.1	4_exp_EVA_AWA_CON	28	B	A	Rpleas_acq	Oppo	Rpleas	2pleas	acq_new_unple_nomask	acq2_nomask	2	24	480	1	300	300	0	0	534	46	1	0	tolerant	schlau	treu	retten	ehrlich	schön	tyrannisch	schroff	tot	rächen	eitel	schlecht	helfen	spielen	loyal	freundlich	fair	lachen	hindern	strafen	lasch	fanatisch	faul	leiden	1	blank2r.bmp	0	1	+	0	1	blank2r.bmp	500	5	C1r.bmp	500	1	blank2r.bmp	880	3	lasch	880	1	!	1312	1	!	1435	0	0	0	0	0	0
2024-05-14	10:09:51	10:14:00	248837	6.6.1	4_exp_EVA_AWA_CON	28	B	A	Rpleas_acq	Oppo	Rpleas	2pleas	acq_US_unple_nomask	acq2_nomask	2	25	480	1	300	300	0	0	447	46	1	0	tolerant	schlau	treu	retten	ehrlich	schön	tyrannisch	schroff	tot	rächen	eitel	schlecht	helfen	spielen	loyal	freundlich	fair	lachen	hindern	strafen	lasch	fanatisch	faul	leiden	1	blank2r.bmp	0	1	+	0	1	blank2r.bmp	500	1	BMVZ	500	1	blank2r.bmp	880	5	eitel	880	1	!	1312	1	!	1348	0	0	0	0	0	0
2024-05-14	10:09:51	10:14:03	251028	6.6.1	4_exp_EVA_AWA_CON	28	B	A	Rpleas_acq	Oppo	Rpleas	2pleas	acq_new_unple_nomask	acq2_nomask	2	26	480	1	300	300	0	0	417	46	1	0	tolerant	schlau	treu	retten	ehrlich	schön	tyrannisch	schroff	tot	rächen	eitel	schlecht	helfen	spielen	loyal	freundlich	fair	lachen	hindern	strafen	lasch	fanatisch	faul	leiden	1	blank2r.bmp	0	1	+	0	1	blank2r.bmp	500	3	B3r.bmp	500	1	blank2r.bmp	880	2	strafen	880	1	!	1312	1	!	1317	0	0	0	0	0	0
2024-05-14	10:09:51	10:14:05	253334	6.6.1	4_exp_EVA_AWA_CON	28	B	A	Rpleas_acq	Oppo	Rpleas	2pleas	acq_new_pleas_nomask	acq2_nomask	2	27	480	1	300	300	0	0	530	50	1	0	tolerant	schlau	treu	retten	ehrlich	schön	tyrannisch	schroff	tot	rächen	eitel	schlecht	helfen	spielen	loyal	freundlich	fair	lachen	hindern	strafen	lasch	fanatisch	faul	leiden	1	blank2r.bmp	0	1	+	0	1	blank2r.bmp	500	6	C2r.bmp	500	1	blank2r.bmp	880	5	fair	880	1	!	1313	1	!	1432	0	0	0	0	0	0
2024-05-14	10:09:51	10:14:07	255597	6.6.1	4_exp_EVA_AWA_CON	28	B	A	Rpleas_acq	Oppo	Rpleas	2pleas	acq_US_pleas_nomask	acq2_nomask	2	28	480	1	300	300	0	0	483	50	1	0	tolerant	schlau	treu	retten	ehrlich	schön	tyrannisch	schroff	tot	rächen	eitel	schlecht	helfen	spielen	loyal	freundlich	fair	lachen	hindern	strafen	lasch	fanatisch	faul	leiden	1	blank2r.bmp	0	1	+	0	1	blank2r.bmp	500	1	GKQX	500	1	blank2r.bmp	880	2	schlau	880	1	!	1313	1	!	1383	0	0	0	0	0	0
2024-05-14	10:09:51	10:14:09	257980	6.6.1	4_exp_EVA_AWA_CON	28	B	A	Rpleas_acq	Oppo	Rpleas	2pleas	acq_US_unple_nomask	acq2_nomask	2	29	480	0	300	300	0	0	605	46	1	0	tolerant	schlau	treu	retten	ehrlich	schön	tyrannisch	schroff	tot	rächen	eitel	schlecht	helfen	spielen	loyal	freundlich	fair	lachen	hindern	strafen	lasch	fanatisch	faul	leiden	1	blank2r.bmp	0	1	+	0	1	blank2r.bmp	500	1	BMVZ	500	1	blank2r.bmp	880	4	rächen	880	1	!	1312	1	!	-1	0	0	0	0	0	0
2024-05-14	10:09:51	10:14:12	260278	6.6.1	4_exp_EVA_AWA_CON	28	B	A	Rpleas_acq	Oppo	Rpleas	2pleas	acq_US_unple_nomask	acq2_nomask	2	30	480	1	300	300	0	0	520	46	1	0	tolerant	schlau	treu	retten	ehrlich	schön	tyrannisch	schroff	tot	rächen	eitel	schlecht	helfen	spielen	loyal	freundlich	fair	lachen	hindern	strafen	lasch	fanatisch	faul	leiden	1	blank2r.bmp	0	1	+	0	1	blank2r.bmp	500	1	BMVZ	500	1	blank2r.bmp	880	3	tot	880	1	!	1313	1	!	1421	0	0	0	0	0	0
2024-05-14	10:09:51	10:14:14	262694	6.6.1	4_exp_EVA_AWA_CON	28	B	A	Rpleas_acq	Oppo	Rpleas	2pleas	acq_new_pleas_nomask	acq2_nomask	2	31	480	1	300	300	0	0	434	46	0	0	tolerant	schlau	treu	retten	ehrlich	schön	tyrannisch	schroff	tot	rächen	eitel	schlecht	helfen	spielen	loyal	freundlich	fair	lachen	hindern	strafen	lasch	fanatisch	faul	leiden	1	blank2r.bmp	0	1	+	0	1	blank2r.bmp	500	1	B1r.bmp	500	1	blank2r.bmp	880	6	lachen	880	1	FEHLER	1627	1	!	1313	1	!	1335	0	0	0
2024-05-14	10:09:51	10:14:16	264875	6.6.1	4_exp_EVA_AWA_CON	28	B	A	Rpleas_acq	Oppo	Rpleas	2pleas	acq_US_pleas_nomask	acq2_nomask	2	32	480	0	300	300	0	0	607	50	1	0	tolerant	schlau	treu	retten	ehrlich	schön	tyrannisch	schroff	tot	rächen	eitel	schlecht	helfen	spielen	loyal	freundlich	fair	lachen	hindern	strafen	lasch	fanatisch	faul	leiden	1	blank2r.bmp	0	1	+	0	1	blank2r.bmp	500	1	GKQX	500	1	blank2r.bmp	880	4	retten	880	1	!	1312	1	!	-1	0	0	0	0	0	0
2024-05-14	10:09:51	10:14:19	267252	6.6.1	4_exp_EVA_AWA_CON	28	B	A	Rpleas_acq	Oppo	Rpleas	2pleas	acq_US_pleas_nomask	acq2_nomask	2	33	480	0	300	300	0	0	601	50	1	0	tolerant	schlau	treu	retten	ehrlich	schön	tyrannisch	schroff	tot	rächen	eitel	schlecht	helfen	spielen	loyal	freundlich	fair	lachen	hindern	strafen	lasch	fanatisch	faul	leiden	1	blank2r.bmp	0	1	+	0	1	blank2r.bmp	500	1	GKQX	500	1	blank2r.bmp	880	1	tolerant	880	1	!	1312	1	!	-1	0	0	0	0	0	0
2024-05-14	10:09:51	10:14:21	269718	6.6.1	4_exp_EVA_AWA_CON	28	B	A	Rpleas_acq	Oppo	Rpleas	2pleas	acq_new_unple_nomask	acq2_nomask	2	34	480	1	300	300	0	0	484	50	0	0	tolerant	schlau	treu	retten	ehrlich	schön	tyrannisch	schroff	tot	rächen	eitel	schlecht	helfen	spielen	loyal	freundlich	fair	lachen	hindern	strafen	lasch	fanatisch	faul	leiden	1	blank2r.bmp	0	1	+	0	1	blank2r.bmp	500	8	C4r.bmp	500	1	blank2r.bmp	880	4	fanatisch	880	1	FEHLER	1676	1	!	1313	1	!	1385	0	0	0
2024-05-14	10:09:51	10:14:23	271797	6.6.1	4_exp_EVA_AWA_CON	28	B	A	Rpleas_acq	Oppo	Rpleas	2pleas	acq_new_pleas_nomask	acq2_nomask	2	35	480	1	300	300	0	0	502	50	1	0	tolerant	schlau	treu	retten	ehrlich	schön	tyrannisch	schroff	tot	rächen	eitel	schlecht	helfen	spielen	loyal	freundlich	fair	lachen	hindern	strafen	lasch	fanatisch	faul	leiden	1	blank2r.bmp	0	1	+	0	1	blank2r.bmp	500	3	B3r.bmp	500	1	blank2r.bmp	880	1	helfen	880	1	!	1312	1	!	1403	0	0	0	0	0	0
2024-05-14	10:09:51	10:14:26	274046	6.6.1	4_exp_EVA_AWA_CON	28	B	A	Rpleas_acq	Oppo	Rpleas	2pleas	acq_new_unple_nomask	acq2_nomask	2	36	480	1	300	300	0	0	469	46	1	0	tolerant	schlau	treu	retten	ehrlich	schön	tyrannisch	schroff	tot	rächen	eitel	schlecht	helfen	spielen	loyal	freundlich	fair	lachen	hindern	strafen	lasch	fanatisch	faul	leiden	1	blank2r.bmp	0	1	+	0	1	blank2r.bmp	500	7	C3r.bmp	500	1	blank2r.bmp	880	5	faul	880	1	!	1312	1	!	1370	0	0	0	0	0	0
2024-05-14	10:09:51	10:14:33	281087	6.6.1	4_exp_EVA_AWA_CON	28	B	A	Rpleas_acq	Oppo	Rpleas	2pleas	acq_US_unple_nomask	acq3_nomask	3	1	453	0	300	300	0	0	234	50	0	0	tolerant	schlau	treu	retten	ehrlich	schön	tyrannisch	schroff	tot	rächen	eitel	schlecht	helfen	spielen	loyal	freundlich	fair	lachen	hindern	strafen	lasch	fanatisch	faul	leiden	1	blank2r.bmp	0	1	+	0	1	blank2r.bmp	500	1	BMVZ	500	1	blank2r.bmp	880	1	tyrannisch	880	1	FEHLER	1427	1	!	-1	1	!	-1	0	0	0
2024-05-14	10:09:51	10:14:34	282732	6.6.1	4_exp_EVA_AWA_CON	28	B	A	Rpleas_acq	Oppo	Rpleas	2pleas	acq_US_unple_nomask	acq3_nomask	3	2	453	0	300	300	0	0	71	46	1	0	tolerant	schlau	treu	retten	ehrlich	schön	tyrannisch	schroff	tot	rächen	eitel	schlecht	helfen	spielen	loyal	freundlich	fair	lachen	hindern	strafen	lasch	fanatisch	faul	leiden	1	blank2r.bmp	0	1	+	0	1	blank2r.bmp	500	1	BMVZ	500	1	blank2r.bmp	880	2	schroff	880	1	!	-1	1	!	-1	0	0	0	0	0	0
2024-05-14	10:09:51	10:14:37	285190	6.6.1	4_exp_EVA_AWA_CON	28	B	A	Rpleas_acq	Oppo	Rpleas	2pleas	acq_US_pleas_nomask	acq3_nomask	3	3	453	1	300	300	0	0	476	46	0	0	tolerant	schlau	treu	retten	ehrlich	schön	tyrannisch	schroff	tot	rächen	eitel	schlecht	helfen	spielen	loyal	freundlich	fair	lachen	hindern	strafen	lasch	fanatisch	faul	leiden	1	blank2r.bmp	0	1	+	0	1	blank2r.bmp	500	1	GKQX	500	1	blank2r.bmp	880	6	schön	880	1	FEHLER	1668	1	!	1292	1	!	1377	0	0	0
2024-05-14	10:09:51	10:14:39	287246	6.6.1	4_exp_EVA_AWA_CON	28	B	A	Rpleas_acq	Oppo	Rpleas	2pleas	acq_US_unple_nomask	acq3_nomask	3	4	453	1	300	300	0	0	480	46	1	0	tolerant	schlau	treu	retten	ehrlich	schön	tyrannisch	schroff	tot	rächen	eitel	schlecht	helfen	spielen	loyal	freundlich	fair	lachen	hindern	strafen	lasch	fanatisch	faul	leiden	1	blank2r.bmp	0	1	+	0	1	blank2r.bmp	500	1	BMVZ	500	1	blank2r.bmp	880	3	tot	880	1	!	1292	1	!	1382	0	0	0	0	0	0
2024-05-14	10:09:51	10:14:41	289533	6.6.1	4_exp_EVA_AWA_CON	28	B	A	Rpleas_acq	Oppo	Rpleas	2pleas	acq_US_unple_nomask	acq3_nomask	3	5	453	1	300	300	0	0	507	46	1	0	tolerant	schlau	treu	retten	ehrlich	schön	tyrannisch	schroff	tot	rächen	eitel	schlecht	helfen	spielen	loyal	freundlich	fair	lachen	hindern	strafen	lasch	fanatisch	faul	leiden	1	blank2r.bmp	0	1	+	0	1	blank2r.bmp	500	1	BMVZ	500	1	blank2r.bmp	880	4	rächen	880	1	!	1293	1	!	1408	0	0	0	0	0	0
2024-05-14	10:09:51	10:14:43	291684	6.6.1	4_exp_EVA_AWA_CON	28	B	A	Rpleas_acq	Oppo	Rpleas	2pleas	acq_US_pleas_nomask	acq3_nomask	3	6	453	0	300	300	0	0	377	50	1	0	tolerant	schlau	treu	retten	ehrlich	schön	tyrannisch	schroff	tot	rächen	eitel	schlecht	helfen	spielen	loyal	freundlich	fair	lachen	hindern	strafen	lasch	fanatisch	faul	leiden	1	blank2r.bmp	0	1	+	0	1	blank2r.bmp	500	1	GKQX	500	1	blank2r.bmp	880	4	retten	880	1	!	-1	1	!	-1	0	0	0	0	0	0
2024-05-14	10:09:51	10:14:45	293986	6.6.1	4_exp_EVA_AWA_CON	28	B	A	Rpleas_acq	Oppo	Rpleas	2pleas	acq_US_pleas_nomask	acq3_nomask	3	7	453	0	300	300	0	0	530	50	1	0	tolerant	schlau	treu	retten	ehrlich	schön	tyrannisch	schroff	tot	rächen	eitel	schlecht	helfen	spielen	loyal	freundlich	fair	lachen	hindern	strafen	lasch	fanatisch	faul	leiden	1	blank2r.bmp	0	1	+	0	1	blank2r.bmp	500	1	GKQX	500	1	blank2r.bmp	880	1	tolerant	880	1	!	1292	1	!	-1	0	0	0	0	0	0
2024-05-14	10:09:51	10:14:48	296036	6.6.1	4_exp_EVA_AWA_CON	28	B	A	Rpleas_acq	Oppo	Rpleas	2pleas	acq_US_pleas_nomask	acq3_nomask	3	8	453	0	300	300	0	0	276	50	1	0	tolerant	schlau	treu	retten	ehrlich	schön	tyrannisch	schroff	tot	rächen	eitel	schlecht	helfen	spielen	loyal	freundlich	fair	lachen	hindern	strafen	lasch	fanatisch	faul	leiden	1	blank2r.bmp	0	1	+	0	1	blank2r.bmp	500	1	GKQX	500	1	blank2r.bmp	880	3	treu	880	1	!	-1	1	!	-1	0	0	0	0	0	0
2024-05-14	10:09:51	10:14:50	298318	6.6.1	4_exp_EVA_AWA_CON	28	B	A	Rpleas_acq	Oppo	Rpleas	2pleas	acq_US_unple_nomask	acq3_nomask	3	9	453	0	300	300	0	0	305	50	0	0	tolerant	schlau	treu	retten	ehrlich	schön	tyrannisch	schroff	tot	rächen	eitel	schlecht	helfen	spielen	loyal	freundlich	fair	lachen	hindern	strafen	lasch	fanatisch	faul	leiden	1	blank2r.bmp	0	1	+	0	1	blank2r.bmp	500	1	BMVZ	500	1	blank2r.bmp	880	6	schlecht	880	1	FEHLER	1498	1	!	-1	1	!	-1	0	0	0
2024-05-14	10:09:51	10:14:52	300309	6.6.1	4_exp_EVA_AWA_CON	28	B	A	Rpleas_acq	Oppo	Rpleas	2pleas	acq_US_unple_nomask	acq3_nomask	3	10	453	1	300	300	0	0	416	46	1	0	tolerant	schlau	treu	retten	ehrlich	schön	tyrannisch	schroff	tot	rächen	eitel	schlecht	helfen	spielen	loyal	freundlich	fair	lachen	hindern	strafen	lasch	fanatisch	faul	leiden	1	blank2r.bmp	0	1	+	0	1	blank2r.bmp	500	1	BMVZ	500	1	blank2r.bmp	880	5	eitel	880	1	!	1292	1	!	1317	0	0	0	0	0	0
2024-05-14	10:09:51	10:14:54	302468	6.6.1	4_exp_EVA_AWA_CON	28	B	A	Rpleas_acq	Oppo	Rpleas	2pleas	acq_US_pleas_nomask	acq3_nomask	3	11	453	0	300	300	0	0	384	50	1	0	tolerant	schlau	treu	retten	ehrlich	schön	tyrannisch	schroff	tot	rächen	eitel	schlecht	helfen	spielen	loyal	freundlich	fair	lachen	hindern	strafen	lasch	fanatisch	faul	leiden	1	blank2r.bmp	0	1	+	0	1	blank2r.bmp	500	1	GKQX	500	1	blank2r.bmp	880	2	schlau	880	1	!	-1	1	!	-1	0	0	0	0	0	0
2024-05-14	10:09:51	10:14:56	304758	6.6.1	4_exp_EVA_AWA_CON	28	B	A	Rpleas_acq	Oppo	Rpleas	2pleas	acq_US_pleas_nomask	acq3_nomask	3	12	453	1	300	300	0	0	511	50	1	0	tolerant	schlau	treu	retten	ehrlich	schön	tyrannisch	schroff	tot	rächen	eitel	schlecht	helfen	spielen	loyal	freundlich	fair	lachen	hindern	strafen	lasch	fanatisch	faul	leiden	1	blank2r.bmp	0	1	+	0	1	blank2r.bmp	500	1	GKQX	500	1	blank2r.bmp	880	5	ehrlich	880	1	!	1292	1	!	1412	0	0	0	0	0	0
2024-05-14	10:09:51	10:14:59	307108	6.6.1	4_exp_EVA_AWA_CON	28	B	A	Rpleas_acq	Oppo	Rpleas	2pleas	acq_US_unple_nomask	acq3_nomask	3	13	453	0	300	300	0	0	572	46	1	0	tolerant	schlau	treu	retten	ehrlich	schön	tyrannisch	schroff	tot	rächen	eitel	schlecht	helfen	spielen	loyal	freundlich	fair	lachen	hindern	strafen	lasch	fanatisch	faul	leiden	1	blank2r.bmp	0	1	+	0	1	blank2r.bmp	500	1	BMVZ	500	1	blank2r.bmp	880	6	schlecht	880	1	!	1292	1	!	-1	0	0	0	0	0	0
2024-05-14	10:09:51	10:15:01	309292	6.6.1	4_exp_EVA_AWA_CON	28	B	A	Rpleas_acq	Oppo	Rpleas	2pleas	acq_US_pleas_nomask	acq3_nomask	3	14	453	1	300	300	0	0	404	50	1	0	tolerant	schlau	treu	retten	ehrlich	schön	tyrannisch	schroff	tot	rächen	eitel	schlecht	helfen	spielen	loyal	freundlich	fair	lachen	hindern	strafen	lasch	fanatisch	faul	leiden	1	blank2r.bmp	0	1	+	0	1	blank2r.bmp	500	1	GKQX	500	1	blank2r.bmp	880	6	schön	880	1	!	1292	1	!	1303	0	0	0	0	0	0
2024-05-14	10:09:51	10:15:03	311635	6.6.1	4_exp_EVA_AWA_CON	28	B	A	Rpleas_acq	Oppo	Rpleas	2pleas	acq_US_unple_nomask	acq3_nomask	3	15	453	0	300	300	0	0	567	46	1	0	tolerant	schlau	treu	retten	ehrlich	schön	tyrannisch	schroff	tot	rächen	eitel	schlecht	helfen	spielen	loyal	freundlich	fair	lachen	hindern	strafen	lasch	fanatisch	faul	leiden	1	blank2r.bmp	0	1	+	0	1	blank2r.bmp	500	1	BMVZ	500	1	blank2r.bmp	880	5	eitel	880	1	!	1293	1	!	-1	0	0	0	0	0	0
2024-05-14	10:09:51	10:15:06	314014	6.6.1	4_exp_EVA_AWA_CON	28	B	A	Rpleas_acq	Oppo	Rpleas	2pleas	acq_US_unple_nomask	acq3_nomask	3	16	453	1	300	300	0	0	401	50	0	0	tolerant	schlau	treu	retten	ehrlich	schön	tyrannisch	schroff	tot	rächen	eitel	schlecht	helfen	spielen	loyal	freundlich	fair	lachen	hindern	strafen	lasch	fanatisch	faul	leiden	1	blank2r.bmp	0	1	+	0	1	blank2r.bmp	500	1	BMVZ	500	1	blank2r.bmp	880	2	schroff	880	1	FEHLER	1593	1	!	1292	1	!	1300	0	0	0
2024-05-14	10:09:51	10:15:08	316189	6.6.1	4_exp_EVA_AWA_CON	28	B	A	Rpleas_acq	Oppo	Rpleas	2pleas	acq_US_pleas_nomask	acq3_nomask	3	17	453	1	300	300	0	0	396	46	0	0	tolerant	schlau	treu	retten	ehrlich	schön	tyrannisch	schroff	tot	rächen	eitel	schlecht	helfen	spielen	loyal	freundlich	fair	lachen	hindern	strafen	lasch	fanatisch	faul	leiden	1	blank2r.bmp	0	1	+	0	1	blank2r.bmp	500	1	GKQX	500	1	blank2r.bmp	880	1	tolerant	880	1	FEHLER	1587	1	!	1292	1	!	1295	0	0	0
2024-05-14	10:09:51	10:15:10	318214	6.6.1	4_exp_EVA_AWA_CON	28	B	A	Rpleas_acq	Oppo	Rpleas	2pleas	acq_US_pleas_nomask	acq3_nomask	3	18	453	1	300	300	0	0	448	50	1	0	tolerant	schlau	treu	retten	ehrlich	schön	tyrannisch	schroff	tot	rächen	eitel	schlecht	helfen	spielen	loyal	freundlich	fair	lachen	hindern	strafen	lasch	fanatisch	faul	leiden	1	blank2r.bmp	0	1	+	0	1	blank2r.bmp	500	1	GKQX	500	1	blank2r.bmp	880	3	treu	880	1	!	1292	1	!	1349	0	0	0	0	0	0
2024-05-14	10:09:51	10:15:12	320396	6.6.1	4_exp_EVA_AWA_CON	28	B	A	Rpleas_acq	Oppo	Rpleas	2pleas	acq_US_pleas_nomask	acq3_nomask	3	19	453	1	300	300	0	0	401	50	1	0	tolerant	schlau	treu	retten	ehrlich	schön	tyrannisch	schroff	tot	rächen	eitel	schlecht	helfen	spielen	loyal	freundlich	fair	lachen	hindern	strafen	lasch	fanatisch	faul	leiden	1	blank2r.bmp	0	1	+	0	1	blank2r.bmp	500	1	GKQX	500	1	blank2r.bmp	880	5	ehrlich	880	1	!	1292	1	!	1300	0	0	0	0	0	0
2024-05-14	10:09:51	10:15:14	322645	6.6.1	4_exp_EVA_AWA_CON	28	B	A	Rpleas_acq	Oppo	Rpleas	2pleas	acq_US_pleas_nomask	acq3_nomask	3	20	453	1	300	300	0	0	468	50	1	0	tolerant	schlau	treu	retten	ehrlich	schön	tyrannisch	schroff	tot	rächen	eitel	schlecht	helfen	spielen	loyal	freundlich	fair	lachen	hindern	strafen	lasch	fanatisch	faul	leiden	1	blank2r.bmp	0	1	+	0	1	blank2r.bmp	500	1	GKQX	500	1	blank2r.bmp	880	4	retten	880	1	!	1292	1	!	1368	0	0	0	0	0	0
2024-05-14	10:09:51	10:15:16	324820	6.6.1	4_exp_EVA_AWA_CON	28	B	A	Rpleas_acq	Oppo	Rpleas	2pleas	acq_US_unple_nomask	acq3_nomask	3	21	453	1	300	300	0	0	402	46	1	0	tolerant	schlau	treu	retten	ehrlich	schön	tyrannisch	schroff	tot	rächen	eitel	schlecht	helfen	spielen	loyal	freundlich	fair	lachen	hindern	strafen	lasch	fanatisch	faul	leiden	1	blank2r.bmp	0	1	+	0	1	blank2r.bmp	500	1	BMVZ	500	1	blank2r.bmp	880	3	tot	880	1	!	1293	1	!	1301	0	0	0	0	0	0
2024-05-14	10:09:51	10:15:19	327122	6.6.1	4_exp_EVA_AWA_CON	28	B	A	Rpleas_acq	Oppo	Rpleas	2pleas	acq_US_unple_nomask	acq3_nomask	3	22	453	0	300	300	0	0	525	46	1	0	tolerant	schlau	treu	retten	ehrlich	schön	tyrannisch	schroff	tot	rächen	eitel	schlecht	helfen	spielen	loyal	freundlich	fair	lachen	hindern	strafen	lasch	fanatisch	faul	leiden	1	blank2r.bmp	0	1	+	0	1	blank2r.bmp	500	1	BMVZ	500	1	blank2r.bmp	880	1	tyrannisch	880	1	!	1292	1	!	-1	0	0	0	0	0	0
2024-05-14	10:09:51	10:15:21	329422	6.6.1	4_exp_EVA_AWA_CON	28	B	A	Rpleas_acq	Oppo	Rpleas	2pleas	acq_US_pleas_nomask	acq3_nomask	3	23	453	1	300	300	0	0	519	50	1	0	tolerant	schlau	treu	retten	ehrlich	schön	tyrannisch	schroff	tot	rächen	eitel	schlecht	helfen	spielen	loyal	freundlich	fair	lachen	hindern	strafen	lasch	fanatisch	faul	leiden	1	blank2r.bmp	0	1	+	0	1	blank2r.bmp	500	1	GKQX	500	1	blank2r.bmp	880	2	schlau	880	1	!	1292	1	!	1420	0	0	0	0	0	0
2024-05-14	10:09:51	10:15:23	331669	6.6.1	4_exp_EVA_AWA_CON	28	B	A	Rpleas_acq	Oppo	Rpleas	2pleas	acq_US_unple_nomask	acq3_nomask	3	24	453	1	300	300	0	0	466	46	1	0	tolerant	schlau	treu	retten	ehrlich	schön	tyrannisch	schroff	tot	rächen	eitel	schlecht	helfen	spielen	loyal	freundlich	fair	lachen	hindern	strafen	lasch	fanatisch	faul	leiden	1	blank2r.bmp	0	1	+	0	1	blank2r.bmp	500	1	BMVZ	500	1	blank2r.bmp	880	4	rächen	880	1	!	1293	1	!	1367	0	0	0	0	0	0
2024-05-14	10:09:51	10:15:25	333893	6.6.1	4_exp_EVA_AWA_CON	28	B	A	Rpleas_acq	Oppo	Rpleas	2pleas	acq_US_pleas_nomask	acq3_nomask	3	25	453	1	300	300	0	0	448	50	1	0	tolerant	schlau	treu	retten	ehrlich	schön	tyrannisch	schroff	tot	rächen	eitel	schlecht	helfen	spielen	loyal	freundlich	fair	lachen	hindern	strafen	lasch	fanatisch	faul	leiden	1	blank2r.bmp	0	1	+	0	1	blank2r.bmp	500	1	GKQX	500	1	blank2r.bmp	880	6	schön	880	1	!	1292	1	!	1349	0	0	0	0	0	0
2024-05-14	10:09:51	10:15:28	336118	6.6.1	4_exp_EVA_AWA_CON	28	B	A	Rpleas_acq	Oppo	Rpleas	2pleas	acq_US_pleas_nomask	acq3_nomask	3	26	453	1	300	300	0	0	441	50	1	0	tolerant	schlau	treu	retten	ehrlich	schön	tyrannisch	schroff	tot	rächen	eitel	schlecht	helfen	spielen	loyal	freundlich	fair	lachen	hindern	strafen	lasch	fanatisch	faul	leiden	1	blank2r.bmp	0	1	+	0	1	blank2r.bmp	500	1	GKQX	500	1	blank2r.bmp	880	3	treu	880	1	!	1293	1	!	1342	0	0	0	0	0	0
2024-05-14	10:09:51	10:15:30	338451	6.6.1	4_exp_EVA_AWA_CON	28	B	A	Rpleas_acq	Oppo	Rpleas	2pleas	acq_US_pleas_nomask	acq3_nomask	3	27	453	0	300	300	0	0	556	50	1	0	tolerant	schlau	treu	retten	ehrlich	schön	tyrannisch	schroff	tot	rächen	eitel	schlecht	helfen	spielen	loyal	freundlich	fair	lachen	hindern	strafen	lasch	fanatisch	faul	leiden	1	blank2r.bmp	0	1	+	0	1	blank2r.bmp	500	1	GKQX	500	1	blank2r.bmp	880	5	ehrlich	880	1	!	1292	1	!	-1	0	0	0	0	0	0
2024-05-14	10:09:51	10:15:32	340685	6.6.1	4_exp_EVA_AWA_CON	28	B	A	Rpleas_acq	Oppo	Rpleas	2pleas	acq_US_pleas_nomask	acq3_nomask	3	28	453	1	300	300	0	0	456	50	1	0	tolerant	schlau	treu	retten	ehrlich	schön	tyrannisch	schroff	tot	rächen	eitel	schlecht	helfen	spielen	loyal	freundlich	fair	lachen	hindern	strafen	lasch	fanatisch	faul	leiden	1	blank2r.bmp	0	1	+	0	1	blank2r.bmp	500	1	GKQX	500	1	blank2r.bmp	880	2	schlau	880	1	!	1292	1	!	1357	0	0	0	0	0	0
2024-05-14	10:09:51	10:15:35	343031	6.6.1	4_exp_EVA_AWA_CON	28	B	A	Rpleas_acq	Oppo	Rpleas	2pleas	acq_US_unple_nomask	acq3_nomask	3	29	453	0	300	300	0	0	369	50	0	0	tolerant	schlau	treu	retten	ehrlich	schön	tyrannisch	schroff	tot	rächen	eitel	schlecht	helfen	spielen	loyal	freundlich	fair	lachen	hindern	strafen	lasch	fanatisch	faul	leiden	1	blank2r.bmp	0	1	+	0	1	blank2r.bmp	500	1	BMVZ	500	1	blank2r.bmp	880	5	eitel	880	1	FEHLER	1562	1	!	-1	1	!	-1	0	0	0
2024-05-14	10:09:51	10:15:37	345094	6.6.1	4_exp_EVA_AWA_CON	28	B	A	Rpleas_acq	Oppo	Rpleas	2pleas	acq_US_unple_nomask	acq3_nomask	3	30	453	1	300	300	0	0	491	46	1	0	tolerant	schlau	treu	retten	ehrlich	schön	tyrannisch	schroff	tot	rächen	eitel	schlecht	helfen	spielen	loyal	freundlich	fair	lachen	hindern	strafen	lasch	fanatisch	faul	leiden	1	blank2r.bmp	0	1	+	0	1	blank2r.bmp	500	1	BMVZ	500	1	blank2r.bmp	880	2	schroff	880	1	!	1292	1	!	1392	0	0	0	0	0	0
2024-05-14	10:09:51	10:15:39	347285	6.6.1	4_exp_EVA_AWA_CON	28	B	A	Rpleas_acq	Oppo	Rpleas	2pleas	acq_US_unple_nomask	acq3_nomask	3	31	453	1	300	300	0	0	412	46	1	0	tolerant	schlau	treu	retten	ehrlich	schön	tyrannisch	schroff	tot	rächen	eitel	schlecht	helfen	spielen	loyal	freundlich	fair	lachen	hindern	strafen	lasch	fanatisch	faul	leiden	1	blank2r.bmp	0	1	+	0	1	blank2r.bmp	500	1	BMVZ	500	1	blank2r.bmp	880	3	tot	880	1	!	1292	1	!	1312	0	0	0	0	0	0
2024-05-14	10:09:51	10:15:41	349469	6.6.1	4_exp_EVA_AWA_CON	28	B	A	Rpleas_acq	Oppo	Rpleas	2pleas	acq_US_pleas_nomask	acq3_nomask	3	32	453	1	300	300	0	0	404	50	1	0	tolerant	schlau	treu	retten	ehrlich	schön	tyrannisch	schroff	tot	rächen	eitel	schlecht	helfen	spielen	loyal	freundlich	fair	lachen	hindern	strafen	lasch	fanatisch	faul	leiden	1	blank2r.bmp	0	1	+	0	1	blank2r.bmp	500	1	GKQX	500	1	blank2r.bmp	880	4	retten	880	1	!	1292	1	!	1305	0	0	0	0	0	0
2024-05-14	10:09:51	10:15:43	351839	6.6.1	4_exp_EVA_AWA_CON	28	B	A	Rpleas_acq	Oppo	Rpleas	2pleas	acq_US_pleas_nomask	acq3_nomask	3	33	453	0	300	300	0	0	391	46	0	0	tolerant	schlau	treu	retten	ehrlich	schön	tyrannisch	schroff	tot	rächen	eitel	schlecht	helfen	spielen	loyal	freundlich	fair	lachen	hindern	strafen	lasch	fanatisch	faul	leiden	1	blank2r.bmp	0	1	+	0	1	blank2r.bmp	500	1	GKQX	500	1	blank2r.bmp	880	1	tolerant	880	1	FEHLER	1584	1	!	-1	1	!	-1	0	0	0
2024-05-14	10:09:51	10:15:45	353869	6.6.1	4_exp_EVA_AWA_CON	28	B	A	Rpleas_acq	Oppo	Rpleas	2pleas	acq_US_unple_nomask	acq3_nomask	3	34	453	1	300	300	0	0	452	46	1	0	tolerant	schlau	treu	retten	ehrlich	schön	tyrannisch	schroff	tot	rächen	eitel	schlecht	helfen	spielen	loyal	freundlich	fair	lachen	hindern	strafen	lasch	fanatisch	faul	leiden	1	blank2r.bmp	0	1	+	0	1	blank2r.bmp	500	1	BMVZ	500	1	blank2r.bmp	880	6	schlecht	880	1	!	1292	1	!	1353	0	0	0	0	0	0
2024-05-14	10:09:51	10:15:48	356110	6.6.1	4_exp_EVA_AWA_CON	28	B	A	Rpleas_acq	Oppo	Rpleas	2pleas	acq_US_unple_nomask	acq3_nomask	3	35	453	1	300	300	0	0	459	46	1	0	tolerant	schlau	treu	retten	ehrlich	schön	tyrannisch	schroff	tot	rächen	eitel	schlecht	helfen	spielen	loyal	freundlich	fair	lachen	hindern	strafen	lasch	fanatisch	faul	leiden	1	blank2r.bmp	0	1	+	0	1	blank2r.bmp	500	1	BMVZ	500	1	blank2r.bmp	880	4	rächen	880	1	!	1292	1	!	1361	0	0	0	0	0	0
2024-05-14	10:09:51	10:15:50	358333	6.6.1	4_exp_EVA_AWA_CON	28	B	A	Rpleas_acq	Oppo	Rpleas	2pleas	acq_US_unple_nomask	acq3_nomask	3	36	453	1	300	300	0	0	443	46	1	0	tolerant	schlau	treu	retten	ehrlich	schön	tyrannisch	schroff	tot	rächen	eitel	schlecht	helfen	spielen	loyal	freundlich	fair	lachen	hindern	strafen	lasch	fanatisch	faul	leiden	1	blank2r.bmp	0	1	+	0	1	blank2r.bmp	500	1	BMVZ	500	1	blank2r.bmp	880	1	tyrannisch	880	1	!	1292	1	!	1344	0	0	0	0	0	0
2024-05-14	10:09:51	10:16:07	375742	6.6.1	4_exp_EVA_AWA_CON	28	B	A	Rpleas_acq	Oppo	Rpleas	2pleas	acq_US_unple_nomask	acq45_nomask	4	1	400	1	300	300	0	0	409	46	1	0	tolerant	schlau	treu	retten	ehrlich	schön	tyrannisch	schroff	tot	rächen	eitel	schlecht	helfen	spielen	loyal	freundlich	fair	lachen	hindern	strafen	lasch	fanatisch	faul	leiden	1	blank2r.bmp	0	1	+	0	1	blank2r.bmp	500	1	BMVZ	500	1	blank2r.bmp	880	5	eitel	880	1	!	1233	1	!	1310	0	0	0	0	0	0
2024-05-14	10:09:51	10:16:09	377869	6.6.1	4_exp_EVA_AWA_CON	28	B	A	Rpleas_acq	Oppo	Rpleas	2pleas	acq_US_pleas_nomask	acq45_nomask	4	2	400	1	300	300	0	0	346	46	0	0	tolerant	schlau	treu	retten	ehrlich	schön	tyrannisch	schroff	tot	rächen	eitel	schlecht	helfen	spielen	loyal	freundlich	fair	lachen	hindern	strafen	lasch	fanatisch	faul	leiden	1	blank2r.bmp	0	1	+	0	1	blank2r.bmp	500	1	GKQX	500	1	blank2r.bmp	880	2	schlau	880	1	!	1232	1	!	1247	0	0	0	0	0	0
2024-05-14	10:09:51	10:16:12	380101	6.6.1	4_exp_EVA_AWA_CON	28	B	A	Rpleas_acq	Oppo	Rpleas	2pleas	acq_US_unple_nomask	acq45_nomask	4	3	400	1	300	300	0	0	457	46	1	0	tolerant	schlau	treu	retten	ehrlich	schön	tyrannisch	schroff	tot	rächen	eitel	schlecht	helfen	spielen	loyal	freundlich	fair	lachen	hindern	strafen	lasch	fanatisch	faul	leiden	1	blank2r.bmp	0	1	+	0	1	blank2r.bmp	500	1	BMVZ	500	1	blank2r.bmp	880	1	tyrannisch	880	1	!	1232	1	!	1358	0	0	0	0	0	0
2024-05-14	10:09:51	10:16:14	382326	6.6.1	4_exp_EVA_AWA_CON	28	B	A	Rpleas_acq	Oppo	Rpleas	2pleas	acq_US_pleas_nomask	acq45_nomask	4	4	400	1	300	300	0	0	448	46	0	0	tolerant	schlau	treu	retten	ehrlich	schön	tyrannisch	schroff	tot	rächen	eitel	schlecht	helfen	spielen	loyal	freundlich	fair	lachen	hindern	strafen	lasch	fanatisch	faul	leiden	1	blank2r.bmp	0	1	+	0	1	blank2r.bmp	500	1	GKQX	500	1	blank2r.bmp	880	4	retten	880	1	!	1232	1	!	1350	0	0	0	0	0	0
2024-05-14	10:09:51	10:16:16	384557	6.6.1	4_exp_EVA_AWA_CON	28	B	A	Rpleas_acq	Oppo	Rpleas	2pleas	acq_US_unple_nomask	acq45_nomask	4	5	400	1	300	300	0	0	450	46	1	0	tolerant	schlau	treu	retten	ehrlich	schön	tyrannisch	schroff	tot	rächen	eitel	schlecht	helfen	spielen	loyal	freundlich	fair	lachen	hindern	strafen	lasch	fanatisch	faul	leiden	1	blank2r.bmp	0	1	+	0	1	blank2r.bmp	500	1	BMVZ	500	1	blank2r.bmp	880	6	schlecht	880	1	!	1232	1	!	1351	0	0	0	0	0	0
2024-05-14	10:09:51	10:16:18	386643	6.6.1	4_exp_EVA_AWA_CON	28	B	A	Rpleas_acq	Oppo	Rpleas	2pleas	acq_US_pleas_nomask	acq45_nomask	4	6	400	0	300	300	0	0	306	50	1	0	tolerant	schlau	treu	retten	ehrlich	schön	tyrannisch	schroff	tot	rächen	eitel	schlecht	helfen	spielen	loyal	freundlich	fair	lachen	hindern	strafen	lasch	fanatisch	faul	leiden	1	blank2r.bmp	0	1	+	0	1	blank2r.bmp	500	1	GKQX	500	1	blank2r.bmp	880	3	treu	880	1	!	-1	1	!	-1	0	0	0	0	0	0
2024-05-14	10:09:51	10:16:21	388996	6.6.1	4_exp_EVA_AWA_CON	28	B	A	Rpleas_acq	Oppo	Rpleas	2pleas	acq_US_unple_nomask	acq45_nomask	4	7	400	0	300	300	0	0	577	46	1	0	tolerant	schlau	treu	retten	ehrlich	schön	tyrannisch	schroff	tot	rächen	eitel	schlecht	helfen	spielen	loyal	freundlich	fair	lachen	hindern	strafen	lasch	fanatisch	faul	leiden	1	blank2r.bmp	0	1	+	0	1	blank2r.bmp	500	1	BMVZ	500	1	blank2r.bmp	880	4	rächen	880	1	!	1233	1	!	-1	0	0	0	0	0	0
2024-05-14	10:09:51	10:16:23	391205	6.6.1	4_exp_EVA_AWA_CON	28	B	A	Rpleas_acq	Oppo	Rpleas	2pleas	acq_US_unple_nomask	acq45_nomask	4	8	400	1	300	300	0	0	433	46	1	0	tolerant	schlau	treu	retten	ehrlich	schön	tyrannisch	schroff	tot	rächen	eitel	schlecht	helfen	spielen	loyal	freundlich	fair	lachen	hindern	strafen	lasch	fanatisch	faul	leiden	1	blank2r.bmp	0	1	+	0	1	blank2r.bmp	500	1	BMVZ	500	1	blank2r.bmp	880	3	tot	880	1	!	1232	1	!	1334	0	0	0	0	0	0
2024-05-14	10:09:51	10:16:25	393405	6.6.1	4_exp_EVA_AWA_CON	28	B	A	Rpleas_acq	Oppo	Rpleas	2pleas	acq_US_pleas_nomask	acq45_nomask	4	9	400	1	300	300	0	0	422	46	0	0	tolerant	schlau	treu	retten	ehrlich	schön	tyrannisch	schroff	tot	rächen	eitel	schlecht	helfen	spielen	loyal	freundlich	fair	lachen	hindern	strafen	lasch	fanatisch	faul	leiden	1	blank2r.bmp	0	1	+	0	1	blank2r.bmp	500	1	GKQX	500	1	blank2r.bmp	880	1	tolerant	880	1	!	1232	1	!	1323	0	0	0	0	0	0
2024-05-14	10:09:51	10:16:27	395606	6.6.1	4_exp_EVA_AWA_CON	28	B	A	Rpleas_acq	Oppo	Rpleas	2pleas	acq_US_pleas_nomask	acq45_nomask	4	10	400	1	300	300	0	0	421	46	0	0	tolerant	schlau	treu	retten	ehrlich	schön	tyrannisch	schroff	tot	rächen	eitel	schlecht	helfen	spielen	loyal	freundlich	fair	lachen	hindern	strafen	lasch	fanatisch	faul	leiden	1	blank2r.bmp	0	1	+	0	1	blank2r.bmp	500	1	GKQX	500	1	blank2r.bmp	880	5	ehrlich	880	1	!	1232	1	!	1322	0	0	0	0	0	0
2024-05-14	10:09:51	10:16:29	397789	6.6.1	4_exp_EVA_AWA_CON	28	B	A	Rpleas_acq	Oppo	Rpleas	2pleas	acq_US_pleas_nomask	acq45_nomask	4	11	400	1	300	300	0	0	403	50	1	0	tolerant	schlau	treu	retten	ehrlich	schön	tyrannisch	schroff	tot	rächen	eitel	schlecht	helfen	spielen	loyal	freundlich	fair	lachen	hindern	strafen	lasch	fanatisch	faul	leiden	1	blank2r.bmp	0	1	+	0	1	blank2r.bmp	500	1	GKQX	500	1	blank2r.bmp	880	6	schön	880	1	!	1232	1	!	1304	0	0	0	0	0	0
2024-05-14	10:09:51	10:16:31	399925	6.6.1	4_exp_EVA_AWA_CON	28	B	A	Rpleas_acq	Oppo	Rpleas	2pleas	acq_US_pleas_nomask	acq45_nomask	4	12	400	1	300	300	0	0	358	46	0	0	tolerant	schlau	treu	retten	ehrlich	schön	tyrannisch	schroff	tot	rächen	eitel	schlecht	helfen	spielen	loyal	freundlich	fair	lachen	hindern	strafen	lasch	fanatisch	faul	leiden	1	blank2r.bmp	0	1	+	0	1	blank2r.bmp	500	1	GKQX	500	1	blank2r.bmp	880	5	ehrlich	880	1	!	1232	1	!	1259	0	0	0	0	0	0
2024-05-14	10:09:51	10:16:34	402173	6.6.1	4_exp_EVA_AWA_CON	28	B	A	Rpleas_acq	Oppo	Rpleas	2pleas	acq_US_unple_nomask	acq45_nomask	4	13	400	1	300	300	0	0	463	46	1	0	tolerant	schlau	treu	retten	ehrlich	schön	tyrannisch	schroff	tot	rächen	eitel	schlecht	helfen	spielen	loyal	freundlich	fair	lachen	hindern	strafen	lasch	fanatisch	faul	leiden	1	blank2r.bmp	0	1	+	0	1	blank2r.bmp	500	1	BMVZ	500	1	blank2r.bmp	880	2	schroff	880	1	!	1232	1	!	1365	0	0	0	0	0	0
2024-05-14	10:09:51	10:16:36	404284	6.6.1	4_exp_EVA_AWA_CON	28	B	A	Rpleas_acq	Oppo	Rpleas	2pleas	acq_US_unple_nomask	acq45_nomask	4	14	400	1	300	300	0	0	335	50	0	0	tolerant	schlau	treu	retten	ehrlich	schön	tyrannisch	schroff	tot	rächen	eitel	schlecht	helfen	spielen	loyal	freundlich	fair	lachen	hindern	strafen	lasch	fanatisch	faul	leiden	1	blank2r.bmp	0	1	+	0	1	blank2r.bmp	500	1	BMVZ	500	1	blank2r.bmp	880	6	schlecht	880	1	!	1232	1	!	1234	0	0	0	0	0	0
2024-05-14	10:09:51	10:16:38	406453	6.6.1	4_exp_EVA_AWA_CON	28	B	A	Rpleas_acq	Oppo	Rpleas	2pleas	acq_US_unple_nomask	acq45_nomask	4	15	400	1	300	300	0	0	392	46	1	0	tolerant	schlau	treu	retten	ehrlich	schön	tyrannisch	schroff	tot	rächen	eitel	schlecht	helfen	spielen	loyal	freundlich	fair	lachen	hindern	strafen	lasch	fanatisch	faul	leiden	1	blank2r.bmp	0	1	+	0	1	blank2r.bmp	500	1	BMVZ	500	1	blank2r.bmp	880	2	schroff	880	1	!	1232	1	!	1292	0	0	0	0	0	0
2024-05-14	10:09:51	10:16:40	408582	6.6.1	4_exp_EVA_AWA_CON	28	B	A	Rpleas_acq	Oppo	Rpleas	2pleas	acq_US_unple_nomask	acq45_nomask	4	16	400	1	300	300	0	0	348	46	1	0	tolerant	schlau	treu	retten	ehrlich	schön	tyrannisch	schroff	tot	rächen	eitel	schlecht	helfen	spielen	loyal	freundlich	fair	lachen	hindern	strafen	lasch	fanatisch	faul	leiden	1	blank2r.bmp	0	1	+	0	1	blank2r.bmp	500	1	BMVZ	500	1	blank2r.bmp	880	1	tyrannisch	880	1	!	1232	1	!	1249	0	0	0	0	0	0
2024-05-14	10:09:51	10:16:42	410659	6.6.1	4_exp_EVA_AWA_CON	28	B	A	Rpleas_acq	Oppo	Rpleas	2pleas	acq_US_pleas_nomask	acq45_nomask	4	17	400	0	300	300	0	0	296	46	0	0	tolerant	schlau	treu	retten	ehrlich	schön	tyrannisch	schroff	tot	rächen	eitel	schlecht	helfen	spielen	loyal	freundlich	fair	lachen	hindern	strafen	lasch	fanatisch	faul	leiden	1	blank2r.bmp	0	1	+	0	1	blank2r.bmp	500	1	GKQX	500	1	blank2r.bmp	880	2	schlau	880	1	!	-1	1	!	-1	0	0	0	0	0	0
2024-05-14	10:09:51	10:16:44	412797	6.6.1	4_exp_EVA_AWA_CON	28	B	A	Rpleas_acq	Oppo	Rpleas	2pleas	acq_US_pleas_nomask	acq45_nomask	4	18	400	1	300	300	0	0	362	50	1	0	tolerant	schlau	treu	retten	ehrlich	schön	tyrannisch	schroff	tot	rächen	eitel	schlecht	helfen	spielen	loyal	freundlich	fair	lachen	hindern	strafen	lasch	fanatisch	faul	leiden	1	blank2r.bmp	0	1	+	0	1	blank2r.bmp	500	1	GKQX	500	1	blank2r.bmp	880	3	treu	880	1	!	1232	1	!	1262	0	0	0	0	0	0
2024-05-14	10:09:51	10:16:46	414909	6.6.1	4_exp_EVA_AWA_CON	28	B	A	Rpleas_acq	Oppo	Rpleas	2pleas	acq_US_pleas_nomask	acq45_nomask	4	19	400	1	300	300	0	0	333	50	1	0	tolerant	schlau	treu	retten	ehrlich	schön	tyrannisch	schroff	tot	rächen	eitel	schlecht	helfen	spielen	loyal	freundlich	fair	lachen	hindern	strafen	lasch	fanatisch	faul	leiden	1	blank2r.bmp	0	1	+	0	1	blank2r.bmp	500	1	GKQX	500	1	blank2r.bmp	880	4	retten	880	1	!	1232	1	!	1233	0	0	0	0	0	0
2024-05-14	10:09:51	10:16:49	417093	6.6.1	4_exp_EVA_AWA_CON	28	B	A	Rpleas_acq	Oppo	Rpleas	2pleas	acq_US_unple_nomask	acq45_nomask	4	20	400	1	300	300	0	0	405	46	1	0	tolerant	schlau	treu	retten	ehrlich	schön	tyrannisch	schroff	tot	rächen	eitel	schlecht	helfen	spielen	loyal	freundlich	fair	lachen	hindern	strafen	lasch	fanatisch	faul	leiden	1	blank2r.bmp	0	1	+	0	1	blank2r.bmp	500	1	BMVZ	500	1	blank2r.bmp	880	3	tot	880	1	!	1232	1	!	1306	0	0	0	0	0	0
2024-05-14	10:09:51	10:16:51	419230	6.6.1	4_exp_EVA_AWA_CON	28	B	A	Rpleas_acq	Oppo	Rpleas	2pleas	acq_US_unple_nomask	acq45_nomask	4	21	400	1	300	300	0	0	360	46	1	0	tolerant	schlau	treu	retten	ehrlich	schön	tyrannisch	schroff	tot	rächen	eitel	schlecht	helfen	spielen	loyal	freundlich	fair	lachen	hindern	strafen	lasch	fanatisch	faul	leiden	1	blank2r.bmp	0	1	+	0	1	blank2r.bmp	500	1	BMVZ	500	1	blank2r.bmp	880	5	eitel	880	1	!	1232	1	!	1260	0	0	0	0	0	0
2024-05-14	10:09:51	10:16:53	421405	6.6.1	4_exp_EVA_AWA_CON	28	B	A	Rpleas_acq	Oppo	Rpleas	2pleas	acq_US_pleas_nomask	acq45_nomask	4	22	400	1	300	300	0	0	394	46	0	0	tolerant	schlau	treu	retten	ehrlich	schön	tyrannisch	schroff	tot	rächen	eitel	schlecht	helfen	spielen	loyal	freundlich	fair	lachen	hindern	strafen	lasch	fanatisch	faul	leiden	1	blank2r.bmp	0	1	+	0	1	blank2r.bmp	500	1	GKQX	500	1	blank2r.bmp	880	1	tolerant	880	1	!	1233	1	!	1295	0	0	0	0	0	0
2024-05-14	10:09:51	10:16:55	423516	6.6.1	4_exp_EVA_AWA_CON	28	B	A	Rpleas_acq	Oppo	Rpleas	2pleas	acq_US_unple_nomask	acq45_nomask	4	23	400	1	300	300	0	0	335	46	1	0	tolerant	schlau	treu	retten	ehrlich	schön	tyrannisch	schroff	tot	rächen	eitel	schlecht	helfen	spielen	loyal	freundlich	fair	lachen	hindern	strafen	lasch	fanatisch	faul	leiden	1	blank2r.bmp	0	1	+	0	1	blank2r.bmp	500	1	BMVZ	500	1	blank2r.bmp	880	4	rächen	880	1	!	1233	1	!	1234	0	0	0	0	0	0
2024-05-14	10:09:51	10:16:57	425669	6.6.1	4_exp_EVA_AWA_CON	28	B	A	Rpleas_acq	Oppo	Rpleas	2pleas	acq_US_pleas_nomask	acq45_nomask	4	24	400	1	300	300	0	0	375	46	0	0	tolerant	schlau	treu	retten	ehrlich	schön	tyrannisch	schroff	tot	rächen	eitel	schlecht	helfen	spielen	loyal	freundlich	fair	lachen	hindern	strafen	lasch	fanatisch	faul	leiden	1	blank2r.bmp	0	1	+	0	1	blank2r.bmp	500	1	GKQX	500	1	blank2r.bmp	880	6	schön	880	1	!	1232	1	!	1276	0	0	0	0	0	0
2024-05-14	10:09:51	10:16:59	427837	6.6.1	4_exp_EVA_AWA_CON	28	B	A	Rpleas_acq	Oppo	Rpleas	2pleas	acq_US_unple_nomask	acq45_nomask	4	25	400	1	300	300	0	0	392	46	1	0	tolerant	schlau	treu	retten	ehrlich	schön	tyrannisch	schroff	tot	rächen	eitel	schlecht	helfen	spielen	loyal	freundlich	fair	lachen	hindern	strafen	lasch	fanatisch	faul	leiden	1	blank2r.bmp	0	1	+	0	1	blank2r.bmp	500	1	BMVZ	500	1	blank2r.bmp	880	1	tyrannisch	880	1	!	1232	1	!	1293	0	0	0	0	0	0
2024-05-14	10:09:51	10:17:02	430046	6.6.1	4_exp_EVA_AWA_CON	28	B	A	Rpleas_acq	Oppo	Rpleas	2pleas	acq_US_unple_nomask	acq45_nomask	4	26	400	1	300	300	0	0	429	50	0	0	tolerant	schlau	treu	retten	ehrlich	schön	tyrannisch	schroff	tot	rächen	eitel	schlecht	helfen	spielen	loyal	freundlich	fair	lachen	hindern	strafen	lasch	fanatisch	faul	leiden	1	blank2r.bmp	0	1	+	0	1	blank2r.bmp	500	1	BMVZ	500	1	blank2r.bmp	880	5	eitel	880	1	!	1232	1	!	1329	0	0	0	0	0	0
2024-05-14	10:09:51	10:17:04	432189	6.6.1	4_exp_EVA_AWA_CON	28	B	A	Rpleas_acq	Oppo	Rpleas	2pleas	acq_US_pleas_nomask	acq45_nomask	4	27	400	1	300	300	0	0	360	46	0	0	tolerant	schlau	treu	retten	ehrlich	schön	tyrannisch	schroff	tot	rächen	eitel	schlecht	helfen	spielen	loyal	freundlich	fair	lachen	hindern	strafen	lasch	fanatisch	faul	leiden	1	blank2r.bmp	0	1	+	0	1	blank2r.bmp	500	1	GKQX	500	1	blank2r.bmp	880	4	retten	880	1	!	1233	1	!	1262	0	0	0	0	0	0
2024-05-14	10:09:51	10:17:06	434349	6.6.1	4_exp_EVA_AWA_CON	28	B	A	Rpleas_acq	Oppo	Rpleas	2pleas	acq_US_unple_nomask	acq45_nomask	4	28	400	1	300	300	0	0	380	46	1	0	tolerant	schlau	treu	retten	ehrlich	schön	tyrannisch	schroff	tot	rächen	eitel	schlecht	helfen	spielen	loyal	freundlich	fair	lachen	hindern	strafen	lasch	fanatisch	faul	leiden	1	blank2r.bmp	0	1	+	0	1	blank2r.bmp	500	1	BMVZ	500	1	blank2r.bmp	880	6	schlecht	880	1	!	1232	1	!	1281	0	0	0	0	0	0
2024-05-14	10:09:51	10:17:08	436485	6.6.1	4_exp_EVA_AWA_CON	28	B	A	Rpleas_acq	Oppo	Rpleas	2pleas	acq_US_pleas_nomask	acq45_nomask	4	29	400	1	300	300	0	0	354	50	1	0	tolerant	schlau	treu	retten	ehrlich	schön	tyrannisch	schroff	tot	rächen	eitel	schlecht	helfen	spielen	loyal	freundlich	fair	lachen	hindern	strafen	lasch	fanatisch	faul	leiden	1	blank2r.bmp	0	1	+	0	1	blank2r.bmp	500	1	GKQX	500	1	blank2r.bmp	880	5	ehrlich	880	1	!	1232	1	!	1255	0	0	0	0	0	0
2024-05-14	10:09:51	10:17:10	438738	6.6.1	4_exp_EVA_AWA_CON	28	B	A	Rpleas_acq	Oppo	Rpleas	2pleas	acq_US_unple_nomask	acq45_nomask	4	30	400	0	300	300	0	0	479	46	1	0	tolerant	schlau	treu	retten	ehrlich	schön	tyrannisch	schroff	tot	rächen	eitel	schlecht	helfen	spielen	loyal	freundlich	fair	lachen	hindern	strafen	lasch	fanatisch	faul	leiden	1	blank2r.bmp	0	1	+	0	1	blank2r.bmp	500	1	BMVZ	500	1	blank2r.bmp	880	4	rächen	880	1	!	1232	1	!	-1	0	0	0	0	0	0
2024-05-14	10:09:51	10:17:12	440861	6.6.1	4_exp_EVA_AWA_CON	28	B	A	Rpleas_acq	Oppo	Rpleas	2pleas	acq_US_unple_nomask	acq45_nomask	4	31	400	1	300	300	0	0	348	50	0	0	tolerant	schlau	treu	retten	ehrlich	schön	tyrannisch	schroff	tot	rächen	eitel	schlecht	helfen	spielen	loyal	freundlich	fair	lachen	hindern	strafen	lasch	fanatisch	faul	leiden	1	blank2r.bmp	0	1	+	0	1	blank2r.bmp	500	1	BMVZ	500	1	blank2r.bmp	880	3	tot	880	1	!	1232	1	!	1248	0	0	0	0	0	0
2024-05-14	10:09:51	10:17:15	442997	6.6.1	4_exp_EVA_AWA_CON	28	B	A	Rpleas_acq	Oppo	Rpleas	2pleas	acq_US_pleas_nomask	acq45_nomask	4	32	400	1	300	300	0	0	362	46	0	0	tolerant	schlau	treu	retten	ehrlich	schön	tyrannisch	schroff	tot	rächen	eitel	schlecht	helfen	spielen	loyal	freundlich	fair	lachen	hindern	strafen	lasch	fanatisch	faul	leiden	1	blank2r.bmp	0	1	+	0	1	blank2r.bmp	500	1	GKQX	500	1	blank2r.bmp	880	2	schlau	880	1	!	1233	1	!	1263	0	0	0	0	0	0
2024-05-14	10:09:51	10:17:17	445158	6.6.1	4_exp_EVA_AWA_CON	28	B	A	Rpleas_acq	Oppo	Rpleas	2pleas	acq_US_unple_nomask	acq45_nomask	4	33	400	1	300	300	0	0	381	46	1	0	tolerant	schlau	treu	retten	ehrlich	schön	tyrannisch	schroff	tot	rächen	eitel	schlecht	helfen	spielen	loyal	freundlich	fair	lachen	hindern	strafen	lasch	fanatisch	faul	leiden	1	blank2r.bmp	0	1	+	0	1	blank2r.bmp	500	1	BMVZ	500	1	blank2r.bmp	880	2	schroff	880	1	!	1232	1	!	1282	0	0	0	0	0	0
2024-05-14	10:09:51	10:17:19	447260	6.6.1	4_exp_EVA_AWA_CON	28	B	A	Rpleas_acq	Oppo	Rpleas	2pleas	acq_US_pleas_nomask	acq45_nomask	4	34	400	0	300	300	0	0	324	46	0	0	tolerant	schlau	treu	retten	ehrlich	schön	tyrannisch	schroff	tot	rächen	eitel	schlecht	helfen	spielen	loyal	freundlich	fair	lachen	hindern	strafen	lasch	fanatisch	faul	leiden	1	blank2r.bmp	0	1	+	0	1	blank2r.bmp	500	1	GKQX	500	1	blank2r.bmp	880	3	treu	880	1	!	-1	1	!	-1	0	0	0	0	0	0
2024-05-14	10:09:51	10:17:21	449363	6.6.1	4_exp_EVA_AWA_CON	28	B	A	Rpleas_acq	Oppo	Rpleas	2pleas	acq_US_pleas_nomask	acq45_nomask	4	35	400	0	300	300	0	0	325	50	1	0	tolerant	schlau	treu	retten	ehrlich	schön	tyrannisch	schroff	tot	rächen	eitel	schlecht	helfen	spielen	loyal	freundlich	fair	lachen	hindern	strafen	lasch	fanatisch	faul	leiden	1	blank2r.bmp	0	1	+	0	1	blank2r.bmp	500	1	GKQX	500	1	blank2r.bmp	880	1	tolerant	880	1	!	-1	1	!	-1	0	0	0	0	0	0
2024-05-14	10:09:51	10:17:23	451452	6.6.1	4_exp_EVA_AWA_CON	28	B	A	Rpleas_acq	Oppo	Rpleas	2pleas	acq_US_pleas_nomask	acq45_nomask	4	36	400	0	300	300	0	0	313	50	1	0	tolerant	schlau	treu	retten	ehrlich	schön	tyrannisch	schroff	tot	rächen	eitel	schlecht	helfen	spielen	loyal	freundlich	fair	lachen	hindern	strafen	lasch	fanatisch	faul	leiden	1	blank2r.bmp	0	1	+	0	1	blank2r.bmp	500	1	GKQX	500	1	blank2r.bmp	880	6	schön	880	1	!	-1	1	!	-1	0	0	0	0	0	0
2024-05-14	10:09:51	10:17:35	463061	6.6.1	4_exp_EVA_AWA_CON	28	B	A	Rpleas_acq	Oppo	Rpleas	2pleas	acq_US_unple_nomask	acq45_nomask	5	1	400	1	300	300	0	0	402	46	1	0	tolerant	schlau	treu	retten	ehrlich	schön	tyrannisch	schroff	tot	rächen	eitel	schlecht	helfen	spielen	loyal	freundlich	fair	lachen	hindern	strafen	lasch	fanatisch	faul	leiden	1	blank2r.bmp	0	1	+	0	1	blank2r.bmp	500	1	BMVZ	500	1	blank2r.bmp	880	3	tot	880	1	!	1233	1	!	1304	0	0	0	0	0	0
2024-05-14	10:09:51	10:17:37	465261	6.6.1	4_exp_EVA_AWA_CON	28	B	A	Rpleas_acq	Oppo	Rpleas	2pleas	acq_US_pleas_nomask	acq45_nomask	5	2	400	1	300	300	0	0	422	50	1	0	tolerant	schlau	treu	retten	ehrlich	schön	tyrannisch	schroff	tot	rächen	eitel	schlecht	helfen	spielen	loyal	freundlich	fair	lachen	hindern	strafen	lasch	fanatisch	faul	leiden	1	blank2r.bmp	0	1	+	0	1	blank2r.bmp	500	1	GKQX	500	1	blank2r.bmp	880	3	treu	880	1	!	1232	1	!	1323	0	0	0	0	0	0
2024-05-14	10:09:51	10:17:39	467308	6.6.1	4_exp_EVA_AWA_CON	28	B	A	Rpleas_acq	Oppo	Rpleas	2pleas	acq_US_unple_nomask	acq45_nomask	5	3	400	0	300	300	0	0	269	46	1	0	tolerant	schlau	treu	retten	ehrlich	schön	tyrannisch	schroff	tot	rächen	eitel	schlecht	helfen	spielen	loyal	freundlich	fair	lachen	hindern	strafen	lasch	fanatisch	faul	leiden	1	blank2r.bmp	0	1	+	0	1	blank2r.bmp	500	1	BMVZ	500	1	blank2r.bmp	880	6	schlecht	880	1	!	-1	1	!	-1	0	0	0	0	0	0
2024-05-14	10:09:51	10:17:41	469437	6.6.1	4_exp_EVA_AWA_CON	28	B	A	Rpleas_acq	Oppo	Rpleas	2pleas	acq_US_unple_nomask	acq45_nomask	5	4	400	1	300	300	0	0	355	46	1	0	tolerant	schlau	treu	retten	ehrlich	schön	tyrannisch	schroff	tot	rächen	eitel	schlecht	helfen	spielen	loyal	freundlich	fair	lachen	hindern	strafen	lasch	fanatisch	faul	leiden	1	blank2r.bmp	0	1	+	0	1	blank2r.bmp	500	1	BMVZ	500	1	blank2r.bmp	880	2	schroff	880	1	!	1232	1	!	1256	0	0	0	0	0	0
2024-05-14	10:09:51	10:17:43	471524	6.6.1	4_exp_EVA_AWA_CON	28	B	A	Rpleas_acq	Oppo	Rpleas	2pleas	acq_US_unple_nomask	acq45_nomask	5	5	400	0	300	300	0	0	312	46	1	0	tolerant	schlau	treu	retten	ehrlich	schön	tyrannisch	schroff	tot	rächen	eitel	schlecht	helfen	spielen	loyal	freundlich	fair	lachen	hindern	strafen	lasch	fanatisch	faul	leiden	1	blank2r.bmp	0	1	+	0	1	blank2r.bmp	500	1	BMVZ	500	1	blank2r.bmp	880	5	eitel	880	1	!	-1	1	!	-1	0	0	0	0	0	0
2024-05-14	10:09:51	10:17:45	473612	6.6.1	4_exp_EVA_AWA_CON	28	B	A	Rpleas_acq	Oppo	Rpleas	2pleas	acq_US_pleas_nomask	acq45_nomask	5	6	400	0	300	300	0	0	307	46	0	0	tolerant	schlau	treu	retten	ehrlich	schön	tyrannisch	schroff	tot	rächen	eitel	schlecht	helfen	spielen	loyal	freundlich	fair	lachen	hindern	strafen	lasch	fanatisch	faul	leiden	1	blank2r.bmp	0	1	+	0	1	blank2r.bmp	500	1	GKQX	500	1	blank2r.bmp	880	2	schlau	880	1	!	-1	1	!	-1	0	0	0	0	0	0
2024-05-14	10:09:51	10:17:47	475724	6.6.1	4_exp_EVA_AWA_CON	28	B	A	Rpleas_acq	Oppo	Rpleas	2pleas	acq_US_pleas_nomask	acq45_nomask	5	7	400	1	300	300	0	0	339	50	1	0	tolerant	schlau	treu	retten	ehrlich	schön	tyrannisch	schroff	tot	rächen	eitel	schlecht	helfen	spielen	loyal	freundlich	fair	lachen	hindern	strafen	lasch	fanatisch	faul	leiden	1	blank2r.bmp	0	1	+	0	1	blank2r.bmp	500	1	GKQX	500	1	blank2r.bmp	880	1	tolerant	880	1	!	1232	1	!	1238	0	0	0	0	0	0
2024-05-14	10:09:51	10:17:49	477877	6.6.1	4_exp_EVA_AWA_CON	28	B	A	Rpleas_acq	Oppo	Rpleas	2pleas	acq_US_pleas_nomask	acq45_nomask	5	8	400	1	300	300	0	0	369	50	1	0	tolerant	schlau	treu	retten	ehrlich	schön	tyrannisch	schroff	tot	rächen	eitel	schlecht	helfen	spielen	loyal	freundlich	fair	lachen	hindern	strafen	lasch	fanatisch	faul	leiden	1	blank2r.bmp	0	1	+	0	1	blank2r.bmp	500	1	GKQX	500	1	blank2r.bmp	880	6	schön	880	1	!	1232	1	!	1271	0	0	0	0	0	0
2024-05-14	10:09:51	10:17:52	480030	6.6.1	4_exp_EVA_AWA_CON	28	B	A	Rpleas_acq	Oppo	Rpleas	2pleas	acq_US_pleas_nomask	acq45_nomask	5	9	400	1	300	300	0	0	371	50	1	0	tolerant	schlau	treu	retten	ehrlich	schön	tyrannisch	schroff	tot	rächen	eitel	schlecht	helfen	spielen	loyal	freundlich	fair	lachen	hindern	strafen	lasch	fanatisch	faul	leiden	1	blank2r.bmp	0	1	+	0	1	blank2r.bmp	500	1	GKQX	500	1	blank2r.bmp	880	4	retten	880	1	!	1232	1	!	1272	0	0	0	0	0	0
2024-05-14	10:09:51	10:17:54	482108	6.6.1	4_exp_EVA_AWA_CON	28	B	A	Rpleas_acq	Oppo	Rpleas	2pleas	acq_US_pleas_nomask	acq45_nomask	5	10	400	0	300	300	0	0	299	50	1	0	tolerant	schlau	treu	retten	ehrlich	schön	tyrannisch	schroff	tot	rächen	eitel	schlecht	helfen	spielen	loyal	freundlich	fair	lachen	hindern	strafen	lasch	fanatisch	faul	leiden	1	blank2r.bmp	0	1	+	0	1	blank2r.bmp	500	1	GKQX	500	1	blank2r.bmp	880	5	ehrlich	880	1	!	-1	1	!	-1	0	0	0	0	0	0
2024-05-14	10:09:51	10:17:56	484237	6.6.1	4_exp_EVA_AWA_CON	28	B	A	Rpleas_acq	Oppo	Rpleas	2pleas	acq_US_pleas_nomask	acq45_nomask	5	11	400	1	300	300	0	0	346	50	1	0	tolerant	schlau	treu	retten	ehrlich	schön	tyrannisch	schroff	tot	rächen	eitel	schlecht	helfen	spielen	loyal	freundlich	fair	lachen	hindern	strafen	lasch	fanatisch	faul	leiden	1	blank2r.bmp	0	1	+	0	1	blank2r.bmp	500	1	GKQX	500	1	blank2r.bmp	880	1	tolerant	880	1	!	1232	1	!	1247	0	0	0	0	0	0
2024-05-14	10:09:51	10:17:58	486381	6.6.1	4_exp_EVA_AWA_CON	28	B	A	Rpleas_acq	Oppo	Rpleas	2pleas	acq_US_unple_nomask	acq45_nomask	5	12	400	1	300	300	0	0	368	46	1	0	tolerant	schlau	treu	retten	ehrlich	schön	tyrannisch	schroff	tot	rächen	eitel	schlecht	helfen	spielen	loyal	freundlich	fair	lachen	hindern	strafen	lasch	fanatisch	faul	leiden	1	blank2r.bmp	0	1	+	0	1	blank2r.bmp	500	1	BMVZ	500	1	blank2r.bmp	880	4	rächen	880	1	!	1233	1	!	1269	0	0	0	0	0	0
2024-05-14	10:09:51	10:18:00	488526	6.6.1	4_exp_EVA_AWA_CON	28	B	A	Rpleas_acq	Oppo	Rpleas	2pleas	acq_US_unple_nomask	acq45_nomask	5	13	400	1	300	300	0	0	361	46	1	0	tolerant	schlau	treu	retten	ehrlich	schön	tyrannisch	schroff	tot	rächen	eitel	schlecht	helfen	spielen	loyal	freundlich	fair	lachen	hindern	strafen	lasch	fanatisch	faul	leiden	1	blank2r.bmp	0	1	+	0	1	blank2r.bmp	500	1	BMVZ	500	1	blank2r.bmp	880	1	tyrannisch	880	1	!	1232	1	!	1262	0	0	0	0	0	0
2024-05-14	10:09:51	10:18:02	490604	6.6.1	4_exp_EVA_AWA_CON	28	B	A	Rpleas_acq	Oppo	Rpleas	2pleas	acq_US_unple_nomask	acq45_nomask	5	14	400	0	300	300	0	0	300	46	1	0	tolerant	schlau	treu	retten	ehrlich	schön	tyrannisch	schroff	tot	rächen	eitel	schlecht	helfen	spielen	loyal	freundlich	fair	lachen	hindern	strafen	lasch	fanatisch	faul	leiden	1	blank2r.bmp	0	1	+	0	1	blank2r.bmp	500	1	BMVZ	500	1	blank2r.bmp	880	2	schroff	880	1	!	-1	1	!	-1	0	0	0	0	0	0
2024-05-14	10:09:51	10:18:04	492700	6.6.1	4_exp_EVA_AWA_CON	28	B	A	Rpleas_acq	Oppo	Rpleas	2pleas	acq_US_unple_nomask	acq45_nomask	5	15	400	0	300	300	0	0	314	46	1	0	tolerant	schlau	treu	retten	ehrlich	schön	tyrannisch	schroff	tot	rächen	eitel	schlecht	helfen	spielen	loyal	freundlich	fair	lachen	hindern	strafen	lasch	fanatisch	faul	leiden	1	blank2r.bmp	0	1	+	0	1	blank2r.bmp	500	1	BMVZ	500	1	blank2r.bmp	880	5	eitel	880	1	!	-1	1	!	-1	0	0	0	0	0	0
2024-05-14	10:09:51	10:18:06	494780	6.6.1	4_exp_EVA_AWA_CON	28	B	A	Rpleas_acq	Oppo	Rpleas	2pleas	acq_US_pleas_nomask	acq45_nomask	5	16	400	0	300	300	0	0	303	46	0	0	tolerant	schlau	treu	retten	ehrlich	schön	tyrannisch	schroff	tot	rächen	eitel	schlecht	helfen	spielen	loyal	freundlich	fair	lachen	hindern	strafen	lasch	fanatisch	faul	leiden	1	blank2r.bmp	0	1	+	0	1	blank2r.bmp	500	1	GKQX	500	1	blank2r.bmp	880	6	schön	880	1	!	-1	1	!	-1	0	0	0	0	0	0
2024-05-14	10:09:51	10:18:08	496925	6.6.1	4_exp_EVA_AWA_CON	28	B	A	Rpleas_acq	Oppo	Rpleas	2pleas	acq_US_pleas_nomask	acq45_nomask	5	17	400	1	300	300	0	0	366	50	1	0	tolerant	schlau	treu	retten	ehrlich	schön	tyrannisch	schroff	tot	rächen	eitel	schlecht	helfen	spielen	loyal	freundlich	fair	lachen	hindern	strafen	lasch	fanatisch	faul	leiden	1	blank2r.bmp	0	1	+	0	1	blank2r.bmp	500	1	GKQX	500	1	blank2r.bmp	880	5	ehrlich	880	1	!	1232	1	!	1267	0	0	0	0	0	0
2024-05-14	10:09:51	10:18:10	498980	6.6.1	4_exp_EVA_AWA_CON	28	B	A	Rpleas_acq	Oppo	Rpleas	2pleas	acq_US_unple_nomask	acq45_nomask	5	18	400	0	300	300	0	0	279	46	1	0	tolerant	schlau	treu	retten	ehrlich	schön	tyrannisch	schroff	tot	rächen	eitel	schlecht	helfen	spielen	loyal	freundlich	fair	lachen	hindern	strafen	lasch	fanatisch	faul	leiden	1	blank2r.bmp	0	1	+	0	1	blank2r.bmp	500	1	BMVZ	500	1	blank2r.bmp	880	1	tyrannisch	880	1	!	-1	1	!	-1	0	0	0	0	0	0
2024-05-14	10:09:51	10:18:13	501182	6.6.1	4_exp_EVA_AWA_CON	28	B	A	Rpleas_acq	Oppo	Rpleas	2pleas	acq_US_pleas_nomask	acq45_nomask	5	19	400	1	300	300	0	0	419	50	1	0	tolerant	schlau	treu	retten	ehrlich	schön	tyrannisch	schroff	tot	rächen	eitel	schlecht	helfen	spielen	loyal	freundlich	fair	lachen	hindern	strafen	lasch	fanatisch	faul	leiden	1	blank2r.bmp	0	1	+	0	1	blank2r.bmp	500	1	GKQX	500	1	blank2r.bmp	880	3	treu	880	1	!	1232	1	!	1320	0	0	0	0	0	0
2024-05-14	10:09:51	10:18:15	503268	6.6.1	4_exp_EVA_AWA_CON	28	B	A	Rpleas_acq	Oppo	Rpleas	2pleas	acq_US_unple_nomask	acq45_nomask	5	20	400	0	300	300	0	0	306	46	1	0	tolerant	schlau	treu	retten	ehrlich	schön	tyrannisch	schroff	tot	rächen	eitel	schlecht	helfen	spielen	loyal	freundlich	fair	lachen	hindern	strafen	lasch	fanatisch	faul	leiden	1	blank2r.bmp	0	1	+	0	1	blank2r.bmp	500	1	BMVZ	500	1	blank2r.bmp	880	6	schlecht	880	1	!	-1	1	!	-1	0	0	0	0	0	0
2024-05-14	10:09:51	10:18:17	505379	6.6.1	4_exp_EVA_AWA_CON	28	B	A	Rpleas_acq	Oppo	Rpleas	2pleas	acq_US_unple_nomask	acq45_nomask	5	21	400	1	300	300	0	0	336	46	1	0	tolerant	schlau	treu	retten	ehrlich	schön	tyrannisch	schroff	tot	rächen	eitel	schlecht	helfen	spielen	loyal	freundlich	fair	lachen	hindern	strafen	lasch	fanatisch	faul	leiden	1	blank2r.bmp	0	1	+	0	1	blank2r.bmp	500	1	BMVZ	500	1	blank2r.bmp	880	3	tot	880	1	!	1232	1	!	1235	0	0	0	0	0	0
2024-05-14	10:09:51	10:18:19	507491	6.6.1	4_exp_EVA_AWA_CON	28	B	A	Rpleas_acq	Oppo	Rpleas	2pleas	acq_US_pleas_nomask	acq45_nomask	5	22	400	1	300	300	0	0	336	46	0	0	tolerant	schlau	treu	retten	ehrlich	schön	tyrannisch	schroff	tot	rächen	eitel	schlecht	helfen	spielen	loyal	freundlich	fair	lachen	hindern	strafen	lasch	fanatisch	faul	leiden	1	blank2r.bmp	0	1	+	0	1	blank2r.bmp	500	1	GKQX	500	1	blank2r.bmp	880	2	schlau	880	1	!	1232	1	!	1236	0	0	0	0	0	0
2024-05-14	10:09:51	10:18:21	509669	6.6.1	4_exp_EVA_AWA_CON	28	B	A	Rpleas_acq	Oppo	Rpleas	2pleas	acq_US_pleas_nomask	acq45_nomask	5	23	400	1	300	300	0	0	401	50	1	0	tolerant	schlau	treu	retten	ehrlich	schön	tyrannisch	schroff	tot	rächen	eitel	schlecht	helfen	spielen	loyal	freundlich	fair	lachen	hindern	strafen	lasch	fanatisch	faul	leiden	1	blank2r.bmp	0	1	+	0	1	blank2r.bmp	500	1	GKQX	500	1	blank2r.bmp	880	4	retten	880	1	!	1232	1	!	1302	0	0	0	0	0	0
2024-05-14	10:09:51	10:18:23	511731	6.6.1	4_exp_EVA_AWA_CON	28	B	A	Rpleas_acq	Oppo	Rpleas	2pleas	acq_US_pleas_nomask	acq45_nomask	5	24	400	0	300	300	0	0	283	46	0	0	tolerant	schlau	treu	retten	ehrlich	schön	tyrannisch	schroff	tot	rächen	eitel	schlecht	helfen	spielen	loyal	freundlich	fair	lachen	hindern	strafen	lasch	fanatisch	faul	leiden	1	blank2r.bmp	0	1	+	0	1	blank2r.bmp	500	1	GKQX	500	1	blank2r.bmp	880	5	ehrlich	880	1	!	-1	1	!	-1	0	0	0	0	0	0
2024-05-14	10:09:51	10:18:25	513771	6.6.1	4_exp_EVA_AWA_CON	28	B	A	Rpleas_acq	Oppo	Rpleas	2pleas	acq_US_pleas_nomask	acq45_nomask	5	25	400	0	300	300	0	0	262	50	1	0	tolerant	schlau	treu	retten	ehrlich	schön	tyrannisch	schroff	tot	rächen	eitel	schlecht	helfen	spielen	loyal	freundlich	fair	lachen	hindern	strafen	lasch	fanatisch	faul	leiden	1	blank2r.bmp	0	1	+	0	1	blank2r.bmp	500	1	GKQX	500	1	blank2r.bmp	880	6	schön	880	1	!	-1	1	!	-1	0	0	0	0	0	0
2024-05-14	10:09:51	10:18:27	515867	6.6.1	4_exp_EVA_AWA_CON	28	B	A	Rpleas_acq	Oppo	Rpleas	2pleas	acq_US_pleas_nomask	acq45_nomask	5	26	400	0	300	300	0	0	316	46	0	0	tolerant	schlau	treu	retten	ehrlich	schön	tyrannisch	schroff	tot	rächen	eitel	schlecht	helfen	spielen	loyal	freundlich	fair	lachen	hindern	strafen	lasch	fanatisch	faul	leiden	1	blank2r.bmp	0	1	+	0	1	blank2r.bmp	500	1	GKQX	500	1	blank2r.bmp	880	3	treu	880	1	!	-1	1	!	-1	0	0	0	0	0	0
2024-05-14	10:09:51	10:18:29	517924	6.6.1	4_exp_EVA_AWA_CON	28	B	A	Rpleas_acq	Oppo	Rpleas	2pleas	acq_US_pleas_nomask	acq45_nomask	5	27	400	0	300	300	0	0	282	50	1	0	tolerant	schlau	treu	retten	ehrlich	schön	tyrannisch	schroff	tot	rächen	eitel	schlecht	helfen	spielen	loyal	freundlich	fair	lachen	hindern	strafen	lasch	fanatisch	faul	leiden	1	blank2r.bmp	0	1	+	0	1	blank2r.bmp	500	1	GKQX	500	1	blank2r.bmp	880	1	tolerant	880	1	!	-1	1	!	-1	0	0	0	0	0	0
2024-05-14	10:09:51	10:18:31	519916	6.6.1	4_exp_EVA_AWA_CON	28	B	A	Rpleas_acq	Oppo	Rpleas	2pleas	acq_US_pleas_nomask	acq45_nomask	5	28	400	0	300	300	0	0	213	46	0	0	tolerant	schlau	treu	retten	ehrlich	schön	tyrannisch	schroff	tot	rächen	eitel	schlecht	helfen	spielen	loyal	freundlich	fair	lachen	hindern	strafen	lasch	fanatisch	faul	leiden	1	blank2r.bmp	0	1	+	0	1	blank2r.bmp	500	1	GKQX	500	1	blank2r.bmp	880	4	retten	880	1	!	-1	1	!	-1	0	0	0	0	0	0
2024-05-14	10:09:51	10:18:33	521900	6.6.1	4_exp_EVA_AWA_CON	28	B	A	Rpleas_acq	Oppo	Rpleas	2pleas	acq_US_unple_nomask	acq45_nomask	5	29	400	0	300	300	0	0	206	50	0	0	tolerant	schlau	treu	retten	ehrlich	schön	tyrannisch	schroff	tot	rächen	eitel	schlecht	helfen	spielen	loyal	freundlich	fair	lachen	hindern	strafen	lasch	fanatisch	faul	leiden	1	blank2r.bmp	0	1	+	0	1	blank2r.bmp	500	1	BMVZ	500	1	blank2r.bmp	880	4	rächen	880	1	!	-1	1	!	-1	0	0	0	0	0	0
2024-05-14	10:09:51	10:18:35	523956	6.6.1	4_exp_EVA_AWA_CON	28	B	A	Rpleas_acq	Oppo	Rpleas	2pleas	acq_US_pleas_nomask	acq45_nomask	5	30	400	0	300	300	0	0	280	46	0	0	tolerant	schlau	treu	retten	ehrlich	schön	tyrannisch	schroff	tot	rächen	eitel	schlecht	helfen	spielen	loyal	freundlich	fair	lachen	hindern	strafen	lasch	fanatisch	faul	leiden	1	blank2r.bmp	0	1	+	0	1	blank2r.bmp	500	1	GKQX	500	1	blank2r.bmp	880	2	schlau	880	1	!	-1	1	!	-1	0	0	0	0	0	0
2024-05-14	10:09:51	10:18:37	525972	6.6.1	4_exp_EVA_AWA_CON	28	B	A	Rpleas_acq	Oppo	Rpleas	2pleas	acq_US_unple_nomask	acq45_nomask	5	31	400	0	300	300	0	0	235	50	0	0	tolerant	schlau	treu	retten	ehrlich	schön	tyrannisch	schroff	tot	rächen	eitel	schlecht	helfen	spielen	loyal	freundlich	fair	lachen	hindern	strafen	lasch	fanatisch	faul	leiden	1	blank2r.bmp	0	1	+	0	1	blank2r.bmp	500	1	BMVZ	500	1	blank2r.bmp	880	5	eitel	880	1	!	-1	1	!	-1	0	0	0	0	0	0
2024-05-14	10:09:51	10:18:40	528181	6.6.1	4_exp_EVA_AWA_CON	28	B	A	Rpleas_acq	Oppo	Rpleas	2pleas	acq_US_unple_nomask	acq45_nomask	5	32	400	1	300	300	0	0	432	46	1	0	tolerant	schlau	treu	retten	ehrlich	schön	tyrannisch	schroff	tot	rächen	eitel	schlecht	helfen	spielen	loyal	freundlich	fair	lachen	hindern	strafen	lasch	fanatisch	faul	leiden	1	blank2r.bmp	0	1	+	0	1	blank2r.bmp	500	1	BMVZ	500	1	blank2r.bmp	880	6	schlecht	880	1	!	1232	1	!	1333	0	0	0	0	0	0
2024-05-14	10:09:51	10:18:42	530342	6.6.1	4_exp_EVA_AWA_CON	28	B	A	Rpleas_acq	Oppo	Rpleas	2pleas	acq_US_unple_nomask	acq45_nomask	5	33	400	1	300	300	0	0	380	46	1	0	tolerant	schlau	treu	retten	ehrlich	schön	tyrannisch	schroff	tot	rächen	eitel	schlecht	helfen	spielen	loyal	freundlich	fair	lachen	hindern	strafen	lasch	fanatisch	faul	leiden	1	blank2r.bmp	0	1	+	0	1	blank2r.bmp	500	1	BMVZ	500	1	blank2r.bmp	880	3	tot	880	1	!	1232	1	!	1282	0	0	0	0	0	0
2024-05-14	10:09:51	10:18:44	532460	6.6.1	4_exp_EVA_AWA_CON	28	B	A	Rpleas_acq	Oppo	Rpleas	2pleas	acq_US_unple_nomask	acq45_nomask	5	34	400	1	300	300	0	0	339	46	1	0	tolerant	schlau	treu	retten	ehrlich	schön	tyrannisch	schroff	tot	rächen	eitel	schlecht	helfen	spielen	loyal	freundlich	fair	lachen	hindern	strafen	lasch	fanatisch	faul	leiden	1	blank2r.bmp	0	1	+	0	1	blank2r.bmp	500	1	BMVZ	500	1	blank2r.bmp	880	4	rächen	880	1	!	1232	1	!	1238	0	0	0	0	0	0
2024-05-14	10:09:51	10:18:46	534661	6.6.1	4_exp_EVA_AWA_CON	28	B	A	Rpleas_acq	Oppo	Rpleas	2pleas	acq_US_unple_nomask	acq45_nomask	5	35	400	1	300	300	0	0	426	46	1	0	tolerant	schlau	treu	retten	ehrlich	schön	tyrannisch	schroff	tot	rächen	eitel	schlecht	helfen	spielen	loyal	freundlich	fair	lachen	hindern	strafen	lasch	fanatisch	faul	leiden	1	blank2r.bmp	0	1	+	0	1	blank2r.bmp	500	1	BMVZ	500	1	blank2r.bmp	880	2	schroff	880	1	!	1232	1	!	1328	0	0	0	0	0	0
2024-05-14	10:09:51	10:18:48	536877	6.6.1	4_exp_EVA_AWA_CON	28	B	A	Rpleas_acq	Oppo	Rpleas	2pleas	acq_US_unple_nomask	acq45_nomask	5	36	400	1	300	300	0	0	441	46	1	0	tolerant	schlau	treu	retten	ehrlich	schön	tyrannisch	schroff	tot	rächen	eitel	schlecht	helfen	spielen	loyal	freundlich	fair	lachen	hindern	strafen	lasch	fanatisch	faul	leiden	1	blank2r.bmp	0	1	+	0	1	blank2r.bmp	500	1	BMVZ	500	1	blank2r.bmp	880	1	tyrannisch	880	1	!	1232	1	!	1343	0	0	0	0	0	0
2024-05-14	10:09:51	10:19:09	557017	6.6.1	4_exp_EVA_AWA_CON	28	B	A	Rpleas_acq	Oppo	Lpleas	2pleas	EvalRating_firsttwo	EvalRating_firsttwo	6	1	0	0	300	300	0	0	6104	line	0	-72,3958333333333285964pct	tolerant	schlau	treu	retten	ehrlich	schön	tyrannisch	schroff	tot	rächen	eitel	schlecht	helfen	spielen	loyal	freundlich	fair	lachen	hindern	strafen	lasch	fanatisch	faul	leiden	1		-7	1	Wie angenehm oder unangenehm finden Sie die  Buchstabenkette ZGVK?	-7	1		-7	1		-7	1		-7	1	Unangenehm	-7	1	Angenehm	-7	0	0	0	0	0	0	0	0	0
2024-05-14	10:09:51	10:19:14	562336	6.6.1	4_exp_EVA_AWA_CON	28	B	A	Rpleas_acq	Oppo	Lpleas	2pleas	EvalRating_lastfour	EvalRating_lastfour	7	1	0	0	300	300	0	0	2938	line	0	22,1354166666666714036pct	tolerant	schlau	treu	retten	ehrlich	schön	tyrannisch	schroff	tot	rächen	eitel	schlecht	helfen	spielen	loyal	freundlich	fair	lachen	hindern	strafen	lasch	fanatisch	faul	leiden	1		-7	3	Wie angenehm oder unangenehm finden Sie die  Buchstabenkette XBQM?	-7	1		-7	1		-7	1		-7	1	Unangenehm	-7	1	Angenehm	-7	0	0	0	0	0	0	0	0	0
2024-05-14	10:09:51	10:19:16	564703	6.6.1	4_exp_EVA_AWA_CON	28	B	A	Rpleas_acq	Oppo	Lpleas	2pleas	blank_screen	EvalRating_lastfour	7	3	0	0	300	300	0	0	0	0	0	22,1354166666666714036pct	tolerant	schlau	treu	retten	ehrlich	schön	tyrannisch	schroff	tot	rächen	eitel	schlecht	helfen	spielen	loyal	freundlich	fair	lachen	hindern	strafen	lasch	fanatisch	faul	leiden	1		-8	0	0	0	0	0	0	0	0	0	0	0	0	0	0	0	0	0	0	0	0	0	0	0	0	0	0	0
2024-05-14	10:09:51	10:19:18	566096	6.6.1	4_exp_EVA_AWA_CON	28	B	A	Rpleas_acq	Oppo	Lpleas	2pleas	EvalRating_lastfour	EvalRating_lastfour	7	4	0	0	300	300	0	0	804	line	0	33,0729166666666856145pct	tolerant	schlau	treu	retten	ehrlich	schön	tyrannisch	schroff	tot	rächen	eitel	schlecht	helfen	spielen	loyal	freundlich	fair	lachen	hindern	strafen	lasch	fanatisch	faul	leiden	1		-8	2	Wie angenehm oder unangenehm finden Sie die  Buchstabenkette GKQX?	-8	1		-8	1		-8	1		-8	1	Unangenehm	-8	1	Angenehm	-8	0	0	0	0	0	0	0	0	0
2024-05-14	10:09:51	10:19:20	568466	6.6.1	4_exp_EVA_AWA_CON	28	B	A	Rpleas_acq	Oppo	Lpleas	2pleas	blank_screen	EvalRating_lastfour	7	6	0	0	300	300	0	0	0	0	0	33,0729166666666856145pct	tolerant	schlau	treu	retten	ehrlich	schön	tyrannisch	schroff	tot	rächen	eitel	schlecht	helfen	spielen	loyal	freundlich	fair	lachen	hindern	strafen	lasch	fanatisch	faul	leiden	1		-8	0	0	0	0	0	0	0	0	0	0	0	0	0	0	0	0	0	0	0	0	0	0	0	0	0	0	0
2024-05-14	10:09:51	10:19:21	569712	6.6.1	4_exp_EVA_AWA_CON	28	B	A	Rpleas_acq	Oppo	Lpleas	2pleas	EvalRating_lastfour	EvalRating_lastfour	7	7	0	0	300	300	0	0	657	line	0	0,6510416666666714036pct	tolerant	schlau	treu	retten	ehrlich	schön	tyrannisch	schroff	tot	rächen	eitel	schlecht	helfen	spielen	loyal	freundlich	fair	lachen	hindern	strafen	lasch	fanatisch	faul	leiden	1		-8	1	Wie angenehm oder unangenehm finden Sie die  Buchstabenkette BMVZ?	-8	1		-8	1		-8	1		-8	1	Unangenehm	-8	1	Angenehm	-8	0	0	0	0	0	0	0	0	0
2024-05-14	10:09:51	10:19:59	607749	6.6.1	4_exp_EVA_AWA_CON	28	B	A	Rpleas_acq	Oppo	Lpleas	2pleas	conawa_CS2_US1	conawa1_nomask	8	1	0	0	300	300	0	0	9508	tolerant	1	0,6510416666666714036pct	tolerant	schlau	treu	retten	ehrlich	schön	tyrannisch	schroff	tot	rächen	eitel	schlecht	helfen	spielen	loyal	freundlich	fair	lachen	hindern	strafen	lasch	fanatisch	faul	leiden	0	0	0	0	0	0	0	0	0	0	0	0	0	0	0	0	0	0	0	0	0	0	0	0	0	0	0	0	0	0
2024-05-14	10:09:51	10:19:59	607751	6.6.1	4_exp_EVA_AWA_CON	28	B	A	Rpleas_acq	Oppo	Lpleas	2pleas	conawa_CS2_US1_confidence	conawa1_nomask	8	1	0	0	300	300	0	0	9508	probably	1	0,6510416666666714036pct	tolerant	schlau	treu	retten	ehrlich	schön	tyrannisch	schroff	tot	rächen	eitel	schlecht	helfen	spielen	loyal	freundlich	fair	lachen	hindern	strafen	lasch	fanatisch	faul	leiden	0	0	0	0	0	0	0	0	0	0	0	0	0	0	0	0	0	0	0	0	0	0	0	0	0	0	0	0	0	0
2024-05-14	10:09:51	10:20:08	616685	6.6.1	4_exp_EVA_AWA_CON	28	B	A	Rpleas_acq	Oppo	Lpleas	2pleas	conawa_CS1_US6	conawa1_nomask	8	2	0	0	300	300	0	0	8314	schön	1	0,6510416666666714036pct	tolerant	schlau	treu	retten	ehrlich	schön	tyrannisch	schroff	tot	rächen	eitel	schlecht	helfen	spielen	loyal	freundlich	fair	lachen	hindern	strafen	lasch	fanatisch	faul	leiden	0	0	0	0	0	0	0	0	0	0	0	0	0	0	0	0	0	0	0	0	0	0	0	0	0	0	0	0	0	0
2024-05-14	10:09:51	10:20:08	616687	6.6.1	4_exp_EVA_AWA_CON	28	B	A	Rpleas_acq	Oppo	Lpleas	2pleas	conawa_CS1_US6_confidence	conawa1_nomask	8	2	0	0	300	300	0	0	8314	sure	1	0,6510416666666714036pct	tolerant	schlau	treu	retten	ehrlich	schön	tyrannisch	schroff	tot	rächen	eitel	schlecht	helfen	spielen	loyal	freundlich	fair	lachen	hindern	strafen	lasch	fanatisch	faul	leiden	0	0	0	0	0	0	0	0	0	0	0	0	0	0	0	0	0	0	0	0	0	0	0	0	0	0	0	0	0	0
2024-05-14	10:09:51	10:20:17	625531	6.6.1	4_exp_EVA_AWA_CON	28	B	A	Rpleas_acq	Oppo	Lpleas	2pleas	conawa_CS2_US4	conawa1_nomask	8	3	0	0	300	300	0	0	8226	rächen	1	0,6510416666666714036pct	tolerant	schlau	treu	retten	ehrlich	schön	tyrannisch	schroff	tot	rächen	eitel	schlecht	helfen	spielen	loyal	freundlich	fair	lachen	hindern	strafen	lasch	fanatisch	faul	leiden	0	0	0	0	0	0	0	0	0	0	0	0	0	0	0	0	0	0	0	0	0	0	0	0	0	0	0	0	0	0
2024-05-14	10:09:51	10:20:17	625532	6.6.1	4_exp_EVA_AWA_CON	28	B	A	Rpleas_acq	Oppo	Lpleas	2pleas	conawa_CS2_US4_confidence	conawa1_nomask	8	3	0	0	300	300	0	0	8226	probably	1	0,6510416666666714036pct	tolerant	schlau	treu	retten	ehrlich	schön	tyrannisch	schroff	tot	rächen	eitel	schlecht	helfen	spielen	loyal	freundlich	fair	lachen	hindern	strafen	lasch	fanatisch	faul	leiden	0	0	0	0	0	0	0	0	0	0	0	0	0	0	0	0	0	0	0	0	0	0	0	0	0	0	0	0	0	0
2024-05-14	10:09:51	10:20:21	629534	6.6.1	4_exp_EVA_AWA_CON	28	B	A	Rpleas_acq	Oppo	Lpleas	2pleas	conawa_CS2_US6	conawa1_nomask	8	4	0	0	300	300	0	0	3383	schlecht	1	0,6510416666666714036pct	tolerant	schlau	treu	retten	ehrlich	schön	tyrannisch	schroff	tot	rächen	eitel	schlecht	helfen	spielen	loyal	freundlich	fair	lachen	hindern	strafen	lasch	fanatisch	faul	leiden	0	0	0	0	0	0	0	0	0	0	0	0	0	0	0	0	0	0	0	0	0	0	0	0	0	0	0	0	0	0
2024-05-14	10:09:51	10:20:21	629535	6.6.1	4_exp_EVA_AWA_CON	28	B	A	Rpleas_acq	Oppo	Lpleas	2pleas	conawa_CS2_US6_confidence	conawa1_nomask	8	4	0	0	300	300	0	0	3383	guess	1	0,6510416666666714036pct	tolerant	schlau	treu	retten	ehrlich	schön	tyrannisch	schroff	tot	rächen	eitel	schlecht	helfen	spielen	loyal	freundlich	fair	lachen	hindern	strafen	lasch	fanatisch	faul	leiden	0	0	0	0	0	0	0	0	0	0	0	0	0	0	0	0	0	0	0	0	0	0	0	0	0	0	0	0	0	0
2024-05-14	10:09:51	10:20:29	637068	6.6.1	4_exp_EVA_AWA_CON	28	B	A	Rpleas_acq	Oppo	Lpleas	2pleas	conawa_CS1_US1	conawa1_nomask	8	5	0	0	300	300	0	0	6916	tyrannisch	1	0,6510416666666714036pct	tolerant	schlau	treu	retten	ehrlich	schön	tyrannisch	schroff	tot	rächen	eitel	schlecht	helfen	spielen	loyal	freundlich	fair	lachen	hindern	strafen	lasch	fanatisch	faul	leiden	0	0	0	0	0	0	0	0	0	0	0	0	0	0	0	0	0	0	0	0	0	0	0	0	0	0	0	0	0	0
2024-05-14	10:09:51	10:20:29	637070	6.6.1	4_exp_EVA_AWA_CON	28	B	A	Rpleas_acq	Oppo	Lpleas	2pleas	conawa_CS1_US1_confidence	conawa1_nomask	8	5	0	0	300	300	0	0	6916	sure	1	0,6510416666666714036pct	tolerant	schlau	treu	retten	ehrlich	schön	tyrannisch	schroff	tot	rächen	eitel	schlecht	helfen	spielen	loyal	freundlich	fair	lachen	hindern	strafen	lasch	fanatisch	faul	leiden	0	0	0	0	0	0	0	0	0	0	0	0	0	0	0	0	0	0	0	0	0	0	0	0	0	0	0	0	0	0
2024-05-14	10:09:51	10:20:34	642522	6.6.1	4_exp_EVA_AWA_CON	28	B	A	Rpleas_acq	Oppo	Lpleas	2pleas	conawa_CS2_US3	conawa1_nomask	8	6	0	0	300	300	0	0	4838	tot	1	0,6510416666666714036pct	tolerant	schlau	treu	retten	ehrlich	schön	tyrannisch	schroff	tot	rächen	eitel	schlecht	helfen	spielen	loyal	freundlich	fair	lachen	hindern	strafen	lasch	fanatisch	faul	leiden	0	0	0	0	0	0	0	0	0	0	0	0	0	0	0	0	0	0	0	0	0	0	0	0	0	0	0	0	0	0
2024-05-14	10:09:51	10:20:34	642523	6.6.1	4_exp_EVA_AWA_CON	28	B	A	Rpleas_acq	Oppo	Lpleas	2pleas	conawa_CS2_US3_confidence	conawa1_nomask	8	6	0	0	300	300	0	0	4838	guess	1	0,6510416666666714036pct	tolerant	schlau	treu	retten	ehrlich	schön	tyrannisch	schroff	tot	rächen	eitel	schlecht	helfen	spielen	loyal	freundlich	fair	lachen	hindern	strafen	lasch	fanatisch	faul	leiden	0	0	0	0	0	0	0	0	0	0	0	0	0	0	0	0	0	0	0	0	0	0	0	0	0	0	0	0	0	0
2024-05-14	10:09:51	10:20:43	651838	6.6.1	4_exp_EVA_AWA_CON	28	B	A	Rpleas_acq	Oppo	Lpleas	2pleas	conawa_CS2_US2	conawa1_nomask	8	7	0	0	300	300	0	0	8704	schroff	1	0,6510416666666714036pct	tolerant	schlau	treu	retten	ehrlich	schön	tyrannisch	schroff	tot	rächen	eitel	schlecht	helfen	spielen	loyal	freundlich	fair	lachen	hindern	strafen	lasch	fanatisch	faul	leiden	0	0	0	0	0	0	0	0	0	0	0	0	0	0	0	0	0	0	0	0	0	0	0	0	0	0	0	0	0	0
2024-05-14	10:09:51	10:20:43	651840	6.6.1	4_exp_EVA_AWA_CON	28	B	A	Rpleas_acq	Oppo	Lpleas	2pleas	conawa_CS2_US2_confidence	conawa1_nomask	8	7	0	0	300	300	0	0	8704	guess	1	0,6510416666666714036pct	tolerant	schlau	treu	retten	ehrlich	schön	tyrannisch	schroff	tot	rächen	eitel	schlecht	helfen	spielen	loyal	freundlich	fair	lachen	hindern	strafen	lasch	fanatisch	faul	leiden	0	0	0	0	0	0	0	0	0	0	0	0	0	0	0	0	0	0	0	0	0	0	0	0	0	0	0	0	0	0
2024-05-14	10:09:51	10:20:54	662525	6.6.1	4_exp_EVA_AWA_CON	28	B	A	Rpleas_acq	Oppo	Lpleas	2pleas	conawa_CS1_US2	conawa1_nomask	8	8	0	0	300	300	0	0	10067	strafen	1	0,6510416666666714036pct	tolerant	schlau	treu	retten	ehrlich	schön	tyrannisch	schroff	tot	rächen	eitel	schlecht	helfen	spielen	loyal	freundlich	fair	lachen	hindern	strafen	lasch	fanatisch	faul	leiden	0	0	0	0	0	0	0	0	0	0	0	0	0	0	0	0	0	0	0	0	0	0	0	0	0	0	0	0	0	0
2024-05-14	10:09:51	10:20:54	662526	6.6.1	4_exp_EVA_AWA_CON	28	B	A	Rpleas_acq	Oppo	Lpleas	2pleas	conawa_CS1_US2_confidence	conawa1_nomask	8	8	0	0	300	300	0	0	10067	sure	1	0,6510416666666714036pct	tolerant	schlau	treu	retten	ehrlich	schön	tyrannisch	schroff	tot	rächen	eitel	schlecht	helfen	spielen	loyal	freundlich	fair	lachen	hindern	strafen	lasch	fanatisch	faul	leiden	0	0	0	0	0	0	0	0	0	0	0	0	0	0	0	0	0	0	0	0	0	0	0	0	0	0	0	0	0	0
2024-05-14	10:09:51	10:21:02	670750	6.6.1	4_exp_EVA_AWA_CON	28	B	A	Rpleas_acq	Oppo	Lpleas	2pleas	conawa_CS2_US5	conawa1_nomask	8	9	0	0	300	300	0	0	7605	ehrlich	1	0,6510416666666714036pct	tolerant	schlau	treu	retten	ehrlich	schön	tyrannisch	schroff	tot	rächen	eitel	schlecht	helfen	spielen	loyal	freundlich	fair	lachen	hindern	strafen	lasch	fanatisch	faul	leiden	0	0	0	0	0	0	0	0	0	0	0	0	0	0	0	0	0	0	0	0	0	0	0	0	0	0	0	0	0	0
2024-05-14	10:09:51	10:21:02	670751	6.6.1	4_exp_EVA_AWA_CON	28	B	A	Rpleas_acq	Oppo	Lpleas	2pleas	conawa_CS2_US5_confidence	conawa1_nomask	8	9	0	0	300	300	0	0	7605	guess	1	0,6510416666666714036pct	tolerant	schlau	treu	retten	ehrlich	schön	tyrannisch	schroff	tot	rächen	eitel	schlecht	helfen	spielen	loyal	freundlich	fair	lachen	hindern	strafen	lasch	fanatisch	faul	leiden	0	0	0	0	0	0	0	0	0	0	0	0	0	0	0	0	0	0	0	0	0	0	0	0	0	0	0	0	0	0
2024-05-14	10:09:51	10:21:19	687510	6.6.1	4_exp_EVA_AWA_CON	28	B	A	Rpleas_acq	Oppo	Lpleas	2pleas	conawa_CS1_US4	conawa1_nomask	8	10	0	0	300	300	0	0	16141	retten	1	0,6510416666666714036pct	tolerant	schlau	treu	retten	ehrlich	schön	tyrannisch	schroff	tot	rächen	eitel	schlecht	helfen	spielen	loyal	freundlich	fair	lachen	hindern	strafen	lasch	fanatisch	faul	leiden	0	0	0	0	0	0	0	0	0	0	0	0	0	0	0	0	0	0	0	0	0	0	0	0	0	0	0	0	0	0
2024-05-14	10:09:51	10:21:19	687512	6.6.1	4_exp_EVA_AWA_CON	28	B	A	Rpleas_acq	Oppo	Lpleas	2pleas	conawa_CS1_US4_confidence	conawa1_nomask	8	10	0	0	300	300	0	0	16141	probably	1	0,6510416666666714036pct	tolerant	schlau	treu	retten	ehrlich	schön	tyrannisch	schroff	tot	rächen	eitel	schlecht	helfen	spielen	loyal	freundlich	fair	lachen	hindern	strafen	lasch	fanatisch	faul	leiden	0	0	0	0	0	0	0	0	0	0	0	0	0	0	0	0	0	0	0	0	0	0	0	0	0	0	0	0	0	0
2024-05-14	10:09:51	10:21:29	697877	6.6.1	4_exp_EVA_AWA_CON	28	B	A	Rpleas_acq	Oppo	Lpleas	2pleas	conawa_CS1_US5	conawa1_nomask	8	11	0	0	300	300	0	0	9756	fair	1	0,6510416666666714036pct	tolerant	schlau	treu	retten	ehrlich	schön	tyrannisch	schroff	tot	rächen	eitel	schlecht	helfen	spielen	loyal	freundlich	fair	lachen	hindern	strafen	lasch	fanatisch	faul	leiden	0	0	0	0	0	0	0	0	0	0	0	0	0	0	0	0	0	0	0	0	0	0	0	0	0	0	0	0	0	0
2024-05-14	10:09:51	10:21:29	697879	6.6.1	4_exp_EVA_AWA_CON	28	B	A	Rpleas_acq	Oppo	Lpleas	2pleas	conawa_CS1_US5_confidence	conawa1_nomask	8	11	0	0	300	300	0	0	9756	guess	1	0,6510416666666714036pct	tolerant	schlau	treu	retten	ehrlich	schön	tyrannisch	schroff	tot	rächen	eitel	schlecht	helfen	spielen	loyal	freundlich	fair	lachen	hindern	strafen	lasch	fanatisch	faul	leiden	0	0	0	0	0	0	0	0	0	0	0	0	0	0	0	0	0	0	0	0	0	0	0	0	0	0	0	0	0	0
2024-05-14	10:09:51	10:21:40	708964	6.6.1	4_exp_EVA_AWA_CON	28	B	A	Rpleas_acq	Oppo	Lpleas	2pleas	conawa_CS1_US3	conawa1_nomask	8	12	0	0	300	300	0	0	10467	treu	1	0,6510416666666714036pct	tolerant	schlau	treu	retten	ehrlich	schön	tyrannisch	schroff	tot	rächen	eitel	schlecht	helfen	spielen	loyal	freundlich	fair	lachen	hindern	strafen	lasch	fanatisch	faul	leiden	0	0	0	0	0	0	0	0	0	0	0	0	0	0	0	0	0	0	0	0	0	0	0	0	0	0	0	0	0	0
2024-05-14	10:09:51	10:21:40	708966	6.6.1	4_exp_EVA_AWA_CON	28	B	A	Rpleas_acq	Oppo	Lpleas	2pleas	conawa_CS1_US3_confidence	conawa1_nomask	8	12	0	0	300	300	0	0	10467	probably	1	0,6510416666666714036pct	tolerant	schlau	treu	retten	ehrlich	schön	tyrannisch	schroff	tot	rächen	eitel	schlecht	helfen	spielen	loyal	freundlich	fair	lachen	hindern	strafen	lasch	fanatisch	faul	leiden	0	0	0	0	0	0	0	0	0	0	0	0	0	0	0	0	0	0	0	0	0	0	0	0	0	0	0	0	0	0
2024-05-14	10:09:51	10:22:51	779821	6.6.1	4_exp_EVA_AWA_CON	28	B	A	Rpleas_acq	Oppo	Lpleas	2pleas	cond_new_unple_456_nomask_CS2	condtest_nomask_1	11	1	400	1	300	300	0	0	429	46	0	0,6510416666666714036pct	tolerant	schlau	treu	retten	ehrlich	schön	tyrannisch	schroff	tot	rächen	eitel	schlecht	helfen	spielen	loyal	freundlich	fair	lachen	hindern	strafen	lasch	fanatisch	faul	leiden	1	blank2r.bmp	0	1	+	0	1	blank2r.bmp	500	1	GKQX	500	1	blank2r.bmp	880	3	faul	880	1	!	1232	1	!	1331	0	0	0	0	0	0
2024-05-14	10:09:51	10:22:56	784371	6.6.1	4_exp_EVA_AWA_CON	28	B	A	Rpleas_acq	Oppo	Lpleas	2pleas	cond_new_pleas_456_nomask_CS1	condtest_nomask_1	11	2	400	0	300	300	0	0	2770	50	0	0,6510416666666714036pct	tolerant	schlau	treu	retten	ehrlich	schön	tyrannisch	schroff	tot	rächen	eitel	schlecht	helfen	spielen	loyal	freundlich	fair	lachen	hindern	strafen	lasch	fanatisch	faul	leiden	1	blank2r.bmp	0	1	+	0	1	blank2r.bmp	500	1	BMVZ	500	1	blank2r.bmp	880	3	lachen	880	1	!	1232	1	!	-1	0	0	0	0	0	0
2024-05-14	10:09:51	10:22:58	786597	6.6.1	4_exp_EVA_AWA_CON	28	B	A	Rpleas_acq	Oppo	Lpleas	2pleas	cond_US_pleas_123_nomask_CS2	condtest_nomask_1	11	3	400	1	300	300	0	0	452	46	1	0,6510416666666714036pct	tolerant	schlau	treu	retten	ehrlich	schön	tyrannisch	schroff	tot	rächen	eitel	schlecht	helfen	spielen	loyal	freundlich	fair	lachen	hindern	strafen	lasch	fanatisch	faul	leiden	1	blank2r.bmp	0	1	+	0	1	blank2r.bmp	500	1	GKQX	500	1	blank2r.bmp	880	1	treu	880	1	!	1232	1	!	1352	0	0	0	0	0	0
2024-05-14	10:09:51	10:23:00	788838	6.6.1	4_exp_EVA_AWA_CON	28	B	A	Rpleas_acq	Oppo	Lpleas	2pleas	cond_US_unple_123_nomask_CS1	condtest_nomask_1	11	4	400	1	300	300	0	0	459	50	1	0,6510416666666714036pct	tolerant	schlau	treu	retten	ehrlich	schön	tyrannisch	schroff	tot	rächen	eitel	schlecht	helfen	spielen	loyal	freundlich	fair	lachen	hindern	strafen	lasch	fanatisch	faul	leiden	1	blank2r.bmp	0	1	+	0	1	blank2r.bmp	500	1	BMVZ	500	1	blank2r.bmp	880	2	schroff	880	1	!	1232	1	!	1362	0	0	0	0	0	0
2024-05-14	10:09:51	10:23:03	791061	6.6.1	4_exp_EVA_AWA_CON	28	B	A	Rpleas_acq	Oppo	Lpleas	2pleas	cond_new_pleas_456_nomask_CS2	condtest_nomask_1	11	5	400	1	300	300	0	0	442	46	1	0,6510416666666714036pct	tolerant	schlau	treu	retten	ehrlich	schön	tyrannisch	schroff	tot	rächen	eitel	schlecht	helfen	spielen	loyal	freundlich	fair	lachen	hindern	strafen	lasch	fanatisch	faul	leiden	1	blank2r.bmp	0	1	+	0	1	blank2r.bmp	500	1	GKQX	500	1	blank2r.bmp	880	2	freundlich	880	1	!	1232	1	!	1344	0	0	0	0	0	0
2024-05-14	10:09:51	10:23:05	793189	6.6.1	4_exp_EVA_AWA_CON	28	B	A	Rpleas_acq	Oppo	Lpleas	2pleas	cond_US_pleas_123_nomask_CS1	condtest_nomask_1	11	6	400	1	300	300	0	0	348	46	1	0,6510416666666714036pct	tolerant	schlau	treu	retten	ehrlich	schön	tyrannisch	schroff	tot	rächen	eitel	schlecht	helfen	spielen	loyal	freundlich	fair	lachen	hindern	strafen	lasch	fanatisch	faul	leiden	1	blank2r.bmp	0	1	+	0	1	blank2r.bmp	500	1	BMVZ	500	1	blank2r.bmp	880	3	treu	880	1	!	1232	1	!	1250	0	0	0	0	0	0
2024-05-14	10:09:51	10:23:07	795260	6.6.1	4_exp_EVA_AWA_CON	28	B	A	Rpleas_acq	Oppo	Lpleas	2pleas	cond_new_unple_456_nomask_CS1	condtest_nomask_1	11	7	400	0	300	300	0	0	289	46	0	0,6510416666666714036pct	tolerant	schlau	treu	retten	ehrlich	schön	tyrannisch	schroff	tot	rächen	eitel	schlecht	helfen	spielen	loyal	freundlich	fair	lachen	hindern	strafen	lasch	fanatisch	faul	leiden	1	blank2r.bmp	0	1	+	0	1	blank2r.bmp	500	1	BMVZ	500	1	blank2r.bmp	880	2	faul	880	1	!	-1	1	!	-1	0	0	0	0	0	0
2024-05-14	10:09:51	10:23:09	797414	6.6.1	4_exp_EVA_AWA_CON	28	B	A	Rpleas_acq	Oppo	Lpleas	2pleas	cond_US_unple_123_nomask_CS2	condtest_nomask_1	11	8	400	1	300	300	0	0	371	46	0	0,6510416666666714036pct	tolerant	schlau	treu	retten	ehrlich	schön	tyrannisch	schroff	tot	rächen	eitel	schlecht	helfen	spielen	loyal	freundlich	fair	lachen	hindern	strafen	lasch	fanatisch	faul	leiden	1	blank2r.bmp	0	1	+	0	1	blank2r.bmp	500	1	GKQX	500	1	blank2r.bmp	880	3	schroff	880	1	!	1233	1	!	1272	0	0	0	0	0	0
2024-05-14	10:09:51	10:23:19	807510	6.6.1	4_exp_EVA_AWA_CON	28	B	A	Rpleas_acq	Oppo	Lpleas	2pleas	cond_US_pleas_123_nomask_CS2	condtest_nomask_2	12	1	400	1	300	300	0	0	419	46	1	0,6510416666666714036pct	tolerant	schlau	treu	retten	ehrlich	schön	tyrannisch	schroff	tot	rächen	eitel	schlecht	helfen	spielen	loyal	freundlich	fair	lachen	hindern	strafen	lasch	fanatisch	faul	leiden	1	blank2r.bmp	0	1	+	0	1	blank2r.bmp	500	1	GKQX	500	1	blank2r.bmp	880	2	tolerant	880	1	!	1232	1	!	1322	0	0	0	0	0	0
