date	time	currenttime	elapsedtime	build	currentexpt	subject	CS_AB	US_AB	LRpleas_acq	SameOppo	condition_Lpleas	condition_1pleas	trialcode	blockcode	blocknum	trialnum	windowcenter	inwindow	pretrialpause	posttrialpause	trialduration	trialtimeout	latency	response	correct	correctedscore	US_nomask_pleas1	US_nomask_pleas2	US_nomask_pleas3	US_nomask_pleas4	US_nomask_pleas5	US_nomask_pleas6	US_nomask_unple1	US_nomask_unple2	US_nomask_unple3	US_nomask_unple4	US_nomask_unple5	US_nomask_unple6	new_nomask_pleas1	new_nomask_pleas2	new_nomask_pleas3	new_nomask_pleas4	new_nomask_pleas5	new_nomask_pleas6	new_nomask_unple1	new_nomask_unple2	new_nomask_unple3	new_nomask_unple4	new_nomask_unple5	new_nomask_unple6	stimulusnumber1	stimulusitem1	stimulusonset1	stimulusnumber2	stimulusitem2	stimulusonset2	stimulusnumber3	stimulusitem3	stimulusonset3	stimulusnumber4	stimulusitem4	stimulusonset4	stimulusnumber5	stimulusitem5	stimulusonset5	stimulusnumber6	stimulusitem6	stimulusonset6	stimulusnumber7	stimulusitem7	stimulusonset7	stimulusnumber8	stimulusitem8	stimulusonset8	stimulusnumber9	stimulusitem9	stimulusonset9	stimulusnumber10	stimulusitem10	stimulusonset10
2024-06-19	15:17:58	15:20:22	143805	6.6.1	4_exp_EVA_AWA_CON	91	B	A	Rpleas_acq	Same	Rpleas	2pleas	acq_US_pleas_nomask	acq1_nomask	1	1	0	0	300	300	0	0	1116	50	1	0	schön	loyal	lachen	retten	freundlich	helfen	schlecht	lasch	leiden	rächen	fanatisch	hindern	tolerant	ehrlich	treu	fair	schlau	spielen	tyrannisch	eitel	tot	faul	schroff	strafen	1	blank2r.bmp	0	1	+	0	1	blank2r.bmp	500	1	GKQX	500	1	blank2r.bmp	880	2	loyal	880	0	0	0	0	0	0	0	0	0	0	0	0
2024-06-19	15:17:58	15:20:25	145957	6.6.1	4_exp_EVA_AWA_CON	91	B	A	Rpleas_acq	Same	Rpleas	2pleas	acq_US_unple_nomask	acq1_nomask	1	2	0	0	300	300	0	0	666	46	1	0	schön	loyal	lachen	retten	freundlich	helfen	schlecht	lasch	leiden	rächen	fanatisch	hindern	tolerant	ehrlich	treu	fair	schlau	spielen	tyrannisch	eitel	tot	faul	schroff	strafen	1	blank2r.bmp	0	1	+	0	1	blank2r.bmp	500	1	BMVZ	500	1	blank2r.bmp	880	4	rächen	880	0	0	0	0	0	0	0	0	0	0	0	0
2024-06-19	15:17:58	15:20:27	148174	6.6.1	4_exp_EVA_AWA_CON	91	B	A	Rpleas_acq	Same	Rpleas	2pleas	acq_new_unple_nomask	acq1_nomask	1	3	0	0	300	300	0	0	731	46	1	0	schön	loyal	lachen	retten	freundlich	helfen	schlecht	lasch	leiden	rächen	fanatisch	hindern	tolerant	ehrlich	treu	fair	schlau	spielen	tyrannisch	eitel	tot	faul	schroff	strafen	1	blank2r.bmp	0	1	+	0	1	blank2r.bmp	500	1	B1r.bmp	500	1	blank2r.bmp	880	4	faul	880	0	0	0	0	0	0	0	0	0	0	0	0
2024-06-19	15:17:58	15:20:29	150253	6.6.1	4_exp_EVA_AWA_CON	91	B	A	Rpleas_acq	Same	Rpleas	2pleas	acq_new_unple_nomask	acq1_nomask	1	4	0	0	300	300	0	0	599	46	1	0	schön	loyal	lachen	retten	freundlich	helfen	schlecht	lasch	leiden	rächen	fanatisch	hindern	tolerant	ehrlich	treu	fair	schlau	spielen	tyrannisch	eitel	tot	faul	schroff	strafen	1	blank2r.bmp	0	1	+	0	1	blank2r.bmp	500	5	C1r.bmp	500	1	blank2r.bmp	880	3	tot	880	0	0	0	0	0	0	0	0	0	0	0	0
2024-06-19	15:17:58	15:20:31	152429	6.6.1	4_exp_EVA_AWA_CON	91	B	A	Rpleas_acq	Same	Rpleas	2pleas	acq_US_pleas_nomask	acq1_nomask	1	5	0	0	300	300	0	0	694	50	1	0	schön	loyal	lachen	retten	freundlich	helfen	schlecht	lasch	leiden	rächen	fanatisch	hindern	tolerant	ehrlich	treu	fair	schlau	spielen	tyrannisch	eitel	tot	faul	schroff	strafen	1	blank2r.bmp	0	1	+	0	1	blank2r.bmp	500	1	GKQX	500	1	blank2r.bmp	880	4	retten	880	0	0	0	0	0	0	0	0	0	0	0	0
2024-06-19	15:17:58	15:20:33	154509	6.6.1	4_exp_EVA_AWA_CON	91	B	A	Rpleas_acq	Same	Rpleas	2pleas	acq_new_pleas_nomask	acq1_nomask	1	6	0	0	300	300	0	0	593	50	1	0	schön	loyal	lachen	retten	freundlich	helfen	schlecht	lasch	leiden	rächen	fanatisch	hindern	tolerant	ehrlich	treu	fair	schlau	spielen	tyrannisch	eitel	tot	faul	schroff	strafen	1	blank2r.bmp	0	1	+	0	1	blank2r.bmp	500	7	C3r.bmp	500	1	blank2r.bmp	880	2	ehrlich	880	0	0	0	0	0	0	0	0	0	0	0	0
2024-06-19	15:17:58	15:20:35	156605	6.6.1	4_exp_EVA_AWA_CON	91	B	A	Rpleas_acq	Same	Rpleas	2pleas	acq_new_pleas_nomask	acq1_nomask	1	7	0	0	300	300	0	0	607	50	1	0	schön	loyal	lachen	retten	freundlich	helfen	schlecht	lasch	leiden	rächen	fanatisch	hindern	tolerant	ehrlich	treu	fair	schlau	spielen	tyrannisch	eitel	tot	faul	schroff	strafen	1	blank2r.bmp	0	1	+	0	1	blank2r.bmp	500	8	C4r.bmp	500	1	blank2r.bmp	880	4	fair	880	0	0	0	0	0	0	0	0	0	0	0	0
2024-06-19	15:17:58	15:20:37	158653	6.6.1	4_exp_EVA_AWA_CON	91	B	A	Rpleas_acq	Same	Rpleas	2pleas	acq_new_pleas_nomask	acq1_nomask	1	8	0	0	300	300	0	0	564	50	1	0	schön	loyal	lachen	retten	freundlich	helfen	schlecht	lasch	leiden	rächen	fanatisch	hindern	tolerant	ehrlich	treu	fair	schlau	spielen	tyrannisch	eitel	tot	faul	schroff	strafen	1	blank2r.bmp	0	1	+	0	1	blank2r.bmp	500	3	B3r.bmp	500	1	blank2r.bmp	880	6	spielen	880	0	0	0	0	0	0	0	0	0	0	0	0
2024-06-19	15:17:58	15:20:39	160709	6.6.1	4_exp_EVA_AWA_CON	91	B	A	Rpleas_acq	Same	Rpleas	2pleas	acq_US_unple_nomask	acq1_nomask	1	9	0	0	300	300	0	0	569	46	1	0	schön	loyal	lachen	retten	freundlich	helfen	schlecht	lasch	leiden	rächen	fanatisch	hindern	tolerant	ehrlich	treu	fair	schlau	spielen	tyrannisch	eitel	tot	faul	schroff	strafen	1	blank2r.bmp	0	1	+	0	1	blank2r.bmp	500	1	BMVZ	500	1	blank2r.bmp	880	1	schlecht	880	0	0	0	0	0	0	0	0	0	0	0	0
2024-06-19	15:17:58	15:20:41	162765	6.6.1	4_exp_EVA_AWA_CON	91	B	A	Rpleas_acq	Same	Rpleas	2pleas	acq_US_unple_nomask	acq1_nomask	1	10	0	0	300	300	0	0	573	46	1	0	schön	loyal	lachen	retten	freundlich	helfen	schlecht	lasch	leiden	rächen	fanatisch	hindern	tolerant	ehrlich	treu	fair	schlau	spielen	tyrannisch	eitel	tot	faul	schroff	strafen	1	blank2r.bmp	0	1	+	0	1	blank2r.bmp	500	1	BMVZ	500	1	blank2r.bmp	880	3	leiden	880	0	0	0	0	0	0	0	0	0	0	0	0
2024-06-19	15:17:58	15:20:44	165062	6.6.1	4_exp_EVA_AWA_CON	91	B	A	Rpleas_acq	Same	Rpleas	2pleas	acq_new_unple_nomask	acq1_nomask	1	11	0	0	300	300	0	0	808	46	1	0	schön	loyal	lachen	retten	freundlich	helfen	schlecht	lasch	leiden	rächen	fanatisch	hindern	tolerant	ehrlich	treu	fair	schlau	spielen	tyrannisch	eitel	tot	faul	schroff	strafen	1	blank2r.bmp	0	1	+	0	1	blank2r.bmp	500	4	B4r.bmp	500	1	blank2r.bmp	880	2	eitel	880	0	0	0	0	0	0	0	0	0	0	0	0
2024-06-19	15:17:58	15:20:46	167117	6.6.1	4_exp_EVA_AWA_CON	91	B	A	Rpleas_acq	Same	Rpleas	2pleas	acq_US_pleas_nomask	acq1_nomask	1	12	0	0	300	300	0	0	573	50	1	0	schön	loyal	lachen	retten	freundlich	helfen	schlecht	lasch	leiden	rächen	fanatisch	hindern	tolerant	ehrlich	treu	fair	schlau	spielen	tyrannisch	eitel	tot	faul	schroff	strafen	1	blank2r.bmp	0	1	+	0	1	blank2r.bmp	500	1	GKQX	500	1	blank2r.bmp	880	3	lachen	880	0	0	0	0	0	0	0	0	0	0	0	0
2024-06-19	15:17:58	15:20:48	169368	6.6.1	4_exp_EVA_AWA_CON	91	B	A	Rpleas_acq	Same	Rpleas	2pleas	acq_US_unple_nomask	acq1_nomask	1	13	0	0	300	300	0	0	559	50	0	0	schön	loyal	lachen	retten	freundlich	helfen	schlecht	lasch	leiden	rächen	fanatisch	hindern	tolerant	ehrlich	treu	fair	schlau	spielen	tyrannisch	eitel	tot	faul	schroff	strafen	1	blank2r.bmp	0	1	+	0	1	blank2r.bmp	500	1	BMVZ	500	1	blank2r.bmp	880	5	fanatisch	880	1	FEHLER	1461	0	0	0	0	0	0	0	0	0
2024-06-19	15:17:58	15:20:51	171934	6.6.1	4_exp_EVA_AWA_CON	91	B	A	Rpleas_acq	Same	Rpleas	2pleas	acq_new_pleas_nomask	acq1_nomask	1	14	0	0	300	300	0	0	1086	46	0	0	schön	loyal	lachen	retten	freundlich	helfen	schlecht	lasch	leiden	rächen	fanatisch	hindern	tolerant	ehrlich	treu	fair	schlau	spielen	tyrannisch	eitel	tot	faul	schroff	strafen	1	blank2r.bmp	0	1	+	0	1	blank2r.bmp	500	6	C2r.bmp	500	1	blank2r.bmp	880	3	treu	880	1	FEHLER	1987	0	0	0	0	0	0	0	0	0
2024-06-19	15:17:58	15:20:53	174101	6.6.1	4_exp_EVA_AWA_CON	91	B	A	Rpleas_acq	Same	Rpleas	2pleas	acq_US_unple_nomask	acq1_nomask	1	15	0	0	300	300	0	0	882	46	1	0	schön	loyal	lachen	retten	freundlich	helfen	schlecht	lasch	leiden	rächen	fanatisch	hindern	tolerant	ehrlich	treu	fair	schlau	spielen	tyrannisch	eitel	tot	faul	schroff	strafen	1	blank2r.bmp	0	1	+	0	1	blank2r.bmp	500	1	BMVZ	500	1	blank2r.bmp	880	6	hindern	880	0	0	0	0	0	0	0	0	0	0	0	0
2024-06-19	15:17:58	15:20:55	176205	6.6.1	4_exp_EVA_AWA_CON	91	B	A	Rpleas_acq	Same	Rpleas	2pleas	acq_US_pleas_nomask	acq1_nomask	1	16	0	0	300	300	0	0	625	50	1	0	schön	loyal	lachen	retten	freundlich	helfen	schlecht	lasch	leiden	rächen	fanatisch	hindern	tolerant	ehrlich	treu	fair	schlau	spielen	tyrannisch	eitel	tot	faul	schroff	strafen	1	blank2r.bmp	0	1	+	0	1	blank2r.bmp	500	1	GKQX	500	1	blank2r.bmp	880	1	schön	880	0	0	0	0	0	0	0	0	0	0	0	0
2024-06-19	15:17:58	15:20:57	178357	6.6.1	4_exp_EVA_AWA_CON	91	B	A	Rpleas_acq	Same	Rpleas	2pleas	acq_new_unple_nomask	acq1_nomask	1	17	0	0	300	300	0	0	665	46	1	0	schön	loyal	lachen	retten	freundlich	helfen	schlecht	lasch	leiden	rächen	fanatisch	hindern	tolerant	ehrlich	treu	fair	schlau	spielen	tyrannisch	eitel	tot	faul	schroff	strafen	1	blank2r.bmp	0	1	+	0	1	blank2r.bmp	500	2	B2r.bmp	500	1	blank2r.bmp	880	1	tyrannisch	880	0	0	0	0	0	0	0	0	0	0	0	0
2024-06-19	15:17:58	15:20:59	180477	6.6.1	4_exp_EVA_AWA_CON	91	B	A	Rpleas_acq	Same	Rpleas	2pleas	acq_new_unple_nomask	acq1_nomask	1	18	0	0	300	300	0	0	634	46	1	0	schön	loyal	lachen	retten	freundlich	helfen	schlecht	lasch	leiden	rächen	fanatisch	hindern	tolerant	ehrlich	treu	fair	schlau	spielen	tyrannisch	eitel	tot	faul	schroff	strafen	1	blank2r.bmp	0	1	+	0	1	blank2r.bmp	500	1	B1r.bmp	500	1	blank2r.bmp	880	6	strafen	880	0	0	0	0	0	0	0	0	0	0	0	0
2024-06-19	15:17:58	15:21:01	182701	6.6.1	4_exp_EVA_AWA_CON	91	B	A	Rpleas_acq	Same	Rpleas	2pleas	acq_US_unple_nomask	acq1_nomask	1	19	0	0	300	300	0	0	737	46	1	0	schön	loyal	lachen	retten	freundlich	helfen	schlecht	lasch	leiden	rächen	fanatisch	hindern	tolerant	ehrlich	treu	fair	schlau	spielen	tyrannisch	eitel	tot	faul	schroff	strafen	1	blank2r.bmp	0	1	+	0	1	blank2r.bmp	500	1	BMVZ	500	1	blank2r.bmp	880	2	lasch	880	0	0	0	0	0	0	0	0	0	0	0	0
2024-06-19	15:17:58	15:21:03	184789	6.6.1	4_exp_EVA_AWA_CON	91	B	A	Rpleas_acq	Same	Rpleas	2pleas	acq_new_unple_nomask	acq1_nomask	1	20	0	0	300	300	0	0	602	46	1	0	schön	loyal	lachen	retten	freundlich	helfen	schlecht	lasch	leiden	rächen	fanatisch	hindern	tolerant	ehrlich	treu	fair	schlau	spielen	tyrannisch	eitel	tot	faul	schroff	strafen	1	blank2r.bmp	0	1	+	0	1	blank2r.bmp	500	4	B4r.bmp	500	1	blank2r.bmp	880	5	schroff	880	0	0	0	0	0	0	0	0	0	0	0	0
2024-06-19	15:17:58	15:21:06	186965	6.6.1	4_exp_EVA_AWA_CON	91	B	A	Rpleas_acq	Same	Rpleas	2pleas	acq_new_pleas_nomask	acq1_nomask	1	21	0	0	300	300	0	0	688	50	1	0	schön	loyal	lachen	retten	freundlich	helfen	schlecht	lasch	leiden	rächen	fanatisch	hindern	tolerant	ehrlich	treu	fair	schlau	spielen	tyrannisch	eitel	tot	faul	schroff	strafen	1	blank2r.bmp	0	1	+	0	1	blank2r.bmp	500	5	C1r.bmp	500	1	blank2r.bmp	880	1	tolerant	880	0	0	0	0	0	0	0	0	0	0	0	0
2024-06-19	15:17:58	15:21:08	188957	6.6.1	4_exp_EVA_AWA_CON	91	B	A	Rpleas_acq	Same	Rpleas	2pleas	acq_US_pleas_nomask	acq1_nomask	1	22	0	0	300	300	0	0	509	50	1	0	schön	loyal	lachen	retten	freundlich	helfen	schlecht	lasch	leiden	rächen	fanatisch	hindern	tolerant	ehrlich	treu	fair	schlau	spielen	tyrannisch	eitel	tot	faul	schroff	strafen	1	blank2r.bmp	0	1	+	0	1	blank2r.bmp	500	1	GKQX	500	1	blank2r.bmp	880	5	freundlich	880	0	0	0	0	0	0	0	0	0	0	0	0
2024-06-19	15:17:58	15:21:10	191013	6.6.1	4_exp_EVA_AWA_CON	91	B	A	Rpleas_acq	Same	Rpleas	2pleas	acq_US_pleas_nomask	acq1_nomask	1	23	0	0	300	300	0	0	572	50	1	0	schön	loyal	lachen	retten	freundlich	helfen	schlecht	lasch	leiden	rächen	fanatisch	hindern	tolerant	ehrlich	treu	fair	schlau	spielen	tyrannisch	eitel	tot	faul	schroff	strafen	1	blank2r.bmp	0	1	+	0	1	blank2r.bmp	500	1	GKQX	500	1	blank2r.bmp	880	6	helfen	880	0	0	0	0	0	0	0	0	0	0	0	0
2024-06-19	15:17:58	15:21:12	193077	6.6.1	4_exp_EVA_AWA_CON	91	B	A	Rpleas_acq	Same	Rpleas	2pleas	acq_new_pleas_nomask	acq1_nomask	1	24	0	0	300	300	0	0	576	50	1	0	schön	loyal	lachen	retten	freundlich	helfen	schlecht	lasch	leiden	rächen	fanatisch	hindern	tolerant	ehrlich	treu	fair	schlau	spielen	tyrannisch	eitel	tot	faul	schroff	strafen	1	blank2r.bmp	0	1	+	0	1	blank2r.bmp	500	3	B3r.bmp	500	1	blank2r.bmp	880	5	schlau	880	0	0	0	0	0	0	0	0	0	0	0	0
2024-06-19	15:17:58	15:21:14	195214	6.6.1	4_exp_EVA_AWA_CON	91	B	A	Rpleas_acq	Same	Rpleas	2pleas	acq_new_pleas_nomask	acq1_nomask	1	25	0	0	300	300	0	0	651	50	1	0	schön	loyal	lachen	retten	freundlich	helfen	schlecht	lasch	leiden	rächen	fanatisch	hindern	tolerant	ehrlich	treu	fair	schlau	spielen	tyrannisch	eitel	tot	faul	schroff	strafen	1	blank2r.bmp	0	1	+	0	1	blank2r.bmp	500	8	C4r.bmp	500	1	blank2r.bmp	880	3	treu	880	0	0	0	0	0	0	0	0	0	0	0	0
2024-06-19	15:17:58	15:21:16	197166	6.6.1	4_exp_EVA_AWA_CON	91	B	A	Rpleas_acq	Same	Rpleas	2pleas	acq_US_pleas_nomask	acq1_nomask	1	26	0	0	300	300	0	0	471	50	1	0	schön	loyal	lachen	retten	freundlich	helfen	schlecht	lasch	leiden	rächen	fanatisch	hindern	tolerant	ehrlich	treu	fair	schlau	spielen	tyrannisch	eitel	tot	faul	schroff	strafen	1	blank2r.bmp	0	1	+	0	1	blank2r.bmp	500	1	GKQX	500	1	blank2r.bmp	880	1	schön	880	0	0	0	0	0	0	0	0	0	0	0	0
2024-06-19	15:17:58	15:21:18	199408	6.6.1	4_exp_EVA_AWA_CON	91	B	A	Rpleas_acq	Same	Rpleas	2pleas	acq_US_pleas_nomask	acq1_nomask	1	27	0	0	300	300	0	0	560	46	0	0	schön	loyal	lachen	retten	freundlich	helfen	schlecht	lasch	leiden	rächen	fanatisch	hindern	tolerant	ehrlich	treu	fair	schlau	spielen	tyrannisch	eitel	tot	faul	schroff	strafen	1	blank2r.bmp	0	1	+	0	1	blank2r.bmp	500	1	GKQX	500	1	blank2r.bmp	880	4	retten	880	1	FEHLER	1462	0	0	0	0	0	0	0	0	0
2024-06-19	15:17:58	15:21:20	201461	6.6.1	4_exp_EVA_AWA_CON	91	B	A	Rpleas_acq	Same	Rpleas	2pleas	acq_US_unple_nomask	acq1_nomask	1	28	0	0	300	300	0	0	775	46	1	0	schön	loyal	lachen	retten	freundlich	helfen	schlecht	lasch	leiden	rächen	fanatisch	hindern	tolerant	ehrlich	treu	fair	schlau	spielen	tyrannisch	eitel	tot	faul	schroff	strafen	1	blank2r.bmp	0	1	+	0	1	blank2r.bmp	500	1	BMVZ	500	1	blank2r.bmp	880	4	rächen	880	0	0	0	0	0	0	0	0	0	0	0	0
2024-06-19	15:17:58	15:21:22	203653	6.6.1	4_exp_EVA_AWA_CON	91	B	A	Rpleas_acq	Same	Rpleas	2pleas	acq_US_unple_nomask	acq1_nomask	1	29	0	0	300	300	0	0	705	46	1	0	schön	loyal	lachen	retten	freundlich	helfen	schlecht	lasch	leiden	rächen	fanatisch	hindern	tolerant	ehrlich	treu	fair	schlau	spielen	tyrannisch	eitel	tot	faul	schroff	strafen	1	blank2r.bmp	0	1	+	0	1	blank2r.bmp	500	1	BMVZ	500	1	blank2r.bmp	880	1	schlecht	880	0	0	0	0	0	0	0	0	0	0	0	0
2024-06-19	15:17:58	15:21:24	205709	6.6.1	4_exp_EVA_AWA_CON	91	B	A	Rpleas_acq	Same	Rpleas	2pleas	acq_US_unple_nomask	acq1_nomask	1	30	0	0	300	300	0	0	569	46	1	0	schön	loyal	lachen	retten	freundlich	helfen	schlecht	lasch	leiden	rächen	fanatisch	hindern	tolerant	ehrlich	treu	fair	schlau	spielen	tyrannisch	eitel	tot	faul	schroff	strafen	1	blank2r.bmp	0	1	+	0	1	blank2r.bmp	500	1	BMVZ	500	1	blank2r.bmp	880	3	leiden	880	0	0	0	0	0	0	0	0	0	0	0	0
2024-06-19	15:17:58	15:21:27	208029	6.6.1	4_exp_EVA_AWA_CON	91	B	A	Rpleas_acq	Same	Rpleas	2pleas	acq_US_pleas_nomask	acq1_nomask	1	31	0	0	300	300	0	0	838	50	1	0	schön	loyal	lachen	retten	freundlich	helfen	schlecht	lasch	leiden	rächen	fanatisch	hindern	tolerant	ehrlich	treu	fair	schlau	spielen	tyrannisch	eitel	tot	faul	schroff	strafen	1	blank2r.bmp	0	1	+	0	1	blank2r.bmp	500	1	GKQX	500	1	blank2r.bmp	880	2	loyal	880	0	0	0	0	0	0	0	0	0	0	0	0
2024-06-19	15:17:58	15:21:29	210069	6.6.1	4_exp_EVA_AWA_CON	91	B	A	Rpleas_acq	Same	Rpleas	2pleas	acq_new_unple_nomask	acq1_nomask	1	32	0	0	300	300	0	0	557	46	1	0	schön	loyal	lachen	retten	freundlich	helfen	schlecht	lasch	leiden	rächen	fanatisch	hindern	tolerant	ehrlich	treu	fair	schlau	spielen	tyrannisch	eitel	tot	faul	schroff	strafen	1	blank2r.bmp	0	1	+	0	1	blank2r.bmp	500	6	C2r.bmp	500	1	blank2r.bmp	880	3	tot	880	0	0	0	0	0	0	0	0	0	0	0	0
2024-06-19	15:17:58	15:21:31	212149	6.6.1	4_exp_EVA_AWA_CON	91	B	A	Rpleas_acq	Same	Rpleas	2pleas	acq_new_pleas_nomask	acq1_nomask	1	33	0	0	300	300	0	0	596	50	1	0	schön	loyal	lachen	retten	freundlich	helfen	schlecht	lasch	leiden	rächen	fanatisch	hindern	tolerant	ehrlich	treu	fair	schlau	spielen	tyrannisch	eitel	tot	faul	schroff	strafen	1	blank2r.bmp	0	1	+	0	1	blank2r.bmp	500	7	C3r.bmp	500	1	blank2r.bmp	880	6	spielen	880	0	0	0	0	0	0	0	0	0	0	0	0
2024-06-19	15:17:58	15:21:33	214717	6.6.1	4_exp_EVA_AWA_CON	91	B	A	Rpleas_acq	Same	Rpleas	2pleas	acq_new_unple_nomask	acq1_nomask	1	34	0	0	300	300	0	0	1081	46	1	0	schön	loyal	lachen	retten	freundlich	helfen	schlecht	lasch	leiden	rächen	fanatisch	hindern	tolerant	ehrlich	treu	fair	schlau	spielen	tyrannisch	eitel	tot	faul	schroff	strafen	1	blank2r.bmp	0	1	+	0	1	blank2r.bmp	500	2	B2r.bmp	500	1	blank2r.bmp	880	2	eitel	880	0	0	0	0	0	0	0	0	0	0	0	0
2024-06-19	15:17:58	15:21:36	217005	6.6.1	4_exp_EVA_AWA_CON	91	B	A	Rpleas_acq	Same	Rpleas	2pleas	acq_new_pleas_nomask	acq1_nomask	1	35	0	0	300	300	0	0	799	50	1	0	schön	loyal	lachen	retten	freundlich	helfen	schlecht	lasch	leiden	rächen	fanatisch	hindern	tolerant	ehrlich	treu	fair	schlau	spielen	tyrannisch	eitel	tot	faul	schroff	strafen	1	blank2r.bmp	0	1	+	0	1	blank2r.bmp	500	7	C3r.bmp	500	1	blank2r.bmp	880	1	tolerant	880	0	0	0	0	0	0	0	0	0	0	0	0
2024-06-19	15:17:58	15:21:38	219053	6.6.1	4_exp_EVA_AWA_CON	91	B	A	Rpleas_acq	Same	Rpleas	2pleas	acq_new_unple_nomask	acq1_nomask	1	36	0	0	300	300	0	0	564	46	1	0	schön	loyal	lachen	retten	freundlich	helfen	schlecht	lasch	leiden	rächen	fanatisch	hindern	tolerant	ehrlich	treu	fair	schlau	spielen	tyrannisch	eitel	tot	faul	schroff	strafen	1	blank2r.bmp	0	1	+	0	1	blank2r.bmp	500	5	C1r.bmp	500	1	blank2r.bmp	880	4	faul	880	0	0	0	0	0	0	0	0	0	0	0	0
2024-06-19	15:17:58	15:22:13	254079	6.6.1	4_exp_EVA_AWA_CON	91	B	A	Rpleas_acq	Same	Rpleas	2pleas	acq_US_unple_nomask	acq2_nomask	2	1	480	0	300	300	0	0	1028	46	1	0	schön	loyal	lachen	retten	freundlich	helfen	schlecht	lasch	leiden	rächen	fanatisch	hindern	tolerant	ehrlich	treu	fair	schlau	spielen	tyrannisch	eitel	tot	faul	schroff	strafen	1	blank2r.bmp	0	1	+	0	1	blank2r.bmp	500	1	BMVZ	500	1	blank2r.bmp	880	2	lasch	880	1	!	1312	1	!	-1	0	0	0	0	0	0
2024-06-19	15:17:58	15:22:15	256345	6.6.1	4_exp_EVA_AWA_CON	91	B	A	Rpleas_acq	Same	Rpleas	2pleas	acq_US_unple_nomask	acq2_nomask	2	2	480	1	300	300	0	0	491	46	1	0	schön	loyal	lachen	retten	freundlich	helfen	schlecht	lasch	leiden	rächen	fanatisch	hindern	tolerant	ehrlich	treu	fair	schlau	spielen	tyrannisch	eitel	tot	faul	schroff	strafen	1	blank2r.bmp	0	1	+	0	1	blank2r.bmp	500	1	BMVZ	500	1	blank2r.bmp	880	6	hindern	880	1	!	1313	1	!	1393	0	0	0	0	0	0
2024-06-19	15:17:58	15:22:17	258678	6.6.1	4_exp_EVA_AWA_CON	91	B	A	Rpleas_acq	Same	Rpleas	2pleas	acq_new_unple_nomask	acq2_nomask	2	3	480	0	300	300	0	0	556	46	1	0	schön	loyal	lachen	retten	freundlich	helfen	schlecht	lasch	leiden	rächen	fanatisch	hindern	tolerant	ehrlich	treu	fair	schlau	spielen	tyrannisch	eitel	tot	faul	schroff	strafen	1	blank2r.bmp	0	1	+	0	1	blank2r.bmp	500	8	C4r.bmp	500	1	blank2r.bmp	880	6	strafen	880	1	!	1312	1	!	-1	0	0	0	0	0	0
2024-06-19	15:17:58	15:22:20	260889	6.6.1	4_exp_EVA_AWA_CON	91	B	A	Rpleas_acq	Same	Rpleas	2pleas	acq_US_pleas_nomask	acq2_nomask	2	4	480	1	300	300	0	0	432	50	1	0	schön	loyal	lachen	retten	freundlich	helfen	schlecht	lasch	leiden	rächen	fanatisch	hindern	tolerant	ehrlich	treu	fair	schlau	spielen	tyrannisch	eitel	tot	faul	schroff	strafen	1	blank2r.bmp	0	1	+	0	1	blank2r.bmp	500	1	GKQX	500	1	blank2r.bmp	880	3	lachen	880	1	!	1313	1	!	1333	0	0	0	0	0	0
2024-06-19	15:17:58	15:22:22	263248	6.6.1	4_exp_EVA_AWA_CON	91	B	A	Rpleas_acq	Same	Rpleas	2pleas	acq_US_unple_nomask	acq2_nomask	2	5	480	0	300	300	0	0	580	46	1	0	schön	loyal	lachen	retten	freundlich	helfen	schlecht	lasch	leiden	rächen	fanatisch	hindern	tolerant	ehrlich	treu	fair	schlau	spielen	tyrannisch	eitel	tot	faul	schroff	strafen	1	blank2r.bmp	0	1	+	0	1	blank2r.bmp	500	1	BMVZ	500	1	blank2r.bmp	880	5	fanatisch	880	1	!	1313	1	!	-1	0	0	0	0	0	0
2024-06-19	15:17:58	15:22:24	265521	6.6.1	4_exp_EVA_AWA_CON	91	B	A	Rpleas_acq	Same	Rpleas	2pleas	acq_new_pleas_nomask	acq2_nomask	2	6	480	1	300	300	0	0	491	50	1	0	schön	loyal	lachen	retten	freundlich	helfen	schlecht	lasch	leiden	rächen	fanatisch	hindern	tolerant	ehrlich	treu	fair	schlau	spielen	tyrannisch	eitel	tot	faul	schroff	strafen	1	blank2r.bmp	0	1	+	0	1	blank2r.bmp	500	2	B2r.bmp	500	1	blank2r.bmp	880	5	schlau	880	1	!	1312	1	!	1393	0	0	0	0	0	0
2024-06-19	15:17:58	15:22:27	268043	6.6.1	4_exp_EVA_AWA_CON	91	B	A	Rpleas_acq	Same	Rpleas	2pleas	acq_new_pleas_nomask	acq2_nomask	2	7	480	1	300	300	0	0	539	46	0	0	schön	loyal	lachen	retten	freundlich	helfen	schlecht	lasch	leiden	rächen	fanatisch	hindern	tolerant	ehrlich	treu	fair	schlau	spielen	tyrannisch	eitel	tot	faul	schroff	strafen	1	blank2r.bmp	0	1	+	0	1	blank2r.bmp	500	6	C2r.bmp	500	1	blank2r.bmp	880	4	fair	880	1	FEHLER	1734	1	!	1313	1	!	1442	0	0	0
2024-06-19	15:17:58	15:22:29	270359	6.6.1	4_exp_EVA_AWA_CON	91	B	A	Rpleas_acq	Same	Rpleas	2pleas	acq_new_pleas_nomask	acq2_nomask	2	8	480	0	300	300	0	0	738	50	1	0	schön	loyal	lachen	retten	freundlich	helfen	schlecht	lasch	leiden	rächen	fanatisch	hindern	tolerant	ehrlich	treu	fair	schlau	spielen	tyrannisch	eitel	tot	faul	schroff	strafen	1	blank2r.bmp	0	1	+	0	1	blank2r.bmp	500	1	B1r.bmp	500	1	blank2r.bmp	880	2	ehrlich	880	1	!	1312	1	!	-1	0	0	0	0	0	0
2024-06-19	15:17:58	15:22:31	272685	6.6.1	4_exp_EVA_AWA_CON	91	B	A	Rpleas_acq	Same	Rpleas	2pleas	acq_new_unple_nomask	acq2_nomask	2	9	480	0	300	300	0	0	554	46	1	0	schön	loyal	lachen	retten	freundlich	helfen	schlecht	lasch	leiden	rächen	fanatisch	hindern	tolerant	ehrlich	treu	fair	schlau	spielen	tyrannisch	eitel	tot	faul	schroff	strafen	1	blank2r.bmp	0	1	+	0	1	blank2r.bmp	500	3	B3r.bmp	500	1	blank2r.bmp	880	5	schroff	880	1	!	1312	1	!	-1	0	0	0	0	0	0
2024-06-19	15:17:58	15:22:34	275242	6.6.1	4_exp_EVA_AWA_CON	91	B	A	Rpleas_acq	Same	Rpleas	2pleas	acq_new_unple_nomask	acq2_nomask	2	10	480	0	300	300	0	0	575	50	0	0	schön	loyal	lachen	retten	freundlich	helfen	schlecht	lasch	leiden	rächen	fanatisch	hindern	tolerant	ehrlich	treu	fair	schlau	spielen	tyrannisch	eitel	tot	faul	schroff	strafen	1	blank2r.bmp	0	1	+	0	1	blank2r.bmp	500	4	B4r.bmp	500	1	blank2r.bmp	880	1	tyrannisch	880	1	FEHLER	1768	1	!	1312	1	!	-1	0	0	0
2024-06-19	15:17:58	15:22:36	277490	6.6.1	4_exp_EVA_AWA_CON	91	B	A	Rpleas_acq	Same	Rpleas	2pleas	acq_US_pleas_nomask	acq2_nomask	2	11	480	1	300	300	0	0	471	46	0	0	schön	loyal	lachen	retten	freundlich	helfen	schlecht	lasch	leiden	rächen	fanatisch	hindern	tolerant	ehrlich	treu	fair	schlau	spielen	tyrannisch	eitel	tot	faul	schroff	strafen	1	blank2r.bmp	0	1	+	0	1	blank2r.bmp	500	1	GKQX	500	1	blank2r.bmp	880	6	helfen	880	1	FEHLER	1665	1	!	1313	1	!	1373	0	0	0
2024-06-19	15:17:58	15:22:38	279545	6.6.1	4_exp_EVA_AWA_CON	91	B	A	Rpleas_acq	Same	Rpleas	2pleas	acq_US_pleas_nomask	acq2_nomask	2	12	480	1	300	300	0	0	476	50	1	0	schön	loyal	lachen	retten	freundlich	helfen	schlecht	lasch	leiden	rächen	fanatisch	hindern	tolerant	ehrlich	treu	fair	schlau	spielen	tyrannisch	eitel	tot	faul	schroff	strafen	1	blank2r.bmp	0	1	+	0	1	blank2r.bmp	500	1	GKQX	500	1	blank2r.bmp	880	5	freundlich	880	1	!	1312	1	!	1377	0	0	0	0	0	0
2024-06-19	15:17:58	15:22:40	281810	6.6.1	4_exp_EVA_AWA_CON	91	B	A	Rpleas_acq	Same	Rpleas	2pleas	acq_US_pleas_nomask	acq2_nomask	2	13	480	1	300	300	0	0	488	50	1	0	schön	loyal	lachen	retten	freundlich	helfen	schlecht	lasch	leiden	rächen	fanatisch	hindern	tolerant	ehrlich	treu	fair	schlau	spielen	tyrannisch	eitel	tot	faul	schroff	strafen	1	blank2r.bmp	0	1	+	0	1	blank2r.bmp	500	1	GKQX	500	1	blank2r.bmp	880	5	freundlich	880	1	!	1312	1	!	1390	0	0	0	0	0	0
2024-06-19	15:17:58	15:22:43	283991	6.6.1	4_exp_EVA_AWA_CON	91	B	A	Rpleas_acq	Same	Rpleas	2pleas	acq_new_pleas_nomask	acq2_nomask	2	14	480	0	300	300	0	0	401	50	1	0	schön	loyal	lachen	retten	freundlich	helfen	schlecht	lasch	leiden	rächen	fanatisch	hindern	tolerant	ehrlich	treu	fair	schlau	spielen	tyrannisch	eitel	tot	faul	schroff	strafen	1	blank2r.bmp	0	1	+	0	1	blank2r.bmp	500	7	C3r.bmp	500	1	blank2r.bmp	880	2	ehrlich	880	1	!	-1	1	!	-1	0	0	0	0	0	0
2024-06-19	15:17:58	15:22:45	286359	6.6.1	4_exp_EVA_AWA_CON	91	B	A	Rpleas_acq	Same	Rpleas	2pleas	acq_new_unple_nomask	acq2_nomask	2	15	480	0	300	300	0	0	587	46	1	0	schön	loyal	lachen	retten	freundlich	helfen	schlecht	lasch	leiden	rächen	fanatisch	hindern	tolerant	ehrlich	treu	fair	schlau	spielen	tyrannisch	eitel	tot	faul	schroff	strafen	1	blank2r.bmp	0	1	+	0	1	blank2r.bmp	500	8	C4r.bmp	500	1	blank2r.bmp	880	4	faul	880	1	!	1313	1	!	-1	0	0	0	0	0	0
2024-06-19	15:17:58	15:22:47	288681	6.6.1	4_exp_EVA_AWA_CON	91	B	A	Rpleas_acq	Same	Rpleas	2pleas	acq_new_unple_nomask	acq2_nomask	2	16	480	1	300	300	0	0	546	46	1	0	schön	loyal	lachen	retten	freundlich	helfen	schlecht	lasch	leiden	rächen	fanatisch	hindern	tolerant	ehrlich	treu	fair	schlau	spielen	tyrannisch	eitel	tot	faul	schroff	strafen	1	blank2r.bmp	0	1	+	0	1	blank2r.bmp	500	1	B1r.bmp	500	1	blank2r.bmp	880	1	tyrannisch	880	1	!	1313	1	!	1448	0	0	0	0	0	0
2024-06-19	15:17:58	15:22:50	290969	6.6.1	4_exp_EVA_AWA_CON	91	B	A	Rpleas_acq	Same	Rpleas	2pleas	acq_US_pleas_nomask	acq2_nomask	2	17	480	1	300	300	0	0	512	50	1	0	schön	loyal	lachen	retten	freundlich	helfen	schlecht	lasch	leiden	rächen	fanatisch	hindern	tolerant	ehrlich	treu	fair	schlau	spielen	tyrannisch	eitel	tot	faul	schroff	strafen	1	blank2r.bmp	0	1	+	0	1	blank2r.bmp	500	1	GKQX	500	1	blank2r.bmp	880	1	schön	880	1	!	1313	1	!	1414	0	0	0	0	0	0
2024-06-19	15:17:58	15:22:52	293297	6.6.1	4_exp_EVA_AWA_CON	91	B	A	Rpleas_acq	Same	Rpleas	2pleas	acq_US_unple_nomask	acq2_nomask	2	18	480	1	300	300	0	0	549	46	1	0	schön	loyal	lachen	retten	freundlich	helfen	schlecht	lasch	leiden	rächen	fanatisch	hindern	tolerant	ehrlich	treu	fair	schlau	spielen	tyrannisch	eitel	tot	faul	schroff	strafen	1	blank2r.bmp	0	1	+	0	1	blank2r.bmp	500	1	BMVZ	500	1	blank2r.bmp	880	2	lasch	880	1	!	1313	1	!	1451	0	0	0	0	0	0
2024-06-19	15:17:58	15:22:54	295553	6.6.1	4_exp_EVA_AWA_CON	91	B	A	Rpleas_acq	Same	Rpleas	2pleas	acq_US_unple_nomask	acq2_nomask	2	19	480	1	300	300	0	0	474	46	1	0	schön	loyal	lachen	retten	freundlich	helfen	schlecht	lasch	leiden	rächen	fanatisch	hindern	tolerant	ehrlich	treu	fair	schlau	spielen	tyrannisch	eitel	tot	faul	schroff	strafen	1	blank2r.bmp	0	1	+	0	1	blank2r.bmp	500	1	BMVZ	500	1	blank2r.bmp	880	1	schlecht	880	1	!	1313	1	!	1375	0	0	0	0	0	0
2024-06-19	15:17:58	15:22:57	297881	6.6.1	4_exp_EVA_AWA_CON	91	B	A	Rpleas_acq	Same	Rpleas	2pleas	acq_US_unple_nomask	acq2_nomask	2	20	480	1	300	300	0	0	550	46	1	0	schön	loyal	lachen	retten	freundlich	helfen	schlecht	lasch	leiden	rächen	fanatisch	hindern	tolerant	ehrlich	treu	fair	schlau	spielen	tyrannisch	eitel	tot	faul	schroff	strafen	1	blank2r.bmp	0	1	+	0	1	blank2r.bmp	500	1	BMVZ	500	1	blank2r.bmp	880	6	hindern	880	1	!	1313	1	!	1452	0	0	0	0	0	0
2024-06-19	15:17:58	15:22:59	300113	6.6.1	4_exp_EVA_AWA_CON	91	B	A	Rpleas_acq	Same	Rpleas	2pleas	acq_new_unple_nomask	acq2_nomask	2	21	480	1	300	300	0	0	450	46	1	0	schön	loyal	lachen	retten	freundlich	helfen	schlecht	lasch	leiden	rächen	fanatisch	hindern	tolerant	ehrlich	treu	fair	schlau	spielen	tyrannisch	eitel	tot	faul	schroff	strafen	1	blank2r.bmp	0	1	+	0	1	blank2r.bmp	500	6	C2r.bmp	500	1	blank2r.bmp	880	3	tot	880	1	!	1313	1	!	1353	0	0	0	0	0	0
2024-06-19	15:17:58	15:23:01	302321	6.6.1	4_exp_EVA_AWA_CON	91	B	A	Rpleas_acq	Same	Rpleas	2pleas	acq_new_pleas_nomask	acq2_nomask	2	22	480	1	300	300	0	0	427	50	1	0	schön	loyal	lachen	retten	freundlich	helfen	schlecht	lasch	leiden	rächen	fanatisch	hindern	tolerant	ehrlich	treu	fair	schlau	spielen	tyrannisch	eitel	tot	faul	schroff	strafen	1	blank2r.bmp	0	1	+	0	1	blank2r.bmp	500	5	C1r.bmp	500	1	blank2r.bmp	880	4	fair	880	1	!	1312	1	!	1329	0	0	0	0	0	0
2024-06-19	15:17:58	15:23:03	304754	6.6.1	4_exp_EVA_AWA_CON	91	B	A	Rpleas_acq	Same	Rpleas	2pleas	acq_new_pleas_nomask	acq2_nomask	2	23	480	1	300	300	0	0	458	46	0	0	schön	loyal	lachen	retten	freundlich	helfen	schlecht	lasch	leiden	rächen	fanatisch	hindern	tolerant	ehrlich	treu	fair	schlau	spielen	tyrannisch	eitel	tot	faul	schroff	strafen	1	blank2r.bmp	0	1	+	0	1	blank2r.bmp	500	4	B4r.bmp	500	1	blank2r.bmp	880	1	tolerant	880	1	FEHLER	1651	1	!	1313	1	!	1359	0	0	0
2024-06-19	15:17:58	15:23:05	306801	6.6.1	4_exp_EVA_AWA_CON	91	B	A	Rpleas_acq	Same	Rpleas	2pleas	acq_US_pleas_nomask	acq2_nomask	2	24	480	1	300	300	0	0	464	50	1	0	schön	loyal	lachen	retten	freundlich	helfen	schlecht	lasch	leiden	rächen	fanatisch	hindern	tolerant	ehrlich	treu	fair	schlau	spielen	tyrannisch	eitel	tot	faul	schroff	strafen	1	blank2r.bmp	0	1	+	0	1	blank2r.bmp	500	1	GKQX	500	1	blank2r.bmp	880	4	retten	880	1	!	1313	1	!	1366	0	0	0	0	0	0
2024-06-19	15:17:58	15:23:08	309017	6.6.1	4_exp_EVA_AWA_CON	91	B	A	Rpleas_acq	Same	Rpleas	2pleas	acq_US_pleas_nomask	acq2_nomask	2	25	480	1	300	300	0	0	439	50	1	0	schön	loyal	lachen	retten	freundlich	helfen	schlecht	lasch	leiden	rächen	fanatisch	hindern	tolerant	ehrlich	treu	fair	schlau	spielen	tyrannisch	eitel	tot	faul	schroff	strafen	1	blank2r.bmp	0	1	+	0	1	blank2r.bmp	500	1	GKQX	500	1	blank2r.bmp	880	6	helfen	880	1	!	1312	1	!	1340	0	0	0	0	0	0
2024-06-19	15:17:58	15:23:10	311466	6.6.1	4_exp_EVA_AWA_CON	91	B	A	Rpleas_acq	Same	Rpleas	2pleas	acq_new_unple_nomask	acq2_nomask	2	26	480	1	300	300	0	0	465	50	0	0	schön	loyal	lachen	retten	freundlich	helfen	schlecht	lasch	leiden	rächen	fanatisch	hindern	tolerant	ehrlich	treu	fair	schlau	spielen	tyrannisch	eitel	tot	faul	schroff	strafen	1	blank2r.bmp	0	1	+	0	1	blank2r.bmp	500	3	B3r.bmp	500	1	blank2r.bmp	880	2	eitel	880	1	FEHLER	1659	1	!	1312	1	!	1367	0	0	0
2024-06-19	15:17:58	15:23:12	313711	6.6.1	4_exp_EVA_AWA_CON	91	B	A	Rpleas_acq	Same	Rpleas	2pleas	acq_US_unple_nomask	acq2_nomask	2	27	480	0	300	300	0	0	672	46	1	0	schön	loyal	lachen	retten	freundlich	helfen	schlecht	lasch	leiden	rächen	fanatisch	hindern	tolerant	ehrlich	treu	fair	schlau	spielen	tyrannisch	eitel	tot	faul	schroff	strafen	1	blank2r.bmp	0	1	+	0	1	blank2r.bmp	500	1	BMVZ	500	1	blank2r.bmp	880	4	rächen	880	1	!	1313	1	!	-1	0	0	0	0	0	0
2024-06-19	15:17:58	15:23:15	316248	6.6.1	4_exp_EVA_AWA_CON	91	B	A	Rpleas_acq	Same	Rpleas	2pleas	acq_US_unple_nomask	acq2_nomask	2	28	480	0	300	300	0	0	556	50	0	0	schön	loyal	lachen	retten	freundlich	helfen	schlecht	lasch	leiden	rächen	fanatisch	hindern	tolerant	ehrlich	treu	fair	schlau	spielen	tyrannisch	eitel	tot	faul	schroff	strafen	1	blank2r.bmp	0	1	+	0	1	blank2r.bmp	500	1	BMVZ	500	1	blank2r.bmp	880	5	fanatisch	880	1	FEHLER	1748	1	!	1313	1	!	-1	0	0	0
2024-06-19	15:17:58	15:23:17	318399	6.6.1	4_exp_EVA_AWA_CON	91	B	A	Rpleas_acq	Same	Rpleas	2pleas	acq_US_pleas_nomask	acq2_nomask	2	29	480	0	300	300	0	0	577	50	1	0	schön	loyal	lachen	retten	freundlich	helfen	schlecht	lasch	leiden	rächen	fanatisch	hindern	tolerant	ehrlich	treu	fair	schlau	spielen	tyrannisch	eitel	tot	faul	schroff	strafen	1	blank2r.bmp	0	1	+	0	1	blank2r.bmp	500	1	GKQX	500	1	blank2r.bmp	880	3	lachen	880	1	!	1312	1	!	-1	0	0	0	0	0	0
2024-06-19	15:17:58	15:23:19	320835	6.6.1	4_exp_EVA_AWA_CON	91	B	A	Rpleas_acq	Same	Rpleas	2pleas	acq_new_pleas_nomask	acq2_nomask	2	30	480	1	300	300	0	0	457	46	0	0	schön	loyal	lachen	retten	freundlich	helfen	schlecht	lasch	leiden	rächen	fanatisch	hindern	tolerant	ehrlich	treu	fair	schlau	spielen	tyrannisch	eitel	tot	faul	schroff	strafen	1	blank2r.bmp	0	1	+	0	1	blank2r.bmp	500	2	B2r.bmp	500	1	blank2r.bmp	880	5	schlau	880	1	FEHLER	1651	1	!	1313	1	!	1359	0	0	0
2024-06-19	15:17:58	15:23:22	322873	6.6.1	4_exp_EVA_AWA_CON	91	B	A	Rpleas_acq	Same	Rpleas	2pleas	acq_new_unple_nomask	acq2_nomask	2	31	480	1	300	300	0	0	456	46	1	0	schön	loyal	lachen	retten	freundlich	helfen	schlecht	lasch	leiden	rächen	fanatisch	hindern	tolerant	ehrlich	treu	fair	schlau	spielen	tyrannisch	eitel	tot	faul	schroff	strafen	1	blank2r.bmp	0	1	+	0	1	blank2r.bmp	500	8	C4r.bmp	500	1	blank2r.bmp	880	6	strafen	880	1	!	1312	1	!	1358	0	0	0	0	0	0
2024-06-19	15:17:58	15:23:24	325327	6.6.1	4_exp_EVA_AWA_CON	91	B	A	Rpleas_acq	Same	Rpleas	2pleas	acq_US_unple_nomask	acq2_nomask	2	32	480	0	300	300	0	0	680	46	1	0	schön	loyal	lachen	retten	freundlich	helfen	schlecht	lasch	leiden	rächen	fanatisch	hindern	tolerant	ehrlich	treu	fair	schlau	spielen	tyrannisch	eitel	tot	faul	schroff	strafen	1	blank2r.bmp	0	1	+	0	1	blank2r.bmp	500	1	BMVZ	500	1	blank2r.bmp	880	3	leiden	880	1	!	1312	1	!	-1	0	0	0	0	0	0
2024-06-19	15:17:58	15:23:26	327601	6.6.1	4_exp_EVA_AWA_CON	91	B	A	Rpleas_acq	Same	Rpleas	2pleas	acq_new_unple_nomask	acq2_nomask	2	33	480	1	300	300	0	0	491	46	1	0	schön	loyal	lachen	retten	freundlich	helfen	schlecht	lasch	leiden	rächen	fanatisch	hindern	tolerant	ehrlich	treu	fair	schlau	spielen	tyrannisch	eitel	tot	faul	schroff	strafen	1	blank2r.bmp	0	1	+	0	1	blank2r.bmp	500	5	C1r.bmp	500	1	blank2r.bmp	880	5	schroff	880	1	!	1312	1	!	1393	0	0	0	0	0	0
2024-06-19	15:17:58	15:23:28	329857	6.6.1	4_exp_EVA_AWA_CON	91	B	A	Rpleas_acq	Same	Rpleas	2pleas	acq_new_pleas_nomask	acq2_nomask	2	34	480	1	300	300	0	0	475	50	1	0	schön	loyal	lachen	retten	freundlich	helfen	schlecht	lasch	leiden	rächen	fanatisch	hindern	tolerant	ehrlich	treu	fair	schlau	spielen	tyrannisch	eitel	tot	faul	schroff	strafen	1	blank2r.bmp	0	1	+	0	1	blank2r.bmp	500	3	B3r.bmp	500	1	blank2r.bmp	880	6	spielen	880	1	!	1312	1	!	1377	0	0	0	0	0	0
2024-06-19	15:17:58	15:23:31	332122	6.6.1	4_exp_EVA_AWA_CON	91	B	A	Rpleas_acq	Same	Rpleas	2pleas	acq_new_pleas_nomask	acq2_nomask	2	35	480	1	300	300	0	0	488	50	1	0	schön	loyal	lachen	retten	freundlich	helfen	schlecht	lasch	leiden	rächen	fanatisch	hindern	tolerant	ehrlich	treu	fair	schlau	spielen	tyrannisch	eitel	tot	faul	schroff	strafen	1	blank2r.bmp	0	1	+	0	1	blank2r.bmp	500	1	B1r.bmp	500	1	blank2r.bmp	880	3	treu	880	1	!	1312	1	!	1390	0	0	0	0	0	0
2024-06-19	15:17:58	15:23:33	334401	6.6.1	4_exp_EVA_AWA_CON	91	B	A	Rpleas_acq	Same	Rpleas	2pleas	acq_US_pleas_nomask	acq2_nomask	2	36	480	1	300	300	0	0	497	50	1	0	schön	loyal	lachen	retten	freundlich	helfen	schlecht	lasch	leiden	rächen	fanatisch	hindern	tolerant	ehrlich	treu	fair	schlau	spielen	tyrannisch	eitel	tot	faul	schroff	strafen	1	blank2r.bmp	0	1	+	0	1	blank2r.bmp	500	1	GKQX	500	1	blank2r.bmp	880	2	loyal	880	1	!	1313	1	!	1398	0	0	0	0	0	0
2024-06-19	15:17:58	15:23:52	353536	6.6.1	4_exp_EVA_AWA_CON	91	B	A	Rpleas_acq	Same	Rpleas	2pleas	acq_US_pleas_nomask	acq3_nomask	3	1	453	0	300	300	0	0	570	50	1	0	schön	loyal	lachen	retten	freundlich	helfen	schlecht	lasch	leiden	rächen	fanatisch	hindern	tolerant	ehrlich	treu	fair	schlau	spielen	tyrannisch	eitel	tot	faul	schroff	strafen	1	blank2r.bmp	0	1	+	0	1	blank2r.bmp	500	1	GKQX	500	1	blank2r.bmp	880	6	helfen	880	1	!	1292	1	!	-1	0	0	0	0	0	0
2024-06-19	15:17:58	15:23:54	355793	6.6.1	4_exp_EVA_AWA_CON	91	B	A	Rpleas_acq	Same	Rpleas	2pleas	acq_US_unple_nomask	acq3_nomask	3	2	453	1	300	300	0	0	475	46	1	0	schön	loyal	lachen	retten	freundlich	helfen	schlecht	lasch	leiden	rächen	fanatisch	hindern	tolerant	ehrlich	treu	fair	schlau	spielen	tyrannisch	eitel	tot	faul	schroff	strafen	1	blank2r.bmp	0	1	+	0	1	blank2r.bmp	500	1	BMVZ	500	1	blank2r.bmp	880	4	rächen	880	1	!	1292	1	!	1376	0	0	0	0	0	0
2024-06-19	15:17:58	15:23:57	357977	6.6.1	4_exp_EVA_AWA_CON	91	B	A	Rpleas_acq	Same	Rpleas	2pleas	acq_US_unple_nomask	acq3_nomask	3	3	453	1	300	300	0	0	407	46	1	0	schön	loyal	lachen	retten	freundlich	helfen	schlecht	lasch	leiden	rächen	fanatisch	hindern	tolerant	ehrlich	treu	fair	schlau	spielen	tyrannisch	eitel	tot	faul	schroff	strafen	1	blank2r.bmp	0	1	+	0	1	blank2r.bmp	500	1	BMVZ	500	1	blank2r.bmp	880	3	leiden	880	1	!	1292	1	!	1309	0	0	0	0	0	0
2024-06-19	15:17:58	15:23:59	360177	6.6.1	4_exp_EVA_AWA_CON	91	B	A	Rpleas_acq	Same	Rpleas	2pleas	acq_US_pleas_nomask	acq3_nomask	3	4	453	1	300	300	0	0	426	50	1	0	schön	loyal	lachen	retten	freundlich	helfen	schlecht	lasch	leiden	rächen	fanatisch	hindern	tolerant	ehrlich	treu	fair	schlau	spielen	tyrannisch	eitel	tot	faul	schroff	strafen	1	blank2r.bmp	0	1	+	0	1	blank2r.bmp	500	1	GKQX	500	1	blank2r.bmp	880	4	retten	880	1	!	1292	1	!	1327	0	0	0	0	0	0
2024-06-19	15:17:58	15:24:01	362433	6.6.1	4_exp_EVA_AWA_CON	91	B	A	Rpleas_acq	Same	Rpleas	2pleas	acq_US_pleas_nomask	acq3_nomask	3	5	453	1	300	300	0	0	481	50	1	0	schön	loyal	lachen	retten	freundlich	helfen	schlecht	lasch	leiden	rächen	fanatisch	hindern	tolerant	ehrlich	treu	fair	schlau	spielen	tyrannisch	eitel	tot	faul	schroff	strafen	1	blank2r.bmp	0	1	+	0	1	blank2r.bmp	500	1	GKQX	500	1	blank2r.bmp	880	5	freundlich	880	1	!	1292	1	!	1383	0	0	0	0	0	0
2024-06-19	15:17:58	15:24:03	364599	6.6.1	4_exp_EVA_AWA_CON	91	B	A	Rpleas_acq	Same	Rpleas	2pleas	acq_US_pleas_nomask	acq3_nomask	3	6	453	0	300	300	0	0	387	50	1	0	schön	loyal	lachen	retten	freundlich	helfen	schlecht	lasch	leiden	rächen	fanatisch	hindern	tolerant	ehrlich	treu	fair	schlau	spielen	tyrannisch	eitel	tot	faul	schroff	strafen	1	blank2r.bmp	0	1	+	0	1	blank2r.bmp	500	1	GKQX	500	1	blank2r.bmp	880	1	schön	880	1	!	-1	1	!	-1	0	0	0	0	0	0
2024-06-19	15:17:58	15:24:05	366841	6.6.1	4_exp_EVA_AWA_CON	91	B	A	Rpleas_acq	Same	Rpleas	2pleas	acq_US_pleas_nomask	acq3_nomask	3	7	453	1	300	300	0	0	466	50	1	0	schön	loyal	lachen	retten	freundlich	helfen	schlecht	lasch	leiden	rächen	fanatisch	hindern	tolerant	ehrlich	treu	fair	schlau	spielen	tyrannisch	eitel	tot	faul	schroff	strafen	1	blank2r.bmp	0	1	+	0	1	blank2r.bmp	500	1	GKQX	500	1	blank2r.bmp	880	3	lachen	880	1	!	1292	1	!	1367	0	0	0	0	0	0
2024-06-19	15:17:58	15:24:08	369183	6.6.1	4_exp_EVA_AWA_CON	91	B	A	Rpleas_acq	Same	Rpleas	2pleas	acq_US_pleas_nomask	acq3_nomask	3	8	453	0	300	300	0	0	568	50	1	0	schön	loyal	lachen	retten	freundlich	helfen	schlecht	lasch	leiden	rächen	fanatisch	hindern	tolerant	ehrlich	treu	fair	schlau	spielen	tyrannisch	eitel	tot	faul	schroff	strafen	1	blank2r.bmp	0	1	+	0	1	blank2r.bmp	500	1	GKQX	500	1	blank2r.bmp	880	2	loyal	880	1	!	1292	1	!	-1	0	0	0	0	0	0
2024-06-19	15:17:58	15:24:10	371409	6.6.1	4_exp_EVA_AWA_CON	91	B	A	Rpleas_acq	Same	Rpleas	2pleas	acq_US_unple_nomask	acq3_nomask	3	9	453	1	300	300	0	0	451	46	1	0	schön	loyal	lachen	retten	freundlich	helfen	schlecht	lasch	leiden	rächen	fanatisch	hindern	tolerant	ehrlich	treu	fair	schlau	spielen	tyrannisch	eitel	tot	faul	schroff	strafen	1	blank2r.bmp	0	1	+	0	1	blank2r.bmp	500	1	BMVZ	500	1	blank2r.bmp	880	6	hindern	880	1	!	1292	1	!	1353	0	0	0	0	0	0
2024-06-19	15:17:58	15:24:12	373705	6.6.1	4_exp_EVA_AWA_CON	91	B	A	Rpleas_acq	Same	Rpleas	2pleas	acq_US_unple_nomask	acq3_nomask	3	10	453	1	300	300	0	0	515	46	1	0	schön	loyal	lachen	retten	freundlich	helfen	schlecht	lasch	leiden	rächen	fanatisch	hindern	tolerant	ehrlich	treu	fair	schlau	spielen	tyrannisch	eitel	tot	faul	schroff	strafen	1	blank2r.bmp	0	1	+	0	1	blank2r.bmp	500	1	BMVZ	500	1	blank2r.bmp	880	2	lasch	880	1	!	1292	1	!	1417	0	0	0	0	0	0
2024-06-19	15:17:58	15:24:15	376031	6.6.1	4_exp_EVA_AWA_CON	91	B	A	Rpleas_acq	Same	Rpleas	2pleas	acq_US_unple_nomask	acq3_nomask	3	11	453	0	300	300	0	0	552	46	1	0	schön	loyal	lachen	retten	freundlich	helfen	schlecht	lasch	leiden	rächen	fanatisch	hindern	tolerant	ehrlich	treu	fair	schlau	spielen	tyrannisch	eitel	tot	faul	schroff	strafen	1	blank2r.bmp	0	1	+	0	1	blank2r.bmp	500	1	BMVZ	500	1	blank2r.bmp	880	5	fanatisch	880	1	!	1292	1	!	-1	0	0	0	0	0	0
2024-06-19	15:17:58	15:24:17	378289	6.6.1	4_exp_EVA_AWA_CON	91	B	A	Rpleas_acq	Same	Rpleas	2pleas	acq_US_unple_nomask	acq3_nomask	3	12	453	1	300	300	0	0	476	46	1	0	schön	loyal	lachen	retten	freundlich	helfen	schlecht	lasch	leiden	rächen	fanatisch	hindern	tolerant	ehrlich	treu	fair	schlau	spielen	tyrannisch	eitel	tot	faul	schroff	strafen	1	blank2r.bmp	0	1	+	0	1	blank2r.bmp	500	1	BMVZ	500	1	blank2r.bmp	880	1	schlecht	880	1	!	1292	1	!	1378	0	0	0	0	0	0
2024-06-19	15:17:58	15:24:19	380537	6.6.1	4_exp_EVA_AWA_CON	91	B	A	Rpleas_acq	Same	Rpleas	2pleas	acq_US_unple_nomask	acq3_nomask	3	13	453	1	300	300	0	0	473	46	1	0	schön	loyal	lachen	retten	freundlich	helfen	schlecht	lasch	leiden	rächen	fanatisch	hindern	tolerant	ehrlich	treu	fair	schlau	spielen	tyrannisch	eitel	tot	faul	schroff	strafen	1	blank2r.bmp	0	1	+	0	1	blank2r.bmp	500	1	BMVZ	500	1	blank2r.bmp	880	2	lasch	880	1	!	1293	1	!	1375	0	0	0	0	0	0
2024-06-19	15:17:58	15:24:21	382711	6.6.1	4_exp_EVA_AWA_CON	91	B	A	Rpleas_acq	Same	Rpleas	2pleas	acq_US_unple_nomask	acq3_nomask	3	14	453	1	300	300	0	0	398	46	1	0	schön	loyal	lachen	retten	freundlich	helfen	schlecht	lasch	leiden	rächen	fanatisch	hindern	tolerant	ehrlich	treu	fair	schlau	spielen	tyrannisch	eitel	tot	faul	schroff	strafen	1	blank2r.bmp	0	1	+	0	1	blank2r.bmp	500	1	BMVZ	500	1	blank2r.bmp	880	1	schlecht	880	1	!	1292	1	!	1297	0	0	0	0	0	0
2024-06-19	15:17:58	15:24:24	384977	6.6.1	4_exp_EVA_AWA_CON	91	B	A	Rpleas_acq	Same	Rpleas	2pleas	acq_US_unple_nomask	acq3_nomask	3	15	453	1	300	300	0	0	490	46	1	0	schön	loyal	lachen	retten	freundlich	helfen	schlecht	lasch	leiden	rächen	fanatisch	hindern	tolerant	ehrlich	treu	fair	schlau	spielen	tyrannisch	eitel	tot	faul	schroff	strafen	1	blank2r.bmp	0	1	+	0	1	blank2r.bmp	500	1	BMVZ	500	1	blank2r.bmp	880	5	fanatisch	880	1	!	1292	1	!	1392	0	0	0	0	0	0
2024-06-19	15:17:58	15:24:26	387177	6.6.1	4_exp_EVA_AWA_CON	91	B	A	Rpleas_acq	Same	Rpleas	2pleas	acq_US_unple_nomask	acq3_nomask	3	16	453	1	300	300	0	0	419	46	1	0	schön	loyal	lachen	retten	freundlich	helfen	schlecht	lasch	leiden	rächen	fanatisch	hindern	tolerant	ehrlich	treu	fair	schlau	spielen	tyrannisch	eitel	tot	faul	schroff	strafen	1	blank2r.bmp	0	1	+	0	1	blank2r.bmp	500	1	BMVZ	500	1	blank2r.bmp	880	4	rächen	880	1	!	1293	1	!	1320	0	0	0	0	0	0
2024-06-19	15:17:58	15:24:28	389666	6.6.1	4_exp_EVA_AWA_CON	91	B	A	Rpleas_acq	Same	Rpleas	2pleas	acq_US_pleas_nomask	acq3_nomask	3	17	453	1	300	300	0	0	505	46	0	0	schön	loyal	lachen	retten	freundlich	helfen	schlecht	lasch	leiden	rächen	fanatisch	hindern	tolerant	ehrlich	treu	fair	schlau	spielen	tyrannisch	eitel	tot	faul	schroff	strafen	1	blank2r.bmp	0	1	+	0	1	blank2r.bmp	500	1	GKQX	500	1	blank2r.bmp	880	5	freundlich	880	1	FEHLER	1699	1	!	1292	1	!	1407	0	0	0
2024-06-19	15:17:58	15:24:30	391753	6.6.1	4_exp_EVA_AWA_CON	91	B	A	Rpleas_acq	Same	Rpleas	2pleas	acq_US_unple_nomask	acq3_nomask	3	18	453	1	300	300	0	0	512	46	1	0	schön	loyal	lachen	retten	freundlich	helfen	schlecht	lasch	leiden	rächen	fanatisch	hindern	tolerant	ehrlich	treu	fair	schlau	spielen	tyrannisch	eitel	tot	faul	schroff	strafen	1	blank2r.bmp	0	1	+	0	1	blank2r.bmp	500	1	BMVZ	500	1	blank2r.bmp	880	3	leiden	880	1	!	1292	1	!	1413	0	0	0	0	0	0
2024-06-19	15:17:58	15:24:33	394128	6.6.1	4_exp_EVA_AWA_CON	91	B	A	Rpleas_acq	Same	Rpleas	2pleas	acq_US_pleas_nomask	acq3_nomask	3	19	453	1	300	300	0	0	396	46	0	0	schön	loyal	lachen	retten	freundlich	helfen	schlecht	lasch	leiden	rächen	fanatisch	hindern	tolerant	ehrlich	treu	fair	schlau	spielen	tyrannisch	eitel	tot	faul	schroff	strafen	1	blank2r.bmp	0	1	+	0	1	blank2r.bmp	500	1	GKQX	500	1	blank2r.bmp	880	6	helfen	880	1	FEHLER	1588	1	!	1292	1	!	1296	0	0	0
2024-06-19	15:17:58	15:24:35	396137	6.6.1	4_exp_EVA_AWA_CON	91	B	A	Rpleas_acq	Same	Rpleas	2pleas	acq_US_pleas_nomask	acq3_nomask	3	20	453	1	300	300	0	0	433	50	1	0	schön	loyal	lachen	retten	freundlich	helfen	schlecht	lasch	leiden	rächen	fanatisch	hindern	tolerant	ehrlich	treu	fair	schlau	spielen	tyrannisch	eitel	tot	faul	schroff	strafen	1	blank2r.bmp	0	1	+	0	1	blank2r.bmp	500	1	GKQX	500	1	blank2r.bmp	880	1	schön	880	1	!	1293	1	!	1335	0	0	0	0	0	0
2024-06-19	15:17:58	15:24:37	398409	6.6.1	4_exp_EVA_AWA_CON	91	B	A	Rpleas_acq	Same	Rpleas	2pleas	acq_US_unple_nomask	acq3_nomask	3	21	453	1	300	300	0	0	494	46	1	0	schön	loyal	lachen	retten	freundlich	helfen	schlecht	lasch	leiden	rächen	fanatisch	hindern	tolerant	ehrlich	treu	fair	schlau	spielen	tyrannisch	eitel	tot	faul	schroff	strafen	1	blank2r.bmp	0	1	+	0	1	blank2r.bmp	500	1	BMVZ	500	1	blank2r.bmp	880	6	hindern	880	1	!	1293	1	!	1395	0	0	0	0	0	0
2024-06-19	15:17:58	15:24:40	400993	6.6.1	4_exp_EVA_AWA_CON	91	B	A	Rpleas_acq	Same	Rpleas	2pleas	acq_US_pleas_nomask	acq3_nomask	3	22	453	0	300	300	0	0	606	46	0	0	schön	loyal	lachen	retten	freundlich	helfen	schlecht	lasch	leiden	rächen	fanatisch	hindern	tolerant	ehrlich	treu	fair	schlau	spielen	tyrannisch	eitel	tot	faul	schroff	strafen	1	blank2r.bmp	0	1	+	0	1	blank2r.bmp	500	1	GKQX	500	1	blank2r.bmp	880	4	retten	880	1	FEHLER	1799	1	!	1293	1	!	-1	0	0	0
2024-06-19	15:17:58	15:24:42	403135	6.6.1	4_exp_EVA_AWA_CON	91	B	A	Rpleas_acq	Same	Rpleas	2pleas	acq_US_pleas_nomask	acq3_nomask	3	23	453	0	300	300	0	0	568	50	1	0	schön	loyal	lachen	retten	freundlich	helfen	schlecht	lasch	leiden	rächen	fanatisch	hindern	tolerant	ehrlich	treu	fair	schlau	spielen	tyrannisch	eitel	tot	faul	schroff	strafen	1	blank2r.bmp	0	1	+	0	1	blank2r.bmp	500	1	GKQX	500	1	blank2r.bmp	880	2	loyal	880	1	!	1292	1	!	-1	0	0	0	0	0	0
2024-06-19	15:17:58	15:24:44	405429	6.6.1	4_exp_EVA_AWA_CON	91	B	A	Rpleas_acq	Same	Rpleas	2pleas	acq_US_pleas_nomask	acq3_nomask	3	24	453	0	300	300	0	0	523	50	1	0	schön	loyal	lachen	retten	freundlich	helfen	schlecht	lasch	leiden	rächen	fanatisch	hindern	tolerant	ehrlich	treu	fair	schlau	spielen	tyrannisch	eitel	tot	faul	schroff	strafen	1	blank2r.bmp	0	1	+	0	1	blank2r.bmp	500	1	GKQX	500	1	blank2r.bmp	880	3	lachen	880	1	!	1293	1	!	-1	0	0	0	0	0	0
2024-06-19	15:17:58	15:24:46	407743	6.6.1	4_exp_EVA_AWA_CON	91	B	A	Rpleas_acq	Same	Rpleas	2pleas	acq_US_unple_nomask	acq3_nomask	3	25	453	0	300	300	0	0	533	46	1	0	schön	loyal	lachen	retten	freundlich	helfen	schlecht	lasch	leiden	rächen	fanatisch	hindern	tolerant	ehrlich	treu	fair	schlau	spielen	tyrannisch	eitel	tot	faul	schroff	strafen	1	blank2r.bmp	0	1	+	0	1	blank2r.bmp	500	1	BMVZ	500	1	blank2r.bmp	880	2	lasch	880	1	!	1292	1	!	-1	0	0	0	0	0	0
2024-06-19	15:17:58	15:24:49	409977	6.6.1	4_exp_EVA_AWA_CON	91	B	A	Rpleas_acq	Same	Rpleas	2pleas	acq_US_pleas_nomask	acq3_nomask	3	26	453	1	300	300	0	0	454	50	1	0	schön	loyal	lachen	retten	freundlich	helfen	schlecht	lasch	leiden	rächen	fanatisch	hindern	tolerant	ehrlich	treu	fair	schlau	spielen	tyrannisch	eitel	tot	faul	schroff	strafen	1	blank2r.bmp	0	1	+	0	1	blank2r.bmp	500	1	GKQX	500	1	blank2r.bmp	880	1	schön	880	1	!	1292	1	!	1356	0	0	0	0	0	0
2024-06-19	15:17:58	15:24:51	412209	6.6.1	4_exp_EVA_AWA_CON	91	B	A	Rpleas_acq	Same	Rpleas	2pleas	acq_US_unple_nomask	acq3_nomask	3	27	453	1	300	300	0	0	455	46	1	0	schön	loyal	lachen	retten	freundlich	helfen	schlecht	lasch	leiden	rächen	fanatisch	hindern	tolerant	ehrlich	treu	fair	schlau	spielen	tyrannisch	eitel	tot	faul	schroff	strafen	1	blank2r.bmp	0	1	+	0	1	blank2r.bmp	500	1	BMVZ	500	1	blank2r.bmp	880	1	schlecht	880	1	!	1293	1	!	1356	0	0	0	0	0	0
2024-06-19	15:17:58	15:24:53	414567	6.6.1	4_exp_EVA_AWA_CON	91	B	A	Rpleas_acq	Same	Rpleas	2pleas	acq_US_unple_nomask	acq3_nomask	3	28	453	0	300	300	0	0	583	46	1	0	schön	loyal	lachen	retten	freundlich	helfen	schlecht	lasch	leiden	rächen	fanatisch	hindern	tolerant	ehrlich	treu	fair	schlau	spielen	tyrannisch	eitel	tot	faul	schroff	strafen	1	blank2r.bmp	0	1	+	0	1	blank2r.bmp	500	1	BMVZ	500	1	blank2r.bmp	880	4	rächen	880	1	!	1293	1	!	-1	0	0	0	0	0	0
2024-06-19	15:17:58	15:24:55	416736	6.6.1	4_exp_EVA_AWA_CON	91	B	A	Rpleas_acq	Same	Rpleas	2pleas	acq_US_unple_nomask	acq3_nomask	3	29	453	0	300	300	0	0	390	46	1	0	schön	loyal	lachen	retten	freundlich	helfen	schlecht	lasch	leiden	rächen	fanatisch	hindern	tolerant	ehrlich	treu	fair	schlau	spielen	tyrannisch	eitel	tot	faul	schroff	strafen	1	blank2r.bmp	0	1	+	0	1	blank2r.bmp	500	1	BMVZ	500	1	blank2r.bmp	880	3	leiden	880	1	!	-1	1	!	-1	0	0	0	0	0	0
2024-06-19	15:17:58	15:24:58	419095	6.6.1	4_exp_EVA_AWA_CON	91	B	A	Rpleas_acq	Same	Rpleas	2pleas	acq_US_unple_nomask	acq3_nomask	3	30	453	0	300	300	0	0	578	46	1	0	schön	loyal	lachen	retten	freundlich	helfen	schlecht	lasch	leiden	rächen	fanatisch	hindern	tolerant	ehrlich	treu	fair	schlau	spielen	tyrannisch	eitel	tot	faul	schroff	strafen	1	blank2r.bmp	0	1	+	0	1	blank2r.bmp	500	1	BMVZ	500	1	blank2r.bmp	880	5	fanatisch	880	1	!	1292	1	!	-1	0	0	0	0	0	0
2024-06-19	15:17:58	15:25:00	421281	6.6.1	4_exp_EVA_AWA_CON	91	B	A	Rpleas_acq	Same	Rpleas	2pleas	acq_US_pleas_nomask	acq3_nomask	3	31	453	1	300	300	0	0	411	50	1	0	schön	loyal	lachen	retten	freundlich	helfen	schlecht	lasch	leiden	rächen	fanatisch	hindern	tolerant	ehrlich	treu	fair	schlau	spielen	tyrannisch	eitel	tot	faul	schroff	strafen	1	blank2r.bmp	0	1	+	0	1	blank2r.bmp	500	1	GKQX	500	1	blank2r.bmp	880	3	lachen	880	1	!	1293	1	!	1313	0	0	0	0	0	0
2024-06-19	15:17:58	15:25:02	423529	6.6.1	4_exp_EVA_AWA_CON	91	B	A	Rpleas_acq	Same	Rpleas	2pleas	acq_US_pleas_nomask	acq3_nomask	3	32	453	1	300	300	0	0	467	50	1	0	schön	loyal	lachen	retten	freundlich	helfen	schlecht	lasch	leiden	rächen	fanatisch	hindern	tolerant	ehrlich	treu	fair	schlau	spielen	tyrannisch	eitel	tot	faul	schroff	strafen	1	blank2r.bmp	0	1	+	0	1	blank2r.bmp	500	1	GKQX	500	1	blank2r.bmp	880	2	loyal	880	1	!	1293	1	!	1369	0	0	0	0	0	0
2024-06-19	15:17:58	15:25:05	425875	6.6.1	4_exp_EVA_AWA_CON	91	B	A	Rpleas_acq	Same	Rpleas	2pleas	acq_US_pleas_nomask	acq3_nomask	3	33	453	0	300	300	0	0	360	46	0	0	schön	loyal	lachen	retten	freundlich	helfen	schlecht	lasch	leiden	rächen	fanatisch	hindern	tolerant	ehrlich	treu	fair	schlau	spielen	tyrannisch	eitel	tot	faul	schroff	strafen	1	blank2r.bmp	0	1	+	0	1	blank2r.bmp	500	1	GKQX	500	1	blank2r.bmp	880	6	helfen	880	1	FEHLER	1554	1	!	-1	1	!	-1	0	0	0
2024-06-19	15:17:58	15:25:07	427881	6.6.1	4_exp_EVA_AWA_CON	91	B	A	Rpleas_acq	Same	Rpleas	2pleas	acq_US_pleas_nomask	acq3_nomask	3	34	453	1	300	300	0	0	427	50	1	0	schön	loyal	lachen	retten	freundlich	helfen	schlecht	lasch	leiden	rächen	fanatisch	hindern	tolerant	ehrlich	treu	fair	schlau	spielen	tyrannisch	eitel	tot	faul	schroff	strafen	1	blank2r.bmp	0	1	+	0	1	blank2r.bmp	500	1	GKQX	500	1	blank2r.bmp	880	5	freundlich	880	1	!	1293	1	!	1328	0	0	0	0	0	0
2024-06-19	15:17:58	15:25:09	430255	6.6.1	4_exp_EVA_AWA_CON	91	B	A	Rpleas_acq	Same	Rpleas	2pleas	acq_US_pleas_nomask	acq3_nomask	3	35	453	0	300	300	0	0	601	50	1	0	schön	loyal	lachen	retten	freundlich	helfen	schlecht	lasch	leiden	rächen	fanatisch	hindern	tolerant	ehrlich	treu	fair	schlau	spielen	tyrannisch	eitel	tot	faul	schroff	strafen	1	blank2r.bmp	0	1	+	0	1	blank2r.bmp	500	1	GKQX	500	1	blank2r.bmp	880	4	retten	880	1	!	1292	1	!	-1	0	0	0	0	0	0
2024-06-19	15:17:58	15:25:11	432513	6.6.1	4_exp_EVA_AWA_CON	91	B	A	Rpleas_acq	Same	Rpleas	2pleas	acq_US_unple_nomask	acq3_nomask	3	36	453	1	300	300	0	0	476	46	1	0	schön	loyal	lachen	retten	freundlich	helfen	schlecht	lasch	leiden	rächen	fanatisch	hindern	tolerant	ehrlich	treu	fair	schlau	spielen	tyrannisch	eitel	tot	faul	schroff	strafen	1	blank2r.bmp	0	1	+	0	1	blank2r.bmp	500	1	BMVZ	500	1	blank2r.bmp	880	6	hindern	880	1	!	1293	1	!	1377	0	0	0	0	0	0
2024-06-19	15:17:58	15:25:29	450721	6.6.1	4_exp_EVA_AWA_CON	91	B	A	Rpleas_acq	Same	Rpleas	2pleas	acq_US_pleas_nomask	acq45_nomask	4	1	400	1	300	300	0	0	462	46	0	0	schön	loyal	lachen	retten	freundlich	helfen	schlecht	lasch	leiden	rächen	fanatisch	hindern	tolerant	ehrlich	treu	fair	schlau	spielen	tyrannisch	eitel	tot	faul	schroff	strafen	1	blank2r.bmp	0	1	+	0	1	blank2r.bmp	500	1	GKQX	500	1	blank2r.bmp	880	6	helfen	880	1	!	1232	1	!	1364	0	0	0	0	0	0
2024-06-19	15:17:58	15:25:32	452953	6.6.1	4_exp_EVA_AWA_CON	91	B	A	Rpleas_acq	Same	Rpleas	2pleas	acq_US_unple_nomask	acq45_nomask	4	2	400	1	300	300	0	0	452	46	1	0	schön	loyal	lachen	retten	freundlich	helfen	schlecht	lasch	leiden	rächen	fanatisch	hindern	tolerant	ehrlich	treu	fair	schlau	spielen	tyrannisch	eitel	tot	faul	schroff	strafen	1	blank2r.bmp	0	1	+	0	1	blank2r.bmp	500	1	BMVZ	500	1	blank2r.bmp	880	3	leiden	880	1	!	1232	1	!	1354	0	0	0	0	0	0
2024-06-19	15:17:58	15:25:34	455231	6.6.1	4_exp_EVA_AWA_CON	91	B	A	Rpleas_acq	Same	Rpleas	2pleas	acq_US_pleas_nomask	acq45_nomask	4	3	400	0	300	300	0	0	501	50	1	0	schön	loyal	lachen	retten	freundlich	helfen	schlecht	lasch	leiden	rächen	fanatisch	hindern	tolerant	ehrlich	treu	fair	schlau	spielen	tyrannisch	eitel	tot	faul	schroff	strafen	1	blank2r.bmp	0	1	+	0	1	blank2r.bmp	500	1	GKQX	500	1	blank2r.bmp	880	5	freundlich	880	1	!	1232	1	!	-1	0	0	0	0	0	0
2024-06-19	15:17:58	15:25:36	457425	6.6.1	4_exp_EVA_AWA_CON	91	B	A	Rpleas_acq	Same	Rpleas	2pleas	acq_US_pleas_nomask	acq45_nomask	4	4	400	1	300	300	0	0	412	50	1	0	schön	loyal	lachen	retten	freundlich	helfen	schlecht	lasch	leiden	rächen	fanatisch	hindern	tolerant	ehrlich	treu	fair	schlau	spielen	tyrannisch	eitel	tot	faul	schroff	strafen	1	blank2r.bmp	0	1	+	0	1	blank2r.bmp	500	1	GKQX	500	1	blank2r.bmp	880	3	lachen	880	1	!	1232	1	!	1313	0	0	0	0	0	0
2024-06-19	15:17:58	15:25:38	459735	6.6.1	4_exp_EVA_AWA_CON	91	B	A	Rpleas_acq	Same	Rpleas	2pleas	acq_US_unple_nomask	acq45_nomask	4	5	400	0	300	300	0	0	532	46	1	0	schön	loyal	lachen	retten	freundlich	helfen	schlecht	lasch	leiden	rächen	fanatisch	hindern	tolerant	ehrlich	treu	fair	schlau	spielen	tyrannisch	eitel	tot	faul	schroff	strafen	1	blank2r.bmp	0	1	+	0	1	blank2r.bmp	500	1	BMVZ	500	1	blank2r.bmp	880	5	fanatisch	880	1	!	1232	1	!	-1	0	0	0	0	0	0
2024-06-19	15:17:58	15:25:41	461999	6.6.1	4_exp_EVA_AWA_CON	91	B	A	Rpleas_acq	Same	Rpleas	2pleas	acq_US_pleas_nomask	acq45_nomask	4	6	400	0	300	300	0	0	485	50	1	0	schön	loyal	lachen	retten	freundlich	helfen	schlecht	lasch	leiden	rächen	fanatisch	hindern	tolerant	ehrlich	treu	fair	schlau	spielen	tyrannisch	eitel	tot	faul	schroff	strafen	1	blank2r.bmp	0	1	+	0	1	blank2r.bmp	500	1	GKQX	500	1	blank2r.bmp	880	2	loyal	880	1	!	1232	1	!	-1	0	0	0	0	0	0
2024-06-19	15:17:58	15:25:43	464253	6.6.1	4_exp_EVA_AWA_CON	91	B	A	Rpleas_acq	Same	Rpleas	2pleas	acq_US_unple_nomask	acq45_nomask	4	7	400	0	300	300	0	0	479	46	1	0	schön	loyal	lachen	retten	freundlich	helfen	schlecht	lasch	leiden	rächen	fanatisch	hindern	tolerant	ehrlich	treu	fair	schlau	spielen	tyrannisch	eitel	tot	faul	schroff	strafen	1	blank2r.bmp	0	1	+	0	1	blank2r.bmp	500	1	BMVZ	500	1	blank2r.bmp	880	6	hindern	880	1	!	1232	1	!	-1	0	0	0	0	0	0
2024-06-19	15:17:58	15:25:45	466519	6.6.1	4_exp_EVA_AWA_CON	91	B	A	Rpleas_acq	Same	Rpleas	2pleas	acq_US_pleas_nomask	acq45_nomask	4	8	400	0	300	300	0	0	492	50	1	0	schön	loyal	lachen	retten	freundlich	helfen	schlecht	lasch	leiden	rächen	fanatisch	hindern	tolerant	ehrlich	treu	fair	schlau	spielen	tyrannisch	eitel	tot	faul	schroff	strafen	1	blank2r.bmp	0	1	+	0	1	blank2r.bmp	500	1	GKQX	500	1	blank2r.bmp	880	4	retten	880	1	!	1233	1	!	-1	0	0	0	0	0	0
2024-06-19	15:17:58	15:25:47	468729	6.6.1	4_exp_EVA_AWA_CON	91	B	A	Rpleas_acq	Same	Rpleas	2pleas	acq_US_unple_nomask	acq45_nomask	4	9	400	1	300	300	0	0	428	46	1	0	schön	loyal	lachen	retten	freundlich	helfen	schlecht	lasch	leiden	rächen	fanatisch	hindern	tolerant	ehrlich	treu	fair	schlau	spielen	tyrannisch	eitel	tot	faul	schroff	strafen	1	blank2r.bmp	0	1	+	0	1	blank2r.bmp	500	1	BMVZ	500	1	blank2r.bmp	880	1	schlecht	880	1	!	1233	1	!	1330	0	0	0	0	0	0
2024-06-19	15:17:58	15:25:50	470989	6.6.1	4_exp_EVA_AWA_CON	91	B	A	Rpleas_acq	Same	Rpleas	2pleas	acq_US_pleas_nomask	acq45_nomask	4	10	400	0	300	300	0	0	481	46	0	0	schön	loyal	lachen	retten	freundlich	helfen	schlecht	lasch	leiden	rächen	fanatisch	hindern	tolerant	ehrlich	treu	fair	schlau	spielen	tyrannisch	eitel	tot	faul	schroff	strafen	1	blank2r.bmp	0	1	+	0	1	blank2r.bmp	500	1	GKQX	500	1	blank2r.bmp	880	1	schön	880	1	!	1232	1	!	-1	0	0	0	0	0	0
2024-06-19	15:17:58	15:25:52	473233	6.6.1	4_exp_EVA_AWA_CON	91	B	A	Rpleas_acq	Same	Rpleas	2pleas	acq_US_unple_nomask	acq45_nomask	4	11	400	1	300	300	0	0	470	46	1	0	schön	loyal	lachen	retten	freundlich	helfen	schlecht	lasch	leiden	rächen	fanatisch	hindern	tolerant	ehrlich	treu	fair	schlau	spielen	tyrannisch	eitel	tot	faul	schroff	strafen	1	blank2r.bmp	0	1	+	0	1	blank2r.bmp	500	1	BMVZ	500	1	blank2r.bmp	880	2	lasch	880	1	!	1232	1	!	1372	0	0	0	0	0	0
2024-06-19	15:17:58	15:25:54	475408	6.6.1	4_exp_EVA_AWA_CON	91	B	A	Rpleas_acq	Same	Rpleas	2pleas	acq_US_unple_nomask	acq45_nomask	4	12	400	1	300	300	0	0	394	50	0	0	schön	loyal	lachen	retten	freundlich	helfen	schlecht	lasch	leiden	rächen	fanatisch	hindern	tolerant	ehrlich	treu	fair	schlau	spielen	tyrannisch	eitel	tot	faul	schroff	strafen	1	blank2r.bmp	0	1	+	0	1	blank2r.bmp	500	1	BMVZ	500	1	blank2r.bmp	880	4	rächen	880	1	!	1232	1	!	1296	0	0	0	0	0	0
2024-06-19	15:17:58	15:25:56	477847	6.6.1	4_exp_EVA_AWA_CON	91	B	A	Rpleas_acq	Same	Rpleas	2pleas	acq_US_unple_nomask	acq45_nomask	4	13	400	0	300	300	0	0	663	46	1	0	schön	loyal	lachen	retten	freundlich	helfen	schlecht	lasch	leiden	rächen	fanatisch	hindern	tolerant	ehrlich	treu	fair	schlau	spielen	tyrannisch	eitel	tot	faul	schroff	strafen	1	blank2r.bmp	0	1	+	0	1	blank2r.bmp	500	1	BMVZ	500	1	blank2r.bmp	880	6	hindern	880	1	!	1232	1	!	-1	0	0	0	0	0	0
2024-06-19	15:17:58	15:25:59	480041	6.6.1	4_exp_EVA_AWA_CON	91	B	A	Rpleas_acq	Same	Rpleas	2pleas	acq_US_pleas_nomask	acq45_nomask	4	14	400	1	300	300	0	0	413	50	1	0	schön	loyal	lachen	retten	freundlich	helfen	schlecht	lasch	leiden	rächen	fanatisch	hindern	tolerant	ehrlich	treu	fair	schlau	spielen	tyrannisch	eitel	tot	faul	schroff	strafen	1	blank2r.bmp	0	1	+	0	1	blank2r.bmp	500	1	GKQX	500	1	blank2r.bmp	880	6	helfen	880	1	!	1232	1	!	1314	0	0	0	0	0	0
2024-06-19	15:17:58	15:26:01	482391	6.6.1	4_exp_EVA_AWA_CON	91	B	A	Rpleas_acq	Same	Rpleas	2pleas	acq_US_unple_nomask	acq45_nomask	4	15	400	0	300	300	0	0	574	46	1	0	schön	loyal	lachen	retten	freundlich	helfen	schlecht	lasch	leiden	rächen	fanatisch	hindern	tolerant	ehrlich	treu	fair	schlau	spielen	tyrannisch	eitel	tot	faul	schroff	strafen	1	blank2r.bmp	0	1	+	0	1	blank2r.bmp	500	1	BMVZ	500	1	blank2r.bmp	880	4	rächen	880	1	!	1232	1	!	-1	0	0	0	0	0	0
2024-06-19	15:17:58	15:26:03	484711	6.6.1	4_exp_EVA_AWA_CON	91	B	A	Rpleas_acq	Same	Rpleas	2pleas	acq_US_pleas_nomask	acq45_nomask	4	16	400	0	300	300	0	0	542	50	1	0	schön	loyal	lachen	retten	freundlich	helfen	schlecht	lasch	leiden	rächen	fanatisch	hindern	tolerant	ehrlich	treu	fair	schlau	spielen	tyrannisch	eitel	tot	faul	schroff	strafen	1	blank2r.bmp	0	1	+	0	1	blank2r.bmp	500	1	GKQX	500	1	blank2r.bmp	880	3	lachen	880	1	!	1232	1	!	-1	0	0	0	0	0	0
2024-06-19	15:17:58	15:26:06	486937	6.6.1	4_exp_EVA_AWA_CON	91	B	A	Rpleas_acq	Same	Rpleas	2pleas	acq_US_pleas_nomask	acq45_nomask	4	17	400	1	300	300	0	0	445	50	1	0	schön	loyal	lachen	retten	freundlich	helfen	schlecht	lasch	leiden	rächen	fanatisch	hindern	tolerant	ehrlich	treu	fair	schlau	spielen	tyrannisch	eitel	tot	faul	schroff	strafen	1	blank2r.bmp	0	1	+	0	1	blank2r.bmp	500	1	GKQX	500	1	blank2r.bmp	880	2	loyal	880	1	!	1232	1	!	1346	0	0	0	0	0	0
2024-06-19	15:17:58	15:26:08	489137	6.6.1	4_exp_EVA_AWA_CON	91	B	A	Rpleas_acq	Same	Rpleas	2pleas	acq_US_unple_nomask	acq45_nomask	4	18	400	1	300	300	0	0	423	46	1	0	schön	loyal	lachen	retten	freundlich	helfen	schlecht	lasch	leiden	rächen	fanatisch	hindern	tolerant	ehrlich	treu	fair	schlau	spielen	tyrannisch	eitel	tot	faul	schroff	strafen	1	blank2r.bmp	0	1	+	0	1	blank2r.bmp	500	1	BMVZ	500	1	blank2r.bmp	880	2	lasch	880	1	!	1232	1	!	1325	0	0	0	0	0	0
2024-06-19	15:17:58	15:26:10	491559	6.6.1	4_exp_EVA_AWA_CON	91	B	A	Rpleas_acq	Same	Rpleas	2pleas	acq_US_unple_nomask	acq45_nomask	4	19	400	0	300	300	0	0	646	46	1	0	schön	loyal	lachen	retten	freundlich	helfen	schlecht	lasch	leiden	rächen	fanatisch	hindern	tolerant	ehrlich	treu	fair	schlau	spielen	tyrannisch	eitel	tot	faul	schroff	strafen	1	blank2r.bmp	0	1	+	0	1	blank2r.bmp	500	1	BMVZ	500	1	blank2r.bmp	880	1	schlecht	880	1	!	1232	1	!	-1	0	0	0	0	0	0
2024-06-19	15:17:58	15:26:12	493823	6.6.1	4_exp_EVA_AWA_CON	91	B	A	Rpleas_acq	Same	Rpleas	2pleas	acq_US_unple_nomask	acq45_nomask	4	20	400	0	300	300	0	0	488	46	1	0	schön	loyal	lachen	retten	freundlich	helfen	schlecht	lasch	leiden	rächen	fanatisch	hindern	tolerant	ehrlich	treu	fair	schlau	spielen	tyrannisch	eitel	tot	faul	schroff	strafen	1	blank2r.bmp	0	1	+	0	1	blank2r.bmp	500	1	BMVZ	500	1	blank2r.bmp	880	3	leiden	880	1	!	1233	1	!	-1	0	0	0	0	0	0
2024-06-19	15:17:58	15:26:15	496064	6.6.1	4_exp_EVA_AWA_CON	91	B	A	Rpleas_acq	Same	Rpleas	2pleas	acq_US_unple_nomask	acq45_nomask	4	21	400	1	300	300	0	0	467	50	0	0	schön	loyal	lachen	retten	freundlich	helfen	schlecht	lasch	leiden	rächen	fanatisch	hindern	tolerant	ehrlich	treu	fair	schlau	spielen	tyrannisch	eitel	tot	faul	schroff	strafen	1	blank2r.bmp	0	1	+	0	1	blank2r.bmp	500	1	BMVZ	500	1	blank2r.bmp	880	5	fanatisch	880	1	!	1232	1	!	1368	0	0	0	0	0	0
2024-06-19	15:17:58	15:26:17	498351	6.6.1	4_exp_EVA_AWA_CON	91	B	A	Rpleas_acq	Same	Rpleas	2pleas	acq_US_unple_nomask	acq45_nomask	4	22	400	0	300	300	0	0	514	46	1	0	schön	loyal	lachen	retten	freundlich	helfen	schlecht	lasch	leiden	rächen	fanatisch	hindern	tolerant	ehrlich	treu	fair	schlau	spielen	tyrannisch	eitel	tot	faul	schroff	strafen	1	blank2r.bmp	0	1	+	0	1	blank2r.bmp	500	1	BMVZ	500	1	blank2r.bmp	880	2	lasch	880	1	!	1232	1	!	-1	0	0	0	0	0	0
2024-06-19	15:17:58	15:26:19	500545	6.6.1	4_exp_EVA_AWA_CON	91	B	A	Rpleas_acq	Same	Rpleas	2pleas	acq_US_unple_nomask	acq45_nomask	4	23	400	1	300	300	0	0	414	46	1	0	schön	loyal	lachen	retten	freundlich	helfen	schlecht	lasch	leiden	rächen	fanatisch	hindern	tolerant	ehrlich	treu	fair	schlau	spielen	tyrannisch	eitel	tot	faul	schroff	strafen	1	blank2r.bmp	0	1	+	0	1	blank2r.bmp	500	1	BMVZ	500	1	blank2r.bmp	880	6	hindern	880	1	!	1233	1	!	1315	0	0	0	0	0	0
2024-06-19	15:17:58	15:26:21	502815	6.6.1	4_exp_EVA_AWA_CON	91	B	A	Rpleas_acq	Same	Rpleas	2pleas	acq_US_pleas_nomask	acq45_nomask	4	24	400	0	300	300	0	0	495	50	1	0	schön	loyal	lachen	retten	freundlich	helfen	schlecht	lasch	leiden	rächen	fanatisch	hindern	tolerant	ehrlich	treu	fair	schlau	spielen	tyrannisch	eitel	tot	faul	schroff	strafen	1	blank2r.bmp	0	1	+	0	1	blank2r.bmp	500	1	GKQX	500	1	blank2r.bmp	880	5	freundlich	880	1	!	1232	1	!	-1	0	0	0	0	0	0
2024-06-19	15:17:58	15:26:24	504993	6.6.1	4_exp_EVA_AWA_CON	91	B	A	Rpleas_acq	Same	Rpleas	2pleas	acq_US_pleas_nomask	acq45_nomask	4	25	400	1	300	300	0	0	399	50	1	0	schön	loyal	lachen	retten	freundlich	helfen	schlecht	lasch	leiden	rächen	fanatisch	hindern	tolerant	ehrlich	treu	fair	schlau	spielen	tyrannisch	eitel	tot	faul	schroff	strafen	1	blank2r.bmp	0	1	+	0	1	blank2r.bmp	500	1	GKQX	500	1	blank2r.bmp	880	1	schön	880	1	!	1232	1	!	1301	0	0	0	0	0	0
2024-06-19	15:17:58	15:26:26	507152	6.6.1	4_exp_EVA_AWA_CON	91	B	A	Rpleas_acq	Same	Rpleas	2pleas	acq_US_unple_nomask	acq45_nomask	4	26	400	1	300	300	0	0	378	50	0	0	schön	loyal	lachen	retten	freundlich	helfen	schlecht	lasch	leiden	rächen	fanatisch	hindern	tolerant	ehrlich	treu	fair	schlau	spielen	tyrannisch	eitel	tot	faul	schroff	strafen	1	blank2r.bmp	0	1	+	0	1	blank2r.bmp	500	1	BMVZ	500	1	blank2r.bmp	880	4	rächen	880	1	!	1232	1	!	1279	0	0	0	0	0	0
2024-06-19	15:17:58	15:26:28	509368	6.6.1	4_exp_EVA_AWA_CON	91	B	A	Rpleas_acq	Same	Rpleas	2pleas	acq_US_pleas_nomask	acq45_nomask	4	27	400	1	300	300	0	0	442	46	0	0	schön	loyal	lachen	retten	freundlich	helfen	schlecht	lasch	leiden	rächen	fanatisch	hindern	tolerant	ehrlich	treu	fair	schlau	spielen	tyrannisch	eitel	tot	faul	schroff	strafen	1	blank2r.bmp	0	1	+	0	1	blank2r.bmp	500	1	GKQX	500	1	blank2r.bmp	880	4	retten	880	1	!	1232	1	!	1344	0	0	0	0	0	0
2024-06-19	15:17:58	15:26:30	511719	6.6.1	4_exp_EVA_AWA_CON	91	B	A	Rpleas_acq	Same	Rpleas	2pleas	acq_US_unple_nomask	acq45_nomask	4	28	400	0	300	300	0	0	573	46	1	0	schön	loyal	lachen	retten	freundlich	helfen	schlecht	lasch	leiden	rächen	fanatisch	hindern	tolerant	ehrlich	treu	fair	schlau	spielen	tyrannisch	eitel	tot	faul	schroff	strafen	1	blank2r.bmp	0	1	+	0	1	blank2r.bmp	500	1	BMVZ	500	1	blank2r.bmp	880	3	leiden	880	1	!	1232	1	!	-1	0	0	0	0	0	0
2024-06-19	15:17:58	15:26:33	514071	6.6.1	4_exp_EVA_AWA_CON	91	B	A	Rpleas_acq	Same	Rpleas	2pleas	acq_US_pleas_nomask	acq45_nomask	4	29	400	0	300	300	0	0	573	50	1	0	schön	loyal	lachen	retten	freundlich	helfen	schlecht	lasch	leiden	rächen	fanatisch	hindern	tolerant	ehrlich	treu	fair	schlau	spielen	tyrannisch	eitel	tot	faul	schroff	strafen	1	blank2r.bmp	0	1	+	0	1	blank2r.bmp	500	1	GKQX	500	1	blank2r.bmp	880	2	loyal	880	1	!	1232	1	!	-1	0	0	0	0	0	0
2024-06-19	15:17:58	15:26:35	516383	6.6.1	4_exp_EVA_AWA_CON	91	B	A	Rpleas_acq	Same	Rpleas	2pleas	acq_US_unple_nomask	acq45_nomask	4	30	400	0	300	300	0	0	534	46	1	0	schön	loyal	lachen	retten	freundlich	helfen	schlecht	lasch	leiden	rächen	fanatisch	hindern	tolerant	ehrlich	treu	fair	schlau	spielen	tyrannisch	eitel	tot	faul	schroff	strafen	1	blank2r.bmp	0	1	+	0	1	blank2r.bmp	500	1	BMVZ	500	1	blank2r.bmp	880	5	fanatisch	880	1	!	1232	1	!	-1	0	0	0	0	0	0
2024-06-19	15:17:58	15:26:37	518655	6.6.1	4_exp_EVA_AWA_CON	91	B	A	Rpleas_acq	Same	Rpleas	2pleas	acq_US_pleas_nomask	acq45_nomask	4	31	400	0	300	300	0	0	494	50	1	0	schön	loyal	lachen	retten	freundlich	helfen	schlecht	lasch	leiden	rächen	fanatisch	hindern	tolerant	ehrlich	treu	fair	schlau	spielen	tyrannisch	eitel	tot	faul	schroff	strafen	1	blank2r.bmp	0	1	+	0	1	blank2r.bmp	500	1	GKQX	500	1	blank2r.bmp	880	5	freundlich	880	1	!	1232	1	!	-1	0	0	0	0	0	0
2024-06-19	15:17:58	15:26:40	521023	6.6.1	4_exp_EVA_AWA_CON	91	B	A	Rpleas_acq	Same	Rpleas	2pleas	acq_US_pleas_nomask	acq45_nomask	4	32	400	0	300	300	0	0	591	50	1	0	schön	loyal	lachen	retten	freundlich	helfen	schlecht	lasch	leiden	rächen	fanatisch	hindern	tolerant	ehrlich	treu	fair	schlau	spielen	tyrannisch	eitel	tot	faul	schroff	strafen	1	blank2r.bmp	0	1	+	0	1	blank2r.bmp	500	1	GKQX	500	1	blank2r.bmp	880	4	retten	880	1	!	1232	1	!	-1	0	0	0	0	0	0
2024-06-19	15:17:58	15:26:42	523257	6.6.1	4_exp_EVA_AWA_CON	91	B	A	Rpleas_acq	Same	Rpleas	2pleas	acq_US_pleas_nomask	acq45_nomask	4	33	400	1	300	300	0	0	451	50	1	0	schön	loyal	lachen	retten	freundlich	helfen	schlecht	lasch	leiden	rächen	fanatisch	hindern	tolerant	ehrlich	treu	fair	schlau	spielen	tyrannisch	eitel	tot	faul	schroff	strafen	1	blank2r.bmp	0	1	+	0	1	blank2r.bmp	500	1	GKQX	500	1	blank2r.bmp	880	1	schön	880	1	!	1232	1	!	1353	0	0	0	0	0	0
2024-06-19	15:17:58	15:26:44	525535	6.6.1	4_exp_EVA_AWA_CON	91	B	A	Rpleas_acq	Same	Rpleas	2pleas	acq_US_pleas_nomask	acq45_nomask	4	34	400	0	300	300	0	0	500	50	1	0	schön	loyal	lachen	retten	freundlich	helfen	schlecht	lasch	leiden	rächen	fanatisch	hindern	tolerant	ehrlich	treu	fair	schlau	spielen	tyrannisch	eitel	tot	faul	schroff	strafen	1	blank2r.bmp	0	1	+	0	1	blank2r.bmp	500	1	GKQX	500	1	blank2r.bmp	880	6	helfen	880	1	!	1232	1	!	-1	0	0	0	0	0	0
2024-06-19	15:17:58	15:26:46	527745	6.6.1	4_exp_EVA_AWA_CON	91	B	A	Rpleas_acq	Same	Rpleas	2pleas	acq_US_unple_nomask	acq45_nomask	4	35	400	1	300	300	0	0	427	50	0	0	schön	loyal	lachen	retten	freundlich	helfen	schlecht	lasch	leiden	rächen	fanatisch	hindern	tolerant	ehrlich	treu	fair	schlau	spielen	tyrannisch	eitel	tot	faul	schroff	strafen	1	blank2r.bmp	0	1	+	0	1	blank2r.bmp	500	1	BMVZ	500	1	blank2r.bmp	880	1	schlecht	880	1	!	1232	1	!	1328	0	0	0	0	0	0
2024-06-19	15:17:58	15:26:49	530023	6.6.1	4_exp_EVA_AWA_CON	91	B	A	Rpleas_acq	Same	Rpleas	2pleas	acq_US_pleas_nomask	acq45_nomask	4	36	400	0	300	300	0	0	505	46	0	0	schön	loyal	lachen	retten	freundlich	helfen	schlecht	lasch	leiden	rächen	fanatisch	hindern	tolerant	ehrlich	treu	fair	schlau	spielen	tyrannisch	eitel	tot	faul	schroff	strafen	1	blank2r.bmp	0	1	+	0	1	blank2r.bmp	500	1	GKQX	500	1	blank2r.bmp	880	3	lachen	880	1	!	1232	1	!	-1	0	0	0	0	0	0
2024-06-19	15:17:58	15:27:04	544951	6.6.1	4_exp_EVA_AWA_CON	91	B	A	Rpleas_acq	Same	Rpleas	2pleas	acq_US_pleas_nomask	acq45_nomask	5	1	400	0	300	300	0	0	544	50	1	0	schön	loyal	lachen	retten	freundlich	helfen	schlecht	lasch	leiden	rächen	fanatisch	hindern	tolerant	ehrlich	treu	fair	schlau	spielen	tyrannisch	eitel	tot	faul	schroff	strafen	1	blank2r.bmp	0	1	+	0	1	blank2r.bmp	500	1	GKQX	500	1	blank2r.bmp	880	2	loyal	880	1	!	1232	1	!	-1	0	0	0	0	0	0
2024-06-19	15:17:58	15:27:06	547121	6.6.1	4_exp_EVA_AWA_CON	91	B	A	Rpleas_acq	Same	Rpleas	2pleas	acq_US_unple_nomask	acq45_nomask	5	2	400	1	300	300	0	0	390	46	1	0	schön	loyal	lachen	retten	freundlich	helfen	schlecht	lasch	leiden	rächen	fanatisch	hindern	tolerant	ehrlich	treu	fair	schlau	spielen	tyrannisch	eitel	tot	faul	schroff	strafen	1	blank2r.bmp	0	1	+	0	1	blank2r.bmp	500	1	BMVZ	500	1	blank2r.bmp	880	1	schlecht	880	1	!	1232	1	!	1292	0	0	0	0	0	0
2024-06-19	15:17:58	15:27:08	549431	6.6.1	4_exp_EVA_AWA_CON	91	B	A	Rpleas_acq	Same	Rpleas	2pleas	acq_US_unple_nomask	acq45_nomask	5	3	400	0	300	300	0	0	531	46	1	0	schön	loyal	lachen	retten	freundlich	helfen	schlecht	lasch	leiden	rächen	fanatisch	hindern	tolerant	ehrlich	treu	fair	schlau	spielen	tyrannisch	eitel	tot	faul	schroff	strafen	1	blank2r.bmp	0	1	+	0	1	blank2r.bmp	500	1	BMVZ	500	1	blank2r.bmp	880	5	fanatisch	880	1	!	1232	1	!	-1	0	0	0	0	0	0
2024-06-19	15:17:58	15:27:10	551751	6.6.1	4_exp_EVA_AWA_CON	91	B	A	Rpleas_acq	Same	Rpleas	2pleas	acq_US_pleas_nomask	acq45_nomask	5	4	400	0	300	300	0	0	539	50	1	0	schön	loyal	lachen	retten	freundlich	helfen	schlecht	lasch	leiden	rächen	fanatisch	hindern	tolerant	ehrlich	treu	fair	schlau	spielen	tyrannisch	eitel	tot	faul	schroff	strafen	1	blank2r.bmp	0	1	+	0	1	blank2r.bmp	500	1	GKQX	500	1	blank2r.bmp	880	6	helfen	880	1	!	1232	1	!	-1	0	0	0	0	0	0
2024-06-19	15:17:58	15:27:13	553985	6.6.1	4_exp_EVA_AWA_CON	91	B	A	Rpleas_acq	Same	Rpleas	2pleas	acq_US_unple_nomask	acq45_nomask	5	5	400	1	300	300	0	0	450	46	1	0	schön	loyal	lachen	retten	freundlich	helfen	schlecht	lasch	leiden	rächen	fanatisch	hindern	tolerant	ehrlich	treu	fair	schlau	spielen	tyrannisch	eitel	tot	faul	schroff	strafen	1	blank2r.bmp	0	1	+	0	1	blank2r.bmp	500	1	BMVZ	500	1	blank2r.bmp	880	6	hindern	880	1	!	1232	1	!	1352	0	0	0	0	0	0
2024-06-19	15:17:58	15:27:15	556455	6.6.1	4_exp_EVA_AWA_CON	91	B	A	Rpleas_acq	Same	Rpleas	2pleas	acq_US_pleas_nomask	acq45_nomask	5	6	400	0	300	300	0	0	690	50	1	0	schön	loyal	lachen	retten	freundlich	helfen	schlecht	lasch	leiden	rächen	fanatisch	hindern	tolerant	ehrlich	treu	fair	schlau	spielen	tyrannisch	eitel	tot	faul	schroff	strafen	1	blank2r.bmp	0	1	+	0	1	blank2r.bmp	500	1	GKQX	500	1	blank2r.bmp	880	4	retten	880	1	!	1232	1	!	-1	0	0	0	0	0	0
2024-06-19	15:17:58	15:27:17	558680	6.6.1	4_exp_EVA_AWA_CON	91	B	A	Rpleas_acq	Same	Rpleas	2pleas	acq_US_unple_nomask	acq45_nomask	5	7	400	1	300	300	0	0	443	46	1	0	schön	loyal	lachen	retten	freundlich	helfen	schlecht	lasch	leiden	rächen	fanatisch	hindern	tolerant	ehrlich	treu	fair	schlau	spielen	tyrannisch	eitel	tot	faul	schroff	strafen	1	blank2r.bmp	0	1	+	0	1	blank2r.bmp	500	1	BMVZ	500	1	blank2r.bmp	880	3	leiden	880	1	!	1232	1	!	1344	0	0	0	0	0	0
2024-06-19	15:17:58	15:27:20	560975	6.6.1	4_exp_EVA_AWA_CON	91	B	A	Rpleas_acq	Same	Rpleas	2pleas	acq_US_unple_nomask	acq45_nomask	5	8	400	0	300	300	0	0	517	50	0	0	schön	loyal	lachen	retten	freundlich	helfen	schlecht	lasch	leiden	rächen	fanatisch	hindern	tolerant	ehrlich	treu	fair	schlau	spielen	tyrannisch	eitel	tot	faul	schroff	strafen	1	blank2r.bmp	0	1	+	0	1	blank2r.bmp	500	1	BMVZ	500	1	blank2r.bmp	880	4	rächen	880	1	!	1232	1	!	-1	0	0	0	0	0	0
2024-06-19	15:17:58	15:27:22	563280	6.6.1	4_exp_EVA_AWA_CON	91	B	A	Rpleas_acq	Same	Rpleas	2pleas	acq_US_unple_nomask	acq45_nomask	5	9	400	0	300	300	0	0	530	46	1	0	schön	loyal	lachen	retten	freundlich	helfen	schlecht	lasch	leiden	rächen	fanatisch	hindern	tolerant	ehrlich	treu	fair	schlau	spielen	tyrannisch	eitel	tot	faul	schroff	strafen	1	blank2r.bmp	0	1	+	0	1	blank2r.bmp	500	1	BMVZ	500	1	blank2r.bmp	880	2	lasch	880	1	!	1232	1	!	-1	0	0	0	0	0	0
2024-06-19	15:17:58	15:27:24	565513	6.6.1	4_exp_EVA_AWA_CON	91	B	A	Rpleas_acq	Same	Rpleas	2pleas	acq_US_unple_nomask	acq45_nomask	5	10	400	1	300	300	0	0	450	46	1	0	schön	loyal	lachen	retten	freundlich	helfen	schlecht	lasch	leiden	rächen	fanatisch	hindern	tolerant	ehrlich	treu	fair	schlau	spielen	tyrannisch	eitel	tot	faul	schroff	strafen	1	blank2r.bmp	0	1	+	0	1	blank2r.bmp	500	1	BMVZ	500	1	blank2r.bmp	880	6	hindern	880	1	!	1232	1	!	1352	0	0	0	0	0	0
2024-06-19	15:17:58	15:27:26	567807	6.6.1	4_exp_EVA_AWA_CON	91	B	A	Rpleas_acq	Same	Rpleas	2pleas	acq_US_pleas_nomask	acq45_nomask	5	11	400	0	300	300	0	0	515	50	1	0	schön	loyal	lachen	retten	freundlich	helfen	schlecht	lasch	leiden	rächen	fanatisch	hindern	tolerant	ehrlich	treu	fair	schlau	spielen	tyrannisch	eitel	tot	faul	schroff	strafen	1	blank2r.bmp	0	1	+	0	1	blank2r.bmp	500	1	GKQX	500	1	blank2r.bmp	880	1	schön	880	1	!	1232	1	!	-1	0	0	0	0	0	0
2024-06-19	15:17:58	15:27:29	570103	6.6.1	4_exp_EVA_AWA_CON	91	B	A	Rpleas_acq	Same	Rpleas	2pleas	acq_US_pleas_nomask	acq45_nomask	5	12	400	0	300	300	0	0	519	50	1	0	schön	loyal	lachen	retten	freundlich	helfen	schlecht	lasch	leiden	rächen	fanatisch	hindern	tolerant	ehrlich	treu	fair	schlau	spielen	tyrannisch	eitel	tot	faul	schroff	strafen	1	blank2r.bmp	0	1	+	0	1	blank2r.bmp	500	1	GKQX	500	1	blank2r.bmp	880	3	lachen	880	1	!	1232	1	!	-1	0	0	0	0	0	0
2024-06-19	15:17:58	15:27:31	572365	6.6.1	4_exp_EVA_AWA_CON	91	B	A	Rpleas_acq	Same	Rpleas	2pleas	acq_US_pleas_nomask	acq45_nomask	5	13	400	0	300	300	0	0	482	50	1	0	schön	loyal	lachen	retten	freundlich	helfen	schlecht	lasch	leiden	rächen	fanatisch	hindern	tolerant	ehrlich	treu	fair	schlau	spielen	tyrannisch	eitel	tot	faul	schroff	strafen	1	blank2r.bmp	0	1	+	0	1	blank2r.bmp	500	1	GKQX	500	1	blank2r.bmp	880	5	freundlich	880	1	!	1232	1	!	-1	0	0	0	0	0	0
2024-06-19	15:17:58	15:27:33	574577	6.6.1	4_exp_EVA_AWA_CON	91	B	A	Rpleas_acq	Same	Rpleas	2pleas	acq_US_pleas_nomask	acq45_nomask	5	14	400	1	300	300	0	0	429	50	1	0	schön	loyal	lachen	retten	freundlich	helfen	schlecht	lasch	leiden	rächen	fanatisch	hindern	tolerant	ehrlich	treu	fair	schlau	spielen	tyrannisch	eitel	tot	faul	schroff	strafen	1	blank2r.bmp	0	1	+	0	1	blank2r.bmp	500	1	GKQX	500	1	blank2r.bmp	880	6	helfen	880	1	!	1232	1	!	1330	0	0	0	0	0	0
2024-06-19	15:17:58	15:27:35	576752	6.6.1	4_exp_EVA_AWA_CON	91	B	A	Rpleas_acq	Same	Rpleas	2pleas	acq_US_pleas_nomask	acq45_nomask	5	15	400	1	300	300	0	0	393	50	1	0	schön	loyal	lachen	retten	freundlich	helfen	schlecht	lasch	leiden	rächen	fanatisch	hindern	tolerant	ehrlich	treu	fair	schlau	spielen	tyrannisch	eitel	tot	faul	schroff	strafen	1	blank2r.bmp	0	1	+	0	1	blank2r.bmp	500	1	GKQX	500	1	blank2r.bmp	880	1	schön	880	1	!	1233	1	!	1294	0	0	0	0	0	0
2024-06-19	15:17:58	15:27:38	578928	6.6.1	4_exp_EVA_AWA_CON	91	B	A	Rpleas_acq	Same	Rpleas	2pleas	acq_US_unple_nomask	acq45_nomask	5	16	400	1	300	300	0	0	398	46	1	0	schön	loyal	lachen	retten	freundlich	helfen	schlecht	lasch	leiden	rächen	fanatisch	hindern	tolerant	ehrlich	treu	fair	schlau	spielen	tyrannisch	eitel	tot	faul	schroff	strafen	1	blank2r.bmp	0	1	+	0	1	blank2r.bmp	500	1	BMVZ	500	1	blank2r.bmp	880	5	fanatisch	880	1	!	1232	1	!	1299	0	0	0	0	0	0
2024-06-19	15:17:58	15:27:40	581279	6.6.1	4_exp_EVA_AWA_CON	91	B	A	Rpleas_acq	Same	Rpleas	2pleas	acq_US_unple_nomask	acq45_nomask	5	17	400	0	300	300	0	0	578	46	1	0	schön	loyal	lachen	retten	freundlich	helfen	schlecht	lasch	leiden	rächen	fanatisch	hindern	tolerant	ehrlich	treu	fair	schlau	spielen	tyrannisch	eitel	tot	faul	schroff	strafen	1	blank2r.bmp	0	1	+	0	1	blank2r.bmp	500	1	BMVZ	500	1	blank2r.bmp	880	4	rächen	880	1	!	1232	1	!	-1	0	0	0	0	0	0
2024-06-19	15:17:58	15:27:42	583559	6.6.1	4_exp_EVA_AWA_CON	91	B	A	Rpleas_acq	Same	Rpleas	2pleas	acq_US_pleas_nomask	acq45_nomask	5	18	400	0	300	300	0	0	507	50	1	0	schön	loyal	lachen	retten	freundlich	helfen	schlecht	lasch	leiden	rächen	fanatisch	hindern	tolerant	ehrlich	treu	fair	schlau	spielen	tyrannisch	eitel	tot	faul	schroff	strafen	1	blank2r.bmp	0	1	+	0	1	blank2r.bmp	500	1	GKQX	500	1	blank2r.bmp	880	2	loyal	880	1	!	1232	1	!	-1	0	0	0	0	0	0
2024-06-19	15:17:58	15:27:44	585745	6.6.1	4_exp_EVA_AWA_CON	91	B	A	Rpleas_acq	Same	Rpleas	2pleas	acq_US_pleas_nomask	acq45_nomask	5	19	400	1	300	300	0	0	409	46	0	0	schön	loyal	lachen	retten	freundlich	helfen	schlecht	lasch	leiden	rächen	fanatisch	hindern	tolerant	ehrlich	treu	fair	schlau	spielen	tyrannisch	eitel	tot	faul	schroff	strafen	1	blank2r.bmp	0	1	+	0	1	blank2r.bmp	500	1	GKQX	500	1	blank2r.bmp	880	4	retten	880	1	!	1232	1	!	1311	0	0	0	0	0	0
2024-06-19	15:17:58	15:27:47	588223	6.6.1	4_exp_EVA_AWA_CON	91	B	A	Rpleas_acq	Same	Rpleas	2pleas	acq_US_unple_nomask	acq45_nomask	5	20	400	0	300	300	0	0	698	46	1	0	schön	loyal	lachen	retten	freundlich	helfen	schlecht	lasch	leiden	rächen	fanatisch	hindern	tolerant	ehrlich	treu	fair	schlau	spielen	tyrannisch	eitel	tot	faul	schroff	strafen	1	blank2r.bmp	0	1	+	0	1	blank2r.bmp	500	1	BMVZ	500	1	blank2r.bmp	880	1	schlecht	880	1	!	1232	1	!	-1	0	0	0	0	0	0
2024-06-19	15:17:58	15:27:49	590487	6.6.1	4_exp_EVA_AWA_CON	91	B	A	Rpleas_acq	Same	Rpleas	2pleas	acq_US_unple_nomask	acq45_nomask	5	21	400	0	300	300	0	0	490	46	1	0	schön	loyal	lachen	retten	freundlich	helfen	schlecht	lasch	leiden	rächen	fanatisch	hindern	tolerant	ehrlich	treu	fair	schlau	spielen	tyrannisch	eitel	tot	faul	schroff	strafen	1	blank2r.bmp	0	1	+	0	1	blank2r.bmp	500	1	BMVZ	500	1	blank2r.bmp	880	3	leiden	880	1	!	1232	1	!	-1	0	0	0	0	0	0
2024-06-19	15:17:58	15:27:51	592672	6.6.1	4_exp_EVA_AWA_CON	91	B	A	Rpleas_acq	Same	Rpleas	2pleas	acq_US_pleas_nomask	acq45_nomask	5	22	400	1	300	300	0	0	403	50	1	0	schön	loyal	lachen	retten	freundlich	helfen	schlecht	lasch	leiden	rächen	fanatisch	hindern	tolerant	ehrlich	treu	fair	schlau	spielen	tyrannisch	eitel	tot	faul	schroff	strafen	1	blank2r.bmp	0	1	+	0	1	blank2r.bmp	500	1	GKQX	500	1	blank2r.bmp	880	5	freundlich	880	1	!	1232	1	!	1304	0	0	0	0	0	0
2024-06-19	15:17:58	15:27:54	595015	6.6.1	4_exp_EVA_AWA_CON	91	B	A	Rpleas_acq	Same	Rpleas	2pleas	acq_US_pleas_nomask	acq45_nomask	5	23	400	0	300	300	0	0	566	50	1	0	schön	loyal	lachen	retten	freundlich	helfen	schlecht	lasch	leiden	rächen	fanatisch	hindern	tolerant	ehrlich	treu	fair	schlau	spielen	tyrannisch	eitel	tot	faul	schroff	strafen	1	blank2r.bmp	0	1	+	0	1	blank2r.bmp	500	1	GKQX	500	1	blank2r.bmp	880	3	lachen	880	1	!	1232	1	!	-1	0	0	0	0	0	0
2024-06-19	15:17:58	15:27:56	597233	6.6.1	4_exp_EVA_AWA_CON	91	B	A	Rpleas_acq	Same	Rpleas	2pleas	acq_US_unple_nomask	acq45_nomask	5	24	400	1	300	300	0	0	440	46	1	0	schön	loyal	lachen	retten	freundlich	helfen	schlecht	lasch	leiden	rächen	fanatisch	hindern	tolerant	ehrlich	treu	fair	schlau	spielen	tyrannisch	eitel	tot	faul	schroff	strafen	1	blank2r.bmp	0	1	+	0	1	blank2r.bmp	500	1	BMVZ	500	1	blank2r.bmp	880	2	lasch	880	1	!	1233	1	!	1342	0	0	0	0	0	0
2024-06-19	15:17:58	15:27:58	599480	6.6.1	4_exp_EVA_AWA_CON	91	B	A	Rpleas_acq	Same	Rpleas	2pleas	acq_US_unple_nomask	acq45_nomask	5	25	400	1	300	300	0	0	467	46	1	0	schön	loyal	lachen	retten	freundlich	helfen	schlecht	lasch	leiden	rächen	fanatisch	hindern	tolerant	ehrlich	treu	fair	schlau	spielen	tyrannisch	eitel	tot	faul	schroff	strafen	1	blank2r.bmp	0	1	+	0	1	blank2r.bmp	500	1	BMVZ	500	1	blank2r.bmp	880	1	schlecht	880	1	!	1232	1	!	1368	0	0	0	0	0	0
2024-06-19	15:17:58	15:28:00	601815	6.6.1	4_exp_EVA_AWA_CON	91	B	A	Rpleas_acq	Same	Rpleas	2pleas	acq_US_pleas_nomask	acq45_nomask	5	26	400	0	300	300	0	0	561	50	1	0	schön	loyal	lachen	retten	freundlich	helfen	schlecht	lasch	leiden	rächen	fanatisch	hindern	tolerant	ehrlich	treu	fair	schlau	spielen	tyrannisch	eitel	tot	faul	schroff	strafen	1	blank2r.bmp	0	1	+	0	1	blank2r.bmp	500	1	GKQX	500	1	blank2r.bmp	880	6	helfen	880	1	!	1232	1	!	-1	0	0	0	0	0	0
2024-06-19	15:17:58	15:28:03	604040	6.6.1	4_exp_EVA_AWA_CON	91	B	A	Rpleas_acq	Same	Rpleas	2pleas	acq_US_pleas_nomask	acq45_nomask	5	27	400	1	300	300	0	0	444	46	0	0	schön	loyal	lachen	retten	freundlich	helfen	schlecht	lasch	leiden	rächen	fanatisch	hindern	tolerant	ehrlich	treu	fair	schlau	spielen	tyrannisch	eitel	tot	faul	schroff	strafen	1	blank2r.bmp	0	1	+	0	1	blank2r.bmp	500	1	GKQX	500	1	blank2r.bmp	880	2	loyal	880	1	!	1232	1	!	1345	0	0	0	0	0	0
2024-06-19	15:17:58	15:28:05	606503	6.6.1	4_exp_EVA_AWA_CON	91	B	A	Rpleas_acq	Same	Rpleas	2pleas	acq_US_unple_nomask	acq45_nomask	5	28	400	0	300	300	0	0	686	46	1	0	schön	loyal	lachen	retten	freundlich	helfen	schlecht	lasch	leiden	rächen	fanatisch	hindern	tolerant	ehrlich	treu	fair	schlau	spielen	tyrannisch	eitel	tot	faul	schroff	strafen	1	blank2r.bmp	0	1	+	0	1	blank2r.bmp	500	1	BMVZ	500	1	blank2r.bmp	880	4	rächen	880	1	!	1232	1	!	-1	0	0	0	0	0	0
2024-06-19	15:17:58	15:28:07	608704	6.6.1	4_exp_EVA_AWA_CON	91	B	A	Rpleas_acq	Same	Rpleas	2pleas	acq_US_pleas_nomask	acq45_nomask	5	29	400	1	300	300	0	0	425	50	1	0	schön	loyal	lachen	retten	freundlich	helfen	schlecht	lasch	leiden	rächen	fanatisch	hindern	tolerant	ehrlich	treu	fair	schlau	spielen	tyrannisch	eitel	tot	faul	schroff	strafen	1	blank2r.bmp	0	1	+	0	1	blank2r.bmp	500	1	GKQX	500	1	blank2r.bmp	880	1	schön	880	1	!	1232	1	!	1326	0	0	0	0	0	0
2024-06-19	15:17:58	15:28:10	610967	6.6.1	4_exp_EVA_AWA_CON	91	B	A	Rpleas_acq	Same	Rpleas	2pleas	acq_US_unple_nomask	acq45_nomask	5	30	400	0	300	300	0	0	487	46	1	0	schön	loyal	lachen	retten	freundlich	helfen	schlecht	lasch	leiden	rächen	fanatisch	hindern	tolerant	ehrlich	treu	fair	schlau	spielen	tyrannisch	eitel	tot	faul	schroff	strafen	1	blank2r.bmp	0	1	+	0	1	blank2r.bmp	500	1	BMVZ	500	1	blank2r.bmp	880	2	lasch	880	1	!	1233	1	!	-1	0	0	0	0	0	0
2024-06-19	15:17:58	15:28:12	613232	6.6.1	4_exp_EVA_AWA_CON	91	B	A	Rpleas_acq	Same	Rpleas	2pleas	acq_US_pleas_nomask	acq45_nomask	5	31	400	0	300	300	0	0	490	46	0	0	schön	loyal	lachen	retten	freundlich	helfen	schlecht	lasch	leiden	rächen	fanatisch	hindern	tolerant	ehrlich	treu	fair	schlau	spielen	tyrannisch	eitel	tot	faul	schroff	strafen	1	blank2r.bmp	0	1	+	0	1	blank2r.bmp	500	1	GKQX	500	1	blank2r.bmp	880	3	lachen	880	1	!	1233	1	!	-1	0	0	0	0	0	0
2024-06-19	15:17:58	15:28:14	615481	6.6.1	4_exp_EVA_AWA_CON	91	B	A	Rpleas_acq	Same	Rpleas	2pleas	acq_US_unple_nomask	acq45_nomask	5	32	400	1	300	300	0	0	466	46	1	0	schön	loyal	lachen	retten	freundlich	helfen	schlecht	lasch	leiden	rächen	fanatisch	hindern	tolerant	ehrlich	treu	fair	schlau	spielen	tyrannisch	eitel	tot	faul	schroff	strafen	1	blank2r.bmp	0	1	+	0	1	blank2r.bmp	500	1	BMVZ	500	1	blank2r.bmp	880	6	hindern	880	1	!	1232	1	!	1368	0	0	0	0	0	0
2024-06-19	15:17:58	15:28:16	617726	6.6.1	4_exp_EVA_AWA_CON	91	B	A	Rpleas_acq	Same	Rpleas	2pleas	acq_US_pleas_nomask	acq45_nomask	5	33	400	0	300	300	0	0	474	50	1	0	schön	loyal	lachen	retten	freundlich	helfen	schlecht	lasch	leiden	rächen	fanatisch	hindern	tolerant	ehrlich	treu	fair	schlau	spielen	tyrannisch	eitel	tot	faul	schroff	strafen	1	blank2r.bmp	0	1	+	0	1	blank2r.bmp	500	1	GKQX	500	1	blank2r.bmp	880	5	freundlich	880	1	!	1232	1	!	-1	0	0	0	0	0	0
2024-06-19	15:17:58	15:28:19	619981	6.6.1	4_exp_EVA_AWA_CON	91	B	A	Rpleas_acq	Same	Rpleas	2pleas	acq_US_unple_nomask	acq45_nomask	5	34	400	0	300	300	0	0	477	46	1	0	schön	loyal	lachen	retten	freundlich	helfen	schlecht	lasch	leiden	rächen	fanatisch	hindern	tolerant	ehrlich	treu	fair	schlau	spielen	tyrannisch	eitel	tot	faul	schroff	strafen	1	blank2r.bmp	0	1	+	0	1	blank2r.bmp	500	1	BMVZ	500	1	blank2r.bmp	880	5	fanatisch	880	1	!	1232	1	!	-1	0	0	0	0	0	0
2024-06-19	15:17:58	15:28:21	622319	6.6.1	4_exp_EVA_AWA_CON	91	B	A	Rpleas_acq	Same	Rpleas	2pleas	acq_US_pleas_nomask	acq45_nomask	5	35	400	0	300	300	0	0	562	50	1	0	schön	loyal	lachen	retten	freundlich	helfen	schlecht	lasch	leiden	rächen	fanatisch	hindern	tolerant	ehrlich	treu	fair	schlau	spielen	tyrannisch	eitel	tot	faul	schroff	strafen	1	blank2r.bmp	0	1	+	0	1	blank2r.bmp	500	1	GKQX	500	1	blank2r.bmp	880	4	retten	880	1	!	1232	1	!	-1	0	0	0	0	0	0
2024-06-19	15:17:58	15:28:23	624663	6.6.1	4_exp_EVA_AWA_CON	91	B	A	Rpleas_acq	Same	Rpleas	2pleas	acq_US_unple_nomask	acq45_nomask	5	36	400	0	300	300	0	0	565	46	1	0	schön	loyal	lachen	retten	freundlich	helfen	schlecht	lasch	leiden	rächen	fanatisch	hindern	tolerant	ehrlich	treu	fair	schlau	spielen	tyrannisch	eitel	tot	faul	schroff	strafen	1	blank2r.bmp	0	1	+	0	1	blank2r.bmp	500	1	BMVZ	500	1	blank2r.bmp	880	3	leiden	880	1	!	1233	1	!	-1	0	0	0	0	0	0
2024-06-19	15:17:58	15:28:59	660691	6.6.1	4_exp_EVA_AWA_CON	91	B	A	Rpleas_acq	Same	Rpleas	2pleas	EvalRating_firsttwo	EvalRating_firsttwo	6	1	0	0	300	300	0	0	6584	line	0	-77,6041666666666571928pct	schön	loyal	lachen	retten	freundlich	helfen	schlecht	lasch	leiden	rächen	fanatisch	hindern	tolerant	ehrlich	treu	fair	schlau	spielen	tyrannisch	eitel	tot	faul	schroff	strafen	1		-8	1	Wie angenehm oder unangenehm finden Sie die  Buchstabenkette ZGVK?	-8	1		-8	1		-8	1		-8	1	Unangenehm	-8	1	Angenehm	-8	0	0	0	0	0	0	0	0	0
2024-06-19	15:17:58	15:29:05	666251	6.6.1	4_exp_EVA_AWA_CON	91	B	A	Rpleas_acq	Same	Rpleas	2pleas	EvalRating_lastfour	EvalRating_lastfour	7	1	0	0	300	300	0	0	3179	line	0	54,4270833333333428072pct	schön	loyal	lachen	retten	freundlich	helfen	schlecht	lasch	leiden	rächen	fanatisch	hindern	tolerant	ehrlich	treu	fair	schlau	spielen	tyrannisch	eitel	tot	faul	schroff	strafen	1		-7	1	Wie angenehm oder unangenehm finden Sie die  Buchstabenkette BMVZ?	-7	1		-7	1		-7	1		-7	1	Unangenehm	-7	1	Angenehm	-7	0	0	0	0	0	0	0	0	0
2024-06-19	15:17:58	15:29:07	668618	6.6.1	4_exp_EVA_AWA_CON	91	B	A	Rpleas_acq	Same	Rpleas	2pleas	blank_screen	EvalRating_lastfour	7	3	0	0	300	300	0	0	0	0	0	54,4270833333333428072pct	schön	loyal	lachen	retten	freundlich	helfen	schlecht	lasch	leiden	rächen	fanatisch	hindern	tolerant	ehrlich	treu	fair	schlau	spielen	tyrannisch	eitel	tot	faul	schroff	strafen	1		-8	0	0	0	0	0	0	0	0	0	0	0	0	0	0	0	0	0	0	0	0	0	0	0	0	0	0	0
2024-06-19	15:17:58	15:29:12	673115	6.6.1	4_exp_EVA_AWA_CON	91	B	A	Rpleas_acq	Same	Rpleas	2pleas	EvalRating_lastfour	EvalRating_lastfour	7	4	0	0	300	300	0	0	3909	line	0	-28,6458333333333285964pct	schön	loyal	lachen	retten	freundlich	helfen	schlecht	lasch	leiden	rächen	fanatisch	hindern	tolerant	ehrlich	treu	fair	schlau	spielen	tyrannisch	eitel	tot	faul	schroff	strafen	1		-8	2	Wie angenehm oder unangenehm finden Sie die  Buchstabenkette GKQX?	-8	1		-8	1		-8	1		-8	1	Unangenehm	-8	1	Angenehm	-8	0	0	0	0	0	0	0	0	0
2024-06-19	15:17:58	15:29:14	675483	6.6.1	4_exp_EVA_AWA_CON	91	B	A	Rpleas_acq	Same	Rpleas	2pleas	blank_screen	EvalRating_lastfour	7	6	0	0	300	300	0	0	0	0	0	-28,6458333333333285964pct	schön	loyal	lachen	retten	freundlich	helfen	schlecht	lasch	leiden	rächen	fanatisch	hindern	tolerant	ehrlich	treu	fair	schlau	spielen	tyrannisch	eitel	tot	faul	schroff	strafen	1		-8	0	0	0	0	0	0	0	0	0	0	0	0	0	0	0	0	0	0	0	0	0	0	0	0	0	0	0
2024-06-19	15:17:58	15:29:18	679156	6.6.1	4_exp_EVA_AWA_CON	91	B	A	Rpleas_acq	Same	Rpleas	2pleas	EvalRating_lastfour	EvalRating_lastfour	7	7	0	0	300	300	0	0	3084	line	0	-27,34375pct	schön	loyal	lachen	retten	freundlich	helfen	schlecht	lasch	leiden	rächen	fanatisch	hindern	tolerant	ehrlich	treu	fair	schlau	spielen	tyrannisch	eitel	tot	faul	schroff	strafen	1		-8	3	Wie angenehm oder unangenehm finden Sie die  Buchstabenkette XBQM?	-8	1		-8	1		-8	1		-8	1	Unangenehm	-8	1	Angenehm	-8	0	0	0	0	0	0	0	0	0
2024-06-19	15:17:58	15:30:01	722301	6.6.1	4_exp_EVA_AWA_CON	91	B	A	Rpleas_acq	Same	Rpleas	2pleas	conawa_CS2_US5	conawa1_nomask	8	1	0	0	300	300	0	0	14060	freundlich	1	-27,34375pct	schön	loyal	lachen	retten	freundlich	helfen	schlecht	lasch	leiden	rächen	fanatisch	hindern	tolerant	ehrlich	treu	fair	schlau	spielen	tyrannisch	eitel	tot	faul	schroff	strafen	0	0	0	0	0	0	0	0	0	0	0	0	0	0	0	0	0	0	0	0	0	0	0	0	0	0	0	0	0	0
2024-06-19	15:17:58	15:30:01	722302	6.6.1	4_exp_EVA_AWA_CON	91	B	A	Rpleas_acq	Same	Rpleas	2pleas	conawa_CS2_US5_confidence	conawa1_nomask	8	1	0	0	300	300	0	0	14060	guess	1	-27,34375pct	schön	loyal	lachen	retten	freundlich	helfen	schlecht	lasch	leiden	rächen	fanatisch	hindern	tolerant	ehrlich	treu	fair	schlau	spielen	tyrannisch	eitel	tot	faul	schroff	strafen	0	0	0	0	0	0	0	0	0	0	0	0	0	0	0	0	0	0	0	0	0	0	0	0	0	0	0	0	0	0
2024-06-19	15:17:58	15:30:07	728525	6.6.1	4_exp_EVA_AWA_CON	91	B	A	Rpleas_acq	Same	Rpleas	2pleas	conawa_CS2_US2	conawa1_nomask	8	2	0	0	300	300	0	0	5606	treu	1	-27,34375pct	schön	loyal	lachen	retten	freundlich	helfen	schlecht	lasch	leiden	rächen	fanatisch	hindern	tolerant	ehrlich	treu	fair	schlau	spielen	tyrannisch	eitel	tot	faul	schroff	strafen	0	0	0	0	0	0	0	0	0	0	0	0	0	0	0	0	0	0	0	0	0	0	0	0	0	0	0	0	0	0
2024-06-19	15:17:58	15:30:07	728526	6.6.1	4_exp_EVA_AWA_CON	91	B	A	Rpleas_acq	Same	Rpleas	2pleas	conawa_CS2_US2_confidence	conawa1_nomask	8	2	0	0	300	300	0	0	5606	guess	1	-27,34375pct	schön	loyal	lachen	retten	freundlich	helfen	schlecht	lasch	leiden	rächen	fanatisch	hindern	tolerant	ehrlich	treu	fair	schlau	spielen	tyrannisch	eitel	tot	faul	schroff	strafen	0	0	0	0	0	0	0	0	0	0	0	0	0	0	0	0	0	0	0	0	0	0	0	0	0	0	0	0	0	0
2024-06-19	15:17:58	15:30:13	734779	6.6.1	4_exp_EVA_AWA_CON	91	B	A	Rpleas_acq	Same	Rpleas	2pleas	conawa_CS1_US3	conawa1_nomask	8	3	0	0	300	300	0	0	5639	treu	1	-27,34375pct	schön	loyal	lachen	retten	freundlich	helfen	schlecht	lasch	leiden	rächen	fanatisch	hindern	tolerant	ehrlich	treu	fair	schlau	spielen	tyrannisch	eitel	tot	faul	schroff	strafen	0	0	0	0	0	0	0	0	0	0	0	0	0	0	0	0	0	0	0	0	0	0	0	0	0	0	0	0	0	0
2024-06-19	15:17:58	15:30:13	734781	6.6.1	4_exp_EVA_AWA_CON	91	B	A	Rpleas_acq	Same	Rpleas	2pleas	conawa_CS1_US3_confidence	conawa1_nomask	8	3	0	0	300	300	0	0	5639	guess	1	-27,34375pct	schön	loyal	lachen	retten	freundlich	helfen	schlecht	lasch	leiden	rächen	fanatisch	hindern	tolerant	ehrlich	treu	fair	schlau	spielen	tyrannisch	eitel	tot	faul	schroff	strafen	0	0	0	0	0	0	0	0	0	0	0	0	0	0	0	0	0	0	0	0	0	0	0	0	0	0	0	0	0	0
2024-06-19	15:17:58	15:30:21	742303	6.6.1	4_exp_EVA_AWA_CON	91	B	A	Rpleas_acq	Same	Rpleas	2pleas	conawa_CS1_US5	conawa1_nomask	8	4	0	0	300	300	0	0	6907	freundlich	1	-27,34375pct	schön	loyal	lachen	retten	freundlich	helfen	schlecht	lasch	leiden	rächen	fanatisch	hindern	tolerant	ehrlich	treu	fair	schlau	spielen	tyrannisch	eitel	tot	faul	schroff	strafen	0	0	0	0	0	0	0	0	0	0	0	0	0	0	0	0	0	0	0	0	0	0	0	0	0	0	0	0	0	0
2024-06-19	15:17:58	15:30:21	742305	6.6.1	4_exp_EVA_AWA_CON	91	B	A	Rpleas_acq	Same	Rpleas	2pleas	conawa_CS1_US5_confidence	conawa1_nomask	8	4	0	0	300	300	0	0	6907	guess	1	-27,34375pct	schön	loyal	lachen	retten	freundlich	helfen	schlecht	lasch	leiden	rächen	fanatisch	hindern	tolerant	ehrlich	treu	fair	schlau	spielen	tyrannisch	eitel	tot	faul	schroff	strafen	0	0	0	0	0	0	0	0	0	0	0	0	0	0	0	0	0	0	0	0	0	0	0	0	0	0	0	0	0	0
2024-06-19	15:17:58	15:30:27	748768	6.6.1	4_exp_EVA_AWA_CON	91	B	A	Rpleas_acq	Same	Rpleas	2pleas	conawa_CS2_US3	conawa1_nomask	8	5	0	0	300	300	0	0	5853	leiden	1	-27,34375pct	schön	loyal	lachen	retten	freundlich	helfen	schlecht	lasch	leiden	rächen	fanatisch	hindern	tolerant	ehrlich	treu	fair	schlau	spielen	tyrannisch	eitel	tot	faul	schroff	strafen	0	0	0	0	0	0	0	0	0	0	0	0	0	0	0	0	0	0	0	0	0	0	0	0	0	0	0	0	0	0
2024-06-19	15:17:58	15:30:27	748769	6.6.1	4_exp_EVA_AWA_CON	91	B	A	Rpleas_acq	Same	Rpleas	2pleas	conawa_CS2_US3_confidence	conawa1_nomask	8	5	0	0	300	300	0	0	5853	guess	1	-27,34375pct	schön	loyal	lachen	retten	freundlich	helfen	schlecht	lasch	leiden	rächen	fanatisch	hindern	tolerant	ehrlich	treu	fair	schlau	spielen	tyrannisch	eitel	tot	faul	schroff	strafen	0	0	0	0	0	0	0	0	0	0	0	0	0	0	0	0	0	0	0	0	0	0	0	0	0	0	0	0	0	0
2024-06-19	15:17:58	15:30:34	755592	6.6.1	4_exp_EVA_AWA_CON	91	B	A	Rpleas_acq	Same	Rpleas	2pleas	conawa_CS2_US4	conawa1_nomask	8	6	0	0	300	300	0	0	6206	rächen	1	-27,34375pct	schön	loyal	lachen	retten	freundlich	helfen	schlecht	lasch	leiden	rächen	fanatisch	hindern	tolerant	ehrlich	treu	fair	schlau	spielen	tyrannisch	eitel	tot	faul	schroff	strafen	0	0	0	0	0	0	0	0	0	0	0	0	0	0	0	0	0	0	0	0	0	0	0	0	0	0	0	0	0	0
2024-06-19	15:17:58	15:30:34	755594	6.6.1	4_exp_EVA_AWA_CON	91	B	A	Rpleas_acq	Same	Rpleas	2pleas	conawa_CS2_US4_confidence	conawa1_nomask	8	6	0	0	300	300	0	0	6206	guess	1	-27,34375pct	schön	loyal	lachen	retten	freundlich	helfen	schlecht	lasch	leiden	rächen	fanatisch	hindern	tolerant	ehrlich	treu	fair	schlau	spielen	tyrannisch	eitel	tot	faul	schroff	strafen	0	0	0	0	0	0	0	0	0	0	0	0	0	0	0	0	0	0	0	0	0	0	0	0	0	0	0	0	0	0
2024-06-19	15:17:58	15:30:40	761266	6.6.1	4_exp_EVA_AWA_CON	91	B	A	Rpleas_acq	Same	Rpleas	2pleas	conawa_CS1_US4	conawa1_nomask	8	7	0	0	300	300	0	0	5051	fair	1	-27,34375pct	schön	loyal	lachen	retten	freundlich	helfen	schlecht	lasch	leiden	rächen	fanatisch	hindern	tolerant	ehrlich	treu	fair	schlau	spielen	tyrannisch	eitel	tot	faul	schroff	strafen	0	0	0	0	0	0	0	0	0	0	0	0	0	0	0	0	0	0	0	0	0	0	0	0	0	0	0	0	0	0
2024-06-19	15:17:58	15:30:40	761267	6.6.1	4_exp_EVA_AWA_CON	91	B	A	Rpleas_acq	Same	Rpleas	2pleas	conawa_CS1_US4_confidence	conawa1_nomask	8	7	0	0	300	300	0	0	5051	guess	1	-27,34375pct	schön	loyal	lachen	retten	freundlich	helfen	schlecht	lasch	leiden	rächen	fanatisch	hindern	tolerant	ehrlich	treu	fair	schlau	spielen	tyrannisch	eitel	tot	faul	schroff	strafen	0	0	0	0	0	0	0	0	0	0	0	0	0	0	0	0	0	0	0	0	0	0	0	0	0	0	0	0	0	0
2024-06-19	15:17:58	15:30:46	767060	6.6.1	4_exp_EVA_AWA_CON	91	B	A	Rpleas_acq	Same	Rpleas	2pleas	conawa_CS1_US6	conawa1_nomask	8	8	0	0	300	300	0	0	5180	spielen	1	-27,34375pct	schön	loyal	lachen	retten	freundlich	helfen	schlecht	lasch	leiden	rächen	fanatisch	hindern	tolerant	ehrlich	treu	fair	schlau	spielen	tyrannisch	eitel	tot	faul	schroff	strafen	0	0	0	0	0	0	0	0	0	0	0	0	0	0	0	0	0	0	0	0	0	0	0	0	0	0	0	0	0	0
2024-06-19	15:17:58	15:30:46	767061	6.6.1	4_exp_EVA_AWA_CON	91	B	A	Rpleas_acq	Same	Rpleas	2pleas	conawa_CS1_US6_confidence	conawa1_nomask	8	8	0	0	300	300	0	0	5180	guess	1	-27,34375pct	schön	loyal	lachen	retten	freundlich	helfen	schlecht	lasch	leiden	rächen	fanatisch	hindern	tolerant	ehrlich	treu	fair	schlau	spielen	tyrannisch	eitel	tot	faul	schroff	strafen	0	0	0	0	0	0	0	0	0	0	0	0	0	0	0	0	0	0	0	0	0	0	0	0	0	0	0	0	0	0
2024-06-19	15:17:58	15:30:53	774344	6.6.1	4_exp_EVA_AWA_CON	91	B	A	Rpleas_acq	Same	Rpleas	2pleas	conawa_CS2_US6	conawa1_nomask	8	9	0	0	300	300	0	0	6666	tyrannisch	1	-27,34375pct	schön	loyal	lachen	retten	freundlich	helfen	schlecht	lasch	leiden	rächen	fanatisch	hindern	tolerant	ehrlich	treu	fair	schlau	spielen	tyrannisch	eitel	tot	faul	schroff	strafen	0	0	0	0	0	0	0	0	0	0	0	0	0	0	0	0	0	0	0	0	0	0	0	0	0	0	0	0	0	0
2024-06-19	15:17:58	15:30:53	774345	6.6.1	4_exp_EVA_AWA_CON	91	B	A	Rpleas_acq	Same	Rpleas	2pleas	conawa_CS2_US6_confidence	conawa1_nomask	8	9	0	0	300	300	0	0	6666	guess	1	-27,34375pct	schön	loyal	lachen	retten	freundlich	helfen	schlecht	lasch	leiden	rächen	fanatisch	hindern	tolerant	ehrlich	treu	fair	schlau	spielen	tyrannisch	eitel	tot	faul	schroff	strafen	0	0	0	0	0	0	0	0	0	0	0	0	0	0	0	0	0	0	0	0	0	0	0	0	0	0	0	0	0	0
2024-06-19	15:17:58	15:30:58	779157	6.6.1	4_exp_EVA_AWA_CON	91	B	A	Rpleas_acq	Same	Rpleas	2pleas	conawa_CS1_US2	conawa1_nomask	8	10	0	0	300	300	0	0	4196	ehrlich	1	-27,34375pct	schön	loyal	lachen	retten	freundlich	helfen	schlecht	lasch	leiden	rächen	fanatisch	hindern	tolerant	ehrlich	treu	fair	schlau	spielen	tyrannisch	eitel	tot	faul	schroff	strafen	0	0	0	0	0	0	0	0	0	0	0	0	0	0	0	0	0	0	0	0	0	0	0	0	0	0	0	0	0	0
2024-06-19	15:17:58	15:30:58	779159	6.6.1	4_exp_EVA_AWA_CON	91	B	A	Rpleas_acq	Same	Rpleas	2pleas	conawa_CS1_US2_confidence	conawa1_nomask	8	10	0	0	300	300	0	0	4196	guess	1	-27,34375pct	schön	loyal	lachen	retten	freundlich	helfen	schlecht	lasch	leiden	rächen	fanatisch	hindern	tolerant	ehrlich	treu	fair	schlau	spielen	tyrannisch	eitel	tot	faul	schroff	strafen	0	0	0	0	0	0	0	0	0	0	0	0	0	0	0	0	0	0	0	0	0	0	0	0	0	0	0	0	0	0
2024-06-19	15:17:58	15:31:04	785081	6.6.1	4_exp_EVA_AWA_CON	91	B	A	Rpleas_acq	Same	Rpleas	2pleas	conawa_CS1_US1	conawa1_nomask	8	11	0	0	300	300	0	0	5311	tolerant	1	-27,34375pct	schön	loyal	lachen	retten	freundlich	helfen	schlecht	lasch	leiden	rächen	fanatisch	hindern	tolerant	ehrlich	treu	fair	schlau	spielen	tyrannisch	eitel	tot	faul	schroff	strafen	0	0	0	0	0	0	0	0	0	0	0	0	0	0	0	0	0	0	0	0	0	0	0	0	0	0	0	0	0	0
2024-06-19	15:17:58	15:31:04	785083	6.6.1	4_exp_EVA_AWA_CON	91	B	A	Rpleas_acq	Same	Rpleas	2pleas	conawa_CS1_US1_confidence	conawa1_nomask	8	11	0	0	300	300	0	0	5311	guess	1	-27,34375pct	schön	loyal	lachen	retten	freundlich	helfen	schlecht	lasch	leiden	rächen	fanatisch	hindern	tolerant	ehrlich	treu	fair	schlau	spielen	tyrannisch	eitel	tot	faul	schroff	strafen	0	0	0	0	0	0	0	0	0	0	0	0	0	0	0	0	0	0	0	0	0	0	0	0	0	0	0	0	0	0
2024-06-19	15:17:58	15:31:11	792066	6.6.1	4_exp_EVA_AWA_CON	91	B	A	Rpleas_acq	Same	Rpleas	2pleas	conawa_CS2_US1	conawa1_nomask	8	12	0	0	300	300	0	0	6373	eitel	1	-27,34375pct	schön	loyal	lachen	retten	freundlich	helfen	schlecht	lasch	leiden	rächen	fanatisch	hindern	tolerant	ehrlich	treu	fair	schlau	spielen	tyrannisch	eitel	tot	faul	schroff	strafen	0	0	0	0	0	0	0	0	0	0	0	0	0	0	0	0	0	0	0	0	0	0	0	0	0	0	0	0	0	0
2024-06-19	15:17:58	15:31:11	792067	6.6.1	4_exp_EVA_AWA_CON	91	B	A	Rpleas_acq	Same	Rpleas	2pleas	conawa_CS2_US1_confidence	conawa1_nomask	8	12	0	0	300	300	0	0	6373	guess	1	-27,34375pct	schön	loyal	lachen	retten	freundlich	helfen	schlecht	lasch	leiden	rächen	fanatisch	hindern	tolerant	ehrlich	treu	fair	schlau	spielen	tyrannisch	eitel	tot	faul	schroff	strafen	0	0	0	0	0	0	0	0	0	0	0	0	0	0	0	0	0	0	0	0	0	0	0	0	0	0	0	0	0	0
2024-06-19	15:17:58	15:32:20	861702	6.6.1	4_exp_EVA_AWA_CON	91	B	A	Rpleas_acq	Same	Rpleas	2pleas	cond_new_unple_456_nomask_CS1	condtest_nomask_1	11	1	400	0	300	300	0	0	783	46	1	-27,34375pct	schön	loyal	lachen	retten	freundlich	helfen	schlecht	lasch	leiden	rächen	fanatisch	hindern	tolerant	ehrlich	treu	fair	schlau	spielen	tyrannisch	eitel	tot	faul	schroff	strafen	1	blank2r.bmp	0	1	+	0	1	blank2r.bmp	500	1	BMVZ	500	1	blank2r.bmp	880	2	schroff	880	1	!	1232	1	!	-1	0	0	0	0	0	0
2024-06-19	15:17:58	15:32:23	863990	6.6.1	4_exp_EVA_AWA_CON	91	B	A	Rpleas_acq	Same	Rpleas	2pleas	cond_new_pleas_456_nomask_CS1	condtest_nomask_1	11	2	400	0	300	300	0	0	509	46	0	-27,34375pct	schön	loyal	lachen	retten	freundlich	helfen	schlecht	lasch	leiden	rächen	fanatisch	hindern	tolerant	ehrlich	treu	fair	schlau	spielen	tyrannisch	eitel	tot	faul	schroff	strafen	1	blank2r.bmp	0	1	+	0	1	blank2r.bmp	500	1	BMVZ	500	1	blank2r.bmp	880	2	schlau	880	1	!	1233	1	!	-1	0	0	0	0	0	0
2024-06-19	15:17:58	15:32:25	866245	6.6.1	4_exp_EVA_AWA_CON	91	B	A	Rpleas_acq	Same	Rpleas	2pleas	cond_US_unple_123_nomask_CS1	condtest_nomask_1	11	3	400	0	300	300	0	0	484	46	1	-27,34375pct	schön	loyal	lachen	retten	freundlich	helfen	schlecht	lasch	leiden	rächen	fanatisch	hindern	tolerant	ehrlich	treu	fair	schlau	spielen	tyrannisch	eitel	tot	faul	schroff	strafen	1	blank2r.bmp	0	1	+	0	1	blank2r.bmp	500	1	BMVZ	500	1	blank2r.bmp	880	2	lasch	880	1	!	1232	1	!	-1	0	0	0	0	0	0
2024-06-19	15:17:58	15:32:27	868615	6.6.1	4_exp_EVA_AWA_CON	91	B	A	Rpleas_acq	Same	Rpleas	2pleas	cond_new_unple_456_nomask_CS2	condtest_nomask_1	11	4	400	0	300	300	0	0	590	46	1	-27,34375pct	schön	loyal	lachen	retten	freundlich	helfen	schlecht	lasch	leiden	rächen	fanatisch	hindern	tolerant	ehrlich	treu	fair	schlau	spielen	tyrannisch	eitel	tot	faul	schroff	strafen	1	blank2r.bmp	0	1	+	0	1	blank2r.bmp	500	1	GKQX	500	1	blank2r.bmp	880	2	faul	880	1	!	1233	1	!	-1	0	0	0	0	0	0
2024-06-19	15:17:58	15:32:29	870769	6.6.1	4_exp_EVA_AWA_CON	91	B	A	Rpleas_acq	Same	Rpleas	2pleas	cond_US_unple_123_nomask_CS2	condtest_nomask_1	11	5	400	1	300	300	0	0	371	46	1	-27,34375pct	schön	loyal	lachen	retten	freundlich	helfen	schlecht	lasch	leiden	rächen	fanatisch	hindern	tolerant	ehrlich	treu	fair	schlau	spielen	tyrannisch	eitel	tot	faul	schroff	strafen	1	blank2r.bmp	0	1	+	0	1	blank2r.bmp	500	1	GKQX	500	1	blank2r.bmp	880	2	schlecht	880	1	!	1232	1	!	1272	0	0	0	0	0	0
2024-06-19	15:17:58	15:32:32	872984	6.6.1	4_exp_EVA_AWA_CON	91	B	A	Rpleas_acq	Same	Rpleas	2pleas	cond_US_pleas_123_nomask_CS2	condtest_nomask_1	11	6	400	1	300	300	0	0	435	50	1	-27,34375pct	schön	loyal	lachen	retten	freundlich	helfen	schlecht	lasch	leiden	rächen	fanatisch	hindern	tolerant	ehrlich	treu	fair	schlau	spielen	tyrannisch	eitel	tot	faul	schroff	strafen	1	blank2r.bmp	0	1	+	0	1	blank2r.bmp	500	1	GKQX	500	1	blank2r.bmp	880	3	loyal	880	1	!	1232	1	!	1336	0	0	0	0	0	0
2024-06-19	15:17:58	15:32:34	875184	6.6.1	4_exp_EVA_AWA_CON	91	B	A	Rpleas_acq	Same	Rpleas	2pleas	cond_new_pleas_456_nomask_CS2	condtest_nomask_1	11	7	400	1	300	300	0	0	424	50	1	-27,34375pct	schön	loyal	lachen	retten	freundlich	helfen	schlecht	lasch	leiden	rächen	fanatisch	hindern	tolerant	ehrlich	treu	fair	schlau	spielen	tyrannisch	eitel	tot	faul	schroff	strafen	1	blank2r.bmp	0	1	+	0	1	blank2r.bmp	500	1	GKQX	500	1	blank2r.bmp	880	2	fair	880	1	!	1232	1	!	1325	0	0	0	0	0	0
2024-06-19	15:17:58	15:32:36	877454	6.6.1	4_exp_EVA_AWA_CON	91	B	A	Rpleas_acq	Same	Rpleas	2pleas	cond_US_pleas_123_nomask_CS1	condtest_nomask_1	11	8	400	0	300	300	0	0	495	50	1	-27,34375pct	schön	loyal	lachen	retten	freundlich	helfen	schlecht	lasch	leiden	rächen	fanatisch	hindern	tolerant	ehrlich	treu	fair	schlau	spielen	tyrannisch	eitel	tot	faul	schroff	strafen	1	blank2r.bmp	0	1	+	0	1	blank2r.bmp	500	1	BMVZ	500	1	blank2r.bmp	880	1	schön	880	1	!	1232	1	!	-1	0	0	0	0	0	0
2024-06-19	15:17:58	15:32:44	885288	6.6.1	4_exp_EVA_AWA_CON	91	B	A	Rpleas_acq	Same	Rpleas	2pleas	cond_US_unple_123_nomask_CS1	condtest_nomask_2	12	1	400	1	300	300	0	0	411	50	0	-27,34375pct	schön	loyal	lachen	retten	freundlich	helfen	schlecht	lasch	leiden	rächen	fanatisch	hindern	tolerant	ehrlich	treu	fair	schlau	spielen	tyrannisch	eitel	tot	faul	schroff	strafen	1	blank2r.bmp	0	1	+	0	1	blank2r.bmp	500	1	BMVZ	500	1	blank2r.bmp	880	1	schlecht	880	1	!	1232	1	!	1312	0	0	0	0	0	0
2024-06-19	15:17:58	15:32:46	887598	6.6.1	4_exp_EVA_AWA_CON	91	B	A	Rpleas_acq	Same	Rpleas	2pleas	cond_new_unple_456_nomask_CS1	condtest_nomask_2	12	2	400	0	300	300	0	0	532	46	1	-27,34375pct	schön	loyal	lachen	retten	freundlich	helfen	schlecht	lasch	leiden	rächen	fanatisch	hindern	tolerant	ehrlich	treu	fair	schlau	spielen	tyrannisch	eitel	tot	faul	schroff	strafen	1	blank2r.bmp	0	1	+	0	1	blank2r.bmp	500	1	BMVZ	500	1	blank2r.bmp	880	1	faul	880	1	!	1232	1	!	-1	0	0	0	0	0	0
