date	time	currenttime	elapsedtime	build	currentexpt	subject	CS_AB	US_AB	LRpleas_acq	SameOppo	condition_Lpleas	condition_1pleas	trialcode	blockcode	blocknum	trialnum	windowcenter	inwindow	pretrialpause	posttrialpause	trialduration	trialtimeout	latency	response	correct	correctedscore	US_nomask_pleas1	US_nomask_pleas2	US_nomask_pleas3	US_nomask_pleas4	US_nomask_pleas5	US_nomask_pleas6	US_nomask_unple1	US_nomask_unple2	US_nomask_unple3	US_nomask_unple4	US_nomask_unple5	US_nomask_unple6	new_nomask_pleas1	new_nomask_pleas2	new_nomask_pleas3	new_nomask_pleas4	new_nomask_pleas5	new_nomask_pleas6	new_nomask_unple1	new_nomask_unple2	new_nomask_unple3	new_nomask_unple4	new_nomask_unple5	new_nomask_unple6	stimulusnumber1	stimulusitem1	stimulusonset1	stimulusnumber2	stimulusitem2	stimulusonset2	stimulusnumber3	stimulusitem3	stimulusonset3	stimulusnumber4	stimulusitem4	stimulusonset4	stimulusnumber5	stimulusitem5	stimulusonset5	stimulusnumber6	stimulusitem6	stimulusonset6	stimulusnumber7	stimulusitem7	stimulusonset7	stimulusnumber8	stimulusitem8	stimulusonset8	stimulusnumber9	stimulusitem9	stimulusonset9	stimulusnumber10	stimulusitem10	stimulusonset10
2024-06-12	10:52:08	10:54:55	167335	6.6.1	4_exp_EVA_AWA_CON	82	A	B	Rpleas_acq	Oppo	Rpleas	1pleas	acq_new_pleas_nomask	acq1_nomask	1	1	0	0	300	300	0	0	2336	46	0	0	anregung	sonnig	kreativ	träumen	vergnügt	genießen	ausrottung	sterben	krank	töten	verbissen	gemein	vertrauen	kuss	besonnen	gütig	gesittet	engagiert	versagen	krise	bange	gierig	geizig	engstirnig	1	blank2r.bmp	0	1	+	0	1	blank2r.bmp	500	6	C2r.bmp	500	1	blank2r.bmp	880	1	vertrauen	880	1	FEHLER	3238	0	0	0	0	0	0	0	0	0
2024-06-12	10:52:08	10:54:59	171238	6.6.1	4_exp_EVA_AWA_CON	82	A	B	Rpleas_acq	Oppo	Rpleas	1pleas	acq_new_unple_nomask	acq1_nomask	1	2	0	0	300	300	0	0	2618	46	1	0	anregung	sonnig	kreativ	träumen	vergnügt	genießen	ausrottung	sterben	krank	töten	verbissen	gemein	vertrauen	kuss	besonnen	gütig	gesittet	engagiert	versagen	krise	bange	gierig	geizig	engstirnig	1	blank2r.bmp	0	1	+	0	1	blank2r.bmp	500	8	C4r.bmp	500	1	blank2r.bmp	880	5	geizig	880	0	0	0	0	0	0	0	0	0	0	0	0
2024-06-12	10:52:08	10:55:02	173854	6.6.1	4_exp_EVA_AWA_CON	82	A	B	Rpleas_acq	Oppo	Rpleas	1pleas	acq_new_pleas_nomask	acq1_nomask	1	3	0	0	300	300	0	0	1131	50	1	0	anregung	sonnig	kreativ	träumen	vergnügt	genießen	ausrottung	sterben	krank	töten	verbissen	gemein	vertrauen	kuss	besonnen	gütig	gesittet	engagiert	versagen	krise	bange	gierig	geizig	engstirnig	1	blank2r.bmp	0	1	+	0	1	blank2r.bmp	500	1	B1r.bmp	500	1	blank2r.bmp	880	3	besonnen	880	0	0	0	0	0	0	0	0	0	0	0	0
2024-06-12	10:52:08	10:55:05	176718	6.6.1	4_exp_EVA_AWA_CON	82	A	B	Rpleas_acq	Oppo	Rpleas	1pleas	acq_US_unple_nomask	acq1_nomask	1	4	0	0	300	300	0	0	1374	46	1	0	anregung	sonnig	kreativ	träumen	vergnügt	genießen	ausrottung	sterben	krank	töten	verbissen	gemein	vertrauen	kuss	besonnen	gütig	gesittet	engagiert	versagen	krise	bange	gierig	geizig	engstirnig	1	blank2r.bmp	0	1	+	0	1	blank2r.bmp	500	1	DHJF	500	1	blank2r.bmp	880	5	verbissen	880	0	0	0	0	0	0	0	0	0	0	0	0
2024-06-12	10:52:08	10:55:07	179038	6.6.1	4_exp_EVA_AWA_CON	82	A	B	Rpleas_acq	Oppo	Rpleas	1pleas	acq_new_pleas_nomask	acq1_nomask	1	5	0	0	300	300	0	0	832	50	1	0	anregung	sonnig	kreativ	träumen	vergnügt	genießen	ausrottung	sterben	krank	töten	verbissen	gemein	vertrauen	kuss	besonnen	gütig	gesittet	engagiert	versagen	krise	bange	gierig	geizig	engstirnig	1	blank2r.bmp	0	1	+	0	1	blank2r.bmp	500	3	B3r.bmp	500	1	blank2r.bmp	880	2	kuss	880	0	0	0	0	0	0	0	0	0	0	0	0
2024-06-12	10:52:08	10:55:10	182126	6.6.1	4_exp_EVA_AWA_CON	82	A	B	Rpleas_acq	Oppo	Rpleas	1pleas	acq_US_unple_nomask	acq1_nomask	1	6	0	0	300	300	0	0	1598	46	1	0	anregung	sonnig	kreativ	träumen	vergnügt	genießen	ausrottung	sterben	krank	töten	verbissen	gemein	vertrauen	kuss	besonnen	gütig	gesittet	engagiert	versagen	krise	bange	gierig	geizig	engstirnig	1	blank2r.bmp	0	1	+	0	1	blank2r.bmp	500	1	DHJF	500	1	blank2r.bmp	880	3	krank	880	0	0	0	0	0	0	0	0	0	0	0	0
2024-06-12	10:52:08	10:55:13	184558	6.6.1	4_exp_EVA_AWA_CON	82	A	B	Rpleas_acq	Oppo	Rpleas	1pleas	acq_US_pleas_nomask	acq1_nomask	1	7	0	0	300	300	0	0	948	50	1	0	anregung	sonnig	kreativ	träumen	vergnügt	genießen	ausrottung	sterben	krank	töten	verbissen	gemein	vertrauen	kuss	besonnen	gütig	gesittet	engagiert	versagen	krise	bange	gierig	geizig	engstirnig	1	blank2r.bmp	0	1	+	0	1	blank2r.bmp	500	1	CPLW	500	1	blank2r.bmp	880	4	träumen	880	0	0	0	0	0	0	0	0	0	0	0	0
2024-06-12	10:52:08	10:55:15	186854	6.6.1	4_exp_EVA_AWA_CON	82	A	B	Rpleas_acq	Oppo	Rpleas	1pleas	acq_US_unple_nomask	acq1_nomask	1	8	0	0	300	300	0	0	813	46	1	0	anregung	sonnig	kreativ	träumen	vergnügt	genießen	ausrottung	sterben	krank	töten	verbissen	gemein	vertrauen	kuss	besonnen	gütig	gesittet	engagiert	versagen	krise	bange	gierig	geizig	engstirnig	1	blank2r.bmp	0	1	+	0	1	blank2r.bmp	500	1	DHJF	500	1	blank2r.bmp	880	1	ausrottung	880	0	0	0	0	0	0	0	0	0	0	0	0
2024-06-12	10:52:08	10:55:17	189342	6.6.1	4_exp_EVA_AWA_CON	82	A	B	Rpleas_acq	Oppo	Rpleas	1pleas	acq_new_unple_nomask	acq1_nomask	1	9	0	0	300	300	0	0	999	46	1	0	anregung	sonnig	kreativ	träumen	vergnügt	genießen	ausrottung	sterben	krank	töten	verbissen	gemein	vertrauen	kuss	besonnen	gütig	gesittet	engagiert	versagen	krise	bange	gierig	geizig	engstirnig	1	blank2r.bmp	0	1	+	0	1	blank2r.bmp	500	7	C3r.bmp	500	1	blank2r.bmp	880	1	versagen	880	0	0	0	0	0	0	0	0	0	0	0	0
2024-06-12	10:52:08	10:55:20	191766	6.6.1	4_exp_EVA_AWA_CON	82	A	B	Rpleas_acq	Oppo	Rpleas	1pleas	acq_US_pleas_nomask	acq1_nomask	1	10	0	0	300	300	0	0	942	50	1	0	anregung	sonnig	kreativ	träumen	vergnügt	genießen	ausrottung	sterben	krank	töten	verbissen	gemein	vertrauen	kuss	besonnen	gütig	gesittet	engagiert	versagen	krise	bange	gierig	geizig	engstirnig	1	blank2r.bmp	0	1	+	0	1	blank2r.bmp	500	1	CPLW	500	1	blank2r.bmp	880	2	sonnig	880	0	0	0	0	0	0	0	0	0	0	0	0
2024-06-12	10:52:08	10:55:22	194230	6.6.1	4_exp_EVA_AWA_CON	82	A	B	Rpleas_acq	Oppo	Rpleas	1pleas	acq_US_pleas_nomask	acq1_nomask	1	11	0	0	300	300	0	0	984	50	1	0	anregung	sonnig	kreativ	träumen	vergnügt	genießen	ausrottung	sterben	krank	töten	verbissen	gemein	vertrauen	kuss	besonnen	gütig	gesittet	engagiert	versagen	krise	bange	gierig	geizig	engstirnig	1	blank2r.bmp	0	1	+	0	1	blank2r.bmp	500	1	CPLW	500	1	blank2r.bmp	880	6	genießen	880	0	0	0	0	0	0	0	0	0	0	0	0
2024-06-12	10:52:08	10:55:25	196759	6.6.1	4_exp_EVA_AWA_CON	82	A	B	Rpleas_acq	Oppo	Rpleas	1pleas	acq_new_unple_nomask	acq1_nomask	1	12	0	0	300	300	0	0	1041	46	1	0	anregung	sonnig	kreativ	träumen	vergnügt	genießen	ausrottung	sterben	krank	töten	verbissen	gemein	vertrauen	kuss	besonnen	gütig	gesittet	engagiert	versagen	krise	bange	gierig	geizig	engstirnig	1	blank2r.bmp	0	1	+	0	1	blank2r.bmp	500	2	B2r.bmp	500	1	blank2r.bmp	880	4	gierig	880	0	0	0	0	0	0	0	0	0	0	0	0
2024-06-12	10:52:08	10:55:27	199022	6.6.1	4_exp_EVA_AWA_CON	82	A	B	Rpleas_acq	Oppo	Rpleas	1pleas	acq_new_pleas_nomask	acq1_nomask	1	13	0	0	300	300	0	0	783	50	1	0	anregung	sonnig	kreativ	träumen	vergnügt	genießen	ausrottung	sterben	krank	töten	verbissen	gemein	vertrauen	kuss	besonnen	gütig	gesittet	engagiert	versagen	krise	bange	gierig	geizig	engstirnig	1	blank2r.bmp	0	1	+	0	1	blank2r.bmp	500	4	B4r.bmp	500	1	blank2r.bmp	880	5	gesittet	880	0	0	0	0	0	0	0	0	0	0	0	0
2024-06-12	10:52:08	10:55:30	201582	6.6.1	4_exp_EVA_AWA_CON	82	A	B	Rpleas_acq	Oppo	Rpleas	1pleas	acq_new_pleas_nomask	acq1_nomask	1	14	0	0	300	300	0	0	1072	50	1	0	anregung	sonnig	kreativ	träumen	vergnügt	genießen	ausrottung	sterben	krank	töten	verbissen	gemein	vertrauen	kuss	besonnen	gütig	gesittet	engagiert	versagen	krise	bange	gierig	geizig	engstirnig	1	blank2r.bmp	0	1	+	0	1	blank2r.bmp	500	5	C1r.bmp	500	1	blank2r.bmp	880	4	gütig	880	0	0	0	0	0	0	0	0	0	0	0	0
2024-06-12	10:52:08	10:55:32	203854	6.6.1	4_exp_EVA_AWA_CON	82	A	B	Rpleas_acq	Oppo	Rpleas	1pleas	acq_US_unple_nomask	acq1_nomask	1	15	0	0	300	300	0	0	792	46	1	0	anregung	sonnig	kreativ	träumen	vergnügt	genießen	ausrottung	sterben	krank	töten	verbissen	gemein	vertrauen	kuss	besonnen	gütig	gesittet	engagiert	versagen	krise	bange	gierig	geizig	engstirnig	1	blank2r.bmp	0	1	+	0	1	blank2r.bmp	500	1	DHJF	500	1	blank2r.bmp	880	4	töten	880	0	0	0	0	0	0	0	0	0	0	0	0
2024-06-12	10:52:08	10:55:34	206046	6.6.1	4_exp_EVA_AWA_CON	82	A	B	Rpleas_acq	Oppo	Rpleas	1pleas	acq_new_pleas_nomask	acq1_nomask	1	16	0	0	300	300	0	0	702	50	1	0	anregung	sonnig	kreativ	träumen	vergnügt	genießen	ausrottung	sterben	krank	töten	verbissen	gemein	vertrauen	kuss	besonnen	gütig	gesittet	engagiert	versagen	krise	bange	gierig	geizig	engstirnig	1	blank2r.bmp	0	1	+	0	1	blank2r.bmp	500	2	B2r.bmp	500	1	blank2r.bmp	880	6	engagiert	880	0	0	0	0	0	0	0	0	0	0	0	0
2024-06-12	10:52:08	10:55:37	208567	6.6.1	4_exp_EVA_AWA_CON	82	A	B	Rpleas_acq	Oppo	Rpleas	1pleas	acq_US_unple_nomask	acq1_nomask	1	17	0	0	300	300	0	0	1031	46	1	0	anregung	sonnig	kreativ	träumen	vergnügt	genießen	ausrottung	sterben	krank	töten	verbissen	gemein	vertrauen	kuss	besonnen	gütig	gesittet	engagiert	versagen	krise	bange	gierig	geizig	engstirnig	1	blank2r.bmp	0	1	+	0	1	blank2r.bmp	500	1	DHJF	500	1	blank2r.bmp	880	2	sterben	880	0	0	0	0	0	0	0	0	0	0	0	0
2024-06-12	10:52:08	10:55:39	210958	6.6.1	4_exp_EVA_AWA_CON	82	A	B	Rpleas_acq	Oppo	Rpleas	1pleas	acq_US_pleas_nomask	acq1_nomask	1	18	0	0	300	300	0	0	912	50	1	0	anregung	sonnig	kreativ	träumen	vergnügt	genießen	ausrottung	sterben	krank	töten	verbissen	gemein	vertrauen	kuss	besonnen	gütig	gesittet	engagiert	versagen	krise	bange	gierig	geizig	engstirnig	1	blank2r.bmp	0	1	+	0	1	blank2r.bmp	500	1	CPLW	500	1	blank2r.bmp	880	1	anregung	880	0	0	0	0	0	0	0	0	0	0	0	0
2024-06-12	10:52:08	10:55:41	213222	6.6.1	4_exp_EVA_AWA_CON	82	A	B	Rpleas_acq	Oppo	Rpleas	1pleas	acq_US_pleas_nomask	acq1_nomask	1	19	0	0	300	300	0	0	784	50	1	0	anregung	sonnig	kreativ	träumen	vergnügt	genießen	ausrottung	sterben	krank	töten	verbissen	gemein	vertrauen	kuss	besonnen	gütig	gesittet	engagiert	versagen	krise	bange	gierig	geizig	engstirnig	1	blank2r.bmp	0	1	+	0	1	blank2r.bmp	500	1	CPLW	500	1	blank2r.bmp	880	5	vergnügt	880	0	0	0	0	0	0	0	0	0	0	0	0
2024-06-12	10:52:08	10:55:43	215254	6.6.1	4_exp_EVA_AWA_CON	82	A	B	Rpleas_acq	Oppo	Rpleas	1pleas	acq_US_unple_nomask	acq1_nomask	1	20	0	0	300	300	0	0	544	46	1	0	anregung	sonnig	kreativ	träumen	vergnügt	genießen	ausrottung	sterben	krank	töten	verbissen	gemein	vertrauen	kuss	besonnen	gütig	gesittet	engagiert	versagen	krise	bange	gierig	geizig	engstirnig	1	blank2r.bmp	0	1	+	0	1	blank2r.bmp	500	1	DHJF	500	1	blank2r.bmp	880	6	gemein	880	0	0	0	0	0	0	0	0	0	0	0	0
2024-06-12	10:52:08	10:55:46	217838	6.6.1	4_exp_EVA_AWA_CON	82	A	B	Rpleas_acq	Oppo	Rpleas	1pleas	acq_new_unple_nomask	acq1_nomask	1	21	0	0	300	300	0	0	1097	46	1	0	anregung	sonnig	kreativ	träumen	vergnügt	genießen	ausrottung	sterben	krank	töten	verbissen	gemein	vertrauen	kuss	besonnen	gütig	gesittet	engagiert	versagen	krise	bange	gierig	geizig	engstirnig	1	blank2r.bmp	0	1	+	0	1	blank2r.bmp	500	6	C2r.bmp	500	1	blank2r.bmp	880	3	bange	880	0	0	0	0	0	0	0	0	0	0	0	0
2024-06-12	10:52:08	10:55:48	220150	6.6.1	4_exp_EVA_AWA_CON	82	A	B	Rpleas_acq	Oppo	Rpleas	1pleas	acq_US_pleas_nomask	acq1_nomask	1	22	0	0	300	300	0	0	827	50	1	0	anregung	sonnig	kreativ	träumen	vergnügt	genießen	ausrottung	sterben	krank	töten	verbissen	gemein	vertrauen	kuss	besonnen	gütig	gesittet	engagiert	versagen	krise	bange	gierig	geizig	engstirnig	1	blank2r.bmp	0	1	+	0	1	blank2r.bmp	500	1	CPLW	500	1	blank2r.bmp	880	3	kreativ	880	0	0	0	0	0	0	0	0	0	0	0	0
2024-06-12	10:52:08	10:55:50	222415	6.6.1	4_exp_EVA_AWA_CON	82	A	B	Rpleas_acq	Oppo	Rpleas	1pleas	acq_new_unple_nomask	acq1_nomask	1	23	0	0	300	300	0	0	780	46	1	0	anregung	sonnig	kreativ	träumen	vergnügt	genießen	ausrottung	sterben	krank	töten	verbissen	gemein	vertrauen	kuss	besonnen	gütig	gesittet	engagiert	versagen	krise	bange	gierig	geizig	engstirnig	1	blank2r.bmp	0	1	+	0	1	blank2r.bmp	500	1	B1r.bmp	500	1	blank2r.bmp	880	2	krise	880	0	0	0	0	0	0	0	0	0	0	0	0
2024-06-12	10:52:08	10:55:53	224847	6.6.1	4_exp_EVA_AWA_CON	82	A	B	Rpleas_acq	Oppo	Rpleas	1pleas	acq_new_unple_nomask	acq1_nomask	1	24	0	0	300	300	0	0	951	46	1	0	anregung	sonnig	kreativ	träumen	vergnügt	genießen	ausrottung	sterben	krank	töten	verbissen	gemein	vertrauen	kuss	besonnen	gütig	gesittet	engagiert	versagen	krise	bange	gierig	geizig	engstirnig	1	blank2r.bmp	0	1	+	0	1	blank2r.bmp	500	5	C1r.bmp	500	1	blank2r.bmp	880	6	engstirnig	880	0	0	0	0	0	0	0	0	0	0	0	0
2024-06-12	10:52:08	10:55:55	226990	6.6.1	4_exp_EVA_AWA_CON	82	A	B	Rpleas_acq	Oppo	Rpleas	1pleas	acq_new_pleas_nomask	acq1_nomask	1	25	0	0	300	300	0	0	663	50	1	0	anregung	sonnig	kreativ	träumen	vergnügt	genießen	ausrottung	sterben	krank	töten	verbissen	gemein	vertrauen	kuss	besonnen	gütig	gesittet	engagiert	versagen	krise	bange	gierig	geizig	engstirnig	1	blank2r.bmp	0	1	+	0	1	blank2r.bmp	500	7	C3r.bmp	500	1	blank2r.bmp	880	3	besonnen	880	0	0	0	0	0	0	0	0	0	0	0	0
2024-06-12	10:52:08	10:55:57	229374	6.6.1	4_exp_EVA_AWA_CON	82	A	B	Rpleas_acq	Oppo	Rpleas	1pleas	acq_new_unple_nomask	acq1_nomask	1	26	0	0	300	300	0	0	896	46	1	0	anregung	sonnig	kreativ	träumen	vergnügt	genießen	ausrottung	sterben	krank	töten	verbissen	gemein	vertrauen	kuss	besonnen	gütig	gesittet	engagiert	versagen	krise	bange	gierig	geizig	engstirnig	1	blank2r.bmp	0	1	+	0	1	blank2r.bmp	500	4	B4r.bmp	500	1	blank2r.bmp	880	3	bange	880	0	0	0	0	0	0	0	0	0	0	0	0
2024-06-12	10:52:08	10:55:59	231471	6.6.1	4_exp_EVA_AWA_CON	82	A	B	Rpleas_acq	Oppo	Rpleas	1pleas	acq_US_unple_nomask	acq1_nomask	1	27	0	0	300	300	0	0	610	46	1	0	anregung	sonnig	kreativ	träumen	vergnügt	genießen	ausrottung	sterben	krank	töten	verbissen	gemein	vertrauen	kuss	besonnen	gütig	gesittet	engagiert	versagen	krise	bange	gierig	geizig	engstirnig	1	blank2r.bmp	0	1	+	0	1	blank2r.bmp	500	1	DHJF	500	1	blank2r.bmp	880	2	sterben	880	0	0	0	0	0	0	0	0	0	0	0	0
2024-06-12	10:52:08	10:56:02	233710	6.6.1	4_exp_EVA_AWA_CON	82	A	B	Rpleas_acq	Oppo	Rpleas	1pleas	acq_new_unple_nomask	acq1_nomask	1	28	0	0	300	300	0	0	759	46	1	0	anregung	sonnig	kreativ	träumen	vergnügt	genießen	ausrottung	sterben	krank	töten	verbissen	gemein	vertrauen	kuss	besonnen	gütig	gesittet	engagiert	versagen	krise	bange	gierig	geizig	engstirnig	1	blank2r.bmp	0	1	+	0	1	blank2r.bmp	500	8	C4r.bmp	500	1	blank2r.bmp	880	4	gierig	880	0	0	0	0	0	0	0	0	0	0	0	0
2024-06-12	10:52:08	10:56:04	235974	6.6.1	4_exp_EVA_AWA_CON	82	A	B	Rpleas_acq	Oppo	Rpleas	1pleas	acq_US_pleas_nomask	acq1_nomask	1	29	0	0	300	300	0	0	781	50	1	0	anregung	sonnig	kreativ	träumen	vergnügt	genießen	ausrottung	sterben	krank	töten	verbissen	gemein	vertrauen	kuss	besonnen	gütig	gesittet	engagiert	versagen	krise	bange	gierig	geizig	engstirnig	1	blank2r.bmp	0	1	+	0	1	blank2r.bmp	500	1	CPLW	500	1	blank2r.bmp	880	5	vergnügt	880	0	0	0	0	0	0	0	0	0	0	0	0
2024-06-12	10:52:08	10:56:06	238175	6.6.1	4_exp_EVA_AWA_CON	82	A	B	Rpleas_acq	Oppo	Rpleas	1pleas	acq_US_unple_nomask	acq1_nomask	1	30	0	0	300	300	0	0	710	46	1	0	anregung	sonnig	kreativ	träumen	vergnügt	genießen	ausrottung	sterben	krank	töten	verbissen	gemein	vertrauen	kuss	besonnen	gütig	gesittet	engagiert	versagen	krise	bange	gierig	geizig	engstirnig	1	blank2r.bmp	0	1	+	0	1	blank2r.bmp	500	1	DHJF	500	1	blank2r.bmp	880	4	töten	880	0	0	0	0	0	0	0	0	0	0	0	0
2024-06-12	10:52:08	10:56:09	240607	6.6.1	4_exp_EVA_AWA_CON	82	A	B	Rpleas_acq	Oppo	Rpleas	1pleas	acq_US_unple_nomask	acq1_nomask	1	31	0	0	300	300	0	0	950	46	1	0	anregung	sonnig	kreativ	träumen	vergnügt	genießen	ausrottung	sterben	krank	töten	verbissen	gemein	vertrauen	kuss	besonnen	gütig	gesittet	engagiert	versagen	krise	bange	gierig	geizig	engstirnig	1	blank2r.bmp	0	1	+	0	1	blank2r.bmp	500	1	DHJF	500	1	blank2r.bmp	880	5	verbissen	880	0	0	0	0	0	0	0	0	0	0	0	0
2024-06-12	10:52:08	10:56:11	242582	6.6.1	4_exp_EVA_AWA_CON	82	A	B	Rpleas_acq	Oppo	Rpleas	1pleas	acq_new_pleas_nomask	acq1_nomask	1	32	0	0	300	300	0	0	495	50	1	0	anregung	sonnig	kreativ	träumen	vergnügt	genießen	ausrottung	sterben	krank	töten	verbissen	gemein	vertrauen	kuss	besonnen	gütig	gesittet	engagiert	versagen	krise	bange	gierig	geizig	engstirnig	1	blank2r.bmp	0	1	+	0	1	blank2r.bmp	500	3	B3r.bmp	500	1	blank2r.bmp	880	1	vertrauen	880	0	0	0	0	0	0	0	0	0	0	0	0
2024-06-12	10:52:08	10:56:13	244702	6.6.1	4_exp_EVA_AWA_CON	82	A	B	Rpleas_acq	Oppo	Rpleas	1pleas	acq_US_pleas_nomask	acq1_nomask	1	33	0	0	300	300	0	0	634	50	1	0	anregung	sonnig	kreativ	träumen	vergnügt	genießen	ausrottung	sterben	krank	töten	verbissen	gemein	vertrauen	kuss	besonnen	gütig	gesittet	engagiert	versagen	krise	bange	gierig	geizig	engstirnig	1	blank2r.bmp	0	1	+	0	1	blank2r.bmp	500	1	CPLW	500	1	blank2r.bmp	880	2	sonnig	880	0	0	0	0	0	0	0	0	0	0	0	0
2024-06-12	10:52:08	10:56:15	246911	6.6.1	4_exp_EVA_AWA_CON	82	A	B	Rpleas_acq	Oppo	Rpleas	1pleas	acq_new_unple_nomask	acq1_nomask	1	34	0	0	300	300	0	0	720	46	1	0	anregung	sonnig	kreativ	träumen	vergnügt	genießen	ausrottung	sterben	krank	töten	verbissen	gemein	vertrauen	kuss	besonnen	gütig	gesittet	engagiert	versagen	krise	bange	gierig	geizig	engstirnig	1	blank2r.bmp	0	1	+	0	1	blank2r.bmp	500	4	B4r.bmp	500	1	blank2r.bmp	880	6	engstirnig	880	0	0	0	0	0	0	0	0	0	0	0	0
2024-06-12	10:52:08	10:56:17	249198	6.6.1	4_exp_EVA_AWA_CON	82	A	B	Rpleas_acq	Oppo	Rpleas	1pleas	acq_new_pleas_nomask	acq1_nomask	1	35	0	0	300	300	0	0	807	50	1	0	anregung	sonnig	kreativ	träumen	vergnügt	genießen	ausrottung	sterben	krank	töten	verbissen	gemein	vertrauen	kuss	besonnen	gütig	gesittet	engagiert	versagen	krise	bange	gierig	geizig	engstirnig	1	blank2r.bmp	0	1	+	0	1	blank2r.bmp	500	7	C3r.bmp	500	1	blank2r.bmp	880	5	gesittet	880	0	0	0	0	0	0	0	0	0	0	0	0
2024-06-12	10:52:08	10:56:19	251310	6.6.1	4_exp_EVA_AWA_CON	82	A	B	Rpleas_acq	Oppo	Rpleas	1pleas	acq_US_pleas_nomask	acq1_nomask	1	36	0	0	300	300	0	0	627	50	1	0	anregung	sonnig	kreativ	träumen	vergnügt	genießen	ausrottung	sterben	krank	töten	verbissen	gemein	vertrauen	kuss	besonnen	gütig	gesittet	engagiert	versagen	krise	bange	gierig	geizig	engstirnig	1	blank2r.bmp	0	1	+	0	1	blank2r.bmp	500	1	CPLW	500	1	blank2r.bmp	880	6	genießen	880	0	0	0	0	0	0	0	0	0	0	0	0
2024-06-12	10:52:08	10:56:47	278632	6.6.1	4_exp_EVA_AWA_CON	82	A	B	Rpleas_acq	Oppo	Rpleas	1pleas	acq_US_unple_nomask	acq2_nomask	2	1	480	0	300	300	0	0	992	46	1	0	anregung	sonnig	kreativ	träumen	vergnügt	genießen	ausrottung	sterben	krank	töten	verbissen	gemein	vertrauen	kuss	besonnen	gütig	gesittet	engagiert	versagen	krise	bange	gierig	geizig	engstirnig	1	blank2r.bmp	0	1	+	0	1	blank2r.bmp	500	1	DHJF	500	1	blank2r.bmp	880	3	krank	880	1	!	1312	1	!	-1	0	0	0	0	0	0
2024-06-12	10:52:08	10:56:49	281184	6.6.1	4_exp_EVA_AWA_CON	82	A	B	Rpleas_acq	Oppo	Rpleas	1pleas	acq_new_unple_nomask	acq2_nomask	2	2	480	0	300	300	0	0	772	46	1	0	anregung	sonnig	kreativ	träumen	vergnügt	genießen	ausrottung	sterben	krank	töten	verbissen	gemein	vertrauen	kuss	besonnen	gütig	gesittet	engagiert	versagen	krise	bange	gierig	geizig	engstirnig	1	blank2r.bmp	0	1	+	0	1	blank2r.bmp	500	3	B3r.bmp	500	1	blank2r.bmp	880	2	krise	880	1	!	1312	1	!	-1	0	0	0	0	0	0
2024-06-12	10:52:08	10:56:56	287828	6.6.1	4_exp_EVA_AWA_CON	82	A	B	Rpleas_acq	Oppo	Rpleas	1pleas	acq_US_pleas_nomask	acq2_nomask	2	3	480	0	300	300	0	0	4661	46	0	0	anregung	sonnig	kreativ	träumen	vergnügt	genießen	ausrottung	sterben	krank	töten	verbissen	gemein	vertrauen	kuss	besonnen	gütig	gesittet	engagiert	versagen	krise	bange	gierig	geizig	engstirnig	1	blank2r.bmp	0	1	+	0	1	blank2r.bmp	500	1	CPLW	500	1	blank2r.bmp	880	1	anregung	880	1	FEHLER	5855	1	!	1313	1	!	-1	0	0	0
2024-06-12	10:52:08	10:56:58	290296	6.6.1	4_exp_EVA_AWA_CON	82	A	B	Rpleas_acq	Oppo	Rpleas	1pleas	acq_new_unple_nomask	acq2_nomask	2	4	480	0	300	300	0	0	899	46	1	0	anregung	sonnig	kreativ	träumen	vergnügt	genießen	ausrottung	sterben	krank	töten	verbissen	gemein	vertrauen	kuss	besonnen	gütig	gesittet	engagiert	versagen	krise	bange	gierig	geizig	engstirnig	1	blank2r.bmp	0	1	+	0	1	blank2r.bmp	500	1	B1r.bmp	500	1	blank2r.bmp	880	5	geizig	880	1	!	1312	1	!	-1	0	0	0	0	0	0
2024-06-12	10:52:08	10:57:01	292840	6.6.1	4_exp_EVA_AWA_CON	82	A	B	Rpleas_acq	Oppo	Rpleas	1pleas	acq_new_pleas_nomask	acq2_nomask	2	5	480	0	300	300	0	0	771	50	1	0	anregung	sonnig	kreativ	träumen	vergnügt	genießen	ausrottung	sterben	krank	töten	verbissen	gemein	vertrauen	kuss	besonnen	gütig	gesittet	engagiert	versagen	krise	bange	gierig	geizig	engstirnig	1	blank2r.bmp	0	1	+	0	1	blank2r.bmp	500	8	C4r.bmp	500	1	blank2r.bmp	880	6	engagiert	880	1	!	1312	1	!	-1	0	0	0	0	0	0
2024-06-12	10:52:08	10:57:03	295360	6.6.1	4_exp_EVA_AWA_CON	82	A	B	Rpleas_acq	Oppo	Rpleas	1pleas	acq_US_pleas_nomask	acq2_nomask	2	6	480	0	300	300	0	0	739	50	1	0	anregung	sonnig	kreativ	träumen	vergnügt	genießen	ausrottung	sterben	krank	töten	verbissen	gemein	vertrauen	kuss	besonnen	gütig	gesittet	engagiert	versagen	krise	bange	gierig	geizig	engstirnig	1	blank2r.bmp	0	1	+	0	1	blank2r.bmp	500	1	CPLW	500	1	blank2r.bmp	880	4	träumen	880	1	!	1312	1	!	-1	0	0	0	0	0	0
2024-06-12	10:52:08	10:57:06	297658	6.6.1	4_exp_EVA_AWA_CON	82	A	B	Rpleas_acq	Oppo	Rpleas	1pleas	acq_new_pleas_nomask	acq2_nomask	2	7	480	1	300	300	0	0	524	50	1	0	anregung	sonnig	kreativ	träumen	vergnügt	genießen	ausrottung	sterben	krank	töten	verbissen	gemein	vertrauen	kuss	besonnen	gütig	gesittet	engagiert	versagen	krise	bange	gierig	geizig	engstirnig	1	blank2r.bmp	0	1	+	0	1	blank2r.bmp	500	5	C1r.bmp	500	1	blank2r.bmp	880	2	kuss	880	1	!	1312	1	!	1425	0	0	0	0	0	0
2024-06-12	10:52:08	10:57:10	301784	6.6.1	4_exp_EVA_AWA_CON	82	A	B	Rpleas_acq	Oppo	Rpleas	1pleas	acq_US_pleas_nomask	acq2_nomask	2	8	480	0	300	300	0	0	2350	50	1	0	anregung	sonnig	kreativ	träumen	vergnügt	genießen	ausrottung	sterben	krank	töten	verbissen	gemein	vertrauen	kuss	besonnen	gütig	gesittet	engagiert	versagen	krise	bange	gierig	geizig	engstirnig	1	blank2r.bmp	0	1	+	0	1	blank2r.bmp	500	1	CPLW	500	1	blank2r.bmp	880	3	kreativ	880	1	!	1312	1	!	-1	0	0	0	0	0	0
2024-06-12	10:52:08	10:57:12	304128	6.6.1	4_exp_EVA_AWA_CON	82	A	B	Rpleas_acq	Oppo	Rpleas	1pleas	acq_US_unple_nomask	acq2_nomask	2	9	480	0	300	300	0	0	571	46	1	0	anregung	sonnig	kreativ	träumen	vergnügt	genießen	ausrottung	sterben	krank	töten	verbissen	gemein	vertrauen	kuss	besonnen	gütig	gesittet	engagiert	versagen	krise	bange	gierig	geizig	engstirnig	1	blank2r.bmp	0	1	+	0	1	blank2r.bmp	500	1	DHJF	500	1	blank2r.bmp	880	1	ausrottung	880	1	!	1312	1	!	-1	0	0	0	0	0	0
2024-06-12	10:52:08	10:57:15	307035	6.6.1	4_exp_EVA_AWA_CON	82	A	B	Rpleas_acq	Oppo	Rpleas	1pleas	acq_US_unple_nomask	acq2_nomask	2	10	480	0	300	300	0	0	924	50	0	0	anregung	sonnig	kreativ	träumen	vergnügt	genießen	ausrottung	sterben	krank	töten	verbissen	gemein	vertrauen	kuss	besonnen	gütig	gesittet	engagiert	versagen	krise	bange	gierig	geizig	engstirnig	1	blank2r.bmp	0	1	+	0	1	blank2r.bmp	500	1	DHJF	500	1	blank2r.bmp	880	6	gemein	880	1	FEHLER	2117	1	!	1313	1	!	-1	0	0	0
2024-06-12	10:52:08	10:57:21	312528	6.6.1	4_exp_EVA_AWA_CON	82	A	B	Rpleas_acq	Oppo	Rpleas	1pleas	acq_new_pleas_nomask	acq2_nomask	2	11	480	0	300	300	0	0	3918	50	1	0	anregung	sonnig	kreativ	träumen	vergnügt	genießen	ausrottung	sterben	krank	töten	verbissen	gemein	vertrauen	kuss	besonnen	gütig	gesittet	engagiert	versagen	krise	bange	gierig	geizig	engstirnig	1	blank2r.bmp	0	1	+	0	1	blank2r.bmp	500	6	C2r.bmp	500	1	blank2r.bmp	880	4	gütig	880	1	!	1312	1	!	-1	0	0	0	0	0	0
2024-06-12	10:52:08	10:57:23	315048	6.6.1	4_exp_EVA_AWA_CON	82	A	B	Rpleas_acq	Oppo	Rpleas	1pleas	acq_new_unple_nomask	acq2_nomask	2	12	480	0	300	300	0	0	745	46	1	0	anregung	sonnig	kreativ	träumen	vergnügt	genießen	ausrottung	sterben	krank	töten	verbissen	gemein	vertrauen	kuss	besonnen	gütig	gesittet	engagiert	versagen	krise	bange	gierig	geizig	engstirnig	1	blank2r.bmp	0	1	+	0	1	blank2r.bmp	500	2	B2r.bmp	500	1	blank2r.bmp	880	1	versagen	880	1	!	1312	1	!	-1	0	0	0	0	0	0
2024-06-12	10:52:08	10:57:26	317504	6.6.1	4_exp_EVA_AWA_CON	82	A	B	Rpleas_acq	Oppo	Rpleas	1pleas	acq_US_pleas_nomask	acq2_nomask	2	13	480	0	300	300	0	0	679	50	1	0	anregung	sonnig	kreativ	träumen	vergnügt	genießen	ausrottung	sterben	krank	töten	verbissen	gemein	vertrauen	kuss	besonnen	gütig	gesittet	engagiert	versagen	krise	bange	gierig	geizig	engstirnig	1	blank2r.bmp	0	1	+	0	1	blank2r.bmp	500	1	CPLW	500	1	blank2r.bmp	880	4	träumen	880	1	!	1312	1	!	-1	0	0	0	0	0	0
2024-06-12	10:52:08	10:57:28	320032	6.6.1	4_exp_EVA_AWA_CON	82	A	B	Rpleas_acq	Oppo	Rpleas	1pleas	acq_new_pleas_nomask	acq2_nomask	2	14	480	0	300	300	0	0	756	50	1	0	anregung	sonnig	kreativ	träumen	vergnügt	genießen	ausrottung	sterben	krank	töten	verbissen	gemein	vertrauen	kuss	besonnen	gütig	gesittet	engagiert	versagen	krise	bange	gierig	geizig	engstirnig	1	blank2r.bmp	0	1	+	0	1	blank2r.bmp	500	7	C3r.bmp	500	1	blank2r.bmp	880	6	engagiert	880	1	!	1312	1	!	-1	0	0	0	0	0	0
2024-06-12	10:52:08	10:57:31	322480	6.6.1	4_exp_EVA_AWA_CON	82	A	B	Rpleas_acq	Oppo	Rpleas	1pleas	acq_new_unple_nomask	acq2_nomask	2	15	480	0	300	300	0	0	672	46	1	0	anregung	sonnig	kreativ	träumen	vergnügt	genießen	ausrottung	sterben	krank	töten	verbissen	gemein	vertrauen	kuss	besonnen	gütig	gesittet	engagiert	versagen	krise	bange	gierig	geizig	engstirnig	1	blank2r.bmp	0	1	+	0	1	blank2r.bmp	500	8	C4r.bmp	500	1	blank2r.bmp	880	2	krise	880	1	!	1312	1	!	-1	0	0	0	0	0	0
2024-06-12	10:52:08	10:57:33	325139	6.6.1	4_exp_EVA_AWA_CON	82	A	B	Rpleas_acq	Oppo	Rpleas	1pleas	acq_new_unple_nomask	acq2_nomask	2	16	480	0	300	300	0	0	676	50	0	0	anregung	sonnig	kreativ	träumen	vergnügt	genießen	ausrottung	sterben	krank	töten	verbissen	gemein	vertrauen	kuss	besonnen	gütig	gesittet	engagiert	versagen	krise	bange	gierig	geizig	engstirnig	1	blank2r.bmp	0	1	+	0	1	blank2r.bmp	500	6	C2r.bmp	500	1	blank2r.bmp	880	6	engstirnig	880	1	FEHLER	1869	1	!	1312	1	!	-1	0	0	0
2024-06-12	10:52:08	10:57:35	327433	6.6.1	4_exp_EVA_AWA_CON	82	A	B	Rpleas_acq	Oppo	Rpleas	1pleas	acq_US_pleas_nomask	acq2_nomask	2	17	480	0	300	300	0	0	721	50	1	0	anregung	sonnig	kreativ	träumen	vergnügt	genießen	ausrottung	sterben	krank	töten	verbissen	gemein	vertrauen	kuss	besonnen	gütig	gesittet	engagiert	versagen	krise	bange	gierig	geizig	engstirnig	1	blank2r.bmp	0	1	+	0	1	blank2r.bmp	500	1	CPLW	500	1	blank2r.bmp	880	6	genießen	880	1	!	1313	1	!	-1	0	0	0	0	0	0
2024-06-12	10:52:08	10:57:38	329840	6.6.1	4_exp_EVA_AWA_CON	82	A	B	Rpleas_acq	Oppo	Rpleas	1pleas	acq_US_unple_nomask	acq2_nomask	2	18	480	0	300	300	0	0	627	46	1	0	anregung	sonnig	kreativ	träumen	vergnügt	genießen	ausrottung	sterben	krank	töten	verbissen	gemein	vertrauen	kuss	besonnen	gütig	gesittet	engagiert	versagen	krise	bange	gierig	geizig	engstirnig	1	blank2r.bmp	0	1	+	0	1	blank2r.bmp	500	1	DHJF	500	1	blank2r.bmp	880	6	gemein	880	1	!	1313	1	!	-1	0	0	0	0	0	0
2024-06-12	10:52:08	10:57:40	332264	6.6.1	4_exp_EVA_AWA_CON	82	A	B	Rpleas_acq	Oppo	Rpleas	1pleas	acq_new_pleas_nomask	acq2_nomask	2	19	480	0	300	300	0	0	650	50	1	0	anregung	sonnig	kreativ	träumen	vergnügt	genießen	ausrottung	sterben	krank	töten	verbissen	gemein	vertrauen	kuss	besonnen	gütig	gesittet	engagiert	versagen	krise	bange	gierig	geizig	engstirnig	1	blank2r.bmp	0	1	+	0	1	blank2r.bmp	500	4	B4r.bmp	500	1	blank2r.bmp	880	4	gütig	880	1	!	1312	1	!	-1	0	0	0	0	0	0
2024-06-12	10:52:08	10:57:43	334777	6.6.1	4_exp_EVA_AWA_CON	82	A	B	Rpleas_acq	Oppo	Rpleas	1pleas	acq_US_pleas_nomask	acq2_nomask	2	20	480	0	300	300	0	0	740	50	1	0	anregung	sonnig	kreativ	träumen	vergnügt	genießen	ausrottung	sterben	krank	töten	verbissen	gemein	vertrauen	kuss	besonnen	gütig	gesittet	engagiert	versagen	krise	bange	gierig	geizig	engstirnig	1	blank2r.bmp	0	1	+	0	1	blank2r.bmp	500	1	CPLW	500	1	blank2r.bmp	880	2	sonnig	880	1	!	1312	1	!	-1	0	0	0	0	0	0
2024-06-12	10:52:08	10:57:45	337184	6.6.1	4_exp_EVA_AWA_CON	82	A	B	Rpleas_acq	Oppo	Rpleas	1pleas	acq_US_unple_nomask	acq2_nomask	2	21	480	0	300	300	0	0	626	46	1	0	anregung	sonnig	kreativ	träumen	vergnügt	genießen	ausrottung	sterben	krank	töten	verbissen	gemein	vertrauen	kuss	besonnen	gütig	gesittet	engagiert	versagen	krise	bange	gierig	geizig	engstirnig	1	blank2r.bmp	0	1	+	0	1	blank2r.bmp	500	1	DHJF	500	1	blank2r.bmp	880	3	krank	880	1	!	1312	1	!	-1	0	0	0	0	0	0
2024-06-12	10:52:08	10:57:47	339426	6.6.1	4_exp_EVA_AWA_CON	82	A	B	Rpleas_acq	Oppo	Rpleas	1pleas	acq_new_pleas_nomask	acq2_nomask	2	22	480	1	300	300	0	0	465	50	1	0	anregung	sonnig	kreativ	träumen	vergnügt	genießen	ausrottung	sterben	krank	töten	verbissen	gemein	vertrauen	kuss	besonnen	gütig	gesittet	engagiert	versagen	krise	bange	gierig	geizig	engstirnig	1	blank2r.bmp	0	1	+	0	1	blank2r.bmp	500	3	B3r.bmp	500	1	blank2r.bmp	880	3	besonnen	880	1	!	1312	1	!	1366	0	0	0	0	0	0
2024-06-12	10:52:08	10:57:50	341552	6.6.1	4_exp_EVA_AWA_CON	82	A	B	Rpleas_acq	Oppo	Rpleas	1pleas	acq_US_unple_nomask	acq2_nomask	2	23	480	0	300	300	0	0	351	46	1	0	anregung	sonnig	kreativ	träumen	vergnügt	genießen	ausrottung	sterben	krank	töten	verbissen	gemein	vertrauen	kuss	besonnen	gütig	gesittet	engagiert	versagen	krise	bange	gierig	geizig	engstirnig	1	blank2r.bmp	0	1	+	0	1	blank2r.bmp	500	1	DHJF	500	1	blank2r.bmp	880	1	ausrottung	880	1	!	-1	1	!	-1	0	0	0	0	0	0
2024-06-12	10:52:08	10:57:52	344216	6.6.1	4_exp_EVA_AWA_CON	82	A	B	Rpleas_acq	Oppo	Rpleas	1pleas	acq_new_unple_nomask	acq2_nomask	2	24	480	0	300	300	0	0	884	46	1	0	anregung	sonnig	kreativ	träumen	vergnügt	genießen	ausrottung	sterben	krank	töten	verbissen	gemein	vertrauen	kuss	besonnen	gütig	gesittet	engagiert	versagen	krise	bange	gierig	geizig	engstirnig	1	blank2r.bmp	0	1	+	0	1	blank2r.bmp	500	1	B1r.bmp	500	1	blank2r.bmp	880	5	geizig	880	1	!	1312	1	!	-1	0	0	0	0	0	0
2024-06-12	10:52:08	10:57:54	346336	6.6.1	4_exp_EVA_AWA_CON	82	A	B	Rpleas_acq	Oppo	Rpleas	1pleas	acq_US_pleas_nomask	acq2_nomask	2	25	480	0	300	300	0	0	342	50	1	0	anregung	sonnig	kreativ	träumen	vergnügt	genießen	ausrottung	sterben	krank	töten	verbissen	gemein	vertrauen	kuss	besonnen	gütig	gesittet	engagiert	versagen	krise	bange	gierig	geizig	engstirnig	1	blank2r.bmp	0	1	+	0	1	blank2r.bmp	500	1	CPLW	500	1	blank2r.bmp	880	5	vergnügt	880	1	!	-1	1	!	-1	0	0	0	0	0	0
2024-06-12	10:52:08	10:57:57	348872	6.6.1	4_exp_EVA_AWA_CON	82	A	B	Rpleas_acq	Oppo	Rpleas	1pleas	acq_new_unple_nomask	acq2_nomask	2	26	480	0	300	300	0	0	757	46	1	0	anregung	sonnig	kreativ	träumen	vergnügt	genießen	ausrottung	sterben	krank	töten	verbissen	gemein	vertrauen	kuss	besonnen	gütig	gesittet	engagiert	versagen	krise	bange	gierig	geizig	engstirnig	1	blank2r.bmp	0	1	+	0	1	blank2r.bmp	500	5	C1r.bmp	500	1	blank2r.bmp	880	3	bange	880	1	!	1312	1	!	-1	0	0	0	0	0	0
2024-06-12	10:52:08	10:57:59	351194	6.6.1	4_exp_EVA_AWA_CON	82	A	B	Rpleas_acq	Oppo	Rpleas	1pleas	acq_new_unple_nomask	acq2_nomask	2	27	480	1	300	300	0	0	545	46	1	0	anregung	sonnig	kreativ	träumen	vergnügt	genießen	ausrottung	sterben	krank	töten	verbissen	gemein	vertrauen	kuss	besonnen	gütig	gesittet	engagiert	versagen	krise	bange	gierig	geizig	engstirnig	1	blank2r.bmp	0	1	+	0	1	blank2r.bmp	500	2	B2r.bmp	500	1	blank2r.bmp	880	1	versagen	880	1	!	1312	1	!	1447	0	0	0	0	0	0
2024-06-12	10:52:08	10:58:02	353747	6.6.1	4_exp_EVA_AWA_CON	82	A	B	Rpleas_acq	Oppo	Rpleas	1pleas	acq_US_pleas_nomask	acq2_nomask	2	28	480	0	300	300	0	0	576	46	0	0	anregung	sonnig	kreativ	träumen	vergnügt	genießen	ausrottung	sterben	krank	töten	verbissen	gemein	vertrauen	kuss	besonnen	gütig	gesittet	engagiert	versagen	krise	bange	gierig	geizig	engstirnig	1	blank2r.bmp	0	1	+	0	1	blank2r.bmp	500	1	CPLW	500	1	blank2r.bmp	880	3	kreativ	880	1	FEHLER	1769	1	!	1313	1	!	-1	0	0	0
2024-06-12	10:52:08	10:58:04	355976	6.6.1	4_exp_EVA_AWA_CON	82	A	B	Rpleas_acq	Oppo	Rpleas	1pleas	acq_US_unple_nomask	acq2_nomask	2	29	480	0	300	300	0	0	656	46	1	0	anregung	sonnig	kreativ	träumen	vergnügt	genießen	ausrottung	sterben	krank	töten	verbissen	gemein	vertrauen	kuss	besonnen	gütig	gesittet	engagiert	versagen	krise	bange	gierig	geizig	engstirnig	1	blank2r.bmp	0	1	+	0	1	blank2r.bmp	500	1	DHJF	500	1	blank2r.bmp	880	4	töten	880	1	!	1313	1	!	-1	0	0	0	0	0	0
2024-06-12	10:52:08	10:58:06	358427	6.6.1	4_exp_EVA_AWA_CON	82	A	B	Rpleas_acq	Oppo	Rpleas	1pleas	acq_new_pleas_nomask	acq2_nomask	2	30	480	1	300	300	0	0	473	46	0	0	anregung	sonnig	kreativ	träumen	vergnügt	genießen	ausrottung	sterben	krank	töten	verbissen	gemein	vertrauen	kuss	besonnen	gütig	gesittet	engagiert	versagen	krise	bange	gierig	geizig	engstirnig	1	blank2r.bmp	0	1	+	0	1	blank2r.bmp	500	4	B4r.bmp	500	1	blank2r.bmp	880	5	gesittet	880	1	FEHLER	1666	1	!	1312	1	!	1374	0	0	0
2024-06-12	10:52:08	10:58:10	361776	6.6.1	4_exp_EVA_AWA_CON	82	A	B	Rpleas_acq	Oppo	Rpleas	1pleas	acq_US_unple_nomask	acq2_nomask	2	31	480	0	300	300	0	0	1773	46	1	0	anregung	sonnig	kreativ	träumen	vergnügt	genießen	ausrottung	sterben	krank	töten	verbissen	gemein	vertrauen	kuss	besonnen	gütig	gesittet	engagiert	versagen	krise	bange	gierig	geizig	engstirnig	1	blank2r.bmp	0	1	+	0	1	blank2r.bmp	500	1	DHJF	500	1	blank2r.bmp	880	5	verbissen	880	1	!	1312	1	!	-1	0	0	0	0	0	0
2024-06-12	10:52:08	10:58:12	364034	6.6.1	4_exp_EVA_AWA_CON	82	A	B	Rpleas_acq	Oppo	Rpleas	1pleas	acq_US_pleas_nomask	acq2_nomask	2	32	480	1	300	300	0	0	477	50	1	0	anregung	sonnig	kreativ	träumen	vergnügt	genießen	ausrottung	sterben	krank	töten	verbissen	gemein	vertrauen	kuss	besonnen	gütig	gesittet	engagiert	versagen	krise	bange	gierig	geizig	engstirnig	1	blank2r.bmp	0	1	+	0	1	blank2r.bmp	500	1	CPLW	500	1	blank2r.bmp	880	1	anregung	880	1	!	1312	1	!	1378	0	0	0	0	0	0
2024-06-12	10:52:08	10:58:15	366594	6.6.1	4_exp_EVA_AWA_CON	82	A	B	Rpleas_acq	Oppo	Rpleas	1pleas	acq_new_unple_nomask	acq2_nomask	2	33	480	0	300	300	0	0	586	50	0	0	anregung	sonnig	kreativ	träumen	vergnügt	genießen	ausrottung	sterben	krank	töten	verbissen	gemein	vertrauen	kuss	besonnen	gütig	gesittet	engagiert	versagen	krise	bange	gierig	geizig	engstirnig	1	blank2r.bmp	0	1	+	0	1	blank2r.bmp	500	1	B1r.bmp	500	1	blank2r.bmp	880	4	gierig	880	1	FEHLER	1778	1	!	1312	1	!	-1	0	0	0
2024-06-12	10:52:08	10:58:17	368952	6.6.1	4_exp_EVA_AWA_CON	82	A	B	Rpleas_acq	Oppo	Rpleas	1pleas	acq_new_pleas_nomask	acq2_nomask	2	34	480	0	300	300	0	0	784	50	1	0	anregung	sonnig	kreativ	träumen	vergnügt	genießen	ausrottung	sterben	krank	töten	verbissen	gemein	vertrauen	kuss	besonnen	gütig	gesittet	engagiert	versagen	krise	bange	gierig	geizig	engstirnig	1	blank2r.bmp	0	1	+	0	1	blank2r.bmp	500	3	B3r.bmp	500	1	blank2r.bmp	880	2	kuss	880	1	!	1313	1	!	-1	0	0	0	0	0	0
2024-06-12	10:52:08	10:58:19	371258	6.6.1	4_exp_EVA_AWA_CON	82	A	B	Rpleas_acq	Oppo	Rpleas	1pleas	acq_US_unple_nomask	acq2_nomask	2	35	480	1	300	300	0	0	527	46	1	0	anregung	sonnig	kreativ	träumen	vergnügt	genießen	ausrottung	sterben	krank	töten	verbissen	gemein	vertrauen	kuss	besonnen	gütig	gesittet	engagiert	versagen	krise	bange	gierig	geizig	engstirnig	1	blank2r.bmp	0	1	+	0	1	blank2r.bmp	500	1	DHJF	500	1	blank2r.bmp	880	2	sterben	880	1	!	1313	1	!	1428	0	0	0	0	0	0
2024-06-12	10:52:08	10:58:22	373704	6.6.1	4_exp_EVA_AWA_CON	82	A	B	Rpleas_acq	Oppo	Rpleas	1pleas	acq_new_pleas_nomask	acq2_nomask	2	36	480	0	300	300	0	0	673	50	1	0	anregung	sonnig	kreativ	träumen	vergnügt	genießen	ausrottung	sterben	krank	töten	verbissen	gemein	vertrauen	kuss	besonnen	gütig	gesittet	engagiert	versagen	krise	bange	gierig	geizig	engstirnig	1	blank2r.bmp	0	1	+	0	1	blank2r.bmp	500	5	C1r.bmp	500	1	blank2r.bmp	880	1	vertrauen	880	1	!	1313	1	!	-1	0	0	0	0	0	0
2024-06-12	10:52:08	10:58:40	392282	6.6.1	4_exp_EVA_AWA_CON	82	A	B	Rpleas_acq	Oppo	Rpleas	1pleas	acq_US_pleas_nomask	acq3_nomask	3	1	453	1	300	300	0	0	487	50	1	0	anregung	sonnig	kreativ	träumen	vergnügt	genießen	ausrottung	sterben	krank	töten	verbissen	gemein	vertrauen	kuss	besonnen	gütig	gesittet	engagiert	versagen	krise	bange	gierig	geizig	engstirnig	1	blank2r.bmp	0	1	+	0	1	blank2r.bmp	500	1	CPLW	500	1	blank2r.bmp	880	2	sonnig	880	1	!	1292	1	!	1388	0	0	0	0	0	0
2024-06-12	10:52:08	10:58:43	394576	6.6.1	4_exp_EVA_AWA_CON	82	A	B	Rpleas_acq	Oppo	Rpleas	1pleas	acq_US_unple_nomask	acq3_nomask	3	2	453	0	300	300	0	0	524	46	1	0	anregung	sonnig	kreativ	träumen	vergnügt	genießen	ausrottung	sterben	krank	töten	verbissen	gemein	vertrauen	kuss	besonnen	gütig	gesittet	engagiert	versagen	krise	bange	gierig	geizig	engstirnig	1	blank2r.bmp	0	1	+	0	1	blank2r.bmp	500	1	DHJF	500	1	blank2r.bmp	880	6	gemein	880	1	!	1293	1	!	-1	0	0	0	0	0	0
2024-06-12	10:52:08	10:58:48	400160	6.6.1	4_exp_EVA_AWA_CON	82	A	B	Rpleas_acq	Oppo	Rpleas	1pleas	acq_US_pleas_nomask	acq3_nomask	3	3	453	0	300	300	0	0	3804	50	1	0	anregung	sonnig	kreativ	träumen	vergnügt	genießen	ausrottung	sterben	krank	töten	verbissen	gemein	vertrauen	kuss	besonnen	gütig	gesittet	engagiert	versagen	krise	bange	gierig	geizig	engstirnig	1	blank2r.bmp	0	1	+	0	1	blank2r.bmp	500	1	CPLW	500	1	blank2r.bmp	880	4	träumen	880	1	!	1292	1	!	-1	0	0	0	0	0	0
2024-06-12	10:52:08	10:58:51	402616	6.6.1	4_exp_EVA_AWA_CON	82	A	B	Rpleas_acq	Oppo	Rpleas	1pleas	acq_US_pleas_nomask	acq3_nomask	3	4	453	0	300	300	0	0	676	50	1	0	anregung	sonnig	kreativ	träumen	vergnügt	genießen	ausrottung	sterben	krank	töten	verbissen	gemein	vertrauen	kuss	besonnen	gütig	gesittet	engagiert	versagen	krise	bange	gierig	geizig	engstirnig	1	blank2r.bmp	0	1	+	0	1	blank2r.bmp	500	1	CPLW	500	1	blank2r.bmp	880	5	vergnügt	880	1	!	1292	1	!	-1	0	0	0	0	0	0
2024-06-12	10:52:08	10:58:53	404776	6.6.1	4_exp_EVA_AWA_CON	82	A	B	Rpleas_acq	Oppo	Rpleas	1pleas	acq_US_unple_nomask	acq3_nomask	3	5	453	0	300	300	0	0	385	46	1	0	anregung	sonnig	kreativ	träumen	vergnügt	genießen	ausrottung	sterben	krank	töten	verbissen	gemein	vertrauen	kuss	besonnen	gütig	gesittet	engagiert	versagen	krise	bange	gierig	geizig	engstirnig	1	blank2r.bmp	0	1	+	0	1	blank2r.bmp	500	1	DHJF	500	1	blank2r.bmp	880	3	krank	880	1	!	-1	1	!	-1	0	0	0	0	0	0
2024-06-12	10:52:08	10:58:55	407104	6.6.1	4_exp_EVA_AWA_CON	82	A	B	Rpleas_acq	Oppo	Rpleas	1pleas	acq_US_pleas_nomask	acq3_nomask	3	6	453	0	300	300	0	0	551	50	1	0	anregung	sonnig	kreativ	träumen	vergnügt	genießen	ausrottung	sterben	krank	töten	verbissen	gemein	vertrauen	kuss	besonnen	gütig	gesittet	engagiert	versagen	krise	bange	gierig	geizig	engstirnig	1	blank2r.bmp	0	1	+	0	1	blank2r.bmp	500	1	CPLW	500	1	blank2r.bmp	880	3	kreativ	880	1	!	1292	1	!	-1	0	0	0	0	0	0
2024-06-12	10:52:08	10:58:57	409370	6.6.1	4_exp_EVA_AWA_CON	82	A	B	Rpleas_acq	Oppo	Rpleas	1pleas	acq_US_unple_nomask	acq3_nomask	3	7	453	1	300	300	0	0	484	46	1	0	anregung	sonnig	kreativ	träumen	vergnügt	genießen	ausrottung	sterben	krank	töten	verbissen	gemein	vertrauen	kuss	besonnen	gütig	gesittet	engagiert	versagen	krise	bange	gierig	geizig	engstirnig	1	blank2r.bmp	0	1	+	0	1	blank2r.bmp	500	1	DHJF	500	1	blank2r.bmp	880	1	ausrottung	880	1	!	1293	1	!	1385	0	0	0	0	0	0
2024-06-12	10:52:08	10:59:00	411808	6.6.1	4_exp_EVA_AWA_CON	82	A	B	Rpleas_acq	Oppo	Rpleas	1pleas	acq_US_unple_nomask	acq3_nomask	3	8	453	0	300	300	0	0	663	46	1	0	anregung	sonnig	kreativ	träumen	vergnügt	genießen	ausrottung	sterben	krank	töten	verbissen	gemein	vertrauen	kuss	besonnen	gütig	gesittet	engagiert	versagen	krise	bange	gierig	geizig	engstirnig	1	blank2r.bmp	0	1	+	0	1	blank2r.bmp	500	1	DHJF	500	1	blank2r.bmp	880	2	sterben	880	1	!	1293	1	!	-1	0	0	0	0	0	0
2024-06-12	10:52:08	10:59:02	414026	6.6.1	4_exp_EVA_AWA_CON	82	A	B	Rpleas_acq	Oppo	Rpleas	1pleas	acq_US_pleas_nomask	acq3_nomask	3	9	453	1	300	300	0	0	437	50	1	0	anregung	sonnig	kreativ	träumen	vergnügt	genießen	ausrottung	sterben	krank	töten	verbissen	gemein	vertrauen	kuss	besonnen	gütig	gesittet	engagiert	versagen	krise	bange	gierig	geizig	engstirnig	1	blank2r.bmp	0	1	+	0	1	blank2r.bmp	500	1	CPLW	500	1	blank2r.bmp	880	6	genießen	880	1	!	1293	1	!	1338	0	0	0	0	0	0
2024-06-12	10:52:08	10:59:04	416234	6.6.1	4_exp_EVA_AWA_CON	82	A	B	Rpleas_acq	Oppo	Rpleas	1pleas	acq_US_unple_nomask	acq3_nomask	3	10	453	1	300	300	0	0	434	46	1	0	anregung	sonnig	kreativ	träumen	vergnügt	genießen	ausrottung	sterben	krank	töten	verbissen	gemein	vertrauen	kuss	besonnen	gütig	gesittet	engagiert	versagen	krise	bange	gierig	geizig	engstirnig	1	blank2r.bmp	0	1	+	0	1	blank2r.bmp	500	1	DHJF	500	1	blank2r.bmp	880	5	verbissen	880	1	!	1292	1	!	1335	0	0	0	0	0	0
2024-06-12	10:52:08	10:59:07	418684	6.6.1	4_exp_EVA_AWA_CON	82	A	B	Rpleas_acq	Oppo	Rpleas	1pleas	acq_US_pleas_nomask	acq3_nomask	3	11	453	1	300	300	0	0	470	46	0	0	anregung	sonnig	kreativ	träumen	vergnügt	genießen	ausrottung	sterben	krank	töten	verbissen	gemein	vertrauen	kuss	besonnen	gütig	gesittet	engagiert	versagen	krise	bange	gierig	geizig	engstirnig	1	blank2r.bmp	0	1	+	0	1	blank2r.bmp	500	1	CPLW	500	1	blank2r.bmp	880	1	anregung	880	1	FEHLER	1664	1	!	1292	1	!	1372	0	0	0
2024-06-12	10:52:08	10:59:09	420939	6.6.1	4_exp_EVA_AWA_CON	82	A	B	Rpleas_acq	Oppo	Rpleas	1pleas	acq_US_unple_nomask	acq3_nomask	3	12	453	1	300	300	0	0	475	50	0	0	anregung	sonnig	kreativ	träumen	vergnügt	genießen	ausrottung	sterben	krank	töten	verbissen	gemein	vertrauen	kuss	besonnen	gütig	gesittet	engagiert	versagen	krise	bange	gierig	geizig	engstirnig	1	blank2r.bmp	0	1	+	0	1	blank2r.bmp	500	1	DHJF	500	1	blank2r.bmp	880	4	töten	880	1	FEHLER	1668	1	!	1292	1	!	1376	0	0	0
2024-06-12	10:52:08	10:59:13	424728	6.6.1	4_exp_EVA_AWA_CON	82	A	B	Rpleas_acq	Oppo	Rpleas	1pleas	acq_US_pleas_nomask	acq3_nomask	3	13	453	0	300	300	0	0	2215	50	1	0	anregung	sonnig	kreativ	träumen	vergnügt	genießen	ausrottung	sterben	krank	töten	verbissen	gemein	vertrauen	kuss	besonnen	gütig	gesittet	engagiert	versagen	krise	bange	gierig	geizig	engstirnig	1	blank2r.bmp	0	1	+	0	1	blank2r.bmp	500	1	CPLW	500	1	blank2r.bmp	880	2	sonnig	880	1	!	1292	1	!	-1	0	0	0	0	0	0
2024-06-12	10:52:08	10:59:15	426978	6.6.1	4_exp_EVA_AWA_CON	82	A	B	Rpleas_acq	Oppo	Rpleas	1pleas	acq_US_unple_nomask	acq3_nomask	3	14	453	1	300	300	0	0	471	46	1	0	anregung	sonnig	kreativ	träumen	vergnügt	genießen	ausrottung	sterben	krank	töten	verbissen	gemein	vertrauen	kuss	besonnen	gütig	gesittet	engagiert	versagen	krise	bange	gierig	geizig	engstirnig	1	blank2r.bmp	0	1	+	0	1	blank2r.bmp	500	1	DHJF	500	1	blank2r.bmp	880	3	krank	880	1	!	1293	1	!	1372	0	0	0	0	0	0
2024-06-12	10:52:08	10:59:18	429480	6.6.1	4_exp_EVA_AWA_CON	82	A	B	Rpleas_acq	Oppo	Rpleas	1pleas	acq_US_unple_nomask	acq3_nomask	3	15	453	0	300	300	0	0	723	46	1	0	anregung	sonnig	kreativ	träumen	vergnügt	genießen	ausrottung	sterben	krank	töten	verbissen	gemein	vertrauen	kuss	besonnen	gütig	gesittet	engagiert	versagen	krise	bange	gierig	geizig	engstirnig	1	blank2r.bmp	0	1	+	0	1	blank2r.bmp	500	1	DHJF	500	1	blank2r.bmp	880	2	sterben	880	1	!	1293	1	!	-1	0	0	0	0	0	0
2024-06-12	10:52:08	10:59:20	431808	6.6.1	4_exp_EVA_AWA_CON	82	A	B	Rpleas_acq	Oppo	Rpleas	1pleas	acq_US_pleas_nomask	acq3_nomask	3	16	453	0	300	300	0	0	550	50	1	0	anregung	sonnig	kreativ	träumen	vergnügt	genießen	ausrottung	sterben	krank	töten	verbissen	gemein	vertrauen	kuss	besonnen	gütig	gesittet	engagiert	versagen	krise	bange	gierig	geizig	engstirnig	1	blank2r.bmp	0	1	+	0	1	blank2r.bmp	500	1	CPLW	500	1	blank2r.bmp	880	5	vergnügt	880	1	!	1292	1	!	-1	0	0	0	0	0	0
2024-06-12	10:52:08	10:59:22	434043	6.6.1	4_exp_EVA_AWA_CON	82	A	B	Rpleas_acq	Oppo	Rpleas	1pleas	acq_US_unple_nomask	acq3_nomask	3	17	453	1	300	300	0	0	450	46	1	0	anregung	sonnig	kreativ	träumen	vergnügt	genießen	ausrottung	sterben	krank	töten	verbissen	gemein	vertrauen	kuss	besonnen	gütig	gesittet	engagiert	versagen	krise	bange	gierig	geizig	engstirnig	1	blank2r.bmp	0	1	+	0	1	blank2r.bmp	500	1	DHJF	500	1	blank2r.bmp	880	4	töten	880	1	!	1293	1	!	1352	0	0	0	0	0	0
2024-06-12	10:52:08	10:59:24	436473	6.6.1	4_exp_EVA_AWA_CON	82	A	B	Rpleas_acq	Oppo	Rpleas	1pleas	acq_US_pleas_nomask	acq3_nomask	3	18	453	0	300	300	0	0	651	50	1	0	anregung	sonnig	kreativ	träumen	vergnügt	genießen	ausrottung	sterben	krank	töten	verbissen	gemein	vertrauen	kuss	besonnen	gütig	gesittet	engagiert	versagen	krise	bange	gierig	geizig	engstirnig	1	blank2r.bmp	0	1	+	0	1	blank2r.bmp	500	1	CPLW	500	1	blank2r.bmp	880	1	anregung	880	1	!	1293	1	!	-1	0	0	0	0	0	0
2024-06-12	10:52:08	10:59:27	438666	6.6.1	4_exp_EVA_AWA_CON	82	A	B	Rpleas_acq	Oppo	Rpleas	1pleas	acq_US_unple_nomask	acq3_nomask	3	19	453	1	300	300	0	0	411	46	1	0	anregung	sonnig	kreativ	träumen	vergnügt	genießen	ausrottung	sterben	krank	töten	verbissen	gemein	vertrauen	kuss	besonnen	gütig	gesittet	engagiert	versagen	krise	bange	gierig	geizig	engstirnig	1	blank2r.bmp	0	1	+	0	1	blank2r.bmp	500	1	DHJF	500	1	blank2r.bmp	880	1	ausrottung	880	1	!	1292	1	!	1312	0	0	0	0	0	0
2024-06-12	10:52:08	10:59:29	440954	6.6.1	4_exp_EVA_AWA_CON	82	A	B	Rpleas_acq	Oppo	Rpleas	1pleas	acq_US_unple_nomask	acq3_nomask	3	20	453	1	300	300	0	0	508	46	1	0	anregung	sonnig	kreativ	träumen	vergnügt	genießen	ausrottung	sterben	krank	töten	verbissen	gemein	vertrauen	kuss	besonnen	gütig	gesittet	engagiert	versagen	krise	bange	gierig	geizig	engstirnig	1	blank2r.bmp	0	1	+	0	1	blank2r.bmp	500	1	DHJF	500	1	blank2r.bmp	880	6	gemein	880	1	!	1293	1	!	1409	0	0	0	0	0	0
2024-06-12	10:52:08	10:59:31	443280	6.6.1	4_exp_EVA_AWA_CON	82	A	B	Rpleas_acq	Oppo	Rpleas	1pleas	acq_US_pleas_nomask	acq3_nomask	3	21	453	0	300	300	0	0	544	50	1	0	anregung	sonnig	kreativ	träumen	vergnügt	genießen	ausrottung	sterben	krank	töten	verbissen	gemein	vertrauen	kuss	besonnen	gütig	gesittet	engagiert	versagen	krise	bange	gierig	geizig	engstirnig	1	blank2r.bmp	0	1	+	0	1	blank2r.bmp	500	1	CPLW	500	1	blank2r.bmp	880	3	kreativ	880	1	!	1293	1	!	-1	0	0	0	0	0	0
2024-06-12	10:52:08	10:59:34	445506	6.6.1	4_exp_EVA_AWA_CON	82	A	B	Rpleas_acq	Oppo	Rpleas	1pleas	acq_US_unple_nomask	acq3_nomask	3	22	453	1	300	300	0	0	447	46	1	0	anregung	sonnig	kreativ	träumen	vergnügt	genießen	ausrottung	sterben	krank	töten	verbissen	gemein	vertrauen	kuss	besonnen	gütig	gesittet	engagiert	versagen	krise	bange	gierig	geizig	engstirnig	1	blank2r.bmp	0	1	+	0	1	blank2r.bmp	500	1	DHJF	500	1	blank2r.bmp	880	5	verbissen	880	1	!	1293	1	!	1348	0	0	0	0	0	0
2024-06-12	10:52:08	10:59:36	447824	6.6.1	4_exp_EVA_AWA_CON	82	A	B	Rpleas_acq	Oppo	Rpleas	1pleas	acq_US_pleas_nomask	acq3_nomask	3	23	453	0	300	300	0	0	545	50	1	0	anregung	sonnig	kreativ	träumen	vergnügt	genießen	ausrottung	sterben	krank	töten	verbissen	gemein	vertrauen	kuss	besonnen	gütig	gesittet	engagiert	versagen	krise	bange	gierig	geizig	engstirnig	1	blank2r.bmp	0	1	+	0	1	blank2r.bmp	500	1	CPLW	500	1	blank2r.bmp	880	6	genießen	880	1	!	1293	1	!	-1	0	0	0	0	0	0
2024-06-12	10:52:08	10:59:38	450074	6.6.1	4_exp_EVA_AWA_CON	82	A	B	Rpleas_acq	Oppo	Rpleas	1pleas	acq_US_pleas_nomask	acq3_nomask	3	24	453	1	300	300	0	0	472	50	1	0	anregung	sonnig	kreativ	träumen	vergnügt	genießen	ausrottung	sterben	krank	töten	verbissen	gemein	vertrauen	kuss	besonnen	gütig	gesittet	engagiert	versagen	krise	bange	gierig	geizig	engstirnig	1	blank2r.bmp	0	1	+	0	1	blank2r.bmp	500	1	CPLW	500	1	blank2r.bmp	880	4	träumen	880	1	!	1293	1	!	1373	0	0	0	0	0	0
2024-06-12	10:52:08	10:59:40	452306	6.6.1	4_exp_EVA_AWA_CON	82	A	B	Rpleas_acq	Oppo	Rpleas	1pleas	acq_US_pleas_nomask	acq3_nomask	3	25	453	1	300	300	0	0	452	50	1	0	anregung	sonnig	kreativ	träumen	vergnügt	genießen	ausrottung	sterben	krank	töten	verbissen	gemein	vertrauen	kuss	besonnen	gütig	gesittet	engagiert	versagen	krise	bange	gierig	geizig	engstirnig	1	blank2r.bmp	0	1	+	0	1	blank2r.bmp	500	1	CPLW	500	1	blank2r.bmp	880	1	anregung	880	1	!	1292	1	!	1353	0	0	0	0	0	0
2024-06-12	10:52:08	10:59:43	454530	6.6.1	4_exp_EVA_AWA_CON	82	A	B	Rpleas_acq	Oppo	Rpleas	1pleas	acq_US_pleas_nomask	acq3_nomask	3	26	453	1	300	300	0	0	445	50	1	0	anregung	sonnig	kreativ	träumen	vergnügt	genießen	ausrottung	sterben	krank	töten	verbissen	gemein	vertrauen	kuss	besonnen	gütig	gesittet	engagiert	versagen	krise	bange	gierig	geizig	engstirnig	1	blank2r.bmp	0	1	+	0	1	blank2r.bmp	500	1	CPLW	500	1	blank2r.bmp	880	5	vergnügt	880	1	!	1292	1	!	1346	0	0	0	0	0	0
2024-06-12	10:52:08	10:59:45	456818	6.6.1	4_exp_EVA_AWA_CON	82	A	B	Rpleas_acq	Oppo	Rpleas	1pleas	acq_US_unple_nomask	acq3_nomask	3	27	453	1	300	300	0	0	512	46	1	0	anregung	sonnig	kreativ	träumen	vergnügt	genießen	ausrottung	sterben	krank	töten	verbissen	gemein	vertrauen	kuss	besonnen	gütig	gesittet	engagiert	versagen	krise	bange	gierig	geizig	engstirnig	1	blank2r.bmp	0	1	+	0	1	blank2r.bmp	500	1	DHJF	500	1	blank2r.bmp	880	2	sterben	880	1	!	1292	1	!	1413	0	0	0	0	0	0
2024-06-12	10:52:08	10:59:47	459042	6.6.1	4_exp_EVA_AWA_CON	82	A	B	Rpleas_acq	Oppo	Rpleas	1pleas	acq_US_pleas_nomask	acq3_nomask	3	28	453	1	300	300	0	0	444	50	1	0	anregung	sonnig	kreativ	träumen	vergnügt	genießen	ausrottung	sterben	krank	töten	verbissen	gemein	vertrauen	kuss	besonnen	gütig	gesittet	engagiert	versagen	krise	bange	gierig	geizig	engstirnig	1	blank2r.bmp	0	1	+	0	1	blank2r.bmp	500	1	CPLW	500	1	blank2r.bmp	880	3	kreativ	880	1	!	1292	1	!	1345	0	0	0	0	0	0
2024-06-12	10:52:08	10:59:49	461306	6.6.1	4_exp_EVA_AWA_CON	82	A	B	Rpleas_acq	Oppo	Rpleas	1pleas	acq_US_pleas_nomask	acq3_nomask	3	29	453	1	300	300	0	0	487	50	1	0	anregung	sonnig	kreativ	träumen	vergnügt	genießen	ausrottung	sterben	krank	töten	verbissen	gemein	vertrauen	kuss	besonnen	gütig	gesittet	engagiert	versagen	krise	bange	gierig	geizig	engstirnig	1	blank2r.bmp	0	1	+	0	1	blank2r.bmp	500	1	CPLW	500	1	blank2r.bmp	880	4	träumen	880	1	!	1293	1	!	1388	0	0	0	0	0	0
2024-06-12	10:52:08	10:59:52	463624	6.6.1	4_exp_EVA_AWA_CON	82	A	B	Rpleas_acq	Oppo	Rpleas	1pleas	acq_US_unple_nomask	acq3_nomask	3	30	453	0	300	300	0	0	545	46	1	0	anregung	sonnig	kreativ	träumen	vergnügt	genießen	ausrottung	sterben	krank	töten	verbissen	gemein	vertrauen	kuss	besonnen	gütig	gesittet	engagiert	versagen	krise	bange	gierig	geizig	engstirnig	1	blank2r.bmp	0	1	+	0	1	blank2r.bmp	500	1	DHJF	500	1	blank2r.bmp	880	6	gemein	880	1	!	1292	1	!	-1	0	0	0	0	0	0
2024-06-12	10:52:08	10:59:54	466052	6.6.1	4_exp_EVA_AWA_CON	82	A	B	Rpleas_acq	Oppo	Rpleas	1pleas	acq_US_unple_nomask	acq3_nomask	3	31	453	1	300	300	0	0	448	50	0	0	anregung	sonnig	kreativ	träumen	vergnügt	genießen	ausrottung	sterben	krank	töten	verbissen	gemein	vertrauen	kuss	besonnen	gütig	gesittet	engagiert	versagen	krise	bange	gierig	geizig	engstirnig	1	blank2r.bmp	0	1	+	0	1	blank2r.bmp	500	1	DHJF	500	1	blank2r.bmp	880	4	töten	880	1	FEHLER	1641	1	!	1292	1	!	1349	0	0	0
2024-06-12	10:52:08	10:59:58	469552	6.6.1	4_exp_EVA_AWA_CON	82	A	B	Rpleas_acq	Oppo	Rpleas	1pleas	acq_US_unple_nomask	acq3_nomask	3	32	453	0	300	300	0	0	1920	46	1	0	anregung	sonnig	kreativ	träumen	vergnügt	genießen	ausrottung	sterben	krank	töten	verbissen	gemein	vertrauen	kuss	besonnen	gütig	gesittet	engagiert	versagen	krise	bange	gierig	geizig	engstirnig	1	blank2r.bmp	0	1	+	0	1	blank2r.bmp	500	1	DHJF	500	1	blank2r.bmp	880	5	verbissen	880	1	!	1293	1	!	-1	0	0	0	0	0	0
2024-06-12	10:52:08	11:00:00	471762	6.6.1	4_exp_EVA_AWA_CON	82	A	B	Rpleas_acq	Oppo	Rpleas	1pleas	acq_US_unple_nomask	acq3_nomask	3	33	453	1	300	300	0	0	436	46	1	0	anregung	sonnig	kreativ	träumen	vergnügt	genießen	ausrottung	sterben	krank	töten	verbissen	gemein	vertrauen	kuss	besonnen	gütig	gesittet	engagiert	versagen	krise	bange	gierig	geizig	engstirnig	1	blank2r.bmp	0	1	+	0	1	blank2r.bmp	500	1	DHJF	500	1	blank2r.bmp	880	3	krank	880	1	!	1292	1	!	1337	0	0	0	0	0	0
2024-06-12	10:52:08	11:00:02	474010	6.6.1	4_exp_EVA_AWA_CON	82	A	B	Rpleas_acq	Oppo	Rpleas	1pleas	acq_US_unple_nomask	acq3_nomask	3	34	453	1	300	300	0	0	473	46	1	0	anregung	sonnig	kreativ	träumen	vergnügt	genießen	ausrottung	sterben	krank	töten	verbissen	gemein	vertrauen	kuss	besonnen	gütig	gesittet	engagiert	versagen	krise	bange	gierig	geizig	engstirnig	1	blank2r.bmp	0	1	+	0	1	blank2r.bmp	500	1	DHJF	500	1	blank2r.bmp	880	1	ausrottung	880	1	!	1292	1	!	1374	0	0	0	0	0	0
2024-06-12	10:52:08	11:00:04	476282	6.6.1	4_exp_EVA_AWA_CON	82	A	B	Rpleas_acq	Oppo	Rpleas	1pleas	acq_US_pleas_nomask	acq3_nomask	3	35	453	1	300	300	0	0	493	50	1	0	anregung	sonnig	kreativ	träumen	vergnügt	genießen	ausrottung	sterben	krank	töten	verbissen	gemein	vertrauen	kuss	besonnen	gütig	gesittet	engagiert	versagen	krise	bange	gierig	geizig	engstirnig	1	blank2r.bmp	0	1	+	0	1	blank2r.bmp	500	1	CPLW	500	1	blank2r.bmp	880	6	genießen	880	1	!	1292	1	!	1394	0	0	0	0	0	0
2024-06-12	10:52:08	11:00:07	478562	6.6.1	4_exp_EVA_AWA_CON	82	A	B	Rpleas_acq	Oppo	Rpleas	1pleas	acq_US_pleas_nomask	acq3_nomask	3	36	453	1	300	300	0	0	502	50	1	0	anregung	sonnig	kreativ	träumen	vergnügt	genießen	ausrottung	sterben	krank	töten	verbissen	gemein	vertrauen	kuss	besonnen	gütig	gesittet	engagiert	versagen	krise	bange	gierig	geizig	engstirnig	1	blank2r.bmp	0	1	+	0	1	blank2r.bmp	500	1	CPLW	500	1	blank2r.bmp	880	2	sonnig	880	1	!	1292	1	!	1403	0	0	0	0	0	0
2024-06-12	10:52:08	11:00:27	498840	6.6.1	4_exp_EVA_AWA_CON	82	A	B	Rpleas_acq	Oppo	Rpleas	1pleas	acq_US_pleas_nomask	acq45_nomask	4	1	400	0	300	300	0	0	499	46	0	0	anregung	sonnig	kreativ	träumen	vergnügt	genießen	ausrottung	sterben	krank	töten	verbissen	gemein	vertrauen	kuss	besonnen	gütig	gesittet	engagiert	versagen	krise	bange	gierig	geizig	engstirnig	1	blank2r.bmp	0	1	+	0	1	blank2r.bmp	500	1	CPLW	500	1	blank2r.bmp	880	6	genießen	880	1	!	1232	1	!	-1	0	0	0	0	0	0
2024-06-12	10:52:08	11:00:31	503065	6.6.1	4_exp_EVA_AWA_CON	82	A	B	Rpleas_acq	Oppo	Rpleas	1pleas	acq_US_pleas_nomask	acq45_nomask	4	2	400	0	300	300	0	0	2451	50	1	0	anregung	sonnig	kreativ	träumen	vergnügt	genießen	ausrottung	sterben	krank	töten	verbissen	gemein	vertrauen	kuss	besonnen	gütig	gesittet	engagiert	versagen	krise	bange	gierig	geizig	engstirnig	1	blank2r.bmp	0	1	+	0	1	blank2r.bmp	500	1	CPLW	500	1	blank2r.bmp	880	1	anregung	880	1	!	1232	1	!	-1	0	0	0	0	0	0
2024-06-12	10:52:08	11:00:33	505258	6.6.1	4_exp_EVA_AWA_CON	82	A	B	Rpleas_acq	Oppo	Rpleas	1pleas	acq_US_unple_nomask	acq45_nomask	4	3	400	1	300	300	0	0	410	46	1	0	anregung	sonnig	kreativ	träumen	vergnügt	genießen	ausrottung	sterben	krank	töten	verbissen	gemein	vertrauen	kuss	besonnen	gütig	gesittet	engagiert	versagen	krise	bange	gierig	geizig	engstirnig	1	blank2r.bmp	0	1	+	0	1	blank2r.bmp	500	1	DHJF	500	1	blank2r.bmp	880	3	krank	880	1	!	1232	1	!	1312	0	0	0	0	0	0
2024-06-12	10:52:08	11:00:36	507498	6.6.1	4_exp_EVA_AWA_CON	82	A	B	Rpleas_acq	Oppo	Rpleas	1pleas	acq_US_pleas_nomask	acq45_nomask	4	4	400	1	300	300	0	0	459	50	1	0	anregung	sonnig	kreativ	träumen	vergnügt	genießen	ausrottung	sterben	krank	töten	verbissen	gemein	vertrauen	kuss	besonnen	gütig	gesittet	engagiert	versagen	krise	bange	gierig	geizig	engstirnig	1	blank2r.bmp	0	1	+	0	1	blank2r.bmp	500	1	CPLW	500	1	blank2r.bmp	880	5	vergnügt	880	1	!	1232	1	!	1360	0	0	0	0	0	0
2024-06-12	10:52:08	11:00:39	510688	6.6.1	4_exp_EVA_AWA_CON	82	A	B	Rpleas_acq	Oppo	Rpleas	1pleas	acq_US_pleas_nomask	acq45_nomask	4	5	400	0	300	300	0	0	1410	50	1	0	anregung	sonnig	kreativ	träumen	vergnügt	genießen	ausrottung	sterben	krank	töten	verbissen	gemein	vertrauen	kuss	besonnen	gütig	gesittet	engagiert	versagen	krise	bange	gierig	geizig	engstirnig	1	blank2r.bmp	0	1	+	0	1	blank2r.bmp	500	1	CPLW	500	1	blank2r.bmp	880	3	kreativ	880	1	!	1232	1	!	-1	0	0	0	0	0	0
2024-06-12	10:52:08	11:00:41	512914	6.6.1	4_exp_EVA_AWA_CON	82	A	B	Rpleas_acq	Oppo	Rpleas	1pleas	acq_US_pleas_nomask	acq45_nomask	4	6	400	1	300	300	0	0	451	50	1	0	anregung	sonnig	kreativ	träumen	vergnügt	genießen	ausrottung	sterben	krank	töten	verbissen	gemein	vertrauen	kuss	besonnen	gütig	gesittet	engagiert	versagen	krise	bange	gierig	geizig	engstirnig	1	blank2r.bmp	0	1	+	0	1	blank2r.bmp	500	1	CPLW	500	1	blank2r.bmp	880	4	träumen	880	1	!	1232	1	!	1352	0	0	0	0	0	0
2024-06-12	10:52:08	11:00:43	515122	6.6.1	4_exp_EVA_AWA_CON	82	A	B	Rpleas_acq	Oppo	Rpleas	1pleas	acq_US_pleas_nomask	acq45_nomask	4	7	400	1	300	300	0	0	428	50	1	0	anregung	sonnig	kreativ	träumen	vergnügt	genießen	ausrottung	sterben	krank	töten	verbissen	gemein	vertrauen	kuss	besonnen	gütig	gesittet	engagiert	versagen	krise	bange	gierig	geizig	engstirnig	1	blank2r.bmp	0	1	+	0	1	blank2r.bmp	500	1	CPLW	500	1	blank2r.bmp	880	2	sonnig	880	1	!	1232	1	!	1329	0	0	0	0	0	0
2024-06-12	10:52:08	11:00:45	517362	6.6.1	4_exp_EVA_AWA_CON	82	A	B	Rpleas_acq	Oppo	Rpleas	1pleas	acq_US_unple_nomask	acq45_nomask	4	8	400	1	300	300	0	0	457	46	1	0	anregung	sonnig	kreativ	träumen	vergnügt	genießen	ausrottung	sterben	krank	töten	verbissen	gemein	vertrauen	kuss	besonnen	gütig	gesittet	engagiert	versagen	krise	bange	gierig	geizig	engstirnig	1	blank2r.bmp	0	1	+	0	1	blank2r.bmp	500	1	DHJF	500	1	blank2r.bmp	880	2	sterben	880	1	!	1232	1	!	1358	0	0	0	0	0	0
2024-06-12	10:52:08	11:00:48	519632	6.6.1	4_exp_EVA_AWA_CON	82	A	B	Rpleas_acq	Oppo	Rpleas	1pleas	acq_US_unple_nomask	acq45_nomask	4	9	400	0	300	300	0	0	497	46	1	0	anregung	sonnig	kreativ	träumen	vergnügt	genießen	ausrottung	sterben	krank	töten	verbissen	gemein	vertrauen	kuss	besonnen	gütig	gesittet	engagiert	versagen	krise	bange	gierig	geizig	engstirnig	1	blank2r.bmp	0	1	+	0	1	blank2r.bmp	500	1	DHJF	500	1	blank2r.bmp	880	1	ausrottung	880	1	!	1232	1	!	-1	0	0	0	0	0	0
2024-06-12	10:52:08	11:00:50	521886	6.6.1	4_exp_EVA_AWA_CON	82	A	B	Rpleas_acq	Oppo	Rpleas	1pleas	acq_US_pleas_nomask	acq45_nomask	4	10	400	0	300	300	0	0	482	50	1	0	anregung	sonnig	kreativ	träumen	vergnügt	genießen	ausrottung	sterben	krank	töten	verbissen	gemein	vertrauen	kuss	besonnen	gütig	gesittet	engagiert	versagen	krise	bange	gierig	geizig	engstirnig	1	blank2r.bmp	0	1	+	0	1	blank2r.bmp	500	1	CPLW	500	1	blank2r.bmp	880	3	kreativ	880	1	!	1232	1	!	-1	0	0	0	0	0	0
2024-06-12	10:52:08	11:00:52	524169	6.6.1	4_exp_EVA_AWA_CON	82	A	B	Rpleas_acq	Oppo	Rpleas	1pleas	acq_US_unple_nomask	acq45_nomask	4	11	400	0	300	300	0	0	500	50	0	0	anregung	sonnig	kreativ	träumen	vergnügt	genießen	ausrottung	sterben	krank	töten	verbissen	gemein	vertrauen	kuss	besonnen	gütig	gesittet	engagiert	versagen	krise	bange	gierig	geizig	engstirnig	1	blank2r.bmp	0	1	+	0	1	blank2r.bmp	500	1	DHJF	500	1	blank2r.bmp	880	4	töten	880	1	!	1233	1	!	-1	0	0	0	0	0	0
2024-06-12	10:52:08	11:00:54	526430	6.6.1	4_exp_EVA_AWA_CON	82	A	B	Rpleas_acq	Oppo	Rpleas	1pleas	acq_US_pleas_nomask	acq45_nomask	4	12	400	0	300	300	0	0	483	50	1	0	anregung	sonnig	kreativ	träumen	vergnügt	genießen	ausrottung	sterben	krank	töten	verbissen	gemein	vertrauen	kuss	besonnen	gütig	gesittet	engagiert	versagen	krise	bange	gierig	geizig	engstirnig	1	blank2r.bmp	0	1	+	0	1	blank2r.bmp	500	1	CPLW	500	1	blank2r.bmp	880	6	genießen	880	1	!	1232	1	!	-1	0	0	0	0	0	0
2024-06-12	10:52:08	11:00:57	528784	6.6.1	4_exp_EVA_AWA_CON	82	A	B	Rpleas_acq	Oppo	Rpleas	1pleas	acq_US_unple_nomask	acq45_nomask	4	13	400	0	300	300	0	0	573	46	1	0	anregung	sonnig	kreativ	träumen	vergnügt	genießen	ausrottung	sterben	krank	töten	verbissen	gemein	vertrauen	kuss	besonnen	gütig	gesittet	engagiert	versagen	krise	bange	gierig	geizig	engstirnig	1	blank2r.bmp	0	1	+	0	1	blank2r.bmp	500	1	DHJF	500	1	blank2r.bmp	880	5	verbissen	880	1	!	1232	1	!	-1	0	0	0	0	0	0
2024-06-12	10:52:08	11:00:59	530930	6.6.1	4_exp_EVA_AWA_CON	82	A	B	Rpleas_acq	Oppo	Rpleas	1pleas	acq_US_unple_nomask	acq45_nomask	4	14	400	1	300	300	0	0	366	46	1	0	anregung	sonnig	kreativ	träumen	vergnügt	genießen	ausrottung	sterben	krank	töten	verbissen	gemein	vertrauen	kuss	besonnen	gütig	gesittet	engagiert	versagen	krise	bange	gierig	geizig	engstirnig	1	blank2r.bmp	0	1	+	0	1	blank2r.bmp	500	1	DHJF	500	1	blank2r.bmp	880	6	gemein	880	1	!	1232	1	!	1267	0	0	0	0	0	0
2024-06-12	10:52:08	11:01:01	533208	6.6.1	4_exp_EVA_AWA_CON	82	A	B	Rpleas_acq	Oppo	Rpleas	1pleas	acq_US_unple_nomask	acq45_nomask	4	15	400	0	300	300	0	0	505	46	1	0	anregung	sonnig	kreativ	träumen	vergnügt	genießen	ausrottung	sterben	krank	töten	verbissen	gemein	vertrauen	kuss	besonnen	gütig	gesittet	engagiert	versagen	krise	bange	gierig	geizig	engstirnig	1	blank2r.bmp	0	1	+	0	1	blank2r.bmp	500	1	DHJF	500	1	blank2r.bmp	880	5	verbissen	880	1	!	1232	1	!	-1	0	0	0	0	0	0
2024-06-12	10:52:08	11:01:03	535370	6.6.1	4_exp_EVA_AWA_CON	82	A	B	Rpleas_acq	Oppo	Rpleas	1pleas	acq_US_unple_nomask	acq45_nomask	4	16	400	1	300	300	0	0	383	46	1	0	anregung	sonnig	kreativ	träumen	vergnügt	genießen	ausrottung	sterben	krank	töten	verbissen	gemein	vertrauen	kuss	besonnen	gütig	gesittet	engagiert	versagen	krise	bange	gierig	geizig	engstirnig	1	blank2r.bmp	0	1	+	0	1	blank2r.bmp	500	1	DHJF	500	1	blank2r.bmp	880	4	töten	880	1	!	1232	1	!	1284	0	0	0	0	0	0
2024-06-12	10:52:08	11:01:06	537498	6.6.1	4_exp_EVA_AWA_CON	82	A	B	Rpleas_acq	Oppo	Rpleas	1pleas	acq_US_pleas_nomask	acq45_nomask	4	17	400	1	300	300	0	0	350	50	1	0	anregung	sonnig	kreativ	träumen	vergnügt	genießen	ausrottung	sterben	krank	töten	verbissen	gemein	vertrauen	kuss	besonnen	gütig	gesittet	engagiert	versagen	krise	bange	gierig	geizig	engstirnig	1	blank2r.bmp	0	1	+	0	1	blank2r.bmp	500	1	CPLW	500	1	blank2r.bmp	880	5	vergnügt	880	1	!	1232	1	!	1251	0	0	0	0	0	0
2024-06-12	10:52:08	11:01:08	539666	6.6.1	4_exp_EVA_AWA_CON	82	A	B	Rpleas_acq	Oppo	Rpleas	1pleas	acq_US_unple_nomask	acq45_nomask	4	18	400	1	300	300	0	0	386	46	1	0	anregung	sonnig	kreativ	träumen	vergnügt	genießen	ausrottung	sterben	krank	töten	verbissen	gemein	vertrauen	kuss	besonnen	gütig	gesittet	engagiert	versagen	krise	bange	gierig	geizig	engstirnig	1	blank2r.bmp	0	1	+	0	1	blank2r.bmp	500	1	DHJF	500	1	blank2r.bmp	880	1	ausrottung	880	1	!	1232	1	!	1288	0	0	0	0	0	0
2024-06-12	10:52:08	11:01:10	541834	6.6.1	4_exp_EVA_AWA_CON	82	A	B	Rpleas_acq	Oppo	Rpleas	1pleas	acq_US_unple_nomask	acq45_nomask	4	19	400	1	300	300	0	0	393	46	1	0	anregung	sonnig	kreativ	träumen	vergnügt	genießen	ausrottung	sterben	krank	töten	verbissen	gemein	vertrauen	kuss	besonnen	gütig	gesittet	engagiert	versagen	krise	bange	gierig	geizig	engstirnig	1	blank2r.bmp	0	1	+	0	1	blank2r.bmp	500	1	DHJF	500	1	blank2r.bmp	880	6	gemein	880	1	!	1233	1	!	1294	0	0	0	0	0	0
2024-06-12	10:52:08	11:01:12	544034	6.6.1	4_exp_EVA_AWA_CON	82	A	B	Rpleas_acq	Oppo	Rpleas	1pleas	acq_US_pleas_nomask	acq45_nomask	4	20	400	1	300	300	0	0	422	50	1	0	anregung	sonnig	kreativ	träumen	vergnügt	genießen	ausrottung	sterben	krank	töten	verbissen	gemein	vertrauen	kuss	besonnen	gütig	gesittet	engagiert	versagen	krise	bange	gierig	geizig	engstirnig	1	blank2r.bmp	0	1	+	0	1	blank2r.bmp	500	1	CPLW	500	1	blank2r.bmp	880	4	träumen	880	1	!	1232	1	!	1323	0	0	0	0	0	0
2024-06-12	10:52:08	11:01:14	546170	6.6.1	4_exp_EVA_AWA_CON	82	A	B	Rpleas_acq	Oppo	Rpleas	1pleas	acq_US_unple_nomask	acq45_nomask	4	21	400	1	300	300	0	0	356	50	0	0	anregung	sonnig	kreativ	träumen	vergnügt	genießen	ausrottung	sterben	krank	töten	verbissen	gemein	vertrauen	kuss	besonnen	gütig	gesittet	engagiert	versagen	krise	bange	gierig	geizig	engstirnig	1	blank2r.bmp	0	1	+	0	1	blank2r.bmp	500	1	DHJF	500	1	blank2r.bmp	880	2	sterben	880	1	!	1232	1	!	1257	0	0	0	0	0	0
2024-06-12	10:52:08	11:01:16	548314	6.6.1	4_exp_EVA_AWA_CON	82	A	B	Rpleas_acq	Oppo	Rpleas	1pleas	acq_US_unple_nomask	acq45_nomask	4	22	400	1	300	300	0	0	369	46	1	0	anregung	sonnig	kreativ	träumen	vergnügt	genießen	ausrottung	sterben	krank	töten	verbissen	gemein	vertrauen	kuss	besonnen	gütig	gesittet	engagiert	versagen	krise	bange	gierig	geizig	engstirnig	1	blank2r.bmp	0	1	+	0	1	blank2r.bmp	500	1	DHJF	500	1	blank2r.bmp	880	3	krank	880	1	!	1232	1	!	1270	0	0	0	0	0	0
2024-06-12	10:52:08	11:01:18	550474	6.6.1	4_exp_EVA_AWA_CON	82	A	B	Rpleas_acq	Oppo	Rpleas	1pleas	acq_US_unple_nomask	acq45_nomask	4	23	400	1	300	300	0	0	377	46	1	0	anregung	sonnig	kreativ	träumen	vergnügt	genießen	ausrottung	sterben	krank	töten	verbissen	gemein	vertrauen	kuss	besonnen	gütig	gesittet	engagiert	versagen	krise	bange	gierig	geizig	engstirnig	1	blank2r.bmp	0	1	+	0	1	blank2r.bmp	500	1	DHJF	500	1	blank2r.bmp	880	1	ausrottung	880	1	!	1232	1	!	1279	0	0	0	0	0	0
2024-06-12	10:52:08	11:01:21	552658	6.6.1	4_exp_EVA_AWA_CON	82	A	B	Rpleas_acq	Oppo	Rpleas	1pleas	acq_US_pleas_nomask	acq45_nomask	4	24	400	1	300	300	0	0	410	50	1	0	anregung	sonnig	kreativ	träumen	vergnügt	genießen	ausrottung	sterben	krank	töten	verbissen	gemein	vertrauen	kuss	besonnen	gütig	gesittet	engagiert	versagen	krise	bange	gierig	geizig	engstirnig	1	blank2r.bmp	0	1	+	0	1	blank2r.bmp	500	1	CPLW	500	1	blank2r.bmp	880	1	anregung	880	1	!	1232	1	!	1312	0	0	0	0	0	0
2024-06-12	10:52:08	11:01:23	554760	6.6.1	4_exp_EVA_AWA_CON	82	A	B	Rpleas_acq	Oppo	Rpleas	1pleas	acq_US_pleas_nomask	acq45_nomask	4	25	400	0	300	300	0	0	323	46	0	0	anregung	sonnig	kreativ	träumen	vergnügt	genießen	ausrottung	sterben	krank	töten	verbissen	gemein	vertrauen	kuss	besonnen	gütig	gesittet	engagiert	versagen	krise	bange	gierig	geizig	engstirnig	1	blank2r.bmp	0	1	+	0	1	blank2r.bmp	500	1	CPLW	500	1	blank2r.bmp	880	2	sonnig	880	1	!	-1	1	!	-1	0	0	0	0	0	0
2024-06-12	10:52:08	11:01:25	557048	6.6.1	4_exp_EVA_AWA_CON	82	A	B	Rpleas_acq	Oppo	Rpleas	1pleas	acq_US_pleas_nomask	acq45_nomask	4	26	400	0	300	300	0	0	509	46	0	0	anregung	sonnig	kreativ	träumen	vergnügt	genießen	ausrottung	sterben	krank	töten	verbissen	gemein	vertrauen	kuss	besonnen	gütig	gesittet	engagiert	versagen	krise	bange	gierig	geizig	engstirnig	1	blank2r.bmp	0	1	+	0	1	blank2r.bmp	500	1	CPLW	500	1	blank2r.bmp	880	4	träumen	880	1	!	1232	1	!	-1	0	0	0	0	0	0
2024-06-12	10:52:08	11:01:27	559226	6.6.1	4_exp_EVA_AWA_CON	82	A	B	Rpleas_acq	Oppo	Rpleas	1pleas	acq_US_unple_nomask	acq45_nomask	4	27	400	1	300	300	0	0	394	50	0	0	anregung	sonnig	kreativ	träumen	vergnügt	genießen	ausrottung	sterben	krank	töten	verbissen	gemein	vertrauen	kuss	besonnen	gütig	gesittet	engagiert	versagen	krise	bange	gierig	geizig	engstirnig	1	blank2r.bmp	0	1	+	0	1	blank2r.bmp	500	1	DHJF	500	1	blank2r.bmp	880	6	gemein	880	1	!	1232	1	!	1295	0	0	0	0	0	0
2024-06-12	10:52:08	11:01:30	562208	6.6.1	4_exp_EVA_AWA_CON	82	A	B	Rpleas_acq	Oppo	Rpleas	1pleas	acq_US_pleas_nomask	acq45_nomask	4	28	400	0	300	300	0	0	1206	50	1	0	anregung	sonnig	kreativ	träumen	vergnügt	genießen	ausrottung	sterben	krank	töten	verbissen	gemein	vertrauen	kuss	besonnen	gütig	gesittet	engagiert	versagen	krise	bange	gierig	geizig	engstirnig	1	blank2r.bmp	0	1	+	0	1	blank2r.bmp	500	1	CPLW	500	1	blank2r.bmp	880	6	genießen	880	1	!	1233	1	!	-1	0	0	0	0	0	0
2024-06-12	10:52:08	11:01:33	564528	6.6.1	4_exp_EVA_AWA_CON	82	A	B	Rpleas_acq	Oppo	Rpleas	1pleas	acq_US_pleas_nomask	acq45_nomask	4	29	400	0	300	300	0	0	545	50	1	0	anregung	sonnig	kreativ	träumen	vergnügt	genießen	ausrottung	sterben	krank	töten	verbissen	gemein	vertrauen	kuss	besonnen	gütig	gesittet	engagiert	versagen	krise	bange	gierig	geizig	engstirnig	1	blank2r.bmp	0	1	+	0	1	blank2r.bmp	500	1	CPLW	500	1	blank2r.bmp	880	5	vergnügt	880	1	!	1232	1	!	-1	0	0	0	0	0	0
2024-06-12	10:52:08	11:01:35	566824	6.6.1	4_exp_EVA_AWA_CON	82	A	B	Rpleas_acq	Oppo	Rpleas	1pleas	acq_US_pleas_nomask	acq45_nomask	4	30	400	0	300	300	0	0	519	50	1	0	anregung	sonnig	kreativ	träumen	vergnügt	genießen	ausrottung	sterben	krank	töten	verbissen	gemein	vertrauen	kuss	besonnen	gütig	gesittet	engagiert	versagen	krise	bange	gierig	geizig	engstirnig	1	blank2r.bmp	0	1	+	0	1	blank2r.bmp	500	1	CPLW	500	1	blank2r.bmp	880	1	anregung	880	1	!	1232	1	!	-1	0	0	0	0	0	0
2024-06-12	10:52:08	11:01:37	569002	6.6.1	4_exp_EVA_AWA_CON	82	A	B	Rpleas_acq	Oppo	Rpleas	1pleas	acq_US_pleas_nomask	acq45_nomask	4	31	400	1	300	300	0	0	403	50	1	0	anregung	sonnig	kreativ	träumen	vergnügt	genießen	ausrottung	sterben	krank	töten	verbissen	gemein	vertrauen	kuss	besonnen	gütig	gesittet	engagiert	versagen	krise	bange	gierig	geizig	engstirnig	1	blank2r.bmp	0	1	+	0	1	blank2r.bmp	500	1	CPLW	500	1	blank2r.bmp	880	3	kreativ	880	1	!	1232	1	!	1305	0	0	0	0	0	0
2024-06-12	10:52:08	11:01:39	571178	6.6.1	4_exp_EVA_AWA_CON	82	A	B	Rpleas_acq	Oppo	Rpleas	1pleas	acq_US_unple_nomask	acq45_nomask	4	32	400	1	300	300	0	0	398	46	1	0	anregung	sonnig	kreativ	träumen	vergnügt	genießen	ausrottung	sterben	krank	töten	verbissen	gemein	vertrauen	kuss	besonnen	gütig	gesittet	engagiert	versagen	krise	bange	gierig	geizig	engstirnig	1	blank2r.bmp	0	1	+	0	1	blank2r.bmp	500	1	DHJF	500	1	blank2r.bmp	880	3	krank	880	1	!	1232	1	!	1299	0	0	0	0	0	0
2024-06-12	10:52:08	11:01:41	573418	6.6.1	4_exp_EVA_AWA_CON	82	A	B	Rpleas_acq	Oppo	Rpleas	1pleas	acq_US_unple_nomask	acq45_nomask	4	33	400	1	300	300	0	0	457	46	1	0	anregung	sonnig	kreativ	träumen	vergnügt	genießen	ausrottung	sterben	krank	töten	verbissen	gemein	vertrauen	kuss	besonnen	gütig	gesittet	engagiert	versagen	krise	bange	gierig	geizig	engstirnig	1	blank2r.bmp	0	1	+	0	1	blank2r.bmp	500	1	DHJF	500	1	blank2r.bmp	880	2	sterben	880	1	!	1232	1	!	1358	0	0	0	0	0	0
2024-06-12	10:52:08	11:01:44	575578	6.6.1	4_exp_EVA_AWA_CON	82	A	B	Rpleas_acq	Oppo	Rpleas	1pleas	acq_US_unple_nomask	acq45_nomask	4	34	400	1	300	300	0	0	385	46	1	0	anregung	sonnig	kreativ	träumen	vergnügt	genießen	ausrottung	sterben	krank	töten	verbissen	gemein	vertrauen	kuss	besonnen	gütig	gesittet	engagiert	versagen	krise	bange	gierig	geizig	engstirnig	1	blank2r.bmp	0	1	+	0	1	blank2r.bmp	500	1	DHJF	500	1	blank2r.bmp	880	5	verbissen	880	1	!	1232	1	!	1286	0	0	0	0	0	0
2024-06-12	10:52:08	11:01:46	577840	6.6.1	4_exp_EVA_AWA_CON	82	A	B	Rpleas_acq	Oppo	Rpleas	1pleas	acq_US_pleas_nomask	acq45_nomask	4	35	400	0	300	300	0	0	488	50	1	0	anregung	sonnig	kreativ	träumen	vergnügt	genießen	ausrottung	sterben	krank	töten	verbissen	gemein	vertrauen	kuss	besonnen	gütig	gesittet	engagiert	versagen	krise	bange	gierig	geizig	engstirnig	1	blank2r.bmp	0	1	+	0	1	blank2r.bmp	500	1	CPLW	500	1	blank2r.bmp	880	2	sonnig	880	1	!	1232	1	!	-1	0	0	0	0	0	0
2024-06-12	10:52:08	11:01:49	580520	6.6.1	4_exp_EVA_AWA_CON	82	A	B	Rpleas_acq	Oppo	Rpleas	1pleas	acq_US_unple_nomask	acq45_nomask	4	36	400	0	300	300	0	0	906	46	1	0	anregung	sonnig	kreativ	träumen	vergnügt	genießen	ausrottung	sterben	krank	töten	verbissen	gemein	vertrauen	kuss	besonnen	gütig	gesittet	engagiert	versagen	krise	bange	gierig	geizig	engstirnig	1	blank2r.bmp	0	1	+	0	1	blank2r.bmp	500	1	DHJF	500	1	blank2r.bmp	880	4	töten	880	1	!	1232	1	!	-1	0	0	0	0	0	0
2024-06-12	10:52:08	11:02:01	593008	6.6.1	4_exp_EVA_AWA_CON	82	A	B	Rpleas_acq	Oppo	Rpleas	1pleas	acq_US_pleas_nomask	acq45_nomask	5	1	400	0	300	300	0	0	866	50	1	0	anregung	sonnig	kreativ	träumen	vergnügt	genießen	ausrottung	sterben	krank	töten	verbissen	gemein	vertrauen	kuss	besonnen	gütig	gesittet	engagiert	versagen	krise	bange	gierig	geizig	engstirnig	1	blank2r.bmp	0	1	+	0	1	blank2r.bmp	500	1	CPLW	500	1	blank2r.bmp	880	5	vergnügt	880	1	!	1232	1	!	-1	0	0	0	0	0	0
2024-06-12	10:52:08	11:02:03	595328	6.6.1	4_exp_EVA_AWA_CON	82	A	B	Rpleas_acq	Oppo	Rpleas	1pleas	acq_US_unple_nomask	acq45_nomask	5	2	400	0	300	300	0	0	545	46	1	0	anregung	sonnig	kreativ	träumen	vergnügt	genießen	ausrottung	sterben	krank	töten	verbissen	gemein	vertrauen	kuss	besonnen	gütig	gesittet	engagiert	versagen	krise	bange	gierig	geizig	engstirnig	1	blank2r.bmp	0	1	+	0	1	blank2r.bmp	500	1	DHJF	500	1	blank2r.bmp	880	5	verbissen	880	1	!	1232	1	!	-1	0	0	0	0	0	0
2024-06-12	10:52:08	11:02:06	597664	6.6.1	4_exp_EVA_AWA_CON	82	A	B	Rpleas_acq	Oppo	Rpleas	1pleas	acq_US_unple_nomask	acq45_nomask	5	3	400	0	300	300	0	0	559	46	1	0	anregung	sonnig	kreativ	träumen	vergnügt	genießen	ausrottung	sterben	krank	töten	verbissen	gemein	vertrauen	kuss	besonnen	gütig	gesittet	engagiert	versagen	krise	bange	gierig	geizig	engstirnig	1	blank2r.bmp	0	1	+	0	1	blank2r.bmp	500	1	DHJF	500	1	blank2r.bmp	880	3	krank	880	1	!	1232	1	!	-1	0	0	0	0	0	0
2024-06-12	10:52:08	11:02:08	599760	6.6.1	4_exp_EVA_AWA_CON	82	A	B	Rpleas_acq	Oppo	Rpleas	1pleas	acq_US_pleas_nomask	acq45_nomask	5	4	400	0	300	300	0	0	324	46	0	0	anregung	sonnig	kreativ	träumen	vergnügt	genießen	ausrottung	sterben	krank	töten	verbissen	gemein	vertrauen	kuss	besonnen	gütig	gesittet	engagiert	versagen	krise	bange	gierig	geizig	engstirnig	1	blank2r.bmp	0	1	+	0	1	blank2r.bmp	500	1	CPLW	500	1	blank2r.bmp	880	3	kreativ	880	1	!	-1	1	!	-1	0	0	0	0	0	0
2024-06-12	10:52:08	11:02:10	602024	6.6.1	4_exp_EVA_AWA_CON	82	A	B	Rpleas_acq	Oppo	Rpleas	1pleas	acq_US_pleas_nomask	acq45_nomask	5	5	400	0	300	300	0	0	486	46	0	0	anregung	sonnig	kreativ	träumen	vergnügt	genießen	ausrottung	sterben	krank	töten	verbissen	gemein	vertrauen	kuss	besonnen	gütig	gesittet	engagiert	versagen	krise	bange	gierig	geizig	engstirnig	1	blank2r.bmp	0	1	+	0	1	blank2r.bmp	500	1	CPLW	500	1	blank2r.bmp	880	2	sonnig	880	1	!	1232	1	!	-1	0	0	0	0	0	0
2024-06-12	10:52:08	11:02:12	604278	6.6.1	4_exp_EVA_AWA_CON	82	A	B	Rpleas_acq	Oppo	Rpleas	1pleas	acq_US_pleas_nomask	acq45_nomask	5	6	400	0	300	300	0	0	481	50	1	0	anregung	sonnig	kreativ	träumen	vergnügt	genießen	ausrottung	sterben	krank	töten	verbissen	gemein	vertrauen	kuss	besonnen	gütig	gesittet	engagiert	versagen	krise	bange	gierig	geizig	engstirnig	1	blank2r.bmp	0	1	+	0	1	blank2r.bmp	500	1	CPLW	500	1	blank2r.bmp	880	6	genießen	880	1	!	1232	1	!	-1	0	0	0	0	0	0
2024-06-12	10:52:08	11:02:14	606402	6.6.1	4_exp_EVA_AWA_CON	82	A	B	Rpleas_acq	Oppo	Rpleas	1pleas	acq_US_unple_nomask	acq45_nomask	5	7	400	1	300	300	0	0	350	50	0	0	anregung	sonnig	kreativ	träumen	vergnügt	genießen	ausrottung	sterben	krank	töten	verbissen	gemein	vertrauen	kuss	besonnen	gütig	gesittet	engagiert	versagen	krise	bange	gierig	geizig	engstirnig	1	blank2r.bmp	0	1	+	0	1	blank2r.bmp	500	1	DHJF	500	1	blank2r.bmp	880	6	gemein	880	1	!	1232	1	!	1251	0	0	0	0	0	0
2024-06-12	10:52:08	11:02:17	608688	6.6.1	4_exp_EVA_AWA_CON	82	A	B	Rpleas_acq	Oppo	Rpleas	1pleas	acq_US_pleas_nomask	acq45_nomask	5	8	400	0	300	300	0	0	506	46	0	0	anregung	sonnig	kreativ	träumen	vergnügt	genießen	ausrottung	sterben	krank	töten	verbissen	gemein	vertrauen	kuss	besonnen	gütig	gesittet	engagiert	versagen	krise	bange	gierig	geizig	engstirnig	1	blank2r.bmp	0	1	+	0	1	blank2r.bmp	500	1	CPLW	500	1	blank2r.bmp	880	1	anregung	880	1	!	1232	1	!	-1	0	0	0	0	0	0
2024-06-12	10:52:08	11:02:19	610906	6.6.1	4_exp_EVA_AWA_CON	82	A	B	Rpleas_acq	Oppo	Rpleas	1pleas	acq_US_unple_nomask	acq45_nomask	5	9	400	1	300	300	0	0	441	46	1	0	anregung	sonnig	kreativ	träumen	vergnügt	genießen	ausrottung	sterben	krank	töten	verbissen	gemein	vertrauen	kuss	besonnen	gütig	gesittet	engagiert	versagen	krise	bange	gierig	geizig	engstirnig	1	blank2r.bmp	0	1	+	0	1	blank2r.bmp	500	1	DHJF	500	1	blank2r.bmp	880	2	sterben	880	1	!	1232	1	!	1342	0	0	0	0	0	0
2024-06-12	10:52:08	11:02:21	613122	6.6.1	4_exp_EVA_AWA_CON	82	A	B	Rpleas_acq	Oppo	Rpleas	1pleas	acq_US_unple_nomask	acq45_nomask	5	10	400	1	300	300	0	0	435	46	1	0	anregung	sonnig	kreativ	träumen	vergnügt	genießen	ausrottung	sterben	krank	töten	verbissen	gemein	vertrauen	kuss	besonnen	gütig	gesittet	engagiert	versagen	krise	bange	gierig	geizig	engstirnig	1	blank2r.bmp	0	1	+	0	1	blank2r.bmp	500	1	DHJF	500	1	blank2r.bmp	880	4	töten	880	1	!	1232	1	!	1337	0	0	0	0	0	0
2024-06-12	10:52:08	11:02:23	615282	6.6.1	4_exp_EVA_AWA_CON	82	A	B	Rpleas_acq	Oppo	Rpleas	1pleas	acq_US_pleas_nomask	acq45_nomask	5	11	400	1	300	300	0	0	384	50	1	0	anregung	sonnig	kreativ	träumen	vergnügt	genießen	ausrottung	sterben	krank	töten	verbissen	gemein	vertrauen	kuss	besonnen	gütig	gesittet	engagiert	versagen	krise	bange	gierig	geizig	engstirnig	1	blank2r.bmp	0	1	+	0	1	blank2r.bmp	500	1	CPLW	500	1	blank2r.bmp	880	4	träumen	880	1	!	1232	1	!	1285	0	0	0	0	0	0
2024-06-12	10:52:08	11:02:26	617544	6.6.1	4_exp_EVA_AWA_CON	82	A	B	Rpleas_acq	Oppo	Rpleas	1pleas	acq_US_pleas_nomask	acq45_nomask	5	12	400	0	300	300	0	0	486	50	1	0	anregung	sonnig	kreativ	träumen	vergnügt	genießen	ausrottung	sterben	krank	töten	verbissen	gemein	vertrauen	kuss	besonnen	gütig	gesittet	engagiert	versagen	krise	bange	gierig	geizig	engstirnig	1	blank2r.bmp	0	1	+	0	1	blank2r.bmp	500	1	CPLW	500	1	blank2r.bmp	880	3	kreativ	880	1	!	1232	1	!	-1	0	0	0	0	0	0
2024-06-12	10:52:08	11:02:28	619920	6.6.1	4_exp_EVA_AWA_CON	82	A	B	Rpleas_acq	Oppo	Rpleas	1pleas	acq_US_pleas_nomask	acq45_nomask	5	13	400	0	300	300	0	0	601	50	1	0	anregung	sonnig	kreativ	träumen	vergnügt	genießen	ausrottung	sterben	krank	töten	verbissen	gemein	vertrauen	kuss	besonnen	gütig	gesittet	engagiert	versagen	krise	bange	gierig	geizig	engstirnig	1	blank2r.bmp	0	1	+	0	1	blank2r.bmp	500	1	CPLW	500	1	blank2r.bmp	880	5	vergnügt	880	1	!	1232	1	!	-1	0	0	0	0	0	0
2024-06-12	10:52:08	11:02:30	621928	6.6.1	4_exp_EVA_AWA_CON	82	A	B	Rpleas_acq	Oppo	Rpleas	1pleas	acq_US_unple_nomask	acq45_nomask	5	14	400	0	300	300	0	0	227	46	1	0	anregung	sonnig	kreativ	träumen	vergnügt	genießen	ausrottung	sterben	krank	töten	verbissen	gemein	vertrauen	kuss	besonnen	gütig	gesittet	engagiert	versagen	krise	bange	gierig	geizig	engstirnig	1	blank2r.bmp	0	1	+	0	1	blank2r.bmp	500	1	DHJF	500	1	blank2r.bmp	880	1	ausrottung	880	1	!	-1	1	!	-1	0	0	0	0	0	0
2024-06-12	10:52:08	11:02:32	624040	6.6.1	4_exp_EVA_AWA_CON	82	A	B	Rpleas_acq	Oppo	Rpleas	1pleas	acq_US_unple_nomask	acq45_nomask	5	15	400	1	300	300	0	0	338	46	1	0	anregung	sonnig	kreativ	träumen	vergnügt	genießen	ausrottung	sterben	krank	töten	verbissen	gemein	vertrauen	kuss	besonnen	gütig	gesittet	engagiert	versagen	krise	bange	gierig	geizig	engstirnig	1	blank2r.bmp	0	1	+	0	1	blank2r.bmp	500	1	DHJF	500	1	blank2r.bmp	880	3	krank	880	1	!	1233	1	!	1238	0	0	0	0	0	0
2024-06-12	10:52:08	11:02:34	626120	6.6.1	4_exp_EVA_AWA_CON	82	A	B	Rpleas_acq	Oppo	Rpleas	1pleas	acq_US_unple_nomask	acq45_nomask	5	16	400	0	300	300	0	0	307	46	1	0	anregung	sonnig	kreativ	träumen	vergnügt	genießen	ausrottung	sterben	krank	töten	verbissen	gemein	vertrauen	kuss	besonnen	gütig	gesittet	engagiert	versagen	krise	bange	gierig	geizig	engstirnig	1	blank2r.bmp	0	1	+	0	1	blank2r.bmp	500	1	DHJF	500	1	blank2r.bmp	880	4	töten	880	1	!	-1	1	!	-1	0	0	0	0	0	0
2024-06-12	10:52:08	11:02:36	628216	6.6.1	4_exp_EVA_AWA_CON	82	A	B	Rpleas_acq	Oppo	Rpleas	1pleas	acq_US_pleas_nomask	acq45_nomask	5	17	400	0	300	300	0	0	321	46	0	0	anregung	sonnig	kreativ	träumen	vergnügt	genießen	ausrottung	sterben	krank	töten	verbissen	gemein	vertrauen	kuss	besonnen	gütig	gesittet	engagiert	versagen	krise	bange	gierig	geizig	engstirnig	1	blank2r.bmp	0	1	+	0	1	blank2r.bmp	500	1	CPLW	500	1	blank2r.bmp	880	4	träumen	880	1	!	-1	1	!	-1	0	0	0	0	0	0
2024-06-12	10:52:08	11:02:38	630346	6.6.1	4_exp_EVA_AWA_CON	82	A	B	Rpleas_acq	Oppo	Rpleas	1pleas	acq_US_unple_nomask	acq45_nomask	5	18	400	1	300	300	0	0	348	50	0	0	anregung	sonnig	kreativ	träumen	vergnügt	genießen	ausrottung	sterben	krank	töten	verbissen	gemein	vertrauen	kuss	besonnen	gütig	gesittet	engagiert	versagen	krise	bange	gierig	geizig	engstirnig	1	blank2r.bmp	0	1	+	0	1	blank2r.bmp	500	1	DHJF	500	1	blank2r.bmp	880	1	ausrottung	880	1	!	1232	1	!	1249	0	0	0	0	0	0
2024-06-12	10:52:08	11:02:40	632424	6.6.1	4_exp_EVA_AWA_CON	82	A	B	Rpleas_acq	Oppo	Rpleas	1pleas	acq_US_unple_nomask	acq45_nomask	5	19	400	0	300	300	0	0	297	46	1	0	anregung	sonnig	kreativ	träumen	vergnügt	genießen	ausrottung	sterben	krank	töten	verbissen	gemein	vertrauen	kuss	besonnen	gütig	gesittet	engagiert	versagen	krise	bange	gierig	geizig	engstirnig	1	blank2r.bmp	0	1	+	0	1	blank2r.bmp	500	1	DHJF	500	1	blank2r.bmp	880	5	verbissen	880	1	!	-1	1	!	-1	0	0	0	0	0	0
2024-06-12	10:52:08	11:02:43	634678	6.6.1	4_exp_EVA_AWA_CON	82	A	B	Rpleas_acq	Oppo	Rpleas	1pleas	acq_US_pleas_nomask	acq45_nomask	5	20	400	0	300	300	0	0	481	50	1	0	anregung	sonnig	kreativ	träumen	vergnügt	genießen	ausrottung	sterben	krank	töten	verbissen	gemein	vertrauen	kuss	besonnen	gütig	gesittet	engagiert	versagen	krise	bange	gierig	geizig	engstirnig	1	blank2r.bmp	0	1	+	0	1	blank2r.bmp	500	1	CPLW	500	1	blank2r.bmp	880	1	anregung	880	1	!	1232	1	!	-1	0	0	0	0	0	0
2024-06-12	10:52:08	11:02:45	636696	6.6.1	4_exp_EVA_AWA_CON	82	A	B	Rpleas_acq	Oppo	Rpleas	1pleas	acq_US_pleas_nomask	acq45_nomask	5	21	400	0	300	300	0	0	236	46	0	0	anregung	sonnig	kreativ	träumen	vergnügt	genießen	ausrottung	sterben	krank	töten	verbissen	gemein	vertrauen	kuss	besonnen	gütig	gesittet	engagiert	versagen	krise	bange	gierig	geizig	engstirnig	1	blank2r.bmp	0	1	+	0	1	blank2r.bmp	500	1	CPLW	500	1	blank2r.bmp	880	6	genießen	880	1	!	-1	1	!	-1	0	0	0	0	0	0
2024-06-12	10:52:08	11:02:47	638898	6.6.1	4_exp_EVA_AWA_CON	82	A	B	Rpleas_acq	Oppo	Rpleas	1pleas	acq_US_unple_nomask	acq45_nomask	5	22	400	1	300	300	0	0	425	46	1	0	anregung	sonnig	kreativ	träumen	vergnügt	genießen	ausrottung	sterben	krank	töten	verbissen	gemein	vertrauen	kuss	besonnen	gütig	gesittet	engagiert	versagen	krise	bange	gierig	geizig	engstirnig	1	blank2r.bmp	0	1	+	0	1	blank2r.bmp	500	1	DHJF	500	1	blank2r.bmp	880	6	gemein	880	1	!	1232	1	!	1326	0	0	0	0	0	0
2024-06-12	10:52:08	11:02:49	641000	6.6.1	4_exp_EVA_AWA_CON	82	A	B	Rpleas_acq	Oppo	Rpleas	1pleas	acq_US_pleas_nomask	acq45_nomask	5	23	400	0	300	300	0	0	327	50	1	0	anregung	sonnig	kreativ	träumen	vergnügt	genießen	ausrottung	sterben	krank	töten	verbissen	gemein	vertrauen	kuss	besonnen	gütig	gesittet	engagiert	versagen	krise	bange	gierig	geizig	engstirnig	1	blank2r.bmp	0	1	+	0	1	blank2r.bmp	500	1	CPLW	500	1	blank2r.bmp	880	2	sonnig	880	1	!	-1	1	!	-1	0	0	0	0	0	0
2024-06-12	10:52:08	11:02:51	643246	6.6.1	4_exp_EVA_AWA_CON	82	A	B	Rpleas_acq	Oppo	Rpleas	1pleas	acq_US_pleas_nomask	acq45_nomask	5	24	400	0	300	300	0	0	474	50	1	0	anregung	sonnig	kreativ	träumen	vergnügt	genießen	ausrottung	sterben	krank	töten	verbissen	gemein	vertrauen	kuss	besonnen	gütig	gesittet	engagiert	versagen	krise	bange	gierig	geizig	engstirnig	1	blank2r.bmp	0	1	+	0	1	blank2r.bmp	500	1	CPLW	500	1	blank2r.bmp	880	5	vergnügt	880	1	!	1232	1	!	-1	0	0	0	0	0	0
2024-06-12	10:52:08	11:02:55	647176	6.6.1	4_exp_EVA_AWA_CON	82	A	B	Rpleas_acq	Oppo	Rpleas	1pleas	acq_US_pleas_nomask	acq45_nomask	5	25	400	0	300	300	0	0	2151	50	1	0	anregung	sonnig	kreativ	träumen	vergnügt	genießen	ausrottung	sterben	krank	töten	verbissen	gemein	vertrauen	kuss	besonnen	gütig	gesittet	engagiert	versagen	krise	bange	gierig	geizig	engstirnig	1	blank2r.bmp	0	1	+	0	1	blank2r.bmp	500	1	CPLW	500	1	blank2r.bmp	880	2	sonnig	880	1	!	1232	1	!	-1	0	0	0	0	0	0
2024-06-12	10:52:08	11:02:57	649192	6.6.1	4_exp_EVA_AWA_CON	82	A	B	Rpleas_acq	Oppo	Rpleas	1pleas	acq_US_pleas_nomask	acq45_nomask	5	26	400	0	300	300	0	0	244	46	0	0	anregung	sonnig	kreativ	träumen	vergnügt	genießen	ausrottung	sterben	krank	töten	verbissen	gemein	vertrauen	kuss	besonnen	gütig	gesittet	engagiert	versagen	krise	bange	gierig	geizig	engstirnig	1	blank2r.bmp	0	1	+	0	1	blank2r.bmp	500	1	CPLW	500	1	blank2r.bmp	880	1	anregung	880	1	!	-1	1	!	-1	0	0	0	0	0	0
2024-06-12	10:52:08	11:02:59	651442	6.6.1	4_exp_EVA_AWA_CON	82	A	B	Rpleas_acq	Oppo	Rpleas	1pleas	acq_US_unple_nomask	acq45_nomask	5	27	400	1	300	300	0	0	471	46	1	0	anregung	sonnig	kreativ	träumen	vergnügt	genießen	ausrottung	sterben	krank	töten	verbissen	gemein	vertrauen	kuss	besonnen	gütig	gesittet	engagiert	versagen	krise	bange	gierig	geizig	engstirnig	1	blank2r.bmp	0	1	+	0	1	blank2r.bmp	500	1	DHJF	500	1	blank2r.bmp	880	2	sterben	880	1	!	1233	1	!	1372	0	0	0	0	0	0
2024-06-12	10:52:08	11:03:02	653554	6.6.1	4_exp_EVA_AWA_CON	82	A	B	Rpleas_acq	Oppo	Rpleas	1pleas	acq_US_unple_nomask	acq45_nomask	5	28	400	1	300	300	0	0	331	46	1	0	anregung	sonnig	kreativ	träumen	vergnügt	genießen	ausrottung	sterben	krank	töten	verbissen	gemein	vertrauen	kuss	besonnen	gütig	gesittet	engagiert	versagen	krise	bange	gierig	geizig	engstirnig	1	blank2r.bmp	0	1	+	0	1	blank2r.bmp	500	1	DHJF	500	1	blank2r.bmp	880	4	töten	880	1	!	1232	1	!	1233	0	0	0	0	0	0
2024-06-12	10:52:08	11:03:04	655920	6.6.1	4_exp_EVA_AWA_CON	82	A	B	Rpleas_acq	Oppo	Rpleas	1pleas	acq_US_unple_nomask	acq45_nomask	5	29	400	0	300	300	0	0	588	46	1	0	anregung	sonnig	kreativ	träumen	vergnügt	genießen	ausrottung	sterben	krank	töten	verbissen	gemein	vertrauen	kuss	besonnen	gütig	gesittet	engagiert	versagen	krise	bange	gierig	geizig	engstirnig	1	blank2r.bmp	0	1	+	0	1	blank2r.bmp	500	1	DHJF	500	1	blank2r.bmp	880	6	gemein	880	1	!	1232	1	!	-1	0	0	0	0	0	0
2024-06-12	10:52:08	11:03:06	658082	6.6.1	4_exp_EVA_AWA_CON	82	A	B	Rpleas_acq	Oppo	Rpleas	1pleas	acq_US_unple_nomask	acq45_nomask	5	30	400	1	300	300	0	0	386	46	1	0	anregung	sonnig	kreativ	träumen	vergnügt	genießen	ausrottung	sterben	krank	töten	verbissen	gemein	vertrauen	kuss	besonnen	gütig	gesittet	engagiert	versagen	krise	bange	gierig	geizig	engstirnig	1	blank2r.bmp	0	1	+	0	1	blank2r.bmp	500	1	DHJF	500	1	blank2r.bmp	880	5	verbissen	880	1	!	1232	1	!	1287	0	0	0	0	0	0
2024-06-12	10:52:08	11:03:08	660192	6.6.1	4_exp_EVA_AWA_CON	82	A	B	Rpleas_acq	Oppo	Rpleas	1pleas	acq_US_unple_nomask	acq45_nomask	5	31	400	1	300	300	0	0	337	46	1	0	anregung	sonnig	kreativ	träumen	vergnügt	genießen	ausrottung	sterben	krank	töten	verbissen	gemein	vertrauen	kuss	besonnen	gütig	gesittet	engagiert	versagen	krise	bange	gierig	geizig	engstirnig	1	blank2r.bmp	0	1	+	0	1	blank2r.bmp	500	1	DHJF	500	1	blank2r.bmp	880	2	sterben	880	1	!	1233	1	!	1237	0	0	0	0	0	0
2024-06-12	10:52:08	11:03:10	662232	6.6.1	4_exp_EVA_AWA_CON	82	A	B	Rpleas_acq	Oppo	Rpleas	1pleas	acq_US_unple_nomask	acq45_nomask	5	32	400	0	300	300	0	0	266	50	0	0	anregung	sonnig	kreativ	träumen	vergnügt	genießen	ausrottung	sterben	krank	töten	verbissen	gemein	vertrauen	kuss	besonnen	gütig	gesittet	engagiert	versagen	krise	bange	gierig	geizig	engstirnig	1	blank2r.bmp	0	1	+	0	1	blank2r.bmp	500	1	DHJF	500	1	blank2r.bmp	880	1	ausrottung	880	1	!	-1	1	!	-1	0	0	0	0	0	0
2024-06-12	10:52:08	11:03:12	664370	6.6.1	4_exp_EVA_AWA_CON	82	A	B	Rpleas_acq	Oppo	Rpleas	1pleas	acq_US_pleas_nomask	acq45_nomask	5	33	400	1	300	300	0	0	360	46	0	0	anregung	sonnig	kreativ	träumen	vergnügt	genießen	ausrottung	sterben	krank	töten	verbissen	gemein	vertrauen	kuss	besonnen	gütig	gesittet	engagiert	versagen	krise	bange	gierig	geizig	engstirnig	1	blank2r.bmp	0	1	+	0	1	blank2r.bmp	500	1	CPLW	500	1	blank2r.bmp	880	3	kreativ	880	1	!	1232	1	!	1262	0	0	0	0	0	0
2024-06-12	10:52:08	11:03:15	666712	6.6.1	4_exp_EVA_AWA_CON	82	A	B	Rpleas_acq	Oppo	Rpleas	1pleas	acq_US_pleas_nomask	acq45_nomask	5	34	400	0	300	300	0	0	563	50	1	0	anregung	sonnig	kreativ	träumen	vergnügt	genießen	ausrottung	sterben	krank	töten	verbissen	gemein	vertrauen	kuss	besonnen	gütig	gesittet	engagiert	versagen	krise	bange	gierig	geizig	engstirnig	1	blank2r.bmp	0	1	+	0	1	blank2r.bmp	500	1	CPLW	500	1	blank2r.bmp	880	4	träumen	880	1	!	1232	1	!	-1	0	0	0	0	0	0
2024-06-12	10:52:08	11:03:17	669136	6.6.1	4_exp_EVA_AWA_CON	82	A	B	Rpleas_acq	Oppo	Rpleas	1pleas	acq_US_pleas_nomask	acq45_nomask	5	35	400	0	300	300	0	0	645	50	1	0	anregung	sonnig	kreativ	träumen	vergnügt	genießen	ausrottung	sterben	krank	töten	verbissen	gemein	vertrauen	kuss	besonnen	gütig	gesittet	engagiert	versagen	krise	bange	gierig	geizig	engstirnig	1	blank2r.bmp	0	1	+	0	1	blank2r.bmp	500	1	CPLW	500	1	blank2r.bmp	880	6	genießen	880	1	!	1232	1	!	-1	0	0	0	0	0	0
2024-06-12	10:52:08	11:03:19	671274	6.6.1	4_exp_EVA_AWA_CON	82	A	B	Rpleas_acq	Oppo	Rpleas	1pleas	acq_US_unple_nomask	acq45_nomask	5	36	400	1	300	300	0	0	360	46	1	0	anregung	sonnig	kreativ	träumen	vergnügt	genießen	ausrottung	sterben	krank	töten	verbissen	gemein	vertrauen	kuss	besonnen	gütig	gesittet	engagiert	versagen	krise	bange	gierig	geizig	engstirnig	1	blank2r.bmp	0	1	+	0	1	blank2r.bmp	500	1	DHJF	500	1	blank2r.bmp	880	3	krank	880	1	!	1232	1	!	1262	0	0	0	0	0	0
2024-06-12	10:52:08	11:03:55	706836	6.6.1	4_exp_EVA_AWA_CON	82	A	B	Rpleas_acq	Oppo	Lpleas	1pleas	EvalRating_firsttwo	EvalRating_firsttwo	6	1	0	0	300	300	0	0	6386	line	0	-84,1145833333333285964pct	anregung	sonnig	kreativ	träumen	vergnügt	genießen	ausrottung	sterben	krank	töten	verbissen	gemein	vertrauen	kuss	besonnen	gütig	gesittet	engagiert	versagen	krise	bange	gierig	geizig	engstirnig	1		-7	1	Wie angenehm oder unangenehm finden Sie die  Buchstabenkette WDLH?	-7	1		-7	1		-7	1		-7	1	Unangenehm	-7	1	Angenehm	-7	0	0	0	0	0	0	0	0	0
2024-06-12	10:52:08	11:04:02	714453	6.6.1	4_exp_EVA_AWA_CON	82	A	B	Rpleas_acq	Oppo	Lpleas	1pleas	EvalRating_lastfour	EvalRating_lastfour	7	1	0	0	300	300	0	0	5237	line	0	-50,390625pct	anregung	sonnig	kreativ	träumen	vergnügt	genießen	ausrottung	sterben	krank	töten	verbissen	gemein	vertrauen	kuss	besonnen	gütig	gesittet	engagiert	versagen	krise	bange	gierig	geizig	engstirnig	1		-7	1	Wie angenehm oder unangenehm finden Sie die  Buchstabenkette CPLW?	-7	1		-7	1		-7	1		-7	1	Unangenehm	-7	1	Angenehm	-7	0	0	0	0	0	0	0	0	0
2024-06-12	10:52:08	11:04:05	716823	6.6.1	4_exp_EVA_AWA_CON	82	A	B	Rpleas_acq	Oppo	Lpleas	1pleas	blank_screen	EvalRating_lastfour	7	3	0	0	300	300	0	0	0	0	0	-50,390625pct	anregung	sonnig	kreativ	träumen	vergnügt	genießen	ausrottung	sterben	krank	töten	verbissen	gemein	vertrauen	kuss	besonnen	gütig	gesittet	engagiert	versagen	krise	bange	gierig	geizig	engstirnig	1		-8	0	0	0	0	0	0	0	0	0	0	0	0	0	0	0	0	0	0	0	0	0	0	0	0	0	0	0
2024-06-12	10:52:08	11:04:15	726509	6.6.1	4_exp_EVA_AWA_CON	82	A	B	Rpleas_acq	Oppo	Lpleas	1pleas	EvalRating_lastfour	EvalRating_lastfour	7	4	0	0	300	300	0	0	9097	line	0	-66,015625pct	anregung	sonnig	kreativ	träumen	vergnügt	genießen	ausrottung	sterben	krank	töten	verbissen	gemein	vertrauen	kuss	besonnen	gütig	gesittet	engagiert	versagen	krise	bange	gierig	geizig	engstirnig	1		-8	3	Wie angenehm oder unangenehm finden Sie die  Buchstabenkette FCJP?	-8	1		-8	1		-8	1		-8	1	Unangenehm	-8	1	Angenehm	-8	0	0	0	0	0	0	0	0	0
2024-06-12	10:52:08	11:04:17	728881	6.6.1	4_exp_EVA_AWA_CON	82	A	B	Rpleas_acq	Oppo	Lpleas	1pleas	blank_screen	EvalRating_lastfour	7	6	0	0	300	300	0	0	0	0	0	-66,015625pct	anregung	sonnig	kreativ	träumen	vergnügt	genießen	ausrottung	sterben	krank	töten	verbissen	gemein	vertrauen	kuss	besonnen	gütig	gesittet	engagiert	versagen	krise	bange	gierig	geizig	engstirnig	1		-8	0	0	0	0	0	0	0	0	0	0	0	0	0	0	0	0	0	0	0	0	0	0	0	0	0	0	0
2024-06-12	10:52:08	11:04:21	732788	6.6.1	4_exp_EVA_AWA_CON	82	A	B	Rpleas_acq	Oppo	Lpleas	1pleas	EvalRating_lastfour	EvalRating_lastfour	7	7	0	0	300	300	0	0	3320	line	0	73,828125pct	anregung	sonnig	kreativ	träumen	vergnügt	genießen	ausrottung	sterben	krank	töten	verbissen	gemein	vertrauen	kuss	besonnen	gütig	gesittet	engagiert	versagen	krise	bange	gierig	geizig	engstirnig	1		-8	2	Wie angenehm oder unangenehm finden Sie die  Buchstabenkette DHJF?	-8	1		-8	1		-8	1		-8	1	Unangenehm	-8	1	Angenehm	-8	0	0	0	0	0	0	0	0	0
2024-06-12	10:52:08	11:05:42	814454	6.6.1	4_exp_EVA_AWA_CON	82	A	B	Rpleas_acq	Oppo	Lpleas	1pleas	conawa_CS1_US1	conawa1_nomask	8	1	0	0	300	300	0	0	21484	ausrottung	1	73,828125pct	anregung	sonnig	kreativ	träumen	vergnügt	genießen	ausrottung	sterben	krank	töten	verbissen	gemein	vertrauen	kuss	besonnen	gütig	gesittet	engagiert	versagen	krise	bange	gierig	geizig	engstirnig	0	0	0	0	0	0	0	0	0	0	0	0	0	0	0	0	0	0	0	0	0	0	0	0	0	0	0	0	0	0
2024-06-12	10:52:08	11:05:42	814455	6.6.1	4_exp_EVA_AWA_CON	82	A	B	Rpleas_acq	Oppo	Lpleas	1pleas	conawa_CS1_US1_confidence	conawa1_nomask	8	1	0	0	300	300	0	0	21484	sure	1	73,828125pct	anregung	sonnig	kreativ	träumen	vergnügt	genießen	ausrottung	sterben	krank	töten	verbissen	gemein	vertrauen	kuss	besonnen	gütig	gesittet	engagiert	versagen	krise	bange	gierig	geizig	engstirnig	0	0	0	0	0	0	0	0	0	0	0	0	0	0	0	0	0	0	0	0	0	0	0	0	0	0	0	0	0	0
2024-06-12	10:52:08	11:05:54	826292	6.6.1	4_exp_EVA_AWA_CON	82	A	B	Rpleas_acq	Oppo	Lpleas	1pleas	conawa_CS1_US6	conawa1_nomask	8	2	0	0	300	300	0	0	11222	genießen	1	73,828125pct	anregung	sonnig	kreativ	träumen	vergnügt	genießen	ausrottung	sterben	krank	töten	verbissen	gemein	vertrauen	kuss	besonnen	gütig	gesittet	engagiert	versagen	krise	bange	gierig	geizig	engstirnig	0	0	0	0	0	0	0	0	0	0	0	0	0	0	0	0	0	0	0	0	0	0	0	0	0	0	0	0	0	0
2024-06-12	10:52:08	11:05:54	826293	6.6.1	4_exp_EVA_AWA_CON	82	A	B	Rpleas_acq	Oppo	Lpleas	1pleas	conawa_CS1_US6_confidence	conawa1_nomask	8	2	0	0	300	300	0	0	11222	guess	1	73,828125pct	anregung	sonnig	kreativ	träumen	vergnügt	genießen	ausrottung	sterben	krank	töten	verbissen	gemein	vertrauen	kuss	besonnen	gütig	gesittet	engagiert	versagen	krise	bange	gierig	geizig	engstirnig	0	0	0	0	0	0	0	0	0	0	0	0	0	0	0	0	0	0	0	0	0	0	0	0	0	0	0	0	0	0
2024-06-12	10:52:08	11:06:05	836498	6.6.1	4_exp_EVA_AWA_CON	82	A	B	Rpleas_acq	Oppo	Lpleas	1pleas	conawa_CS2_US3	conawa1_nomask	8	3	0	0	300	300	0	0	9583	krank	1	73,828125pct	anregung	sonnig	kreativ	träumen	vergnügt	genießen	ausrottung	sterben	krank	töten	verbissen	gemein	vertrauen	kuss	besonnen	gütig	gesittet	engagiert	versagen	krise	bange	gierig	geizig	engstirnig	0	0	0	0	0	0	0	0	0	0	0	0	0	0	0	0	0	0	0	0	0	0	0	0	0	0	0	0	0	0
2024-06-12	10:52:08	11:06:05	836500	6.6.1	4_exp_EVA_AWA_CON	82	A	B	Rpleas_acq	Oppo	Lpleas	1pleas	conawa_CS2_US3_confidence	conawa1_nomask	8	3	0	0	300	300	0	0	9583	guess	1	73,828125pct	anregung	sonnig	kreativ	träumen	vergnügt	genießen	ausrottung	sterben	krank	töten	verbissen	gemein	vertrauen	kuss	besonnen	gütig	gesittet	engagiert	versagen	krise	bange	gierig	geizig	engstirnig	0	0	0	0	0	0	0	0	0	0	0	0	0	0	0	0	0	0	0	0	0	0	0	0	0	0	0	0	0	0
2024-06-12	10:52:08	11:06:15	847065	6.6.1	4_exp_EVA_AWA_CON	82	A	B	Rpleas_acq	Oppo	Lpleas	1pleas	conawa_CS2_US4	conawa1_nomask	8	4	0	0	300	300	0	0	9946	träumen	1	73,828125pct	anregung	sonnig	kreativ	träumen	vergnügt	genießen	ausrottung	sterben	krank	töten	verbissen	gemein	vertrauen	kuss	besonnen	gütig	gesittet	engagiert	versagen	krise	bange	gierig	geizig	engstirnig	0	0	0	0	0	0	0	0	0	0	0	0	0	0	0	0	0	0	0	0	0	0	0	0	0	0	0	0	0	0
2024-06-12	10:52:08	11:06:15	847066	6.6.1	4_exp_EVA_AWA_CON	82	A	B	Rpleas_acq	Oppo	Lpleas	1pleas	conawa_CS2_US4_confidence	conawa1_nomask	8	4	0	0	300	300	0	0	9946	probably	1	73,828125pct	anregung	sonnig	kreativ	träumen	vergnügt	genießen	ausrottung	sterben	krank	töten	verbissen	gemein	vertrauen	kuss	besonnen	gütig	gesittet	engagiert	versagen	krise	bange	gierig	geizig	engstirnig	0	0	0	0	0	0	0	0	0	0	0	0	0	0	0	0	0	0	0	0	0	0	0	0	0	0	0	0	0	0
2024-06-12	10:52:08	11:06:28	860254	6.6.1	4_exp_EVA_AWA_CON	82	A	B	Rpleas_acq	Oppo	Lpleas	1pleas	conawa_CS2_US5	conawa1_nomask	8	5	0	0	300	300	0	0	12572	verbissen	1	73,828125pct	anregung	sonnig	kreativ	träumen	vergnügt	genießen	ausrottung	sterben	krank	töten	verbissen	gemein	vertrauen	kuss	besonnen	gütig	gesittet	engagiert	versagen	krise	bange	gierig	geizig	engstirnig	0	0	0	0	0	0	0	0	0	0	0	0	0	0	0	0	0	0	0	0	0	0	0	0	0	0	0	0	0	0
2024-06-12	10:52:08	11:06:28	860255	6.6.1	4_exp_EVA_AWA_CON	82	A	B	Rpleas_acq	Oppo	Lpleas	1pleas	conawa_CS2_US5_confidence	conawa1_nomask	8	5	0	0	300	300	0	0	12572	guess	1	73,828125pct	anregung	sonnig	kreativ	träumen	vergnügt	genießen	ausrottung	sterben	krank	töten	verbissen	gemein	vertrauen	kuss	besonnen	gütig	gesittet	engagiert	versagen	krise	bange	gierig	geizig	engstirnig	0	0	0	0	0	0	0	0	0	0	0	0	0	0	0	0	0	0	0	0	0	0	0	0	0	0	0	0	0	0
2024-06-12	10:52:08	11:06:39	871250	6.6.1	4_exp_EVA_AWA_CON	82	A	B	Rpleas_acq	Oppo	Lpleas	1pleas	conawa_CS1_US4	conawa1_nomask	8	6	0	0	300	300	0	0	10384	gütig	1	73,828125pct	anregung	sonnig	kreativ	träumen	vergnügt	genießen	ausrottung	sterben	krank	töten	verbissen	gemein	vertrauen	kuss	besonnen	gütig	gesittet	engagiert	versagen	krise	bange	gierig	geizig	engstirnig	0	0	0	0	0	0	0	0	0	0	0	0	0	0	0	0	0	0	0	0	0	0	0	0	0	0	0	0	0	0
2024-06-12	10:52:08	11:06:39	871252	6.6.1	4_exp_EVA_AWA_CON	82	A	B	Rpleas_acq	Oppo	Lpleas	1pleas	conawa_CS1_US4_confidence	conawa1_nomask	8	6	0	0	300	300	0	0	10384	guess	1	73,828125pct	anregung	sonnig	kreativ	träumen	vergnügt	genießen	ausrottung	sterben	krank	töten	verbissen	gemein	vertrauen	kuss	besonnen	gütig	gesittet	engagiert	versagen	krise	bange	gierig	geizig	engstirnig	0	0	0	0	0	0	0	0	0	0	0	0	0	0	0	0	0	0	0	0	0	0	0	0	0	0	0	0	0	0
2024-06-12	10:52:08	11:06:51	883399	6.6.1	4_exp_EVA_AWA_CON	82	A	B	Rpleas_acq	Oppo	Lpleas	1pleas	conawa_CS1_US2	conawa1_nomask	8	7	0	0	300	300	0	0	11531	sonnig	1	73,828125pct	anregung	sonnig	kreativ	träumen	vergnügt	genießen	ausrottung	sterben	krank	töten	verbissen	gemein	vertrauen	kuss	besonnen	gütig	gesittet	engagiert	versagen	krise	bange	gierig	geizig	engstirnig	0	0	0	0	0	0	0	0	0	0	0	0	0	0	0	0	0	0	0	0	0	0	0	0	0	0	0	0	0	0
2024-06-12	10:52:08	11:06:51	883400	6.6.1	4_exp_EVA_AWA_CON	82	A	B	Rpleas_acq	Oppo	Lpleas	1pleas	conawa_CS1_US2_confidence	conawa1_nomask	8	7	0	0	300	300	0	0	11531	guess	1	73,828125pct	anregung	sonnig	kreativ	träumen	vergnügt	genießen	ausrottung	sterben	krank	töten	verbissen	gemein	vertrauen	kuss	besonnen	gütig	gesittet	engagiert	versagen	krise	bange	gierig	geizig	engstirnig	0	0	0	0	0	0	0	0	0	0	0	0	0	0	0	0	0	0	0	0	0	0	0	0	0	0	0	0	0	0
2024-06-12	10:52:08	11:07:02	894055	6.6.1	4_exp_EVA_AWA_CON	82	A	B	Rpleas_acq	Oppo	Lpleas	1pleas	conawa_CS1_US3	conawa1_nomask	8	8	0	0	300	300	0	0	10038	besonnen	1	73,828125pct	anregung	sonnig	kreativ	träumen	vergnügt	genießen	ausrottung	sterben	krank	töten	verbissen	gemein	vertrauen	kuss	besonnen	gütig	gesittet	engagiert	versagen	krise	bange	gierig	geizig	engstirnig	0	0	0	0	0	0	0	0	0	0	0	0	0	0	0	0	0	0	0	0	0	0	0	0	0	0	0	0	0	0
2024-06-12	10:52:08	11:07:02	894057	6.6.1	4_exp_EVA_AWA_CON	82	A	B	Rpleas_acq	Oppo	Lpleas	1pleas	conawa_CS1_US3_confidence	conawa1_nomask	8	8	0	0	300	300	0	0	10038	probably	1	73,828125pct	anregung	sonnig	kreativ	träumen	vergnügt	genießen	ausrottung	sterben	krank	töten	verbissen	gemein	vertrauen	kuss	besonnen	gütig	gesittet	engagiert	versagen	krise	bange	gierig	geizig	engstirnig	0	0	0	0	0	0	0	0	0	0	0	0	0	0	0	0	0	0	0	0	0	0	0	0	0	0	0	0	0	0
2024-06-12	10:52:08	11:07:10	902230	6.6.1	4_exp_EVA_AWA_CON	82	A	B	Rpleas_acq	Oppo	Lpleas	1pleas	conawa_CS2_US2	conawa1_nomask	8	9	0	0	300	300	0	0	7559	sterben	1	73,828125pct	anregung	sonnig	kreativ	träumen	vergnügt	genießen	ausrottung	sterben	krank	töten	verbissen	gemein	vertrauen	kuss	besonnen	gütig	gesittet	engagiert	versagen	krise	bange	gierig	geizig	engstirnig	0	0	0	0	0	0	0	0	0	0	0	0	0	0	0	0	0	0	0	0	0	0	0	0	0	0	0	0	0	0
2024-06-12	10:52:08	11:07:10	902232	6.6.1	4_exp_EVA_AWA_CON	82	A	B	Rpleas_acq	Oppo	Lpleas	1pleas	conawa_CS2_US2_confidence	conawa1_nomask	8	9	0	0	300	300	0	0	7559	guess	1	73,828125pct	anregung	sonnig	kreativ	träumen	vergnügt	genießen	ausrottung	sterben	krank	töten	verbissen	gemein	vertrauen	kuss	besonnen	gütig	gesittet	engagiert	versagen	krise	bange	gierig	geizig	engstirnig	0	0	0	0	0	0	0	0	0	0	0	0	0	0	0	0	0	0	0	0	0	0	0	0	0	0	0	0	0	0
2024-06-12	10:52:08	11:07:22	914318	6.6.1	4_exp_EVA_AWA_CON	82	A	B	Rpleas_acq	Oppo	Lpleas	1pleas	conawa_CS2_US6	conawa1_nomask	8	10	0	0	300	300	0	0	11471	genießen	1	73,828125pct	anregung	sonnig	kreativ	träumen	vergnügt	genießen	ausrottung	sterben	krank	töten	verbissen	gemein	vertrauen	kuss	besonnen	gütig	gesittet	engagiert	versagen	krise	bange	gierig	geizig	engstirnig	0	0	0	0	0	0	0	0	0	0	0	0	0	0	0	0	0	0	0	0	0	0	0	0	0	0	0	0	0	0
2024-06-12	10:52:08	11:07:22	914320	6.6.1	4_exp_EVA_AWA_CON	82	A	B	Rpleas_acq	Oppo	Lpleas	1pleas	conawa_CS2_US6_confidence	conawa1_nomask	8	10	0	0	300	300	0	0	11471	guess	1	73,828125pct	anregung	sonnig	kreativ	träumen	vergnügt	genießen	ausrottung	sterben	krank	töten	verbissen	gemein	vertrauen	kuss	besonnen	gütig	gesittet	engagiert	versagen	krise	bange	gierig	geizig	engstirnig	0	0	0	0	0	0	0	0	0	0	0	0	0	0	0	0	0	0	0	0	0	0	0	0	0	0	0	0	0	0
2024-06-12	10:52:08	11:07:29	920993	6.6.1	4_exp_EVA_AWA_CON	82	A	B	Rpleas_acq	Oppo	Lpleas	1pleas	conawa_CS1_US5	conawa1_nomask	8	11	0	0	300	300	0	0	6054	geizig	1	73,828125pct	anregung	sonnig	kreativ	träumen	vergnügt	genießen	ausrottung	sterben	krank	töten	verbissen	gemein	vertrauen	kuss	besonnen	gütig	gesittet	engagiert	versagen	krise	bange	gierig	geizig	engstirnig	0	0	0	0	0	0	0	0	0	0	0	0	0	0	0	0	0	0	0	0	0	0	0	0	0	0	0	0	0	0
2024-06-12	10:52:08	11:07:29	920994	6.6.1	4_exp_EVA_AWA_CON	82	A	B	Rpleas_acq	Oppo	Lpleas	1pleas	conawa_CS1_US5_confidence	conawa1_nomask	8	11	0	0	300	300	0	0	6054	guess	1	73,828125pct	anregung	sonnig	kreativ	träumen	vergnügt	genießen	ausrottung	sterben	krank	töten	verbissen	gemein	vertrauen	kuss	besonnen	gütig	gesittet	engagiert	versagen	krise	bange	gierig	geizig	engstirnig	0	0	0	0	0	0	0	0	0	0	0	0	0	0	0	0	0	0	0	0	0	0	0	0	0	0	0	0	0	0
2024-06-12	10:52:08	11:07:38	930379	6.6.1	4_exp_EVA_AWA_CON	82	A	B	Rpleas_acq	Oppo	Lpleas	1pleas	conawa_CS2_US1	conawa1_nomask	8	12	0	0	300	300	0	0	8774	anregung	1	73,828125pct	anregung	sonnig	kreativ	träumen	vergnügt	genießen	ausrottung	sterben	krank	töten	verbissen	gemein	vertrauen	kuss	besonnen	gütig	gesittet	engagiert	versagen	krise	bange	gierig	geizig	engstirnig	0	0	0	0	0	0	0	0	0	0	0	0	0	0	0	0	0	0	0	0	0	0	0	0	0	0	0	0	0	0
2024-06-12	10:52:08	11:07:38	930380	6.6.1	4_exp_EVA_AWA_CON	82	A	B	Rpleas_acq	Oppo	Lpleas	1pleas	conawa_CS2_US1_confidence	conawa1_nomask	8	12	0	0	300	300	0	0	8774	probably	1	73,828125pct	anregung	sonnig	kreativ	träumen	vergnügt	genießen	ausrottung	sterben	krank	töten	verbissen	gemein	vertrauen	kuss	besonnen	gütig	gesittet	engagiert	versagen	krise	bange	gierig	geizig	engstirnig	0	0	0	0	0	0	0	0	0	0	0	0	0	0	0	0	0	0	0	0	0	0	0	0	0	0	0	0	0	0
2024-06-12	10:52:08	11:09:57	1068576	6.6.1	4_exp_EVA_AWA_CON	82	A	B	Rpleas_acq	Oppo	Lpleas	1pleas	cond_US_pleas_123_nomask_CS1	condtest_nomask_1	11	1	400	0	300	300	0	0	1179	46	1	73,828125pct	anregung	sonnig	kreativ	träumen	vergnügt	genießen	ausrottung	sterben	krank	töten	verbissen	gemein	vertrauen	kuss	besonnen	gütig	gesittet	engagiert	versagen	krise	bange	gierig	geizig	engstirnig	1	blank2r.bmp	0	1	+	0	1	blank2r.bmp	500	1	CPLW	500	1	blank2r.bmp	880	2	sonnig	880	1	!	1232	1	!	-1	0	0	0	0	0	0
2024-06-12	10:52:08	11:09:59	1070730	6.6.1	4_exp_EVA_AWA_CON	82	A	B	Rpleas_acq	Oppo	Lpleas	1pleas	cond_new_pleas_456_nomask_CS1	condtest_nomask_1	11	2	400	1	300	300	0	0	380	46	1	73,828125pct	anregung	sonnig	kreativ	träumen	vergnügt	genießen	ausrottung	sterben	krank	töten	verbissen	gemein	vertrauen	kuss	besonnen	gütig	gesittet	engagiert	versagen	krise	bange	gierig	geizig	engstirnig	1	blank2r.bmp	0	1	+	0	1	blank2r.bmp	500	1	CPLW	500	1	blank2r.bmp	880	1	gütig	880	1	!	1232	1	!	1280	0	0	0	0	0	0
