date	time	currenttime	elapsedtime	build	currentexpt	subject	CS_AB	US_AB	LRpleas_acq	SameOppo	condition_Lpleas	condition_1pleas	trialcode	blockcode	blocknum	trialnum	windowcenter	inwindow	pretrialpause	posttrialpause	trialduration	trialtimeout	latency	response	correct	correctedscore	US_nomask_pleas1	US_nomask_pleas2	US_nomask_pleas3	US_nomask_pleas4	US_nomask_pleas5	US_nomask_pleas6	US_nomask_unple1	US_nomask_unple2	US_nomask_unple3	US_nomask_unple4	US_nomask_unple5	US_nomask_unple6	new_nomask_pleas1	new_nomask_pleas2	new_nomask_pleas3	new_nomask_pleas4	new_nomask_pleas5	new_nomask_pleas6	new_nomask_unple1	new_nomask_unple2	new_nomask_unple3	new_nomask_unple4	new_nomask_unple5	new_nomask_unple6	stimulusnumber1	stimulusitem1	stimulusonset1	stimulusnumber2	stimulusitem2	stimulusonset2	stimulusnumber3	stimulusitem3	stimulusonset3	stimulusnumber4	stimulusitem4	stimulusonset4	stimulusnumber5	stimulusitem5	stimulusonset5	stimulusnumber6	stimulusitem6	stimulusonset6	stimulusnumber7	stimulusitem7	stimulusonset7	stimulusnumber8	stimulusitem8	stimulusonset8	stimulusnumber9	stimulusitem9	stimulusonset9	stimulusnumber10	stimulusitem10	stimulusonset10
2024-06-12	16:43:28	16:44:52	83484	6.6.1	4_exp_EVA_AWA_CON	87	A	B	Rpleas_acq	Same	Rpleas	2pleas	acq_US_pleas_nomask	acq1_nomask	1	1	0	0	300	300	0	0	3370	50	1	0	anregung	engagiert	sonnig	gesittet	träumen	besonnen	ausrottung	engstirnig	sterben	geizig	töten	bange	kuss	kreativ	vertrauen	genießen	vergnügt	gütig	krise	krank	versagen	gemein	verbissen	gierig	1	blank2r.bmp	0	1	+	0	1	blank2r.bmp	500	1	DHJF	500	1	blank2r.bmp	880	4	gesittet	880	0	0	0	0	0	0	0	0	0	0	0	0
2024-06-12	16:43:28	16:44:55	85980	6.6.1	4_exp_EVA_AWA_CON	87	A	B	Rpleas_acq	Same	Rpleas	2pleas	acq_US_unple_nomask	acq1_nomask	1	2	0	0	300	300	0	0	1013	46	1	0	anregung	engagiert	sonnig	gesittet	träumen	besonnen	ausrottung	engstirnig	sterben	geizig	töten	bange	kuss	kreativ	vertrauen	genießen	vergnügt	gütig	krise	krank	versagen	gemein	verbissen	gierig	1	blank2r.bmp	0	1	+	0	1	blank2r.bmp	500	1	CPLW	500	1	blank2r.bmp	880	2	engstirnig	880	0	0	0	0	0	0	0	0	0	0	0	0
2024-06-12	16:43:28	16:44:57	88332	6.6.1	4_exp_EVA_AWA_CON	87	A	B	Rpleas_acq	Same	Rpleas	2pleas	acq_US_unple_nomask	acq1_nomask	1	3	0	0	300	300	0	0	863	46	1	0	anregung	engagiert	sonnig	gesittet	träumen	besonnen	ausrottung	engstirnig	sterben	geizig	töten	bange	kuss	kreativ	vertrauen	genießen	vergnügt	gütig	krise	krank	versagen	gemein	verbissen	gierig	1	blank2r.bmp	0	1	+	0	1	blank2r.bmp	500	1	CPLW	500	1	blank2r.bmp	880	3	sterben	880	0	0	0	0	0	0	0	0	0	0	0	0
2024-06-12	16:43:28	16:44:59	90748	6.6.1	4_exp_EVA_AWA_CON	87	A	B	Rpleas_acq	Same	Rpleas	2pleas	acq_new_unple_nomask	acq1_nomask	1	4	0	0	300	300	0	0	928	46	1	0	anregung	engagiert	sonnig	gesittet	träumen	besonnen	ausrottung	engstirnig	sterben	geizig	töten	bange	kuss	kreativ	vertrauen	genießen	vergnügt	gütig	krise	krank	versagen	gemein	verbissen	gierig	1	blank2r.bmp	0	1	+	0	1	blank2r.bmp	500	1	B1r.bmp	500	1	blank2r.bmp	880	4	gemein	880	0	0	0	0	0	0	0	0	0	0	0	0
2024-06-12	16:43:28	16:45:01	92860	6.6.1	4_exp_EVA_AWA_CON	87	A	B	Rpleas_acq	Same	Rpleas	2pleas	acq_new_unple_nomask	acq1_nomask	1	5	0	0	300	300	0	0	628	46	1	0	anregung	engagiert	sonnig	gesittet	träumen	besonnen	ausrottung	engstirnig	sterben	geizig	töten	bange	kuss	kreativ	vertrauen	genießen	vergnügt	gütig	krise	krank	versagen	gemein	verbissen	gierig	1	blank2r.bmp	0	1	+	0	1	blank2r.bmp	500	4	B4r.bmp	500	1	blank2r.bmp	880	1	krise	880	0	0	0	0	0	0	0	0	0	0	0	0
2024-06-12	16:43:28	16:45:04	95204	6.6.1	4_exp_EVA_AWA_CON	87	A	B	Rpleas_acq	Same	Rpleas	2pleas	acq_new_pleas_nomask	acq1_nomask	1	6	0	0	300	300	0	0	861	50	1	0	anregung	engagiert	sonnig	gesittet	träumen	besonnen	ausrottung	engstirnig	sterben	geizig	töten	bange	kuss	kreativ	vertrauen	genießen	vergnügt	gütig	krise	krank	versagen	gemein	verbissen	gierig	1	blank2r.bmp	0	1	+	0	1	blank2r.bmp	500	8	C4r.bmp	500	1	blank2r.bmp	880	5	vergnügt	880	0	0	0	0	0	0	0	0	0	0	0	0
2024-06-12	16:43:28	16:45:06	97132	6.6.1	4_exp_EVA_AWA_CON	87	A	B	Rpleas_acq	Same	Rpleas	2pleas	acq_new_pleas_nomask	acq1_nomask	1	7	0	0	300	300	0	0	447	50	1	0	anregung	engagiert	sonnig	gesittet	träumen	besonnen	ausrottung	engstirnig	sterben	geizig	töten	bange	kuss	kreativ	vertrauen	genießen	vergnügt	gütig	krise	krank	versagen	gemein	verbissen	gierig	1	blank2r.bmp	0	1	+	0	1	blank2r.bmp	500	5	C1r.bmp	500	1	blank2r.bmp	880	1	kuss	880	0	0	0	0	0	0	0	0	0	0	0	0
2024-06-12	16:43:28	16:45:08	99252	6.6.1	4_exp_EVA_AWA_CON	87	A	B	Rpleas_acq	Same	Rpleas	2pleas	acq_US_unple_nomask	acq1_nomask	1	8	0	0	300	300	0	0	636	46	1	0	anregung	engagiert	sonnig	gesittet	träumen	besonnen	ausrottung	engstirnig	sterben	geizig	töten	bange	kuss	kreativ	vertrauen	genießen	vergnügt	gütig	krise	krank	versagen	gemein	verbissen	gierig	1	blank2r.bmp	0	1	+	0	1	blank2r.bmp	500	1	CPLW	500	1	blank2r.bmp	880	5	töten	880	0	0	0	0	0	0	0	0	0	0	0	0
2024-06-12	16:43:28	16:45:10	101492	6.6.1	4_exp_EVA_AWA_CON	87	A	B	Rpleas_acq	Same	Rpleas	2pleas	acq_new_unple_nomask	acq1_nomask	1	9	0	0	300	300	0	0	755	46	1	0	anregung	engagiert	sonnig	gesittet	träumen	besonnen	ausrottung	engstirnig	sterben	geizig	töten	bange	kuss	kreativ	vertrauen	genießen	vergnügt	gütig	krise	krank	versagen	gemein	verbissen	gierig	1	blank2r.bmp	0	1	+	0	1	blank2r.bmp	500	2	B2r.bmp	500	1	blank2r.bmp	880	6	gierig	880	0	0	0	0	0	0	0	0	0	0	0	0
2024-06-12	16:43:28	16:45:12	103820	6.6.1	4_exp_EVA_AWA_CON	87	A	B	Rpleas_acq	Same	Rpleas	2pleas	acq_US_pleas_nomask	acq1_nomask	1	10	0	0	300	300	0	0	841	50	1	0	anregung	engagiert	sonnig	gesittet	träumen	besonnen	ausrottung	engstirnig	sterben	geizig	töten	bange	kuss	kreativ	vertrauen	genießen	vergnügt	gütig	krise	krank	versagen	gemein	verbissen	gierig	1	blank2r.bmp	0	1	+	0	1	blank2r.bmp	500	1	DHJF	500	1	blank2r.bmp	880	5	träumen	880	0	0	0	0	0	0	0	0	0	0	0	0
2024-06-12	16:43:28	16:45:15	106092	6.6.1	4_exp_EVA_AWA_CON	87	A	B	Rpleas_acq	Same	Rpleas	2pleas	acq_new_pleas_nomask	acq1_nomask	1	11	0	0	300	300	0	0	782	50	1	0	anregung	engagiert	sonnig	gesittet	träumen	besonnen	ausrottung	engstirnig	sterben	geizig	töten	bange	kuss	kreativ	vertrauen	genießen	vergnügt	gütig	krise	krank	versagen	gemein	verbissen	gierig	1	blank2r.bmp	0	1	+	0	1	blank2r.bmp	500	3	B3r.bmp	500	1	blank2r.bmp	880	6	gütig	880	0	0	0	0	0	0	0	0	0	0	0	0
2024-06-12	16:43:28	16:45:17	108220	6.6.1	4_exp_EVA_AWA_CON	87	A	B	Rpleas_acq	Same	Rpleas	2pleas	acq_US_pleas_nomask	acq1_nomask	1	12	0	0	300	300	0	0	638	50	1	0	anregung	engagiert	sonnig	gesittet	träumen	besonnen	ausrottung	engstirnig	sterben	geizig	töten	bange	kuss	kreativ	vertrauen	genießen	vergnügt	gütig	krise	krank	versagen	gemein	verbissen	gierig	1	blank2r.bmp	0	1	+	0	1	blank2r.bmp	500	1	DHJF	500	1	blank2r.bmp	880	3	sonnig	880	0	0	0	0	0	0	0	0	0	0	0	0
2024-06-12	16:43:28	16:45:19	110364	6.6.1	4_exp_EVA_AWA_CON	87	A	B	Rpleas_acq	Same	Rpleas	2pleas	acq_US_unple_nomask	acq1_nomask	1	13	0	0	300	300	0	0	661	46	1	0	anregung	engagiert	sonnig	gesittet	träumen	besonnen	ausrottung	engstirnig	sterben	geizig	töten	bange	kuss	kreativ	vertrauen	genießen	vergnügt	gütig	krise	krank	versagen	gemein	verbissen	gierig	1	blank2r.bmp	0	1	+	0	1	blank2r.bmp	500	1	CPLW	500	1	blank2r.bmp	880	4	geizig	880	0	0	0	0	0	0	0	0	0	0	0	0
2024-06-12	16:43:28	16:45:21	112548	6.6.1	4_exp_EVA_AWA_CON	87	A	B	Rpleas_acq	Same	Rpleas	2pleas	acq_US_unple_nomask	acq1_nomask	1	14	0	0	300	300	0	0	704	46	1	0	anregung	engagiert	sonnig	gesittet	träumen	besonnen	ausrottung	engstirnig	sterben	geizig	töten	bange	kuss	kreativ	vertrauen	genießen	vergnügt	gütig	krise	krank	versagen	gemein	verbissen	gierig	1	blank2r.bmp	0	1	+	0	1	blank2r.bmp	500	1	CPLW	500	1	blank2r.bmp	880	6	bange	880	0	0	0	0	0	0	0	0	0	0	0	0
2024-06-12	16:43:28	16:45:23	114644	6.6.1	4_exp_EVA_AWA_CON	87	A	B	Rpleas_acq	Same	Rpleas	2pleas	acq_new_unple_nomask	acq1_nomask	1	15	0	0	300	300	0	0	608	46	1	0	anregung	engagiert	sonnig	gesittet	träumen	besonnen	ausrottung	engstirnig	sterben	geizig	töten	bange	kuss	kreativ	vertrauen	genießen	vergnügt	gütig	krise	krank	versagen	gemein	verbissen	gierig	1	blank2r.bmp	0	1	+	0	1	blank2r.bmp	500	6	C2r.bmp	500	1	blank2r.bmp	880	3	versagen	880	0	0	0	0	0	0	0	0	0	0	0	0
2024-06-12	16:43:28	16:45:25	116780	6.6.1	4_exp_EVA_AWA_CON	87	A	B	Rpleas_acq	Same	Rpleas	2pleas	acq_US_pleas_nomask	acq1_nomask	1	16	0	0	300	300	0	0	653	50	1	0	anregung	engagiert	sonnig	gesittet	träumen	besonnen	ausrottung	engstirnig	sterben	geizig	töten	bange	kuss	kreativ	vertrauen	genießen	vergnügt	gütig	krise	krank	versagen	gemein	verbissen	gierig	1	blank2r.bmp	0	1	+	0	1	blank2r.bmp	500	1	DHJF	500	1	blank2r.bmp	880	2	engagiert	880	0	0	0	0	0	0	0	0	0	0	0	0
2024-06-12	16:43:28	16:45:28	119052	6.6.1	4_exp_EVA_AWA_CON	87	A	B	Rpleas_acq	Same	Rpleas	2pleas	acq_new_unple_nomask	acq1_nomask	1	17	0	0	300	300	0	0	783	46	1	0	anregung	engagiert	sonnig	gesittet	träumen	besonnen	ausrottung	engstirnig	sterben	geizig	töten	bange	kuss	kreativ	vertrauen	genießen	vergnügt	gütig	krise	krank	versagen	gemein	verbissen	gierig	1	blank2r.bmp	0	1	+	0	1	blank2r.bmp	500	7	C3r.bmp	500	1	blank2r.bmp	880	5	verbissen	880	0	0	0	0	0	0	0	0	0	0	0	0
2024-06-12	16:43:28	16:45:30	121132	6.6.1	4_exp_EVA_AWA_CON	87	A	B	Rpleas_acq	Same	Rpleas	2pleas	acq_US_pleas_nomask	acq1_nomask	1	18	0	0	300	300	0	0	592	50	1	0	anregung	engagiert	sonnig	gesittet	träumen	besonnen	ausrottung	engstirnig	sterben	geizig	töten	bange	kuss	kreativ	vertrauen	genießen	vergnügt	gütig	krise	krank	versagen	gemein	verbissen	gierig	1	blank2r.bmp	0	1	+	0	1	blank2r.bmp	500	1	DHJF	500	1	blank2r.bmp	880	1	anregung	880	0	0	0	0	0	0	0	0	0	0	0	0
2024-06-12	16:43:28	16:45:32	123220	6.6.1	4_exp_EVA_AWA_CON	87	A	B	Rpleas_acq	Same	Rpleas	2pleas	acq_new_pleas_nomask	acq1_nomask	1	19	0	0	300	300	0	0	599	50	1	0	anregung	engagiert	sonnig	gesittet	träumen	besonnen	ausrottung	engstirnig	sterben	geizig	töten	bange	kuss	kreativ	vertrauen	genießen	vergnügt	gütig	krise	krank	versagen	gemein	verbissen	gierig	1	blank2r.bmp	0	1	+	0	1	blank2r.bmp	500	6	C2r.bmp	500	1	blank2r.bmp	880	4	genießen	880	0	0	0	0	0	0	0	0	0	0	0	0
2024-06-12	16:43:28	16:45:34	125380	6.6.1	4_exp_EVA_AWA_CON	87	A	B	Rpleas_acq	Same	Rpleas	2pleas	acq_US_unple_nomask	acq1_nomask	1	20	0	0	300	300	0	0	677	46	1	0	anregung	engagiert	sonnig	gesittet	träumen	besonnen	ausrottung	engstirnig	sterben	geizig	töten	bange	kuss	kreativ	vertrauen	genießen	vergnügt	gütig	krise	krank	versagen	gemein	verbissen	gierig	1	blank2r.bmp	0	1	+	0	1	blank2r.bmp	500	1	CPLW	500	1	blank2r.bmp	880	1	ausrottung	880	0	0	0	0	0	0	0	0	0	0	0	0
2024-06-12	16:43:28	16:45:36	127548	6.6.1	4_exp_EVA_AWA_CON	87	A	B	Rpleas_acq	Same	Rpleas	2pleas	acq_new_pleas_nomask	acq1_nomask	1	21	0	0	300	300	0	0	684	50	1	0	anregung	engagiert	sonnig	gesittet	träumen	besonnen	ausrottung	engstirnig	sterben	geizig	töten	bange	kuss	kreativ	vertrauen	genießen	vergnügt	gütig	krise	krank	versagen	gemein	verbissen	gierig	1	blank2r.bmp	0	1	+	0	1	blank2r.bmp	500	5	C1r.bmp	500	1	blank2r.bmp	880	2	kreativ	880	0	0	0	0	0	0	0	0	0	0	0	0
2024-06-12	16:43:28	16:45:38	129476	6.6.1	4_exp_EVA_AWA_CON	87	A	B	Rpleas_acq	Same	Rpleas	2pleas	acq_US_pleas_nomask	acq1_nomask	1	22	0	0	300	300	0	0	441	50	1	0	anregung	engagiert	sonnig	gesittet	träumen	besonnen	ausrottung	engstirnig	sterben	geizig	töten	bange	kuss	kreativ	vertrauen	genießen	vergnügt	gütig	krise	krank	versagen	gemein	verbissen	gierig	1	blank2r.bmp	0	1	+	0	1	blank2r.bmp	500	1	DHJF	500	1	blank2r.bmp	880	6	besonnen	880	0	0	0	0	0	0	0	0	0	0	0	0
2024-06-12	16:43:28	16:45:40	131612	6.6.1	4_exp_EVA_AWA_CON	87	A	B	Rpleas_acq	Same	Rpleas	2pleas	acq_new_unple_nomask	acq1_nomask	1	23	0	0	300	300	0	0	655	46	1	0	anregung	engagiert	sonnig	gesittet	träumen	besonnen	ausrottung	engstirnig	sterben	geizig	töten	bange	kuss	kreativ	vertrauen	genießen	vergnügt	gütig	krise	krank	versagen	gemein	verbissen	gierig	1	blank2r.bmp	0	1	+	0	1	blank2r.bmp	500	3	B3r.bmp	500	1	blank2r.bmp	880	2	krank	880	0	0	0	0	0	0	0	0	0	0	0	0
2024-06-12	16:43:28	16:45:42	133909	6.6.1	4_exp_EVA_AWA_CON	87	A	B	Rpleas_acq	Same	Rpleas	2pleas	acq_new_pleas_nomask	acq1_nomask	1	24	0	0	300	300	0	0	810	50	1	0	anregung	engagiert	sonnig	gesittet	träumen	besonnen	ausrottung	engstirnig	sterben	geizig	töten	bange	kuss	kreativ	vertrauen	genießen	vergnügt	gütig	krise	krank	versagen	gemein	verbissen	gierig	1	blank2r.bmp	0	1	+	0	1	blank2r.bmp	500	2	B2r.bmp	500	1	blank2r.bmp	880	3	vertrauen	880	0	0	0	0	0	0	0	0	0	0	0	0
2024-06-12	16:43:28	16:45:45	136044	6.6.1	4_exp_EVA_AWA_CON	87	A	B	Rpleas_acq	Same	Rpleas	2pleas	acq_US_pleas_nomask	acq1_nomask	1	25	0	0	300	300	0	0	655	50	1	0	anregung	engagiert	sonnig	gesittet	träumen	besonnen	ausrottung	engstirnig	sterben	geizig	töten	bange	kuss	kreativ	vertrauen	genießen	vergnügt	gütig	krise	krank	versagen	gemein	verbissen	gierig	1	blank2r.bmp	0	1	+	0	1	blank2r.bmp	500	1	DHJF	500	1	blank2r.bmp	880	1	anregung	880	0	0	0	0	0	0	0	0	0	0	0	0
2024-06-12	16:43:28	16:45:47	138132	6.6.1	4_exp_EVA_AWA_CON	87	A	B	Rpleas_acq	Same	Rpleas	2pleas	acq_new_unple_nomask	acq1_nomask	1	26	0	0	300	300	0	0	601	46	1	0	anregung	engagiert	sonnig	gesittet	träumen	besonnen	ausrottung	engstirnig	sterben	geizig	töten	bange	kuss	kreativ	vertrauen	genießen	vergnügt	gütig	krise	krank	versagen	gemein	verbissen	gierig	1	blank2r.bmp	0	1	+	0	1	blank2r.bmp	500	8	C4r.bmp	500	1	blank2r.bmp	880	1	krise	880	0	0	0	0	0	0	0	0	0	0	0	0
2024-06-12	16:43:28	16:45:49	140164	6.6.1	4_exp_EVA_AWA_CON	87	A	B	Rpleas_acq	Same	Rpleas	2pleas	acq_new_unple_nomask	acq1_nomask	1	27	0	0	300	300	0	0	542	46	1	0	anregung	engagiert	sonnig	gesittet	träumen	besonnen	ausrottung	engstirnig	sterben	geizig	töten	bange	kuss	kreativ	vertrauen	genießen	vergnügt	gütig	krise	krank	versagen	gemein	verbissen	gierig	1	blank2r.bmp	0	1	+	0	1	blank2r.bmp	500	7	C3r.bmp	500	1	blank2r.bmp	880	3	versagen	880	0	0	0	0	0	0	0	0	0	0	0	0
2024-06-12	16:43:28	16:45:51	142340	6.6.1	4_exp_EVA_AWA_CON	87	A	B	Rpleas_acq	Same	Rpleas	2pleas	acq_new_pleas_nomask	acq1_nomask	1	28	0	0	300	300	0	0	687	50	1	0	anregung	engagiert	sonnig	gesittet	träumen	besonnen	ausrottung	engstirnig	sterben	geizig	töten	bange	kuss	kreativ	vertrauen	genießen	vergnügt	gütig	krise	krank	versagen	gemein	verbissen	gierig	1	blank2r.bmp	0	1	+	0	1	blank2r.bmp	500	4	B4r.bmp	500	1	blank2r.bmp	880	6	gütig	880	0	0	0	0	0	0	0	0	0	0	0	0
2024-06-12	16:43:28	16:45:53	144484	6.6.1	4_exp_EVA_AWA_CON	87	A	B	Rpleas_acq	Same	Rpleas	2pleas	acq_US_unple_nomask	acq1_nomask	1	29	0	0	300	300	0	0	659	46	1	0	anregung	engagiert	sonnig	gesittet	träumen	besonnen	ausrottung	engstirnig	sterben	geizig	töten	bange	kuss	kreativ	vertrauen	genießen	vergnügt	gütig	krise	krank	versagen	gemein	verbissen	gierig	1	blank2r.bmp	0	1	+	0	1	blank2r.bmp	500	1	CPLW	500	1	blank2r.bmp	880	2	engstirnig	880	0	0	0	0	0	0	0	0	0	0	0	0
2024-06-12	16:43:28	16:45:55	146460	6.6.1	4_exp_EVA_AWA_CON	87	A	B	Rpleas_acq	Same	Rpleas	2pleas	acq_US_pleas_nomask	acq1_nomask	1	30	0	0	300	300	0	0	494	50	1	0	anregung	engagiert	sonnig	gesittet	träumen	besonnen	ausrottung	engstirnig	sterben	geizig	töten	bange	kuss	kreativ	vertrauen	genießen	vergnügt	gütig	krise	krank	versagen	gemein	verbissen	gierig	1	blank2r.bmp	0	1	+	0	1	blank2r.bmp	500	1	DHJF	500	1	blank2r.bmp	880	3	sonnig	880	0	0	0	0	0	0	0	0	0	0	0	0
2024-06-12	16:43:28	16:45:57	148516	6.6.1	4_exp_EVA_AWA_CON	87	A	B	Rpleas_acq	Same	Rpleas	2pleas	acq_US_unple_nomask	acq1_nomask	1	31	0	0	300	300	0	0	568	46	1	0	anregung	engagiert	sonnig	gesittet	träumen	besonnen	ausrottung	engstirnig	sterben	geizig	töten	bange	kuss	kreativ	vertrauen	genießen	vergnügt	gütig	krise	krank	versagen	gemein	verbissen	gierig	1	blank2r.bmp	0	1	+	0	1	blank2r.bmp	500	1	CPLW	500	1	blank2r.bmp	880	5	töten	880	0	0	0	0	0	0	0	0	0	0	0	0
2024-06-12	16:43:28	16:45:59	150532	6.6.1	4_exp_EVA_AWA_CON	87	A	B	Rpleas_acq	Same	Rpleas	2pleas	acq_new_unple_nomask	acq1_nomask	1	32	0	0	300	300	0	0	533	46	1	0	anregung	engagiert	sonnig	gesittet	träumen	besonnen	ausrottung	engstirnig	sterben	geizig	töten	bange	kuss	kreativ	vertrauen	genießen	vergnügt	gütig	krise	krank	versagen	gemein	verbissen	gierig	1	blank2r.bmp	0	1	+	0	1	blank2r.bmp	500	1	B1r.bmp	500	1	blank2r.bmp	880	4	gemein	880	0	0	0	0	0	0	0	0	0	0	0	0
2024-06-12	16:43:28	16:46:01	152468	6.6.1	4_exp_EVA_AWA_CON	87	A	B	Rpleas_acq	Same	Rpleas	2pleas	acq_US_pleas_nomask	acq1_nomask	1	33	0	0	300	300	0	0	448	50	1	0	anregung	engagiert	sonnig	gesittet	träumen	besonnen	ausrottung	engstirnig	sterben	geizig	töten	bange	kuss	kreativ	vertrauen	genießen	vergnügt	gütig	krise	krank	versagen	gemein	verbissen	gierig	1	blank2r.bmp	0	1	+	0	1	blank2r.bmp	500	1	DHJF	500	1	blank2r.bmp	880	4	gesittet	880	0	0	0	0	0	0	0	0	0	0	0	0
2024-06-12	16:43:28	16:46:03	154524	6.6.1	4_exp_EVA_AWA_CON	87	A	B	Rpleas_acq	Same	Rpleas	2pleas	acq_new_pleas_nomask	acq1_nomask	1	34	0	0	300	300	0	0	573	50	1	0	anregung	engagiert	sonnig	gesittet	träumen	besonnen	ausrottung	engstirnig	sterben	geizig	töten	bange	kuss	kreativ	vertrauen	genießen	vergnügt	gütig	krise	krank	versagen	gemein	verbissen	gierig	1	blank2r.bmp	0	1	+	0	1	blank2r.bmp	500	6	C2r.bmp	500	1	blank2r.bmp	880	2	kreativ	880	0	0	0	0	0	0	0	0	0	0	0	0
2024-06-12	16:43:28	16:46:05	156540	6.6.1	4_exp_EVA_AWA_CON	87	A	B	Rpleas_acq	Same	Rpleas	2pleas	acq_new_pleas_nomask	acq1_nomask	1	35	0	0	300	300	0	0	527	50	1	0	anregung	engagiert	sonnig	gesittet	träumen	besonnen	ausrottung	engstirnig	sterben	geizig	töten	bange	kuss	kreativ	vertrauen	genießen	vergnügt	gütig	krise	krank	versagen	gemein	verbissen	gierig	1	blank2r.bmp	0	1	+	0	1	blank2r.bmp	500	8	C4r.bmp	500	1	blank2r.bmp	880	1	kuss	880	0	0	0	0	0	0	0	0	0	0	0	0
2024-06-12	16:43:28	16:46:07	158516	6.6.1	4_exp_EVA_AWA_CON	87	A	B	Rpleas_acq	Same	Rpleas	2pleas	acq_US_unple_nomask	acq1_nomask	1	36	0	0	300	300	0	0	492	46	1	0	anregung	engagiert	sonnig	gesittet	träumen	besonnen	ausrottung	engstirnig	sterben	geizig	töten	bange	kuss	kreativ	vertrauen	genießen	vergnügt	gütig	krise	krank	versagen	gemein	verbissen	gierig	1	blank2r.bmp	0	1	+	0	1	blank2r.bmp	500	1	CPLW	500	1	blank2r.bmp	880	4	geizig	880	0	0	0	0	0	0	0	0	0	0	0	0
2024-06-12	16:43:28	16:46:34	185670	6.6.1	4_exp_EVA_AWA_CON	87	A	B	Rpleas_acq	Same	Rpleas	2pleas	acq_new_pleas_nomask	acq2_nomask	2	1	480	0	300	300	0	0	2690	50	1	0	anregung	engagiert	sonnig	gesittet	träumen	besonnen	ausrottung	engstirnig	sterben	geizig	töten	bange	kuss	kreativ	vertrauen	genießen	vergnügt	gütig	krise	krank	versagen	gemein	verbissen	gierig	1	blank2r.bmp	0	1	+	0	1	blank2r.bmp	500	3	B3r.bmp	500	1	blank2r.bmp	880	3	vertrauen	880	1	!	1312	1	!	-1	0	0	0	0	0	0
2024-06-12	16:43:28	16:46:37	188158	6.6.1	4_exp_EVA_AWA_CON	87	A	B	Rpleas_acq	Same	Rpleas	2pleas	acq_US_unple_nomask	acq2_nomask	2	2	480	0	300	300	0	0	715	46	1	0	anregung	engagiert	sonnig	gesittet	träumen	besonnen	ausrottung	engstirnig	sterben	geizig	töten	bange	kuss	kreativ	vertrauen	genießen	vergnügt	gütig	krise	krank	versagen	gemein	verbissen	gierig	1	blank2r.bmp	0	1	+	0	1	blank2r.bmp	500	1	CPLW	500	1	blank2r.bmp	880	6	bange	880	1	!	1313	1	!	-1	0	0	0	0	0	0
2024-06-12	16:43:28	16:46:39	190655	6.6.1	4_exp_EVA_AWA_CON	87	A	B	Rpleas_acq	Same	Rpleas	2pleas	acq_new_unple_nomask	acq2_nomask	2	3	480	0	300	300	0	0	720	46	1	0	anregung	engagiert	sonnig	gesittet	träumen	besonnen	ausrottung	engstirnig	sterben	geizig	töten	bange	kuss	kreativ	vertrauen	genießen	vergnügt	gütig	krise	krank	versagen	gemein	verbissen	gierig	1	blank2r.bmp	0	1	+	0	1	blank2r.bmp	500	4	B4r.bmp	500	1	blank2r.bmp	880	5	verbissen	880	1	!	1313	1	!	-1	0	0	0	0	0	0
2024-06-12	16:43:28	16:46:42	193358	6.6.1	4_exp_EVA_AWA_CON	87	A	B	Rpleas_acq	Same	Rpleas	2pleas	acq_new_unple_nomask	acq2_nomask	2	4	480	0	300	300	0	0	922	46	1	0	anregung	engagiert	sonnig	gesittet	träumen	besonnen	ausrottung	engstirnig	sterben	geizig	töten	bange	kuss	kreativ	vertrauen	genießen	vergnügt	gütig	krise	krank	versagen	gemein	verbissen	gierig	1	blank2r.bmp	0	1	+	0	1	blank2r.bmp	500	1	B1r.bmp	500	1	blank2r.bmp	880	2	krank	880	1	!	1312	1	!	-1	0	0	0	0	0	0
2024-06-12	16:43:28	16:46:44	195664	6.6.1	4_exp_EVA_AWA_CON	87	A	B	Rpleas_acq	Same	Rpleas	2pleas	acq_new_unple_nomask	acq2_nomask	2	5	480	1	300	300	0	0	524	46	1	0	anregung	engagiert	sonnig	gesittet	träumen	besonnen	ausrottung	engstirnig	sterben	geizig	töten	bange	kuss	kreativ	vertrauen	genießen	vergnügt	gütig	krise	krank	versagen	gemein	verbissen	gierig	1	blank2r.bmp	0	1	+	0	1	blank2r.bmp	500	5	C1r.bmp	500	1	blank2r.bmp	880	6	gierig	880	1	!	1312	1	!	1426	0	0	0	0	0	0
2024-06-12	16:43:28	16:46:47	197936	6.6.1	4_exp_EVA_AWA_CON	87	A	B	Rpleas_acq	Same	Rpleas	2pleas	acq_US_pleas_nomask	acq2_nomask	2	6	480	1	300	300	0	0	495	50	1	0	anregung	engagiert	sonnig	gesittet	träumen	besonnen	ausrottung	engstirnig	sterben	geizig	töten	bange	kuss	kreativ	vertrauen	genießen	vergnügt	gütig	krise	krank	versagen	gemein	verbissen	gierig	1	blank2r.bmp	0	1	+	0	1	blank2r.bmp	500	1	DHJF	500	1	blank2r.bmp	880	2	engagiert	880	1	!	1312	1	!	1396	0	0	0	0	0	0
2024-06-12	16:43:28	16:46:49	200184	6.6.1	4_exp_EVA_AWA_CON	87	A	B	Rpleas_acq	Same	Rpleas	2pleas	acq_US_pleas_nomask	acq2_nomask	2	7	480	1	300	300	0	0	471	50	1	0	anregung	engagiert	sonnig	gesittet	träumen	besonnen	ausrottung	engstirnig	sterben	geizig	töten	bange	kuss	kreativ	vertrauen	genießen	vergnügt	gütig	krise	krank	versagen	gemein	verbissen	gierig	1	blank2r.bmp	0	1	+	0	1	blank2r.bmp	500	1	DHJF	500	1	blank2r.bmp	880	6	besonnen	880	1	!	1313	1	!	1373	0	0	0	0	0	0
2024-06-12	16:43:28	16:46:51	202512	6.6.1	4_exp_EVA_AWA_CON	87	A	B	Rpleas_acq	Same	Rpleas	2pleas	acq_US_pleas_nomask	acq2_nomask	2	8	480	1	300	300	0	0	548	50	1	0	anregung	engagiert	sonnig	gesittet	träumen	besonnen	ausrottung	engstirnig	sterben	geizig	töten	bange	kuss	kreativ	vertrauen	genießen	vergnügt	gütig	krise	krank	versagen	gemein	verbissen	gierig	1	blank2r.bmp	0	1	+	0	1	blank2r.bmp	500	1	DHJF	500	1	blank2r.bmp	880	5	träumen	880	1	!	1313	1	!	1449	0	0	0	0	0	0
2024-06-12	16:43:28	16:46:53	204792	6.6.1	4_exp_EVA_AWA_CON	87	A	B	Rpleas_acq	Same	Rpleas	2pleas	acq_new_pleas_nomask	acq2_nomask	2	9	480	1	300	300	0	0	497	50	1	0	anregung	engagiert	sonnig	gesittet	träumen	besonnen	ausrottung	engstirnig	sterben	geizig	töten	bange	kuss	kreativ	vertrauen	genießen	vergnügt	gütig	krise	krank	versagen	gemein	verbissen	gierig	1	blank2r.bmp	0	1	+	0	1	blank2r.bmp	500	7	C3r.bmp	500	1	blank2r.bmp	880	4	genießen	880	1	!	1313	1	!	1398	0	0	0	0	0	0
2024-06-12	16:43:28	16:46:56	207104	6.6.1	4_exp_EVA_AWA_CON	87	A	B	Rpleas_acq	Same	Rpleas	2pleas	acq_US_unple_nomask	acq2_nomask	2	10	480	1	300	300	0	0	537	46	1	0	anregung	engagiert	sonnig	gesittet	träumen	besonnen	ausrottung	engstirnig	sterben	geizig	töten	bange	kuss	kreativ	vertrauen	genießen	vergnügt	gütig	krise	krank	versagen	gemein	verbissen	gierig	1	blank2r.bmp	0	1	+	0	1	blank2r.bmp	500	1	CPLW	500	1	blank2r.bmp	880	3	sterben	880	1	!	1312	1	!	1438	0	0	0	0	0	0
2024-06-12	16:43:28	16:46:58	209384	6.6.1	4_exp_EVA_AWA_CON	87	A	B	Rpleas_acq	Same	Rpleas	2pleas	acq_US_unple_nomask	acq2_nomask	2	11	480	1	300	300	0	0	506	46	1	0	anregung	engagiert	sonnig	gesittet	träumen	besonnen	ausrottung	engstirnig	sterben	geizig	töten	bange	kuss	kreativ	vertrauen	genießen	vergnügt	gütig	krise	krank	versagen	gemein	verbissen	gierig	1	blank2r.bmp	0	1	+	0	1	blank2r.bmp	500	1	CPLW	500	1	blank2r.bmp	880	1	ausrottung	880	1	!	1313	1	!	1407	0	0	0	0	0	0
2024-06-12	16:43:28	16:47:00	211696	6.6.1	4_exp_EVA_AWA_CON	87	A	B	Rpleas_acq	Same	Rpleas	2pleas	acq_new_pleas_nomask	acq2_nomask	2	12	480	1	300	300	0	0	536	50	1	0	anregung	engagiert	sonnig	gesittet	träumen	besonnen	ausrottung	engstirnig	sterben	geizig	töten	bange	kuss	kreativ	vertrauen	genießen	vergnügt	gütig	krise	krank	versagen	gemein	verbissen	gierig	1	blank2r.bmp	0	1	+	0	1	blank2r.bmp	500	2	B2r.bmp	500	1	blank2r.bmp	880	5	vergnügt	880	1	!	1313	1	!	1438	0	0	0	0	0	0
2024-06-12	16:43:28	16:47:02	213878	6.6.1	4_exp_EVA_AWA_CON	87	A	B	Rpleas_acq	Same	Rpleas	2pleas	acq_US_pleas_nomask	acq2_nomask	2	13	480	0	300	300	0	0	409	50	1	0	anregung	engagiert	sonnig	gesittet	träumen	besonnen	ausrottung	engstirnig	sterben	geizig	töten	bange	kuss	kreativ	vertrauen	genießen	vergnügt	gütig	krise	krank	versagen	gemein	verbissen	gierig	1	blank2r.bmp	0	1	+	0	1	blank2r.bmp	500	1	DHJF	500	1	blank2r.bmp	880	3	sonnig	880	1	!	-1	1	!	-1	0	0	0	0	0	0
2024-06-12	16:43:28	16:47:05	216358	6.6.1	4_exp_EVA_AWA_CON	87	A	B	Rpleas_acq	Same	Rpleas	2pleas	acq_US_unple_nomask	acq2_nomask	2	14	480	0	300	300	0	0	707	46	1	0	anregung	engagiert	sonnig	gesittet	träumen	besonnen	ausrottung	engstirnig	sterben	geizig	töten	bange	kuss	kreativ	vertrauen	genießen	vergnügt	gütig	krise	krank	versagen	gemein	verbissen	gierig	1	blank2r.bmp	0	1	+	0	1	blank2r.bmp	500	1	CPLW	500	1	blank2r.bmp	880	4	geizig	880	1	!	1313	1	!	-1	0	0	0	0	0	0
2024-06-12	16:43:28	16:47:07	218830	6.6.1	4_exp_EVA_AWA_CON	87	A	B	Rpleas_acq	Same	Rpleas	2pleas	acq_new_pleas_nomask	acq2_nomask	2	15	480	0	300	300	0	0	698	50	1	0	anregung	engagiert	sonnig	gesittet	träumen	besonnen	ausrottung	engstirnig	sterben	geizig	töten	bange	kuss	kreativ	vertrauen	genießen	vergnügt	gütig	krise	krank	versagen	gemein	verbissen	gierig	1	blank2r.bmp	0	1	+	0	1	blank2r.bmp	500	2	B2r.bmp	500	1	blank2r.bmp	880	6	gütig	880	1	!	1312	1	!	-1	0	0	0	0	0	0
2024-06-12	16:43:28	16:47:10	221096	6.6.1	4_exp_EVA_AWA_CON	87	A	B	Rpleas_acq	Same	Rpleas	2pleas	acq_new_unple_nomask	acq2_nomask	2	16	480	1	300	300	0	0	490	46	1	0	anregung	engagiert	sonnig	gesittet	träumen	besonnen	ausrottung	engstirnig	sterben	geizig	töten	bange	kuss	kreativ	vertrauen	genießen	vergnügt	gütig	krise	krank	versagen	gemein	verbissen	gierig	1	blank2r.bmp	0	1	+	0	1	blank2r.bmp	500	1	B1r.bmp	500	1	blank2r.bmp	880	6	gierig	880	1	!	1312	1	!	1392	0	0	0	0	0	0
2024-06-12	16:43:28	16:47:12	223542	6.6.1	4_exp_EVA_AWA_CON	87	A	B	Rpleas_acq	Same	Rpleas	2pleas	acq_new_unple_nomask	acq2_nomask	2	17	480	0	300	300	0	0	667	46	1	0	anregung	engagiert	sonnig	gesittet	träumen	besonnen	ausrottung	engstirnig	sterben	geizig	töten	bange	kuss	kreativ	vertrauen	genießen	vergnügt	gütig	krise	krank	versagen	gemein	verbissen	gierig	1	blank2r.bmp	0	1	+	0	1	blank2r.bmp	500	3	B3r.bmp	500	1	blank2r.bmp	880	3	versagen	880	1	!	1312	1	!	-1	0	0	0	0	0	0
2024-06-12	16:43:28	16:47:14	225784	6.6.1	4_exp_EVA_AWA_CON	87	A	B	Rpleas_acq	Same	Rpleas	2pleas	acq_new_unple_nomask	acq2_nomask	2	18	480	1	300	300	0	0	465	46	1	0	anregung	engagiert	sonnig	gesittet	träumen	besonnen	ausrottung	engstirnig	sterben	geizig	töten	bange	kuss	kreativ	vertrauen	genießen	vergnügt	gütig	krise	krank	versagen	gemein	verbissen	gierig	1	blank2r.bmp	0	1	+	0	1	blank2r.bmp	500	8	C4r.bmp	500	1	blank2r.bmp	880	1	krise	880	1	!	1313	1	!	1366	0	0	0	0	0	0
2024-06-12	16:43:28	16:47:17	227984	6.6.1	4_exp_EVA_AWA_CON	87	A	B	Rpleas_acq	Same	Rpleas	2pleas	acq_US_unple_nomask	acq2_nomask	2	19	480	1	300	300	0	0	424	46	1	0	anregung	engagiert	sonnig	gesittet	träumen	besonnen	ausrottung	engstirnig	sterben	geizig	töten	bange	kuss	kreativ	vertrauen	genießen	vergnügt	gütig	krise	krank	versagen	gemein	verbissen	gierig	1	blank2r.bmp	0	1	+	0	1	blank2r.bmp	500	1	CPLW	500	1	blank2r.bmp	880	5	töten	880	1	!	1313	1	!	1325	0	0	0	0	0	0
2024-06-12	16:43:28	16:47:19	230256	6.6.1	4_exp_EVA_AWA_CON	87	A	B	Rpleas_acq	Same	Rpleas	2pleas	acq_US_unple_nomask	acq2_nomask	2	20	480	1	300	300	0	0	494	46	1	0	anregung	engagiert	sonnig	gesittet	träumen	besonnen	ausrottung	engstirnig	sterben	geizig	töten	bange	kuss	kreativ	vertrauen	genießen	vergnügt	gütig	krise	krank	versagen	gemein	verbissen	gierig	1	blank2r.bmp	0	1	+	0	1	blank2r.bmp	500	1	CPLW	500	1	blank2r.bmp	880	1	ausrottung	880	1	!	1312	1	!	1395	0	0	0	0	0	0
2024-06-12	16:43:28	16:47:21	232472	6.6.1	4_exp_EVA_AWA_CON	87	A	B	Rpleas_acq	Same	Rpleas	2pleas	acq_new_pleas_nomask	acq2_nomask	2	21	480	1	300	300	0	0	439	50	1	0	anregung	engagiert	sonnig	gesittet	träumen	besonnen	ausrottung	engstirnig	sterben	geizig	töten	bange	kuss	kreativ	vertrauen	genießen	vergnügt	gütig	krise	krank	versagen	gemein	verbissen	gierig	1	blank2r.bmp	0	1	+	0	1	blank2r.bmp	500	6	C2r.bmp	500	1	blank2r.bmp	880	1	kuss	880	1	!	1312	1	!	1340	0	0	0	0	0	0
2024-06-12	16:43:28	16:47:23	234792	6.6.1	4_exp_EVA_AWA_CON	87	A	B	Rpleas_acq	Same	Rpleas	2pleas	acq_new_pleas_nomask	acq2_nomask	2	22	480	1	300	300	0	0	537	50	1	0	anregung	engagiert	sonnig	gesittet	träumen	besonnen	ausrottung	engstirnig	sterben	geizig	töten	bange	kuss	kreativ	vertrauen	genießen	vergnügt	gütig	krise	krank	versagen	gemein	verbissen	gierig	1	blank2r.bmp	0	1	+	0	1	blank2r.bmp	500	4	B4r.bmp	500	1	blank2r.bmp	880	2	kreativ	880	1	!	1313	1	!	1439	0	0	0	0	0	0
2024-06-12	16:43:28	16:47:26	237064	6.6.1	4_exp_EVA_AWA_CON	87	A	B	Rpleas_acq	Same	Rpleas	2pleas	acq_US_pleas_nomask	acq2_nomask	2	23	480	1	300	300	0	0	488	50	1	0	anregung	engagiert	sonnig	gesittet	träumen	besonnen	ausrottung	engstirnig	sterben	geizig	töten	bange	kuss	kreativ	vertrauen	genießen	vergnügt	gütig	krise	krank	versagen	gemein	verbissen	gierig	1	blank2r.bmp	0	1	+	0	1	blank2r.bmp	500	1	DHJF	500	1	blank2r.bmp	880	4	gesittet	880	1	!	1312	1	!	1389	0	0	0	0	0	0
2024-06-12	16:43:28	16:47:28	239262	6.6.1	4_exp_EVA_AWA_CON	87	A	B	Rpleas_acq	Same	Rpleas	2pleas	acq_US_pleas_nomask	acq2_nomask	2	24	480	1	300	300	0	0	416	50	1	0	anregung	engagiert	sonnig	gesittet	träumen	besonnen	ausrottung	engstirnig	sterben	geizig	töten	bange	kuss	kreativ	vertrauen	genießen	vergnügt	gütig	krise	krank	versagen	gemein	verbissen	gierig	1	blank2r.bmp	0	1	+	0	1	blank2r.bmp	500	1	DHJF	500	1	blank2r.bmp	880	2	engagiert	880	1	!	1312	1	!	1316	0	0	0	0	0	0
2024-06-12	16:43:28	16:47:30	241638	6.6.1	4_exp_EVA_AWA_CON	87	A	B	Rpleas_acq	Same	Rpleas	2pleas	acq_new_pleas_nomask	acq2_nomask	2	25	480	0	300	300	0	0	601	50	1	0	anregung	engagiert	sonnig	gesittet	träumen	besonnen	ausrottung	engstirnig	sterben	geizig	töten	bange	kuss	kreativ	vertrauen	genießen	vergnügt	gütig	krise	krank	versagen	gemein	verbissen	gierig	1	blank2r.bmp	0	1	+	0	1	blank2r.bmp	500	5	C1r.bmp	500	1	blank2r.bmp	880	5	vergnügt	880	1	!	1312	1	!	-1	0	0	0	0	0	0
2024-06-12	16:43:28	16:47:33	244153	6.6.1	4_exp_EVA_AWA_CON	87	A	B	Rpleas_acq	Same	Rpleas	2pleas	acq_US_unple_nomask	acq2_nomask	2	26	480	1	300	300	0	0	531	50	0	0	anregung	engagiert	sonnig	gesittet	träumen	besonnen	ausrottung	engstirnig	sterben	geizig	töten	bange	kuss	kreativ	vertrauen	genießen	vergnügt	gütig	krise	krank	versagen	gemein	verbissen	gierig	1	blank2r.bmp	0	1	+	0	1	blank2r.bmp	500	1	CPLW	500	1	blank2r.bmp	880	6	bange	880	1	FEHLER	1725	1	!	1312	1	!	1433	0	0	0
2024-06-12	16:43:28	16:47:35	246334	6.6.1	4_exp_EVA_AWA_CON	87	A	B	Rpleas_acq	Same	Rpleas	2pleas	acq_US_pleas_nomask	acq2_nomask	2	27	480	0	300	300	0	0	604	50	1	0	anregung	engagiert	sonnig	gesittet	träumen	besonnen	ausrottung	engstirnig	sterben	geizig	töten	bange	kuss	kreativ	vertrauen	genießen	vergnügt	gütig	krise	krank	versagen	gemein	verbissen	gierig	1	blank2r.bmp	0	1	+	0	1	blank2r.bmp	500	1	DHJF	500	1	blank2r.bmp	880	5	träumen	880	1	!	1313	1	!	-1	0	0	0	0	0	0
2024-06-12	16:43:28	16:47:37	248664	6.6.1	4_exp_EVA_AWA_CON	87	A	B	Rpleas_acq	Same	Rpleas	2pleas	acq_US_unple_nomask	acq2_nomask	2	28	480	1	300	300	0	0	550	46	1	0	anregung	engagiert	sonnig	gesittet	träumen	besonnen	ausrottung	engstirnig	sterben	geizig	töten	bange	kuss	kreativ	vertrauen	genießen	vergnügt	gütig	krise	krank	versagen	gemein	verbissen	gierig	1	blank2r.bmp	0	1	+	0	1	blank2r.bmp	500	1	CPLW	500	1	blank2r.bmp	880	3	sterben	880	1	!	1312	1	!	1452	0	0	0	0	0	0
2024-06-12	16:43:28	16:47:40	250968	6.6.1	4_exp_EVA_AWA_CON	87	A	B	Rpleas_acq	Same	Rpleas	2pleas	acq_new_pleas_nomask	acq2_nomask	2	29	480	1	300	300	0	0	523	50	1	0	anregung	engagiert	sonnig	gesittet	träumen	besonnen	ausrottung	engstirnig	sterben	geizig	töten	bange	kuss	kreativ	vertrauen	genießen	vergnügt	gütig	krise	krank	versagen	gemein	verbissen	gierig	1	blank2r.bmp	0	1	+	0	1	blank2r.bmp	500	7	C3r.bmp	500	1	blank2r.bmp	880	4	genießen	880	1	!	1313	1	!	1424	0	0	0	0	0	0
2024-06-12	16:43:28	16:47:42	253366	6.6.1	4_exp_EVA_AWA_CON	87	A	B	Rpleas_acq	Same	Rpleas	2pleas	acq_new_pleas_nomask	acq2_nomask	2	30	480	0	300	300	0	0	621	50	1	0	anregung	engagiert	sonnig	gesittet	träumen	besonnen	ausrottung	engstirnig	sterben	geizig	töten	bange	kuss	kreativ	vertrauen	genießen	vergnügt	gütig	krise	krank	versagen	gemein	verbissen	gierig	1	blank2r.bmp	0	1	+	0	1	blank2r.bmp	500	6	C2r.bmp	500	1	blank2r.bmp	880	3	vertrauen	880	1	!	1313	1	!	-1	0	0	0	0	0	0
2024-06-12	16:43:28	16:47:44	255672	6.6.1	4_exp_EVA_AWA_CON	87	A	B	Rpleas_acq	Same	Rpleas	2pleas	acq_new_unple_nomask	acq2_nomask	2	31	480	1	300	300	0	0	524	46	1	0	anregung	engagiert	sonnig	gesittet	träumen	besonnen	ausrottung	engstirnig	sterben	geizig	töten	bange	kuss	kreativ	vertrauen	genießen	vergnügt	gütig	krise	krank	versagen	gemein	verbissen	gierig	1	blank2r.bmp	0	1	+	0	1	blank2r.bmp	500	3	B3r.bmp	500	1	blank2r.bmp	880	2	krank	880	1	!	1312	1	!	1425	0	0	0	0	0	0
2024-06-12	16:43:28	16:47:47	257936	6.6.1	4_exp_EVA_AWA_CON	87	A	B	Rpleas_acq	Same	Rpleas	2pleas	acq_new_unple_nomask	acq2_nomask	2	32	480	1	300	300	0	0	486	46	1	0	anregung	engagiert	sonnig	gesittet	träumen	besonnen	ausrottung	engstirnig	sterben	geizig	töten	bange	kuss	kreativ	vertrauen	genießen	vergnügt	gütig	krise	krank	versagen	gemein	verbissen	gierig	1	blank2r.bmp	0	1	+	0	1	blank2r.bmp	500	1	B1r.bmp	500	1	blank2r.bmp	880	5	verbissen	880	1	!	1312	1	!	1388	0	0	0	0	0	0
2024-06-12	16:43:28	16:47:49	260192	6.6.1	4_exp_EVA_AWA_CON	87	A	B	Rpleas_acq	Same	Rpleas	2pleas	acq_new_unple_nomask	acq2_nomask	2	33	480	1	300	300	0	0	481	46	1	0	anregung	engagiert	sonnig	gesittet	träumen	besonnen	ausrottung	engstirnig	sterben	geizig	töten	bange	kuss	kreativ	vertrauen	genießen	vergnügt	gütig	krise	krank	versagen	gemein	verbissen	gierig	1	blank2r.bmp	0	1	+	0	1	blank2r.bmp	500	7	C3r.bmp	500	1	blank2r.bmp	880	4	gemein	880	1	!	1313	1	!	1383	0	0	0	0	0	0
2024-06-12	16:43:28	16:47:51	262440	6.6.1	4_exp_EVA_AWA_CON	87	A	B	Rpleas_acq	Same	Rpleas	2pleas	acq_US_pleas_nomask	acq2_nomask	2	34	480	1	300	300	0	0	467	50	1	0	anregung	engagiert	sonnig	gesittet	träumen	besonnen	ausrottung	engstirnig	sterben	geizig	töten	bange	kuss	kreativ	vertrauen	genießen	vergnügt	gütig	krise	krank	versagen	gemein	verbissen	gierig	1	blank2r.bmp	0	1	+	0	1	blank2r.bmp	500	1	DHJF	500	1	blank2r.bmp	880	6	besonnen	880	1	!	1312	1	!	1369	0	0	0	0	0	0
2024-06-12	16:43:28	16:47:53	264582	6.6.1	4_exp_EVA_AWA_CON	87	A	B	Rpleas_acq	Same	Rpleas	2pleas	acq_US_pleas_nomask	acq2_nomask	2	35	480	0	300	300	0	0	360	50	1	0	anregung	engagiert	sonnig	gesittet	träumen	besonnen	ausrottung	engstirnig	sterben	geizig	töten	bange	kuss	kreativ	vertrauen	genießen	vergnügt	gütig	krise	krank	versagen	gemein	verbissen	gierig	1	blank2r.bmp	0	1	+	0	1	blank2r.bmp	500	1	DHJF	500	1	blank2r.bmp	880	1	anregung	880	1	!	-1	1	!	-1	0	0	0	0	0	0
2024-06-12	16:43:28	16:47:56	267070	6.6.1	4_exp_EVA_AWA_CON	87	A	B	Rpleas_acq	Same	Rpleas	2pleas	acq_US_unple_nomask	acq2_nomask	2	36	480	0	300	300	0	0	707	46	1	0	anregung	engagiert	sonnig	gesittet	träumen	besonnen	ausrottung	engstirnig	sterben	geizig	töten	bange	kuss	kreativ	vertrauen	genießen	vergnügt	gütig	krise	krank	versagen	gemein	verbissen	gierig	1	blank2r.bmp	0	1	+	0	1	blank2r.bmp	500	1	CPLW	500	1	blank2r.bmp	880	2	engstirnig	880	1	!	1312	1	!	-1	0	0	0	0	0	0
2024-06-12	16:43:28	16:48:16	287220	6.6.1	4_exp_EVA_AWA_CON	87	A	B	Rpleas_acq	Same	Rpleas	2pleas	acq_US_pleas_nomask	acq3_nomask	3	1	453	0	300	300	0	0	526	50	1	0	anregung	engagiert	sonnig	gesittet	träumen	besonnen	ausrottung	engstirnig	sterben	geizig	töten	bange	kuss	kreativ	vertrauen	genießen	vergnügt	gütig	krise	krank	versagen	gemein	verbissen	gierig	1	blank2r.bmp	0	1	+	0	1	blank2r.bmp	500	1	DHJF	500	1	blank2r.bmp	880	4	gesittet	880	1	!	1292	1	!	-1	0	0	0	0	0	0
2024-06-12	16:43:28	16:48:18	289670	6.6.1	4_exp_EVA_AWA_CON	87	A	B	Rpleas_acq	Same	Rpleas	2pleas	acq_US_unple_nomask	acq3_nomask	3	2	453	0	300	300	0	0	672	46	1	0	anregung	engagiert	sonnig	gesittet	träumen	besonnen	ausrottung	engstirnig	sterben	geizig	töten	bange	kuss	kreativ	vertrauen	genießen	vergnügt	gütig	krise	krank	versagen	gemein	verbissen	gierig	1	blank2r.bmp	0	1	+	0	1	blank2r.bmp	500	1	CPLW	500	1	blank2r.bmp	880	6	bange	880	1	!	1292	1	!	-1	0	0	0	0	0	0
2024-06-12	16:43:28	16:48:21	292110	6.6.1	4_exp_EVA_AWA_CON	87	A	B	Rpleas_acq	Same	Rpleas	2pleas	acq_US_pleas_nomask	acq3_nomask	3	3	453	0	300	300	0	0	660	50	1	0	anregung	engagiert	sonnig	gesittet	träumen	besonnen	ausrottung	engstirnig	sterben	geizig	töten	bange	kuss	kreativ	vertrauen	genießen	vergnügt	gütig	krise	krank	versagen	gemein	verbissen	gierig	1	blank2r.bmp	0	1	+	0	1	blank2r.bmp	500	1	DHJF	500	1	blank2r.bmp	880	2	engagiert	880	1	!	1292	1	!	-1	0	0	0	0	0	0
2024-06-12	16:43:28	16:48:23	294486	6.6.1	4_exp_EVA_AWA_CON	87	A	B	Rpleas_acq	Same	Rpleas	2pleas	acq_US_unple_nomask	acq3_nomask	3	4	453	0	300	300	0	0	595	46	1	0	anregung	engagiert	sonnig	gesittet	träumen	besonnen	ausrottung	engstirnig	sterben	geizig	töten	bange	kuss	kreativ	vertrauen	genießen	vergnügt	gütig	krise	krank	versagen	gemein	verbissen	gierig	1	blank2r.bmp	0	1	+	0	1	blank2r.bmp	500	1	CPLW	500	1	blank2r.bmp	880	2	engstirnig	880	1	!	1293	1	!	-1	0	0	0	0	0	0
2024-06-12	16:43:28	16:48:25	296744	6.6.1	4_exp_EVA_AWA_CON	87	A	B	Rpleas_acq	Same	Rpleas	2pleas	acq_US_pleas_nomask	acq3_nomask	3	5	453	1	300	300	0	0	480	50	1	0	anregung	engagiert	sonnig	gesittet	träumen	besonnen	ausrottung	engstirnig	sterben	geizig	töten	bange	kuss	kreativ	vertrauen	genießen	vergnügt	gütig	krise	krank	versagen	gemein	verbissen	gierig	1	blank2r.bmp	0	1	+	0	1	blank2r.bmp	500	1	DHJF	500	1	blank2r.bmp	880	5	träumen	880	1	!	1293	1	!	1382	0	0	0	0	0	0
2024-06-12	16:43:28	16:48:28	299070	6.6.1	4_exp_EVA_AWA_CON	87	A	B	Rpleas_acq	Same	Rpleas	2pleas	acq_US_unple_nomask	acq3_nomask	3	6	453	0	300	300	0	0	546	46	1	0	anregung	engagiert	sonnig	gesittet	träumen	besonnen	ausrottung	engstirnig	sterben	geizig	töten	bange	kuss	kreativ	vertrauen	genießen	vergnügt	gütig	krise	krank	versagen	gemein	verbissen	gierig	1	blank2r.bmp	0	1	+	0	1	blank2r.bmp	500	1	CPLW	500	1	blank2r.bmp	880	3	sterben	880	1	!	1292	1	!	-1	0	0	0	0	0	0
2024-06-12	16:43:28	16:48:30	301320	6.6.1	4_exp_EVA_AWA_CON	87	A	B	Rpleas_acq	Same	Rpleas	2pleas	acq_US_pleas_nomask	acq3_nomask	3	7	453	1	300	300	0	0	472	50	1	0	anregung	engagiert	sonnig	gesittet	träumen	besonnen	ausrottung	engstirnig	sterben	geizig	töten	bange	kuss	kreativ	vertrauen	genießen	vergnügt	gütig	krise	krank	versagen	gemein	verbissen	gierig	1	blank2r.bmp	0	1	+	0	1	blank2r.bmp	500	1	DHJF	500	1	blank2r.bmp	880	3	sonnig	880	1	!	1292	1	!	1374	0	0	0	0	0	0
2024-06-12	16:43:28	16:48:32	303608	6.6.1	4_exp_EVA_AWA_CON	87	A	B	Rpleas_acq	Same	Rpleas	2pleas	acq_US_unple_nomask	acq3_nomask	3	8	453	1	300	300	0	0	509	46	1	0	anregung	engagiert	sonnig	gesittet	träumen	besonnen	ausrottung	engstirnig	sterben	geizig	töten	bange	kuss	kreativ	vertrauen	genießen	vergnügt	gütig	krise	krank	versagen	gemein	verbissen	gierig	1	blank2r.bmp	0	1	+	0	1	blank2r.bmp	500	1	CPLW	500	1	blank2r.bmp	880	1	ausrottung	880	1	!	1292	1	!	1411	0	0	0	0	0	0
2024-06-12	16:43:28	16:48:34	305910	6.6.1	4_exp_EVA_AWA_CON	87	A	B	Rpleas_acq	Same	Rpleas	2pleas	acq_US_pleas_nomask	acq3_nomask	3	9	453	0	300	300	0	0	524	50	1	0	anregung	engagiert	sonnig	gesittet	träumen	besonnen	ausrottung	engstirnig	sterben	geizig	töten	bange	kuss	kreativ	vertrauen	genießen	vergnügt	gütig	krise	krank	versagen	gemein	verbissen	gierig	1	blank2r.bmp	0	1	+	0	1	blank2r.bmp	500	1	DHJF	500	1	blank2r.bmp	880	1	anregung	880	1	!	1293	1	!	-1	0	0	0	0	0	0
2024-06-12	16:43:28	16:48:37	308311	6.6.1	4_exp_EVA_AWA_CON	87	A	B	Rpleas_acq	Same	Rpleas	2pleas	acq_US_unple_nomask	acq3_nomask	3	10	453	0	300	300	0	0	620	46	1	0	anregung	engagiert	sonnig	gesittet	träumen	besonnen	ausrottung	engstirnig	sterben	geizig	töten	bange	kuss	kreativ	vertrauen	genießen	vergnügt	gütig	krise	krank	versagen	gemein	verbissen	gierig	1	blank2r.bmp	0	1	+	0	1	blank2r.bmp	500	1	CPLW	500	1	blank2r.bmp	880	5	töten	880	1	!	1293	1	!	-1	0	0	0	0	0	0
2024-06-12	16:43:28	16:48:39	310630	6.6.1	4_exp_EVA_AWA_CON	87	A	B	Rpleas_acq	Same	Rpleas	2pleas	acq_US_unple_nomask	acq3_nomask	3	11	453	0	300	300	0	0	539	46	1	0	anregung	engagiert	sonnig	gesittet	träumen	besonnen	ausrottung	engstirnig	sterben	geizig	töten	bange	kuss	kreativ	vertrauen	genießen	vergnügt	gütig	krise	krank	versagen	gemein	verbissen	gierig	1	blank2r.bmp	0	1	+	0	1	blank2r.bmp	500	1	CPLW	500	1	blank2r.bmp	880	4	geizig	880	1	!	1292	1	!	-1	0	0	0	0	0	0
2024-06-12	16:43:28	16:48:41	312880	6.6.1	4_exp_EVA_AWA_CON	87	A	B	Rpleas_acq	Same	Rpleas	2pleas	acq_US_pleas_nomask	acq3_nomask	3	12	453	1	300	300	0	0	475	50	1	0	anregung	engagiert	sonnig	gesittet	träumen	besonnen	ausrottung	engstirnig	sterben	geizig	töten	bange	kuss	kreativ	vertrauen	genießen	vergnügt	gütig	krise	krank	versagen	gemein	verbissen	gierig	1	blank2r.bmp	0	1	+	0	1	blank2r.bmp	500	1	DHJF	500	1	blank2r.bmp	880	6	besonnen	880	1	!	1292	1	!	1376	0	0	0	0	0	0
2024-06-12	16:43:28	16:48:44	315278	6.6.1	4_exp_EVA_AWA_CON	87	A	B	Rpleas_acq	Same	Rpleas	2pleas	acq_US_pleas_nomask	acq3_nomask	3	13	453	0	300	300	0	0	624	50	1	0	anregung	engagiert	sonnig	gesittet	träumen	besonnen	ausrottung	engstirnig	sterben	geizig	töten	bange	kuss	kreativ	vertrauen	genießen	vergnügt	gütig	krise	krank	versagen	gemein	verbissen	gierig	1	blank2r.bmp	0	1	+	0	1	blank2r.bmp	500	1	DHJF	500	1	blank2r.bmp	880	4	gesittet	880	1	!	1293	1	!	-1	0	0	0	0	0	0
2024-06-12	16:43:28	16:48:46	317580	6.6.1	4_exp_EVA_AWA_CON	87	A	B	Rpleas_acq	Same	Rpleas	2pleas	acq_US_unple_nomask	acq3_nomask	3	14	453	0	300	300	0	0	526	46	1	0	anregung	engagiert	sonnig	gesittet	träumen	besonnen	ausrottung	engstirnig	sterben	geizig	töten	bange	kuss	kreativ	vertrauen	genießen	vergnügt	gütig	krise	krank	versagen	gemein	verbissen	gierig	1	blank2r.bmp	0	1	+	0	1	blank2r.bmp	500	1	CPLW	500	1	blank2r.bmp	880	5	töten	880	1	!	1292	1	!	-1	0	0	0	0	0	0
2024-06-12	16:43:28	16:48:49	319966	6.6.1	4_exp_EVA_AWA_CON	87	A	B	Rpleas_acq	Same	Rpleas	2pleas	acq_US_pleas_nomask	acq3_nomask	3	15	453	0	300	300	0	0	609	50	1	0	anregung	engagiert	sonnig	gesittet	träumen	besonnen	ausrottung	engstirnig	sterben	geizig	töten	bange	kuss	kreativ	vertrauen	genießen	vergnügt	gütig	krise	krank	versagen	gemein	verbissen	gierig	1	blank2r.bmp	0	1	+	0	1	blank2r.bmp	500	1	DHJF	500	1	blank2r.bmp	880	6	besonnen	880	1	!	1292	1	!	-1	0	0	0	0	0	0
2024-06-12	16:43:28	16:48:51	322208	6.6.1	4_exp_EVA_AWA_CON	87	A	B	Rpleas_acq	Same	Rpleas	2pleas	acq_US_unple_nomask	acq3_nomask	3	16	453	1	300	300	0	0	467	46	1	0	anregung	engagiert	sonnig	gesittet	träumen	besonnen	ausrottung	engstirnig	sterben	geizig	töten	bange	kuss	kreativ	vertrauen	genießen	vergnügt	gütig	krise	krank	versagen	gemein	verbissen	gierig	1	blank2r.bmp	0	1	+	0	1	blank2r.bmp	500	1	CPLW	500	1	blank2r.bmp	880	2	engstirnig	880	1	!	1293	1	!	1369	0	0	0	0	0	0
2024-06-12	16:43:28	16:48:53	324785	6.6.1	4_exp_EVA_AWA_CON	87	A	B	Rpleas_acq	Same	Rpleas	2pleas	acq_US_pleas_nomask	acq3_nomask	3	17	453	0	300	300	0	0	602	46	0	0	anregung	engagiert	sonnig	gesittet	träumen	besonnen	ausrottung	engstirnig	sterben	geizig	töten	bange	kuss	kreativ	vertrauen	genießen	vergnügt	gütig	krise	krank	versagen	gemein	verbissen	gierig	1	blank2r.bmp	0	1	+	0	1	blank2r.bmp	500	1	DHJF	500	1	blank2r.bmp	880	2	engagiert	880	1	FEHLER	1795	1	!	1293	1	!	-1	0	0	0
2024-06-12	16:43:28	16:48:56	327143	6.6.1	4_exp_EVA_AWA_CON	87	A	B	Rpleas_acq	Same	Rpleas	2pleas	acq_US_pleas_nomask	acq3_nomask	3	18	453	0	300	300	0	0	780	50	1	0	anregung	engagiert	sonnig	gesittet	träumen	besonnen	ausrottung	engstirnig	sterben	geizig	töten	bange	kuss	kreativ	vertrauen	genießen	vergnügt	gütig	krise	krank	versagen	gemein	verbissen	gierig	1	blank2r.bmp	0	1	+	0	1	blank2r.bmp	500	1	DHJF	500	1	blank2r.bmp	880	1	anregung	880	1	!	1293	1	!	-1	0	0	0	0	0	0
2024-06-12	16:43:28	16:48:58	329432	6.6.1	4_exp_EVA_AWA_CON	87	A	B	Rpleas_acq	Same	Rpleas	2pleas	acq_US_pleas_nomask	acq3_nomask	3	19	453	1	300	300	0	0	507	50	1	0	anregung	engagiert	sonnig	gesittet	träumen	besonnen	ausrottung	engstirnig	sterben	geizig	töten	bange	kuss	kreativ	vertrauen	genießen	vergnügt	gütig	krise	krank	versagen	gemein	verbissen	gierig	1	blank2r.bmp	0	1	+	0	1	blank2r.bmp	500	1	DHJF	500	1	blank2r.bmp	880	5	träumen	880	1	!	1292	1	!	1408	0	0	0	0	0	0
2024-06-12	16:43:28	16:49:00	331750	6.6.1	4_exp_EVA_AWA_CON	87	A	B	Rpleas_acq	Same	Rpleas	2pleas	acq_US_unple_nomask	acq3_nomask	3	20	453	0	300	300	0	0	546	46	1	0	anregung	engagiert	sonnig	gesittet	träumen	besonnen	ausrottung	engstirnig	sterben	geizig	töten	bange	kuss	kreativ	vertrauen	genießen	vergnügt	gütig	krise	krank	versagen	gemein	verbissen	gierig	1	blank2r.bmp	0	1	+	0	1	blank2r.bmp	500	1	CPLW	500	1	blank2r.bmp	880	1	ausrottung	880	1	!	1293	1	!	-1	0	0	0	0	0	0
2024-06-12	16:43:28	16:49:03	334297	6.6.1	4_exp_EVA_AWA_CON	87	A	B	Rpleas_acq	Same	Rpleas	2pleas	acq_US_unple_nomask	acq3_nomask	3	21	453	0	300	300	0	0	568	50	0	0	anregung	engagiert	sonnig	gesittet	träumen	besonnen	ausrottung	engstirnig	sterben	geizig	töten	bange	kuss	kreativ	vertrauen	genießen	vergnügt	gütig	krise	krank	versagen	gemein	verbissen	gierig	1	blank2r.bmp	0	1	+	0	1	blank2r.bmp	500	1	CPLW	500	1	blank2r.bmp	880	4	geizig	880	1	FEHLER	1761	1	!	1292	1	!	-1	0	0	0
2024-06-12	16:43:28	16:49:05	336502	6.6.1	4_exp_EVA_AWA_CON	87	A	B	Rpleas_acq	Same	Rpleas	2pleas	acq_US_unple_nomask	acq3_nomask	3	22	453	0	300	300	0	0	634	46	1	0	anregung	engagiert	sonnig	gesittet	träumen	besonnen	ausrottung	engstirnig	sterben	geizig	töten	bange	kuss	kreativ	vertrauen	genießen	vergnügt	gütig	krise	krank	versagen	gemein	verbissen	gierig	1	blank2r.bmp	0	1	+	0	1	blank2r.bmp	500	1	CPLW	500	1	blank2r.bmp	880	6	bange	880	1	!	1293	1	!	-1	0	0	0	0	0	0
2024-06-12	16:43:28	16:49:07	338744	6.6.1	4_exp_EVA_AWA_CON	87	A	B	Rpleas_acq	Same	Rpleas	2pleas	acq_US_pleas_nomask	acq3_nomask	3	23	453	1	300	300	0	0	463	50	1	0	anregung	engagiert	sonnig	gesittet	träumen	besonnen	ausrottung	engstirnig	sterben	geizig	töten	bange	kuss	kreativ	vertrauen	genießen	vergnügt	gütig	krise	krank	versagen	gemein	verbissen	gierig	1	blank2r.bmp	0	1	+	0	1	blank2r.bmp	500	1	DHJF	500	1	blank2r.bmp	880	3	sonnig	880	1	!	1292	1	!	1364	0	0	0	0	0	0
2024-06-12	16:43:28	16:49:10	340936	6.6.1	4_exp_EVA_AWA_CON	87	A	B	Rpleas_acq	Same	Rpleas	2pleas	acq_US_unple_nomask	acq3_nomask	3	24	453	1	300	300	0	0	413	46	1	0	anregung	engagiert	sonnig	gesittet	träumen	besonnen	ausrottung	engstirnig	sterben	geizig	töten	bange	kuss	kreativ	vertrauen	genießen	vergnügt	gütig	krise	krank	versagen	gemein	verbissen	gierig	1	blank2r.bmp	0	1	+	0	1	blank2r.bmp	500	1	CPLW	500	1	blank2r.bmp	880	3	sterben	880	1	!	1293	1	!	1315	0	0	0	0	0	0
2024-06-12	16:43:28	16:49:12	343110	6.6.1	4_exp_EVA_AWA_CON	87	A	B	Rpleas_acq	Same	Rpleas	2pleas	acq_US_unple_nomask	acq3_nomask	3	25	453	1	300	300	0	0	398	46	1	0	anregung	engagiert	sonnig	gesittet	träumen	besonnen	ausrottung	engstirnig	sterben	geizig	töten	bange	kuss	kreativ	vertrauen	genießen	vergnügt	gütig	krise	krank	versagen	gemein	verbissen	gierig	1	blank2r.bmp	0	1	+	0	1	blank2r.bmp	500	1	CPLW	500	1	blank2r.bmp	880	6	bange	880	1	!	1293	1	!	1298	0	0	0	0	0	0
2024-06-12	16:43:28	16:49:14	345246	6.6.1	4_exp_EVA_AWA_CON	87	A	B	Rpleas_acq	Same	Rpleas	2pleas	acq_US_unple_nomask	acq3_nomask	3	26	453	0	300	300	0	0	362	46	1	0	anregung	engagiert	sonnig	gesittet	träumen	besonnen	ausrottung	engstirnig	sterben	geizig	töten	bange	kuss	kreativ	vertrauen	genießen	vergnügt	gütig	krise	krank	versagen	gemein	verbissen	gierig	1	blank2r.bmp	0	1	+	0	1	blank2r.bmp	500	1	CPLW	500	1	blank2r.bmp	880	2	engstirnig	880	1	!	-1	1	!	-1	0	0	0	0	0	0
2024-06-12	16:43:28	16:49:16	347496	6.6.1	4_exp_EVA_AWA_CON	87	A	B	Rpleas_acq	Same	Rpleas	2pleas	acq_US_pleas_nomask	acq3_nomask	3	27	453	1	300	300	0	0	469	50	1	0	anregung	engagiert	sonnig	gesittet	träumen	besonnen	ausrottung	engstirnig	sterben	geizig	töten	bange	kuss	kreativ	vertrauen	genießen	vergnügt	gütig	krise	krank	versagen	gemein	verbissen	gierig	1	blank2r.bmp	0	1	+	0	1	blank2r.bmp	500	1	DHJF	500	1	blank2r.bmp	880	5	träumen	880	1	!	1293	1	!	1370	0	0	0	0	0	0
2024-06-12	16:43:28	16:49:18	349712	6.6.1	4_exp_EVA_AWA_CON	87	A	B	Rpleas_acq	Same	Rpleas	2pleas	acq_US_unple_nomask	acq3_nomask	3	28	453	1	300	300	0	0	433	46	1	0	anregung	engagiert	sonnig	gesittet	träumen	besonnen	ausrottung	engstirnig	sterben	geizig	töten	bange	kuss	kreativ	vertrauen	genießen	vergnügt	gütig	krise	krank	versagen	gemein	verbissen	gierig	1	blank2r.bmp	0	1	+	0	1	blank2r.bmp	500	1	CPLW	500	1	blank2r.bmp	880	5	töten	880	1	!	1292	1	!	1335	0	0	0	0	0	0
2024-06-12	16:43:28	16:49:21	352039	6.6.1	4_exp_EVA_AWA_CON	87	A	B	Rpleas_acq	Same	Rpleas	2pleas	acq_US_unple_nomask	acq3_nomask	3	29	453	0	300	300	0	0	550	46	1	0	anregung	engagiert	sonnig	gesittet	träumen	besonnen	ausrottung	engstirnig	sterben	geizig	töten	bange	kuss	kreativ	vertrauen	genießen	vergnügt	gütig	krise	krank	versagen	gemein	verbissen	gierig	1	blank2r.bmp	0	1	+	0	1	blank2r.bmp	500	1	CPLW	500	1	blank2r.bmp	880	1	ausrottung	880	1	!	1292	1	!	-1	0	0	0	0	0	0
2024-06-12	16:43:28	16:49:23	354410	6.6.1	4_exp_EVA_AWA_CON	87	A	B	Rpleas_acq	Same	Rpleas	2pleas	acq_US_pleas_nomask	acq3_nomask	3	30	453	0	300	300	0	0	386	46	0	0	anregung	engagiert	sonnig	gesittet	träumen	besonnen	ausrottung	engstirnig	sterben	geizig	töten	bange	kuss	kreativ	vertrauen	genießen	vergnügt	gütig	krise	krank	versagen	gemein	verbissen	gierig	1	blank2r.bmp	0	1	+	0	1	blank2r.bmp	500	1	DHJF	500	1	blank2r.bmp	880	2	engagiert	880	1	FEHLER	1580	1	!	-1	1	!	-1	0	0	0
2024-06-12	16:43:28	16:49:25	356721	6.6.1	4_exp_EVA_AWA_CON	87	A	B	Rpleas_acq	Same	Rpleas	2pleas	acq_US_pleas_nomask	acq3_nomask	3	31	453	0	300	300	0	0	537	46	0	0	anregung	engagiert	sonnig	gesittet	träumen	besonnen	ausrottung	engstirnig	sterben	geizig	töten	bange	kuss	kreativ	vertrauen	genießen	vergnügt	gütig	krise	krank	versagen	gemein	verbissen	gierig	1	blank2r.bmp	0	1	+	0	1	blank2r.bmp	500	1	DHJF	500	1	blank2r.bmp	880	3	sonnig	880	1	FEHLER	1730	1	!	1292	1	!	-1	0	0	0
2024-06-12	16:43:28	16:49:27	358820	6.6.1	4_exp_EVA_AWA_CON	87	A	B	Rpleas_acq	Same	Rpleas	2pleas	acq_US_pleas_nomask	acq3_nomask	3	32	453	0	300	300	0	0	530	50	1	0	anregung	engagiert	sonnig	gesittet	träumen	besonnen	ausrottung	engstirnig	sterben	geizig	töten	bange	kuss	kreativ	vertrauen	genießen	vergnügt	gütig	krise	krank	versagen	gemein	verbissen	gierig	1	blank2r.bmp	0	1	+	0	1	blank2r.bmp	500	1	DHJF	500	1	blank2r.bmp	880	1	anregung	880	1	!	1293	1	!	-1	0	0	0	0	0	0
2024-06-12	16:43:28	16:49:30	361056	6.6.1	4_exp_EVA_AWA_CON	87	A	B	Rpleas_acq	Same	Rpleas	2pleas	acq_US_unple_nomask	acq3_nomask	3	33	453	1	300	300	0	0	460	46	1	0	anregung	engagiert	sonnig	gesittet	träumen	besonnen	ausrottung	engstirnig	sterben	geizig	töten	bange	kuss	kreativ	vertrauen	genießen	vergnügt	gütig	krise	krank	versagen	gemein	verbissen	gierig	1	blank2r.bmp	0	1	+	0	1	blank2r.bmp	500	1	CPLW	500	1	blank2r.bmp	880	4	geizig	880	1	!	1292	1	!	1362	0	0	0	0	0	0
2024-06-12	16:43:28	16:49:32	363304	6.6.1	4_exp_EVA_AWA_CON	87	A	B	Rpleas_acq	Same	Rpleas	2pleas	acq_US_pleas_nomask	acq3_nomask	3	34	453	1	300	300	0	0	467	50	1	0	anregung	engagiert	sonnig	gesittet	träumen	besonnen	ausrottung	engstirnig	sterben	geizig	töten	bange	kuss	kreativ	vertrauen	genießen	vergnügt	gütig	krise	krank	versagen	gemein	verbissen	gierig	1	blank2r.bmp	0	1	+	0	1	blank2r.bmp	500	1	DHJF	500	1	blank2r.bmp	880	6	besonnen	880	1	!	1292	1	!	1368	0	0	0	0	0	0
2024-06-12	16:43:28	16:49:34	365543	6.6.1	4_exp_EVA_AWA_CON	87	A	B	Rpleas_acq	Same	Rpleas	2pleas	acq_US_pleas_nomask	acq3_nomask	3	35	453	1	300	300	0	0	465	50	1	0	anregung	engagiert	sonnig	gesittet	träumen	besonnen	ausrottung	engstirnig	sterben	geizig	töten	bange	kuss	kreativ	vertrauen	genießen	vergnügt	gütig	krise	krank	versagen	gemein	verbissen	gierig	1	blank2r.bmp	0	1	+	0	1	blank2r.bmp	500	1	DHJF	500	1	blank2r.bmp	880	4	gesittet	880	1	!	1292	1	!	1367	0	0	0	0	0	0
2024-06-12	16:43:28	16:49:36	367760	6.6.1	4_exp_EVA_AWA_CON	87	A	B	Rpleas_acq	Same	Rpleas	2pleas	acq_US_unple_nomask	acq3_nomask	3	36	453	1	300	300	0	0	440	46	1	0	anregung	engagiert	sonnig	gesittet	träumen	besonnen	ausrottung	engstirnig	sterben	geizig	töten	bange	kuss	kreativ	vertrauen	genießen	vergnügt	gütig	krise	krank	versagen	gemein	verbissen	gierig	1	blank2r.bmp	0	1	+	0	1	blank2r.bmp	500	1	CPLW	500	1	blank2r.bmp	880	3	sterben	880	1	!	1292	1	!	1342	0	0	0	0	0	0
2024-06-12	16:43:28	16:49:53	384566	6.6.1	4_exp_EVA_AWA_CON	87	A	B	Rpleas_acq	Same	Rpleas	2pleas	acq_US_unple_nomask	acq45_nomask	4	1	400	0	300	300	0	0	517	46	1	0	anregung	engagiert	sonnig	gesittet	träumen	besonnen	ausrottung	engstirnig	sterben	geizig	töten	bange	kuss	kreativ	vertrauen	genießen	vergnügt	gütig	krise	krank	versagen	gemein	verbissen	gierig	1	blank2r.bmp	0	1	+	0	1	blank2r.bmp	500	1	CPLW	500	1	blank2r.bmp	880	2	engstirnig	880	1	!	1232	1	!	-1	0	0	0	0	0	0
2024-06-12	16:43:28	16:49:56	386942	6.6.1	4_exp_EVA_AWA_CON	87	A	B	Rpleas_acq	Same	Rpleas	2pleas	acq_US_pleas_nomask	acq45_nomask	4	2	400	0	300	300	0	0	602	50	1	0	anregung	engagiert	sonnig	gesittet	träumen	besonnen	ausrottung	engstirnig	sterben	geizig	töten	bange	kuss	kreativ	vertrauen	genießen	vergnügt	gütig	krise	krank	versagen	gemein	verbissen	gierig	1	blank2r.bmp	0	1	+	0	1	blank2r.bmp	500	1	DHJF	500	1	blank2r.bmp	880	4	gesittet	880	1	!	1233	1	!	-1	0	0	0	0	0	0
2024-06-12	16:43:28	16:49:58	389136	6.6.1	4_exp_EVA_AWA_CON	87	A	B	Rpleas_acq	Same	Rpleas	2pleas	acq_US_pleas_nomask	acq45_nomask	4	3	400	1	300	300	0	0	412	50	1	0	anregung	engagiert	sonnig	gesittet	träumen	besonnen	ausrottung	engstirnig	sterben	geizig	töten	bange	kuss	kreativ	vertrauen	genießen	vergnügt	gütig	krise	krank	versagen	gemein	verbissen	gierig	1	blank2r.bmp	0	1	+	0	1	blank2r.bmp	500	1	DHJF	500	1	blank2r.bmp	880	3	sonnig	880	1	!	1232	1	!	1313	0	0	0	0	0	0
2024-06-12	16:43:28	16:50:00	391446	6.6.1	4_exp_EVA_AWA_CON	87	A	B	Rpleas_acq	Same	Rpleas	2pleas	acq_US_unple_nomask	acq45_nomask	4	4	400	0	300	300	0	0	533	50	0	0	anregung	engagiert	sonnig	gesittet	träumen	besonnen	ausrottung	engstirnig	sterben	geizig	töten	bange	kuss	kreativ	vertrauen	genießen	vergnügt	gütig	krise	krank	versagen	gemein	verbissen	gierig	1	blank2r.bmp	0	1	+	0	1	blank2r.bmp	500	1	CPLW	500	1	blank2r.bmp	880	1	ausrottung	880	1	!	1232	1	!	-1	0	0	0	0	0	0
2024-06-12	16:43:28	16:50:02	393766	6.6.1	4_exp_EVA_AWA_CON	87	A	B	Rpleas_acq	Same	Rpleas	2pleas	acq_US_pleas_nomask	acq45_nomask	4	5	400	0	300	300	0	0	541	50	1	0	anregung	engagiert	sonnig	gesittet	träumen	besonnen	ausrottung	engstirnig	sterben	geizig	töten	bange	kuss	kreativ	vertrauen	genießen	vergnügt	gütig	krise	krank	versagen	gemein	verbissen	gierig	1	blank2r.bmp	0	1	+	0	1	blank2r.bmp	500	1	DHJF	500	1	blank2r.bmp	880	5	träumen	880	1	!	1232	1	!	-1	0	0	0	0	0	0
2024-06-12	16:43:28	16:50:05	395944	6.6.1	4_exp_EVA_AWA_CON	87	A	B	Rpleas_acq	Same	Rpleas	2pleas	acq_US_unple_nomask	acq45_nomask	4	6	400	1	300	300	0	0	396	46	1	0	anregung	engagiert	sonnig	gesittet	träumen	besonnen	ausrottung	engstirnig	sterben	geizig	töten	bange	kuss	kreativ	vertrauen	genießen	vergnügt	gütig	krise	krank	versagen	gemein	verbissen	gierig	1	blank2r.bmp	0	1	+	0	1	blank2r.bmp	500	1	CPLW	500	1	blank2r.bmp	880	4	geizig	880	1	!	1233	1	!	1297	0	0	0	0	0	0
2024-06-12	16:43:28	16:50:07	398278	6.6.1	4_exp_EVA_AWA_CON	87	A	B	Rpleas_acq	Same	Rpleas	2pleas	acq_US_pleas_nomask	acq45_nomask	4	7	400	0	300	300	0	0	560	50	1	0	anregung	engagiert	sonnig	gesittet	träumen	besonnen	ausrottung	engstirnig	sterben	geizig	töten	bange	kuss	kreativ	vertrauen	genießen	vergnügt	gütig	krise	krank	versagen	gemein	verbissen	gierig	1	blank2r.bmp	0	1	+	0	1	blank2r.bmp	500	1	DHJF	500	1	blank2r.bmp	880	1	anregung	880	1	!	1232	1	!	-1	0	0	0	0	0	0
2024-06-12	16:43:28	16:50:09	400606	6.6.1	4_exp_EVA_AWA_CON	87	A	B	Rpleas_acq	Same	Rpleas	2pleas	acq_US_unple_nomask	acq45_nomask	4	8	400	0	300	300	0	0	547	46	1	0	anregung	engagiert	sonnig	gesittet	träumen	besonnen	ausrottung	engstirnig	sterben	geizig	töten	bange	kuss	kreativ	vertrauen	genießen	vergnügt	gütig	krise	krank	versagen	gemein	verbissen	gierig	1	blank2r.bmp	0	1	+	0	1	blank2r.bmp	500	1	CPLW	500	1	blank2r.bmp	880	3	sterben	880	1	!	1232	1	!	-1	0	0	0	0	0	0
2024-06-12	16:43:28	16:50:11	402871	6.6.1	4_exp_EVA_AWA_CON	87	A	B	Rpleas_acq	Same	Rpleas	2pleas	acq_US_pleas_nomask	acq45_nomask	4	9	400	0	300	300	0	0	489	50	1	0	anregung	engagiert	sonnig	gesittet	träumen	besonnen	ausrottung	engstirnig	sterben	geizig	töten	bange	kuss	kreativ	vertrauen	genießen	vergnügt	gütig	krise	krank	versagen	gemein	verbissen	gierig	1	blank2r.bmp	0	1	+	0	1	blank2r.bmp	500	1	DHJF	500	1	blank2r.bmp	880	6	besonnen	880	1	!	1232	1	!	-1	0	0	0	0	0	0
2024-06-12	16:43:28	16:50:14	405166	6.6.1	4_exp_EVA_AWA_CON	87	A	B	Rpleas_acq	Same	Rpleas	2pleas	acq_US_pleas_nomask	acq45_nomask	4	10	400	0	300	300	0	0	514	50	1	0	anregung	engagiert	sonnig	gesittet	träumen	besonnen	ausrottung	engstirnig	sterben	geizig	töten	bange	kuss	kreativ	vertrauen	genießen	vergnügt	gütig	krise	krank	versagen	gemein	verbissen	gierig	1	blank2r.bmp	0	1	+	0	1	blank2r.bmp	500	1	DHJF	500	1	blank2r.bmp	880	2	engagiert	880	1	!	1232	1	!	-1	0	0	0	0	0	0
2024-06-12	16:43:28	16:50:16	407470	6.6.1	4_exp_EVA_AWA_CON	87	A	B	Rpleas_acq	Same	Rpleas	2pleas	acq_US_pleas_nomask	acq45_nomask	4	11	400	0	300	300	0	0	526	50	1	0	anregung	engagiert	sonnig	gesittet	träumen	besonnen	ausrottung	engstirnig	sterben	geizig	töten	bange	kuss	kreativ	vertrauen	genießen	vergnügt	gütig	krise	krank	versagen	gemein	verbissen	gierig	1	blank2r.bmp	0	1	+	0	1	blank2r.bmp	500	1	DHJF	500	1	blank2r.bmp	880	4	gesittet	880	1	!	1232	1	!	-1	0	0	0	0	0	0
2024-06-12	16:43:28	16:50:18	409774	6.6.1	4_exp_EVA_AWA_CON	87	A	B	Rpleas_acq	Same	Rpleas	2pleas	acq_US_pleas_nomask	acq45_nomask	4	12	400	0	300	300	0	0	529	50	1	0	anregung	engagiert	sonnig	gesittet	träumen	besonnen	ausrottung	engstirnig	sterben	geizig	töten	bange	kuss	kreativ	vertrauen	genießen	vergnügt	gütig	krise	krank	versagen	gemein	verbissen	gierig	1	blank2r.bmp	0	1	+	0	1	blank2r.bmp	500	1	DHJF	500	1	blank2r.bmp	880	6	besonnen	880	1	!	1232	1	!	-1	0	0	0	0	0	0
2024-06-12	16:43:28	16:50:21	411992	6.6.1	4_exp_EVA_AWA_CON	87	A	B	Rpleas_acq	Same	Rpleas	2pleas	acq_US_unple_nomask	acq45_nomask	4	13	400	1	300	300	0	0	443	46	1	0	anregung	engagiert	sonnig	gesittet	träumen	besonnen	ausrottung	engstirnig	sterben	geizig	töten	bange	kuss	kreativ	vertrauen	genießen	vergnügt	gütig	krise	krank	versagen	gemein	verbissen	gierig	1	blank2r.bmp	0	1	+	0	1	blank2r.bmp	500	1	CPLW	500	1	blank2r.bmp	880	6	bange	880	1	!	1232	1	!	1345	0	0	0	0	0	0
2024-06-12	16:43:28	16:50:23	414208	6.6.1	4_exp_EVA_AWA_CON	87	A	B	Rpleas_acq	Same	Rpleas	2pleas	acq_US_unple_nomask	acq45_nomask	4	14	400	1	300	300	0	0	438	46	1	0	anregung	engagiert	sonnig	gesittet	träumen	besonnen	ausrottung	engstirnig	sterben	geizig	töten	bange	kuss	kreativ	vertrauen	genießen	vergnügt	gütig	krise	krank	versagen	gemein	verbissen	gierig	1	blank2r.bmp	0	1	+	0	1	blank2r.bmp	500	1	CPLW	500	1	blank2r.bmp	880	5	töten	880	1	!	1232	1	!	1339	0	0	0	0	0	0
2024-06-12	16:43:28	16:50:25	416456	6.6.1	4_exp_EVA_AWA_CON	87	A	B	Rpleas_acq	Same	Rpleas	2pleas	acq_US_unple_nomask	acq45_nomask	4	15	400	1	300	300	0	0	465	46	1	0	anregung	engagiert	sonnig	gesittet	träumen	besonnen	ausrottung	engstirnig	sterben	geizig	töten	bange	kuss	kreativ	vertrauen	genießen	vergnügt	gütig	krise	krank	versagen	gemein	verbissen	gierig	1	blank2r.bmp	0	1	+	0	1	blank2r.bmp	500	1	CPLW	500	1	blank2r.bmp	880	4	geizig	880	1	!	1232	1	!	1366	0	0	0	0	0	0
2024-06-12	16:43:28	16:50:27	418726	6.6.1	4_exp_EVA_AWA_CON	87	A	B	Rpleas_acq	Same	Rpleas	2pleas	acq_US_unple_nomask	acq45_nomask	4	16	400	0	300	300	0	0	495	46	1	0	anregung	engagiert	sonnig	gesittet	träumen	besonnen	ausrottung	engstirnig	sterben	geizig	töten	bange	kuss	kreativ	vertrauen	genießen	vergnügt	gütig	krise	krank	versagen	gemein	verbissen	gierig	1	blank2r.bmp	0	1	+	0	1	blank2r.bmp	500	1	CPLW	500	1	blank2r.bmp	880	1	ausrottung	880	1	!	1232	1	!	-1	0	0	0	0	0	0
2024-06-12	16:43:28	16:50:30	420980	6.6.1	4_exp_EVA_AWA_CON	87	A	B	Rpleas_acq	Same	Rpleas	2pleas	acq_US_unple_nomask	acq45_nomask	4	17	400	0	300	300	0	0	480	46	1	0	anregung	engagiert	sonnig	gesittet	träumen	besonnen	ausrottung	engstirnig	sterben	geizig	töten	bange	kuss	kreativ	vertrauen	genießen	vergnügt	gütig	krise	krank	versagen	gemein	verbissen	gierig	1	blank2r.bmp	0	1	+	0	1	blank2r.bmp	500	1	CPLW	500	1	blank2r.bmp	880	3	sterben	880	1	!	1232	1	!	-1	0	0	0	0	0	0
2024-06-12	16:43:28	16:50:32	423168	6.6.1	4_exp_EVA_AWA_CON	87	A	B	Rpleas_acq	Same	Rpleas	2pleas	acq_US_pleas_nomask	acq45_nomask	4	18	400	1	300	300	0	0	412	50	1	0	anregung	engagiert	sonnig	gesittet	träumen	besonnen	ausrottung	engstirnig	sterben	geizig	töten	bange	kuss	kreativ	vertrauen	genießen	vergnügt	gütig	krise	krank	versagen	gemein	verbissen	gierig	1	blank2r.bmp	0	1	+	0	1	blank2r.bmp	500	1	DHJF	500	1	blank2r.bmp	880	2	engagiert	880	1	!	1232	1	!	1314	0	0	0	0	0	0
2024-06-12	16:43:28	16:50:34	425359	6.6.1	4_exp_EVA_AWA_CON	87	A	B	Rpleas_acq	Same	Rpleas	2pleas	acq_US_pleas_nomask	acq45_nomask	4	19	400	1	300	300	0	0	413	50	1	0	anregung	engagiert	sonnig	gesittet	träumen	besonnen	ausrottung	engstirnig	sterben	geizig	töten	bange	kuss	kreativ	vertrauen	genießen	vergnügt	gütig	krise	krank	versagen	gemein	verbissen	gierig	1	blank2r.bmp	0	1	+	0	1	blank2r.bmp	500	1	DHJF	500	1	blank2r.bmp	880	3	sonnig	880	1	!	1232	1	!	1314	0	0	0	0	0	0
2024-06-12	16:43:28	16:50:36	427528	6.6.1	4_exp_EVA_AWA_CON	87	A	B	Rpleas_acq	Same	Rpleas	2pleas	acq_US_unple_nomask	acq45_nomask	4	20	400	1	300	300	0	0	390	50	0	0	anregung	engagiert	sonnig	gesittet	träumen	besonnen	ausrottung	engstirnig	sterben	geizig	töten	bange	kuss	kreativ	vertrauen	genießen	vergnügt	gütig	krise	krank	versagen	gemein	verbissen	gierig	1	blank2r.bmp	0	1	+	0	1	blank2r.bmp	500	1	CPLW	500	1	blank2r.bmp	880	6	bange	880	1	!	1232	1	!	1292	0	0	0	0	0	0
2024-06-12	16:43:28	16:50:38	429806	6.6.1	4_exp_EVA_AWA_CON	87	A	B	Rpleas_acq	Same	Rpleas	2pleas	acq_US_unple_nomask	acq45_nomask	4	21	400	0	300	300	0	0	498	46	1	0	anregung	engagiert	sonnig	gesittet	träumen	besonnen	ausrottung	engstirnig	sterben	geizig	töten	bange	kuss	kreativ	vertrauen	genießen	vergnügt	gütig	krise	krank	versagen	gemein	verbissen	gierig	1	blank2r.bmp	0	1	+	0	1	blank2r.bmp	500	1	CPLW	500	1	blank2r.bmp	880	5	töten	880	1	!	1232	1	!	-1	0	0	0	0	0	0
2024-06-12	16:43:28	16:50:41	432016	6.6.1	4_exp_EVA_AWA_CON	87	A	B	Rpleas_acq	Same	Rpleas	2pleas	acq_US_unple_nomask	acq45_nomask	4	22	400	1	300	300	0	0	435	46	1	0	anregung	engagiert	sonnig	gesittet	träumen	besonnen	ausrottung	engstirnig	sterben	geizig	töten	bange	kuss	kreativ	vertrauen	genießen	vergnügt	gütig	krise	krank	versagen	gemein	verbissen	gierig	1	blank2r.bmp	0	1	+	0	1	blank2r.bmp	500	1	CPLW	500	1	blank2r.bmp	880	2	engstirnig	880	1	!	1232	1	!	1336	0	0	0	0	0	0
2024-06-12	16:43:28	16:50:43	434159	6.6.1	4_exp_EVA_AWA_CON	87	A	B	Rpleas_acq	Same	Rpleas	2pleas	acq_US_unple_nomask	acq45_nomask	4	23	400	1	300	300	0	0	367	46	1	0	anregung	engagiert	sonnig	gesittet	träumen	besonnen	ausrottung	engstirnig	sterben	geizig	töten	bange	kuss	kreativ	vertrauen	genießen	vergnügt	gütig	krise	krank	versagen	gemein	verbissen	gierig	1	blank2r.bmp	0	1	+	0	1	blank2r.bmp	500	1	CPLW	500	1	blank2r.bmp	880	2	engstirnig	880	1	!	1232	1	!	1268	0	0	0	0	0	0
2024-06-12	16:43:28	16:50:45	436367	6.6.1	4_exp_EVA_AWA_CON	87	A	B	Rpleas_acq	Same	Rpleas	2pleas	acq_US_unple_nomask	acq45_nomask	4	24	400	1	300	300	0	0	434	46	1	0	anregung	engagiert	sonnig	gesittet	träumen	besonnen	ausrottung	engstirnig	sterben	geizig	töten	bange	kuss	kreativ	vertrauen	genießen	vergnügt	gütig	krise	krank	versagen	gemein	verbissen	gierig	1	blank2r.bmp	0	1	+	0	1	blank2r.bmp	500	1	CPLW	500	1	blank2r.bmp	880	4	geizig	880	1	!	1232	1	!	1335	0	0	0	0	0	0
2024-06-12	16:43:28	16:50:47	438620	6.6.1	4_exp_EVA_AWA_CON	87	A	B	Rpleas_acq	Same	Rpleas	2pleas	acq_US_pleas_nomask	acq45_nomask	4	25	400	0	300	300	0	0	478	50	1	0	anregung	engagiert	sonnig	gesittet	träumen	besonnen	ausrottung	engstirnig	sterben	geizig	töten	bange	kuss	kreativ	vertrauen	genießen	vergnügt	gütig	krise	krank	versagen	gemein	verbissen	gierig	1	blank2r.bmp	0	1	+	0	1	blank2r.bmp	500	1	DHJF	500	1	blank2r.bmp	880	1	anregung	880	1	!	1232	1	!	-1	0	0	0	0	0	0
2024-06-12	16:43:28	16:50:49	440776	6.6.1	4_exp_EVA_AWA_CON	87	A	B	Rpleas_acq	Same	Rpleas	2pleas	acq_US_unple_nomask	acq45_nomask	4	26	400	1	300	300	0	0	379	46	1	0	anregung	engagiert	sonnig	gesittet	träumen	besonnen	ausrottung	engstirnig	sterben	geizig	töten	bange	kuss	kreativ	vertrauen	genießen	vergnügt	gütig	krise	krank	versagen	gemein	verbissen	gierig	1	blank2r.bmp	0	1	+	0	1	blank2r.bmp	500	1	CPLW	500	1	blank2r.bmp	880	6	bange	880	1	!	1232	1	!	1280	0	0	0	0	0	0
2024-06-12	16:43:28	16:50:52	443078	6.6.1	4_exp_EVA_AWA_CON	87	A	B	Rpleas_acq	Same	Rpleas	2pleas	acq_US_pleas_nomask	acq45_nomask	4	27	400	0	300	300	0	0	522	50	1	0	anregung	engagiert	sonnig	gesittet	träumen	besonnen	ausrottung	engstirnig	sterben	geizig	töten	bange	kuss	kreativ	vertrauen	genießen	vergnügt	gütig	krise	krank	versagen	gemein	verbissen	gierig	1	blank2r.bmp	0	1	+	0	1	blank2r.bmp	500	1	DHJF	500	1	blank2r.bmp	880	5	träumen	880	1	!	1232	1	!	-1	0	0	0	0	0	0
2024-06-12	16:43:28	16:50:54	445215	6.6.1	4_exp_EVA_AWA_CON	87	A	B	Rpleas_acq	Same	Rpleas	2pleas	acq_US_unple_nomask	acq45_nomask	4	28	400	1	300	300	0	0	356	46	1	0	anregung	engagiert	sonnig	gesittet	träumen	besonnen	ausrottung	engstirnig	sterben	geizig	töten	bange	kuss	kreativ	vertrauen	genießen	vergnügt	gütig	krise	krank	versagen	gemein	verbissen	gierig	1	blank2r.bmp	0	1	+	0	1	blank2r.bmp	500	1	CPLW	500	1	blank2r.bmp	880	3	sterben	880	1	!	1232	1	!	1257	0	0	0	0	0	0
2024-06-12	16:43:28	16:50:56	447367	6.6.1	4_exp_EVA_AWA_CON	87	A	B	Rpleas_acq	Same	Rpleas	2pleas	acq_US_pleas_nomask	acq45_nomask	4	29	400	1	300	300	0	0	377	46	0	0	anregung	engagiert	sonnig	gesittet	träumen	besonnen	ausrottung	engstirnig	sterben	geizig	töten	bange	kuss	kreativ	vertrauen	genießen	vergnügt	gütig	krise	krank	versagen	gemein	verbissen	gierig	1	blank2r.bmp	0	1	+	0	1	blank2r.bmp	500	1	DHJF	500	1	blank2r.bmp	880	2	engagiert	880	1	!	1232	1	!	1278	0	0	0	0	0	0
2024-06-12	16:43:28	16:50:58	449742	6.6.1	4_exp_EVA_AWA_CON	87	A	B	Rpleas_acq	Same	Rpleas	2pleas	acq_US_pleas_nomask	acq45_nomask	4	30	400	0	300	300	0	0	601	50	1	0	anregung	engagiert	sonnig	gesittet	träumen	besonnen	ausrottung	engstirnig	sterben	geizig	töten	bange	kuss	kreativ	vertrauen	genießen	vergnügt	gütig	krise	krank	versagen	gemein	verbissen	gierig	1	blank2r.bmp	0	1	+	0	1	blank2r.bmp	500	1	DHJF	500	1	blank2r.bmp	880	5	träumen	880	1	!	1232	1	!	-1	0	0	0	0	0	0
2024-06-12	16:43:28	16:51:01	452103	6.6.1	4_exp_EVA_AWA_CON	87	A	B	Rpleas_acq	Same	Rpleas	2pleas	acq_US_pleas_nomask	acq45_nomask	4	31	400	0	300	300	0	0	580	50	1	0	anregung	engagiert	sonnig	gesittet	träumen	besonnen	ausrottung	engstirnig	sterben	geizig	töten	bange	kuss	kreativ	vertrauen	genießen	vergnügt	gütig	krise	krank	versagen	gemein	verbissen	gierig	1	blank2r.bmp	0	1	+	0	1	blank2r.bmp	500	1	DHJF	500	1	blank2r.bmp	880	1	anregung	880	1	!	1232	1	!	-1	0	0	0	0	0	0
2024-06-12	16:43:28	16:51:03	454356	6.6.1	4_exp_EVA_AWA_CON	87	A	B	Rpleas_acq	Same	Rpleas	2pleas	acq_US_pleas_nomask	acq45_nomask	4	32	400	0	300	300	0	0	474	50	1	0	anregung	engagiert	sonnig	gesittet	träumen	besonnen	ausrottung	engstirnig	sterben	geizig	töten	bange	kuss	kreativ	vertrauen	genießen	vergnügt	gütig	krise	krank	versagen	gemein	verbissen	gierig	1	blank2r.bmp	0	1	+	0	1	blank2r.bmp	500	1	DHJF	500	1	blank2r.bmp	880	3	sonnig	880	1	!	1232	1	!	-1	0	0	0	0	0	0
2024-06-12	16:43:28	16:51:05	456638	6.6.1	4_exp_EVA_AWA_CON	87	A	B	Rpleas_acq	Same	Rpleas	2pleas	acq_US_pleas_nomask	acq45_nomask	4	33	400	0	300	300	0	0	503	50	1	0	anregung	engagiert	sonnig	gesittet	träumen	besonnen	ausrottung	engstirnig	sterben	geizig	töten	bange	kuss	kreativ	vertrauen	genießen	vergnügt	gütig	krise	krank	versagen	gemein	verbissen	gierig	1	blank2r.bmp	0	1	+	0	1	blank2r.bmp	500	1	DHJF	500	1	blank2r.bmp	880	6	besonnen	880	1	!	1232	1	!	-1	0	0	0	0	0	0
2024-06-12	16:43:28	16:51:07	458848	6.6.1	4_exp_EVA_AWA_CON	87	A	B	Rpleas_acq	Same	Rpleas	2pleas	acq_US_unple_nomask	acq45_nomask	4	34	400	1	300	300	0	0	429	46	1	0	anregung	engagiert	sonnig	gesittet	träumen	besonnen	ausrottung	engstirnig	sterben	geizig	töten	bange	kuss	kreativ	vertrauen	genießen	vergnügt	gütig	krise	krank	versagen	gemein	verbissen	gierig	1	blank2r.bmp	0	1	+	0	1	blank2r.bmp	500	1	CPLW	500	1	blank2r.bmp	880	5	töten	880	1	!	1232	1	!	1331	0	0	0	0	0	0
2024-06-12	16:43:28	16:51:10	461040	6.6.1	4_exp_EVA_AWA_CON	87	A	B	Rpleas_acq	Same	Rpleas	2pleas	acq_US_pleas_nomask	acq45_nomask	4	35	400	1	300	300	0	0	410	50	1	0	anregung	engagiert	sonnig	gesittet	träumen	besonnen	ausrottung	engstirnig	sterben	geizig	töten	bange	kuss	kreativ	vertrauen	genießen	vergnügt	gütig	krise	krank	versagen	gemein	verbissen	gierig	1	blank2r.bmp	0	1	+	0	1	blank2r.bmp	500	1	DHJF	500	1	blank2r.bmp	880	4	gesittet	880	1	!	1232	1	!	1312	0	0	0	0	0	0
2024-06-12	16:43:28	16:51:12	463326	6.6.1	4_exp_EVA_AWA_CON	87	A	B	Rpleas_acq	Same	Rpleas	2pleas	acq_US_unple_nomask	acq45_nomask	4	36	400	0	300	300	0	0	507	50	0	0	anregung	engagiert	sonnig	gesittet	träumen	besonnen	ausrottung	engstirnig	sterben	geizig	töten	bange	kuss	kreativ	vertrauen	genießen	vergnügt	gütig	krise	krank	versagen	gemein	verbissen	gierig	1	blank2r.bmp	0	1	+	0	1	blank2r.bmp	500	1	CPLW	500	1	blank2r.bmp	880	1	ausrottung	880	1	!	1232	1	!	-1	0	0	0	0	0	0
2024-06-12	16:43:28	16:51:27	478168	6.6.1	4_exp_EVA_AWA_CON	87	A	B	Rpleas_acq	Same	Rpleas	2pleas	acq_US_unple_nomask	acq45_nomask	5	1	400	1	300	300	0	0	387	46	1	0	anregung	engagiert	sonnig	gesittet	träumen	besonnen	ausrottung	engstirnig	sterben	geizig	töten	bange	kuss	kreativ	vertrauen	genießen	vergnügt	gütig	krise	krank	versagen	gemein	verbissen	gierig	1	blank2r.bmp	0	1	+	0	1	blank2r.bmp	500	1	CPLW	500	1	blank2r.bmp	880	3	sterben	880	1	!	1232	1	!	1289	0	0	0	0	0	0
2024-06-12	16:43:28	16:51:29	480383	6.6.1	4_exp_EVA_AWA_CON	87	A	B	Rpleas_acq	Same	Rpleas	2pleas	acq_US_pleas_nomask	acq45_nomask	5	2	400	1	300	300	0	0	432	50	1	0	anregung	engagiert	sonnig	gesittet	träumen	besonnen	ausrottung	engstirnig	sterben	geizig	töten	bange	kuss	kreativ	vertrauen	genießen	vergnügt	gütig	krise	krank	versagen	gemein	verbissen	gierig	1	blank2r.bmp	0	1	+	0	1	blank2r.bmp	500	1	DHJF	500	1	blank2r.bmp	880	6	besonnen	880	1	!	1232	1	!	1333	0	0	0	0	0	0
2024-06-12	16:43:28	16:51:31	482552	6.6.1	4_exp_EVA_AWA_CON	87	A	B	Rpleas_acq	Same	Rpleas	2pleas	acq_US_pleas_nomask	acq45_nomask	5	3	400	1	300	300	0	0	388	50	1	0	anregung	engagiert	sonnig	gesittet	träumen	besonnen	ausrottung	engstirnig	sterben	geizig	töten	bange	kuss	kreativ	vertrauen	genießen	vergnügt	gütig	krise	krank	versagen	gemein	verbissen	gierig	1	blank2r.bmp	0	1	+	0	1	blank2r.bmp	500	1	DHJF	500	1	blank2r.bmp	880	3	sonnig	880	1	!	1232	1	!	1290	0	0	0	0	0	0
2024-06-12	16:43:28	16:51:33	484776	6.6.1	4_exp_EVA_AWA_CON	87	A	B	Rpleas_acq	Same	Rpleas	2pleas	acq_US_pleas_nomask	acq45_nomask	5	4	400	1	300	300	0	0	441	50	1	0	anregung	engagiert	sonnig	gesittet	träumen	besonnen	ausrottung	engstirnig	sterben	geizig	töten	bange	kuss	kreativ	vertrauen	genießen	vergnügt	gütig	krise	krank	versagen	gemein	verbissen	gierig	1	blank2r.bmp	0	1	+	0	1	blank2r.bmp	500	1	DHJF	500	1	blank2r.bmp	880	2	engagiert	880	1	!	1232	1	!	1342	0	0	0	0	0	0
2024-06-12	16:43:28	16:51:36	486936	6.6.1	4_exp_EVA_AWA_CON	87	A	B	Rpleas_acq	Same	Rpleas	2pleas	acq_US_unple_nomask	acq45_nomask	5	5	400	1	300	300	0	0	379	46	1	0	anregung	engagiert	sonnig	gesittet	träumen	besonnen	ausrottung	engstirnig	sterben	geizig	töten	bange	kuss	kreativ	vertrauen	genießen	vergnügt	gütig	krise	krank	versagen	gemein	verbissen	gierig	1	blank2r.bmp	0	1	+	0	1	blank2r.bmp	500	1	CPLW	500	1	blank2r.bmp	880	5	töten	880	1	!	1232	1	!	1281	0	0	0	0	0	0
2024-06-12	16:43:28	16:51:38	489214	6.6.1	4_exp_EVA_AWA_CON	87	A	B	Rpleas_acq	Same	Rpleas	2pleas	acq_US_unple_nomask	acq45_nomask	5	6	400	0	300	300	0	0	498	46	1	0	anregung	engagiert	sonnig	gesittet	träumen	besonnen	ausrottung	engstirnig	sterben	geizig	töten	bange	kuss	kreativ	vertrauen	genießen	vergnügt	gütig	krise	krank	versagen	gemein	verbissen	gierig	1	blank2r.bmp	0	1	+	0	1	blank2r.bmp	500	1	CPLW	500	1	blank2r.bmp	880	1	ausrottung	880	1	!	1232	1	!	-1	0	0	0	0	0	0
2024-06-12	16:43:28	16:51:40	491431	6.6.1	4_exp_EVA_AWA_CON	87	A	B	Rpleas_acq	Same	Rpleas	2pleas	acq_US_unple_nomask	acq45_nomask	5	7	400	1	300	300	0	0	442	46	1	0	anregung	engagiert	sonnig	gesittet	träumen	besonnen	ausrottung	engstirnig	sterben	geizig	töten	bange	kuss	kreativ	vertrauen	genießen	vergnügt	gütig	krise	krank	versagen	gemein	verbissen	gierig	1	blank2r.bmp	0	1	+	0	1	blank2r.bmp	500	1	CPLW	500	1	blank2r.bmp	880	4	geizig	880	1	!	1232	1	!	1344	0	0	0	0	0	0
2024-06-12	16:43:28	16:51:42	493600	6.6.1	4_exp_EVA_AWA_CON	87	A	B	Rpleas_acq	Same	Rpleas	2pleas	acq_US_pleas_nomask	acq45_nomask	5	8	400	1	300	300	0	0	389	50	1	0	anregung	engagiert	sonnig	gesittet	träumen	besonnen	ausrottung	engstirnig	sterben	geizig	töten	bange	kuss	kreativ	vertrauen	genießen	vergnügt	gütig	krise	krank	versagen	gemein	verbissen	gierig	1	blank2r.bmp	0	1	+	0	1	blank2r.bmp	500	1	DHJF	500	1	blank2r.bmp	880	5	träumen	880	1	!	1232	1	!	1290	0	0	0	0	0	0
2024-06-12	16:43:28	16:51:44	495744	6.6.1	4_exp_EVA_AWA_CON	87	A	B	Rpleas_acq	Same	Rpleas	2pleas	acq_US_unple_nomask	acq45_nomask	5	9	400	1	300	300	0	0	362	46	1	0	anregung	engagiert	sonnig	gesittet	träumen	besonnen	ausrottung	engstirnig	sterben	geizig	töten	bange	kuss	kreativ	vertrauen	genießen	vergnügt	gütig	krise	krank	versagen	gemein	verbissen	gierig	1	blank2r.bmp	0	1	+	0	1	blank2r.bmp	500	1	CPLW	500	1	blank2r.bmp	880	6	bange	880	1	!	1232	1	!	1263	0	0	0	0	0	0
2024-06-12	16:43:28	16:51:46	497879	6.6.1	4_exp_EVA_AWA_CON	87	A	B	Rpleas_acq	Same	Rpleas	2pleas	acq_US_pleas_nomask	acq45_nomask	5	10	400	1	300	300	0	0	356	46	0	0	anregung	engagiert	sonnig	gesittet	träumen	besonnen	ausrottung	engstirnig	sterben	geizig	töten	bange	kuss	kreativ	vertrauen	genießen	vergnügt	gütig	krise	krank	versagen	gemein	verbissen	gierig	1	blank2r.bmp	0	1	+	0	1	blank2r.bmp	500	1	DHJF	500	1	blank2r.bmp	880	4	gesittet	880	1	!	1232	1	!	1258	0	0	0	0	0	0
2024-06-12	16:43:28	16:51:49	500278	6.6.1	4_exp_EVA_AWA_CON	87	A	B	Rpleas_acq	Same	Rpleas	2pleas	acq_US_pleas_nomask	acq45_nomask	5	11	400	0	300	300	0	0	625	50	1	0	anregung	engagiert	sonnig	gesittet	träumen	besonnen	ausrottung	engstirnig	sterben	geizig	töten	bange	kuss	kreativ	vertrauen	genießen	vergnügt	gütig	krise	krank	versagen	gemein	verbissen	gierig	1	blank2r.bmp	0	1	+	0	1	blank2r.bmp	500	1	DHJF	500	1	blank2r.bmp	880	1	anregung	880	1	!	1232	1	!	-1	0	0	0	0	0	0
2024-06-12	16:43:28	16:51:51	502750	6.6.1	4_exp_EVA_AWA_CON	87	A	B	Rpleas_acq	Same	Rpleas	2pleas	acq_US_unple_nomask	acq45_nomask	5	12	400	0	300	300	0	0	695	46	1	0	anregung	engagiert	sonnig	gesittet	träumen	besonnen	ausrottung	engstirnig	sterben	geizig	töten	bange	kuss	kreativ	vertrauen	genießen	vergnügt	gütig	krise	krank	versagen	gemein	verbissen	gierig	1	blank2r.bmp	0	1	+	0	1	blank2r.bmp	500	1	CPLW	500	1	blank2r.bmp	880	2	engstirnig	880	1	!	1232	1	!	-1	0	0	0	0	0	0
2024-06-12	16:43:28	16:51:54	505030	6.6.1	4_exp_EVA_AWA_CON	87	A	B	Rpleas_acq	Same	Rpleas	2pleas	acq_US_unple_nomask	acq45_nomask	5	13	400	0	300	300	0	0	504	46	1	0	anregung	engagiert	sonnig	gesittet	träumen	besonnen	ausrottung	engstirnig	sterben	geizig	töten	bange	kuss	kreativ	vertrauen	genießen	vergnügt	gütig	krise	krank	versagen	gemein	verbissen	gierig	1	blank2r.bmp	0	1	+	0	1	blank2r.bmp	500	1	CPLW	500	1	blank2r.bmp	880	6	bange	880	1	!	1232	1	!	-1	0	0	0	0	0	0
2024-06-12	16:43:28	16:51:56	507231	6.6.1	4_exp_EVA_AWA_CON	87	A	B	Rpleas_acq	Same	Rpleas	2pleas	acq_US_unple_nomask	acq45_nomask	5	14	400	1	300	300	0	0	422	46	1	0	anregung	engagiert	sonnig	gesittet	träumen	besonnen	ausrottung	engstirnig	sterben	geizig	töten	bange	kuss	kreativ	vertrauen	genießen	vergnügt	gütig	krise	krank	versagen	gemein	verbissen	gierig	1	blank2r.bmp	0	1	+	0	1	blank2r.bmp	500	1	CPLW	500	1	blank2r.bmp	880	4	geizig	880	1	!	1232	1	!	1324	0	0	0	0	0	0
2024-06-12	16:43:28	16:51:58	509416	6.6.1	4_exp_EVA_AWA_CON	87	A	B	Rpleas_acq	Same	Rpleas	2pleas	acq_US_unple_nomask	acq45_nomask	5	15	400	1	300	300	0	0	405	46	1	0	anregung	engagiert	sonnig	gesittet	träumen	besonnen	ausrottung	engstirnig	sterben	geizig	töten	bange	kuss	kreativ	vertrauen	genießen	vergnügt	gütig	krise	krank	versagen	gemein	verbissen	gierig	1	blank2r.bmp	0	1	+	0	1	blank2r.bmp	500	1	CPLW	500	1	blank2r.bmp	880	5	töten	880	1	!	1232	1	!	1306	0	0	0	0	0	0
2024-06-12	16:43:28	16:52:00	511552	6.6.1	4_exp_EVA_AWA_CON	87	A	B	Rpleas_acq	Same	Rpleas	2pleas	acq_US_pleas_nomask	acq45_nomask	5	16	400	1	300	300	0	0	360	50	1	0	anregung	engagiert	sonnig	gesittet	träumen	besonnen	ausrottung	engstirnig	sterben	geizig	töten	bange	kuss	kreativ	vertrauen	genießen	vergnügt	gütig	krise	krank	versagen	gemein	verbissen	gierig	1	blank2r.bmp	0	1	+	0	1	blank2r.bmp	500	1	DHJF	500	1	blank2r.bmp	880	3	sonnig	880	1	!	1232	1	!	1262	0	0	0	0	0	0
2024-06-12	16:43:28	16:52:02	513696	6.6.1	4_exp_EVA_AWA_CON	87	A	B	Rpleas_acq	Same	Rpleas	2pleas	acq_US_pleas_nomask	acq45_nomask	5	17	400	1	300	300	0	0	362	50	1	0	anregung	engagiert	sonnig	gesittet	träumen	besonnen	ausrottung	engstirnig	sterben	geizig	töten	bange	kuss	kreativ	vertrauen	genießen	vergnügt	gütig	krise	krank	versagen	gemein	verbissen	gierig	1	blank2r.bmp	0	1	+	0	1	blank2r.bmp	500	1	DHJF	500	1	blank2r.bmp	880	2	engagiert	880	1	!	1232	1	!	1264	0	0	0	0	0	0
2024-06-12	16:43:28	16:52:05	515944	6.6.1	4_exp_EVA_AWA_CON	87	A	B	Rpleas_acq	Same	Rpleas	2pleas	acq_US_pleas_nomask	acq45_nomask	5	18	400	1	300	300	0	0	469	50	1	0	anregung	engagiert	sonnig	gesittet	träumen	besonnen	ausrottung	engstirnig	sterben	geizig	töten	bange	kuss	kreativ	vertrauen	genießen	vergnügt	gütig	krise	krank	versagen	gemein	verbissen	gierig	1	blank2r.bmp	0	1	+	0	1	blank2r.bmp	500	1	DHJF	500	1	blank2r.bmp	880	5	träumen	880	1	!	1232	1	!	1370	0	0	0	0	0	0
2024-06-12	16:43:28	16:52:07	518119	6.6.1	4_exp_EVA_AWA_CON	87	A	B	Rpleas_acq	Same	Rpleas	2pleas	acq_US_unple_nomask	acq45_nomask	5	19	400	1	300	300	0	0	393	46	1	0	anregung	engagiert	sonnig	gesittet	träumen	besonnen	ausrottung	engstirnig	sterben	geizig	töten	bange	kuss	kreativ	vertrauen	genießen	vergnügt	gütig	krise	krank	versagen	gemein	verbissen	gierig	1	blank2r.bmp	0	1	+	0	1	blank2r.bmp	500	1	CPLW	500	1	blank2r.bmp	880	3	sterben	880	1	!	1232	1	!	1295	0	0	0	0	0	0
2024-06-12	16:43:28	16:52:09	520390	6.6.1	4_exp_EVA_AWA_CON	87	A	B	Rpleas_acq	Same	Rpleas	2pleas	acq_US_unple_nomask	acq45_nomask	5	20	400	0	300	300	0	0	494	46	1	0	anregung	engagiert	sonnig	gesittet	träumen	besonnen	ausrottung	engstirnig	sterben	geizig	töten	bange	kuss	kreativ	vertrauen	genießen	vergnügt	gütig	krise	krank	versagen	gemein	verbissen	gierig	1	blank2r.bmp	0	1	+	0	1	blank2r.bmp	500	1	CPLW	500	1	blank2r.bmp	880	2	engstirnig	880	1	!	1232	1	!	-1	0	0	0	0	0	0
2024-06-12	16:43:28	16:52:11	522502	6.6.1	4_exp_EVA_AWA_CON	87	A	B	Rpleas_acq	Same	Rpleas	2pleas	acq_US_pleas_nomask	acq45_nomask	5	21	400	1	300	300	0	0	335	46	0	0	anregung	engagiert	sonnig	gesittet	träumen	besonnen	ausrottung	engstirnig	sterben	geizig	töten	bange	kuss	kreativ	vertrauen	genießen	vergnügt	gütig	krise	krank	versagen	gemein	verbissen	gierig	1	blank2r.bmp	0	1	+	0	1	blank2r.bmp	500	1	DHJF	500	1	blank2r.bmp	880	6	besonnen	880	1	!	1232	1	!	1234	0	0	0	0	0	0
2024-06-12	16:43:28	16:52:13	524886	6.6.1	4_exp_EVA_AWA_CON	87	A	B	Rpleas_acq	Same	Rpleas	2pleas	acq_US_pleas_nomask	acq45_nomask	5	22	400	0	300	300	0	0	607	50	1	0	anregung	engagiert	sonnig	gesittet	träumen	besonnen	ausrottung	engstirnig	sterben	geizig	töten	bange	kuss	kreativ	vertrauen	genießen	vergnügt	gütig	krise	krank	versagen	gemein	verbissen	gierig	1	blank2r.bmp	0	1	+	0	1	blank2r.bmp	500	1	DHJF	500	1	blank2r.bmp	880	1	anregung	880	1	!	1232	1	!	-1	0	0	0	0	0	0
2024-06-12	16:43:28	16:52:16	527112	6.6.1	4_exp_EVA_AWA_CON	87	A	B	Rpleas_acq	Same	Rpleas	2pleas	acq_US_unple_nomask	acq45_nomask	5	23	400	1	300	300	0	0	450	46	1	0	anregung	engagiert	sonnig	gesittet	träumen	besonnen	ausrottung	engstirnig	sterben	geizig	töten	bange	kuss	kreativ	vertrauen	genießen	vergnügt	gütig	krise	krank	versagen	gemein	verbissen	gierig	1	blank2r.bmp	0	1	+	0	1	blank2r.bmp	500	1	CPLW	500	1	blank2r.bmp	880	1	ausrottung	880	1	!	1232	1	!	1352	0	0	0	0	0	0
2024-06-12	16:43:28	16:52:18	529422	6.6.1	4_exp_EVA_AWA_CON	87	A	B	Rpleas_acq	Same	Rpleas	2pleas	acq_US_pleas_nomask	acq45_nomask	5	24	400	0	300	300	0	0	530	50	1	0	anregung	engagiert	sonnig	gesittet	träumen	besonnen	ausrottung	engstirnig	sterben	geizig	töten	bange	kuss	kreativ	vertrauen	genießen	vergnügt	gütig	krise	krank	versagen	gemein	verbissen	gierig	1	blank2r.bmp	0	1	+	0	1	blank2r.bmp	500	1	DHJF	500	1	blank2r.bmp	880	4	gesittet	880	1	!	1232	1	!	-1	0	0	0	0	0	0
2024-06-12	16:43:28	16:52:20	531676	6.6.1	4_exp_EVA_AWA_CON	87	A	B	Rpleas_acq	Same	Rpleas	2pleas	acq_US_pleas_nomask	acq45_nomask	5	25	400	0	300	300	0	0	475	50	1	0	anregung	engagiert	sonnig	gesittet	träumen	besonnen	ausrottung	engstirnig	sterben	geizig	töten	bange	kuss	kreativ	vertrauen	genießen	vergnügt	gütig	krise	krank	versagen	gemein	verbissen	gierig	1	blank2r.bmp	0	1	+	0	1	blank2r.bmp	500	1	DHJF	500	1	blank2r.bmp	880	5	träumen	880	1	!	1232	1	!	-1	0	0	0	0	0	0
2024-06-12	16:43:28	16:52:22	533735	6.6.1	4_exp_EVA_AWA_CON	87	A	B	Rpleas_acq	Same	Rpleas	2pleas	acq_US_pleas_nomask	acq45_nomask	5	26	400	0	300	300	0	0	279	50	1	0	anregung	engagiert	sonnig	gesittet	träumen	besonnen	ausrottung	engstirnig	sterben	geizig	töten	bange	kuss	kreativ	vertrauen	genießen	vergnügt	gütig	krise	krank	versagen	gemein	verbissen	gierig	1	blank2r.bmp	0	1	+	0	1	blank2r.bmp	500	1	DHJF	500	1	blank2r.bmp	880	6	besonnen	880	1	!	-1	1	!	-1	0	0	0	0	0	0
2024-06-12	16:43:28	16:52:25	536054	6.6.1	4_exp_EVA_AWA_CON	87	A	B	Rpleas_acq	Same	Rpleas	2pleas	acq_US_pleas_nomask	acq45_nomask	5	27	400	0	300	300	0	0	538	46	0	0	anregung	engagiert	sonnig	gesittet	träumen	besonnen	ausrottung	engstirnig	sterben	geizig	töten	bange	kuss	kreativ	vertrauen	genießen	vergnügt	gütig	krise	krank	versagen	gemein	verbissen	gierig	1	blank2r.bmp	0	1	+	0	1	blank2r.bmp	500	1	DHJF	500	1	blank2r.bmp	880	4	gesittet	880	1	!	1232	1	!	-1	0	0	0	0	0	0
2024-06-12	16:43:28	16:52:27	538406	6.6.1	4_exp_EVA_AWA_CON	87	A	B	Rpleas_acq	Same	Rpleas	2pleas	acq_US_pleas_nomask	acq45_nomask	5	28	400	0	300	300	0	0	579	50	1	0	anregung	engagiert	sonnig	gesittet	träumen	besonnen	ausrottung	engstirnig	sterben	geizig	töten	bange	kuss	kreativ	vertrauen	genießen	vergnügt	gütig	krise	krank	versagen	gemein	verbissen	gierig	1	blank2r.bmp	0	1	+	0	1	blank2r.bmp	500	1	DHJF	500	1	blank2r.bmp	880	2	engagiert	880	1	!	1233	1	!	-1	0	0	0	0	0	0
2024-06-12	16:43:28	16:52:29	540660	6.6.1	4_exp_EVA_AWA_CON	87	A	B	Rpleas_acq	Same	Rpleas	2pleas	acq_US_unple_nomask	acq45_nomask	5	29	400	0	300	300	0	0	483	46	1	0	anregung	engagiert	sonnig	gesittet	träumen	besonnen	ausrottung	engstirnig	sterben	geizig	töten	bange	kuss	kreativ	vertrauen	genießen	vergnügt	gütig	krise	krank	versagen	gemein	verbissen	gierig	1	blank2r.bmp	0	1	+	0	1	blank2r.bmp	500	1	CPLW	500	1	blank2r.bmp	880	4	geizig	880	1	!	1233	1	!	-1	0	0	0	0	0	0
2024-06-12	16:43:28	16:52:32	542991	6.6.1	4_exp_EVA_AWA_CON	87	A	B	Rpleas_acq	Same	Rpleas	2pleas	acq_US_unple_nomask	acq45_nomask	5	30	400	0	300	300	0	0	550	46	1	0	anregung	engagiert	sonnig	gesittet	träumen	besonnen	ausrottung	engstirnig	sterben	geizig	töten	bange	kuss	kreativ	vertrauen	genießen	vergnügt	gütig	krise	krank	versagen	gemein	verbissen	gierig	1	blank2r.bmp	0	1	+	0	1	blank2r.bmp	500	1	CPLW	500	1	blank2r.bmp	880	3	sterben	880	1	!	1233	1	!	-1	0	0	0	0	0	0
2024-06-12	16:43:28	16:52:34	545216	6.6.1	4_exp_EVA_AWA_CON	87	A	B	Rpleas_acq	Same	Rpleas	2pleas	acq_US_pleas_nomask	acq45_nomask	5	31	400	1	300	300	0	0	442	50	1	0	anregung	engagiert	sonnig	gesittet	träumen	besonnen	ausrottung	engstirnig	sterben	geizig	töten	bange	kuss	kreativ	vertrauen	genießen	vergnügt	gütig	krise	krank	versagen	gemein	verbissen	gierig	1	blank2r.bmp	0	1	+	0	1	blank2r.bmp	500	1	DHJF	500	1	blank2r.bmp	880	1	anregung	880	1	!	1232	1	!	1343	0	0	0	0	0	0
2024-06-12	16:43:28	16:52:36	547502	6.6.1	4_exp_EVA_AWA_CON	87	A	B	Rpleas_acq	Same	Rpleas	2pleas	acq_US_unple_nomask	acq45_nomask	5	32	400	0	300	300	0	0	509	50	0	0	anregung	engagiert	sonnig	gesittet	träumen	besonnen	ausrottung	engstirnig	sterben	geizig	töten	bange	kuss	kreativ	vertrauen	genießen	vergnügt	gütig	krise	krank	versagen	gemein	verbissen	gierig	1	blank2r.bmp	0	1	+	0	1	blank2r.bmp	500	1	CPLW	500	1	blank2r.bmp	880	1	ausrottung	880	1	!	1232	1	!	-1	0	0	0	0	0	0
2024-06-12	16:43:28	16:52:38	549664	6.6.1	4_exp_EVA_AWA_CON	87	A	B	Rpleas_acq	Same	Rpleas	2pleas	acq_US_unple_nomask	acq45_nomask	5	33	400	1	300	300	0	0	387	46	1	0	anregung	engagiert	sonnig	gesittet	träumen	besonnen	ausrottung	engstirnig	sterben	geizig	töten	bange	kuss	kreativ	vertrauen	genießen	vergnügt	gütig	krise	krank	versagen	gemein	verbissen	gierig	1	blank2r.bmp	0	1	+	0	1	blank2r.bmp	500	1	CPLW	500	1	blank2r.bmp	880	5	töten	880	1	!	1232	1	!	1289	0	0	0	0	0	0
2024-06-12	16:43:28	16:52:40	551888	6.6.1	4_exp_EVA_AWA_CON	87	A	B	Rpleas_acq	Same	Rpleas	2pleas	acq_US_unple_nomask	acq45_nomask	5	34	400	1	300	300	0	0	450	46	1	0	anregung	engagiert	sonnig	gesittet	träumen	besonnen	ausrottung	engstirnig	sterben	geizig	töten	bange	kuss	kreativ	vertrauen	genießen	vergnügt	gütig	krise	krank	versagen	gemein	verbissen	gierig	1	blank2r.bmp	0	1	+	0	1	blank2r.bmp	500	1	CPLW	500	1	blank2r.bmp	880	2	engstirnig	880	1	!	1233	1	!	1352	0	0	0	0	0	0
2024-06-12	16:43:28	16:52:43	554270	6.6.1	4_exp_EVA_AWA_CON	87	A	B	Rpleas_acq	Same	Rpleas	2pleas	acq_US_unple_nomask	acq45_nomask	5	35	400	0	300	300	0	0	602	46	1	0	anregung	engagiert	sonnig	gesittet	träumen	besonnen	ausrottung	engstirnig	sterben	geizig	töten	bange	kuss	kreativ	vertrauen	genießen	vergnügt	gütig	krise	krank	versagen	gemein	verbissen	gierig	1	blank2r.bmp	0	1	+	0	1	blank2r.bmp	500	1	CPLW	500	1	blank2r.bmp	880	6	bange	880	1	!	1232	1	!	-1	0	0	0	0	0	0
2024-06-12	16:43:28	16:52:45	556448	6.6.1	4_exp_EVA_AWA_CON	87	A	B	Rpleas_acq	Same	Rpleas	2pleas	acq_US_pleas_nomask	acq45_nomask	5	36	400	1	300	300	0	0	397	50	1	0	anregung	engagiert	sonnig	gesittet	träumen	besonnen	ausrottung	engstirnig	sterben	geizig	töten	bange	kuss	kreativ	vertrauen	genießen	vergnügt	gütig	krise	krank	versagen	gemein	verbissen	gierig	1	blank2r.bmp	0	1	+	0	1	blank2r.bmp	500	1	DHJF	500	1	blank2r.bmp	880	3	sonnig	880	1	!	1232	1	!	1298	0	0	0	0	0	0
2024-06-12	16:43:28	16:53:04	575819	6.6.1	4_exp_EVA_AWA_CON	87	A	B	Rpleas_acq	Same	Rpleas	2pleas	EvalRating_firsttwo	EvalRating_firsttwo	6	1	0	0	300	300	0	0	6581	line	0	-14,453125pct	anregung	engagiert	sonnig	gesittet	träumen	besonnen	ausrottung	engstirnig	sterben	geizig	töten	bange	kuss	kreativ	vertrauen	genießen	vergnügt	gütig	krise	krank	versagen	gemein	verbissen	gierig	1		-8	1	Wie angenehm oder unangenehm finden Sie die  Buchstabenkette WDLH?	-8	1		-8	1		-8	1		-8	1	Unangenehm	-8	1	Angenehm	-8	0	0	0	0	0	0	0	0	0
2024-06-12	16:43:28	16:53:10	581906	6.6.1	4_exp_EVA_AWA_CON	87	A	B	Rpleas_acq	Same	Rpleas	2pleas	EvalRating_lastfour	EvalRating_lastfour	7	1	0	0	300	300	0	0	3714	line	0	9,375pct	anregung	engagiert	sonnig	gesittet	träumen	besonnen	ausrottung	engstirnig	sterben	geizig	töten	bange	kuss	kreativ	vertrauen	genießen	vergnügt	gütig	krise	krank	versagen	gemein	verbissen	gierig	1		-8	3	Wie angenehm oder unangenehm finden Sie die  Buchstabenkette FCJP?	-8	1		-8	1		-8	1		-8	1	Unangenehm	-8	1	Angenehm	-8	0	0	0	0	0	0	0	0	0
2024-06-12	16:43:28	16:53:13	584279	6.6.1	4_exp_EVA_AWA_CON	87	A	B	Rpleas_acq	Same	Rpleas	2pleas	blank_screen	EvalRating_lastfour	7	3	0	0	300	300	0	0	0	0	0	9,375pct	anregung	engagiert	sonnig	gesittet	träumen	besonnen	ausrottung	engstirnig	sterben	geizig	töten	bange	kuss	kreativ	vertrauen	genießen	vergnügt	gütig	krise	krank	versagen	gemein	verbissen	gierig	1		-8	0	0	0	0	0	0	0	0	0	0	0	0	0	0	0	0	0	0	0	0	0	0	0	0	0	0	0
2024-06-12	16:43:28	16:53:17	588018	6.6.1	4_exp_EVA_AWA_CON	87	A	B	Rpleas_acq	Same	Rpleas	2pleas	EvalRating_lastfour	EvalRating_lastfour	7	4	0	0	300	300	0	0	3152	line	0	11,71875pct	anregung	engagiert	sonnig	gesittet	träumen	besonnen	ausrottung	engstirnig	sterben	geizig	töten	bange	kuss	kreativ	vertrauen	genießen	vergnügt	gütig	krise	krank	versagen	gemein	verbissen	gierig	1		-8	2	Wie angenehm oder unangenehm finden Sie die  Buchstabenkette DHJF?	-8	1		-8	1		-8	1		-8	1	Unangenehm	-8	1	Angenehm	-8	0	0	0	0	0	0	0	0	0
2024-06-12	16:43:28	16:53:19	590382	6.6.1	4_exp_EVA_AWA_CON	87	A	B	Rpleas_acq	Same	Rpleas	2pleas	blank_screen	EvalRating_lastfour	7	6	0	0	300	300	0	0	0	0	0	11,71875pct	anregung	engagiert	sonnig	gesittet	träumen	besonnen	ausrottung	engstirnig	sterben	geizig	töten	bange	kuss	kreativ	vertrauen	genießen	vergnügt	gütig	krise	krank	versagen	gemein	verbissen	gierig	1		-8	0	0	0	0	0	0	0	0	0	0	0	0	0	0	0	0	0	0	0	0	0	0	0	0	0	0	0
2024-06-12	16:43:28	16:53:22	593106	6.6.1	4_exp_EVA_AWA_CON	87	A	B	Rpleas_acq	Same	Rpleas	2pleas	EvalRating_lastfour	EvalRating_lastfour	7	7	0	0	300	300	0	0	2136	line	0	-4,6875pct	anregung	engagiert	sonnig	gesittet	träumen	besonnen	ausrottung	engstirnig	sterben	geizig	töten	bange	kuss	kreativ	vertrauen	genießen	vergnügt	gütig	krise	krank	versagen	gemein	verbissen	gierig	1		-8	1	Wie angenehm oder unangenehm finden Sie die  Buchstabenkette CPLW?	-8	1		-8	1		-8	1		-8	1	Unangenehm	-8	1	Angenehm	-8	0	0	0	0	0	0	0	0	0
2024-06-12	16:43:28	16:53:57	628255	6.6.1	4_exp_EVA_AWA_CON	87	A	B	Rpleas_acq	Same	Rpleas	2pleas	conawa_CS1_US6	conawa1_nomask	8	1	0	0	300	300	0	0	13644	gierig	1	-4,6875pct	anregung	engagiert	sonnig	gesittet	träumen	besonnen	ausrottung	engstirnig	sterben	geizig	töten	bange	kuss	kreativ	vertrauen	genießen	vergnügt	gütig	krise	krank	versagen	gemein	verbissen	gierig	0	0	0	0	0	0	0	0	0	0	0	0	0	0	0	0	0	0	0	0	0	0	0	0	0	0	0	0	0	0
2024-06-12	16:43:28	16:53:57	628257	6.6.1	4_exp_EVA_AWA_CON	87	A	B	Rpleas_acq	Same	Rpleas	2pleas	conawa_CS1_US6_confidence	conawa1_nomask	8	1	0	0	300	300	0	0	13644	guess	1	-4,6875pct	anregung	engagiert	sonnig	gesittet	träumen	besonnen	ausrottung	engstirnig	sterben	geizig	töten	bange	kuss	kreativ	vertrauen	genießen	vergnügt	gütig	krise	krank	versagen	gemein	verbissen	gierig	0	0	0	0	0	0	0	0	0	0	0	0	0	0	0	0	0	0	0	0	0	0	0	0	0	0	0	0	0	0
2024-06-12	16:43:28	16:54:04	635100	6.6.1	4_exp_EVA_AWA_CON	87	A	B	Rpleas_acq	Same	Rpleas	2pleas	conawa_CS1_US1	conawa1_nomask	8	2	0	0	300	300	0	0	6228	ausrottung	1	-4,6875pct	anregung	engagiert	sonnig	gesittet	träumen	besonnen	ausrottung	engstirnig	sterben	geizig	töten	bange	kuss	kreativ	vertrauen	genießen	vergnügt	gütig	krise	krank	versagen	gemein	verbissen	gierig	0	0	0	0	0	0	0	0	0	0	0	0	0	0	0	0	0	0	0	0	0	0	0	0	0	0	0	0	0	0
2024-06-12	16:43:28	16:54:04	635101	6.6.1	4_exp_EVA_AWA_CON	87	A	B	Rpleas_acq	Same	Rpleas	2pleas	conawa_CS1_US1_confidence	conawa1_nomask	8	2	0	0	300	300	0	0	6228	guess	1	-4,6875pct	anregung	engagiert	sonnig	gesittet	träumen	besonnen	ausrottung	engstirnig	sterben	geizig	töten	bange	kuss	kreativ	vertrauen	genießen	vergnügt	gütig	krise	krank	versagen	gemein	verbissen	gierig	0	0	0	0	0	0	0	0	0	0	0	0	0	0	0	0	0	0	0	0	0	0	0	0	0	0	0	0	0	0
2024-06-12	16:43:28	16:54:11	642625	6.6.1	4_exp_EVA_AWA_CON	87	A	B	Rpleas_acq	Same	Rpleas	2pleas	conawa_CS2_US5	conawa1_nomask	8	3	0	0	300	300	0	0	6902	träumen	1	-4,6875pct	anregung	engagiert	sonnig	gesittet	träumen	besonnen	ausrottung	engstirnig	sterben	geizig	töten	bange	kuss	kreativ	vertrauen	genießen	vergnügt	gütig	krise	krank	versagen	gemein	verbissen	gierig	0	0	0	0	0	0	0	0	0	0	0	0	0	0	0	0	0	0	0	0	0	0	0	0	0	0	0	0	0	0
2024-06-12	16:43:28	16:54:11	642626	6.6.1	4_exp_EVA_AWA_CON	87	A	B	Rpleas_acq	Same	Rpleas	2pleas	conawa_CS2_US5_confidence	conawa1_nomask	8	3	0	0	300	300	0	0	6902	guess	1	-4,6875pct	anregung	engagiert	sonnig	gesittet	träumen	besonnen	ausrottung	engstirnig	sterben	geizig	töten	bange	kuss	kreativ	vertrauen	genießen	vergnügt	gütig	krise	krank	versagen	gemein	verbissen	gierig	0	0	0	0	0	0	0	0	0	0	0	0	0	0	0	0	0	0	0	0	0	0	0	0	0	0	0	0	0	0
2024-06-12	16:43:28	16:54:19	650559	6.6.1	4_exp_EVA_AWA_CON	87	A	B	Rpleas_acq	Same	Rpleas	2pleas	conawa_CS1_US2	conawa1_nomask	8	4	0	0	300	300	0	0	7315	kreativ	1	-4,6875pct	anregung	engagiert	sonnig	gesittet	träumen	besonnen	ausrottung	engstirnig	sterben	geizig	töten	bange	kuss	kreativ	vertrauen	genießen	vergnügt	gütig	krise	krank	versagen	gemein	verbissen	gierig	0	0	0	0	0	0	0	0	0	0	0	0	0	0	0	0	0	0	0	0	0	0	0	0	0	0	0	0	0	0
2024-06-12	16:43:28	16:54:19	650561	6.6.1	4_exp_EVA_AWA_CON	87	A	B	Rpleas_acq	Same	Rpleas	2pleas	conawa_CS1_US2_confidence	conawa1_nomask	8	4	0	0	300	300	0	0	7315	guess	1	-4,6875pct	anregung	engagiert	sonnig	gesittet	träumen	besonnen	ausrottung	engstirnig	sterben	geizig	töten	bange	kuss	kreativ	vertrauen	genießen	vergnügt	gütig	krise	krank	versagen	gemein	verbissen	gierig	0	0	0	0	0	0	0	0	0	0	0	0	0	0	0	0	0	0	0	0	0	0	0	0	0	0	0	0	0	0
2024-06-12	16:43:28	16:54:27	658054	6.6.1	4_exp_EVA_AWA_CON	87	A	B	Rpleas_acq	Same	Rpleas	2pleas	conawa_CS1_US3	conawa1_nomask	8	5	0	0	300	300	0	0	6878	vertrauen	1	-4,6875pct	anregung	engagiert	sonnig	gesittet	träumen	besonnen	ausrottung	engstirnig	sterben	geizig	töten	bange	kuss	kreativ	vertrauen	genießen	vergnügt	gütig	krise	krank	versagen	gemein	verbissen	gierig	0	0	0	0	0	0	0	0	0	0	0	0	0	0	0	0	0	0	0	0	0	0	0	0	0	0	0	0	0	0
2024-06-12	16:43:28	16:54:27	658056	6.6.1	4_exp_EVA_AWA_CON	87	A	B	Rpleas_acq	Same	Rpleas	2pleas	conawa_CS1_US3_confidence	conawa1_nomask	8	5	0	0	300	300	0	0	6878	guess	1	-4,6875pct	anregung	engagiert	sonnig	gesittet	träumen	besonnen	ausrottung	engstirnig	sterben	geizig	töten	bange	kuss	kreativ	vertrauen	genießen	vergnügt	gütig	krise	krank	versagen	gemein	verbissen	gierig	0	0	0	0	0	0	0	0	0	0	0	0	0	0	0	0	0	0	0	0	0	0	0	0	0	0	0	0	0	0
2024-06-12	16:43:28	16:54:33	664258	6.6.1	4_exp_EVA_AWA_CON	87	A	B	Rpleas_acq	Same	Rpleas	2pleas	conawa_CS1_US4	conawa1_nomask	8	6	0	0	300	300	0	0	5590	gemein	1	-4,6875pct	anregung	engagiert	sonnig	gesittet	träumen	besonnen	ausrottung	engstirnig	sterben	geizig	töten	bange	kuss	kreativ	vertrauen	genießen	vergnügt	gütig	krise	krank	versagen	gemein	verbissen	gierig	0	0	0	0	0	0	0	0	0	0	0	0	0	0	0	0	0	0	0	0	0	0	0	0	0	0	0	0	0	0
2024-06-12	16:43:28	16:54:33	664260	6.6.1	4_exp_EVA_AWA_CON	87	A	B	Rpleas_acq	Same	Rpleas	2pleas	conawa_CS1_US4_confidence	conawa1_nomask	8	6	0	0	300	300	0	0	5590	guess	1	-4,6875pct	anregung	engagiert	sonnig	gesittet	träumen	besonnen	ausrottung	engstirnig	sterben	geizig	töten	bange	kuss	kreativ	vertrauen	genießen	vergnügt	gütig	krise	krank	versagen	gemein	verbissen	gierig	0	0	0	0	0	0	0	0	0	0	0	0	0	0	0	0	0	0	0	0	0	0	0	0	0	0	0	0	0	0
2024-06-12	16:43:28	16:54:40	671363	6.6.1	4_exp_EVA_AWA_CON	87	A	B	Rpleas_acq	Same	Rpleas	2pleas	conawa_CS1_US5	conawa1_nomask	8	7	0	0	300	300	0	0	6488	töten	1	-4,6875pct	anregung	engagiert	sonnig	gesittet	träumen	besonnen	ausrottung	engstirnig	sterben	geizig	töten	bange	kuss	kreativ	vertrauen	genießen	vergnügt	gütig	krise	krank	versagen	gemein	verbissen	gierig	0	0	0	0	0	0	0	0	0	0	0	0	0	0	0	0	0	0	0	0	0	0	0	0	0	0	0	0	0	0
2024-06-12	16:43:28	16:54:40	671364	6.6.1	4_exp_EVA_AWA_CON	87	A	B	Rpleas_acq	Same	Rpleas	2pleas	conawa_CS1_US5_confidence	conawa1_nomask	8	7	0	0	300	300	0	0	6488	guess	1	-4,6875pct	anregung	engagiert	sonnig	gesittet	träumen	besonnen	ausrottung	engstirnig	sterben	geizig	töten	bange	kuss	kreativ	vertrauen	genießen	vergnügt	gütig	krise	krank	versagen	gemein	verbissen	gierig	0	0	0	0	0	0	0	0	0	0	0	0	0	0	0	0	0	0	0	0	0	0	0	0	0	0	0	0	0	0
2024-06-12	16:43:28	16:54:47	678637	6.6.1	4_exp_EVA_AWA_CON	87	A	B	Rpleas_acq	Same	Rpleas	2pleas	conawa_CS2_US4	conawa1_nomask	8	8	0	0	300	300	0	0	6658	vergnügt	1	-4,6875pct	anregung	engagiert	sonnig	gesittet	träumen	besonnen	ausrottung	engstirnig	sterben	geizig	töten	bange	kuss	kreativ	vertrauen	genießen	vergnügt	gütig	krise	krank	versagen	gemein	verbissen	gierig	0	0	0	0	0	0	0	0	0	0	0	0	0	0	0	0	0	0	0	0	0	0	0	0	0	0	0	0	0	0
2024-06-12	16:43:28	16:54:47	678639	6.6.1	4_exp_EVA_AWA_CON	87	A	B	Rpleas_acq	Same	Rpleas	2pleas	conawa_CS2_US4_confidence	conawa1_nomask	8	8	0	0	300	300	0	0	6658	guess	1	-4,6875pct	anregung	engagiert	sonnig	gesittet	träumen	besonnen	ausrottung	engstirnig	sterben	geizig	töten	bange	kuss	kreativ	vertrauen	genießen	vergnügt	gütig	krise	krank	versagen	gemein	verbissen	gierig	0	0	0	0	0	0	0	0	0	0	0	0	0	0	0	0	0	0	0	0	0	0	0	0	0	0	0	0	0	0
2024-06-12	16:43:28	16:54:54	685622	6.6.1	4_exp_EVA_AWA_CON	87	A	B	Rpleas_acq	Same	Rpleas	2pleas	conawa_CS2_US1	conawa1_nomask	8	9	0	0	300	300	0	0	6366	anregung	1	-4,6875pct	anregung	engagiert	sonnig	gesittet	träumen	besonnen	ausrottung	engstirnig	sterben	geizig	töten	bange	kuss	kreativ	vertrauen	genießen	vergnügt	gütig	krise	krank	versagen	gemein	verbissen	gierig	0	0	0	0	0	0	0	0	0	0	0	0	0	0	0	0	0	0	0	0	0	0	0	0	0	0	0	0	0	0
2024-06-12	16:43:28	16:54:54	685623	6.6.1	4_exp_EVA_AWA_CON	87	A	B	Rpleas_acq	Same	Rpleas	2pleas	conawa_CS2_US1_confidence	conawa1_nomask	8	9	0	0	300	300	0	0	6366	guess	1	-4,6875pct	anregung	engagiert	sonnig	gesittet	träumen	besonnen	ausrottung	engstirnig	sterben	geizig	töten	bange	kuss	kreativ	vertrauen	genießen	vergnügt	gütig	krise	krank	versagen	gemein	verbissen	gierig	0	0	0	0	0	0	0	0	0	0	0	0	0	0	0	0	0	0	0	0	0	0	0	0	0	0	0	0	0	0
2024-06-12	16:43:28	16:55:02	693727	6.6.1	4_exp_EVA_AWA_CON	87	A	B	Rpleas_acq	Same	Rpleas	2pleas	conawa_CS2_US2	conawa1_nomask	8	10	0	0	300	300	0	0	7485	engagiert	1	-4,6875pct	anregung	engagiert	sonnig	gesittet	träumen	besonnen	ausrottung	engstirnig	sterben	geizig	töten	bange	kuss	kreativ	vertrauen	genießen	vergnügt	gütig	krise	krank	versagen	gemein	verbissen	gierig	0	0	0	0	0	0	0	0	0	0	0	0	0	0	0	0	0	0	0	0	0	0	0	0	0	0	0	0	0	0
2024-06-12	16:43:28	16:55:02	693729	6.6.1	4_exp_EVA_AWA_CON	87	A	B	Rpleas_acq	Same	Rpleas	2pleas	conawa_CS2_US2_confidence	conawa1_nomask	8	10	0	0	300	300	0	0	7485	guess	1	-4,6875pct	anregung	engagiert	sonnig	gesittet	träumen	besonnen	ausrottung	engstirnig	sterben	geizig	töten	bange	kuss	kreativ	vertrauen	genießen	vergnügt	gütig	krise	krank	versagen	gemein	verbissen	gierig	0	0	0	0	0	0	0	0	0	0	0	0	0	0	0	0	0	0	0	0	0	0	0	0	0	0	0	0	0	0
2024-06-12	16:43:28	16:55:08	699711	6.6.1	4_exp_EVA_AWA_CON	87	A	B	Rpleas_acq	Same	Rpleas	2pleas	conawa_CS2_US6	conawa1_nomask	8	11	0	0	300	300	0	0	5373	besonnen	1	-4,6875pct	anregung	engagiert	sonnig	gesittet	träumen	besonnen	ausrottung	engstirnig	sterben	geizig	töten	bange	kuss	kreativ	vertrauen	genießen	vergnügt	gütig	krise	krank	versagen	gemein	verbissen	gierig	0	0	0	0	0	0	0	0	0	0	0	0	0	0	0	0	0	0	0	0	0	0	0	0	0	0	0	0	0	0
2024-06-12	16:43:28	16:55:08	699716	6.6.1	4_exp_EVA_AWA_CON	87	A	B	Rpleas_acq	Same	Rpleas	2pleas	conawa_CS2_US6_confidence	conawa1_nomask	8	11	0	0	300	300	0	0	5373	guess	1	-4,6875pct	anregung	engagiert	sonnig	gesittet	träumen	besonnen	ausrottung	engstirnig	sterben	geizig	töten	bange	kuss	kreativ	vertrauen	genießen	vergnügt	gütig	krise	krank	versagen	gemein	verbissen	gierig	0	0	0	0	0	0	0	0	0	0	0	0	0	0	0	0	0	0	0	0	0	0	0	0	0	0	0	0	0	0
2024-06-12	16:43:28	16:55:12	703904	6.6.1	4_exp_EVA_AWA_CON	87	A	B	Rpleas_acq	Same	Rpleas	2pleas	conawa_CS2_US3	conawa1_nomask	8	12	0	0	300	300	0	0	3582	sonnig	1	-4,6875pct	anregung	engagiert	sonnig	gesittet	träumen	besonnen	ausrottung	engstirnig	sterben	geizig	töten	bange	kuss	kreativ	vertrauen	genießen	vergnügt	gütig	krise	krank	versagen	gemein	verbissen	gierig	0	0	0	0	0	0	0	0	0	0	0	0	0	0	0	0	0	0	0	0	0	0	0	0	0	0	0	0	0	0
2024-06-12	16:43:28	16:55:12	703905	6.6.1	4_exp_EVA_AWA_CON	87	A	B	Rpleas_acq	Same	Rpleas	2pleas	conawa_CS2_US3_confidence	conawa1_nomask	8	12	0	0	300	300	0	0	3582	guess	1	-4,6875pct	anregung	engagiert	sonnig	gesittet	träumen	besonnen	ausrottung	engstirnig	sterben	geizig	töten	bange	kuss	kreativ	vertrauen	genießen	vergnügt	gütig	krise	krank	versagen	gemein	verbissen	gierig	0	0	0	0	0	0	0	0	0	0	0	0	0	0	0	0	0	0	0	0	0	0	0	0	0	0	0	0	0	0
2024-06-12	16:43:28	16:56:02	752998	6.6.1	4_exp_EVA_AWA_CON	87	A	B	Rpleas_acq	Same	Rpleas	2pleas	cond_US_pleas_123_nomask_CS1	condtest_nomask_1	11	1	400	0	300	300	0	0	2074	50	1	-4,6875pct	anregung	engagiert	sonnig	gesittet	träumen	besonnen	ausrottung	engstirnig	sterben	geizig	töten	bange	kuss	kreativ	vertrauen	genießen	vergnügt	gütig	krise	krank	versagen	gemein	verbissen	gierig	1	blank2r.bmp	0	1	+	0	1	blank2r.bmp	500	1	CPLW	500	1	blank2r.bmp	880	2	engagiert	880	1	!	1232	1	!	-1	0	0	0	0	0	0
2024-06-12	16:43:28	16:56:04	755494	6.6.1	4_exp_EVA_AWA_CON	87	A	B	Rpleas_acq	Same	Rpleas	2pleas	cond_new_pleas_456_nomask_CS1	condtest_nomask_1	11	2	400	0	300	300	0	0	717	50	1	-4,6875pct	anregung	engagiert	sonnig	gesittet	träumen	besonnen	ausrottung	engstirnig	sterben	geizig	töten	bange	kuss	kreativ	vertrauen	genießen	vergnügt	gütig	krise	krank	versagen	gemein	verbissen	gierig	1	blank2r.bmp	0	1	+	0	1	blank2r.bmp	500	1	CPLW	500	1	blank2r.bmp	880	1	genießen	880	1	!	1232	1	!	-1	0	0	0	0	0	0
