date	time	currenttime	elapsedtime	build	currentexpt	subject	CS_AB	US_AB	LRpleas_acq	SameOppo	condition_Lpleas	condition_1pleas	trialcode	blockcode	blocknum	trialnum	windowcenter	inwindow	pretrialpause	posttrialpause	trialduration	trialtimeout	latency	response	correct	correctedscore	US_nomask_pleas1	US_nomask_pleas2	US_nomask_pleas3	US_nomask_pleas4	US_nomask_pleas5	US_nomask_pleas6	US_nomask_unple1	US_nomask_unple2	US_nomask_unple3	US_nomask_unple4	US_nomask_unple5	US_nomask_unple6	new_nomask_pleas1	new_nomask_pleas2	new_nomask_pleas3	new_nomask_pleas4	new_nomask_pleas5	new_nomask_pleas6	new_nomask_unple1	new_nomask_unple2	new_nomask_unple3	new_nomask_unple4	new_nomask_unple5	new_nomask_unple6	stimulusnumber1	stimulusitem1	stimulusonset1	stimulusnumber2	stimulusitem2	stimulusonset2	stimulusnumber3	stimulusitem3	stimulusonset3	stimulusnumber4	stimulusitem4	stimulusonset4	stimulusnumber5	stimulusitem5	stimulusonset5	stimulusnumber6	stimulusitem6	stimulusonset6	stimulusnumber7	stimulusitem7	stimulusonset7	stimulusnumber8	stimulusitem8	stimulusonset8	stimulusnumber9	stimulusitem9	stimulusonset9	stimulusnumber10	stimulusitem10	stimulusonset10
2024-05-15	09:52:59	09:55:10	130700	6.6.1	4_exp_EVA_AWA_CON	29	B	A	Rpleas_acq	Same	Rpleas	1pleas	acq_new_pleas_nomask	acq1_nomask	1	1	0	0	300	300	0	0	321	46	0	0	retten	schlau	fair	treu	ehrlich	schön	rächen	schroff	faul	tot	eitel	schlecht	freundlich	loyal	spielen	helfen	lachen	tolerant	fanatisch	lasch	strafen	hindern	leiden	tyrannisch	1	blank2r.bmp	0	1	+	0	1	blank2r.bmp	500	5	C1r.bmp	500	1	blank2r.bmp	880	2	loyal	880	1	FEHLER	1223	0	0	0	0	0	0	0	0	0
2024-05-15	09:52:59	09:55:13	133532	6.6.1	4_exp_EVA_AWA_CON	29	B	A	Rpleas_acq	Same	Rpleas	1pleas	acq_new_pleas_nomask	acq1_nomask	1	2	0	0	300	300	0	0	1543	50	1	0	retten	schlau	fair	treu	ehrlich	schön	rächen	schroff	faul	tot	eitel	schlecht	freundlich	loyal	spielen	helfen	lachen	tolerant	fanatisch	lasch	strafen	hindern	leiden	tyrannisch	1	blank2r.bmp	0	1	+	0	1	blank2r.bmp	500	7	C3r.bmp	500	1	blank2r.bmp	880	5	lachen	880	0	0	0	0	0	0	0	0	0	0	0	0
2024-05-15	09:52:59	09:55:15	135740	6.6.1	4_exp_EVA_AWA_CON	29	B	A	Rpleas_acq	Same	Rpleas	1pleas	acq_US_pleas_nomask	acq1_nomask	1	3	0	0	300	300	0	0	719	50	1	0	retten	schlau	fair	treu	ehrlich	schön	rächen	schroff	faul	tot	eitel	schlecht	freundlich	loyal	spielen	helfen	lachen	tolerant	fanatisch	lasch	strafen	hindern	leiden	tyrannisch	1	blank2r.bmp	0	1	+	0	1	blank2r.bmp	500	1	BMVZ	500	1	blank2r.bmp	880	2	schlau	880	0	0	0	0	0	0	0	0	0	0	0	0
2024-05-15	09:52:59	09:55:17	137820	6.6.1	4_exp_EVA_AWA_CON	29	B	A	Rpleas_acq	Same	Rpleas	1pleas	acq_new_unple_nomask	acq1_nomask	1	4	0	0	300	300	0	0	597	46	1	0	retten	schlau	fair	treu	ehrlich	schön	rächen	schroff	faul	tot	eitel	schlecht	freundlich	loyal	spielen	helfen	lachen	tolerant	fanatisch	lasch	strafen	hindern	leiden	tyrannisch	1	blank2r.bmp	0	1	+	0	1	blank2r.bmp	500	1	B1r.bmp	500	1	blank2r.bmp	880	3	strafen	880	0	0	0	0	0	0	0	0	0	0	0	0
2024-05-15	09:52:59	09:55:19	139948	6.6.1	4_exp_EVA_AWA_CON	29	B	A	Rpleas_acq	Same	Rpleas	1pleas	acq_US_unple_nomask	acq1_nomask	1	5	0	0	300	300	0	0	644	46	1	0	retten	schlau	fair	treu	ehrlich	schön	rächen	schroff	faul	tot	eitel	schlecht	freundlich	loyal	spielen	helfen	lachen	tolerant	fanatisch	lasch	strafen	hindern	leiden	tyrannisch	1	blank2r.bmp	0	1	+	0	1	blank2r.bmp	500	1	GKQX	500	1	blank2r.bmp	880	2	schroff	880	0	0	0	0	0	0	0	0	0	0	0	0
2024-05-15	09:52:59	09:55:21	141972	6.6.1	4_exp_EVA_AWA_CON	29	B	A	Rpleas_acq	Same	Rpleas	1pleas	acq_new_pleas_nomask	acq1_nomask	1	6	0	0	300	300	0	0	537	50	1	0	retten	schlau	fair	treu	ehrlich	schön	rächen	schroff	faul	tot	eitel	schlecht	freundlich	loyal	spielen	helfen	lachen	tolerant	fanatisch	lasch	strafen	hindern	leiden	tyrannisch	1	blank2r.bmp	0	1	+	0	1	blank2r.bmp	500	3	B3r.bmp	500	1	blank2r.bmp	880	1	freundlich	880	0	0	0	0	0	0	0	0	0	0	0	0
2024-05-15	09:52:59	09:55:24	144325	6.6.1	4_exp_EVA_AWA_CON	29	B	A	Rpleas_acq	Same	Rpleas	1pleas	acq_US_pleas_nomask	acq1_nomask	1	7	0	0	300	300	0	0	667	46	0	0	retten	schlau	fair	treu	ehrlich	schön	rächen	schroff	faul	tot	eitel	schlecht	freundlich	loyal	spielen	helfen	lachen	tolerant	fanatisch	lasch	strafen	hindern	leiden	tyrannisch	1	blank2r.bmp	0	1	+	0	1	blank2r.bmp	500	1	BMVZ	500	1	blank2r.bmp	880	3	fair	880	1	FEHLER	1569	0	0	0	0	0	0	0	0	0
2024-05-15	09:52:59	09:55:26	146300	6.6.1	4_exp_EVA_AWA_CON	29	B	A	Rpleas_acq	Same	Rpleas	1pleas	acq_new_unple_nomask	acq1_nomask	1	8	0	0	300	300	0	0	692	46	1	0	retten	schlau	fair	treu	ehrlich	schön	rächen	schroff	faul	tot	eitel	schlecht	freundlich	loyal	spielen	helfen	lachen	tolerant	fanatisch	lasch	strafen	hindern	leiden	tyrannisch	1	blank2r.bmp	0	1	+	0	1	blank2r.bmp	500	8	C4r.bmp	500	1	blank2r.bmp	880	5	leiden	880	0	0	0	0	0	0	0	0	0	0	0	0
2024-05-15	09:52:59	09:55:28	148580	6.6.1	4_exp_EVA_AWA_CON	29	B	A	Rpleas_acq	Same	Rpleas	1pleas	acq_US_unple_nomask	acq1_nomask	1	9	0	0	300	300	0	0	791	46	1	0	retten	schlau	fair	treu	ehrlich	schön	rächen	schroff	faul	tot	eitel	schlecht	freundlich	loyal	spielen	helfen	lachen	tolerant	fanatisch	lasch	strafen	hindern	leiden	tyrannisch	1	blank2r.bmp	0	1	+	0	1	blank2r.bmp	500	1	GKQX	500	1	blank2r.bmp	880	5	eitel	880	0	0	0	0	0	0	0	0	0	0	0	0
2024-05-15	09:52:59	09:55:30	150708	6.6.1	4_exp_EVA_AWA_CON	29	B	A	Rpleas_acq	Same	Rpleas	1pleas	acq_US_pleas_nomask	acq1_nomask	1	10	0	0	300	300	0	0	637	50	1	0	retten	schlau	fair	treu	ehrlich	schön	rächen	schroff	faul	tot	eitel	schlecht	freundlich	loyal	spielen	helfen	lachen	tolerant	fanatisch	lasch	strafen	hindern	leiden	tyrannisch	1	blank2r.bmp	0	1	+	0	1	blank2r.bmp	500	1	BMVZ	500	1	blank2r.bmp	880	4	treu	880	0	0	0	0	0	0	0	0	0	0	0	0
2024-05-15	09:52:59	09:55:32	152844	6.6.1	4_exp_EVA_AWA_CON	29	B	A	Rpleas_acq	Same	Rpleas	1pleas	acq_new_unple_nomask	acq1_nomask	1	11	0	0	300	300	0	0	652	46	1	0	retten	schlau	fair	treu	ehrlich	schön	rächen	schroff	faul	tot	eitel	schlecht	freundlich	loyal	spielen	helfen	lachen	tolerant	fanatisch	lasch	strafen	hindern	leiden	tyrannisch	1	blank2r.bmp	0	1	+	0	1	blank2r.bmp	500	4	B4r.bmp	500	1	blank2r.bmp	880	2	lasch	880	0	0	0	0	0	0	0	0	0	0	0	0
2024-05-15	09:52:59	09:55:34	155116	6.6.1	4_exp_EVA_AWA_CON	29	B	A	Rpleas_acq	Same	Rpleas	1pleas	acq_US_unple_nomask	acq1_nomask	1	12	0	0	300	300	0	0	783	46	1	0	retten	schlau	fair	treu	ehrlich	schön	rächen	schroff	faul	tot	eitel	schlecht	freundlich	loyal	spielen	helfen	lachen	tolerant	fanatisch	lasch	strafen	hindern	leiden	tyrannisch	1	blank2r.bmp	0	1	+	0	1	blank2r.bmp	500	1	GKQX	500	1	blank2r.bmp	880	1	rächen	880	0	0	0	0	0	0	0	0	0	0	0	0
2024-05-15	09:52:59	09:55:37	157276	6.6.1	4_exp_EVA_AWA_CON	29	B	A	Rpleas_acq	Same	Rpleas	1pleas	acq_new_pleas_nomask	acq1_nomask	1	13	0	0	300	300	0	0	671	50	1	0	retten	schlau	fair	treu	ehrlich	schön	rächen	schroff	faul	tot	eitel	schlecht	freundlich	loyal	spielen	helfen	lachen	tolerant	fanatisch	lasch	strafen	hindern	leiden	tyrannisch	1	blank2r.bmp	0	1	+	0	1	blank2r.bmp	500	6	C2r.bmp	500	1	blank2r.bmp	880	6	tolerant	880	0	0	0	0	0	0	0	0	0	0	0	0
2024-05-15	09:52:59	09:55:39	159452	6.6.1	4_exp_EVA_AWA_CON	29	B	A	Rpleas_acq	Same	Rpleas	1pleas	acq_new_unple_nomask	acq1_nomask	1	14	0	0	300	300	0	0	686	46	1	0	retten	schlau	fair	treu	ehrlich	schön	rächen	schroff	faul	tot	eitel	schlecht	freundlich	loyal	spielen	helfen	lachen	tolerant	fanatisch	lasch	strafen	hindern	leiden	tyrannisch	1	blank2r.bmp	0	1	+	0	1	blank2r.bmp	500	2	B2r.bmp	500	1	blank2r.bmp	880	1	fanatisch	880	0	0	0	0	0	0	0	0	0	0	0	0
2024-05-15	09:52:59	09:55:41	161524	6.6.1	4_exp_EVA_AWA_CON	29	B	A	Rpleas_acq	Same	Rpleas	1pleas	acq_US_pleas_nomask	acq1_nomask	1	15	0	0	300	300	0	0	586	50	1	0	retten	schlau	fair	treu	ehrlich	schön	rächen	schroff	faul	tot	eitel	schlecht	freundlich	loyal	spielen	helfen	lachen	tolerant	fanatisch	lasch	strafen	hindern	leiden	tyrannisch	1	blank2r.bmp	0	1	+	0	1	blank2r.bmp	500	1	BMVZ	500	1	blank2r.bmp	880	6	schön	880	0	0	0	0	0	0	0	0	0	0	0	0
2024-05-15	09:52:59	09:55:43	163692	6.6.1	4_exp_EVA_AWA_CON	29	B	A	Rpleas_acq	Same	Rpleas	1pleas	acq_US_unple_nomask	acq1_nomask	1	16	0	0	300	300	0	0	683	46	1	0	retten	schlau	fair	treu	ehrlich	schön	rächen	schroff	faul	tot	eitel	schlecht	freundlich	loyal	spielen	helfen	lachen	tolerant	fanatisch	lasch	strafen	hindern	leiden	tyrannisch	1	blank2r.bmp	0	1	+	0	1	blank2r.bmp	500	1	GKQX	500	1	blank2r.bmp	880	3	faul	880	0	0	0	0	0	0	0	0	0	0	0	0
2024-05-15	09:52:59	09:55:45	166124	6.6.1	4_exp_EVA_AWA_CON	29	B	A	Rpleas_acq	Same	Rpleas	1pleas	acq_new_pleas_nomask	acq1_nomask	1	17	0	0	300	300	0	0	944	50	1	0	retten	schlau	fair	treu	ehrlich	schön	rächen	schroff	faul	tot	eitel	schlecht	freundlich	loyal	spielen	helfen	lachen	tolerant	fanatisch	lasch	strafen	hindern	leiden	tyrannisch	1	blank2r.bmp	0	1	+	0	1	blank2r.bmp	500	3	B3r.bmp	500	1	blank2r.bmp	880	4	helfen	880	0	0	0	0	0	0	0	0	0	0	0	0
2024-05-15	09:52:59	09:55:48	168316	6.6.1	4_exp_EVA_AWA_CON	29	B	A	Rpleas_acq	Same	Rpleas	1pleas	acq_US_unple_nomask	acq1_nomask	1	18	0	0	300	300	0	0	704	46	1	0	retten	schlau	fair	treu	ehrlich	schön	rächen	schroff	faul	tot	eitel	schlecht	freundlich	loyal	spielen	helfen	lachen	tolerant	fanatisch	lasch	strafen	hindern	leiden	tyrannisch	1	blank2r.bmp	0	1	+	0	1	blank2r.bmp	500	1	GKQX	500	1	blank2r.bmp	880	6	schlecht	880	0	0	0	0	0	0	0	0	0	0	0	0
2024-05-15	09:52:59	09:55:49	170236	6.6.1	4_exp_EVA_AWA_CON	29	B	A	Rpleas_acq	Same	Rpleas	1pleas	acq_US_pleas_nomask	acq1_nomask	1	19	0	0	300	300	0	0	433	50	1	0	retten	schlau	fair	treu	ehrlich	schön	rächen	schroff	faul	tot	eitel	schlecht	freundlich	loyal	spielen	helfen	lachen	tolerant	fanatisch	lasch	strafen	hindern	leiden	tyrannisch	1	blank2r.bmp	0	1	+	0	1	blank2r.bmp	500	1	BMVZ	500	1	blank2r.bmp	880	5	ehrlich	880	0	0	0	0	0	0	0	0	0	0	0	0
2024-05-15	09:52:59	09:55:52	172388	6.6.1	4_exp_EVA_AWA_CON	29	B	A	Rpleas_acq	Same	Rpleas	1pleas	acq_new_unple_nomask	acq1_nomask	1	20	0	0	300	300	0	0	663	46	1	0	retten	schlau	fair	treu	ehrlich	schön	rächen	schroff	faul	tot	eitel	schlecht	freundlich	loyal	spielen	helfen	lachen	tolerant	fanatisch	lasch	strafen	hindern	leiden	tyrannisch	1	blank2r.bmp	0	1	+	0	1	blank2r.bmp	500	6	C2r.bmp	500	1	blank2r.bmp	880	6	tyrannisch	880	0	0	0	0	0	0	0	0	0	0	0	0
2024-05-15	09:52:59	09:55:54	174709	6.6.1	4_exp_EVA_AWA_CON	29	B	A	Rpleas_acq	Same	Rpleas	1pleas	acq_US_unple_nomask	acq1_nomask	1	21	0	0	300	300	0	0	632	50	0	0	retten	schlau	fair	treu	ehrlich	schön	rächen	schroff	faul	tot	eitel	schlecht	freundlich	loyal	spielen	helfen	lachen	tolerant	fanatisch	lasch	strafen	hindern	leiden	tyrannisch	1	blank2r.bmp	0	1	+	0	1	blank2r.bmp	500	1	GKQX	500	1	blank2r.bmp	880	4	tot	880	1	FEHLER	1534	0	0	0	0	0	0	0	0	0
2024-05-15	09:52:59	09:55:56	176812	6.6.1	4_exp_EVA_AWA_CON	29	B	A	Rpleas_acq	Same	Rpleas	1pleas	acq_new_unple_nomask	acq1_nomask	1	22	0	0	300	300	0	0	815	46	1	0	retten	schlau	fair	treu	ehrlich	schön	rächen	schroff	faul	tot	eitel	schlecht	freundlich	loyal	spielen	helfen	lachen	tolerant	fanatisch	lasch	strafen	hindern	leiden	tyrannisch	1	blank2r.bmp	0	1	+	0	1	blank2r.bmp	500	5	C1r.bmp	500	1	blank2r.bmp	880	4	hindern	880	0	0	0	0	0	0	0	0	0	0	0	0
2024-05-15	09:52:59	09:55:58	178820	6.6.1	4_exp_EVA_AWA_CON	29	B	A	Rpleas_acq	Same	Rpleas	1pleas	acq_US_pleas_nomask	acq1_nomask	1	23	0	0	300	300	0	0	521	50	1	0	retten	schlau	fair	treu	ehrlich	schön	rächen	schroff	faul	tot	eitel	schlecht	freundlich	loyal	spielen	helfen	lachen	tolerant	fanatisch	lasch	strafen	hindern	leiden	tyrannisch	1	blank2r.bmp	0	1	+	0	1	blank2r.bmp	500	1	BMVZ	500	1	blank2r.bmp	880	1	retten	880	0	0	0	0	0	0	0	0	0	0	0	0
2024-05-15	09:52:59	09:56:00	180932	6.6.1	4_exp_EVA_AWA_CON	29	B	A	Rpleas_acq	Same	Rpleas	1pleas	acq_new_pleas_nomask	acq1_nomask	1	24	0	0	300	300	0	0	622	50	1	0	retten	schlau	fair	treu	ehrlich	schön	rächen	schroff	faul	tot	eitel	schlecht	freundlich	loyal	spielen	helfen	lachen	tolerant	fanatisch	lasch	strafen	hindern	leiden	tyrannisch	1	blank2r.bmp	0	1	+	0	1	blank2r.bmp	500	4	B4r.bmp	500	1	blank2r.bmp	880	3	spielen	880	0	0	0	0	0	0	0	0	0	0	0	0
2024-05-15	09:52:59	09:56:02	182884	6.6.1	4_exp_EVA_AWA_CON	29	B	A	Rpleas_acq	Same	Rpleas	1pleas	acq_new_unple_nomask	acq1_nomask	1	25	0	0	300	300	0	0	463	46	1	0	retten	schlau	fair	treu	ehrlich	schön	rächen	schroff	faul	tot	eitel	schlecht	freundlich	loyal	spielen	helfen	lachen	tolerant	fanatisch	lasch	strafen	hindern	leiden	tyrannisch	1	blank2r.bmp	0	1	+	0	1	blank2r.bmp	500	2	B2r.bmp	500	1	blank2r.bmp	880	5	leiden	880	0	0	0	0	0	0	0	0	0	0	0	0
2024-05-15	09:52:59	09:56:05	185276	6.6.1	4_exp_EVA_AWA_CON	29	B	A	Rpleas_acq	Same	Rpleas	1pleas	acq_new_unple_nomask	acq1_nomask	1	26	0	0	300	300	0	0	903	46	1	0	retten	schlau	fair	treu	ehrlich	schön	rächen	schroff	faul	tot	eitel	schlecht	freundlich	loyal	spielen	helfen	lachen	tolerant	fanatisch	lasch	strafen	hindern	leiden	tyrannisch	1	blank2r.bmp	0	1	+	0	1	blank2r.bmp	500	8	C4r.bmp	500	1	blank2r.bmp	880	6	tyrannisch	880	0	0	0	0	0	0	0	0	0	0	0	0
2024-05-15	09:52:59	09:56:07	187492	6.6.1	4_exp_EVA_AWA_CON	29	B	A	Rpleas_acq	Same	Rpleas	1pleas	acq_new_pleas_nomask	acq1_nomask	1	27	0	0	300	300	0	0	728	50	1	0	retten	schlau	fair	treu	ehrlich	schön	rächen	schroff	faul	tot	eitel	schlecht	freundlich	loyal	spielen	helfen	lachen	tolerant	fanatisch	lasch	strafen	hindern	leiden	tyrannisch	1	blank2r.bmp	0	1	+	0	1	blank2r.bmp	500	1	B1r.bmp	500	1	blank2r.bmp	880	2	loyal	880	0	0	0	0	0	0	0	0	0	0	0	0
2024-05-15	09:52:59	09:56:09	189508	6.6.1	4_exp_EVA_AWA_CON	29	B	A	Rpleas_acq	Same	Rpleas	1pleas	acq_US_unple_nomask	acq1_nomask	1	28	0	0	300	300	0	0	532	46	1	0	retten	schlau	fair	treu	ehrlich	schön	rächen	schroff	faul	tot	eitel	schlecht	freundlich	loyal	spielen	helfen	lachen	tolerant	fanatisch	lasch	strafen	hindern	leiden	tyrannisch	1	blank2r.bmp	0	1	+	0	1	blank2r.bmp	500	1	GKQX	500	1	blank2r.bmp	880	4	tot	880	0	0	0	0	0	0	0	0	0	0	0	0
2024-05-15	09:52:59	09:56:11	191828	6.6.1	4_exp_EVA_AWA_CON	29	B	A	Rpleas_acq	Same	Rpleas	1pleas	acq_US_pleas_nomask	acq1_nomask	1	29	0	0	300	300	0	0	831	50	1	0	retten	schlau	fair	treu	ehrlich	schön	rächen	schroff	faul	tot	eitel	schlecht	freundlich	loyal	spielen	helfen	lachen	tolerant	fanatisch	lasch	strafen	hindern	leiden	tyrannisch	1	blank2r.bmp	0	1	+	0	1	blank2r.bmp	500	1	BMVZ	500	1	blank2r.bmp	880	2	schlau	880	0	0	0	0	0	0	0	0	0	0	0	0
2024-05-15	09:52:59	09:56:13	194012	6.6.1	4_exp_EVA_AWA_CON	29	B	A	Rpleas_acq	Same	Rpleas	1pleas	acq_US_pleas_nomask	acq1_nomask	1	30	0	0	300	300	0	0	694	50	1	0	retten	schlau	fair	treu	ehrlich	schön	rächen	schroff	faul	tot	eitel	schlecht	freundlich	loyal	spielen	helfen	lachen	tolerant	fanatisch	lasch	strafen	hindern	leiden	tyrannisch	1	blank2r.bmp	0	1	+	0	1	blank2r.bmp	500	1	BMVZ	500	1	blank2r.bmp	880	5	ehrlich	880	0	0	0	0	0	0	0	0	0	0	0	0
2024-05-15	09:52:59	09:56:15	195972	6.6.1	4_exp_EVA_AWA_CON	29	B	A	Rpleas_acq	Same	Rpleas	1pleas	acq_US_unple_nomask	acq1_nomask	1	31	0	0	300	300	0	0	472	46	1	0	retten	schlau	fair	treu	ehrlich	schön	rächen	schroff	faul	tot	eitel	schlecht	freundlich	loyal	spielen	helfen	lachen	tolerant	fanatisch	lasch	strafen	hindern	leiden	tyrannisch	1	blank2r.bmp	0	1	+	0	1	blank2r.bmp	500	1	GKQX	500	1	blank2r.bmp	880	1	rächen	880	0	0	0	0	0	0	0	0	0	0	0	0
2024-05-15	09:52:59	09:56:17	197916	6.6.1	4_exp_EVA_AWA_CON	29	B	A	Rpleas_acq	Same	Rpleas	1pleas	acq_new_pleas_nomask	acq1_nomask	1	32	0	0	300	300	0	0	455	50	1	0	retten	schlau	fair	treu	ehrlich	schön	rächen	schroff	faul	tot	eitel	schlecht	freundlich	loyal	spielen	helfen	lachen	tolerant	fanatisch	lasch	strafen	hindern	leiden	tyrannisch	1	blank2r.bmp	0	1	+	0	1	blank2r.bmp	500	7	C3r.bmp	500	1	blank2r.bmp	880	1	freundlich	880	0	0	0	0	0	0	0	0	0	0	0	0
2024-05-15	09:52:59	09:56:19	199948	6.6.1	4_exp_EVA_AWA_CON	29	B	A	Rpleas_acq	Same	Rpleas	1pleas	acq_US_pleas_nomask	acq1_nomask	1	33	0	0	300	300	0	0	546	50	1	0	retten	schlau	fair	treu	ehrlich	schön	rächen	schroff	faul	tot	eitel	schlecht	freundlich	loyal	spielen	helfen	lachen	tolerant	fanatisch	lasch	strafen	hindern	leiden	tyrannisch	1	blank2r.bmp	0	1	+	0	1	blank2r.bmp	500	1	BMVZ	500	1	blank2r.bmp	880	4	treu	880	0	0	0	0	0	0	0	0	0	0	0	0
2024-05-15	09:52:59	09:56:21	202012	6.6.1	4_exp_EVA_AWA_CON	29	B	A	Rpleas_acq	Same	Rpleas	1pleas	acq_new_pleas_nomask	acq1_nomask	1	34	0	0	300	300	0	0	578	50	1	0	retten	schlau	fair	treu	ehrlich	schön	rächen	schroff	faul	tot	eitel	schlecht	freundlich	loyal	spielen	helfen	lachen	tolerant	fanatisch	lasch	strafen	hindern	leiden	tyrannisch	1	blank2r.bmp	0	1	+	0	1	blank2r.bmp	500	5	C1r.bmp	500	1	blank2r.bmp	880	3	spielen	880	0	0	0	0	0	0	0	0	0	0	0	0
2024-05-15	09:52:59	09:56:23	204028	6.6.1	4_exp_EVA_AWA_CON	29	B	A	Rpleas_acq	Same	Rpleas	1pleas	acq_new_unple_nomask	acq1_nomask	1	35	0	0	300	300	0	0	533	46	1	0	retten	schlau	fair	treu	ehrlich	schön	rächen	schroff	faul	tot	eitel	schlecht	freundlich	loyal	spielen	helfen	lachen	tolerant	fanatisch	lasch	strafen	hindern	leiden	tyrannisch	1	blank2r.bmp	0	1	+	0	1	blank2r.bmp	500	3	B3r.bmp	500	1	blank2r.bmp	880	2	lasch	880	0	0	0	0	0	0	0	0	0	0	0	0
2024-05-15	09:52:59	09:56:25	206198	6.6.1	4_exp_EVA_AWA_CON	29	B	A	Rpleas_acq	Same	Rpleas	1pleas	acq_US_unple_nomask	acq1_nomask	1	36	0	0	300	300	0	0	480	50	0	0	retten	schlau	fair	treu	ehrlich	schön	rächen	schroff	faul	tot	eitel	schlecht	freundlich	loyal	spielen	helfen	lachen	tolerant	fanatisch	lasch	strafen	hindern	leiden	tyrannisch	1	blank2r.bmp	0	1	+	0	1	blank2r.bmp	500	1	GKQX	500	1	blank2r.bmp	880	3	faul	880	1	FEHLER	1382	0	0	0	0	0	0	0	0	0
2024-05-15	09:52:59	09:57:08	248750	6.6.1	4_exp_EVA_AWA_CON	29	B	A	Rpleas_acq	Same	Rpleas	1pleas	acq_new_pleas_nomask	acq2_nomask	2	1	480	0	300	300	0	0	927	50	1	0	retten	schlau	fair	treu	ehrlich	schön	rächen	schroff	faul	tot	eitel	schlecht	freundlich	loyal	spielen	helfen	lachen	tolerant	fanatisch	lasch	strafen	hindern	leiden	tyrannisch	1	blank2r.bmp	0	1	+	0	1	blank2r.bmp	500	7	C3r.bmp	500	1	blank2r.bmp	880	5	lachen	880	1	!	1313	1	!	-1	0	0	0	0	0	0
2024-05-15	09:52:59	09:57:10	251150	6.6.1	4_exp_EVA_AWA_CON	29	B	A	Rpleas_acq	Same	Rpleas	1pleas	acq_US_pleas_nomask	acq2_nomask	2	2	480	0	300	300	0	0	625	50	1	0	retten	schlau	fair	treu	ehrlich	schön	rächen	schroff	faul	tot	eitel	schlecht	freundlich	loyal	spielen	helfen	lachen	tolerant	fanatisch	lasch	strafen	hindern	leiden	tyrannisch	1	blank2r.bmp	0	1	+	0	1	blank2r.bmp	500	1	BMVZ	500	1	blank2r.bmp	880	6	schön	880	1	!	1313	1	!	-1	0	0	0	0	0	0
2024-05-15	09:52:59	09:57:13	253663	6.6.1	4_exp_EVA_AWA_CON	29	B	A	Rpleas_acq	Same	Rpleas	1pleas	acq_US_pleas_nomask	acq2_nomask	2	3	480	0	300	300	0	0	727	50	1	0	retten	schlau	fair	treu	ehrlich	schön	rächen	schroff	faul	tot	eitel	schlecht	freundlich	loyal	spielen	helfen	lachen	tolerant	fanatisch	lasch	strafen	hindern	leiden	tyrannisch	1	blank2r.bmp	0	1	+	0	1	blank2r.bmp	500	1	BMVZ	500	1	blank2r.bmp	880	1	retten	880	1	!	1328	1	!	-1	0	0	0	0	0	0
2024-05-15	09:52:59	09:57:15	256037	6.6.1	4_exp_EVA_AWA_CON	29	B	A	Rpleas_acq	Same	Rpleas	1pleas	acq_US_unple_nomask	acq2_nomask	2	4	480	0	300	300	0	0	584	46	1	0	retten	schlau	fair	treu	ehrlich	schön	rächen	schroff	faul	tot	eitel	schlecht	freundlich	loyal	spielen	helfen	lachen	tolerant	fanatisch	lasch	strafen	hindern	leiden	tyrannisch	1	blank2r.bmp	0	1	+	0	1	blank2r.bmp	500	1	GKQX	500	1	blank2r.bmp	880	2	schroff	880	1	!	1329	1	!	-1	0	0	0	0	0	0
2024-05-15	09:52:59	09:57:18	258673	6.6.1	4_exp_EVA_AWA_CON	29	B	A	Rpleas_acq	Same	Rpleas	1pleas	acq_US_pleas_nomask	acq2_nomask	2	5	480	0	300	300	0	0	650	46	0	0	retten	schlau	fair	treu	ehrlich	schön	rächen	schroff	faul	tot	eitel	schlecht	freundlich	loyal	spielen	helfen	lachen	tolerant	fanatisch	lasch	strafen	hindern	leiden	tyrannisch	1	blank2r.bmp	0	1	+	0	1	blank2r.bmp	506	1	BMVZ	506	1	blank2r.bmp	880	3	fair	880	1	FEHLER	1844	1	!	1314	1	!	-1	0	0	0
2024-05-15	09:52:59	09:57:21	261454	6.6.1	4_exp_EVA_AWA_CON	29	B	A	Rpleas_acq	Same	Rpleas	1pleas	acq_new_unple_nomask	acq2_nomask	2	6	480	0	300	300	0	0	1203	46	1	0	retten	schlau	fair	treu	ehrlich	schön	rächen	schroff	faul	tot	eitel	schlecht	freundlich	loyal	spielen	helfen	lachen	tolerant	fanatisch	lasch	strafen	hindern	leiden	tyrannisch	1	blank2r.bmp	0	1	+	0	1	blank2r.bmp	500	1	B1r.bmp	500	1	blank2r.bmp	880	1	fanatisch	880	1	!	1313	1	!	-1	0	0	0	0	0	0
2024-05-15	09:52:59	09:57:23	264073	6.6.1	4_exp_EVA_AWA_CON	29	B	A	Rpleas_acq	Same	Rpleas	1pleas	acq_US_unple_nomask	acq2_nomask	2	7	480	0	300	300	0	0	637	50	0	0	retten	schlau	fair	treu	ehrlich	schön	rächen	schroff	faul	tot	eitel	schlecht	freundlich	loyal	spielen	helfen	lachen	tolerant	fanatisch	lasch	strafen	hindern	leiden	tyrannisch	1	blank2r.bmp	0	1	+	0	1	blank2r.bmp	500	1	GKQX	500	1	blank2r.bmp	880	6	schlecht	880	1	FEHLER	1830	1	!	1313	1	!	-1	0	0	0
2024-05-15	09:52:59	09:57:25	266183	6.6.1	4_exp_EVA_AWA_CON	29	B	A	Rpleas_acq	Same	Rpleas	1pleas	acq_new_unple_nomask	acq2_nomask	2	8	480	1	300	300	0	0	537	46	1	0	retten	schlau	fair	treu	ehrlich	schön	rächen	schroff	faul	tot	eitel	schlecht	freundlich	loyal	spielen	helfen	lachen	tolerant	fanatisch	lasch	strafen	hindern	leiden	tyrannisch	1	blank2r.bmp	0	1	+	0	1	blank2r.bmp	500	8	C4r.bmp	500	1	blank2r.bmp	880	3	strafen	880	1	!	1313	1	!	1439	0	0	0	0	0	0
2024-05-15	09:52:59	09:57:28	268529	6.6.1	4_exp_EVA_AWA_CON	29	B	A	Rpleas_acq	Same	Rpleas	1pleas	acq_new_unple_nomask	acq2_nomask	2	9	480	0	300	300	0	0	370	50	0	0	retten	schlau	fair	treu	ehrlich	schön	rächen	schroff	faul	tot	eitel	schlecht	freundlich	loyal	spielen	helfen	lachen	tolerant	fanatisch	lasch	strafen	hindern	leiden	tyrannisch	1	blank2r.bmp	0	1	+	0	1	blank2r.bmp	500	6	C2r.bmp	500	1	blank2r.bmp	880	4	hindern	880	1	FEHLER	1564	1	!	-1	1	!	-1	0	0	0
2024-05-15	09:52:59	09:57:30	270591	6.6.1	4_exp_EVA_AWA_CON	29	B	A	Rpleas_acq	Same	Rpleas	1pleas	acq_new_pleas_nomask	acq2_nomask	2	10	480	1	300	300	0	0	482	50	1	0	retten	schlau	fair	treu	ehrlich	schön	rächen	schroff	faul	tot	eitel	schlecht	freundlich	loyal	spielen	helfen	lachen	tolerant	fanatisch	lasch	strafen	hindern	leiden	tyrannisch	1	blank2r.bmp	0	1	+	0	1	blank2r.bmp	500	2	B2r.bmp	500	1	blank2r.bmp	880	4	helfen	880	1	!	1313	1	!	1384	0	0	0	0	0	0
2024-05-15	09:52:59	09:57:32	272782	6.6.1	4_exp_EVA_AWA_CON	29	B	A	Rpleas_acq	Same	Rpleas	1pleas	acq_new_pleas_nomask	acq2_nomask	2	11	480	1	300	300	0	0	414	50	1	0	retten	schlau	fair	treu	ehrlich	schön	rächen	schroff	faul	tot	eitel	schlecht	freundlich	loyal	spielen	helfen	lachen	tolerant	fanatisch	lasch	strafen	hindern	leiden	tyrannisch	1	blank2r.bmp	0	1	+	0	1	blank2r.bmp	500	4	B4r.bmp	500	1	blank2r.bmp	880	6	tolerant	880	1	!	1313	1	!	1313	0	0	0	0	0	0
2024-05-15	09:52:59	09:57:34	274958	6.6.1	4_exp_EVA_AWA_CON	29	B	A	Rpleas_acq	Same	Rpleas	1pleas	acq_US_unple_nomask	acq2_nomask	2	12	480	0	300	300	0	0	398	46	1	0	retten	schlau	fair	treu	ehrlich	schön	rächen	schroff	faul	tot	eitel	schlecht	freundlich	loyal	spielen	helfen	lachen	tolerant	fanatisch	lasch	strafen	hindern	leiden	tyrannisch	1	blank2r.bmp	0	1	+	0	1	blank2r.bmp	500	1	GKQX	500	1	blank2r.bmp	880	5	eitel	880	1	!	-1	1	!	-1	0	0	0	0	0	0
2024-05-15	09:52:59	09:57:36	277215	6.6.1	4_exp_EVA_AWA_CON	29	B	A	Rpleas_acq	Same	Rpleas	1pleas	acq_new_pleas_nomask	acq2_nomask	2	13	480	1	300	300	0	0	482	50	1	0	retten	schlau	fair	treu	ehrlich	schön	rächen	schroff	faul	tot	eitel	schlecht	freundlich	loyal	spielen	helfen	lachen	tolerant	fanatisch	lasch	strafen	hindern	leiden	tyrannisch	1	blank2r.bmp	0	1	+	0	1	blank2r.bmp	500	2	B2r.bmp	500	1	blank2r.bmp	880	3	spielen	880	1	!	1313	1	!	1383	0	0	0	0	0	0
2024-05-15	09:52:59	09:57:38	279166	6.6.1	4_exp_EVA_AWA_CON	29	B	A	Rpleas_acq	Same	Rpleas	1pleas	acq_US_unple_nomask	acq2_nomask	2	14	480	0	300	300	0	0	173	46	1	0	retten	schlau	fair	treu	ehrlich	schön	rächen	schroff	faul	tot	eitel	schlecht	freundlich	loyal	spielen	helfen	lachen	tolerant	fanatisch	lasch	strafen	hindern	leiden	tyrannisch	1	blank2r.bmp	0	1	+	0	1	blank2r.bmp	500	1	GKQX	500	1	blank2r.bmp	880	2	schroff	880	1	!	-1	1	!	-1	0	0	0	0	0	0
2024-05-15	09:52:59	09:57:41	281447	6.6.1	4_exp_EVA_AWA_CON	29	B	A	Rpleas_acq	Same	Rpleas	1pleas	acq_new_pleas_nomask	acq2_nomask	2	15	480	1	300	300	0	0	501	50	1	0	retten	schlau	fair	treu	ehrlich	schön	rächen	schroff	faul	tot	eitel	schlecht	freundlich	loyal	spielen	helfen	lachen	tolerant	fanatisch	lasch	strafen	hindern	leiden	tyrannisch	1	blank2r.bmp	0	1	+	0	1	blank2r.bmp	500	6	C2r.bmp	500	1	blank2r.bmp	880	5	lachen	880	1	!	1312	1	!	1403	0	0	0	0	0	0
2024-05-15	09:52:59	09:57:43	283728	6.6.1	4_exp_EVA_AWA_CON	29	B	A	Rpleas_acq	Same	Rpleas	1pleas	acq_US_unple_nomask	acq2_nomask	2	16	480	1	300	300	0	0	500	46	1	0	retten	schlau	fair	treu	ehrlich	schön	rächen	schroff	faul	tot	eitel	schlecht	freundlich	loyal	spielen	helfen	lachen	tolerant	fanatisch	lasch	strafen	hindern	leiden	tyrannisch	1	blank2r.bmp	0	1	+	0	1	blank2r.bmp	500	1	GKQX	500	1	blank2r.bmp	880	5	eitel	880	1	!	1312	1	!	1402	0	0	0	0	0	0
2024-05-15	09:52:59	09:57:45	285951	6.6.1	4_exp_EVA_AWA_CON	29	B	A	Rpleas_acq	Same	Rpleas	1pleas	acq_US_pleas_nomask	acq2_nomask	2	17	480	1	300	300	0	0	443	50	1	0	retten	schlau	fair	treu	ehrlich	schön	rächen	schroff	faul	tot	eitel	schlecht	freundlich	loyal	spielen	helfen	lachen	tolerant	fanatisch	lasch	strafen	hindern	leiden	tyrannisch	1	blank2r.bmp	0	1	+	0	1	blank2r.bmp	500	1	BMVZ	500	1	blank2r.bmp	880	2	schlau	880	1	!	1312	1	!	1344	0	0	0	0	0	0
2024-05-15	09:52:59	09:57:48	288247	6.6.1	4_exp_EVA_AWA_CON	29	B	A	Rpleas_acq	Same	Rpleas	1pleas	acq_new_pleas_nomask	acq2_nomask	2	18	480	1	300	300	0	0	517	50	1	0	retten	schlau	fair	treu	ehrlich	schön	rächen	schroff	faul	tot	eitel	schlecht	freundlich	loyal	spielen	helfen	lachen	tolerant	fanatisch	lasch	strafen	hindern	leiden	tyrannisch	1	blank2r.bmp	0	1	+	0	1	blank2r.bmp	500	8	C4r.bmp	500	1	blank2r.bmp	880	4	helfen	880	1	!	1313	1	!	1418	0	0	0	0	0	0
2024-05-15	09:52:59	09:57:50	290665	6.6.1	4_exp_EVA_AWA_CON	29	B	A	Rpleas_acq	Same	Rpleas	1pleas	acq_US_pleas_nomask	acq2_nomask	2	19	480	1	300	300	0	0	442	46	0	0	retten	schlau	fair	treu	ehrlich	schön	rächen	schroff	faul	tot	eitel	schlecht	freundlich	loyal	spielen	helfen	lachen	tolerant	fanatisch	lasch	strafen	hindern	leiden	tyrannisch	1	blank2r.bmp	0	1	+	0	1	blank2r.bmp	500	1	BMVZ	500	1	blank2r.bmp	880	3	fair	880	1	FEHLER	1635	1	!	1313	1	!	1343	0	0	0
2024-05-15	09:52:59	09:57:52	292796	6.6.1	4_exp_EVA_AWA_CON	29	B	A	Rpleas_acq	Same	Rpleas	1pleas	acq_new_unple_nomask	acq2_nomask	2	20	480	0	300	300	0	0	556	46	1	0	retten	schlau	fair	treu	ehrlich	schön	rächen	schroff	faul	tot	eitel	schlecht	freundlich	loyal	spielen	helfen	lachen	tolerant	fanatisch	lasch	strafen	hindern	leiden	tyrannisch	1	blank2r.bmp	0	1	+	0	1	blank2r.bmp	500	1	B1r.bmp	500	1	blank2r.bmp	880	3	strafen	880	1	!	1313	1	!	-1	0	0	0	0	0	0
2024-05-15	09:52:59	09:57:54	295016	6.6.1	4_exp_EVA_AWA_CON	29	B	A	Rpleas_acq	Same	Rpleas	1pleas	acq_new_unple_nomask	acq2_nomask	2	21	480	1	300	300	0	0	441	46	1	0	retten	schlau	fair	treu	ehrlich	schön	rächen	schroff	faul	tot	eitel	schlecht	freundlich	loyal	spielen	helfen	lachen	tolerant	fanatisch	lasch	strafen	hindern	leiden	tyrannisch	1	blank2r.bmp	0	1	+	0	1	blank2r.bmp	500	4	B4r.bmp	500	1	blank2r.bmp	880	5	leiden	880	1	!	1312	1	!	1342	0	0	0	0	0	0
2024-05-15	09:52:59	09:57:56	297214	6.6.1	4_exp_EVA_AWA_CON	29	B	A	Rpleas_acq	Same	Rpleas	1pleas	acq_new_unple_nomask	acq2_nomask	2	22	480	1	300	300	0	0	419	46	1	0	retten	schlau	fair	treu	ehrlich	schön	rächen	schroff	faul	tot	eitel	schlecht	freundlich	loyal	spielen	helfen	lachen	tolerant	fanatisch	lasch	strafen	hindern	leiden	tyrannisch	1	blank2r.bmp	0	1	+	0	1	blank2r.bmp	500	7	C3r.bmp	500	1	blank2r.bmp	880	4	hindern	880	1	!	1313	1	!	1319	0	0	0	0	0	0
2024-05-15	09:52:59	09:57:59	299581	6.6.1	4_exp_EVA_AWA_CON	29	B	A	Rpleas_acq	Same	Rpleas	1pleas	acq_US_unple_nomask	acq2_nomask	2	23	480	0	300	300	0	0	596	46	1	0	retten	schlau	fair	treu	ehrlich	schön	rächen	schroff	faul	tot	eitel	schlecht	freundlich	loyal	spielen	helfen	lachen	tolerant	fanatisch	lasch	strafen	hindern	leiden	tyrannisch	1	blank2r.bmp	0	1	+	0	1	blank2r.bmp	500	1	GKQX	500	1	blank2r.bmp	880	1	rächen	880	1	!	1313	1	!	-1	0	0	0	0	0	0
2024-05-15	09:52:59	09:58:01	301726	6.6.1	4_exp_EVA_AWA_CON	29	B	A	Rpleas_acq	Same	Rpleas	1pleas	acq_US_pleas_nomask	acq2_nomask	2	24	480	0	300	300	0	0	368	50	1	0	retten	schlau	fair	treu	ehrlich	schön	rächen	schroff	faul	tot	eitel	schlecht	freundlich	loyal	spielen	helfen	lachen	tolerant	fanatisch	lasch	strafen	hindern	leiden	tyrannisch	1	blank2r.bmp	0	1	+	0	1	blank2r.bmp	500	1	BMVZ	500	1	blank2r.bmp	880	1	retten	880	1	!	-1	1	!	-1	0	0	0	0	0	0
2024-05-15	09:52:59	09:58:03	304125	6.6.1	4_exp_EVA_AWA_CON	29	B	A	Rpleas_acq	Same	Rpleas	1pleas	acq_new_pleas_nomask	acq2_nomask	2	25	480	0	300	300	0	0	627	50	1	0	retten	schlau	fair	treu	ehrlich	schön	rächen	schroff	faul	tot	eitel	schlecht	freundlich	loyal	spielen	helfen	lachen	tolerant	fanatisch	lasch	strafen	hindern	leiden	tyrannisch	1	blank2r.bmp	0	1	+	0	1	blank2r.bmp	500	5	C1r.bmp	500	1	blank2r.bmp	880	1	freundlich	880	1	!	1313	1	!	-1	0	0	0	0	0	0
2024-05-15	09:52:59	09:58:06	306254	6.6.1	4_exp_EVA_AWA_CON	29	B	A	Rpleas_acq	Same	Rpleas	1pleas	acq_US_unple_nomask	acq2_nomask	2	26	480	0	300	300	0	0	353	46	1	0	retten	schlau	fair	treu	ehrlich	schön	rächen	schroff	faul	tot	eitel	schlecht	freundlich	loyal	spielen	helfen	lachen	tolerant	fanatisch	lasch	strafen	hindern	leiden	tyrannisch	1	blank2r.bmp	0	1	+	0	1	blank2r.bmp	500	1	GKQX	500	1	blank2r.bmp	880	3	faul	880	1	!	-1	1	!	-1	0	0	0	0	0	0
2024-05-15	09:52:59	09:58:08	308806	6.6.1	4_exp_EVA_AWA_CON	29	B	A	Rpleas_acq	Same	Rpleas	1pleas	acq_new_pleas_nomask	acq2_nomask	2	27	480	0	300	300	0	0	774	50	1	0	retten	schlau	fair	treu	ehrlich	schön	rächen	schroff	faul	tot	eitel	schlecht	freundlich	loyal	spielen	helfen	lachen	tolerant	fanatisch	lasch	strafen	hindern	leiden	tyrannisch	1	blank2r.bmp	0	1	+	0	1	blank2r.bmp	500	3	B3r.bmp	500	1	blank2r.bmp	880	6	tolerant	880	1	!	1312	1	!	-1	0	0	0	0	0	0
2024-05-15	09:52:59	09:58:10	311006	6.6.1	4_exp_EVA_AWA_CON	29	B	A	Rpleas_acq	Same	Rpleas	1pleas	acq_new_unple_nomask	acq2_nomask	2	28	480	1	300	300	0	0	422	46	1	0	retten	schlau	fair	treu	ehrlich	schön	rächen	schroff	faul	tot	eitel	schlecht	freundlich	loyal	spielen	helfen	lachen	tolerant	fanatisch	lasch	strafen	hindern	leiden	tyrannisch	1	blank2r.bmp	0	1	+	0	1	blank2r.bmp	500	8	C4r.bmp	500	1	blank2r.bmp	880	6	tyrannisch	880	1	!	1313	1	!	1322	0	0	0	0	0	0
2024-05-15	09:52:59	09:58:13	313465	6.6.1	4_exp_EVA_AWA_CON	29	B	A	Rpleas_acq	Same	Rpleas	1pleas	acq_US_pleas_nomask	acq2_nomask	2	29	480	1	300	300	0	0	477	46	0	0	retten	schlau	fair	treu	ehrlich	schön	rächen	schroff	faul	tot	eitel	schlecht	freundlich	loyal	spielen	helfen	lachen	tolerant	fanatisch	lasch	strafen	hindern	leiden	tyrannisch	1	blank2r.bmp	0	1	+	0	1	blank2r.bmp	500	1	BMVZ	500	1	blank2r.bmp	880	4	treu	880	1	FEHLER	1670	1	!	1313	1	!	1378	0	0	0
2024-05-15	09:52:59	09:58:20	320785	6.6.1	4_exp_EVA_AWA_CON	29	B	A	Rpleas_acq	Same	Rpleas	1pleas	acq_US_unple_nomask	acq2_nomask	2	30	480	0	300	300	0	0	5545	50	0	0	retten	schlau	fair	treu	ehrlich	schön	rächen	schroff	faul	tot	eitel	schlecht	freundlich	loyal	spielen	helfen	lachen	tolerant	fanatisch	lasch	strafen	hindern	leiden	tyrannisch	1	blank2r.bmp	0	1	+	0	1	blank2r.bmp	500	1	GKQX	500	1	blank2r.bmp	880	6	schlecht	880	1	FEHLER	6739	1	!	1312	1	!	-1	0	0	0
2024-05-15	09:52:59	09:58:22	323104	6.6.1	4_exp_EVA_AWA_CON	29	B	A	Rpleas_acq	Same	Rpleas	1pleas	acq_new_pleas_nomask	acq2_nomask	2	31	480	1	300	300	0	0	541	46	0	0	retten	schlau	fair	treu	ehrlich	schön	rächen	schroff	faul	tot	eitel	schlecht	freundlich	loyal	spielen	helfen	lachen	tolerant	fanatisch	lasch	strafen	hindern	leiden	tyrannisch	1	blank2r.bmp	0	1	+	0	1	blank2r.bmp	500	3	B3r.bmp	500	1	blank2r.bmp	880	2	loyal	880	1	FEHLER	1734	1	!	1313	1	!	1442	0	0	0
2024-05-15	09:52:59	09:58:25	325361	6.6.1	4_exp_EVA_AWA_CON	29	B	A	Rpleas_acq	Same	Rpleas	1pleas	acq_new_unple_nomask	acq2_nomask	2	32	480	1	300	300	0	0	475	50	0	0	retten	schlau	fair	treu	ehrlich	schön	rächen	schroff	faul	tot	eitel	schlecht	freundlich	loyal	spielen	helfen	lachen	tolerant	fanatisch	lasch	strafen	hindern	leiden	tyrannisch	1	blank2r.bmp	0	1	+	0	1	blank2r.bmp	500	2	B2r.bmp	500	1	blank2r.bmp	880	2	lasch	880	1	FEHLER	1669	1	!	1312	1	!	1377	0	0	0
2024-05-15	09:52:59	09:58:27	327492	6.6.1	4_exp_EVA_AWA_CON	29	B	A	Rpleas_acq	Same	Rpleas	1pleas	acq_US_pleas_nomask	acq2_nomask	2	33	480	0	300	300	0	0	560	50	1	0	retten	schlau	fair	treu	ehrlich	schön	rächen	schroff	faul	tot	eitel	schlecht	freundlich	loyal	spielen	helfen	lachen	tolerant	fanatisch	lasch	strafen	hindern	leiden	tyrannisch	1	blank2r.bmp	0	1	+	0	1	blank2r.bmp	500	1	BMVZ	500	1	blank2r.bmp	880	6	schön	880	1	!	1313	1	!	-1	0	0	0	0	0	0
2024-05-15	09:52:59	09:58:30	330350	6.6.1	4_exp_EVA_AWA_CON	29	B	A	Rpleas_acq	Same	Rpleas	1pleas	acq_US_unple_nomask	acq2_nomask	2	34	480	0	300	300	0	0	1084	46	1	0	retten	schlau	fair	treu	ehrlich	schön	rächen	schroff	faul	tot	eitel	schlecht	freundlich	loyal	spielen	helfen	lachen	tolerant	fanatisch	lasch	strafen	hindern	leiden	tyrannisch	1	blank2r.bmp	0	1	+	0	1	blank2r.bmp	500	1	GKQX	500	1	blank2r.bmp	880	4	tot	880	1	!	1312	1	!	-1	0	0	0	0	0	0
2024-05-15	09:52:59	09:58:32	333054	6.6.1	4_exp_EVA_AWA_CON	29	B	A	Rpleas_acq	Same	Rpleas	1pleas	acq_new_unple_nomask	acq2_nomask	2	35	480	0	300	300	0	0	927	46	1	0	retten	schlau	fair	treu	ehrlich	schön	rächen	schroff	faul	tot	eitel	schlecht	freundlich	loyal	spielen	helfen	lachen	tolerant	fanatisch	lasch	strafen	hindern	leiden	tyrannisch	1	blank2r.bmp	0	1	+	0	1	blank2r.bmp	500	4	B4r.bmp	500	1	blank2r.bmp	880	1	fanatisch	880	1	!	1312	1	!	-1	0	0	0	0	0	0
2024-05-15	09:52:59	09:58:35	335590	6.6.1	4_exp_EVA_AWA_CON	29	B	A	Rpleas_acq	Same	Rpleas	1pleas	acq_US_pleas_nomask	acq2_nomask	2	36	480	0	300	300	0	0	761	50	1	0	retten	schlau	fair	treu	ehrlich	schön	rächen	schroff	faul	tot	eitel	schlecht	freundlich	loyal	spielen	helfen	lachen	tolerant	fanatisch	lasch	strafen	hindern	leiden	tyrannisch	1	blank2r.bmp	0	1	+	0	1	blank2r.bmp	500	1	BMVZ	500	1	blank2r.bmp	880	5	ehrlich	880	1	!	1313	1	!	-1	0	0	0	0	0	0
2024-05-15	09:52:59	09:58:54	354528	6.6.1	4_exp_EVA_AWA_CON	29	B	A	Rpleas_acq	Same	Rpleas	1pleas	acq_US_pleas_nomask	acq3_nomask	3	1	453	0	300	300	0	0	835	46	0	0	retten	schlau	fair	treu	ehrlich	schön	rächen	schroff	faul	tot	eitel	schlecht	freundlich	loyal	spielen	helfen	lachen	tolerant	fanatisch	lasch	strafen	hindern	leiden	tyrannisch	1	blank2r.bmp	0	1	+	0	1	blank2r.bmp	500	1	BMVZ	500	1	blank2r.bmp	880	3	fair	880	1	FEHLER	2028	1	!	1292	1	!	-1	0	0	0
2024-05-15	09:52:59	09:58:56	356998	6.6.1	4_exp_EVA_AWA_CON	29	B	A	Rpleas_acq	Same	Rpleas	1pleas	acq_US_pleas_nomask	acq3_nomask	3	2	453	0	300	300	0	0	895	50	1	0	retten	schlau	fair	treu	ehrlich	schön	rächen	schroff	faul	tot	eitel	schlecht	freundlich	loyal	spielen	helfen	lachen	tolerant	fanatisch	lasch	strafen	hindern	leiden	tyrannisch	1	blank2r.bmp	0	1	+	0	1	blank2r.bmp	500	1	BMVZ	500	1	blank2r.bmp	880	4	treu	880	1	!	1292	1	!	-1	0	0	0	0	0	0
2024-05-15	09:52:59	09:58:59	359437	6.6.1	4_exp_EVA_AWA_CON	29	B	A	Rpleas_acq	Same	Rpleas	1pleas	acq_US_pleas_nomask	acq3_nomask	3	3	453	0	300	300	0	0	663	50	1	0	retten	schlau	fair	treu	ehrlich	schön	rächen	schroff	faul	tot	eitel	schlecht	freundlich	loyal	spielen	helfen	lachen	tolerant	fanatisch	lasch	strafen	hindern	leiden	tyrannisch	1	blank2r.bmp	0	1	+	0	1	blank2r.bmp	500	1	BMVZ	500	1	blank2r.bmp	880	1	retten	880	1	!	1292	1	!	-1	0	0	0	0	0	0
2024-05-15	09:52:59	09:59:01	361861	6.6.1	4_exp_EVA_AWA_CON	29	B	A	Rpleas_acq	Same	Rpleas	1pleas	acq_US_unple_nomask	acq3_nomask	3	4	453	0	300	300	0	0	646	46	1	0	retten	schlau	fair	treu	ehrlich	schön	rächen	schroff	faul	tot	eitel	schlecht	freundlich	loyal	spielen	helfen	lachen	tolerant	fanatisch	lasch	strafen	hindern	leiden	tyrannisch	1	blank2r.bmp	0	1	+	0	1	blank2r.bmp	500	1	GKQX	500	1	blank2r.bmp	880	1	rächen	880	1	!	1293	1	!	-1	0	0	0	0	0	0
2024-05-15	09:52:59	09:59:03	364071	6.6.1	4_exp_EVA_AWA_CON	29	B	A	Rpleas_acq	Same	Rpleas	1pleas	acq_US_unple_nomask	acq3_nomask	3	5	453	1	300	300	0	0	432	46	1	0	retten	schlau	fair	treu	ehrlich	schön	rächen	schroff	faul	tot	eitel	schlecht	freundlich	loyal	spielen	helfen	lachen	tolerant	fanatisch	lasch	strafen	hindern	leiden	tyrannisch	1	blank2r.bmp	0	1	+	0	1	blank2r.bmp	500	1	GKQX	500	1	blank2r.bmp	880	5	eitel	880	1	!	1293	1	!	1334	0	0	0	0	0	0
2024-05-15	09:52:59	09:59:06	366280	6.6.1	4_exp_EVA_AWA_CON	29	B	A	Rpleas_acq	Same	Rpleas	1pleas	acq_US_unple_nomask	acq3_nomask	3	6	453	1	300	300	0	0	429	46	1	0	retten	schlau	fair	treu	ehrlich	schön	rächen	schroff	faul	tot	eitel	schlecht	freundlich	loyal	spielen	helfen	lachen	tolerant	fanatisch	lasch	strafen	hindern	leiden	tyrannisch	1	blank2r.bmp	0	1	+	0	1	blank2r.bmp	500	1	GKQX	500	1	blank2r.bmp	880	3	faul	880	1	!	1292	1	!	1330	0	0	0	0	0	0
2024-05-15	09:52:59	09:59:08	368681	6.6.1	4_exp_EVA_AWA_CON	29	B	A	Rpleas_acq	Same	Rpleas	1pleas	acq_US_pleas_nomask	acq3_nomask	3	7	453	1	300	300	0	0	418	46	0	0	retten	schlau	fair	treu	ehrlich	schön	rächen	schroff	faul	tot	eitel	schlecht	freundlich	loyal	spielen	helfen	lachen	tolerant	fanatisch	lasch	strafen	hindern	leiden	tyrannisch	1	blank2r.bmp	0	1	+	0	1	blank2r.bmp	500	1	BMVZ	500	1	blank2r.bmp	880	2	schlau	880	1	FEHLER	1611	1	!	1293	1	!	1319	0	0	0
2024-05-15	09:52:59	09:59:10	370936	6.6.1	4_exp_EVA_AWA_CON	29	B	A	Rpleas_acq	Same	Rpleas	1pleas	acq_US_pleas_nomask	acq3_nomask	3	8	453	1	300	300	0	0	482	46	0	0	retten	schlau	fair	treu	ehrlich	schön	rächen	schroff	faul	tot	eitel	schlecht	freundlich	loyal	spielen	helfen	lachen	tolerant	fanatisch	lasch	strafen	hindern	leiden	tyrannisch	1	blank2r.bmp	0	1	+	0	1	blank2r.bmp	500	1	BMVZ	500	1	blank2r.bmp	880	6	schön	880	1	FEHLER	1675	1	!	1293	1	!	1384	0	0	0
2024-05-15	09:52:59	09:59:12	372936	6.6.1	4_exp_EVA_AWA_CON	29	B	A	Rpleas_acq	Same	Rpleas	1pleas	acq_US_unple_nomask	acq3_nomask	3	9	453	1	300	300	0	0	421	46	1	0	retten	schlau	fair	treu	ehrlich	schön	rächen	schroff	faul	tot	eitel	schlecht	freundlich	loyal	spielen	helfen	lachen	tolerant	fanatisch	lasch	strafen	hindern	leiden	tyrannisch	1	blank2r.bmp	0	1	+	0	1	blank2r.bmp	500	1	GKQX	500	1	blank2r.bmp	880	2	schroff	880	1	!	1293	1	!	1323	0	0	0	0	0	0
2024-05-15	09:52:59	09:59:14	375143	6.6.1	4_exp_EVA_AWA_CON	29	B	A	Rpleas_acq	Same	Rpleas	1pleas	acq_US_unple_nomask	acq3_nomask	3	10	453	1	300	300	0	0	427	46	1	0	retten	schlau	fair	treu	ehrlich	schön	rächen	schroff	faul	tot	eitel	schlecht	freundlich	loyal	spielen	helfen	lachen	tolerant	fanatisch	lasch	strafen	hindern	leiden	tyrannisch	1	blank2r.bmp	0	1	+	0	1	blank2r.bmp	500	1	GKQX	500	1	blank2r.bmp	880	4	tot	880	1	!	1292	1	!	1329	0	0	0	0	0	0
2024-05-15	09:52:59	09:59:16	377222	6.6.1	4_exp_EVA_AWA_CON	29	B	A	Rpleas_acq	Same	Rpleas	1pleas	acq_US_pleas_nomask	acq3_nomask	3	11	453	0	300	300	0	0	306	50	1	0	retten	schlau	fair	treu	ehrlich	schön	rächen	schroff	faul	tot	eitel	schlecht	freundlich	loyal	spielen	helfen	lachen	tolerant	fanatisch	lasch	strafen	hindern	leiden	tyrannisch	1	blank2r.bmp	0	1	+	0	1	blank2r.bmp	500	1	BMVZ	500	1	blank2r.bmp	880	5	ehrlich	880	1	!	-1	1	!	-1	0	0	0	0	0	0
2024-05-15	09:52:59	09:59:19	379488	6.6.1	4_exp_EVA_AWA_CON	29	B	A	Rpleas_acq	Same	Rpleas	1pleas	acq_US_unple_nomask	acq3_nomask	3	12	453	1	300	300	0	0	489	46	1	0	retten	schlau	fair	treu	ehrlich	schön	rächen	schroff	faul	tot	eitel	schlecht	freundlich	loyal	spielen	helfen	lachen	tolerant	fanatisch	lasch	strafen	hindern	leiden	tyrannisch	1	blank2r.bmp	0	1	+	0	1	blank2r.bmp	500	1	GKQX	500	1	blank2r.bmp	880	6	schlecht	880	1	!	1293	1	!	1390	0	0	0	0	0	0
2024-05-15	09:52:59	09:59:21	381830	6.6.1	4_exp_EVA_AWA_CON	29	B	A	Rpleas_acq	Same	Rpleas	1pleas	acq_US_pleas_nomask	acq3_nomask	3	13	453	0	300	300	0	0	561	50	1	0	retten	schlau	fair	treu	ehrlich	schön	rächen	schroff	faul	tot	eitel	schlecht	freundlich	loyal	spielen	helfen	lachen	tolerant	fanatisch	lasch	strafen	hindern	leiden	tyrannisch	1	blank2r.bmp	0	1	+	0	1	blank2r.bmp	500	1	BMVZ	500	1	blank2r.bmp	880	2	schlau	880	1	!	1292	1	!	-1	0	0	0	0	0	0
2024-05-15	09:52:59	09:59:23	384079	6.6.1	4_exp_EVA_AWA_CON	29	B	A	Rpleas_acq	Same	Rpleas	1pleas	acq_US_unple_nomask	acq3_nomask	3	14	453	1	300	300	0	0	468	46	1	0	retten	schlau	fair	treu	ehrlich	schön	rächen	schroff	faul	tot	eitel	schlecht	freundlich	loyal	spielen	helfen	lachen	tolerant	fanatisch	lasch	strafen	hindern	leiden	tyrannisch	1	blank2r.bmp	0	1	+	0	1	blank2r.bmp	500	1	GKQX	500	1	blank2r.bmp	880	2	schroff	880	1	!	1292	1	!	1369	0	0	0	0	0	0
2024-05-15	09:52:59	09:59:26	386238	6.6.1	4_exp_EVA_AWA_CON	29	B	A	Rpleas_acq	Same	Rpleas	1pleas	acq_US_pleas_nomask	acq3_nomask	3	15	453	0	300	300	0	0	386	50	1	0	retten	schlau	fair	treu	ehrlich	schön	rächen	schroff	faul	tot	eitel	schlecht	freundlich	loyal	spielen	helfen	lachen	tolerant	fanatisch	lasch	strafen	hindern	leiden	tyrannisch	1	blank2r.bmp	0	1	+	0	1	blank2r.bmp	500	1	BMVZ	500	1	blank2r.bmp	880	5	ehrlich	880	1	!	-1	1	!	-1	0	0	0	0	0	0
2024-05-15	09:52:59	09:59:28	388447	6.6.1	4_exp_EVA_AWA_CON	29	B	A	Rpleas_acq	Same	Rpleas	1pleas	acq_US_unple_nomask	acq3_nomask	3	16	453	1	300	300	0	0	433	46	1	0	retten	schlau	fair	treu	ehrlich	schön	rächen	schroff	faul	tot	eitel	schlecht	freundlich	loyal	spielen	helfen	lachen	tolerant	fanatisch	lasch	strafen	hindern	leiden	tyrannisch	1	blank2r.bmp	0	1	+	0	1	blank2r.bmp	500	1	GKQX	500	1	blank2r.bmp	880	5	eitel	880	1	!	1292	1	!	1334	0	0	0	0	0	0
2024-05-15	09:52:59	09:59:30	390793	6.6.1	4_exp_EVA_AWA_CON	29	B	A	Rpleas_acq	Same	Rpleas	1pleas	acq_US_pleas_nomask	acq3_nomask	3	17	453	0	300	300	0	0	365	46	0	0	retten	schlau	fair	treu	ehrlich	schön	rächen	schroff	faul	tot	eitel	schlecht	freundlich	loyal	spielen	helfen	lachen	tolerant	fanatisch	lasch	strafen	hindern	leiden	tyrannisch	1	blank2r.bmp	0	1	+	0	1	blank2r.bmp	500	1	BMVZ	500	1	blank2r.bmp	880	4	treu	880	1	FEHLER	1559	1	!	-1	1	!	-1	0	0	0
2024-05-15	09:52:59	09:59:32	393069	6.6.1	4_exp_EVA_AWA_CON	29	B	A	Rpleas_acq	Same	Rpleas	1pleas	acq_US_unple_nomask	acq3_nomask	3	18	453	0	300	300	0	0	704	46	1	0	retten	schlau	fair	treu	ehrlich	schön	rächen	schroff	faul	tot	eitel	schlecht	freundlich	loyal	spielen	helfen	lachen	tolerant	fanatisch	lasch	strafen	hindern	leiden	tyrannisch	1	blank2r.bmp	0	1	+	0	1	blank2r.bmp	500	1	GKQX	500	1	blank2r.bmp	880	4	tot	880	1	!	1293	1	!	-1	0	0	0	0	0	0
2024-05-15	09:52:59	09:59:35	395574	6.6.1	4_exp_EVA_AWA_CON	29	B	A	Rpleas_acq	Same	Rpleas	1pleas	acq_US_unple_nomask	acq3_nomask	3	19	453	0	300	300	0	0	726	46	1	0	retten	schlau	fair	treu	ehrlich	schön	rächen	schroff	faul	tot	eitel	schlecht	freundlich	loyal	spielen	helfen	lachen	tolerant	fanatisch	lasch	strafen	hindern	leiden	tyrannisch	1	blank2r.bmp	0	1	+	0	1	blank2r.bmp	500	1	GKQX	500	1	blank2r.bmp	880	1	rächen	880	1	!	1292	1	!	-1	0	0	0	0	0	0
2024-05-15	09:52:59	09:59:37	397800	6.6.1	4_exp_EVA_AWA_CON	29	B	A	Rpleas_acq	Same	Rpleas	1pleas	acq_US_pleas_nomask	acq3_nomask	3	20	453	1	300	300	0	0	449	50	1	0	retten	schlau	fair	treu	ehrlich	schön	rächen	schroff	faul	tot	eitel	schlecht	freundlich	loyal	spielen	helfen	lachen	tolerant	fanatisch	lasch	strafen	hindern	leiden	tyrannisch	1	blank2r.bmp	0	1	+	0	1	blank2r.bmp	500	1	BMVZ	500	1	blank2r.bmp	880	1	retten	880	1	!	1292	1	!	1350	0	0	0	0	0	0
2024-05-15	09:52:59	09:59:39	400031	6.6.1	4_exp_EVA_AWA_CON	29	B	A	Rpleas_acq	Same	Rpleas	1pleas	acq_US_pleas_nomask	acq3_nomask	3	21	453	1	300	300	0	0	449	50	1	0	retten	schlau	fair	treu	ehrlich	schön	rächen	schroff	faul	tot	eitel	schlecht	freundlich	loyal	spielen	helfen	lachen	tolerant	fanatisch	lasch	strafen	hindern	leiden	tyrannisch	1	blank2r.bmp	0	1	+	0	1	blank2r.bmp	500	1	BMVZ	500	1	blank2r.bmp	880	3	fair	880	1	!	1292	1	!	1350	0	0	0	0	0	0
2024-05-15	09:52:59	09:59:42	402271	6.6.1	4_exp_EVA_AWA_CON	29	B	A	Rpleas_acq	Same	Rpleas	1pleas	acq_US_pleas_nomask	acq3_nomask	3	22	453	1	300	300	0	0	458	50	1	0	retten	schlau	fair	treu	ehrlich	schön	rächen	schroff	faul	tot	eitel	schlecht	freundlich	loyal	spielen	helfen	lachen	tolerant	fanatisch	lasch	strafen	hindern	leiden	tyrannisch	1	blank2r.bmp	0	1	+	0	1	blank2r.bmp	500	1	BMVZ	500	1	blank2r.bmp	880	6	schön	880	1	!	1292	1	!	1359	0	0	0	0	0	0
2024-05-15	09:52:59	09:59:44	404792	6.6.1	4_exp_EVA_AWA_CON	29	B	A	Rpleas_acq	Same	Rpleas	1pleas	acq_US_unple_nomask	acq3_nomask	3	23	453	0	300	300	0	0	536	50	0	0	retten	schlau	fair	treu	ehrlich	schön	rächen	schroff	faul	tot	eitel	schlecht	freundlich	loyal	spielen	helfen	lachen	tolerant	fanatisch	lasch	strafen	hindern	leiden	tyrannisch	1	blank2r.bmp	0	1	+	0	1	blank2r.bmp	500	1	GKQX	500	1	blank2r.bmp	880	3	faul	880	1	FEHLER	1729	1	!	1292	1	!	-1	0	0	0
2024-05-15	09:52:59	09:59:46	407046	6.6.1	4_exp_EVA_AWA_CON	29	B	A	Rpleas_acq	Same	Rpleas	1pleas	acq_US_unple_nomask	acq3_nomask	3	24	453	0	300	300	0	0	681	46	1	0	retten	schlau	fair	treu	ehrlich	schön	rächen	schroff	faul	tot	eitel	schlecht	freundlich	loyal	spielen	helfen	lachen	tolerant	fanatisch	lasch	strafen	hindern	leiden	tyrannisch	1	blank2r.bmp	0	1	+	0	1	blank2r.bmp	500	1	GKQX	500	1	blank2r.bmp	880	6	schlecht	880	1	!	1293	1	!	-1	0	0	0	0	0	0
2024-05-15	09:52:59	09:59:49	409453	6.6.1	4_exp_EVA_AWA_CON	29	B	A	Rpleas_acq	Same	Rpleas	1pleas	acq_US_unple_nomask	acq3_nomask	3	25	453	0	300	300	0	0	627	46	1	0	retten	schlau	fair	treu	ehrlich	schön	rächen	schroff	faul	tot	eitel	schlecht	freundlich	loyal	spielen	helfen	lachen	tolerant	fanatisch	lasch	strafen	hindern	leiden	tyrannisch	1	blank2r.bmp	0	1	+	0	1	blank2r.bmp	500	1	GKQX	500	1	blank2r.bmp	880	2	schroff	880	1	!	1292	1	!	-1	0	0	0	0	0	0
2024-05-15	09:52:59	09:59:51	411695	6.6.1	4_exp_EVA_AWA_CON	29	B	A	Rpleas_acq	Same	Rpleas	1pleas	acq_US_pleas_nomask	acq3_nomask	3	26	453	1	300	300	0	0	466	50	1	0	retten	schlau	fair	treu	ehrlich	schön	rächen	schroff	faul	tot	eitel	schlecht	freundlich	loyal	spielen	helfen	lachen	tolerant	fanatisch	lasch	strafen	hindern	leiden	tyrannisch	1	blank2r.bmp	0	1	+	0	1	blank2r.bmp	500	1	BMVZ	500	1	blank2r.bmp	880	5	ehrlich	880	1	!	1292	1	!	1367	0	0	0	0	0	0
2024-05-15	09:52:59	09:59:53	413927	6.6.1	4_exp_EVA_AWA_CON	29	B	A	Rpleas_acq	Same	Rpleas	1pleas	acq_US_pleas_nomask	acq3_nomask	3	27	453	1	300	300	0	0	456	50	1	0	retten	schlau	fair	treu	ehrlich	schön	rächen	schroff	faul	tot	eitel	schlecht	freundlich	loyal	spielen	helfen	lachen	tolerant	fanatisch	lasch	strafen	hindern	leiden	tyrannisch	1	blank2r.bmp	0	1	+	0	1	blank2r.bmp	500	1	BMVZ	500	1	blank2r.bmp	880	2	schlau	880	1	!	1293	1	!	1358	0	0	0	0	0	0
2024-05-15	09:52:59	09:59:55	416119	6.6.1	4_exp_EVA_AWA_CON	29	B	A	Rpleas_acq	Same	Rpleas	1pleas	acq_US_unple_nomask	acq3_nomask	3	28	453	1	300	300	0	0	417	46	1	0	retten	schlau	fair	treu	ehrlich	schön	rächen	schroff	faul	tot	eitel	schlecht	freundlich	loyal	spielen	helfen	lachen	tolerant	fanatisch	lasch	strafen	hindern	leiden	tyrannisch	1	blank2r.bmp	0	1	+	0	1	blank2r.bmp	500	1	GKQX	500	1	blank2r.bmp	880	4	tot	880	1	!	1292	1	!	1318	0	0	0	0	0	0
2024-05-15	09:52:59	09:59:58	418351	6.6.1	4_exp_EVA_AWA_CON	29	B	A	Rpleas_acq	Same	Rpleas	1pleas	acq_US_unple_nomask	acq3_nomask	3	29	453	1	300	300	0	0	458	46	1	0	retten	schlau	fair	treu	ehrlich	schön	rächen	schroff	faul	tot	eitel	schlecht	freundlich	loyal	spielen	helfen	lachen	tolerant	fanatisch	lasch	strafen	hindern	leiden	tyrannisch	1	blank2r.bmp	0	1	+	0	1	blank2r.bmp	500	1	GKQX	500	1	blank2r.bmp	880	3	faul	880	1	!	1292	1	!	1359	0	0	0	0	0	0
2024-05-15	09:52:59	10:00:00	420661	6.6.1	4_exp_EVA_AWA_CON	29	B	A	Rpleas_acq	Same	Rpleas	1pleas	acq_US_unple_nomask	acq3_nomask	3	30	453	0	300	300	0	0	538	46	1	0	retten	schlau	fair	treu	ehrlich	schön	rächen	schroff	faul	tot	eitel	schlecht	freundlich	loyal	spielen	helfen	lachen	tolerant	fanatisch	lasch	strafen	hindern	leiden	tyrannisch	1	blank2r.bmp	0	1	+	0	1	blank2r.bmp	500	1	GKQX	500	1	blank2r.bmp	880	1	rächen	880	1	!	1293	1	!	-1	0	0	0	0	0	0
2024-05-15	09:52:59	10:00:02	423025	6.6.1	4_exp_EVA_AWA_CON	29	B	A	Rpleas_acq	Same	Rpleas	1pleas	acq_US_pleas_nomask	acq3_nomask	3	31	453	0	300	300	0	0	387	46	0	0	retten	schlau	fair	treu	ehrlich	schön	rächen	schroff	faul	tot	eitel	schlecht	freundlich	loyal	spielen	helfen	lachen	tolerant	fanatisch	lasch	strafen	hindern	leiden	tyrannisch	1	blank2r.bmp	0	1	+	0	1	blank2r.bmp	500	1	BMVZ	500	1	blank2r.bmp	880	3	fair	880	1	FEHLER	1580	1	!	-1	1	!	-1	0	0	0
2024-05-15	09:52:59	10:00:04	425189	6.6.1	4_exp_EVA_AWA_CON	29	B	A	Rpleas_acq	Same	Rpleas	1pleas	acq_US_unple_nomask	acq3_nomask	3	32	453	0	300	300	0	0	593	46	1	0	retten	schlau	fair	treu	ehrlich	schön	rächen	schroff	faul	tot	eitel	schlecht	freundlich	loyal	spielen	helfen	lachen	tolerant	fanatisch	lasch	strafen	hindern	leiden	tyrannisch	1	blank2r.bmp	0	1	+	0	1	blank2r.bmp	500	1	GKQX	500	1	blank2r.bmp	880	5	eitel	880	1	!	1292	1	!	-1	0	0	0	0	0	0
2024-05-15	09:52:59	10:00:07	427500	6.6.1	4_exp_EVA_AWA_CON	29	B	A	Rpleas_acq	Same	Rpleas	1pleas	acq_US_pleas_nomask	acq3_nomask	3	33	453	0	300	300	0	0	534	50	1	0	retten	schlau	fair	treu	ehrlich	schön	rächen	schroff	faul	tot	eitel	schlecht	freundlich	loyal	spielen	helfen	lachen	tolerant	fanatisch	lasch	strafen	hindern	leiden	tyrannisch	1	blank2r.bmp	0	1	+	0	1	blank2r.bmp	500	1	BMVZ	500	1	blank2r.bmp	880	6	schön	880	1	!	1292	1	!	-1	0	0	0	0	0	0
2024-05-15	09:52:59	10:00:09	429752	6.6.1	4_exp_EVA_AWA_CON	29	B	A	Rpleas_acq	Same	Rpleas	1pleas	acq_US_pleas_nomask	acq3_nomask	3	34	453	1	300	300	0	0	470	50	1	0	retten	schlau	fair	treu	ehrlich	schön	rächen	schroff	faul	tot	eitel	schlecht	freundlich	loyal	spielen	helfen	lachen	tolerant	fanatisch	lasch	strafen	hindern	leiden	tyrannisch	1	blank2r.bmp	0	1	+	0	1	blank2r.bmp	500	1	BMVZ	500	1	blank2r.bmp	880	1	retten	880	1	!	1292	1	!	1372	0	0	0	0	0	0
2024-05-15	09:52:59	10:00:11	432201	6.6.1	4_exp_EVA_AWA_CON	29	B	A	Rpleas_acq	Same	Rpleas	1pleas	acq_US_pleas_nomask	acq3_nomask	3	35	453	1	300	300	0	0	467	46	0	0	retten	schlau	fair	treu	ehrlich	schön	rächen	schroff	faul	tot	eitel	schlecht	freundlich	loyal	spielen	helfen	lachen	tolerant	fanatisch	lasch	strafen	hindern	leiden	tyrannisch	1	blank2r.bmp	0	1	+	0	1	blank2r.bmp	500	1	BMVZ	500	1	blank2r.bmp	880	4	treu	880	1	FEHLER	1660	1	!	1292	1	!	1368	0	0	0
2024-05-15	09:52:59	10:00:14	434263	6.6.1	4_exp_EVA_AWA_CON	29	B	A	Rpleas_acq	Same	Rpleas	1pleas	acq_US_unple_nomask	acq3_nomask	3	36	453	1	300	300	0	0	489	46	1	0	retten	schlau	fair	treu	ehrlich	schön	rächen	schroff	faul	tot	eitel	schlecht	freundlich	loyal	spielen	helfen	lachen	tolerant	fanatisch	lasch	strafen	hindern	leiden	tyrannisch	1	blank2r.bmp	0	1	+	0	1	blank2r.bmp	500	1	GKQX	500	1	blank2r.bmp	880	6	schlecht	880	1	!	1292	1	!	1391	0	0	0	0	0	0
2024-05-15	09:52:59	10:00:34	455101	6.6.1	4_exp_EVA_AWA_CON	29	B	A	Rpleas_acq	Same	Rpleas	1pleas	acq_US_pleas_nomask	acq45_nomask	4	1	400	0	300	300	0	0	626	50	1	0	retten	schlau	fair	treu	ehrlich	schön	rächen	schroff	faul	tot	eitel	schlecht	freundlich	loyal	spielen	helfen	lachen	tolerant	fanatisch	lasch	strafen	hindern	leiden	tyrannisch	1	blank2r.bmp	0	1	+	0	1	blank2r.bmp	500	1	BMVZ	500	1	blank2r.bmp	880	2	schlau	880	1	!	1232	1	!	-1	0	0	0	0	0	0
2024-05-15	09:52:59	10:00:37	457421	6.6.1	4_exp_EVA_AWA_CON	29	B	A	Rpleas_acq	Same	Rpleas	1pleas	acq_US_pleas_nomask	acq45_nomask	4	2	400	0	300	300	0	0	544	50	1	0	retten	schlau	fair	treu	ehrlich	schön	rächen	schroff	faul	tot	eitel	schlecht	freundlich	loyal	spielen	helfen	lachen	tolerant	fanatisch	lasch	strafen	hindern	leiden	tyrannisch	1	blank2r.bmp	0	1	+	0	1	blank2r.bmp	500	1	BMVZ	500	1	blank2r.bmp	880	6	schön	880	1	!	1232	1	!	-1	0	0	0	0	0	0
2024-05-15	09:52:59	10:00:39	459742	6.6.1	4_exp_EVA_AWA_CON	29	B	A	Rpleas_acq	Same	Rpleas	1pleas	acq_US_unple_nomask	acq45_nomask	4	3	400	0	300	300	0	0	543	46	1	0	retten	schlau	fair	treu	ehrlich	schön	rächen	schroff	faul	tot	eitel	schlecht	freundlich	loyal	spielen	helfen	lachen	tolerant	fanatisch	lasch	strafen	hindern	leiden	tyrannisch	1	blank2r.bmp	0	1	+	0	1	blank2r.bmp	500	1	GKQX	500	1	blank2r.bmp	880	5	eitel	880	1	!	1232	1	!	-1	0	0	0	0	0	0
2024-05-15	09:52:59	10:00:41	461943	6.6.1	4_exp_EVA_AWA_CON	29	B	A	Rpleas_acq	Same	Rpleas	1pleas	acq_US_pleas_nomask	acq45_nomask	4	4	400	1	300	300	0	0	422	50	1	0	retten	schlau	fair	treu	ehrlich	schön	rächen	schroff	faul	tot	eitel	schlecht	freundlich	loyal	spielen	helfen	lachen	tolerant	fanatisch	lasch	strafen	hindern	leiden	tyrannisch	1	blank2r.bmp	0	1	+	0	1	blank2r.bmp	500	1	BMVZ	500	1	blank2r.bmp	880	4	treu	880	1	!	1232	1	!	1323	0	0	0	0	0	0
2024-05-15	09:52:59	10:00:43	463973	6.6.1	4_exp_EVA_AWA_CON	29	B	A	Rpleas_acq	Same	Rpleas	1pleas	acq_US_unple_nomask	acq45_nomask	4	5	400	0	300	300	0	0	252	46	1	0	retten	schlau	fair	treu	ehrlich	schön	rächen	schroff	faul	tot	eitel	schlecht	freundlich	loyal	spielen	helfen	lachen	tolerant	fanatisch	lasch	strafen	hindern	leiden	tyrannisch	1	blank2r.bmp	0	1	+	0	1	blank2r.bmp	500	1	GKQX	500	1	blank2r.bmp	880	2	schroff	880	1	!	-1	1	!	-1	0	0	0	0	0	0
2024-05-15	09:52:59	10:00:46	466341	6.6.1	4_exp_EVA_AWA_CON	29	B	A	Rpleas_acq	Same	Rpleas	1pleas	acq_US_unple_nomask	acq45_nomask	4	6	400	0	300	300	0	0	589	46	1	0	retten	schlau	fair	treu	ehrlich	schön	rächen	schroff	faul	tot	eitel	schlecht	freundlich	loyal	spielen	helfen	lachen	tolerant	fanatisch	lasch	strafen	hindern	leiden	tyrannisch	1	blank2r.bmp	0	1	+	0	1	blank2r.bmp	500	1	GKQX	500	1	blank2r.bmp	880	3	faul	880	1	!	1232	1	!	-1	0	0	0	0	0	0
2024-05-15	09:52:59	10:00:48	468653	6.6.1	4_exp_EVA_AWA_CON	29	B	A	Rpleas_acq	Same	Rpleas	1pleas	acq_US_unple_nomask	acq45_nomask	4	7	400	0	300	300	0	0	539	46	1	0	retten	schlau	fair	treu	ehrlich	schön	rächen	schroff	faul	tot	eitel	schlecht	freundlich	loyal	spielen	helfen	lachen	tolerant	fanatisch	lasch	strafen	hindern	leiden	tyrannisch	1	blank2r.bmp	0	1	+	0	1	blank2r.bmp	500	1	GKQX	500	1	blank2r.bmp	880	1	rächen	880	1	!	1232	1	!	-1	0	0	0	0	0	0
2024-05-15	09:52:59	10:00:50	470895	6.6.1	4_exp_EVA_AWA_CON	29	B	A	Rpleas_acq	Same	Rpleas	1pleas	acq_US_unple_nomask	acq45_nomask	4	8	400	1	300	300	0	0	468	46	1	0	retten	schlau	fair	treu	ehrlich	schön	rächen	schroff	faul	tot	eitel	schlecht	freundlich	loyal	spielen	helfen	lachen	tolerant	fanatisch	lasch	strafen	hindern	leiden	tyrannisch	1	blank2r.bmp	0	1	+	0	1	blank2r.bmp	500	1	GKQX	500	1	blank2r.bmp	880	6	schlecht	880	1	!	1233	1	!	1369	0	0	0	0	0	0
2024-05-15	09:52:59	10:00:52	473143	6.6.1	4_exp_EVA_AWA_CON	29	B	A	Rpleas_acq	Same	Rpleas	1pleas	acq_US_pleas_nomask	acq45_nomask	4	9	400	1	300	300	0	0	464	46	0	0	retten	schlau	fair	treu	ehrlich	schön	rächen	schroff	faul	tot	eitel	schlecht	freundlich	loyal	spielen	helfen	lachen	tolerant	fanatisch	lasch	strafen	hindern	leiden	tyrannisch	1	blank2r.bmp	0	1	+	0	1	blank2r.bmp	500	1	BMVZ	500	1	blank2r.bmp	880	3	fair	880	1	!	1233	1	!	1366	0	0	0	0	0	0
2024-05-15	09:52:59	10:00:55	475351	6.6.1	4_exp_EVA_AWA_CON	29	B	A	Rpleas_acq	Same	Rpleas	1pleas	acq_US_unple_nomask	acq45_nomask	4	10	400	1	300	300	0	0	431	46	1	0	retten	schlau	fair	treu	ehrlich	schön	rächen	schroff	faul	tot	eitel	schlecht	freundlich	loyal	spielen	helfen	lachen	tolerant	fanatisch	lasch	strafen	hindern	leiden	tyrannisch	1	blank2r.bmp	0	1	+	0	1	blank2r.bmp	500	1	GKQX	500	1	blank2r.bmp	880	4	tot	880	1	!	1232	1	!	1332	0	0	0	0	0	0
2024-05-15	09:52:59	10:00:57	477583	6.6.1	4_exp_EVA_AWA_CON	29	B	A	Rpleas_acq	Same	Rpleas	1pleas	acq_US_pleas_nomask	acq45_nomask	4	11	400	1	300	300	0	0	451	50	1	0	retten	schlau	fair	treu	ehrlich	schön	rächen	schroff	faul	tot	eitel	schlecht	freundlich	loyal	spielen	helfen	lachen	tolerant	fanatisch	lasch	strafen	hindern	leiden	tyrannisch	1	blank2r.bmp	0	1	+	0	1	blank2r.bmp	500	1	BMVZ	500	1	blank2r.bmp	880	5	ehrlich	880	1	!	1232	1	!	1353	0	0	0	0	0	0
2024-05-15	09:52:59	10:00:59	479653	6.6.1	4_exp_EVA_AWA_CON	29	B	A	Rpleas_acq	Same	Rpleas	1pleas	acq_US_unple_nomask	acq45_nomask	4	12	400	0	300	300	0	0	292	46	1	0	retten	schlau	fair	treu	ehrlich	schön	rächen	schroff	faul	tot	eitel	schlecht	freundlich	loyal	spielen	helfen	lachen	tolerant	fanatisch	lasch	strafen	hindern	leiden	tyrannisch	1	blank2r.bmp	0	1	+	0	1	blank2r.bmp	500	1	GKQX	500	1	blank2r.bmp	880	3	faul	880	1	!	-1	1	!	-1	0	0	0	0	0	0
2024-05-15	09:52:59	10:01:01	481965	6.6.1	4_exp_EVA_AWA_CON	29	B	A	Rpleas_acq	Same	Rpleas	1pleas	acq_US_unple_nomask	acq45_nomask	4	13	400	0	300	300	0	0	533	46	1	0	retten	schlau	fair	treu	ehrlich	schön	rächen	schroff	faul	tot	eitel	schlecht	freundlich	loyal	spielen	helfen	lachen	tolerant	fanatisch	lasch	strafen	hindern	leiden	tyrannisch	1	blank2r.bmp	0	1	+	0	1	blank2r.bmp	500	1	GKQX	500	1	blank2r.bmp	880	1	rächen	880	1	!	1232	1	!	-1	0	0	0	0	0	0
2024-05-15	09:52:59	10:01:03	484191	6.6.1	4_exp_EVA_AWA_CON	29	B	A	Rpleas_acq	Same	Rpleas	1pleas	acq_US_pleas_nomask	acq45_nomask	4	14	400	1	300	300	0	0	445	50	1	0	retten	schlau	fair	treu	ehrlich	schön	rächen	schroff	faul	tot	eitel	schlecht	freundlich	loyal	spielen	helfen	lachen	tolerant	fanatisch	lasch	strafen	hindern	leiden	tyrannisch	1	blank2r.bmp	0	1	+	0	1	blank2r.bmp	500	1	BMVZ	500	1	blank2r.bmp	880	1	retten	880	1	!	1232	1	!	1346	0	0	0	0	0	0
2024-05-15	09:52:59	10:01:06	486343	6.6.1	4_exp_EVA_AWA_CON	29	B	A	Rpleas_acq	Same	Rpleas	1pleas	acq_US_pleas_nomask	acq45_nomask	4	15	400	1	300	300	0	0	376	50	1	0	retten	schlau	fair	treu	ehrlich	schön	rächen	schroff	faul	tot	eitel	schlecht	freundlich	loyal	spielen	helfen	lachen	tolerant	fanatisch	lasch	strafen	hindern	leiden	tyrannisch	1	blank2r.bmp	0	1	+	0	1	blank2r.bmp	500	1	BMVZ	500	1	blank2r.bmp	880	3	fair	880	1	!	1232	1	!	1277	0	0	0	0	0	0
2024-05-15	09:52:59	10:01:08	488471	6.6.1	4_exp_EVA_AWA_CON	29	B	A	Rpleas_acq	Same	Rpleas	1pleas	acq_US_pleas_nomask	acq45_nomask	4	16	400	1	300	300	0	0	352	46	0	0	retten	schlau	fair	treu	ehrlich	schön	rächen	schroff	faul	tot	eitel	schlecht	freundlich	loyal	spielen	helfen	lachen	tolerant	fanatisch	lasch	strafen	hindern	leiden	tyrannisch	1	blank2r.bmp	0	1	+	0	1	blank2r.bmp	500	1	BMVZ	500	1	blank2r.bmp	880	4	treu	880	1	!	1232	1	!	1254	0	0	0	0	0	0
2024-05-15	09:52:59	10:01:10	490781	6.6.1	4_exp_EVA_AWA_CON	29	B	A	Rpleas_acq	Same	Rpleas	1pleas	acq_US_unple_nomask	acq45_nomask	4	17	400	0	300	300	0	0	533	46	1	0	retten	schlau	fair	treu	ehrlich	schön	rächen	schroff	faul	tot	eitel	schlecht	freundlich	loyal	spielen	helfen	lachen	tolerant	fanatisch	lasch	strafen	hindern	leiden	tyrannisch	1	blank2r.bmp	0	1	+	0	1	blank2r.bmp	500	1	GKQX	500	1	blank2r.bmp	880	5	eitel	880	1	!	1232	1	!	-1	0	0	0	0	0	0
2024-05-15	09:52:59	10:01:12	492935	6.6.1	4_exp_EVA_AWA_CON	29	B	A	Rpleas_acq	Same	Rpleas	1pleas	acq_US_pleas_nomask	acq45_nomask	4	18	400	1	300	300	0	0	374	46	0	0	retten	schlau	fair	treu	ehrlich	schön	rächen	schroff	faul	tot	eitel	schlecht	freundlich	loyal	spielen	helfen	lachen	tolerant	fanatisch	lasch	strafen	hindern	leiden	tyrannisch	1	blank2r.bmp	0	1	+	0	1	blank2r.bmp	500	1	BMVZ	500	1	blank2r.bmp	880	2	schlau	880	1	!	1232	1	!	1275	0	0	0	0	0	0
2024-05-15	09:52:59	10:01:14	495127	6.6.1	4_exp_EVA_AWA_CON	29	B	A	Rpleas_acq	Same	Rpleas	1pleas	acq_US_unple_nomask	acq45_nomask	4	19	400	1	300	300	0	0	414	46	1	0	retten	schlau	fair	treu	ehrlich	schön	rächen	schroff	faul	tot	eitel	schlecht	freundlich	loyal	spielen	helfen	lachen	tolerant	fanatisch	lasch	strafen	hindern	leiden	tyrannisch	1	blank2r.bmp	0	1	+	0	1	blank2r.bmp	500	1	GKQX	500	1	blank2r.bmp	880	4	tot	880	1	!	1232	1	!	1315	0	0	0	0	0	0
2024-05-15	09:52:59	10:01:17	497336	6.6.1	4_exp_EVA_AWA_CON	29	B	A	Rpleas_acq	Same	Rpleas	1pleas	acq_US_pleas_nomask	acq45_nomask	4	20	400	1	300	300	0	0	431	50	1	0	retten	schlau	fair	treu	ehrlich	schön	rächen	schroff	faul	tot	eitel	schlecht	freundlich	loyal	spielen	helfen	lachen	tolerant	fanatisch	lasch	strafen	hindern	leiden	tyrannisch	1	blank2r.bmp	0	1	+	0	1	blank2r.bmp	500	1	BMVZ	500	1	blank2r.bmp	880	5	ehrlich	880	1	!	1232	1	!	1332	0	0	0	0	0	0
2024-05-15	09:52:59	10:01:19	499654	6.6.1	4_exp_EVA_AWA_CON	29	B	A	Rpleas_acq	Same	Rpleas	1pleas	acq_US_unple_nomask	acq45_nomask	4	21	400	0	300	300	0	0	539	46	1	0	retten	schlau	fair	treu	ehrlich	schön	rächen	schroff	faul	tot	eitel	schlecht	freundlich	loyal	spielen	helfen	lachen	tolerant	fanatisch	lasch	strafen	hindern	leiden	tyrannisch	1	blank2r.bmp	0	1	+	0	1	blank2r.bmp	500	1	GKQX	500	1	blank2r.bmp	880	2	schroff	880	1	!	1232	1	!	-1	0	0	0	0	0	0
2024-05-15	09:52:59	10:01:21	501863	6.6.1	4_exp_EVA_AWA_CON	29	B	A	Rpleas_acq	Same	Rpleas	1pleas	acq_US_pleas_nomask	acq45_nomask	4	22	400	1	300	300	0	0	426	50	1	0	retten	schlau	fair	treu	ehrlich	schön	rächen	schroff	faul	tot	eitel	schlecht	freundlich	loyal	spielen	helfen	lachen	tolerant	fanatisch	lasch	strafen	hindern	leiden	tyrannisch	1	blank2r.bmp	0	1	+	0	1	blank2r.bmp	500	1	BMVZ	500	1	blank2r.bmp	880	1	retten	880	1	!	1232	1	!	1327	0	0	0	0	0	0
2024-05-15	09:52:59	10:01:23	504103	6.6.1	4_exp_EVA_AWA_CON	29	B	A	Rpleas_acq	Same	Rpleas	1pleas	acq_US_pleas_nomask	acq45_nomask	4	23	400	1	300	300	0	0	464	46	0	0	retten	schlau	fair	treu	ehrlich	schön	rächen	schroff	faul	tot	eitel	schlecht	freundlich	loyal	spielen	helfen	lachen	tolerant	fanatisch	lasch	strafen	hindern	leiden	tyrannisch	1	blank2r.bmp	0	1	+	0	1	blank2r.bmp	500	1	BMVZ	500	1	blank2r.bmp	880	6	schön	880	1	!	1232	1	!	1366	0	0	0	0	0	0
2024-05-15	09:52:59	10:01:25	506197	6.6.1	4_exp_EVA_AWA_CON	29	B	A	Rpleas_acq	Same	Rpleas	1pleas	acq_US_unple_nomask	acq45_nomask	4	24	400	0	300	300	0	0	319	46	1	0	retten	schlau	fair	treu	ehrlich	schön	rächen	schroff	faul	tot	eitel	schlecht	freundlich	loyal	spielen	helfen	lachen	tolerant	fanatisch	lasch	strafen	hindern	leiden	tyrannisch	1	blank2r.bmp	0	1	+	0	1	blank2r.bmp	500	1	GKQX	500	1	blank2r.bmp	880	6	schlecht	880	1	!	-1	1	!	-1	0	0	0	0	0	0
2024-05-15	09:52:59	10:01:28	508550	6.6.1	4_exp_EVA_AWA_CON	29	B	A	Rpleas_acq	Same	Rpleas	1pleas	acq_US_pleas_nomask	acq45_nomask	4	25	400	0	300	300	0	0	580	50	1	0	retten	schlau	fair	treu	ehrlich	schön	rächen	schroff	faul	tot	eitel	schlecht	freundlich	loyal	spielen	helfen	lachen	tolerant	fanatisch	lasch	strafen	hindern	leiden	tyrannisch	1	blank2r.bmp	0	1	+	0	1	blank2r.bmp	500	1	BMVZ	500	1	blank2r.bmp	880	2	schlau	880	1	!	1232	1	!	-1	0	0	0	0	0	0
2024-05-15	09:52:59	10:01:30	510902	6.6.1	4_exp_EVA_AWA_CON	29	B	A	Rpleas_acq	Same	Rpleas	1pleas	acq_US_unple_nomask	acq45_nomask	4	26	400	0	300	300	0	0	570	46	1	0	retten	schlau	fair	treu	ehrlich	schön	rächen	schroff	faul	tot	eitel	schlecht	freundlich	loyal	spielen	helfen	lachen	tolerant	fanatisch	lasch	strafen	hindern	leiden	tyrannisch	1	blank2r.bmp	0	1	+	0	1	blank2r.bmp	500	1	GKQX	500	1	blank2r.bmp	880	3	faul	880	1	!	1232	1	!	-1	0	0	0	0	0	0
2024-05-15	09:52:59	10:01:32	513181	6.6.1	4_exp_EVA_AWA_CON	29	B	A	Rpleas_acq	Same	Rpleas	1pleas	acq_US_unple_nomask	acq45_nomask	4	27	400	0	300	300	0	0	499	46	1	0	retten	schlau	fair	treu	ehrlich	schön	rächen	schroff	faul	tot	eitel	schlecht	freundlich	loyal	spielen	helfen	lachen	tolerant	fanatisch	lasch	strafen	hindern	leiden	tyrannisch	1	blank2r.bmp	0	1	+	0	1	blank2r.bmp	500	1	GKQX	500	1	blank2r.bmp	880	4	tot	880	1	!	1232	1	!	-1	0	0	0	0	0	0
2024-05-15	09:52:59	10:01:35	515436	6.6.1	4_exp_EVA_AWA_CON	29	B	A	Rpleas_acq	Same	Rpleas	1pleas	acq_US_unple_nomask	acq45_nomask	4	28	400	0	300	300	0	0	483	46	1	0	retten	schlau	fair	treu	ehrlich	schön	rächen	schroff	faul	tot	eitel	schlecht	freundlich	loyal	spielen	helfen	lachen	tolerant	fanatisch	lasch	strafen	hindern	leiden	tyrannisch	1	blank2r.bmp	0	1	+	0	1	blank2r.bmp	500	1	GKQX	500	1	blank2r.bmp	880	6	schlecht	880	1	!	1232	1	!	-1	0	0	0	0	0	0
2024-05-15	09:52:59	10:01:37	517631	6.6.1	4_exp_EVA_AWA_CON	29	B	A	Rpleas_acq	Same	Rpleas	1pleas	acq_US_unple_nomask	acq45_nomask	4	29	400	1	300	300	0	0	414	46	1	0	retten	schlau	fair	treu	ehrlich	schön	rächen	schroff	faul	tot	eitel	schlecht	freundlich	loyal	spielen	helfen	lachen	tolerant	fanatisch	lasch	strafen	hindern	leiden	tyrannisch	1	blank2r.bmp	0	1	+	0	1	blank2r.bmp	500	1	GKQX	500	1	blank2r.bmp	880	1	rächen	880	1	!	1232	1	!	1315	0	0	0	0	0	0
2024-05-15	09:52:59	10:01:39	519800	6.6.1	4_exp_EVA_AWA_CON	29	B	A	Rpleas_acq	Same	Rpleas	1pleas	acq_US_unple_nomask	acq45_nomask	4	30	400	1	300	300	0	0	390	50	0	0	retten	schlau	fair	treu	ehrlich	schön	rächen	schroff	faul	tot	eitel	schlecht	freundlich	loyal	spielen	helfen	lachen	tolerant	fanatisch	lasch	strafen	hindern	leiden	tyrannisch	1	blank2r.bmp	0	1	+	0	1	blank2r.bmp	500	1	GKQX	500	1	blank2r.bmp	880	2	schroff	880	1	!	1232	1	!	1292	0	0	0	0	0	0
2024-05-15	09:52:59	10:01:41	522205	6.6.1	4_exp_EVA_AWA_CON	29	B	A	Rpleas_acq	Same	Rpleas	1pleas	acq_US_pleas_nomask	acq45_nomask	4	31	400	0	300	300	0	0	627	50	1	0	retten	schlau	fair	treu	ehrlich	schön	rächen	schroff	faul	tot	eitel	schlecht	freundlich	loyal	spielen	helfen	lachen	tolerant	fanatisch	lasch	strafen	hindern	leiden	tyrannisch	1	blank2r.bmp	0	1	+	0	1	blank2r.bmp	500	1	BMVZ	500	1	blank2r.bmp	880	1	retten	880	1	!	1232	1	!	-1	0	0	0	0	0	0
2024-05-15	09:52:59	10:01:44	524277	6.6.1	4_exp_EVA_AWA_CON	29	B	A	Rpleas_acq	Same	Rpleas	1pleas	acq_US_unple_nomask	acq45_nomask	4	32	400	0	300	300	0	0	297	46	1	0	retten	schlau	fair	treu	ehrlich	schön	rächen	schroff	faul	tot	eitel	schlecht	freundlich	loyal	spielen	helfen	lachen	tolerant	fanatisch	lasch	strafen	hindern	leiden	tyrannisch	1	blank2r.bmp	0	1	+	0	1	blank2r.bmp	500	1	GKQX	500	1	blank2r.bmp	880	5	eitel	880	1	!	-1	1	!	-1	0	0	0	0	0	0
2024-05-15	09:52:59	10:01:46	526390	6.6.1	4_exp_EVA_AWA_CON	29	B	A	Rpleas_acq	Same	Rpleas	1pleas	acq_US_pleas_nomask	acq45_nomask	4	33	400	1	300	300	0	0	338	46	0	0	retten	schlau	fair	treu	ehrlich	schön	rächen	schroff	faul	tot	eitel	schlecht	freundlich	loyal	spielen	helfen	lachen	tolerant	fanatisch	lasch	strafen	hindern	leiden	tyrannisch	1	blank2r.bmp	0	1	+	0	1	blank2r.bmp	500	1	BMVZ	500	1	blank2r.bmp	880	6	schön	880	1	!	1232	1	!	1238	0	0	0	0	0	0
2024-05-15	09:52:59	10:01:48	528694	6.6.1	4_exp_EVA_AWA_CON	29	B	A	Rpleas_acq	Same	Rpleas	1pleas	acq_US_pleas_nomask	acq45_nomask	4	34	400	0	300	300	0	0	531	46	0	0	retten	schlau	fair	treu	ehrlich	schön	rächen	schroff	faul	tot	eitel	schlecht	freundlich	loyal	spielen	helfen	lachen	tolerant	fanatisch	lasch	strafen	hindern	leiden	tyrannisch	1	blank2r.bmp	0	1	+	0	1	blank2r.bmp	500	1	BMVZ	500	1	blank2r.bmp	880	3	fair	880	1	!	1232	1	!	-1	0	0	0	0	0	0
2024-05-15	09:52:59	10:01:50	531029	6.6.1	4_exp_EVA_AWA_CON	29	B	A	Rpleas_acq	Same	Rpleas	1pleas	acq_US_pleas_nomask	acq45_nomask	4	35	400	0	300	300	0	0	555	50	1	0	retten	schlau	fair	treu	ehrlich	schön	rächen	schroff	faul	tot	eitel	schlecht	freundlich	loyal	spielen	helfen	lachen	tolerant	fanatisch	lasch	strafen	hindern	leiden	tyrannisch	1	blank2r.bmp	0	1	+	0	1	blank2r.bmp	500	1	BMVZ	500	1	blank2r.bmp	880	5	ehrlich	880	1	!	1232	1	!	-1	0	0	0	0	0	0
2024-05-15	09:52:59	10:01:53	533509	6.6.1	4_exp_EVA_AWA_CON	29	B	A	Rpleas_acq	Same	Rpleas	1pleas	acq_US_pleas_nomask	acq45_nomask	4	36	400	0	300	300	0	0	704	50	1	0	retten	schlau	fair	treu	ehrlich	schön	rächen	schroff	faul	tot	eitel	schlecht	freundlich	loyal	spielen	helfen	lachen	tolerant	fanatisch	lasch	strafen	hindern	leiden	tyrannisch	1	blank2r.bmp	0	1	+	0	1	blank2r.bmp	500	1	BMVZ	500	1	blank2r.bmp	880	4	treu	880	1	!	1232	1	!	-1	0	0	0	0	0	0
2024-05-15	09:52:59	10:02:05	545669	6.6.1	4_exp_EVA_AWA_CON	29	B	A	Rpleas_acq	Same	Rpleas	1pleas	acq_US_unple_nomask	acq45_nomask	5	1	400	0	300	300	0	0	656	46	1	0	retten	schlau	fair	treu	ehrlich	schön	rächen	schroff	faul	tot	eitel	schlecht	freundlich	loyal	spielen	helfen	lachen	tolerant	fanatisch	lasch	strafen	hindern	leiden	tyrannisch	1	blank2r.bmp	0	1	+	0	1	blank2r.bmp	500	1	GKQX	500	1	blank2r.bmp	880	5	eitel	880	1	!	1232	1	!	-1	0	0	0	0	0	0
2024-05-15	09:52:59	10:02:07	547856	6.6.1	4_exp_EVA_AWA_CON	29	B	A	Rpleas_acq	Same	Rpleas	1pleas	acq_US_pleas_nomask	acq45_nomask	5	2	400	1	300	300	0	0	408	46	0	0	retten	schlau	fair	treu	ehrlich	schön	rächen	schroff	faul	tot	eitel	schlecht	freundlich	loyal	spielen	helfen	lachen	tolerant	fanatisch	lasch	strafen	hindern	leiden	tyrannisch	1	blank2r.bmp	0	1	+	0	1	blank2r.bmp	500	1	BMVZ	500	1	blank2r.bmp	880	2	schlau	880	1	!	1232	1	!	1309	0	0	0	0	0	0
2024-05-15	09:52:59	10:02:09	550158	6.6.1	4_exp_EVA_AWA_CON	29	B	A	Rpleas_acq	Same	Rpleas	1pleas	acq_US_unple_nomask	acq45_nomask	5	3	400	0	300	300	0	0	521	46	1	0	retten	schlau	fair	treu	ehrlich	schön	rächen	schroff	faul	tot	eitel	schlecht	freundlich	loyal	spielen	helfen	lachen	tolerant	fanatisch	lasch	strafen	hindern	leiden	tyrannisch	1	blank2r.bmp	0	1	+	0	1	blank2r.bmp	500	1	GKQX	500	1	blank2r.bmp	880	4	tot	880	1	!	1232	1	!	-1	0	0	0	0	0	0
2024-05-15	09:52:59	10:02:12	552351	6.6.1	4_exp_EVA_AWA_CON	29	B	A	Rpleas_acq	Same	Rpleas	1pleas	acq_US_unple_nomask	acq45_nomask	5	4	400	1	300	300	0	0	411	46	1	0	retten	schlau	fair	treu	ehrlich	schön	rächen	schroff	faul	tot	eitel	schlecht	freundlich	loyal	spielen	helfen	lachen	tolerant	fanatisch	lasch	strafen	hindern	leiden	tyrannisch	1	blank2r.bmp	0	1	+	0	1	blank2r.bmp	500	1	GKQX	500	1	blank2r.bmp	880	6	schlecht	880	1	!	1232	1	!	1312	0	0	0	0	0	0
2024-05-15	09:52:59	10:02:14	554613	6.6.1	4_exp_EVA_AWA_CON	29	B	A	Rpleas_acq	Same	Rpleas	1pleas	acq_US_unple_nomask	acq45_nomask	5	5	400	0	300	300	0	0	484	46	1	0	retten	schlau	fair	treu	ehrlich	schön	rächen	schroff	faul	tot	eitel	schlecht	freundlich	loyal	spielen	helfen	lachen	tolerant	fanatisch	lasch	strafen	hindern	leiden	tyrannisch	1	blank2r.bmp	0	1	+	0	1	blank2r.bmp	500	1	GKQX	500	1	blank2r.bmp	880	1	rächen	880	1	!	1232	1	!	-1	0	0	0	0	0	0
2024-05-15	09:52:59	10:02:16	556933	6.6.1	4_exp_EVA_AWA_CON	29	B	A	Rpleas_acq	Same	Rpleas	1pleas	acq_US_pleas_nomask	acq45_nomask	5	6	400	0	300	300	0	0	543	50	1	0	retten	schlau	fair	treu	ehrlich	schön	rächen	schroff	faul	tot	eitel	schlecht	freundlich	loyal	spielen	helfen	lachen	tolerant	fanatisch	lasch	strafen	hindern	leiden	tyrannisch	1	blank2r.bmp	0	1	+	0	1	blank2r.bmp	500	1	BMVZ	500	1	blank2r.bmp	880	5	ehrlich	880	1	!	1233	1	!	-1	0	0	0	0	0	0
2024-05-15	09:52:59	10:02:18	559014	6.6.1	4_exp_EVA_AWA_CON	29	B	A	Rpleas_acq	Same	Rpleas	1pleas	acq_US_unple_nomask	acq45_nomask	5	7	400	0	300	300	0	0	301	46	1	0	retten	schlau	fair	treu	ehrlich	schön	rächen	schroff	faul	tot	eitel	schlecht	freundlich	loyal	spielen	helfen	lachen	tolerant	fanatisch	lasch	strafen	hindern	leiden	tyrannisch	1	blank2r.bmp	0	1	+	0	1	blank2r.bmp	500	1	GKQX	500	1	blank2r.bmp	880	3	faul	880	1	!	-1	1	!	-1	0	0	0	0	0	0
2024-05-15	09:52:59	10:02:20	561191	6.6.1	4_exp_EVA_AWA_CON	29	B	A	Rpleas_acq	Same	Rpleas	1pleas	acq_US_unple_nomask	acq45_nomask	5	8	400	1	300	300	0	0	396	46	1	0	retten	schlau	fair	treu	ehrlich	schön	rächen	schroff	faul	tot	eitel	schlecht	freundlich	loyal	spielen	helfen	lachen	tolerant	fanatisch	lasch	strafen	hindern	leiden	tyrannisch	1	blank2r.bmp	0	1	+	0	1	blank2r.bmp	500	1	GKQX	500	1	blank2r.bmp	880	2	schroff	880	1	!	1232	1	!	1297	0	0	0	0	0	0
2024-05-15	09:52:59	10:02:23	563399	6.6.1	4_exp_EVA_AWA_CON	29	B	A	Rpleas_acq	Same	Rpleas	1pleas	acq_US_pleas_nomask	acq45_nomask	5	9	400	1	300	300	0	0	432	46	0	0	retten	schlau	fair	treu	ehrlich	schön	rächen	schroff	faul	tot	eitel	schlecht	freundlich	loyal	spielen	helfen	lachen	tolerant	fanatisch	lasch	strafen	hindern	leiden	tyrannisch	1	blank2r.bmp	0	1	+	0	1	blank2r.bmp	500	1	BMVZ	500	1	blank2r.bmp	880	4	treu	880	1	!	1233	1	!	1333	0	0	0	0	0	0
2024-05-15	09:52:59	10:02:25	565639	6.6.1	4_exp_EVA_AWA_CON	29	B	A	Rpleas_acq	Same	Rpleas	1pleas	acq_US_pleas_nomask	acq45_nomask	5	10	400	1	300	300	0	0	461	46	0	0	retten	schlau	fair	treu	ehrlich	schön	rächen	schroff	faul	tot	eitel	schlecht	freundlich	loyal	spielen	helfen	lachen	tolerant	fanatisch	lasch	strafen	hindern	leiden	tyrannisch	1	blank2r.bmp	0	1	+	0	1	blank2r.bmp	500	1	BMVZ	500	1	blank2r.bmp	880	3	fair	880	1	!	1232	1	!	1362	0	0	0	0	0	0
2024-05-15	09:52:59	10:02:27	567957	6.6.1	4_exp_EVA_AWA_CON	29	B	A	Rpleas_acq	Same	Rpleas	1pleas	acq_US_unple_nomask	acq45_nomask	5	11	400	0	300	300	0	0	540	46	1	0	retten	schlau	fair	treu	ehrlich	schön	rächen	schroff	faul	tot	eitel	schlecht	freundlich	loyal	spielen	helfen	lachen	tolerant	fanatisch	lasch	strafen	hindern	leiden	tyrannisch	1	blank2r.bmp	0	1	+	0	1	blank2r.bmp	500	1	GKQX	500	1	blank2r.bmp	880	4	tot	880	1	!	1233	1	!	-1	0	0	0	0	0	0
2024-05-15	09:52:59	10:02:29	570087	6.6.1	4_exp_EVA_AWA_CON	29	B	A	Rpleas_acq	Same	Rpleas	1pleas	acq_US_unple_nomask	acq45_nomask	5	12	400	1	300	300	0	0	356	46	1	0	retten	schlau	fair	treu	ehrlich	schön	rächen	schroff	faul	tot	eitel	schlecht	freundlich	loyal	spielen	helfen	lachen	tolerant	fanatisch	lasch	strafen	hindern	leiden	tyrannisch	1	blank2r.bmp	0	1	+	0	1	blank2r.bmp	500	1	GKQX	500	1	blank2r.bmp	880	6	schlecht	880	1	!	1232	1	!	1257	0	0	0	0	0	0
2024-05-15	09:52:59	10:02:32	572405	6.6.1	4_exp_EVA_AWA_CON	29	B	A	Rpleas_acq	Same	Rpleas	1pleas	acq_US_pleas_nomask	acq45_nomask	5	13	400	0	300	300	0	0	545	50	1	0	retten	schlau	fair	treu	ehrlich	schön	rächen	schroff	faul	tot	eitel	schlecht	freundlich	loyal	spielen	helfen	lachen	tolerant	fanatisch	lasch	strafen	hindern	leiden	tyrannisch	1	blank2r.bmp	0	1	+	0	1	blank2r.bmp	500	1	BMVZ	500	1	blank2r.bmp	880	6	schön	880	1	!	1233	1	!	-1	0	0	0	0	0	0
2024-05-15	09:52:59	10:02:34	574733	6.6.1	4_exp_EVA_AWA_CON	29	B	A	Rpleas_acq	Same	Rpleas	1pleas	acq_US_unple_nomask	acq45_nomask	5	14	400	0	300	300	0	0	551	46	1	0	retten	schlau	fair	treu	ehrlich	schön	rächen	schroff	faul	tot	eitel	schlecht	freundlich	loyal	spielen	helfen	lachen	tolerant	fanatisch	lasch	strafen	hindern	leiden	tyrannisch	1	blank2r.bmp	0	1	+	0	1	blank2r.bmp	500	1	GKQX	500	1	blank2r.bmp	880	5	eitel	880	1	!	1232	1	!	-1	0	0	0	0	0	0
2024-05-15	09:52:59	10:02:36	577013	6.6.1	4_exp_EVA_AWA_CON	29	B	A	Rpleas_acq	Same	Rpleas	1pleas	acq_US_pleas_nomask	acq45_nomask	5	15	400	0	300	300	0	0	500	46	0	0	retten	schlau	fair	treu	ehrlich	schön	rächen	schroff	faul	tot	eitel	schlecht	freundlich	loyal	spielen	helfen	lachen	tolerant	fanatisch	lasch	strafen	hindern	leiden	tyrannisch	1	blank2r.bmp	0	1	+	0	1	blank2r.bmp	500	1	BMVZ	500	1	blank2r.bmp	880	1	retten	880	1	!	1232	1	!	-1	0	0	0	0	0	0
2024-05-15	09:52:59	10:02:39	579389	6.6.1	4_exp_EVA_AWA_CON	29	B	A	Rpleas_acq	Same	Rpleas	1pleas	acq_US_pleas_nomask	acq45_nomask	5	16	400	0	300	300	0	0	604	46	0	0	retten	schlau	fair	treu	ehrlich	schön	rächen	schroff	faul	tot	eitel	schlecht	freundlich	loyal	spielen	helfen	lachen	tolerant	fanatisch	lasch	strafen	hindern	leiden	tyrannisch	1	blank2r.bmp	0	1	+	0	1	blank2r.bmp	500	1	BMVZ	500	1	blank2r.bmp	880	1	retten	880	1	!	1232	1	!	-1	0	0	0	0	0	0
2024-05-15	09:52:59	10:02:41	581670	6.6.1	4_exp_EVA_AWA_CON	29	B	A	Rpleas_acq	Same	Rpleas	1pleas	acq_US_pleas_nomask	acq45_nomask	5	17	400	0	300	300	0	0	503	46	0	0	retten	schlau	fair	treu	ehrlich	schön	rächen	schroff	faul	tot	eitel	schlecht	freundlich	loyal	spielen	helfen	lachen	tolerant	fanatisch	lasch	strafen	hindern	leiden	tyrannisch	1	blank2r.bmp	0	1	+	0	1	blank2r.bmp	500	1	BMVZ	500	1	blank2r.bmp	880	3	fair	880	1	!	1232	1	!	-1	0	0	0	0	0	0
2024-05-15	09:52:59	10:02:43	584134	6.6.1	4_exp_EVA_AWA_CON	29	B	A	Rpleas_acq	Same	Rpleas	1pleas	acq_US_pleas_nomask	acq45_nomask	5	18	400	0	300	300	0	0	685	46	0	0	retten	schlau	fair	treu	ehrlich	schön	rächen	schroff	faul	tot	eitel	schlecht	freundlich	loyal	spielen	helfen	lachen	tolerant	fanatisch	lasch	strafen	hindern	leiden	tyrannisch	1	blank2r.bmp	0	1	+	0	1	blank2r.bmp	500	1	BMVZ	500	1	blank2r.bmp	880	5	ehrlich	880	1	!	1232	1	!	-1	0	0	0	0	0	0
2024-05-15	09:52:59	10:02:46	586230	6.6.1	4_exp_EVA_AWA_CON	29	B	A	Rpleas_acq	Same	Rpleas	1pleas	acq_US_pleas_nomask	acq45_nomask	5	19	400	0	300	300	0	0	320	50	1	0	retten	schlau	fair	treu	ehrlich	schön	rächen	schroff	faul	tot	eitel	schlecht	freundlich	loyal	spielen	helfen	lachen	tolerant	fanatisch	lasch	strafen	hindern	leiden	tyrannisch	1	blank2r.bmp	0	1	+	0	1	blank2r.bmp	500	1	BMVZ	500	1	blank2r.bmp	880	4	treu	880	1	!	-1	1	!	-1	0	0	0	0	0	0
2024-05-15	09:52:59	10:02:48	588375	6.6.1	4_exp_EVA_AWA_CON	29	B	A	Rpleas_acq	Same	Rpleas	1pleas	acq_US_unple_nomask	acq45_nomask	5	20	400	1	300	300	0	0	362	46	1	0	retten	schlau	fair	treu	ehrlich	schön	rächen	schroff	faul	tot	eitel	schlecht	freundlich	loyal	spielen	helfen	lachen	tolerant	fanatisch	lasch	strafen	hindern	leiden	tyrannisch	1	blank2r.bmp	0	1	+	0	1	blank2r.bmp	500	1	GKQX	500	1	blank2r.bmp	880	2	schroff	880	1	!	1232	1	!	1263	0	0	0	0	0	0
2024-05-15	09:52:59	10:02:50	590504	6.6.1	4_exp_EVA_AWA_CON	29	B	A	Rpleas_acq	Same	Rpleas	1pleas	acq_US_unple_nomask	acq45_nomask	5	21	400	1	300	300	0	0	349	50	0	0	retten	schlau	fair	treu	ehrlich	schön	rächen	schroff	faul	tot	eitel	schlecht	freundlich	loyal	spielen	helfen	lachen	tolerant	fanatisch	lasch	strafen	hindern	leiden	tyrannisch	1	blank2r.bmp	0	1	+	0	1	blank2r.bmp	500	1	GKQX	500	1	blank2r.bmp	880	1	rächen	880	1	!	1232	1	!	1250	0	0	0	0	0	0
2024-05-15	09:52:59	10:02:52	592614	6.6.1	4_exp_EVA_AWA_CON	29	B	A	Rpleas_acq	Same	Rpleas	1pleas	acq_US_pleas_nomask	acq45_nomask	5	22	400	0	300	300	0	0	329	46	0	0	retten	schlau	fair	treu	ehrlich	schön	rächen	schroff	faul	tot	eitel	schlecht	freundlich	loyal	spielen	helfen	lachen	tolerant	fanatisch	lasch	strafen	hindern	leiden	tyrannisch	1	blank2r.bmp	0	1	+	0	1	blank2r.bmp	500	1	BMVZ	500	1	blank2r.bmp	880	6	schön	880	1	!	-1	1	!	-1	0	0	0	0	0	0
2024-05-15	09:52:59	10:02:54	594791	6.6.1	4_exp_EVA_AWA_CON	29	B	A	Rpleas_acq	Same	Rpleas	1pleas	acq_US_unple_nomask	acq45_nomask	5	23	400	1	300	300	0	0	394	46	1	0	retten	schlau	fair	treu	ehrlich	schön	rächen	schroff	faul	tot	eitel	schlecht	freundlich	loyal	spielen	helfen	lachen	tolerant	fanatisch	lasch	strafen	hindern	leiden	tyrannisch	1	blank2r.bmp	0	1	+	0	1	blank2r.bmp	500	1	GKQX	500	1	blank2r.bmp	880	3	faul	880	1	!	1232	1	!	1295	0	0	0	0	0	0
2024-05-15	09:52:59	10:02:56	597008	6.6.1	4_exp_EVA_AWA_CON	29	B	A	Rpleas_acq	Same	Rpleas	1pleas	acq_US_pleas_nomask	acq45_nomask	5	24	400	1	300	300	0	0	439	50	1	0	retten	schlau	fair	treu	ehrlich	schön	rächen	schroff	faul	tot	eitel	schlecht	freundlich	loyal	spielen	helfen	lachen	tolerant	fanatisch	lasch	strafen	hindern	leiden	tyrannisch	1	blank2r.bmp	0	1	+	0	1	blank2r.bmp	500	1	BMVZ	500	1	blank2r.bmp	880	2	schlau	880	1	!	1232	1	!	1340	0	0	0	0	0	0
2024-05-15	09:52:59	10:02:58	599151	6.6.1	4_exp_EVA_AWA_CON	29	B	A	Rpleas_acq	Same	Rpleas	1pleas	acq_US_pleas_nomask	acq45_nomask	5	25	400	1	300	300	0	0	361	46	0	0	retten	schlau	fair	treu	ehrlich	schön	rächen	schroff	faul	tot	eitel	schlecht	freundlich	loyal	spielen	helfen	lachen	tolerant	fanatisch	lasch	strafen	hindern	leiden	tyrannisch	1	blank2r.bmp	0	1	+	0	1	blank2r.bmp	500	1	BMVZ	500	1	blank2r.bmp	880	3	fair	880	1	!	1232	1	!	1262	0	0	0	0	0	0
2024-05-15	09:52:59	10:03:01	601485	6.6.1	4_exp_EVA_AWA_CON	29	B	A	Rpleas_acq	Same	Rpleas	1pleas	acq_US_unple_nomask	acq45_nomask	5	26	400	0	300	300	0	0	556	46	1	0	retten	schlau	fair	treu	ehrlich	schön	rächen	schroff	faul	tot	eitel	schlecht	freundlich	loyal	spielen	helfen	lachen	tolerant	fanatisch	lasch	strafen	hindern	leiden	tyrannisch	1	blank2r.bmp	0	1	+	0	1	blank2r.bmp	500	1	GKQX	500	1	blank2r.bmp	880	6	schlecht	880	1	!	1233	1	!	-1	0	0	0	0	0	0
2024-05-15	09:52:59	10:03:03	603704	6.6.1	4_exp_EVA_AWA_CON	29	B	A	Rpleas_acq	Same	Rpleas	1pleas	acq_US_unple_nomask	acq45_nomask	5	27	400	1	300	300	0	0	440	46	1	0	retten	schlau	fair	treu	ehrlich	schön	rächen	schroff	faul	tot	eitel	schlecht	freundlich	loyal	spielen	helfen	lachen	tolerant	fanatisch	lasch	strafen	hindern	leiden	tyrannisch	1	blank2r.bmp	0	1	+	0	1	blank2r.bmp	500	1	GKQX	500	1	blank2r.bmp	880	2	schroff	880	1	!	1232	1	!	1342	0	0	0	0	0	0
2024-05-15	09:52:59	10:03:05	605855	6.6.1	4_exp_EVA_AWA_CON	29	B	A	Rpleas_acq	Same	Rpleas	1pleas	acq_US_unple_nomask	acq45_nomask	5	28	400	1	300	300	0	0	371	50	0	0	retten	schlau	fair	treu	ehrlich	schön	rächen	schroff	faul	tot	eitel	schlecht	freundlich	loyal	spielen	helfen	lachen	tolerant	fanatisch	lasch	strafen	hindern	leiden	tyrannisch	1	blank2r.bmp	0	1	+	0	1	blank2r.bmp	500	1	GKQX	500	1	blank2r.bmp	880	1	rächen	880	1	!	1232	1	!	1272	0	0	0	0	0	0
2024-05-15	09:52:59	10:03:07	608016	6.6.1	4_exp_EVA_AWA_CON	29	B	A	Rpleas_acq	Same	Rpleas	1pleas	acq_US_unple_nomask	acq45_nomask	5	29	400	1	300	300	0	0	380	46	1	0	retten	schlau	fair	treu	ehrlich	schön	rächen	schroff	faul	tot	eitel	schlecht	freundlich	loyal	spielen	helfen	lachen	tolerant	fanatisch	lasch	strafen	hindern	leiden	tyrannisch	1	blank2r.bmp	0	1	+	0	1	blank2r.bmp	500	1	GKQX	500	1	blank2r.bmp	880	3	faul	880	1	!	1232	1	!	1282	0	0	0	0	0	0
2024-05-15	09:52:59	10:03:09	610216	6.6.1	4_exp_EVA_AWA_CON	29	B	A	Rpleas_acq	Same	Rpleas	1pleas	acq_US_pleas_nomask	acq45_nomask	5	30	400	1	300	300	0	0	418	50	1	0	retten	schlau	fair	treu	ehrlich	schön	rächen	schroff	faul	tot	eitel	schlecht	freundlich	loyal	spielen	helfen	lachen	tolerant	fanatisch	lasch	strafen	hindern	leiden	tyrannisch	1	blank2r.bmp	0	1	+	0	1	blank2r.bmp	500	1	BMVZ	500	1	blank2r.bmp	880	1	retten	880	1	!	1233	1	!	1320	0	0	0	0	0	0
2024-05-15	09:52:59	10:03:12	612581	6.6.1	4_exp_EVA_AWA_CON	29	B	A	Rpleas_acq	Same	Rpleas	1pleas	acq_US_unple_nomask	acq45_nomask	5	31	400	0	300	300	0	0	585	50	0	0	retten	schlau	fair	treu	ehrlich	schön	rächen	schroff	faul	tot	eitel	schlecht	freundlich	loyal	spielen	helfen	lachen	tolerant	fanatisch	lasch	strafen	hindern	leiden	tyrannisch	1	blank2r.bmp	0	1	+	0	1	blank2r.bmp	500	1	GKQX	500	1	blank2r.bmp	880	5	eitel	880	1	!	1232	1	!	-1	0	0	0	0	0	0
2024-05-15	09:52:59	10:03:14	614791	6.6.1	4_exp_EVA_AWA_CON	29	B	A	Rpleas_acq	Same	Rpleas	1pleas	acq_US_pleas_nomask	acq45_nomask	5	32	400	1	300	300	0	0	431	50	1	0	retten	schlau	fair	treu	ehrlich	schön	rächen	schroff	faul	tot	eitel	schlecht	freundlich	loyal	spielen	helfen	lachen	tolerant	fanatisch	lasch	strafen	hindern	leiden	tyrannisch	1	blank2r.bmp	0	1	+	0	1	blank2r.bmp	500	1	BMVZ	500	1	blank2r.bmp	880	6	schön	880	1	!	1232	1	!	1332	0	0	0	0	0	0
2024-05-15	09:52:59	10:03:16	617117	6.6.1	4_exp_EVA_AWA_CON	29	B	A	Rpleas_acq	Same	Rpleas	1pleas	acq_US_pleas_nomask	acq45_nomask	5	33	400	0	300	300	0	0	548	50	1	0	retten	schlau	fair	treu	ehrlich	schön	rächen	schroff	faul	tot	eitel	schlecht	freundlich	loyal	spielen	helfen	lachen	tolerant	fanatisch	lasch	strafen	hindern	leiden	tyrannisch	1	blank2r.bmp	0	1	+	0	1	blank2r.bmp	500	1	BMVZ	500	1	blank2r.bmp	880	2	schlau	880	1	!	1232	1	!	-1	0	0	0	0	0	0
2024-05-15	09:52:59	10:03:19	619272	6.6.1	4_exp_EVA_AWA_CON	29	B	A	Rpleas_acq	Same	Rpleas	1pleas	acq_US_pleas_nomask	acq45_nomask	5	34	400	1	300	300	0	0	379	50	1	0	retten	schlau	fair	treu	ehrlich	schön	rächen	schroff	faul	tot	eitel	schlecht	freundlich	loyal	spielen	helfen	lachen	tolerant	fanatisch	lasch	strafen	hindern	leiden	tyrannisch	1	blank2r.bmp	0	1	+	0	1	blank2r.bmp	500	1	BMVZ	500	1	blank2r.bmp	880	4	treu	880	1	!	1233	1	!	1280	0	0	0	0	0	0
2024-05-15	09:52:59	10:03:21	621415	6.6.1	4_exp_EVA_AWA_CON	29	B	A	Rpleas_acq	Same	Rpleas	1pleas	acq_US_pleas_nomask	acq45_nomask	5	35	400	1	300	300	0	0	361	46	0	0	retten	schlau	fair	treu	ehrlich	schön	rächen	schroff	faul	tot	eitel	schlecht	freundlich	loyal	spielen	helfen	lachen	tolerant	fanatisch	lasch	strafen	hindern	leiden	tyrannisch	1	blank2r.bmp	0	1	+	0	1	blank2r.bmp	500	1	BMVZ	500	1	blank2r.bmp	880	5	ehrlich	880	1	!	1232	1	!	1262	0	0	0	0	0	0
2024-05-15	09:52:59	10:03:23	623534	6.6.1	4_exp_EVA_AWA_CON	29	B	A	Rpleas_acq	Same	Rpleas	1pleas	acq_US_unple_nomask	acq45_nomask	5	36	400	1	300	300	0	0	340	46	1	0	retten	schlau	fair	treu	ehrlich	schön	rächen	schroff	faul	tot	eitel	schlecht	freundlich	loyal	spielen	helfen	lachen	tolerant	fanatisch	lasch	strafen	hindern	leiden	tyrannisch	1	blank2r.bmp	0	1	+	0	1	blank2r.bmp	500	1	GKQX	500	1	blank2r.bmp	880	4	tot	880	1	!	1232	1	!	1239	0	0	0	0	0	0
2024-05-15	09:52:59	10:04:02	662250	6.6.1	4_exp_EVA_AWA_CON	29	B	A	Rpleas_acq	Same	Rpleas	1pleas	EvalRating_firsttwo	EvalRating_firsttwo	6	1	0	0	300	300	0	0	22947	line	0	-14,9739583333333285964pct	retten	schlau	fair	treu	ehrlich	schön	rächen	schroff	faul	tot	eitel	schlecht	freundlich	loyal	spielen	helfen	lachen	tolerant	fanatisch	lasch	strafen	hindern	leiden	tyrannisch	1		-8	1	Wie angenehm oder unangenehm finden Sie die  Buchstabenkette ZGVK?	-8	1		-8	1		-8	1		-8	1	Unangenehm	-8	1	Angenehm	-8	0	0	0	0	0	0	0	0	0
2024-05-15	09:52:59	10:04:11	671377	6.6.1	4_exp_EVA_AWA_CON	29	B	A	Rpleas_acq	Same	Rpleas	1pleas	EvalRating_lastfour	EvalRating_lastfour	7	1	0	0	300	300	0	0	6748	line	0	-52,34375pct	retten	schlau	fair	treu	ehrlich	schön	rächen	schroff	faul	tot	eitel	schlecht	freundlich	loyal	spielen	helfen	lachen	tolerant	fanatisch	lasch	strafen	hindern	leiden	tyrannisch	1		-8	3	Wie angenehm oder unangenehm finden Sie die  Buchstabenkette XBQM?	-8	1		-8	1		-8	1		-8	1	Unangenehm	-8	1	Angenehm	-8	0	0	0	0	0	0	0	0	0
2024-05-15	09:52:59	10:04:13	673748	6.6.1	4_exp_EVA_AWA_CON	29	B	A	Rpleas_acq	Same	Rpleas	1pleas	blank_screen	EvalRating_lastfour	7	3	0	0	300	300	0	0	0	0	0	-52,34375pct	retten	schlau	fair	treu	ehrlich	schön	rächen	schroff	faul	tot	eitel	schlecht	freundlich	loyal	spielen	helfen	lachen	tolerant	fanatisch	lasch	strafen	hindern	leiden	tyrannisch	1		-8	0	0	0	0	0	0	0	0	0	0	0	0	0	0	0	0	0	0	0	0	0	0	0	0	0	0	0
2024-05-15	09:52:59	10:04:17	677915	6.6.1	4_exp_EVA_AWA_CON	29	B	A	Rpleas_acq	Same	Rpleas	1pleas	EvalRating_lastfour	EvalRating_lastfour	7	4	0	0	300	300	0	0	3578	line	0	-60,9375pct	retten	schlau	fair	treu	ehrlich	schön	rächen	schroff	faul	tot	eitel	schlecht	freundlich	loyal	spielen	helfen	lachen	tolerant	fanatisch	lasch	strafen	hindern	leiden	tyrannisch	1		-8	1	Wie angenehm oder unangenehm finden Sie die  Buchstabenkette BMVZ?	-8	1		-8	1		-8	1		-8	1	Unangenehm	-8	1	Angenehm	-8	0	0	0	0	0	0	0	0	0
2024-05-15	09:52:59	10:04:20	680282	6.6.1	4_exp_EVA_AWA_CON	29	B	A	Rpleas_acq	Same	Rpleas	1pleas	blank_screen	EvalRating_lastfour	7	6	0	0	300	300	0	0	0	0	0	-60,9375pct	retten	schlau	fair	treu	ehrlich	schön	rächen	schroff	faul	tot	eitel	schlecht	freundlich	loyal	spielen	helfen	lachen	tolerant	fanatisch	lasch	strafen	hindern	leiden	tyrannisch	1		-8	0	0	0	0	0	0	0	0	0	0	0	0	0	0	0	0	0	0	0	0	0	0	0	0	0	0	0
2024-05-15	09:52:59	10:04:27	687491	6.6.1	4_exp_EVA_AWA_CON	29	B	A	Rpleas_acq	Same	Rpleas	1pleas	EvalRating_lastfour	EvalRating_lastfour	7	7	0	0	300	300	0	0	6621	line	0	-45,3125pct	retten	schlau	fair	treu	ehrlich	schön	rächen	schroff	faul	tot	eitel	schlecht	freundlich	loyal	spielen	helfen	lachen	tolerant	fanatisch	lasch	strafen	hindern	leiden	tyrannisch	1		-8	2	Wie angenehm oder unangenehm finden Sie die  Buchstabenkette GKQX?	-8	1		-8	1		-8	1		-8	1	Unangenehm	-8	1	Angenehm	-8	0	0	0	0	0	0	0	0	0
2024-05-15	09:52:59	10:05:10	731123	6.6.1	4_exp_EVA_AWA_CON	29	B	A	Rpleas_acq	Same	Rpleas	1pleas	conawa_CS2_US4	conawa1_nomask	8	1	0	0	300	300	0	0	14020	treu	1	-45,3125pct	retten	schlau	fair	treu	ehrlich	schön	rächen	schroff	faul	tot	eitel	schlecht	freundlich	loyal	spielen	helfen	lachen	tolerant	fanatisch	lasch	strafen	hindern	leiden	tyrannisch	0	0	0	0	0	0	0	0	0	0	0	0	0	0	0	0	0	0	0	0	0	0	0	0	0	0	0	0	0	0
2024-05-15	09:52:59	10:05:10	731124	6.6.1	4_exp_EVA_AWA_CON	29	B	A	Rpleas_acq	Same	Rpleas	1pleas	conawa_CS2_US4_confidence	conawa1_nomask	8	1	0	0	300	300	0	0	14020	guess	1	-45,3125pct	retten	schlau	fair	treu	ehrlich	schön	rächen	schroff	faul	tot	eitel	schlecht	freundlich	loyal	spielen	helfen	lachen	tolerant	fanatisch	lasch	strafen	hindern	leiden	tyrannisch	0	0	0	0	0	0	0	0	0	0	0	0	0	0	0	0	0	0	0	0	0	0	0	0	0	0	0	0	0	0
2024-05-15	09:52:59	10:05:17	737277	6.6.1	4_exp_EVA_AWA_CON	29	B	A	Rpleas_acq	Same	Rpleas	1pleas	conawa_CS1_US2	conawa1_nomask	8	2	0	0	300	300	0	0	5533	schroff	1	-45,3125pct	retten	schlau	fair	treu	ehrlich	schön	rächen	schroff	faul	tot	eitel	schlecht	freundlich	loyal	spielen	helfen	lachen	tolerant	fanatisch	lasch	strafen	hindern	leiden	tyrannisch	0	0	0	0	0	0	0	0	0	0	0	0	0	0	0	0	0	0	0	0	0	0	0	0	0	0	0	0	0	0
2024-05-15	09:52:59	10:05:17	737279	6.6.1	4_exp_EVA_AWA_CON	29	B	A	Rpleas_acq	Same	Rpleas	1pleas	conawa_CS1_US2_confidence	conawa1_nomask	8	2	0	0	300	300	0	0	5533	guess	1	-45,3125pct	retten	schlau	fair	treu	ehrlich	schön	rächen	schroff	faul	tot	eitel	schlecht	freundlich	loyal	spielen	helfen	lachen	tolerant	fanatisch	lasch	strafen	hindern	leiden	tyrannisch	0	0	0	0	0	0	0	0	0	0	0	0	0	0	0	0	0	0	0	0	0	0	0	0	0	0	0	0	0	0
2024-05-15	09:52:59	10:05:27	747613	6.6.1	4_exp_EVA_AWA_CON	29	B	A	Rpleas_acq	Same	Rpleas	1pleas	conawa_CS2_US2	conawa1_nomask	8	3	0	0	300	300	0	0	9718	schroff	1	-45,3125pct	retten	schlau	fair	treu	ehrlich	schön	rächen	schroff	faul	tot	eitel	schlecht	freundlich	loyal	spielen	helfen	lachen	tolerant	fanatisch	lasch	strafen	hindern	leiden	tyrannisch	0	0	0	0	0	0	0	0	0	0	0	0	0	0	0	0	0	0	0	0	0	0	0	0	0	0	0	0	0	0
2024-05-15	09:52:59	10:05:27	747615	6.6.1	4_exp_EVA_AWA_CON	29	B	A	Rpleas_acq	Same	Rpleas	1pleas	conawa_CS2_US2_confidence	conawa1_nomask	8	3	0	0	300	300	0	0	9718	probably	1	-45,3125pct	retten	schlau	fair	treu	ehrlich	schön	rächen	schroff	faul	tot	eitel	schlecht	freundlich	loyal	spielen	helfen	lachen	tolerant	fanatisch	lasch	strafen	hindern	leiden	tyrannisch	0	0	0	0	0	0	0	0	0	0	0	0	0	0	0	0	0	0	0	0	0	0	0	0	0	0	0	0	0	0
2024-05-15	09:52:59	10:05:32	752697	6.6.1	4_exp_EVA_AWA_CON	29	B	A	Rpleas_acq	Same	Rpleas	1pleas	conawa_CS1_US4	conawa1_nomask	8	4	0	0	300	300	0	0	4469	helfen	1	-45,3125pct	retten	schlau	fair	treu	ehrlich	schön	rächen	schroff	faul	tot	eitel	schlecht	freundlich	loyal	spielen	helfen	lachen	tolerant	fanatisch	lasch	strafen	hindern	leiden	tyrannisch	0	0	0	0	0	0	0	0	0	0	0	0	0	0	0	0	0	0	0	0	0	0	0	0	0	0	0	0	0	0
2024-05-15	09:52:59	10:05:32	752699	6.6.1	4_exp_EVA_AWA_CON	29	B	A	Rpleas_acq	Same	Rpleas	1pleas	conawa_CS1_US4_confidence	conawa1_nomask	8	4	0	0	300	300	0	0	4469	probably	1	-45,3125pct	retten	schlau	fair	treu	ehrlich	schön	rächen	schroff	faul	tot	eitel	schlecht	freundlich	loyal	spielen	helfen	lachen	tolerant	fanatisch	lasch	strafen	hindern	leiden	tyrannisch	0	0	0	0	0	0	0	0	0	0	0	0	0	0	0	0	0	0	0	0	0	0	0	0	0	0	0	0	0	0
2024-05-15	09:52:59	10:05:43	763264	6.6.1	4_exp_EVA_AWA_CON	29	B	A	Rpleas_acq	Same	Rpleas	1pleas	conawa_CS1_US6	conawa1_nomask	8	5	0	0	300	300	0	0	9955	schön	1	-45,3125pct	retten	schlau	fair	treu	ehrlich	schön	rächen	schroff	faul	tot	eitel	schlecht	freundlich	loyal	spielen	helfen	lachen	tolerant	fanatisch	lasch	strafen	hindern	leiden	tyrannisch	0	0	0	0	0	0	0	0	0	0	0	0	0	0	0	0	0	0	0	0	0	0	0	0	0	0	0	0	0	0
2024-05-15	09:52:59	10:05:43	763265	6.6.1	4_exp_EVA_AWA_CON	29	B	A	Rpleas_acq	Same	Rpleas	1pleas	conawa_CS1_US6_confidence	conawa1_nomask	8	5	0	0	300	300	0	0	9955	guess	1	-45,3125pct	retten	schlau	fair	treu	ehrlich	schön	rächen	schroff	faul	tot	eitel	schlecht	freundlich	loyal	spielen	helfen	lachen	tolerant	fanatisch	lasch	strafen	hindern	leiden	tyrannisch	0	0	0	0	0	0	0	0	0	0	0	0	0	0	0	0	0	0	0	0	0	0	0	0	0	0	0	0	0	0
2024-05-15	09:52:59	10:05:54	774291	6.6.1	4_exp_EVA_AWA_CON	29	B	A	Rpleas_acq	Same	Rpleas	1pleas	conawa_CS1_US1	conawa1_nomask	8	6	0	0	300	300	0	0	10412	fanatisch	1	-45,3125pct	retten	schlau	fair	treu	ehrlich	schön	rächen	schroff	faul	tot	eitel	schlecht	freundlich	loyal	spielen	helfen	lachen	tolerant	fanatisch	lasch	strafen	hindern	leiden	tyrannisch	0	0	0	0	0	0	0	0	0	0	0	0	0	0	0	0	0	0	0	0	0	0	0	0	0	0	0	0	0	0
2024-05-15	09:52:59	10:05:54	774293	6.6.1	4_exp_EVA_AWA_CON	29	B	A	Rpleas_acq	Same	Rpleas	1pleas	conawa_CS1_US1_confidence	conawa1_nomask	8	6	0	0	300	300	0	0	10412	guess	1	-45,3125pct	retten	schlau	fair	treu	ehrlich	schön	rächen	schroff	faul	tot	eitel	schlecht	freundlich	loyal	spielen	helfen	lachen	tolerant	fanatisch	lasch	strafen	hindern	leiden	tyrannisch	0	0	0	0	0	0	0	0	0	0	0	0	0	0	0	0	0	0	0	0	0	0	0	0	0	0	0	0	0	0
2024-05-15	09:52:59	10:06:05	785648	6.6.1	4_exp_EVA_AWA_CON	29	B	A	Rpleas_acq	Same	Rpleas	1pleas	conawa_CS1_US3	conawa1_nomask	8	7	0	0	300	300	0	0	10738	faul	1	-45,3125pct	retten	schlau	fair	treu	ehrlich	schön	rächen	schroff	faul	tot	eitel	schlecht	freundlich	loyal	spielen	helfen	lachen	tolerant	fanatisch	lasch	strafen	hindern	leiden	tyrannisch	0	0	0	0	0	0	0	0	0	0	0	0	0	0	0	0	0	0	0	0	0	0	0	0	0	0	0	0	0	0
2024-05-15	09:52:59	10:06:05	785650	6.6.1	4_exp_EVA_AWA_CON	29	B	A	Rpleas_acq	Same	Rpleas	1pleas	conawa_CS1_US3_confidence	conawa1_nomask	8	7	0	0	300	300	0	0	10738	probably	1	-45,3125pct	retten	schlau	fair	treu	ehrlich	schön	rächen	schroff	faul	tot	eitel	schlecht	freundlich	loyal	spielen	helfen	lachen	tolerant	fanatisch	lasch	strafen	hindern	leiden	tyrannisch	0	0	0	0	0	0	0	0	0	0	0	0	0	0	0	0	0	0	0	0	0	0	0	0	0	0	0	0	0	0
2024-05-15	09:52:59	10:06:11	791992	6.6.1	4_exp_EVA_AWA_CON	29	B	A	Rpleas_acq	Same	Rpleas	1pleas	conawa_CS2_US6	conawa1_nomask	8	8	0	0	300	300	0	0	5729	schlecht	1	-45,3125pct	retten	schlau	fair	treu	ehrlich	schön	rächen	schroff	faul	tot	eitel	schlecht	freundlich	loyal	spielen	helfen	lachen	tolerant	fanatisch	lasch	strafen	hindern	leiden	tyrannisch	0	0	0	0	0	0	0	0	0	0	0	0	0	0	0	0	0	0	0	0	0	0	0	0	0	0	0	0	0	0
2024-05-15	09:52:59	10:06:11	791994	6.6.1	4_exp_EVA_AWA_CON	29	B	A	Rpleas_acq	Same	Rpleas	1pleas	conawa_CS2_US6_confidence	conawa1_nomask	8	8	0	0	300	300	0	0	5729	probably	1	-45,3125pct	retten	schlau	fair	treu	ehrlich	schön	rächen	schroff	faul	tot	eitel	schlecht	freundlich	loyal	spielen	helfen	lachen	tolerant	fanatisch	lasch	strafen	hindern	leiden	tyrannisch	0	0	0	0	0	0	0	0	0	0	0	0	0	0	0	0	0	0	0	0	0	0	0	0	0	0	0	0	0	0
2024-05-15	09:52:59	10:06:24	804990	6.6.1	4_exp_EVA_AWA_CON	29	B	A	Rpleas_acq	Same	Rpleas	1pleas	conawa_CS2_US1	conawa1_nomask	8	9	0	0	300	300	0	0	12379	rächen	1	-45,3125pct	retten	schlau	fair	treu	ehrlich	schön	rächen	schroff	faul	tot	eitel	schlecht	freundlich	loyal	spielen	helfen	lachen	tolerant	fanatisch	lasch	strafen	hindern	leiden	tyrannisch	0	0	0	0	0	0	0	0	0	0	0	0	0	0	0	0	0	0	0	0	0	0	0	0	0	0	0	0	0	0
2024-05-15	09:52:59	10:06:24	804992	6.6.1	4_exp_EVA_AWA_CON	29	B	A	Rpleas_acq	Same	Rpleas	1pleas	conawa_CS2_US1_confidence	conawa1_nomask	8	9	0	0	300	300	0	0	12379	probably	1	-45,3125pct	retten	schlau	fair	treu	ehrlich	schön	rächen	schroff	faul	tot	eitel	schlecht	freundlich	loyal	spielen	helfen	lachen	tolerant	fanatisch	lasch	strafen	hindern	leiden	tyrannisch	0	0	0	0	0	0	0	0	0	0	0	0	0	0	0	0	0	0	0	0	0	0	0	0	0	0	0	0	0	0
2024-05-15	09:52:59	10:06:34	814777	6.6.1	4_exp_EVA_AWA_CON	29	B	A	Rpleas_acq	Same	Rpleas	1pleas	conawa_CS2_US3	conawa1_nomask	8	10	0	0	300	300	0	0	9171	hindern	1	-45,3125pct	retten	schlau	fair	treu	ehrlich	schön	rächen	schroff	faul	tot	eitel	schlecht	freundlich	loyal	spielen	helfen	lachen	tolerant	fanatisch	lasch	strafen	hindern	leiden	tyrannisch	0	0	0	0	0	0	0	0	0	0	0	0	0	0	0	0	0	0	0	0	0	0	0	0	0	0	0	0	0	0
2024-05-15	09:52:59	10:06:34	814778	6.6.1	4_exp_EVA_AWA_CON	29	B	A	Rpleas_acq	Same	Rpleas	1pleas	conawa_CS2_US3_confidence	conawa1_nomask	8	10	0	0	300	300	0	0	9171	probably	1	-45,3125pct	retten	schlau	fair	treu	ehrlich	schön	rächen	schroff	faul	tot	eitel	schlecht	freundlich	loyal	spielen	helfen	lachen	tolerant	fanatisch	lasch	strafen	hindern	leiden	tyrannisch	0	0	0	0	0	0	0	0	0	0	0	0	0	0	0	0	0	0	0	0	0	0	0	0	0	0	0	0	0	0
2024-05-15	09:52:59	10:06:49	829716	6.6.1	4_exp_EVA_AWA_CON	29	B	A	Rpleas_acq	Same	Rpleas	1pleas	conawa_CS1_US5	conawa1_nomask	8	11	0	0	300	300	0	0	14322	ehrlich	1	-45,3125pct	retten	schlau	fair	treu	ehrlich	schön	rächen	schroff	faul	tot	eitel	schlecht	freundlich	loyal	spielen	helfen	lachen	tolerant	fanatisch	lasch	strafen	hindern	leiden	tyrannisch	0	0	0	0	0	0	0	0	0	0	0	0	0	0	0	0	0	0	0	0	0	0	0	0	0	0	0	0	0	0
2024-05-15	09:52:59	10:06:49	829718	6.6.1	4_exp_EVA_AWA_CON	29	B	A	Rpleas_acq	Same	Rpleas	1pleas	conawa_CS1_US5_confidence	conawa1_nomask	8	11	0	0	300	300	0	0	14322	guess	1	-45,3125pct	retten	schlau	fair	treu	ehrlich	schön	rächen	schroff	faul	tot	eitel	schlecht	freundlich	loyal	spielen	helfen	lachen	tolerant	fanatisch	lasch	strafen	hindern	leiden	tyrannisch	0	0	0	0	0	0	0	0	0	0	0	0	0	0	0	0	0	0	0	0	0	0	0	0	0	0	0	0	0	0
2024-05-15	09:52:59	10:07:05	845496	6.6.1	4_exp_EVA_AWA_CON	29	B	A	Rpleas_acq	Same	Rpleas	1pleas	conawa_CS2_US5	conawa1_nomask	8	12	0	0	300	300	0	0	15159	tyrannisch	1	-45,3125pct	retten	schlau	fair	treu	ehrlich	schön	rächen	schroff	faul	tot	eitel	schlecht	freundlich	loyal	spielen	helfen	lachen	tolerant	fanatisch	lasch	strafen	hindern	leiden	tyrannisch	0	0	0	0	0	0	0	0	0	0	0	0	0	0	0	0	0	0	0	0	0	0	0	0	0	0	0	0	0	0
2024-05-15	09:52:59	10:07:05	845498	6.6.1	4_exp_EVA_AWA_CON	29	B	A	Rpleas_acq	Same	Rpleas	1pleas	conawa_CS2_US5_confidence	conawa1_nomask	8	12	0	0	300	300	0	0	15159	probably	1	-45,3125pct	retten	schlau	fair	treu	ehrlich	schön	rächen	schroff	faul	tot	eitel	schlecht	freundlich	loyal	spielen	helfen	lachen	tolerant	fanatisch	lasch	strafen	hindern	leiden	tyrannisch	0	0	0	0	0	0	0	0	0	0	0	0	0	0	0	0	0	0	0	0	0	0	0	0	0	0	0	0	0	0
2024-05-15	09:52:59	10:08:30	930999	6.6.1	4_exp_EVA_AWA_CON	29	B	A	Rpleas_acq	Same	Rpleas	1pleas	cond_new_pleas_456_nomask_CS1	condtest_nomask_1	11	1	400	1	300	300	0	0	386	50	1	-45,3125pct	retten	schlau	fair	treu	ehrlich	schön	rächen	schroff	faul	tot	eitel	schlecht	freundlich	loyal	spielen	helfen	lachen	tolerant	fanatisch	lasch	strafen	hindern	leiden	tyrannisch	1	blank2r.bmp	0	1	+	0	1	blank2r.bmp	500	1	BMVZ	500	1	blank2r.bmp	880	1	helfen	880	1	!	1232	1	!	1287	0	0	0	0	0	0
2024-05-15	09:52:59	10:08:33	933261	6.6.1	4_exp_EVA_AWA_CON	29	B	A	Rpleas_acq	Same	Rpleas	1pleas	cond_US_pleas_123_nomask_CS1	condtest_nomask_1	11	2	400	0	300	300	0	0	489	50	1	-45,3125pct	retten	schlau	fair	treu	ehrlich	schön	rächen	schroff	faul	tot	eitel	schlecht	freundlich	loyal	spielen	helfen	lachen	tolerant	fanatisch	lasch	strafen	hindern	leiden	tyrannisch	1	blank2r.bmp	0	1	+	0	1	blank2r.bmp	500	1	BMVZ	500	1	blank2r.bmp	880	2	schlau	880	1	!	1232	1	!	-1	0	0	0	0	0	0
2024-05-15	09:52:59	10:08:35	935621	6.6.1	4_exp_EVA_AWA_CON	29	B	A	Rpleas_acq	Same	Rpleas	1pleas	cond_US_unple_123_nomask_CS1	condtest_nomask_1	11	3	400	0	300	300	0	0	587	46	1	-45,3125pct	retten	schlau	fair	treu	ehrlich	schön	rächen	schroff	faul	tot	eitel	schlecht	freundlich	loyal	spielen	helfen	lachen	tolerant	fanatisch	lasch	strafen	hindern	leiden	tyrannisch	1	blank2r.bmp	0	1	+	0	1	blank2r.bmp	500	1	BMVZ	500	1	blank2r.bmp	880	1	rächen	880	1	!	1233	1	!	-1	0	0	0	0	0	0
2024-05-15	09:52:59	10:08:37	937831	6.6.1	4_exp_EVA_AWA_CON	29	B	A	Rpleas_acq	Same	Rpleas	1pleas	cond_new_pleas_456_nomask_CS2	condtest_nomask_1	11	4	400	1	300	300	0	0	434	50	1	-45,3125pct	retten	schlau	fair	treu	ehrlich	schön	rächen	schroff	faul	tot	eitel	schlecht	freundlich	loyal	spielen	helfen	lachen	tolerant	fanatisch	lasch	strafen	hindern	leiden	tyrannisch	1	blank2r.bmp	0	1	+	0	1	blank2r.bmp	500	1	GKQX	500	1	blank2r.bmp	880	3	lachen	880	1	!	1233	1	!	1335	0	0	0	0	0	0
2024-05-15	09:52:59	10:08:39	940079	6.6.1	4_exp_EVA_AWA_CON	29	B	A	Rpleas_acq	Same	Rpleas	1pleas	cond_US_unple_123_nomask_CS2	condtest_nomask_1	11	5	400	1	300	300	0	0	470	46	1	-45,3125pct	retten	schlau	fair	treu	ehrlich	schön	rächen	schroff	faul	tot	eitel	schlecht	freundlich	loyal	spielen	helfen	lachen	tolerant	fanatisch	lasch	strafen	hindern	leiden	tyrannisch	1	blank2r.bmp	0	1	+	0	1	blank2r.bmp	500	1	GKQX	500	1	blank2r.bmp	880	2	rächen	880	1	!	1232	1	!	1372	0	0	0	0	0	0
2024-05-15	09:52:59	10:08:42	942421	6.6.1	4_exp_EVA_AWA_CON	29	B	A	Rpleas_acq	Same	Rpleas	1pleas	cond_US_pleas_123_nomask_CS2	condtest_nomask_1	11	6	400	0	300	300	0	0	563	50	1	-45,3125pct	retten	schlau	fair	treu	ehrlich	schön	rächen	schroff	faul	tot	eitel	schlecht	freundlich	loyal	spielen	helfen	lachen	tolerant	fanatisch	lasch	strafen	hindern	leiden	tyrannisch	1	blank2r.bmp	0	1	+	0	1	blank2r.bmp	500	1	GKQX	500	1	blank2r.bmp	880	2	retten	880	1	!	1232	1	!	-1	0	0	0	0	0	0
2024-05-15	09:52:59	10:08:44	944575	6.6.1	4_exp_EVA_AWA_CON	29	B	A	Rpleas_acq	Same	Rpleas	1pleas	cond_new_unple_456_nomask_CS1	condtest_nomask_1	11	7	400	1	300	300	0	0	374	46	1	-45,3125pct	retten	schlau	fair	treu	ehrlich	schön	rächen	schroff	faul	tot	eitel	schlecht	freundlich	loyal	spielen	helfen	lachen	tolerant	fanatisch	lasch	strafen	hindern	leiden	tyrannisch	1	blank2r.bmp	0	1	+	0	1	blank2r.bmp	500	1	BMVZ	500	1	blank2r.bmp	880	2	leiden	880	1	!	1232	1	!	1275	0	0	0	0	0	0
2024-05-15	09:52:59	10:08:46	946792	6.6.1	4_exp_EVA_AWA_CON	29	B	A	Rpleas_acq	Same	Rpleas	1pleas	cond_new_unple_456_nomask_CS2	condtest_nomask_1	11	8	400	1	300	300	0	0	438	46	1	-45,3125pct	retten	schlau	fair	treu	ehrlich	schön	rächen	schroff	faul	tot	eitel	schlecht	freundlich	loyal	spielen	helfen	lachen	tolerant	fanatisch	lasch	strafen	hindern	leiden	tyrannisch	1	blank2r.bmp	0	1	+	0	1	blank2r.bmp	500	1	GKQX	500	1	blank2r.bmp	880	3	leiden	880	1	!	1233	1	!	1339	0	0	0	0	0	0
2024-05-15	09:52:59	10:08:57	957541	6.6.1	4_exp_EVA_AWA_CON	29	B	A	Rpleas_acq	Same	Rpleas	1pleas	cond_US_pleas_123_nomask_CS1	condtest_nomask_2	12	1	400	0	300	300	0	0	533	46	0	-45,3125pct	retten	schlau	fair	treu	ehrlich	schön	rächen	schroff	faul	tot	eitel	schlecht	freundlich	loyal	spielen	helfen	lachen	tolerant	fanatisch	lasch	strafen	hindern	leiden	tyrannisch	1	blank2r.bmp	0	1	+	0	1	blank2r.bmp	500	1	BMVZ	500	1	blank2r.bmp	880	3	fair	880	1	!	1232	1	!	-1	0	0	0	0	0	0
2024-05-15	09:52:59	10:08:59	959813	6.6.1	4_exp_EVA_AWA_CON	29	B	A	Rpleas_acq	Same	Rpleas	1pleas	cond_US_unple_123_nomask_CS2	condtest_nomask_2	12	2	400	0	300	300	0	0	494	46	1	-45,3125pct	retten	schlau	fair	treu	ehrlich	schön	rächen	schroff	faul	tot	eitel	schlecht	freundlich	loyal	spielen	helfen	lachen	tolerant	fanatisch	lasch	strafen	hindern	leiden	tyrannisch	1	blank2r.bmp	0	1	+	0	1	blank2r.bmp	500	1	GKQX	500	1	blank2r.bmp	880	3	schroff	880	1	!	1233	1	!	-1	0	0	0	0	0	0
