date	time	currenttime	elapsedtime	build	currentexpt	subject	CS_AB	US_AB	LRpleas_acq	SameOppo	condition_Lpleas	condition_1pleas	trialcode	blockcode	blocknum	trialnum	windowcenter	inwindow	pretrialpause	posttrialpause	trialduration	trialtimeout	latency	response	correct	correctedscore	US_nomask_pleas1	US_nomask_pleas2	US_nomask_pleas3	US_nomask_pleas4	US_nomask_pleas5	US_nomask_pleas6	US_nomask_unple1	US_nomask_unple2	US_nomask_unple3	US_nomask_unple4	US_nomask_unple5	US_nomask_unple6	new_nomask_pleas1	new_nomask_pleas2	new_nomask_pleas3	new_nomask_pleas4	new_nomask_pleas5	new_nomask_pleas6	new_nomask_unple1	new_nomask_unple2	new_nomask_unple3	new_nomask_unple4	new_nomask_unple5	new_nomask_unple6	stimulusnumber1	stimulusitem1	stimulusonset1	stimulusnumber2	stimulusitem2	stimulusonset2	stimulusnumber3	stimulusitem3	stimulusonset3	stimulusnumber4	stimulusitem4	stimulusonset4	stimulusnumber5	stimulusitem5	stimulusonset5	stimulusnumber6	stimulusitem6	stimulusonset6	stimulusnumber7	stimulusitem7	stimulusonset7	stimulusnumber8	stimulusitem8	stimulusonset8	stimulusnumber9	stimulusitem9	stimulusonset9	stimulusnumber10	stimulusitem10	stimulusonset10
2024-05-22	09:39:31	09:41:58	146575	6.6.1	4_exp_EVA_AWA_CON	44	B	A	Rpleas_acq	Oppo	Rpleas	2pleas	acq_new_pleas_nomask	acq1_nomask	1	1	0	0	300	300	0	0	1282	50	1	0	loyal	fair	retten	helfen	treu	lachen	lasch	faul	rächen	hindern	tot	leiden	tolerant	ehrlich	spielen	schön	freundlich	schlau	tyrannisch	eitel	strafen	schlecht	fanatisch	schroff	1	blank2r.bmp	0	1	+	0	1	blank2r.bmp	500	6	C2r.bmp	500	1	blank2r.bmp	880	5	freundlich	880	0	0	0	0	0	0	0	0	0	0	0	0
2024-05-22	09:39:31	09:42:01	149703	6.6.1	4_exp_EVA_AWA_CON	44	B	A	Rpleas_acq	Oppo	Rpleas	2pleas	acq_US_pleas_nomask	acq1_nomask	1	2	0	0	300	300	0	0	1638	50	1	0	loyal	fair	retten	helfen	treu	lachen	lasch	faul	rächen	hindern	tot	leiden	tolerant	ehrlich	spielen	schön	freundlich	schlau	tyrannisch	eitel	strafen	schlecht	fanatisch	schroff	1	blank2r.bmp	0	1	+	0	1	blank2r.bmp	500	1	GKQX	500	1	blank2r.bmp	880	6	lachen	880	0	0	0	0	0	0	0	0	0	0	0	0
2024-05-22	09:39:31	09:42:03	152042	6.6.1	4_exp_EVA_AWA_CON	44	B	A	Rpleas_acq	Oppo	Rpleas	2pleas	acq_US_unple_nomask	acq1_nomask	1	3	0	0	300	300	0	0	854	46	1	0	loyal	fair	retten	helfen	treu	lachen	lasch	faul	rächen	hindern	tot	leiden	tolerant	ehrlich	spielen	schön	freundlich	schlau	tyrannisch	eitel	strafen	schlecht	fanatisch	schroff	1	blank2r.bmp	0	1	+	0	1	blank2r.bmp	500	1	BMVZ	500	1	blank2r.bmp	880	6	leiden	880	0	0	0	0	0	0	0	0	0	0	0	0
2024-05-22	09:39:31	09:42:07	155343	6.6.1	4_exp_EVA_AWA_CON	44	B	A	Rpleas_acq	Oppo	Rpleas	2pleas	acq_US_unple_nomask	acq1_nomask	1	4	0	0	300	300	0	0	1815	46	1	0	loyal	fair	retten	helfen	treu	lachen	lasch	faul	rächen	hindern	tot	leiden	tolerant	ehrlich	spielen	schön	freundlich	schlau	tyrannisch	eitel	strafen	schlecht	fanatisch	schroff	1	blank2r.bmp	0	1	+	0	1	blank2r.bmp	500	1	BMVZ	500	1	blank2r.bmp	880	5	tot	880	0	0	0	0	0	0	0	0	0	0	0	0
2024-05-22	09:39:31	09:42:09	158007	6.6.1	4_exp_EVA_AWA_CON	44	B	A	Rpleas_acq	Oppo	Rpleas	2pleas	acq_US_unple_nomask	acq1_nomask	1	5	0	0	300	300	0	0	1177	46	1	0	loyal	fair	retten	helfen	treu	lachen	lasch	faul	rächen	hindern	tot	leiden	tolerant	ehrlich	spielen	schön	freundlich	schlau	tyrannisch	eitel	strafen	schlecht	fanatisch	schroff	1	blank2r.bmp	0	1	+	0	1	blank2r.bmp	500	1	BMVZ	500	1	blank2r.bmp	880	3	rächen	880	0	0	0	0	0	0	0	0	0	0	0	0
2024-05-22	09:39:31	09:42:12	160608	6.6.1	4_exp_EVA_AWA_CON	44	B	A	Rpleas_acq	Oppo	Rpleas	2pleas	acq_new_unple_nomask	acq1_nomask	1	6	0	0	300	300	0	0	915	50	0	0	loyal	fair	retten	helfen	treu	lachen	lasch	faul	rächen	hindern	tot	leiden	tolerant	ehrlich	spielen	schön	freundlich	schlau	tyrannisch	eitel	strafen	schlecht	fanatisch	schroff	1	blank2r.bmp	0	1	+	0	1	blank2r.bmp	500	2	B2r.bmp	500	1	blank2r.bmp	880	5	fanatisch	880	1	FEHLER	1816	0	0	0	0	0	0	0	0	0
2024-05-22	09:39:31	09:42:15	163975	6.6.1	4_exp_EVA_AWA_CON	44	B	A	Rpleas_acq	Oppo	Rpleas	2pleas	acq_new_unple_nomask	acq1_nomask	1	7	0	0	300	300	0	0	2081	46	1	0	loyal	fair	retten	helfen	treu	lachen	lasch	faul	rächen	hindern	tot	leiden	tolerant	ehrlich	spielen	schön	freundlich	schlau	tyrannisch	eitel	strafen	schlecht	fanatisch	schroff	1	blank2r.bmp	0	1	+	0	1	blank2r.bmp	500	7	C3r.bmp	500	1	blank2r.bmp	880	2	eitel	880	0	0	0	0	0	0	0	0	0	0	0	0
2024-05-22	09:39:31	09:42:18	166583	6.6.1	4_exp_EVA_AWA_CON	44	B	A	Rpleas_acq	Oppo	Rpleas	2pleas	acq_new_unple_nomask	acq1_nomask	1	8	0	0	300	300	0	0	1127	46	1	0	loyal	fair	retten	helfen	treu	lachen	lasch	faul	rächen	hindern	tot	leiden	tolerant	ehrlich	spielen	schön	freundlich	schlau	tyrannisch	eitel	strafen	schlecht	fanatisch	schroff	1	blank2r.bmp	0	1	+	0	1	blank2r.bmp	500	8	C4r.bmp	500	1	blank2r.bmp	880	1	tyrannisch	880	0	0	0	0	0	0	0	0	0	0	0	0
2024-05-22	09:39:31	09:42:21	169839	6.6.1	4_exp_EVA_AWA_CON	44	B	A	Rpleas_acq	Oppo	Rpleas	2pleas	acq_US_pleas_nomask	acq1_nomask	1	9	0	0	300	300	0	0	1771	50	1	0	loyal	fair	retten	helfen	treu	lachen	lasch	faul	rächen	hindern	tot	leiden	tolerant	ehrlich	spielen	schön	freundlich	schlau	tyrannisch	eitel	strafen	schlecht	fanatisch	schroff	1	blank2r.bmp	0	1	+	0	1	blank2r.bmp	500	1	GKQX	500	1	blank2r.bmp	880	4	helfen	880	0	0	0	0	0	0	0	0	0	0	0	0
2024-05-22	09:39:31	09:42:24	172303	6.6.1	4_exp_EVA_AWA_CON	44	B	A	Rpleas_acq	Oppo	Rpleas	2pleas	acq_US_pleas_nomask	acq1_nomask	1	10	0	0	300	300	0	0	983	50	1	0	loyal	fair	retten	helfen	treu	lachen	lasch	faul	rächen	hindern	tot	leiden	tolerant	ehrlich	spielen	schön	freundlich	schlau	tyrannisch	eitel	strafen	schlecht	fanatisch	schroff	1	blank2r.bmp	0	1	+	0	1	blank2r.bmp	500	1	GKQX	500	1	blank2r.bmp	880	5	treu	880	0	0	0	0	0	0	0	0	0	0	0	0
2024-05-22	09:39:31	09:42:26	174631	6.6.1	4_exp_EVA_AWA_CON	44	B	A	Rpleas_acq	Oppo	Rpleas	2pleas	acq_new_pleas_nomask	acq1_nomask	1	11	0	0	300	300	0	0	840	50	1	0	loyal	fair	retten	helfen	treu	lachen	lasch	faul	rächen	hindern	tot	leiden	tolerant	ehrlich	spielen	schön	freundlich	schlau	tyrannisch	eitel	strafen	schlecht	fanatisch	schroff	1	blank2r.bmp	0	1	+	0	1	blank2r.bmp	500	1	B1r.bmp	500	1	blank2r.bmp	880	2	ehrlich	880	0	0	0	0	0	0	0	0	0	0	0	0
2024-05-22	09:39:31	09:42:28	176743	6.6.1	4_exp_EVA_AWA_CON	44	B	A	Rpleas_acq	Oppo	Rpleas	2pleas	acq_new_pleas_nomask	acq1_nomask	1	12	0	0	300	300	0	0	630	50	1	0	loyal	fair	retten	helfen	treu	lachen	lasch	faul	rächen	hindern	tot	leiden	tolerant	ehrlich	spielen	schön	freundlich	schlau	tyrannisch	eitel	strafen	schlecht	fanatisch	schroff	1	blank2r.bmp	0	1	+	0	1	blank2r.bmp	500	4	B4r.bmp	500	1	blank2r.bmp	880	4	schön	880	0	0	0	0	0	0	0	0	0	0	0	0
2024-05-22	09:39:31	09:42:30	178951	6.6.1	4_exp_EVA_AWA_CON	44	B	A	Rpleas_acq	Oppo	Rpleas	2pleas	acq_new_pleas_nomask	acq1_nomask	1	13	0	0	300	300	0	0	727	50	1	0	loyal	fair	retten	helfen	treu	lachen	lasch	faul	rächen	hindern	tot	leiden	tolerant	ehrlich	spielen	schön	freundlich	schlau	tyrannisch	eitel	strafen	schlecht	fanatisch	schroff	1	blank2r.bmp	0	1	+	0	1	blank2r.bmp	500	3	B3r.bmp	500	1	blank2r.bmp	880	6	schlau	880	0	0	0	0	0	0	0	0	0	0	0	0
2024-05-22	09:39:31	09:42:32	180991	6.6.1	4_exp_EVA_AWA_CON	44	B	A	Rpleas_acq	Oppo	Rpleas	2pleas	acq_US_pleas_nomask	acq1_nomask	1	14	0	0	300	300	0	0	555	50	1	0	loyal	fair	retten	helfen	treu	lachen	lasch	faul	rächen	hindern	tot	leiden	tolerant	ehrlich	spielen	schön	freundlich	schlau	tyrannisch	eitel	strafen	schlecht	fanatisch	schroff	1	blank2r.bmp	0	1	+	0	1	blank2r.bmp	500	1	GKQX	500	1	blank2r.bmp	880	3	retten	880	0	0	0	0	0	0	0	0	0	0	0	0
2024-05-22	09:39:31	09:42:35	183159	6.6.1	4_exp_EVA_AWA_CON	44	B	A	Rpleas_acq	Oppo	Rpleas	2pleas	acq_US_unple_nomask	acq1_nomask	1	15	0	0	300	300	0	0	682	46	1	0	loyal	fair	retten	helfen	treu	lachen	lasch	faul	rächen	hindern	tot	leiden	tolerant	ehrlich	spielen	schön	freundlich	schlau	tyrannisch	eitel	strafen	schlecht	fanatisch	schroff	1	blank2r.bmp	0	1	+	0	1	blank2r.bmp	500	1	BMVZ	500	1	blank2r.bmp	880	2	faul	880	0	0	0	0	0	0	0	0	0	0	0	0
2024-05-22	09:39:31	09:42:37	185527	6.6.1	4_exp_EVA_AWA_CON	44	B	A	Rpleas_acq	Oppo	Rpleas	2pleas	acq_new_pleas_nomask	acq1_nomask	1	16	0	0	300	300	0	0	879	50	1	0	loyal	fair	retten	helfen	treu	lachen	lasch	faul	rächen	hindern	tot	leiden	tolerant	ehrlich	spielen	schön	freundlich	schlau	tyrannisch	eitel	strafen	schlecht	fanatisch	schroff	1	blank2r.bmp	0	1	+	0	1	blank2r.bmp	500	5	C1r.bmp	500	1	blank2r.bmp	880	3	spielen	880	0	0	0	0	0	0	0	0	0	0	0	0
2024-05-22	09:39:31	09:42:39	187807	6.6.1	4_exp_EVA_AWA_CON	44	B	A	Rpleas_acq	Oppo	Rpleas	2pleas	acq_US_pleas_nomask	acq1_nomask	1	17	0	0	300	300	0	0	797	50	1	0	loyal	fair	retten	helfen	treu	lachen	lasch	faul	rächen	hindern	tot	leiden	tolerant	ehrlich	spielen	schön	freundlich	schlau	tyrannisch	eitel	strafen	schlecht	fanatisch	schroff	1	blank2r.bmp	0	1	+	0	1	blank2r.bmp	500	1	GKQX	500	1	blank2r.bmp	880	1	loyal	880	0	0	0	0	0	0	0	0	0	0	0	0
2024-05-22	09:39:31	09:42:41	189975	6.6.1	4_exp_EVA_AWA_CON	44	B	A	Rpleas_acq	Oppo	Rpleas	2pleas	acq_US_pleas_nomask	acq1_nomask	1	18	0	0	300	300	0	0	684	50	1	0	loyal	fair	retten	helfen	treu	lachen	lasch	faul	rächen	hindern	tot	leiden	tolerant	ehrlich	spielen	schön	freundlich	schlau	tyrannisch	eitel	strafen	schlecht	fanatisch	schroff	1	blank2r.bmp	0	1	+	0	1	blank2r.bmp	500	1	GKQX	500	1	blank2r.bmp	880	2	fair	880	0	0	0	0	0	0	0	0	0	0	0	0
2024-05-22	09:39:31	09:42:44	192111	6.6.1	4_exp_EVA_AWA_CON	44	B	A	Rpleas_acq	Oppo	Rpleas	2pleas	acq_new_unple_nomask	acq1_nomask	1	19	0	0	300	300	0	0	648	46	1	0	loyal	fair	retten	helfen	treu	lachen	lasch	faul	rächen	hindern	tot	leiden	tolerant	ehrlich	spielen	schön	freundlich	schlau	tyrannisch	eitel	strafen	schlecht	fanatisch	schroff	1	blank2r.bmp	0	1	+	0	1	blank2r.bmp	500	3	B3r.bmp	500	1	blank2r.bmp	880	6	schroff	880	0	0	0	0	0	0	0	0	0	0	0	0
2024-05-22	09:39:31	09:42:46	194279	6.6.1	4_exp_EVA_AWA_CON	44	B	A	Rpleas_acq	Oppo	Rpleas	2pleas	acq_US_unple_nomask	acq1_nomask	1	20	0	0	300	300	0	0	685	46	1	0	loyal	fair	retten	helfen	treu	lachen	lasch	faul	rächen	hindern	tot	leiden	tolerant	ehrlich	spielen	schön	freundlich	schlau	tyrannisch	eitel	strafen	schlecht	fanatisch	schroff	1	blank2r.bmp	0	1	+	0	1	blank2r.bmp	500	1	BMVZ	500	1	blank2r.bmp	880	4	hindern	880	0	0	0	0	0	0	0	0	0	0	0	0
2024-05-22	09:39:31	09:42:48	196463	6.6.1	4_exp_EVA_AWA_CON	44	B	A	Rpleas_acq	Oppo	Rpleas	2pleas	acq_US_unple_nomask	acq1_nomask	1	21	0	0	300	300	0	0	697	46	1	0	loyal	fair	retten	helfen	treu	lachen	lasch	faul	rächen	hindern	tot	leiden	tolerant	ehrlich	spielen	schön	freundlich	schlau	tyrannisch	eitel	strafen	schlecht	fanatisch	schroff	1	blank2r.bmp	0	1	+	0	1	blank2r.bmp	500	1	BMVZ	500	1	blank2r.bmp	880	1	lasch	880	0	0	0	0	0	0	0	0	0	0	0	0
2024-05-22	09:39:31	09:42:50	198615	6.6.1	4_exp_EVA_AWA_CON	44	B	A	Rpleas_acq	Oppo	Rpleas	2pleas	acq_new_unple_nomask	acq1_nomask	1	22	0	0	300	300	0	0	668	46	1	0	loyal	fair	retten	helfen	treu	lachen	lasch	faul	rächen	hindern	tot	leiden	tolerant	ehrlich	spielen	schön	freundlich	schlau	tyrannisch	eitel	strafen	schlecht	fanatisch	schroff	1	blank2r.bmp	0	1	+	0	1	blank2r.bmp	500	7	C3r.bmp	500	1	blank2r.bmp	880	3	strafen	880	0	0	0	0	0	0	0	0	0	0	0	0
2024-05-22	09:39:31	09:42:53	201351	6.6.1	4_exp_EVA_AWA_CON	44	B	A	Rpleas_acq	Oppo	Rpleas	2pleas	acq_new_pleas_nomask	acq1_nomask	1	23	0	0	300	300	0	0	1253	50	1	0	loyal	fair	retten	helfen	treu	lachen	lasch	faul	rächen	hindern	tot	leiden	tolerant	ehrlich	spielen	schön	freundlich	schlau	tyrannisch	eitel	strafen	schlecht	fanatisch	schroff	1	blank2r.bmp	0	1	+	0	1	blank2r.bmp	500	1	B1r.bmp	500	1	blank2r.bmp	880	1	tolerant	880	0	0	0	0	0	0	0	0	0	0	0	0
2024-05-22	09:39:31	09:42:57	205463	6.6.1	4_exp_EVA_AWA_CON	44	B	A	Rpleas_acq	Oppo	Rpleas	2pleas	acq_new_unple_nomask	acq1_nomask	1	24	0	0	300	300	0	0	2623	46	1	0	loyal	fair	retten	helfen	treu	lachen	lasch	faul	rächen	hindern	tot	leiden	tolerant	ehrlich	spielen	schön	freundlich	schlau	tyrannisch	eitel	strafen	schlecht	fanatisch	schroff	1	blank2r.bmp	0	1	+	0	1	blank2r.bmp	500	8	C4r.bmp	500	1	blank2r.bmp	880	4	schlecht	880	0	0	0	0	0	0	0	0	0	0	0	0
2024-05-22	09:39:31	09:42:59	207791	6.6.1	4_exp_EVA_AWA_CON	44	B	A	Rpleas_acq	Oppo	Rpleas	2pleas	acq_new_unple_nomask	acq1_nomask	1	25	0	0	300	300	0	0	838	46	1	0	loyal	fair	retten	helfen	treu	lachen	lasch	faul	rächen	hindern	tot	leiden	tolerant	ehrlich	spielen	schön	freundlich	schlau	tyrannisch	eitel	strafen	schlecht	fanatisch	schroff	1	blank2r.bmp	0	1	+	0	1	blank2r.bmp	500	5	C1r.bmp	500	1	blank2r.bmp	880	1	tyrannisch	880	0	0	0	0	0	0	0	0	0	0	0	0
2024-05-22	09:39:31	09:43:01	209871	6.6.1	4_exp_EVA_AWA_CON	44	B	A	Rpleas_acq	Oppo	Rpleas	2pleas	acq_new_unple_nomask	acq1_nomask	1	26	0	0	300	300	0	0	597	46	1	0	loyal	fair	retten	helfen	treu	lachen	lasch	faul	rächen	hindern	tot	leiden	tolerant	ehrlich	spielen	schön	freundlich	schlau	tyrannisch	eitel	strafen	schlecht	fanatisch	schroff	1	blank2r.bmp	0	1	+	0	1	blank2r.bmp	500	6	C2r.bmp	500	1	blank2r.bmp	880	6	schroff	880	0	0	0	0	0	0	0	0	0	0	0	0
2024-05-22	09:39:31	09:43:03	211927	6.6.1	4_exp_EVA_AWA_CON	44	B	A	Rpleas_acq	Oppo	Rpleas	2pleas	acq_US_unple_nomask	acq1_nomask	1	27	0	0	300	300	0	0	571	46	1	0	loyal	fair	retten	helfen	treu	lachen	lasch	faul	rächen	hindern	tot	leiden	tolerant	ehrlich	spielen	schön	freundlich	schlau	tyrannisch	eitel	strafen	schlecht	fanatisch	schroff	1	blank2r.bmp	0	1	+	0	1	blank2r.bmp	500	1	BMVZ	500	1	blank2r.bmp	880	3	rächen	880	0	0	0	0	0	0	0	0	0	0	0	0
2024-05-22	09:39:31	09:43:06	214257	6.6.1	4_exp_EVA_AWA_CON	44	B	A	Rpleas_acq	Oppo	Rpleas	2pleas	acq_US_pleas_nomask	acq1_nomask	1	28	0	0	300	300	0	0	638	46	0	0	loyal	fair	retten	helfen	treu	lachen	lasch	faul	rächen	hindern	tot	leiden	tolerant	ehrlich	spielen	schön	freundlich	schlau	tyrannisch	eitel	strafen	schlecht	fanatisch	schroff	1	blank2r.bmp	0	1	+	0	1	blank2r.bmp	500	1	GKQX	500	1	blank2r.bmp	880	1	loyal	880	1	FEHLER	1540	0	0	0	0	0	0	0	0	0
2024-05-22	09:39:31	09:43:08	216191	6.6.1	4_exp_EVA_AWA_CON	44	B	A	Rpleas_acq	Oppo	Rpleas	2pleas	acq_US_unple_nomask	acq1_nomask	1	29	0	0	300	300	0	0	653	46	1	0	loyal	fair	retten	helfen	treu	lachen	lasch	faul	rächen	hindern	tot	leiden	tolerant	ehrlich	spielen	schön	freundlich	schlau	tyrannisch	eitel	strafen	schlecht	fanatisch	schroff	1	blank2r.bmp	0	1	+	0	1	blank2r.bmp	500	1	BMVZ	500	1	blank2r.bmp	880	4	hindern	880	0	0	0	0	0	0	0	0	0	0	0	0
2024-05-22	09:39:31	09:43:10	218231	6.6.1	4_exp_EVA_AWA_CON	44	B	A	Rpleas_acq	Oppo	Rpleas	2pleas	acq_US_unple_nomask	acq1_nomask	1	30	0	0	300	300	0	0	551	46	1	0	loyal	fair	retten	helfen	treu	lachen	lasch	faul	rächen	hindern	tot	leiden	tolerant	ehrlich	spielen	schön	freundlich	schlau	tyrannisch	eitel	strafen	schlecht	fanatisch	schroff	1	blank2r.bmp	0	1	+	0	1	blank2r.bmp	500	1	BMVZ	500	1	blank2r.bmp	880	1	lasch	880	0	0	0	0	0	0	0	0	0	0	0	0
2024-05-22	09:39:31	09:43:12	220135	6.6.1	4_exp_EVA_AWA_CON	44	B	A	Rpleas_acq	Oppo	Rpleas	2pleas	acq_new_pleas_nomask	acq1_nomask	1	31	0	0	300	300	0	0	414	50	1	0	loyal	fair	retten	helfen	treu	lachen	lasch	faul	rächen	hindern	tot	leiden	tolerant	ehrlich	spielen	schön	freundlich	schlau	tyrannisch	eitel	strafen	schlecht	fanatisch	schroff	1	blank2r.bmp	0	1	+	0	1	blank2r.bmp	500	4	B4r.bmp	500	1	blank2r.bmp	880	2	ehrlich	880	0	0	0	0	0	0	0	0	0	0	0	0
2024-05-22	09:39:31	09:43:14	222103	6.6.1	4_exp_EVA_AWA_CON	44	B	A	Rpleas_acq	Oppo	Rpleas	2pleas	acq_new_pleas_nomask	acq1_nomask	1	32	0	0	300	300	0	0	481	50	1	0	loyal	fair	retten	helfen	treu	lachen	lasch	faul	rächen	hindern	tot	leiden	tolerant	ehrlich	spielen	schön	freundlich	schlau	tyrannisch	eitel	strafen	schlecht	fanatisch	schroff	1	blank2r.bmp	0	1	+	0	1	blank2r.bmp	500	2	B2r.bmp	500	1	blank2r.bmp	880	4	schön	880	0	0	0	0	0	0	0	0	0	0	0	0
2024-05-22	09:39:31	09:43:16	224103	6.6.1	4_exp_EVA_AWA_CON	44	B	A	Rpleas_acq	Oppo	Rpleas	2pleas	acq_new_pleas_nomask	acq1_nomask	1	33	0	0	300	300	0	0	510	50	1	0	loyal	fair	retten	helfen	treu	lachen	lasch	faul	rächen	hindern	tot	leiden	tolerant	ehrlich	spielen	schön	freundlich	schlau	tyrannisch	eitel	strafen	schlecht	fanatisch	schroff	1	blank2r.bmp	0	1	+	0	1	blank2r.bmp	500	4	B4r.bmp	500	1	blank2r.bmp	880	3	spielen	880	0	0	0	0	0	0	0	0	0	0	0	0
2024-05-22	09:39:31	09:43:18	226265	6.6.1	4_exp_EVA_AWA_CON	44	B	A	Rpleas_acq	Oppo	Rpleas	2pleas	acq_new_unple_nomask	acq1_nomask	1	34	0	0	300	300	0	0	478	50	0	0	loyal	fair	retten	helfen	treu	lachen	lasch	faul	rächen	hindern	tot	leiden	tolerant	ehrlich	spielen	schön	freundlich	schlau	tyrannisch	eitel	strafen	schlecht	fanatisch	schroff	1	blank2r.bmp	0	1	+	0	1	blank2r.bmp	500	8	C4r.bmp	500	1	blank2r.bmp	880	5	fanatisch	880	1	FEHLER	1380	0	0	0	0	0	0	0	0	0
2024-05-22	09:39:31	09:43:20	228479	6.6.1	4_exp_EVA_AWA_CON	44	B	A	Rpleas_acq	Oppo	Rpleas	2pleas	acq_US_pleas_nomask	acq1_nomask	1	35	0	0	300	300	0	0	933	50	1	0	loyal	fair	retten	helfen	treu	lachen	lasch	faul	rächen	hindern	tot	leiden	tolerant	ehrlich	spielen	schön	freundlich	schlau	tyrannisch	eitel	strafen	schlecht	fanatisch	schroff	1	blank2r.bmp	0	1	+	0	1	blank2r.bmp	500	1	GKQX	500	1	blank2r.bmp	880	6	lachen	880	0	0	0	0	0	0	0	0	0	0	0	0
2024-05-22	09:39:31	09:43:23	231375	6.6.1	4_exp_EVA_AWA_CON	44	B	A	Rpleas_acq	Oppo	Rpleas	2pleas	acq_US_pleas_nomask	acq1_nomask	1	36	0	0	300	300	0	0	1408	50	1	0	loyal	fair	retten	helfen	treu	lachen	lasch	faul	rächen	hindern	tot	leiden	tolerant	ehrlich	spielen	schön	freundlich	schlau	tyrannisch	eitel	strafen	schlecht	fanatisch	schroff	1	blank2r.bmp	0	1	+	0	1	blank2r.bmp	500	1	GKQX	500	1	blank2r.bmp	880	2	fair	880	0	0	0	0	0	0	0	0	0	0	0	0
2024-05-22	09:39:31	09:44:19	287329	6.6.1	4_exp_EVA_AWA_CON	44	B	A	Rpleas_acq	Oppo	Rpleas	2pleas	acq_new_pleas_nomask	acq2_nomask	2	1	480	0	300	300	0	0	1776	50	1	0	loyal	fair	retten	helfen	treu	lachen	lasch	faul	rächen	hindern	tot	leiden	tolerant	ehrlich	spielen	schön	freundlich	schlau	tyrannisch	eitel	strafen	schlecht	fanatisch	schroff	1	blank2r.bmp	0	1	+	0	1	blank2r.bmp	500	1	B1r.bmp	500	1	blank2r.bmp	880	6	schlau	880	1	!	1312	1	!	-1	0	0	0	0	0	0
2024-05-22	09:39:31	09:44:21	289932	6.6.1	4_exp_EVA_AWA_CON	44	B	A	Rpleas_acq	Oppo	Rpleas	2pleas	acq_new_unple_nomask	acq2_nomask	2	2	480	0	300	300	0	0	624	50	0	0	loyal	fair	retten	helfen	treu	lachen	lasch	faul	rächen	hindern	tot	leiden	tolerant	ehrlich	spielen	schön	freundlich	schlau	tyrannisch	eitel	strafen	schlecht	fanatisch	schroff	1	blank2r.bmp	0	1	+	0	1	blank2r.bmp	500	3	B3r.bmp	500	1	blank2r.bmp	880	2	eitel	880	1	FEHLER	1817	1	!	1313	1	!	-1	0	0	0
2024-05-22	09:39:31	09:44:27	295953	6.6.1	4_exp_EVA_AWA_CON	44	B	A	Rpleas_acq	Oppo	Rpleas	2pleas	acq_new_pleas_nomask	acq2_nomask	2	3	480	0	300	300	0	0	4446	50	1	0	loyal	fair	retten	helfen	treu	lachen	lasch	faul	rächen	hindern	tot	leiden	tolerant	ehrlich	spielen	schön	freundlich	schlau	tyrannisch	eitel	strafen	schlecht	fanatisch	schroff	1	blank2r.bmp	0	1	+	0	1	blank2r.bmp	500	7	C3r.bmp	500	1	blank2r.bmp	880	1	tolerant	880	1	!	1312	1	!	-1	0	0	0	0	0	0
2024-05-22	09:39:31	09:44:30	298328	6.6.1	4_exp_EVA_AWA_CON	44	B	A	Rpleas_acq	Oppo	Rpleas	2pleas	acq_new_unple_nomask	acq2_nomask	2	4	480	0	300	300	0	0	598	46	1	0	loyal	fair	retten	helfen	treu	lachen	lasch	faul	rächen	hindern	tot	leiden	tolerant	ehrlich	spielen	schön	freundlich	schlau	tyrannisch	eitel	strafen	schlecht	fanatisch	schroff	1	blank2r.bmp	0	1	+	0	1	blank2r.bmp	500	6	C2r.bmp	500	1	blank2r.bmp	880	4	schlecht	880	1	!	1312	1	!	-1	0	0	0	0	0	0
2024-05-22	09:39:31	09:44:32	300881	6.6.1	4_exp_EVA_AWA_CON	44	B	A	Rpleas_acq	Oppo	Rpleas	2pleas	acq_US_pleas_nomask	acq2_nomask	2	5	480	0	300	300	0	0	779	50	1	0	loyal	fair	retten	helfen	treu	lachen	lasch	faul	rächen	hindern	tot	leiden	tolerant	ehrlich	spielen	schön	freundlich	schlau	tyrannisch	eitel	strafen	schlecht	fanatisch	schroff	1	blank2r.bmp	0	1	+	0	1	blank2r.bmp	500	1	GKQX	500	1	blank2r.bmp	880	5	treu	880	1	!	1312	1	!	-1	0	0	0	0	0	0
2024-05-22	09:39:31	09:44:35	303155	6.6.1	4_exp_EVA_AWA_CON	44	B	A	Rpleas_acq	Oppo	Rpleas	2pleas	acq_US_unple_nomask	acq2_nomask	2	6	480	1	300	300	0	0	499	46	1	0	loyal	fair	retten	helfen	treu	lachen	lasch	faul	rächen	hindern	tot	leiden	tolerant	ehrlich	spielen	schön	freundlich	schlau	tyrannisch	eitel	strafen	schlecht	fanatisch	schroff	1	blank2r.bmp	0	1	+	0	1	blank2r.bmp	500	1	BMVZ	500	1	blank2r.bmp	880	2	faul	880	1	!	1312	1	!	1400	0	0	0	0	0	0
2024-05-22	09:39:31	09:44:37	305418	6.6.1	4_exp_EVA_AWA_CON	44	B	A	Rpleas_acq	Oppo	Rpleas	2pleas	acq_new_pleas_nomask	acq2_nomask	2	7	480	1	300	300	0	0	482	50	1	0	loyal	fair	retten	helfen	treu	lachen	lasch	faul	rächen	hindern	tot	leiden	tolerant	ehrlich	spielen	schön	freundlich	schlau	tyrannisch	eitel	strafen	schlecht	fanatisch	schroff	1	blank2r.bmp	0	1	+	0	1	blank2r.bmp	500	2	B2r.bmp	500	1	blank2r.bmp	880	5	freundlich	880	1	!	1313	1	!	1383	0	0	0	0	0	0
2024-05-22	09:39:31	09:44:39	307812	6.6.1	4_exp_EVA_AWA_CON	44	B	A	Rpleas_acq	Oppo	Rpleas	2pleas	acq_US_pleas_nomask	acq2_nomask	2	8	480	1	300	300	0	0	413	46	0	0	loyal	fair	retten	helfen	treu	lachen	lasch	faul	rächen	hindern	tot	leiden	tolerant	ehrlich	spielen	schön	freundlich	schlau	tyrannisch	eitel	strafen	schlecht	fanatisch	schroff	1	blank2r.bmp	0	1	+	0	1	blank2r.bmp	500	1	GKQX	500	1	blank2r.bmp	880	4	helfen	880	1	FEHLER	1605	1	!	1312	1	!	1313	0	0	0
2024-05-22	09:39:31	09:44:41	310010	6.6.1	4_exp_EVA_AWA_CON	44	B	A	Rpleas_acq	Oppo	Rpleas	2pleas	acq_US_unple_nomask	acq2_nomask	2	9	480	1	300	300	0	0	421	50	0	0	loyal	fair	retten	helfen	treu	lachen	lasch	faul	rächen	hindern	tot	leiden	tolerant	ehrlich	spielen	schön	freundlich	schlau	tyrannisch	eitel	strafen	schlecht	fanatisch	schroff	1	blank2r.bmp	0	1	+	0	1	blank2r.bmp	500	1	BMVZ	500	1	blank2r.bmp	880	6	leiden	880	1	FEHLER	1612	1	!	1312	1	!	1320	0	0	0
2024-05-22	09:39:31	09:44:44	312106	6.6.1	4_exp_EVA_AWA_CON	44	B	A	Rpleas_acq	Oppo	Rpleas	2pleas	acq_US_unple_nomask	acq2_nomask	2	10	480	1	300	300	0	0	515	46	1	0	loyal	fair	retten	helfen	treu	lachen	lasch	faul	rächen	hindern	tot	leiden	tolerant	ehrlich	spielen	schön	freundlich	schlau	tyrannisch	eitel	strafen	schlecht	fanatisch	schroff	1	blank2r.bmp	0	1	+	0	1	blank2r.bmp	500	1	BMVZ	500	1	blank2r.bmp	880	5	tot	880	1	!	1312	1	!	1416	0	0	0	0	0	0
2024-05-22	09:39:31	09:44:46	314492	6.6.1	4_exp_EVA_AWA_CON	44	B	A	Rpleas_acq	Oppo	Rpleas	2pleas	acq_US_pleas_nomask	acq2_nomask	2	11	480	0	300	300	0	0	408	46	0	0	loyal	fair	retten	helfen	treu	lachen	lasch	faul	rächen	hindern	tot	leiden	tolerant	ehrlich	spielen	schön	freundlich	schlau	tyrannisch	eitel	strafen	schlecht	fanatisch	schroff	1	blank2r.bmp	0	1	+	0	1	blank2r.bmp	500	1	GKQX	500	1	blank2r.bmp	880	3	retten	880	1	FEHLER	1601	1	!	-1	1	!	-1	0	0	0
2024-05-22	09:39:31	09:44:48	316586	6.6.1	4_exp_EVA_AWA_CON	44	B	A	Rpleas_acq	Oppo	Rpleas	2pleas	acq_new_unple_nomask	acq2_nomask	2	12	480	1	300	300	0	0	522	46	1	0	loyal	fair	retten	helfen	treu	lachen	lasch	faul	rächen	hindern	tot	leiden	tolerant	ehrlich	spielen	schön	freundlich	schlau	tyrannisch	eitel	strafen	schlecht	fanatisch	schroff	1	blank2r.bmp	0	1	+	0	1	blank2r.bmp	500	5	C1r.bmp	500	1	blank2r.bmp	880	3	strafen	880	1	!	1312	1	!	1423	0	0	0	0	0	0
2024-05-22	09:39:31	09:44:50	318649	6.6.1	4_exp_EVA_AWA_CON	44	B	A	Rpleas_acq	Oppo	Rpleas	2pleas	acq_US_pleas_nomask	acq2_nomask	2	13	480	0	300	300	0	0	285	50	1	0	loyal	fair	retten	helfen	treu	lachen	lasch	faul	rächen	hindern	tot	leiden	tolerant	ehrlich	spielen	schön	freundlich	schlau	tyrannisch	eitel	strafen	schlecht	fanatisch	schroff	1	blank2r.bmp	0	1	+	0	1	blank2r.bmp	500	1	GKQX	500	1	blank2r.bmp	880	3	retten	880	1	!	-1	1	!	-1	0	0	0	0	0	0
2024-05-22	09:39:31	09:44:53	321116	6.6.1	4_exp_EVA_AWA_CON	44	B	A	Rpleas_acq	Oppo	Rpleas	2pleas	acq_new_pleas_nomask	acq2_nomask	2	14	480	1	300	300	0	0	488	46	0	0	loyal	fair	retten	helfen	treu	lachen	lasch	faul	rächen	hindern	tot	leiden	tolerant	ehrlich	spielen	schön	freundlich	schlau	tyrannisch	eitel	strafen	schlecht	fanatisch	schroff	1	blank2r.bmp	0	1	+	0	1	blank2r.bmp	500	5	C1r.bmp	500	1	blank2r.bmp	880	1	tolerant	880	1	FEHLER	1680	1	!	1312	1	!	1388	0	0	0
2024-05-22	09:39:31	09:44:55	323283	6.6.1	4_exp_EVA_AWA_CON	44	B	A	Rpleas_acq	Oppo	Rpleas	2pleas	acq_new_unple_nomask	acq2_nomask	2	15	480	0	300	300	0	0	394	50	0	0	loyal	fair	retten	helfen	treu	lachen	lasch	faul	rächen	hindern	tot	leiden	tolerant	ehrlich	spielen	schön	freundlich	schlau	tyrannisch	eitel	strafen	schlecht	fanatisch	schroff	1	blank2r.bmp	0	1	+	0	1	blank2r.bmp	500	3	B3r.bmp	500	1	blank2r.bmp	880	6	schroff	880	1	FEHLER	1587	1	!	-1	1	!	-1	0	0	0
2024-05-22	09:39:31	09:44:57	325628	6.6.1	4_exp_EVA_AWA_CON	44	B	A	Rpleas_acq	Oppo	Rpleas	2pleas	acq_new_pleas_nomask	acq2_nomask	2	16	480	0	300	300	0	0	567	46	0	0	loyal	fair	retten	helfen	treu	lachen	lasch	faul	rächen	hindern	tot	leiden	tolerant	ehrlich	spielen	schön	freundlich	schlau	tyrannisch	eitel	strafen	schlecht	fanatisch	schroff	1	blank2r.bmp	0	1	+	0	1	blank2r.bmp	500	4	B4r.bmp	500	1	blank2r.bmp	880	4	schön	880	1	FEHLER	1760	1	!	1313	1	!	-1	0	0	0
2024-05-22	09:39:31	09:44:59	327675	6.6.1	4_exp_EVA_AWA_CON	44	B	A	Rpleas_acq	Oppo	Rpleas	2pleas	acq_US_unple_nomask	acq2_nomask	2	17	480	0	300	300	0	0	273	50	0	0	loyal	fair	retten	helfen	treu	lachen	lasch	faul	rächen	hindern	tot	leiden	tolerant	ehrlich	spielen	schön	freundlich	schlau	tyrannisch	eitel	strafen	schlecht	fanatisch	schroff	1	blank2r.bmp	0	1	+	0	1	blank2r.bmp	500	1	BMVZ	500	1	blank2r.bmp	880	2	faul	880	1	FEHLER	1466	1	!	-1	1	!	-1	0	0	0
2024-05-22	09:39:31	09:45:01	329948	6.6.1	4_exp_EVA_AWA_CON	44	B	A	Rpleas_acq	Oppo	Rpleas	2pleas	acq_new_unple_nomask	acq2_nomask	2	18	480	1	300	300	0	0	494	50	0	0	loyal	fair	retten	helfen	treu	lachen	lasch	faul	rächen	hindern	tot	leiden	tolerant	ehrlich	spielen	schön	freundlich	schlau	tyrannisch	eitel	strafen	schlecht	fanatisch	schroff	1	blank2r.bmp	0	1	+	0	1	blank2r.bmp	500	6	C2r.bmp	500	1	blank2r.bmp	880	2	eitel	880	1	FEHLER	1687	1	!	1313	1	!	1395	0	0	0
2024-05-22	09:39:31	09:45:04	332104	6.6.1	4_exp_EVA_AWA_CON	44	B	A	Rpleas_acq	Oppo	Rpleas	2pleas	acq_new_unple_nomask	acq2_nomask	2	19	480	0	300	300	0	0	583	46	1	0	loyal	fair	retten	helfen	treu	lachen	lasch	faul	rächen	hindern	tot	leiden	tolerant	ehrlich	spielen	schön	freundlich	schlau	tyrannisch	eitel	strafen	schlecht	fanatisch	schroff	1	blank2r.bmp	0	1	+	0	1	blank2r.bmp	500	2	B2r.bmp	500	1	blank2r.bmp	880	3	strafen	880	1	!	1312	1	!	-1	0	0	0	0	0	0
2024-05-22	09:39:31	09:45:06	334435	6.6.1	4_exp_EVA_AWA_CON	44	B	A	Rpleas_acq	Oppo	Rpleas	2pleas	acq_US_unple_nomask	acq2_nomask	2	20	480	1	300	300	0	0	549	46	1	0	loyal	fair	retten	helfen	treu	lachen	lasch	faul	rächen	hindern	tot	leiden	tolerant	ehrlich	spielen	schön	freundlich	schlau	tyrannisch	eitel	strafen	schlecht	fanatisch	schroff	1	blank2r.bmp	0	1	+	0	1	blank2r.bmp	500	1	BMVZ	500	1	blank2r.bmp	880	4	hindern	880	1	!	1313	1	!	1450	0	0	0	0	0	0
2024-05-22	09:39:31	09:45:08	336754	6.6.1	4_exp_EVA_AWA_CON	44	B	A	Rpleas_acq	Oppo	Rpleas	2pleas	acq_US_unple_nomask	acq2_nomask	2	21	480	1	300	300	0	0	537	46	1	0	loyal	fair	retten	helfen	treu	lachen	lasch	faul	rächen	hindern	tot	leiden	tolerant	ehrlich	spielen	schön	freundlich	schlau	tyrannisch	eitel	strafen	schlecht	fanatisch	schroff	1	blank2r.bmp	0	1	+	0	1	blank2r.bmp	500	1	BMVZ	500	1	blank2r.bmp	880	6	leiden	880	1	!	1313	1	!	1438	0	0	0	0	0	0
2024-05-22	09:39:31	09:45:13	341969	6.6.1	4_exp_EVA_AWA_CON	44	B	A	Rpleas_acq	Oppo	Rpleas	2pleas	acq_US_pleas_nomask	acq2_nomask	2	22	480	0	300	300	0	0	3442	50	1	0	loyal	fair	retten	helfen	treu	lachen	lasch	faul	rächen	hindern	tot	leiden	tolerant	ehrlich	spielen	schön	freundlich	schlau	tyrannisch	eitel	strafen	schlecht	fanatisch	schroff	1	blank2r.bmp	0	1	+	0	1	blank2r.bmp	500	1	GKQX	500	1	blank2r.bmp	880	5	treu	880	1	!	1313	1	!	-1	0	0	0	0	0	0
2024-05-22	09:39:31	09:45:16	344337	6.6.1	4_exp_EVA_AWA_CON	44	B	A	Rpleas_acq	Oppo	Rpleas	2pleas	acq_new_pleas_nomask	acq2_nomask	2	23	480	0	300	300	0	0	587	50	1	0	loyal	fair	retten	helfen	treu	lachen	lasch	faul	rächen	hindern	tot	leiden	tolerant	ehrlich	spielen	schön	freundlich	schlau	tyrannisch	eitel	strafen	schlecht	fanatisch	schroff	1	blank2r.bmp	0	1	+	0	1	blank2r.bmp	500	1	B1r.bmp	500	1	blank2r.bmp	880	6	schlau	880	1	!	1312	1	!	-1	0	0	0	0	0	0
2024-05-22	09:39:31	09:45:18	346827	6.6.1	4_exp_EVA_AWA_CON	44	B	A	Rpleas_acq	Oppo	Rpleas	2pleas	acq_US_pleas_nomask	acq2_nomask	2	24	480	1	300	300	0	0	513	46	0	0	loyal	fair	retten	helfen	treu	lachen	lasch	faul	rächen	hindern	tot	leiden	tolerant	ehrlich	spielen	schön	freundlich	schlau	tyrannisch	eitel	strafen	schlecht	fanatisch	schroff	1	blank2r.bmp	0	1	+	0	1	blank2r.bmp	500	1	GKQX	500	1	blank2r.bmp	880	6	lachen	880	1	FEHLER	1706	1	!	1312	1	!	1414	0	0	0
2024-05-22	09:39:31	09:45:20	348793	6.6.1	4_exp_EVA_AWA_CON	44	B	A	Rpleas_acq	Oppo	Rpleas	2pleas	acq_new_pleas_nomask	acq2_nomask	2	25	480	0	300	300	0	0	390	50	1	0	loyal	fair	retten	helfen	treu	lachen	lasch	faul	rächen	hindern	tot	leiden	tolerant	ehrlich	spielen	schön	freundlich	schlau	tyrannisch	eitel	strafen	schlecht	fanatisch	schroff	1	blank2r.bmp	0	1	+	0	1	blank2r.bmp	500	8	C4r.bmp	500	1	blank2r.bmp	880	3	spielen	880	1	!	-1	1	!	-1	0	0	0	0	0	0
2024-05-22	09:39:31	09:45:22	351043	6.6.1	4_exp_EVA_AWA_CON	44	B	A	Rpleas_acq	Oppo	Rpleas	2pleas	acq_US_unple_nomask	acq2_nomask	2	26	480	0	300	300	0	0	266	50	0	0	loyal	fair	retten	helfen	treu	lachen	lasch	faul	rächen	hindern	tot	leiden	tolerant	ehrlich	spielen	schön	freundlich	schlau	tyrannisch	eitel	strafen	schlecht	fanatisch	schroff	1	blank2r.bmp	0	1	+	0	1	blank2r.bmp	500	1	BMVZ	500	1	blank2r.bmp	880	5	tot	880	1	FEHLER	1459	1	!	-1	1	!	-1	0	0	0
2024-05-22	09:39:31	09:45:25	353244	6.6.1	4_exp_EVA_AWA_CON	44	B	A	Rpleas_acq	Oppo	Rpleas	2pleas	acq_US_unple_nomask	acq2_nomask	2	27	480	1	300	300	0	0	425	50	0	0	loyal	fair	retten	helfen	treu	lachen	lasch	faul	rächen	hindern	tot	leiden	tolerant	ehrlich	spielen	schön	freundlich	schlau	tyrannisch	eitel	strafen	schlecht	fanatisch	schroff	1	blank2r.bmp	0	1	+	0	1	blank2r.bmp	500	1	BMVZ	500	1	blank2r.bmp	880	1	lasch	880	1	FEHLER	1618	1	!	1312	1	!	1326	0	0	0
2024-05-22	09:39:31	09:45:31	359156	6.6.1	4_exp_EVA_AWA_CON	44	B	A	Rpleas_acq	Oppo	Rpleas	2pleas	acq_new_unple_nomask	acq2_nomask	2	28	480	0	300	300	0	0	4135	50	0	0	loyal	fair	retten	helfen	treu	lachen	lasch	faul	rächen	hindern	tot	leiden	tolerant	ehrlich	spielen	schön	freundlich	schlau	tyrannisch	eitel	strafen	schlecht	fanatisch	schroff	1	blank2r.bmp	0	1	+	0	1	blank2r.bmp	500	7	C3r.bmp	500	1	blank2r.bmp	880	5	fanatisch	880	1	FEHLER	5329	1	!	1312	1	!	-1	0	0	0
2024-05-22	09:39:31	09:45:33	361218	6.6.1	4_exp_EVA_AWA_CON	44	B	A	Rpleas_acq	Oppo	Rpleas	2pleas	acq_new_pleas_nomask	acq2_nomask	2	29	480	1	300	300	0	0	486	50	1	0	loyal	fair	retten	helfen	treu	lachen	lasch	faul	rächen	hindern	tot	leiden	tolerant	ehrlich	spielen	schön	freundlich	schlau	tyrannisch	eitel	strafen	schlecht	fanatisch	schroff	1	blank2r.bmp	0	1	+	0	1	blank2r.bmp	500	2	B2r.bmp	500	1	blank2r.bmp	880	5	freundlich	880	1	!	1313	1	!	1387	0	0	0	0	0	0
2024-05-22	09:39:31	09:45:35	363506	6.6.1	4_exp_EVA_AWA_CON	44	B	A	Rpleas_acq	Oppo	Rpleas	2pleas	acq_US_unple_nomask	acq2_nomask	2	30	480	1	300	300	0	0	512	46	1	0	loyal	fair	retten	helfen	treu	lachen	lasch	faul	rächen	hindern	tot	leiden	tolerant	ehrlich	spielen	schön	freundlich	schlau	tyrannisch	eitel	strafen	schlecht	fanatisch	schroff	1	blank2r.bmp	0	1	+	0	1	blank2r.bmp	500	1	BMVZ	500	1	blank2r.bmp	880	3	rächen	880	1	!	1312	1	!	1413	0	0	0	0	0	0
2024-05-22	09:39:31	09:45:37	366076	6.6.1	4_exp_EVA_AWA_CON	44	B	A	Rpleas_acq	Oppo	Rpleas	2pleas	acq_new_pleas_nomask	acq2_nomask	2	31	480	0	300	300	0	0	589	46	0	0	loyal	fair	retten	helfen	treu	lachen	lasch	faul	rächen	hindern	tot	leiden	tolerant	ehrlich	spielen	schön	freundlich	schlau	tyrannisch	eitel	strafen	schlecht	fanatisch	schroff	1	blank2r.bmp	0	1	+	0	1	blank2r.bmp	500	5	C1r.bmp	500	1	blank2r.bmp	880	2	ehrlich	880	1	FEHLER	1782	1	!	1312	1	!	-1	0	0	0
2024-05-22	09:39:31	09:45:40	368090	6.6.1	4_exp_EVA_AWA_CON	44	B	A	Rpleas_acq	Oppo	Rpleas	2pleas	acq_new_unple_nomask	acq2_nomask	2	32	480	1	300	300	0	0	443	46	1	0	loyal	fair	retten	helfen	treu	lachen	lasch	faul	rächen	hindern	tot	leiden	tolerant	ehrlich	spielen	schön	freundlich	schlau	tyrannisch	eitel	strafen	schlecht	fanatisch	schroff	1	blank2r.bmp	0	1	+	0	1	blank2r.bmp	500	6	C2r.bmp	500	1	blank2r.bmp	880	1	tyrannisch	880	1	!	1313	1	!	1344	0	0	0	0	0	0
2024-05-22	09:39:31	09:45:42	370217	6.6.1	4_exp_EVA_AWA_CON	44	B	A	Rpleas_acq	Oppo	Rpleas	2pleas	acq_US_pleas_nomask	acq2_nomask	2	33	480	0	300	300	0	0	350	50	1	0	loyal	fair	retten	helfen	treu	lachen	lasch	faul	rächen	hindern	tot	leiden	tolerant	ehrlich	spielen	schön	freundlich	schlau	tyrannisch	eitel	strafen	schlecht	fanatisch	schroff	1	blank2r.bmp	0	1	+	0	1	blank2r.bmp	500	1	GKQX	500	1	blank2r.bmp	880	2	fair	880	1	!	-1	1	!	-1	0	0	0	0	0	0
2024-05-22	09:39:31	09:45:45	373945	6.6.1	4_exp_EVA_AWA_CON	44	B	A	Rpleas_acq	Oppo	Rpleas	2pleas	acq_US_pleas_nomask	acq2_nomask	2	34	480	0	300	300	0	0	1946	50	1	0	loyal	fair	retten	helfen	treu	lachen	lasch	faul	rächen	hindern	tot	leiden	tolerant	ehrlich	spielen	schön	freundlich	schlau	tyrannisch	eitel	strafen	schlecht	fanatisch	schroff	1	blank2r.bmp	0	1	+	0	1	blank2r.bmp	500	1	GKQX	500	1	blank2r.bmp	880	1	loyal	880	1	!	1312	1	!	-1	0	0	0	0	0	0
2024-05-22	09:39:31	09:45:48	376234	6.6.1	4_exp_EVA_AWA_CON	44	B	A	Rpleas_acq	Oppo	Rpleas	2pleas	acq_US_pleas_nomask	acq2_nomask	2	35	480	1	300	300	0	0	512	50	1	0	loyal	fair	retten	helfen	treu	lachen	lasch	faul	rächen	hindern	tot	leiden	tolerant	ehrlich	spielen	schön	freundlich	schlau	tyrannisch	eitel	strafen	schlecht	fanatisch	schroff	1	blank2r.bmp	0	1	+	0	1	blank2r.bmp	500	1	GKQX	500	1	blank2r.bmp	880	4	helfen	880	1	!	1312	1	!	1413	0	0	0	0	0	0
2024-05-22	09:39:31	09:45:50	378426	6.6.1	4_exp_EVA_AWA_CON	44	B	A	Rpleas_acq	Oppo	Rpleas	2pleas	acq_new_unple_nomask	acq2_nomask	2	36	480	1	300	300	0	0	414	46	1	0	loyal	fair	retten	helfen	treu	lachen	lasch	faul	rächen	hindern	tot	leiden	tolerant	ehrlich	spielen	schön	freundlich	schlau	tyrannisch	eitel	strafen	schlecht	fanatisch	schroff	1	blank2r.bmp	0	1	+	0	1	blank2r.bmp	500	3	B3r.bmp	500	1	blank2r.bmp	880	4	schlecht	880	1	!	1313	1	!	1313	0	0	0	0	0	0
2024-05-22	09:39:31	09:46:03	392041	6.6.1	4_exp_EVA_AWA_CON	44	B	A	Rpleas_acq	Oppo	Rpleas	2pleas	acq_US_unple_nomask	acq3_nomask	3	1	453	0	300	300	0	0	620	46	1	0	loyal	fair	retten	helfen	treu	lachen	lasch	faul	rächen	hindern	tot	leiden	tolerant	ehrlich	spielen	schön	freundlich	schlau	tyrannisch	eitel	strafen	schlecht	fanatisch	schroff	1	blank2r.bmp	0	1	+	0	1	blank2r.bmp	500	1	BMVZ	500	1	blank2r.bmp	880	2	faul	880	1	!	1293	1	!	-1	0	0	0	0	0	0
2024-05-22	09:39:31	09:46:09	397753	6.6.1	4_exp_EVA_AWA_CON	44	B	A	Rpleas_acq	Oppo	Rpleas	2pleas	acq_US_pleas_nomask	acq3_nomask	3	2	453	0	300	300	0	0	3930	50	1	0	loyal	fair	retten	helfen	treu	lachen	lasch	faul	rächen	hindern	tot	leiden	tolerant	ehrlich	spielen	schön	freundlich	schlau	tyrannisch	eitel	strafen	schlecht	fanatisch	schroff	1	blank2r.bmp	0	1	+	0	1	blank2r.bmp	500	1	GKQX	500	1	blank2r.bmp	880	3	retten	880	1	!	1293	1	!	-1	0	0	0	0	0	0
2024-05-22	09:39:31	09:46:11	399929	6.6.1	4_exp_EVA_AWA_CON	44	B	A	Rpleas_acq	Oppo	Rpleas	2pleas	acq_US_pleas_nomask	acq3_nomask	3	3	453	1	300	300	0	0	403	50	1	0	loyal	fair	retten	helfen	treu	lachen	lasch	faul	rächen	hindern	tot	leiden	tolerant	ehrlich	spielen	schön	freundlich	schlau	tyrannisch	eitel	strafen	schlecht	fanatisch	schroff	1	blank2r.bmp	0	1	+	0	1	blank2r.bmp	500	1	GKQX	500	1	blank2r.bmp	880	6	lachen	880	1	!	1292	1	!	1302	0	0	0	0	0	0
2024-05-22	09:39:31	09:46:14	402395	6.6.1	4_exp_EVA_AWA_CON	44	B	A	Rpleas_acq	Oppo	Rpleas	2pleas	acq_US_unple_nomask	acq3_nomask	3	4	453	1	300	300	0	0	485	50	0	0	loyal	fair	retten	helfen	treu	lachen	lasch	faul	rächen	hindern	tot	leiden	tolerant	ehrlich	spielen	schön	freundlich	schlau	tyrannisch	eitel	strafen	schlecht	fanatisch	schroff	1	blank2r.bmp	0	1	+	0	1	blank2r.bmp	500	1	BMVZ	500	1	blank2r.bmp	880	1	lasch	880	1	FEHLER	1678	1	!	1292	1	!	1386	0	0	0
2024-05-22	09:39:31	09:46:16	404684	6.6.1	4_exp_EVA_AWA_CON	44	B	A	Rpleas_acq	Oppo	Rpleas	2pleas	acq_US_pleas_nomask	acq3_nomask	3	5	453	1	300	300	0	0	512	46	0	0	loyal	fair	retten	helfen	treu	lachen	lasch	faul	rächen	hindern	tot	leiden	tolerant	ehrlich	spielen	schön	freundlich	schlau	tyrannisch	eitel	strafen	schlecht	fanatisch	schroff	1	blank2r.bmp	0	1	+	0	1	blank2r.bmp	500	1	GKQX	500	1	blank2r.bmp	880	1	loyal	880	1	FEHLER	1705	1	!	1292	1	!	1413	0	0	0
2024-05-22	09:39:31	09:46:18	406899	6.6.1	4_exp_EVA_AWA_CON	44	B	A	Rpleas_acq	Oppo	Rpleas	2pleas	acq_US_unple_nomask	acq3_nomask	3	6	453	1	300	300	0	0	436	50	0	0	loyal	fair	retten	helfen	treu	lachen	lasch	faul	rächen	hindern	tot	leiden	tolerant	ehrlich	spielen	schön	freundlich	schlau	tyrannisch	eitel	strafen	schlecht	fanatisch	schroff	1	blank2r.bmp	0	1	+	0	1	blank2r.bmp	500	1	BMVZ	500	1	blank2r.bmp	880	6	leiden	880	1	FEHLER	1629	1	!	1292	1	!	1337	0	0	0
2024-05-22	09:39:31	09:46:21	409356	6.6.1	4_exp_EVA_AWA_CON	44	B	A	Rpleas_acq	Oppo	Rpleas	2pleas	acq_US_unple_nomask	acq3_nomask	3	7	453	0	300	300	0	0	681	50	0	0	loyal	fair	retten	helfen	treu	lachen	lasch	faul	rächen	hindern	tot	leiden	tolerant	ehrlich	spielen	schön	freundlich	schlau	tyrannisch	eitel	strafen	schlecht	fanatisch	schroff	1	blank2r.bmp	0	1	+	0	1	blank2r.bmp	500	1	BMVZ	500	1	blank2r.bmp	880	4	hindern	880	1	FEHLER	1874	1	!	1293	1	!	-1	0	0	0
2024-05-22	09:39:31	09:46:23	411395	6.6.1	4_exp_EVA_AWA_CON	44	B	A	Rpleas_acq	Oppo	Rpleas	2pleas	acq_US_pleas_nomask	acq3_nomask	3	8	453	1	300	300	0	0	459	50	1	0	loyal	fair	retten	helfen	treu	lachen	lasch	faul	rächen	hindern	tot	leiden	tolerant	ehrlich	spielen	schön	freundlich	schlau	tyrannisch	eitel	strafen	schlecht	fanatisch	schroff	1	blank2r.bmp	0	1	+	0	1	blank2r.bmp	500	1	GKQX	500	1	blank2r.bmp	880	4	helfen	880	1	!	1292	1	!	1361	0	0	0	0	0	0
2024-05-22	09:39:31	09:46:25	413472	6.6.1	4_exp_EVA_AWA_CON	44	B	A	Rpleas_acq	Oppo	Rpleas	2pleas	acq_US_unple_nomask	acq3_nomask	3	9	453	0	300	300	0	0	298	46	1	0	loyal	fair	retten	helfen	treu	lachen	lasch	faul	rächen	hindern	tot	leiden	tolerant	ehrlich	spielen	schön	freundlich	schlau	tyrannisch	eitel	strafen	schlecht	fanatisch	schroff	1	blank2r.bmp	0	1	+	0	1	blank2r.bmp	500	1	BMVZ	500	1	blank2r.bmp	880	3	rächen	880	1	!	-1	1	!	-1	0	0	0	0	0	0
2024-05-22	09:39:31	09:46:27	415985	6.6.1	4_exp_EVA_AWA_CON	44	B	A	Rpleas_acq	Oppo	Rpleas	2pleas	acq_US_pleas_nomask	acq3_nomask	3	10	453	0	300	300	0	0	739	50	1	0	loyal	fair	retten	helfen	treu	lachen	lasch	faul	rächen	hindern	tot	leiden	tolerant	ehrlich	spielen	schön	freundlich	schlau	tyrannisch	eitel	strafen	schlecht	fanatisch	schroff	1	blank2r.bmp	0	1	+	0	1	blank2r.bmp	500	1	GKQX	500	1	blank2r.bmp	880	2	fair	880	1	!	1292	1	!	-1	0	0	0	0	0	0
2024-05-22	09:39:31	09:46:30	418395	6.6.1	4_exp_EVA_AWA_CON	44	B	A	Rpleas_acq	Oppo	Rpleas	2pleas	acq_US_pleas_nomask	acq3_nomask	3	11	453	1	300	300	0	0	435	46	0	0	loyal	fair	retten	helfen	treu	lachen	lasch	faul	rächen	hindern	tot	leiden	tolerant	ehrlich	spielen	schön	freundlich	schlau	tyrannisch	eitel	strafen	schlecht	fanatisch	schroff	1	blank2r.bmp	0	1	+	0	1	blank2r.bmp	500	1	GKQX	500	1	blank2r.bmp	880	5	treu	880	1	FEHLER	1628	1	!	1293	1	!	1336	0	0	0
2024-05-22	09:39:31	09:46:32	420908	6.6.1	4_exp_EVA_AWA_CON	44	B	A	Rpleas_acq	Oppo	Rpleas	2pleas	acq_US_unple_nomask	acq3_nomask	3	12	453	0	300	300	0	0	736	50	0	0	loyal	fair	retten	helfen	treu	lachen	lasch	faul	rächen	hindern	tot	leiden	tolerant	ehrlich	spielen	schön	freundlich	schlau	tyrannisch	eitel	strafen	schlecht	fanatisch	schroff	1	blank2r.bmp	0	1	+	0	1	blank2r.bmp	500	1	BMVZ	500	1	blank2r.bmp	880	5	tot	880	1	FEHLER	1929	1	!	1292	1	!	-1	0	0	0
2024-05-22	09:39:31	09:46:35	423276	6.6.1	4_exp_EVA_AWA_CON	44	B	A	Rpleas_acq	Oppo	Rpleas	2pleas	acq_US_unple_nomask	acq3_nomask	3	13	453	0	300	300	0	0	592	50	0	0	loyal	fair	retten	helfen	treu	lachen	lasch	faul	rächen	hindern	tot	leiden	tolerant	ehrlich	spielen	schön	freundlich	schlau	tyrannisch	eitel	strafen	schlecht	fanatisch	schroff	1	blank2r.bmp	0	1	+	0	1	blank2r.bmp	500	1	BMVZ	500	1	blank2r.bmp	880	3	rächen	880	1	FEHLER	1785	1	!	1293	1	!	-1	0	0	0
2024-05-22	09:39:31	09:46:37	425427	6.6.1	4_exp_EVA_AWA_CON	44	B	A	Rpleas_acq	Oppo	Rpleas	2pleas	acq_US_unple_nomask	acq3_nomask	3	14	453	0	300	300	0	0	373	50	0	0	loyal	fair	retten	helfen	treu	lachen	lasch	faul	rächen	hindern	tot	leiden	tolerant	ehrlich	spielen	schön	freundlich	schlau	tyrannisch	eitel	strafen	schlecht	fanatisch	schroff	1	blank2r.bmp	0	1	+	0	1	blank2r.bmp	500	1	BMVZ	500	1	blank2r.bmp	880	5	tot	880	1	FEHLER	1565	1	!	-1	1	!	-1	0	0	0
2024-05-22	09:39:31	09:46:39	427592	6.6.1	4_exp_EVA_AWA_CON	44	B	A	Rpleas_acq	Oppo	Rpleas	2pleas	acq_US_unple_nomask	acq3_nomask	3	15	453	0	300	300	0	0	589	46	1	0	loyal	fair	retten	helfen	treu	lachen	lasch	faul	rächen	hindern	tot	leiden	tolerant	ehrlich	spielen	schön	freundlich	schlau	tyrannisch	eitel	strafen	schlecht	fanatisch	schroff	1	blank2r.bmp	0	1	+	0	1	blank2r.bmp	500	1	BMVZ	500	1	blank2r.bmp	880	1	lasch	880	1	!	1292	1	!	-1	0	0	0	0	0	0
2024-05-22	09:39:31	09:46:41	429576	6.6.1	4_exp_EVA_AWA_CON	44	B	A	Rpleas_acq	Oppo	Rpleas	2pleas	acq_US_pleas_nomask	acq3_nomask	3	16	453	0	300	300	0	0	212	50	1	0	loyal	fair	retten	helfen	treu	lachen	lasch	faul	rächen	hindern	tot	leiden	tolerant	ehrlich	spielen	schön	freundlich	schlau	tyrannisch	eitel	strafen	schlecht	fanatisch	schroff	1	blank2r.bmp	0	1	+	0	1	blank2r.bmp	500	1	GKQX	500	1	blank2r.bmp	880	6	lachen	880	1	!	-1	1	!	-1	0	0	0	0	0	0
2024-05-22	09:39:31	09:46:43	432017	6.6.1	4_exp_EVA_AWA_CON	44	B	A	Rpleas_acq	Oppo	Rpleas	2pleas	acq_US_pleas_nomask	acq3_nomask	3	17	453	0	300	300	0	0	660	50	1	0	loyal	fair	retten	helfen	treu	lachen	lasch	faul	rächen	hindern	tot	leiden	tolerant	ehrlich	spielen	schön	freundlich	schlau	tyrannisch	eitel	strafen	schlecht	fanatisch	schroff	1	blank2r.bmp	0	1	+	0	1	blank2r.bmp	500	1	GKQX	500	1	blank2r.bmp	880	1	loyal	880	1	!	1293	1	!	-1	0	0	0	0	0	0
2024-05-22	09:39:31	09:46:46	434274	6.6.1	4_exp_EVA_AWA_CON	44	B	A	Rpleas_acq	Oppo	Rpleas	2pleas	acq_US_pleas_nomask	acq3_nomask	3	18	453	1	300	300	0	0	475	50	1	0	loyal	fair	retten	helfen	treu	lachen	lasch	faul	rächen	hindern	tot	leiden	tolerant	ehrlich	spielen	schön	freundlich	schlau	tyrannisch	eitel	strafen	schlecht	fanatisch	schroff	1	blank2r.bmp	0	1	+	0	1	blank2r.bmp	500	1	GKQX	500	1	blank2r.bmp	880	2	fair	880	1	!	1292	1	!	1376	0	0	0	0	0	0
2024-05-22	09:39:31	09:46:48	436584	6.6.1	4_exp_EVA_AWA_CON	44	B	A	Rpleas_acq	Oppo	Rpleas	2pleas	acq_US_pleas_nomask	acq3_nomask	3	19	453	0	300	300	0	0	535	50	1	0	loyal	fair	retten	helfen	treu	lachen	lasch	faul	rächen	hindern	tot	leiden	tolerant	ehrlich	spielen	schön	freundlich	schlau	tyrannisch	eitel	strafen	schlecht	fanatisch	schroff	1	blank2r.bmp	0	1	+	0	1	blank2r.bmp	500	1	GKQX	500	1	blank2r.bmp	880	5	treu	880	1	!	1293	1	!	-1	0	0	0	0	0	0
2024-05-22	09:39:31	09:46:50	439036	6.6.1	4_exp_EVA_AWA_CON	44	B	A	Rpleas_acq	Oppo	Rpleas	2pleas	acq_US_pleas_nomask	acq3_nomask	3	20	453	1	300	300	0	0	472	46	0	0	loyal	fair	retten	helfen	treu	lachen	lasch	faul	rächen	hindern	tot	leiden	tolerant	ehrlich	spielen	schön	freundlich	schlau	tyrannisch	eitel	strafen	schlecht	fanatisch	schroff	1	blank2r.bmp	0	1	+	0	1	blank2r.bmp	500	1	GKQX	500	1	blank2r.bmp	880	3	retten	880	1	FEHLER	1665	1	!	1293	1	!	1373	0	0	0
2024-05-22	09:39:31	09:46:53	441289	6.6.1	4_exp_EVA_AWA_CON	44	B	A	Rpleas_acq	Oppo	Rpleas	2pleas	acq_US_pleas_nomask	acq3_nomask	3	21	453	0	300	300	0	0	676	50	1	0	loyal	fair	retten	helfen	treu	lachen	lasch	faul	rächen	hindern	tot	leiden	tolerant	ehrlich	spielen	schön	freundlich	schlau	tyrannisch	eitel	strafen	schlecht	fanatisch	schroff	1	blank2r.bmp	0	1	+	0	1	blank2r.bmp	500	1	GKQX	500	1	blank2r.bmp	880	4	helfen	880	1	!	1293	1	!	-1	0	0	0	0	0	0
2024-05-22	09:39:31	09:46:55	443665	6.6.1	4_exp_EVA_AWA_CON	44	B	A	Rpleas_acq	Oppo	Rpleas	2pleas	acq_US_unple_nomask	acq3_nomask	3	22	453	0	300	300	0	0	601	46	1	0	loyal	fair	retten	helfen	treu	lachen	lasch	faul	rächen	hindern	tot	leiden	tolerant	ehrlich	spielen	schön	freundlich	schlau	tyrannisch	eitel	strafen	schlecht	fanatisch	schroff	1	blank2r.bmp	0	1	+	0	1	blank2r.bmp	500	1	BMVZ	500	1	blank2r.bmp	880	4	hindern	880	1	!	1292	1	!	-1	0	0	0	0	0	0
2024-05-22	09:39:31	09:46:57	445979	6.6.1	4_exp_EVA_AWA_CON	44	B	A	Rpleas_acq	Oppo	Rpleas	2pleas	acq_US_unple_nomask	acq3_nomask	3	23	453	0	300	300	0	0	331	50	0	0	loyal	fair	retten	helfen	treu	lachen	lasch	faul	rächen	hindern	tot	leiden	tolerant	ehrlich	spielen	schön	freundlich	schlau	tyrannisch	eitel	strafen	schlecht	fanatisch	schroff	1	blank2r.bmp	0	1	+	0	1	blank2r.bmp	500	1	BMVZ	500	1	blank2r.bmp	880	6	leiden	880	1	FEHLER	1524	1	!	-1	1	!	-1	0	0	0
2024-05-22	09:39:31	09:46:59	448002	6.6.1	4_exp_EVA_AWA_CON	44	B	A	Rpleas_acq	Oppo	Rpleas	2pleas	acq_US_unple_nomask	acq3_nomask	3	24	453	1	300	300	0	0	444	46	1	0	loyal	fair	retten	helfen	treu	lachen	lasch	faul	rächen	hindern	tot	leiden	tolerant	ehrlich	spielen	schön	freundlich	schlau	tyrannisch	eitel	strafen	schlecht	fanatisch	schroff	1	blank2r.bmp	0	1	+	0	1	blank2r.bmp	500	1	BMVZ	500	1	blank2r.bmp	880	2	faul	880	1	!	1292	1	!	1345	0	0	0	0	0	0
2024-05-22	09:39:31	09:47:02	450226	6.6.1	4_exp_EVA_AWA_CON	44	B	A	Rpleas_acq	Oppo	Rpleas	2pleas	acq_US_unple_nomask	acq3_nomask	3	25	453	1	300	300	0	0	446	46	1	0	loyal	fair	retten	helfen	treu	lachen	lasch	faul	rächen	hindern	tot	leiden	tolerant	ehrlich	spielen	schön	freundlich	schlau	tyrannisch	eitel	strafen	schlecht	fanatisch	schroff	1	blank2r.bmp	0	1	+	0	1	blank2r.bmp	500	1	BMVZ	500	1	blank2r.bmp	880	6	leiden	880	1	!	1292	1	!	1347	0	0	0	0	0	0
2024-05-22	09:39:31	09:47:04	452401	6.6.1	4_exp_EVA_AWA_CON	44	B	A	Rpleas_acq	Oppo	Rpleas	2pleas	acq_US_pleas_nomask	acq3_nomask	3	26	453	1	300	300	0	0	401	50	1	0	loyal	fair	retten	helfen	treu	lachen	lasch	faul	rächen	hindern	tot	leiden	tolerant	ehrlich	spielen	schön	freundlich	schlau	tyrannisch	eitel	strafen	schlecht	fanatisch	schroff	1	blank2r.bmp	0	1	+	0	1	blank2r.bmp	500	1	GKQX	500	1	blank2r.bmp	880	1	loyal	880	1	!	1292	1	!	1300	0	0	0	0	0	0
2024-05-22	09:39:31	09:47:06	454666	6.6.1	4_exp_EVA_AWA_CON	44	B	A	Rpleas_acq	Oppo	Rpleas	2pleas	acq_US_unple_nomask	acq3_nomask	3	27	453	1	300	300	0	0	484	46	1	0	loyal	fair	retten	helfen	treu	lachen	lasch	faul	rächen	hindern	tot	leiden	tolerant	ehrlich	spielen	schön	freundlich	schlau	tyrannisch	eitel	strafen	schlecht	fanatisch	schroff	1	blank2r.bmp	0	1	+	0	1	blank2r.bmp	500	1	BMVZ	500	1	blank2r.bmp	880	1	lasch	880	1	!	1293	1	!	1385	0	0	0	0	0	0
2024-05-22	09:39:31	09:47:08	457033	6.6.1	4_exp_EVA_AWA_CON	44	B	A	Rpleas_acq	Oppo	Rpleas	2pleas	acq_US_pleas_nomask	acq3_nomask	3	28	453	0	300	300	0	0	590	50	1	0	loyal	fair	retten	helfen	treu	lachen	lasch	faul	rächen	hindern	tot	leiden	tolerant	ehrlich	spielen	schön	freundlich	schlau	tyrannisch	eitel	strafen	schlecht	fanatisch	schroff	1	blank2r.bmp	0	1	+	0	1	blank2r.bmp	500	1	GKQX	500	1	blank2r.bmp	880	2	fair	880	1	!	1293	1	!	-1	0	0	0	0	0	0
2024-05-22	09:39:31	09:47:11	459496	6.6.1	4_exp_EVA_AWA_CON	44	B	A	Rpleas_acq	Oppo	Rpleas	2pleas	acq_US_pleas_nomask	acq3_nomask	3	29	453	0	300	300	0	0	683	50	1	0	loyal	fair	retten	helfen	treu	lachen	lasch	faul	rächen	hindern	tot	leiden	tolerant	ehrlich	spielen	schön	freundlich	schlau	tyrannisch	eitel	strafen	schlecht	fanatisch	schroff	1	blank2r.bmp	0	1	+	0	1	blank2r.bmp	500	1	GKQX	500	1	blank2r.bmp	880	3	retten	880	1	!	1292	1	!	-1	0	0	0	0	0	0
2024-05-22	09:39:31	09:47:13	461738	6.6.1	4_exp_EVA_AWA_CON	44	B	A	Rpleas_acq	Oppo	Rpleas	2pleas	acq_US_unple_nomask	acq3_nomask	3	30	453	1	300	300	0	0	461	46	1	0	loyal	fair	retten	helfen	treu	lachen	lasch	faul	rächen	hindern	tot	leiden	tolerant	ehrlich	spielen	schön	freundlich	schlau	tyrannisch	eitel	strafen	schlecht	fanatisch	schroff	1	blank2r.bmp	0	1	+	0	1	blank2r.bmp	500	1	BMVZ	500	1	blank2r.bmp	880	5	tot	880	1	!	1292	1	!	1362	0	0	0	0	0	0
2024-05-22	09:39:31	09:47:16	464192	6.6.1	4_exp_EVA_AWA_CON	44	B	A	Rpleas_acq	Oppo	Rpleas	2pleas	acq_US_unple_nomask	acq3_nomask	3	31	453	0	300	300	0	0	676	46	1	0	loyal	fair	retten	helfen	treu	lachen	lasch	faul	rächen	hindern	tot	leiden	tolerant	ehrlich	spielen	schön	freundlich	schlau	tyrannisch	eitel	strafen	schlecht	fanatisch	schroff	1	blank2r.bmp	0	1	+	0	1	blank2r.bmp	500	1	BMVZ	500	1	blank2r.bmp	880	2	faul	880	1	!	1292	1	!	-1	0	0	0	0	0	0
2024-05-22	09:39:31	09:47:18	466495	6.6.1	4_exp_EVA_AWA_CON	44	B	A	Rpleas_acq	Oppo	Rpleas	2pleas	acq_US_pleas_nomask	acq3_nomask	3	32	453	0	300	300	0	0	528	50	1	0	loyal	fair	retten	helfen	treu	lachen	lasch	faul	rächen	hindern	tot	leiden	tolerant	ehrlich	spielen	schön	freundlich	schlau	tyrannisch	eitel	strafen	schlecht	fanatisch	schroff	1	blank2r.bmp	0	1	+	0	1	blank2r.bmp	500	1	GKQX	500	1	blank2r.bmp	880	4	helfen	880	1	!	1292	1	!	-1	0	0	0	0	0	0
2024-05-22	09:39:31	09:47:20	468888	6.6.1	4_exp_EVA_AWA_CON	44	B	A	Rpleas_acq	Oppo	Rpleas	2pleas	acq_US_pleas_nomask	acq3_nomask	3	33	453	0	300	300	0	0	619	50	1	0	loyal	fair	retten	helfen	treu	lachen	lasch	faul	rächen	hindern	tot	leiden	tolerant	ehrlich	spielen	schön	freundlich	schlau	tyrannisch	eitel	strafen	schlecht	fanatisch	schroff	1	blank2r.bmp	0	1	+	0	1	blank2r.bmp	500	1	GKQX	500	1	blank2r.bmp	880	5	treu	880	1	!	1292	1	!	-1	0	0	0	0	0	0
2024-05-22	09:39:31	09:47:22	471025	6.6.1	4_exp_EVA_AWA_CON	44	B	A	Rpleas_acq	Oppo	Rpleas	2pleas	acq_US_pleas_nomask	acq3_nomask	3	34	453	0	300	300	0	0	363	50	1	0	loyal	fair	retten	helfen	treu	lachen	lasch	faul	rächen	hindern	tot	leiden	tolerant	ehrlich	spielen	schön	freundlich	schlau	tyrannisch	eitel	strafen	schlecht	fanatisch	schroff	1	blank2r.bmp	0	1	+	0	1	blank2r.bmp	500	1	GKQX	500	1	blank2r.bmp	880	6	lachen	880	1	!	-1	1	!	-1	0	0	0	0	0	0
2024-05-22	09:39:31	09:47:25	473290	6.6.1	4_exp_EVA_AWA_CON	44	B	A	Rpleas_acq	Oppo	Rpleas	2pleas	acq_US_unple_nomask	acq3_nomask	3	35	453	1	300	300	0	0	486	46	1	0	loyal	fair	retten	helfen	treu	lachen	lasch	faul	rächen	hindern	tot	leiden	tolerant	ehrlich	spielen	schön	freundlich	schlau	tyrannisch	eitel	strafen	schlecht	fanatisch	schroff	1	blank2r.bmp	0	1	+	0	1	blank2r.bmp	500	1	BMVZ	500	1	blank2r.bmp	880	4	hindern	880	1	!	1292	1	!	1387	0	0	0	0	0	0
2024-05-22	09:39:31	09:47:27	475899	6.6.1	4_exp_EVA_AWA_CON	44	B	A	Rpleas_acq	Oppo	Rpleas	2pleas	acq_US_unple_nomask	acq3_nomask	3	36	453	0	300	300	0	0	632	50	0	0	loyal	fair	retten	helfen	treu	lachen	lasch	faul	rächen	hindern	tot	leiden	tolerant	ehrlich	spielen	schön	freundlich	schlau	tyrannisch	eitel	strafen	schlecht	fanatisch	schroff	1	blank2r.bmp	0	1	+	0	1	blank2r.bmp	500	1	BMVZ	500	1	blank2r.bmp	880	3	rächen	880	1	FEHLER	1825	1	!	1292	1	!	-1	0	0	0
2024-05-22	09:39:31	09:47:49	497129	6.6.1	4_exp_EVA_AWA_CON	44	B	A	Rpleas_acq	Oppo	Rpleas	2pleas	acq_US_pleas_nomask	acq45_nomask	4	1	400	0	300	300	0	0	7155	50	1	0	loyal	fair	retten	helfen	treu	lachen	lasch	faul	rächen	hindern	tot	leiden	tolerant	ehrlich	spielen	schön	freundlich	schlau	tyrannisch	eitel	strafen	schlecht	fanatisch	schroff	1	blank2r.bmp	0	1	+	0	1	blank2r.bmp	500	1	GKQX	500	1	blank2r.bmp	880	5	treu	880	1	!	1232	1	!	-1	0	0	0	0	0	0
2024-05-22	09:39:31	09:47:51	499464	6.6.1	4_exp_EVA_AWA_CON	44	B	A	Rpleas_acq	Oppo	Rpleas	2pleas	acq_US_pleas_nomask	acq45_nomask	4	2	400	0	300	300	0	0	555	50	1	0	loyal	fair	retten	helfen	treu	lachen	lasch	faul	rächen	hindern	tot	leiden	tolerant	ehrlich	spielen	schön	freundlich	schlau	tyrannisch	eitel	strafen	schlecht	fanatisch	schroff	1	blank2r.bmp	0	1	+	0	1	blank2r.bmp	500	1	GKQX	500	1	blank2r.bmp	880	4	helfen	880	1	!	1232	1	!	-1	0	0	0	0	0	0
2024-05-22	09:39:31	09:47:53	501840	6.6.1	4_exp_EVA_AWA_CON	44	B	A	Rpleas_acq	Oppo	Rpleas	2pleas	acq_US_pleas_nomask	acq45_nomask	4	3	400	0	300	300	0	0	599	46	0	0	loyal	fair	retten	helfen	treu	lachen	lasch	faul	rächen	hindern	tot	leiden	tolerant	ehrlich	spielen	schön	freundlich	schlau	tyrannisch	eitel	strafen	schlecht	fanatisch	schroff	1	blank2r.bmp	0	1	+	0	1	blank2r.bmp	500	1	GKQX	500	1	blank2r.bmp	880	1	loyal	880	1	!	1232	1	!	-1	0	0	0	0	0	0
2024-05-22	09:39:31	09:47:56	504218	6.6.1	4_exp_EVA_AWA_CON	44	B	A	Rpleas_acq	Oppo	Rpleas	2pleas	acq_US_unple_nomask	acq45_nomask	4	4	400	0	300	300	0	0	605	46	1	0	loyal	fair	retten	helfen	treu	lachen	lasch	faul	rächen	hindern	tot	leiden	tolerant	ehrlich	spielen	schön	freundlich	schlau	tyrannisch	eitel	strafen	schlecht	fanatisch	schroff	1	blank2r.bmp	0	1	+	0	1	blank2r.bmp	500	1	BMVZ	500	1	blank2r.bmp	880	5	tot	880	1	!	1232	1	!	-1	0	0	0	0	0	0
2024-05-22	09:39:31	09:47:58	506529	6.6.1	4_exp_EVA_AWA_CON	44	B	A	Rpleas_acq	Oppo	Rpleas	2pleas	acq_US_pleas_nomask	acq45_nomask	4	5	400	0	300	300	0	0	534	50	1	0	loyal	fair	retten	helfen	treu	lachen	lasch	faul	rächen	hindern	tot	leiden	tolerant	ehrlich	spielen	schön	freundlich	schlau	tyrannisch	eitel	strafen	schlecht	fanatisch	schroff	1	blank2r.bmp	0	1	+	0	1	blank2r.bmp	500	1	GKQX	500	1	blank2r.bmp	880	6	lachen	880	1	!	1233	1	!	-1	0	0	0	0	0	0
2024-05-22	09:39:31	09:48:00	508747	6.6.1	4_exp_EVA_AWA_CON	44	B	A	Rpleas_acq	Oppo	Rpleas	2pleas	acq_US_unple_nomask	acq45_nomask	4	6	400	1	300	300	0	0	439	46	1	0	loyal	fair	retten	helfen	treu	lachen	lasch	faul	rächen	hindern	tot	leiden	tolerant	ehrlich	spielen	schön	freundlich	schlau	tyrannisch	eitel	strafen	schlecht	fanatisch	schroff	1	blank2r.bmp	0	1	+	0	1	blank2r.bmp	500	1	BMVZ	500	1	blank2r.bmp	880	3	rächen	880	1	!	1233	1	!	1340	0	0	0	0	0	0
2024-05-22	09:39:31	09:48:02	510986	6.6.1	4_exp_EVA_AWA_CON	44	B	A	Rpleas_acq	Oppo	Rpleas	2pleas	acq_US_pleas_nomask	acq45_nomask	4	7	400	1	300	300	0	0	458	46	0	0	loyal	fair	retten	helfen	treu	lachen	lasch	faul	rächen	hindern	tot	leiden	tolerant	ehrlich	spielen	schön	freundlich	schlau	tyrannisch	eitel	strafen	schlecht	fanatisch	schroff	1	blank2r.bmp	0	1	+	0	1	blank2r.bmp	500	1	GKQX	500	1	blank2r.bmp	880	3	retten	880	1	!	1232	1	!	1358	0	0	0	0	0	0
2024-05-22	09:39:31	09:48:05	513297	6.6.1	4_exp_EVA_AWA_CON	44	B	A	Rpleas_acq	Oppo	Rpleas	2pleas	acq_US_pleas_nomask	acq45_nomask	4	8	400	0	300	300	0	0	538	50	1	0	loyal	fair	retten	helfen	treu	lachen	lasch	faul	rächen	hindern	tot	leiden	tolerant	ehrlich	spielen	schön	freundlich	schlau	tyrannisch	eitel	strafen	schlecht	fanatisch	schroff	1	blank2r.bmp	0	1	+	0	1	blank2r.bmp	500	1	GKQX	500	1	blank2r.bmp	880	2	fair	880	1	!	1232	1	!	-1	0	0	0	0	0	0
2024-05-22	09:39:31	09:48:07	515514	6.6.1	4_exp_EVA_AWA_CON	44	B	A	Rpleas_acq	Oppo	Rpleas	2pleas	acq_US_pleas_nomask	acq45_nomask	4	9	400	1	300	300	0	0	443	50	1	0	loyal	fair	retten	helfen	treu	lachen	lasch	faul	rächen	hindern	tot	leiden	tolerant	ehrlich	spielen	schön	freundlich	schlau	tyrannisch	eitel	strafen	schlecht	fanatisch	schroff	1	blank2r.bmp	0	1	+	0	1	blank2r.bmp	500	1	GKQX	500	1	blank2r.bmp	880	2	fair	880	1	!	1232	1	!	1344	0	0	0	0	0	0
2024-05-22	09:39:31	09:48:09	517633	6.6.1	4_exp_EVA_AWA_CON	44	B	A	Rpleas_acq	Oppo	Rpleas	2pleas	acq_US_unple_nomask	acq45_nomask	4	10	400	1	300	300	0	0	341	46	1	0	loyal	fair	retten	helfen	treu	lachen	lasch	faul	rächen	hindern	tot	leiden	tolerant	ehrlich	spielen	schön	freundlich	schlau	tyrannisch	eitel	strafen	schlecht	fanatisch	schroff	1	blank2r.bmp	0	1	+	0	1	blank2r.bmp	500	1	BMVZ	500	1	blank2r.bmp	880	6	leiden	880	1	!	1232	1	!	1240	0	0	0	0	0	0
2024-05-22	09:39:31	09:48:11	519858	6.6.1	4_exp_EVA_AWA_CON	44	B	A	Rpleas_acq	Oppo	Rpleas	2pleas	acq_US_unple_nomask	acq45_nomask	4	11	400	1	300	300	0	0	444	50	0	0	loyal	fair	retten	helfen	treu	lachen	lasch	faul	rächen	hindern	tot	leiden	tolerant	ehrlich	spielen	schön	freundlich	schlau	tyrannisch	eitel	strafen	schlecht	fanatisch	schroff	1	blank2r.bmp	0	1	+	0	1	blank2r.bmp	500	1	BMVZ	500	1	blank2r.bmp	880	2	faul	880	1	!	1232	1	!	1345	0	0	0	0	0	0
2024-05-22	09:39:31	09:48:14	522152	6.6.1	4_exp_EVA_AWA_CON	44	B	A	Rpleas_acq	Oppo	Rpleas	2pleas	acq_US_pleas_nomask	acq45_nomask	4	12	400	0	300	300	0	0	518	50	1	0	loyal	fair	retten	helfen	treu	lachen	lasch	faul	rächen	hindern	tot	leiden	tolerant	ehrlich	spielen	schön	freundlich	schlau	tyrannisch	eitel	strafen	schlecht	fanatisch	schroff	1	blank2r.bmp	0	1	+	0	1	blank2r.bmp	500	1	GKQX	500	1	blank2r.bmp	880	1	loyal	880	1	!	1232	1	!	-1	0	0	0	0	0	0
2024-05-22	09:39:31	09:48:16	524354	6.6.1	4_exp_EVA_AWA_CON	44	B	A	Rpleas_acq	Oppo	Rpleas	2pleas	acq_US_unple_nomask	acq45_nomask	4	13	400	1	300	300	0	0	427	46	1	0	loyal	fair	retten	helfen	treu	lachen	lasch	faul	rächen	hindern	tot	leiden	tolerant	ehrlich	spielen	schön	freundlich	schlau	tyrannisch	eitel	strafen	schlecht	fanatisch	schroff	1	blank2r.bmp	0	1	+	0	1	blank2r.bmp	500	1	BMVZ	500	1	blank2r.bmp	880	1	lasch	880	1	!	1232	1	!	1328	0	0	0	0	0	0
2024-05-22	09:39:31	09:48:18	526689	6.6.1	4_exp_EVA_AWA_CON	44	B	A	Rpleas_acq	Oppo	Rpleas	2pleas	acq_US_unple_nomask	acq45_nomask	4	14	400	0	300	300	0	0	562	46	1	0	loyal	fair	retten	helfen	treu	lachen	lasch	faul	rächen	hindern	tot	leiden	tolerant	ehrlich	spielen	schön	freundlich	schlau	tyrannisch	eitel	strafen	schlecht	fanatisch	schroff	1	blank2r.bmp	0	1	+	0	1	blank2r.bmp	500	1	BMVZ	500	1	blank2r.bmp	880	4	hindern	880	1	!	1232	1	!	-1	0	0	0	0	0	0
2024-05-22	09:39:31	09:48:20	528938	6.6.1	4_exp_EVA_AWA_CON	44	B	A	Rpleas_acq	Oppo	Rpleas	2pleas	acq_US_unple_nomask	acq45_nomask	4	15	400	1	300	300	0	0	468	46	1	0	loyal	fair	retten	helfen	treu	lachen	lasch	faul	rächen	hindern	tot	leiden	tolerant	ehrlich	spielen	schön	freundlich	schlau	tyrannisch	eitel	strafen	schlecht	fanatisch	schroff	1	blank2r.bmp	0	1	+	0	1	blank2r.bmp	500	1	BMVZ	500	1	blank2r.bmp	880	6	leiden	880	1	!	1232	1	!	1369	0	0	0	0	0	0
2024-05-22	09:39:31	09:48:23	531098	6.6.1	4_exp_EVA_AWA_CON	44	B	A	Rpleas_acq	Oppo	Rpleas	2pleas	acq_US_unple_nomask	acq45_nomask	4	16	400	1	300	300	0	0	387	46	1	0	loyal	fair	retten	helfen	treu	lachen	lasch	faul	rächen	hindern	tot	leiden	tolerant	ehrlich	spielen	schön	freundlich	schlau	tyrannisch	eitel	strafen	schlecht	fanatisch	schroff	1	blank2r.bmp	0	1	+	0	1	blank2r.bmp	500	1	BMVZ	500	1	blank2r.bmp	880	1	lasch	880	1	!	1232	1	!	1287	0	0	0	0	0	0
2024-05-22	09:39:31	09:48:25	533283	6.6.1	4_exp_EVA_AWA_CON	44	B	A	Rpleas_acq	Oppo	Rpleas	2pleas	acq_US_unple_nomask	acq45_nomask	4	17	400	1	300	300	0	0	409	46	1	0	loyal	fair	retten	helfen	treu	lachen	lasch	faul	rächen	hindern	tot	leiden	tolerant	ehrlich	spielen	schön	freundlich	schlau	tyrannisch	eitel	strafen	schlecht	fanatisch	schroff	1	blank2r.bmp	0	1	+	0	1	blank2r.bmp	500	1	BMVZ	500	1	blank2r.bmp	880	4	hindern	880	1	!	1232	1	!	1310	0	0	0	0	0	0
2024-05-22	09:39:31	09:48:27	535482	6.6.1	4_exp_EVA_AWA_CON	44	B	A	Rpleas_acq	Oppo	Rpleas	2pleas	acq_US_pleas_nomask	acq45_nomask	4	18	400	1	300	300	0	0	418	46	0	0	loyal	fair	retten	helfen	treu	lachen	lasch	faul	rächen	hindern	tot	leiden	tolerant	ehrlich	spielen	schön	freundlich	schlau	tyrannisch	eitel	strafen	schlecht	fanatisch	schroff	1	blank2r.bmp	0	1	+	0	1	blank2r.bmp	500	1	GKQX	500	1	blank2r.bmp	880	5	treu	880	1	!	1232	1	!	1318	0	0	0	0	0	0
2024-05-22	09:39:31	09:48:29	537760	6.6.1	4_exp_EVA_AWA_CON	44	B	A	Rpleas_acq	Oppo	Rpleas	2pleas	acq_US_pleas_nomask	acq45_nomask	4	19	400	0	300	300	0	0	496	50	1	0	loyal	fair	retten	helfen	treu	lachen	lasch	faul	rächen	hindern	tot	leiden	tolerant	ehrlich	spielen	schön	freundlich	schlau	tyrannisch	eitel	strafen	schlecht	fanatisch	schroff	1	blank2r.bmp	0	1	+	0	1	blank2r.bmp	500	1	GKQX	500	1	blank2r.bmp	880	4	helfen	880	1	!	1232	1	!	-1	0	0	0	0	0	0
2024-05-22	09:39:31	09:48:31	539930	6.6.1	4_exp_EVA_AWA_CON	44	B	A	Rpleas_acq	Oppo	Rpleas	2pleas	acq_US_pleas_nomask	acq45_nomask	4	20	400	1	300	300	0	0	393	50	1	0	loyal	fair	retten	helfen	treu	lachen	lasch	faul	rächen	hindern	tot	leiden	tolerant	ehrlich	spielen	schön	freundlich	schlau	tyrannisch	eitel	strafen	schlecht	fanatisch	schroff	1	blank2r.bmp	0	1	+	0	1	blank2r.bmp	500	1	GKQX	500	1	blank2r.bmp	880	6	lachen	880	1	!	1232	1	!	1294	0	0	0	0	0	0
2024-05-22	09:39:31	09:48:33	542017	6.6.1	4_exp_EVA_AWA_CON	44	B	A	Rpleas_acq	Oppo	Rpleas	2pleas	acq_US_unple_nomask	acq45_nomask	4	21	400	0	300	300	0	0	309	50	0	0	loyal	fair	retten	helfen	treu	lachen	lasch	faul	rächen	hindern	tot	leiden	tolerant	ehrlich	spielen	schön	freundlich	schlau	tyrannisch	eitel	strafen	schlecht	fanatisch	schroff	1	blank2r.bmp	0	1	+	0	1	blank2r.bmp	500	1	BMVZ	500	1	blank2r.bmp	880	2	faul	880	1	!	-1	1	!	-1	0	0	0	0	0	0
2024-05-22	09:39:31	09:48:36	544120	6.6.1	4_exp_EVA_AWA_CON	44	B	A	Rpleas_acq	Oppo	Rpleas	2pleas	acq_US_unple_nomask	acq45_nomask	4	22	400	0	300	300	0	0	322	46	1	0	loyal	fair	retten	helfen	treu	lachen	lasch	faul	rächen	hindern	tot	leiden	tolerant	ehrlich	spielen	schön	freundlich	schlau	tyrannisch	eitel	strafen	schlecht	fanatisch	schroff	1	blank2r.bmp	0	1	+	0	1	blank2r.bmp	500	1	BMVZ	500	1	blank2r.bmp	880	5	tot	880	1	!	-1	1	!	-1	0	0	0	0	0	0
2024-05-22	09:39:31	09:48:38	546363	6.6.1	4_exp_EVA_AWA_CON	44	B	A	Rpleas_acq	Oppo	Rpleas	2pleas	acq_US_unple_nomask	acq45_nomask	4	23	400	1	300	300	0	0	461	46	1	0	loyal	fair	retten	helfen	treu	lachen	lasch	faul	rächen	hindern	tot	leiden	tolerant	ehrlich	spielen	schön	freundlich	schlau	tyrannisch	eitel	strafen	schlecht	fanatisch	schroff	1	blank2r.bmp	0	1	+	0	1	blank2r.bmp	500	1	BMVZ	500	1	blank2r.bmp	880	3	rächen	880	1	!	1232	1	!	1362	0	0	0	0	0	0
2024-05-22	09:39:31	09:48:40	548816	6.6.1	4_exp_EVA_AWA_CON	44	B	A	Rpleas_acq	Oppo	Rpleas	2pleas	acq_US_unple_nomask	acq45_nomask	4	24	400	0	300	300	0	0	675	46	1	0	loyal	fair	retten	helfen	treu	lachen	lasch	faul	rächen	hindern	tot	leiden	tolerant	ehrlich	spielen	schön	freundlich	schlau	tyrannisch	eitel	strafen	schlecht	fanatisch	schroff	1	blank2r.bmp	0	1	+	0	1	blank2r.bmp	500	1	BMVZ	500	1	blank2r.bmp	880	6	leiden	880	1	!	1232	1	!	-1	0	0	0	0	0	0
2024-05-22	09:39:31	09:48:42	551035	6.6.1	4_exp_EVA_AWA_CON	44	B	A	Rpleas_acq	Oppo	Rpleas	2pleas	acq_US_pleas_nomask	acq45_nomask	4	25	400	1	300	300	0	0	440	46	0	0	loyal	fair	retten	helfen	treu	lachen	lasch	faul	rächen	hindern	tot	leiden	tolerant	ehrlich	spielen	schön	freundlich	schlau	tyrannisch	eitel	strafen	schlecht	fanatisch	schroff	1	blank2r.bmp	0	1	+	0	1	blank2r.bmp	500	1	GKQX	500	1	blank2r.bmp	880	3	retten	880	1	!	1233	1	!	1342	0	0	0	0	0	0
2024-05-22	09:39:31	09:48:45	553250	6.6.1	4_exp_EVA_AWA_CON	44	B	A	Rpleas_acq	Oppo	Rpleas	2pleas	acq_US_unple_nomask	acq45_nomask	4	26	400	1	300	300	0	0	434	50	0	0	loyal	fair	retten	helfen	treu	lachen	lasch	faul	rächen	hindern	tot	leiden	tolerant	ehrlich	spielen	schön	freundlich	schlau	tyrannisch	eitel	strafen	schlecht	fanatisch	schroff	1	blank2r.bmp	0	1	+	0	1	blank2r.bmp	500	1	BMVZ	500	1	blank2r.bmp	880	4	hindern	880	1	!	1232	1	!	1335	0	0	0	0	0	0
2024-05-22	09:39:31	09:48:47	555450	6.6.1	4_exp_EVA_AWA_CON	44	B	A	Rpleas_acq	Oppo	Rpleas	2pleas	acq_US_unple_nomask	acq45_nomask	4	27	400	1	300	300	0	0	423	50	0	0	loyal	fair	retten	helfen	treu	lachen	lasch	faul	rächen	hindern	tot	leiden	tolerant	ehrlich	spielen	schön	freundlich	schlau	tyrannisch	eitel	strafen	schlecht	fanatisch	schroff	1	blank2r.bmp	0	1	+	0	1	blank2r.bmp	500	1	BMVZ	500	1	blank2r.bmp	880	2	faul	880	1	!	1232	1	!	1324	0	0	0	0	0	0
2024-05-22	09:39:31	09:48:49	557504	6.6.1	4_exp_EVA_AWA_CON	44	B	A	Rpleas_acq	Oppo	Rpleas	2pleas	acq_US_unple_nomask	acq45_nomask	4	28	400	0	300	300	0	0	277	50	0	0	loyal	fair	retten	helfen	treu	lachen	lasch	faul	rächen	hindern	tot	leiden	tolerant	ehrlich	spielen	schön	freundlich	schlau	tyrannisch	eitel	strafen	schlecht	fanatisch	schroff	1	blank2r.bmp	0	1	+	0	1	blank2r.bmp	500	1	BMVZ	500	1	blank2r.bmp	880	1	lasch	880	1	!	-1	1	!	-1	0	0	0	0	0	0
2024-05-22	09:39:31	09:48:51	559698	6.6.1	4_exp_EVA_AWA_CON	44	B	A	Rpleas_acq	Oppo	Rpleas	2pleas	acq_US_unple_nomask	acq45_nomask	4	29	400	1	300	300	0	0	418	46	1	0	loyal	fair	retten	helfen	treu	lachen	lasch	faul	rächen	hindern	tot	leiden	tolerant	ehrlich	spielen	schön	freundlich	schlau	tyrannisch	eitel	strafen	schlecht	fanatisch	schroff	1	blank2r.bmp	0	1	+	0	1	blank2r.bmp	500	1	BMVZ	500	1	blank2r.bmp	880	5	tot	880	1	!	1232	1	!	1319	0	0	0	0	0	0
2024-05-22	09:39:31	09:48:53	561931	6.6.1	4_exp_EVA_AWA_CON	44	B	A	Rpleas_acq	Oppo	Rpleas	2pleas	acq_US_pleas_nomask	acq45_nomask	4	30	400	1	300	300	0	0	459	50	1	0	loyal	fair	retten	helfen	treu	lachen	lasch	faul	rächen	hindern	tot	leiden	tolerant	ehrlich	spielen	schön	freundlich	schlau	tyrannisch	eitel	strafen	schlecht	fanatisch	schroff	1	blank2r.bmp	0	1	+	0	1	blank2r.bmp	500	1	GKQX	500	1	blank2r.bmp	880	6	lachen	880	1	!	1233	1	!	1360	0	0	0	0	0	0
2024-05-22	09:39:31	09:48:56	564200	6.6.1	4_exp_EVA_AWA_CON	44	B	A	Rpleas_acq	Oppo	Rpleas	2pleas	acq_US_pleas_nomask	acq45_nomask	4	31	400	0	300	300	0	0	489	50	1	0	loyal	fair	retten	helfen	treu	lachen	lasch	faul	rächen	hindern	tot	leiden	tolerant	ehrlich	spielen	schön	freundlich	schlau	tyrannisch	eitel	strafen	schlecht	fanatisch	schroff	1	blank2r.bmp	0	1	+	0	1	blank2r.bmp	500	1	GKQX	500	1	blank2r.bmp	880	1	loyal	880	1	!	1232	1	!	-1	0	0	0	0	0	0
2024-05-22	09:39:31	09:49:00	568393	6.6.1	4_exp_EVA_AWA_CON	44	B	A	Rpleas_acq	Oppo	Rpleas	2pleas	acq_US_unple_nomask	acq45_nomask	4	32	400	0	300	300	0	0	2420	50	0	0	loyal	fair	retten	helfen	treu	lachen	lasch	faul	rächen	hindern	tot	leiden	tolerant	ehrlich	spielen	schön	freundlich	schlau	tyrannisch	eitel	strafen	schlecht	fanatisch	schroff	1	blank2r.bmp	0	1	+	0	1	blank2r.bmp	500	1	BMVZ	500	1	blank2r.bmp	880	3	rächen	880	1	!	1232	1	!	-1	0	0	0	0	0	0
2024-05-22	09:39:31	09:49:02	570704	6.6.1	4_exp_EVA_AWA_CON	44	B	A	Rpleas_acq	Oppo	Rpleas	2pleas	acq_US_pleas_nomask	acq45_nomask	4	33	400	0	300	300	0	0	539	50	1	0	loyal	fair	retten	helfen	treu	lachen	lasch	faul	rächen	hindern	tot	leiden	tolerant	ehrlich	spielen	schön	freundlich	schlau	tyrannisch	eitel	strafen	schlecht	fanatisch	schroff	1	blank2r.bmp	0	1	+	0	1	blank2r.bmp	500	1	GKQX	500	1	blank2r.bmp	880	4	helfen	880	1	!	1233	1	!	-1	0	0	0	0	0	0
2024-05-22	09:39:31	09:49:04	572906	6.6.1	4_exp_EVA_AWA_CON	44	B	A	Rpleas_acq	Oppo	Rpleas	2pleas	acq_US_pleas_nomask	acq45_nomask	4	34	400	1	300	300	0	0	428	50	1	0	loyal	fair	retten	helfen	treu	lachen	lasch	faul	rächen	hindern	tot	leiden	tolerant	ehrlich	spielen	schön	freundlich	schlau	tyrannisch	eitel	strafen	schlecht	fanatisch	schroff	1	blank2r.bmp	0	1	+	0	1	blank2r.bmp	500	1	GKQX	500	1	blank2r.bmp	880	3	retten	880	1	!	1233	1	!	1329	0	0	0	0	0	0
2024-05-22	09:39:31	09:49:07	575216	6.6.1	4_exp_EVA_AWA_CON	44	B	A	Rpleas_acq	Oppo	Rpleas	2pleas	acq_US_pleas_nomask	acq45_nomask	4	35	400	0	300	300	0	0	528	50	1	0	loyal	fair	retten	helfen	treu	lachen	lasch	faul	rächen	hindern	tot	leiden	tolerant	ehrlich	spielen	schön	freundlich	schlau	tyrannisch	eitel	strafen	schlecht	fanatisch	schroff	1	blank2r.bmp	0	1	+	0	1	blank2r.bmp	500	1	GKQX	500	1	blank2r.bmp	880	2	fair	880	1	!	1233	1	!	-1	0	0	0	0	0	0
2024-05-22	09:39:31	09:49:09	577481	6.6.1	4_exp_EVA_AWA_CON	44	B	A	Rpleas_acq	Oppo	Rpleas	2pleas	acq_US_pleas_nomask	acq45_nomask	4	36	400	0	300	300	0	0	491	50	1	0	loyal	fair	retten	helfen	treu	lachen	lasch	faul	rächen	hindern	tot	leiden	tolerant	ehrlich	spielen	schön	freundlich	schlau	tyrannisch	eitel	strafen	schlecht	fanatisch	schroff	1	blank2r.bmp	0	1	+	0	1	blank2r.bmp	500	1	GKQX	500	1	blank2r.bmp	880	5	treu	880	1	!	1232	1	!	-1	0	0	0	0	0	0
2024-05-22	09:39:31	09:49:50	618944	6.6.1	4_exp_EVA_AWA_CON	44	B	A	Rpleas_acq	Oppo	Rpleas	2pleas	acq_US_pleas_nomask	acq45_nomask	5	1	400	0	300	300	0	0	658	50	1	0	loyal	fair	retten	helfen	treu	lachen	lasch	faul	rächen	hindern	tot	leiden	tolerant	ehrlich	spielen	schön	freundlich	schlau	tyrannisch	eitel	strafen	schlecht	fanatisch	schroff	1	blank2r.bmp	0	1	+	0	1	blank2r.bmp	500	1	GKQX	500	1	blank2r.bmp	880	3	retten	880	1	!	1232	1	!	-1	0	0	0	0	0	0
2024-05-22	09:39:31	09:49:56	624289	6.6.1	4_exp_EVA_AWA_CON	44	B	A	Rpleas_acq	Oppo	Rpleas	2pleas	acq_US_unple_nomask	acq45_nomask	5	2	400	0	300	300	0	0	3571	50	0	0	loyal	fair	retten	helfen	treu	lachen	lasch	faul	rächen	hindern	tot	leiden	tolerant	ehrlich	spielen	schön	freundlich	schlau	tyrannisch	eitel	strafen	schlecht	fanatisch	schroff	1	blank2r.bmp	0	1	+	0	1	blank2r.bmp	500	1	BMVZ	500	1	blank2r.bmp	880	3	rächen	880	1	!	1232	1	!	-1	0	0	0	0	0	0
2024-05-22	09:39:31	09:49:58	626483	6.6.1	4_exp_EVA_AWA_CON	44	B	A	Rpleas_acq	Oppo	Rpleas	2pleas	acq_US_unple_nomask	acq45_nomask	5	3	400	1	300	300	0	0	419	46	1	0	loyal	fair	retten	helfen	treu	lachen	lasch	faul	rächen	hindern	tot	leiden	tolerant	ehrlich	spielen	schön	freundlich	schlau	tyrannisch	eitel	strafen	schlecht	fanatisch	schroff	1	blank2r.bmp	0	1	+	0	1	blank2r.bmp	500	1	BMVZ	500	1	blank2r.bmp	880	5	tot	880	1	!	1232	1	!	1320	0	0	0	0	0	0
2024-05-22	09:39:31	09:50:00	628904	6.6.1	4_exp_EVA_AWA_CON	44	B	A	Rpleas_acq	Oppo	Rpleas	2pleas	acq_US_unple_nomask	acq45_nomask	5	4	400	0	300	300	0	0	642	50	0	0	loyal	fair	retten	helfen	treu	lachen	lasch	faul	rächen	hindern	tot	leiden	tolerant	ehrlich	spielen	schön	freundlich	schlau	tyrannisch	eitel	strafen	schlecht	fanatisch	schroff	1	blank2r.bmp	0	1	+	0	1	blank2r.bmp	500	1	BMVZ	500	1	blank2r.bmp	880	4	hindern	880	1	!	1232	1	!	-1	0	0	0	0	0	0
2024-05-22	09:39:31	09:50:03	631138	6.6.1	4_exp_EVA_AWA_CON	44	B	A	Rpleas_acq	Oppo	Rpleas	2pleas	acq_US_pleas_nomask	acq45_nomask	5	5	400	1	300	300	0	0	452	46	0	0	loyal	fair	retten	helfen	treu	lachen	lasch	faul	rächen	hindern	tot	leiden	tolerant	ehrlich	spielen	schön	freundlich	schlau	tyrannisch	eitel	strafen	schlecht	fanatisch	schroff	1	blank2r.bmp	0	1	+	0	1	blank2r.bmp	500	1	GKQX	500	1	blank2r.bmp	880	2	fair	880	1	!	1232	1	!	1353	0	0	0	0	0	0
2024-05-22	09:39:31	09:50:05	633432	6.6.1	4_exp_EVA_AWA_CON	44	B	A	Rpleas_acq	Oppo	Rpleas	2pleas	acq_US_unple_nomask	acq45_nomask	5	6	400	0	300	300	0	0	517	46	1	0	loyal	fair	retten	helfen	treu	lachen	lasch	faul	rächen	hindern	tot	leiden	tolerant	ehrlich	spielen	schön	freundlich	schlau	tyrannisch	eitel	strafen	schlecht	fanatisch	schroff	1	blank2r.bmp	0	1	+	0	1	blank2r.bmp	500	1	BMVZ	500	1	blank2r.bmp	880	2	faul	880	1	!	1232	1	!	-1	0	0	0	0	0	0
2024-05-22	09:39:31	09:50:07	635505	6.6.1	4_exp_EVA_AWA_CON	44	B	A	Rpleas_acq	Oppo	Rpleas	2pleas	acq_US_unple_nomask	acq45_nomask	5	7	400	0	300	300	0	0	297	50	0	0	loyal	fair	retten	helfen	treu	lachen	lasch	faul	rächen	hindern	tot	leiden	tolerant	ehrlich	spielen	schön	freundlich	schlau	tyrannisch	eitel	strafen	schlecht	fanatisch	schroff	1	blank2r.bmp	0	1	+	0	1	blank2r.bmp	500	1	BMVZ	500	1	blank2r.bmp	880	6	leiden	880	1	!	-1	1	!	-1	0	0	0	0	0	0
2024-05-22	09:39:31	09:50:09	637769	6.6.1	4_exp_EVA_AWA_CON	44	B	A	Rpleas_acq	Oppo	Rpleas	2pleas	acq_US_pleas_nomask	acq45_nomask	5	8	400	0	300	300	0	0	490	46	0	0	loyal	fair	retten	helfen	treu	lachen	lasch	faul	rächen	hindern	tot	leiden	tolerant	ehrlich	spielen	schön	freundlich	schlau	tyrannisch	eitel	strafen	schlecht	fanatisch	schroff	1	blank2r.bmp	0	1	+	0	1	blank2r.bmp	500	1	GKQX	500	1	blank2r.bmp	880	1	loyal	880	1	!	1232	1	!	-1	0	0	0	0	0	0
2024-05-22	09:39:31	09:50:11	640003	6.6.1	4_exp_EVA_AWA_CON	44	B	A	Rpleas_acq	Oppo	Rpleas	2pleas	acq_US_pleas_nomask	acq45_nomask	5	9	400	1	300	300	0	0	451	46	0	0	loyal	fair	retten	helfen	treu	lachen	lasch	faul	rächen	hindern	tot	leiden	tolerant	ehrlich	spielen	schön	freundlich	schlau	tyrannisch	eitel	strafen	schlecht	fanatisch	schroff	1	blank2r.bmp	0	1	+	0	1	blank2r.bmp	500	1	GKQX	500	1	blank2r.bmp	880	5	treu	880	1	!	1232	1	!	1352	0	0	0	0	0	0
2024-05-22	09:39:31	09:50:14	642255	6.6.1	4_exp_EVA_AWA_CON	44	B	A	Rpleas_acq	Oppo	Rpleas	2pleas	acq_US_unple_nomask	acq45_nomask	5	10	400	0	300	300	0	0	475	50	0	0	loyal	fair	retten	helfen	treu	lachen	lasch	faul	rächen	hindern	tot	leiden	tolerant	ehrlich	spielen	schön	freundlich	schlau	tyrannisch	eitel	strafen	schlecht	fanatisch	schroff	1	blank2r.bmp	0	1	+	0	1	blank2r.bmp	500	1	BMVZ	500	1	blank2r.bmp	880	1	lasch	880	1	!	1232	1	!	-1	0	0	0	0	0	0
2024-05-22	09:39:31	09:50:18	646601	6.6.1	4_exp_EVA_AWA_CON	44	B	A	Rpleas_acq	Oppo	Rpleas	2pleas	acq_US_pleas_nomask	acq45_nomask	5	11	400	0	300	300	0	0	2568	50	1	0	loyal	fair	retten	helfen	treu	lachen	lasch	faul	rächen	hindern	tot	leiden	tolerant	ehrlich	spielen	schön	freundlich	schlau	tyrannisch	eitel	strafen	schlecht	fanatisch	schroff	1	blank2r.bmp	0	1	+	0	1	blank2r.bmp	500	1	GKQX	500	1	blank2r.bmp	880	4	helfen	880	1	!	1232	1	!	-1	0	0	0	0	0	0
2024-05-22	09:39:31	09:50:20	648794	6.6.1	4_exp_EVA_AWA_CON	44	B	A	Rpleas_acq	Oppo	Rpleas	2pleas	acq_US_unple_nomask	acq45_nomask	5	12	400	1	300	300	0	0	417	46	1	0	loyal	fair	retten	helfen	treu	lachen	lasch	faul	rächen	hindern	tot	leiden	tolerant	ehrlich	spielen	schön	freundlich	schlau	tyrannisch	eitel	strafen	schlecht	fanatisch	schroff	1	blank2r.bmp	0	1	+	0	1	blank2r.bmp	500	1	BMVZ	500	1	blank2r.bmp	880	2	faul	880	1	!	1232	1	!	1318	0	0	0	0	0	0
2024-05-22	09:39:31	09:50:23	651160	6.6.1	4_exp_EVA_AWA_CON	44	B	A	Rpleas_acq	Oppo	Rpleas	2pleas	acq_US_unple_nomask	acq45_nomask	5	13	400	0	300	300	0	0	594	46	1	0	loyal	fair	retten	helfen	treu	lachen	lasch	faul	rächen	hindern	tot	leiden	tolerant	ehrlich	spielen	schön	freundlich	schlau	tyrannisch	eitel	strafen	schlecht	fanatisch	schroff	1	blank2r.bmp	0	1	+	0	1	blank2r.bmp	500	1	BMVZ	500	1	blank2r.bmp	880	6	leiden	880	1	!	1232	1	!	-1	0	0	0	0	0	0
2024-05-22	09:39:31	09:50:25	653322	6.6.1	4_exp_EVA_AWA_CON	44	B	A	Rpleas_acq	Oppo	Rpleas	2pleas	acq_US_pleas_nomask	acq45_nomask	5	14	400	1	300	300	0	0	382	46	0	0	loyal	fair	retten	helfen	treu	lachen	lasch	faul	rächen	hindern	tot	leiden	tolerant	ehrlich	spielen	schön	freundlich	schlau	tyrannisch	eitel	strafen	schlecht	fanatisch	schroff	1	blank2r.bmp	0	1	+	0	1	blank2r.bmp	500	1	GKQX	500	1	blank2r.bmp	880	6	lachen	880	1	!	1232	1	!	1283	0	0	0	0	0	0
2024-05-22	09:39:31	09:50:27	655624	6.6.1	4_exp_EVA_AWA_CON	44	B	A	Rpleas_acq	Oppo	Rpleas	2pleas	acq_US_pleas_nomask	acq45_nomask	5	15	400	0	300	300	0	0	525	50	1	0	loyal	fair	retten	helfen	treu	lachen	lasch	faul	rächen	hindern	tot	leiden	tolerant	ehrlich	spielen	schön	freundlich	schlau	tyrannisch	eitel	strafen	schlecht	fanatisch	schroff	1	blank2r.bmp	0	1	+	0	1	blank2r.bmp	500	1	GKQX	500	1	blank2r.bmp	880	2	fair	880	1	!	1232	1	!	-1	0	0	0	0	0	0
2024-05-22	09:39:31	09:50:29	658033	6.6.1	4_exp_EVA_AWA_CON	44	B	A	Rpleas_acq	Oppo	Rpleas	2pleas	acq_US_unple_nomask	acq45_nomask	5	16	400	0	300	300	0	0	631	50	0	0	loyal	fair	retten	helfen	treu	lachen	lasch	faul	rächen	hindern	tot	leiden	tolerant	ehrlich	spielen	schön	freundlich	schlau	tyrannisch	eitel	strafen	schlecht	fanatisch	schroff	1	blank2r.bmp	0	1	+	0	1	blank2r.bmp	500	1	BMVZ	500	1	blank2r.bmp	880	4	hindern	880	1	!	1232	1	!	-1	0	0	0	0	0	0
2024-05-22	09:39:31	09:50:32	660304	6.6.1	4_exp_EVA_AWA_CON	44	B	A	Rpleas_acq	Oppo	Rpleas	2pleas	acq_US_pleas_nomask	acq45_nomask	5	17	400	0	300	300	0	0	492	50	1	0	loyal	fair	retten	helfen	treu	lachen	lasch	faul	rächen	hindern	tot	leiden	tolerant	ehrlich	spielen	schön	freundlich	schlau	tyrannisch	eitel	strafen	schlecht	fanatisch	schroff	1	blank2r.bmp	0	1	+	0	1	blank2r.bmp	500	1	GKQX	500	1	blank2r.bmp	880	1	loyal	880	1	!	1232	1	!	-1	0	0	0	0	0	0
2024-05-22	09:39:31	09:50:34	662672	6.6.1	4_exp_EVA_AWA_CON	44	B	A	Rpleas_acq	Oppo	Rpleas	2pleas	acq_US_pleas_nomask	acq45_nomask	5	18	400	0	300	300	0	0	588	50	1	0	loyal	fair	retten	helfen	treu	lachen	lasch	faul	rächen	hindern	tot	leiden	tolerant	ehrlich	spielen	schön	freundlich	schlau	tyrannisch	eitel	strafen	schlecht	fanatisch	schroff	1	blank2r.bmp	0	1	+	0	1	blank2r.bmp	500	1	GKQX	500	1	blank2r.bmp	880	3	retten	880	1	!	1232	1	!	-1	0	0	0	0	0	0
2024-05-22	09:39:31	09:50:36	665080	6.6.1	4_exp_EVA_AWA_CON	44	B	A	Rpleas_acq	Oppo	Rpleas	2pleas	acq_US_pleas_nomask	acq45_nomask	5	19	400	0	300	300	0	0	635	50	1	0	loyal	fair	retten	helfen	treu	lachen	lasch	faul	rächen	hindern	tot	leiden	tolerant	ehrlich	spielen	schön	freundlich	schlau	tyrannisch	eitel	strafen	schlecht	fanatisch	schroff	1	blank2r.bmp	0	1	+	0	1	blank2r.bmp	500	1	GKQX	500	1	blank2r.bmp	880	6	lachen	880	1	!	1233	1	!	-1	0	0	0	0	0	0
2024-05-22	09:39:31	09:50:39	667330	6.6.1	4_exp_EVA_AWA_CON	44	B	A	Rpleas_acq	Oppo	Rpleas	2pleas	acq_US_unple_nomask	acq45_nomask	5	20	400	1	300	300	0	0	471	50	0	0	loyal	fair	retten	helfen	treu	lachen	lasch	faul	rächen	hindern	tot	leiden	tolerant	ehrlich	spielen	schön	freundlich	schlau	tyrannisch	eitel	strafen	schlecht	fanatisch	schroff	1	blank2r.bmp	0	1	+	0	1	blank2r.bmp	500	1	BMVZ	500	1	blank2r.bmp	880	3	rächen	880	1	!	1232	1	!	1372	0	0	0	0	0	0
2024-05-22	09:39:31	09:50:41	669546	6.6.1	4_exp_EVA_AWA_CON	44	B	A	Rpleas_acq	Oppo	Rpleas	2pleas	acq_US_pleas_nomask	acq45_nomask	5	21	400	1	300	300	0	0	436	46	0	0	loyal	fair	retten	helfen	treu	lachen	lasch	faul	rächen	hindern	tot	leiden	tolerant	ehrlich	spielen	schön	freundlich	schlau	tyrannisch	eitel	strafen	schlecht	fanatisch	schroff	1	blank2r.bmp	0	1	+	0	1	blank2r.bmp	500	1	GKQX	500	1	blank2r.bmp	880	4	helfen	880	1	!	1232	1	!	1337	0	0	0	0	0	0
2024-05-22	09:39:31	09:50:43	671881	6.6.1	4_exp_EVA_AWA_CON	44	B	A	Rpleas_acq	Oppo	Rpleas	2pleas	acq_US_unple_nomask	acq45_nomask	5	22	400	0	300	300	0	0	560	46	1	0	loyal	fair	retten	helfen	treu	lachen	lasch	faul	rächen	hindern	tot	leiden	tolerant	ehrlich	spielen	schön	freundlich	schlau	tyrannisch	eitel	strafen	schlecht	fanatisch	schroff	1	blank2r.bmp	0	1	+	0	1	blank2r.bmp	500	1	BMVZ	500	1	blank2r.bmp	880	1	lasch	880	1	!	1232	1	!	-1	0	0	0	0	0	0
2024-05-22	09:39:31	09:50:46	674168	6.6.1	4_exp_EVA_AWA_CON	44	B	A	Rpleas_acq	Oppo	Rpleas	2pleas	acq_US_unple_nomask	acq45_nomask	5	23	400	0	300	300	0	0	507	46	1	0	loyal	fair	retten	helfen	treu	lachen	lasch	faul	rächen	hindern	tot	leiden	tolerant	ehrlich	spielen	schön	freundlich	schlau	tyrannisch	eitel	strafen	schlecht	fanatisch	schroff	1	blank2r.bmp	0	1	+	0	1	blank2r.bmp	500	1	BMVZ	500	1	blank2r.bmp	880	5	tot	880	1	!	1232	1	!	-1	0	0	0	0	0	0
2024-05-22	09:39:31	09:50:48	676520	6.6.1	4_exp_EVA_AWA_CON	44	B	A	Rpleas_acq	Oppo	Rpleas	2pleas	acq_US_unple_nomask	acq45_nomask	5	24	400	0	300	300	0	0	577	46	1	0	loyal	fair	retten	helfen	treu	lachen	lasch	faul	rächen	hindern	tot	leiden	tolerant	ehrlich	spielen	schön	freundlich	schlau	tyrannisch	eitel	strafen	schlecht	fanatisch	schroff	1	blank2r.bmp	0	1	+	0	1	blank2r.bmp	500	1	BMVZ	500	1	blank2r.bmp	880	3	rächen	880	1	!	1232	1	!	-1	0	0	0	0	0	0
2024-05-22	09:39:31	09:50:50	678698	6.6.1	4_exp_EVA_AWA_CON	44	B	A	Rpleas_acq	Oppo	Rpleas	2pleas	acq_US_pleas_nomask	acq45_nomask	5	25	400	1	300	300	0	0	402	46	0	0	loyal	fair	retten	helfen	treu	lachen	lasch	faul	rächen	hindern	tot	leiden	tolerant	ehrlich	spielen	schön	freundlich	schlau	tyrannisch	eitel	strafen	schlecht	fanatisch	schroff	1	blank2r.bmp	0	1	+	0	1	blank2r.bmp	500	1	GKQX	500	1	blank2r.bmp	880	5	treu	880	1	!	1232	1	!	1302	0	0	0	0	0	0
2024-05-22	09:39:31	09:50:52	680946	6.6.1	4_exp_EVA_AWA_CON	44	B	A	Rpleas_acq	Oppo	Rpleas	2pleas	acq_US_pleas_nomask	acq45_nomask	5	26	400	1	300	300	0	0	468	50	1	0	loyal	fair	retten	helfen	treu	lachen	lasch	faul	rächen	hindern	tot	leiden	tolerant	ehrlich	spielen	schön	freundlich	schlau	tyrannisch	eitel	strafen	schlecht	fanatisch	schroff	1	blank2r.bmp	0	1	+	0	1	blank2r.bmp	500	1	GKQX	500	1	blank2r.bmp	880	6	lachen	880	1	!	1232	1	!	1369	0	0	0	0	0	0
2024-05-22	09:39:31	09:50:55	683256	6.6.1	4_exp_EVA_AWA_CON	44	B	A	Rpleas_acq	Oppo	Rpleas	2pleas	acq_US_unple_nomask	acq45_nomask	5	27	400	0	300	300	0	0	529	50	0	0	loyal	fair	retten	helfen	treu	lachen	lasch	faul	rächen	hindern	tot	leiden	tolerant	ehrlich	spielen	schön	freundlich	schlau	tyrannisch	eitel	strafen	schlecht	fanatisch	schroff	1	blank2r.bmp	0	1	+	0	1	blank2r.bmp	500	1	BMVZ	500	1	blank2r.bmp	880	2	faul	880	1	!	1232	1	!	-1	0	0	0	0	0	0
2024-05-22	09:39:31	09:50:57	685503	6.6.1	4_exp_EVA_AWA_CON	44	B	A	Rpleas_acq	Oppo	Rpleas	2pleas	acq_US_pleas_nomask	acq45_nomask	5	28	400	0	300	300	0	0	475	50	1	0	loyal	fair	retten	helfen	treu	lachen	lasch	faul	rächen	hindern	tot	leiden	tolerant	ehrlich	spielen	schön	freundlich	schlau	tyrannisch	eitel	strafen	schlecht	fanatisch	schroff	1	blank2r.bmp	0	1	+	0	1	blank2r.bmp	500	1	GKQX	500	1	blank2r.bmp	880	3	retten	880	1	!	1232	1	!	-1	0	0	0	0	0	0
2024-05-22	09:39:31	09:50:59	687738	6.6.1	4_exp_EVA_AWA_CON	44	B	A	Rpleas_acq	Oppo	Rpleas	2pleas	acq_US_unple_nomask	acq45_nomask	5	29	400	1	300	300	0	0	456	50	0	0	loyal	fair	retten	helfen	treu	lachen	lasch	faul	rächen	hindern	tot	leiden	tolerant	ehrlich	spielen	schön	freundlich	schlau	tyrannisch	eitel	strafen	schlecht	fanatisch	schroff	1	blank2r.bmp	0	1	+	0	1	blank2r.bmp	500	1	BMVZ	500	1	blank2r.bmp	880	6	leiden	880	1	!	1232	1	!	1357	0	0	0	0	0	0
2024-05-22	09:39:31	09:51:01	689858	6.6.1	4_exp_EVA_AWA_CON	44	B	A	Rpleas_acq	Oppo	Rpleas	2pleas	acq_US_unple_nomask	acq45_nomask	5	30	400	1	300	300	0	0	345	46	1	0	loyal	fair	retten	helfen	treu	lachen	lasch	faul	rächen	hindern	tot	leiden	tolerant	ehrlich	spielen	schön	freundlich	schlau	tyrannisch	eitel	strafen	schlecht	fanatisch	schroff	1	blank2r.bmp	0	1	+	0	1	blank2r.bmp	500	1	BMVZ	500	1	blank2r.bmp	880	5	tot	880	1	!	1232	1	!	1246	0	0	0	0	0	0
2024-05-22	09:39:31	09:51:04	692082	6.6.1	4_exp_EVA_AWA_CON	44	B	A	Rpleas_acq	Oppo	Rpleas	2pleas	acq_US_pleas_nomask	acq45_nomask	5	31	400	1	300	300	0	0	447	50	1	0	loyal	fair	retten	helfen	treu	lachen	lasch	faul	rächen	hindern	tot	leiden	tolerant	ehrlich	spielen	schön	freundlich	schlau	tyrannisch	eitel	strafen	schlecht	fanatisch	schroff	1	blank2r.bmp	0	1	+	0	1	blank2r.bmp	500	1	GKQX	500	1	blank2r.bmp	880	2	fair	880	1	!	1233	1	!	1348	0	0	0	0	0	0
2024-05-22	09:39:31	09:51:06	694352	6.6.1	4_exp_EVA_AWA_CON	44	B	A	Rpleas_acq	Oppo	Rpleas	2pleas	acq_US_pleas_nomask	acq45_nomask	5	32	400	0	300	300	0	0	498	50	1	0	loyal	fair	retten	helfen	treu	lachen	lasch	faul	rächen	hindern	tot	leiden	tolerant	ehrlich	spielen	schön	freundlich	schlau	tyrannisch	eitel	strafen	schlecht	fanatisch	schroff	1	blank2r.bmp	0	1	+	0	1	blank2r.bmp	500	1	GKQX	500	1	blank2r.bmp	880	4	helfen	880	1	!	1233	1	!	-1	0	0	0	0	0	0
2024-05-22	09:39:31	09:51:08	696617	6.6.1	4_exp_EVA_AWA_CON	44	B	A	Rpleas_acq	Oppo	Rpleas	2pleas	acq_US_unple_nomask	acq45_nomask	5	33	400	0	300	300	0	0	490	46	1	0	loyal	fair	retten	helfen	treu	lachen	lasch	faul	rächen	hindern	tot	leiden	tolerant	ehrlich	spielen	schön	freundlich	schlau	tyrannisch	eitel	strafen	schlecht	fanatisch	schroff	1	blank2r.bmp	0	1	+	0	1	blank2r.bmp	500	1	BMVZ	500	1	blank2r.bmp	880	4	hindern	880	1	!	1232	1	!	-1	0	0	0	0	0	0
2024-05-22	09:39:31	09:51:10	698960	6.6.1	4_exp_EVA_AWA_CON	44	B	A	Rpleas_acq	Oppo	Rpleas	2pleas	acq_US_pleas_nomask	acq45_nomask	5	34	400	0	300	300	0	0	563	50	1	0	loyal	fair	retten	helfen	treu	lachen	lasch	faul	rächen	hindern	tot	leiden	tolerant	ehrlich	spielen	schön	freundlich	schlau	tyrannisch	eitel	strafen	schlecht	fanatisch	schroff	1	blank2r.bmp	0	1	+	0	1	blank2r.bmp	500	1	GKQX	500	1	blank2r.bmp	880	1	loyal	880	1	!	1232	1	!	-1	0	0	0	0	0	0
2024-05-22	09:39:31	09:51:13	701210	6.6.1	4_exp_EVA_AWA_CON	44	B	A	Rpleas_acq	Oppo	Rpleas	2pleas	acq_US_unple_nomask	acq45_nomask	5	35	400	1	300	300	0	0	469	50	0	0	loyal	fair	retten	helfen	treu	lachen	lasch	faul	rächen	hindern	tot	leiden	tolerant	ehrlich	spielen	schön	freundlich	schlau	tyrannisch	eitel	strafen	schlecht	fanatisch	schroff	1	blank2r.bmp	0	1	+	0	1	blank2r.bmp	500	1	BMVZ	500	1	blank2r.bmp	880	1	lasch	880	1	!	1232	1	!	1370	0	0	0	0	0	0
2024-05-22	09:39:31	09:51:15	703346	6.6.1	4_exp_EVA_AWA_CON	44	B	A	Rpleas_acq	Oppo	Rpleas	2pleas	acq_US_pleas_nomask	acq45_nomask	5	36	400	1	300	300	0	0	354	46	0	0	loyal	fair	retten	helfen	treu	lachen	lasch	faul	rächen	hindern	tot	leiden	tolerant	ehrlich	spielen	schön	freundlich	schlau	tyrannisch	eitel	strafen	schlecht	fanatisch	schroff	1	blank2r.bmp	0	1	+	0	1	blank2r.bmp	500	1	GKQX	500	1	blank2r.bmp	880	5	treu	880	1	!	1232	1	!	1255	0	0	0	0	0	0
2024-05-22	09:39:31	09:51:47	735132	6.6.1	4_exp_EVA_AWA_CON	44	B	A	Rpleas_acq	Oppo	Lpleas	2pleas	EvalRating_firsttwo	EvalRating_firsttwo	6	1	0	0	300	300	0	0	4105	line	0	-56,5104166666666642982pct	loyal	fair	retten	helfen	treu	lachen	lasch	faul	rächen	hindern	tot	leiden	tolerant	ehrlich	spielen	schön	freundlich	schlau	tyrannisch	eitel	strafen	schlecht	fanatisch	schroff	1		-7	1	Wie angenehm oder unangenehm finden Sie die  Buchstabenkette ZGVK?	-7	1		-7	1		-7	1		-7	1	Unangenehm	-7	1	Angenehm	-7	0	0	0	0	0	0	0	0	0
2024-05-22	09:39:31	09:51:54	742669	6.6.1	4_exp_EVA_AWA_CON	44	B	A	Rpleas_acq	Oppo	Lpleas	2pleas	EvalRating_lastfour	EvalRating_lastfour	7	1	0	0	300	300	0	0	5157	line	0	-28,3854166666666571928pct	loyal	fair	retten	helfen	treu	lachen	lasch	faul	rächen	hindern	tot	leiden	tolerant	ehrlich	spielen	schön	freundlich	schlau	tyrannisch	eitel	strafen	schlecht	fanatisch	schroff	1		-8	2	Wie angenehm oder unangenehm finden Sie die  Buchstabenkette GKQX?	-8	1		-8	1		-8	1		-8	1	Unangenehm	-8	1	Angenehm	-8	0	0	0	0	0	0	0	0	0
2024-05-22	09:39:31	09:51:56	745039	6.6.1	4_exp_EVA_AWA_CON	44	B	A	Rpleas_acq	Oppo	Lpleas	2pleas	blank_screen	EvalRating_lastfour	7	3	0	0	300	300	0	0	0	0	0	-28,3854166666666571928pct	loyal	fair	retten	helfen	treu	lachen	lasch	faul	rächen	hindern	tot	leiden	tolerant	ehrlich	spielen	schön	freundlich	schlau	tyrannisch	eitel	strafen	schlecht	fanatisch	schroff	1		-8	0	0	0	0	0	0	0	0	0	0	0	0	0	0	0	0	0	0	0	0	0	0	0	0	0	0	0
2024-05-22	09:39:31	09:52:03	751293	6.6.1	4_exp_EVA_AWA_CON	44	B	A	Rpleas_acq	Oppo	Lpleas	2pleas	EvalRating_lastfour	EvalRating_lastfour	7	4	0	0	300	300	0	0	5666	line	0	4,0364583333333428072pct	loyal	fair	retten	helfen	treu	lachen	lasch	faul	rächen	hindern	tot	leiden	tolerant	ehrlich	spielen	schön	freundlich	schlau	tyrannisch	eitel	strafen	schlecht	fanatisch	schroff	1		-8	1	Wie angenehm oder unangenehm finden Sie die  Buchstabenkette BMVZ?	-8	1		-8	1		-8	1		-8	1	Unangenehm	-8	1	Angenehm	-8	0	0	0	0	0	0	0	0	0
2024-05-22	09:39:31	09:52:05	753665	6.6.1	4_exp_EVA_AWA_CON	44	B	A	Rpleas_acq	Oppo	Lpleas	2pleas	blank_screen	EvalRating_lastfour	7	6	0	0	300	300	0	0	0	0	0	4,0364583333333428072pct	loyal	fair	retten	helfen	treu	lachen	lasch	faul	rächen	hindern	tot	leiden	tolerant	ehrlich	spielen	schön	freundlich	schlau	tyrannisch	eitel	strafen	schlecht	fanatisch	schroff	1		-8	0	0	0	0	0	0	0	0	0	0	0	0	0	0	0	0	0	0	0	0	0	0	0	0	0	0	0
2024-05-22	09:39:31	09:52:14	762637	6.6.1	4_exp_EVA_AWA_CON	44	B	A	Rpleas_acq	Oppo	Lpleas	2pleas	EvalRating_lastfour	EvalRating_lastfour	7	7	0	0	300	300	0	0	8384	line	0	-57,421875pct	loyal	fair	retten	helfen	treu	lachen	lasch	faul	rächen	hindern	tot	leiden	tolerant	ehrlich	spielen	schön	freundlich	schlau	tyrannisch	eitel	strafen	schlecht	fanatisch	schroff	1		-8	3	Wie angenehm oder unangenehm finden Sie die  Buchstabenkette XBQM?	-8	1		-8	1		-8	1		-8	1	Unangenehm	-8	1	Angenehm	-8	0	0	0	0	0	0	0	0	0
2024-05-22	09:39:31	09:53:29	837627	6.6.1	4_exp_EVA_AWA_CON	44	B	A	Rpleas_acq	Oppo	Lpleas	2pleas	conawa_CS1_US1	conawa1_nomask	8	1	0	0	300	300	0	0	12153	tyrannisch	1	-57,421875pct	loyal	fair	retten	helfen	treu	lachen	lasch	faul	rächen	hindern	tot	leiden	tolerant	ehrlich	spielen	schön	freundlich	schlau	tyrannisch	eitel	strafen	schlecht	fanatisch	schroff	0	0	0	0	0	0	0	0	0	0	0	0	0	0	0	0	0	0	0	0	0	0	0	0	0	0	0	0	0	0
2024-05-22	09:39:31	09:53:29	837629	6.6.1	4_exp_EVA_AWA_CON	44	B	A	Rpleas_acq	Oppo	Lpleas	2pleas	conawa_CS1_US1_confidence	conawa1_nomask	8	1	0	0	300	300	0	0	12153	guess	1	-57,421875pct	loyal	fair	retten	helfen	treu	lachen	lasch	faul	rächen	hindern	tot	leiden	tolerant	ehrlich	spielen	schön	freundlich	schlau	tyrannisch	eitel	strafen	schlecht	fanatisch	schroff	0	0	0	0	0	0	0	0	0	0	0	0	0	0	0	0	0	0	0	0	0	0	0	0	0	0	0	0	0	0
2024-05-22	09:39:31	09:53:45	853998	6.6.1	4_exp_EVA_AWA_CON	44	B	A	Rpleas_acq	Oppo	Lpleas	2pleas	conawa_CS1_US2	conawa1_nomask	8	2	0	0	300	300	0	0	15754	eitel	1	-57,421875pct	loyal	fair	retten	helfen	treu	lachen	lasch	faul	rächen	hindern	tot	leiden	tolerant	ehrlich	spielen	schön	freundlich	schlau	tyrannisch	eitel	strafen	schlecht	fanatisch	schroff	0	0	0	0	0	0	0	0	0	0	0	0	0	0	0	0	0	0	0	0	0	0	0	0	0	0	0	0	0	0
2024-05-22	09:39:31	09:53:45	853999	6.6.1	4_exp_EVA_AWA_CON	44	B	A	Rpleas_acq	Oppo	Lpleas	2pleas	conawa_CS1_US2_confidence	conawa1_nomask	8	2	0	0	300	300	0	0	15754	guess	1	-57,421875pct	loyal	fair	retten	helfen	treu	lachen	lasch	faul	rächen	hindern	tot	leiden	tolerant	ehrlich	spielen	schön	freundlich	schlau	tyrannisch	eitel	strafen	schlecht	fanatisch	schroff	0	0	0	0	0	0	0	0	0	0	0	0	0	0	0	0	0	0	0	0	0	0	0	0	0	0	0	0	0	0
2024-05-22	09:39:31	09:53:56	864645	6.6.1	4_exp_EVA_AWA_CON	44	B	A	Rpleas_acq	Oppo	Lpleas	2pleas	conawa_CS1_US3	conawa1_nomask	8	3	0	0	300	300	0	0	10032	rächen	1	-57,421875pct	loyal	fair	retten	helfen	treu	lachen	lasch	faul	rächen	hindern	tot	leiden	tolerant	ehrlich	spielen	schön	freundlich	schlau	tyrannisch	eitel	strafen	schlecht	fanatisch	schroff	0	0	0	0	0	0	0	0	0	0	0	0	0	0	0	0	0	0	0	0	0	0	0	0	0	0	0	0	0	0
2024-05-22	09:39:31	09:53:56	864646	6.6.1	4_exp_EVA_AWA_CON	44	B	A	Rpleas_acq	Oppo	Lpleas	2pleas	conawa_CS1_US3_confidence	conawa1_nomask	8	3	0	0	300	300	0	0	10032	guess	1	-57,421875pct	loyal	fair	retten	helfen	treu	lachen	lasch	faul	rächen	hindern	tot	leiden	tolerant	ehrlich	spielen	schön	freundlich	schlau	tyrannisch	eitel	strafen	schlecht	fanatisch	schroff	0	0	0	0	0	0	0	0	0	0	0	0	0	0	0	0	0	0	0	0	0	0	0	0	0	0	0	0	0	0
2024-05-22	09:39:31	09:54:05	873891	6.6.1	4_exp_EVA_AWA_CON	44	B	A	Rpleas_acq	Oppo	Lpleas	2pleas	conawa_CS2_US4	conawa1_nomask	8	4	0	0	300	300	0	0	8624	freundlich	1	-57,421875pct	loyal	fair	retten	helfen	treu	lachen	lasch	faul	rächen	hindern	tot	leiden	tolerant	ehrlich	spielen	schön	freundlich	schlau	tyrannisch	eitel	strafen	schlecht	fanatisch	schroff	0	0	0	0	0	0	0	0	0	0	0	0	0	0	0	0	0	0	0	0	0	0	0	0	0	0	0	0	0	0
2024-05-22	09:39:31	09:54:05	873892	6.6.1	4_exp_EVA_AWA_CON	44	B	A	Rpleas_acq	Oppo	Lpleas	2pleas	conawa_CS2_US4_confidence	conawa1_nomask	8	4	0	0	300	300	0	0	8624	guess	1	-57,421875pct	loyal	fair	retten	helfen	treu	lachen	lasch	faul	rächen	hindern	tot	leiden	tolerant	ehrlich	spielen	schön	freundlich	schlau	tyrannisch	eitel	strafen	schlecht	fanatisch	schroff	0	0	0	0	0	0	0	0	0	0	0	0	0	0	0	0	0	0	0	0	0	0	0	0	0	0	0	0	0	0
2024-05-22	09:39:31	09:54:13	881605	6.6.1	4_exp_EVA_AWA_CON	44	B	A	Rpleas_acq	Oppo	Lpleas	2pleas	conawa_CS1_US5	conawa1_nomask	8	5	0	0	300	300	0	0	7101	treu	1	-57,421875pct	loyal	fair	retten	helfen	treu	lachen	lasch	faul	rächen	hindern	tot	leiden	tolerant	ehrlich	spielen	schön	freundlich	schlau	tyrannisch	eitel	strafen	schlecht	fanatisch	schroff	0	0	0	0	0	0	0	0	0	0	0	0	0	0	0	0	0	0	0	0	0	0	0	0	0	0	0	0	0	0
2024-05-22	09:39:31	09:54:13	881607	6.6.1	4_exp_EVA_AWA_CON	44	B	A	Rpleas_acq	Oppo	Lpleas	2pleas	conawa_CS1_US5_confidence	conawa1_nomask	8	5	0	0	300	300	0	0	7101	guess	1	-57,421875pct	loyal	fair	retten	helfen	treu	lachen	lasch	faul	rächen	hindern	tot	leiden	tolerant	ehrlich	spielen	schön	freundlich	schlau	tyrannisch	eitel	strafen	schlecht	fanatisch	schroff	0	0	0	0	0	0	0	0	0	0	0	0	0	0	0	0	0	0	0	0	0	0	0	0	0	0	0	0	0	0
2024-05-22	09:39:31	09:54:20	888650	6.6.1	4_exp_EVA_AWA_CON	44	B	A	Rpleas_acq	Oppo	Lpleas	2pleas	conawa_CS1_US6	conawa1_nomask	8	6	0	0	300	300	0	0	6432	schroff	1	-57,421875pct	loyal	fair	retten	helfen	treu	lachen	lasch	faul	rächen	hindern	tot	leiden	tolerant	ehrlich	spielen	schön	freundlich	schlau	tyrannisch	eitel	strafen	schlecht	fanatisch	schroff	0	0	0	0	0	0	0	0	0	0	0	0	0	0	0	0	0	0	0	0	0	0	0	0	0	0	0	0	0	0
2024-05-22	09:39:31	09:54:20	888651	6.6.1	4_exp_EVA_AWA_CON	44	B	A	Rpleas_acq	Oppo	Lpleas	2pleas	conawa_CS1_US6_confidence	conawa1_nomask	8	6	0	0	300	300	0	0	6432	guess	1	-57,421875pct	loyal	fair	retten	helfen	treu	lachen	lasch	faul	rächen	hindern	tot	leiden	tolerant	ehrlich	spielen	schön	freundlich	schlau	tyrannisch	eitel	strafen	schlecht	fanatisch	schroff	0	0	0	0	0	0	0	0	0	0	0	0	0	0	0	0	0	0	0	0	0	0	0	0	0	0	0	0	0	0
2024-05-22	09:39:31	09:54:28	896555	6.6.1	4_exp_EVA_AWA_CON	44	B	A	Rpleas_acq	Oppo	Lpleas	2pleas	conawa_CS2_US6	conawa1_nomask	8	7	0	0	300	300	0	0	7286	lachen	1	-57,421875pct	loyal	fair	retten	helfen	treu	lachen	lasch	faul	rächen	hindern	tot	leiden	tolerant	ehrlich	spielen	schön	freundlich	schlau	tyrannisch	eitel	strafen	schlecht	fanatisch	schroff	0	0	0	0	0	0	0	0	0	0	0	0	0	0	0	0	0	0	0	0	0	0	0	0	0	0	0	0	0	0
2024-05-22	09:39:31	09:54:28	896557	6.6.1	4_exp_EVA_AWA_CON	44	B	A	Rpleas_acq	Oppo	Lpleas	2pleas	conawa_CS2_US6_confidence	conawa1_nomask	8	7	0	0	300	300	0	0	7286	guess	1	-57,421875pct	loyal	fair	retten	helfen	treu	lachen	lasch	faul	rächen	hindern	tot	leiden	tolerant	ehrlich	spielen	schön	freundlich	schlau	tyrannisch	eitel	strafen	schlecht	fanatisch	schroff	0	0	0	0	0	0	0	0	0	0	0	0	0	0	0	0	0	0	0	0	0	0	0	0	0	0	0	0	0	0
2024-05-22	09:39:31	09:54:35	903169	6.6.1	4_exp_EVA_AWA_CON	44	B	A	Rpleas_acq	Oppo	Lpleas	2pleas	conawa_CS2_US3	conawa1_nomask	8	8	0	0	300	300	0	0	5995	retten	1	-57,421875pct	loyal	fair	retten	helfen	treu	lachen	lasch	faul	rächen	hindern	tot	leiden	tolerant	ehrlich	spielen	schön	freundlich	schlau	tyrannisch	eitel	strafen	schlecht	fanatisch	schroff	0	0	0	0	0	0	0	0	0	0	0	0	0	0	0	0	0	0	0	0	0	0	0	0	0	0	0	0	0	0
2024-05-22	09:39:31	09:54:35	903171	6.6.1	4_exp_EVA_AWA_CON	44	B	A	Rpleas_acq	Oppo	Lpleas	2pleas	conawa_CS2_US3_confidence	conawa1_nomask	8	8	0	0	300	300	0	0	5995	guess	1	-57,421875pct	loyal	fair	retten	helfen	treu	lachen	lasch	faul	rächen	hindern	tot	leiden	tolerant	ehrlich	spielen	schön	freundlich	schlau	tyrannisch	eitel	strafen	schlecht	fanatisch	schroff	0	0	0	0	0	0	0	0	0	0	0	0	0	0	0	0	0	0	0	0	0	0	0	0	0	0	0	0	0	0
2024-05-22	09:39:31	09:54:42	910183	6.6.1	4_exp_EVA_AWA_CON	44	B	A	Rpleas_acq	Oppo	Lpleas	2pleas	conawa_CS1_US4	conawa1_nomask	8	9	0	0	300	300	0	0	6398	helfen	1	-57,421875pct	loyal	fair	retten	helfen	treu	lachen	lasch	faul	rächen	hindern	tot	leiden	tolerant	ehrlich	spielen	schön	freundlich	schlau	tyrannisch	eitel	strafen	schlecht	fanatisch	schroff	0	0	0	0	0	0	0	0	0	0	0	0	0	0	0	0	0	0	0	0	0	0	0	0	0	0	0	0	0	0
2024-05-22	09:39:31	09:54:42	910185	6.6.1	4_exp_EVA_AWA_CON	44	B	A	Rpleas_acq	Oppo	Lpleas	2pleas	conawa_CS1_US4_confidence	conawa1_nomask	8	9	0	0	300	300	0	0	6398	guess	1	-57,421875pct	loyal	fair	retten	helfen	treu	lachen	lasch	faul	rächen	hindern	tot	leiden	tolerant	ehrlich	spielen	schön	freundlich	schlau	tyrannisch	eitel	strafen	schlecht	fanatisch	schroff	0	0	0	0	0	0	0	0	0	0	0	0	0	0	0	0	0	0	0	0	0	0	0	0	0	0	0	0	0	0
2024-05-22	09:39:31	09:54:49	917438	6.6.1	4_exp_EVA_AWA_CON	44	B	A	Rpleas_acq	Oppo	Lpleas	2pleas	conawa_CS2_US1	conawa1_nomask	8	10	0	0	300	300	0	0	6638	eitel	1	-57,421875pct	loyal	fair	retten	helfen	treu	lachen	lasch	faul	rächen	hindern	tot	leiden	tolerant	ehrlich	spielen	schön	freundlich	schlau	tyrannisch	eitel	strafen	schlecht	fanatisch	schroff	0	0	0	0	0	0	0	0	0	0	0	0	0	0	0	0	0	0	0	0	0	0	0	0	0	0	0	0	0	0
2024-05-22	09:39:31	09:54:49	917440	6.6.1	4_exp_EVA_AWA_CON	44	B	A	Rpleas_acq	Oppo	Lpleas	2pleas	conawa_CS2_US1_confidence	conawa1_nomask	8	10	0	0	300	300	0	0	6638	guess	1	-57,421875pct	loyal	fair	retten	helfen	treu	lachen	lasch	faul	rächen	hindern	tot	leiden	tolerant	ehrlich	spielen	schön	freundlich	schlau	tyrannisch	eitel	strafen	schlecht	fanatisch	schroff	0	0	0	0	0	0	0	0	0	0	0	0	0	0	0	0	0	0	0	0	0	0	0	0	0	0	0	0	0	0
2024-05-22	09:39:31	09:54:55	923672	6.6.1	4_exp_EVA_AWA_CON	44	B	A	Rpleas_acq	Oppo	Lpleas	2pleas	conawa_CS2_US2	conawa1_nomask	8	11	0	0	300	300	0	0	5617	strafen	1	-57,421875pct	loyal	fair	retten	helfen	treu	lachen	lasch	faul	rächen	hindern	tot	leiden	tolerant	ehrlich	spielen	schön	freundlich	schlau	tyrannisch	eitel	strafen	schlecht	fanatisch	schroff	0	0	0	0	0	0	0	0	0	0	0	0	0	0	0	0	0	0	0	0	0	0	0	0	0	0	0	0	0	0
2024-05-22	09:39:31	09:54:55	923674	6.6.1	4_exp_EVA_AWA_CON	44	B	A	Rpleas_acq	Oppo	Lpleas	2pleas	conawa_CS2_US2_confidence	conawa1_nomask	8	11	0	0	300	300	0	0	5617	guess	1	-57,421875pct	loyal	fair	retten	helfen	treu	lachen	lasch	faul	rächen	hindern	tot	leiden	tolerant	ehrlich	spielen	schön	freundlich	schlau	tyrannisch	eitel	strafen	schlecht	fanatisch	schroff	0	0	0	0	0	0	0	0	0	0	0	0	0	0	0	0	0	0	0	0	0	0	0	0	0	0	0	0	0	0
2024-05-22	09:39:31	09:55:11	939443	6.6.1	4_exp_EVA_AWA_CON	44	B	A	Rpleas_acq	Oppo	Lpleas	2pleas	conawa_CS2_US5	conawa1_nomask	8	12	0	0	300	300	0	0	15151	treu	1	-57,421875pct	loyal	fair	retten	helfen	treu	lachen	lasch	faul	rächen	hindern	tot	leiden	tolerant	ehrlich	spielen	schön	freundlich	schlau	tyrannisch	eitel	strafen	schlecht	fanatisch	schroff	0	0	0	0	0	0	0	0	0	0	0	0	0	0	0	0	0	0	0	0	0	0	0	0	0	0	0	0	0	0
2024-05-22	09:39:31	09:55:11	939444	6.6.1	4_exp_EVA_AWA_CON	44	B	A	Rpleas_acq	Oppo	Lpleas	2pleas	conawa_CS2_US5_confidence	conawa1_nomask	8	12	0	0	300	300	0	0	15151	guess	1	-57,421875pct	loyal	fair	retten	helfen	treu	lachen	lasch	faul	rächen	hindern	tot	leiden	tolerant	ehrlich	spielen	schön	freundlich	schlau	tyrannisch	eitel	strafen	schlecht	fanatisch	schroff	0	0	0	0	0	0	0	0	0	0	0	0	0	0	0	0	0	0	0	0	0	0	0	0	0	0	0	0	0	0
2024-05-22	09:39:31	09:56:49	1037568	6.6.1	4_exp_EVA_AWA_CON	44	B	A	Rpleas_acq	Oppo	Lpleas	2pleas	cond_new_pleas_456_nomask_CS2	condtest_nomask_1	11	1	400	0	300	300	0	0	2063	46	1	-57,421875pct	loyal	fair	retten	helfen	treu	lachen	lasch	faul	rächen	hindern	tot	leiden	tolerant	ehrlich	spielen	schön	freundlich	schlau	tyrannisch	eitel	strafen	schlecht	fanatisch	schroff	1	blank2r.bmp	0	1	+	0	1	blank2r.bmp	500	1	GKQX	500	1	blank2r.bmp	880	3	freundlich	880	1	!	1233	1	!	-1	0	0	0	0	0	0
2024-05-22	09:39:31	09:56:56	1044961	6.6.1	4_exp_EVA_AWA_CON	44	B	A	Rpleas_acq	Oppo	Lpleas	2pleas	cond_new_unple_456_nomask_CS2	condtest_nomask_1	11	2	400	0	300	300	0	0	5613	50	1	-57,421875pct	loyal	fair	retten	helfen	treu	lachen	lasch	faul	rächen	hindern	tot	leiden	tolerant	ehrlich	spielen	schön	freundlich	schlau	tyrannisch	eitel	strafen	schlecht	fanatisch	schroff	1	blank2r.bmp	0	1	+	0	1	blank2r.bmp	500	1	GKQX	500	1	blank2r.bmp	880	1	schroff	880	1	!	1232	1	!	-1	0	0	0	0	0	0
2024-05-22	09:39:31	09:56:59	1047456	6.6.1	4_exp_EVA_AWA_CON	44	B	A	Rpleas_acq	Oppo	Lpleas	2pleas	cond_US_pleas_123_nomask_CS1	condtest_nomask_1	11	3	400	0	300	300	0	0	714	46	1	-57,421875pct	loyal	fair	retten	helfen	treu	lachen	lasch	faul	rächen	hindern	tot	leiden	tolerant	ehrlich	spielen	schön	freundlich	schlau	tyrannisch	eitel	strafen	schlecht	fanatisch	schroff	1	blank2r.bmp	0	1	+	0	1	blank2r.bmp	500	1	BMVZ	500	1	blank2r.bmp	880	2	fair	880	1	!	1232	1	!	-1	0	0	0	0	0	0
2024-05-22	09:39:31	09:57:01	1049720	6.6.1	4_exp_EVA_AWA_CON	44	B	A	Rpleas_acq	Oppo	Lpleas	2pleas	cond_US_pleas_123_nomask_CS2	condtest_nomask_1	11	4	400	0	300	300	0	0	487	46	1	-57,421875pct	loyal	fair	retten	helfen	treu	lachen	lasch	faul	rächen	hindern	tot	leiden	tolerant	ehrlich	spielen	schön	freundlich	schlau	tyrannisch	eitel	strafen	schlecht	fanatisch	schroff	1	blank2r.bmp	0	1	+	0	1	blank2r.bmp	500	1	GKQX	500	1	blank2r.bmp	880	2	loyal	880	1	!	1232	1	!	-1	0	0	0	0	0	0
2024-05-22	09:39:31	09:57:04	1052152	6.6.1	4_exp_EVA_AWA_CON	44	B	A	Rpleas_acq	Oppo	Lpleas	2pleas	cond_new_unple_456_nomask_CS1	condtest_nomask_1	11	5	400	0	300	300	0	0	658	46	0	-57,421875pct	loyal	fair	retten	helfen	treu	lachen	lasch	faul	rächen	hindern	tot	leiden	tolerant	ehrlich	spielen	schön	freundlich	schlau	tyrannisch	eitel	strafen	schlecht	fanatisch	schroff	1	blank2r.bmp	0	1	+	0	1	blank2r.bmp	500	1	BMVZ	500	1	blank2r.bmp	880	2	fanatisch	880	1	!	1232	1	!	-1	0	0	0	0	0	0
2024-05-22	09:39:31	09:57:06	1054370	6.6.1	4_exp_EVA_AWA_CON	44	B	A	Rpleas_acq	Oppo	Lpleas	2pleas	cond_new_pleas_456_nomask_CS1	condtest_nomask_1	11	6	400	1	300	300	0	0	442	50	0	-57,421875pct	loyal	fair	retten	helfen	treu	lachen	lasch	faul	rächen	hindern	tot	leiden	tolerant	ehrlich	spielen	schön	freundlich	schlau	tyrannisch	eitel	strafen	schlecht	fanatisch	schroff	1	blank2r.bmp	0	1	+	0	1	blank2r.bmp	500	1	BMVZ	500	1	blank2r.bmp	880	3	schlau	880	1	!	1232	1	!	1343	0	0	0	0	0	0
2024-05-22	09:39:31	09:57:08	1056579	6.6.1	4_exp_EVA_AWA_CON	44	B	A	Rpleas_acq	Oppo	Lpleas	2pleas	cond_US_unple_123_nomask_CS1	condtest_nomask_1	11	7	400	1	300	300	0	0	428	46	0	-57,421875pct	loyal	fair	retten	helfen	treu	lachen	lasch	faul	rächen	hindern	tot	leiden	tolerant	ehrlich	spielen	schön	freundlich	schlau	tyrannisch	eitel	strafen	schlecht	fanatisch	schroff	1	blank2r.bmp	0	1	+	0	1	blank2r.bmp	500	1	BMVZ	500	1	blank2r.bmp	880	2	faul	880	1	!	1232	1	!	1330	0	0	0	0	0	0
2024-05-22	09:39:31	09:57:10	1059032	6.6.1	4_exp_EVA_AWA_CON	44	B	A	Rpleas_acq	Oppo	Lpleas	2pleas	cond_US_unple_123_nomask_CS2	condtest_nomask_1	11	8	400	0	300	300	0	0	674	46	0	-57,421875pct	loyal	fair	retten	helfen	treu	lachen	lasch	faul	rächen	hindern	tot	leiden	tolerant	ehrlich	spielen	schön	freundlich	schlau	tyrannisch	eitel	strafen	schlecht	fanatisch	schroff	1	blank2r.bmp	0	1	+	0	1	blank2r.bmp	500	1	GKQX	500	1	blank2r.bmp	880	3	faul	880	1	!	1232	1	!	-1	0	0	0	0	0	0
2024-05-22	09:39:31	09:57:22	1070474	6.6.1	4_exp_EVA_AWA_CON	44	B	A	Rpleas_acq	Oppo	Lpleas	2pleas	cond_new_pleas_456_nomask_CS1	condtest_nomask_2	12	1	400	1	300	300	0	0	375	46	1	-57,421875pct	loyal	fair	retten	helfen	treu	lachen	lasch	faul	rächen	hindern	tot	leiden	tolerant	ehrlich	spielen	schön	freundlich	schlau	tyrannisch	eitel	strafen	schlecht	fanatisch	schroff	1	blank2r.bmp	0	1	+	0	1	blank2r.bmp	500	1	BMVZ	500	1	blank2r.bmp	880	1	schön	880	1	!	1232	1	!	1277	0	0	0	0	0	0
2024-05-22	09:39:31	09:57:24	1072840	6.6.1	4_exp_EVA_AWA_CON	44	B	A	Rpleas_acq	Oppo	Lpleas	2pleas	cond_new_unple_456_nomask_CS1	condtest_nomask_2	12	2	400	0	300	300	0	0	592	46	0	-57,421875pct	loyal	fair	retten	helfen	treu	lachen	lasch	faul	rächen	hindern	tot	leiden	tolerant	ehrlich	spielen	schön	freundlich	schlau	tyrannisch	eitel	strafen	schlecht	fanatisch	schroff	1	blank2r.bmp	0	1	+	0	1	blank2r.bmp	500	1	BMVZ	500	1	blank2r.bmp	880	1	schlecht	880	1	!	1232	1	!	-1	0	0	0	0	0	0
