date	time	currenttime	elapsedtime	build	currentexpt	subject	CS_AB	US_AB	LRpleas_acq	SameOppo	condition_Lpleas	condition_1pleas	trialcode	blockcode	blocknum	trialnum	windowcenter	inwindow	pretrialpause	posttrialpause	trialduration	trialtimeout	latency	response	correct	correctedscore	US_nomask_pleas1	US_nomask_pleas2	US_nomask_pleas3	US_nomask_pleas4	US_nomask_pleas5	US_nomask_pleas6	US_nomask_unple1	US_nomask_unple2	US_nomask_unple3	US_nomask_unple4	US_nomask_unple5	US_nomask_unple6	new_nomask_pleas1	new_nomask_pleas2	new_nomask_pleas3	new_nomask_pleas4	new_nomask_pleas5	new_nomask_pleas6	new_nomask_unple1	new_nomask_unple2	new_nomask_unple3	new_nomask_unple4	new_nomask_unple5	new_nomask_unple6	stimulusnumber1	stimulusitem1	stimulusonset1	stimulusnumber2	stimulusitem2	stimulusonset2	stimulusnumber3	stimulusitem3	stimulusonset3	stimulusnumber4	stimulusitem4	stimulusonset4	stimulusnumber5	stimulusitem5	stimulusonset5	stimulusnumber6	stimulusitem6	stimulusonset6	stimulusnumber7	stimulusitem7	stimulusonset7	stimulusnumber8	stimulusitem8	stimulusonset8	stimulusnumber9	stimulusitem9	stimulusonset9	stimulusnumber10	stimulusitem10	stimulusonset10
2024-05-16	14:02:14	14:04:58	162443	6.6.1	4_exp_EVA_AWA_CON	42	A	B	Rpleas_acq	Oppo	Rpleas	1pleas	acq_US_pleas_nomask	acq1_nomask	1	1	0	0	300	300	0	0	2677	50	1	0	träumen	kreativ	anregung	besonnen	gütig	vertrauen	töten	krank	ausrottung	bange	gierig	versagen	kuss	engagiert	genießen	vergnügt	sonnig	gesittet	krise	engstirnig	gemein	verbissen	sterben	geizig	1	blank2r.bmp	0	1	+	0	1	blank2r.bmp	500	1	CPLW	500	1	blank2r.bmp	880	4	besonnen	880	0	0	0	0	0	0	0	0	0	0	0	0
2024-05-16	14:02:14	14:05:00	165123	6.6.1	4_exp_EVA_AWA_CON	42	A	B	Rpleas_acq	Oppo	Rpleas	1pleas	acq_new_unple_nomask	acq1_nomask	1	2	0	0	300	300	0	0	1194	46	1	0	träumen	kreativ	anregung	besonnen	gütig	vertrauen	töten	krank	ausrottung	bange	gierig	versagen	kuss	engagiert	genießen	vergnügt	sonnig	gesittet	krise	engstirnig	gemein	verbissen	sterben	geizig	1	blank2r.bmp	0	1	+	0	1	blank2r.bmp	500	8	C4r.bmp	500	1	blank2r.bmp	880	6	geizig	880	0	0	0	0	0	0	0	0	0	0	0	0
2024-05-16	14:02:14	14:05:03	167531	6.6.1	4_exp_EVA_AWA_CON	42	A	B	Rpleas_acq	Oppo	Rpleas	1pleas	acq_US_unple_nomask	acq1_nomask	1	3	0	0	300	300	0	0	920	46	1	0	träumen	kreativ	anregung	besonnen	gütig	vertrauen	töten	krank	ausrottung	bange	gierig	versagen	kuss	engagiert	genießen	vergnügt	sonnig	gesittet	krise	engstirnig	gemein	verbissen	sterben	geizig	1	blank2r.bmp	0	1	+	0	1	blank2r.bmp	500	1	DHJF	500	1	blank2r.bmp	880	2	krank	880	0	0	0	0	0	0	0	0	0	0	0	0
2024-05-16	14:02:14	14:05:05	169827	6.6.1	4_exp_EVA_AWA_CON	42	A	B	Rpleas_acq	Oppo	Rpleas	1pleas	acq_new_unple_nomask	acq1_nomask	1	4	0	0	300	300	0	0	815	46	1	0	träumen	kreativ	anregung	besonnen	gütig	vertrauen	töten	krank	ausrottung	bange	gierig	versagen	kuss	engagiert	genießen	vergnügt	sonnig	gesittet	krise	engstirnig	gemein	verbissen	sterben	geizig	1	blank2r.bmp	0	1	+	0	1	blank2r.bmp	500	2	B2r.bmp	500	1	blank2r.bmp	880	3	gemein	880	0	0	0	0	0	0	0	0	0	0	0	0
2024-05-16	14:02:14	14:05:07	172315	6.6.1	4_exp_EVA_AWA_CON	42	A	B	Rpleas_acq	Oppo	Rpleas	1pleas	acq_new_pleas_nomask	acq1_nomask	1	5	0	0	300	300	0	0	1001	50	1	0	träumen	kreativ	anregung	besonnen	gütig	vertrauen	töten	krank	ausrottung	bange	gierig	versagen	kuss	engagiert	genießen	vergnügt	sonnig	gesittet	krise	engstirnig	gemein	verbissen	sterben	geizig	1	blank2r.bmp	0	1	+	0	1	blank2r.bmp	500	7	C3r.bmp	500	1	blank2r.bmp	880	2	engagiert	880	0	0	0	0	0	0	0	0	0	0	0	0
2024-05-16	14:02:14	14:05:10	174883	6.6.1	4_exp_EVA_AWA_CON	42	A	B	Rpleas_acq	Oppo	Rpleas	1pleas	acq_new_pleas_nomask	acq1_nomask	1	6	0	0	300	300	0	0	1077	50	1	0	träumen	kreativ	anregung	besonnen	gütig	vertrauen	töten	krank	ausrottung	bange	gierig	versagen	kuss	engagiert	genießen	vergnügt	sonnig	gesittet	krise	engstirnig	gemein	verbissen	sterben	geizig	1	blank2r.bmp	0	1	+	0	1	blank2r.bmp	500	5	C1r.bmp	500	1	blank2r.bmp	880	5	sonnig	880	0	0	0	0	0	0	0	0	0	0	0	0
2024-05-16	14:02:14	14:05:12	176971	6.6.1	4_exp_EVA_AWA_CON	42	A	B	Rpleas_acq	Oppo	Rpleas	1pleas	acq_US_pleas_nomask	acq1_nomask	1	7	0	0	300	300	0	0	604	50	1	0	träumen	kreativ	anregung	besonnen	gütig	vertrauen	töten	krank	ausrottung	bange	gierig	versagen	kuss	engagiert	genießen	vergnügt	sonnig	gesittet	krise	engstirnig	gemein	verbissen	sterben	geizig	1	blank2r.bmp	0	1	+	0	1	blank2r.bmp	500	1	CPLW	500	1	blank2r.bmp	880	1	träumen	880	0	0	0	0	0	0	0	0	0	0	0	0
2024-05-16	14:02:14	14:05:15	179370	6.6.1	4_exp_EVA_AWA_CON	42	A	B	Rpleas_acq	Oppo	Rpleas	1pleas	acq_US_unple_nomask	acq1_nomask	1	8	0	0	300	300	0	0	913	46	1	0	träumen	kreativ	anregung	besonnen	gütig	vertrauen	töten	krank	ausrottung	bange	gierig	versagen	kuss	engagiert	genießen	vergnügt	sonnig	gesittet	krise	engstirnig	gemein	verbissen	sterben	geizig	1	blank2r.bmp	0	1	+	0	1	blank2r.bmp	500	1	DHJF	500	1	blank2r.bmp	880	4	bange	880	0	0	0	0	0	0	0	0	0	0	0	0
2024-05-16	14:02:14	14:05:17	182083	6.6.1	4_exp_EVA_AWA_CON	42	A	B	Rpleas_acq	Oppo	Rpleas	1pleas	acq_new_unple_nomask	acq1_nomask	1	9	0	0	300	300	0	0	1223	46	1	0	träumen	kreativ	anregung	besonnen	gütig	vertrauen	töten	krank	ausrottung	bange	gierig	versagen	kuss	engagiert	genießen	vergnügt	sonnig	gesittet	krise	engstirnig	gemein	verbissen	sterben	geizig	1	blank2r.bmp	0	1	+	0	1	blank2r.bmp	500	1	B1r.bmp	500	1	blank2r.bmp	880	2	engstirnig	880	0	0	0	0	0	0	0	0	0	0	0	0
2024-05-16	14:02:14	14:05:20	184499	6.6.1	4_exp_EVA_AWA_CON	42	A	B	Rpleas_acq	Oppo	Rpleas	1pleas	acq_new_pleas_nomask	acq1_nomask	1	10	0	0	300	300	0	0	927	50	1	0	träumen	kreativ	anregung	besonnen	gütig	vertrauen	töten	krank	ausrottung	bange	gierig	versagen	kuss	engagiert	genießen	vergnügt	sonnig	gesittet	krise	engstirnig	gemein	verbissen	sterben	geizig	1	blank2r.bmp	0	1	+	0	1	blank2r.bmp	500	4	B4r.bmp	500	1	blank2r.bmp	880	4	vergnügt	880	0	0	0	0	0	0	0	0	0	0	0	0
2024-05-16	14:02:14	14:05:22	187194	6.6.1	4_exp_EVA_AWA_CON	42	A	B	Rpleas_acq	Oppo	Rpleas	1pleas	acq_US_pleas_nomask	acq1_nomask	1	11	0	0	300	300	0	0	1212	50	1	0	träumen	kreativ	anregung	besonnen	gütig	vertrauen	töten	krank	ausrottung	bange	gierig	versagen	kuss	engagiert	genießen	vergnügt	sonnig	gesittet	krise	engstirnig	gemein	verbissen	sterben	geizig	1	blank2r.bmp	0	1	+	0	1	blank2r.bmp	500	1	CPLW	500	1	blank2r.bmp	880	3	anregung	880	0	0	0	0	0	0	0	0	0	0	0	0
2024-05-16	14:02:14	14:05:25	189378	6.6.1	4_exp_EVA_AWA_CON	42	A	B	Rpleas_acq	Oppo	Rpleas	1pleas	acq_US_unple_nomask	acq1_nomask	1	12	0	0	300	300	0	0	694	46	1	0	träumen	kreativ	anregung	besonnen	gütig	vertrauen	töten	krank	ausrottung	bange	gierig	versagen	kuss	engagiert	genießen	vergnügt	sonnig	gesittet	krise	engstirnig	gemein	verbissen	sterben	geizig	1	blank2r.bmp	0	1	+	0	1	blank2r.bmp	500	1	DHJF	500	1	blank2r.bmp	880	5	gierig	880	0	0	0	0	0	0	0	0	0	0	0	0
2024-05-16	14:02:14	14:05:27	191675	6.6.1	4_exp_EVA_AWA_CON	42	A	B	Rpleas_acq	Oppo	Rpleas	1pleas	acq_US_unple_nomask	acq1_nomask	1	13	0	0	300	300	0	0	808	46	1	0	träumen	kreativ	anregung	besonnen	gütig	vertrauen	töten	krank	ausrottung	bange	gierig	versagen	kuss	engagiert	genießen	vergnügt	sonnig	gesittet	krise	engstirnig	gemein	verbissen	sterben	geizig	1	blank2r.bmp	0	1	+	0	1	blank2r.bmp	500	1	DHJF	500	1	blank2r.bmp	880	6	versagen	880	0	0	0	0	0	0	0	0	0	0	0	0
2024-05-16	14:02:14	14:05:29	193947	6.6.1	4_exp_EVA_AWA_CON	42	A	B	Rpleas_acq	Oppo	Rpleas	1pleas	acq_US_pleas_nomask	acq1_nomask	1	14	0	0	300	300	0	0	789	50	1	0	träumen	kreativ	anregung	besonnen	gütig	vertrauen	töten	krank	ausrottung	bange	gierig	versagen	kuss	engagiert	genießen	vergnügt	sonnig	gesittet	krise	engstirnig	gemein	verbissen	sterben	geizig	1	blank2r.bmp	0	1	+	0	1	blank2r.bmp	500	1	CPLW	500	1	blank2r.bmp	880	5	gütig	880	0	0	0	0	0	0	0	0	0	0	0	0
2024-05-16	14:02:14	14:05:32	196395	6.6.1	4_exp_EVA_AWA_CON	42	A	B	Rpleas_acq	Oppo	Rpleas	1pleas	acq_new_pleas_nomask	acq1_nomask	1	15	0	0	300	300	0	0	966	50	1	0	träumen	kreativ	anregung	besonnen	gütig	vertrauen	töten	krank	ausrottung	bange	gierig	versagen	kuss	engagiert	genießen	vergnügt	sonnig	gesittet	krise	engstirnig	gemein	verbissen	sterben	geizig	1	blank2r.bmp	0	1	+	0	1	blank2r.bmp	500	3	B3r.bmp	500	1	blank2r.bmp	880	6	gesittet	880	0	0	0	0	0	0	0	0	0	0	0	0
2024-05-16	14:02:14	14:05:34	198627	6.6.1	4_exp_EVA_AWA_CON	42	A	B	Rpleas_acq	Oppo	Rpleas	1pleas	acq_new_unple_nomask	acq1_nomask	1	16	0	0	300	300	0	0	746	46	1	0	träumen	kreativ	anregung	besonnen	gütig	vertrauen	töten	krank	ausrottung	bange	gierig	versagen	kuss	engagiert	genießen	vergnügt	sonnig	gesittet	krise	engstirnig	gemein	verbissen	sterben	geizig	1	blank2r.bmp	0	1	+	0	1	blank2r.bmp	500	6	C2r.bmp	500	1	blank2r.bmp	880	1	krise	880	0	0	0	0	0	0	0	0	0	0	0	0
2024-05-16	14:02:14	14:05:37	201458	6.6.1	4_exp_EVA_AWA_CON	42	A	B	Rpleas_acq	Oppo	Rpleas	1pleas	acq_US_unple_nomask	acq1_nomask	1	17	0	0	300	300	0	0	1347	46	1	0	träumen	kreativ	anregung	besonnen	gütig	vertrauen	töten	krank	ausrottung	bange	gierig	versagen	kuss	engagiert	genießen	vergnügt	sonnig	gesittet	krise	engstirnig	gemein	verbissen	sterben	geizig	1	blank2r.bmp	0	1	+	0	1	blank2r.bmp	500	1	DHJF	500	1	blank2r.bmp	880	3	ausrottung	880	0	0	0	0	0	0	0	0	0	0	0	0
2024-05-16	14:02:14	14:05:39	203643	6.6.1	4_exp_EVA_AWA_CON	42	A	B	Rpleas_acq	Oppo	Rpleas	1pleas	acq_US_pleas_nomask	acq1_nomask	1	18	0	0	300	300	0	0	699	50	1	0	träumen	kreativ	anregung	besonnen	gütig	vertrauen	töten	krank	ausrottung	bange	gierig	versagen	kuss	engagiert	genießen	vergnügt	sonnig	gesittet	krise	engstirnig	gemein	verbissen	sterben	geizig	1	blank2r.bmp	0	1	+	0	1	blank2r.bmp	500	1	CPLW	500	1	blank2r.bmp	880	2	kreativ	880	0	0	0	0	0	0	0	0	0	0	0	0
2024-05-16	14:02:14	14:05:41	205755	6.6.1	4_exp_EVA_AWA_CON	42	A	B	Rpleas_acq	Oppo	Rpleas	1pleas	acq_US_unple_nomask	acq1_nomask	1	19	0	0	300	300	0	0	629	46	1	0	träumen	kreativ	anregung	besonnen	gütig	vertrauen	töten	krank	ausrottung	bange	gierig	versagen	kuss	engagiert	genießen	vergnügt	sonnig	gesittet	krise	engstirnig	gemein	verbissen	sterben	geizig	1	blank2r.bmp	0	1	+	0	1	blank2r.bmp	500	1	DHJF	500	1	blank2r.bmp	880	1	töten	880	0	0	0	0	0	0	0	0	0	0	0	0
2024-05-16	14:02:14	14:05:43	208235	6.6.1	4_exp_EVA_AWA_CON	42	A	B	Rpleas_acq	Oppo	Rpleas	1pleas	acq_US_pleas_nomask	acq1_nomask	1	20	0	0	300	300	0	0	998	50	1	0	träumen	kreativ	anregung	besonnen	gütig	vertrauen	töten	krank	ausrottung	bange	gierig	versagen	kuss	engagiert	genießen	vergnügt	sonnig	gesittet	krise	engstirnig	gemein	verbissen	sterben	geizig	1	blank2r.bmp	0	1	+	0	1	blank2r.bmp	500	1	CPLW	500	1	blank2r.bmp	880	6	vertrauen	880	0	0	0	0	0	0	0	0	0	0	0	0
2024-05-16	14:02:14	14:05:46	210330	6.6.1	4_exp_EVA_AWA_CON	42	A	B	Rpleas_acq	Oppo	Rpleas	1pleas	acq_new_pleas_nomask	acq1_nomask	1	21	0	0	300	300	0	0	612	50	1	0	träumen	kreativ	anregung	besonnen	gütig	vertrauen	töten	krank	ausrottung	bange	gierig	versagen	kuss	engagiert	genießen	vergnügt	sonnig	gesittet	krise	engstirnig	gemein	verbissen	sterben	geizig	1	blank2r.bmp	0	1	+	0	1	blank2r.bmp	500	1	B1r.bmp	500	1	blank2r.bmp	880	1	kuss	880	0	0	0	0	0	0	0	0	0	0	0	0
2024-05-16	14:02:14	14:05:48	212747	6.6.1	4_exp_EVA_AWA_CON	42	A	B	Rpleas_acq	Oppo	Rpleas	1pleas	acq_new_unple_nomask	acq1_nomask	1	22	0	0	300	300	0	0	927	46	1	0	träumen	kreativ	anregung	besonnen	gütig	vertrauen	töten	krank	ausrottung	bange	gierig	versagen	kuss	engagiert	genießen	vergnügt	sonnig	gesittet	krise	engstirnig	gemein	verbissen	sterben	geizig	1	blank2r.bmp	0	1	+	0	1	blank2r.bmp	500	3	B3r.bmp	500	1	blank2r.bmp	880	4	verbissen	880	0	0	0	0	0	0	0	0	0	0	0	0
2024-05-16	14:02:14	14:05:51	216043	6.6.1	4_exp_EVA_AWA_CON	42	A	B	Rpleas_acq	Oppo	Rpleas	1pleas	acq_new_unple_nomask	acq1_nomask	1	23	0	0	300	300	0	0	1811	46	1	0	träumen	kreativ	anregung	besonnen	gütig	vertrauen	töten	krank	ausrottung	bange	gierig	versagen	kuss	engagiert	genießen	vergnügt	sonnig	gesittet	krise	engstirnig	gemein	verbissen	sterben	geizig	1	blank2r.bmp	0	1	+	0	1	blank2r.bmp	500	7	C3r.bmp	500	1	blank2r.bmp	880	5	sterben	880	0	0	0	0	0	0	0	0	0	0	0	0
2024-05-16	14:02:14	14:05:54	218442	6.6.1	4_exp_EVA_AWA_CON	42	A	B	Rpleas_acq	Oppo	Rpleas	1pleas	acq_new_pleas_nomask	acq1_nomask	1	24	0	0	300	300	0	0	909	50	1	0	träumen	kreativ	anregung	besonnen	gütig	vertrauen	töten	krank	ausrottung	bange	gierig	versagen	kuss	engagiert	genießen	vergnügt	sonnig	gesittet	krise	engstirnig	gemein	verbissen	sterben	geizig	1	blank2r.bmp	0	1	+	0	1	blank2r.bmp	500	6	C2r.bmp	500	1	blank2r.bmp	880	3	genießen	880	0	0	0	0	0	0	0	0	0	0	0	0
2024-05-16	14:02:14	14:05:56	221138	6.6.1	4_exp_EVA_AWA_CON	42	A	B	Rpleas_acq	Oppo	Rpleas	1pleas	acq_US_pleas_nomask	acq1_nomask	1	25	0	0	300	300	0	0	1214	50	1	0	träumen	kreativ	anregung	besonnen	gütig	vertrauen	töten	krank	ausrottung	bange	gierig	versagen	kuss	engagiert	genießen	vergnügt	sonnig	gesittet	krise	engstirnig	gemein	verbissen	sterben	geizig	1	blank2r.bmp	0	1	+	0	1	blank2r.bmp	500	1	CPLW	500	1	blank2r.bmp	880	6	vertrauen	880	0	0	0	0	0	0	0	0	0	0	0	0
2024-05-16	14:02:14	14:05:58	223322	6.6.1	4_exp_EVA_AWA_CON	42	A	B	Rpleas_acq	Oppo	Rpleas	1pleas	acq_US_unple_nomask	acq1_nomask	1	26	0	0	300	300	0	0	696	46	1	0	träumen	kreativ	anregung	besonnen	gütig	vertrauen	töten	krank	ausrottung	bange	gierig	versagen	kuss	engagiert	genießen	vergnügt	sonnig	gesittet	krise	engstirnig	gemein	verbissen	sterben	geizig	1	blank2r.bmp	0	1	+	0	1	blank2r.bmp	500	1	DHJF	500	1	blank2r.bmp	880	1	töten	880	0	0	0	0	0	0	0	0	0	0	0	0
2024-05-16	14:02:14	14:06:01	225514	6.6.1	4_exp_EVA_AWA_CON	42	A	B	Rpleas_acq	Oppo	Rpleas	1pleas	acq_new_unple_nomask	acq1_nomask	1	27	0	0	300	300	0	0	706	46	1	0	träumen	kreativ	anregung	besonnen	gütig	vertrauen	töten	krank	ausrottung	bange	gierig	versagen	kuss	engagiert	genießen	vergnügt	sonnig	gesittet	krise	engstirnig	gemein	verbissen	sterben	geizig	1	blank2r.bmp	0	1	+	0	1	blank2r.bmp	500	8	C4r.bmp	500	1	blank2r.bmp	880	3	gemein	880	0	0	0	0	0	0	0	0	0	0	0	0
2024-05-16	14:02:14	14:06:03	228298	6.6.1	4_exp_EVA_AWA_CON	42	A	B	Rpleas_acq	Oppo	Rpleas	1pleas	acq_new_pleas_nomask	acq1_nomask	1	28	0	0	300	300	0	0	1299	50	1	0	träumen	kreativ	anregung	besonnen	gütig	vertrauen	töten	krank	ausrottung	bange	gierig	versagen	kuss	engagiert	genießen	vergnügt	sonnig	gesittet	krise	engstirnig	gemein	verbissen	sterben	geizig	1	blank2r.bmp	0	1	+	0	1	blank2r.bmp	500	5	C1r.bmp	500	1	blank2r.bmp	880	2	engagiert	880	0	0	0	0	0	0	0	0	0	0	0	0
2024-05-16	14:02:14	14:06:06	231010	6.6.1	4_exp_EVA_AWA_CON	42	A	B	Rpleas_acq	Oppo	Rpleas	1pleas	acq_US_pleas_nomask	acq1_nomask	1	29	0	0	300	300	0	0	1229	50	1	0	träumen	kreativ	anregung	besonnen	gütig	vertrauen	töten	krank	ausrottung	bange	gierig	versagen	kuss	engagiert	genießen	vergnügt	sonnig	gesittet	krise	engstirnig	gemein	verbissen	sterben	geizig	1	blank2r.bmp	0	1	+	0	1	blank2r.bmp	500	1	CPLW	500	1	blank2r.bmp	880	5	gütig	880	0	0	0	0	0	0	0	0	0	0	0	0
2024-05-16	14:02:14	14:06:08	233147	6.6.1	4_exp_EVA_AWA_CON	42	A	B	Rpleas_acq	Oppo	Rpleas	1pleas	acq_new_unple_nomask	acq1_nomask	1	30	0	0	300	300	0	0	654	46	1	0	träumen	kreativ	anregung	besonnen	gütig	vertrauen	töten	krank	ausrottung	bange	gierig	versagen	kuss	engagiert	genießen	vergnügt	sonnig	gesittet	krise	engstirnig	gemein	verbissen	sterben	geizig	1	blank2r.bmp	0	1	+	0	1	blank2r.bmp	500	4	B4r.bmp	500	1	blank2r.bmp	880	2	engstirnig	880	0	0	0	0	0	0	0	0	0	0	0	0
2024-05-16	14:02:14	14:06:10	235251	6.6.1	4_exp_EVA_AWA_CON	42	A	B	Rpleas_acq	Oppo	Rpleas	1pleas	acq_new_unple_nomask	acq1_nomask	1	31	0	0	300	300	0	0	616	46	1	0	träumen	kreativ	anregung	besonnen	gütig	vertrauen	töten	krank	ausrottung	bange	gierig	versagen	kuss	engagiert	genießen	vergnügt	sonnig	gesittet	krise	engstirnig	gemein	verbissen	sterben	geizig	1	blank2r.bmp	0	1	+	0	1	blank2r.bmp	500	2	B2r.bmp	500	1	blank2r.bmp	880	4	verbissen	880	0	0	0	0	0	0	0	0	0	0	0	0
2024-05-16	14:02:14	14:06:13	237354	6.6.1	4_exp_EVA_AWA_CON	42	A	B	Rpleas_acq	Oppo	Rpleas	1pleas	acq_US_unple_nomask	acq1_nomask	1	32	0	0	300	300	0	0	619	46	1	0	träumen	kreativ	anregung	besonnen	gütig	vertrauen	töten	krank	ausrottung	bange	gierig	versagen	kuss	engagiert	genießen	vergnügt	sonnig	gesittet	krise	engstirnig	gemein	verbissen	sterben	geizig	1	blank2r.bmp	0	1	+	0	1	blank2r.bmp	500	1	DHJF	500	1	blank2r.bmp	880	2	krank	880	0	0	0	0	0	0	0	0	0	0	0	0
2024-05-16	14:02:14	14:06:15	239875	6.6.1	4_exp_EVA_AWA_CON	42	A	B	Rpleas_acq	Oppo	Rpleas	1pleas	acq_new_pleas_nomask	acq1_nomask	1	33	0	0	300	300	0	0	1038	50	1	0	träumen	kreativ	anregung	besonnen	gütig	vertrauen	töten	krank	ausrottung	bange	gierig	versagen	kuss	engagiert	genießen	vergnügt	sonnig	gesittet	krise	engstirnig	gemein	verbissen	sterben	geizig	1	blank2r.bmp	0	1	+	0	1	blank2r.bmp	500	2	B2r.bmp	500	1	blank2r.bmp	880	4	vergnügt	880	0	0	0	0	0	0	0	0	0	0	0	0
2024-05-16	14:02:14	14:06:17	242227	6.6.1	4_exp_EVA_AWA_CON	42	A	B	Rpleas_acq	Oppo	Rpleas	1pleas	acq_new_pleas_nomask	acq1_nomask	1	34	0	0	300	300	0	0	868	50	1	0	träumen	kreativ	anregung	besonnen	gütig	vertrauen	töten	krank	ausrottung	bange	gierig	versagen	kuss	engagiert	genießen	vergnügt	sonnig	gesittet	krise	engstirnig	gemein	verbissen	sterben	geizig	1	blank2r.bmp	0	1	+	0	1	blank2r.bmp	500	7	C3r.bmp	500	1	blank2r.bmp	880	6	gesittet	880	0	0	0	0	0	0	0	0	0	0	0	0
2024-05-16	14:02:14	14:06:20	244387	6.6.1	4_exp_EVA_AWA_CON	42	A	B	Rpleas_acq	Oppo	Rpleas	1pleas	acq_US_unple_nomask	acq1_nomask	1	35	0	0	300	300	0	0	676	46	1	0	träumen	kreativ	anregung	besonnen	gütig	vertrauen	töten	krank	ausrottung	bange	gierig	versagen	kuss	engagiert	genießen	vergnügt	sonnig	gesittet	krise	engstirnig	gemein	verbissen	sterben	geizig	1	blank2r.bmp	0	1	+	0	1	blank2r.bmp	500	1	DHJF	500	1	blank2r.bmp	880	4	bange	880	0	0	0	0	0	0	0	0	0	0	0	0
2024-05-16	14:02:14	14:06:22	246403	6.6.1	4_exp_EVA_AWA_CON	42	A	B	Rpleas_acq	Oppo	Rpleas	1pleas	acq_US_pleas_nomask	acq1_nomask	1	36	0	0	300	300	0	0	531	50	1	0	träumen	kreativ	anregung	besonnen	gütig	vertrauen	töten	krank	ausrottung	bange	gierig	versagen	kuss	engagiert	genießen	vergnügt	sonnig	gesittet	krise	engstirnig	gemein	verbissen	sterben	geizig	1	blank2r.bmp	0	1	+	0	1	blank2r.bmp	500	1	CPLW	500	1	blank2r.bmp	880	1	träumen	880	0	0	0	0	0	0	0	0	0	0	0	0
2024-05-16	14:02:14	14:06:54	278703	6.6.1	4_exp_EVA_AWA_CON	42	A	B	Rpleas_acq	Oppo	Rpleas	1pleas	acq_new_pleas_nomask	acq2_nomask	2	1	480	1	300	300	0	0	538	50	1	0	träumen	kreativ	anregung	besonnen	gütig	vertrauen	töten	krank	ausrottung	bange	gierig	versagen	kuss	engagiert	genießen	vergnügt	sonnig	gesittet	krise	engstirnig	gemein	verbissen	sterben	geizig	1	blank2r.bmp	0	1	+	0	1	blank2r.bmp	500	6	C2r.bmp	500	1	blank2r.bmp	880	1	kuss	880	1	!	1313	1	!	1440	0	0	0	0	0	0
2024-05-16	14:02:14	14:06:57	281639	6.6.1	4_exp_EVA_AWA_CON	42	A	B	Rpleas_acq	Oppo	Rpleas	1pleas	acq_new_unple_nomask	acq2_nomask	2	2	480	0	300	300	0	0	1153	46	1	0	träumen	kreativ	anregung	besonnen	gütig	vertrauen	töten	krank	ausrottung	bange	gierig	versagen	kuss	engagiert	genießen	vergnügt	sonnig	gesittet	krise	engstirnig	gemein	verbissen	sterben	geizig	1	blank2r.bmp	0	1	+	0	1	blank2r.bmp	500	3	B3r.bmp	500	1	blank2r.bmp	880	5	sterben	880	1	!	1313	1	!	-1	0	0	0	0	0	0
2024-05-16	14:02:14	14:06:59	284248	6.6.1	4_exp_EVA_AWA_CON	42	A	B	Rpleas_acq	Oppo	Rpleas	1pleas	acq_US_pleas_nomask	acq2_nomask	2	3	480	0	300	300	0	0	829	50	1	0	träumen	kreativ	anregung	besonnen	gütig	vertrauen	töten	krank	ausrottung	bange	gierig	versagen	kuss	engagiert	genießen	vergnügt	sonnig	gesittet	krise	engstirnig	gemein	verbissen	sterben	geizig	1	blank2r.bmp	0	1	+	0	1	blank2r.bmp	506	1	CPLW	506	1	blank2r.bmp	881	3	anregung	881	1	!	1329	1	!	-1	0	0	0	0	0	0
2024-05-16	14:02:14	14:07:02	286733	6.6.1	4_exp_EVA_AWA_CON	42	A	B	Rpleas_acq	Oppo	Rpleas	1pleas	acq_new_unple_nomask	acq2_nomask	2	4	480	0	300	300	0	0	705	46	1	0	träumen	kreativ	anregung	besonnen	gütig	vertrauen	töten	krank	ausrottung	bange	gierig	versagen	kuss	engagiert	genießen	vergnügt	sonnig	gesittet	krise	engstirnig	gemein	verbissen	sterben	geizig	1	blank2r.bmp	0	1	+	0	1	blank2r.bmp	500	1	B1r.bmp	500	1	blank2r.bmp	880	6	geizig	880	1	!	1313	1	!	-1	0	0	0	0	0	0
2024-05-16	14:02:14	14:07:09	293628	6.6.1	4_exp_EVA_AWA_CON	42	A	B	Rpleas_acq	Oppo	Rpleas	1pleas	acq_US_unple_nomask	acq2_nomask	2	5	480	0	300	300	0	0	5120	46	1	0	träumen	kreativ	anregung	besonnen	gütig	vertrauen	töten	krank	ausrottung	bange	gierig	versagen	kuss	engagiert	genießen	vergnügt	sonnig	gesittet	krise	engstirnig	gemein	verbissen	sterben	geizig	1	blank2r.bmp	0	1	+	0	1	blank2r.bmp	500	1	DHJF	500	1	blank2r.bmp	880	6	versagen	880	1	!	1313	1	!	-1	0	0	0	0	0	0
2024-05-16	14:02:14	14:07:11	295935	6.6.1	4_exp_EVA_AWA_CON	42	A	B	Rpleas_acq	Oppo	Rpleas	1pleas	acq_US_pleas_nomask	acq2_nomask	2	6	480	1	300	300	0	0	529	50	1	0	träumen	kreativ	anregung	besonnen	gütig	vertrauen	töten	krank	ausrottung	bange	gierig	versagen	kuss	engagiert	genießen	vergnügt	sonnig	gesittet	krise	engstirnig	gemein	verbissen	sterben	geizig	1	blank2r.bmp	0	1	+	0	1	blank2r.bmp	500	1	CPLW	500	1	blank2r.bmp	880	2	kreativ	880	1	!	1313	1	!	1430	0	0	0	0	0	0
2024-05-16	14:02:14	14:07:15	299452	6.6.1	4_exp_EVA_AWA_CON	42	A	B	Rpleas_acq	Oppo	Rpleas	1pleas	acq_US_unple_nomask	acq2_nomask	2	7	480	0	300	300	0	0	697	46	1	0	träumen	kreativ	anregung	besonnen	gütig	vertrauen	töten	krank	ausrottung	bange	gierig	versagen	kuss	engagiert	genießen	vergnügt	sonnig	gesittet	krise	engstirnig	gemein	verbissen	sterben	geizig	1	blank2r.bmp	0	1	+	0	1	blank2r.bmp	500	1	DHJF	500	1	blank2r.bmp	880	5	gierig	880	1	!	1313	1	!	-1	0	0	0	0	0	0
2024-05-16	14:02:14	14:07:17	301820	6.6.1	4_exp_EVA_AWA_CON	42	A	B	Rpleas_acq	Oppo	Rpleas	1pleas	acq_new_unple_nomask	acq2_nomask	2	8	480	0	300	300	0	0	593	46	1	0	träumen	kreativ	anregung	besonnen	gütig	vertrauen	töten	krank	ausrottung	bange	gierig	versagen	kuss	engagiert	genießen	vergnügt	sonnig	gesittet	krise	engstirnig	gemein	verbissen	sterben	geizig	1	blank2r.bmp	0	1	+	0	1	blank2r.bmp	500	8	C4r.bmp	500	1	blank2r.bmp	880	1	krise	880	1	!	1313	1	!	-1	0	0	0	0	0	0
2024-05-16	14:02:14	14:07:19	304062	6.6.1	4_exp_EVA_AWA_CON	42	A	B	Rpleas_acq	Oppo	Rpleas	1pleas	acq_US_pleas_nomask	acq2_nomask	2	9	480	1	300	300	0	0	462	50	1	0	träumen	kreativ	anregung	besonnen	gütig	vertrauen	töten	krank	ausrottung	bange	gierig	versagen	kuss	engagiert	genießen	vergnügt	sonnig	gesittet	krise	engstirnig	gemein	verbissen	sterben	geizig	1	blank2r.bmp	0	1	+	0	1	blank2r.bmp	500	1	CPLW	500	1	blank2r.bmp	880	4	besonnen	880	1	!	1313	1	!	1363	0	0	0	0	0	0
2024-05-16	14:02:14	14:07:22	306452	6.6.1	4_exp_EVA_AWA_CON	42	A	B	Rpleas_acq	Oppo	Rpleas	1pleas	acq_new_pleas_nomask	acq2_nomask	2	10	480	0	300	300	0	0	612	50	1	0	träumen	kreativ	anregung	besonnen	gütig	vertrauen	töten	krank	ausrottung	bange	gierig	versagen	kuss	engagiert	genießen	vergnügt	sonnig	gesittet	krise	engstirnig	gemein	verbissen	sterben	geizig	1	blank2r.bmp	0	1	+	0	1	blank2r.bmp	500	5	C1r.bmp	500	1	blank2r.bmp	880	5	sonnig	880	1	!	1313	1	!	-1	0	0	0	0	0	0
2024-05-16	14:02:14	14:07:24	308628	6.6.1	4_exp_EVA_AWA_CON	42	A	B	Rpleas_acq	Oppo	Rpleas	1pleas	acq_US_unple_nomask	acq2_nomask	2	11	480	0	300	300	0	0	397	46	1	0	träumen	kreativ	anregung	besonnen	gütig	vertrauen	töten	krank	ausrottung	bange	gierig	versagen	kuss	engagiert	genießen	vergnügt	sonnig	gesittet	krise	engstirnig	gemein	verbissen	sterben	geizig	1	blank2r.bmp	0	1	+	0	1	blank2r.bmp	500	1	DHJF	500	1	blank2r.bmp	880	3	ausrottung	880	1	!	-1	1	!	-1	0	0	0	0	0	0
2024-05-16	14:02:14	14:07:26	311141	6.6.1	4_exp_EVA_AWA_CON	42	A	B	Rpleas_acq	Oppo	Rpleas	1pleas	acq_new_pleas_nomask	acq2_nomask	2	12	480	0	300	300	0	0	738	50	1	0	träumen	kreativ	anregung	besonnen	gütig	vertrauen	töten	krank	ausrottung	bange	gierig	versagen	kuss	engagiert	genießen	vergnügt	sonnig	gesittet	krise	engstirnig	gemein	verbissen	sterben	geizig	1	blank2r.bmp	0	1	+	0	1	blank2r.bmp	500	4	B4r.bmp	500	1	blank2r.bmp	880	3	genießen	880	1	!	1313	1	!	-1	0	0	0	0	0	0
2024-05-16	14:02:14	14:07:29	313475	6.6.1	4_exp_EVA_AWA_CON	42	A	B	Rpleas_acq	Oppo	Rpleas	1pleas	acq_US_unple_nomask	acq2_nomask	2	13	480	0	300	300	0	0	562	46	1	0	träumen	kreativ	anregung	besonnen	gütig	vertrauen	töten	krank	ausrottung	bange	gierig	versagen	kuss	engagiert	genießen	vergnügt	sonnig	gesittet	krise	engstirnig	gemein	verbissen	sterben	geizig	1	blank2r.bmp	0	1	+	0	1	blank2r.bmp	500	1	DHJF	500	1	blank2r.bmp	880	1	töten	880	1	!	1311	1	!	-1	0	0	0	0	0	0
2024-05-16	14:02:14	14:07:31	315732	6.6.1	4_exp_EVA_AWA_CON	42	A	B	Rpleas_acq	Oppo	Rpleas	1pleas	acq_US_pleas_nomask	acq2_nomask	2	14	480	1	300	300	0	0	476	50	1	0	träumen	kreativ	anregung	besonnen	gütig	vertrauen	töten	krank	ausrottung	bange	gierig	versagen	kuss	engagiert	genießen	vergnügt	sonnig	gesittet	krise	engstirnig	gemein	verbissen	sterben	geizig	1	blank2r.bmp	0	1	+	0	1	blank2r.bmp	500	1	CPLW	500	1	blank2r.bmp	880	3	anregung	880	1	!	1311	1	!	1377	0	0	0	0	0	0
2024-05-16	14:02:14	14:07:33	317999	6.6.1	4_exp_EVA_AWA_CON	42	A	B	Rpleas_acq	Oppo	Rpleas	1pleas	acq_new_unple_nomask	acq2_nomask	2	15	480	1	300	300	0	0	489	46	1	0	träumen	kreativ	anregung	besonnen	gütig	vertrauen	töten	krank	ausrottung	bange	gierig	versagen	kuss	engagiert	genießen	vergnügt	sonnig	gesittet	krise	engstirnig	gemein	verbissen	sterben	geizig	1	blank2r.bmp	0	1	+	0	1	blank2r.bmp	500	3	B3r.bmp	500	1	blank2r.bmp	880	1	krise	880	1	!	1313	1	!	1390	0	0	0	0	0	0
2024-05-16	14:02:14	14:07:36	320396	6.6.1	4_exp_EVA_AWA_CON	42	A	B	Rpleas_acq	Oppo	Rpleas	1pleas	acq_US_pleas_nomask	acq2_nomask	2	16	480	0	300	300	0	0	617	50	1	0	träumen	kreativ	anregung	besonnen	gütig	vertrauen	töten	krank	ausrottung	bange	gierig	versagen	kuss	engagiert	genießen	vergnügt	sonnig	gesittet	krise	engstirnig	gemein	verbissen	sterben	geizig	1	blank2r.bmp	0	1	+	0	1	blank2r.bmp	500	1	CPLW	500	1	blank2r.bmp	880	2	kreativ	880	1	!	1313	1	!	-1	0	0	0	0	0	0
2024-05-16	14:02:14	14:07:38	322901	6.6.1	4_exp_EVA_AWA_CON	42	A	B	Rpleas_acq	Oppo	Rpleas	1pleas	acq_new_unple_nomask	acq2_nomask	2	17	480	0	300	300	0	0	730	46	1	0	träumen	kreativ	anregung	besonnen	gütig	vertrauen	töten	krank	ausrottung	bange	gierig	versagen	kuss	engagiert	genießen	vergnügt	sonnig	gesittet	krise	engstirnig	gemein	verbissen	sterben	geizig	1	blank2r.bmp	0	1	+	0	1	blank2r.bmp	500	6	C2r.bmp	500	1	blank2r.bmp	880	2	engstirnig	880	1	!	1313	1	!	-1	0	0	0	0	0	0
2024-05-16	14:02:14	14:07:40	325247	6.6.1	4_exp_EVA_AWA_CON	42	A	B	Rpleas_acq	Oppo	Rpleas	1pleas	acq_US_unple_nomask	acq2_nomask	2	18	480	0	300	300	0	0	362	50	0	0	träumen	kreativ	anregung	besonnen	gütig	vertrauen	töten	krank	ausrottung	bange	gierig	versagen	kuss	engagiert	genießen	vergnügt	sonnig	gesittet	krise	engstirnig	gemein	verbissen	sterben	geizig	1	blank2r.bmp	0	1	+	0	1	blank2r.bmp	500	1	DHJF	500	1	blank2r.bmp	880	6	versagen	880	1	FEHLER	1555	1	!	-1	1	!	-1	0	0	0
2024-05-16	14:02:14	14:07:42	327196	6.6.1	4_exp_EVA_AWA_CON	42	A	B	Rpleas_acq	Oppo	Rpleas	1pleas	acq_US_pleas_nomask	acq2_nomask	2	19	480	0	300	300	0	0	373	50	1	0	träumen	kreativ	anregung	besonnen	gütig	vertrauen	töten	krank	ausrottung	bange	gierig	versagen	kuss	engagiert	genießen	vergnügt	sonnig	gesittet	krise	engstirnig	gemein	verbissen	sterben	geizig	1	blank2r.bmp	0	1	+	0	1	blank2r.bmp	500	1	CPLW	500	1	blank2r.bmp	880	6	vertrauen	880	1	!	-1	1	!	-1	0	0	0	0	0	0
2024-05-16	14:02:14	14:07:45	329744	6.6.1	4_exp_EVA_AWA_CON	42	A	B	Rpleas_acq	Oppo	Rpleas	1pleas	acq_new_pleas_nomask	acq2_nomask	2	20	480	0	300	300	0	0	565	46	0	0	träumen	kreativ	anregung	besonnen	gütig	vertrauen	töten	krank	ausrottung	bange	gierig	versagen	kuss	engagiert	genießen	vergnügt	sonnig	gesittet	krise	engstirnig	gemein	verbissen	sterben	geizig	1	blank2r.bmp	0	1	+	0	1	blank2r.bmp	500	1	B1r.bmp	500	1	blank2r.bmp	880	6	gesittet	880	1	FEHLER	1759	1	!	1312	1	!	-1	0	0	0
2024-05-16	14:02:14	14:07:47	331799	6.6.1	4_exp_EVA_AWA_CON	42	A	B	Rpleas_acq	Oppo	Rpleas	1pleas	acq_new_pleas_nomask	acq2_nomask	2	21	480	1	300	300	0	0	480	50	1	0	träumen	kreativ	anregung	besonnen	gütig	vertrauen	töten	krank	ausrottung	bange	gierig	versagen	kuss	engagiert	genießen	vergnügt	sonnig	gesittet	krise	engstirnig	gemein	verbissen	sterben	geizig	1	blank2r.bmp	0	1	+	0	1	blank2r.bmp	500	5	C1r.bmp	500	1	blank2r.bmp	880	1	kuss	880	1	!	1312	1	!	1382	0	0	0	0	0	0
2024-05-16	14:02:14	14:07:49	334204	6.6.1	4_exp_EVA_AWA_CON	42	A	B	Rpleas_acq	Oppo	Rpleas	1pleas	acq_new_pleas_nomask	acq2_nomask	2	22	480	0	300	300	0	0	626	50	1	0	träumen	kreativ	anregung	besonnen	gütig	vertrauen	töten	krank	ausrottung	bange	gierig	versagen	kuss	engagiert	genießen	vergnügt	sonnig	gesittet	krise	engstirnig	gemein	verbissen	sterben	geizig	1	blank2r.bmp	0	1	+	0	1	blank2r.bmp	500	7	C3r.bmp	500	1	blank2r.bmp	880	4	vergnügt	880	1	!	1313	1	!	-1	0	0	0	0	0	0
2024-05-16	14:02:14	14:07:52	336604	6.6.1	4_exp_EVA_AWA_CON	42	A	B	Rpleas_acq	Oppo	Rpleas	1pleas	acq_US_unple_nomask	acq2_nomask	2	23	480	0	300	300	0	0	625	46	1	0	träumen	kreativ	anregung	besonnen	gütig	vertrauen	töten	krank	ausrottung	bange	gierig	versagen	kuss	engagiert	genießen	vergnügt	sonnig	gesittet	krise	engstirnig	gemein	verbissen	sterben	geizig	1	blank2r.bmp	0	1	+	0	1	blank2r.bmp	500	1	DHJF	500	1	blank2r.bmp	880	2	krank	880	1	!	1313	1	!	-1	0	0	0	0	0	0
2024-05-16	14:02:14	14:07:54	338918	6.6.1	4_exp_EVA_AWA_CON	42	A	B	Rpleas_acq	Oppo	Rpleas	1pleas	acq_new_unple_nomask	acq2_nomask	2	24	480	1	300	300	0	0	535	46	1	0	träumen	kreativ	anregung	besonnen	gütig	vertrauen	töten	krank	ausrottung	bange	gierig	versagen	kuss	engagiert	genießen	vergnügt	sonnig	gesittet	krise	engstirnig	gemein	verbissen	sterben	geizig	1	blank2r.bmp	0	1	+	0	1	blank2r.bmp	500	8	C4r.bmp	500	1	blank2r.bmp	880	3	gemein	880	1	!	1313	1	!	1437	0	0	0	0	0	0
2024-05-16	14:02:14	14:07:56	341198	6.6.1	4_exp_EVA_AWA_CON	42	A	B	Rpleas_acq	Oppo	Rpleas	1pleas	acq_new_pleas_nomask	acq2_nomask	2	25	480	1	300	300	0	0	504	50	1	0	träumen	kreativ	anregung	besonnen	gütig	vertrauen	töten	krank	ausrottung	bange	gierig	versagen	kuss	engagiert	genießen	vergnügt	sonnig	gesittet	krise	engstirnig	gemein	verbissen	sterben	geizig	1	blank2r.bmp	0	1	+	0	1	blank2r.bmp	500	4	B4r.bmp	500	1	blank2r.bmp	880	5	sonnig	880	1	!	1313	1	!	1405	0	0	0	0	0	0
2024-05-16	14:02:14	14:07:59	343580	6.6.1	4_exp_EVA_AWA_CON	42	A	B	Rpleas_acq	Oppo	Rpleas	1pleas	acq_new_unple_nomask	acq2_nomask	2	26	480	0	300	300	0	0	606	46	1	0	träumen	kreativ	anregung	besonnen	gütig	vertrauen	töten	krank	ausrottung	bange	gierig	versagen	kuss	engagiert	genießen	vergnügt	sonnig	gesittet	krise	engstirnig	gemein	verbissen	sterben	geizig	1	blank2r.bmp	0	1	+	0	1	blank2r.bmp	500	2	B2r.bmp	500	1	blank2r.bmp	880	5	sterben	880	1	!	1313	1	!	-1	0	0	0	0	0	0
2024-05-16	14:02:14	14:08:01	346063	6.6.1	4_exp_EVA_AWA_CON	42	A	B	Rpleas_acq	Oppo	Rpleas	1pleas	acq_US_unple_nomask	acq2_nomask	2	27	480	1	300	300	0	0	505	50	0	0	träumen	kreativ	anregung	besonnen	gütig	vertrauen	töten	krank	ausrottung	bange	gierig	versagen	kuss	engagiert	genießen	vergnügt	sonnig	gesittet	krise	engstirnig	gemein	verbissen	sterben	geizig	1	blank2r.bmp	0	1	+	0	1	blank2r.bmp	500	1	DHJF	500	1	blank2r.bmp	880	5	gierig	880	1	FEHLER	1698	1	!	1313	1	!	1406	0	0	0
2024-05-16	14:02:14	14:08:03	348174	6.6.1	4_exp_EVA_AWA_CON	42	A	B	Rpleas_acq	Oppo	Rpleas	1pleas	acq_US_pleas_nomask	acq2_nomask	2	28	480	1	300	300	0	0	535	50	1	0	träumen	kreativ	anregung	besonnen	gütig	vertrauen	töten	krank	ausrottung	bange	gierig	versagen	kuss	engagiert	genießen	vergnügt	sonnig	gesittet	krise	engstirnig	gemein	verbissen	sterben	geizig	1	blank2r.bmp	0	1	+	0	1	blank2r.bmp	500	1	CPLW	500	1	blank2r.bmp	880	5	gütig	880	1	!	1313	1	!	1437	0	0	0	0	0	0
2024-05-16	14:02:14	14:08:06	350454	6.6.1	4_exp_EVA_AWA_CON	42	A	B	Rpleas_acq	Oppo	Rpleas	1pleas	acq_US_unple_nomask	acq2_nomask	2	29	480	1	300	300	0	0	504	46	1	0	träumen	kreativ	anregung	besonnen	gütig	vertrauen	töten	krank	ausrottung	bange	gierig	versagen	kuss	engagiert	genießen	vergnügt	sonnig	gesittet	krise	engstirnig	gemein	verbissen	sterben	geizig	1	blank2r.bmp	0	1	+	0	1	blank2r.bmp	500	1	DHJF	500	1	blank2r.bmp	880	3	ausrottung	880	1	!	1312	1	!	1405	0	0	0	0	0	0
2024-05-16	14:02:14	14:08:08	352718	6.6.1	4_exp_EVA_AWA_CON	42	A	B	Rpleas_acq	Oppo	Rpleas	1pleas	acq_new_pleas_nomask	acq2_nomask	2	30	480	1	300	300	0	0	486	50	1	0	träumen	kreativ	anregung	besonnen	gütig	vertrauen	töten	krank	ausrottung	bange	gierig	versagen	kuss	engagiert	genießen	vergnügt	sonnig	gesittet	krise	engstirnig	gemein	verbissen	sterben	geizig	1	blank2r.bmp	0	1	+	0	1	blank2r.bmp	500	3	B3r.bmp	500	1	blank2r.bmp	880	3	genießen	880	1	!	1313	1	!	1388	0	0	0	0	0	0
2024-05-16	14:02:14	14:08:10	354974	6.6.1	4_exp_EVA_AWA_CON	42	A	B	Rpleas_acq	Oppo	Rpleas	1pleas	acq_new_unple_nomask	acq2_nomask	2	31	480	1	300	300	0	0	481	46	1	0	träumen	kreativ	anregung	besonnen	gütig	vertrauen	töten	krank	ausrottung	bange	gierig	versagen	kuss	engagiert	genießen	vergnügt	sonnig	gesittet	krise	engstirnig	gemein	verbissen	sterben	geizig	1	blank2r.bmp	0	1	+	0	1	blank2r.bmp	500	4	B4r.bmp	500	1	blank2r.bmp	880	6	geizig	880	1	!	1313	1	!	1383	0	0	0	0	0	0
2024-05-16	14:02:14	14:08:12	357214	6.6.1	4_exp_EVA_AWA_CON	42	A	B	Rpleas_acq	Oppo	Rpleas	1pleas	acq_US_pleas_nomask	acq2_nomask	2	32	480	1	300	300	0	0	459	50	1	0	träumen	kreativ	anregung	besonnen	gütig	vertrauen	töten	krank	ausrottung	bange	gierig	versagen	kuss	engagiert	genießen	vergnügt	sonnig	gesittet	krise	engstirnig	gemein	verbissen	sterben	geizig	1	blank2r.bmp	0	1	+	0	1	blank2r.bmp	500	1	CPLW	500	1	blank2r.bmp	880	4	besonnen	880	1	!	1312	1	!	1361	0	0	0	0	0	0
2024-05-16	14:02:14	14:08:15	359639	6.6.1	4_exp_EVA_AWA_CON	42	A	B	Rpleas_acq	Oppo	Rpleas	1pleas	acq_new_pleas_nomask	acq2_nomask	2	33	480	1	300	300	0	0	442	46	0	0	träumen	kreativ	anregung	besonnen	gütig	vertrauen	töten	krank	ausrottung	bange	gierig	versagen	kuss	engagiert	genießen	vergnügt	sonnig	gesittet	krise	engstirnig	gemein	verbissen	sterben	geizig	1	blank2r.bmp	0	1	+	0	1	blank2r.bmp	500	1	B1r.bmp	500	1	blank2r.bmp	880	2	engagiert	880	1	FEHLER	1635	1	!	1312	1	!	1343	0	0	0
2024-05-16	14:02:14	14:08:17	361678	6.6.1	4_exp_EVA_AWA_CON	42	A	B	Rpleas_acq	Oppo	Rpleas	1pleas	acq_US_pleas_nomask	acq2_nomask	2	34	480	1	300	300	0	0	460	50	1	0	träumen	kreativ	anregung	besonnen	gütig	vertrauen	töten	krank	ausrottung	bange	gierig	versagen	kuss	engagiert	genießen	vergnügt	sonnig	gesittet	krise	engstirnig	gemein	verbissen	sterben	geizig	1	blank2r.bmp	0	1	+	0	1	blank2r.bmp	500	1	CPLW	500	1	blank2r.bmp	880	1	träumen	880	1	!	1313	1	!	1362	0	0	0	0	0	0
2024-05-16	14:02:14	14:08:21	365492	6.6.1	4_exp_EVA_AWA_CON	42	A	B	Rpleas_acq	Oppo	Rpleas	1pleas	acq_new_unple_nomask	acq2_nomask	2	35	480	0	300	300	0	0	2035	46	1	0	träumen	kreativ	anregung	besonnen	gütig	vertrauen	töten	krank	ausrottung	bange	gierig	versagen	kuss	engagiert	genießen	vergnügt	sonnig	gesittet	krise	engstirnig	gemein	verbissen	sterben	geizig	1	blank2r.bmp	0	1	+	0	1	blank2r.bmp	500	8	C4r.bmp	500	1	blank2r.bmp	880	4	verbissen	880	1	!	1312	1	!	-1	0	0	0	0	0	0
2024-05-16	14:02:14	14:08:23	367791	6.6.1	4_exp_EVA_AWA_CON	42	A	B	Rpleas_acq	Oppo	Rpleas	1pleas	acq_US_unple_nomask	acq2_nomask	2	36	480	1	300	300	0	0	518	46	1	0	träumen	kreativ	anregung	besonnen	gütig	vertrauen	töten	krank	ausrottung	bange	gierig	versagen	kuss	engagiert	genießen	vergnügt	sonnig	gesittet	krise	engstirnig	gemein	verbissen	sterben	geizig	1	blank2r.bmp	0	1	+	0	1	blank2r.bmp	500	1	DHJF	500	1	blank2r.bmp	880	4	bange	880	1	!	1312	1	!	1420	0	0	0	0	0	0
2024-05-16	14:02:14	14:08:38	383246	6.6.1	4_exp_EVA_AWA_CON	42	A	B	Rpleas_acq	Oppo	Rpleas	1pleas	acq_US_pleas_nomask	acq3_nomask	3	1	453	1	300	300	0	0	434	50	1	0	träumen	kreativ	anregung	besonnen	gütig	vertrauen	töten	krank	ausrottung	bange	gierig	versagen	kuss	engagiert	genießen	vergnügt	sonnig	gesittet	krise	engstirnig	gemein	verbissen	sterben	geizig	1	blank2r.bmp	0	1	+	0	1	blank2r.bmp	500	1	CPLW	500	1	blank2r.bmp	880	1	träumen	880	1	!	1292	1	!	1336	0	0	0	0	0	0
2024-05-16	14:02:14	14:08:41	385396	6.6.1	4_exp_EVA_AWA_CON	42	A	B	Rpleas_acq	Oppo	Rpleas	1pleas	acq_US_pleas_nomask	acq3_nomask	3	2	453	0	300	300	0	0	375	50	1	0	träumen	kreativ	anregung	besonnen	gütig	vertrauen	töten	krank	ausrottung	bange	gierig	versagen	kuss	engagiert	genießen	vergnügt	sonnig	gesittet	krise	engstirnig	gemein	verbissen	sterben	geizig	1	blank2r.bmp	0	1	+	0	1	blank2r.bmp	500	1	CPLW	500	1	blank2r.bmp	880	4	besonnen	880	1	!	-1	1	!	-1	0	0	0	0	0	0
2024-05-16	14:02:14	14:08:43	387590	6.6.1	4_exp_EVA_AWA_CON	42	A	B	Rpleas_acq	Oppo	Rpleas	1pleas	acq_US_pleas_nomask	acq3_nomask	3	3	453	1	300	300	0	0	416	50	1	0	träumen	kreativ	anregung	besonnen	gütig	vertrauen	töten	krank	ausrottung	bange	gierig	versagen	kuss	engagiert	genießen	vergnügt	sonnig	gesittet	krise	engstirnig	gemein	verbissen	sterben	geizig	1	blank2r.bmp	0	1	+	0	1	blank2r.bmp	500	1	CPLW	500	1	blank2r.bmp	880	6	vertrauen	880	1	!	1293	1	!	1317	0	0	0	0	0	0
2024-05-16	14:02:14	14:08:45	389822	6.6.1	4_exp_EVA_AWA_CON	42	A	B	Rpleas_acq	Oppo	Rpleas	1pleas	acq_US_pleas_nomask	acq3_nomask	3	4	453	1	300	300	0	0	456	50	1	0	träumen	kreativ	anregung	besonnen	gütig	vertrauen	töten	krank	ausrottung	bange	gierig	versagen	kuss	engagiert	genießen	vergnügt	sonnig	gesittet	krise	engstirnig	gemein	verbissen	sterben	geizig	1	blank2r.bmp	0	1	+	0	1	blank2r.bmp	500	1	CPLW	500	1	blank2r.bmp	880	5	gütig	880	1	!	1293	1	!	1358	0	0	0	0	0	0
2024-05-16	14:02:14	14:08:47	392260	6.6.1	4_exp_EVA_AWA_CON	42	A	B	Rpleas_acq	Oppo	Rpleas	1pleas	acq_US_unple_nomask	acq3_nomask	3	5	453	0	300	300	0	0	665	46	1	0	träumen	kreativ	anregung	besonnen	gütig	vertrauen	töten	krank	ausrottung	bange	gierig	versagen	kuss	engagiert	genießen	vergnügt	sonnig	gesittet	krise	engstirnig	gemein	verbissen	sterben	geizig	1	blank2r.bmp	0	1	+	0	1	blank2r.bmp	500	1	DHJF	500	1	blank2r.bmp	880	5	gierig	880	1	!	1293	1	!	-1	0	0	0	0	0	0
2024-05-16	14:02:14	14:08:50	394562	6.6.1	4_exp_EVA_AWA_CON	42	A	B	Rpleas_acq	Oppo	Rpleas	1pleas	acq_US_unple_nomask	acq3_nomask	3	6	453	0	300	300	0	0	527	46	1	0	träumen	kreativ	anregung	besonnen	gütig	vertrauen	töten	krank	ausrottung	bange	gierig	versagen	kuss	engagiert	genießen	vergnügt	sonnig	gesittet	krise	engstirnig	gemein	verbissen	sterben	geizig	1	blank2r.bmp	0	1	+	0	1	blank2r.bmp	500	1	DHJF	500	1	blank2r.bmp	880	1	töten	880	1	!	1293	1	!	-1	0	0	0	0	0	0
2024-05-16	14:02:14	14:08:52	396758	6.6.1	4_exp_EVA_AWA_CON	42	A	B	Rpleas_acq	Oppo	Rpleas	1pleas	acq_US_unple_nomask	acq3_nomask	3	7	453	1	300	300	0	0	418	46	1	0	träumen	kreativ	anregung	besonnen	gütig	vertrauen	töten	krank	ausrottung	bange	gierig	versagen	kuss	engagiert	genießen	vergnügt	sonnig	gesittet	krise	engstirnig	gemein	verbissen	sterben	geizig	1	blank2r.bmp	0	1	+	0	1	blank2r.bmp	500	1	DHJF	500	1	blank2r.bmp	880	3	ausrottung	880	1	!	1292	1	!	1319	0	0	0	0	0	0
2024-05-16	14:02:14	14:08:54	398982	6.6.1	4_exp_EVA_AWA_CON	42	A	B	Rpleas_acq	Oppo	Rpleas	1pleas	acq_US_unple_nomask	acq3_nomask	3	8	453	1	300	300	0	0	440	46	1	0	träumen	kreativ	anregung	besonnen	gütig	vertrauen	töten	krank	ausrottung	bange	gierig	versagen	kuss	engagiert	genießen	vergnügt	sonnig	gesittet	krise	engstirnig	gemein	verbissen	sterben	geizig	1	blank2r.bmp	0	1	+	0	1	blank2r.bmp	500	1	DHJF	500	1	blank2r.bmp	880	4	bange	880	1	!	1293	1	!	1342	0	0	0	0	0	0
2024-05-16	14:02:14	14:08:57	401333	6.6.1	4_exp_EVA_AWA_CON	42	A	B	Rpleas_acq	Oppo	Rpleas	1pleas	acq_US_unple_nomask	acq3_nomask	3	9	453	0	300	300	0	0	571	46	1	0	träumen	kreativ	anregung	besonnen	gütig	vertrauen	töten	krank	ausrottung	bange	gierig	versagen	kuss	engagiert	genießen	vergnügt	sonnig	gesittet	krise	engstirnig	gemein	verbissen	sterben	geizig	1	blank2r.bmp	0	1	+	0	1	blank2r.bmp	500	1	DHJF	500	1	blank2r.bmp	880	6	versagen	880	1	!	1292	1	!	-1	0	0	0	0	0	0
2024-05-16	14:02:14	14:08:59	403783	6.6.1	4_exp_EVA_AWA_CON	42	A	B	Rpleas_acq	Oppo	Rpleas	1pleas	acq_US_pleas_nomask	acq3_nomask	3	10	453	1	300	300	0	0	467	46	0	0	träumen	kreativ	anregung	besonnen	gütig	vertrauen	töten	krank	ausrottung	bange	gierig	versagen	kuss	engagiert	genießen	vergnügt	sonnig	gesittet	krise	engstirnig	gemein	verbissen	sterben	geizig	1	blank2r.bmp	0	1	+	0	1	blank2r.bmp	500	1	CPLW	500	1	blank2r.bmp	880	3	anregung	880	1	FEHLER	1660	1	!	1292	1	!	1368	0	0	0
2024-05-16	14:02:14	14:09:01	405767	6.6.1	4_exp_EVA_AWA_CON	42	A	B	Rpleas_acq	Oppo	Rpleas	1pleas	acq_US_pleas_nomask	acq3_nomask	3	11	453	1	300	300	0	0	410	50	1	0	träumen	kreativ	anregung	besonnen	gütig	vertrauen	töten	krank	ausrottung	bange	gierig	versagen	kuss	engagiert	genießen	vergnügt	sonnig	gesittet	krise	engstirnig	gemein	verbissen	sterben	geizig	1	blank2r.bmp	0	1	+	0	1	blank2r.bmp	500	1	CPLW	500	1	blank2r.bmp	880	2	kreativ	880	1	!	1293	1	!	1312	0	0	0	0	0	0
2024-05-16	14:02:14	14:09:03	408100	6.6.1	4_exp_EVA_AWA_CON	42	A	B	Rpleas_acq	Oppo	Rpleas	1pleas	acq_US_unple_nomask	acq3_nomask	3	12	453	0	300	300	0	0	554	46	1	0	träumen	kreativ	anregung	besonnen	gütig	vertrauen	töten	krank	ausrottung	bange	gierig	versagen	kuss	engagiert	genießen	vergnügt	sonnig	gesittet	krise	engstirnig	gemein	verbissen	sterben	geizig	1	blank2r.bmp	0	1	+	0	1	blank2r.bmp	500	1	DHJF	500	1	blank2r.bmp	880	2	krank	880	1	!	1293	1	!	-1	0	0	0	0	0	0
2024-05-16	14:02:14	14:09:06	410672	6.6.1	4_exp_EVA_AWA_CON	42	A	B	Rpleas_acq	Oppo	Rpleas	1pleas	acq_US_unple_nomask	acq3_nomask	3	13	453	0	300	300	0	0	591	50	0	0	träumen	kreativ	anregung	besonnen	gütig	vertrauen	töten	krank	ausrottung	bange	gierig	versagen	kuss	engagiert	genießen	vergnügt	sonnig	gesittet	krise	engstirnig	gemein	verbissen	sterben	geizig	1	blank2r.bmp	0	1	+	0	1	blank2r.bmp	500	1	DHJF	500	1	blank2r.bmp	880	5	gierig	880	1	FEHLER	1785	1	!	1293	1	!	-1	0	0	0
2024-05-16	14:02:14	14:09:08	412876	6.6.1	4_exp_EVA_AWA_CON	42	A	B	Rpleas_acq	Oppo	Rpleas	1pleas	acq_US_pleas_nomask	acq3_nomask	3	14	453	0	300	300	0	0	627	50	1	0	träumen	kreativ	anregung	besonnen	gütig	vertrauen	töten	krank	ausrottung	bange	gierig	versagen	kuss	engagiert	genießen	vergnügt	sonnig	gesittet	krise	engstirnig	gemein	verbissen	sterben	geizig	1	blank2r.bmp	0	1	+	0	1	blank2r.bmp	500	1	CPLW	500	1	blank2r.bmp	880	3	anregung	880	1	!	1292	1	!	-1	0	0	0	0	0	0
2024-05-16	14:02:14	14:09:10	415276	6.6.1	4_exp_EVA_AWA_CON	42	A	B	Rpleas_acq	Oppo	Rpleas	1pleas	acq_US_unple_nomask	acq3_nomask	3	15	453	0	300	300	0	0	626	46	1	0	träumen	kreativ	anregung	besonnen	gütig	vertrauen	töten	krank	ausrottung	bange	gierig	versagen	kuss	engagiert	genießen	vergnügt	sonnig	gesittet	krise	engstirnig	gemein	verbissen	sterben	geizig	1	blank2r.bmp	0	1	+	0	1	blank2r.bmp	500	1	DHJF	500	1	blank2r.bmp	880	1	töten	880	1	!	1293	1	!	-1	0	0	0	0	0	0
2024-05-16	14:02:14	14:09:13	417550	6.6.1	4_exp_EVA_AWA_CON	42	A	B	Rpleas_acq	Oppo	Rpleas	1pleas	acq_US_pleas_nomask	acq3_nomask	3	16	453	1	300	300	0	0	496	50	1	0	träumen	kreativ	anregung	besonnen	gütig	vertrauen	töten	krank	ausrottung	bange	gierig	versagen	kuss	engagiert	genießen	vergnügt	sonnig	gesittet	krise	engstirnig	gemein	verbissen	sterben	geizig	1	blank2r.bmp	0	1	+	0	1	blank2r.bmp	500	1	CPLW	500	1	blank2r.bmp	880	1	träumen	880	1	!	1293	1	!	1398	0	0	0	0	0	0
2024-05-16	14:02:14	14:09:15	419782	6.6.1	4_exp_EVA_AWA_CON	42	A	B	Rpleas_acq	Oppo	Rpleas	1pleas	acq_US_unple_nomask	acq3_nomask	3	17	453	1	300	300	0	0	457	46	1	0	träumen	kreativ	anregung	besonnen	gütig	vertrauen	töten	krank	ausrottung	bange	gierig	versagen	kuss	engagiert	genießen	vergnügt	sonnig	gesittet	krise	engstirnig	gemein	verbissen	sterben	geizig	1	blank2r.bmp	0	1	+	0	1	blank2r.bmp	500	1	DHJF	500	1	blank2r.bmp	880	4	bange	880	1	!	1293	1	!	1358	0	0	0	0	0	0
2024-05-16	14:02:14	14:09:17	422046	6.6.1	4_exp_EVA_AWA_CON	42	A	B	Rpleas_acq	Oppo	Rpleas	1pleas	acq_US_pleas_nomask	acq3_nomask	3	18	453	1	300	300	0	0	489	50	1	0	träumen	kreativ	anregung	besonnen	gütig	vertrauen	töten	krank	ausrottung	bange	gierig	versagen	kuss	engagiert	genießen	vergnügt	sonnig	gesittet	krise	engstirnig	gemein	verbissen	sterben	geizig	1	blank2r.bmp	0	1	+	0	1	blank2r.bmp	500	1	CPLW	500	1	blank2r.bmp	880	4	besonnen	880	1	!	1292	1	!	1391	0	0	0	0	0	0
2024-05-16	14:02:14	14:09:19	424270	6.6.1	4_exp_EVA_AWA_CON	42	A	B	Rpleas_acq	Oppo	Rpleas	1pleas	acq_US_unple_nomask	acq3_nomask	3	19	453	1	300	300	0	0	442	46	1	0	träumen	kreativ	anregung	besonnen	gütig	vertrauen	töten	krank	ausrottung	bange	gierig	versagen	kuss	engagiert	genießen	vergnügt	sonnig	gesittet	krise	engstirnig	gemein	verbissen	sterben	geizig	1	blank2r.bmp	0	1	+	0	1	blank2r.bmp	500	1	DHJF	500	1	blank2r.bmp	880	3	ausrottung	880	1	!	1293	1	!	1343	0	0	0	0	0	0
2024-05-16	14:02:14	14:09:22	426604	6.6.1	4_exp_EVA_AWA_CON	42	A	B	Rpleas_acq	Oppo	Rpleas	1pleas	acq_US_pleas_nomask	acq3_nomask	3	20	453	0	300	300	0	0	556	50	1	0	träumen	kreativ	anregung	besonnen	gütig	vertrauen	töten	krank	ausrottung	bange	gierig	versagen	kuss	engagiert	genießen	vergnügt	sonnig	gesittet	krise	engstirnig	gemein	verbissen	sterben	geizig	1	blank2r.bmp	0	1	+	0	1	blank2r.bmp	500	1	CPLW	500	1	blank2r.bmp	880	2	kreativ	880	1	!	1292	1	!	-1	0	0	0	0	0	0
2024-05-16	14:02:14	14:09:24	428846	6.6.1	4_exp_EVA_AWA_CON	42	A	B	Rpleas_acq	Oppo	Rpleas	1pleas	acq_US_unple_nomask	acq3_nomask	3	21	453	1	300	300	0	0	465	46	1	0	träumen	kreativ	anregung	besonnen	gütig	vertrauen	töten	krank	ausrottung	bange	gierig	versagen	kuss	engagiert	genießen	vergnügt	sonnig	gesittet	krise	engstirnig	gemein	verbissen	sterben	geizig	1	blank2r.bmp	0	1	+	0	1	blank2r.bmp	500	1	DHJF	500	1	blank2r.bmp	880	2	krank	880	1	!	1293	1	!	1366	0	0	0	0	0	0
2024-05-16	14:02:14	14:09:26	431260	6.6.1	4_exp_EVA_AWA_CON	42	A	B	Rpleas_acq	Oppo	Rpleas	1pleas	acq_US_pleas_nomask	acq3_nomask	3	22	453	0	300	300	0	0	639	50	1	0	träumen	kreativ	anregung	besonnen	gütig	vertrauen	töten	krank	ausrottung	bange	gierig	versagen	kuss	engagiert	genießen	vergnügt	sonnig	gesittet	krise	engstirnig	gemein	verbissen	sterben	geizig	1	blank2r.bmp	0	1	+	0	1	blank2r.bmp	500	1	CPLW	500	1	blank2r.bmp	880	5	gütig	880	1	!	1292	1	!	-1	0	0	0	0	0	0
2024-05-16	14:02:14	14:09:29	433628	6.6.1	4_exp_EVA_AWA_CON	42	A	B	Rpleas_acq	Oppo	Rpleas	1pleas	acq_US_pleas_nomask	acq3_nomask	3	23	453	0	300	300	0	0	586	50	1	0	träumen	kreativ	anregung	besonnen	gütig	vertrauen	töten	krank	ausrottung	bange	gierig	versagen	kuss	engagiert	genießen	vergnügt	sonnig	gesittet	krise	engstirnig	gemein	verbissen	sterben	geizig	1	blank2r.bmp	0	1	+	0	1	blank2r.bmp	500	1	CPLW	500	1	blank2r.bmp	880	6	vertrauen	880	1	!	1293	1	!	-1	0	0	0	0	0	0
2024-05-16	14:02:14	14:09:31	435878	6.6.1	4_exp_EVA_AWA_CON	42	A	B	Rpleas_acq	Oppo	Rpleas	1pleas	acq_US_unple_nomask	acq3_nomask	3	24	453	1	300	300	0	0	472	46	1	0	träumen	kreativ	anregung	besonnen	gütig	vertrauen	töten	krank	ausrottung	bange	gierig	versagen	kuss	engagiert	genießen	vergnügt	sonnig	gesittet	krise	engstirnig	gemein	verbissen	sterben	geizig	1	blank2r.bmp	0	1	+	0	1	blank2r.bmp	500	1	DHJF	500	1	blank2r.bmp	880	6	versagen	880	1	!	1292	1	!	1373	0	0	0	0	0	0
2024-05-16	14:02:14	14:09:34	438381	6.6.1	4_exp_EVA_AWA_CON	42	A	B	Rpleas_acq	Oppo	Rpleas	1pleas	acq_US_pleas_nomask	acq3_nomask	3	25	453	0	300	300	0	0	525	46	0	0	träumen	kreativ	anregung	besonnen	gütig	vertrauen	töten	krank	ausrottung	bange	gierig	versagen	kuss	engagiert	genießen	vergnügt	sonnig	gesittet	krise	engstirnig	gemein	verbissen	sterben	geizig	1	blank2r.bmp	0	1	+	0	1	blank2r.bmp	500	1	CPLW	500	1	blank2r.bmp	880	3	anregung	880	1	FEHLER	1716	1	!	1292	1	!	-1	0	0	0
2024-05-16	14:02:14	14:09:36	440398	6.6.1	4_exp_EVA_AWA_CON	42	A	B	Rpleas_acq	Oppo	Rpleas	1pleas	acq_US_unple_nomask	acq3_nomask	3	26	453	1	300	300	0	0	439	46	1	0	träumen	kreativ	anregung	besonnen	gütig	vertrauen	töten	krank	ausrottung	bange	gierig	versagen	kuss	engagiert	genießen	vergnügt	sonnig	gesittet	krise	engstirnig	gemein	verbissen	sterben	geizig	1	blank2r.bmp	0	1	+	0	1	blank2r.bmp	500	1	DHJF	500	1	blank2r.bmp	880	5	gierig	880	1	!	1293	1	!	1341	0	0	0	0	0	0
2024-05-16	14:02:14	14:09:38	442654	6.6.1	4_exp_EVA_AWA_CON	42	A	B	Rpleas_acq	Oppo	Rpleas	1pleas	acq_US_unple_nomask	acq3_nomask	3	27	453	1	300	300	0	0	474	46	1	0	träumen	kreativ	anregung	besonnen	gütig	vertrauen	töten	krank	ausrottung	bange	gierig	versagen	kuss	engagiert	genießen	vergnügt	sonnig	gesittet	krise	engstirnig	gemein	verbissen	sterben	geizig	1	blank2r.bmp	0	1	+	0	1	blank2r.bmp	500	1	DHJF	500	1	blank2r.bmp	880	4	bange	880	1	!	1292	1	!	1375	0	0	0	0	0	0
2024-05-16	14:02:14	14:09:40	444894	6.6.1	4_exp_EVA_AWA_CON	42	A	B	Rpleas_acq	Oppo	Rpleas	1pleas	acq_US_unple_nomask	acq3_nomask	3	28	453	1	300	300	0	0	463	46	1	0	träumen	kreativ	anregung	besonnen	gütig	vertrauen	töten	krank	ausrottung	bange	gierig	versagen	kuss	engagiert	genießen	vergnügt	sonnig	gesittet	krise	engstirnig	gemein	verbissen	sterben	geizig	1	blank2r.bmp	0	1	+	0	1	blank2r.bmp	500	1	DHJF	500	1	blank2r.bmp	880	3	ausrottung	880	1	!	1293	1	!	1364	0	0	0	0	0	0
2024-05-16	14:02:14	14:09:42	447174	6.6.1	4_exp_EVA_AWA_CON	42	A	B	Rpleas_acq	Oppo	Rpleas	1pleas	acq_US_pleas_nomask	acq3_nomask	3	29	453	1	300	300	0	0	501	50	1	0	träumen	kreativ	anregung	besonnen	gütig	vertrauen	töten	krank	ausrottung	bange	gierig	versagen	kuss	engagiert	genießen	vergnügt	sonnig	gesittet	krise	engstirnig	gemein	verbissen	sterben	geizig	1	blank2r.bmp	0	1	+	0	1	blank2r.bmp	500	1	CPLW	500	1	blank2r.bmp	880	2	kreativ	880	1	!	1293	1	!	1403	0	0	0	0	0	0
2024-05-16	14:02:14	14:09:45	449366	6.6.1	4_exp_EVA_AWA_CON	42	A	B	Rpleas_acq	Oppo	Rpleas	1pleas	acq_US_pleas_nomask	acq3_nomask	3	30	453	1	300	300	0	0	412	50	1	0	träumen	kreativ	anregung	besonnen	gütig	vertrauen	töten	krank	ausrottung	bange	gierig	versagen	kuss	engagiert	genießen	vergnügt	sonnig	gesittet	krise	engstirnig	gemein	verbissen	sterben	geizig	1	blank2r.bmp	0	1	+	0	1	blank2r.bmp	500	1	CPLW	500	1	blank2r.bmp	880	1	träumen	880	1	!	1292	1	!	1313	0	0	0	0	0	0
2024-05-16	14:02:14	14:09:47	451460	6.6.1	4_exp_EVA_AWA_CON	42	A	B	Rpleas_acq	Oppo	Rpleas	1pleas	acq_US_pleas_nomask	acq3_nomask	3	31	453	0	300	300	0	0	316	50	1	0	träumen	kreativ	anregung	besonnen	gütig	vertrauen	töten	krank	ausrottung	bange	gierig	versagen	kuss	engagiert	genießen	vergnügt	sonnig	gesittet	krise	engstirnig	gemein	verbissen	sterben	geizig	1	blank2r.bmp	0	1	+	0	1	blank2r.bmp	500	1	CPLW	500	1	blank2r.bmp	880	5	gütig	880	1	!	-1	1	!	-1	0	0	0	0	0	0
2024-05-16	14:02:14	14:09:49	453670	6.6.1	4_exp_EVA_AWA_CON	42	A	B	Rpleas_acq	Oppo	Rpleas	1pleas	acq_US_pleas_nomask	acq3_nomask	3	32	453	1	300	300	0	0	433	50	1	0	träumen	kreativ	anregung	besonnen	gütig	vertrauen	töten	krank	ausrottung	bange	gierig	versagen	kuss	engagiert	genießen	vergnügt	sonnig	gesittet	krise	engstirnig	gemein	verbissen	sterben	geizig	1	blank2r.bmp	0	1	+	0	1	blank2r.bmp	500	1	CPLW	500	1	blank2r.bmp	880	6	vertrauen	880	1	!	1293	1	!	1334	0	0	0	0	0	0
2024-05-16	14:02:14	14:09:51	455970	6.6.1	4_exp_EVA_AWA_CON	42	A	B	Rpleas_acq	Oppo	Rpleas	1pleas	acq_US_pleas_nomask	acq3_nomask	3	33	453	0	300	300	0	0	525	50	1	0	träumen	kreativ	anregung	besonnen	gütig	vertrauen	töten	krank	ausrottung	bange	gierig	versagen	kuss	engagiert	genießen	vergnügt	sonnig	gesittet	krise	engstirnig	gemein	verbissen	sterben	geizig	1	blank2r.bmp	0	1	+	0	1	blank2r.bmp	500	1	CPLW	500	1	blank2r.bmp	880	4	besonnen	880	1	!	1292	1	!	-1	0	0	0	0	0	0
2024-05-16	14:02:14	14:09:53	458198	6.6.1	4_exp_EVA_AWA_CON	42	A	B	Rpleas_acq	Oppo	Rpleas	1pleas	acq_US_unple_nomask	acq3_nomask	3	34	453	1	300	300	0	0	448	46	1	0	träumen	kreativ	anregung	besonnen	gütig	vertrauen	töten	krank	ausrottung	bange	gierig	versagen	kuss	engagiert	genießen	vergnügt	sonnig	gesittet	krise	engstirnig	gemein	verbissen	sterben	geizig	1	blank2r.bmp	0	1	+	0	1	blank2r.bmp	500	1	DHJF	500	1	blank2r.bmp	880	6	versagen	880	1	!	1293	1	!	1349	0	0	0	0	0	0
2024-05-16	14:02:14	14:09:56	460494	6.6.1	4_exp_EVA_AWA_CON	42	A	B	Rpleas_acq	Oppo	Rpleas	1pleas	acq_US_unple_nomask	acq3_nomask	3	35	453	1	300	300	0	0	512	46	1	0	träumen	kreativ	anregung	besonnen	gütig	vertrauen	töten	krank	ausrottung	bange	gierig	versagen	kuss	engagiert	genießen	vergnügt	sonnig	gesittet	krise	engstirnig	gemein	verbissen	sterben	geizig	1	blank2r.bmp	0	1	+	0	1	blank2r.bmp	500	1	DHJF	500	1	blank2r.bmp	880	2	krank	880	1	!	1293	1	!	1414	0	0	0	0	0	0
2024-05-16	14:02:14	14:09:58	462812	6.6.1	4_exp_EVA_AWA_CON	42	A	B	Rpleas_acq	Oppo	Rpleas	1pleas	acq_US_unple_nomask	acq3_nomask	3	36	453	0	300	300	0	0	541	46	1	0	träumen	kreativ	anregung	besonnen	gütig	vertrauen	töten	krank	ausrottung	bange	gierig	versagen	kuss	engagiert	genießen	vergnügt	sonnig	gesittet	krise	engstirnig	gemein	verbissen	sterben	geizig	1	blank2r.bmp	0	1	+	0	1	blank2r.bmp	500	1	DHJF	500	1	blank2r.bmp	880	1	töten	880	1	!	1292	1	!	-1	0	0	0	0	0	0
2024-05-16	14:02:14	14:10:10	474862	6.6.1	4_exp_EVA_AWA_CON	42	A	B	Rpleas_acq	Oppo	Rpleas	1pleas	acq_US_unple_nomask	acq45_nomask	4	1	400	1	300	300	0	0	441	46	1	0	träumen	kreativ	anregung	besonnen	gütig	vertrauen	töten	krank	ausrottung	bange	gierig	versagen	kuss	engagiert	genießen	vergnügt	sonnig	gesittet	krise	engstirnig	gemein	verbissen	sterben	geizig	1	blank2r.bmp	0	1	+	0	1	blank2r.bmp	500	1	DHJF	500	1	blank2r.bmp	880	3	ausrottung	880	1	!	1232	1	!	1343	0	0	0	0	0	0
2024-05-16	14:02:14	14:10:12	477114	6.6.1	4_exp_EVA_AWA_CON	42	A	B	Rpleas_acq	Oppo	Rpleas	1pleas	acq_US_pleas_nomask	acq45_nomask	4	2	400	0	300	300	0	0	476	50	1	0	träumen	kreativ	anregung	besonnen	gütig	vertrauen	töten	krank	ausrottung	bange	gierig	versagen	kuss	engagiert	genießen	vergnügt	sonnig	gesittet	krise	engstirnig	gemein	verbissen	sterben	geizig	1	blank2r.bmp	0	1	+	0	1	blank2r.bmp	500	1	CPLW	500	1	blank2r.bmp	880	5	gütig	880	1	!	1232	1	!	-1	0	0	0	0	0	0
2024-05-16	14:02:14	14:10:14	479254	6.6.1	4_exp_EVA_AWA_CON	42	A	B	Rpleas_acq	Oppo	Rpleas	1pleas	acq_US_unple_nomask	acq45_nomask	4	3	400	1	300	300	0	0	360	50	0	0	träumen	kreativ	anregung	besonnen	gütig	vertrauen	töten	krank	ausrottung	bange	gierig	versagen	kuss	engagiert	genießen	vergnügt	sonnig	gesittet	krise	engstirnig	gemein	verbissen	sterben	geizig	1	blank2r.bmp	0	1	+	0	1	blank2r.bmp	500	1	DHJF	500	1	blank2r.bmp	880	5	gierig	880	1	!	1232	1	!	1262	0	0	0	0	0	0
2024-05-16	14:02:14	14:10:17	481486	6.6.1	4_exp_EVA_AWA_CON	42	A	B	Rpleas_acq	Oppo	Rpleas	1pleas	acq_US_pleas_nomask	acq45_nomask	4	4	400	1	300	300	0	0	451	50	1	0	träumen	kreativ	anregung	besonnen	gütig	vertrauen	töten	krank	ausrottung	bange	gierig	versagen	kuss	engagiert	genießen	vergnügt	sonnig	gesittet	krise	engstirnig	gemein	verbissen	sterben	geizig	1	blank2r.bmp	0	1	+	0	1	blank2r.bmp	500	1	CPLW	500	1	blank2r.bmp	880	1	träumen	880	1	!	1233	1	!	1352	0	0	0	0	0	0
2024-05-16	14:02:14	14:10:19	483734	6.6.1	4_exp_EVA_AWA_CON	42	A	B	Rpleas_acq	Oppo	Rpleas	1pleas	acq_US_unple_nomask	acq45_nomask	4	5	400	1	300	300	0	0	467	46	1	0	träumen	kreativ	anregung	besonnen	gütig	vertrauen	töten	krank	ausrottung	bange	gierig	versagen	kuss	engagiert	genießen	vergnügt	sonnig	gesittet	krise	engstirnig	gemein	verbissen	sterben	geizig	1	blank2r.bmp	0	1	+	0	1	blank2r.bmp	500	1	DHJF	500	1	blank2r.bmp	880	6	versagen	880	1	!	1233	1	!	1369	0	0	0	0	0	0
2024-05-16	14:02:14	14:10:21	485926	6.6.1	4_exp_EVA_AWA_CON	42	A	B	Rpleas_acq	Oppo	Rpleas	1pleas	acq_US_unple_nomask	acq45_nomask	4	6	400	1	300	300	0	0	408	46	1	0	träumen	kreativ	anregung	besonnen	gütig	vertrauen	töten	krank	ausrottung	bange	gierig	versagen	kuss	engagiert	genießen	vergnügt	sonnig	gesittet	krise	engstirnig	gemein	verbissen	sterben	geizig	1	blank2r.bmp	0	1	+	0	1	blank2r.bmp	500	1	DHJF	500	1	blank2r.bmp	880	1	töten	880	1	!	1232	1	!	1309	0	0	0	0	0	0
2024-05-16	14:02:14	14:10:23	488158	6.6.1	4_exp_EVA_AWA_CON	42	A	B	Rpleas_acq	Oppo	Rpleas	1pleas	acq_US_pleas_nomask	acq45_nomask	4	7	400	1	300	300	0	0	449	50	1	0	träumen	kreativ	anregung	besonnen	gütig	vertrauen	töten	krank	ausrottung	bange	gierig	versagen	kuss	engagiert	genießen	vergnügt	sonnig	gesittet	krise	engstirnig	gemein	verbissen	sterben	geizig	1	blank2r.bmp	0	1	+	0	1	blank2r.bmp	500	1	CPLW	500	1	blank2r.bmp	880	2	kreativ	880	1	!	1232	1	!	1350	0	0	0	0	0	0
2024-05-16	14:02:14	14:10:25	490276	6.6.1	4_exp_EVA_AWA_CON	42	A	B	Rpleas_acq	Oppo	Rpleas	1pleas	acq_US_pleas_nomask	acq45_nomask	4	8	400	1	300	300	0	0	337	46	0	0	träumen	kreativ	anregung	besonnen	gütig	vertrauen	töten	krank	ausrottung	bange	gierig	versagen	kuss	engagiert	genießen	vergnügt	sonnig	gesittet	krise	engstirnig	gemein	verbissen	sterben	geizig	1	blank2r.bmp	0	1	+	0	1	blank2r.bmp	500	1	CPLW	500	1	blank2r.bmp	880	6	vertrauen	880	1	!	1233	1	!	1237	0	0	0	0	0	0
2024-05-16	14:02:14	14:10:28	492548	6.6.1	4_exp_EVA_AWA_CON	42	A	B	Rpleas_acq	Oppo	Rpleas	1pleas	acq_US_pleas_nomask	acq45_nomask	4	9	400	0	300	300	0	0	498	50	1	0	träumen	kreativ	anregung	besonnen	gütig	vertrauen	töten	krank	ausrottung	bange	gierig	versagen	kuss	engagiert	genießen	vergnügt	sonnig	gesittet	krise	engstirnig	gemein	verbissen	sterben	geizig	1	blank2r.bmp	0	1	+	0	1	blank2r.bmp	500	1	CPLW	500	1	blank2r.bmp	880	4	besonnen	880	1	!	1233	1	!	-1	0	0	0	0	0	0
2024-05-16	14:02:14	14:10:30	494813	6.6.1	4_exp_EVA_AWA_CON	42	A	B	Rpleas_acq	Oppo	Rpleas	1pleas	acq_US_unple_nomask	acq45_nomask	4	10	400	0	300	300	0	0	490	46	1	0	träumen	kreativ	anregung	besonnen	gütig	vertrauen	töten	krank	ausrottung	bange	gierig	versagen	kuss	engagiert	genießen	vergnügt	sonnig	gesittet	krise	engstirnig	gemein	verbissen	sterben	geizig	1	blank2r.bmp	0	1	+	0	1	blank2r.bmp	500	1	DHJF	500	1	blank2r.bmp	880	4	bange	880	1	!	1233	1	!	-1	0	0	0	0	0	0
2024-05-16	14:02:14	14:10:32	497022	6.6.1	4_exp_EVA_AWA_CON	42	A	B	Rpleas_acq	Oppo	Rpleas	1pleas	acq_US_pleas_nomask	acq45_nomask	4	11	400	1	300	300	0	0	427	50	1	0	träumen	kreativ	anregung	besonnen	gütig	vertrauen	töten	krank	ausrottung	bange	gierig	versagen	kuss	engagiert	genießen	vergnügt	sonnig	gesittet	krise	engstirnig	gemein	verbissen	sterben	geizig	1	blank2r.bmp	0	1	+	0	1	blank2r.bmp	500	1	CPLW	500	1	blank2r.bmp	880	3	anregung	880	1	!	1232	1	!	1328	0	0	0	0	0	0
2024-05-16	14:02:14	14:10:34	499222	6.6.1	4_exp_EVA_AWA_CON	42	A	B	Rpleas_acq	Oppo	Rpleas	1pleas	acq_US_pleas_nomask	acq45_nomask	4	12	400	1	300	300	0	0	425	50	1	0	träumen	kreativ	anregung	besonnen	gütig	vertrauen	töten	krank	ausrottung	bange	gierig	versagen	kuss	engagiert	genießen	vergnügt	sonnig	gesittet	krise	engstirnig	gemein	verbissen	sterben	geizig	1	blank2r.bmp	0	1	+	0	1	blank2r.bmp	500	1	CPLW	500	1	blank2r.bmp	880	2	kreativ	880	1	!	1232	1	!	1326	0	0	0	0	0	0
2024-05-16	14:02:14	14:10:37	501446	6.6.1	4_exp_EVA_AWA_CON	42	A	B	Rpleas_acq	Oppo	Rpleas	1pleas	acq_US_unple_nomask	acq45_nomask	4	13	400	1	300	300	0	0	448	50	0	0	träumen	kreativ	anregung	besonnen	gütig	vertrauen	töten	krank	ausrottung	bange	gierig	versagen	kuss	engagiert	genießen	vergnügt	sonnig	gesittet	krise	engstirnig	gemein	verbissen	sterben	geizig	1	blank2r.bmp	0	1	+	0	1	blank2r.bmp	500	1	DHJF	500	1	blank2r.bmp	880	2	krank	880	1	!	1232	1	!	1349	0	0	0	0	0	0
2024-05-16	14:02:14	14:10:39	503590	6.6.1	4_exp_EVA_AWA_CON	42	A	B	Rpleas_acq	Oppo	Rpleas	1pleas	acq_US_unple_nomask	acq45_nomask	4	14	400	1	300	300	0	0	360	46	1	0	träumen	kreativ	anregung	besonnen	gütig	vertrauen	töten	krank	ausrottung	bange	gierig	versagen	kuss	engagiert	genießen	vergnügt	sonnig	gesittet	krise	engstirnig	gemein	verbissen	sterben	geizig	1	blank2r.bmp	0	1	+	0	1	blank2r.bmp	500	1	DHJF	500	1	blank2r.bmp	880	6	versagen	880	1	!	1232	1	!	1262	0	0	0	0	0	0
2024-05-16	14:02:14	14:10:41	505758	6.6.1	4_exp_EVA_AWA_CON	42	A	B	Rpleas_acq	Oppo	Rpleas	1pleas	acq_US_pleas_nomask	acq45_nomask	4	15	400	1	300	300	0	0	387	50	1	0	träumen	kreativ	anregung	besonnen	gütig	vertrauen	töten	krank	ausrottung	bange	gierig	versagen	kuss	engagiert	genießen	vergnügt	sonnig	gesittet	krise	engstirnig	gemein	verbissen	sterben	geizig	1	blank2r.bmp	0	1	+	0	1	blank2r.bmp	500	1	CPLW	500	1	blank2r.bmp	880	1	träumen	880	1	!	1232	1	!	1288	0	0	0	0	0	0
2024-05-16	14:02:14	14:10:43	508124	6.6.1	4_exp_EVA_AWA_CON	42	A	B	Rpleas_acq	Oppo	Rpleas	1pleas	acq_US_pleas_nomask	acq45_nomask	4	16	400	0	300	300	0	0	594	50	1	0	träumen	kreativ	anregung	besonnen	gütig	vertrauen	töten	krank	ausrottung	bange	gierig	versagen	kuss	engagiert	genießen	vergnügt	sonnig	gesittet	krise	engstirnig	gemein	verbissen	sterben	geizig	1	blank2r.bmp	0	1	+	0	1	blank2r.bmp	500	1	CPLW	500	1	blank2r.bmp	880	3	anregung	880	1	!	1233	1	!	-1	0	0	0	0	0	0
2024-05-16	14:02:14	14:10:45	510318	6.6.1	4_exp_EVA_AWA_CON	42	A	B	Rpleas_acq	Oppo	Rpleas	1pleas	acq_US_unple_nomask	acq45_nomask	4	17	400	1	300	300	0	0	414	46	1	0	träumen	kreativ	anregung	besonnen	gütig	vertrauen	töten	krank	ausrottung	bange	gierig	versagen	kuss	engagiert	genießen	vergnügt	sonnig	gesittet	krise	engstirnig	gemein	verbissen	sterben	geizig	1	blank2r.bmp	0	1	+	0	1	blank2r.bmp	500	1	DHJF	500	1	blank2r.bmp	880	3	ausrottung	880	1	!	1232	1	!	1315	0	0	0	0	0	0
2024-05-16	14:02:14	14:10:48	512628	6.6.1	4_exp_EVA_AWA_CON	42	A	B	Rpleas_acq	Oppo	Rpleas	1pleas	acq_US_unple_nomask	acq45_nomask	4	18	400	0	300	300	0	0	535	46	1	0	träumen	kreativ	anregung	besonnen	gütig	vertrauen	töten	krank	ausrottung	bange	gierig	versagen	kuss	engagiert	genießen	vergnügt	sonnig	gesittet	krise	engstirnig	gemein	verbissen	sterben	geizig	1	blank2r.bmp	0	1	+	0	1	blank2r.bmp	500	1	DHJF	500	1	blank2r.bmp	880	4	bange	880	1	!	1233	1	!	-1	0	0	0	0	0	0
2024-05-16	14:02:14	14:10:50	514882	6.6.1	4_exp_EVA_AWA_CON	42	A	B	Rpleas_acq	Oppo	Rpleas	1pleas	acq_US_pleas_nomask	acq45_nomask	4	19	400	0	300	300	0	0	479	50	1	0	träumen	kreativ	anregung	besonnen	gütig	vertrauen	töten	krank	ausrottung	bange	gierig	versagen	kuss	engagiert	genießen	vergnügt	sonnig	gesittet	krise	engstirnig	gemein	verbissen	sterben	geizig	1	blank2r.bmp	0	1	+	0	1	blank2r.bmp	500	1	CPLW	500	1	blank2r.bmp	880	6	vertrauen	880	1	!	1232	1	!	-1	0	0	0	0	0	0
2024-05-16	14:02:14	14:10:52	517006	6.6.1	4_exp_EVA_AWA_CON	42	A	B	Rpleas_acq	Oppo	Rpleas	1pleas	acq_US_unple_nomask	acq45_nomask	4	20	400	1	300	300	0	0	348	46	1	0	träumen	kreativ	anregung	besonnen	gütig	vertrauen	töten	krank	ausrottung	bange	gierig	versagen	kuss	engagiert	genießen	vergnügt	sonnig	gesittet	krise	engstirnig	gemein	verbissen	sterben	geizig	1	blank2r.bmp	0	1	+	0	1	blank2r.bmp	500	1	DHJF	500	1	blank2r.bmp	880	5	gierig	880	1	!	1233	1	!	1249	0	0	0	0	0	0
2024-05-16	14:02:14	14:10:54	519246	6.6.1	4_exp_EVA_AWA_CON	42	A	B	Rpleas_acq	Oppo	Rpleas	1pleas	acq_US_unple_nomask	acq45_nomask	4	21	400	1	300	300	0	0	456	46	1	0	träumen	kreativ	anregung	besonnen	gütig	vertrauen	töten	krank	ausrottung	bange	gierig	versagen	kuss	engagiert	genießen	vergnügt	sonnig	gesittet	krise	engstirnig	gemein	verbissen	sterben	geizig	1	blank2r.bmp	0	1	+	0	1	blank2r.bmp	500	1	DHJF	500	1	blank2r.bmp	880	1	töten	880	1	!	1232	1	!	1358	0	0	0	0	0	0
2024-05-16	14:02:14	14:10:57	521414	6.6.1	4_exp_EVA_AWA_CON	42	A	B	Rpleas_acq	Oppo	Rpleas	1pleas	acq_US_pleas_nomask	acq45_nomask	4	22	400	1	300	300	0	0	393	50	1	0	träumen	kreativ	anregung	besonnen	gütig	vertrauen	töten	krank	ausrottung	bange	gierig	versagen	kuss	engagiert	genießen	vergnügt	sonnig	gesittet	krise	engstirnig	gemein	verbissen	sterben	geizig	1	blank2r.bmp	0	1	+	0	1	blank2r.bmp	500	1	CPLW	500	1	blank2r.bmp	880	5	gütig	880	1	!	1233	1	!	1294	0	0	0	0	0	0
2024-05-16	14:02:14	14:10:59	523700	6.6.1	4_exp_EVA_AWA_CON	42	A	B	Rpleas_acq	Oppo	Rpleas	1pleas	acq_US_pleas_nomask	acq45_nomask	4	23	400	0	300	300	0	0	510	50	1	0	träumen	kreativ	anregung	besonnen	gütig	vertrauen	töten	krank	ausrottung	bange	gierig	versagen	kuss	engagiert	genießen	vergnügt	sonnig	gesittet	krise	engstirnig	gemein	verbissen	sterben	geizig	1	blank2r.bmp	0	1	+	0	1	blank2r.bmp	500	1	CPLW	500	1	blank2r.bmp	880	4	besonnen	880	1	!	1233	1	!	-1	0	0	0	0	0	0
2024-05-16	14:02:14	14:11:01	525764	6.6.1	4_exp_EVA_AWA_CON	42	A	B	Rpleas_acq	Oppo	Rpleas	1pleas	acq_US_pleas_nomask	acq45_nomask	4	24	400	0	300	300	0	0	282	50	1	0	träumen	kreativ	anregung	besonnen	gütig	vertrauen	töten	krank	ausrottung	bange	gierig	versagen	kuss	engagiert	genießen	vergnügt	sonnig	gesittet	krise	engstirnig	gemein	verbissen	sterben	geizig	1	blank2r.bmp	0	1	+	0	1	blank2r.bmp	500	1	CPLW	500	1	blank2r.bmp	880	2	kreativ	880	1	!	-1	1	!	-1	0	0	0	0	0	0
2024-05-16	14:02:14	14:11:03	527652	6.6.1	4_exp_EVA_AWA_CON	42	A	B	Rpleas_acq	Oppo	Rpleas	1pleas	acq_US_unple_nomask	acq45_nomask	4	25	400	0	300	300	0	0	109	50	0	0	träumen	kreativ	anregung	besonnen	gütig	vertrauen	töten	krank	ausrottung	bange	gierig	versagen	kuss	engagiert	genießen	vergnügt	sonnig	gesittet	krise	engstirnig	gemein	verbissen	sterben	geizig	1	blank2r.bmp	0	1	+	0	1	blank2r.bmp	500	1	DHJF	500	1	blank2r.bmp	880	2	krank	880	1	!	-1	1	!	-1	0	0	0	0	0	0
2024-05-16	14:02:14	14:11:05	529814	6.6.1	4_exp_EVA_AWA_CON	42	A	B	Rpleas_acq	Oppo	Rpleas	1pleas	acq_US_pleas_nomask	acq45_nomask	4	26	400	1	300	300	0	0	387	50	1	0	träumen	kreativ	anregung	besonnen	gütig	vertrauen	töten	krank	ausrottung	bange	gierig	versagen	kuss	engagiert	genießen	vergnügt	sonnig	gesittet	krise	engstirnig	gemein	verbissen	sterben	geizig	1	blank2r.bmp	0	1	+	0	1	blank2r.bmp	500	1	CPLW	500	1	blank2r.bmp	880	5	gütig	880	1	!	1232	1	!	1289	0	0	0	0	0	0
2024-05-16	14:02:14	14:11:07	531959	6.6.1	4_exp_EVA_AWA_CON	42	A	B	Rpleas_acq	Oppo	Rpleas	1pleas	acq_US_unple_nomask	acq45_nomask	4	27	400	1	300	300	0	0	360	46	1	0	träumen	kreativ	anregung	besonnen	gütig	vertrauen	töten	krank	ausrottung	bange	gierig	versagen	kuss	engagiert	genießen	vergnügt	sonnig	gesittet	krise	engstirnig	gemein	verbissen	sterben	geizig	1	blank2r.bmp	0	1	+	0	1	blank2r.bmp	500	1	DHJF	500	1	blank2r.bmp	880	3	ausrottung	880	1	!	1233	1	!	1262	0	0	0	0	0	0
2024-05-16	14:02:14	14:11:09	534190	6.6.1	4_exp_EVA_AWA_CON	42	A	B	Rpleas_acq	Oppo	Rpleas	1pleas	acq_US_pleas_nomask	acq45_nomask	4	28	400	1	300	300	0	0	451	50	1	0	träumen	kreativ	anregung	besonnen	gütig	vertrauen	töten	krank	ausrottung	bange	gierig	versagen	kuss	engagiert	genießen	vergnügt	sonnig	gesittet	krise	engstirnig	gemein	verbissen	sterben	geizig	1	blank2r.bmp	0	1	+	0	1	blank2r.bmp	500	1	CPLW	500	1	blank2r.bmp	880	4	besonnen	880	1	!	1232	1	!	1352	0	0	0	0	0	0
2024-05-16	14:02:14	14:11:11	536308	6.6.1	4_exp_EVA_AWA_CON	42	A	B	Rpleas_acq	Oppo	Rpleas	1pleas	acq_US_unple_nomask	acq45_nomask	4	29	400	1	300	300	0	0	339	46	1	0	träumen	kreativ	anregung	besonnen	gütig	vertrauen	töten	krank	ausrottung	bange	gierig	versagen	kuss	engagiert	genießen	vergnügt	sonnig	gesittet	krise	engstirnig	gemein	verbissen	sterben	geizig	1	blank2r.bmp	0	1	+	0	1	blank2r.bmp	500	1	DHJF	500	1	blank2r.bmp	880	1	töten	880	1	!	1233	1	!	1239	0	0	0	0	0	0
2024-05-16	14:02:14	14:11:14	538518	6.6.1	4_exp_EVA_AWA_CON	42	A	B	Rpleas_acq	Oppo	Rpleas	1pleas	acq_US_unple_nomask	acq45_nomask	4	30	400	1	300	300	0	0	426	46	1	0	träumen	kreativ	anregung	besonnen	gütig	vertrauen	töten	krank	ausrottung	bange	gierig	versagen	kuss	engagiert	genießen	vergnügt	sonnig	gesittet	krise	engstirnig	gemein	verbissen	sterben	geizig	1	blank2r.bmp	0	1	+	0	1	blank2r.bmp	500	1	DHJF	500	1	blank2r.bmp	880	4	bange	880	1	!	1232	1	!	1327	0	0	0	0	0	0
2024-05-16	14:02:14	14:11:16	540734	6.6.1	4_exp_EVA_AWA_CON	42	A	B	Rpleas_acq	Oppo	Rpleas	1pleas	acq_US_unple_nomask	acq45_nomask	4	31	400	1	300	300	0	0	441	46	1	0	träumen	kreativ	anregung	besonnen	gütig	vertrauen	töten	krank	ausrottung	bange	gierig	versagen	kuss	engagiert	genießen	vergnügt	sonnig	gesittet	krise	engstirnig	gemein	verbissen	sterben	geizig	1	blank2r.bmp	0	1	+	0	1	blank2r.bmp	500	1	DHJF	500	1	blank2r.bmp	880	6	versagen	880	1	!	1233	1	!	1342	0	0	0	0	0	0
2024-05-16	14:02:14	14:11:18	542974	6.6.1	4_exp_EVA_AWA_CON	42	A	B	Rpleas_acq	Oppo	Rpleas	1pleas	acq_US_pleas_nomask	acq45_nomask	4	32	400	1	300	300	0	0	459	46	0	0	träumen	kreativ	anregung	besonnen	gütig	vertrauen	töten	krank	ausrottung	bange	gierig	versagen	kuss	engagiert	genießen	vergnügt	sonnig	gesittet	krise	engstirnig	gemein	verbissen	sterben	geizig	1	blank2r.bmp	0	1	+	0	1	blank2r.bmp	500	1	CPLW	500	1	blank2r.bmp	880	3	anregung	880	1	!	1232	1	!	1360	0	0	0	0	0	0
2024-05-16	14:02:14	14:11:20	545157	6.6.1	4_exp_EVA_AWA_CON	42	A	B	Rpleas_acq	Oppo	Rpleas	1pleas	acq_US_unple_nomask	acq45_nomask	4	33	400	1	300	300	0	0	402	46	1	0	träumen	kreativ	anregung	besonnen	gütig	vertrauen	töten	krank	ausrottung	bange	gierig	versagen	kuss	engagiert	genießen	vergnügt	sonnig	gesittet	krise	engstirnig	gemein	verbissen	sterben	geizig	1	blank2r.bmp	0	1	+	0	1	blank2r.bmp	500	1	DHJF	500	1	blank2r.bmp	880	2	krank	880	1	!	1232	1	!	1303	0	0	0	0	0	0
2024-05-16	14:02:14	14:11:23	547390	6.6.1	4_exp_EVA_AWA_CON	42	A	B	Rpleas_acq	Oppo	Rpleas	1pleas	acq_US_pleas_nomask	acq45_nomask	4	34	400	1	300	300	0	0	452	50	1	0	träumen	kreativ	anregung	besonnen	gütig	vertrauen	töten	krank	ausrottung	bange	gierig	versagen	kuss	engagiert	genießen	vergnügt	sonnig	gesittet	krise	engstirnig	gemein	verbissen	sterben	geizig	1	blank2r.bmp	0	1	+	0	1	blank2r.bmp	500	1	CPLW	500	1	blank2r.bmp	880	6	vertrauen	880	1	!	1232	1	!	1353	0	0	0	0	0	0
2024-05-16	14:02:14	14:11:25	549526	6.6.1	4_exp_EVA_AWA_CON	42	A	B	Rpleas_acq	Oppo	Rpleas	1pleas	acq_US_pleas_nomask	acq45_nomask	4	35	400	1	300	300	0	0	357	50	1	0	träumen	kreativ	anregung	besonnen	gütig	vertrauen	töten	krank	ausrottung	bange	gierig	versagen	kuss	engagiert	genießen	vergnügt	sonnig	gesittet	krise	engstirnig	gemein	verbissen	sterben	geizig	1	blank2r.bmp	0	1	+	0	1	blank2r.bmp	500	1	CPLW	500	1	blank2r.bmp	880	1	träumen	880	1	!	1233	1	!	1258	0	0	0	0	0	0
2024-05-16	14:02:14	14:11:27	551686	6.6.1	4_exp_EVA_AWA_CON	42	A	B	Rpleas_acq	Oppo	Rpleas	1pleas	acq_US_unple_nomask	acq45_nomask	4	36	400	1	300	300	0	0	385	46	1	0	träumen	kreativ	anregung	besonnen	gütig	vertrauen	töten	krank	ausrottung	bange	gierig	versagen	kuss	engagiert	genießen	vergnügt	sonnig	gesittet	krise	engstirnig	gemein	verbissen	sterben	geizig	1	blank2r.bmp	0	1	+	0	1	blank2r.bmp	500	1	DHJF	500	1	blank2r.bmp	880	5	gierig	880	1	!	1232	1	!	1286	0	0	0	0	0	0
2024-05-16	14:02:14	14:11:37	562188	6.6.1	4_exp_EVA_AWA_CON	42	A	B	Rpleas_acq	Oppo	Rpleas	1pleas	acq_US_unple_nomask	acq45_nomask	5	1	400	0	300	300	0	0	533	46	1	0	träumen	kreativ	anregung	besonnen	gütig	vertrauen	töten	krank	ausrottung	bange	gierig	versagen	kuss	engagiert	genießen	vergnügt	sonnig	gesittet	krise	engstirnig	gemein	verbissen	sterben	geizig	1	blank2r.bmp	0	1	+	0	1	blank2r.bmp	500	1	DHJF	500	1	blank2r.bmp	880	6	versagen	880	1	!	1233	1	!	-1	0	0	0	0	0	0
2024-05-16	14:02:14	14:11:40	564366	6.6.1	4_exp_EVA_AWA_CON	42	A	B	Rpleas_acq	Oppo	Rpleas	1pleas	acq_US_pleas_nomask	acq45_nomask	5	2	400	1	300	300	0	0	397	50	1	0	träumen	kreativ	anregung	besonnen	gütig	vertrauen	töten	krank	ausrottung	bange	gierig	versagen	kuss	engagiert	genießen	vergnügt	sonnig	gesittet	krise	engstirnig	gemein	verbissen	sterben	geizig	1	blank2r.bmp	0	1	+	0	1	blank2r.bmp	500	1	CPLW	500	1	blank2r.bmp	880	5	gütig	880	1	!	1233	1	!	1298	0	0	0	0	0	0
2024-05-16	14:02:14	14:11:42	566581	6.6.1	4_exp_EVA_AWA_CON	42	A	B	Rpleas_acq	Oppo	Rpleas	1pleas	acq_US_unple_nomask	acq45_nomask	5	3	400	1	300	300	0	0	442	46	1	0	träumen	kreativ	anregung	besonnen	gütig	vertrauen	töten	krank	ausrottung	bange	gierig	versagen	kuss	engagiert	genießen	vergnügt	sonnig	gesittet	krise	engstirnig	gemein	verbissen	sterben	geizig	1	blank2r.bmp	0	1	+	0	1	blank2r.bmp	500	1	DHJF	500	1	blank2r.bmp	880	1	töten	880	1	!	1232	1	!	1343	0	0	0	0	0	0
2024-05-16	14:02:14	14:11:44	568806	6.6.1	4_exp_EVA_AWA_CON	42	A	B	Rpleas_acq	Oppo	Rpleas	1pleas	acq_US_pleas_nomask	acq45_nomask	5	4	400	1	300	300	0	0	444	50	1	0	träumen	kreativ	anregung	besonnen	gütig	vertrauen	töten	krank	ausrottung	bange	gierig	versagen	kuss	engagiert	genießen	vergnügt	sonnig	gesittet	krise	engstirnig	gemein	verbissen	sterben	geizig	1	blank2r.bmp	0	1	+	0	1	blank2r.bmp	500	1	CPLW	500	1	blank2r.bmp	880	4	besonnen	880	1	!	1232	1	!	1345	0	0	0	0	0	0
2024-05-16	14:02:14	14:11:46	571038	6.6.1	4_exp_EVA_AWA_CON	42	A	B	Rpleas_acq	Oppo	Rpleas	1pleas	acq_US_unple_nomask	acq45_nomask	5	5	400	1	300	300	0	0	455	46	1	0	träumen	kreativ	anregung	besonnen	gütig	vertrauen	töten	krank	ausrottung	bange	gierig	versagen	kuss	engagiert	genießen	vergnügt	sonnig	gesittet	krise	engstirnig	gemein	verbissen	sterben	geizig	1	blank2r.bmp	0	1	+	0	1	blank2r.bmp	500	1	DHJF	500	1	blank2r.bmp	880	4	bange	880	1	!	1232	1	!	1356	0	0	0	0	0	0
2024-05-16	14:02:14	14:11:48	573238	6.6.1	4_exp_EVA_AWA_CON	42	A	B	Rpleas_acq	Oppo	Rpleas	1pleas	acq_US_pleas_nomask	acq45_nomask	5	6	400	1	300	300	0	0	423	46	0	0	träumen	kreativ	anregung	besonnen	gütig	vertrauen	töten	krank	ausrottung	bange	gierig	versagen	kuss	engagiert	genießen	vergnügt	sonnig	gesittet	krise	engstirnig	gemein	verbissen	sterben	geizig	1	blank2r.bmp	0	1	+	0	1	blank2r.bmp	500	1	CPLW	500	1	blank2r.bmp	880	6	vertrauen	880	1	!	1232	1	!	1324	0	0	0	0	0	0
2024-05-16	14:02:14	14:11:51	575430	6.6.1	4_exp_EVA_AWA_CON	42	A	B	Rpleas_acq	Oppo	Rpleas	1pleas	acq_US_pleas_nomask	acq45_nomask	5	7	400	1	300	300	0	0	414	46	0	0	träumen	kreativ	anregung	besonnen	gütig	vertrauen	töten	krank	ausrottung	bange	gierig	versagen	kuss	engagiert	genießen	vergnügt	sonnig	gesittet	krise	engstirnig	gemein	verbissen	sterben	geizig	1	blank2r.bmp	0	1	+	0	1	blank2r.bmp	500	1	CPLW	500	1	blank2r.bmp	880	2	kreativ	880	1	!	1232	1	!	1315	0	0	0	0	0	0
2024-05-16	14:02:14	14:11:53	577662	6.6.1	4_exp_EVA_AWA_CON	42	A	B	Rpleas_acq	Oppo	Rpleas	1pleas	acq_US_unple_nomask	acq45_nomask	5	8	400	1	300	300	0	0	455	46	1	0	träumen	kreativ	anregung	besonnen	gütig	vertrauen	töten	krank	ausrottung	bange	gierig	versagen	kuss	engagiert	genießen	vergnügt	sonnig	gesittet	krise	engstirnig	gemein	verbissen	sterben	geizig	1	blank2r.bmp	0	1	+	0	1	blank2r.bmp	500	1	DHJF	500	1	blank2r.bmp	880	3	ausrottung	880	1	!	1233	1	!	1356	0	0	0	0	0	0
2024-05-16	14:02:14	14:11:55	579861	6.6.1	4_exp_EVA_AWA_CON	42	A	B	Rpleas_acq	Oppo	Rpleas	1pleas	acq_US_unple_nomask	acq45_nomask	5	9	400	1	300	300	0	0	423	50	0	0	träumen	kreativ	anregung	besonnen	gütig	vertrauen	töten	krank	ausrottung	bange	gierig	versagen	kuss	engagiert	genießen	vergnügt	sonnig	gesittet	krise	engstirnig	gemein	verbissen	sterben	geizig	1	blank2r.bmp	0	1	+	0	1	blank2r.bmp	500	1	DHJF	500	1	blank2r.bmp	880	2	krank	880	1	!	1232	1	!	1324	0	0	0	0	0	0
2024-05-16	14:02:14	14:11:57	582078	6.6.1	4_exp_EVA_AWA_CON	42	A	B	Rpleas_acq	Oppo	Rpleas	1pleas	acq_US_pleas_nomask	acq45_nomask	5	10	400	1	300	300	0	0	438	46	0	0	träumen	kreativ	anregung	besonnen	gütig	vertrauen	töten	krank	ausrottung	bange	gierig	versagen	kuss	engagiert	genießen	vergnügt	sonnig	gesittet	krise	engstirnig	gemein	verbissen	sterben	geizig	1	blank2r.bmp	0	1	+	0	1	blank2r.bmp	500	1	CPLW	500	1	blank2r.bmp	880	3	anregung	880	1	!	1232	1	!	1339	0	0	0	0	0	0
2024-05-16	14:02:14	14:12:00	584341	6.6.1	4_exp_EVA_AWA_CON	42	A	B	Rpleas_acq	Oppo	Rpleas	1pleas	acq_US_unple_nomask	acq45_nomask	5	11	400	0	300	300	0	0	490	46	1	0	träumen	kreativ	anregung	besonnen	gütig	vertrauen	töten	krank	ausrottung	bange	gierig	versagen	kuss	engagiert	genießen	vergnügt	sonnig	gesittet	krise	engstirnig	gemein	verbissen	sterben	geizig	1	blank2r.bmp	0	1	+	0	1	blank2r.bmp	500	1	DHJF	500	1	blank2r.bmp	880	5	gierig	880	1	!	1233	1	!	-1	0	0	0	0	0	0
2024-05-16	14:02:14	14:12:02	586582	6.6.1	4_exp_EVA_AWA_CON	42	A	B	Rpleas_acq	Oppo	Rpleas	1pleas	acq_US_unple_nomask	acq45_nomask	5	12	400	1	300	300	0	0	459	46	1	0	träumen	kreativ	anregung	besonnen	gütig	vertrauen	töten	krank	ausrottung	bange	gierig	versagen	kuss	engagiert	genießen	vergnügt	sonnig	gesittet	krise	engstirnig	gemein	verbissen	sterben	geizig	1	blank2r.bmp	0	1	+	0	1	blank2r.bmp	500	1	DHJF	500	1	blank2r.bmp	880	6	versagen	880	1	!	1232	1	!	1360	0	0	0	0	0	0
2024-05-16	14:02:14	14:12:04	588789	6.6.1	4_exp_EVA_AWA_CON	42	A	B	Rpleas_acq	Oppo	Rpleas	1pleas	acq_US_pleas_nomask	acq45_nomask	5	13	400	1	300	300	0	0	425	50	1	0	träumen	kreativ	anregung	besonnen	gütig	vertrauen	töten	krank	ausrottung	bange	gierig	versagen	kuss	engagiert	genießen	vergnügt	sonnig	gesittet	krise	engstirnig	gemein	verbissen	sterben	geizig	1	blank2r.bmp	0	1	+	0	1	blank2r.bmp	500	1	CPLW	500	1	blank2r.bmp	880	1	träumen	880	1	!	1232	1	!	1326	0	0	0	0	0	0
2024-05-16	14:02:14	14:12:06	591132	6.6.1	4_exp_EVA_AWA_CON	42	A	B	Rpleas_acq	Oppo	Rpleas	1pleas	acq_US_pleas_nomask	acq45_nomask	5	14	400	0	300	300	0	0	567	50	1	0	träumen	kreativ	anregung	besonnen	gütig	vertrauen	töten	krank	ausrottung	bange	gierig	versagen	kuss	engagiert	genießen	vergnügt	sonnig	gesittet	krise	engstirnig	gemein	verbissen	sterben	geizig	1	blank2r.bmp	0	1	+	0	1	blank2r.bmp	500	1	CPLW	500	1	blank2r.bmp	880	3	anregung	880	1	!	1232	1	!	-1	0	0	0	0	0	0
2024-05-16	14:02:14	14:12:09	593350	6.6.1	4_exp_EVA_AWA_CON	42	A	B	Rpleas_acq	Oppo	Rpleas	1pleas	acq_US_unple_nomask	acq45_nomask	5	15	400	1	300	300	0	0	443	46	1	0	träumen	kreativ	anregung	besonnen	gütig	vertrauen	töten	krank	ausrottung	bange	gierig	versagen	kuss	engagiert	genießen	vergnügt	sonnig	gesittet	krise	engstirnig	gemein	verbissen	sterben	geizig	1	blank2r.bmp	0	1	+	0	1	blank2r.bmp	500	1	DHJF	500	1	blank2r.bmp	880	3	ausrottung	880	1	!	1233	1	!	1344	0	0	0	0	0	0
2024-05-16	14:02:14	14:12:11	595550	6.6.1	4_exp_EVA_AWA_CON	42	A	B	Rpleas_acq	Oppo	Rpleas	1pleas	acq_US_pleas_nomask	acq45_nomask	5	16	400	1	300	300	0	0	421	50	1	0	träumen	kreativ	anregung	besonnen	gütig	vertrauen	töten	krank	ausrottung	bange	gierig	versagen	kuss	engagiert	genießen	vergnügt	sonnig	gesittet	krise	engstirnig	gemein	verbissen	sterben	geizig	1	blank2r.bmp	0	1	+	0	1	blank2r.bmp	500	1	CPLW	500	1	blank2r.bmp	880	1	träumen	880	1	!	1233	1	!	1322	0	0	0	0	0	0
2024-05-16	14:02:14	14:12:13	597852	6.6.1	4_exp_EVA_AWA_CON	42	A	B	Rpleas_acq	Oppo	Rpleas	1pleas	acq_US_pleas_nomask	acq45_nomask	5	17	400	0	300	300	0	0	524	50	1	0	träumen	kreativ	anregung	besonnen	gütig	vertrauen	töten	krank	ausrottung	bange	gierig	versagen	kuss	engagiert	genießen	vergnügt	sonnig	gesittet	krise	engstirnig	gemein	verbissen	sterben	geizig	1	blank2r.bmp	0	1	+	0	1	blank2r.bmp	500	1	CPLW	500	1	blank2r.bmp	880	4	besonnen	880	1	!	1233	1	!	-1	0	0	0	0	0	0
2024-05-16	14:02:14	14:12:15	600070	6.6.1	4_exp_EVA_AWA_CON	42	A	B	Rpleas_acq	Oppo	Rpleas	1pleas	acq_US_unple_nomask	acq45_nomask	5	18	400	1	300	300	0	0	438	46	1	0	träumen	kreativ	anregung	besonnen	gütig	vertrauen	töten	krank	ausrottung	bange	gierig	versagen	kuss	engagiert	genießen	vergnügt	sonnig	gesittet	krise	engstirnig	gemein	verbissen	sterben	geizig	1	blank2r.bmp	0	1	+	0	1	blank2r.bmp	500	1	DHJF	500	1	blank2r.bmp	880	1	töten	880	1	!	1232	1	!	1339	0	0	0	0	0	0
2024-05-16	14:02:14	14:12:17	602323	6.6.1	4_exp_EVA_AWA_CON	42	A	B	Rpleas_acq	Oppo	Rpleas	1pleas	acq_US_unple_nomask	acq45_nomask	5	19	400	0	300	300	0	0	474	46	1	0	träumen	kreativ	anregung	besonnen	gütig	vertrauen	töten	krank	ausrottung	bange	gierig	versagen	kuss	engagiert	genießen	vergnügt	sonnig	gesittet	krise	engstirnig	gemein	verbissen	sterben	geizig	1	blank2r.bmp	0	1	+	0	1	blank2r.bmp	500	1	DHJF	500	1	blank2r.bmp	880	5	gierig	880	1	!	1232	1	!	-1	0	0	0	0	0	0
2024-05-16	14:02:14	14:12:20	604612	6.6.1	4_exp_EVA_AWA_CON	42	A	B	Rpleas_acq	Oppo	Rpleas	1pleas	acq_US_unple_nomask	acq45_nomask	5	20	400	0	300	300	0	0	509	46	1	0	träumen	kreativ	anregung	besonnen	gütig	vertrauen	töten	krank	ausrottung	bange	gierig	versagen	kuss	engagiert	genießen	vergnügt	sonnig	gesittet	krise	engstirnig	gemein	verbissen	sterben	geizig	1	blank2r.bmp	0	1	+	0	1	blank2r.bmp	500	1	DHJF	500	1	blank2r.bmp	880	4	bange	880	1	!	1233	1	!	-1	0	0	0	0	0	0
2024-05-16	14:02:14	14:12:22	606798	6.6.1	4_exp_EVA_AWA_CON	42	A	B	Rpleas_acq	Oppo	Rpleas	1pleas	acq_US_pleas_nomask	acq45_nomask	5	21	400	1	300	300	0	0	412	50	1	0	träumen	kreativ	anregung	besonnen	gütig	vertrauen	töten	krank	ausrottung	bange	gierig	versagen	kuss	engagiert	genießen	vergnügt	sonnig	gesittet	krise	engstirnig	gemein	verbissen	sterben	geizig	1	blank2r.bmp	0	1	+	0	1	blank2r.bmp	500	1	CPLW	500	1	blank2r.bmp	880	6	vertrauen	880	1	!	1233	1	!	1313	0	0	0	0	0	0
2024-05-16	14:02:14	14:12:24	609030	6.6.1	4_exp_EVA_AWA_CON	42	A	B	Rpleas_acq	Oppo	Rpleas	1pleas	acq_US_unple_nomask	acq45_nomask	5	22	400	1	300	300	0	0	452	50	0	0	träumen	kreativ	anregung	besonnen	gütig	vertrauen	töten	krank	ausrottung	bange	gierig	versagen	kuss	engagiert	genießen	vergnügt	sonnig	gesittet	krise	engstirnig	gemein	verbissen	sterben	geizig	1	blank2r.bmp	0	1	+	0	1	blank2r.bmp	500	1	DHJF	500	1	blank2r.bmp	880	2	krank	880	1	!	1232	1	!	1353	0	0	0	0	0	0
2024-05-16	14:02:14	14:12:26	611214	6.6.1	4_exp_EVA_AWA_CON	42	A	B	Rpleas_acq	Oppo	Rpleas	1pleas	acq_US_pleas_nomask	acq45_nomask	5	23	400	1	300	300	0	0	405	50	1	0	träumen	kreativ	anregung	besonnen	gütig	vertrauen	töten	krank	ausrottung	bange	gierig	versagen	kuss	engagiert	genießen	vergnügt	sonnig	gesittet	krise	engstirnig	gemein	verbissen	sterben	geizig	1	blank2r.bmp	0	1	+	0	1	blank2r.bmp	500	1	CPLW	500	1	blank2r.bmp	880	2	kreativ	880	1	!	1232	1	!	1306	0	0	0	0	0	0
2024-05-16	14:02:14	14:12:29	613500	6.6.1	4_exp_EVA_AWA_CON	42	A	B	Rpleas_acq	Oppo	Rpleas	1pleas	acq_US_pleas_nomask	acq45_nomask	5	24	400	0	300	300	0	0	511	50	1	0	träumen	kreativ	anregung	besonnen	gütig	vertrauen	töten	krank	ausrottung	bange	gierig	versagen	kuss	engagiert	genießen	vergnügt	sonnig	gesittet	krise	engstirnig	gemein	verbissen	sterben	geizig	1	blank2r.bmp	0	1	+	0	1	blank2r.bmp	500	1	CPLW	500	1	blank2r.bmp	880	5	gütig	880	1	!	1233	1	!	-1	0	0	0	0	0	0
2024-05-16	14:02:14	14:12:31	615734	6.6.1	4_exp_EVA_AWA_CON	42	A	B	Rpleas_acq	Oppo	Rpleas	1pleas	acq_US_unple_nomask	acq45_nomask	5	25	400	1	300	300	0	0	452	46	1	0	träumen	kreativ	anregung	besonnen	gütig	vertrauen	töten	krank	ausrottung	bange	gierig	versagen	kuss	engagiert	genießen	vergnügt	sonnig	gesittet	krise	engstirnig	gemein	verbissen	sterben	geizig	1	blank2r.bmp	0	1	+	0	1	blank2r.bmp	500	1	DHJF	500	1	blank2r.bmp	880	2	krank	880	1	!	1233	1	!	1353	0	0	0	0	0	0
2024-05-16	14:02:14	14:12:33	618004	6.6.1	4_exp_EVA_AWA_CON	42	A	B	Rpleas_acq	Oppo	Rpleas	1pleas	acq_US_unple_nomask	acq45_nomask	5	26	400	0	300	300	0	0	493	50	0	0	träumen	kreativ	anregung	besonnen	gütig	vertrauen	töten	krank	ausrottung	bange	gierig	versagen	kuss	engagiert	genießen	vergnügt	sonnig	gesittet	krise	engstirnig	gemein	verbissen	sterben	geizig	1	blank2r.bmp	0	1	+	0	1	blank2r.bmp	500	1	DHJF	500	1	blank2r.bmp	880	5	gierig	880	1	!	1232	1	!	-1	0	0	0	0	0	0
2024-05-16	14:02:14	14:12:35	620108	6.6.1	4_exp_EVA_AWA_CON	42	A	B	Rpleas_acq	Oppo	Rpleas	1pleas	acq_US_pleas_nomask	acq45_nomask	5	27	400	0	300	300	0	0	325	50	1	0	träumen	kreativ	anregung	besonnen	gütig	vertrauen	töten	krank	ausrottung	bange	gierig	versagen	kuss	engagiert	genießen	vergnügt	sonnig	gesittet	krise	engstirnig	gemein	verbissen	sterben	geizig	1	blank2r.bmp	0	1	+	0	1	blank2r.bmp	500	1	CPLW	500	1	blank2r.bmp	880	2	kreativ	880	1	!	-1	1	!	-1	0	0	0	0	0	0
2024-05-16	14:02:14	14:12:40	625268	6.6.1	4_exp_EVA_AWA_CON	42	A	B	Rpleas_acq	Oppo	Rpleas	1pleas	acq_US_unple_nomask	acq45_nomask	5	28	400	0	300	300	0	0	3384	46	1	0	träumen	kreativ	anregung	besonnen	gütig	vertrauen	töten	krank	ausrottung	bange	gierig	versagen	kuss	engagiert	genießen	vergnügt	sonnig	gesittet	krise	engstirnig	gemein	verbissen	sterben	geizig	1	blank2r.bmp	0	1	+	0	1	blank2r.bmp	500	1	DHJF	500	1	blank2r.bmp	880	4	bange	880	1	!	1233	1	!	-1	0	0	0	0	0	0
2024-05-16	14:02:14	14:12:43	627564	6.6.1	4_exp_EVA_AWA_CON	42	A	B	Rpleas_acq	Oppo	Rpleas	1pleas	acq_US_pleas_nomask	acq45_nomask	5	29	400	0	300	300	0	0	516	50	1	0	träumen	kreativ	anregung	besonnen	gütig	vertrauen	töten	krank	ausrottung	bange	gierig	versagen	kuss	engagiert	genießen	vergnügt	sonnig	gesittet	krise	engstirnig	gemein	verbissen	sterben	geizig	1	blank2r.bmp	0	1	+	0	1	blank2r.bmp	500	1	CPLW	500	1	blank2r.bmp	880	3	anregung	880	1	!	1232	1	!	-1	0	0	0	0	0	0
2024-05-16	14:02:14	14:12:45	629702	6.6.1	4_exp_EVA_AWA_CON	42	A	B	Rpleas_acq	Oppo	Rpleas	1pleas	acq_US_unple_nomask	acq45_nomask	5	30	400	1	300	300	0	0	361	46	1	0	träumen	kreativ	anregung	besonnen	gütig	vertrauen	töten	krank	ausrottung	bange	gierig	versagen	kuss	engagiert	genießen	vergnügt	sonnig	gesittet	krise	engstirnig	gemein	verbissen	sterben	geizig	1	blank2r.bmp	0	1	+	0	1	blank2r.bmp	500	1	DHJF	500	1	blank2r.bmp	880	1	töten	880	1	!	1233	1	!	1262	0	0	0	0	0	0
2024-05-16	14:02:14	14:12:47	631804	6.6.1	4_exp_EVA_AWA_CON	42	A	B	Rpleas_acq	Oppo	Rpleas	1pleas	acq_US_pleas_nomask	acq45_nomask	5	31	400	0	300	300	0	0	323	50	1	0	träumen	kreativ	anregung	besonnen	gütig	vertrauen	töten	krank	ausrottung	bange	gierig	versagen	kuss	engagiert	genießen	vergnügt	sonnig	gesittet	krise	engstirnig	gemein	verbissen	sterben	geizig	1	blank2r.bmp	0	1	+	0	1	blank2r.bmp	500	1	CPLW	500	1	blank2r.bmp	880	5	gütig	880	1	!	-1	1	!	-1	0	0	0	0	0	0
2024-05-16	14:02:14	14:12:49	633780	6.6.1	4_exp_EVA_AWA_CON	42	A	B	Rpleas_acq	Oppo	Rpleas	1pleas	acq_US_unple_nomask	acq45_nomask	5	32	400	0	300	300	0	0	198	46	1	0	träumen	kreativ	anregung	besonnen	gütig	vertrauen	töten	krank	ausrottung	bange	gierig	versagen	kuss	engagiert	genießen	vergnügt	sonnig	gesittet	krise	engstirnig	gemein	verbissen	sterben	geizig	1	blank2r.bmp	0	1	+	0	1	blank2r.bmp	500	1	DHJF	500	1	blank2r.bmp	880	6	versagen	880	1	!	-1	1	!	-1	0	0	0	0	0	0
2024-05-16	14:02:14	14:12:51	635676	6.6.1	4_exp_EVA_AWA_CON	42	A	B	Rpleas_acq	Oppo	Rpleas	1pleas	acq_US_pleas_nomask	acq45_nomask	5	33	400	0	300	300	0	0	123	50	1	0	träumen	kreativ	anregung	besonnen	gütig	vertrauen	töten	krank	ausrottung	bange	gierig	versagen	kuss	engagiert	genießen	vergnügt	sonnig	gesittet	krise	engstirnig	gemein	verbissen	sterben	geizig	1	blank2r.bmp	0	1	+	0	1	blank2r.bmp	500	1	CPLW	500	1	blank2r.bmp	880	4	besonnen	880	1	!	-1	1	!	-1	0	0	0	0	0	0
2024-05-16	14:02:14	14:12:53	637684	6.6.1	4_exp_EVA_AWA_CON	42	A	B	Rpleas_acq	Oppo	Rpleas	1pleas	acq_US_unple_nomask	acq45_nomask	5	34	400	0	300	300	0	0	230	46	1	0	träumen	kreativ	anregung	besonnen	gütig	vertrauen	töten	krank	ausrottung	bange	gierig	versagen	kuss	engagiert	genießen	vergnügt	sonnig	gesittet	krise	engstirnig	gemein	verbissen	sterben	geizig	1	blank2r.bmp	0	1	+	0	1	blank2r.bmp	500	1	DHJF	500	1	blank2r.bmp	880	3	ausrottung	880	1	!	-1	1	!	-1	0	0	0	0	0	0
2024-05-16	14:02:14	14:12:55	639853	6.6.1	4_exp_EVA_AWA_CON	42	A	B	Rpleas_acq	Oppo	Rpleas	1pleas	acq_US_pleas_nomask	acq45_nomask	5	35	400	1	300	300	0	0	396	50	1	0	träumen	kreativ	anregung	besonnen	gütig	vertrauen	töten	krank	ausrottung	bange	gierig	versagen	kuss	engagiert	genießen	vergnügt	sonnig	gesittet	krise	engstirnig	gemein	verbissen	sterben	geizig	1	blank2r.bmp	0	1	+	0	1	blank2r.bmp	500	1	CPLW	500	1	blank2r.bmp	880	6	vertrauen	880	1	!	1233	1	!	1297	0	0	0	0	0	0
2024-05-16	14:02:14	14:12:57	642140	6.6.1	4_exp_EVA_AWA_CON	42	A	B	Rpleas_acq	Oppo	Rpleas	1pleas	acq_US_pleas_nomask	acq45_nomask	5	36	400	0	300	300	0	0	513	50	1	0	träumen	kreativ	anregung	besonnen	gütig	vertrauen	töten	krank	ausrottung	bange	gierig	versagen	kuss	engagiert	genießen	vergnügt	sonnig	gesittet	krise	engstirnig	gemein	verbissen	sterben	geizig	1	blank2r.bmp	0	1	+	0	1	blank2r.bmp	500	1	CPLW	500	1	blank2r.bmp	880	1	träumen	880	1	!	1232	1	!	-1	0	0	0	0	0	0
2024-05-16	14:02:14	14:13:17	661360	6.6.1	4_exp_EVA_AWA_CON	42	A	B	Rpleas_acq	Oppo	Lpleas	1pleas	EvalRating_firsttwo	EvalRating_firsttwo	6	1	0	0	300	300	0	0	7395	line	0	35,8072916666666856145pct	träumen	kreativ	anregung	besonnen	gütig	vertrauen	töten	krank	ausrottung	bange	gierig	versagen	kuss	engagiert	genießen	vergnügt	sonnig	gesittet	krise	engstirnig	gemein	verbissen	sterben	geizig	1		-7	1	Wie angenehm oder unangenehm finden Sie die  Buchstabenkette WDLH?	-7	1		-7	1		-7	1		-7	1	Unangenehm	-7	1	Angenehm	-7	0	0	0	0	0	0	0	0	0
2024-05-16	14:02:14	14:13:24	668416	6.6.1	4_exp_EVA_AWA_CON	42	A	B	Rpleas_acq	Oppo	Lpleas	1pleas	EvalRating_lastfour	EvalRating_lastfour	7	1	0	0	300	300	0	0	4676	line	0	69,0104166666666856145pct	träumen	kreativ	anregung	besonnen	gütig	vertrauen	töten	krank	ausrottung	bange	gierig	versagen	kuss	engagiert	genießen	vergnügt	sonnig	gesittet	krise	engstirnig	gemein	verbissen	sterben	geizig	1		-7	1	Wie angenehm oder unangenehm finden Sie die  Buchstabenkette CPLW?	-7	1		-7	1		-7	1		-7	1	Unangenehm	-7	1	Angenehm	-7	0	0	0	0	0	0	0	0	0
2024-05-16	14:02:14	14:13:26	670788	6.6.1	4_exp_EVA_AWA_CON	42	A	B	Rpleas_acq	Oppo	Lpleas	1pleas	blank_screen	EvalRating_lastfour	7	3	0	0	300	300	0	0	0	0	0	69,0104166666666856145pct	träumen	kreativ	anregung	besonnen	gütig	vertrauen	töten	krank	ausrottung	bange	gierig	versagen	kuss	engagiert	genießen	vergnügt	sonnig	gesittet	krise	engstirnig	gemein	verbissen	sterben	geizig	1		-8	0	0	0	0	0	0	0	0	0	0	0	0	0	0	0	0	0	0	0	0	0	0	0	0	0	0	0
2024-05-16	14:02:14	14:13:30	674904	6.6.1	4_exp_EVA_AWA_CON	42	A	B	Rpleas_acq	Oppo	Lpleas	1pleas	EvalRating_lastfour	EvalRating_lastfour	7	4	0	0	300	300	0	0	3529	line	0	-27,4739583333333285964pct	träumen	kreativ	anregung	besonnen	gütig	vertrauen	töten	krank	ausrottung	bange	gierig	versagen	kuss	engagiert	genießen	vergnügt	sonnig	gesittet	krise	engstirnig	gemein	verbissen	sterben	geizig	1		-7	3	Wie angenehm oder unangenehm finden Sie die  Buchstabenkette FCJP?	-7	1		-7	1		-7	1		-7	1	Unangenehm	-7	1	Angenehm	-7	0	0	0	0	0	0	0	0	0
2024-05-16	14:02:14	14:13:32	677272	6.6.1	4_exp_EVA_AWA_CON	42	A	B	Rpleas_acq	Oppo	Lpleas	1pleas	blank_screen	EvalRating_lastfour	7	6	0	0	300	300	0	0	0	0	0	-27,4739583333333285964pct	träumen	kreativ	anregung	besonnen	gütig	vertrauen	töten	krank	ausrottung	bange	gierig	versagen	kuss	engagiert	genießen	vergnügt	sonnig	gesittet	krise	engstirnig	gemein	verbissen	sterben	geizig	1		-8	0	0	0	0	0	0	0	0	0	0	0	0	0	0	0	0	0	0	0	0	0	0	0	0	0	0	0
2024-05-16	14:02:14	14:13:35	679696	6.6.1	4_exp_EVA_AWA_CON	42	A	B	Rpleas_acq	Oppo	Lpleas	1pleas	EvalRating_lastfour	EvalRating_lastfour	7	7	0	0	300	300	0	0	1836	line	0	-72,5260416666666571928pct	träumen	kreativ	anregung	besonnen	gütig	vertrauen	töten	krank	ausrottung	bange	gierig	versagen	kuss	engagiert	genießen	vergnügt	sonnig	gesittet	krise	engstirnig	gemein	verbissen	sterben	geizig	1		-8	2	Wie angenehm oder unangenehm finden Sie die  Buchstabenkette DHJF?	-8	1		-8	1		-8	1		-8	1	Unangenehm	-8	1	Angenehm	-8	0	0	0	0	0	0	0	0	0
2024-05-16	14:02:14	14:14:01	706139	6.6.1	4_exp_EVA_AWA_CON	42	A	B	Rpleas_acq	Oppo	Lpleas	1pleas	conawa_CS2_US4	conawa1_nomask	8	1	0	0	300	300	0	0	21775	bange	1	-72,5260416666666571928pct	träumen	kreativ	anregung	besonnen	gütig	vertrauen	töten	krank	ausrottung	bange	gierig	versagen	kuss	engagiert	genießen	vergnügt	sonnig	gesittet	krise	engstirnig	gemein	verbissen	sterben	geizig	0	0	0	0	0	0	0	0	0	0	0	0	0	0	0	0	0	0	0	0	0	0	0	0	0	0	0	0	0	0
2024-05-16	14:02:14	14:14:01	706140	6.6.1	4_exp_EVA_AWA_CON	42	A	B	Rpleas_acq	Oppo	Lpleas	1pleas	conawa_CS2_US4_confidence	conawa1_nomask	8	1	0	0	300	300	0	0	21775	probably	1	-72,5260416666666571928pct	träumen	kreativ	anregung	besonnen	gütig	vertrauen	töten	krank	ausrottung	bange	gierig	versagen	kuss	engagiert	genießen	vergnügt	sonnig	gesittet	krise	engstirnig	gemein	verbissen	sterben	geizig	0	0	0	0	0	0	0	0	0	0	0	0	0	0	0	0	0	0	0	0	0	0	0	0	0	0	0	0	0	0
2024-05-16	14:02:14	14:14:11	715375	6.6.1	4_exp_EVA_AWA_CON	42	A	B	Rpleas_acq	Oppo	Lpleas	1pleas	conawa_CS1_US3	conawa1_nomask	8	2	0	0	300	300	0	0	8612	anregung	1	-72,5260416666666571928pct	träumen	kreativ	anregung	besonnen	gütig	vertrauen	töten	krank	ausrottung	bange	gierig	versagen	kuss	engagiert	genießen	vergnügt	sonnig	gesittet	krise	engstirnig	gemein	verbissen	sterben	geizig	0	0	0	0	0	0	0	0	0	0	0	0	0	0	0	0	0	0	0	0	0	0	0	0	0	0	0	0	0	0
2024-05-16	14:02:14	14:14:11	715376	6.6.1	4_exp_EVA_AWA_CON	42	A	B	Rpleas_acq	Oppo	Lpleas	1pleas	conawa_CS1_US3_confidence	conawa1_nomask	8	2	0	0	300	300	0	0	8612	guess	1	-72,5260416666666571928pct	träumen	kreativ	anregung	besonnen	gütig	vertrauen	töten	krank	ausrottung	bange	gierig	versagen	kuss	engagiert	genießen	vergnügt	sonnig	gesittet	krise	engstirnig	gemein	verbissen	sterben	geizig	0	0	0	0	0	0	0	0	0	0	0	0	0	0	0	0	0	0	0	0	0	0	0	0	0	0	0	0	0	0
2024-05-16	14:02:14	14:14:21	725701	6.6.1	4_exp_EVA_AWA_CON	42	A	B	Rpleas_acq	Oppo	Lpleas	1pleas	conawa_CS2_US1	conawa1_nomask	8	3	0	0	300	300	0	0	9713	töten	1	-72,5260416666666571928pct	träumen	kreativ	anregung	besonnen	gütig	vertrauen	töten	krank	ausrottung	bange	gierig	versagen	kuss	engagiert	genießen	vergnügt	sonnig	gesittet	krise	engstirnig	gemein	verbissen	sterben	geizig	0	0	0	0	0	0	0	0	0	0	0	0	0	0	0	0	0	0	0	0	0	0	0	0	0	0	0	0	0	0
2024-05-16	14:02:14	14:14:21	725703	6.6.1	4_exp_EVA_AWA_CON	42	A	B	Rpleas_acq	Oppo	Lpleas	1pleas	conawa_CS2_US1_confidence	conawa1_nomask	8	3	0	0	300	300	0	0	9713	guess	1	-72,5260416666666571928pct	träumen	kreativ	anregung	besonnen	gütig	vertrauen	töten	krank	ausrottung	bange	gierig	versagen	kuss	engagiert	genießen	vergnügt	sonnig	gesittet	krise	engstirnig	gemein	verbissen	sterben	geizig	0	0	0	0	0	0	0	0	0	0	0	0	0	0	0	0	0	0	0	0	0	0	0	0	0	0	0	0	0	0
2024-05-16	14:02:14	14:14:26	731045	6.6.1	4_exp_EVA_AWA_CON	42	A	B	Rpleas_acq	Oppo	Lpleas	1pleas	conawa_CS1_US2	conawa1_nomask	8	4	0	0	300	300	0	0	4723	kreativ	1	-72,5260416666666571928pct	träumen	kreativ	anregung	besonnen	gütig	vertrauen	töten	krank	ausrottung	bange	gierig	versagen	kuss	engagiert	genießen	vergnügt	sonnig	gesittet	krise	engstirnig	gemein	verbissen	sterben	geizig	0	0	0	0	0	0	0	0	0	0	0	0	0	0	0	0	0	0	0	0	0	0	0	0	0	0	0	0	0	0
2024-05-16	14:02:14	14:14:26	731046	6.6.1	4_exp_EVA_AWA_CON	42	A	B	Rpleas_acq	Oppo	Lpleas	1pleas	conawa_CS1_US2_confidence	conawa1_nomask	8	4	0	0	300	300	0	0	4723	probably	1	-72,5260416666666571928pct	träumen	kreativ	anregung	besonnen	gütig	vertrauen	töten	krank	ausrottung	bange	gierig	versagen	kuss	engagiert	genießen	vergnügt	sonnig	gesittet	krise	engstirnig	gemein	verbissen	sterben	geizig	0	0	0	0	0	0	0	0	0	0	0	0	0	0	0	0	0	0	0	0	0	0	0	0	0	0	0	0	0	0
2024-05-16	14:02:14	14:14:33	738070	6.6.1	4_exp_EVA_AWA_CON	42	A	B	Rpleas_acq	Oppo	Lpleas	1pleas	conawa_CS2_US6	conawa1_nomask	8	5	0	0	300	300	0	0	6406	versagen	1	-72,5260416666666571928pct	träumen	kreativ	anregung	besonnen	gütig	vertrauen	töten	krank	ausrottung	bange	gierig	versagen	kuss	engagiert	genießen	vergnügt	sonnig	gesittet	krise	engstirnig	gemein	verbissen	sterben	geizig	0	0	0	0	0	0	0	0	0	0	0	0	0	0	0	0	0	0	0	0	0	0	0	0	0	0	0	0	0	0
2024-05-16	14:02:14	14:14:33	738071	6.6.1	4_exp_EVA_AWA_CON	42	A	B	Rpleas_acq	Oppo	Lpleas	1pleas	conawa_CS2_US6_confidence	conawa1_nomask	8	5	0	0	300	300	0	0	6406	guess	1	-72,5260416666666571928pct	träumen	kreativ	anregung	besonnen	gütig	vertrauen	töten	krank	ausrottung	bange	gierig	versagen	kuss	engagiert	genießen	vergnügt	sonnig	gesittet	krise	engstirnig	gemein	verbissen	sterben	geizig	0	0	0	0	0	0	0	0	0	0	0	0	0	0	0	0	0	0	0	0	0	0	0	0	0	0	0	0	0	0
2024-05-16	14:02:14	14:14:39	743653	6.6.1	4_exp_EVA_AWA_CON	42	A	B	Rpleas_acq	Oppo	Lpleas	1pleas	conawa_CS1_US5	conawa1_nomask	8	6	0	0	300	300	0	0	4973	gütig	1	-72,5260416666666571928pct	träumen	kreativ	anregung	besonnen	gütig	vertrauen	töten	krank	ausrottung	bange	gierig	versagen	kuss	engagiert	genießen	vergnügt	sonnig	gesittet	krise	engstirnig	gemein	verbissen	sterben	geizig	0	0	0	0	0	0	0	0	0	0	0	0	0	0	0	0	0	0	0	0	0	0	0	0	0	0	0	0	0	0
2024-05-16	14:02:14	14:14:39	743654	6.6.1	4_exp_EVA_AWA_CON	42	A	B	Rpleas_acq	Oppo	Lpleas	1pleas	conawa_CS1_US5_confidence	conawa1_nomask	8	6	0	0	300	300	0	0	4973	guess	1	-72,5260416666666571928pct	träumen	kreativ	anregung	besonnen	gütig	vertrauen	töten	krank	ausrottung	bange	gierig	versagen	kuss	engagiert	genießen	vergnügt	sonnig	gesittet	krise	engstirnig	gemein	verbissen	sterben	geizig	0	0	0	0	0	0	0	0	0	0	0	0	0	0	0	0	0	0	0	0	0	0	0	0	0	0	0	0	0	0
2024-05-16	14:02:14	14:14:48	752349	6.6.1	4_exp_EVA_AWA_CON	42	A	B	Rpleas_acq	Oppo	Lpleas	1pleas	conawa_CS1_US6	conawa1_nomask	8	7	0	0	300	300	0	0	8079	vertrauen	1	-72,5260416666666571928pct	träumen	kreativ	anregung	besonnen	gütig	vertrauen	töten	krank	ausrottung	bange	gierig	versagen	kuss	engagiert	genießen	vergnügt	sonnig	gesittet	krise	engstirnig	gemein	verbissen	sterben	geizig	0	0	0	0	0	0	0	0	0	0	0	0	0	0	0	0	0	0	0	0	0	0	0	0	0	0	0	0	0	0
2024-05-16	14:02:14	14:14:48	752350	6.6.1	4_exp_EVA_AWA_CON	42	A	B	Rpleas_acq	Oppo	Lpleas	1pleas	conawa_CS1_US6_confidence	conawa1_nomask	8	7	0	0	300	300	0	0	8079	guess	1	-72,5260416666666571928pct	träumen	kreativ	anregung	besonnen	gütig	vertrauen	töten	krank	ausrottung	bange	gierig	versagen	kuss	engagiert	genießen	vergnügt	sonnig	gesittet	krise	engstirnig	gemein	verbissen	sterben	geizig	0	0	0	0	0	0	0	0	0	0	0	0	0	0	0	0	0	0	0	0	0	0	0	0	0	0	0	0	0	0
2024-05-16	14:02:14	14:14:52	756571	6.6.1	4_exp_EVA_AWA_CON	42	A	B	Rpleas_acq	Oppo	Lpleas	1pleas	conawa_CS1_US1	conawa1_nomask	8	8	0	0	300	300	0	0	3606	träumen	1	-72,5260416666666571928pct	träumen	kreativ	anregung	besonnen	gütig	vertrauen	töten	krank	ausrottung	bange	gierig	versagen	kuss	engagiert	genießen	vergnügt	sonnig	gesittet	krise	engstirnig	gemein	verbissen	sterben	geizig	0	0	0	0	0	0	0	0	0	0	0	0	0	0	0	0	0	0	0	0	0	0	0	0	0	0	0	0	0	0
2024-05-16	14:02:14	14:14:52	756572	6.6.1	4_exp_EVA_AWA_CON	42	A	B	Rpleas_acq	Oppo	Lpleas	1pleas	conawa_CS1_US1_confidence	conawa1_nomask	8	8	0	0	300	300	0	0	3606	guess	1	-72,5260416666666571928pct	träumen	kreativ	anregung	besonnen	gütig	vertrauen	töten	krank	ausrottung	bange	gierig	versagen	kuss	engagiert	genießen	vergnügt	sonnig	gesittet	krise	engstirnig	gemein	verbissen	sterben	geizig	0	0	0	0	0	0	0	0	0	0	0	0	0	0	0	0	0	0	0	0	0	0	0	0	0	0	0	0	0	0
2024-05-16	14:02:14	14:14:57	761594	6.6.1	4_exp_EVA_AWA_CON	42	A	B	Rpleas_acq	Oppo	Lpleas	1pleas	conawa_CS2_US5	conawa1_nomask	8	9	0	0	300	300	0	0	4408	gierig	1	-72,5260416666666571928pct	träumen	kreativ	anregung	besonnen	gütig	vertrauen	töten	krank	ausrottung	bange	gierig	versagen	kuss	engagiert	genießen	vergnügt	sonnig	gesittet	krise	engstirnig	gemein	verbissen	sterben	geizig	0	0	0	0	0	0	0	0	0	0	0	0	0	0	0	0	0	0	0	0	0	0	0	0	0	0	0	0	0	0
2024-05-16	14:02:14	14:14:57	761596	6.6.1	4_exp_EVA_AWA_CON	42	A	B	Rpleas_acq	Oppo	Lpleas	1pleas	conawa_CS2_US5_confidence	conawa1_nomask	8	9	0	0	300	300	0	0	4408	probably	1	-72,5260416666666571928pct	träumen	kreativ	anregung	besonnen	gütig	vertrauen	töten	krank	ausrottung	bange	gierig	versagen	kuss	engagiert	genießen	vergnügt	sonnig	gesittet	krise	engstirnig	gemein	verbissen	sterben	geizig	0	0	0	0	0	0	0	0	0	0	0	0	0	0	0	0	0	0	0	0	0	0	0	0	0	0	0	0	0	0
2024-05-16	14:02:14	14:15:05	769350	6.6.1	4_exp_EVA_AWA_CON	42	A	B	Rpleas_acq	Oppo	Lpleas	1pleas	conawa_CS1_US4	conawa1_nomask	8	10	0	0	300	300	0	0	7145	besonnen	1	-72,5260416666666571928pct	träumen	kreativ	anregung	besonnen	gütig	vertrauen	töten	krank	ausrottung	bange	gierig	versagen	kuss	engagiert	genießen	vergnügt	sonnig	gesittet	krise	engstirnig	gemein	verbissen	sterben	geizig	0	0	0	0	0	0	0	0	0	0	0	0	0	0	0	0	0	0	0	0	0	0	0	0	0	0	0	0	0	0
2024-05-16	14:02:14	14:15:05	769351	6.6.1	4_exp_EVA_AWA_CON	42	A	B	Rpleas_acq	Oppo	Lpleas	1pleas	conawa_CS1_US4_confidence	conawa1_nomask	8	10	0	0	300	300	0	0	7145	guess	1	-72,5260416666666571928pct	träumen	kreativ	anregung	besonnen	gütig	vertrauen	töten	krank	ausrottung	bange	gierig	versagen	kuss	engagiert	genießen	vergnügt	sonnig	gesittet	krise	engstirnig	gemein	verbissen	sterben	geizig	0	0	0	0	0	0	0	0	0	0	0	0	0	0	0	0	0	0	0	0	0	0	0	0	0	0	0	0	0	0
2024-05-16	14:02:14	14:15:11	775334	6.6.1	4_exp_EVA_AWA_CON	42	A	B	Rpleas_acq	Oppo	Lpleas	1pleas	conawa_CS2_US2	conawa1_nomask	8	11	0	0	300	300	0	0	5366	gemein	1	-72,5260416666666571928pct	träumen	kreativ	anregung	besonnen	gütig	vertrauen	töten	krank	ausrottung	bange	gierig	versagen	kuss	engagiert	genießen	vergnügt	sonnig	gesittet	krise	engstirnig	gemein	verbissen	sterben	geizig	0	0	0	0	0	0	0	0	0	0	0	0	0	0	0	0	0	0	0	0	0	0	0	0	0	0	0	0	0	0
2024-05-16	14:02:14	14:15:11	775335	6.6.1	4_exp_EVA_AWA_CON	42	A	B	Rpleas_acq	Oppo	Lpleas	1pleas	conawa_CS2_US2_confidence	conawa1_nomask	8	11	0	0	300	300	0	0	5366	guess	1	-72,5260416666666571928pct	träumen	kreativ	anregung	besonnen	gütig	vertrauen	töten	krank	ausrottung	bange	gierig	versagen	kuss	engagiert	genießen	vergnügt	sonnig	gesittet	krise	engstirnig	gemein	verbissen	sterben	geizig	0	0	0	0	0	0	0	0	0	0	0	0	0	0	0	0	0	0	0	0	0	0	0	0	0	0	0	0	0	0
2024-05-16	14:02:14	14:15:22	786661	6.6.1	4_exp_EVA_AWA_CON	42	A	B	Rpleas_acq	Oppo	Lpleas	1pleas	conawa_CS2_US3	conawa1_nomask	8	12	0	0	300	300	0	0	10710	vergnügt	1	-72,5260416666666571928pct	träumen	kreativ	anregung	besonnen	gütig	vertrauen	töten	krank	ausrottung	bange	gierig	versagen	kuss	engagiert	genießen	vergnügt	sonnig	gesittet	krise	engstirnig	gemein	verbissen	sterben	geizig	0	0	0	0	0	0	0	0	0	0	0	0	0	0	0	0	0	0	0	0	0	0	0	0	0	0	0	0	0	0
2024-05-16	14:02:14	14:15:22	786662	6.6.1	4_exp_EVA_AWA_CON	42	A	B	Rpleas_acq	Oppo	Lpleas	1pleas	conawa_CS2_US3_confidence	conawa1_nomask	8	12	0	0	300	300	0	0	10710	guess	1	-72,5260416666666571928pct	träumen	kreativ	anregung	besonnen	gütig	vertrauen	töten	krank	ausrottung	bange	gierig	versagen	kuss	engagiert	genießen	vergnügt	sonnig	gesittet	krise	engstirnig	gemein	verbissen	sterben	geizig	0	0	0	0	0	0	0	0	0	0	0	0	0	0	0	0	0	0	0	0	0	0	0	0	0	0	0	0	0	0
2024-05-16	14:02:14	14:16:25	849764	6.6.1	4_exp_EVA_AWA_CON	42	A	B	Rpleas_acq	Oppo	Lpleas	1pleas	cond_new_unple_456_nomask_CS1	condtest_nomask_1	11	1	400	0	300	300	0	0	842	50	1	-72,5260416666666571928pct	träumen	kreativ	anregung	besonnen	gütig	vertrauen	töten	krank	ausrottung	bange	gierig	versagen	kuss	engagiert	genießen	vergnügt	sonnig	gesittet	krise	engstirnig	gemein	verbissen	sterben	geizig	1	blank2r.bmp	0	1	+	0	1	blank2r.bmp	500	1	CPLW	500	1	blank2r.bmp	880	2	sterben	880	1	!	1232	1	!	-1	0	0	0	0	0	0
