date	time	currenttime	elapsedtime	build	currentexpt	subject	CS_AB	US_AB	LRpleas_acq	SameOppo	condition_Lpleas	condition_1pleas	trialcode	blockcode	blocknum	trialnum	windowcenter	inwindow	pretrialpause	posttrialpause	trialduration	trialtimeout	latency	response	correct	correctedscore	US_nomask_pleas1	US_nomask_pleas2	US_nomask_pleas3	US_nomask_pleas4	US_nomask_pleas5	US_nomask_pleas6	US_nomask_unple1	US_nomask_unple2	US_nomask_unple3	US_nomask_unple4	US_nomask_unple5	US_nomask_unple6	new_nomask_pleas1	new_nomask_pleas2	new_nomask_pleas3	new_nomask_pleas4	new_nomask_pleas5	new_nomask_pleas6	new_nomask_unple1	new_nomask_unple2	new_nomask_unple3	new_nomask_unple4	new_nomask_unple5	new_nomask_unple6	stimulusnumber1	stimulusitem1	stimulusonset1	stimulusnumber2	stimulusitem2	stimulusonset2	stimulusnumber3	stimulusitem3	stimulusonset3	stimulusnumber4	stimulusitem4	stimulusonset4	stimulusnumber5	stimulusitem5	stimulusonset5	stimulusnumber6	stimulusitem6	stimulusonset6	stimulusnumber7	stimulusitem7	stimulusonset7	stimulusnumber8	stimulusitem8	stimulusonset8	stimulusnumber9	stimulusitem9	stimulusonset9	stimulusnumber10	stimulusitem10	stimulusonset10
2024-06-12	13:03:14	13:04:59	104421	6.6.1	4_exp_EVA_AWA_CON	85	B	A	Rpleas_acq	Same	Rpleas	1pleas	acq_US_unple_nomask	acq1_nomask	1	1	0	0	300	300	0	0	745	46	1	0	retten	freundlich	lachen	schön	ehrlich	helfen	rächen	fanatisch	leiden	schlecht	eitel	hindern	schlau	loyal	treu	fair	tolerant	spielen	schroff	lasch	tot	faul	tyrannisch	strafen	1	blank2r.bmp	0	1	+	0	1	blank2r.bmp	500	1	GKQX	500	1	blank2r.bmp	880	2	fanatisch	880	0	0	0	0	0	0	0	0	0	0	0	0
2024-06-12	13:03:14	13:05:01	106845	6.6.1	4_exp_EVA_AWA_CON	85	B	A	Rpleas_acq	Same	Rpleas	1pleas	acq_new_unple_nomask	acq1_nomask	1	2	0	0	300	300	0	0	938	46	1	0	retten	freundlich	lachen	schön	ehrlich	helfen	rächen	fanatisch	leiden	schlecht	eitel	hindern	schlau	loyal	treu	fair	tolerant	spielen	schroff	lasch	tot	faul	tyrannisch	strafen	1	blank2r.bmp	0	1	+	0	1	blank2r.bmp	500	4	B4r.bmp	500	1	blank2r.bmp	880	6	strafen	880	0	0	0	0	0	0	0	0	0	0	0	0
2024-06-12	13:03:14	13:05:04	109109	6.6.1	4_exp_EVA_AWA_CON	85	B	A	Rpleas_acq	Same	Rpleas	1pleas	acq_new_pleas_nomask	acq1_nomask	1	3	0	0	300	300	0	0	780	50	1	0	retten	freundlich	lachen	schön	ehrlich	helfen	rächen	fanatisch	leiden	schlecht	eitel	hindern	schlau	loyal	treu	fair	tolerant	spielen	schroff	lasch	tot	faul	tyrannisch	strafen	1	blank2r.bmp	0	1	+	0	1	blank2r.bmp	500	5	C1r.bmp	500	1	blank2r.bmp	880	5	tolerant	880	0	0	0	0	0	0	0	0	0	0	0	0
2024-06-12	13:03:14	13:05:06	111237	6.6.1	4_exp_EVA_AWA_CON	85	B	A	Rpleas_acq	Same	Rpleas	1pleas	acq_US_pleas_nomask	acq1_nomask	1	4	0	0	300	300	0	0	647	50	1	0	retten	freundlich	lachen	schön	ehrlich	helfen	rächen	fanatisch	leiden	schlecht	eitel	hindern	schlau	loyal	treu	fair	tolerant	spielen	schroff	lasch	tot	faul	tyrannisch	strafen	1	blank2r.bmp	0	1	+	0	1	blank2r.bmp	500	1	BMVZ	500	1	blank2r.bmp	880	6	helfen	880	0	0	0	0	0	0	0	0	0	0	0	0
2024-06-12	13:03:14	13:05:08	113502	6.6.1	4_exp_EVA_AWA_CON	85	B	A	Rpleas_acq	Same	Rpleas	1pleas	acq_US_pleas_nomask	acq1_nomask	1	5	0	0	300	300	0	0	780	50	1	0	retten	freundlich	lachen	schön	ehrlich	helfen	rächen	fanatisch	leiden	schlecht	eitel	hindern	schlau	loyal	treu	fair	tolerant	spielen	schroff	lasch	tot	faul	tyrannisch	strafen	1	blank2r.bmp	0	1	+	0	1	blank2r.bmp	500	1	BMVZ	500	1	blank2r.bmp	880	2	freundlich	880	0	0	0	0	0	0	0	0	0	0	0	0
2024-06-12	13:03:14	13:05:10	115629	6.6.1	4_exp_EVA_AWA_CON	85	B	A	Rpleas_acq	Same	Rpleas	1pleas	acq_US_unple_nomask	acq1_nomask	1	6	0	0	300	300	0	0	646	46	1	0	retten	freundlich	lachen	schön	ehrlich	helfen	rächen	fanatisch	leiden	schlecht	eitel	hindern	schlau	loyal	treu	fair	tolerant	spielen	schroff	lasch	tot	faul	tyrannisch	strafen	1	blank2r.bmp	0	1	+	0	1	blank2r.bmp	500	1	GKQX	500	1	blank2r.bmp	880	4	schlecht	880	0	0	0	0	0	0	0	0	0	0	0	0
2024-06-12	13:03:14	13:05:12	117781	6.6.1	4_exp_EVA_AWA_CON	85	B	A	Rpleas_acq	Same	Rpleas	1pleas	acq_new_pleas_nomask	acq1_nomask	1	7	0	0	300	300	0	0	667	50	1	0	retten	freundlich	lachen	schön	ehrlich	helfen	rächen	fanatisch	leiden	schlecht	eitel	hindern	schlau	loyal	treu	fair	tolerant	spielen	schroff	lasch	tot	faul	tyrannisch	strafen	1	blank2r.bmp	0	1	+	0	1	blank2r.bmp	500	3	B3r.bmp	500	1	blank2r.bmp	880	2	loyal	880	0	0	0	0	0	0	0	0	0	0	0	0
2024-06-12	13:03:14	13:05:14	119886	6.6.1	4_exp_EVA_AWA_CON	85	B	A	Rpleas_acq	Same	Rpleas	1pleas	acq_new_unple_nomask	acq1_nomask	1	8	0	0	300	300	0	0	619	46	1	0	retten	freundlich	lachen	schön	ehrlich	helfen	rächen	fanatisch	leiden	schlecht	eitel	hindern	schlau	loyal	treu	fair	tolerant	spielen	schroff	lasch	tot	faul	tyrannisch	strafen	1	blank2r.bmp	0	1	+	0	1	blank2r.bmp	500	1	B1r.bmp	500	1	blank2r.bmp	880	4	faul	880	0	0	0	0	0	0	0	0	0	0	0	0
2024-06-12	13:03:14	13:05:16	121989	6.6.1	4_exp_EVA_AWA_CON	85	B	A	Rpleas_acq	Same	Rpleas	1pleas	acq_US_pleas_nomask	acq1_nomask	1	9	0	0	300	300	0	0	622	50	1	0	retten	freundlich	lachen	schön	ehrlich	helfen	rächen	fanatisch	leiden	schlecht	eitel	hindern	schlau	loyal	treu	fair	tolerant	spielen	schroff	lasch	tot	faul	tyrannisch	strafen	1	blank2r.bmp	0	1	+	0	1	blank2r.bmp	500	1	BMVZ	500	1	blank2r.bmp	880	1	retten	880	0	0	0	0	0	0	0	0	0	0	0	0
2024-06-12	13:03:14	13:05:19	124397	6.6.1	4_exp_EVA_AWA_CON	85	B	A	Rpleas_acq	Same	Rpleas	1pleas	acq_US_unple_nomask	acq1_nomask	1	10	0	0	300	300	0	0	919	46	1	0	retten	freundlich	lachen	schön	ehrlich	helfen	rächen	fanatisch	leiden	schlecht	eitel	hindern	schlau	loyal	treu	fair	tolerant	spielen	schroff	lasch	tot	faul	tyrannisch	strafen	1	blank2r.bmp	0	1	+	0	1	blank2r.bmp	500	1	GKQX	500	1	blank2r.bmp	880	6	hindern	880	0	0	0	0	0	0	0	0	0	0	0	0
2024-06-12	13:03:14	13:05:21	126774	6.6.1	4_exp_EVA_AWA_CON	85	B	A	Rpleas_acq	Same	Rpleas	1pleas	acq_new_pleas_nomask	acq1_nomask	1	11	0	0	300	300	0	0	693	46	0	0	retten	freundlich	lachen	schön	ehrlich	helfen	rächen	fanatisch	leiden	schlecht	eitel	hindern	schlau	loyal	treu	fair	tolerant	spielen	schroff	lasch	tot	faul	tyrannisch	strafen	1	blank2r.bmp	0	1	+	0	1	blank2r.bmp	500	7	C3r.bmp	500	1	blank2r.bmp	880	3	treu	880	1	FEHLER	1595	0	0	0	0	0	0	0	0	0
2024-06-12	13:03:14	13:05:23	128797	6.6.1	4_exp_EVA_AWA_CON	85	B	A	Rpleas_acq	Same	Rpleas	1pleas	acq_new_unple_nomask	acq1_nomask	1	12	0	0	300	300	0	0	736	46	1	0	retten	freundlich	lachen	schön	ehrlich	helfen	rächen	fanatisch	leiden	schlecht	eitel	hindern	schlau	loyal	treu	fair	tolerant	spielen	schroff	lasch	tot	faul	tyrannisch	strafen	1	blank2r.bmp	0	1	+	0	1	blank2r.bmp	500	8	C4r.bmp	500	1	blank2r.bmp	880	1	schroff	880	0	0	0	0	0	0	0	0	0	0	0	0
2024-06-12	13:03:14	13:05:25	131045	6.6.1	4_exp_EVA_AWA_CON	85	B	A	Rpleas_acq	Same	Rpleas	1pleas	acq_new_unple_nomask	acq1_nomask	1	13	0	0	300	300	0	0	762	46	1	0	retten	freundlich	lachen	schön	ehrlich	helfen	rächen	fanatisch	leiden	schlecht	eitel	hindern	schlau	loyal	treu	fair	tolerant	spielen	schroff	lasch	tot	faul	tyrannisch	strafen	1	blank2r.bmp	0	1	+	0	1	blank2r.bmp	500	2	B2r.bmp	500	1	blank2r.bmp	880	3	tot	880	0	0	0	0	0	0	0	0	0	0	0	0
2024-06-12	13:03:14	13:05:28	133301	6.6.1	4_exp_EVA_AWA_CON	85	B	A	Rpleas_acq	Same	Rpleas	1pleas	acq_new_pleas_nomask	acq1_nomask	1	14	0	0	300	300	0	0	767	50	1	0	retten	freundlich	lachen	schön	ehrlich	helfen	rächen	fanatisch	leiden	schlecht	eitel	hindern	schlau	loyal	treu	fair	tolerant	spielen	schroff	lasch	tot	faul	tyrannisch	strafen	1	blank2r.bmp	0	1	+	0	1	blank2r.bmp	500	6	C2r.bmp	500	1	blank2r.bmp	880	1	schlau	880	0	0	0	0	0	0	0	0	0	0	0	0
2024-06-12	13:03:14	13:05:30	135829	6.6.1	4_exp_EVA_AWA_CON	85	B	A	Rpleas_acq	Same	Rpleas	1pleas	acq_new_unple_nomask	acq1_nomask	1	15	0	0	300	300	0	0	1044	46	1	0	retten	freundlich	lachen	schön	ehrlich	helfen	rächen	fanatisch	leiden	schlecht	eitel	hindern	schlau	loyal	treu	fair	tolerant	spielen	schroff	lasch	tot	faul	tyrannisch	strafen	1	blank2r.bmp	0	1	+	0	1	blank2r.bmp	500	1	B1r.bmp	500	1	blank2r.bmp	880	5	tyrannisch	880	0	0	0	0	0	0	0	0	0	0	0	0
2024-06-12	13:03:14	13:05:33	138229	6.6.1	4_exp_EVA_AWA_CON	85	B	A	Rpleas_acq	Same	Rpleas	1pleas	acq_US_unple_nomask	acq1_nomask	1	16	0	0	300	300	0	0	912	46	1	0	retten	freundlich	lachen	schön	ehrlich	helfen	rächen	fanatisch	leiden	schlecht	eitel	hindern	schlau	loyal	treu	fair	tolerant	spielen	schroff	lasch	tot	faul	tyrannisch	strafen	1	blank2r.bmp	0	1	+	0	1	blank2r.bmp	500	1	GKQX	500	1	blank2r.bmp	880	3	leiden	880	0	0	0	0	0	0	0	0	0	0	0	0
2024-06-12	13:03:14	13:05:35	140549	6.6.1	4_exp_EVA_AWA_CON	85	B	A	Rpleas_acq	Same	Rpleas	1pleas	acq_new_pleas_nomask	acq1_nomask	1	17	0	0	300	300	0	0	830	50	1	0	retten	freundlich	lachen	schön	ehrlich	helfen	rächen	fanatisch	leiden	schlecht	eitel	hindern	schlau	loyal	treu	fair	tolerant	spielen	schroff	lasch	tot	faul	tyrannisch	strafen	1	blank2r.bmp	0	1	+	0	1	blank2r.bmp	500	7	C3r.bmp	500	1	blank2r.bmp	880	4	fair	880	0	0	0	0	0	0	0	0	0	0	0	0
2024-06-12	13:03:14	13:05:37	142837	6.6.1	4_exp_EVA_AWA_CON	85	B	A	Rpleas_acq	Same	Rpleas	1pleas	acq_new_pleas_nomask	acq1_nomask	1	18	0	0	300	300	0	0	807	50	1	0	retten	freundlich	lachen	schön	ehrlich	helfen	rächen	fanatisch	leiden	schlecht	eitel	hindern	schlau	loyal	treu	fair	tolerant	spielen	schroff	lasch	tot	faul	tyrannisch	strafen	1	blank2r.bmp	0	1	+	0	1	blank2r.bmp	500	2	B2r.bmp	500	1	blank2r.bmp	880	6	spielen	880	0	0	0	0	0	0	0	0	0	0	0	0
2024-06-12	13:03:14	13:05:40	145125	6.6.1	4_exp_EVA_AWA_CON	85	B	A	Rpleas_acq	Same	Rpleas	1pleas	acq_US_unple_nomask	acq1_nomask	1	19	0	0	300	300	0	0	803	46	1	0	retten	freundlich	lachen	schön	ehrlich	helfen	rächen	fanatisch	leiden	schlecht	eitel	hindern	schlau	loyal	treu	fair	tolerant	spielen	schroff	lasch	tot	faul	tyrannisch	strafen	1	blank2r.bmp	0	1	+	0	1	blank2r.bmp	500	1	GKQX	500	1	blank2r.bmp	880	1	rächen	880	0	0	0	0	0	0	0	0	0	0	0	0
2024-06-12	13:03:14	13:05:42	147421	6.6.1	4_exp_EVA_AWA_CON	85	B	A	Rpleas_acq	Same	Rpleas	1pleas	acq_US_pleas_nomask	acq1_nomask	1	20	0	0	300	300	0	0	808	50	1	0	retten	freundlich	lachen	schön	ehrlich	helfen	rächen	fanatisch	leiden	schlecht	eitel	hindern	schlau	loyal	treu	fair	tolerant	spielen	schroff	lasch	tot	faul	tyrannisch	strafen	1	blank2r.bmp	0	1	+	0	1	blank2r.bmp	500	1	BMVZ	500	1	blank2r.bmp	880	4	schön	880	0	0	0	0	0	0	0	0	0	0	0	0
2024-06-12	13:03:14	13:05:45	150246	6.6.1	4_exp_EVA_AWA_CON	85	B	A	Rpleas_acq	Same	Rpleas	1pleas	acq_new_unple_nomask	acq1_nomask	1	21	0	0	300	300	0	0	1340	46	1	0	retten	freundlich	lachen	schön	ehrlich	helfen	rächen	fanatisch	leiden	schlecht	eitel	hindern	schlau	loyal	treu	fair	tolerant	spielen	schroff	lasch	tot	faul	tyrannisch	strafen	1	blank2r.bmp	0	1	+	0	1	blank2r.bmp	500	4	B4r.bmp	500	1	blank2r.bmp	880	2	lasch	880	0	0	0	0	0	0	0	0	0	0	0	0
2024-06-12	13:03:14	13:05:47	152525	6.6.1	4_exp_EVA_AWA_CON	85	B	A	Rpleas_acq	Same	Rpleas	1pleas	acq_US_pleas_nomask	acq1_nomask	1	22	0	0	300	300	0	0	799	50	1	0	retten	freundlich	lachen	schön	ehrlich	helfen	rächen	fanatisch	leiden	schlecht	eitel	hindern	schlau	loyal	treu	fair	tolerant	spielen	schroff	lasch	tot	faul	tyrannisch	strafen	1	blank2r.bmp	0	1	+	0	1	blank2r.bmp	500	1	BMVZ	500	1	blank2r.bmp	880	5	ehrlich	880	0	0	0	0	0	0	0	0	0	0	0	0
2024-06-12	13:03:14	13:05:49	154941	6.6.1	4_exp_EVA_AWA_CON	85	B	A	Rpleas_acq	Same	Rpleas	1pleas	acq_US_unple_nomask	acq1_nomask	1	23	0	0	300	300	0	0	933	46	1	0	retten	freundlich	lachen	schön	ehrlich	helfen	rächen	fanatisch	leiden	schlecht	eitel	hindern	schlau	loyal	treu	fair	tolerant	spielen	schroff	lasch	tot	faul	tyrannisch	strafen	1	blank2r.bmp	0	1	+	0	1	blank2r.bmp	500	1	GKQX	500	1	blank2r.bmp	880	5	eitel	880	0	0	0	0	0	0	0	0	0	0	0	0
2024-06-12	13:03:14	13:05:52	157677	6.6.1	4_exp_EVA_AWA_CON	85	B	A	Rpleas_acq	Same	Rpleas	1pleas	acq_US_pleas_nomask	acq1_nomask	1	24	0	0	300	300	0	0	1248	50	1	0	retten	freundlich	lachen	schön	ehrlich	helfen	rächen	fanatisch	leiden	schlecht	eitel	hindern	schlau	loyal	treu	fair	tolerant	spielen	schroff	lasch	tot	faul	tyrannisch	strafen	1	blank2r.bmp	0	1	+	0	1	blank2r.bmp	500	1	BMVZ	500	1	blank2r.bmp	880	3	lachen	880	0	0	0	0	0	0	0	0	0	0	0	0
2024-06-12	13:03:14	13:05:54	159782	6.6.1	4_exp_EVA_AWA_CON	85	B	A	Rpleas_acq	Same	Rpleas	1pleas	acq_US_pleas_nomask	acq1_nomask	1	25	0	0	300	300	0	0	620	50	1	0	retten	freundlich	lachen	schön	ehrlich	helfen	rächen	fanatisch	leiden	schlecht	eitel	hindern	schlau	loyal	treu	fair	tolerant	spielen	schroff	lasch	tot	faul	tyrannisch	strafen	1	blank2r.bmp	0	1	+	0	1	blank2r.bmp	500	1	BMVZ	500	1	blank2r.bmp	880	2	freundlich	880	0	0	0	0	0	0	0	0	0	0	0	0
2024-06-12	13:03:14	13:05:56	161901	6.6.1	4_exp_EVA_AWA_CON	85	B	A	Rpleas_acq	Same	Rpleas	1pleas	acq_new_pleas_nomask	acq1_nomask	1	26	0	0	300	300	0	0	639	50	1	0	retten	freundlich	lachen	schön	ehrlich	helfen	rächen	fanatisch	leiden	schlecht	eitel	hindern	schlau	loyal	treu	fair	tolerant	spielen	schroff	lasch	tot	faul	tyrannisch	strafen	1	blank2r.bmp	0	1	+	0	1	blank2r.bmp	500	8	C4r.bmp	500	1	blank2r.bmp	880	2	loyal	880	0	0	0	0	0	0	0	0	0	0	0	0
2024-06-12	13:03:14	13:05:59	164117	6.6.1	4_exp_EVA_AWA_CON	85	B	A	Rpleas_acq	Same	Rpleas	1pleas	acq_new_unple_nomask	acq1_nomask	1	27	0	0	300	300	0	0	733	46	1	0	retten	freundlich	lachen	schön	ehrlich	helfen	rächen	fanatisch	leiden	schlecht	eitel	hindern	schlau	loyal	treu	fair	tolerant	spielen	schroff	lasch	tot	faul	tyrannisch	strafen	1	blank2r.bmp	0	1	+	0	1	blank2r.bmp	500	5	C1r.bmp	500	1	blank2r.bmp	880	6	strafen	880	0	0	0	0	0	0	0	0	0	0	0	0
2024-06-12	13:03:14	13:06:01	166261	6.6.1	4_exp_EVA_AWA_CON	85	B	A	Rpleas_acq	Same	Rpleas	1pleas	acq_new_unple_nomask	acq1_nomask	1	28	0	0	300	300	0	0	656	46	1	0	retten	freundlich	lachen	schön	ehrlich	helfen	rächen	fanatisch	leiden	schlecht	eitel	hindern	schlau	loyal	treu	fair	tolerant	spielen	schroff	lasch	tot	faul	tyrannisch	strafen	1	blank2r.bmp	0	1	+	0	1	blank2r.bmp	500	6	C2r.bmp	500	1	blank2r.bmp	880	3	tot	880	0	0	0	0	0	0	0	0	0	0	0	0
2024-06-12	13:03:14	13:06:03	168638	6.6.1	4_exp_EVA_AWA_CON	85	B	A	Rpleas_acq	Same	Rpleas	1pleas	acq_US_pleas_nomask	acq1_nomask	1	29	0	0	300	300	0	0	890	50	1	0	retten	freundlich	lachen	schön	ehrlich	helfen	rächen	fanatisch	leiden	schlecht	eitel	hindern	schlau	loyal	treu	fair	tolerant	spielen	schroff	lasch	tot	faul	tyrannisch	strafen	1	blank2r.bmp	0	1	+	0	1	blank2r.bmp	500	1	BMVZ	500	1	blank2r.bmp	880	3	lachen	880	0	0	0	0	0	0	0	0	0	0	0	0
2024-06-12	13:03:14	13:06:05	171069	6.6.1	4_exp_EVA_AWA_CON	85	B	A	Rpleas_acq	Same	Rpleas	1pleas	acq_US_unple_nomask	acq1_nomask	1	30	0	0	300	300	0	0	951	46	1	0	retten	freundlich	lachen	schön	ehrlich	helfen	rächen	fanatisch	leiden	schlecht	eitel	hindern	schlau	loyal	treu	fair	tolerant	spielen	schroff	lasch	tot	faul	tyrannisch	strafen	1	blank2r.bmp	0	1	+	0	1	blank2r.bmp	500	1	GKQX	500	1	blank2r.bmp	880	6	hindern	880	0	0	0	0	0	0	0	0	0	0	0	0
2024-06-12	13:03:14	13:06:08	173445	6.6.1	4_exp_EVA_AWA_CON	85	B	A	Rpleas_acq	Same	Rpleas	1pleas	acq_US_unple_nomask	acq1_nomask	1	31	0	0	300	300	0	0	895	46	1	0	retten	freundlich	lachen	schön	ehrlich	helfen	rächen	fanatisch	leiden	schlecht	eitel	hindern	schlau	loyal	treu	fair	tolerant	spielen	schroff	lasch	tot	faul	tyrannisch	strafen	1	blank2r.bmp	0	1	+	0	1	blank2r.bmp	500	1	GKQX	500	1	blank2r.bmp	880	1	rächen	880	0	0	0	0	0	0	0	0	0	0	0	0
2024-06-12	13:03:14	13:06:10	175933	6.6.1	4_exp_EVA_AWA_CON	85	B	A	Rpleas_acq	Same	Rpleas	1pleas	acq_US_unple_nomask	acq1_nomask	1	32	0	0	300	300	0	0	1002	46	1	0	retten	freundlich	lachen	schön	ehrlich	helfen	rächen	fanatisch	leiden	schlecht	eitel	hindern	schlau	loyal	treu	fair	tolerant	spielen	schroff	lasch	tot	faul	tyrannisch	strafen	1	blank2r.bmp	0	1	+	0	1	blank2r.bmp	500	1	GKQX	500	1	blank2r.bmp	880	5	eitel	880	0	0	0	0	0	0	0	0	0	0	0	0
2024-06-12	13:03:14	13:06:13	178445	6.6.1	4_exp_EVA_AWA_CON	85	B	A	Rpleas_acq	Same	Rpleas	1pleas	acq_new_pleas_nomask	acq1_nomask	1	33	0	0	300	300	0	0	1022	50	1	0	retten	freundlich	lachen	schön	ehrlich	helfen	rächen	fanatisch	leiden	schlecht	eitel	hindern	schlau	loyal	treu	fair	tolerant	spielen	schroff	lasch	tot	faul	tyrannisch	strafen	1	blank2r.bmp	0	1	+	0	1	blank2r.bmp	500	3	B3r.bmp	500	1	blank2r.bmp	880	1	schlau	880	0	0	0	0	0	0	0	0	0	0	0	0
2024-06-12	13:03:14	13:06:15	180813	6.6.1	4_exp_EVA_AWA_CON	85	B	A	Rpleas_acq	Same	Rpleas	1pleas	acq_US_pleas_nomask	acq1_nomask	1	34	0	0	300	300	0	0	879	50	1	0	retten	freundlich	lachen	schön	ehrlich	helfen	rächen	fanatisch	leiden	schlecht	eitel	hindern	schlau	loyal	treu	fair	tolerant	spielen	schroff	lasch	tot	faul	tyrannisch	strafen	1	blank2r.bmp	0	1	+	0	1	blank2r.bmp	500	1	BMVZ	500	1	blank2r.bmp	880	6	helfen	880	0	0	0	0	0	0	0	0	0	0	0	0
2024-06-12	13:03:14	13:06:17	182997	6.6.1	4_exp_EVA_AWA_CON	85	B	A	Rpleas_acq	Same	Rpleas	1pleas	acq_new_pleas_nomask	acq1_nomask	1	35	0	0	300	300	0	0	701	50	1	0	retten	freundlich	lachen	schön	ehrlich	helfen	rächen	fanatisch	leiden	schlecht	eitel	hindern	schlau	loyal	treu	fair	tolerant	spielen	schroff	lasch	tot	faul	tyrannisch	strafen	1	blank2r.bmp	0	1	+	0	1	blank2r.bmp	500	3	B3r.bmp	500	1	blank2r.bmp	880	3	treu	880	0	0	0	0	0	0	0	0	0	0	0	0
2024-06-12	13:03:14	13:06:20	185933	6.6.1	4_exp_EVA_AWA_CON	85	B	A	Rpleas_acq	Same	Rpleas	1pleas	acq_new_unple_nomask	acq1_nomask	1	36	0	0	300	300	0	0	1456	46	1	0	retten	freundlich	lachen	schön	ehrlich	helfen	rächen	fanatisch	leiden	schlecht	eitel	hindern	schlau	loyal	treu	fair	tolerant	spielen	schroff	lasch	tot	faul	tyrannisch	strafen	1	blank2r.bmp	0	1	+	0	1	blank2r.bmp	500	8	C4r.bmp	500	1	blank2r.bmp	880	5	tyrannisch	880	0	0	0	0	0	0	0	0	0	0	0	0
2024-06-12	13:03:14	13:07:42	267706	6.6.1	4_exp_EVA_AWA_CON	85	B	A	Rpleas_acq	Same	Rpleas	1pleas	acq_US_unple_nomask	acq2_nomask	2	1	480	0	300	300	0	0	5516	50	0	0	retten	freundlich	lachen	schön	ehrlich	helfen	rächen	fanatisch	leiden	schlecht	eitel	hindern	schlau	loyal	treu	fair	tolerant	spielen	schroff	lasch	tot	faul	tyrannisch	strafen	1	blank2r.bmp	0	1	+	0	1	blank2r.bmp	500	1	GKQX	500	1	blank2r.bmp	880	4	schlecht	880	1	FEHLER	6710	1	!	1312	1	!	-1	0	0	0
2024-06-12	13:03:14	13:07:45	270719	6.6.1	4_exp_EVA_AWA_CON	85	B	A	Rpleas_acq	Same	Rpleas	1pleas	acq_new_unple_nomask	acq2_nomask	2	2	480	0	300	300	0	0	1437	46	1	0	retten	freundlich	lachen	schön	ehrlich	helfen	rächen	fanatisch	leiden	schlecht	eitel	hindern	schlau	loyal	treu	fair	tolerant	spielen	schroff	lasch	tot	faul	tyrannisch	strafen	1	blank2r.bmp	0	1	+	0	1	blank2r.bmp	500	2	B2r.bmp	500	1	blank2r.bmp	880	2	lasch	880	1	!	1312	1	!	-1	0	0	0	0	0	0
2024-06-12	13:03:14	13:07:48	273391	6.6.1	4_exp_EVA_AWA_CON	85	B	A	Rpleas_acq	Same	Rpleas	1pleas	acq_new_unple_nomask	acq2_nomask	2	3	480	0	300	300	0	0	897	46	1	0	retten	freundlich	lachen	schön	ehrlich	helfen	rächen	fanatisch	leiden	schlecht	eitel	hindern	schlau	loyal	treu	fair	tolerant	spielen	schroff	lasch	tot	faul	tyrannisch	strafen	1	blank2r.bmp	0	1	+	0	1	blank2r.bmp	500	1	B1r.bmp	500	1	blank2r.bmp	880	4	faul	880	1	!	1313	1	!	-1	0	0	0	0	0	0
2024-06-12	13:03:14	13:07:51	276202	6.6.1	4_exp_EVA_AWA_CON	85	B	A	Rpleas_acq	Same	Rpleas	1pleas	acq_US_unple_nomask	acq2_nomask	2	4	480	0	300	300	0	0	834	50	0	0	retten	freundlich	lachen	schön	ehrlich	helfen	rächen	fanatisch	leiden	schlecht	eitel	hindern	schlau	loyal	treu	fair	tolerant	spielen	schroff	lasch	tot	faul	tyrannisch	strafen	1	blank2r.bmp	0	1	+	0	1	blank2r.bmp	500	1	GKQX	500	1	blank2r.bmp	880	2	fanatisch	880	1	FEHLER	2027	1	!	1313	1	!	-1	0	0	0
2024-06-12	13:03:14	13:07:53	278608	6.6.1	4_exp_EVA_AWA_CON	85	B	A	Rpleas_acq	Same	Rpleas	1pleas	acq_new_pleas_nomask	acq2_nomask	2	5	480	0	300	300	0	0	830	50	1	0	retten	freundlich	lachen	schön	ehrlich	helfen	rächen	fanatisch	leiden	schlecht	eitel	hindern	schlau	loyal	treu	fair	tolerant	spielen	schroff	lasch	tot	faul	tyrannisch	strafen	1	blank2r.bmp	0	1	+	0	1	blank2r.bmp	500	7	C3r.bmp	500	1	blank2r.bmp	880	6	spielen	880	1	!	1312	1	!	-1	0	0	0	0	0	0
2024-06-12	13:03:14	13:07:56	281183	6.6.1	4_exp_EVA_AWA_CON	85	B	A	Rpleas_acq	Same	Rpleas	1pleas	acq_new_pleas_nomask	acq2_nomask	2	6	480	0	300	300	0	0	794	50	1	0	retten	freundlich	lachen	schön	ehrlich	helfen	rächen	fanatisch	leiden	schlecht	eitel	hindern	schlau	loyal	treu	fair	tolerant	spielen	schroff	lasch	tot	faul	tyrannisch	strafen	1	blank2r.bmp	0	1	+	0	1	blank2r.bmp	500	5	C1r.bmp	500	1	blank2r.bmp	880	5	tolerant	880	1	!	1313	1	!	-1	0	0	0	0	0	0
2024-06-12	13:03:14	13:07:58	283735	6.6.1	4_exp_EVA_AWA_CON	85	B	A	Rpleas_acq	Same	Rpleas	1pleas	acq_new_pleas_nomask	acq2_nomask	2	7	480	0	300	300	0	0	775	50	1	0	retten	freundlich	lachen	schön	ehrlich	helfen	rächen	fanatisch	leiden	schlecht	eitel	hindern	schlau	loyal	treu	fair	tolerant	spielen	schroff	lasch	tot	faul	tyrannisch	strafen	1	blank2r.bmp	0	1	+	0	1	blank2r.bmp	500	4	B4r.bmp	500	1	blank2r.bmp	880	4	fair	880	1	!	1312	1	!	-1	0	0	0	0	0	0
2024-06-12	13:03:14	13:08:01	286199	6.6.1	4_exp_EVA_AWA_CON	85	B	A	Rpleas_acq	Same	Rpleas	1pleas	acq_new_unple_nomask	acq2_nomask	2	8	480	0	300	300	0	0	687	46	1	0	retten	freundlich	lachen	schön	ehrlich	helfen	rächen	fanatisch	leiden	schlecht	eitel	hindern	schlau	loyal	treu	fair	tolerant	spielen	schroff	lasch	tot	faul	tyrannisch	strafen	1	blank2r.bmp	0	1	+	0	1	blank2r.bmp	500	6	C2r.bmp	500	1	blank2r.bmp	880	1	schroff	880	1	!	1312	1	!	-1	0	0	0	0	0	0
2024-06-12	13:03:14	13:08:03	288744	6.6.1	4_exp_EVA_AWA_CON	85	B	A	Rpleas_acq	Same	Rpleas	1pleas	acq_US_pleas_nomask	acq2_nomask	2	9	480	0	300	300	0	0	769	50	1	0	retten	freundlich	lachen	schön	ehrlich	helfen	rächen	fanatisch	leiden	schlecht	eitel	hindern	schlau	loyal	treu	fair	tolerant	spielen	schroff	lasch	tot	faul	tyrannisch	strafen	1	blank2r.bmp	0	1	+	0	1	blank2r.bmp	500	1	BMVZ	500	1	blank2r.bmp	880	1	retten	880	1	!	1312	1	!	-1	0	0	0	0	0	0
2024-06-12	13:03:14	13:08:06	291127	6.6.1	4_exp_EVA_AWA_CON	85	B	A	Rpleas_acq	Same	Rpleas	1pleas	acq_US_pleas_nomask	acq2_nomask	2	10	480	0	300	300	0	0	602	50	1	0	retten	freundlich	lachen	schön	ehrlich	helfen	rächen	fanatisch	leiden	schlecht	eitel	hindern	schlau	loyal	treu	fair	tolerant	spielen	schroff	lasch	tot	faul	tyrannisch	strafen	1	blank2r.bmp	0	1	+	0	1	blank2r.bmp	500	1	BMVZ	500	1	blank2r.bmp	880	5	ehrlich	880	1	!	1313	1	!	-1	0	0	0	0	0	0
2024-06-12	13:03:14	13:08:08	293567	6.6.1	4_exp_EVA_AWA_CON	85	B	A	Rpleas_acq	Same	Rpleas	1pleas	acq_US_pleas_nomask	acq2_nomask	2	11	480	0	300	300	0	0	660	50	1	0	retten	freundlich	lachen	schön	ehrlich	helfen	rächen	fanatisch	leiden	schlecht	eitel	hindern	schlau	loyal	treu	fair	tolerant	spielen	schroff	lasch	tot	faul	tyrannisch	strafen	1	blank2r.bmp	0	1	+	0	1	blank2r.bmp	500	1	BMVZ	500	1	blank2r.bmp	880	4	schön	880	1	!	1313	1	!	-1	0	0	0	0	0	0
2024-06-12	13:03:14	13:08:10	295959	6.6.1	4_exp_EVA_AWA_CON	85	B	A	Rpleas_acq	Same	Rpleas	1pleas	acq_US_unple_nomask	acq2_nomask	2	12	480	0	300	300	0	0	611	46	1	0	retten	freundlich	lachen	schön	ehrlich	helfen	rächen	fanatisch	leiden	schlecht	eitel	hindern	schlau	loyal	treu	fair	tolerant	spielen	schroff	lasch	tot	faul	tyrannisch	strafen	1	blank2r.bmp	0	1	+	0	1	blank2r.bmp	500	1	GKQX	500	1	blank2r.bmp	880	3	leiden	880	1	!	1313	1	!	-1	0	0	0	0	0	0
2024-06-12	13:03:14	13:08:13	298447	6.6.1	4_exp_EVA_AWA_CON	85	B	A	Rpleas_acq	Same	Rpleas	1pleas	acq_new_pleas_nomask	acq2_nomask	2	13	480	0	300	300	0	0	707	50	1	0	retten	freundlich	lachen	schön	ehrlich	helfen	rächen	fanatisch	leiden	schlecht	eitel	hindern	schlau	loyal	treu	fair	tolerant	spielen	schroff	lasch	tot	faul	tyrannisch	strafen	1	blank2r.bmp	0	1	+	0	1	blank2r.bmp	500	2	B2r.bmp	500	1	blank2r.bmp	880	3	treu	880	1	!	1313	1	!	-1	0	0	0	0	0	0
2024-06-12	13:03:14	13:08:15	300815	6.6.1	4_exp_EVA_AWA_CON	85	B	A	Rpleas_acq	Same	Rpleas	1pleas	acq_new_unple_nomask	acq2_nomask	2	14	480	0	300	300	0	0	594	46	1	0	retten	freundlich	lachen	schön	ehrlich	helfen	rächen	fanatisch	leiden	schlecht	eitel	hindern	schlau	loyal	treu	fair	tolerant	spielen	schroff	lasch	tot	faul	tyrannisch	strafen	1	blank2r.bmp	0	1	+	0	1	blank2r.bmp	500	8	C4r.bmp	500	1	blank2r.bmp	880	6	strafen	880	1	!	1313	1	!	-1	0	0	0	0	0	0
2024-06-12	13:03:14	13:08:18	303327	6.6.1	4_exp_EVA_AWA_CON	85	B	A	Rpleas_acq	Same	Rpleas	1pleas	acq_US_pleas_nomask	acq2_nomask	2	15	480	0	300	300	0	0	734	50	1	0	retten	freundlich	lachen	schön	ehrlich	helfen	rächen	fanatisch	leiden	schlecht	eitel	hindern	schlau	loyal	treu	fair	tolerant	spielen	schroff	lasch	tot	faul	tyrannisch	strafen	1	blank2r.bmp	0	1	+	0	1	blank2r.bmp	500	1	BMVZ	500	1	blank2r.bmp	880	5	ehrlich	880	1	!	1312	1	!	-1	0	0	0	0	0	0
2024-06-12	13:03:14	13:08:20	305959	6.6.1	4_exp_EVA_AWA_CON	85	B	A	Rpleas_acq	Same	Rpleas	1pleas	acq_new_pleas_nomask	acq2_nomask	2	16	480	0	300	300	0	0	854	50	1	0	retten	freundlich	lachen	schön	ehrlich	helfen	rächen	fanatisch	leiden	schlecht	eitel	hindern	schlau	loyal	treu	fair	tolerant	spielen	schroff	lasch	tot	faul	tyrannisch	strafen	1	blank2r.bmp	0	1	+	0	1	blank2r.bmp	500	5	C1r.bmp	500	1	blank2r.bmp	880	4	fair	880	1	!	1312	1	!	-1	0	0	0	0	0	0
2024-06-12	13:03:14	13:08:23	308511	6.6.1	4_exp_EVA_AWA_CON	85	B	A	Rpleas_acq	Same	Rpleas	1pleas	acq_US_unple_nomask	acq2_nomask	2	17	480	0	300	300	0	0	775	46	1	0	retten	freundlich	lachen	schön	ehrlich	helfen	rächen	fanatisch	leiden	schlecht	eitel	hindern	schlau	loyal	treu	fair	tolerant	spielen	schroff	lasch	tot	faul	tyrannisch	strafen	1	blank2r.bmp	0	1	+	0	1	blank2r.bmp	500	1	GKQX	500	1	blank2r.bmp	880	1	rächen	880	1	!	1313	1	!	-1	0	0	0	0	0	0
2024-06-12	13:03:14	13:08:25	311023	6.6.1	4_exp_EVA_AWA_CON	85	B	A	Rpleas_acq	Same	Rpleas	1pleas	acq_new_unple_nomask	acq2_nomask	2	18	480	0	300	300	0	0	735	46	1	0	retten	freundlich	lachen	schön	ehrlich	helfen	rächen	fanatisch	leiden	schlecht	eitel	hindern	schlau	loyal	treu	fair	tolerant	spielen	schroff	lasch	tot	faul	tyrannisch	strafen	1	blank2r.bmp	0	1	+	0	1	blank2r.bmp	500	6	C2r.bmp	500	1	blank2r.bmp	880	1	schroff	880	1	!	1312	1	!	-1	0	0	0	0	0	0
2024-06-12	13:03:14	13:08:28	313895	6.6.1	4_exp_EVA_AWA_CON	85	B	A	Rpleas_acq	Same	Rpleas	1pleas	acq_new_unple_nomask	acq2_nomask	2	19	480	0	300	300	0	0	1096	46	1	0	retten	freundlich	lachen	schön	ehrlich	helfen	rächen	fanatisch	leiden	schlecht	eitel	hindern	schlau	loyal	treu	fair	tolerant	spielen	schroff	lasch	tot	faul	tyrannisch	strafen	1	blank2r.bmp	0	1	+	0	1	blank2r.bmp	500	7	C3r.bmp	500	1	blank2r.bmp	880	4	faul	880	1	!	1312	1	!	-1	0	0	0	0	0	0
2024-06-12	13:03:14	13:08:31	316711	6.6.1	4_exp_EVA_AWA_CON	85	B	A	Rpleas_acq	Same	Rpleas	1pleas	acq_US_pleas_nomask	acq2_nomask	2	20	480	0	300	300	0	0	1040	50	1	0	retten	freundlich	lachen	schön	ehrlich	helfen	rächen	fanatisch	leiden	schlecht	eitel	hindern	schlau	loyal	treu	fair	tolerant	spielen	schroff	lasch	tot	faul	tyrannisch	strafen	1	blank2r.bmp	0	1	+	0	1	blank2r.bmp	500	1	BMVZ	500	1	blank2r.bmp	880	1	retten	880	1	!	1312	1	!	-1	0	0	0	0	0	0
2024-06-12	13:03:14	13:08:34	319769	6.6.1	4_exp_EVA_AWA_CON	85	B	A	Rpleas_acq	Same	Rpleas	1pleas	acq_US_unple_nomask	acq2_nomask	2	21	480	0	300	300	0	0	1074	50	0	0	retten	freundlich	lachen	schön	ehrlich	helfen	rächen	fanatisch	leiden	schlecht	eitel	hindern	schlau	loyal	treu	fair	tolerant	spielen	schroff	lasch	tot	faul	tyrannisch	strafen	1	blank2r.bmp	0	1	+	0	1	blank2r.bmp	500	1	GKQX	500	1	blank2r.bmp	880	2	fanatisch	880	1	FEHLER	2267	1	!	1312	1	!	-1	0	0	0
2024-06-12	13:03:14	13:08:37	322863	6.6.1	4_exp_EVA_AWA_CON	85	B	A	Rpleas_acq	Same	Rpleas	1pleas	acq_new_pleas_nomask	acq2_nomask	2	22	480	0	300	300	0	0	1518	50	1	0	retten	freundlich	lachen	schön	ehrlich	helfen	rächen	fanatisch	leiden	schlecht	eitel	hindern	schlau	loyal	treu	fair	tolerant	spielen	schroff	lasch	tot	faul	tyrannisch	strafen	1	blank2r.bmp	0	1	+	0	1	blank2r.bmp	500	3	B3r.bmp	500	1	blank2r.bmp	880	2	loyal	880	1	!	1313	1	!	-1	0	0	0	0	0	0
2024-06-12	13:03:14	13:08:40	325399	6.6.1	4_exp_EVA_AWA_CON	85	B	A	Rpleas_acq	Same	Rpleas	1pleas	acq_US_pleas_nomask	acq2_nomask	2	23	480	0	300	300	0	0	762	50	1	0	retten	freundlich	lachen	schön	ehrlich	helfen	rächen	fanatisch	leiden	schlecht	eitel	hindern	schlau	loyal	treu	fair	tolerant	spielen	schroff	lasch	tot	faul	tyrannisch	strafen	1	blank2r.bmp	0	1	+	0	1	blank2r.bmp	500	1	BMVZ	500	1	blank2r.bmp	880	2	freundlich	880	1	!	1312	1	!	-1	0	0	0	0	0	0
2024-06-12	13:03:14	13:08:43	328311	6.6.1	4_exp_EVA_AWA_CON	85	B	A	Rpleas_acq	Same	Rpleas	1pleas	acq_US_unple_nomask	acq2_nomask	2	24	480	0	300	300	0	0	1132	46	1	0	retten	freundlich	lachen	schön	ehrlich	helfen	rächen	fanatisch	leiden	schlecht	eitel	hindern	schlau	loyal	treu	fair	tolerant	spielen	schroff	lasch	tot	faul	tyrannisch	strafen	1	blank2r.bmp	0	1	+	0	1	blank2r.bmp	500	1	GKQX	500	1	blank2r.bmp	880	5	eitel	880	1	!	1312	1	!	-1	0	0	0	0	0	0
2024-06-12	13:03:14	13:08:45	330767	6.6.1	4_exp_EVA_AWA_CON	85	B	A	Rpleas_acq	Same	Rpleas	1pleas	acq_new_unple_nomask	acq2_nomask	2	25	480	0	300	300	0	0	676	46	1	0	retten	freundlich	lachen	schön	ehrlich	helfen	rächen	fanatisch	leiden	schlecht	eitel	hindern	schlau	loyal	treu	fair	tolerant	spielen	schroff	lasch	tot	faul	tyrannisch	strafen	1	blank2r.bmp	0	1	+	0	1	blank2r.bmp	500	4	B4r.bmp	500	1	blank2r.bmp	880	2	lasch	880	1	!	1313	1	!	-1	0	0	0	0	0	0
2024-06-12	13:03:14	13:08:48	333279	6.6.1	4_exp_EVA_AWA_CON	85	B	A	Rpleas_acq	Same	Rpleas	1pleas	acq_US_pleas_nomask	acq2_nomask	2	26	480	0	300	300	0	0	737	50	1	0	retten	freundlich	lachen	schön	ehrlich	helfen	rächen	fanatisch	leiden	schlecht	eitel	hindern	schlau	loyal	treu	fair	tolerant	spielen	schroff	lasch	tot	faul	tyrannisch	strafen	1	blank2r.bmp	0	1	+	0	1	blank2r.bmp	500	1	BMVZ	500	1	blank2r.bmp	880	6	helfen	880	1	!	1312	1	!	-1	0	0	0	0	0	0
2024-06-12	13:03:14	13:08:50	335751	6.6.1	4_exp_EVA_AWA_CON	85	B	A	Rpleas_acq	Same	Rpleas	1pleas	acq_new_unple_nomask	acq2_nomask	2	27	480	0	300	300	0	0	697	46	1	0	retten	freundlich	lachen	schön	ehrlich	helfen	rächen	fanatisch	leiden	schlecht	eitel	hindern	schlau	loyal	treu	fair	tolerant	spielen	schroff	lasch	tot	faul	tyrannisch	strafen	1	blank2r.bmp	0	1	+	0	1	blank2r.bmp	500	1	B1r.bmp	500	1	blank2r.bmp	880	3	tot	880	1	!	1312	1	!	-1	0	0	0	0	0	0
2024-06-12	13:03:14	13:08:53	338216	6.6.1	4_exp_EVA_AWA_CON	85	B	A	Rpleas_acq	Same	Rpleas	1pleas	acq_new_pleas_nomask	acq2_nomask	2	28	480	0	300	300	0	0	690	50	1	0	retten	freundlich	lachen	schön	ehrlich	helfen	rächen	fanatisch	leiden	schlecht	eitel	hindern	schlau	loyal	treu	fair	tolerant	spielen	schroff	lasch	tot	faul	tyrannisch	strafen	1	blank2r.bmp	0	1	+	0	1	blank2r.bmp	500	6	C2r.bmp	500	1	blank2r.bmp	880	6	spielen	880	1	!	1312	1	!	-1	0	0	0	0	0	0
2024-06-12	13:03:14	13:08:55	340695	6.6.1	4_exp_EVA_AWA_CON	85	B	A	Rpleas_acq	Same	Rpleas	1pleas	acq_US_pleas_nomask	acq2_nomask	2	29	480	0	300	300	0	0	698	50	1	0	retten	freundlich	lachen	schön	ehrlich	helfen	rächen	fanatisch	leiden	schlecht	eitel	hindern	schlau	loyal	treu	fair	tolerant	spielen	schroff	lasch	tot	faul	tyrannisch	strafen	1	blank2r.bmp	0	1	+	0	1	blank2r.bmp	500	1	BMVZ	500	1	blank2r.bmp	880	3	lachen	880	1	!	1313	1	!	-1	0	0	0	0	0	0
2024-06-12	13:03:14	13:08:58	343319	6.6.1	4_exp_EVA_AWA_CON	85	B	A	Rpleas_acq	Same	Rpleas	1pleas	acq_new_unple_nomask	acq2_nomask	2	30	480	0	300	300	0	0	850	46	1	0	retten	freundlich	lachen	schön	ehrlich	helfen	rächen	fanatisch	leiden	schlecht	eitel	hindern	schlau	loyal	treu	fair	tolerant	spielen	schroff	lasch	tot	faul	tyrannisch	strafen	1	blank2r.bmp	0	1	+	0	1	blank2r.bmp	500	1	B1r.bmp	500	1	blank2r.bmp	880	5	tyrannisch	880	1	!	1313	1	!	-1	0	0	0	0	0	0
2024-06-12	13:03:14	13:09:00	345887	6.6.1	4_exp_EVA_AWA_CON	85	B	A	Rpleas_acq	Same	Rpleas	1pleas	acq_new_pleas_nomask	acq2_nomask	2	31	480	0	300	300	0	0	787	50	1	0	retten	freundlich	lachen	schön	ehrlich	helfen	rächen	fanatisch	leiden	schlecht	eitel	hindern	schlau	loyal	treu	fair	tolerant	spielen	schroff	lasch	tot	faul	tyrannisch	strafen	1	blank2r.bmp	0	1	+	0	1	blank2r.bmp	500	8	C4r.bmp	500	1	blank2r.bmp	880	5	tolerant	880	1	!	1312	1	!	-1	0	0	0	0	0	0
2024-06-12	13:03:14	13:09:03	348295	6.6.1	4_exp_EVA_AWA_CON	85	B	A	Rpleas_acq	Same	Rpleas	1pleas	acq_US_unple_nomask	acq2_nomask	2	32	480	0	300	300	0	0	633	46	1	0	retten	freundlich	lachen	schön	ehrlich	helfen	rächen	fanatisch	leiden	schlecht	eitel	hindern	schlau	loyal	treu	fair	tolerant	spielen	schroff	lasch	tot	faul	tyrannisch	strafen	1	blank2r.bmp	0	1	+	0	1	blank2r.bmp	500	1	GKQX	500	1	blank2r.bmp	880	3	leiden	880	1	!	1312	1	!	-1	0	0	0	0	0	0
2024-06-12	13:03:14	13:09:05	350679	6.6.1	4_exp_EVA_AWA_CON	85	B	A	Rpleas_acq	Same	Rpleas	1pleas	acq_US_unple_nomask	acq2_nomask	2	33	480	0	300	300	0	0	606	46	1	0	retten	freundlich	lachen	schön	ehrlich	helfen	rächen	fanatisch	leiden	schlecht	eitel	hindern	schlau	loyal	treu	fair	tolerant	spielen	schroff	lasch	tot	faul	tyrannisch	strafen	1	blank2r.bmp	0	1	+	0	1	blank2r.bmp	500	1	GKQX	500	1	blank2r.bmp	880	4	schlecht	880	1	!	1313	1	!	-1	0	0	0	0	0	0
2024-06-12	13:03:14	13:09:08	353383	6.6.1	4_exp_EVA_AWA_CON	85	B	A	Rpleas_acq	Same	Rpleas	1pleas	acq_US_unple_nomask	acq2_nomask	2	34	480	0	300	300	0	0	928	46	1	0	retten	freundlich	lachen	schön	ehrlich	helfen	rächen	fanatisch	leiden	schlecht	eitel	hindern	schlau	loyal	treu	fair	tolerant	spielen	schroff	lasch	tot	faul	tyrannisch	strafen	1	blank2r.bmp	0	1	+	0	1	blank2r.bmp	500	1	GKQX	500	1	blank2r.bmp	880	6	hindern	880	1	!	1313	1	!	-1	0	0	0	0	0	0
2024-06-12	13:03:14	13:09:10	355767	6.6.1	4_exp_EVA_AWA_CON	85	B	A	Rpleas_acq	Same	Rpleas	1pleas	acq_US_pleas_nomask	acq2_nomask	2	35	480	0	300	300	0	0	610	50	1	0	retten	freundlich	lachen	schön	ehrlich	helfen	rächen	fanatisch	leiden	schlecht	eitel	hindern	schlau	loyal	treu	fair	tolerant	spielen	schroff	lasch	tot	faul	tyrannisch	strafen	1	blank2r.bmp	0	1	+	0	1	blank2r.bmp	500	1	BMVZ	500	1	blank2r.bmp	880	4	schön	880	1	!	1312	1	!	-1	0	0	0	0	0	0
2024-06-12	13:03:14	13:09:13	358567	6.6.1	4_exp_EVA_AWA_CON	85	B	A	Rpleas_acq	Same	Rpleas	1pleas	acq_new_pleas_nomask	acq2_nomask	2	36	480	0	300	300	0	0	1019	50	1	0	retten	freundlich	lachen	schön	ehrlich	helfen	rächen	fanatisch	leiden	schlecht	eitel	hindern	schlau	loyal	treu	fair	tolerant	spielen	schroff	lasch	tot	faul	tyrannisch	strafen	1	blank2r.bmp	0	1	+	0	1	blank2r.bmp	500	2	B2r.bmp	500	1	blank2r.bmp	880	1	schlau	880	1	!	1312	1	!	-1	0	0	0	0	0	0
2024-06-12	13:03:14	13:09:34	379607	6.6.1	4_exp_EVA_AWA_CON	85	B	A	Rpleas_acq	Same	Rpleas	1pleas	acq_US_pleas_nomask	acq3_nomask	3	1	453	0	300	300	0	0	1085	50	1	0	retten	freundlich	lachen	schön	ehrlich	helfen	rächen	fanatisch	leiden	schlecht	eitel	hindern	schlau	loyal	treu	fair	tolerant	spielen	schroff	lasch	tot	faul	tyrannisch	strafen	1	blank2r.bmp	0	1	+	0	1	blank2r.bmp	500	1	BMVZ	500	1	blank2r.bmp	880	6	helfen	880	1	!	1292	1	!	-1	0	0	0	0	0	0
2024-06-12	13:03:14	13:09:36	382079	6.6.1	4_exp_EVA_AWA_CON	85	B	A	Rpleas_acq	Same	Rpleas	1pleas	acq_US_pleas_nomask	acq3_nomask	3	2	453	0	300	300	0	0	696	50	1	0	retten	freundlich	lachen	schön	ehrlich	helfen	rächen	fanatisch	leiden	schlecht	eitel	hindern	schlau	loyal	treu	fair	tolerant	spielen	schroff	lasch	tot	faul	tyrannisch	strafen	1	blank2r.bmp	0	1	+	0	1	blank2r.bmp	500	1	BMVZ	500	1	blank2r.bmp	880	3	lachen	880	1	!	1292	1	!	-1	0	0	0	0	0	0
2024-06-12	13:03:14	13:09:39	384439	6.6.1	4_exp_EVA_AWA_CON	85	B	A	Rpleas_acq	Same	Rpleas	1pleas	acq_US_pleas_nomask	acq3_nomask	3	3	453	0	300	300	0	0	584	50	1	0	retten	freundlich	lachen	schön	ehrlich	helfen	rächen	fanatisch	leiden	schlecht	eitel	hindern	schlau	loyal	treu	fair	tolerant	spielen	schroff	lasch	tot	faul	tyrannisch	strafen	1	blank2r.bmp	0	1	+	0	1	blank2r.bmp	500	1	BMVZ	500	1	blank2r.bmp	880	4	schön	880	1	!	1293	1	!	-1	0	0	0	0	0	0
2024-06-12	13:03:14	13:09:41	386911	6.6.1	4_exp_EVA_AWA_CON	85	B	A	Rpleas_acq	Same	Rpleas	1pleas	acq_US_unple_nomask	acq3_nomask	3	4	453	0	300	300	0	0	694	46	1	0	retten	freundlich	lachen	schön	ehrlich	helfen	rächen	fanatisch	leiden	schlecht	eitel	hindern	schlau	loyal	treu	fair	tolerant	spielen	schroff	lasch	tot	faul	tyrannisch	strafen	1	blank2r.bmp	0	1	+	0	1	blank2r.bmp	500	1	GKQX	500	1	blank2r.bmp	880	3	leiden	880	1	!	1293	1	!	-1	0	0	0	0	0	0
2024-06-12	13:03:14	13:09:44	389487	6.6.1	4_exp_EVA_AWA_CON	85	B	A	Rpleas_acq	Same	Rpleas	1pleas	acq_US_pleas_nomask	acq3_nomask	3	5	453	0	300	300	0	0	799	50	1	0	retten	freundlich	lachen	schön	ehrlich	helfen	rächen	fanatisch	leiden	schlecht	eitel	hindern	schlau	loyal	treu	fair	tolerant	spielen	schroff	lasch	tot	faul	tyrannisch	strafen	1	blank2r.bmp	0	1	+	0	1	blank2r.bmp	500	1	BMVZ	500	1	blank2r.bmp	880	2	freundlich	880	1	!	1293	1	!	-1	0	0	0	0	0	0
2024-06-12	13:03:14	13:09:46	392015	6.6.1	4_exp_EVA_AWA_CON	85	B	A	Rpleas_acq	Same	Rpleas	1pleas	acq_US_unple_nomask	acq3_nomask	3	6	453	0	300	300	0	0	755	46	1	0	retten	freundlich	lachen	schön	ehrlich	helfen	rächen	fanatisch	leiden	schlecht	eitel	hindern	schlau	loyal	treu	fair	tolerant	spielen	schroff	lasch	tot	faul	tyrannisch	strafen	1	blank2r.bmp	0	1	+	0	1	blank2r.bmp	500	1	GKQX	500	1	blank2r.bmp	880	2	fanatisch	880	1	!	1293	1	!	-1	0	0	0	0	0	0
2024-06-12	13:03:14	13:09:49	394399	6.6.1	4_exp_EVA_AWA_CON	85	B	A	Rpleas_acq	Same	Rpleas	1pleas	acq_US_unple_nomask	acq3_nomask	3	7	453	0	300	300	0	0	608	46	1	0	retten	freundlich	lachen	schön	ehrlich	helfen	rächen	fanatisch	leiden	schlecht	eitel	hindern	schlau	loyal	treu	fair	tolerant	spielen	schroff	lasch	tot	faul	tyrannisch	strafen	1	blank2r.bmp	0	1	+	0	1	blank2r.bmp	500	1	GKQX	500	1	blank2r.bmp	880	4	schlecht	880	1	!	1292	1	!	-1	0	0	0	0	0	0
2024-06-12	13:03:14	13:09:51	396767	6.6.1	4_exp_EVA_AWA_CON	85	B	A	Rpleas_acq	Same	Rpleas	1pleas	acq_US_unple_nomask	acq3_nomask	3	8	453	0	300	300	0	0	594	46	1	0	retten	freundlich	lachen	schön	ehrlich	helfen	rächen	fanatisch	leiden	schlecht	eitel	hindern	schlau	loyal	treu	fair	tolerant	spielen	schroff	lasch	tot	faul	tyrannisch	strafen	1	blank2r.bmp	0	1	+	0	1	blank2r.bmp	500	1	GKQX	500	1	blank2r.bmp	880	5	eitel	880	1	!	1293	1	!	-1	0	0	0	0	0	0
2024-06-12	13:03:14	13:09:54	399247	6.6.1	4_exp_EVA_AWA_CON	85	B	A	Rpleas_acq	Same	Rpleas	1pleas	acq_US_unple_nomask	acq3_nomask	3	9	453	0	300	300	0	0	703	46	1	0	retten	freundlich	lachen	schön	ehrlich	helfen	rächen	fanatisch	leiden	schlecht	eitel	hindern	schlau	loyal	treu	fair	tolerant	spielen	schroff	lasch	tot	faul	tyrannisch	strafen	1	blank2r.bmp	0	1	+	0	1	blank2r.bmp	500	1	GKQX	500	1	blank2r.bmp	880	1	rächen	880	1	!	1292	1	!	-1	0	0	0	0	0	0
2024-06-12	13:03:14	13:09:56	401575	6.6.1	4_exp_EVA_AWA_CON	85	B	A	Rpleas_acq	Same	Rpleas	1pleas	acq_US_pleas_nomask	acq3_nomask	3	10	453	0	300	300	0	0	549	50	1	0	retten	freundlich	lachen	schön	ehrlich	helfen	rächen	fanatisch	leiden	schlecht	eitel	hindern	schlau	loyal	treu	fair	tolerant	spielen	schroff	lasch	tot	faul	tyrannisch	strafen	1	blank2r.bmp	0	1	+	0	1	blank2r.bmp	500	1	BMVZ	500	1	blank2r.bmp	880	5	ehrlich	880	1	!	1293	1	!	-1	0	0	0	0	0	0
2024-06-12	13:03:14	13:09:59	404103	6.6.1	4_exp_EVA_AWA_CON	85	B	A	Rpleas_acq	Same	Rpleas	1pleas	acq_US_unple_nomask	acq3_nomask	3	11	453	0	300	300	0	0	745	46	1	0	retten	freundlich	lachen	schön	ehrlich	helfen	rächen	fanatisch	leiden	schlecht	eitel	hindern	schlau	loyal	treu	fair	tolerant	spielen	schroff	lasch	tot	faul	tyrannisch	strafen	1	blank2r.bmp	0	1	+	0	1	blank2r.bmp	500	1	GKQX	500	1	blank2r.bmp	880	6	hindern	880	1	!	1292	1	!	-1	0	0	0	0	0	0
2024-06-12	13:03:14	13:10:01	406767	6.6.1	4_exp_EVA_AWA_CON	85	B	A	Rpleas_acq	Same	Rpleas	1pleas	acq_US_pleas_nomask	acq3_nomask	3	12	453	0	300	300	0	0	888	50	1	0	retten	freundlich	lachen	schön	ehrlich	helfen	rächen	fanatisch	leiden	schlecht	eitel	hindern	schlau	loyal	treu	fair	tolerant	spielen	schroff	lasch	tot	faul	tyrannisch	strafen	1	blank2r.bmp	0	1	+	0	1	blank2r.bmp	500	1	BMVZ	500	1	blank2r.bmp	880	1	retten	880	1	!	1292	1	!	-1	0	0	0	0	0	0
2024-06-12	13:03:14	13:10:04	409375	6.6.1	4_exp_EVA_AWA_CON	85	B	A	Rpleas_acq	Same	Rpleas	1pleas	acq_US_pleas_nomask	acq3_nomask	3	13	453	0	300	300	0	0	834	50	1	0	retten	freundlich	lachen	schön	ehrlich	helfen	rächen	fanatisch	leiden	schlecht	eitel	hindern	schlau	loyal	treu	fair	tolerant	spielen	schroff	lasch	tot	faul	tyrannisch	strafen	1	blank2r.bmp	0	1	+	0	1	blank2r.bmp	500	1	BMVZ	500	1	blank2r.bmp	880	3	lachen	880	1	!	1292	1	!	-1	0	0	0	0	0	0
2024-06-12	13:03:14	13:10:06	411839	6.6.1	4_exp_EVA_AWA_CON	85	B	A	Rpleas_acq	Same	Rpleas	1pleas	acq_US_unple_nomask	acq3_nomask	3	14	453	0	300	300	0	0	686	46	1	0	retten	freundlich	lachen	schön	ehrlich	helfen	rächen	fanatisch	leiden	schlecht	eitel	hindern	schlau	loyal	treu	fair	tolerant	spielen	schroff	lasch	tot	faul	tyrannisch	strafen	1	blank2r.bmp	0	1	+	0	1	blank2r.bmp	500	1	GKQX	500	1	blank2r.bmp	880	3	leiden	880	1	!	1293	1	!	-1	0	0	0	0	0	0
2024-06-12	13:03:14	13:10:09	414183	6.6.1	4_exp_EVA_AWA_CON	85	B	A	Rpleas_acq	Same	Rpleas	1pleas	acq_US_pleas_nomask	acq3_nomask	3	15	453	0	300	300	0	0	569	50	1	0	retten	freundlich	lachen	schön	ehrlich	helfen	rächen	fanatisch	leiden	schlecht	eitel	hindern	schlau	loyal	treu	fair	tolerant	spielen	schroff	lasch	tot	faul	tyrannisch	strafen	1	blank2r.bmp	0	1	+	0	1	blank2r.bmp	500	1	BMVZ	500	1	blank2r.bmp	880	5	ehrlich	880	1	!	1292	1	!	-1	0	0	0	0	0	0
2024-06-12	13:03:14	13:10:11	416639	6.6.1	4_exp_EVA_AWA_CON	85	B	A	Rpleas_acq	Same	Rpleas	1pleas	acq_US_unple_nomask	acq3_nomask	3	16	453	0	300	300	0	0	683	46	1	0	retten	freundlich	lachen	schön	ehrlich	helfen	rächen	fanatisch	leiden	schlecht	eitel	hindern	schlau	loyal	treu	fair	tolerant	spielen	schroff	lasch	tot	faul	tyrannisch	strafen	1	blank2r.bmp	0	1	+	0	1	blank2r.bmp	500	1	GKQX	500	1	blank2r.bmp	880	4	schlecht	880	1	!	1293	1	!	-1	0	0	0	0	0	0
2024-06-12	13:03:14	13:10:13	419031	6.6.1	4_exp_EVA_AWA_CON	85	B	A	Rpleas_acq	Same	Rpleas	1pleas	acq_US_unple_nomask	acq3_nomask	3	17	453	0	300	300	0	0	614	46	1	0	retten	freundlich	lachen	schön	ehrlich	helfen	rächen	fanatisch	leiden	schlecht	eitel	hindern	schlau	loyal	treu	fair	tolerant	spielen	schroff	lasch	tot	faul	tyrannisch	strafen	1	blank2r.bmp	0	1	+	0	1	blank2r.bmp	500	1	GKQX	500	1	blank2r.bmp	880	5	eitel	880	1	!	1292	1	!	-1	0	0	0	0	0	0
2024-06-12	13:03:14	13:10:16	421607	6.6.1	4_exp_EVA_AWA_CON	85	B	A	Rpleas_acq	Same	Rpleas	1pleas	acq_US_unple_nomask	acq3_nomask	3	18	453	0	300	300	0	0	798	46	1	0	retten	freundlich	lachen	schön	ehrlich	helfen	rächen	fanatisch	leiden	schlecht	eitel	hindern	schlau	loyal	treu	fair	tolerant	spielen	schroff	lasch	tot	faul	tyrannisch	strafen	1	blank2r.bmp	0	1	+	0	1	blank2r.bmp	500	1	GKQX	500	1	blank2r.bmp	880	1	rächen	880	1	!	1292	1	!	-1	0	0	0	0	0	0
2024-06-12	13:03:14	13:10:19	424255	6.6.1	4_exp_EVA_AWA_CON	85	B	A	Rpleas_acq	Same	Rpleas	1pleas	acq_US_pleas_nomask	acq3_nomask	3	19	453	0	300	300	0	0	875	50	1	0	retten	freundlich	lachen	schön	ehrlich	helfen	rächen	fanatisch	leiden	schlecht	eitel	hindern	schlau	loyal	treu	fair	tolerant	spielen	schroff	lasch	tot	faul	tyrannisch	strafen	1	blank2r.bmp	0	1	+	0	1	blank2r.bmp	500	1	BMVZ	500	1	blank2r.bmp	880	4	schön	880	1	!	1292	1	!	-1	0	0	0	0	0	0
2024-06-12	13:03:14	13:10:22	427143	6.6.1	4_exp_EVA_AWA_CON	85	B	A	Rpleas_acq	Same	Rpleas	1pleas	acq_US_pleas_nomask	acq3_nomask	3	20	453	0	300	300	0	0	1111	50	1	0	retten	freundlich	lachen	schön	ehrlich	helfen	rächen	fanatisch	leiden	schlecht	eitel	hindern	schlau	loyal	treu	fair	tolerant	spielen	schroff	lasch	tot	faul	tyrannisch	strafen	1	blank2r.bmp	0	1	+	0	1	blank2r.bmp	500	1	BMVZ	500	1	blank2r.bmp	880	6	helfen	880	1	!	1293	1	!	-1	0	0	0	0	0	0
2024-06-12	13:03:14	13:10:24	429727	6.6.1	4_exp_EVA_AWA_CON	85	B	A	Rpleas_acq	Same	Rpleas	1pleas	acq_US_pleas_nomask	acq3_nomask	3	21	453	0	300	300	0	0	803	50	1	0	retten	freundlich	lachen	schön	ehrlich	helfen	rächen	fanatisch	leiden	schlecht	eitel	hindern	schlau	loyal	treu	fair	tolerant	spielen	schroff	lasch	tot	faul	tyrannisch	strafen	1	blank2r.bmp	0	1	+	0	1	blank2r.bmp	500	1	BMVZ	500	1	blank2r.bmp	880	1	retten	880	1	!	1292	1	!	-1	0	0	0	0	0	0
2024-06-12	13:03:14	13:10:27	432279	6.6.1	4_exp_EVA_AWA_CON	85	B	A	Rpleas_acq	Same	Rpleas	1pleas	acq_US_unple_nomask	acq3_nomask	3	22	453	0	300	300	0	0	773	46	1	0	retten	freundlich	lachen	schön	ehrlich	helfen	rächen	fanatisch	leiden	schlecht	eitel	hindern	schlau	loyal	treu	fair	tolerant	spielen	schroff	lasch	tot	faul	tyrannisch	strafen	1	blank2r.bmp	0	1	+	0	1	blank2r.bmp	500	1	GKQX	500	1	blank2r.bmp	880	6	hindern	880	1	!	1292	1	!	-1	0	0	0	0	0	0
2024-06-12	13:03:14	13:10:29	435055	6.6.1	4_exp_EVA_AWA_CON	85	B	A	Rpleas_acq	Same	Rpleas	1pleas	acq_US_pleas_nomask	acq3_nomask	3	23	453	0	300	300	0	0	998	50	1	0	retten	freundlich	lachen	schön	ehrlich	helfen	rächen	fanatisch	leiden	schlecht	eitel	hindern	schlau	loyal	treu	fair	tolerant	spielen	schroff	lasch	tot	faul	tyrannisch	strafen	1	blank2r.bmp	0	1	+	0	1	blank2r.bmp	500	1	BMVZ	500	1	blank2r.bmp	880	2	freundlich	880	1	!	1292	1	!	-1	0	0	0	0	0	0
2024-06-12	13:03:14	13:10:32	437735	6.6.1	4_exp_EVA_AWA_CON	85	B	A	Rpleas_acq	Same	Rpleas	1pleas	acq_US_unple_nomask	acq3_nomask	3	24	453	0	300	300	0	0	906	46	1	0	retten	freundlich	lachen	schön	ehrlich	helfen	rächen	fanatisch	leiden	schlecht	eitel	hindern	schlau	loyal	treu	fair	tolerant	spielen	schroff	lasch	tot	faul	tyrannisch	strafen	1	blank2r.bmp	0	1	+	0	1	blank2r.bmp	500	1	GKQX	500	1	blank2r.bmp	880	2	fanatisch	880	1	!	1292	1	!	-1	0	0	0	0	0	0
2024-06-12	13:03:14	13:10:35	440199	6.6.1	4_exp_EVA_AWA_CON	85	B	A	Rpleas_acq	Same	Rpleas	1pleas	acq_US_pleas_nomask	acq3_nomask	3	25	453	0	300	300	0	0	688	50	1	0	retten	freundlich	lachen	schön	ehrlich	helfen	rächen	fanatisch	leiden	schlecht	eitel	hindern	schlau	loyal	treu	fair	tolerant	spielen	schroff	lasch	tot	faul	tyrannisch	strafen	1	blank2r.bmp	0	1	+	0	1	blank2r.bmp	500	1	BMVZ	500	1	blank2r.bmp	880	4	schön	880	1	!	1292	1	!	-1	0	0	0	0	0	0
2024-06-12	13:03:14	13:10:37	442799	6.6.1	4_exp_EVA_AWA_CON	85	B	A	Rpleas_acq	Same	Rpleas	1pleas	acq_US_unple_nomask	acq3_nomask	3	26	453	0	300	300	0	0	827	46	1	0	retten	freundlich	lachen	schön	ehrlich	helfen	rächen	fanatisch	leiden	schlecht	eitel	hindern	schlau	loyal	treu	fair	tolerant	spielen	schroff	lasch	tot	faul	tyrannisch	strafen	1	blank2r.bmp	0	1	+	0	1	blank2r.bmp	500	1	GKQX	500	1	blank2r.bmp	880	2	fanatisch	880	1	!	1292	1	!	-1	0	0	0	0	0	0
2024-06-12	13:03:14	13:10:40	445127	6.6.1	4_exp_EVA_AWA_CON	85	B	A	Rpleas_acq	Same	Rpleas	1pleas	acq_US_pleas_nomask	acq3_nomask	3	27	453	0	300	300	0	0	553	50	1	0	retten	freundlich	lachen	schön	ehrlich	helfen	rächen	fanatisch	leiden	schlecht	eitel	hindern	schlau	loyal	treu	fair	tolerant	spielen	schroff	lasch	tot	faul	tyrannisch	strafen	1	blank2r.bmp	0	1	+	0	1	blank2r.bmp	500	1	BMVZ	500	1	blank2r.bmp	880	6	helfen	880	1	!	1292	1	!	-1	0	0	0	0	0	0
2024-06-12	13:03:14	13:10:42	447783	6.6.1	4_exp_EVA_AWA_CON	85	B	A	Rpleas_acq	Same	Rpleas	1pleas	acq_US_unple_nomask	acq3_nomask	3	28	453	0	300	300	0	0	877	46	1	0	retten	freundlich	lachen	schön	ehrlich	helfen	rächen	fanatisch	leiden	schlecht	eitel	hindern	schlau	loyal	treu	fair	tolerant	spielen	schroff	lasch	tot	faul	tyrannisch	strafen	1	blank2r.bmp	0	1	+	0	1	blank2r.bmp	500	1	GKQX	500	1	blank2r.bmp	880	4	schlecht	880	1	!	1292	1	!	-1	0	0	0	0	0	0
2024-06-12	13:03:14	13:10:45	450167	6.6.1	4_exp_EVA_AWA_CON	85	B	A	Rpleas_acq	Same	Rpleas	1pleas	acq_US_pleas_nomask	acq3_nomask	3	29	453	0	300	300	0	0	610	50	1	0	retten	freundlich	lachen	schön	ehrlich	helfen	rächen	fanatisch	leiden	schlecht	eitel	hindern	schlau	loyal	treu	fair	tolerant	spielen	schroff	lasch	tot	faul	tyrannisch	strafen	1	blank2r.bmp	0	1	+	0	1	blank2r.bmp	500	1	BMVZ	500	1	blank2r.bmp	880	5	ehrlich	880	1	!	1292	1	!	-1	0	0	0	0	0	0
2024-06-12	13:03:14	13:10:47	452511	6.6.1	4_exp_EVA_AWA_CON	85	B	A	Rpleas_acq	Same	Rpleas	1pleas	acq_US_unple_nomask	acq3_nomask	3	30	453	0	300	300	0	0	562	46	1	0	retten	freundlich	lachen	schön	ehrlich	helfen	rächen	fanatisch	leiden	schlecht	eitel	hindern	schlau	loyal	treu	fair	tolerant	spielen	schroff	lasch	tot	faul	tyrannisch	strafen	1	blank2r.bmp	0	1	+	0	1	blank2r.bmp	500	1	GKQX	500	1	blank2r.bmp	880	3	leiden	880	1	!	1292	1	!	-1	0	0	0	0	0	0
2024-06-12	13:03:14	13:10:50	455210	6.6.1	4_exp_EVA_AWA_CON	85	B	A	Rpleas_acq	Same	Rpleas	1pleas	acq_US_pleas_nomask	acq3_nomask	3	31	453	0	300	300	0	0	717	46	0	0	retten	freundlich	lachen	schön	ehrlich	helfen	rächen	fanatisch	leiden	schlecht	eitel	hindern	schlau	loyal	treu	fair	tolerant	spielen	schroff	lasch	tot	faul	tyrannisch	strafen	1	blank2r.bmp	0	1	+	0	1	blank2r.bmp	500	1	BMVZ	500	1	blank2r.bmp	880	1	retten	880	1	FEHLER	1910	1	!	1293	1	!	-1	0	0	0
2024-06-12	13:03:14	13:10:52	457423	6.6.1	4_exp_EVA_AWA_CON	85	B	A	Rpleas_acq	Same	Rpleas	1pleas	acq_US_unple_nomask	acq3_nomask	3	32	453	0	300	300	0	0	641	46	1	0	retten	freundlich	lachen	schön	ehrlich	helfen	rächen	fanatisch	leiden	schlecht	eitel	hindern	schlau	loyal	treu	fair	tolerant	spielen	schroff	lasch	tot	faul	tyrannisch	strafen	1	blank2r.bmp	0	1	+	0	1	blank2r.bmp	500	1	GKQX	500	1	blank2r.bmp	880	5	eitel	880	1	!	1292	1	!	-1	0	0	0	0	0	0
2024-06-12	13:03:14	13:10:55	460111	6.6.1	4_exp_EVA_AWA_CON	85	B	A	Rpleas_acq	Same	Rpleas	1pleas	acq_US_pleas_nomask	acq3_nomask	3	33	453	0	300	300	0	0	908	50	1	0	retten	freundlich	lachen	schön	ehrlich	helfen	rächen	fanatisch	leiden	schlecht	eitel	hindern	schlau	loyal	treu	fair	tolerant	spielen	schroff	lasch	tot	faul	tyrannisch	strafen	1	blank2r.bmp	0	1	+	0	1	blank2r.bmp	500	1	BMVZ	500	1	blank2r.bmp	880	2	freundlich	880	1	!	1292	1	!	-1	0	0	0	0	0	0
2024-06-12	13:03:14	13:10:57	462583	6.6.1	4_exp_EVA_AWA_CON	85	B	A	Rpleas_acq	Same	Rpleas	1pleas	acq_US_unple_nomask	acq3_nomask	3	34	453	0	300	300	0	0	698	46	1	0	retten	freundlich	lachen	schön	ehrlich	helfen	rächen	fanatisch	leiden	schlecht	eitel	hindern	schlau	loyal	treu	fair	tolerant	spielen	schroff	lasch	tot	faul	tyrannisch	strafen	1	blank2r.bmp	0	1	+	0	1	blank2r.bmp	500	1	GKQX	500	1	blank2r.bmp	880	1	rächen	880	1	!	1293	1	!	-1	0	0	0	0	0	0
2024-06-12	13:03:14	13:11:00	465111	6.6.1	4_exp_EVA_AWA_CON	85	B	A	Rpleas_acq	Same	Rpleas	1pleas	acq_US_unple_nomask	acq3_nomask	3	35	453	0	300	300	0	0	754	46	1	0	retten	freundlich	lachen	schön	ehrlich	helfen	rächen	fanatisch	leiden	schlecht	eitel	hindern	schlau	loyal	treu	fair	tolerant	spielen	schroff	lasch	tot	faul	tyrannisch	strafen	1	blank2r.bmp	0	1	+	0	1	blank2r.bmp	500	1	GKQX	500	1	blank2r.bmp	880	6	hindern	880	1	!	1292	1	!	-1	0	0	0	0	0	0
2024-06-12	13:03:14	13:11:02	467487	6.6.1	4_exp_EVA_AWA_CON	85	B	A	Rpleas_acq	Same	Rpleas	1pleas	acq_US_pleas_nomask	acq3_nomask	3	36	453	0	300	300	0	0	599	50	1	0	retten	freundlich	lachen	schön	ehrlich	helfen	rächen	fanatisch	leiden	schlecht	eitel	hindern	schlau	loyal	treu	fair	tolerant	spielen	schroff	lasch	tot	faul	tyrannisch	strafen	1	blank2r.bmp	0	1	+	0	1	blank2r.bmp	500	1	BMVZ	500	1	blank2r.bmp	880	3	lachen	880	1	!	1292	1	!	-1	0	0	0	0	0	0
2024-06-12	13:03:14	13:11:23	488263	6.6.1	4_exp_EVA_AWA_CON	85	B	A	Rpleas_acq	Same	Rpleas	1pleas	acq_US_unple_nomask	acq45_nomask	4	1	400	0	300	300	0	0	852	46	1	0	retten	freundlich	lachen	schön	ehrlich	helfen	rächen	fanatisch	leiden	schlecht	eitel	hindern	schlau	loyal	treu	fair	tolerant	spielen	schroff	lasch	tot	faul	tyrannisch	strafen	1	blank2r.bmp	0	1	+	0	1	blank2r.bmp	500	1	GKQX	500	1	blank2r.bmp	880	2	fanatisch	880	1	!	1233	1	!	-1	0	0	0	0	0	0
2024-06-12	13:03:14	13:11:25	490735	6.6.1	4_exp_EVA_AWA_CON	85	B	A	Rpleas_acq	Same	Rpleas	1pleas	acq_US_pleas_nomask	acq45_nomask	4	2	400	0	300	300	0	0	692	50	1	0	retten	freundlich	lachen	schön	ehrlich	helfen	rächen	fanatisch	leiden	schlecht	eitel	hindern	schlau	loyal	treu	fair	tolerant	spielen	schroff	lasch	tot	faul	tyrannisch	strafen	1	blank2r.bmp	0	1	+	0	1	blank2r.bmp	500	1	BMVZ	500	1	blank2r.bmp	880	3	lachen	880	1	!	1232	1	!	-1	0	0	0	0	0	0
2024-06-12	13:03:14	13:11:28	493287	6.6.1	4_exp_EVA_AWA_CON	85	B	A	Rpleas_acq	Same	Rpleas	1pleas	acq_US_pleas_nomask	acq45_nomask	4	3	400	0	300	300	0	0	772	50	1	0	retten	freundlich	lachen	schön	ehrlich	helfen	rächen	fanatisch	leiden	schlecht	eitel	hindern	schlau	loyal	treu	fair	tolerant	spielen	schroff	lasch	tot	faul	tyrannisch	strafen	1	blank2r.bmp	0	1	+	0	1	blank2r.bmp	500	1	BMVZ	500	1	blank2r.bmp	880	1	retten	880	1	!	1233	1	!	-1	0	0	0	0	0	0
2024-06-12	13:03:14	13:11:30	495711	6.6.1	4_exp_EVA_AWA_CON	85	B	A	Rpleas_acq	Same	Rpleas	1pleas	acq_US_unple_nomask	acq45_nomask	4	4	400	0	300	300	0	0	645	46	1	0	retten	freundlich	lachen	schön	ehrlich	helfen	rächen	fanatisch	leiden	schlecht	eitel	hindern	schlau	loyal	treu	fair	tolerant	spielen	schroff	lasch	tot	faul	tyrannisch	strafen	1	blank2r.bmp	0	1	+	0	1	blank2r.bmp	500	1	GKQX	500	1	blank2r.bmp	880	5	eitel	880	1	!	1232	1	!	-1	0	0	0	0	0	0
2024-06-12	13:03:14	13:11:33	498119	6.6.1	4_exp_EVA_AWA_CON	85	B	A	Rpleas_acq	Same	Rpleas	1pleas	acq_US_pleas_nomask	acq45_nomask	4	5	400	0	300	300	0	0	631	50	1	0	retten	freundlich	lachen	schön	ehrlich	helfen	rächen	fanatisch	leiden	schlecht	eitel	hindern	schlau	loyal	treu	fair	tolerant	spielen	schroff	lasch	tot	faul	tyrannisch	strafen	1	blank2r.bmp	0	1	+	0	1	blank2r.bmp	500	1	BMVZ	500	1	blank2r.bmp	880	6	helfen	880	1	!	1232	1	!	-1	0	0	0	0	0	0
2024-06-12	13:03:14	13:11:35	500551	6.6.1	4_exp_EVA_AWA_CON	85	B	A	Rpleas_acq	Same	Rpleas	1pleas	acq_US_unple_nomask	acq45_nomask	4	6	400	0	300	300	0	0	651	46	1	0	retten	freundlich	lachen	schön	ehrlich	helfen	rächen	fanatisch	leiden	schlecht	eitel	hindern	schlau	loyal	treu	fair	tolerant	spielen	schroff	lasch	tot	faul	tyrannisch	strafen	1	blank2r.bmp	0	1	+	0	1	blank2r.bmp	500	1	GKQX	500	1	blank2r.bmp	880	6	hindern	880	1	!	1232	1	!	-1	0	0	0	0	0	0
2024-06-12	13:03:14	13:11:37	502951	6.6.1	4_exp_EVA_AWA_CON	85	B	A	Rpleas_acq	Same	Rpleas	1pleas	acq_US_pleas_nomask	acq45_nomask	4	7	400	0	300	300	0	0	620	50	1	0	retten	freundlich	lachen	schön	ehrlich	helfen	rächen	fanatisch	leiden	schlecht	eitel	hindern	schlau	loyal	treu	fair	tolerant	spielen	schroff	lasch	tot	faul	tyrannisch	strafen	1	blank2r.bmp	0	1	+	0	1	blank2r.bmp	500	1	BMVZ	500	1	blank2r.bmp	880	4	schön	880	1	!	1232	1	!	-1	0	0	0	0	0	0
2024-06-12	13:03:14	13:11:40	505431	6.6.1	4_exp_EVA_AWA_CON	85	B	A	Rpleas_acq	Same	Rpleas	1pleas	acq_US_unple_nomask	acq45_nomask	4	8	400	0	300	300	0	0	698	46	1	0	retten	freundlich	lachen	schön	ehrlich	helfen	rächen	fanatisch	leiden	schlecht	eitel	hindern	schlau	loyal	treu	fair	tolerant	spielen	schroff	lasch	tot	faul	tyrannisch	strafen	1	blank2r.bmp	0	1	+	0	1	blank2r.bmp	500	1	GKQX	500	1	blank2r.bmp	880	4	schlecht	880	1	!	1232	1	!	-1	0	0	0	0	0	0
2024-06-12	13:03:14	13:11:42	507903	6.6.1	4_exp_EVA_AWA_CON	85	B	A	Rpleas_acq	Same	Rpleas	1pleas	acq_US_unple_nomask	acq45_nomask	4	9	400	0	300	300	0	0	699	46	1	0	retten	freundlich	lachen	schön	ehrlich	helfen	rächen	fanatisch	leiden	schlecht	eitel	hindern	schlau	loyal	treu	fair	tolerant	spielen	schroff	lasch	tot	faul	tyrannisch	strafen	1	blank2r.bmp	0	1	+	0	1	blank2r.bmp	500	1	GKQX	500	1	blank2r.bmp	880	1	rächen	880	1	!	1232	1	!	-1	0	0	0	0	0	0
2024-06-12	13:03:14	13:11:45	510327	6.6.1	4_exp_EVA_AWA_CON	85	B	A	Rpleas_acq	Same	Rpleas	1pleas	acq_US_pleas_nomask	acq45_nomask	4	10	400	0	300	300	0	0	651	50	1	0	retten	freundlich	lachen	schön	ehrlich	helfen	rächen	fanatisch	leiden	schlecht	eitel	hindern	schlau	loyal	treu	fair	tolerant	spielen	schroff	lasch	tot	faul	tyrannisch	strafen	1	blank2r.bmp	0	1	+	0	1	blank2r.bmp	500	1	BMVZ	500	1	blank2r.bmp	880	2	freundlich	880	1	!	1232	1	!	-1	0	0	0	0	0	0
2024-06-12	13:03:14	13:11:47	513079	6.6.1	4_exp_EVA_AWA_CON	85	B	A	Rpleas_acq	Same	Rpleas	1pleas	acq_US_unple_nomask	acq45_nomask	4	11	400	0	300	300	0	0	972	46	1	0	retten	freundlich	lachen	schön	ehrlich	helfen	rächen	fanatisch	leiden	schlecht	eitel	hindern	schlau	loyal	treu	fair	tolerant	spielen	schroff	lasch	tot	faul	tyrannisch	strafen	1	blank2r.bmp	0	1	+	0	1	blank2r.bmp	500	1	GKQX	500	1	blank2r.bmp	880	3	leiden	880	1	!	1232	1	!	-1	0	0	0	0	0	0
2024-06-12	13:03:14	13:11:50	515503	6.6.1	4_exp_EVA_AWA_CON	85	B	A	Rpleas_acq	Same	Rpleas	1pleas	acq_US_pleas_nomask	acq45_nomask	4	12	400	0	300	300	0	0	644	50	1	0	retten	freundlich	lachen	schön	ehrlich	helfen	rächen	fanatisch	leiden	schlecht	eitel	hindern	schlau	loyal	treu	fair	tolerant	spielen	schroff	lasch	tot	faul	tyrannisch	strafen	1	blank2r.bmp	0	1	+	0	1	blank2r.bmp	500	1	BMVZ	500	1	blank2r.bmp	880	5	ehrlich	880	1	!	1232	1	!	-1	0	0	0	0	0	0
2024-06-12	13:03:14	13:11:53	518103	6.6.1	4_exp_EVA_AWA_CON	85	B	A	Rpleas_acq	Same	Rpleas	1pleas	acq_US_pleas_nomask	acq45_nomask	4	13	400	0	300	300	0	0	822	50	1	0	retten	freundlich	lachen	schön	ehrlich	helfen	rächen	fanatisch	leiden	schlecht	eitel	hindern	schlau	loyal	treu	fair	tolerant	spielen	schroff	lasch	tot	faul	tyrannisch	strafen	1	blank2r.bmp	0	1	+	0	1	blank2r.bmp	500	1	BMVZ	500	1	blank2r.bmp	880	5	ehrlich	880	1	!	1232	1	!	-1	0	0	0	0	0	0
2024-06-12	13:03:14	13:11:55	520615	6.6.1	4_exp_EVA_AWA_CON	85	B	A	Rpleas_acq	Same	Rpleas	1pleas	acq_US_unple_nomask	acq45_nomask	4	14	400	0	300	300	0	0	733	46	1	0	retten	freundlich	lachen	schön	ehrlich	helfen	rächen	fanatisch	leiden	schlecht	eitel	hindern	schlau	loyal	treu	fair	tolerant	spielen	schroff	lasch	tot	faul	tyrannisch	strafen	1	blank2r.bmp	0	1	+	0	1	blank2r.bmp	500	1	GKQX	500	1	blank2r.bmp	880	6	hindern	880	1	!	1232	1	!	-1	0	0	0	0	0	0
2024-06-12	13:03:14	13:11:58	523143	6.6.1	4_exp_EVA_AWA_CON	85	B	A	Rpleas_acq	Same	Rpleas	1pleas	acq_US_unple_nomask	acq45_nomask	4	15	400	0	300	300	0	0	749	46	1	0	retten	freundlich	lachen	schön	ehrlich	helfen	rächen	fanatisch	leiden	schlecht	eitel	hindern	schlau	loyal	treu	fair	tolerant	spielen	schroff	lasch	tot	faul	tyrannisch	strafen	1	blank2r.bmp	0	1	+	0	1	blank2r.bmp	500	1	GKQX	500	1	blank2r.bmp	880	3	leiden	880	1	!	1232	1	!	-1	0	0	0	0	0	0
2024-06-12	13:03:14	13:12:00	525831	6.6.1	4_exp_EVA_AWA_CON	85	B	A	Rpleas_acq	Same	Rpleas	1pleas	acq_US_unple_nomask	acq45_nomask	4	16	400	0	300	300	0	0	905	46	1	0	retten	freundlich	lachen	schön	ehrlich	helfen	rächen	fanatisch	leiden	schlecht	eitel	hindern	schlau	loyal	treu	fair	tolerant	spielen	schroff	lasch	tot	faul	tyrannisch	strafen	1	blank2r.bmp	0	1	+	0	1	blank2r.bmp	500	1	GKQX	500	1	blank2r.bmp	880	2	fanatisch	880	1	!	1232	1	!	-1	0	0	0	0	0	0
2024-06-12	13:03:14	13:12:03	528207	6.6.1	4_exp_EVA_AWA_CON	85	B	A	Rpleas_acq	Same	Rpleas	1pleas	acq_US_pleas_nomask	acq45_nomask	4	17	400	0	300	300	0	0	600	50	1	0	retten	freundlich	lachen	schön	ehrlich	helfen	rächen	fanatisch	leiden	schlecht	eitel	hindern	schlau	loyal	treu	fair	tolerant	spielen	schroff	lasch	tot	faul	tyrannisch	strafen	1	blank2r.bmp	0	1	+	0	1	blank2r.bmp	500	1	BMVZ	500	1	blank2r.bmp	880	4	schön	880	1	!	1232	1	!	-1	0	0	0	0	0	0
2024-06-12	13:03:14	13:12:05	530647	6.6.1	4_exp_EVA_AWA_CON	85	B	A	Rpleas_acq	Same	Rpleas	1pleas	acq_US_pleas_nomask	acq45_nomask	4	18	400	0	300	300	0	0	658	50	1	0	retten	freundlich	lachen	schön	ehrlich	helfen	rächen	fanatisch	leiden	schlecht	eitel	hindern	schlau	loyal	treu	fair	tolerant	spielen	schroff	lasch	tot	faul	tyrannisch	strafen	1	blank2r.bmp	0	1	+	0	1	blank2r.bmp	500	1	BMVZ	500	1	blank2r.bmp	880	6	helfen	880	1	!	1232	1	!	-1	0	0	0	0	0	0
2024-06-12	13:03:14	13:12:07	533055	6.6.1	4_exp_EVA_AWA_CON	85	B	A	Rpleas_acq	Same	Rpleas	1pleas	acq_US_pleas_nomask	acq45_nomask	4	19	400	0	300	300	0	0	635	50	1	0	retten	freundlich	lachen	schön	ehrlich	helfen	rächen	fanatisch	leiden	schlecht	eitel	hindern	schlau	loyal	treu	fair	tolerant	spielen	schroff	lasch	tot	faul	tyrannisch	strafen	1	blank2r.bmp	0	1	+	0	1	blank2r.bmp	500	1	BMVZ	500	1	blank2r.bmp	880	3	lachen	880	1	!	1232	1	!	-1	0	0	0	0	0	0
2024-06-12	13:03:14	13:12:10	535527	6.6.1	4_exp_EVA_AWA_CON	85	B	A	Rpleas_acq	Same	Rpleas	1pleas	acq_US_pleas_nomask	acq45_nomask	4	20	400	0	300	300	0	0	695	50	1	0	retten	freundlich	lachen	schön	ehrlich	helfen	rächen	fanatisch	leiden	schlecht	eitel	hindern	schlau	loyal	treu	fair	tolerant	spielen	schroff	lasch	tot	faul	tyrannisch	strafen	1	blank2r.bmp	0	1	+	0	1	blank2r.bmp	500	1	BMVZ	500	1	blank2r.bmp	880	2	freundlich	880	1	!	1232	1	!	-1	0	0	0	0	0	0
2024-06-12	13:03:14	13:12:12	538055	6.6.1	4_exp_EVA_AWA_CON	85	B	A	Rpleas_acq	Same	Rpleas	1pleas	acq_US_unple_nomask	acq45_nomask	4	21	400	0	300	300	0	0	751	46	1	0	retten	freundlich	lachen	schön	ehrlich	helfen	rächen	fanatisch	leiden	schlecht	eitel	hindern	schlau	loyal	treu	fair	tolerant	spielen	schroff	lasch	tot	faul	tyrannisch	strafen	1	blank2r.bmp	0	1	+	0	1	blank2r.bmp	500	1	GKQX	500	1	blank2r.bmp	880	1	rächen	880	1	!	1232	1	!	-1	0	0	0	0	0	0
2024-06-12	13:03:14	13:12:15	540791	6.6.1	4_exp_EVA_AWA_CON	85	B	A	Rpleas_acq	Same	Rpleas	1pleas	acq_US_unple_nomask	acq45_nomask	4	22	400	0	300	300	0	0	956	46	1	0	retten	freundlich	lachen	schön	ehrlich	helfen	rächen	fanatisch	leiden	schlecht	eitel	hindern	schlau	loyal	treu	fair	tolerant	spielen	schroff	lasch	tot	faul	tyrannisch	strafen	1	blank2r.bmp	0	1	+	0	1	blank2r.bmp	500	1	GKQX	500	1	blank2r.bmp	880	5	eitel	880	1	!	1233	1	!	-1	0	0	0	0	0	0
2024-06-12	13:03:14	13:12:18	543207	6.6.1	4_exp_EVA_AWA_CON	85	B	A	Rpleas_acq	Same	Rpleas	1pleas	acq_US_unple_nomask	acq45_nomask	4	23	400	0	300	300	0	0	640	46	1	0	retten	freundlich	lachen	schön	ehrlich	helfen	rächen	fanatisch	leiden	schlecht	eitel	hindern	schlau	loyal	treu	fair	tolerant	spielen	schroff	lasch	tot	faul	tyrannisch	strafen	1	blank2r.bmp	0	1	+	0	1	blank2r.bmp	500	1	GKQX	500	1	blank2r.bmp	880	4	schlecht	880	1	!	1232	1	!	-1	0	0	0	0	0	0
2024-06-12	13:03:14	13:12:20	545783	6.6.1	4_exp_EVA_AWA_CON	85	B	A	Rpleas_acq	Same	Rpleas	1pleas	acq_US_pleas_nomask	acq45_nomask	4	24	400	0	300	300	0	0	795	50	1	0	retten	freundlich	lachen	schön	ehrlich	helfen	rächen	fanatisch	leiden	schlecht	eitel	hindern	schlau	loyal	treu	fair	tolerant	spielen	schroff	lasch	tot	faul	tyrannisch	strafen	1	blank2r.bmp	0	1	+	0	1	blank2r.bmp	500	1	BMVZ	500	1	blank2r.bmp	880	1	retten	880	1	!	1233	1	!	-1	0	0	0	0	0	0
2024-06-12	13:03:14	13:12:23	548383	6.6.1	4_exp_EVA_AWA_CON	85	B	A	Rpleas_acq	Same	Rpleas	1pleas	acq_US_pleas_nomask	acq45_nomask	4	25	400	0	300	300	0	0	823	50	1	0	retten	freundlich	lachen	schön	ehrlich	helfen	rächen	fanatisch	leiden	schlecht	eitel	hindern	schlau	loyal	treu	fair	tolerant	spielen	schroff	lasch	tot	faul	tyrannisch	strafen	1	blank2r.bmp	0	1	+	0	1	blank2r.bmp	500	1	BMVZ	500	1	blank2r.bmp	880	3	lachen	880	1	!	1233	1	!	-1	0	0	0	0	0	0
2024-06-12	13:03:14	13:12:25	551023	6.6.1	4_exp_EVA_AWA_CON	85	B	A	Rpleas_acq	Same	Rpleas	1pleas	acq_US_unple_nomask	acq45_nomask	4	26	400	0	300	300	0	0	861	46	1	0	retten	freundlich	lachen	schön	ehrlich	helfen	rächen	fanatisch	leiden	schlecht	eitel	hindern	schlau	loyal	treu	fair	tolerant	spielen	schroff	lasch	tot	faul	tyrannisch	strafen	1	blank2r.bmp	0	1	+	0	1	blank2r.bmp	500	1	GKQX	500	1	blank2r.bmp	880	6	hindern	880	1	!	1232	1	!	-1	0	0	0	0	0	0
2024-06-12	13:03:14	13:12:28	553423	6.6.1	4_exp_EVA_AWA_CON	85	B	A	Rpleas_acq	Same	Rpleas	1pleas	acq_US_pleas_nomask	acq45_nomask	4	27	400	0	300	300	0	0	620	50	1	0	retten	freundlich	lachen	schön	ehrlich	helfen	rächen	fanatisch	leiden	schlecht	eitel	hindern	schlau	loyal	treu	fair	tolerant	spielen	schroff	lasch	tot	faul	tyrannisch	strafen	1	blank2r.bmp	0	1	+	0	1	blank2r.bmp	500	1	BMVZ	500	1	blank2r.bmp	880	4	schön	880	1	!	1232	1	!	-1	0	0	0	0	0	0
2024-06-12	13:03:14	13:12:30	555847	6.6.1	4_exp_EVA_AWA_CON	85	B	A	Rpleas_acq	Same	Rpleas	1pleas	acq_US_pleas_nomask	acq45_nomask	4	28	400	0	300	300	0	0	642	50	1	0	retten	freundlich	lachen	schön	ehrlich	helfen	rächen	fanatisch	leiden	schlecht	eitel	hindern	schlau	loyal	treu	fair	tolerant	spielen	schroff	lasch	tot	faul	tyrannisch	strafen	1	blank2r.bmp	0	1	+	0	1	blank2r.bmp	500	1	BMVZ	500	1	blank2r.bmp	880	5	ehrlich	880	1	!	1232	1	!	-1	0	0	0	0	0	0
2024-06-12	13:03:14	13:12:33	558271	6.6.1	4_exp_EVA_AWA_CON	85	B	A	Rpleas_acq	Same	Rpleas	1pleas	acq_US_unple_nomask	acq45_nomask	4	29	400	0	300	300	0	0	644	46	1	0	retten	freundlich	lachen	schön	ehrlich	helfen	rächen	fanatisch	leiden	schlecht	eitel	hindern	schlau	loyal	treu	fair	tolerant	spielen	schroff	lasch	tot	faul	tyrannisch	strafen	1	blank2r.bmp	0	1	+	0	1	blank2r.bmp	500	1	GKQX	500	1	blank2r.bmp	880	2	fanatisch	880	1	!	1232	1	!	-1	0	0	0	0	0	0
2024-06-12	13:03:14	13:12:35	560735	6.6.1	4_exp_EVA_AWA_CON	85	B	A	Rpleas_acq	Same	Rpleas	1pleas	acq_US_unple_nomask	acq45_nomask	4	30	400	0	300	300	0	0	687	46	1	0	retten	freundlich	lachen	schön	ehrlich	helfen	rächen	fanatisch	leiden	schlecht	eitel	hindern	schlau	loyal	treu	fair	tolerant	spielen	schroff	lasch	tot	faul	tyrannisch	strafen	1	blank2r.bmp	0	1	+	0	1	blank2r.bmp	500	1	GKQX	500	1	blank2r.bmp	880	3	leiden	880	1	!	1233	1	!	-1	0	0	0	0	0	0
2024-06-12	13:03:14	13:12:38	563215	6.6.1	4_exp_EVA_AWA_CON	85	B	A	Rpleas_acq	Same	Rpleas	1pleas	acq_US_unple_nomask	acq45_nomask	4	31	400	0	300	300	0	0	705	46	1	0	retten	freundlich	lachen	schön	ehrlich	helfen	rächen	fanatisch	leiden	schlecht	eitel	hindern	schlau	loyal	treu	fair	tolerant	spielen	schroff	lasch	tot	faul	tyrannisch	strafen	1	blank2r.bmp	0	1	+	0	1	blank2r.bmp	500	1	GKQX	500	1	blank2r.bmp	880	5	eitel	880	1	!	1232	1	!	-1	0	0	0	0	0	0
2024-06-12	13:03:14	13:12:40	565647	6.6.1	4_exp_EVA_AWA_CON	85	B	A	Rpleas_acq	Same	Rpleas	1pleas	acq_US_unple_nomask	acq45_nomask	4	32	400	0	300	300	0	0	656	46	1	0	retten	freundlich	lachen	schön	ehrlich	helfen	rächen	fanatisch	leiden	schlecht	eitel	hindern	schlau	loyal	treu	fair	tolerant	spielen	schroff	lasch	tot	faul	tyrannisch	strafen	1	blank2r.bmp	0	1	+	0	1	blank2r.bmp	500	1	GKQX	500	1	blank2r.bmp	880	1	rächen	880	1	!	1232	1	!	-1	0	0	0	0	0	0
2024-06-12	13:03:14	13:12:43	568103	6.6.1	4_exp_EVA_AWA_CON	85	B	A	Rpleas_acq	Same	Rpleas	1pleas	acq_US_pleas_nomask	acq45_nomask	4	33	400	0	300	300	0	0	680	50	1	0	retten	freundlich	lachen	schön	ehrlich	helfen	rächen	fanatisch	leiden	schlecht	eitel	hindern	schlau	loyal	treu	fair	tolerant	spielen	schroff	lasch	tot	faul	tyrannisch	strafen	1	blank2r.bmp	0	1	+	0	1	blank2r.bmp	500	1	BMVZ	500	1	blank2r.bmp	880	6	helfen	880	1	!	1232	1	!	-1	0	0	0	0	0	0
2024-06-12	13:03:14	13:12:45	570759	6.6.1	4_exp_EVA_AWA_CON	85	B	A	Rpleas_acq	Same	Rpleas	1pleas	acq_US_pleas_nomask	acq45_nomask	4	34	400	0	300	300	0	0	875	50	1	0	retten	freundlich	lachen	schön	ehrlich	helfen	rächen	fanatisch	leiden	schlecht	eitel	hindern	schlau	loyal	treu	fair	tolerant	spielen	schroff	lasch	tot	faul	tyrannisch	strafen	1	blank2r.bmp	0	1	+	0	1	blank2r.bmp	500	1	BMVZ	500	1	blank2r.bmp	880	1	retten	880	1	!	1232	1	!	-1	0	0	0	0	0	0
2024-06-12	13:03:14	13:12:48	573167	6.6.1	4_exp_EVA_AWA_CON	85	B	A	Rpleas_acq	Same	Rpleas	1pleas	acq_US_pleas_nomask	acq45_nomask	4	35	400	0	300	300	0	0	631	50	1	0	retten	freundlich	lachen	schön	ehrlich	helfen	rächen	fanatisch	leiden	schlecht	eitel	hindern	schlau	loyal	treu	fair	tolerant	spielen	schroff	lasch	tot	faul	tyrannisch	strafen	1	blank2r.bmp	0	1	+	0	1	blank2r.bmp	500	1	BMVZ	500	1	blank2r.bmp	880	2	freundlich	880	1	!	1232	1	!	-1	0	0	0	0	0	0
2024-06-12	13:03:14	13:12:50	575711	6.6.1	4_exp_EVA_AWA_CON	85	B	A	Rpleas_acq	Same	Rpleas	1pleas	acq_US_unple_nomask	acq45_nomask	4	36	400	0	300	300	0	0	763	46	1	0	retten	freundlich	lachen	schön	ehrlich	helfen	rächen	fanatisch	leiden	schlecht	eitel	hindern	schlau	loyal	treu	fair	tolerant	spielen	schroff	lasch	tot	faul	tyrannisch	strafen	1	blank2r.bmp	0	1	+	0	1	blank2r.bmp	500	1	GKQX	500	1	blank2r.bmp	880	4	schlecht	880	1	!	1232	1	!	-1	0	0	0	0	0	0
2024-06-12	13:03:14	13:13:25	610967	6.6.1	4_exp_EVA_AWA_CON	85	B	A	Rpleas_acq	Same	Rpleas	1pleas	acq_US_pleas_nomask	acq45_nomask	5	1	400	0	300	300	0	0	907	50	1	0	retten	freundlich	lachen	schön	ehrlich	helfen	rächen	fanatisch	leiden	schlecht	eitel	hindern	schlau	loyal	treu	fair	tolerant	spielen	schroff	lasch	tot	faul	tyrannisch	strafen	1	blank2r.bmp	0	1	+	0	1	blank2r.bmp	500	1	BMVZ	500	1	blank2r.bmp	880	3	lachen	880	1	!	1232	1	!	-1	0	0	0	0	0	0
2024-06-12	13:03:14	13:13:28	613375	6.6.1	4_exp_EVA_AWA_CON	85	B	A	Rpleas_acq	Same	Rpleas	1pleas	acq_US_pleas_nomask	acq45_nomask	5	2	400	0	300	300	0	0	633	50	1	0	retten	freundlich	lachen	schön	ehrlich	helfen	rächen	fanatisch	leiden	schlecht	eitel	hindern	schlau	loyal	treu	fair	tolerant	spielen	schroff	lasch	tot	faul	tyrannisch	strafen	1	blank2r.bmp	0	1	+	0	1	blank2r.bmp	500	1	BMVZ	500	1	blank2r.bmp	880	2	freundlich	880	1	!	1233	1	!	-1	0	0	0	0	0	0
2024-06-12	13:03:14	13:13:30	615799	6.6.1	4_exp_EVA_AWA_CON	85	B	A	Rpleas_acq	Same	Rpleas	1pleas	acq_US_pleas_nomask	acq45_nomask	5	3	400	0	300	300	0	0	645	50	1	0	retten	freundlich	lachen	schön	ehrlich	helfen	rächen	fanatisch	leiden	schlecht	eitel	hindern	schlau	loyal	treu	fair	tolerant	spielen	schroff	lasch	tot	faul	tyrannisch	strafen	1	blank2r.bmp	0	1	+	0	1	blank2r.bmp	500	1	BMVZ	500	1	blank2r.bmp	880	6	helfen	880	1	!	1232	1	!	-1	0	0	0	0	0	0
2024-06-12	13:03:14	13:13:32	618032	6.6.1	4_exp_EVA_AWA_CON	85	B	A	Rpleas_acq	Same	Rpleas	1pleas	acq_US_unple_nomask	acq45_nomask	5	4	400	1	300	300	0	0	456	46	1	0	retten	freundlich	lachen	schön	ehrlich	helfen	rächen	fanatisch	leiden	schlecht	eitel	hindern	schlau	loyal	treu	fair	tolerant	spielen	schroff	lasch	tot	faul	tyrannisch	strafen	1	blank2r.bmp	0	1	+	0	1	blank2r.bmp	500	1	GKQX	500	1	blank2r.bmp	880	5	eitel	880	1	!	1232	1	!	1358	0	0	0	0	0	0
2024-06-12	13:03:14	13:13:35	620535	6.6.1	4_exp_EVA_AWA_CON	85	B	A	Rpleas_acq	Same	Rpleas	1pleas	acq_US_unple_nomask	acq45_nomask	5	5	400	0	300	300	0	0	728	46	1	0	retten	freundlich	lachen	schön	ehrlich	helfen	rächen	fanatisch	leiden	schlecht	eitel	hindern	schlau	loyal	treu	fair	tolerant	spielen	schroff	lasch	tot	faul	tyrannisch	strafen	1	blank2r.bmp	0	1	+	0	1	blank2r.bmp	500	1	GKQX	500	1	blank2r.bmp	880	4	schlecht	880	1	!	1232	1	!	-1	0	0	0	0	0	0
2024-06-12	13:03:14	13:13:38	623159	6.6.1	4_exp_EVA_AWA_CON	85	B	A	Rpleas_acq	Same	Rpleas	1pleas	acq_US_pleas_nomask	acq45_nomask	5	6	400	0	300	300	0	0	851	50	1	0	retten	freundlich	lachen	schön	ehrlich	helfen	rächen	fanatisch	leiden	schlecht	eitel	hindern	schlau	loyal	treu	fair	tolerant	spielen	schroff	lasch	tot	faul	tyrannisch	strafen	1	blank2r.bmp	0	1	+	0	1	blank2r.bmp	500	1	BMVZ	500	1	blank2r.bmp	880	5	ehrlich	880	1	!	1233	1	!	-1	0	0	0	0	0	0
2024-06-12	13:03:14	13:13:40	625615	6.6.1	4_exp_EVA_AWA_CON	85	B	A	Rpleas_acq	Same	Rpleas	1pleas	acq_US_pleas_nomask	acq45_nomask	5	7	400	0	300	300	0	0	675	50	1	0	retten	freundlich	lachen	schön	ehrlich	helfen	rächen	fanatisch	leiden	schlecht	eitel	hindern	schlau	loyal	treu	fair	tolerant	spielen	schroff	lasch	tot	faul	tyrannisch	strafen	1	blank2r.bmp	0	1	+	0	1	blank2r.bmp	500	1	BMVZ	500	1	blank2r.bmp	880	4	schön	880	1	!	1232	1	!	-1	0	0	0	0	0	0
2024-06-12	13:03:14	13:13:43	628375	6.6.1	4_exp_EVA_AWA_CON	85	B	A	Rpleas_acq	Same	Rpleas	1pleas	acq_US_unple_nomask	acq45_nomask	5	8	400	0	300	300	0	0	984	46	1	0	retten	freundlich	lachen	schön	ehrlich	helfen	rächen	fanatisch	leiden	schlecht	eitel	hindern	schlau	loyal	treu	fair	tolerant	spielen	schroff	lasch	tot	faul	tyrannisch	strafen	1	blank2r.bmp	0	1	+	0	1	blank2r.bmp	500	1	GKQX	500	1	blank2r.bmp	880	2	fanatisch	880	1	!	1232	1	!	-1	0	0	0	0	0	0
2024-06-12	13:03:14	13:13:45	630975	6.6.1	4_exp_EVA_AWA_CON	85	B	A	Rpleas_acq	Same	Rpleas	1pleas	acq_US_pleas_nomask	acq45_nomask	5	9	400	0	300	300	0	0	822	50	1	0	retten	freundlich	lachen	schön	ehrlich	helfen	rächen	fanatisch	leiden	schlecht	eitel	hindern	schlau	loyal	treu	fair	tolerant	spielen	schroff	lasch	tot	faul	tyrannisch	strafen	1	blank2r.bmp	0	1	+	0	1	blank2r.bmp	500	1	BMVZ	500	1	blank2r.bmp	880	1	retten	880	1	!	1232	1	!	-1	0	0	0	0	0	0
2024-06-12	13:03:14	13:13:48	633479	6.6.1	4_exp_EVA_AWA_CON	85	B	A	Rpleas_acq	Same	Rpleas	1pleas	acq_US_unple_nomask	acq45_nomask	5	10	400	0	300	300	0	0	724	46	1	0	retten	freundlich	lachen	schön	ehrlich	helfen	rächen	fanatisch	leiden	schlecht	eitel	hindern	schlau	loyal	treu	fair	tolerant	spielen	schroff	lasch	tot	faul	tyrannisch	strafen	1	blank2r.bmp	0	1	+	0	1	blank2r.bmp	500	1	GKQX	500	1	blank2r.bmp	880	1	rächen	880	1	!	1232	1	!	-1	0	0	0	0	0	0
2024-06-12	13:03:14	13:13:50	636015	6.6.1	4_exp_EVA_AWA_CON	85	B	A	Rpleas_acq	Same	Rpleas	1pleas	acq_US_pleas_nomask	acq45_nomask	5	11	400	0	300	300	0	0	759	50	1	0	retten	freundlich	lachen	schön	ehrlich	helfen	rächen	fanatisch	leiden	schlecht	eitel	hindern	schlau	loyal	treu	fair	tolerant	spielen	schroff	lasch	tot	faul	tyrannisch	strafen	1	blank2r.bmp	0	1	+	0	1	blank2r.bmp	500	1	BMVZ	500	1	blank2r.bmp	880	2	freundlich	880	1	!	1232	1	!	-1	0	0	0	0	0	0
2024-06-12	13:03:14	13:13:53	638487	6.6.1	4_exp_EVA_AWA_CON	85	B	A	Rpleas_acq	Same	Rpleas	1pleas	acq_US_unple_nomask	acq45_nomask	5	12	400	0	300	300	0	0	699	46	1	0	retten	freundlich	lachen	schön	ehrlich	helfen	rächen	fanatisch	leiden	schlecht	eitel	hindern	schlau	loyal	treu	fair	tolerant	spielen	schroff	lasch	tot	faul	tyrannisch	strafen	1	blank2r.bmp	0	1	+	0	1	blank2r.bmp	500	1	GKQX	500	1	blank2r.bmp	880	6	hindern	880	1	!	1232	1	!	-1	0	0	0	0	0	0
2024-06-12	13:03:14	13:13:55	640967	6.6.1	4_exp_EVA_AWA_CON	85	B	A	Rpleas_acq	Same	Rpleas	1pleas	acq_US_unple_nomask	acq45_nomask	5	13	400	0	300	300	0	0	708	46	1	0	retten	freundlich	lachen	schön	ehrlich	helfen	rächen	fanatisch	leiden	schlecht	eitel	hindern	schlau	loyal	treu	fair	tolerant	spielen	schroff	lasch	tot	faul	tyrannisch	strafen	1	blank2r.bmp	0	1	+	0	1	blank2r.bmp	500	1	GKQX	500	1	blank2r.bmp	880	3	leiden	880	1	!	1233	1	!	-1	0	0	0	0	0	0
2024-06-12	13:03:14	13:13:58	643703	6.6.1	4_exp_EVA_AWA_CON	85	B	A	Rpleas_acq	Same	Rpleas	1pleas	acq_US_pleas_nomask	acq45_nomask	5	14	400	0	300	300	0	0	962	50	1	0	retten	freundlich	lachen	schön	ehrlich	helfen	rächen	fanatisch	leiden	schlecht	eitel	hindern	schlau	loyal	treu	fair	tolerant	spielen	schroff	lasch	tot	faul	tyrannisch	strafen	1	blank2r.bmp	0	1	+	0	1	blank2r.bmp	500	1	BMVZ	500	1	blank2r.bmp	880	4	schön	880	1	!	1233	1	!	-1	0	0	0	0	0	0
2024-06-12	13:03:14	13:14:01	646239	6.6.1	4_exp_EVA_AWA_CON	85	B	A	Rpleas_acq	Same	Rpleas	1pleas	acq_US_unple_nomask	acq45_nomask	5	15	400	0	300	300	0	0	756	46	1	0	retten	freundlich	lachen	schön	ehrlich	helfen	rächen	fanatisch	leiden	schlecht	eitel	hindern	schlau	loyal	treu	fair	tolerant	spielen	schroff	lasch	tot	faul	tyrannisch	strafen	1	blank2r.bmp	0	1	+	0	1	blank2r.bmp	500	1	GKQX	500	1	blank2r.bmp	880	4	schlecht	880	1	!	1232	1	!	-1	0	0	0	0	0	0
2024-06-12	13:03:14	13:14:03	648759	6.6.1	4_exp_EVA_AWA_CON	85	B	A	Rpleas_acq	Same	Rpleas	1pleas	acq_US_unple_nomask	acq45_nomask	5	16	400	0	300	300	0	0	744	46	1	0	retten	freundlich	lachen	schön	ehrlich	helfen	rächen	fanatisch	leiden	schlecht	eitel	hindern	schlau	loyal	treu	fair	tolerant	spielen	schroff	lasch	tot	faul	tyrannisch	strafen	1	blank2r.bmp	0	1	+	0	1	blank2r.bmp	500	1	GKQX	500	1	blank2r.bmp	880	2	fanatisch	880	1	!	1232	1	!	-1	0	0	0	0	0	0
2024-06-12	13:03:14	13:14:06	651143	6.6.1	4_exp_EVA_AWA_CON	85	B	A	Rpleas_acq	Same	Rpleas	1pleas	acq_US_pleas_nomask	acq45_nomask	5	17	400	0	300	300	0	0	607	50	1	0	retten	freundlich	lachen	schön	ehrlich	helfen	rächen	fanatisch	leiden	schlecht	eitel	hindern	schlau	loyal	treu	fair	tolerant	spielen	schroff	lasch	tot	faul	tyrannisch	strafen	1	blank2r.bmp	0	1	+	0	1	blank2r.bmp	500	1	BMVZ	500	1	blank2r.bmp	880	5	ehrlich	880	1	!	1232	1	!	-1	0	0	0	0	0	0
2024-06-12	13:03:14	13:14:08	653951	6.6.1	4_exp_EVA_AWA_CON	85	B	A	Rpleas_acq	Same	Rpleas	1pleas	acq_US_unple_nomask	acq45_nomask	5	18	400	0	300	300	0	0	1033	46	1	0	retten	freundlich	lachen	schön	ehrlich	helfen	rächen	fanatisch	leiden	schlecht	eitel	hindern	schlau	loyal	treu	fair	tolerant	spielen	schroff	lasch	tot	faul	tyrannisch	strafen	1	blank2r.bmp	0	1	+	0	1	blank2r.bmp	500	1	GKQX	500	1	blank2r.bmp	880	3	leiden	880	1	!	1232	1	!	-1	0	0	0	0	0	0
2024-06-12	13:03:14	13:14:11	656400	6.6.1	4_exp_EVA_AWA_CON	85	B	A	Rpleas_acq	Same	Rpleas	1pleas	acq_US_pleas_nomask	acq45_nomask	5	19	400	0	300	300	0	0	670	50	1	0	retten	freundlich	lachen	schön	ehrlich	helfen	rächen	fanatisch	leiden	schlecht	eitel	hindern	schlau	loyal	treu	fair	tolerant	spielen	schroff	lasch	tot	faul	tyrannisch	strafen	1	blank2r.bmp	0	1	+	0	1	blank2r.bmp	500	1	BMVZ	500	1	blank2r.bmp	880	3	lachen	880	1	!	1233	1	!	-1	0	0	0	0	0	0
2024-06-12	13:03:14	13:14:13	658879	6.6.1	4_exp_EVA_AWA_CON	85	B	A	Rpleas_acq	Same	Rpleas	1pleas	acq_US_pleas_nomask	acq45_nomask	5	20	400	0	300	300	0	0	698	50	1	0	retten	freundlich	lachen	schön	ehrlich	helfen	rächen	fanatisch	leiden	schlecht	eitel	hindern	schlau	loyal	treu	fair	tolerant	spielen	schroff	lasch	tot	faul	tyrannisch	strafen	1	blank2r.bmp	0	1	+	0	1	blank2r.bmp	500	1	BMVZ	500	1	blank2r.bmp	880	1	retten	880	1	!	1232	1	!	-1	0	0	0	0	0	0
2024-06-12	13:03:14	13:14:16	661319	6.6.1	4_exp_EVA_AWA_CON	85	B	A	Rpleas_acq	Same	Rpleas	1pleas	acq_US_unple_nomask	acq45_nomask	5	21	400	0	300	300	0	0	666	46	1	0	retten	freundlich	lachen	schön	ehrlich	helfen	rächen	fanatisch	leiden	schlecht	eitel	hindern	schlau	loyal	treu	fair	tolerant	spielen	schroff	lasch	tot	faul	tyrannisch	strafen	1	blank2r.bmp	0	1	+	0	1	blank2r.bmp	500	1	GKQX	500	1	blank2r.bmp	880	1	rächen	880	1	!	1232	1	!	-1	0	0	0	0	0	0
2024-06-12	13:03:14	13:14:18	663783	6.6.1	4_exp_EVA_AWA_CON	85	B	A	Rpleas_acq	Same	Rpleas	1pleas	acq_US_pleas_nomask	acq45_nomask	5	22	400	0	300	300	0	0	689	50	1	0	retten	freundlich	lachen	schön	ehrlich	helfen	rächen	fanatisch	leiden	schlecht	eitel	hindern	schlau	loyal	treu	fair	tolerant	spielen	schroff	lasch	tot	faul	tyrannisch	strafen	1	blank2r.bmp	0	1	+	0	1	blank2r.bmp	500	1	BMVZ	500	1	blank2r.bmp	880	6	helfen	880	1	!	1232	1	!	-1	0	0	0	0	0	0
2024-06-12	13:03:14	13:14:21	666159	6.6.1	4_exp_EVA_AWA_CON	85	B	A	Rpleas_acq	Same	Rpleas	1pleas	acq_US_unple_nomask	acq45_nomask	5	23	400	0	300	300	0	0	593	46	1	0	retten	freundlich	lachen	schön	ehrlich	helfen	rächen	fanatisch	leiden	schlecht	eitel	hindern	schlau	loyal	treu	fair	tolerant	spielen	schroff	lasch	tot	faul	tyrannisch	strafen	1	blank2r.bmp	0	1	+	0	1	blank2r.bmp	500	1	GKQX	500	1	blank2r.bmp	880	6	hindern	880	1	!	1232	1	!	-1	0	0	0	0	0	0
2024-06-12	13:03:14	13:14:23	668663	6.6.1	4_exp_EVA_AWA_CON	85	B	A	Rpleas_acq	Same	Rpleas	1pleas	acq_US_pleas_nomask	acq45_nomask	5	24	400	0	300	300	0	0	726	50	1	0	retten	freundlich	lachen	schön	ehrlich	helfen	rächen	fanatisch	leiden	schlecht	eitel	hindern	schlau	loyal	treu	fair	tolerant	spielen	schroff	lasch	tot	faul	tyrannisch	strafen	1	blank2r.bmp	0	1	+	0	1	blank2r.bmp	500	1	BMVZ	500	1	blank2r.bmp	880	3	lachen	880	1	!	1232	1	!	-1	0	0	0	0	0	0
2024-06-12	13:03:14	13:14:25	671071	6.6.1	4_exp_EVA_AWA_CON	85	B	A	Rpleas_acq	Same	Rpleas	1pleas	acq_US_pleas_nomask	acq45_nomask	5	25	400	0	300	300	0	0	632	50	1	0	retten	freundlich	lachen	schön	ehrlich	helfen	rächen	fanatisch	leiden	schlecht	eitel	hindern	schlau	loyal	treu	fair	tolerant	spielen	schroff	lasch	tot	faul	tyrannisch	strafen	1	blank2r.bmp	0	1	+	0	1	blank2r.bmp	500	1	BMVZ	500	1	blank2r.bmp	880	4	schön	880	1	!	1232	1	!	-1	0	0	0	0	0	0
2024-06-12	13:03:14	13:14:28	673415	6.6.1	4_exp_EVA_AWA_CON	85	B	A	Rpleas_acq	Same	Rpleas	1pleas	acq_US_pleas_nomask	acq45_nomask	5	26	400	0	300	300	0	0	565	50	1	0	retten	freundlich	lachen	schön	ehrlich	helfen	rächen	fanatisch	leiden	schlecht	eitel	hindern	schlau	loyal	treu	fair	tolerant	spielen	schroff	lasch	tot	faul	tyrannisch	strafen	1	blank2r.bmp	0	1	+	0	1	blank2r.bmp	500	1	BMVZ	500	1	blank2r.bmp	880	2	freundlich	880	1	!	1232	1	!	-1	0	0	0	0	0	0
2024-06-12	13:03:14	13:14:30	675767	6.6.1	4_exp_EVA_AWA_CON	85	B	A	Rpleas_acq	Same	Rpleas	1pleas	acq_US_unple_nomask	acq45_nomask	5	27	400	0	300	300	0	0	575	46	1	0	retten	freundlich	lachen	schön	ehrlich	helfen	rächen	fanatisch	leiden	schlecht	eitel	hindern	schlau	loyal	treu	fair	tolerant	spielen	schroff	lasch	tot	faul	tyrannisch	strafen	1	blank2r.bmp	0	1	+	0	1	blank2r.bmp	500	1	GKQX	500	1	blank2r.bmp	880	5	eitel	880	1	!	1232	1	!	-1	0	0	0	0	0	0
2024-06-12	13:03:14	13:14:33	678511	6.6.1	4_exp_EVA_AWA_CON	85	B	A	Rpleas_acq	Same	Rpleas	1pleas	acq_US_unple_nomask	acq45_nomask	5	28	400	0	300	300	0	0	967	46	1	0	retten	freundlich	lachen	schön	ehrlich	helfen	rächen	fanatisch	leiden	schlecht	eitel	hindern	schlau	loyal	treu	fair	tolerant	spielen	schroff	lasch	tot	faul	tyrannisch	strafen	1	blank2r.bmp	0	1	+	0	1	blank2r.bmp	500	1	GKQX	500	1	blank2r.bmp	880	4	schlecht	880	1	!	1232	1	!	-1	0	0	0	0	0	0
2024-06-12	13:03:14	13:14:36	681287	6.6.1	4_exp_EVA_AWA_CON	85	B	A	Rpleas_acq	Same	Rpleas	1pleas	acq_US_unple_nomask	acq45_nomask	5	29	400	0	300	300	0	0	1002	46	1	0	retten	freundlich	lachen	schön	ehrlich	helfen	rächen	fanatisch	leiden	schlecht	eitel	hindern	schlau	loyal	treu	fair	tolerant	spielen	schroff	lasch	tot	faul	tyrannisch	strafen	1	blank2r.bmp	0	1	+	0	1	blank2r.bmp	500	1	GKQX	500	1	blank2r.bmp	880	2	fanatisch	880	1	!	1232	1	!	-1	0	0	0	0	0	0
2024-06-12	13:03:14	13:14:38	683671	6.6.1	4_exp_EVA_AWA_CON	85	B	A	Rpleas_acq	Same	Rpleas	1pleas	acq_US_pleas_nomask	acq45_nomask	5	30	400	0	300	300	0	0	604	50	1	0	retten	freundlich	lachen	schön	ehrlich	helfen	rächen	fanatisch	leiden	schlecht	eitel	hindern	schlau	loyal	treu	fair	tolerant	spielen	schroff	lasch	tot	faul	tyrannisch	strafen	1	blank2r.bmp	0	1	+	0	1	blank2r.bmp	500	1	BMVZ	500	1	blank2r.bmp	880	5	ehrlich	880	1	!	1232	1	!	-1	0	0	0	0	0	0
2024-06-12	13:03:14	13:14:40	686087	6.6.1	4_exp_EVA_AWA_CON	85	B	A	Rpleas_acq	Same	Rpleas	1pleas	acq_US_unple_nomask	acq45_nomask	5	31	400	0	300	300	0	0	638	46	1	0	retten	freundlich	lachen	schön	ehrlich	helfen	rächen	fanatisch	leiden	schlecht	eitel	hindern	schlau	loyal	treu	fair	tolerant	spielen	schroff	lasch	tot	faul	tyrannisch	strafen	1	blank2r.bmp	0	1	+	0	1	blank2r.bmp	500	1	GKQX	500	1	blank2r.bmp	880	5	eitel	880	1	!	1232	1	!	-1	0	0	0	0	0	0
2024-06-12	13:03:14	13:14:43	688583	6.6.1	4_exp_EVA_AWA_CON	85	B	A	Rpleas_acq	Same	Rpleas	1pleas	acq_US_pleas_nomask	acq45_nomask	5	32	400	0	300	300	0	0	723	50	1	0	retten	freundlich	lachen	schön	ehrlich	helfen	rächen	fanatisch	leiden	schlecht	eitel	hindern	schlau	loyal	treu	fair	tolerant	spielen	schroff	lasch	tot	faul	tyrannisch	strafen	1	blank2r.bmp	0	1	+	0	1	blank2r.bmp	500	1	BMVZ	500	1	blank2r.bmp	880	1	retten	880	1	!	1232	1	!	-1	0	0	0	0	0	0
2024-06-12	13:03:14	13:14:45	691087	6.6.1	4_exp_EVA_AWA_CON	85	B	A	Rpleas_acq	Same	Rpleas	1pleas	acq_US_unple_nomask	acq45_nomask	5	33	400	0	300	300	0	0	725	46	1	0	retten	freundlich	lachen	schön	ehrlich	helfen	rächen	fanatisch	leiden	schlecht	eitel	hindern	schlau	loyal	treu	fair	tolerant	spielen	schroff	lasch	tot	faul	tyrannisch	strafen	1	blank2r.bmp	0	1	+	0	1	blank2r.bmp	500	1	GKQX	500	1	blank2r.bmp	880	1	rächen	880	1	!	1232	1	!	-1	0	0	0	0	0	0
2024-06-12	13:03:14	13:14:48	693575	6.6.1	4_exp_EVA_AWA_CON	85	B	A	Rpleas_acq	Same	Rpleas	1pleas	acq_US_unple_nomask	acq45_nomask	5	34	400	0	300	300	0	0	712	46	1	0	retten	freundlich	lachen	schön	ehrlich	helfen	rächen	fanatisch	leiden	schlecht	eitel	hindern	schlau	loyal	treu	fair	tolerant	spielen	schroff	lasch	tot	faul	tyrannisch	strafen	1	blank2r.bmp	0	1	+	0	1	blank2r.bmp	500	1	GKQX	500	1	blank2r.bmp	880	3	leiden	880	1	!	1233	1	!	-1	0	0	0	0	0	0
2024-06-12	13:03:14	13:14:50	696015	6.6.1	4_exp_EVA_AWA_CON	85	B	A	Rpleas_acq	Same	Rpleas	1pleas	acq_US_unple_nomask	acq45_nomask	5	35	400	0	300	300	0	0	660	46	1	0	retten	freundlich	lachen	schön	ehrlich	helfen	rächen	fanatisch	leiden	schlecht	eitel	hindern	schlau	loyal	treu	fair	tolerant	spielen	schroff	lasch	tot	faul	tyrannisch	strafen	1	blank2r.bmp	0	1	+	0	1	blank2r.bmp	500	1	GKQX	500	1	blank2r.bmp	880	6	hindern	880	1	!	1232	1	!	-1	0	0	0	0	0	0
2024-06-12	13:03:14	13:14:53	698359	6.6.1	4_exp_EVA_AWA_CON	85	B	A	Rpleas_acq	Same	Rpleas	1pleas	acq_US_pleas_nomask	acq45_nomask	5	36	400	0	300	300	0	0	563	50	1	0	retten	freundlich	lachen	schön	ehrlich	helfen	rächen	fanatisch	leiden	schlecht	eitel	hindern	schlau	loyal	treu	fair	tolerant	spielen	schroff	lasch	tot	faul	tyrannisch	strafen	1	blank2r.bmp	0	1	+	0	1	blank2r.bmp	500	1	BMVZ	500	1	blank2r.bmp	880	6	helfen	880	1	!	1233	1	!	-1	0	0	0	0	0	0
2024-06-12	13:03:14	13:15:33	738779	6.6.1	4_exp_EVA_AWA_CON	85	B	A	Rpleas_acq	Same	Rpleas	1pleas	EvalRating_firsttwo	EvalRating_firsttwo	6	1	0	0	300	300	0	0	6231	line	0	-37,6302083333333285964pct	retten	freundlich	lachen	schön	ehrlich	helfen	rächen	fanatisch	leiden	schlecht	eitel	hindern	schlau	loyal	treu	fair	tolerant	spielen	schroff	lasch	tot	faul	tyrannisch	strafen	1		-8	1	Wie angenehm oder unangenehm finden Sie die  Buchstabenkette ZGVK?	-8	1		-8	1		-8	1		-8	1	Unangenehm	-8	1	Angenehm	-8	0	0	0	0	0	0	0	0	0
2024-06-12	13:03:14	13:15:40	745435	6.6.1	4_exp_EVA_AWA_CON	85	B	A	Rpleas_acq	Same	Rpleas	1pleas	EvalRating_lastfour	EvalRating_lastfour	7	1	0	0	300	300	0	0	4282	line	0	96,3541666666666856145pct	retten	freundlich	lachen	schön	ehrlich	helfen	rächen	fanatisch	leiden	schlecht	eitel	hindern	schlau	loyal	treu	fair	tolerant	spielen	schroff	lasch	tot	faul	tyrannisch	strafen	1		-8	2	Wie angenehm oder unangenehm finden Sie die  Buchstabenkette GKQX?	-8	1		-8	1		-8	1		-8	1	Unangenehm	-8	1	Angenehm	-8	0	0	0	0	0	0	0	0	0
2024-06-12	13:03:14	13:15:42	747800	6.6.1	4_exp_EVA_AWA_CON	85	B	A	Rpleas_acq	Same	Rpleas	1pleas	blank_screen	EvalRating_lastfour	7	3	0	0	300	300	0	0	0	0	0	96,3541666666666856145pct	retten	freundlich	lachen	schön	ehrlich	helfen	rächen	fanatisch	leiden	schlecht	eitel	hindern	schlau	loyal	treu	fair	tolerant	spielen	schroff	lasch	tot	faul	tyrannisch	strafen	1		-8	0	0	0	0	0	0	0	0	0	0	0	0	0	0	0	0	0	0	0	0	0	0	0	0	0	0	0
2024-06-12	13:03:14	13:15:50	755740	6.6.1	4_exp_EVA_AWA_CON	85	B	A	Rpleas_acq	Same	Rpleas	1pleas	EvalRating_lastfour	EvalRating_lastfour	7	4	0	0	300	300	0	0	7351	line	0	-31,640625pct	retten	freundlich	lachen	schön	ehrlich	helfen	rächen	fanatisch	leiden	schlecht	eitel	hindern	schlau	loyal	treu	fair	tolerant	spielen	schroff	lasch	tot	faul	tyrannisch	strafen	1		-8	3	Wie angenehm oder unangenehm finden Sie die  Buchstabenkette XBQM?	-8	1		-8	1		-8	1		-8	1	Unangenehm	-8	1	Angenehm	-8	0	0	0	0	0	0	0	0	0
2024-06-12	13:03:14	13:15:53	758106	6.6.1	4_exp_EVA_AWA_CON	85	B	A	Rpleas_acq	Same	Rpleas	1pleas	blank_screen	EvalRating_lastfour	7	6	0	0	300	300	0	0	0	0	0	-31,640625pct	retten	freundlich	lachen	schön	ehrlich	helfen	rächen	fanatisch	leiden	schlecht	eitel	hindern	schlau	loyal	treu	fair	tolerant	spielen	schroff	lasch	tot	faul	tyrannisch	strafen	1		-8	0	0	0	0	0	0	0	0	0	0	0	0	0	0	0	0	0	0	0	0	0	0	0	0	0	0	0
2024-06-12	13:03:14	13:15:56	762011	6.6.1	4_exp_EVA_AWA_CON	85	B	A	Rpleas_acq	Same	Rpleas	1pleas	EvalRating_lastfour	EvalRating_lastfour	7	7	0	0	300	300	0	0	3317	line	0	5,7291666666666714036pct	retten	freundlich	lachen	schön	ehrlich	helfen	rächen	fanatisch	leiden	schlecht	eitel	hindern	schlau	loyal	treu	fair	tolerant	spielen	schroff	lasch	tot	faul	tyrannisch	strafen	1		-8	1	Wie angenehm oder unangenehm finden Sie die  Buchstabenkette BMVZ?	-8	1		-8	1		-8	1		-8	1	Unangenehm	-8	1	Angenehm	-8	0	0	0	0	0	0	0	0	0
2024-06-12	13:03:14	13:17:13	838436	6.6.1	4_exp_EVA_AWA_CON	85	B	A	Rpleas_acq	Same	Rpleas	1pleas	conawa_CS2_US5	conawa1_nomask	8	1	0	0	300	300	0	0	20077	eitel	1	5,7291666666666714036pct	retten	freundlich	lachen	schön	ehrlich	helfen	rächen	fanatisch	leiden	schlecht	eitel	hindern	schlau	loyal	treu	fair	tolerant	spielen	schroff	lasch	tot	faul	tyrannisch	strafen	0	0	0	0	0	0	0	0	0	0	0	0	0	0	0	0	0	0	0	0	0	0	0	0	0	0	0	0	0	0
2024-06-12	13:03:14	13:17:13	838438	6.6.1	4_exp_EVA_AWA_CON	85	B	A	Rpleas_acq	Same	Rpleas	1pleas	conawa_CS2_US5_confidence	conawa1_nomask	8	1	0	0	300	300	0	0	20077	guess	1	5,7291666666666714036pct	retten	freundlich	lachen	schön	ehrlich	helfen	rächen	fanatisch	leiden	schlecht	eitel	hindern	schlau	loyal	treu	fair	tolerant	spielen	schroff	lasch	tot	faul	tyrannisch	strafen	0	0	0	0	0	0	0	0	0	0	0	0	0	0	0	0	0	0	0	0	0	0	0	0	0	0	0	0	0	0
2024-06-12	13:03:14	13:17:31	856758	6.6.1	4_exp_EVA_AWA_CON	85	B	A	Rpleas_acq	Same	Rpleas	1pleas	conawa_CS2_US3	conawa1_nomask	8	2	0	0	300	300	0	0	17704	fair	1	5,7291666666666714036pct	retten	freundlich	lachen	schön	ehrlich	helfen	rächen	fanatisch	leiden	schlecht	eitel	hindern	schlau	loyal	treu	fair	tolerant	spielen	schroff	lasch	tot	faul	tyrannisch	strafen	0	0	0	0	0	0	0	0	0	0	0	0	0	0	0	0	0	0	0	0	0	0	0	0	0	0	0	0	0	0
2024-06-12	13:03:14	13:17:31	856759	6.6.1	4_exp_EVA_AWA_CON	85	B	A	Rpleas_acq	Same	Rpleas	1pleas	conawa_CS2_US3_confidence	conawa1_nomask	8	2	0	0	300	300	0	0	17704	guess	1	5,7291666666666714036pct	retten	freundlich	lachen	schön	ehrlich	helfen	rächen	fanatisch	leiden	schlecht	eitel	hindern	schlau	loyal	treu	fair	tolerant	spielen	schroff	lasch	tot	faul	tyrannisch	strafen	0	0	0	0	0	0	0	0	0	0	0	0	0	0	0	0	0	0	0	0	0	0	0	0	0	0	0	0	0	0
2024-06-12	13:03:14	13:17:41	866254	6.6.1	4_exp_EVA_AWA_CON	85	B	A	Rpleas_acq	Same	Rpleas	1pleas	conawa_CS1_US6	conawa1_nomask	8	3	0	0	300	300	0	0	8876	spielen	1	5,7291666666666714036pct	retten	freundlich	lachen	schön	ehrlich	helfen	rächen	fanatisch	leiden	schlecht	eitel	hindern	schlau	loyal	treu	fair	tolerant	spielen	schroff	lasch	tot	faul	tyrannisch	strafen	0	0	0	0	0	0	0	0	0	0	0	0	0	0	0	0	0	0	0	0	0	0	0	0	0	0	0	0	0	0
2024-06-12	13:03:14	13:17:41	866255	6.6.1	4_exp_EVA_AWA_CON	85	B	A	Rpleas_acq	Same	Rpleas	1pleas	conawa_CS1_US6_confidence	conawa1_nomask	8	3	0	0	300	300	0	0	8876	guess	1	5,7291666666666714036pct	retten	freundlich	lachen	schön	ehrlich	helfen	rächen	fanatisch	leiden	schlecht	eitel	hindern	schlau	loyal	treu	fair	tolerant	spielen	schroff	lasch	tot	faul	tyrannisch	strafen	0	0	0	0	0	0	0	0	0	0	0	0	0	0	0	0	0	0	0	0	0	0	0	0	0	0	0	0	0	0
2024-06-12	13:03:14	13:17:50	875710	6.6.1	4_exp_EVA_AWA_CON	85	B	A	Rpleas_acq	Same	Rpleas	1pleas	conawa_CS2_US4	conawa1_nomask	8	4	0	0	300	300	0	0	8839	schön	1	5,7291666666666714036pct	retten	freundlich	lachen	schön	ehrlich	helfen	rächen	fanatisch	leiden	schlecht	eitel	hindern	schlau	loyal	treu	fair	tolerant	spielen	schroff	lasch	tot	faul	tyrannisch	strafen	0	0	0	0	0	0	0	0	0	0	0	0	0	0	0	0	0	0	0	0	0	0	0	0	0	0	0	0	0	0
2024-06-12	13:03:14	13:17:50	875711	6.6.1	4_exp_EVA_AWA_CON	85	B	A	Rpleas_acq	Same	Rpleas	1pleas	conawa_CS2_US4_confidence	conawa1_nomask	8	4	0	0	300	300	0	0	8839	guess	1	5,7291666666666714036pct	retten	freundlich	lachen	schön	ehrlich	helfen	rächen	fanatisch	leiden	schlecht	eitel	hindern	schlau	loyal	treu	fair	tolerant	spielen	schroff	lasch	tot	faul	tyrannisch	strafen	0	0	0	0	0	0	0	0	0	0	0	0	0	0	0	0	0	0	0	0	0	0	0	0	0	0	0	0	0	0
2024-06-12	13:03:14	13:18:00	885476	6.6.1	4_exp_EVA_AWA_CON	85	B	A	Rpleas_acq	Same	Rpleas	1pleas	conawa_CS2_US1	conawa1_nomask	8	5	0	0	300	300	0	0	9149	loyal	1	5,7291666666666714036pct	retten	freundlich	lachen	schön	ehrlich	helfen	rächen	fanatisch	leiden	schlecht	eitel	hindern	schlau	loyal	treu	fair	tolerant	spielen	schroff	lasch	tot	faul	tyrannisch	strafen	0	0	0	0	0	0	0	0	0	0	0	0	0	0	0	0	0	0	0	0	0	0	0	0	0	0	0	0	0	0
2024-06-12	13:03:14	13:18:00	885478	6.6.1	4_exp_EVA_AWA_CON	85	B	A	Rpleas_acq	Same	Rpleas	1pleas	conawa_CS2_US1_confidence	conawa1_nomask	8	5	0	0	300	300	0	0	9149	guess	1	5,7291666666666714036pct	retten	freundlich	lachen	schön	ehrlich	helfen	rächen	fanatisch	leiden	schlecht	eitel	hindern	schlau	loyal	treu	fair	tolerant	spielen	schroff	lasch	tot	faul	tyrannisch	strafen	0	0	0	0	0	0	0	0	0	0	0	0	0	0	0	0	0	0	0	0	0	0	0	0	0	0	0	0	0	0
2024-06-12	13:03:14	13:18:08	893371	6.6.1	4_exp_EVA_AWA_CON	85	B	A	Rpleas_acq	Same	Rpleas	1pleas	conawa_CS1_US2	conawa1_nomask	8	6	0	0	300	300	0	0	7282	freundlich	1	5,7291666666666714036pct	retten	freundlich	lachen	schön	ehrlich	helfen	rächen	fanatisch	leiden	schlecht	eitel	hindern	schlau	loyal	treu	fair	tolerant	spielen	schroff	lasch	tot	faul	tyrannisch	strafen	0	0	0	0	0	0	0	0	0	0	0	0	0	0	0	0	0	0	0	0	0	0	0	0	0	0	0	0	0	0
2024-06-12	13:03:14	13:18:08	893373	6.6.1	4_exp_EVA_AWA_CON	85	B	A	Rpleas_acq	Same	Rpleas	1pleas	conawa_CS1_US2_confidence	conawa1_nomask	8	6	0	0	300	300	0	0	7282	guess	1	5,7291666666666714036pct	retten	freundlich	lachen	schön	ehrlich	helfen	rächen	fanatisch	leiden	schlecht	eitel	hindern	schlau	loyal	treu	fair	tolerant	spielen	schroff	lasch	tot	faul	tyrannisch	strafen	0	0	0	0	0	0	0	0	0	0	0	0	0	0	0	0	0	0	0	0	0	0	0	0	0	0	0	0	0	0
2024-06-12	13:03:14	13:18:16	901566	6.6.1	4_exp_EVA_AWA_CON	85	B	A	Rpleas_acq	Same	Rpleas	1pleas	conawa_CS2_US6	conawa1_nomask	8	7	0	0	300	300	0	0	7577	schlau	1	5,7291666666666714036pct	retten	freundlich	lachen	schön	ehrlich	helfen	rächen	fanatisch	leiden	schlecht	eitel	hindern	schlau	loyal	treu	fair	tolerant	spielen	schroff	lasch	tot	faul	tyrannisch	strafen	0	0	0	0	0	0	0	0	0	0	0	0	0	0	0	0	0	0	0	0	0	0	0	0	0	0	0	0	0	0
2024-06-12	13:03:14	13:18:16	901568	6.6.1	4_exp_EVA_AWA_CON	85	B	A	Rpleas_acq	Same	Rpleas	1pleas	conawa_CS2_US6_confidence	conawa1_nomask	8	7	0	0	300	300	0	0	7577	guess	1	5,7291666666666714036pct	retten	freundlich	lachen	schön	ehrlich	helfen	rächen	fanatisch	leiden	schlecht	eitel	hindern	schlau	loyal	treu	fair	tolerant	spielen	schroff	lasch	tot	faul	tyrannisch	strafen	0	0	0	0	0	0	0	0	0	0	0	0	0	0	0	0	0	0	0	0	0	0	0	0	0	0	0	0	0	0
2024-06-12	13:03:14	13:18:22	907460	6.6.1	4_exp_EVA_AWA_CON	85	B	A	Rpleas_acq	Same	Rpleas	1pleas	conawa_CS1_US4	conawa1_nomask	8	8	0	0	300	300	0	0	5280	fair	1	5,7291666666666714036pct	retten	freundlich	lachen	schön	ehrlich	helfen	rächen	fanatisch	leiden	schlecht	eitel	hindern	schlau	loyal	treu	fair	tolerant	spielen	schroff	lasch	tot	faul	tyrannisch	strafen	0	0	0	0	0	0	0	0	0	0	0	0	0	0	0	0	0	0	0	0	0	0	0	0	0	0	0	0	0	0
2024-06-12	13:03:14	13:18:22	907462	6.6.1	4_exp_EVA_AWA_CON	85	B	A	Rpleas_acq	Same	Rpleas	1pleas	conawa_CS1_US4_confidence	conawa1_nomask	8	8	0	0	300	300	0	0	5280	guess	1	5,7291666666666714036pct	retten	freundlich	lachen	schön	ehrlich	helfen	rächen	fanatisch	leiden	schlecht	eitel	hindern	schlau	loyal	treu	fair	tolerant	spielen	schroff	lasch	tot	faul	tyrannisch	strafen	0	0	0	0	0	0	0	0	0	0	0	0	0	0	0	0	0	0	0	0	0	0	0	0	0	0	0	0	0	0
2024-06-12	13:03:14	13:18:29	915075	6.6.1	4_exp_EVA_AWA_CON	85	B	A	Rpleas_acq	Same	Rpleas	1pleas	conawa_CS2_US2	conawa1_nomask	8	9	0	0	300	300	0	0	7001	treu	1	5,7291666666666714036pct	retten	freundlich	lachen	schön	ehrlich	helfen	rächen	fanatisch	leiden	schlecht	eitel	hindern	schlau	loyal	treu	fair	tolerant	spielen	schroff	lasch	tot	faul	tyrannisch	strafen	0	0	0	0	0	0	0	0	0	0	0	0	0	0	0	0	0	0	0	0	0	0	0	0	0	0	0	0	0	0
2024-06-12	13:03:14	13:18:29	915076	6.6.1	4_exp_EVA_AWA_CON	85	B	A	Rpleas_acq	Same	Rpleas	1pleas	conawa_CS2_US2_confidence	conawa1_nomask	8	9	0	0	300	300	0	0	7001	guess	1	5,7291666666666714036pct	retten	freundlich	lachen	schön	ehrlich	helfen	rächen	fanatisch	leiden	schlecht	eitel	hindern	schlau	loyal	treu	fair	tolerant	spielen	schroff	lasch	tot	faul	tyrannisch	strafen	0	0	0	0	0	0	0	0	0	0	0	0	0	0	0	0	0	0	0	0	0	0	0	0	0	0	0	0	0	0
2024-06-12	13:03:14	13:18:37	922950	6.6.1	4_exp_EVA_AWA_CON	85	B	A	Rpleas_acq	Same	Rpleas	1pleas	conawa_CS1_US3	conawa1_nomask	8	10	0	0	300	300	0	0	7257	lachen	1	5,7291666666666714036pct	retten	freundlich	lachen	schön	ehrlich	helfen	rächen	fanatisch	leiden	schlecht	eitel	hindern	schlau	loyal	treu	fair	tolerant	spielen	schroff	lasch	tot	faul	tyrannisch	strafen	0	0	0	0	0	0	0	0	0	0	0	0	0	0	0	0	0	0	0	0	0	0	0	0	0	0	0	0	0	0
2024-06-12	13:03:14	13:18:37	922952	6.6.1	4_exp_EVA_AWA_CON	85	B	A	Rpleas_acq	Same	Rpleas	1pleas	conawa_CS1_US3_confidence	conawa1_nomask	8	10	0	0	300	300	0	0	7257	guess	1	5,7291666666666714036pct	retten	freundlich	lachen	schön	ehrlich	helfen	rächen	fanatisch	leiden	schlecht	eitel	hindern	schlau	loyal	treu	fair	tolerant	spielen	schroff	lasch	tot	faul	tyrannisch	strafen	0	0	0	0	0	0	0	0	0	0	0	0	0	0	0	0	0	0	0	0	0	0	0	0	0	0	0	0	0	0
2024-06-12	13:03:14	13:18:45	931036	6.6.1	4_exp_EVA_AWA_CON	85	B	A	Rpleas_acq	Same	Rpleas	1pleas	conawa_CS1_US1	conawa1_nomask	8	11	0	0	300	300	0	0	7471	schlau	1	5,7291666666666714036pct	retten	freundlich	lachen	schön	ehrlich	helfen	rächen	fanatisch	leiden	schlecht	eitel	hindern	schlau	loyal	treu	fair	tolerant	spielen	schroff	lasch	tot	faul	tyrannisch	strafen	0	0	0	0	0	0	0	0	0	0	0	0	0	0	0	0	0	0	0	0	0	0	0	0	0	0	0	0	0	0
2024-06-12	13:03:14	13:18:45	931037	6.6.1	4_exp_EVA_AWA_CON	85	B	A	Rpleas_acq	Same	Rpleas	1pleas	conawa_CS1_US1_confidence	conawa1_nomask	8	11	0	0	300	300	0	0	7471	guess	1	5,7291666666666714036pct	retten	freundlich	lachen	schön	ehrlich	helfen	rächen	fanatisch	leiden	schlecht	eitel	hindern	schlau	loyal	treu	fair	tolerant	spielen	schroff	lasch	tot	faul	tyrannisch	strafen	0	0	0	0	0	0	0	0	0	0	0	0	0	0	0	0	0	0	0	0	0	0	0	0	0	0	0	0	0	0
2024-06-12	13:03:14	13:18:51	936969	6.6.1	4_exp_EVA_AWA_CON	85	B	A	Rpleas_acq	Same	Rpleas	1pleas	conawa_CS1_US5	conawa1_nomask	8	12	0	0	300	300	0	0	5321	ehrlich	1	5,7291666666666714036pct	retten	freundlich	lachen	schön	ehrlich	helfen	rächen	fanatisch	leiden	schlecht	eitel	hindern	schlau	loyal	treu	fair	tolerant	spielen	schroff	lasch	tot	faul	tyrannisch	strafen	0	0	0	0	0	0	0	0	0	0	0	0	0	0	0	0	0	0	0	0	0	0	0	0	0	0	0	0	0	0
2024-06-12	13:03:14	13:18:51	936971	6.6.1	4_exp_EVA_AWA_CON	85	B	A	Rpleas_acq	Same	Rpleas	1pleas	conawa_CS1_US5_confidence	conawa1_nomask	8	12	0	0	300	300	0	0	5321	guess	1	5,7291666666666714036pct	retten	freundlich	lachen	schön	ehrlich	helfen	rächen	fanatisch	leiden	schlecht	eitel	hindern	schlau	loyal	treu	fair	tolerant	spielen	schroff	lasch	tot	faul	tyrannisch	strafen	0	0	0	0	0	0	0	0	0	0	0	0	0	0	0	0	0	0	0	0	0	0	0	0	0	0	0	0	0	0
2024-06-12	13:03:14	13:22:35	1160423	6.6.1	4_exp_EVA_AWA_CON	85	B	A	Rpleas_acq	Same	Rpleas	1pleas	cond_new_unple_456_nomask_CS1	condtest_nomask_1	11	1	400	0	300	300	0	0	1361	46	1	5,7291666666666714036pct	retten	freundlich	lachen	schön	ehrlich	helfen	rächen	fanatisch	leiden	schlecht	eitel	hindern	schlau	loyal	treu	fair	tolerant	spielen	schroff	lasch	tot	faul	tyrannisch	strafen	1	blank2r.bmp	0	1	+	0	1	blank2r.bmp	500	1	BMVZ	500	1	blank2r.bmp	880	2	tyrannisch	880	1	!	1233	1	!	-1	0	0	0	0	0	0
2024-06-12	13:03:14	13:22:37	1162839	6.6.1	4_exp_EVA_AWA_CON	85	B	A	Rpleas_acq	Same	Rpleas	1pleas	cond_US_pleas_123_nomask_CS2	condtest_nomask_1	11	2	400	0	300	300	0	0	635	50	1	5,7291666666666714036pct	retten	freundlich	lachen	schön	ehrlich	helfen	rächen	fanatisch	leiden	schlecht	eitel	hindern	schlau	loyal	treu	fair	tolerant	spielen	schroff	lasch	tot	faul	tyrannisch	strafen	1	blank2r.bmp	0	1	+	0	1	blank2r.bmp	500	1	GKQX	500	1	blank2r.bmp	880	2	retten	880	1	!	1232	1	!	-1	0	0	0	0	0	0
2024-06-12	13:03:14	13:22:40	1165295	6.6.1	4_exp_EVA_AWA_CON	85	B	A	Rpleas_acq	Same	Rpleas	1pleas	cond_new_unple_456_nomask_CS2	condtest_nomask_1	11	3	400	0	300	300	0	0	679	46	1	5,7291666666666714036pct	retten	freundlich	lachen	schön	ehrlich	helfen	rächen	fanatisch	leiden	schlecht	eitel	hindern	schlau	loyal	treu	fair	tolerant	spielen	schroff	lasch	tot	faul	tyrannisch	strafen	1	blank2r.bmp	0	1	+	0	1	blank2r.bmp	500	1	GKQX	500	1	blank2r.bmp	880	3	tyrannisch	880	1	!	1232	1	!	-1	0	0	0	0	0	0
2024-06-12	13:03:14	13:22:42	1167791	6.6.1	4_exp_EVA_AWA_CON	85	B	A	Rpleas_acq	Same	Rpleas	1pleas	cond_US_unple_123_nomask_CS2	condtest_nomask_1	11	4	400	0	300	300	0	0	724	46	1	5,7291666666666714036pct	retten	freundlich	lachen	schön	ehrlich	helfen	rächen	fanatisch	leiden	schlecht	eitel	hindern	schlau	loyal	treu	fair	tolerant	spielen	schroff	lasch	tot	faul	tyrannisch	strafen	1	blank2r.bmp	0	1	+	0	1	blank2r.bmp	500	1	GKQX	500	1	blank2r.bmp	880	2	rächen	880	1	!	1233	1	!	-1	0	0	0	0	0	0
2024-06-12	13:03:14	13:22:45	1170271	6.6.1	4_exp_EVA_AWA_CON	85	B	A	Rpleas_acq	Same	Rpleas	1pleas	cond_new_pleas_456_nomask_CS2	condtest_nomask_1	11	5	400	0	300	300	0	0	702	50	1	5,7291666666666714036pct	retten	freundlich	lachen	schön	ehrlich	helfen	rächen	fanatisch	leiden	schlecht	eitel	hindern	schlau	loyal	treu	fair	tolerant	spielen	schroff	lasch	tot	faul	tyrannisch	strafen	1	blank2r.bmp	0	1	+	0	1	blank2r.bmp	500	1	GKQX	500	1	blank2r.bmp	880	3	tolerant	880	1	!	1232	1	!	-1	0	0	0	0	0	0
2024-06-12	13:03:14	13:22:47	1172815	6.6.1	4_exp_EVA_AWA_CON	85	B	A	Rpleas_acq	Same	Rpleas	1pleas	cond_US_unple_123_nomask_CS1	condtest_nomask_1	11	6	400	0	300	300	0	0	764	46	1	5,7291666666666714036pct	retten	freundlich	lachen	schön	ehrlich	helfen	rächen	fanatisch	leiden	schlecht	eitel	hindern	schlau	loyal	treu	fair	tolerant	spielen	schroff	lasch	tot	faul	tyrannisch	strafen	1	blank2r.bmp	0	1	+	0	1	blank2r.bmp	500	1	BMVZ	500	1	blank2r.bmp	880	3	leiden	880	1	!	1232	1	!	-1	0	0	0	0	0	0
2024-06-12	13:03:14	13:22:50	1175519	6.6.1	4_exp_EVA_AWA_CON	85	B	A	Rpleas_acq	Same	Rpleas	1pleas	cond_new_pleas_456_nomask_CS1	condtest_nomask_1	11	7	400	0	300	300	0	0	927	50	1	5,7291666666666714036pct	retten	freundlich	lachen	schön	ehrlich	helfen	rächen	fanatisch	leiden	schlecht	eitel	hindern	schlau	loyal	treu	fair	tolerant	spielen	schroff	lasch	tot	faul	tyrannisch	strafen	1	blank2r.bmp	0	1	+	0	1	blank2r.bmp	500	1	BMVZ	500	1	blank2r.bmp	880	2	tolerant	880	1	!	1232	1	!	-1	0	0	0	0	0	0
2024-06-12	13:03:14	13:22:52	1177991	6.6.1	4_exp_EVA_AWA_CON	85	B	A	Rpleas_acq	Same	Rpleas	1pleas	cond_US_pleas_123_nomask_CS1	condtest_nomask_1	11	8	400	0	300	300	0	0	697	50	1	5,7291666666666714036pct	retten	freundlich	lachen	schön	ehrlich	helfen	rächen	fanatisch	leiden	schlecht	eitel	hindern	schlau	loyal	treu	fair	tolerant	spielen	schroff	lasch	tot	faul	tyrannisch	strafen	1	blank2r.bmp	0	1	+	0	1	blank2r.bmp	500	1	BMVZ	500	1	blank2r.bmp	880	1	retten	880	1	!	1232	1	!	-1	0	0	0	0	0	0
2024-06-12	13:03:14	13:23:01	1186967	6.6.1	4_exp_EVA_AWA_CON	85	B	A	Rpleas_acq	Same	Rpleas	1pleas	cond_US_pleas_123_nomask_CS2	condtest_nomask_2	12	1	400	0	300	300	0	0	797	50	1	5,7291666666666714036pct	retten	freundlich	lachen	schön	ehrlich	helfen	rächen	fanatisch	leiden	schlecht	eitel	hindern	schlau	loyal	treu	fair	tolerant	spielen	schroff	lasch	tot	faul	tyrannisch	strafen	1	blank2r.bmp	0	1	+	0	1	blank2r.bmp	500	1	GKQX	500	1	blank2r.bmp	880	1	lachen	880	1	!	1232	1	!	-1	0	0	0	0	0	0
