date	time	currenttime	elapsedtime	build	currentexpt	subject	CS_AB	US_AB	LRpleas_acq	SameOppo	condition_Lpleas	condition_1pleas	trialcode	blockcode	blocknum	trialnum	windowcenter	inwindow	pretrialpause	posttrialpause	trialduration	trialtimeout	latency	response	correct	correctedscore	US_nomask_pleas1	US_nomask_pleas2	US_nomask_pleas3	US_nomask_pleas4	US_nomask_pleas5	US_nomask_pleas6	US_nomask_unple1	US_nomask_unple2	US_nomask_unple3	US_nomask_unple4	US_nomask_unple5	US_nomask_unple6	new_nomask_pleas1	new_nomask_pleas2	new_nomask_pleas3	new_nomask_pleas4	new_nomask_pleas5	new_nomask_pleas6	new_nomask_unple1	new_nomask_unple2	new_nomask_unple3	new_nomask_unple4	new_nomask_unple5	new_nomask_unple6	stimulusnumber1	stimulusitem1	stimulusonset1	stimulusnumber2	stimulusitem2	stimulusonset2	stimulusnumber3	stimulusitem3	stimulusonset3	stimulusnumber4	stimulusitem4	stimulusonset4	stimulusnumber5	stimulusitem5	stimulusonset5	stimulusnumber6	stimulusitem6	stimulusonset6	stimulusnumber7	stimulusitem7	stimulusonset7	stimulusnumber8	stimulusitem8	stimulusonset8	stimulusnumber9	stimulusitem9	stimulusonset9	stimulusnumber10	stimulusitem10	stimulusonset10
2024-06-12	15:31:07	15:33:41	153490	6.6.1	4_exp_EVA_AWA_CON	86	B	A	Rpleas_acq	Oppo	Rpleas	1pleas	acq_new_pleas_nomask	acq1_nomask	1	1	0	0	300	300	0	0	2189	50	1	0	schlau	lachen	ehrlich	spielen	schön	fair	schroff	leiden	eitel	strafen	schlecht	faul	treu	helfen	tolerant	retten	loyal	freundlich	tot	hindern	tyrannisch	rächen	lasch	fanatisch	1	blank2r.bmp	0	1	+	0	1	blank2r.bmp	500	4	B4r.bmp	500	1	blank2r.bmp	880	3	tolerant	880	0	0	0	0	0	0	0	0	0	0	0	0
2024-06-12	15:31:07	15:33:44	156050	6.6.1	4_exp_EVA_AWA_CON	86	B	A	Rpleas_acq	Oppo	Rpleas	1pleas	acq_new_unple_nomask	acq1_nomask	1	2	0	0	300	300	0	0	1076	46	1	0	schlau	lachen	ehrlich	spielen	schön	fair	schroff	leiden	eitel	strafen	schlecht	faul	treu	helfen	tolerant	retten	loyal	freundlich	tot	hindern	tyrannisch	rächen	lasch	fanatisch	1	blank2r.bmp	0	1	+	0	1	blank2r.bmp	500	8	C4r.bmp	500	1	blank2r.bmp	880	4	rächen	880	0	0	0	0	0	0	0	0	0	0	0	0
2024-06-12	15:31:07	15:33:46	158250	6.6.1	4_exp_EVA_AWA_CON	86	B	A	Rpleas_acq	Oppo	Rpleas	1pleas	acq_new_pleas_nomask	acq1_nomask	1	3	0	0	300	300	0	0	715	50	1	0	schlau	lachen	ehrlich	spielen	schön	fair	schroff	leiden	eitel	strafen	schlecht	faul	treu	helfen	tolerant	retten	loyal	freundlich	tot	hindern	tyrannisch	rächen	lasch	fanatisch	1	blank2r.bmp	0	1	+	0	1	blank2r.bmp	500	3	B3r.bmp	500	1	blank2r.bmp	880	2	helfen	880	0	0	0	0	0	0	0	0	0	0	0	0
2024-06-12	15:31:07	15:33:49	161826	6.6.1	4_exp_EVA_AWA_CON	86	B	A	Rpleas_acq	Oppo	Rpleas	1pleas	acq_US_pleas_nomask	acq1_nomask	1	4	0	0	300	300	0	0	2089	50	1	0	schlau	lachen	ehrlich	spielen	schön	fair	schroff	leiden	eitel	strafen	schlecht	faul	treu	helfen	tolerant	retten	loyal	freundlich	tot	hindern	tyrannisch	rächen	lasch	fanatisch	1	blank2r.bmp	0	1	+	0	1	blank2r.bmp	500	1	BMVZ	500	1	blank2r.bmp	880	1	schlau	880	0	0	0	0	0	0	0	0	0	0	0	0
2024-06-12	15:31:07	15:33:52	164074	6.6.1	4_exp_EVA_AWA_CON	86	B	A	Rpleas_acq	Oppo	Rpleas	1pleas	acq_US_unple_nomask	acq1_nomask	1	5	0	0	300	300	0	0	765	46	1	0	schlau	lachen	ehrlich	spielen	schön	fair	schroff	leiden	eitel	strafen	schlecht	faul	treu	helfen	tolerant	retten	loyal	freundlich	tot	hindern	tyrannisch	rächen	lasch	fanatisch	1	blank2r.bmp	0	1	+	0	1	blank2r.bmp	500	1	GKQX	500	1	blank2r.bmp	880	1	schroff	880	0	0	0	0	0	0	0	0	0	0	0	0
2024-06-12	15:31:07	15:33:55	166876	6.6.1	4_exp_EVA_AWA_CON	86	B	A	Rpleas_acq	Oppo	Rpleas	1pleas	acq_new_unple_nomask	acq1_nomask	1	6	0	0	300	300	0	0	1113	50	0	0	schlau	lachen	ehrlich	spielen	schön	fair	schroff	leiden	eitel	strafen	schlecht	faul	treu	helfen	tolerant	retten	loyal	freundlich	tot	hindern	tyrannisch	rächen	lasch	fanatisch	1	blank2r.bmp	0	1	+	0	1	blank2r.bmp	500	5	C1r.bmp	500	1	blank2r.bmp	880	6	fanatisch	880	1	FEHLER	2015	0	0	0	0	0	0	0	0	0
2024-06-12	15:31:07	15:33:57	169731	6.6.1	4_exp_EVA_AWA_CON	86	B	A	Rpleas_acq	Oppo	Rpleas	1pleas	acq_new_pleas_nomask	acq1_nomask	1	7	0	0	300	300	0	0	1568	50	1	0	schlau	lachen	ehrlich	spielen	schön	fair	schroff	leiden	eitel	strafen	schlecht	faul	treu	helfen	tolerant	retten	loyal	freundlich	tot	hindern	tyrannisch	rächen	lasch	fanatisch	1	blank2r.bmp	0	1	+	0	1	blank2r.bmp	500	2	B2r.bmp	500	1	blank2r.bmp	880	4	retten	880	0	0	0	0	0	0	0	0	0	0	0	0
2024-06-12	15:31:07	15:34:00	171923	6.6.1	4_exp_EVA_AWA_CON	86	B	A	Rpleas_acq	Oppo	Rpleas	1pleas	acq_US_unple_nomask	acq1_nomask	1	8	0	0	300	300	0	0	708	46	1	0	schlau	lachen	ehrlich	spielen	schön	fair	schroff	leiden	eitel	strafen	schlecht	faul	treu	helfen	tolerant	retten	loyal	freundlich	tot	hindern	tyrannisch	rächen	lasch	fanatisch	1	blank2r.bmp	0	1	+	0	1	blank2r.bmp	500	1	GKQX	500	1	blank2r.bmp	880	6	faul	880	0	0	0	0	0	0	0	0	0	0	0	0
2024-06-12	15:31:07	15:34:02	174250	6.6.1	4_exp_EVA_AWA_CON	86	B	A	Rpleas_acq	Oppo	Rpleas	1pleas	acq_US_unple_nomask	acq1_nomask	1	9	0	0	300	300	0	0	844	46	1	0	schlau	lachen	ehrlich	spielen	schön	fair	schroff	leiden	eitel	strafen	schlecht	faul	treu	helfen	tolerant	retten	loyal	freundlich	tot	hindern	tyrannisch	rächen	lasch	fanatisch	1	blank2r.bmp	0	1	+	0	1	blank2r.bmp	500	1	GKQX	500	1	blank2r.bmp	880	4	strafen	880	0	0	0	0	0	0	0	0	0	0	0	0
2024-06-12	15:31:07	15:34:04	176354	6.6.1	4_exp_EVA_AWA_CON	86	B	A	Rpleas_acq	Oppo	Rpleas	1pleas	acq_new_unple_nomask	acq1_nomask	1	10	0	0	300	300	0	0	617	46	1	0	schlau	lachen	ehrlich	spielen	schön	fair	schroff	leiden	eitel	strafen	schlecht	faul	treu	helfen	tolerant	retten	loyal	freundlich	tot	hindern	tyrannisch	rächen	lasch	fanatisch	1	blank2r.bmp	0	1	+	0	1	blank2r.bmp	500	7	C3r.bmp	500	1	blank2r.bmp	880	1	tot	880	0	0	0	0	0	0	0	0	0	0	0	0
2024-06-12	15:31:07	15:34:06	178514	6.6.1	4_exp_EVA_AWA_CON	86	B	A	Rpleas_acq	Oppo	Rpleas	1pleas	acq_US_pleas_nomask	acq1_nomask	1	11	0	0	300	300	0	0	676	50	1	0	schlau	lachen	ehrlich	spielen	schön	fair	schroff	leiden	eitel	strafen	schlecht	faul	treu	helfen	tolerant	retten	loyal	freundlich	tot	hindern	tyrannisch	rächen	lasch	fanatisch	1	blank2r.bmp	0	1	+	0	1	blank2r.bmp	500	1	BMVZ	500	1	blank2r.bmp	880	6	fair	880	0	0	0	0	0	0	0	0	0	0	0	0
2024-06-12	15:31:07	15:34:08	180611	6.6.1	4_exp_EVA_AWA_CON	86	B	A	Rpleas_acq	Oppo	Rpleas	1pleas	acq_US_pleas_nomask	acq1_nomask	1	12	0	0	300	300	0	0	610	50	1	0	schlau	lachen	ehrlich	spielen	schön	fair	schroff	leiden	eitel	strafen	schlecht	faul	treu	helfen	tolerant	retten	loyal	freundlich	tot	hindern	tyrannisch	rächen	lasch	fanatisch	1	blank2r.bmp	0	1	+	0	1	blank2r.bmp	500	1	BMVZ	500	1	blank2r.bmp	880	2	lachen	880	0	0	0	0	0	0	0	0	0	0	0	0
2024-06-12	15:31:07	15:34:11	183283	6.6.1	4_exp_EVA_AWA_CON	86	B	A	Rpleas_acq	Oppo	Rpleas	1pleas	acq_new_unple_nomask	acq1_nomask	1	13	0	0	300	300	0	0	1191	46	1	0	schlau	lachen	ehrlich	spielen	schön	fair	schroff	leiden	eitel	strafen	schlecht	faul	treu	helfen	tolerant	retten	loyal	freundlich	tot	hindern	tyrannisch	rächen	lasch	fanatisch	1	blank2r.bmp	0	1	+	0	1	blank2r.bmp	500	6	C2r.bmp	500	1	blank2r.bmp	880	5	lasch	880	0	0	0	0	0	0	0	0	0	0	0	0
2024-06-12	15:31:07	15:34:13	185394	6.6.1	4_exp_EVA_AWA_CON	86	B	A	Rpleas_acq	Oppo	Rpleas	1pleas	acq_new_pleas_nomask	acq1_nomask	1	14	0	0	300	300	0	0	631	50	1	0	schlau	lachen	ehrlich	spielen	schön	fair	schroff	leiden	eitel	strafen	schlecht	faul	treu	helfen	tolerant	retten	loyal	freundlich	tot	hindern	tyrannisch	rächen	lasch	fanatisch	1	blank2r.bmp	0	1	+	0	1	blank2r.bmp	500	1	B1r.bmp	500	1	blank2r.bmp	880	5	loyal	880	0	0	0	0	0	0	0	0	0	0	0	0
2024-06-12	15:31:07	15:34:15	187587	6.6.1	4_exp_EVA_AWA_CON	86	B	A	Rpleas_acq	Oppo	Rpleas	1pleas	acq_US_unple_nomask	acq1_nomask	1	15	0	0	300	300	0	0	712	46	1	0	schlau	lachen	ehrlich	spielen	schön	fair	schroff	leiden	eitel	strafen	schlecht	faul	treu	helfen	tolerant	retten	loyal	freundlich	tot	hindern	tyrannisch	rächen	lasch	fanatisch	1	blank2r.bmp	0	1	+	0	1	blank2r.bmp	500	1	GKQX	500	1	blank2r.bmp	880	2	leiden	880	0	0	0	0	0	0	0	0	0	0	0	0
2024-06-12	15:31:07	15:34:17	189602	6.6.1	4_exp_EVA_AWA_CON	86	B	A	Rpleas_acq	Oppo	Rpleas	1pleas	acq_US_pleas_nomask	acq1_nomask	1	16	0	0	300	300	0	0	536	50	1	0	schlau	lachen	ehrlich	spielen	schön	fair	schroff	leiden	eitel	strafen	schlecht	faul	treu	helfen	tolerant	retten	loyal	freundlich	tot	hindern	tyrannisch	rächen	lasch	fanatisch	1	blank2r.bmp	0	1	+	0	1	blank2r.bmp	500	1	BMVZ	500	1	blank2r.bmp	880	5	schön	880	0	0	0	0	0	0	0	0	0	0	0	0
2024-06-12	15:31:07	15:34:19	191730	6.6.1	4_exp_EVA_AWA_CON	86	B	A	Rpleas_acq	Oppo	Rpleas	1pleas	acq_US_pleas_nomask	acq1_nomask	1	17	0	0	300	300	0	0	643	50	1	0	schlau	lachen	ehrlich	spielen	schön	fair	schroff	leiden	eitel	strafen	schlecht	faul	treu	helfen	tolerant	retten	loyal	freundlich	tot	hindern	tyrannisch	rächen	lasch	fanatisch	1	blank2r.bmp	0	1	+	0	1	blank2r.bmp	500	1	BMVZ	500	1	blank2r.bmp	880	3	ehrlich	880	0	0	0	0	0	0	0	0	0	0	0	0
2024-06-12	15:31:07	15:34:21	193794	6.6.1	4_exp_EVA_AWA_CON	86	B	A	Rpleas_acq	Oppo	Rpleas	1pleas	acq_US_pleas_nomask	acq1_nomask	1	18	0	0	300	300	0	0	576	50	1	0	schlau	lachen	ehrlich	spielen	schön	fair	schroff	leiden	eitel	strafen	schlecht	faul	treu	helfen	tolerant	retten	loyal	freundlich	tot	hindern	tyrannisch	rächen	lasch	fanatisch	1	blank2r.bmp	0	1	+	0	1	blank2r.bmp	500	1	BMVZ	500	1	blank2r.bmp	880	4	spielen	880	0	0	0	0	0	0	0	0	0	0	0	0
2024-06-12	15:31:07	15:34:23	195834	6.6.1	4_exp_EVA_AWA_CON	86	B	A	Rpleas_acq	Oppo	Rpleas	1pleas	acq_new_pleas_nomask	acq1_nomask	1	19	0	0	300	300	0	0	554	50	1	0	schlau	lachen	ehrlich	spielen	schön	fair	schroff	leiden	eitel	strafen	schlecht	faul	treu	helfen	tolerant	retten	loyal	freundlich	tot	hindern	tyrannisch	rächen	lasch	fanatisch	1	blank2r.bmp	0	1	+	0	1	blank2r.bmp	500	7	C3r.bmp	500	1	blank2r.bmp	880	1	treu	880	0	0	0	0	0	0	0	0	0	0	0	0
2024-06-12	15:31:07	15:34:25	197834	6.6.1	4_exp_EVA_AWA_CON	86	B	A	Rpleas_acq	Oppo	Rpleas	1pleas	acq_US_unple_nomask	acq1_nomask	1	20	0	0	300	300	0	0	513	46	1	0	schlau	lachen	ehrlich	spielen	schön	fair	schroff	leiden	eitel	strafen	schlecht	faul	treu	helfen	tolerant	retten	loyal	freundlich	tot	hindern	tyrannisch	rächen	lasch	fanatisch	1	blank2r.bmp	0	1	+	0	1	blank2r.bmp	500	1	GKQX	500	1	blank2r.bmp	880	5	schlecht	880	0	0	0	0	0	0	0	0	0	0	0	0
2024-06-12	15:31:07	15:34:28	199883	6.6.1	4_exp_EVA_AWA_CON	86	B	A	Rpleas_acq	Oppo	Rpleas	1pleas	acq_new_pleas_nomask	acq1_nomask	1	21	0	0	300	300	0	0	560	50	1	0	schlau	lachen	ehrlich	spielen	schön	fair	schroff	leiden	eitel	strafen	schlecht	faul	treu	helfen	tolerant	retten	loyal	freundlich	tot	hindern	tyrannisch	rächen	lasch	fanatisch	1	blank2r.bmp	0	1	+	0	1	blank2r.bmp	500	2	B2r.bmp	500	1	blank2r.bmp	880	6	freundlich	880	0	0	0	0	0	0	0	0	0	0	0	0
2024-06-12	15:31:07	15:34:30	202187	6.6.1	4_exp_EVA_AWA_CON	86	B	A	Rpleas_acq	Oppo	Rpleas	1pleas	acq_new_unple_nomask	acq1_nomask	1	22	0	0	300	300	0	0	822	46	1	0	schlau	lachen	ehrlich	spielen	schön	fair	schroff	leiden	eitel	strafen	schlecht	faul	treu	helfen	tolerant	retten	loyal	freundlich	tot	hindern	tyrannisch	rächen	lasch	fanatisch	1	blank2r.bmp	0	1	+	0	1	blank2r.bmp	500	1	B1r.bmp	500	1	blank2r.bmp	880	3	tyrannisch	880	0	0	0	0	0	0	0	0	0	0	0	0
2024-06-12	15:31:07	15:34:32	204235	6.6.1	4_exp_EVA_AWA_CON	86	B	A	Rpleas_acq	Oppo	Rpleas	1pleas	acq_US_unple_nomask	acq1_nomask	1	23	0	0	300	300	0	0	559	46	1	0	schlau	lachen	ehrlich	spielen	schön	fair	schroff	leiden	eitel	strafen	schlecht	faul	treu	helfen	tolerant	retten	loyal	freundlich	tot	hindern	tyrannisch	rächen	lasch	fanatisch	1	blank2r.bmp	0	1	+	0	1	blank2r.bmp	500	1	GKQX	500	1	blank2r.bmp	880	3	eitel	880	0	0	0	0	0	0	0	0	0	0	0	0
2024-06-12	15:31:07	15:34:34	206530	6.6.1	4_exp_EVA_AWA_CON	86	B	A	Rpleas_acq	Oppo	Rpleas	1pleas	acq_new_unple_nomask	acq1_nomask	1	24	0	0	300	300	0	0	814	46	1	0	schlau	lachen	ehrlich	spielen	schön	fair	schroff	leiden	eitel	strafen	schlecht	faul	treu	helfen	tolerant	retten	loyal	freundlich	tot	hindern	tyrannisch	rächen	lasch	fanatisch	1	blank2r.bmp	0	1	+	0	1	blank2r.bmp	500	3	B3r.bmp	500	1	blank2r.bmp	880	2	hindern	880	0	0	0	0	0	0	0	0	0	0	0	0
2024-06-12	15:31:07	15:34:36	208602	6.6.1	4_exp_EVA_AWA_CON	86	B	A	Rpleas_acq	Oppo	Rpleas	1pleas	acq_US_pleas_nomask	acq1_nomask	1	25	0	0	300	300	0	0	584	50	1	0	schlau	lachen	ehrlich	spielen	schön	fair	schroff	leiden	eitel	strafen	schlecht	faul	treu	helfen	tolerant	retten	loyal	freundlich	tot	hindern	tyrannisch	rächen	lasch	fanatisch	1	blank2r.bmp	0	1	+	0	1	blank2r.bmp	500	1	BMVZ	500	1	blank2r.bmp	880	1	schlau	880	0	0	0	0	0	0	0	0	0	0	0	0
2024-06-12	15:31:07	15:34:38	210714	6.6.1	4_exp_EVA_AWA_CON	86	B	A	Rpleas_acq	Oppo	Rpleas	1pleas	acq_US_unple_nomask	acq1_nomask	1	26	0	0	300	300	0	0	625	46	1	0	schlau	lachen	ehrlich	spielen	schön	fair	schroff	leiden	eitel	strafen	schlecht	faul	treu	helfen	tolerant	retten	loyal	freundlich	tot	hindern	tyrannisch	rächen	lasch	fanatisch	1	blank2r.bmp	0	1	+	0	1	blank2r.bmp	500	1	GKQX	500	1	blank2r.bmp	880	2	leiden	880	0	0	0	0	0	0	0	0	0	0	0	0
2024-06-12	15:31:07	15:34:40	212778	6.6.1	4_exp_EVA_AWA_CON	86	B	A	Rpleas_acq	Oppo	Rpleas	1pleas	acq_US_unple_nomask	acq1_nomask	1	27	0	0	300	300	0	0	577	46	1	0	schlau	lachen	ehrlich	spielen	schön	fair	schroff	leiden	eitel	strafen	schlecht	faul	treu	helfen	tolerant	retten	loyal	freundlich	tot	hindern	tyrannisch	rächen	lasch	fanatisch	1	blank2r.bmp	0	1	+	0	1	blank2r.bmp	500	1	GKQX	500	1	blank2r.bmp	880	1	schroff	880	0	0	0	0	0	0	0	0	0	0	0	0
2024-06-12	15:31:07	15:34:43	214906	6.6.1	4_exp_EVA_AWA_CON	86	B	A	Rpleas_acq	Oppo	Rpleas	1pleas	acq_US_pleas_nomask	acq1_nomask	1	28	0	0	300	300	0	0	644	50	1	0	schlau	lachen	ehrlich	spielen	schön	fair	schroff	leiden	eitel	strafen	schlecht	faul	treu	helfen	tolerant	retten	loyal	freundlich	tot	hindern	tyrannisch	rächen	lasch	fanatisch	1	blank2r.bmp	0	1	+	0	1	blank2r.bmp	500	1	BMVZ	500	1	blank2r.bmp	880	6	fair	880	0	0	0	0	0	0	0	0	0	0	0	0
2024-06-12	15:31:07	15:34:45	217476	6.6.1	4_exp_EVA_AWA_CON	86	B	A	Rpleas_acq	Oppo	Rpleas	1pleas	acq_new_unple_nomask	acq1_nomask	1	29	0	0	300	300	0	0	881	50	0	0	schlau	lachen	ehrlich	spielen	schön	fair	schroff	leiden	eitel	strafen	schlecht	faul	treu	helfen	tolerant	retten	loyal	freundlich	tot	hindern	tyrannisch	rächen	lasch	fanatisch	1	blank2r.bmp	0	1	+	0	1	blank2r.bmp	500	4	B4r.bmp	500	1	blank2r.bmp	880	6	fanatisch	880	1	FEHLER	1783	0	0	0	0	0	0	0	0	0
2024-06-12	15:31:07	15:34:48	220307	6.6.1	4_exp_EVA_AWA_CON	86	B	A	Rpleas_acq	Oppo	Rpleas	1pleas	acq_new_unple_nomask	acq1_nomask	1	30	0	0	300	300	0	0	1551	46	1	0	schlau	lachen	ehrlich	spielen	schön	fair	schroff	leiden	eitel	strafen	schlecht	faul	treu	helfen	tolerant	retten	loyal	freundlich	tot	hindern	tyrannisch	rächen	lasch	fanatisch	1	blank2r.bmp	0	1	+	0	1	blank2r.bmp	500	8	C4r.bmp	500	1	blank2r.bmp	880	1	tot	880	0	0	0	0	0	0	0	0	0	0	0	0
2024-06-12	15:31:07	15:34:50	222571	6.6.1	4_exp_EVA_AWA_CON	86	B	A	Rpleas_acq	Oppo	Rpleas	1pleas	acq_new_pleas_nomask	acq1_nomask	1	31	0	0	300	300	0	0	783	50	1	0	schlau	lachen	ehrlich	spielen	schön	fair	schroff	leiden	eitel	strafen	schlecht	faul	treu	helfen	tolerant	retten	loyal	freundlich	tot	hindern	tyrannisch	rächen	lasch	fanatisch	1	blank2r.bmp	0	1	+	0	1	blank2r.bmp	500	6	C2r.bmp	500	1	blank2r.bmp	880	2	helfen	880	0	0	0	0	0	0	0	0	0	0	0	0
2024-06-12	15:31:07	15:34:55	226858	6.6.1	4_exp_EVA_AWA_CON	86	B	A	Rpleas_acq	Oppo	Rpleas	1pleas	acq_new_pleas_nomask	acq1_nomask	1	32	0	0	300	300	0	0	2800	50	1	0	schlau	lachen	ehrlich	spielen	schön	fair	schroff	leiden	eitel	strafen	schlecht	faul	treu	helfen	tolerant	retten	loyal	freundlich	tot	hindern	tyrannisch	rächen	lasch	fanatisch	1	blank2r.bmp	0	1	+	0	1	blank2r.bmp	500	5	C1r.bmp	500	1	blank2r.bmp	880	3	tolerant	880	0	0	0	0	0	0	0	0	0	0	0	0
2024-06-12	15:31:07	15:34:57	229251	6.6.1	4_exp_EVA_AWA_CON	86	B	A	Rpleas_acq	Oppo	Rpleas	1pleas	acq_new_unple_nomask	acq1_nomask	1	33	0	0	300	300	0	0	909	46	1	0	schlau	lachen	ehrlich	spielen	schön	fair	schroff	leiden	eitel	strafen	schlecht	faul	treu	helfen	tolerant	retten	loyal	freundlich	tot	hindern	tyrannisch	rächen	lasch	fanatisch	1	blank2r.bmp	0	1	+	0	1	blank2r.bmp	500	2	B2r.bmp	500	1	blank2r.bmp	880	3	tyrannisch	880	0	0	0	0	0	0	0	0	0	0	0	0
2024-06-12	15:31:07	15:34:59	231426	6.6.1	4_exp_EVA_AWA_CON	86	B	A	Rpleas_acq	Oppo	Rpleas	1pleas	acq_US_unple_nomask	acq1_nomask	1	34	0	0	300	300	0	0	693	46	1	0	schlau	lachen	ehrlich	spielen	schön	fair	schroff	leiden	eitel	strafen	schlecht	faul	treu	helfen	tolerant	retten	loyal	freundlich	tot	hindern	tyrannisch	rächen	lasch	fanatisch	1	blank2r.bmp	0	1	+	0	1	blank2r.bmp	500	1	GKQX	500	1	blank2r.bmp	880	5	schlecht	880	0	0	0	0	0	0	0	0	0	0	0	0
2024-06-12	15:31:07	15:35:01	233826	6.6.1	4_exp_EVA_AWA_CON	86	B	A	Rpleas_acq	Oppo	Rpleas	1pleas	acq_new_pleas_nomask	acq1_nomask	1	35	0	0	300	300	0	0	912	50	1	0	schlau	lachen	ehrlich	spielen	schön	fair	schroff	leiden	eitel	strafen	schlecht	faul	treu	helfen	tolerant	retten	loyal	freundlich	tot	hindern	tyrannisch	rächen	lasch	fanatisch	1	blank2r.bmp	0	1	+	0	1	blank2r.bmp	500	7	C3r.bmp	500	1	blank2r.bmp	880	5	loyal	880	0	0	0	0	0	0	0	0	0	0	0	0
2024-06-12	15:31:07	15:35:04	235962	6.6.1	4_exp_EVA_AWA_CON	86	B	A	Rpleas_acq	Oppo	Rpleas	1pleas	acq_US_pleas_nomask	acq1_nomask	1	36	0	0	300	300	0	0	647	50	1	0	schlau	lachen	ehrlich	spielen	schön	fair	schroff	leiden	eitel	strafen	schlecht	faul	treu	helfen	tolerant	retten	loyal	freundlich	tot	hindern	tyrannisch	rächen	lasch	fanatisch	1	blank2r.bmp	0	1	+	0	1	blank2r.bmp	500	1	BMVZ	500	1	blank2r.bmp	880	3	ehrlich	880	0	0	0	0	0	0	0	0	0	0	0	0
2024-06-12	15:31:07	15:35:51	283740	6.6.1	4_exp_EVA_AWA_CON	86	B	A	Rpleas_acq	Oppo	Rpleas	1pleas	acq_new_pleas_nomask	acq2_nomask	2	1	480	0	300	300	0	0	754	50	1	0	schlau	lachen	ehrlich	spielen	schön	fair	schroff	leiden	eitel	strafen	schlecht	faul	treu	helfen	tolerant	retten	loyal	freundlich	tot	hindern	tyrannisch	rächen	lasch	fanatisch	1	blank2r.bmp	0	1	+	0	1	blank2r.bmp	500	4	B4r.bmp	500	1	blank2r.bmp	880	6	freundlich	880	1	!	1312	1	!	-1	0	0	0	0	0	0
2024-06-12	15:31:07	15:35:54	286436	6.6.1	4_exp_EVA_AWA_CON	86	B	A	Rpleas_acq	Oppo	Rpleas	1pleas	acq_US_unple_nomask	acq2_nomask	2	2	480	0	300	300	0	0	919	46	1	0	schlau	lachen	ehrlich	spielen	schön	fair	schroff	leiden	eitel	strafen	schlecht	faul	treu	helfen	tolerant	retten	loyal	freundlich	tot	hindern	tyrannisch	rächen	lasch	fanatisch	1	blank2r.bmp	0	1	+	0	1	blank2r.bmp	500	1	GKQX	500	1	blank2r.bmp	880	4	strafen	880	1	!	1313	1	!	-1	0	0	0	0	0	0
2024-06-12	15:31:07	15:35:56	288821	6.6.1	4_exp_EVA_AWA_CON	86	B	A	Rpleas_acq	Oppo	Rpleas	1pleas	acq_new_unple_nomask	acq2_nomask	2	3	480	0	300	300	0	0	611	46	1	0	schlau	lachen	ehrlich	spielen	schön	fair	schroff	leiden	eitel	strafen	schlecht	faul	treu	helfen	tolerant	retten	loyal	freundlich	tot	hindern	tyrannisch	rächen	lasch	fanatisch	1	blank2r.bmp	0	1	+	0	1	blank2r.bmp	500	8	C4r.bmp	500	1	blank2r.bmp	880	5	lasch	880	1	!	1312	1	!	-1	0	0	0	0	0	0
2024-06-12	15:31:07	15:35:59	291358	6.6.1	4_exp_EVA_AWA_CON	86	B	A	Rpleas_acq	Oppo	Rpleas	1pleas	acq_US_unple_nomask	acq2_nomask	2	4	480	0	300	300	0	0	555	50	0	0	schlau	lachen	ehrlich	spielen	schön	fair	schroff	leiden	eitel	strafen	schlecht	faul	treu	helfen	tolerant	retten	loyal	freundlich	tot	hindern	tyrannisch	rächen	lasch	fanatisch	1	blank2r.bmp	0	1	+	0	1	blank2r.bmp	500	1	GKQX	500	1	blank2r.bmp	880	3	eitel	880	1	FEHLER	1747	1	!	1312	1	!	-1	0	0	0
2024-06-12	15:31:07	15:36:01	293462	6.6.1	4_exp_EVA_AWA_CON	86	B	A	Rpleas_acq	Oppo	Rpleas	1pleas	acq_US_unple_nomask	acq2_nomask	2	5	480	1	300	300	0	0	528	46	1	0	schlau	lachen	ehrlich	spielen	schön	fair	schroff	leiden	eitel	strafen	schlecht	faul	treu	helfen	tolerant	retten	loyal	freundlich	tot	hindern	tyrannisch	rächen	lasch	fanatisch	1	blank2r.bmp	0	1	+	0	1	blank2r.bmp	500	1	GKQX	500	1	blank2r.bmp	880	6	faul	880	1	!	1313	1	!	1429	0	0	0	0	0	0
2024-06-12	15:31:07	15:36:03	295820	6.6.1	4_exp_EVA_AWA_CON	86	B	A	Rpleas_acq	Oppo	Rpleas	1pleas	acq_new_unple_nomask	acq2_nomask	2	6	480	0	300	300	0	0	586	46	1	0	schlau	lachen	ehrlich	spielen	schön	fair	schroff	leiden	eitel	strafen	schlecht	faul	treu	helfen	tolerant	retten	loyal	freundlich	tot	hindern	tyrannisch	rächen	lasch	fanatisch	1	blank2r.bmp	0	1	+	0	1	blank2r.bmp	500	1	B1r.bmp	500	1	blank2r.bmp	880	2	hindern	880	1	!	1313	1	!	-1	0	0	0	0	0	0
2024-06-12	15:31:07	15:36:06	298340	6.6.1	4_exp_EVA_AWA_CON	86	B	A	Rpleas_acq	Oppo	Rpleas	1pleas	acq_new_unple_nomask	acq2_nomask	2	7	480	0	300	300	0	0	745	46	1	0	schlau	lachen	ehrlich	spielen	schön	fair	schroff	leiden	eitel	strafen	schlecht	faul	treu	helfen	tolerant	retten	loyal	freundlich	tot	hindern	tyrannisch	rächen	lasch	fanatisch	1	blank2r.bmp	0	1	+	0	1	blank2r.bmp	500	6	C2r.bmp	500	1	blank2r.bmp	880	4	rächen	880	1	!	1312	1	!	-1	0	0	0	0	0	0
2024-06-12	15:31:07	15:36:08	300614	6.6.1	4_exp_EVA_AWA_CON	86	B	A	Rpleas_acq	Oppo	Rpleas	1pleas	acq_US_pleas_nomask	acq2_nomask	2	8	480	1	300	300	0	0	495	50	1	0	schlau	lachen	ehrlich	spielen	schön	fair	schroff	leiden	eitel	strafen	schlecht	faul	treu	helfen	tolerant	retten	loyal	freundlich	tot	hindern	tyrannisch	rächen	lasch	fanatisch	1	blank2r.bmp	0	1	+	0	1	blank2r.bmp	500	1	BMVZ	500	1	blank2r.bmp	880	4	spielen	880	1	!	1313	1	!	1396	0	0	0	0	0	0
2024-06-12	15:31:07	15:36:11	302996	6.6.1	4_exp_EVA_AWA_CON	86	B	A	Rpleas_acq	Oppo	Rpleas	1pleas	acq_new_pleas_nomask	acq2_nomask	2	9	480	0	300	300	0	0	608	50	1	0	schlau	lachen	ehrlich	spielen	schön	fair	schroff	leiden	eitel	strafen	schlecht	faul	treu	helfen	tolerant	retten	loyal	freundlich	tot	hindern	tyrannisch	rächen	lasch	fanatisch	1	blank2r.bmp	0	1	+	0	1	blank2r.bmp	500	3	B3r.bmp	500	1	blank2r.bmp	880	1	treu	880	1	!	1313	1	!	-1	0	0	0	0	0	0
2024-06-12	15:31:07	15:36:13	305424	6.6.1	4_exp_EVA_AWA_CON	86	B	A	Rpleas_acq	Oppo	Rpleas	1pleas	acq_US_pleas_nomask	acq2_nomask	2	10	480	1	300	300	0	0	450	46	0	0	schlau	lachen	ehrlich	spielen	schön	fair	schroff	leiden	eitel	strafen	schlecht	faul	treu	helfen	tolerant	retten	loyal	freundlich	tot	hindern	tyrannisch	rächen	lasch	fanatisch	1	blank2r.bmp	0	1	+	0	1	blank2r.bmp	500	1	BMVZ	500	1	blank2r.bmp	880	5	schön	880	1	FEHLER	1644	1	!	1312	1	!	1352	0	0	0
2024-06-12	15:31:07	15:36:15	307510	6.6.1	4_exp_EVA_AWA_CON	86	B	A	Rpleas_acq	Oppo	Rpleas	1pleas	acq_US_pleas_nomask	acq2_nomask	2	11	480	1	300	300	0	0	507	50	1	0	schlau	lachen	ehrlich	spielen	schön	fair	schroff	leiden	eitel	strafen	schlecht	faul	treu	helfen	tolerant	retten	loyal	freundlich	tot	hindern	tyrannisch	rächen	lasch	fanatisch	1	blank2r.bmp	0	1	+	0	1	blank2r.bmp	500	1	BMVZ	500	1	blank2r.bmp	880	2	lachen	880	1	!	1312	1	!	1408	0	0	0	0	0	0
2024-06-12	15:31:07	15:36:17	309798	6.6.1	4_exp_EVA_AWA_CON	86	B	A	Rpleas_acq	Oppo	Rpleas	1pleas	acq_new_pleas_nomask	acq2_nomask	2	12	480	1	300	300	0	0	513	50	1	0	schlau	lachen	ehrlich	spielen	schön	fair	schroff	leiden	eitel	strafen	schlecht	faul	treu	helfen	tolerant	retten	loyal	freundlich	tot	hindern	tyrannisch	rächen	lasch	fanatisch	1	blank2r.bmp	0	1	+	0	1	blank2r.bmp	500	5	C1r.bmp	500	1	blank2r.bmp	880	4	retten	880	1	!	1313	1	!	1415	0	0	0	0	0	0
2024-06-12	15:31:07	15:36:20	312140	6.6.1	4_exp_EVA_AWA_CON	86	B	A	Rpleas_acq	Oppo	Rpleas	1pleas	acq_new_pleas_nomask	acq2_nomask	2	13	480	0	300	300	0	0	566	50	1	0	schlau	lachen	ehrlich	spielen	schön	fair	schroff	leiden	eitel	strafen	schlecht	faul	treu	helfen	tolerant	retten	loyal	freundlich	tot	hindern	tyrannisch	rächen	lasch	fanatisch	1	blank2r.bmp	0	1	+	0	1	blank2r.bmp	500	2	B2r.bmp	500	1	blank2r.bmp	880	4	retten	880	1	!	1312	1	!	-1	0	0	0	0	0	0
2024-06-12	15:31:07	15:36:22	314342	6.6.1	4_exp_EVA_AWA_CON	86	B	A	Rpleas_acq	Oppo	Rpleas	1pleas	acq_new_pleas_nomask	acq2_nomask	2	14	480	1	300	300	0	0	424	50	1	0	schlau	lachen	ehrlich	spielen	schön	fair	schroff	leiden	eitel	strafen	schlecht	faul	treu	helfen	tolerant	retten	loyal	freundlich	tot	hindern	tyrannisch	rächen	lasch	fanatisch	1	blank2r.bmp	0	1	+	0	1	blank2r.bmp	500	8	C4r.bmp	500	1	blank2r.bmp	880	2	helfen	880	1	!	1313	1	!	1326	0	0	0	0	0	0
2024-06-12	15:31:07	15:36:24	316598	6.6.1	4_exp_EVA_AWA_CON	86	B	A	Rpleas_acq	Oppo	Rpleas	1pleas	acq_new_unple_nomask	acq2_nomask	2	15	480	1	300	300	0	0	479	46	1	0	schlau	lachen	ehrlich	spielen	schön	fair	schroff	leiden	eitel	strafen	schlecht	faul	treu	helfen	tolerant	retten	loyal	freundlich	tot	hindern	tyrannisch	rächen	lasch	fanatisch	1	blank2r.bmp	0	1	+	0	1	blank2r.bmp	500	1	B1r.bmp	500	1	blank2r.bmp	880	2	hindern	880	1	!	1312	1	!	1380	0	0	0	0	0	0
2024-06-12	15:31:07	15:36:27	319064	6.6.1	4_exp_EVA_AWA_CON	86	B	A	Rpleas_acq	Oppo	Rpleas	1pleas	acq_US_unple_nomask	acq2_nomask	2	16	480	1	300	300	0	0	481	50	0	0	schlau	lachen	ehrlich	spielen	schön	fair	schroff	leiden	eitel	strafen	schlecht	faul	treu	helfen	tolerant	retten	loyal	freundlich	tot	hindern	tyrannisch	rächen	lasch	fanatisch	1	blank2r.bmp	0	1	+	0	1	blank2r.bmp	500	1	GKQX	500	1	blank2r.bmp	880	6	faul	880	1	FEHLER	1675	1	!	1312	1	!	1383	0	0	0
2024-06-12	15:31:07	15:36:29	321335	6.6.1	4_exp_EVA_AWA_CON	86	B	A	Rpleas_acq	Oppo	Rpleas	1pleas	acq_US_pleas_nomask	acq2_nomask	2	17	480	1	300	300	0	0	492	46	0	0	schlau	lachen	ehrlich	spielen	schön	fair	schroff	leiden	eitel	strafen	schlecht	faul	treu	helfen	tolerant	retten	loyal	freundlich	tot	hindern	tyrannisch	rächen	lasch	fanatisch	1	blank2r.bmp	0	1	+	0	1	blank2r.bmp	500	1	BMVZ	500	1	blank2r.bmp	880	6	fair	880	1	FEHLER	1685	1	!	1312	1	!	1393	0	0	0
2024-06-12	15:31:07	15:36:31	323759	6.6.1	4_exp_EVA_AWA_CON	86	B	A	Rpleas_acq	Oppo	Rpleas	1pleas	acq_new_unple_nomask	acq2_nomask	2	18	480	0	300	300	0	0	645	50	0	0	schlau	lachen	ehrlich	spielen	schön	fair	schroff	leiden	eitel	strafen	schlecht	faul	treu	helfen	tolerant	retten	loyal	freundlich	tot	hindern	tyrannisch	rächen	lasch	fanatisch	1	blank2r.bmp	0	1	+	0	1	blank2r.bmp	500	6	C2r.bmp	500	1	blank2r.bmp	880	6	fanatisch	880	1	FEHLER	1838	1	!	1312	1	!	-1	0	0	0
2024-06-12	15:31:07	15:36:34	325846	6.6.1	4_exp_EVA_AWA_CON	86	B	A	Rpleas_acq	Oppo	Rpleas	1pleas	acq_US_unple_nomask	acq2_nomask	2	19	480	1	300	300	0	0	511	46	1	0	schlau	lachen	ehrlich	spielen	schön	fair	schroff	leiden	eitel	strafen	schlecht	faul	treu	helfen	tolerant	retten	loyal	freundlich	tot	hindern	tyrannisch	rächen	lasch	fanatisch	1	blank2r.bmp	0	1	+	0	1	blank2r.bmp	500	1	GKQX	500	1	blank2r.bmp	880	5	schlecht	880	1	!	1313	1	!	1413	0	0	0	0	0	0
2024-06-12	15:31:07	15:36:36	328220	6.6.1	4_exp_EVA_AWA_CON	86	B	A	Rpleas_acq	Oppo	Rpleas	1pleas	acq_new_pleas_nomask	acq2_nomask	2	20	480	0	300	300	0	0	596	50	1	0	schlau	lachen	ehrlich	spielen	schön	fair	schroff	leiden	eitel	strafen	schlecht	faul	treu	helfen	tolerant	retten	loyal	freundlich	tot	hindern	tyrannisch	rächen	lasch	fanatisch	1	blank2r.bmp	0	1	+	0	1	blank2r.bmp	500	3	B3r.bmp	500	1	blank2r.bmp	880	5	loyal	880	1	!	1313	1	!	-1	0	0	0	0	0	0
2024-06-12	15:31:07	15:36:38	330597	6.6.1	4_exp_EVA_AWA_CON	86	B	A	Rpleas_acq	Oppo	Rpleas	1pleas	acq_new_unple_nomask	acq2_nomask	2	21	480	0	300	300	0	0	600	46	1	0	schlau	lachen	ehrlich	spielen	schön	fair	schroff	leiden	eitel	strafen	schlecht	faul	treu	helfen	tolerant	retten	loyal	freundlich	tot	hindern	tyrannisch	rächen	lasch	fanatisch	1	blank2r.bmp	0	1	+	0	1	blank2r.bmp	500	4	B4r.bmp	500	1	blank2r.bmp	880	4	rächen	880	1	!	1312	1	!	-1	0	0	0	0	0	0
2024-06-12	15:31:07	15:36:41	333134	6.6.1	4_exp_EVA_AWA_CON	86	B	A	Rpleas_acq	Oppo	Rpleas	1pleas	acq_US_unple_nomask	acq2_nomask	2	22	480	0	300	300	0	0	555	50	0	0	schlau	lachen	ehrlich	spielen	schön	fair	schroff	leiden	eitel	strafen	schlecht	faul	treu	helfen	tolerant	retten	loyal	freundlich	tot	hindern	tyrannisch	rächen	lasch	fanatisch	1	blank2r.bmp	0	1	+	0	1	blank2r.bmp	500	1	GKQX	500	1	blank2r.bmp	880	1	schroff	880	1	FEHLER	1746	1	!	1313	1	!	-1	0	0	0
2024-06-12	15:31:07	15:36:43	335100	6.6.1	4_exp_EVA_AWA_CON	86	B	A	Rpleas_acq	Oppo	Rpleas	1pleas	acq_US_pleas_nomask	acq2_nomask	2	23	480	0	300	300	0	0	391	50	1	0	schlau	lachen	ehrlich	spielen	schön	fair	schroff	leiden	eitel	strafen	schlecht	faul	treu	helfen	tolerant	retten	loyal	freundlich	tot	hindern	tyrannisch	rächen	lasch	fanatisch	1	blank2r.bmp	0	1	+	0	1	blank2r.bmp	500	1	BMVZ	500	1	blank2r.bmp	880	3	ehrlich	880	1	!	-1	1	!	-1	0	0	0	0	0	0
2024-06-12	15:31:07	15:36:45	337567	6.6.1	4_exp_EVA_AWA_CON	86	B	A	Rpleas_acq	Oppo	Rpleas	1pleas	acq_US_pleas_nomask	acq2_nomask	2	24	480	1	300	300	0	0	484	46	0	0	schlau	lachen	ehrlich	spielen	schön	fair	schroff	leiden	eitel	strafen	schlecht	faul	treu	helfen	tolerant	retten	loyal	freundlich	tot	hindern	tyrannisch	rächen	lasch	fanatisch	1	blank2r.bmp	0	1	+	0	1	blank2r.bmp	500	1	BMVZ	500	1	blank2r.bmp	880	1	schlau	880	1	FEHLER	1677	1	!	1313	1	!	1385	0	0	0
2024-06-12	15:31:07	15:36:47	339733	6.6.1	4_exp_EVA_AWA_CON	86	B	A	Rpleas_acq	Oppo	Rpleas	1pleas	acq_US_unple_nomask	acq2_nomask	2	25	480	0	300	300	0	0	590	46	1	0	schlau	lachen	ehrlich	spielen	schön	fair	schroff	leiden	eitel	strafen	schlecht	faul	treu	helfen	tolerant	retten	loyal	freundlich	tot	hindern	tyrannisch	rächen	lasch	fanatisch	1	blank2r.bmp	0	1	+	0	1	blank2r.bmp	500	1	GKQX	500	1	blank2r.bmp	880	2	leiden	880	1	!	1312	1	!	-1	0	0	0	0	0	0
2024-06-12	15:31:07	15:36:50	341958	6.6.1	4_exp_EVA_AWA_CON	86	B	A	Rpleas_acq	Oppo	Rpleas	1pleas	acq_new_pleas_nomask	acq2_nomask	2	26	480	1	300	300	0	0	443	50	1	0	schlau	lachen	ehrlich	spielen	schön	fair	schroff	leiden	eitel	strafen	schlecht	faul	treu	helfen	tolerant	retten	loyal	freundlich	tot	hindern	tyrannisch	rächen	lasch	fanatisch	1	blank2r.bmp	0	1	+	0	1	blank2r.bmp	500	7	C3r.bmp	500	1	blank2r.bmp	880	1	treu	880	1	!	1313	1	!	1344	0	0	0	0	0	0
2024-06-12	15:31:07	15:36:52	344408	6.6.1	4_exp_EVA_AWA_CON	86	B	A	Rpleas_acq	Oppo	Rpleas	1pleas	acq_US_unple_nomask	acq2_nomask	2	27	480	1	300	300	0	0	469	50	0	0	schlau	lachen	ehrlich	spielen	schön	fair	schroff	leiden	eitel	strafen	schlecht	faul	treu	helfen	tolerant	retten	loyal	freundlich	tot	hindern	tyrannisch	rächen	lasch	fanatisch	1	blank2r.bmp	0	1	+	0	1	blank2r.bmp	500	1	GKQX	500	1	blank2r.bmp	880	3	eitel	880	1	FEHLER	1663	1	!	1312	1	!	1371	0	0	0
2024-06-12	15:31:07	15:36:54	346526	6.6.1	4_exp_EVA_AWA_CON	86	B	A	Rpleas_acq	Oppo	Rpleas	1pleas	acq_US_pleas_nomask	acq2_nomask	2	28	480	1	300	300	0	0	538	50	1	0	schlau	lachen	ehrlich	spielen	schön	fair	schroff	leiden	eitel	strafen	schlecht	faul	treu	helfen	tolerant	retten	loyal	freundlich	tot	hindern	tyrannisch	rächen	lasch	fanatisch	1	blank2r.bmp	0	1	+	0	1	blank2r.bmp	500	1	BMVZ	500	1	blank2r.bmp	880	2	lachen	880	1	!	1312	1	!	1439	0	0	0	0	0	0
2024-06-12	15:31:07	15:36:57	348952	6.6.1	4_exp_EVA_AWA_CON	86	B	A	Rpleas_acq	Oppo	Rpleas	1pleas	acq_US_unple_nomask	acq2_nomask	2	29	480	1	300	300	0	0	440	50	0	0	schlau	lachen	ehrlich	spielen	schön	fair	schroff	leiden	eitel	strafen	schlecht	faul	treu	helfen	tolerant	retten	loyal	freundlich	tot	hindern	tyrannisch	rächen	lasch	fanatisch	1	blank2r.bmp	0	1	+	0	1	blank2r.bmp	500	1	GKQX	500	1	blank2r.bmp	880	4	strafen	880	1	FEHLER	1634	1	!	1312	1	!	1342	0	0	0
2024-06-12	15:31:07	15:36:59	351054	6.6.1	4_exp_EVA_AWA_CON	86	B	A	Rpleas_acq	Oppo	Rpleas	1pleas	acq_US_pleas_nomask	acq2_nomask	2	30	480	1	300	300	0	0	523	50	1	0	schlau	lachen	ehrlich	spielen	schön	fair	schroff	leiden	eitel	strafen	schlecht	faul	treu	helfen	tolerant	retten	loyal	freundlich	tot	hindern	tyrannisch	rächen	lasch	fanatisch	1	blank2r.bmp	0	1	+	0	1	blank2r.bmp	500	1	BMVZ	500	1	blank2r.bmp	880	5	schön	880	1	!	1312	1	!	1424	0	0	0	0	0	0
2024-06-12	15:31:07	15:37:01	353536	6.6.1	4_exp_EVA_AWA_CON	86	B	A	Rpleas_acq	Oppo	Rpleas	1pleas	acq_new_unple_nomask	acq2_nomask	2	31	480	1	300	300	0	0	501	50	0	0	schlau	lachen	ehrlich	spielen	schön	fair	schroff	leiden	eitel	strafen	schlecht	faul	treu	helfen	tolerant	retten	loyal	freundlich	tot	hindern	tyrannisch	rächen	lasch	fanatisch	1	blank2r.bmp	0	1	+	0	1	blank2r.bmp	500	5	C1r.bmp	500	1	blank2r.bmp	880	3	tyrannisch	880	1	FEHLER	1695	1	!	1313	1	!	1403	0	0	0
2024-06-12	15:31:07	15:37:03	355662	6.6.1	4_exp_EVA_AWA_CON	86	B	A	Rpleas_acq	Oppo	Rpleas	1pleas	acq_new_unple_nomask	acq2_nomask	2	32	480	1	300	300	0	0	548	46	1	0	schlau	lachen	ehrlich	spielen	schön	fair	schroff	leiden	eitel	strafen	schlecht	faul	treu	helfen	tolerant	retten	loyal	freundlich	tot	hindern	tyrannisch	rächen	lasch	fanatisch	1	blank2r.bmp	0	1	+	0	1	blank2r.bmp	500	7	C3r.bmp	500	1	blank2r.bmp	880	1	tot	880	1	!	1313	1	!	1449	0	0	0	0	0	0
2024-06-12	15:31:07	15:37:06	358045	6.6.1	4_exp_EVA_AWA_CON	86	B	A	Rpleas_acq	Oppo	Rpleas	1pleas	acq_new_pleas_nomask	acq2_nomask	2	33	480	0	300	300	0	0	600	50	1	0	schlau	lachen	ehrlich	spielen	schön	fair	schroff	leiden	eitel	strafen	schlecht	faul	treu	helfen	tolerant	retten	loyal	freundlich	tot	hindern	tyrannisch	rächen	lasch	fanatisch	1	blank2r.bmp	0	1	+	0	1	blank2r.bmp	500	3	B3r.bmp	500	1	blank2r.bmp	880	6	freundlich	880	1	!	1313	1	!	-1	0	0	0	0	0	0
2024-06-12	15:31:07	15:37:08	360278	6.6.1	4_exp_EVA_AWA_CON	86	B	A	Rpleas_acq	Oppo	Rpleas	1pleas	acq_US_pleas_nomask	acq2_nomask	2	34	480	1	300	300	0	0	451	50	1	0	schlau	lachen	ehrlich	spielen	schön	fair	schroff	leiden	eitel	strafen	schlecht	faul	treu	helfen	tolerant	retten	loyal	freundlich	tot	hindern	tyrannisch	rächen	lasch	fanatisch	1	blank2r.bmp	0	1	+	0	1	blank2r.bmp	500	1	BMVZ	500	1	blank2r.bmp	880	4	spielen	880	1	!	1312	1	!	1352	0	0	0	0	0	0
2024-06-12	15:31:07	15:37:10	362486	6.6.1	4_exp_EVA_AWA_CON	86	B	A	Rpleas_acq	Oppo	Rpleas	1pleas	acq_new_unple_nomask	acq2_nomask	2	35	480	1	300	300	0	0	428	46	1	0	schlau	lachen	ehrlich	spielen	schön	fair	schroff	leiden	eitel	strafen	schlecht	faul	treu	helfen	tolerant	retten	loyal	freundlich	tot	hindern	tyrannisch	rächen	lasch	fanatisch	1	blank2r.bmp	0	1	+	0	1	blank2r.bmp	500	6	C2r.bmp	500	1	blank2r.bmp	880	5	lasch	880	1	!	1313	1	!	1329	0	0	0	0	0	0
2024-06-12	15:31:07	15:37:12	364669	6.6.1	4_exp_EVA_AWA_CON	86	B	A	Rpleas_acq	Oppo	Rpleas	1pleas	acq_new_pleas_nomask	acq2_nomask	2	36	480	0	300	300	0	0	400	50	1	0	schlau	lachen	ehrlich	spielen	schön	fair	schroff	leiden	eitel	strafen	schlecht	faul	treu	helfen	tolerant	retten	loyal	freundlich	tot	hindern	tyrannisch	rächen	lasch	fanatisch	1	blank2r.bmp	0	1	+	0	1	blank2r.bmp	500	4	B4r.bmp	500	1	blank2r.bmp	880	3	tolerant	880	1	!	-1	1	!	-1	0	0	0	0	0	0
2024-06-12	15:31:07	15:37:42	394214	6.6.1	4_exp_EVA_AWA_CON	86	B	A	Rpleas_acq	Oppo	Rpleas	1pleas	acq_US_pleas_nomask	acq3_nomask	3	1	453	1	300	300	0	0	425	50	1	0	schlau	lachen	ehrlich	spielen	schön	fair	schroff	leiden	eitel	strafen	schlecht	faul	treu	helfen	tolerant	retten	loyal	freundlich	tot	hindern	tyrannisch	rächen	lasch	fanatisch	1	blank2r.bmp	0	1	+	0	1	blank2r.bmp	500	1	BMVZ	500	1	blank2r.bmp	880	5	schön	880	1	!	1292	1	!	1326	0	0	0	0	0	0
2024-06-12	15:31:07	15:37:44	396414	6.6.1	4_exp_EVA_AWA_CON	86	B	A	Rpleas_acq	Oppo	Rpleas	1pleas	acq_US_unple_nomask	acq3_nomask	3	2	453	1	300	300	0	0	424	46	1	0	schlau	lachen	ehrlich	spielen	schön	fair	schroff	leiden	eitel	strafen	schlecht	faul	treu	helfen	tolerant	retten	loyal	freundlich	tot	hindern	tyrannisch	rächen	lasch	fanatisch	1	blank2r.bmp	0	1	+	0	1	blank2r.bmp	500	1	GKQX	500	1	blank2r.bmp	880	4	strafen	880	1	!	1293	1	!	1325	0	0	0	0	0	0
2024-06-12	15:31:07	15:37:47	398847	6.6.1	4_exp_EVA_AWA_CON	86	B	A	Rpleas_acq	Oppo	Rpleas	1pleas	acq_US_unple_nomask	acq3_nomask	3	3	453	1	300	300	0	0	454	50	0	0	schlau	lachen	ehrlich	spielen	schön	fair	schroff	leiden	eitel	strafen	schlecht	faul	treu	helfen	tolerant	retten	loyal	freundlich	tot	hindern	tyrannisch	rächen	lasch	fanatisch	1	blank2r.bmp	0	1	+	0	1	blank2r.bmp	500	1	GKQX	500	1	blank2r.bmp	880	1	schroff	880	1	FEHLER	1647	1	!	1293	1	!	1355	0	0	0
2024-06-12	15:31:07	15:37:49	400846	6.6.1	4_exp_EVA_AWA_CON	86	B	A	Rpleas_acq	Oppo	Rpleas	1pleas	acq_US_pleas_nomask	acq3_nomask	3	4	453	1	300	300	0	0	423	50	1	0	schlau	lachen	ehrlich	spielen	schön	fair	schroff	leiden	eitel	strafen	schlecht	faul	treu	helfen	tolerant	retten	loyal	freundlich	tot	hindern	tyrannisch	rächen	lasch	fanatisch	1	blank2r.bmp	0	1	+	0	1	blank2r.bmp	500	1	BMVZ	500	1	blank2r.bmp	880	3	ehrlich	880	1	!	1293	1	!	1324	0	0	0	0	0	0
2024-06-12	15:31:07	15:37:51	402980	6.6.1	4_exp_EVA_AWA_CON	86	B	A	Rpleas_acq	Oppo	Rpleas	1pleas	acq_US_pleas_nomask	acq3_nomask	3	5	453	0	300	300	0	0	358	50	1	0	schlau	lachen	ehrlich	spielen	schön	fair	schroff	leiden	eitel	strafen	schlecht	faul	treu	helfen	tolerant	retten	loyal	freundlich	tot	hindern	tyrannisch	rächen	lasch	fanatisch	1	blank2r.bmp	0	1	+	0	1	blank2r.bmp	500	1	BMVZ	500	1	blank2r.bmp	880	1	schlau	880	1	!	-1	1	!	-1	0	0	0	0	0	0
2024-06-12	15:31:07	15:37:53	405125	6.6.1	4_exp_EVA_AWA_CON	86	B	A	Rpleas_acq	Oppo	Rpleas	1pleas	acq_US_unple_nomask	acq3_nomask	3	6	453	0	300	300	0	0	370	46	1	0	schlau	lachen	ehrlich	spielen	schön	fair	schroff	leiden	eitel	strafen	schlecht	faul	treu	helfen	tolerant	retten	loyal	freundlich	tot	hindern	tyrannisch	rächen	lasch	fanatisch	1	blank2r.bmp	0	1	+	0	1	blank2r.bmp	500	1	GKQX	500	1	blank2r.bmp	880	3	eitel	880	1	!	-1	1	!	-1	0	0	0	0	0	0
2024-06-12	15:31:07	15:37:55	407358	6.6.1	4_exp_EVA_AWA_CON	86	B	A	Rpleas_acq	Oppo	Rpleas	1pleas	acq_US_pleas_nomask	acq3_nomask	3	7	453	1	300	300	0	0	451	50	1	0	schlau	lachen	ehrlich	spielen	schön	fair	schroff	leiden	eitel	strafen	schlecht	faul	treu	helfen	tolerant	retten	loyal	freundlich	tot	hindern	tyrannisch	rächen	lasch	fanatisch	1	blank2r.bmp	0	1	+	0	1	blank2r.bmp	500	1	BMVZ	500	1	blank2r.bmp	880	2	lachen	880	1	!	1293	1	!	1352	0	0	0	0	0	0
2024-06-12	15:31:07	15:37:57	409720	6.6.1	4_exp_EVA_AWA_CON	86	B	A	Rpleas_acq	Oppo	Rpleas	1pleas	acq_US_pleas_nomask	acq3_nomask	3	8	453	0	300	300	0	0	379	46	0	0	schlau	lachen	ehrlich	spielen	schön	fair	schroff	leiden	eitel	strafen	schlecht	faul	treu	helfen	tolerant	retten	loyal	freundlich	tot	hindern	tyrannisch	rächen	lasch	fanatisch	1	blank2r.bmp	0	1	+	0	1	blank2r.bmp	500	1	BMVZ	500	1	blank2r.bmp	880	6	fair	880	1	FEHLER	1573	1	!	-1	1	!	-1	0	0	0
2024-06-12	15:31:07	15:38:00	411964	6.6.1	4_exp_EVA_AWA_CON	86	B	A	Rpleas_acq	Oppo	Rpleas	1pleas	acq_US_unple_nomask	acq3_nomask	3	9	453	0	300	300	0	0	676	46	1	0	schlau	lachen	ehrlich	spielen	schön	fair	schroff	leiden	eitel	strafen	schlecht	faul	treu	helfen	tolerant	retten	loyal	freundlich	tot	hindern	tyrannisch	rächen	lasch	fanatisch	1	blank2r.bmp	0	1	+	0	1	blank2r.bmp	500	1	GKQX	500	1	blank2r.bmp	880	5	schlecht	880	1	!	1293	1	!	-1	0	0	0	0	0	0
2024-06-12	15:31:07	15:38:02	414415	6.6.1	4_exp_EVA_AWA_CON	86	B	A	Rpleas_acq	Oppo	Rpleas	1pleas	acq_US_unple_nomask	acq3_nomask	3	10	453	1	300	300	0	0	472	50	0	0	schlau	lachen	ehrlich	spielen	schön	fair	schroff	leiden	eitel	strafen	schlecht	faul	treu	helfen	tolerant	retten	loyal	freundlich	tot	hindern	tyrannisch	rächen	lasch	fanatisch	1	blank2r.bmp	0	1	+	0	1	blank2r.bmp	500	1	GKQX	500	1	blank2r.bmp	880	2	leiden	880	1	FEHLER	1665	1	!	1292	1	!	1373	0	0	0
2024-06-12	15:31:07	15:38:04	416422	6.6.1	4_exp_EVA_AWA_CON	86	B	A	Rpleas_acq	Oppo	Rpleas	1pleas	acq_US_pleas_nomask	acq3_nomask	3	11	453	1	300	300	0	0	429	50	1	0	schlau	lachen	ehrlich	spielen	schön	fair	schroff	leiden	eitel	strafen	schlecht	faul	treu	helfen	tolerant	retten	loyal	freundlich	tot	hindern	tyrannisch	rächen	lasch	fanatisch	1	blank2r.bmp	0	1	+	0	1	blank2r.bmp	500	1	BMVZ	500	1	blank2r.bmp	880	4	spielen	880	1	!	1292	1	!	1330	0	0	0	0	0	0
2024-06-12	15:31:07	15:38:06	418662	6.6.1	4_exp_EVA_AWA_CON	86	B	A	Rpleas_acq	Oppo	Rpleas	1pleas	acq_US_unple_nomask	acq3_nomask	3	12	453	1	300	300	0	0	458	46	1	0	schlau	lachen	ehrlich	spielen	schön	fair	schroff	leiden	eitel	strafen	schlecht	faul	treu	helfen	tolerant	retten	loyal	freundlich	tot	hindern	tyrannisch	rächen	lasch	fanatisch	1	blank2r.bmp	0	1	+	0	1	blank2r.bmp	500	1	GKQX	500	1	blank2r.bmp	880	6	faul	880	1	!	1292	1	!	1359	0	0	0	0	0	0
2024-06-12	15:31:07	15:38:09	420870	6.6.1	4_exp_EVA_AWA_CON	86	B	A	Rpleas_acq	Oppo	Rpleas	1pleas	acq_US_pleas_nomask	acq3_nomask	3	13	453	1	300	300	0	0	434	50	1	0	schlau	lachen	ehrlich	spielen	schön	fair	schroff	leiden	eitel	strafen	schlecht	faul	treu	helfen	tolerant	retten	loyal	freundlich	tot	hindern	tyrannisch	rächen	lasch	fanatisch	1	blank2r.bmp	0	1	+	0	1	blank2r.bmp	500	1	BMVZ	500	1	blank2r.bmp	880	5	schön	880	1	!	1293	1	!	1335	0	0	0	0	0	0
2024-06-12	15:31:07	15:38:11	423127	6.6.1	4_exp_EVA_AWA_CON	86	B	A	Rpleas_acq	Oppo	Rpleas	1pleas	acq_US_unple_nomask	acq3_nomask	3	14	453	1	300	300	0	0	479	46	1	0	schlau	lachen	ehrlich	spielen	schön	fair	schroff	leiden	eitel	strafen	schlecht	faul	treu	helfen	tolerant	retten	loyal	freundlich	tot	hindern	tyrannisch	rächen	lasch	fanatisch	1	blank2r.bmp	0	1	+	0	1	blank2r.bmp	500	1	GKQX	500	1	blank2r.bmp	880	6	faul	880	1	!	1292	1	!	1380	0	0	0	0	0	0
2024-06-12	15:31:07	15:38:13	425444	6.6.1	4_exp_EVA_AWA_CON	86	B	A	Rpleas_acq	Oppo	Rpleas	1pleas	acq_US_unple_nomask	acq3_nomask	3	15	453	0	300	300	0	0	537	46	1	0	schlau	lachen	ehrlich	spielen	schön	fair	schroff	leiden	eitel	strafen	schlecht	faul	treu	helfen	tolerant	retten	loyal	freundlich	tot	hindern	tyrannisch	rächen	lasch	fanatisch	1	blank2r.bmp	0	1	+	0	1	blank2r.bmp	500	1	GKQX	500	1	blank2r.bmp	880	1	schroff	880	1	!	1292	1	!	-1	0	0	0	0	0	0
2024-06-12	15:31:07	15:38:15	427646	6.6.1	4_exp_EVA_AWA_CON	86	B	A	Rpleas_acq	Oppo	Rpleas	1pleas	acq_US_pleas_nomask	acq3_nomask	3	16	453	1	300	300	0	0	426	50	1	0	schlau	lachen	ehrlich	spielen	schön	fair	schroff	leiden	eitel	strafen	schlecht	faul	treu	helfen	tolerant	retten	loyal	freundlich	tot	hindern	tyrannisch	rächen	lasch	fanatisch	1	blank2r.bmp	0	1	+	0	1	blank2r.bmp	500	1	BMVZ	500	1	blank2r.bmp	880	1	schlau	880	1	!	1292	1	!	1327	0	0	0	0	0	0
2024-06-12	15:31:07	15:38:18	429903	6.6.1	4_exp_EVA_AWA_CON	86	B	A	Rpleas_acq	Oppo	Rpleas	1pleas	acq_US_pleas_nomask	acq3_nomask	3	17	453	1	300	300	0	0	480	50	1	0	schlau	lachen	ehrlich	spielen	schön	fair	schroff	leiden	eitel	strafen	schlecht	faul	treu	helfen	tolerant	retten	loyal	freundlich	tot	hindern	tyrannisch	rächen	lasch	fanatisch	1	blank2r.bmp	0	1	+	0	1	blank2r.bmp	500	1	BMVZ	500	1	blank2r.bmp	880	6	fair	880	1	!	1292	1	!	1382	0	0	0	0	0	0
2024-06-12	15:31:07	15:38:20	432084	6.6.1	4_exp_EVA_AWA_CON	86	B	A	Rpleas_acq	Oppo	Rpleas	1pleas	acq_US_pleas_nomask	acq3_nomask	3	18	453	1	300	300	0	0	403	50	1	0	schlau	lachen	ehrlich	spielen	schön	fair	schroff	leiden	eitel	strafen	schlecht	faul	treu	helfen	tolerant	retten	loyal	freundlich	tot	hindern	tyrannisch	rächen	lasch	fanatisch	1	blank2r.bmp	0	1	+	0	1	blank2r.bmp	500	1	BMVZ	500	1	blank2r.bmp	880	3	ehrlich	880	1	!	1293	1	!	1302	0	0	0	0	0	0
2024-06-12	15:31:07	15:38:22	434302	6.6.1	4_exp_EVA_AWA_CON	86	B	A	Rpleas_acq	Oppo	Rpleas	1pleas	acq_US_pleas_nomask	acq3_nomask	3	19	453	1	300	300	0	0	437	50	1	0	schlau	lachen	ehrlich	spielen	schön	fair	schroff	leiden	eitel	strafen	schlecht	faul	treu	helfen	tolerant	retten	loyal	freundlich	tot	hindern	tyrannisch	rächen	lasch	fanatisch	1	blank2r.bmp	0	1	+	0	1	blank2r.bmp	500	1	BMVZ	500	1	blank2r.bmp	880	2	lachen	880	1	!	1293	1	!	1339	0	0	0	0	0	0
2024-06-12	15:31:07	15:38:24	436728	6.6.1	4_exp_EVA_AWA_CON	86	B	A	Rpleas_acq	Oppo	Rpleas	1pleas	acq_US_unple_nomask	acq3_nomask	3	20	453	1	300	300	0	0	450	50	0	0	schlau	lachen	ehrlich	spielen	schön	fair	schroff	leiden	eitel	strafen	schlecht	faul	treu	helfen	tolerant	retten	loyal	freundlich	tot	hindern	tyrannisch	rächen	lasch	fanatisch	1	blank2r.bmp	0	1	+	0	1	blank2r.bmp	500	1	GKQX	500	1	blank2r.bmp	880	3	eitel	880	1	FEHLER	1644	1	!	1293	1	!	1352	0	0	0
2024-06-12	15:31:07	15:38:27	439064	6.6.1	4_exp_EVA_AWA_CON	86	B	A	Rpleas_acq	Oppo	Rpleas	1pleas	acq_US_pleas_nomask	acq3_nomask	3	21	453	0	300	300	0	0	554	46	0	0	schlau	lachen	ehrlich	spielen	schön	fair	schroff	leiden	eitel	strafen	schlecht	faul	treu	helfen	tolerant	retten	loyal	freundlich	tot	hindern	tyrannisch	rächen	lasch	fanatisch	1	blank2r.bmp	0	1	+	0	1	blank2r.bmp	500	1	BMVZ	500	1	blank2r.bmp	880	4	spielen	880	1	FEHLER	1748	1	!	1292	1	!	-1	0	0	0
2024-06-12	15:31:07	15:38:29	441280	6.6.1	4_exp_EVA_AWA_CON	86	B	A	Rpleas_acq	Oppo	Rpleas	1pleas	acq_US_unple_nomask	acq3_nomask	3	22	453	1	300	300	0	0	439	50	0	0	schlau	lachen	ehrlich	spielen	schön	fair	schroff	leiden	eitel	strafen	schlecht	faul	treu	helfen	tolerant	retten	loyal	freundlich	tot	hindern	tyrannisch	rächen	lasch	fanatisch	1	blank2r.bmp	0	1	+	0	1	blank2r.bmp	500	1	GKQX	500	1	blank2r.bmp	880	4	strafen	880	1	FEHLER	1633	1	!	1292	1	!	1340	0	0	0
2024-06-12	15:31:07	15:38:31	443420	6.6.1	4_exp_EVA_AWA_CON	86	B	A	Rpleas_acq	Oppo	Rpleas	1pleas	acq_US_unple_nomask	acq3_nomask	3	23	453	0	300	300	0	0	562	46	1	0	schlau	lachen	ehrlich	spielen	schön	fair	schroff	leiden	eitel	strafen	schlecht	faul	treu	helfen	tolerant	retten	loyal	freundlich	tot	hindern	tyrannisch	rächen	lasch	fanatisch	1	blank2r.bmp	0	1	+	0	1	blank2r.bmp	500	1	GKQX	500	1	blank2r.bmp	880	5	schlecht	880	1	!	1292	1	!	-1	0	0	0	0	0	0
2024-06-12	15:31:07	15:38:36	448399	6.6.1	4_exp_EVA_AWA_CON	86	B	A	Rpleas_acq	Oppo	Rpleas	1pleas	acq_US_unple_nomask	acq3_nomask	3	24	453	0	300	300	0	0	2996	50	0	0	schlau	lachen	ehrlich	spielen	schön	fair	schroff	leiden	eitel	strafen	schlecht	faul	treu	helfen	tolerant	retten	loyal	freundlich	tot	hindern	tyrannisch	rächen	lasch	fanatisch	1	blank2r.bmp	0	1	+	0	1	blank2r.bmp	500	1	GKQX	500	1	blank2r.bmp	880	2	leiden	880	1	FEHLER	4189	1	!	1292	1	!	-1	0	0	0
2024-06-12	15:31:07	15:38:38	450548	6.6.1	4_exp_EVA_AWA_CON	86	B	A	Rpleas_acq	Oppo	Rpleas	1pleas	acq_US_unple_nomask	acq3_nomask	3	25	453	0	300	300	0	0	575	46	1	0	schlau	lachen	ehrlich	spielen	schön	fair	schroff	leiden	eitel	strafen	schlecht	faul	treu	helfen	tolerant	retten	loyal	freundlich	tot	hindern	tyrannisch	rächen	lasch	fanatisch	1	blank2r.bmp	0	1	+	0	1	blank2r.bmp	500	1	GKQX	500	1	blank2r.bmp	880	6	faul	880	1	!	1292	1	!	-1	0	0	0	0	0	0
2024-06-12	15:31:07	15:38:40	452742	6.6.1	4_exp_EVA_AWA_CON	86	B	A	Rpleas_acq	Oppo	Rpleas	1pleas	acq_US_pleas_nomask	acq3_nomask	3	26	453	1	300	300	0	0	416	50	1	0	schlau	lachen	ehrlich	spielen	schön	fair	schroff	leiden	eitel	strafen	schlecht	faul	treu	helfen	tolerant	retten	loyal	freundlich	tot	hindern	tyrannisch	rächen	lasch	fanatisch	1	blank2r.bmp	0	1	+	0	1	blank2r.bmp	500	1	BMVZ	500	1	blank2r.bmp	880	5	schön	880	1	!	1292	1	!	1317	0	0	0	0	0	0
2024-06-12	15:31:07	15:38:43	455084	6.6.1	4_exp_EVA_AWA_CON	86	B	A	Rpleas_acq	Oppo	Rpleas	1pleas	acq_US_unple_nomask	acq3_nomask	3	27	453	0	300	300	0	0	568	46	1	0	schlau	lachen	ehrlich	spielen	schön	fair	schroff	leiden	eitel	strafen	schlecht	faul	treu	helfen	tolerant	retten	loyal	freundlich	tot	hindern	tyrannisch	rächen	lasch	fanatisch	1	blank2r.bmp	0	1	+	0	1	blank2r.bmp	500	1	GKQX	500	1	blank2r.bmp	880	4	strafen	880	1	!	1292	1	!	-1	0	0	0	0	0	0
2024-06-12	15:31:07	15:38:45	457350	6.6.1	4_exp_EVA_AWA_CON	86	B	A	Rpleas_acq	Oppo	Rpleas	1pleas	acq_US_unple_nomask	acq3_nomask	3	28	453	1	300	300	0	0	491	46	1	0	schlau	lachen	ehrlich	spielen	schön	fair	schroff	leiden	eitel	strafen	schlecht	faul	treu	helfen	tolerant	retten	loyal	freundlich	tot	hindern	tyrannisch	rächen	lasch	fanatisch	1	blank2r.bmp	0	1	+	0	1	blank2r.bmp	500	1	GKQX	500	1	blank2r.bmp	880	2	leiden	880	1	!	1292	1	!	1392	0	0	0	0	0	0
2024-06-12	15:31:07	15:38:48	459903	6.6.1	4_exp_EVA_AWA_CON	86	B	A	Rpleas_acq	Oppo	Rpleas	1pleas	acq_US_unple_nomask	acq3_nomask	3	29	453	0	300	300	0	0	571	50	0	0	schlau	lachen	ehrlich	spielen	schön	fair	schroff	leiden	eitel	strafen	schlecht	faul	treu	helfen	tolerant	retten	loyal	freundlich	tot	hindern	tyrannisch	rächen	lasch	fanatisch	1	blank2r.bmp	0	1	+	0	1	blank2r.bmp	500	1	GKQX	500	1	blank2r.bmp	880	5	schlecht	880	1	FEHLER	1764	1	!	1292	1	!	-1	0	0	0
2024-06-12	15:31:07	15:38:50	462010	6.6.1	4_exp_EVA_AWA_CON	86	B	A	Rpleas_acq	Oppo	Rpleas	1pleas	acq_US_pleas_nomask	acq3_nomask	3	30	453	0	300	300	0	0	532	50	1	0	schlau	lachen	ehrlich	spielen	schön	fair	schroff	leiden	eitel	strafen	schlecht	faul	treu	helfen	tolerant	retten	loyal	freundlich	tot	hindern	tyrannisch	rächen	lasch	fanatisch	1	blank2r.bmp	0	1	+	0	1	blank2r.bmp	500	1	BMVZ	500	1	blank2r.bmp	880	3	ehrlich	880	1	!	1292	1	!	-1	0	0	0	0	0	0
2024-06-12	15:31:07	15:38:52	464396	6.6.1	4_exp_EVA_AWA_CON	86	B	A	Rpleas_acq	Oppo	Rpleas	1pleas	acq_US_pleas_nomask	acq3_nomask	3	31	453	0	300	300	0	0	604	50	1	0	schlau	lachen	ehrlich	spielen	schön	fair	schroff	leiden	eitel	strafen	schlecht	faul	treu	helfen	tolerant	retten	loyal	freundlich	tot	hindern	tyrannisch	rächen	lasch	fanatisch	1	blank2r.bmp	0	1	+	0	1	blank2r.bmp	500	1	BMVZ	500	1	blank2r.bmp	880	1	schlau	880	1	!	1292	1	!	-1	0	0	0	0	0	0
2024-06-12	15:31:07	15:38:54	466686	6.6.1	4_exp_EVA_AWA_CON	86	B	A	Rpleas_acq	Oppo	Rpleas	1pleas	acq_US_pleas_nomask	acq3_nomask	3	32	453	1	300	300	0	0	511	50	1	0	schlau	lachen	ehrlich	spielen	schön	fair	schroff	leiden	eitel	strafen	schlecht	faul	treu	helfen	tolerant	retten	loyal	freundlich	tot	hindern	tyrannisch	rächen	lasch	fanatisch	1	blank2r.bmp	0	1	+	0	1	blank2r.bmp	500	1	BMVZ	500	1	blank2r.bmp	880	2	lachen	880	1	!	1292	1	!	1412	0	0	0	0	0	0
2024-06-12	15:31:07	15:38:57	469239	6.6.1	4_exp_EVA_AWA_CON	86	B	A	Rpleas_acq	Oppo	Rpleas	1pleas	acq_US_unple_nomask	acq3_nomask	3	33	453	0	300	300	0	0	571	50	0	0	schlau	lachen	ehrlich	spielen	schön	fair	schroff	leiden	eitel	strafen	schlecht	faul	treu	helfen	tolerant	retten	loyal	freundlich	tot	hindern	tyrannisch	rächen	lasch	fanatisch	1	blank2r.bmp	0	1	+	0	1	blank2r.bmp	500	1	GKQX	500	1	blank2r.bmp	880	3	eitel	880	1	FEHLER	1764	1	!	1292	1	!	-1	0	0	0
2024-06-12	15:31:07	15:38:59	471388	6.6.1	4_exp_EVA_AWA_CON	86	B	A	Rpleas_acq	Oppo	Rpleas	1pleas	acq_US_unple_nomask	acq3_nomask	3	34	453	0	300	300	0	0	572	46	1	0	schlau	lachen	ehrlich	spielen	schön	fair	schroff	leiden	eitel	strafen	schlecht	faul	treu	helfen	tolerant	retten	loyal	freundlich	tot	hindern	tyrannisch	rächen	lasch	fanatisch	1	blank2r.bmp	0	1	+	0	1	blank2r.bmp	500	1	GKQX	500	1	blank2r.bmp	880	1	schroff	880	1	!	1292	1	!	-1	0	0	0	0	0	0
2024-06-12	15:31:07	15:39:01	473598	6.6.1	4_exp_EVA_AWA_CON	86	B	A	Rpleas_acq	Oppo	Rpleas	1pleas	acq_US_pleas_nomask	acq3_nomask	3	35	453	1	300	300	0	0	428	50	1	0	schlau	lachen	ehrlich	spielen	schön	fair	schroff	leiden	eitel	strafen	schlecht	faul	treu	helfen	tolerant	retten	loyal	freundlich	tot	hindern	tyrannisch	rächen	lasch	fanatisch	1	blank2r.bmp	0	1	+	0	1	blank2r.bmp	500	1	BMVZ	500	1	blank2r.bmp	880	6	fair	880	1	!	1292	1	!	1329	0	0	0	0	0	0
2024-06-12	15:31:07	15:39:04	475878	6.6.1	4_exp_EVA_AWA_CON	86	B	A	Rpleas_acq	Oppo	Rpleas	1pleas	acq_US_pleas_nomask	acq3_nomask	3	36	453	1	300	300	0	0	497	50	1	0	schlau	lachen	ehrlich	spielen	schön	fair	schroff	leiden	eitel	strafen	schlecht	faul	treu	helfen	tolerant	retten	loyal	freundlich	tot	hindern	tyrannisch	rächen	lasch	fanatisch	1	blank2r.bmp	0	1	+	0	1	blank2r.bmp	500	1	BMVZ	500	1	blank2r.bmp	880	4	spielen	880	1	!	1292	1	!	1398	0	0	0	0	0	0
2024-06-12	15:31:07	15:39:39	511540	6.6.1	4_exp_EVA_AWA_CON	86	B	A	Rpleas_acq	Oppo	Rpleas	1pleas	acq_US_unple_nomask	acq45_nomask	4	1	400	0	300	300	0	0	498	46	1	0	schlau	lachen	ehrlich	spielen	schön	fair	schroff	leiden	eitel	strafen	schlecht	faul	treu	helfen	tolerant	retten	loyal	freundlich	tot	hindern	tyrannisch	rächen	lasch	fanatisch	1	blank2r.bmp	0	1	+	0	1	blank2r.bmp	500	1	GKQX	500	1	blank2r.bmp	880	3	eitel	880	1	!	1232	1	!	-1	0	0	0	0	0	0
2024-06-12	15:31:07	15:39:41	513782	6.6.1	4_exp_EVA_AWA_CON	86	B	A	Rpleas_acq	Oppo	Rpleas	1pleas	acq_US_pleas_nomask	acq45_nomask	4	2	400	1	300	300	0	0	466	50	1	0	schlau	lachen	ehrlich	spielen	schön	fair	schroff	leiden	eitel	strafen	schlecht	faul	treu	helfen	tolerant	retten	loyal	freundlich	tot	hindern	tyrannisch	rächen	lasch	fanatisch	1	blank2r.bmp	0	1	+	0	1	blank2r.bmp	500	1	BMVZ	500	1	blank2r.bmp	880	2	lachen	880	1	!	1232	1	!	1368	0	0	0	0	0	0
2024-06-12	15:31:07	15:39:44	516027	6.6.1	4_exp_EVA_AWA_CON	86	B	A	Rpleas_acq	Oppo	Rpleas	1pleas	acq_US_pleas_nomask	acq45_nomask	4	3	400	0	300	300	0	0	474	50	1	0	schlau	lachen	ehrlich	spielen	schön	fair	schroff	leiden	eitel	strafen	schlecht	faul	treu	helfen	tolerant	retten	loyal	freundlich	tot	hindern	tyrannisch	rächen	lasch	fanatisch	1	blank2r.bmp	0	1	+	0	1	blank2r.bmp	500	1	BMVZ	500	1	blank2r.bmp	880	1	schlau	880	1	!	1233	1	!	-1	0	0	0	0	0	0
2024-06-12	15:31:07	15:39:46	518199	6.6.1	4_exp_EVA_AWA_CON	86	B	A	Rpleas_acq	Oppo	Rpleas	1pleas	acq_US_pleas_nomask	acq45_nomask	4	4	400	1	300	300	0	0	390	50	1	0	schlau	lachen	ehrlich	spielen	schön	fair	schroff	leiden	eitel	strafen	schlecht	faul	treu	helfen	tolerant	retten	loyal	freundlich	tot	hindern	tyrannisch	rächen	lasch	fanatisch	1	blank2r.bmp	0	1	+	0	1	blank2r.bmp	500	1	BMVZ	500	1	blank2r.bmp	880	5	schön	880	1	!	1232	1	!	1292	0	0	0	0	0	0
2024-06-12	15:31:07	15:39:48	520399	6.6.1	4_exp_EVA_AWA_CON	86	B	A	Rpleas_acq	Oppo	Rpleas	1pleas	acq_US_unple_nomask	acq45_nomask	4	5	400	1	300	300	0	0	418	50	0	0	schlau	lachen	ehrlich	spielen	schön	fair	schroff	leiden	eitel	strafen	schlecht	faul	treu	helfen	tolerant	retten	loyal	freundlich	tot	hindern	tyrannisch	rächen	lasch	fanatisch	1	blank2r.bmp	0	1	+	0	1	blank2r.bmp	500	1	GKQX	500	1	blank2r.bmp	880	1	schroff	880	1	!	1232	1	!	1319	0	0	0	0	0	0
2024-06-12	15:31:07	15:39:50	522708	6.6.1	4_exp_EVA_AWA_CON	86	B	A	Rpleas_acq	Oppo	Rpleas	1pleas	acq_US_unple_nomask	acq45_nomask	4	6	400	0	300	300	0	0	529	46	1	0	schlau	lachen	ehrlich	spielen	schön	fair	schroff	leiden	eitel	strafen	schlecht	faul	treu	helfen	tolerant	retten	loyal	freundlich	tot	hindern	tyrannisch	rächen	lasch	fanatisch	1	blank2r.bmp	0	1	+	0	1	blank2r.bmp	500	1	GKQX	500	1	blank2r.bmp	880	6	faul	880	1	!	1232	1	!	-1	0	0	0	0	0	0
2024-06-12	15:31:07	15:39:53	524918	6.6.1	4_exp_EVA_AWA_CON	86	B	A	Rpleas_acq	Oppo	Rpleas	1pleas	acq_US_unple_nomask	acq45_nomask	4	7	400	1	300	300	0	0	435	46	1	0	schlau	lachen	ehrlich	spielen	schön	fair	schroff	leiden	eitel	strafen	schlecht	faul	treu	helfen	tolerant	retten	loyal	freundlich	tot	hindern	tyrannisch	rächen	lasch	fanatisch	1	blank2r.bmp	0	1	+	0	1	blank2r.bmp	500	1	GKQX	500	1	blank2r.bmp	880	5	schlecht	880	1	!	1232	1	!	1336	0	0	0	0	0	0
2024-06-12	15:31:07	15:39:55	527180	6.6.1	4_exp_EVA_AWA_CON	86	B	A	Rpleas_acq	Oppo	Rpleas	1pleas	acq_US_unple_nomask	acq45_nomask	4	8	400	0	300	300	0	0	488	46	1	0	schlau	lachen	ehrlich	spielen	schön	fair	schroff	leiden	eitel	strafen	schlecht	faul	treu	helfen	tolerant	retten	loyal	freundlich	tot	hindern	tyrannisch	rächen	lasch	fanatisch	1	blank2r.bmp	0	1	+	0	1	blank2r.bmp	500	1	GKQX	500	1	blank2r.bmp	880	2	leiden	880	1	!	1232	1	!	-1	0	0	0	0	0	0
2024-06-12	15:31:07	15:39:57	529406	6.6.1	4_exp_EVA_AWA_CON	86	B	A	Rpleas_acq	Oppo	Rpleas	1pleas	acq_US_unple_nomask	acq45_nomask	4	9	400	1	300	300	0	0	450	46	1	0	schlau	lachen	ehrlich	spielen	schön	fair	schroff	leiden	eitel	strafen	schlecht	faul	treu	helfen	tolerant	retten	loyal	freundlich	tot	hindern	tyrannisch	rächen	lasch	fanatisch	1	blank2r.bmp	0	1	+	0	1	blank2r.bmp	500	1	GKQX	500	1	blank2r.bmp	880	4	strafen	880	1	!	1232	1	!	1352	0	0	0	0	0	0
2024-06-12	15:31:07	15:39:59	531717	6.6.1	4_exp_EVA_AWA_CON	86	B	A	Rpleas_acq	Oppo	Rpleas	1pleas	acq_US_pleas_nomask	acq45_nomask	4	10	400	0	300	300	0	0	531	50	1	0	schlau	lachen	ehrlich	spielen	schön	fair	schroff	leiden	eitel	strafen	schlecht	faul	treu	helfen	tolerant	retten	loyal	freundlich	tot	hindern	tyrannisch	rächen	lasch	fanatisch	1	blank2r.bmp	0	1	+	0	1	blank2r.bmp	500	1	BMVZ	500	1	blank2r.bmp	880	3	ehrlich	880	1	!	1232	1	!	-1	0	0	0	0	0	0
2024-06-12	15:31:07	15:40:02	533878	6.6.1	4_exp_EVA_AWA_CON	86	B	A	Rpleas_acq	Oppo	Rpleas	1pleas	acq_US_pleas_nomask	acq45_nomask	4	11	400	1	300	300	0	0	380	50	1	0	schlau	lachen	ehrlich	spielen	schön	fair	schroff	leiden	eitel	strafen	schlecht	faul	treu	helfen	tolerant	retten	loyal	freundlich	tot	hindern	tyrannisch	rächen	lasch	fanatisch	1	blank2r.bmp	0	1	+	0	1	blank2r.bmp	500	1	BMVZ	500	1	blank2r.bmp	880	6	fair	880	1	!	1232	1	!	1281	0	0	0	0	0	0
2024-06-12	15:31:07	15:40:04	536062	6.6.1	4_exp_EVA_AWA_CON	86	B	A	Rpleas_acq	Oppo	Rpleas	1pleas	acq_US_pleas_nomask	acq45_nomask	4	12	400	1	300	300	0	0	402	50	1	0	schlau	lachen	ehrlich	spielen	schön	fair	schroff	leiden	eitel	strafen	schlecht	faul	treu	helfen	tolerant	retten	loyal	freundlich	tot	hindern	tyrannisch	rächen	lasch	fanatisch	1	blank2r.bmp	0	1	+	0	1	blank2r.bmp	500	1	BMVZ	500	1	blank2r.bmp	880	4	spielen	880	1	!	1232	1	!	1303	0	0	0	0	0	0
2024-06-12	15:31:07	15:40:06	538302	6.6.1	4_exp_EVA_AWA_CON	86	B	A	Rpleas_acq	Oppo	Rpleas	1pleas	acq_US_pleas_nomask	acq45_nomask	4	13	400	1	300	300	0	0	461	50	1	0	schlau	lachen	ehrlich	spielen	schön	fair	schroff	leiden	eitel	strafen	schlecht	faul	treu	helfen	tolerant	retten	loyal	freundlich	tot	hindern	tyrannisch	rächen	lasch	fanatisch	1	blank2r.bmp	0	1	+	0	1	blank2r.bmp	500	1	BMVZ	500	1	blank2r.bmp	880	2	lachen	880	1	!	1232	1	!	1362	0	0	0	0	0	0
2024-06-12	15:31:07	15:40:08	540502	6.6.1	4_exp_EVA_AWA_CON	86	B	A	Rpleas_acq	Oppo	Rpleas	1pleas	acq_US_pleas_nomask	acq45_nomask	4	14	400	1	300	300	0	0	419	50	1	0	schlau	lachen	ehrlich	spielen	schön	fair	schroff	leiden	eitel	strafen	schlecht	faul	treu	helfen	tolerant	retten	loyal	freundlich	tot	hindern	tyrannisch	rächen	lasch	fanatisch	1	blank2r.bmp	0	1	+	0	1	blank2r.bmp	500	1	BMVZ	500	1	blank2r.bmp	880	6	fair	880	1	!	1233	1	!	1320	0	0	0	0	0	0
2024-06-12	15:31:07	15:40:10	542726	6.6.1	4_exp_EVA_AWA_CON	86	B	A	Rpleas_acq	Oppo	Rpleas	1pleas	acq_US_pleas_nomask	acq45_nomask	4	15	400	1	300	300	0	0	442	50	1	0	schlau	lachen	ehrlich	spielen	schön	fair	schroff	leiden	eitel	strafen	schlecht	faul	treu	helfen	tolerant	retten	loyal	freundlich	tot	hindern	tyrannisch	rächen	lasch	fanatisch	1	blank2r.bmp	0	1	+	0	1	blank2r.bmp	500	1	BMVZ	500	1	blank2r.bmp	880	4	spielen	880	1	!	1232	1	!	1343	0	0	0	0	0	0
2024-06-12	15:31:07	15:40:13	544910	6.6.1	4_exp_EVA_AWA_CON	86	B	A	Rpleas_acq	Oppo	Rpleas	1pleas	acq_US_unple_nomask	acq45_nomask	4	16	400	1	300	300	0	0	404	46	1	0	schlau	lachen	ehrlich	spielen	schön	fair	schroff	leiden	eitel	strafen	schlecht	faul	treu	helfen	tolerant	retten	loyal	freundlich	tot	hindern	tyrannisch	rächen	lasch	fanatisch	1	blank2r.bmp	0	1	+	0	1	blank2r.bmp	500	1	GKQX	500	1	blank2r.bmp	880	2	leiden	880	1	!	1232	1	!	1306	0	0	0	0	0	0
2024-06-12	15:31:07	15:40:15	547126	6.6.1	4_exp_EVA_AWA_CON	86	B	A	Rpleas_acq	Oppo	Rpleas	1pleas	acq_US_unple_nomask	acq45_nomask	4	17	400	1	300	300	0	0	439	46	1	0	schlau	lachen	ehrlich	spielen	schön	fair	schroff	leiden	eitel	strafen	schlecht	faul	treu	helfen	tolerant	retten	loyal	freundlich	tot	hindern	tyrannisch	rächen	lasch	fanatisch	1	blank2r.bmp	0	1	+	0	1	blank2r.bmp	500	1	GKQX	500	1	blank2r.bmp	880	5	schlecht	880	1	!	1232	1	!	1340	0	0	0	0	0	0
2024-06-12	15:31:07	15:40:17	549366	6.6.1	4_exp_EVA_AWA_CON	86	B	A	Rpleas_acq	Oppo	Rpleas	1pleas	acq_US_unple_nomask	acq45_nomask	4	18	400	1	300	300	0	0	458	46	1	0	schlau	lachen	ehrlich	spielen	schön	fair	schroff	leiden	eitel	strafen	schlecht	faul	treu	helfen	tolerant	retten	loyal	freundlich	tot	hindern	tyrannisch	rächen	lasch	fanatisch	1	blank2r.bmp	0	1	+	0	1	blank2r.bmp	500	1	GKQX	500	1	blank2r.bmp	880	6	faul	880	1	!	1232	1	!	1359	0	0	0	0	0	0
2024-06-12	15:31:07	15:40:19	551542	6.6.1	4_exp_EVA_AWA_CON	86	B	A	Rpleas_acq	Oppo	Rpleas	1pleas	acq_US_unple_nomask	acq45_nomask	4	19	400	1	300	300	0	0	392	50	0	0	schlau	lachen	ehrlich	spielen	schön	fair	schroff	leiden	eitel	strafen	schlecht	faul	treu	helfen	tolerant	retten	loyal	freundlich	tot	hindern	tyrannisch	rächen	lasch	fanatisch	1	blank2r.bmp	0	1	+	0	1	blank2r.bmp	500	1	GKQX	500	1	blank2r.bmp	880	4	strafen	880	1	!	1232	1	!	1293	0	0	0	0	0	0
2024-06-12	15:31:07	15:40:21	553751	6.6.1	4_exp_EVA_AWA_CON	86	B	A	Rpleas_acq	Oppo	Rpleas	1pleas	acq_US_pleas_nomask	acq45_nomask	4	20	400	1	300	300	0	0	429	50	1	0	schlau	lachen	ehrlich	spielen	schön	fair	schroff	leiden	eitel	strafen	schlecht	faul	treu	helfen	tolerant	retten	loyal	freundlich	tot	hindern	tyrannisch	rächen	lasch	fanatisch	1	blank2r.bmp	0	1	+	0	1	blank2r.bmp	500	1	BMVZ	500	1	blank2r.bmp	880	1	schlau	880	1	!	1233	1	!	1330	0	0	0	0	0	0
2024-06-12	15:31:07	15:40:24	555894	6.6.1	4_exp_EVA_AWA_CON	86	B	A	Rpleas_acq	Oppo	Rpleas	1pleas	acq_US_pleas_nomask	acq45_nomask	4	21	400	1	300	300	0	0	361	50	1	0	schlau	lachen	ehrlich	spielen	schön	fair	schroff	leiden	eitel	strafen	schlecht	faul	treu	helfen	tolerant	retten	loyal	freundlich	tot	hindern	tyrannisch	rächen	lasch	fanatisch	1	blank2r.bmp	0	1	+	0	1	blank2r.bmp	500	1	BMVZ	500	1	blank2r.bmp	880	5	schön	880	1	!	1233	1	!	1263	0	0	0	0	0	0
2024-06-12	15:31:07	15:40:26	558156	6.6.1	4_exp_EVA_AWA_CON	86	B	A	Rpleas_acq	Oppo	Rpleas	1pleas	acq_US_pleas_nomask	acq45_nomask	4	22	400	0	300	300	0	0	484	50	1	0	schlau	lachen	ehrlich	spielen	schön	fair	schroff	leiden	eitel	strafen	schlecht	faul	treu	helfen	tolerant	retten	loyal	freundlich	tot	hindern	tyrannisch	rächen	lasch	fanatisch	1	blank2r.bmp	0	1	+	0	1	blank2r.bmp	500	1	BMVZ	500	1	blank2r.bmp	880	3	ehrlich	880	1	!	1232	1	!	-1	0	0	0	0	0	0
2024-06-12	15:31:07	15:40:28	560366	6.6.1	4_exp_EVA_AWA_CON	86	B	A	Rpleas_acq	Oppo	Rpleas	1pleas	acq_US_unple_nomask	acq45_nomask	4	23	400	1	300	300	0	0	431	46	1	0	schlau	lachen	ehrlich	spielen	schön	fair	schroff	leiden	eitel	strafen	schlecht	faul	treu	helfen	tolerant	retten	loyal	freundlich	tot	hindern	tyrannisch	rächen	lasch	fanatisch	1	blank2r.bmp	0	1	+	0	1	blank2r.bmp	500	1	GKQX	500	1	blank2r.bmp	880	3	eitel	880	1	!	1232	1	!	1332	0	0	0	0	0	0
2024-06-12	15:31:07	15:40:30	562502	6.6.1	4_exp_EVA_AWA_CON	86	B	A	Rpleas_acq	Oppo	Rpleas	1pleas	acq_US_pleas_nomask	acq45_nomask	4	24	400	1	300	300	0	0	355	50	1	0	schlau	lachen	ehrlich	spielen	schön	fair	schroff	leiden	eitel	strafen	schlecht	faul	treu	helfen	tolerant	retten	loyal	freundlich	tot	hindern	tyrannisch	rächen	lasch	fanatisch	1	blank2r.bmp	0	1	+	0	1	blank2r.bmp	500	1	BMVZ	500	1	blank2r.bmp	880	5	schön	880	1	!	1232	1	!	1256	0	0	0	0	0	0
2024-06-12	15:31:07	15:40:32	564726	6.6.1	4_exp_EVA_AWA_CON	86	B	A	Rpleas_acq	Oppo	Rpleas	1pleas	acq_US_pleas_nomask	acq45_nomask	4	25	400	1	300	300	0	0	448	50	1	0	schlau	lachen	ehrlich	spielen	schön	fair	schroff	leiden	eitel	strafen	schlecht	faul	treu	helfen	tolerant	retten	loyal	freundlich	tot	hindern	tyrannisch	rächen	lasch	fanatisch	1	blank2r.bmp	0	1	+	0	1	blank2r.bmp	500	1	BMVZ	500	1	blank2r.bmp	880	3	ehrlich	880	1	!	1232	1	!	1349	0	0	0	0	0	0
2024-06-12	15:31:07	15:40:35	567004	6.6.1	4_exp_EVA_AWA_CON	86	B	A	Rpleas_acq	Oppo	Rpleas	1pleas	acq_US_unple_nomask	acq45_nomask	4	26	400	0	300	300	0	0	496	46	1	0	schlau	lachen	ehrlich	spielen	schön	fair	schroff	leiden	eitel	strafen	schlecht	faul	treu	helfen	tolerant	retten	loyal	freundlich	tot	hindern	tyrannisch	rächen	lasch	fanatisch	1	blank2r.bmp	0	1	+	0	1	blank2r.bmp	500	1	GKQX	500	1	blank2r.bmp	880	1	schroff	880	1	!	1232	1	!	-1	0	0	0	0	0	0
2024-06-12	15:31:07	15:40:37	569206	6.6.1	4_exp_EVA_AWA_CON	86	B	A	Rpleas_acq	Oppo	Rpleas	1pleas	acq_US_pleas_nomask	acq45_nomask	4	27	400	1	300	300	0	0	425	50	1	0	schlau	lachen	ehrlich	spielen	schön	fair	schroff	leiden	eitel	strafen	schlecht	faul	treu	helfen	tolerant	retten	loyal	freundlich	tot	hindern	tyrannisch	rächen	lasch	fanatisch	1	blank2r.bmp	0	1	+	0	1	blank2r.bmp	500	1	BMVZ	500	1	blank2r.bmp	880	6	fair	880	1	!	1232	1	!	1326	0	0	0	0	0	0
2024-06-12	15:31:07	15:40:39	571414	6.6.1	4_exp_EVA_AWA_CON	86	B	A	Rpleas_acq	Oppo	Rpleas	1pleas	acq_US_unple_nomask	acq45_nomask	4	28	400	1	300	300	0	0	431	46	1	0	schlau	lachen	ehrlich	spielen	schön	fair	schroff	leiden	eitel	strafen	schlecht	faul	treu	helfen	tolerant	retten	loyal	freundlich	tot	hindern	tyrannisch	rächen	lasch	fanatisch	1	blank2r.bmp	0	1	+	0	1	blank2r.bmp	500	1	GKQX	500	1	blank2r.bmp	880	4	strafen	880	1	!	1232	1	!	1333	0	0	0	0	0	0
2024-06-12	15:31:07	15:40:41	573598	6.6.1	4_exp_EVA_AWA_CON	86	B	A	Rpleas_acq	Oppo	Rpleas	1pleas	acq_US_pleas_nomask	acq45_nomask	4	29	400	1	300	300	0	0	404	50	1	0	schlau	lachen	ehrlich	spielen	schön	fair	schroff	leiden	eitel	strafen	schlecht	faul	treu	helfen	tolerant	retten	loyal	freundlich	tot	hindern	tyrannisch	rächen	lasch	fanatisch	1	blank2r.bmp	0	1	+	0	1	blank2r.bmp	500	1	BMVZ	500	1	blank2r.bmp	880	1	schlau	880	1	!	1232	1	!	1305	0	0	0	0	0	0
2024-06-12	15:31:07	15:40:44	575916	6.6.1	4_exp_EVA_AWA_CON	86	B	A	Rpleas_acq	Oppo	Rpleas	1pleas	acq_US_unple_nomask	acq45_nomask	4	30	400	0	300	300	0	0	543	46	1	0	schlau	lachen	ehrlich	spielen	schön	fair	schroff	leiden	eitel	strafen	schlecht	faul	treu	helfen	tolerant	retten	loyal	freundlich	tot	hindern	tyrannisch	rächen	lasch	fanatisch	1	blank2r.bmp	0	1	+	0	1	blank2r.bmp	500	1	GKQX	500	1	blank2r.bmp	880	6	faul	880	1	!	1232	1	!	-1	0	0	0	0	0	0
2024-06-12	15:31:07	15:40:46	578188	6.6.1	4_exp_EVA_AWA_CON	86	B	A	Rpleas_acq	Oppo	Rpleas	1pleas	acq_US_unple_nomask	acq45_nomask	4	31	400	0	300	300	0	0	493	46	1	0	schlau	lachen	ehrlich	spielen	schön	fair	schroff	leiden	eitel	strafen	schlecht	faul	treu	helfen	tolerant	retten	loyal	freundlich	tot	hindern	tyrannisch	rächen	lasch	fanatisch	1	blank2r.bmp	0	1	+	0	1	blank2r.bmp	500	1	GKQX	500	1	blank2r.bmp	880	5	schlecht	880	1	!	1232	1	!	-1	0	0	0	0	0	0
2024-06-12	15:31:07	15:40:48	580468	6.6.1	4_exp_EVA_AWA_CON	86	B	A	Rpleas_acq	Oppo	Rpleas	1pleas	acq_US_unple_nomask	acq45_nomask	4	32	400	0	300	300	0	0	502	46	1	0	schlau	lachen	ehrlich	spielen	schön	fair	schroff	leiden	eitel	strafen	schlecht	faul	treu	helfen	tolerant	retten	loyal	freundlich	tot	hindern	tyrannisch	rächen	lasch	fanatisch	1	blank2r.bmp	0	1	+	0	1	blank2r.bmp	500	1	GKQX	500	1	blank2r.bmp	880	2	leiden	880	1	!	1232	1	!	-1	0	0	0	0	0	0
2024-06-12	15:31:07	15:40:50	582614	6.6.1	4_exp_EVA_AWA_CON	86	B	A	Rpleas_acq	Oppo	Rpleas	1pleas	acq_US_pleas_nomask	acq45_nomask	4	33	400	1	300	300	0	0	364	46	0	0	schlau	lachen	ehrlich	spielen	schön	fair	schroff	leiden	eitel	strafen	schlecht	faul	treu	helfen	tolerant	retten	loyal	freundlich	tot	hindern	tyrannisch	rächen	lasch	fanatisch	1	blank2r.bmp	0	1	+	0	1	blank2r.bmp	500	1	BMVZ	500	1	blank2r.bmp	880	4	spielen	880	1	!	1233	1	!	1266	0	0	0	0	0	0
2024-06-12	15:31:07	15:40:53	584924	6.6.1	4_exp_EVA_AWA_CON	86	B	A	Rpleas_acq	Oppo	Rpleas	1pleas	acq_US_pleas_nomask	acq45_nomask	4	34	400	0	300	300	0	0	535	50	1	0	schlau	lachen	ehrlich	spielen	schön	fair	schroff	leiden	eitel	strafen	schlecht	faul	treu	helfen	tolerant	retten	loyal	freundlich	tot	hindern	tyrannisch	rächen	lasch	fanatisch	1	blank2r.bmp	0	1	+	0	1	blank2r.bmp	500	1	BMVZ	500	1	blank2r.bmp	880	2	lachen	880	1	!	1232	1	!	-1	0	0	0	0	0	0
2024-06-12	15:31:07	15:40:55	587150	6.6.1	4_exp_EVA_AWA_CON	86	B	A	Rpleas_acq	Oppo	Rpleas	1pleas	acq_US_unple_nomask	acq45_nomask	4	35	400	1	300	300	0	0	447	46	1	0	schlau	lachen	ehrlich	spielen	schön	fair	schroff	leiden	eitel	strafen	schlecht	faul	treu	helfen	tolerant	retten	loyal	freundlich	tot	hindern	tyrannisch	rächen	lasch	fanatisch	1	blank2r.bmp	0	1	+	0	1	blank2r.bmp	500	1	GKQX	500	1	blank2r.bmp	880	3	eitel	880	1	!	1232	1	!	1349	0	0	0	0	0	0
2024-06-12	15:31:07	15:40:57	589428	6.6.1	4_exp_EVA_AWA_CON	86	B	A	Rpleas_acq	Oppo	Rpleas	1pleas	acq_US_unple_nomask	acq45_nomask	4	36	400	0	300	300	0	0	496	46	1	0	schlau	lachen	ehrlich	spielen	schön	fair	schroff	leiden	eitel	strafen	schlecht	faul	treu	helfen	tolerant	retten	loyal	freundlich	tot	hindern	tyrannisch	rächen	lasch	fanatisch	1	blank2r.bmp	0	1	+	0	1	blank2r.bmp	500	1	GKQX	500	1	blank2r.bmp	880	1	schroff	880	1	!	1232	1	!	-1	0	0	0	0	0	0
2024-06-12	15:31:07	15:41:33	625590	6.6.1	4_exp_EVA_AWA_CON	86	B	A	Rpleas_acq	Oppo	Rpleas	1pleas	acq_US_unple_nomask	acq45_nomask	5	1	400	1	300	300	0	0	463	46	1	0	schlau	lachen	ehrlich	spielen	schön	fair	schroff	leiden	eitel	strafen	schlecht	faul	treu	helfen	tolerant	retten	loyal	freundlich	tot	hindern	tyrannisch	rächen	lasch	fanatisch	1	blank2r.bmp	0	1	+	0	1	blank2r.bmp	500	1	GKQX	500	1	blank2r.bmp	880	2	leiden	880	1	!	1232	1	!	1364	0	0	0	0	0	0
2024-06-12	15:31:07	15:41:35	627727	6.6.1	4_exp_EVA_AWA_CON	86	B	A	Rpleas_acq	Oppo	Rpleas	1pleas	acq_US_unple_nomask	acq45_nomask	5	2	400	1	300	300	0	0	357	46	1	0	schlau	lachen	ehrlich	spielen	schön	fair	schroff	leiden	eitel	strafen	schlecht	faul	treu	helfen	tolerant	retten	loyal	freundlich	tot	hindern	tyrannisch	rächen	lasch	fanatisch	1	blank2r.bmp	0	1	+	0	1	blank2r.bmp	500	1	GKQX	500	1	blank2r.bmp	880	6	faul	880	1	!	1233	1	!	1259	0	0	0	0	0	0
2024-06-12	15:31:07	15:41:38	629926	6.6.1	4_exp_EVA_AWA_CON	86	B	A	Rpleas_acq	Oppo	Rpleas	1pleas	acq_US_pleas_nomask	acq45_nomask	5	3	400	1	300	300	0	0	426	50	1	0	schlau	lachen	ehrlich	spielen	schön	fair	schroff	leiden	eitel	strafen	schlecht	faul	treu	helfen	tolerant	retten	loyal	freundlich	tot	hindern	tyrannisch	rächen	lasch	fanatisch	1	blank2r.bmp	0	1	+	0	1	blank2r.bmp	500	1	BMVZ	500	1	blank2r.bmp	880	4	spielen	880	1	!	1232	1	!	1327	0	0	0	0	0	0
2024-06-12	15:31:07	15:41:40	632071	6.6.1	4_exp_EVA_AWA_CON	86	B	A	Rpleas_acq	Oppo	Rpleas	1pleas	acq_US_unple_nomask	acq45_nomask	5	4	400	1	300	300	0	0	369	46	1	0	schlau	lachen	ehrlich	spielen	schön	fair	schroff	leiden	eitel	strafen	schlecht	faul	treu	helfen	tolerant	retten	loyal	freundlich	tot	hindern	tyrannisch	rächen	lasch	fanatisch	1	blank2r.bmp	0	1	+	0	1	blank2r.bmp	500	1	GKQX	500	1	blank2r.bmp	880	1	schroff	880	1	!	1232	1	!	1270	0	0	0	0	0	0
2024-06-12	15:31:07	15:41:42	634318	6.6.1	4_exp_EVA_AWA_CON	86	B	A	Rpleas_acq	Oppo	Rpleas	1pleas	acq_US_unple_nomask	acq45_nomask	5	5	400	1	300	300	0	0	465	46	1	0	schlau	lachen	ehrlich	spielen	schön	fair	schroff	leiden	eitel	strafen	schlecht	faul	treu	helfen	tolerant	retten	loyal	freundlich	tot	hindern	tyrannisch	rächen	lasch	fanatisch	1	blank2r.bmp	0	1	+	0	1	blank2r.bmp	500	1	GKQX	500	1	blank2r.bmp	880	5	schlecht	880	1	!	1232	1	!	1366	0	0	0	0	0	0
2024-06-12	15:31:07	15:41:44	636588	6.6.1	4_exp_EVA_AWA_CON	86	B	A	Rpleas_acq	Oppo	Rpleas	1pleas	acq_US_unple_nomask	acq45_nomask	5	6	400	0	300	300	0	0	496	46	1	0	schlau	lachen	ehrlich	spielen	schön	fair	schroff	leiden	eitel	strafen	schlecht	faul	treu	helfen	tolerant	retten	loyal	freundlich	tot	hindern	tyrannisch	rächen	lasch	fanatisch	1	blank2r.bmp	0	1	+	0	1	blank2r.bmp	500	1	GKQX	500	1	blank2r.bmp	880	3	eitel	880	1	!	1232	1	!	-1	0	0	0	0	0	0
2024-06-12	15:31:07	15:41:47	638852	6.6.1	4_exp_EVA_AWA_CON	86	B	A	Rpleas_acq	Oppo	Rpleas	1pleas	acq_US_pleas_nomask	acq45_nomask	5	7	400	0	300	300	0	0	488	46	0	0	schlau	lachen	ehrlich	spielen	schön	fair	schroff	leiden	eitel	strafen	schlecht	faul	treu	helfen	tolerant	retten	loyal	freundlich	tot	hindern	tyrannisch	rächen	lasch	fanatisch	1	blank2r.bmp	0	1	+	0	1	blank2r.bmp	500	1	BMVZ	500	1	blank2r.bmp	880	1	schlau	880	1	!	1232	1	!	-1	0	0	0	0	0	0
2024-06-12	15:31:07	15:41:49	641046	6.6.1	4_exp_EVA_AWA_CON	86	B	A	Rpleas_acq	Oppo	Rpleas	1pleas	acq_US_pleas_nomask	acq45_nomask	5	8	400	1	300	300	0	0	419	50	1	0	schlau	lachen	ehrlich	spielen	schön	fair	schroff	leiden	eitel	strafen	schlecht	faul	treu	helfen	tolerant	retten	loyal	freundlich	tot	hindern	tyrannisch	rächen	lasch	fanatisch	1	blank2r.bmp	0	1	+	0	1	blank2r.bmp	500	1	BMVZ	500	1	blank2r.bmp	880	5	schön	880	1	!	1232	1	!	1320	0	0	0	0	0	0
2024-06-12	15:31:07	15:41:51	643222	6.6.1	4_exp_EVA_AWA_CON	86	B	A	Rpleas_acq	Oppo	Rpleas	1pleas	acq_US_pleas_nomask	acq45_nomask	5	9	400	1	300	300	0	0	393	46	0	0	schlau	lachen	ehrlich	spielen	schön	fair	schroff	leiden	eitel	strafen	schlecht	faul	treu	helfen	tolerant	retten	loyal	freundlich	tot	hindern	tyrannisch	rächen	lasch	fanatisch	1	blank2r.bmp	0	1	+	0	1	blank2r.bmp	500	1	BMVZ	500	1	blank2r.bmp	880	6	fair	880	1	!	1232	1	!	1295	0	0	0	0	0	0
2024-06-12	15:31:07	15:41:53	645516	6.6.1	4_exp_EVA_AWA_CON	86	B	A	Rpleas_acq	Oppo	Rpleas	1pleas	acq_US_unple_nomask	acq45_nomask	5	10	400	0	300	300	0	0	518	50	0	0	schlau	lachen	ehrlich	spielen	schön	fair	schroff	leiden	eitel	strafen	schlecht	faul	treu	helfen	tolerant	retten	loyal	freundlich	tot	hindern	tyrannisch	rächen	lasch	fanatisch	1	blank2r.bmp	0	1	+	0	1	blank2r.bmp	500	1	GKQX	500	1	blank2r.bmp	880	4	strafen	880	1	!	1232	1	!	-1	0	0	0	0	0	0
2024-06-12	15:31:07	15:41:55	647812	6.6.1	4_exp_EVA_AWA_CON	86	B	A	Rpleas_acq	Oppo	Rpleas	1pleas	acq_US_unple_nomask	acq45_nomask	5	11	400	0	300	300	0	0	523	46	1	0	schlau	lachen	ehrlich	spielen	schön	fair	schroff	leiden	eitel	strafen	schlecht	faul	treu	helfen	tolerant	retten	loyal	freundlich	tot	hindern	tyrannisch	rächen	lasch	fanatisch	1	blank2r.bmp	0	1	+	0	1	blank2r.bmp	500	1	GKQX	500	1	blank2r.bmp	880	2	leiden	880	1	!	1232	1	!	-1	0	0	0	0	0	0
2024-06-12	15:31:07	15:41:58	650030	6.6.1	4_exp_EVA_AWA_CON	86	B	A	Rpleas_acq	Oppo	Rpleas	1pleas	acq_US_pleas_nomask	acq45_nomask	5	12	400	1	300	300	0	0	437	50	1	0	schlau	lachen	ehrlich	spielen	schön	fair	schroff	leiden	eitel	strafen	schlecht	faul	treu	helfen	tolerant	retten	loyal	freundlich	tot	hindern	tyrannisch	rächen	lasch	fanatisch	1	blank2r.bmp	0	1	+	0	1	blank2r.bmp	500	1	BMVZ	500	1	blank2r.bmp	880	2	lachen	880	1	!	1233	1	!	1338	0	0	0	0	0	0
2024-06-12	15:31:07	15:42:00	652255	6.6.1	4_exp_EVA_AWA_CON	86	B	A	Rpleas_acq	Oppo	Rpleas	1pleas	acq_US_unple_nomask	acq45_nomask	5	13	400	1	300	300	0	0	450	46	1	0	schlau	lachen	ehrlich	spielen	schön	fair	schroff	leiden	eitel	strafen	schlecht	faul	treu	helfen	tolerant	retten	loyal	freundlich	tot	hindern	tyrannisch	rächen	lasch	fanatisch	1	blank2r.bmp	0	1	+	0	1	blank2r.bmp	500	1	GKQX	500	1	blank2r.bmp	880	1	schroff	880	1	!	1232	1	!	1352	0	0	0	0	0	0
2024-06-12	15:31:07	15:42:02	654455	6.6.1	4_exp_EVA_AWA_CON	86	B	A	Rpleas_acq	Oppo	Rpleas	1pleas	acq_US_pleas_nomask	acq45_nomask	5	14	400	1	300	300	0	0	418	50	1	0	schlau	lachen	ehrlich	spielen	schön	fair	schroff	leiden	eitel	strafen	schlecht	faul	treu	helfen	tolerant	retten	loyal	freundlich	tot	hindern	tyrannisch	rächen	lasch	fanatisch	1	blank2r.bmp	0	1	+	0	1	blank2r.bmp	500	1	BMVZ	500	1	blank2r.bmp	880	3	ehrlich	880	1	!	1232	1	!	1319	0	0	0	0	0	0
2024-06-12	15:31:07	15:42:04	656702	6.6.1	4_exp_EVA_AWA_CON	86	B	A	Rpleas_acq	Oppo	Rpleas	1pleas	acq_US_pleas_nomask	acq45_nomask	5	15	400	1	300	300	0	0	465	50	1	0	schlau	lachen	ehrlich	spielen	schön	fair	schroff	leiden	eitel	strafen	schlecht	faul	treu	helfen	tolerant	retten	loyal	freundlich	tot	hindern	tyrannisch	rächen	lasch	fanatisch	1	blank2r.bmp	0	1	+	0	1	blank2r.bmp	500	1	BMVZ	500	1	blank2r.bmp	880	4	spielen	880	1	!	1232	1	!	1366	0	0	0	0	0	0
2024-06-12	15:31:07	15:42:07	658918	6.6.1	4_exp_EVA_AWA_CON	86	B	A	Rpleas_acq	Oppo	Rpleas	1pleas	acq_US_unple_nomask	acq45_nomask	5	16	400	1	300	300	0	0	439	46	1	0	schlau	lachen	ehrlich	spielen	schön	fair	schroff	leiden	eitel	strafen	schlecht	faul	treu	helfen	tolerant	retten	loyal	freundlich	tot	hindern	tyrannisch	rächen	lasch	fanatisch	1	blank2r.bmp	0	1	+	0	1	blank2r.bmp	500	1	GKQX	500	1	blank2r.bmp	880	6	faul	880	1	!	1233	1	!	1341	0	0	0	0	0	0
2024-06-12	15:31:07	15:42:09	661170	6.6.1	4_exp_EVA_AWA_CON	86	B	A	Rpleas_acq	Oppo	Rpleas	1pleas	acq_US_pleas_nomask	acq45_nomask	5	17	400	0	300	300	0	0	474	50	1	0	schlau	lachen	ehrlich	spielen	schön	fair	schroff	leiden	eitel	strafen	schlecht	faul	treu	helfen	tolerant	retten	loyal	freundlich	tot	hindern	tyrannisch	rächen	lasch	fanatisch	1	blank2r.bmp	0	1	+	0	1	blank2r.bmp	500	1	BMVZ	500	1	blank2r.bmp	880	1	schlau	880	1	!	1232	1	!	-1	0	0	0	0	0	0
2024-06-12	15:31:07	15:42:11	663461	6.6.1	4_exp_EVA_AWA_CON	86	B	A	Rpleas_acq	Oppo	Rpleas	1pleas	acq_US_pleas_nomask	acq45_nomask	5	18	400	0	300	300	0	0	511	50	1	0	schlau	lachen	ehrlich	spielen	schön	fair	schroff	leiden	eitel	strafen	schlecht	faul	treu	helfen	tolerant	retten	loyal	freundlich	tot	hindern	tyrannisch	rächen	lasch	fanatisch	1	blank2r.bmp	0	1	+	0	1	blank2r.bmp	500	1	BMVZ	500	1	blank2r.bmp	880	3	ehrlich	880	1	!	1232	1	!	-1	0	0	0	0	0	0
2024-06-12	15:31:07	15:42:13	665654	6.6.1	4_exp_EVA_AWA_CON	86	B	A	Rpleas_acq	Oppo	Rpleas	1pleas	acq_US_unple_nomask	acq45_nomask	5	19	400	1	300	300	0	0	411	50	0	0	schlau	lachen	ehrlich	spielen	schön	fair	schroff	leiden	eitel	strafen	schlecht	faul	treu	helfen	tolerant	retten	loyal	freundlich	tot	hindern	tyrannisch	rächen	lasch	fanatisch	1	blank2r.bmp	0	1	+	0	1	blank2r.bmp	500	1	GKQX	500	1	blank2r.bmp	880	4	strafen	880	1	!	1233	1	!	1312	0	0	0	0	0	0
2024-06-12	15:31:07	15:42:16	667870	6.6.1	4_exp_EVA_AWA_CON	86	B	A	Rpleas_acq	Oppo	Rpleas	1pleas	acq_US_pleas_nomask	acq45_nomask	5	20	400	1	300	300	0	0	436	50	1	0	schlau	lachen	ehrlich	spielen	schön	fair	schroff	leiden	eitel	strafen	schlecht	faul	treu	helfen	tolerant	retten	loyal	freundlich	tot	hindern	tyrannisch	rächen	lasch	fanatisch	1	blank2r.bmp	0	1	+	0	1	blank2r.bmp	500	1	BMVZ	500	1	blank2r.bmp	880	5	schön	880	1	!	1232	1	!	1337	0	0	0	0	0	0
2024-06-12	15:31:07	15:42:18	670087	6.6.1	4_exp_EVA_AWA_CON	86	B	A	Rpleas_acq	Oppo	Rpleas	1pleas	acq_US_pleas_nomask	acq45_nomask	5	21	400	1	300	300	0	0	440	50	1	0	schlau	lachen	ehrlich	spielen	schön	fair	schroff	leiden	eitel	strafen	schlecht	faul	treu	helfen	tolerant	retten	loyal	freundlich	tot	hindern	tyrannisch	rächen	lasch	fanatisch	1	blank2r.bmp	0	1	+	0	1	blank2r.bmp	500	1	BMVZ	500	1	blank2r.bmp	880	2	lachen	880	1	!	1232	1	!	1342	0	0	0	0	0	0
2024-06-12	15:31:07	15:42:20	672338	6.6.1	4_exp_EVA_AWA_CON	86	B	A	Rpleas_acq	Oppo	Rpleas	1pleas	acq_US_pleas_nomask	acq45_nomask	5	22	400	0	300	300	0	0	475	50	1	0	schlau	lachen	ehrlich	spielen	schön	fair	schroff	leiden	eitel	strafen	schlecht	faul	treu	helfen	tolerant	retten	loyal	freundlich	tot	hindern	tyrannisch	rächen	lasch	fanatisch	1	blank2r.bmp	0	1	+	0	1	blank2r.bmp	500	1	BMVZ	500	1	blank2r.bmp	880	6	fair	880	1	!	1232	1	!	-1	0	0	0	0	0	0
2024-06-12	15:31:07	15:42:22	674534	6.6.1	4_exp_EVA_AWA_CON	86	B	A	Rpleas_acq	Oppo	Rpleas	1pleas	acq_US_unple_nomask	acq45_nomask	5	23	400	1	300	300	0	0	415	46	1	0	schlau	lachen	ehrlich	spielen	schön	fair	schroff	leiden	eitel	strafen	schlecht	faul	treu	helfen	tolerant	retten	loyal	freundlich	tot	hindern	tyrannisch	rächen	lasch	fanatisch	1	blank2r.bmp	0	1	+	0	1	blank2r.bmp	500	1	GKQX	500	1	blank2r.bmp	880	5	schlecht	880	1	!	1233	1	!	1317	0	0	0	0	0	0
2024-06-12	15:31:07	15:42:24	676742	6.6.1	4_exp_EVA_AWA_CON	86	B	A	Rpleas_acq	Oppo	Rpleas	1pleas	acq_US_unple_nomask	acq45_nomask	5	24	400	1	300	300	0	0	432	46	1	0	schlau	lachen	ehrlich	spielen	schön	fair	schroff	leiden	eitel	strafen	schlecht	faul	treu	helfen	tolerant	retten	loyal	freundlich	tot	hindern	tyrannisch	rächen	lasch	fanatisch	1	blank2r.bmp	0	1	+	0	1	blank2r.bmp	500	1	GKQX	500	1	blank2r.bmp	880	3	eitel	880	1	!	1232	1	!	1333	0	0	0	0	0	0
2024-06-12	15:31:07	15:42:27	678902	6.6.1	4_exp_EVA_AWA_CON	86	B	A	Rpleas_acq	Oppo	Rpleas	1pleas	acq_US_pleas_nomask	acq45_nomask	5	25	400	1	300	300	0	0	381	50	1	0	schlau	lachen	ehrlich	spielen	schön	fair	schroff	leiden	eitel	strafen	schlecht	faul	treu	helfen	tolerant	retten	loyal	freundlich	tot	hindern	tyrannisch	rächen	lasch	fanatisch	1	blank2r.bmp	0	1	+	0	1	blank2r.bmp	500	1	BMVZ	500	1	blank2r.bmp	880	5	schön	880	1	!	1232	1	!	1282	0	0	0	0	0	0
2024-06-12	15:31:07	15:42:29	681126	6.6.1	4_exp_EVA_AWA_CON	86	B	A	Rpleas_acq	Oppo	Rpleas	1pleas	acq_US_unple_nomask	acq45_nomask	5	26	400	1	300	300	0	0	443	46	1	0	schlau	lachen	ehrlich	spielen	schön	fair	schroff	leiden	eitel	strafen	schlecht	faul	treu	helfen	tolerant	retten	loyal	freundlich	tot	hindern	tyrannisch	rächen	lasch	fanatisch	1	blank2r.bmp	0	1	+	0	1	blank2r.bmp	500	1	GKQX	500	1	blank2r.bmp	880	4	strafen	880	1	!	1232	1	!	1344	0	0	0	0	0	0
2024-06-12	15:31:07	15:42:31	683254	6.6.1	4_exp_EVA_AWA_CON	86	B	A	Rpleas_acq	Oppo	Rpleas	1pleas	acq_US_pleas_nomask	acq45_nomask	5	27	400	1	300	300	0	0	350	50	1	0	schlau	lachen	ehrlich	spielen	schön	fair	schroff	leiden	eitel	strafen	schlecht	faul	treu	helfen	tolerant	retten	loyal	freundlich	tot	hindern	tyrannisch	rächen	lasch	fanatisch	1	blank2r.bmp	0	1	+	0	1	blank2r.bmp	500	1	BMVZ	500	1	blank2r.bmp	880	4	spielen	880	1	!	1232	1	!	1252	0	0	0	0	0	0
2024-06-12	15:31:07	15:42:33	685478	6.6.1	4_exp_EVA_AWA_CON	86	B	A	Rpleas_acq	Oppo	Rpleas	1pleas	acq_US_pleas_nomask	acq45_nomask	5	28	400	1	300	300	0	0	442	50	1	0	schlau	lachen	ehrlich	spielen	schön	fair	schroff	leiden	eitel	strafen	schlecht	faul	treu	helfen	tolerant	retten	loyal	freundlich	tot	hindern	tyrannisch	rächen	lasch	fanatisch	1	blank2r.bmp	0	1	+	0	1	blank2r.bmp	500	1	BMVZ	500	1	blank2r.bmp	880	6	fair	880	1	!	1232	1	!	1343	0	0	0	0	0	0
2024-06-12	15:31:07	15:42:35	687694	6.6.1	4_exp_EVA_AWA_CON	86	B	A	Rpleas_acq	Oppo	Rpleas	1pleas	acq_US_pleas_nomask	acq45_nomask	5	29	400	1	300	300	0	0	437	50	1	0	schlau	lachen	ehrlich	spielen	schön	fair	schroff	leiden	eitel	strafen	schlecht	faul	treu	helfen	tolerant	retten	loyal	freundlich	tot	hindern	tyrannisch	rächen	lasch	fanatisch	1	blank2r.bmp	0	1	+	0	1	blank2r.bmp	500	1	BMVZ	500	1	blank2r.bmp	880	2	lachen	880	1	!	1232	1	!	1338	0	0	0	0	0	0
2024-06-12	15:31:07	15:42:38	689862	6.6.1	4_exp_EVA_AWA_CON	86	B	A	Rpleas_acq	Oppo	Rpleas	1pleas	acq_US_unple_nomask	acq45_nomask	5	30	400	1	300	300	0	0	393	50	0	0	schlau	lachen	ehrlich	spielen	schön	fair	schroff	leiden	eitel	strafen	schlecht	faul	treu	helfen	tolerant	retten	loyal	freundlich	tot	hindern	tyrannisch	rächen	lasch	fanatisch	1	blank2r.bmp	0	1	+	0	1	blank2r.bmp	500	1	GKQX	500	1	blank2r.bmp	880	3	eitel	880	1	!	1232	1	!	1294	0	0	0	0	0	0
2024-06-12	15:31:07	15:42:40	692054	6.6.1	4_exp_EVA_AWA_CON	86	B	A	Rpleas_acq	Oppo	Rpleas	1pleas	acq_US_pleas_nomask	acq45_nomask	5	31	400	1	300	300	0	0	414	50	1	0	schlau	lachen	ehrlich	spielen	schön	fair	schroff	leiden	eitel	strafen	schlecht	faul	treu	helfen	tolerant	retten	loyal	freundlich	tot	hindern	tyrannisch	rächen	lasch	fanatisch	1	blank2r.bmp	0	1	+	0	1	blank2r.bmp	500	1	BMVZ	500	1	blank2r.bmp	880	1	schlau	880	1	!	1232	1	!	1315	0	0	0	0	0	0
2024-06-12	15:31:07	15:42:42	694278	6.6.1	4_exp_EVA_AWA_CON	86	B	A	Rpleas_acq	Oppo	Rpleas	1pleas	acq_US_unple_nomask	acq45_nomask	5	32	400	1	300	300	0	0	447	46	1	0	schlau	lachen	ehrlich	spielen	schön	fair	schroff	leiden	eitel	strafen	schlecht	faul	treu	helfen	tolerant	retten	loyal	freundlich	tot	hindern	tyrannisch	rächen	lasch	fanatisch	1	blank2r.bmp	0	1	+	0	1	blank2r.bmp	500	1	GKQX	500	1	blank2r.bmp	880	5	schlecht	880	1	!	1232	1	!	1348	0	0	0	0	0	0
2024-06-12	15:31:07	15:42:44	696530	6.6.1	4_exp_EVA_AWA_CON	86	B	A	Rpleas_acq	Oppo	Rpleas	1pleas	acq_US_unple_nomask	acq45_nomask	5	33	400	0	300	300	0	0	481	46	1	0	schlau	lachen	ehrlich	spielen	schön	fair	schroff	leiden	eitel	strafen	schlecht	faul	treu	helfen	tolerant	retten	loyal	freundlich	tot	hindern	tyrannisch	rächen	lasch	fanatisch	1	blank2r.bmp	0	1	+	0	1	blank2r.bmp	500	1	GKQX	500	1	blank2r.bmp	880	1	schroff	880	1	!	1232	1	!	-1	0	0	0	0	0	0
2024-06-12	15:31:07	15:42:46	698804	6.6.1	4_exp_EVA_AWA_CON	86	B	A	Rpleas_acq	Oppo	Rpleas	1pleas	acq_US_unple_nomask	acq45_nomask	5	34	400	0	300	300	0	0	502	50	0	0	schlau	lachen	ehrlich	spielen	schön	fair	schroff	leiden	eitel	strafen	schlecht	faul	treu	helfen	tolerant	retten	loyal	freundlich	tot	hindern	tyrannisch	rächen	lasch	fanatisch	1	blank2r.bmp	0	1	+	0	1	blank2r.bmp	500	1	GKQX	500	1	blank2r.bmp	880	2	leiden	880	1	!	1232	1	!	-1	0	0	0	0	0	0
2024-06-12	15:31:07	15:42:49	701100	6.6.1	4_exp_EVA_AWA_CON	86	B	A	Rpleas_acq	Oppo	Rpleas	1pleas	acq_US_pleas_nomask	acq45_nomask	5	35	400	0	300	300	0	0	516	50	1	0	schlau	lachen	ehrlich	spielen	schön	fair	schroff	leiden	eitel	strafen	schlecht	faul	treu	helfen	tolerant	retten	loyal	freundlich	tot	hindern	tyrannisch	rächen	lasch	fanatisch	1	blank2r.bmp	0	1	+	0	1	blank2r.bmp	500	1	BMVZ	500	1	blank2r.bmp	880	3	ehrlich	880	1	!	1232	1	!	-1	0	0	0	0	0	0
2024-06-12	15:31:07	15:42:51	703347	6.6.1	4_exp_EVA_AWA_CON	86	B	A	Rpleas_acq	Oppo	Rpleas	1pleas	acq_US_unple_nomask	acq45_nomask	5	36	400	0	300	300	0	0	473	46	1	0	schlau	lachen	ehrlich	spielen	schön	fair	schroff	leiden	eitel	strafen	schlecht	faul	treu	helfen	tolerant	retten	loyal	freundlich	tot	hindern	tyrannisch	rächen	lasch	fanatisch	1	blank2r.bmp	0	1	+	0	1	blank2r.bmp	500	1	GKQX	500	1	blank2r.bmp	880	6	faul	880	1	!	1232	1	!	-1	0	0	0	0	0	0
2024-06-12	15:31:07	15:44:31	803576	6.6.1	4_exp_EVA_AWA_CON	86	B	A	Rpleas_acq	Oppo	Lpleas	1pleas	EvalRating_firsttwo	EvalRating_firsttwo	6	1	0	0	300	300	0	0	5561	line	0	-50,9114583333333285964pct	schlau	lachen	ehrlich	spielen	schön	fair	schroff	leiden	eitel	strafen	schlecht	faul	treu	helfen	tolerant	retten	loyal	freundlich	tot	hindern	tyrannisch	rächen	lasch	fanatisch	1		-7	1	Wie angenehm oder unangenehm finden Sie die  Buchstabenkette ZGVK?	-7	1		-7	1		-7	1		-7	1	Unangenehm	-7	1	Angenehm	-7	0	0	0	0	0	0	0	0	0
2024-06-12	15:31:07	15:44:38	809977	6.6.1	4_exp_EVA_AWA_CON	86	B	A	Rpleas_acq	Oppo	Lpleas	1pleas	EvalRating_lastfour	EvalRating_lastfour	7	1	0	0	300	300	0	0	4026	line	0	-26,3020833333333285964pct	schlau	lachen	ehrlich	spielen	schön	fair	schroff	leiden	eitel	strafen	schlecht	faul	treu	helfen	tolerant	retten	loyal	freundlich	tot	hindern	tyrannisch	rächen	lasch	fanatisch	1		-8	1	Wie angenehm oder unangenehm finden Sie die  Buchstabenkette BMVZ?	-8	1		-8	1		-8	1		-8	1	Unangenehm	-8	1	Angenehm	-8	0	0	0	0	0	0	0	0	0
2024-06-12	15:31:07	15:44:40	812347	6.6.1	4_exp_EVA_AWA_CON	86	B	A	Rpleas_acq	Oppo	Lpleas	1pleas	blank_screen	EvalRating_lastfour	7	3	0	0	300	300	0	0	0	0	0	-26,3020833333333285964pct	schlau	lachen	ehrlich	spielen	schön	fair	schroff	leiden	eitel	strafen	schlecht	faul	treu	helfen	tolerant	retten	loyal	freundlich	tot	hindern	tyrannisch	rächen	lasch	fanatisch	1		-8	0	0	0	0	0	0	0	0	0	0	0	0	0	0	0	0	0	0	0	0	0	0	0	0	0	0	0
2024-06-12	15:31:07	15:44:44	816698	6.6.1	4_exp_EVA_AWA_CON	86	B	A	Rpleas_acq	Oppo	Lpleas	1pleas	EvalRating_lastfour	EvalRating_lastfour	7	4	0	0	300	300	0	0	3761	line	0	-61,0677083333333285964pct	schlau	lachen	ehrlich	spielen	schön	fair	schroff	leiden	eitel	strafen	schlecht	faul	treu	helfen	tolerant	retten	loyal	freundlich	tot	hindern	tyrannisch	rächen	lasch	fanatisch	1		-8	2	Wie angenehm oder unangenehm finden Sie die  Buchstabenkette GKQX?	-8	1		-8	1		-8	1		-8	1	Unangenehm	-8	1	Angenehm	-8	0	0	0	0	0	0	0	0	0
2024-06-12	15:31:07	15:44:47	819071	6.6.1	4_exp_EVA_AWA_CON	86	B	A	Rpleas_acq	Oppo	Lpleas	1pleas	blank_screen	EvalRating_lastfour	7	6	0	0	300	300	0	0	0	0	0	-61,0677083333333285964pct	schlau	lachen	ehrlich	spielen	schön	fair	schroff	leiden	eitel	strafen	schlecht	faul	treu	helfen	tolerant	retten	loyal	freundlich	tot	hindern	tyrannisch	rächen	lasch	fanatisch	1		-8	0	0	0	0	0	0	0	0	0	0	0	0	0	0	0	0	0	0	0	0	0	0	0	0	0	0	0
2024-06-12	15:31:07	15:44:53	824880	6.6.1	4_exp_EVA_AWA_CON	86	B	A	Rpleas_acq	Oppo	Lpleas	1pleas	EvalRating_lastfour	EvalRating_lastfour	7	7	0	0	300	300	0	0	5221	line	0	-35,9375pct	schlau	lachen	ehrlich	spielen	schön	fair	schroff	leiden	eitel	strafen	schlecht	faul	treu	helfen	tolerant	retten	loyal	freundlich	tot	hindern	tyrannisch	rächen	lasch	fanatisch	1		-8	3	Wie angenehm oder unangenehm finden Sie die  Buchstabenkette XBQM?	-8	1		-8	1		-8	1		-8	1	Unangenehm	-8	1	Angenehm	-8	0	0	0	0	0	0	0	0	0
2024-06-12	15:31:07	15:46:33	925158	6.6.1	4_exp_EVA_AWA_CON	86	B	A	Rpleas_acq	Oppo	Lpleas	1pleas	conawa_CS1_US3	conawa1_nomask	8	1	0	0	300	300	0	0	23036	eitel	1	-35,9375pct	schlau	lachen	ehrlich	spielen	schön	fair	schroff	leiden	eitel	strafen	schlecht	faul	treu	helfen	tolerant	retten	loyal	freundlich	tot	hindern	tyrannisch	rächen	lasch	fanatisch	0	0	0	0	0	0	0	0	0	0	0	0	0	0	0	0	0	0	0	0	0	0	0	0	0	0	0	0	0	0
2024-06-12	15:31:07	15:46:33	925164	6.6.1	4_exp_EVA_AWA_CON	86	B	A	Rpleas_acq	Oppo	Lpleas	1pleas	conawa_CS1_US3_confidence	conawa1_nomask	8	1	0	0	300	300	0	0	23036	guess	1	-35,9375pct	schlau	lachen	ehrlich	spielen	schön	fair	schroff	leiden	eitel	strafen	schlecht	faul	treu	helfen	tolerant	retten	loyal	freundlich	tot	hindern	tyrannisch	rächen	lasch	fanatisch	0	0	0	0	0	0	0	0	0	0	0	0	0	0	0	0	0	0	0	0	0	0	0	0	0	0	0	0	0	0
2024-06-12	15:31:07	15:47:08	959991	6.6.1	4_exp_EVA_AWA_CON	86	B	A	Rpleas_acq	Oppo	Lpleas	1pleas	conawa_CS2_US3	conawa1_nomask	8	2	0	0	300	300	0	0	34209	rächen	1	-35,9375pct	schlau	lachen	ehrlich	spielen	schön	fair	schroff	leiden	eitel	strafen	schlecht	faul	treu	helfen	tolerant	retten	loyal	freundlich	tot	hindern	tyrannisch	rächen	lasch	fanatisch	0	0	0	0	0	0	0	0	0	0	0	0	0	0	0	0	0	0	0	0	0	0	0	0	0	0	0	0	0	0
2024-06-12	15:31:07	15:47:08	959992	6.6.1	4_exp_EVA_AWA_CON	86	B	A	Rpleas_acq	Oppo	Lpleas	1pleas	conawa_CS2_US3_confidence	conawa1_nomask	8	2	0	0	300	300	0	0	34209	guess	1	-35,9375pct	schlau	lachen	ehrlich	spielen	schön	fair	schroff	leiden	eitel	strafen	schlecht	faul	treu	helfen	tolerant	retten	loyal	freundlich	tot	hindern	tyrannisch	rächen	lasch	fanatisch	0	0	0	0	0	0	0	0	0	0	0	0	0	0	0	0	0	0	0	0	0	0	0	0	0	0	0	0	0	0
2024-06-12	15:31:07	15:47:22	974370	6.6.1	4_exp_EVA_AWA_CON	86	B	A	Rpleas_acq	Oppo	Lpleas	1pleas	conawa_CS2_US6	conawa1_nomask	8	3	0	0	300	300	0	0	13762	faul	1	-35,9375pct	schlau	lachen	ehrlich	spielen	schön	fair	schroff	leiden	eitel	strafen	schlecht	faul	treu	helfen	tolerant	retten	loyal	freundlich	tot	hindern	tyrannisch	rächen	lasch	fanatisch	0	0	0	0	0	0	0	0	0	0	0	0	0	0	0	0	0	0	0	0	0	0	0	0	0	0	0	0	0	0
2024-06-12	15:31:07	15:47:22	974371	6.6.1	4_exp_EVA_AWA_CON	86	B	A	Rpleas_acq	Oppo	Lpleas	1pleas	conawa_CS2_US6_confidence	conawa1_nomask	8	3	0	0	300	300	0	0	13762	guess	1	-35,9375pct	schlau	lachen	ehrlich	spielen	schön	fair	schroff	leiden	eitel	strafen	schlecht	faul	treu	helfen	tolerant	retten	loyal	freundlich	tot	hindern	tyrannisch	rächen	lasch	fanatisch	0	0	0	0	0	0	0	0	0	0	0	0	0	0	0	0	0	0	0	0	0	0	0	0	0	0	0	0	0	0
2024-06-12	15:31:07	15:47:34	986647	6.6.1	4_exp_EVA_AWA_CON	86	B	A	Rpleas_acq	Oppo	Lpleas	1pleas	conawa_CS2_US1	conawa1_nomask	8	4	0	0	300	300	0	0	11665	schroff	1	-35,9375pct	schlau	lachen	ehrlich	spielen	schön	fair	schroff	leiden	eitel	strafen	schlecht	faul	treu	helfen	tolerant	retten	loyal	freundlich	tot	hindern	tyrannisch	rächen	lasch	fanatisch	0	0	0	0	0	0	0	0	0	0	0	0	0	0	0	0	0	0	0	0	0	0	0	0	0	0	0	0	0	0
2024-06-12	15:31:07	15:47:34	986649	6.6.1	4_exp_EVA_AWA_CON	86	B	A	Rpleas_acq	Oppo	Lpleas	1pleas	conawa_CS2_US1_confidence	conawa1_nomask	8	4	0	0	300	300	0	0	11665	guess	1	-35,9375pct	schlau	lachen	ehrlich	spielen	schön	fair	schroff	leiden	eitel	strafen	schlecht	faul	treu	helfen	tolerant	retten	loyal	freundlich	tot	hindern	tyrannisch	rächen	lasch	fanatisch	0	0	0	0	0	0	0	0	0	0	0	0	0	0	0	0	0	0	0	0	0	0	0	0	0	0	0	0	0	0
2024-06-12	15:31:07	15:47:48	1000266	6.6.1	4_exp_EVA_AWA_CON	86	B	A	Rpleas_acq	Oppo	Lpleas	1pleas	conawa_CS2_US5	conawa1_nomask	8	5	0	0	300	300	0	0	13002	schön	1	-35,9375pct	schlau	lachen	ehrlich	spielen	schön	fair	schroff	leiden	eitel	strafen	schlecht	faul	treu	helfen	tolerant	retten	loyal	freundlich	tot	hindern	tyrannisch	rächen	lasch	fanatisch	0	0	0	0	0	0	0	0	0	0	0	0	0	0	0	0	0	0	0	0	0	0	0	0	0	0	0	0	0	0
2024-06-12	15:31:07	15:47:48	1000268	6.6.1	4_exp_EVA_AWA_CON	86	B	A	Rpleas_acq	Oppo	Lpleas	1pleas	conawa_CS2_US5_confidence	conawa1_nomask	8	5	0	0	300	300	0	0	13002	guess	1	-35,9375pct	schlau	lachen	ehrlich	spielen	schön	fair	schroff	leiden	eitel	strafen	schlecht	faul	treu	helfen	tolerant	retten	loyal	freundlich	tot	hindern	tyrannisch	rächen	lasch	fanatisch	0	0	0	0	0	0	0	0	0	0	0	0	0	0	0	0	0	0	0	0	0	0	0	0	0	0	0	0	0	0
2024-06-12	15:31:07	15:48:02	1014415	6.6.1	4_exp_EVA_AWA_CON	86	B	A	Rpleas_acq	Oppo	Lpleas	1pleas	conawa_CS1_US2	conawa1_nomask	8	6	0	0	300	300	0	0	13537	lachen	1	-35,9375pct	schlau	lachen	ehrlich	spielen	schön	fair	schroff	leiden	eitel	strafen	schlecht	faul	treu	helfen	tolerant	retten	loyal	freundlich	tot	hindern	tyrannisch	rächen	lasch	fanatisch	0	0	0	0	0	0	0	0	0	0	0	0	0	0	0	0	0	0	0	0	0	0	0	0	0	0	0	0	0	0
2024-06-12	15:31:07	15:48:02	1014417	6.6.1	4_exp_EVA_AWA_CON	86	B	A	Rpleas_acq	Oppo	Lpleas	1pleas	conawa_CS1_US2_confidence	conawa1_nomask	8	6	0	0	300	300	0	0	13537	guess	1	-35,9375pct	schlau	lachen	ehrlich	spielen	schön	fair	schroff	leiden	eitel	strafen	schlecht	faul	treu	helfen	tolerant	retten	loyal	freundlich	tot	hindern	tyrannisch	rächen	lasch	fanatisch	0	0	0	0	0	0	0	0	0	0	0	0	0	0	0	0	0	0	0	0	0	0	0	0	0	0	0	0	0	0
2024-06-12	15:31:07	15:48:14	1026192	6.6.1	4_exp_EVA_AWA_CON	86	B	A	Rpleas_acq	Oppo	Lpleas	1pleas	conawa_CS1_US6	conawa1_nomask	8	7	0	0	300	300	0	0	11164	fanatisch	1	-35,9375pct	schlau	lachen	ehrlich	spielen	schön	fair	schroff	leiden	eitel	strafen	schlecht	faul	treu	helfen	tolerant	retten	loyal	freundlich	tot	hindern	tyrannisch	rächen	lasch	fanatisch	0	0	0	0	0	0	0	0	0	0	0	0	0	0	0	0	0	0	0	0	0	0	0	0	0	0	0	0	0	0
2024-06-12	15:31:07	15:48:14	1026194	6.6.1	4_exp_EVA_AWA_CON	86	B	A	Rpleas_acq	Oppo	Lpleas	1pleas	conawa_CS1_US6_confidence	conawa1_nomask	8	7	0	0	300	300	0	0	11164	guess	1	-35,9375pct	schlau	lachen	ehrlich	spielen	schön	fair	schroff	leiden	eitel	strafen	schlecht	faul	treu	helfen	tolerant	retten	loyal	freundlich	tot	hindern	tyrannisch	rächen	lasch	fanatisch	0	0	0	0	0	0	0	0	0	0	0	0	0	0	0	0	0	0	0	0	0	0	0	0	0	0	0	0	0	0
2024-06-12	15:31:07	15:48:46	1058143	6.6.1	4_exp_EVA_AWA_CON	86	B	A	Rpleas_acq	Oppo	Lpleas	1pleas	conawa_CS2_US4	conawa1_nomask	8	8	0	0	300	300	0	0	31329	loyal	1	-35,9375pct	schlau	lachen	ehrlich	spielen	schön	fair	schroff	leiden	eitel	strafen	schlecht	faul	treu	helfen	tolerant	retten	loyal	freundlich	tot	hindern	tyrannisch	rächen	lasch	fanatisch	0	0	0	0	0	0	0	0	0	0	0	0	0	0	0	0	0	0	0	0	0	0	0	0	0	0	0	0	0	0
2024-06-12	15:31:07	15:48:46	1058144	6.6.1	4_exp_EVA_AWA_CON	86	B	A	Rpleas_acq	Oppo	Lpleas	1pleas	conawa_CS2_US4_confidence	conawa1_nomask	8	8	0	0	300	300	0	0	31329	guess	1	-35,9375pct	schlau	lachen	ehrlich	spielen	schön	fair	schroff	leiden	eitel	strafen	schlecht	faul	treu	helfen	tolerant	retten	loyal	freundlich	tot	hindern	tyrannisch	rächen	lasch	fanatisch	0	0	0	0	0	0	0	0	0	0	0	0	0	0	0	0	0	0	0	0	0	0	0	0	0	0	0	0	0	0
2024-06-12	15:31:07	15:49:01	1073583	6.6.1	4_exp_EVA_AWA_CON	86	B	A	Rpleas_acq	Oppo	Lpleas	1pleas	conawa_CS2_US2	conawa1_nomask	8	9	0	0	300	300	0	0	14826	tyrannisch	1	-35,9375pct	schlau	lachen	ehrlich	spielen	schön	fair	schroff	leiden	eitel	strafen	schlecht	faul	treu	helfen	tolerant	retten	loyal	freundlich	tot	hindern	tyrannisch	rächen	lasch	fanatisch	0	0	0	0	0	0	0	0	0	0	0	0	0	0	0	0	0	0	0	0	0	0	0	0	0	0	0	0	0	0
2024-06-12	15:31:07	15:49:01	1073585	6.6.1	4_exp_EVA_AWA_CON	86	B	A	Rpleas_acq	Oppo	Lpleas	1pleas	conawa_CS2_US2_confidence	conawa1_nomask	8	9	0	0	300	300	0	0	14826	guess	1	-35,9375pct	schlau	lachen	ehrlich	spielen	schön	fair	schroff	leiden	eitel	strafen	schlecht	faul	treu	helfen	tolerant	retten	loyal	freundlich	tot	hindern	tyrannisch	rächen	lasch	fanatisch	0	0	0	0	0	0	0	0	0	0	0	0	0	0	0	0	0	0	0	0	0	0	0	0	0	0	0	0	0	0
2024-06-12	15:31:07	15:49:12	1084380	6.6.1	4_exp_EVA_AWA_CON	86	B	A	Rpleas_acq	Oppo	Lpleas	1pleas	conawa_CS1_US5	conawa1_nomask	8	10	0	0	300	300	0	0	10180	schön	1	-35,9375pct	schlau	lachen	ehrlich	spielen	schön	fair	schroff	leiden	eitel	strafen	schlecht	faul	treu	helfen	tolerant	retten	loyal	freundlich	tot	hindern	tyrannisch	rächen	lasch	fanatisch	0	0	0	0	0	0	0	0	0	0	0	0	0	0	0	0	0	0	0	0	0	0	0	0	0	0	0	0	0	0
2024-06-12	15:31:07	15:49:12	1084381	6.6.1	4_exp_EVA_AWA_CON	86	B	A	Rpleas_acq	Oppo	Lpleas	1pleas	conawa_CS1_US5_confidence	conawa1_nomask	8	10	0	0	300	300	0	0	10180	guess	1	-35,9375pct	schlau	lachen	ehrlich	spielen	schön	fair	schroff	leiden	eitel	strafen	schlecht	faul	treu	helfen	tolerant	retten	loyal	freundlich	tot	hindern	tyrannisch	rächen	lasch	fanatisch	0	0	0	0	0	0	0	0	0	0	0	0	0	0	0	0	0	0	0	0	0	0	0	0	0	0	0	0	0	0
2024-06-12	15:31:07	15:49:29	1101481	6.6.1	4_exp_EVA_AWA_CON	86	B	A	Rpleas_acq	Oppo	Lpleas	1pleas	conawa_CS1_US1	conawa1_nomask	8	11	0	0	300	300	0	0	16487	schlau	1	-35,9375pct	schlau	lachen	ehrlich	spielen	schön	fair	schroff	leiden	eitel	strafen	schlecht	faul	treu	helfen	tolerant	retten	loyal	freundlich	tot	hindern	tyrannisch	rächen	lasch	fanatisch	0	0	0	0	0	0	0	0	0	0	0	0	0	0	0	0	0	0	0	0	0	0	0	0	0	0	0	0	0	0
2024-06-12	15:31:07	15:49:29	1101483	6.6.1	4_exp_EVA_AWA_CON	86	B	A	Rpleas_acq	Oppo	Lpleas	1pleas	conawa_CS1_US1_confidence	conawa1_nomask	8	11	0	0	300	300	0	0	16487	guess	1	-35,9375pct	schlau	lachen	ehrlich	spielen	schön	fair	schroff	leiden	eitel	strafen	schlecht	faul	treu	helfen	tolerant	retten	loyal	freundlich	tot	hindern	tyrannisch	rächen	lasch	fanatisch	0	0	0	0	0	0	0	0	0	0	0	0	0	0	0	0	0	0	0	0	0	0	0	0	0	0	0	0	0	0
2024-06-12	15:31:07	15:49:48	1120733	6.6.1	4_exp_EVA_AWA_CON	86	B	A	Rpleas_acq	Oppo	Lpleas	1pleas	conawa_CS1_US4	conawa1_nomask	8	12	0	0	300	300	0	0	18633	spielen	1	-35,9375pct	schlau	lachen	ehrlich	spielen	schön	fair	schroff	leiden	eitel	strafen	schlecht	faul	treu	helfen	tolerant	retten	loyal	freundlich	tot	hindern	tyrannisch	rächen	lasch	fanatisch	0	0	0	0	0	0	0	0	0	0	0	0	0	0	0	0	0	0	0	0	0	0	0	0	0	0	0	0	0	0
2024-06-12	15:31:07	15:49:48	1120735	6.6.1	4_exp_EVA_AWA_CON	86	B	A	Rpleas_acq	Oppo	Lpleas	1pleas	conawa_CS1_US4_confidence	conawa1_nomask	8	12	0	0	300	300	0	0	18633	guess	1	-35,9375pct	schlau	lachen	ehrlich	spielen	schön	fair	schroff	leiden	eitel	strafen	schlecht	faul	treu	helfen	tolerant	retten	loyal	freundlich	tot	hindern	tyrannisch	rächen	lasch	fanatisch	0	0	0	0	0	0	0	0	0	0	0	0	0	0	0	0	0	0	0	0	0	0	0	0	0	0	0	0	0	0
2024-06-12	15:31:07	15:51:41	1233500	6.6.1	4_exp_EVA_AWA_CON	86	B	A	Rpleas_acq	Oppo	Lpleas	1pleas	cond_US_pleas_123_nomask_CS1	condtest_nomask_1	11	1	400	0	300	300	0	0	555	46	1	-35,9375pct	schlau	lachen	ehrlich	spielen	schön	fair	schroff	leiden	eitel	strafen	schlecht	faul	treu	helfen	tolerant	retten	loyal	freundlich	tot	hindern	tyrannisch	rächen	lasch	fanatisch	1	blank2r.bmp	0	1	+	0	1	blank2r.bmp	500	1	BMVZ	500	1	blank2r.bmp	880	3	ehrlich	880	1	!	1232	1	!	-1	0	0	0	0	0	0
2024-06-12	15:31:07	15:51:43	1235702	6.6.1	4_exp_EVA_AWA_CON	86	B	A	Rpleas_acq	Oppo	Lpleas	1pleas	cond_new_pleas_456_nomask_CS2	condtest_nomask_1	11	2	400	1	300	300	0	0	423	46	1	-35,9375pct	schlau	lachen	ehrlich	spielen	schön	fair	schroff	leiden	eitel	strafen	schlecht	faul	treu	helfen	tolerant	retten	loyal	freundlich	tot	hindern	tyrannisch	rächen	lasch	fanatisch	1	blank2r.bmp	0	1	+	0	1	blank2r.bmp	500	1	GKQX	500	1	blank2r.bmp	880	2	retten	880	1	!	1232	1	!	1324	0	0	0	0	0	0
2024-06-12	15:31:07	15:51:46	1237964	6.6.1	4_exp_EVA_AWA_CON	86	B	A	Rpleas_acq	Oppo	Lpleas	1pleas	cond_new_unple_456_nomask_CS2	condtest_nomask_1	11	3	400	0	300	300	0	0	486	46	0	-35,9375pct	schlau	lachen	ehrlich	spielen	schön	fair	schroff	leiden	eitel	strafen	schlecht	faul	treu	helfen	tolerant	retten	loyal	freundlich	tot	hindern	tyrannisch	rächen	lasch	fanatisch	1	blank2r.bmp	0	1	+	0	1	blank2r.bmp	500	1	GKQX	500	1	blank2r.bmp	880	1	fanatisch	880	1	!	1232	1	!	-1	0	0	0	0	0	0
2024-06-12	15:31:07	15:51:48	1240150	6.6.1	4_exp_EVA_AWA_CON	86	B	A	Rpleas_acq	Oppo	Lpleas	1pleas	cond_US_unple_123_nomask_CS1	condtest_nomask_1	11	4	400	1	300	300	0	0	409	46	0	-35,9375pct	schlau	lachen	ehrlich	spielen	schön	fair	schroff	leiden	eitel	strafen	schlecht	faul	treu	helfen	tolerant	retten	loyal	freundlich	tot	hindern	tyrannisch	rächen	lasch	fanatisch	1	blank2r.bmp	0	1	+	0	1	blank2r.bmp	500	1	BMVZ	500	1	blank2r.bmp	880	2	leiden	880	1	!	1232	1	!	1309	0	0	0	0	0	0
2024-06-12	15:31:07	15:51:50	1242410	6.6.1	4_exp_EVA_AWA_CON	86	B	A	Rpleas_acq	Oppo	Lpleas	1pleas	cond_new_pleas_456_nomask_CS1	condtest_nomask_1	11	5	400	0	300	300	0	0	481	46	1	-35,9375pct	schlau	lachen	ehrlich	spielen	schön	fair	schroff	leiden	eitel	strafen	schlecht	faul	treu	helfen	tolerant	retten	loyal	freundlich	tot	hindern	tyrannisch	rächen	lasch	fanatisch	1	blank2r.bmp	0	1	+	0	1	blank2r.bmp	500	1	BMVZ	500	1	blank2r.bmp	880	3	freundlich	880	1	!	1232	1	!	-1	0	0	0	0	0	0
2024-06-12	15:31:07	15:51:52	1244684	6.6.1	4_exp_EVA_AWA_CON	86	B	A	Rpleas_acq	Oppo	Lpleas	1pleas	cond_US_unple_123_nomask_CS2	condtest_nomask_1	11	6	400	0	300	300	0	0	502	46	0	-35,9375pct	schlau	lachen	ehrlich	spielen	schön	fair	schroff	leiden	eitel	strafen	schlecht	faul	treu	helfen	tolerant	retten	loyal	freundlich	tot	hindern	tyrannisch	rächen	lasch	fanatisch	1	blank2r.bmp	0	1	+	0	1	blank2r.bmp	500	1	GKQX	500	1	blank2r.bmp	880	3	leiden	880	1	!	1233	1	!	-1	0	0	0	0	0	0
2024-06-12	15:31:07	15:51:55	1246926	6.6.1	4_exp_EVA_AWA_CON	86	B	A	Rpleas_acq	Oppo	Lpleas	1pleas	cond_US_pleas_123_nomask_CS2	condtest_nomask_1	11	7	400	1	300	300	0	0	460	46	1	-35,9375pct	schlau	lachen	ehrlich	spielen	schön	fair	schroff	leiden	eitel	strafen	schlecht	faul	treu	helfen	tolerant	retten	loyal	freundlich	tot	hindern	tyrannisch	rächen	lasch	fanatisch	1	blank2r.bmp	0	1	+	0	1	blank2r.bmp	500	1	GKQX	500	1	blank2r.bmp	880	1	ehrlich	880	1	!	1232	1	!	1362	0	0	0	0	0	0
2024-06-12	15:31:07	15:51:57	1249118	6.6.1	4_exp_EVA_AWA_CON	86	B	A	Rpleas_acq	Oppo	Lpleas	1pleas	cond_new_unple_456_nomask_CS1	condtest_nomask_1	11	8	400	1	300	300	0	0	411	50	1	-35,9375pct	schlau	lachen	ehrlich	spielen	schön	fair	schroff	leiden	eitel	strafen	schlecht	faul	treu	helfen	tolerant	retten	loyal	freundlich	tot	hindern	tyrannisch	rächen	lasch	fanatisch	1	blank2r.bmp	0	1	+	0	1	blank2r.bmp	500	1	BMVZ	500	1	blank2r.bmp	880	2	lasch	880	1	!	1232	1	!	1312	0	0	0	0	0	0
2024-06-12	15:31:07	15:52:14	1266308	6.6.1	4_exp_EVA_AWA_CON	86	B	A	Rpleas_acq	Oppo	Lpleas	1pleas	cond_new_pleas_456_nomask_CS1	condtest_nomask_2	12	1	400	0	300	300	0	0	502	46	1	-35,9375pct	schlau	lachen	ehrlich	spielen	schön	fair	schroff	leiden	eitel	strafen	schlecht	faul	treu	helfen	tolerant	retten	loyal	freundlich	tot	hindern	tyrannisch	rächen	lasch	fanatisch	1	blank2r.bmp	0	1	+	0	1	blank2r.bmp	500	1	BMVZ	500	1	blank2r.bmp	880	2	loyal	880	1	!	1232	1	!	-1	0	0	0	0	0	0
2024-06-12	15:31:07	15:52:16	1268502	6.6.1	4_exp_EVA_AWA_CON	86	B	A	Rpleas_acq	Oppo	Lpleas	1pleas	cond_US_unple_123_nomask_CS2	condtest_nomask_2	12	2	400	1	300	300	0	0	412	46	0	-35,9375pct	schlau	lachen	ehrlich	spielen	schön	fair	schroff	leiden	eitel	strafen	schlecht	faul	treu	helfen	tolerant	retten	loyal	freundlich	tot	hindern	tyrannisch	rächen	lasch	fanatisch	1	blank2r.bmp	0	1	+	0	1	blank2r.bmp	500	1	GKQX	500	1	blank2r.bmp	880	1	eitel	880	1	!	1233	1	!	1313	0	0	0	0	0	0
