date	time	currenttime	elapsedtime	build	currentexpt	subject	CS_AB	US_AB	LRpleas_acq	SameOppo	condition_Lpleas	condition_1pleas	trialcode	blockcode	blocknum	trialnum	windowcenter	inwindow	pretrialpause	posttrialpause	trialduration	trialtimeout	latency	response	correct	correctedscore	US_nomask_pleas1	US_nomask_pleas2	US_nomask_pleas3	US_nomask_pleas4	US_nomask_pleas5	US_nomask_pleas6	US_nomask_unple1	US_nomask_unple2	US_nomask_unple3	US_nomask_unple4	US_nomask_unple5	US_nomask_unple6	new_nomask_pleas1	new_nomask_pleas2	new_nomask_pleas3	new_nomask_pleas4	new_nomask_pleas5	new_nomask_pleas6	new_nomask_unple1	new_nomask_unple2	new_nomask_unple3	new_nomask_unple4	new_nomask_unple5	new_nomask_unple6	stimulusnumber1	stimulusitem1	stimulusonset1	stimulusnumber2	stimulusitem2	stimulusonset2	stimulusnumber3	stimulusitem3	stimulusonset3	stimulusnumber4	stimulusitem4	stimulusonset4	stimulusnumber5	stimulusitem5	stimulusonset5	stimulusnumber6	stimulusitem6	stimulusonset6	stimulusnumber7	stimulusitem7	stimulusonset7	stimulusnumber8	stimulusitem8	stimulusonset8	stimulusnumber9	stimulusitem9	stimulusonset9	stimulusnumber10	stimulusitem10	stimulusonset10
2024-06-05	11:37:08	11:39:33	143874	6.6.1	4_exp_EVA_AWA_CON	67	B	A	Rpleas_acq	Same	Rpleas	2pleas	acq_new_unple_nomask	acq1_nomask	1	1	0	0	300	300	0	0	1125	46	1	0	schlau	freundlich	ehrlich	spielen	schön	treu	schroff	fanatisch	eitel	strafen	schlecht	tot	retten	helfen	tolerant	loyal	fair	lachen	rächen	hindern	tyrannisch	lasch	faul	leiden	1	blank2r.bmp	0	1	+	0	1	blank2r.bmp	500	4	B4r.bmp	500	1	blank2r.bmp	880	6	leiden	880	0	0	0	0	0	0	0	0	0	0	0	0
2024-06-05	11:37:08	11:39:35	146170	6.6.1	4_exp_EVA_AWA_CON	67	B	A	Rpleas_acq	Same	Rpleas	2pleas	acq_US_pleas_nomask	acq1_nomask	1	2	0	0	300	300	0	0	810	50	1	0	schlau	freundlich	ehrlich	spielen	schön	treu	schroff	fanatisch	eitel	strafen	schlecht	tot	retten	helfen	tolerant	loyal	fair	lachen	rächen	hindern	tyrannisch	lasch	faul	leiden	1	blank2r.bmp	0	1	+	0	1	blank2r.bmp	500	1	GKQX	500	1	blank2r.bmp	880	2	freundlich	880	0	0	0	0	0	0	0	0	0	0	0	0
2024-06-05	11:37:08	11:39:37	148546	6.6.1	4_exp_EVA_AWA_CON	67	B	A	Rpleas_acq	Same	Rpleas	2pleas	acq_US_unple_nomask	acq1_nomask	1	3	0	0	300	300	0	0	894	46	1	0	schlau	freundlich	ehrlich	spielen	schön	treu	schroff	fanatisch	eitel	strafen	schlecht	tot	retten	helfen	tolerant	loyal	fair	lachen	rächen	hindern	tyrannisch	lasch	faul	leiden	1	blank2r.bmp	0	1	+	0	1	blank2r.bmp	500	1	BMVZ	500	1	blank2r.bmp	880	4	strafen	880	0	0	0	0	0	0	0	0	0	0	0	0
2024-06-05	11:37:08	11:39:39	150795	6.6.1	4_exp_EVA_AWA_CON	67	B	A	Rpleas_acq	Same	Rpleas	2pleas	acq_new_pleas_nomask	acq1_nomask	1	4	0	0	300	300	0	0	760	50	1	0	schlau	freundlich	ehrlich	spielen	schön	treu	schroff	fanatisch	eitel	strafen	schlecht	tot	retten	helfen	tolerant	loyal	fair	lachen	rächen	hindern	tyrannisch	lasch	faul	leiden	1	blank2r.bmp	0	1	+	0	1	blank2r.bmp	500	6	C2r.bmp	500	1	blank2r.bmp	880	5	fair	880	0	0	0	0	0	0	0	0	0	0	0	0
2024-06-05	11:37:08	11:39:42	152834	6.6.1	4_exp_EVA_AWA_CON	67	B	A	Rpleas_acq	Same	Rpleas	2pleas	acq_US_pleas_nomask	acq1_nomask	1	5	0	0	300	300	0	0	559	50	1	0	schlau	freundlich	ehrlich	spielen	schön	treu	schroff	fanatisch	eitel	strafen	schlecht	tot	retten	helfen	tolerant	loyal	fair	lachen	rächen	hindern	tyrannisch	lasch	faul	leiden	1	blank2r.bmp	0	1	+	0	1	blank2r.bmp	500	1	GKQX	500	1	blank2r.bmp	880	6	treu	880	0	0	0	0	0	0	0	0	0	0	0	0
2024-06-05	11:37:08	11:39:44	154850	6.6.1	4_exp_EVA_AWA_CON	67	B	A	Rpleas_acq	Same	Rpleas	2pleas	acq_new_pleas_nomask	acq1_nomask	1	6	0	0	300	300	0	0	534	50	1	0	schlau	freundlich	ehrlich	spielen	schön	treu	schroff	fanatisch	eitel	strafen	schlecht	tot	retten	helfen	tolerant	loyal	fair	lachen	rächen	hindern	tyrannisch	lasch	faul	leiden	1	blank2r.bmp	0	1	+	0	1	blank2r.bmp	500	2	B2r.bmp	500	1	blank2r.bmp	880	1	retten	880	0	0	0	0	0	0	0	0	0	0	0	0
2024-06-05	11:37:08	11:39:46	156826	6.6.1	4_exp_EVA_AWA_CON	67	B	A	Rpleas_acq	Same	Rpleas	2pleas	acq_US_unple_nomask	acq1_nomask	1	7	0	0	300	300	0	0	488	46	1	0	schlau	freundlich	ehrlich	spielen	schön	treu	schroff	fanatisch	eitel	strafen	schlecht	tot	retten	helfen	tolerant	loyal	fair	lachen	rächen	hindern	tyrannisch	lasch	faul	leiden	1	blank2r.bmp	0	1	+	0	1	blank2r.bmp	500	1	BMVZ	500	1	blank2r.bmp	880	3	eitel	880	0	0	0	0	0	0	0	0	0	0	0	0
2024-06-05	11:37:08	11:39:48	158971	6.6.1	4_exp_EVA_AWA_CON	67	B	A	Rpleas_acq	Same	Rpleas	2pleas	acq_new_unple_nomask	acq1_nomask	1	8	0	0	300	300	0	0	661	46	1	0	schlau	freundlich	ehrlich	spielen	schön	treu	schroff	fanatisch	eitel	strafen	schlecht	tot	retten	helfen	tolerant	loyal	fair	lachen	rächen	hindern	tyrannisch	lasch	faul	leiden	1	blank2r.bmp	0	1	+	0	1	blank2r.bmp	500	7	C3r.bmp	500	1	blank2r.bmp	880	3	tyrannisch	880	0	0	0	0	0	0	0	0	0	0	0	0
2024-06-05	11:37:08	11:39:50	161138	6.6.1	4_exp_EVA_AWA_CON	67	B	A	Rpleas_acq	Same	Rpleas	2pleas	acq_new_pleas_nomask	acq1_nomask	1	9	0	0	300	300	0	0	688	50	1	0	schlau	freundlich	ehrlich	spielen	schön	treu	schroff	fanatisch	eitel	strafen	schlecht	tot	retten	helfen	tolerant	loyal	fair	lachen	rächen	hindern	tyrannisch	lasch	faul	leiden	1	blank2r.bmp	0	1	+	0	1	blank2r.bmp	500	1	B1r.bmp	500	1	blank2r.bmp	880	6	lachen	880	0	0	0	0	0	0	0	0	0	0	0	0
2024-06-05	11:37:08	11:39:52	163610	6.6.1	4_exp_EVA_AWA_CON	67	B	A	Rpleas_acq	Same	Rpleas	2pleas	acq_US_unple_nomask	acq1_nomask	1	10	0	0	300	300	0	0	988	46	1	0	schlau	freundlich	ehrlich	spielen	schön	treu	schroff	fanatisch	eitel	strafen	schlecht	tot	retten	helfen	tolerant	loyal	fair	lachen	rächen	hindern	tyrannisch	lasch	faul	leiden	1	blank2r.bmp	0	1	+	0	1	blank2r.bmp	500	1	BMVZ	500	1	blank2r.bmp	880	6	tot	880	0	0	0	0	0	0	0	0	0	0	0	0
2024-06-05	11:37:08	11:39:54	165595	6.6.1	4_exp_EVA_AWA_CON	67	B	A	Rpleas_acq	Same	Rpleas	2pleas	acq_US_pleas_nomask	acq1_nomask	1	11	0	0	300	300	0	0	501	50	1	0	schlau	freundlich	ehrlich	spielen	schön	treu	schroff	fanatisch	eitel	strafen	schlecht	tot	retten	helfen	tolerant	loyal	fair	lachen	rächen	hindern	tyrannisch	lasch	faul	leiden	1	blank2r.bmp	0	1	+	0	1	blank2r.bmp	500	1	GKQX	500	1	blank2r.bmp	880	4	spielen	880	0	0	0	0	0	0	0	0	0	0	0	0
2024-06-05	11:37:08	11:39:56	167562	6.6.1	4_exp_EVA_AWA_CON	67	B	A	Rpleas_acq	Same	Rpleas	2pleas	acq_new_unple_nomask	acq1_nomask	1	12	0	0	300	300	0	0	487	46	1	0	schlau	freundlich	ehrlich	spielen	schön	treu	schroff	fanatisch	eitel	strafen	schlecht	tot	retten	helfen	tolerant	loyal	fair	lachen	rächen	hindern	tyrannisch	lasch	faul	leiden	1	blank2r.bmp	0	1	+	0	1	blank2r.bmp	500	8	C4r.bmp	500	1	blank2r.bmp	880	5	faul	880	0	0	0	0	0	0	0	0	0	0	0	0
2024-06-05	11:37:08	11:39:58	169667	6.6.1	4_exp_EVA_AWA_CON	67	B	A	Rpleas_acq	Same	Rpleas	2pleas	acq_US_unple_nomask	acq1_nomask	1	13	0	0	300	300	0	0	620	46	1	0	schlau	freundlich	ehrlich	spielen	schön	treu	schroff	fanatisch	eitel	strafen	schlecht	tot	retten	helfen	tolerant	loyal	fair	lachen	rächen	hindern	tyrannisch	lasch	faul	leiden	1	blank2r.bmp	0	1	+	0	1	blank2r.bmp	500	1	BMVZ	500	1	blank2r.bmp	880	5	schlecht	880	0	0	0	0	0	0	0	0	0	0	0	0
2024-06-05	11:37:08	11:40:00	171730	6.6.1	4_exp_EVA_AWA_CON	67	B	A	Rpleas_acq	Same	Rpleas	2pleas	acq_new_unple_nomask	acq1_nomask	1	14	0	0	300	300	0	0	583	46	1	0	schlau	freundlich	ehrlich	spielen	schön	treu	schroff	fanatisch	eitel	strafen	schlecht	tot	retten	helfen	tolerant	loyal	fair	lachen	rächen	hindern	tyrannisch	lasch	faul	leiden	1	blank2r.bmp	0	1	+	0	1	blank2r.bmp	500	5	C1r.bmp	500	1	blank2r.bmp	880	2	hindern	880	0	0	0	0	0	0	0	0	0	0	0	0
2024-06-05	11:37:08	11:40:03	173851	6.6.1	4_exp_EVA_AWA_CON	67	B	A	Rpleas_acq	Same	Rpleas	2pleas	acq_US_unple_nomask	acq1_nomask	1	15	0	0	300	300	0	0	631	46	1	0	schlau	freundlich	ehrlich	spielen	schön	treu	schroff	fanatisch	eitel	strafen	schlecht	tot	retten	helfen	tolerant	loyal	fair	lachen	rächen	hindern	tyrannisch	lasch	faul	leiden	1	blank2r.bmp	0	1	+	0	1	blank2r.bmp	500	1	BMVZ	500	1	blank2r.bmp	880	1	schroff	880	0	0	0	0	0	0	0	0	0	0	0	0
2024-06-05	11:37:08	11:40:05	175891	6.6.1	4_exp_EVA_AWA_CON	67	B	A	Rpleas_acq	Same	Rpleas	2pleas	acq_new_unple_nomask	acq1_nomask	1	16	0	0	300	300	0	0	560	46	1	0	schlau	freundlich	ehrlich	spielen	schön	treu	schroff	fanatisch	eitel	strafen	schlecht	tot	retten	helfen	tolerant	loyal	fair	lachen	rächen	hindern	tyrannisch	lasch	faul	leiden	1	blank2r.bmp	0	1	+	0	1	blank2r.bmp	500	3	B3r.bmp	500	1	blank2r.bmp	880	4	lasch	880	0	0	0	0	0	0	0	0	0	0	0	0
2024-06-05	11:37:08	11:40:07	177834	6.6.1	4_exp_EVA_AWA_CON	67	B	A	Rpleas_acq	Same	Rpleas	2pleas	acq_US_pleas_nomask	acq1_nomask	1	17	0	0	300	300	0	0	463	50	1	0	schlau	freundlich	ehrlich	spielen	schön	treu	schroff	fanatisch	eitel	strafen	schlecht	tot	retten	helfen	tolerant	loyal	fair	lachen	rächen	hindern	tyrannisch	lasch	faul	leiden	1	blank2r.bmp	0	1	+	0	1	blank2r.bmp	500	1	GKQX	500	1	blank2r.bmp	880	5	schön	880	0	0	0	0	0	0	0	0	0	0	0	0
2024-06-05	11:37:08	11:40:09	180250	6.6.1	4_exp_EVA_AWA_CON	67	B	A	Rpleas_acq	Same	Rpleas	2pleas	acq_US_pleas_nomask	acq1_nomask	1	18	0	0	300	300	0	0	927	50	1	0	schlau	freundlich	ehrlich	spielen	schön	treu	schroff	fanatisch	eitel	strafen	schlecht	tot	retten	helfen	tolerant	loyal	fair	lachen	rächen	hindern	tyrannisch	lasch	faul	leiden	1	blank2r.bmp	0	1	+	0	1	blank2r.bmp	500	1	GKQX	500	1	blank2r.bmp	880	3	ehrlich	880	0	0	0	0	0	0	0	0	0	0	0	0
2024-06-05	11:37:08	11:40:11	182338	6.6.1	4_exp_EVA_AWA_CON	67	B	A	Rpleas_acq	Same	Rpleas	2pleas	acq_new_pleas_nomask	acq1_nomask	1	19	0	0	300	300	0	0	604	50	1	0	schlau	freundlich	ehrlich	spielen	schön	treu	schroff	fanatisch	eitel	strafen	schlecht	tot	retten	helfen	tolerant	loyal	fair	lachen	rächen	hindern	tyrannisch	lasch	faul	leiden	1	blank2r.bmp	0	1	+	0	1	blank2r.bmp	500	7	C3r.bmp	500	1	blank2r.bmp	880	3	tolerant	880	0	0	0	0	0	0	0	0	0	0	0	0
2024-06-05	11:37:08	11:40:13	184482	6.6.1	4_exp_EVA_AWA_CON	67	B	A	Rpleas_acq	Same	Rpleas	2pleas	acq_new_pleas_nomask	acq1_nomask	1	20	0	0	300	300	0	0	656	50	1	0	schlau	freundlich	ehrlich	spielen	schön	treu	schroff	fanatisch	eitel	strafen	schlecht	tot	retten	helfen	tolerant	loyal	fair	lachen	rächen	hindern	tyrannisch	lasch	faul	leiden	1	blank2r.bmp	0	1	+	0	1	blank2r.bmp	500	3	B3r.bmp	500	1	blank2r.bmp	880	4	loyal	880	0	0	0	0	0	0	0	0	0	0	0	0
2024-06-05	11:37:08	11:40:15	186682	6.6.1	4_exp_EVA_AWA_CON	67	B	A	Rpleas_acq	Same	Rpleas	2pleas	acq_US_unple_nomask	acq1_nomask	1	21	0	0	300	300	0	0	715	46	1	0	schlau	freundlich	ehrlich	spielen	schön	treu	schroff	fanatisch	eitel	strafen	schlecht	tot	retten	helfen	tolerant	loyal	fair	lachen	rächen	hindern	tyrannisch	lasch	faul	leiden	1	blank2r.bmp	0	1	+	0	1	blank2r.bmp	500	1	BMVZ	500	1	blank2r.bmp	880	2	fanatisch	880	0	0	0	0	0	0	0	0	0	0	0	0
2024-06-05	11:37:08	11:40:17	188778	6.6.1	4_exp_EVA_AWA_CON	67	B	A	Rpleas_acq	Same	Rpleas	2pleas	acq_new_unple_nomask	acq1_nomask	1	22	0	0	300	300	0	0	609	46	1	0	schlau	freundlich	ehrlich	spielen	schön	treu	schroff	fanatisch	eitel	strafen	schlecht	tot	retten	helfen	tolerant	loyal	fair	lachen	rächen	hindern	tyrannisch	lasch	faul	leiden	1	blank2r.bmp	0	1	+	0	1	blank2r.bmp	500	5	C1r.bmp	500	1	blank2r.bmp	880	1	rächen	880	0	0	0	0	0	0	0	0	0	0	0	0
2024-06-05	11:37:08	11:40:20	190858	6.6.1	4_exp_EVA_AWA_CON	67	B	A	Rpleas_acq	Same	Rpleas	2pleas	acq_new_pleas_nomask	acq1_nomask	1	23	0	0	300	300	0	0	598	50	1	0	schlau	freundlich	ehrlich	spielen	schön	treu	schroff	fanatisch	eitel	strafen	schlecht	tot	retten	helfen	tolerant	loyal	fair	lachen	rächen	hindern	tyrannisch	lasch	faul	leiden	1	blank2r.bmp	0	1	+	0	1	blank2r.bmp	500	8	C4r.bmp	500	1	blank2r.bmp	880	2	helfen	880	0	0	0	0	0	0	0	0	0	0	0	0
2024-06-05	11:37:08	11:40:22	192994	6.6.1	4_exp_EVA_AWA_CON	67	B	A	Rpleas_acq	Same	Rpleas	2pleas	acq_US_pleas_nomask	acq1_nomask	1	24	0	0	300	300	0	0	653	50	1	0	schlau	freundlich	ehrlich	spielen	schön	treu	schroff	fanatisch	eitel	strafen	schlecht	tot	retten	helfen	tolerant	loyal	fair	lachen	rächen	hindern	tyrannisch	lasch	faul	leiden	1	blank2r.bmp	0	1	+	0	1	blank2r.bmp	500	1	GKQX	500	1	blank2r.bmp	880	1	schlau	880	0	0	0	0	0	0	0	0	0	0	0	0
2024-06-05	11:37:08	11:40:24	195258	6.6.1	4_exp_EVA_AWA_CON	67	B	A	Rpleas_acq	Same	Rpleas	2pleas	acq_US_pleas_nomask	acq1_nomask	1	25	0	0	300	300	0	0	775	50	1	0	schlau	freundlich	ehrlich	spielen	schön	treu	schroff	fanatisch	eitel	strafen	schlecht	tot	retten	helfen	tolerant	loyal	fair	lachen	rächen	hindern	tyrannisch	lasch	faul	leiden	1	blank2r.bmp	0	1	+	0	1	blank2r.bmp	500	1	GKQX	500	1	blank2r.bmp	880	4	spielen	880	0	0	0	0	0	0	0	0	0	0	0	0
2024-06-05	11:37:08	11:40:26	197434	6.6.1	4_exp_EVA_AWA_CON	67	B	A	Rpleas_acq	Same	Rpleas	2pleas	acq_US_pleas_nomask	acq1_nomask	1	26	0	0	300	300	0	0	690	50	1	0	schlau	freundlich	ehrlich	spielen	schön	treu	schroff	fanatisch	eitel	strafen	schlecht	tot	retten	helfen	tolerant	loyal	fair	lachen	rächen	hindern	tyrannisch	lasch	faul	leiden	1	blank2r.bmp	0	1	+	0	1	blank2r.bmp	500	1	GKQX	500	1	blank2r.bmp	880	5	schön	880	0	0	0	0	0	0	0	0	0	0	0	0
2024-06-05	11:37:08	11:40:28	199490	6.6.1	4_exp_EVA_AWA_CON	67	B	A	Rpleas_acq	Same	Rpleas	2pleas	acq_new_pleas_nomask	acq1_nomask	1	27	0	0	300	300	0	0	575	50	1	0	schlau	freundlich	ehrlich	spielen	schön	treu	schroff	fanatisch	eitel	strafen	schlecht	tot	retten	helfen	tolerant	loyal	fair	lachen	rächen	hindern	tyrannisch	lasch	faul	leiden	1	blank2r.bmp	0	1	+	0	1	blank2r.bmp	500	6	C2r.bmp	500	1	blank2r.bmp	880	4	loyal	880	0	0	0	0	0	0	0	0	0	0	0	0
2024-06-05	11:37:08	11:40:30	201459	6.6.1	4_exp_EVA_AWA_CON	67	B	A	Rpleas_acq	Same	Rpleas	2pleas	acq_new_unple_nomask	acq1_nomask	1	28	0	0	300	300	0	0	481	46	1	0	schlau	freundlich	ehrlich	spielen	schön	treu	schroff	fanatisch	eitel	strafen	schlecht	tot	retten	helfen	tolerant	loyal	fair	lachen	rächen	hindern	tyrannisch	lasch	faul	leiden	1	blank2r.bmp	0	1	+	0	1	blank2r.bmp	500	4	B4r.bmp	500	1	blank2r.bmp	880	5	faul	880	0	0	0	0	0	0	0	0	0	0	0	0
2024-06-05	11:37:08	11:40:32	203490	6.6.1	4_exp_EVA_AWA_CON	67	B	A	Rpleas_acq	Same	Rpleas	2pleas	acq_new_unple_nomask	acq1_nomask	1	29	0	0	300	300	0	0	552	46	1	0	schlau	freundlich	ehrlich	spielen	schön	treu	schroff	fanatisch	eitel	strafen	schlecht	tot	retten	helfen	tolerant	loyal	fair	lachen	rächen	hindern	tyrannisch	lasch	faul	leiden	1	blank2r.bmp	0	1	+	0	1	blank2r.bmp	500	2	B2r.bmp	500	1	blank2r.bmp	880	4	lasch	880	0	0	0	0	0	0	0	0	0	0	0	0
2024-06-05	11:37:08	11:40:34	205514	6.6.1	4_exp_EVA_AWA_CON	67	B	A	Rpleas_acq	Same	Rpleas	2pleas	acq_US_unple_nomask	acq1_nomask	1	30	0	0	300	300	0	0	535	46	1	0	schlau	freundlich	ehrlich	spielen	schön	treu	schroff	fanatisch	eitel	strafen	schlecht	tot	retten	helfen	tolerant	loyal	fair	lachen	rächen	hindern	tyrannisch	lasch	faul	leiden	1	blank2r.bmp	0	1	+	0	1	blank2r.bmp	500	1	BMVZ	500	1	blank2r.bmp	880	1	schroff	880	0	0	0	0	0	0	0	0	0	0	0	0
2024-06-05	11:37:08	11:40:36	207658	6.6.1	4_exp_EVA_AWA_CON	67	B	A	Rpleas_acq	Same	Rpleas	2pleas	acq_US_unple_nomask	acq1_nomask	1	31	0	0	300	300	0	0	657	46	1	0	schlau	freundlich	ehrlich	spielen	schön	treu	schroff	fanatisch	eitel	strafen	schlecht	tot	retten	helfen	tolerant	loyal	fair	lachen	rächen	hindern	tyrannisch	lasch	faul	leiden	1	blank2r.bmp	0	1	+	0	1	blank2r.bmp	500	1	BMVZ	500	1	blank2r.bmp	880	2	fanatisch	880	0	0	0	0	0	0	0	0	0	0	0	0
2024-06-05	11:37:08	11:40:38	209778	6.6.1	4_exp_EVA_AWA_CON	67	B	A	Rpleas_acq	Same	Rpleas	2pleas	acq_new_pleas_nomask	acq1_nomask	1	32	0	0	300	300	0	0	636	50	1	0	schlau	freundlich	ehrlich	spielen	schön	treu	schroff	fanatisch	eitel	strafen	schlecht	tot	retten	helfen	tolerant	loyal	fair	lachen	rächen	hindern	tyrannisch	lasch	faul	leiden	1	blank2r.bmp	0	1	+	0	1	blank2r.bmp	500	1	B1r.bmp	500	1	blank2r.bmp	880	6	lachen	880	0	0	0	0	0	0	0	0	0	0	0	0
2024-06-05	11:37:08	11:40:40	211802	6.6.1	4_exp_EVA_AWA_CON	67	B	A	Rpleas_acq	Same	Rpleas	2pleas	acq_US_unple_nomask	acq1_nomask	1	33	0	0	300	300	0	0	538	46	1	0	schlau	freundlich	ehrlich	spielen	schön	treu	schroff	fanatisch	eitel	strafen	schlecht	tot	retten	helfen	tolerant	loyal	fair	lachen	rächen	hindern	tyrannisch	lasch	faul	leiden	1	blank2r.bmp	0	1	+	0	1	blank2r.bmp	500	1	BMVZ	500	1	blank2r.bmp	880	6	tot	880	0	0	0	0	0	0	0	0	0	0	0	0
2024-06-05	11:37:08	11:40:43	213858	6.6.1	4_exp_EVA_AWA_CON	67	B	A	Rpleas_acq	Same	Rpleas	2pleas	acq_new_unple_nomask	acq1_nomask	1	34	0	0	300	300	0	0	573	46	1	0	schlau	freundlich	ehrlich	spielen	schön	treu	schroff	fanatisch	eitel	strafen	schlecht	tot	retten	helfen	tolerant	loyal	fair	lachen	rächen	hindern	tyrannisch	lasch	faul	leiden	1	blank2r.bmp	0	1	+	0	1	blank2r.bmp	500	4	B4r.bmp	500	1	blank2r.bmp	880	1	rächen	880	0	0	0	0	0	0	0	0	0	0	0	0
2024-06-05	11:37:08	11:40:45	215906	6.6.1	4_exp_EVA_AWA_CON	67	B	A	Rpleas_acq	Same	Rpleas	2pleas	acq_US_pleas_nomask	acq1_nomask	1	35	0	0	300	300	0	0	560	50	1	0	schlau	freundlich	ehrlich	spielen	schön	treu	schroff	fanatisch	eitel	strafen	schlecht	tot	retten	helfen	tolerant	loyal	fair	lachen	rächen	hindern	tyrannisch	lasch	faul	leiden	1	blank2r.bmp	0	1	+	0	1	blank2r.bmp	500	1	GKQX	500	1	blank2r.bmp	880	3	ehrlich	880	0	0	0	0	0	0	0	0	0	0	0	0
2024-06-05	11:37:08	11:40:47	218146	6.6.1	4_exp_EVA_AWA_CON	67	B	A	Rpleas_acq	Same	Rpleas	2pleas	acq_new_pleas_nomask	acq1_nomask	1	36	0	0	300	300	0	0	758	50	1	0	schlau	freundlich	ehrlich	spielen	schön	treu	schroff	fanatisch	eitel	strafen	schlecht	tot	retten	helfen	tolerant	loyal	fair	lachen	rächen	hindern	tyrannisch	lasch	faul	leiden	1	blank2r.bmp	0	1	+	0	1	blank2r.bmp	500	3	B3r.bmp	500	1	blank2r.bmp	880	5	fair	880	0	0	0	0	0	0	0	0	0	0	0	0
2024-06-05	11:37:08	11:41:44	275452	6.6.1	4_exp_EVA_AWA_CON	67	B	A	Rpleas_acq	Same	Rpleas	2pleas	acq_new_pleas_nomask	acq2_nomask	2	1	480	0	300	300	0	0	4760	50	1	0	schlau	freundlich	ehrlich	spielen	schön	treu	schroff	fanatisch	eitel	strafen	schlecht	tot	retten	helfen	tolerant	loyal	fair	lachen	rächen	hindern	tyrannisch	lasch	faul	leiden	1	blank2r.bmp	0	1	+	0	1	blank2r.bmp	500	5	C1r.bmp	500	1	blank2r.bmp	880	2	helfen	880	1	!	1312	1	!	-1	0	0	0	0	0	0
2024-06-05	11:37:08	11:41:46	277662	6.6.1	4_exp_EVA_AWA_CON	67	B	A	Rpleas_acq	Same	Rpleas	2pleas	acq_US_pleas_nomask	acq2_nomask	2	2	480	1	300	300	0	0	434	50	1	0	schlau	freundlich	ehrlich	spielen	schön	treu	schroff	fanatisch	eitel	strafen	schlecht	tot	retten	helfen	tolerant	loyal	fair	lachen	rächen	hindern	tyrannisch	lasch	faul	leiden	1	blank2r.bmp	0	1	+	0	1	blank2r.bmp	500	1	GKQX	500	1	blank2r.bmp	880	2	freundlich	880	1	!	1313	1	!	1334	0	0	0	0	0	0
2024-06-05	11:37:08	11:41:49	280244	6.6.1	4_exp_EVA_AWA_CON	67	B	A	Rpleas_acq	Same	Rpleas	2pleas	acq_new_unple_nomask	acq2_nomask	2	3	480	0	300	300	0	0	805	46	1	0	schlau	freundlich	ehrlich	spielen	schön	treu	schroff	fanatisch	eitel	strafen	schlecht	tot	retten	helfen	tolerant	loyal	fair	lachen	rächen	hindern	tyrannisch	lasch	faul	leiden	1	blank2r.bmp	0	1	+	0	1	blank2r.bmp	500	7	C3r.bmp	500	1	blank2r.bmp	880	2	hindern	880	1	!	1313	1	!	-1	0	0	0	0	0	0
2024-06-05	11:37:08	11:41:51	282644	6.6.1	4_exp_EVA_AWA_CON	67	B	A	Rpleas_acq	Same	Rpleas	2pleas	acq_new_unple_nomask	acq2_nomask	2	4	480	0	300	300	0	0	623	46	1	0	schlau	freundlich	ehrlich	spielen	schön	treu	schroff	fanatisch	eitel	strafen	schlecht	tot	retten	helfen	tolerant	loyal	fair	lachen	rächen	hindern	tyrannisch	lasch	faul	leiden	1	blank2r.bmp	0	1	+	0	1	blank2r.bmp	500	2	B2r.bmp	500	1	blank2r.bmp	880	6	leiden	880	1	!	1312	1	!	-1	0	0	0	0	0	0
2024-06-05	11:37:08	11:41:53	284644	6.6.1	4_exp_EVA_AWA_CON	67	B	A	Rpleas_acq	Same	Rpleas	2pleas	acq_US_pleas_nomask	acq2_nomask	2	5	480	0	300	300	0	0	223	50	1	0	schlau	freundlich	ehrlich	spielen	schön	treu	schroff	fanatisch	eitel	strafen	schlecht	tot	retten	helfen	tolerant	loyal	fair	lachen	rächen	hindern	tyrannisch	lasch	faul	leiden	1	blank2r.bmp	0	1	+	0	1	blank2r.bmp	500	1	GKQX	500	1	blank2r.bmp	880	6	treu	880	1	!	-1	1	!	-1	0	0	0	0	0	0
2024-06-05	11:37:08	11:41:56	287231	6.6.1	4_exp_EVA_AWA_CON	67	B	A	Rpleas_acq	Same	Rpleas	2pleas	acq_US_pleas_nomask	acq2_nomask	2	6	480	0	300	300	0	0	605	46	0	0	schlau	freundlich	ehrlich	spielen	schön	treu	schroff	fanatisch	eitel	strafen	schlecht	tot	retten	helfen	tolerant	loyal	fair	lachen	rächen	hindern	tyrannisch	lasch	faul	leiden	1	blank2r.bmp	0	1	+	0	1	blank2r.bmp	500	1	GKQX	500	1	blank2r.bmp	880	1	schlau	880	1	FEHLER	1798	1	!	1312	1	!	-1	0	0	0
2024-06-05	11:37:08	11:41:58	289278	6.6.1	4_exp_EVA_AWA_CON	67	B	A	Rpleas_acq	Same	Rpleas	2pleas	acq_US_unple_nomask	acq2_nomask	2	7	480	1	300	300	0	0	472	46	1	0	schlau	freundlich	ehrlich	spielen	schön	treu	schroff	fanatisch	eitel	strafen	schlecht	tot	retten	helfen	tolerant	loyal	fair	lachen	rächen	hindern	tyrannisch	lasch	faul	leiden	1	blank2r.bmp	0	1	+	0	1	blank2r.bmp	500	1	BMVZ	500	1	blank2r.bmp	880	3	eitel	880	1	!	1312	1	!	1373	0	0	0	0	0	0
2024-06-05	11:37:08	11:42:00	291487	6.6.1	4_exp_EVA_AWA_CON	67	B	A	Rpleas_acq	Same	Rpleas	2pleas	acq_new_pleas_nomask	acq2_nomask	2	8	480	1	300	300	0	0	429	50	1	0	schlau	freundlich	ehrlich	spielen	schön	treu	schroff	fanatisch	eitel	strafen	schlecht	tot	retten	helfen	tolerant	loyal	fair	lachen	rächen	hindern	tyrannisch	lasch	faul	leiden	1	blank2r.bmp	0	1	+	0	1	blank2r.bmp	500	8	C4r.bmp	500	1	blank2r.bmp	880	3	tolerant	880	1	!	1313	1	!	1329	0	0	0	0	0	0
2024-06-05	11:37:08	11:42:02	293774	6.6.1	4_exp_EVA_AWA_CON	67	B	A	Rpleas_acq	Same	Rpleas	2pleas	acq_US_unple_nomask	acq2_nomask	2	9	480	1	300	300	0	0	505	46	1	0	schlau	freundlich	ehrlich	spielen	schön	treu	schroff	fanatisch	eitel	strafen	schlecht	tot	retten	helfen	tolerant	loyal	fair	lachen	rächen	hindern	tyrannisch	lasch	faul	leiden	1	blank2r.bmp	0	1	+	0	1	blank2r.bmp	500	1	BMVZ	500	1	blank2r.bmp	880	4	strafen	880	1	!	1312	1	!	1406	0	0	0	0	0	0
2024-06-05	11:37:08	11:42:05	296014	6.6.1	4_exp_EVA_AWA_CON	67	B	A	Rpleas_acq	Same	Rpleas	2pleas	acq_new_pleas_nomask	acq2_nomask	2	10	480	1	300	300	0	0	463	50	1	0	schlau	freundlich	ehrlich	spielen	schön	treu	schroff	fanatisch	eitel	strafen	schlecht	tot	retten	helfen	tolerant	loyal	fair	lachen	rächen	hindern	tyrannisch	lasch	faul	leiden	1	blank2r.bmp	0	1	+	0	1	blank2r.bmp	500	1	B1r.bmp	500	1	blank2r.bmp	880	1	retten	880	1	!	1313	1	!	1364	0	0	0	0	0	0
2024-06-05	11:37:08	11:42:07	298246	6.6.1	4_exp_EVA_AWA_CON	67	B	A	Rpleas_acq	Same	Rpleas	2pleas	acq_new_unple_nomask	acq2_nomask	2	11	480	1	300	300	0	0	453	46	1	0	schlau	freundlich	ehrlich	spielen	schön	treu	schroff	fanatisch	eitel	strafen	schlecht	tot	retten	helfen	tolerant	loyal	fair	lachen	rächen	hindern	tyrannisch	lasch	faul	leiden	1	blank2r.bmp	0	1	+	0	1	blank2r.bmp	500	6	C2r.bmp	500	1	blank2r.bmp	880	3	tyrannisch	880	1	!	1313	1	!	1355	0	0	0	0	0	0
2024-06-05	11:37:08	11:42:09	300711	6.6.1	4_exp_EVA_AWA_CON	67	B	A	Rpleas_acq	Same	Rpleas	2pleas	acq_US_unple_nomask	acq2_nomask	2	12	480	1	300	300	0	0	486	50	0	0	schlau	freundlich	ehrlich	spielen	schön	treu	schroff	fanatisch	eitel	strafen	schlecht	tot	retten	helfen	tolerant	loyal	fair	lachen	rächen	hindern	tyrannisch	lasch	faul	leiden	1	blank2r.bmp	0	1	+	0	1	blank2r.bmp	500	1	BMVZ	500	1	blank2r.bmp	880	5	schlecht	880	1	FEHLER	1679	1	!	1313	1	!	1388	0	0	0
2024-06-05	11:37:08	11:42:11	302692	6.6.1	4_exp_EVA_AWA_CON	67	B	A	Rpleas_acq	Same	Rpleas	2pleas	acq_new_unple_nomask	acq2_nomask	2	13	480	0	300	300	0	0	409	46	1	0	schlau	freundlich	ehrlich	spielen	schön	treu	schroff	fanatisch	eitel	strafen	schlecht	tot	retten	helfen	tolerant	loyal	fair	lachen	rächen	hindern	tyrannisch	lasch	faul	leiden	1	blank2r.bmp	0	1	+	0	1	blank2r.bmp	500	4	B4r.bmp	500	1	blank2r.bmp	880	6	leiden	880	1	!	-1	1	!	-1	0	0	0	0	0	0
2024-06-05	11:37:08	11:42:14	304820	6.6.1	4_exp_EVA_AWA_CON	67	B	A	Rpleas_acq	Same	Rpleas	2pleas	acq_new_pleas_nomask	acq2_nomask	2	14	480	0	300	300	0	0	356	50	1	0	schlau	freundlich	ehrlich	spielen	schön	treu	schroff	fanatisch	eitel	strafen	schlecht	tot	retten	helfen	tolerant	loyal	fair	lachen	rächen	hindern	tyrannisch	lasch	faul	leiden	1	blank2r.bmp	0	1	+	0	1	blank2r.bmp	500	6	C2r.bmp	500	1	blank2r.bmp	880	5	fair	880	1	!	-1	1	!	-1	0	0	0	0	0	0
2024-06-05	11:37:08	11:42:16	306972	6.6.1	4_exp_EVA_AWA_CON	67	B	A	Rpleas_acq	Same	Rpleas	2pleas	acq_US_unple_nomask	acq2_nomask	2	15	480	0	300	300	0	0	375	46	1	0	schlau	freundlich	ehrlich	spielen	schön	treu	schroff	fanatisch	eitel	strafen	schlecht	tot	retten	helfen	tolerant	loyal	fair	lachen	rächen	hindern	tyrannisch	lasch	faul	leiden	1	blank2r.bmp	0	1	+	0	1	blank2r.bmp	500	1	BMVZ	500	1	blank2r.bmp	880	6	tot	880	1	!	-1	1	!	-1	0	0	0	0	0	0
2024-06-05	11:37:08	11:42:18	309575	6.6.1	4_exp_EVA_AWA_CON	67	B	A	Rpleas_acq	Same	Rpleas	2pleas	acq_new_unple_nomask	acq2_nomask	2	16	480	0	300	300	0	0	624	50	0	0	schlau	freundlich	ehrlich	spielen	schön	treu	schroff	fanatisch	eitel	strafen	schlecht	tot	retten	helfen	tolerant	loyal	fair	lachen	rächen	hindern	tyrannisch	lasch	faul	leiden	1	blank2r.bmp	0	1	+	0	1	blank2r.bmp	500	3	B3r.bmp	500	1	blank2r.bmp	880	5	faul	880	1	FEHLER	1818	1	!	1313	1	!	-1	0	0	0
2024-06-05	11:37:08	11:42:21	311884	6.6.1	4_exp_EVA_AWA_CON	67	B	A	Rpleas_acq	Same	Rpleas	2pleas	acq_US_pleas_nomask	acq2_nomask	2	17	480	0	300	300	0	0	736	50	1	0	schlau	freundlich	ehrlich	spielen	schön	treu	schroff	fanatisch	eitel	strafen	schlecht	tot	retten	helfen	tolerant	loyal	fair	lachen	rächen	hindern	tyrannisch	lasch	faul	leiden	1	blank2r.bmp	0	1	+	0	1	blank2r.bmp	500	1	GKQX	500	1	blank2r.bmp	880	6	treu	880	1	!	1313	1	!	-1	0	0	0	0	0	0
2024-06-05	11:37:08	11:42:23	314239	6.6.1	4_exp_EVA_AWA_CON	67	B	A	Rpleas_acq	Same	Rpleas	2pleas	acq_new_pleas_nomask	acq2_nomask	2	18	480	0	300	300	0	0	376	46	0	0	schlau	freundlich	ehrlich	spielen	schön	treu	schroff	fanatisch	eitel	strafen	schlecht	tot	retten	helfen	tolerant	loyal	fair	lachen	rächen	hindern	tyrannisch	lasch	faul	leiden	1	blank2r.bmp	0	1	+	0	1	blank2r.bmp	500	5	C1r.bmp	500	1	blank2r.bmp	880	1	retten	880	1	FEHLER	1569	1	!	-1	1	!	-1	0	0	0
2024-06-05	11:37:08	11:42:25	316463	6.6.1	4_exp_EVA_AWA_CON	67	B	A	Rpleas_acq	Same	Rpleas	2pleas	acq_new_unple_nomask	acq2_nomask	2	19	480	1	300	300	0	0	447	50	0	0	schlau	freundlich	ehrlich	spielen	schön	treu	schroff	fanatisch	eitel	strafen	schlecht	tot	retten	helfen	tolerant	loyal	fair	lachen	rächen	hindern	tyrannisch	lasch	faul	leiden	1	blank2r.bmp	0	1	+	0	1	blank2r.bmp	500	1	B1r.bmp	500	1	blank2r.bmp	880	1	rächen	880	1	FEHLER	1641	1	!	1313	1	!	1349	0	0	0
2024-06-05	11:37:08	11:42:27	318652	6.6.1	4_exp_EVA_AWA_CON	67	B	A	Rpleas_acq	Same	Rpleas	2pleas	acq_US_pleas_nomask	acq2_nomask	2	20	480	0	300	300	0	0	609	50	1	0	schlau	freundlich	ehrlich	spielen	schön	treu	schroff	fanatisch	eitel	strafen	schlecht	tot	retten	helfen	tolerant	loyal	fair	lachen	rächen	hindern	tyrannisch	lasch	faul	leiden	1	blank2r.bmp	0	1	+	0	1	blank2r.bmp	500	1	GKQX	500	1	blank2r.bmp	880	3	ehrlich	880	1	!	1313	1	!	-1	0	0	0	0	0	0
2024-06-05	11:37:08	11:42:30	320910	6.6.1	4_exp_EVA_AWA_CON	67	B	A	Rpleas_acq	Same	Rpleas	2pleas	acq_US_unple_nomask	acq2_nomask	2	21	480	1	300	300	0	0	483	46	1	0	schlau	freundlich	ehrlich	spielen	schön	treu	schroff	fanatisch	eitel	strafen	schlecht	tot	retten	helfen	tolerant	loyal	fair	lachen	rächen	hindern	tyrannisch	lasch	faul	leiden	1	blank2r.bmp	0	1	+	0	1	blank2r.bmp	500	1	BMVZ	500	1	blank2r.bmp	880	1	schroff	880	1	!	1313	1	!	1384	0	0	0	0	0	0
2024-06-05	11:37:08	11:42:32	323198	6.6.1	4_exp_EVA_AWA_CON	67	B	A	Rpleas_acq	Same	Rpleas	2pleas	acq_US_unple_nomask	acq2_nomask	2	22	480	1	300	300	0	0	510	46	1	0	schlau	freundlich	ehrlich	spielen	schön	treu	schroff	fanatisch	eitel	strafen	schlecht	tot	retten	helfen	tolerant	loyal	fair	lachen	rächen	hindern	tyrannisch	lasch	faul	leiden	1	blank2r.bmp	0	1	+	0	1	blank2r.bmp	500	1	BMVZ	500	1	blank2r.bmp	880	4	strafen	880	1	!	1312	1	!	1411	0	0	0	0	0	0
2024-06-05	11:37:08	11:42:34	325663	6.6.1	4_exp_EVA_AWA_CON	67	B	A	Rpleas_acq	Same	Rpleas	2pleas	acq_new_pleas_nomask	acq2_nomask	2	23	480	1	300	300	0	0	481	46	0	0	schlau	freundlich	ehrlich	spielen	schön	treu	schroff	fanatisch	eitel	strafen	schlecht	tot	retten	helfen	tolerant	loyal	fair	lachen	rächen	hindern	tyrannisch	lasch	faul	leiden	1	blank2r.bmp	0	1	+	0	1	blank2r.bmp	500	7	C3r.bmp	500	1	blank2r.bmp	880	3	tolerant	880	1	FEHLER	1675	1	!	1312	1	!	1383	0	0	0
2024-06-05	11:37:08	11:42:36	327794	6.6.1	4_exp_EVA_AWA_CON	67	B	A	Rpleas_acq	Same	Rpleas	2pleas	acq_US_pleas_nomask	acq2_nomask	2	24	480	0	300	300	0	0	557	50	1	0	schlau	freundlich	ehrlich	spielen	schön	treu	schroff	fanatisch	eitel	strafen	schlecht	tot	retten	helfen	tolerant	loyal	fair	lachen	rächen	hindern	tyrannisch	lasch	faul	leiden	1	blank2r.bmp	0	1	+	0	1	blank2r.bmp	500	1	GKQX	500	1	blank2r.bmp	880	4	spielen	880	1	!	1312	1	!	-1	0	0	0	0	0	0
2024-06-05	11:37:08	11:42:39	330070	6.6.1	4_exp_EVA_AWA_CON	67	B	A	Rpleas_acq	Same	Rpleas	2pleas	acq_new_pleas_nomask	acq2_nomask	2	25	480	1	300	300	0	0	497	50	1	0	schlau	freundlich	ehrlich	spielen	schön	treu	schroff	fanatisch	eitel	strafen	schlecht	tot	retten	helfen	tolerant	loyal	fair	lachen	rächen	hindern	tyrannisch	lasch	faul	leiden	1	blank2r.bmp	0	1	+	0	1	blank2r.bmp	500	8	C4r.bmp	500	1	blank2r.bmp	880	6	lachen	880	1	!	1313	1	!	1398	0	0	0	0	0	0
2024-06-05	11:37:08	11:42:41	332220	6.6.1	4_exp_EVA_AWA_CON	67	B	A	Rpleas_acq	Same	Rpleas	2pleas	acq_US_pleas_nomask	acq2_nomask	2	26	480	0	300	300	0	0	377	50	1	0	schlau	freundlich	ehrlich	spielen	schön	treu	schroff	fanatisch	eitel	strafen	schlecht	tot	retten	helfen	tolerant	loyal	fair	lachen	rächen	hindern	tyrannisch	lasch	faul	leiden	1	blank2r.bmp	0	1	+	0	1	blank2r.bmp	500	1	GKQX	500	1	blank2r.bmp	880	2	freundlich	880	1	!	-1	1	!	-1	0	0	0	0	0	0
2024-06-05	11:37:08	11:42:43	334510	6.6.1	4_exp_EVA_AWA_CON	67	B	A	Rpleas_acq	Same	Rpleas	2pleas	acq_new_unple_nomask	acq2_nomask	2	27	480	1	300	300	0	0	514	46	1	0	schlau	freundlich	ehrlich	spielen	schön	treu	schroff	fanatisch	eitel	strafen	schlecht	tot	retten	helfen	tolerant	loyal	fair	lachen	rächen	hindern	tyrannisch	lasch	faul	leiden	1	blank2r.bmp	0	1	+	0	1	blank2r.bmp	500	2	B2r.bmp	500	1	blank2r.bmp	880	2	hindern	880	1	!	1313	1	!	1415	0	0	0	0	0	0
2024-06-05	11:37:08	11:42:45	336708	6.6.1	4_exp_EVA_AWA_CON	67	B	A	Rpleas_acq	Same	Rpleas	2pleas	acq_new_unple_nomask	acq2_nomask	2	28	480	1	300	300	0	0	422	46	1	0	schlau	freundlich	ehrlich	spielen	schön	treu	schroff	fanatisch	eitel	strafen	schlecht	tot	retten	helfen	tolerant	loyal	fair	lachen	rächen	hindern	tyrannisch	lasch	faul	leiden	1	blank2r.bmp	0	1	+	0	1	blank2r.bmp	500	2	B2r.bmp	500	1	blank2r.bmp	880	3	tyrannisch	880	1	!	1312	1	!	1322	0	0	0	0	0	0
2024-06-05	11:37:08	11:42:48	339092	6.6.1	4_exp_EVA_AWA_CON	67	B	A	Rpleas_acq	Same	Rpleas	2pleas	acq_new_unple_nomask	acq2_nomask	2	29	480	0	300	300	0	0	605	46	1	0	schlau	freundlich	ehrlich	spielen	schön	treu	schroff	fanatisch	eitel	strafen	schlecht	tot	retten	helfen	tolerant	loyal	fair	lachen	rächen	hindern	tyrannisch	lasch	faul	leiden	1	blank2r.bmp	0	1	+	0	1	blank2r.bmp	500	7	C3r.bmp	500	1	blank2r.bmp	880	4	lasch	880	1	!	1312	1	!	-1	0	0	0	0	0	0
2024-06-05	11:37:08	11:42:50	341292	6.6.1	4_exp_EVA_AWA_CON	67	B	A	Rpleas_acq	Same	Rpleas	2pleas	acq_US_pleas_nomask	acq2_nomask	2	30	480	1	300	300	0	0	423	50	1	0	schlau	freundlich	ehrlich	spielen	schön	treu	schroff	fanatisch	eitel	strafen	schlecht	tot	retten	helfen	tolerant	loyal	fair	lachen	rächen	hindern	tyrannisch	lasch	faul	leiden	1	blank2r.bmp	0	1	+	0	1	blank2r.bmp	500	1	GKQX	500	1	blank2r.bmp	880	1	schlau	880	1	!	1312	1	!	1323	0	0	0	0	0	0
2024-06-05	11:37:08	11:42:52	343692	6.6.1	4_exp_EVA_AWA_CON	67	B	A	Rpleas_acq	Same	Rpleas	2pleas	acq_US_unple_nomask	acq2_nomask	2	31	480	0	300	300	0	0	622	46	1	0	schlau	freundlich	ehrlich	spielen	schön	treu	schroff	fanatisch	eitel	strafen	schlecht	tot	retten	helfen	tolerant	loyal	fair	lachen	rächen	hindern	tyrannisch	lasch	faul	leiden	1	blank2r.bmp	0	1	+	0	1	blank2r.bmp	500	1	BMVZ	500	1	blank2r.bmp	880	5	schlecht	880	1	!	1313	1	!	-1	0	0	0	0	0	0
2024-06-05	11:37:08	11:42:55	345966	6.6.1	4_exp_EVA_AWA_CON	67	B	A	Rpleas_acq	Same	Rpleas	2pleas	acq_US_pleas_nomask	acq2_nomask	2	32	480	1	300	300	0	0	493	50	1	0	schlau	freundlich	ehrlich	spielen	schön	treu	schroff	fanatisch	eitel	strafen	schlecht	tot	retten	helfen	tolerant	loyal	fair	lachen	rächen	hindern	tyrannisch	lasch	faul	leiden	1	blank2r.bmp	0	1	+	0	1	blank2r.bmp	500	1	GKQX	500	1	blank2r.bmp	880	5	schön	880	1	!	1313	1	!	1394	0	0	0	0	0	0
2024-06-05	11:37:08	11:42:57	348348	6.6.1	4_exp_EVA_AWA_CON	67	B	A	Rpleas_acq	Same	Rpleas	2pleas	acq_new_pleas_nomask	acq2_nomask	2	33	480	0	300	300	0	0	605	50	1	0	schlau	freundlich	ehrlich	spielen	schön	treu	schroff	fanatisch	eitel	strafen	schlecht	tot	retten	helfen	tolerant	loyal	fair	lachen	rächen	hindern	tyrannisch	lasch	faul	leiden	1	blank2r.bmp	0	1	+	0	1	blank2r.bmp	500	6	C2r.bmp	500	1	blank2r.bmp	880	2	helfen	880	1	!	1312	1	!	-1	0	0	0	0	0	0
2024-06-05	11:37:08	11:42:59	350590	6.6.1	4_exp_EVA_AWA_CON	67	B	A	Rpleas_acq	Same	Rpleas	2pleas	acq_US_unple_nomask	acq2_nomask	2	34	480	1	300	300	0	0	464	46	1	0	schlau	freundlich	ehrlich	spielen	schön	treu	schroff	fanatisch	eitel	strafen	schlecht	tot	retten	helfen	tolerant	loyal	fair	lachen	rächen	hindern	tyrannisch	lasch	faul	leiden	1	blank2r.bmp	0	1	+	0	1	blank2r.bmp	500	1	BMVZ	500	1	blank2r.bmp	880	3	eitel	880	1	!	1312	1	!	1365	0	0	0	0	0	0
2024-06-05	11:37:08	11:43:02	352948	6.6.1	4_exp_EVA_AWA_CON	67	B	A	Rpleas_acq	Same	Rpleas	2pleas	acq_US_unple_nomask	acq2_nomask	2	35	480	0	300	300	0	0	582	46	1	0	schlau	freundlich	ehrlich	spielen	schön	treu	schroff	fanatisch	eitel	strafen	schlecht	tot	retten	helfen	tolerant	loyal	fair	lachen	rächen	hindern	tyrannisch	lasch	faul	leiden	1	blank2r.bmp	0	1	+	0	1	blank2r.bmp	500	1	BMVZ	500	1	blank2r.bmp	880	2	fanatisch	880	1	!	1313	1	!	-1	0	0	0	0	0	0
2024-06-05	11:37:08	11:43:04	355292	6.6.1	4_exp_EVA_AWA_CON	67	B	A	Rpleas_acq	Same	Rpleas	2pleas	acq_new_pleas_nomask	acq2_nomask	2	36	480	0	300	300	0	0	564	50	1	0	schlau	freundlich	ehrlich	spielen	schön	treu	schroff	fanatisch	eitel	strafen	schlecht	tot	retten	helfen	tolerant	loyal	fair	lachen	rächen	hindern	tyrannisch	lasch	faul	leiden	1	blank2r.bmp	0	1	+	0	1	blank2r.bmp	500	8	C4r.bmp	500	1	blank2r.bmp	880	4	loyal	880	1	!	1312	1	!	-1	0	0	0	0	0	0
2024-06-05	11:37:08	11:43:26	377260	6.6.1	4_exp_EVA_AWA_CON	67	B	A	Rpleas_acq	Same	Rpleas	2pleas	acq_US_pleas_nomask	acq3_nomask	3	1	453	0	300	300	0	0	377	50	1	0	schlau	freundlich	ehrlich	spielen	schön	treu	schroff	fanatisch	eitel	strafen	schlecht	tot	retten	helfen	tolerant	loyal	fair	lachen	rächen	hindern	tyrannisch	lasch	faul	leiden	1	blank2r.bmp	0	1	+	0	1	blank2r.bmp	500	1	GKQX	500	1	blank2r.bmp	880	6	treu	880	1	!	-1	1	!	-1	0	0	0	0	0	0
2024-06-05	11:37:08	11:43:28	379765	6.6.1	4_exp_EVA_AWA_CON	67	B	A	Rpleas_acq	Same	Rpleas	2pleas	acq_US_pleas_nomask	acq3_nomask	3	2	453	0	300	300	0	0	730	50	1	0	schlau	freundlich	ehrlich	spielen	schön	treu	schroff	fanatisch	eitel	strafen	schlecht	tot	retten	helfen	tolerant	loyal	fair	lachen	rächen	hindern	tyrannisch	lasch	faul	leiden	1	blank2r.bmp	0	1	+	0	1	blank2r.bmp	500	1	GKQX	500	1	blank2r.bmp	880	4	spielen	880	1	!	1293	1	!	-1	0	0	0	0	0	0
2024-06-05	11:37:08	11:43:31	382108	6.6.1	4_exp_EVA_AWA_CON	67	B	A	Rpleas_acq	Same	Rpleas	2pleas	acq_US_pleas_nomask	acq3_nomask	3	3	453	0	300	300	0	0	562	50	1	0	schlau	freundlich	ehrlich	spielen	schön	treu	schroff	fanatisch	eitel	strafen	schlecht	tot	retten	helfen	tolerant	loyal	fair	lachen	rächen	hindern	tyrannisch	lasch	faul	leiden	1	blank2r.bmp	0	1	+	0	1	blank2r.bmp	500	1	GKQX	500	1	blank2r.bmp	880	2	freundlich	880	1	!	1292	1	!	-1	0	0	0	0	0	0
2024-06-05	11:37:08	11:43:33	384428	6.6.1	4_exp_EVA_AWA_CON	67	B	A	Rpleas_acq	Same	Rpleas	2pleas	acq_US_unple_nomask	acq3_nomask	3	4	453	0	300	300	0	0	541	46	1	0	schlau	freundlich	ehrlich	spielen	schön	treu	schroff	fanatisch	eitel	strafen	schlecht	tot	retten	helfen	tolerant	loyal	fair	lachen	rächen	hindern	tyrannisch	lasch	faul	leiden	1	blank2r.bmp	0	1	+	0	1	blank2r.bmp	500	1	BMVZ	500	1	blank2r.bmp	880	6	tot	880	1	!	1293	1	!	-1	0	0	0	0	0	0
2024-06-05	11:37:08	11:43:35	386710	6.6.1	4_exp_EVA_AWA_CON	67	B	A	Rpleas_acq	Same	Rpleas	2pleas	acq_US_pleas_nomask	acq3_nomask	3	5	453	1	300	300	0	0	499	50	1	0	schlau	freundlich	ehrlich	spielen	schön	treu	schroff	fanatisch	eitel	strafen	schlecht	tot	retten	helfen	tolerant	loyal	fair	lachen	rächen	hindern	tyrannisch	lasch	faul	leiden	1	blank2r.bmp	0	1	+	0	1	blank2r.bmp	500	1	GKQX	500	1	blank2r.bmp	880	5	schön	880	1	!	1292	1	!	1402	0	0	0	0	0	0
2024-06-05	11:37:08	11:43:38	389018	6.6.1	4_exp_EVA_AWA_CON	67	B	A	Rpleas_acq	Same	Rpleas	2pleas	acq_US_unple_nomask	acq3_nomask	3	6	453	0	300	300	0	0	530	46	1	0	schlau	freundlich	ehrlich	spielen	schön	treu	schroff	fanatisch	eitel	strafen	schlecht	tot	retten	helfen	tolerant	loyal	fair	lachen	rächen	hindern	tyrannisch	lasch	faul	leiden	1	blank2r.bmp	0	1	+	0	1	blank2r.bmp	500	1	BMVZ	500	1	blank2r.bmp	880	4	strafen	880	1	!	1292	1	!	-1	0	0	0	0	0	0
2024-06-05	11:37:08	11:43:40	391479	6.6.1	4_exp_EVA_AWA_CON	67	B	A	Rpleas_acq	Same	Rpleas	2pleas	acq_US_unple_nomask	acq3_nomask	3	7	453	1	300	300	0	0	485	50	0	0	schlau	freundlich	ehrlich	spielen	schön	treu	schroff	fanatisch	eitel	strafen	schlecht	tot	retten	helfen	tolerant	loyal	fair	lachen	rächen	hindern	tyrannisch	lasch	faul	leiden	1	blank2r.bmp	0	1	+	0	1	blank2r.bmp	500	1	BMVZ	500	1	blank2r.bmp	880	5	schlecht	880	1	FEHLER	1678	1	!	1293	1	!	1386	0	0	0
2024-06-05	11:37:08	11:43:42	393780	6.6.1	4_exp_EVA_AWA_CON	67	B	A	Rpleas_acq	Same	Rpleas	2pleas	acq_US_unple_nomask	acq3_nomask	3	8	453	0	300	300	0	0	727	46	1	0	schlau	freundlich	ehrlich	spielen	schön	treu	schroff	fanatisch	eitel	strafen	schlecht	tot	retten	helfen	tolerant	loyal	fair	lachen	rächen	hindern	tyrannisch	lasch	faul	leiden	1	blank2r.bmp	0	1	+	0	1	blank2r.bmp	500	1	BMVZ	500	1	blank2r.bmp	880	2	fanatisch	880	1	!	1292	1	!	-1	0	0	0	0	0	0
2024-06-05	11:37:08	11:43:45	395900	6.6.1	4_exp_EVA_AWA_CON	67	B	A	Rpleas_acq	Same	Rpleas	2pleas	acq_US_pleas_nomask	acq3_nomask	3	9	453	0	300	300	0	0	346	50	1	0	schlau	freundlich	ehrlich	spielen	schön	treu	schroff	fanatisch	eitel	strafen	schlecht	tot	retten	helfen	tolerant	loyal	fair	lachen	rächen	hindern	tyrannisch	lasch	faul	leiden	1	blank2r.bmp	0	1	+	0	1	blank2r.bmp	500	1	GKQX	500	1	blank2r.bmp	880	1	schlau	880	1	!	-1	1	!	-1	0	0	0	0	0	0
2024-06-05	11:37:08	11:43:47	398332	6.6.1	4_exp_EVA_AWA_CON	67	B	A	Rpleas_acq	Same	Rpleas	2pleas	acq_US_unple_nomask	acq3_nomask	3	10	453	0	300	300	0	0	656	46	1	0	schlau	freundlich	ehrlich	spielen	schön	treu	schroff	fanatisch	eitel	strafen	schlecht	tot	retten	helfen	tolerant	loyal	fair	lachen	rächen	hindern	tyrannisch	lasch	faul	leiden	1	blank2r.bmp	0	1	+	0	1	blank2r.bmp	500	1	BMVZ	500	1	blank2r.bmp	880	3	eitel	880	1	!	1292	1	!	-1	0	0	0	0	0	0
2024-06-05	11:37:08	11:43:49	400566	6.6.1	4_exp_EVA_AWA_CON	67	B	A	Rpleas_acq	Same	Rpleas	2pleas	acq_US_unple_nomask	acq3_nomask	3	11	453	1	300	300	0	0	456	46	1	0	schlau	freundlich	ehrlich	spielen	schön	treu	schroff	fanatisch	eitel	strafen	schlecht	tot	retten	helfen	tolerant	loyal	fair	lachen	rächen	hindern	tyrannisch	lasch	faul	leiden	1	blank2r.bmp	0	1	+	0	1	blank2r.bmp	500	1	BMVZ	500	1	blank2r.bmp	880	1	schroff	880	1	!	1292	1	!	1358	0	0	0	0	0	0
2024-06-05	11:37:08	11:43:51	402790	6.6.1	4_exp_EVA_AWA_CON	67	B	A	Rpleas_acq	Same	Rpleas	2pleas	acq_US_pleas_nomask	acq3_nomask	3	12	453	1	300	300	0	0	449	50	1	0	schlau	freundlich	ehrlich	spielen	schön	treu	schroff	fanatisch	eitel	strafen	schlecht	tot	retten	helfen	tolerant	loyal	fair	lachen	rächen	hindern	tyrannisch	lasch	faul	leiden	1	blank2r.bmp	0	1	+	0	1	blank2r.bmp	500	1	GKQX	500	1	blank2r.bmp	880	3	ehrlich	880	1	!	1292	1	!	1351	0	0	0	0	0	0
2024-06-05	11:37:08	11:43:54	405172	6.6.1	4_exp_EVA_AWA_CON	67	B	A	Rpleas_acq	Same	Rpleas	2pleas	acq_US_unple_nomask	acq3_nomask	3	13	453	0	300	300	0	0	601	46	1	0	schlau	freundlich	ehrlich	spielen	schön	treu	schroff	fanatisch	eitel	strafen	schlecht	tot	retten	helfen	tolerant	loyal	fair	lachen	rächen	hindern	tyrannisch	lasch	faul	leiden	1	blank2r.bmp	0	1	+	0	1	blank2r.bmp	500	1	BMVZ	500	1	blank2r.bmp	880	3	eitel	880	1	!	1292	1	!	-1	0	0	0	0	0	0
2024-06-05	11:37:08	11:43:56	407340	6.6.1	4_exp_EVA_AWA_CON	67	B	A	Rpleas_acq	Same	Rpleas	2pleas	acq_US_unple_nomask	acq3_nomask	3	14	453	0	300	300	0	0	388	46	1	0	schlau	freundlich	ehrlich	spielen	schön	treu	schroff	fanatisch	eitel	strafen	schlecht	tot	retten	helfen	tolerant	loyal	fair	lachen	rächen	hindern	tyrannisch	lasch	faul	leiden	1	blank2r.bmp	0	1	+	0	1	blank2r.bmp	500	1	BMVZ	500	1	blank2r.bmp	880	2	fanatisch	880	1	!	-1	1	!	-1	0	0	0	0	0	0
2024-06-05	11:37:08	11:43:58	409716	6.6.1	4_exp_EVA_AWA_CON	67	B	A	Rpleas_acq	Same	Rpleas	2pleas	acq_US_pleas_nomask	acq3_nomask	3	15	453	0	300	300	0	0	603	50	1	0	schlau	freundlich	ehrlich	spielen	schön	treu	schroff	fanatisch	eitel	strafen	schlecht	tot	retten	helfen	tolerant	loyal	fair	lachen	rächen	hindern	tyrannisch	lasch	faul	leiden	1	blank2r.bmp	0	1	+	0	1	blank2r.bmp	500	1	GKQX	500	1	blank2r.bmp	880	2	freundlich	880	1	!	1292	1	!	-1	0	0	0	0	0	0
2024-06-05	11:37:08	11:44:01	411902	6.6.1	4_exp_EVA_AWA_CON	67	B	A	Rpleas_acq	Same	Rpleas	2pleas	acq_US_pleas_nomask	acq3_nomask	3	16	453	1	300	300	0	0	405	50	1	0	schlau	freundlich	ehrlich	spielen	schön	treu	schroff	fanatisch	eitel	strafen	schlecht	tot	retten	helfen	tolerant	loyal	fair	lachen	rächen	hindern	tyrannisch	lasch	faul	leiden	1	blank2r.bmp	0	1	+	0	1	blank2r.bmp	500	1	GKQX	500	1	blank2r.bmp	880	4	spielen	880	1	!	1292	1	!	1307	0	0	0	0	0	0
2024-06-05	11:37:08	11:44:03	414228	6.6.1	4_exp_EVA_AWA_CON	67	B	A	Rpleas_acq	Same	Rpleas	2pleas	acq_US_pleas_nomask	acq3_nomask	3	17	453	0	300	300	0	0	551	50	1	0	schlau	freundlich	ehrlich	spielen	schön	treu	schroff	fanatisch	eitel	strafen	schlecht	tot	retten	helfen	tolerant	loyal	fair	lachen	rächen	hindern	tyrannisch	lasch	faul	leiden	1	blank2r.bmp	0	1	+	0	1	blank2r.bmp	500	1	GKQX	500	1	blank2r.bmp	880	6	treu	880	1	!	1292	1	!	-1	0	0	0	0	0	0
2024-06-05	11:37:08	11:44:05	416556	6.6.1	4_exp_EVA_AWA_CON	67	B	A	Rpleas_acq	Same	Rpleas	2pleas	acq_US_unple_nomask	acq3_nomask	3	18	453	0	300	300	0	0	548	46	1	0	schlau	freundlich	ehrlich	spielen	schön	treu	schroff	fanatisch	eitel	strafen	schlecht	tot	retten	helfen	tolerant	loyal	fair	lachen	rächen	hindern	tyrannisch	lasch	faul	leiden	1	blank2r.bmp	0	1	+	0	1	blank2r.bmp	500	1	BMVZ	500	1	blank2r.bmp	880	4	strafen	880	1	!	1293	1	!	-1	0	0	0	0	0	0
2024-06-05	11:37:08	11:44:07	418766	6.6.1	4_exp_EVA_AWA_CON	67	B	A	Rpleas_acq	Same	Rpleas	2pleas	acq_US_pleas_nomask	acq3_nomask	3	19	453	1	300	300	0	0	435	50	1	0	schlau	freundlich	ehrlich	spielen	schön	treu	schroff	fanatisch	eitel	strafen	schlecht	tot	retten	helfen	tolerant	loyal	fair	lachen	rächen	hindern	tyrannisch	lasch	faul	leiden	1	blank2r.bmp	0	1	+	0	1	blank2r.bmp	500	1	GKQX	500	1	blank2r.bmp	880	5	schön	880	1	!	1293	1	!	1336	0	0	0	0	0	0
2024-06-05	11:37:08	11:44:10	420998	6.6.1	4_exp_EVA_AWA_CON	67	B	A	Rpleas_acq	Same	Rpleas	2pleas	acq_US_pleas_nomask	acq3_nomask	3	20	453	1	300	300	0	0	455	50	1	0	schlau	freundlich	ehrlich	spielen	schön	treu	schroff	fanatisch	eitel	strafen	schlecht	tot	retten	helfen	tolerant	loyal	fair	lachen	rächen	hindern	tyrannisch	lasch	faul	leiden	1	blank2r.bmp	0	1	+	0	1	blank2r.bmp	500	1	GKQX	500	1	blank2r.bmp	880	3	ehrlich	880	1	!	1293	1	!	1357	0	0	0	0	0	0
2024-06-05	11:37:08	11:44:12	423223	6.6.1	4_exp_EVA_AWA_CON	67	B	A	Rpleas_acq	Same	Rpleas	2pleas	acq_US_pleas_nomask	acq3_nomask	3	21	453	1	300	300	0	0	448	50	1	0	schlau	freundlich	ehrlich	spielen	schön	treu	schroff	fanatisch	eitel	strafen	schlecht	tot	retten	helfen	tolerant	loyal	fair	lachen	rächen	hindern	tyrannisch	lasch	faul	leiden	1	blank2r.bmp	0	1	+	0	1	blank2r.bmp	500	1	GKQX	500	1	blank2r.bmp	880	1	schlau	880	1	!	1293	1	!	1349	0	0	0	0	0	0
2024-06-05	11:37:08	11:44:14	425478	6.6.1	4_exp_EVA_AWA_CON	67	B	A	Rpleas_acq	Same	Rpleas	2pleas	acq_US_unple_nomask	acq3_nomask	3	22	453	1	300	300	0	0	472	46	1	0	schlau	freundlich	ehrlich	spielen	schön	treu	schroff	fanatisch	eitel	strafen	schlecht	tot	retten	helfen	tolerant	loyal	fair	lachen	rächen	hindern	tyrannisch	lasch	faul	leiden	1	blank2r.bmp	0	1	+	0	1	blank2r.bmp	500	1	BMVZ	500	1	blank2r.bmp	880	5	schlecht	880	1	!	1292	1	!	1374	0	0	0	0	0	0
2024-06-05	11:37:08	11:44:16	427710	6.6.1	4_exp_EVA_AWA_CON	67	B	A	Rpleas_acq	Same	Rpleas	2pleas	acq_US_unple_nomask	acq3_nomask	3	23	453	1	300	300	0	0	453	46	1	0	schlau	freundlich	ehrlich	spielen	schön	treu	schroff	fanatisch	eitel	strafen	schlecht	tot	retten	helfen	tolerant	loyal	fair	lachen	rächen	hindern	tyrannisch	lasch	faul	leiden	1	blank2r.bmp	0	1	+	0	1	blank2r.bmp	500	1	BMVZ	500	1	blank2r.bmp	880	6	tot	880	1	!	1293	1	!	1354	0	0	0	0	0	0
2024-06-05	11:37:08	11:44:19	429966	6.6.1	4_exp_EVA_AWA_CON	67	B	A	Rpleas_acq	Same	Rpleas	2pleas	acq_US_unple_nomask	acq3_nomask	3	24	453	1	300	300	0	0	477	46	1	0	schlau	freundlich	ehrlich	spielen	schön	treu	schroff	fanatisch	eitel	strafen	schlecht	tot	retten	helfen	tolerant	loyal	fair	lachen	rächen	hindern	tyrannisch	lasch	faul	leiden	1	blank2r.bmp	0	1	+	0	1	blank2r.bmp	500	1	BMVZ	500	1	blank2r.bmp	880	1	schroff	880	1	!	1293	1	!	1379	0	0	0	0	0	0
2024-06-05	11:37:08	11:44:21	432182	6.6.1	4_exp_EVA_AWA_CON	67	B	A	Rpleas_acq	Same	Rpleas	2pleas	acq_US_unple_nomask	acq3_nomask	3	25	453	1	300	300	0	0	432	46	1	0	schlau	freundlich	ehrlich	spielen	schön	treu	schroff	fanatisch	eitel	strafen	schlecht	tot	retten	helfen	tolerant	loyal	fair	lachen	rächen	hindern	tyrannisch	lasch	faul	leiden	1	blank2r.bmp	0	1	+	0	1	blank2r.bmp	500	1	BMVZ	500	1	blank2r.bmp	880	4	strafen	880	1	!	1292	1	!	1333	0	0	0	0	0	0
2024-06-05	11:37:08	11:44:23	434422	6.6.1	4_exp_EVA_AWA_CON	67	B	A	Rpleas_acq	Same	Rpleas	2pleas	acq_US_unple_nomask	acq3_nomask	3	26	453	1	300	300	0	0	460	46	1	0	schlau	freundlich	ehrlich	spielen	schön	treu	schroff	fanatisch	eitel	strafen	schlecht	tot	retten	helfen	tolerant	loyal	fair	lachen	rächen	hindern	tyrannisch	lasch	faul	leiden	1	blank2r.bmp	0	1	+	0	1	blank2r.bmp	500	1	BMVZ	500	1	blank2r.bmp	880	3	eitel	880	1	!	1292	1	!	1362	0	0	0	0	0	0
2024-06-05	11:37:08	11:44:25	436516	6.6.1	4_exp_EVA_AWA_CON	67	B	A	Rpleas_acq	Same	Rpleas	2pleas	acq_US_pleas_nomask	acq3_nomask	3	27	453	0	300	300	0	0	315	50	1	0	schlau	freundlich	ehrlich	spielen	schön	treu	schroff	fanatisch	eitel	strafen	schlecht	tot	retten	helfen	tolerant	loyal	fair	lachen	rächen	hindern	tyrannisch	lasch	faul	leiden	1	blank2r.bmp	0	1	+	0	1	blank2r.bmp	500	1	GKQX	500	1	blank2r.bmp	880	1	schlau	880	1	!	-1	1	!	-1	0	0	0	0	0	0
2024-06-05	11:37:08	11:44:27	438766	6.6.1	4_exp_EVA_AWA_CON	67	B	A	Rpleas_acq	Same	Rpleas	2pleas	acq_US_unple_nomask	acq3_nomask	3	28	453	1	300	300	0	0	472	46	1	0	schlau	freundlich	ehrlich	spielen	schön	treu	schroff	fanatisch	eitel	strafen	schlecht	tot	retten	helfen	tolerant	loyal	fair	lachen	rächen	hindern	tyrannisch	lasch	faul	leiden	1	blank2r.bmp	0	1	+	0	1	blank2r.bmp	500	1	BMVZ	500	1	blank2r.bmp	880	1	schroff	880	1	!	1293	1	!	1373	0	0	0	0	0	0
2024-06-05	11:37:08	11:44:30	441054	6.6.1	4_exp_EVA_AWA_CON	67	B	A	Rpleas_acq	Same	Rpleas	2pleas	acq_US_pleas_nomask	acq3_nomask	3	29	453	1	300	300	0	0	508	50	1	0	schlau	freundlich	ehrlich	spielen	schön	treu	schroff	fanatisch	eitel	strafen	schlecht	tot	retten	helfen	tolerant	loyal	fair	lachen	rächen	hindern	tyrannisch	lasch	faul	leiden	1	blank2r.bmp	0	1	+	0	1	blank2r.bmp	500	1	GKQX	500	1	blank2r.bmp	880	4	spielen	880	1	!	1292	1	!	1410	0	0	0	0	0	0
2024-06-05	11:37:08	11:44:32	443310	6.6.1	4_exp_EVA_AWA_CON	67	B	A	Rpleas_acq	Same	Rpleas	2pleas	acq_US_pleas_nomask	acq3_nomask	3	30	453	1	300	300	0	0	473	50	1	0	schlau	freundlich	ehrlich	spielen	schön	treu	schroff	fanatisch	eitel	strafen	schlecht	tot	retten	helfen	tolerant	loyal	fair	lachen	rächen	hindern	tyrannisch	lasch	faul	leiden	1	blank2r.bmp	0	1	+	0	1	blank2r.bmp	500	1	GKQX	500	1	blank2r.bmp	880	2	freundlich	880	1	!	1293	1	!	1374	0	0	0	0	0	0
2024-06-05	11:37:08	11:44:34	445484	6.6.1	4_exp_EVA_AWA_CON	67	B	A	Rpleas_acq	Same	Rpleas	2pleas	acq_US_pleas_nomask	acq3_nomask	3	31	453	1	300	300	0	0	397	50	1	0	schlau	freundlich	ehrlich	spielen	schön	treu	schroff	fanatisch	eitel	strafen	schlecht	tot	retten	helfen	tolerant	loyal	fair	lachen	rächen	hindern	tyrannisch	lasch	faul	leiden	1	blank2r.bmp	0	1	+	0	1	blank2r.bmp	500	1	GKQX	500	1	blank2r.bmp	880	3	ehrlich	880	1	!	1292	1	!	1297	0	0	0	0	0	0
2024-06-05	11:37:08	11:44:36	447734	6.6.1	4_exp_EVA_AWA_CON	67	B	A	Rpleas_acq	Same	Rpleas	2pleas	acq_US_unple_nomask	acq3_nomask	3	32	453	1	300	300	0	0	474	46	1	0	schlau	freundlich	ehrlich	spielen	schön	treu	schroff	fanatisch	eitel	strafen	schlecht	tot	retten	helfen	tolerant	loyal	fair	lachen	rächen	hindern	tyrannisch	lasch	faul	leiden	1	blank2r.bmp	0	1	+	0	1	blank2r.bmp	500	1	BMVZ	500	1	blank2r.bmp	880	6	tot	880	1	!	1292	1	!	1375	0	0	0	0	0	0
2024-06-05	11:37:08	11:44:39	450135	6.6.1	4_exp_EVA_AWA_CON	67	B	A	Rpleas_acq	Same	Rpleas	2pleas	acq_US_unple_nomask	acq3_nomask	3	33	453	1	300	300	0	0	422	50	0	0	schlau	freundlich	ehrlich	spielen	schön	treu	schroff	fanatisch	eitel	strafen	schlecht	tot	retten	helfen	tolerant	loyal	fair	lachen	rächen	hindern	tyrannisch	lasch	faul	leiden	1	blank2r.bmp	0	1	+	0	1	blank2r.bmp	500	1	BMVZ	500	1	blank2r.bmp	880	2	fanatisch	880	1	FEHLER	1616	1	!	1292	1	!	1324	0	0	0
2024-06-05	11:37:08	11:44:41	452344	6.6.1	4_exp_EVA_AWA_CON	67	B	A	Rpleas_acq	Same	Rpleas	2pleas	acq_US_unple_nomask	acq3_nomask	3	34	453	1	300	300	0	0	429	50	0	0	schlau	freundlich	ehrlich	spielen	schön	treu	schroff	fanatisch	eitel	strafen	schlecht	tot	retten	helfen	tolerant	loyal	fair	lachen	rächen	hindern	tyrannisch	lasch	faul	leiden	1	blank2r.bmp	0	1	+	0	1	blank2r.bmp	500	1	BMVZ	500	1	blank2r.bmp	880	5	schlecht	880	1	FEHLER	1623	1	!	1292	1	!	1330	0	0	0
2024-06-05	11:37:08	11:44:43	454398	6.6.1	4_exp_EVA_AWA_CON	67	B	A	Rpleas_acq	Same	Rpleas	2pleas	acq_US_pleas_nomask	acq3_nomask	3	35	453	1	300	300	0	0	473	50	1	0	schlau	freundlich	ehrlich	spielen	schön	treu	schroff	fanatisch	eitel	strafen	schlecht	tot	retten	helfen	tolerant	loyal	fair	lachen	rächen	hindern	tyrannisch	lasch	faul	leiden	1	blank2r.bmp	0	1	+	0	1	blank2r.bmp	500	1	GKQX	500	1	blank2r.bmp	880	5	schön	880	1	!	1292	1	!	1375	0	0	0	0	0	0
2024-06-05	11:37:08	11:44:45	456606	6.6.1	4_exp_EVA_AWA_CON	67	B	A	Rpleas_acq	Same	Rpleas	2pleas	acq_US_pleas_nomask	acq3_nomask	3	36	453	1	300	300	0	0	430	50	1	0	schlau	freundlich	ehrlich	spielen	schön	treu	schroff	fanatisch	eitel	strafen	schlecht	tot	retten	helfen	tolerant	loyal	fair	lachen	rächen	hindern	tyrannisch	lasch	faul	leiden	1	blank2r.bmp	0	1	+	0	1	blank2r.bmp	500	1	GKQX	500	1	blank2r.bmp	880	6	treu	880	1	!	1293	1	!	1332	0	0	0	0	0	0
2024-06-05	11:37:08	11:45:04	475452	6.6.1	4_exp_EVA_AWA_CON	67	B	A	Rpleas_acq	Same	Rpleas	2pleas	acq_US_pleas_nomask	acq45_nomask	4	1	400	0	300	300	0	0	486	50	1	0	schlau	freundlich	ehrlich	spielen	schön	treu	schroff	fanatisch	eitel	strafen	schlecht	tot	retten	helfen	tolerant	loyal	fair	lachen	rächen	hindern	tyrannisch	lasch	faul	leiden	1	blank2r.bmp	0	1	+	0	1	blank2r.bmp	500	1	GKQX	500	1	blank2r.bmp	880	3	ehrlich	880	1	!	1233	1	!	-1	0	0	0	0	0	0
2024-06-05	11:37:08	11:45:06	477646	6.6.1	4_exp_EVA_AWA_CON	67	B	A	Rpleas_acq	Same	Rpleas	2pleas	acq_US_pleas_nomask	acq45_nomask	4	2	400	1	300	300	0	0	416	50	1	0	schlau	freundlich	ehrlich	spielen	schön	treu	schroff	fanatisch	eitel	strafen	schlecht	tot	retten	helfen	tolerant	loyal	fair	lachen	rächen	hindern	tyrannisch	lasch	faul	leiden	1	blank2r.bmp	0	1	+	0	1	blank2r.bmp	500	1	GKQX	500	1	blank2r.bmp	880	5	schön	880	1	!	1232	1	!	1318	0	0	0	0	0	0
2024-06-05	11:37:08	11:45:09	479830	6.6.1	4_exp_EVA_AWA_CON	67	B	A	Rpleas_acq	Same	Rpleas	2pleas	acq_US_unple_nomask	acq45_nomask	4	3	400	1	300	300	0	0	409	46	1	0	schlau	freundlich	ehrlich	spielen	schön	treu	schroff	fanatisch	eitel	strafen	schlecht	tot	retten	helfen	tolerant	loyal	fair	lachen	rächen	hindern	tyrannisch	lasch	faul	leiden	1	blank2r.bmp	0	1	+	0	1	blank2r.bmp	500	1	BMVZ	500	1	blank2r.bmp	880	5	schlecht	880	1	!	1232	1	!	1310	0	0	0	0	0	0
2024-06-05	11:37:08	11:45:11	482054	6.6.1	4_exp_EVA_AWA_CON	67	B	A	Rpleas_acq	Same	Rpleas	2pleas	acq_US_unple_nomask	acq45_nomask	4	4	400	1	300	300	0	0	441	46	1	0	schlau	freundlich	ehrlich	spielen	schön	treu	schroff	fanatisch	eitel	strafen	schlecht	tot	retten	helfen	tolerant	loyal	fair	lachen	rächen	hindern	tyrannisch	lasch	faul	leiden	1	blank2r.bmp	0	1	+	0	1	blank2r.bmp	500	1	BMVZ	500	1	blank2r.bmp	880	1	schroff	880	1	!	1232	1	!	1343	0	0	0	0	0	0
2024-06-05	11:37:08	11:45:13	484173	6.6.1	4_exp_EVA_AWA_CON	67	B	A	Rpleas_acq	Same	Rpleas	2pleas	acq_US_pleas_nomask	acq45_nomask	4	5	400	1	300	300	0	0	340	50	1	0	schlau	freundlich	ehrlich	spielen	schön	treu	schroff	fanatisch	eitel	strafen	schlecht	tot	retten	helfen	tolerant	loyal	fair	lachen	rächen	hindern	tyrannisch	lasch	faul	leiden	1	blank2r.bmp	0	1	+	0	1	blank2r.bmp	500	1	GKQX	500	1	blank2r.bmp	880	1	schlau	880	1	!	1232	1	!	1240	0	0	0	0	0	0
2024-06-05	11:37:08	11:45:15	486334	6.6.1	4_exp_EVA_AWA_CON	67	B	A	Rpleas_acq	Same	Rpleas	2pleas	acq_US_unple_nomask	acq45_nomask	4	6	400	1	300	300	0	0	378	46	1	0	schlau	freundlich	ehrlich	spielen	schön	treu	schroff	fanatisch	eitel	strafen	schlecht	tot	retten	helfen	tolerant	loyal	fair	lachen	rächen	hindern	tyrannisch	lasch	faul	leiden	1	blank2r.bmp	0	1	+	0	1	blank2r.bmp	500	1	BMVZ	500	1	blank2r.bmp	880	4	strafen	880	1	!	1233	1	!	1280	0	0	0	0	0	0
2024-06-05	11:37:08	11:45:17	488604	6.6.1	4_exp_EVA_AWA_CON	67	B	A	Rpleas_acq	Same	Rpleas	2pleas	acq_US_unple_nomask	acq45_nomask	4	7	400	0	300	300	0	0	489	46	1	0	schlau	freundlich	ehrlich	spielen	schön	treu	schroff	fanatisch	eitel	strafen	schlecht	tot	retten	helfen	tolerant	loyal	fair	lachen	rächen	hindern	tyrannisch	lasch	faul	leiden	1	blank2r.bmp	0	1	+	0	1	blank2r.bmp	500	1	BMVZ	500	1	blank2r.bmp	880	6	tot	880	1	!	1232	1	!	-1	0	0	0	0	0	0
2024-06-05	11:37:08	11:45:19	490734	6.6.1	4_exp_EVA_AWA_CON	67	B	A	Rpleas_acq	Same	Rpleas	2pleas	acq_US_pleas_nomask	acq45_nomask	4	8	400	1	300	300	0	0	346	50	1	0	schlau	freundlich	ehrlich	spielen	schön	treu	schroff	fanatisch	eitel	strafen	schlecht	tot	retten	helfen	tolerant	loyal	fair	lachen	rächen	hindern	tyrannisch	lasch	faul	leiden	1	blank2r.bmp	0	1	+	0	1	blank2r.bmp	500	1	GKQX	500	1	blank2r.bmp	880	4	spielen	880	1	!	1233	1	!	1247	0	0	0	0	0	0
2024-06-05	11:37:08	11:45:22	492886	6.6.1	4_exp_EVA_AWA_CON	67	B	A	Rpleas_acq	Same	Rpleas	2pleas	acq_US_pleas_nomask	acq45_nomask	4	9	400	1	300	300	0	0	376	50	1	0	schlau	freundlich	ehrlich	spielen	schön	treu	schroff	fanatisch	eitel	strafen	schlecht	tot	retten	helfen	tolerant	loyal	fair	lachen	rächen	hindern	tyrannisch	lasch	faul	leiden	1	blank2r.bmp	0	1	+	0	1	blank2r.bmp	500	1	GKQX	500	1	blank2r.bmp	880	2	freundlich	880	1	!	1232	1	!	1278	0	0	0	0	0	0
2024-06-05	11:37:08	11:45:24	495022	6.6.1	4_exp_EVA_AWA_CON	67	B	A	Rpleas_acq	Same	Rpleas	2pleas	acq_US_unple_nomask	acq45_nomask	4	10	400	1	300	300	0	0	361	46	1	0	schlau	freundlich	ehrlich	spielen	schön	treu	schroff	fanatisch	eitel	strafen	schlecht	tot	retten	helfen	tolerant	loyal	fair	lachen	rächen	hindern	tyrannisch	lasch	faul	leiden	1	blank2r.bmp	0	1	+	0	1	blank2r.bmp	500	1	BMVZ	500	1	blank2r.bmp	880	3	eitel	880	1	!	1232	1	!	1262	0	0	0	0	0	0
2024-06-05	11:37:08	11:45:26	497214	6.6.1	4_exp_EVA_AWA_CON	67	B	A	Rpleas_acq	Same	Rpleas	2pleas	acq_US_pleas_nomask	acq45_nomask	4	11	400	1	300	300	0	0	411	46	0	0	schlau	freundlich	ehrlich	spielen	schön	treu	schroff	fanatisch	eitel	strafen	schlecht	tot	retten	helfen	tolerant	loyal	fair	lachen	rächen	hindern	tyrannisch	lasch	faul	leiden	1	blank2r.bmp	0	1	+	0	1	blank2r.bmp	500	1	GKQX	500	1	blank2r.bmp	880	6	treu	880	1	!	1232	1	!	1313	0	0	0	0	0	0
2024-06-05	11:37:08	11:45:28	499390	6.6.1	4_exp_EVA_AWA_CON	67	B	A	Rpleas_acq	Same	Rpleas	2pleas	acq_US_unple_nomask	acq45_nomask	4	12	400	1	300	300	0	0	396	50	0	0	schlau	freundlich	ehrlich	spielen	schön	treu	schroff	fanatisch	eitel	strafen	schlecht	tot	retten	helfen	tolerant	loyal	fair	lachen	rächen	hindern	tyrannisch	lasch	faul	leiden	1	blank2r.bmp	0	1	+	0	1	blank2r.bmp	500	1	BMVZ	500	1	blank2r.bmp	880	2	fanatisch	880	1	!	1233	1	!	1298	0	0	0	0	0	0
2024-06-05	11:37:08	11:45:30	501582	6.6.1	4_exp_EVA_AWA_CON	67	B	A	Rpleas_acq	Same	Rpleas	2pleas	acq_US_unple_nomask	acq45_nomask	4	13	400	1	300	300	0	0	416	46	1	0	schlau	freundlich	ehrlich	spielen	schön	treu	schroff	fanatisch	eitel	strafen	schlecht	tot	retten	helfen	tolerant	loyal	fair	lachen	rächen	hindern	tyrannisch	lasch	faul	leiden	1	blank2r.bmp	0	1	+	0	1	blank2r.bmp	500	1	BMVZ	500	1	blank2r.bmp	880	1	schroff	880	1	!	1232	1	!	1318	0	0	0	0	0	0
2024-06-05	11:37:08	11:45:32	503774	6.6.1	4_exp_EVA_AWA_CON	67	B	A	Rpleas_acq	Same	Rpleas	2pleas	acq_US_pleas_nomask	acq45_nomask	4	14	400	1	300	300	0	0	417	50	1	0	schlau	freundlich	ehrlich	spielen	schön	treu	schroff	fanatisch	eitel	strafen	schlecht	tot	retten	helfen	tolerant	loyal	fair	lachen	rächen	hindern	tyrannisch	lasch	faul	leiden	1	blank2r.bmp	0	1	+	0	1	blank2r.bmp	500	1	GKQX	500	1	blank2r.bmp	880	1	schlau	880	1	!	1233	1	!	1319	0	0	0	0	0	0
2024-06-05	11:37:08	11:45:35	506037	6.6.1	4_exp_EVA_AWA_CON	67	B	A	Rpleas_acq	Same	Rpleas	2pleas	acq_US_pleas_nomask	acq45_nomask	4	15	400	0	300	300	0	0	490	50	1	0	schlau	freundlich	ehrlich	spielen	schön	treu	schroff	fanatisch	eitel	strafen	schlecht	tot	retten	helfen	tolerant	loyal	fair	lachen	rächen	hindern	tyrannisch	lasch	faul	leiden	1	blank2r.bmp	0	1	+	0	1	blank2r.bmp	500	1	GKQX	500	1	blank2r.bmp	880	6	treu	880	1	!	1233	1	!	-1	0	0	0	0	0	0
2024-06-05	11:37:08	11:45:37	508148	6.6.1	4_exp_EVA_AWA_CON	67	B	A	Rpleas_acq	Same	Rpleas	2pleas	acq_US_unple_nomask	acq45_nomask	4	16	400	0	300	300	0	0	330	46	1	0	schlau	freundlich	ehrlich	spielen	schön	treu	schroff	fanatisch	eitel	strafen	schlecht	tot	retten	helfen	tolerant	loyal	fair	lachen	rächen	hindern	tyrannisch	lasch	faul	leiden	1	blank2r.bmp	0	1	+	0	1	blank2r.bmp	500	1	BMVZ	500	1	blank2r.bmp	880	3	eitel	880	1	!	-1	1	!	-1	0	0	0	0	0	0
2024-06-05	11:37:08	11:45:39	510476	6.6.1	4_exp_EVA_AWA_CON	67	B	A	Rpleas_acq	Same	Rpleas	2pleas	acq_US_unple_nomask	acq45_nomask	4	17	400	0	300	300	0	0	547	46	1	0	schlau	freundlich	ehrlich	spielen	schön	treu	schroff	fanatisch	eitel	strafen	schlecht	tot	retten	helfen	tolerant	loyal	fair	lachen	rächen	hindern	tyrannisch	lasch	faul	leiden	1	blank2r.bmp	0	1	+	0	1	blank2r.bmp	500	1	BMVZ	500	1	blank2r.bmp	880	5	schlecht	880	1	!	1233	1	!	-1	0	0	0	0	0	0
2024-06-05	11:37:08	11:45:41	512581	6.6.1	4_exp_EVA_AWA_CON	67	B	A	Rpleas_acq	Same	Rpleas	2pleas	acq_US_pleas_nomask	acq45_nomask	4	18	400	0	300	300	0	0	329	50	1	0	schlau	freundlich	ehrlich	spielen	schön	treu	schroff	fanatisch	eitel	strafen	schlecht	tot	retten	helfen	tolerant	loyal	fair	lachen	rächen	hindern	tyrannisch	lasch	faul	leiden	1	blank2r.bmp	0	1	+	0	1	blank2r.bmp	500	1	GKQX	500	1	blank2r.bmp	880	3	ehrlich	880	1	!	-1	1	!	-1	0	0	0	0	0	0
2024-06-05	11:37:08	11:45:43	514774	6.6.1	4_exp_EVA_AWA_CON	67	B	A	Rpleas_acq	Same	Rpleas	2pleas	acq_US_unple_nomask	acq45_nomask	4	19	400	1	300	300	0	0	410	46	1	0	schlau	freundlich	ehrlich	spielen	schön	treu	schroff	fanatisch	eitel	strafen	schlecht	tot	retten	helfen	tolerant	loyal	fair	lachen	rächen	hindern	tyrannisch	lasch	faul	leiden	1	blank2r.bmp	0	1	+	0	1	blank2r.bmp	500	1	BMVZ	500	1	blank2r.bmp	880	4	strafen	880	1	!	1233	1	!	1312	0	0	0	0	0	0
2024-06-05	11:37:08	11:45:46	516966	6.6.1	4_exp_EVA_AWA_CON	67	B	A	Rpleas_acq	Same	Rpleas	2pleas	acq_US_pleas_nomask	acq45_nomask	4	20	400	1	300	300	0	0	410	50	1	0	schlau	freundlich	ehrlich	spielen	schön	treu	schroff	fanatisch	eitel	strafen	schlecht	tot	retten	helfen	tolerant	loyal	fair	lachen	rächen	hindern	tyrannisch	lasch	faul	leiden	1	blank2r.bmp	0	1	+	0	1	blank2r.bmp	500	1	GKQX	500	1	blank2r.bmp	880	2	freundlich	880	1	!	1232	1	!	1312	0	0	0	0	0	0
2024-06-05	11:37:08	11:45:48	519190	6.6.1	4_exp_EVA_AWA_CON	67	B	A	Rpleas_acq	Same	Rpleas	2pleas	acq_US_unple_nomask	acq45_nomask	4	21	400	1	300	300	0	0	443	46	1	0	schlau	freundlich	ehrlich	spielen	schön	treu	schroff	fanatisch	eitel	strafen	schlecht	tot	retten	helfen	tolerant	loyal	fair	lachen	rächen	hindern	tyrannisch	lasch	faul	leiden	1	blank2r.bmp	0	1	+	0	1	blank2r.bmp	500	1	BMVZ	500	1	blank2r.bmp	880	6	tot	880	1	!	1233	1	!	1345	0	0	0	0	0	0
2024-06-05	11:37:08	11:45:50	521460	6.6.1	4_exp_EVA_AWA_CON	67	B	A	Rpleas_acq	Same	Rpleas	2pleas	acq_US_unple_nomask	acq45_nomask	4	22	400	0	300	300	0	0	494	46	1	0	schlau	freundlich	ehrlich	spielen	schön	treu	schroff	fanatisch	eitel	strafen	schlecht	tot	retten	helfen	tolerant	loyal	fair	lachen	rächen	hindern	tyrannisch	lasch	faul	leiden	1	blank2r.bmp	0	1	+	0	1	blank2r.bmp	500	1	BMVZ	500	1	blank2r.bmp	880	2	fanatisch	880	1	!	1232	1	!	-1	0	0	0	0	0	0
2024-06-05	11:37:08	11:45:52	523580	6.6.1	4_exp_EVA_AWA_CON	67	B	A	Rpleas_acq	Same	Rpleas	2pleas	acq_US_unple_nomask	acq45_nomask	4	23	400	1	300	300	0	0	342	46	1	0	schlau	freundlich	ehrlich	spielen	schön	treu	schroff	fanatisch	eitel	strafen	schlecht	tot	retten	helfen	tolerant	loyal	fair	lachen	rächen	hindern	tyrannisch	lasch	faul	leiden	1	blank2r.bmp	0	1	+	0	1	blank2r.bmp	500	1	BMVZ	500	1	blank2r.bmp	880	1	schroff	880	1	!	1232	1	!	1242	0	0	0	0	0	0
2024-06-05	11:37:08	11:45:54	525797	6.6.1	4_exp_EVA_AWA_CON	67	B	A	Rpleas_acq	Same	Rpleas	2pleas	acq_US_pleas_nomask	acq45_nomask	4	24	400	1	300	300	0	0	437	50	1	0	schlau	freundlich	ehrlich	spielen	schön	treu	schroff	fanatisch	eitel	strafen	schlecht	tot	retten	helfen	tolerant	loyal	fair	lachen	rächen	hindern	tyrannisch	lasch	faul	leiden	1	blank2r.bmp	0	1	+	0	1	blank2r.bmp	500	1	GKQX	500	1	blank2r.bmp	880	4	spielen	880	1	!	1232	1	!	1338	0	0	0	0	0	0
2024-06-05	11:37:08	11:45:57	528050	6.6.1	4_exp_EVA_AWA_CON	67	B	A	Rpleas_acq	Same	Rpleas	2pleas	acq_US_pleas_nomask	acq45_nomask	4	25	400	0	300	300	0	0	481	50	1	0	schlau	freundlich	ehrlich	spielen	schön	treu	schroff	fanatisch	eitel	strafen	schlecht	tot	retten	helfen	tolerant	loyal	fair	lachen	rächen	hindern	tyrannisch	lasch	faul	leiden	1	blank2r.bmp	0	1	+	0	1	blank2r.bmp	500	1	GKQX	500	1	blank2r.bmp	880	5	schön	880	1	!	1232	1	!	-1	0	0	0	0	0	0
2024-06-05	11:37:08	11:45:59	530182	6.6.1	4_exp_EVA_AWA_CON	67	B	A	Rpleas_acq	Same	Rpleas	2pleas	acq_US_pleas_nomask	acq45_nomask	4	26	400	1	300	300	0	0	358	46	0	0	schlau	freundlich	ehrlich	spielen	schön	treu	schroff	fanatisch	eitel	strafen	schlecht	tot	retten	helfen	tolerant	loyal	fair	lachen	rächen	hindern	tyrannisch	lasch	faul	leiden	1	blank2r.bmp	0	1	+	0	1	blank2r.bmp	500	1	GKQX	500	1	blank2r.bmp	880	6	treu	880	1	!	1233	1	!	1259	0	0	0	0	0	0
2024-06-05	11:37:08	11:46:01	532435	6.6.1	4_exp_EVA_AWA_CON	67	B	A	Rpleas_acq	Same	Rpleas	2pleas	acq_US_unple_nomask	acq45_nomask	4	27	400	0	300	300	0	0	473	46	1	0	schlau	freundlich	ehrlich	spielen	schön	treu	schroff	fanatisch	eitel	strafen	schlecht	tot	retten	helfen	tolerant	loyal	fair	lachen	rächen	hindern	tyrannisch	lasch	faul	leiden	1	blank2r.bmp	0	1	+	0	1	blank2r.bmp	500	1	BMVZ	500	1	blank2r.bmp	880	2	fanatisch	880	1	!	1232	1	!	-1	0	0	0	0	0	0
2024-06-05	11:37:08	11:46:03	534638	6.6.1	4_exp_EVA_AWA_CON	67	B	A	Rpleas_acq	Same	Rpleas	2pleas	acq_US_pleas_nomask	acq45_nomask	4	28	400	1	300	300	0	0	421	50	1	0	schlau	freundlich	ehrlich	spielen	schön	treu	schroff	fanatisch	eitel	strafen	schlecht	tot	retten	helfen	tolerant	loyal	fair	lachen	rächen	hindern	tyrannisch	lasch	faul	leiden	1	blank2r.bmp	0	1	+	0	1	blank2r.bmp	500	1	GKQX	500	1	blank2r.bmp	880	5	schön	880	1	!	1232	1	!	1323	0	0	0	0	0	0
2024-06-05	11:37:08	11:46:06	536886	6.6.1	4_exp_EVA_AWA_CON	67	B	A	Rpleas_acq	Same	Rpleas	2pleas	acq_US_pleas_nomask	acq45_nomask	4	29	400	1	300	300	0	0	467	50	1	0	schlau	freundlich	ehrlich	spielen	schön	treu	schroff	fanatisch	eitel	strafen	schlecht	tot	retten	helfen	tolerant	loyal	fair	lachen	rächen	hindern	tyrannisch	lasch	faul	leiden	1	blank2r.bmp	0	1	+	0	1	blank2r.bmp	500	1	GKQX	500	1	blank2r.bmp	880	3	ehrlich	880	1	!	1232	1	!	1369	0	0	0	0	0	0
2024-06-05	11:37:08	11:46:08	539102	6.6.1	4_exp_EVA_AWA_CON	67	B	A	Rpleas_acq	Same	Rpleas	2pleas	acq_US_unple_nomask	acq45_nomask	4	30	400	1	300	300	0	0	442	46	1	0	schlau	freundlich	ehrlich	spielen	schön	treu	schroff	fanatisch	eitel	strafen	schlecht	tot	retten	helfen	tolerant	loyal	fair	lachen	rächen	hindern	tyrannisch	lasch	faul	leiden	1	blank2r.bmp	0	1	+	0	1	blank2r.bmp	500	1	BMVZ	500	1	blank2r.bmp	880	6	tot	880	1	!	1232	1	!	1344	0	0	0	0	0	0
2024-06-05	11:37:08	11:46:10	541262	6.6.1	4_exp_EVA_AWA_CON	67	B	A	Rpleas_acq	Same	Rpleas	2pleas	acq_US_pleas_nomask	acq45_nomask	4	31	400	1	300	300	0	0	381	50	1	0	schlau	freundlich	ehrlich	spielen	schön	treu	schroff	fanatisch	eitel	strafen	schlecht	tot	retten	helfen	tolerant	loyal	fair	lachen	rächen	hindern	tyrannisch	lasch	faul	leiden	1	blank2r.bmp	0	1	+	0	1	blank2r.bmp	500	1	GKQX	500	1	blank2r.bmp	880	4	spielen	880	1	!	1232	1	!	1282	0	0	0	0	0	0
2024-06-05	11:37:08	11:46:12	543494	6.6.1	4_exp_EVA_AWA_CON	67	B	A	Rpleas_acq	Same	Rpleas	2pleas	acq_US_pleas_nomask	acq45_nomask	4	32	400	1	300	300	0	0	451	50	1	0	schlau	freundlich	ehrlich	spielen	schön	treu	schroff	fanatisch	eitel	strafen	schlecht	tot	retten	helfen	tolerant	loyal	fair	lachen	rächen	hindern	tyrannisch	lasch	faul	leiden	1	blank2r.bmp	0	1	+	0	1	blank2r.bmp	500	1	GKQX	500	1	blank2r.bmp	880	1	schlau	880	1	!	1232	1	!	1353	0	0	0	0	0	0
2024-06-05	11:37:08	11:46:14	545654	6.6.1	4_exp_EVA_AWA_CON	67	B	A	Rpleas_acq	Same	Rpleas	2pleas	acq_US_unple_nomask	acq45_nomask	4	33	400	1	300	300	0	0	380	46	1	0	schlau	freundlich	ehrlich	spielen	schön	treu	schroff	fanatisch	eitel	strafen	schlecht	tot	retten	helfen	tolerant	loyal	fair	lachen	rächen	hindern	tyrannisch	lasch	faul	leiden	1	blank2r.bmp	0	1	+	0	1	blank2r.bmp	500	1	BMVZ	500	1	blank2r.bmp	880	4	strafen	880	1	!	1232	1	!	1282	0	0	0	0	0	0
2024-06-05	11:37:08	11:46:16	547806	6.6.1	4_exp_EVA_AWA_CON	67	B	A	Rpleas_acq	Same	Rpleas	2pleas	acq_US_unple_nomask	acq45_nomask	4	34	400	1	300	300	0	0	370	46	1	0	schlau	freundlich	ehrlich	spielen	schön	treu	schroff	fanatisch	eitel	strafen	schlecht	tot	retten	helfen	tolerant	loyal	fair	lachen	rächen	hindern	tyrannisch	lasch	faul	leiden	1	blank2r.bmp	0	1	+	0	1	blank2r.bmp	500	1	BMVZ	500	1	blank2r.bmp	880	3	eitel	880	1	!	1233	1	!	1272	0	0	0	0	0	0
2024-06-05	11:37:08	11:46:19	549973	6.6.1	4_exp_EVA_AWA_CON	67	B	A	Rpleas_acq	Same	Rpleas	2pleas	acq_US_unple_nomask	acq45_nomask	4	35	400	1	300	300	0	0	387	50	0	0	schlau	freundlich	ehrlich	spielen	schön	treu	schroff	fanatisch	eitel	strafen	schlecht	tot	retten	helfen	tolerant	loyal	fair	lachen	rächen	hindern	tyrannisch	lasch	faul	leiden	1	blank2r.bmp	0	1	+	0	1	blank2r.bmp	500	1	BMVZ	500	1	blank2r.bmp	880	5	schlecht	880	1	!	1232	1	!	1288	0	0	0	0	0	0
2024-06-05	11:37:08	11:46:21	552134	6.6.1	4_exp_EVA_AWA_CON	67	B	A	Rpleas_acq	Same	Rpleas	2pleas	acq_US_pleas_nomask	acq45_nomask	4	36	400	1	300	300	0	0	386	50	1	0	schlau	freundlich	ehrlich	spielen	schön	treu	schroff	fanatisch	eitel	strafen	schlecht	tot	retten	helfen	tolerant	loyal	fair	lachen	rächen	hindern	tyrannisch	lasch	faul	leiden	1	blank2r.bmp	0	1	+	0	1	blank2r.bmp	500	1	GKQX	500	1	blank2r.bmp	880	2	freundlich	880	1	!	1232	1	!	1287	0	0	0	0	0	0
2024-06-05	11:37:08	11:46:43	574677	6.6.1	4_exp_EVA_AWA_CON	67	B	A	Rpleas_acq	Same	Rpleas	2pleas	acq_US_unple_nomask	acq45_nomask	5	1	400	1	300	300	0	0	385	46	1	0	schlau	freundlich	ehrlich	spielen	schön	treu	schroff	fanatisch	eitel	strafen	schlecht	tot	retten	helfen	tolerant	loyal	fair	lachen	rächen	hindern	tyrannisch	lasch	faul	leiden	1	blank2r.bmp	0	1	+	0	1	blank2r.bmp	500	1	BMVZ	500	1	blank2r.bmp	880	5	schlecht	880	1	!	1233	1	!	1286	0	0	0	0	0	0
2024-06-05	11:37:08	11:46:46	576886	6.6.1	4_exp_EVA_AWA_CON	67	B	A	Rpleas_acq	Same	Rpleas	2pleas	acq_US_pleas_nomask	acq45_nomask	5	2	400	1	300	300	0	0	431	50	1	0	schlau	freundlich	ehrlich	spielen	schön	treu	schroff	fanatisch	eitel	strafen	schlecht	tot	retten	helfen	tolerant	loyal	fair	lachen	rächen	hindern	tyrannisch	lasch	faul	leiden	1	blank2r.bmp	0	1	+	0	1	blank2r.bmp	500	1	GKQX	500	1	blank2r.bmp	880	1	schlau	880	1	!	1232	1	!	1333	0	0	0	0	0	0
2024-06-05	11:37:08	11:46:48	579078	6.6.1	4_exp_EVA_AWA_CON	67	B	A	Rpleas_acq	Same	Rpleas	2pleas	acq_US_pleas_nomask	acq45_nomask	5	3	400	1	300	300	0	0	412	50	1	0	schlau	freundlich	ehrlich	spielen	schön	treu	schroff	fanatisch	eitel	strafen	schlecht	tot	retten	helfen	tolerant	loyal	fair	lachen	rächen	hindern	tyrannisch	lasch	faul	leiden	1	blank2r.bmp	0	1	+	0	1	blank2r.bmp	500	1	GKQX	500	1	blank2r.bmp	880	4	spielen	880	1	!	1232	1	!	1314	0	0	0	0	0	0
2024-06-05	11:37:08	11:46:50	581302	6.6.1	4_exp_EVA_AWA_CON	67	B	A	Rpleas_acq	Same	Rpleas	2pleas	acq_US_unple_nomask	acq45_nomask	5	4	400	1	300	300	0	0	444	46	1	0	schlau	freundlich	ehrlich	spielen	schön	treu	schroff	fanatisch	eitel	strafen	schlecht	tot	retten	helfen	tolerant	loyal	fair	lachen	rächen	hindern	tyrannisch	lasch	faul	leiden	1	blank2r.bmp	0	1	+	0	1	blank2r.bmp	500	1	BMVZ	500	1	blank2r.bmp	880	3	eitel	880	1	!	1232	1	!	1347	0	0	0	0	0	0
2024-06-05	11:37:08	11:46:52	583510	6.6.1	4_exp_EVA_AWA_CON	67	B	A	Rpleas_acq	Same	Rpleas	2pleas	acq_US_pleas_nomask	acq45_nomask	5	5	400	1	300	300	0	0	431	46	0	0	schlau	freundlich	ehrlich	spielen	schön	treu	schroff	fanatisch	eitel	strafen	schlecht	tot	retten	helfen	tolerant	loyal	fair	lachen	rächen	hindern	tyrannisch	lasch	faul	leiden	1	blank2r.bmp	0	1	+	0	1	blank2r.bmp	500	1	GKQX	500	1	blank2r.bmp	880	6	treu	880	1	!	1233	1	!	1333	0	0	0	0	0	0
2024-06-05	11:37:08	11:46:54	585702	6.6.1	4_exp_EVA_AWA_CON	67	B	A	Rpleas_acq	Same	Rpleas	2pleas	acq_US_unple_nomask	acq45_nomask	5	6	400	1	300	300	0	0	412	46	1	0	schlau	freundlich	ehrlich	spielen	schön	treu	schroff	fanatisch	eitel	strafen	schlecht	tot	retten	helfen	tolerant	loyal	fair	lachen	rächen	hindern	tyrannisch	lasch	faul	leiden	1	blank2r.bmp	0	1	+	0	1	blank2r.bmp	500	1	BMVZ	500	1	blank2r.bmp	880	2	fanatisch	880	1	!	1232	1	!	1313	0	0	0	0	0	0
2024-06-05	11:37:08	11:46:57	587894	6.6.1	4_exp_EVA_AWA_CON	67	B	A	Rpleas_acq	Same	Rpleas	2pleas	acq_US_pleas_nomask	acq45_nomask	5	7	400	1	300	300	0	0	412	50	1	0	schlau	freundlich	ehrlich	spielen	schön	treu	schroff	fanatisch	eitel	strafen	schlecht	tot	retten	helfen	tolerant	loyal	fair	lachen	rächen	hindern	tyrannisch	lasch	faul	leiden	1	blank2r.bmp	0	1	+	0	1	blank2r.bmp	500	1	GKQX	500	1	blank2r.bmp	880	3	ehrlich	880	1	!	1232	1	!	1314	0	0	0	0	0	0
2024-06-05	11:37:08	11:46:59	590146	6.6.1	4_exp_EVA_AWA_CON	67	B	A	Rpleas_acq	Same	Rpleas	2pleas	acq_US_unple_nomask	acq45_nomask	5	8	400	0	300	300	0	0	477	46	1	0	schlau	freundlich	ehrlich	spielen	schön	treu	schroff	fanatisch	eitel	strafen	schlecht	tot	retten	helfen	tolerant	loyal	fair	lachen	rächen	hindern	tyrannisch	lasch	faul	leiden	1	blank2r.bmp	0	1	+	0	1	blank2r.bmp	500	1	BMVZ	500	1	blank2r.bmp	880	1	schroff	880	1	!	1232	1	!	-1	0	0	0	0	0	0
2024-06-05	11:37:08	11:47:01	592402	6.6.1	4_exp_EVA_AWA_CON	67	B	A	Rpleas_acq	Same	Rpleas	2pleas	acq_US_unple_nomask	acq45_nomask	5	9	400	0	300	300	0	0	481	46	1	0	schlau	freundlich	ehrlich	spielen	schön	treu	schroff	fanatisch	eitel	strafen	schlecht	tot	retten	helfen	tolerant	loyal	fair	lachen	rächen	hindern	tyrannisch	lasch	faul	leiden	1	blank2r.bmp	0	1	+	0	1	blank2r.bmp	500	1	BMVZ	500	1	blank2r.bmp	880	6	tot	880	1	!	1233	1	!	-1	0	0	0	0	0	0
2024-06-05	11:37:08	11:47:03	594500	6.6.1	4_exp_EVA_AWA_CON	67	B	A	Rpleas_acq	Same	Rpleas	2pleas	acq_US_pleas_nomask	acq45_nomask	5	10	400	0	300	300	0	0	316	50	1	0	schlau	freundlich	ehrlich	spielen	schön	treu	schroff	fanatisch	eitel	strafen	schlecht	tot	retten	helfen	tolerant	loyal	fair	lachen	rächen	hindern	tyrannisch	lasch	faul	leiden	1	blank2r.bmp	0	1	+	0	1	blank2r.bmp	500	1	GKQX	500	1	blank2r.bmp	880	2	freundlich	880	1	!	-1	1	!	-1	0	0	0	0	0	0
2024-06-05	11:37:08	11:47:05	596693	6.6.1	4_exp_EVA_AWA_CON	67	B	A	Rpleas_acq	Same	Rpleas	2pleas	acq_US_pleas_nomask	acq45_nomask	5	11	400	1	300	300	0	0	416	50	1	0	schlau	freundlich	ehrlich	spielen	schön	treu	schroff	fanatisch	eitel	strafen	schlecht	tot	retten	helfen	tolerant	loyal	fair	lachen	rächen	hindern	tyrannisch	lasch	faul	leiden	1	blank2r.bmp	0	1	+	0	1	blank2r.bmp	500	1	GKQX	500	1	blank2r.bmp	880	5	schön	880	1	!	1233	1	!	1318	0	0	0	0	0	0
2024-06-05	11:37:08	11:47:08	598934	6.6.1	4_exp_EVA_AWA_CON	67	B	A	Rpleas_acq	Same	Rpleas	2pleas	acq_US_unple_nomask	acq45_nomask	5	12	400	1	300	300	0	0	465	46	1	0	schlau	freundlich	ehrlich	spielen	schön	treu	schroff	fanatisch	eitel	strafen	schlecht	tot	retten	helfen	tolerant	loyal	fair	lachen	rächen	hindern	tyrannisch	lasch	faul	leiden	1	blank2r.bmp	0	1	+	0	1	blank2r.bmp	500	1	BMVZ	500	1	blank2r.bmp	880	4	strafen	880	1	!	1233	1	!	1367	0	0	0	0	0	0
2024-06-05	11:37:08	11:47:10	601142	6.6.1	4_exp_EVA_AWA_CON	67	B	A	Rpleas_acq	Same	Rpleas	2pleas	acq_US_pleas_nomask	acq45_nomask	5	13	400	1	300	300	0	0	432	50	1	0	schlau	freundlich	ehrlich	spielen	schön	treu	schroff	fanatisch	eitel	strafen	schlecht	tot	retten	helfen	tolerant	loyal	fair	lachen	rächen	hindern	tyrannisch	lasch	faul	leiden	1	blank2r.bmp	0	1	+	0	1	blank2r.bmp	500	1	GKQX	500	1	blank2r.bmp	880	2	freundlich	880	1	!	1232	1	!	1333	0	0	0	0	0	0
2024-06-05	11:37:08	11:47:12	603326	6.6.1	4_exp_EVA_AWA_CON	67	B	A	Rpleas_acq	Same	Rpleas	2pleas	acq_US_unple_nomask	acq45_nomask	5	14	400	1	300	300	0	0	404	46	1	0	schlau	freundlich	ehrlich	spielen	schön	treu	schroff	fanatisch	eitel	strafen	schlecht	tot	retten	helfen	tolerant	loyal	fair	lachen	rächen	hindern	tyrannisch	lasch	faul	leiden	1	blank2r.bmp	0	1	+	0	1	blank2r.bmp	500	1	BMVZ	500	1	blank2r.bmp	880	5	schlecht	880	1	!	1232	1	!	1306	0	0	0	0	0	0
2024-06-05	11:37:08	11:47:14	605566	6.6.1	4_exp_EVA_AWA_CON	67	B	A	Rpleas_acq	Same	Rpleas	2pleas	acq_US_unple_nomask	acq45_nomask	5	15	400	1	300	300	0	0	463	46	1	0	schlau	freundlich	ehrlich	spielen	schön	treu	schroff	fanatisch	eitel	strafen	schlecht	tot	retten	helfen	tolerant	loyal	fair	lachen	rächen	hindern	tyrannisch	lasch	faul	leiden	1	blank2r.bmp	0	1	+	0	1	blank2r.bmp	500	1	BMVZ	500	1	blank2r.bmp	880	4	strafen	880	1	!	1232	1	!	1364	0	0	0	0	0	0
2024-06-05	11:37:08	11:47:16	607814	6.6.1	4_exp_EVA_AWA_CON	67	B	A	Rpleas_acq	Same	Rpleas	2pleas	acq_US_pleas_nomask	acq45_nomask	5	16	400	1	300	300	0	0	469	50	1	0	schlau	freundlich	ehrlich	spielen	schön	treu	schroff	fanatisch	eitel	strafen	schlecht	tot	retten	helfen	tolerant	loyal	fair	lachen	rächen	hindern	tyrannisch	lasch	faul	leiden	1	blank2r.bmp	0	1	+	0	1	blank2r.bmp	500	1	GKQX	500	1	blank2r.bmp	880	6	treu	880	1	!	1232	1	!	1371	0	0	0	0	0	0
2024-06-05	11:37:08	11:47:19	610013	6.6.1	4_exp_EVA_AWA_CON	67	B	A	Rpleas_acq	Same	Rpleas	2pleas	acq_US_pleas_nomask	acq45_nomask	5	17	400	1	300	300	0	0	418	50	1	0	schlau	freundlich	ehrlich	spielen	schön	treu	schroff	fanatisch	eitel	strafen	schlecht	tot	retten	helfen	tolerant	loyal	fair	lachen	rächen	hindern	tyrannisch	lasch	faul	leiden	1	blank2r.bmp	0	1	+	0	1	blank2r.bmp	500	1	GKQX	500	1	blank2r.bmp	880	3	ehrlich	880	1	!	1232	1	!	1319	0	0	0	0	0	0
2024-06-05	11:37:08	11:47:21	612214	6.6.1	4_exp_EVA_AWA_CON	67	B	A	Rpleas_acq	Same	Rpleas	2pleas	acq_US_unple_nomask	acq45_nomask	5	18	400	1	300	300	0	0	416	46	1	0	schlau	freundlich	ehrlich	spielen	schön	treu	schroff	fanatisch	eitel	strafen	schlecht	tot	retten	helfen	tolerant	loyal	fair	lachen	rächen	hindern	tyrannisch	lasch	faul	leiden	1	blank2r.bmp	0	1	+	0	1	blank2r.bmp	500	1	BMVZ	500	1	blank2r.bmp	880	3	eitel	880	1	!	1232	1	!	1318	0	0	0	0	0	0
2024-06-05	11:37:08	11:47:23	614406	6.6.1	4_exp_EVA_AWA_CON	67	B	A	Rpleas_acq	Same	Rpleas	2pleas	acq_US_unple_nomask	acq45_nomask	5	19	400	1	300	300	0	0	417	46	1	0	schlau	freundlich	ehrlich	spielen	schön	treu	schroff	fanatisch	eitel	strafen	schlecht	tot	retten	helfen	tolerant	loyal	fair	lachen	rächen	hindern	tyrannisch	lasch	faul	leiden	1	blank2r.bmp	0	1	+	0	1	blank2r.bmp	500	1	BMVZ	500	1	blank2r.bmp	880	6	tot	880	1	!	1233	1	!	1318	0	0	0	0	0	0
2024-06-05	11:37:08	11:47:25	616558	6.6.1	4_exp_EVA_AWA_CON	67	B	A	Rpleas_acq	Same	Rpleas	2pleas	acq_US_pleas_nomask	acq45_nomask	5	20	400	1	300	300	0	0	377	50	1	0	schlau	freundlich	ehrlich	spielen	schön	treu	schroff	fanatisch	eitel	strafen	schlecht	tot	retten	helfen	tolerant	loyal	fair	lachen	rächen	hindern	tyrannisch	lasch	faul	leiden	1	blank2r.bmp	0	1	+	0	1	blank2r.bmp	500	1	GKQX	500	1	blank2r.bmp	880	4	spielen	880	1	!	1232	1	!	1279	0	0	0	0	0	0
2024-06-05	11:37:08	11:47:27	618718	6.6.1	4_exp_EVA_AWA_CON	67	B	A	Rpleas_acq	Same	Rpleas	2pleas	acq_US_pleas_nomask	acq45_nomask	5	21	400	1	300	300	0	0	386	46	0	0	schlau	freundlich	ehrlich	spielen	schön	treu	schroff	fanatisch	eitel	strafen	schlecht	tot	retten	helfen	tolerant	loyal	fair	lachen	rächen	hindern	tyrannisch	lasch	faul	leiden	1	blank2r.bmp	0	1	+	0	1	blank2r.bmp	500	1	GKQX	500	1	blank2r.bmp	880	5	schön	880	1	!	1232	1	!	1287	0	0	0	0	0	0
2024-06-05	11:37:08	11:47:30	620958	6.6.1	4_exp_EVA_AWA_CON	67	B	A	Rpleas_acq	Same	Rpleas	2pleas	acq_US_unple_nomask	acq45_nomask	5	22	400	1	300	300	0	0	465	46	1	0	schlau	freundlich	ehrlich	spielen	schön	treu	schroff	fanatisch	eitel	strafen	schlecht	tot	retten	helfen	tolerant	loyal	fair	lachen	rächen	hindern	tyrannisch	lasch	faul	leiden	1	blank2r.bmp	0	1	+	0	1	blank2r.bmp	500	1	BMVZ	500	1	blank2r.bmp	880	2	fanatisch	880	1	!	1232	1	!	1366	0	0	0	0	0	0
2024-06-05	11:37:08	11:47:32	623110	6.6.1	4_exp_EVA_AWA_CON	67	B	A	Rpleas_acq	Same	Rpleas	2pleas	acq_US_pleas_nomask	acq45_nomask	5	23	400	1	300	300	0	0	375	50	1	0	schlau	freundlich	ehrlich	spielen	schön	treu	schroff	fanatisch	eitel	strafen	schlecht	tot	retten	helfen	tolerant	loyal	fair	lachen	rächen	hindern	tyrannisch	lasch	faul	leiden	1	blank2r.bmp	0	1	+	0	1	blank2r.bmp	500	1	GKQX	500	1	blank2r.bmp	880	1	schlau	880	1	!	1233	1	!	1277	0	0	0	0	0	0
2024-06-05	11:37:08	11:47:34	625286	6.6.1	4_exp_EVA_AWA_CON	67	B	A	Rpleas_acq	Same	Rpleas	2pleas	acq_US_unple_nomask	acq45_nomask	5	24	400	1	300	300	0	0	400	46	1	0	schlau	freundlich	ehrlich	spielen	schön	treu	schroff	fanatisch	eitel	strafen	schlecht	tot	retten	helfen	tolerant	loyal	fair	lachen	rächen	hindern	tyrannisch	lasch	faul	leiden	1	blank2r.bmp	0	1	+	0	1	blank2r.bmp	500	1	BMVZ	500	1	blank2r.bmp	880	1	schroff	880	1	!	1232	1	!	1302	0	0	0	0	0	0
2024-06-05	11:37:08	11:47:36	627534	6.6.1	4_exp_EVA_AWA_CON	67	B	A	Rpleas_acq	Same	Rpleas	2pleas	acq_US_unple_nomask	acq45_nomask	5	25	400	1	300	300	0	0	466	46	1	0	schlau	freundlich	ehrlich	spielen	schön	treu	schroff	fanatisch	eitel	strafen	schlecht	tot	retten	helfen	tolerant	loyal	fair	lachen	rächen	hindern	tyrannisch	lasch	faul	leiden	1	blank2r.bmp	0	1	+	0	1	blank2r.bmp	500	1	BMVZ	500	1	blank2r.bmp	880	3	eitel	880	1	!	1232	1	!	1368	0	0	0	0	0	0
2024-06-05	11:37:08	11:47:38	629718	6.6.1	4_exp_EVA_AWA_CON	67	B	A	Rpleas_acq	Same	Rpleas	2pleas	acq_US_unple_nomask	acq45_nomask	5	26	400	1	300	300	0	0	409	46	1	0	schlau	freundlich	ehrlich	spielen	schön	treu	schroff	fanatisch	eitel	strafen	schlecht	tot	retten	helfen	tolerant	loyal	fair	lachen	rächen	hindern	tyrannisch	lasch	faul	leiden	1	blank2r.bmp	0	1	+	0	1	blank2r.bmp	500	1	BMVZ	500	1	blank2r.bmp	880	2	fanatisch	880	1	!	1232	1	!	1310	0	0	0	0	0	0
2024-06-05	11:37:08	11:47:41	631854	6.6.1	4_exp_EVA_AWA_CON	67	B	A	Rpleas_acq	Same	Rpleas	2pleas	acq_US_pleas_nomask	acq45_nomask	5	27	400	1	300	300	0	0	353	50	1	0	schlau	freundlich	ehrlich	spielen	schön	treu	schroff	fanatisch	eitel	strafen	schlecht	tot	retten	helfen	tolerant	loyal	fair	lachen	rächen	hindern	tyrannisch	lasch	faul	leiden	1	blank2r.bmp	0	1	+	0	1	blank2r.bmp	500	1	GKQX	500	1	blank2r.bmp	880	3	ehrlich	880	1	!	1232	1	!	1255	0	0	0	0	0	0
2024-06-05	11:37:08	11:47:43	634102	6.6.1	4_exp_EVA_AWA_CON	67	B	A	Rpleas_acq	Same	Rpleas	2pleas	acq_US_unple_nomask	acq45_nomask	5	28	400	1	300	300	0	0	470	46	1	0	schlau	freundlich	ehrlich	spielen	schön	treu	schroff	fanatisch	eitel	strafen	schlecht	tot	retten	helfen	tolerant	loyal	fair	lachen	rächen	hindern	tyrannisch	lasch	faul	leiden	1	blank2r.bmp	0	1	+	0	1	blank2r.bmp	500	1	BMVZ	500	1	blank2r.bmp	880	4	strafen	880	1	!	1232	1	!	1372	0	0	0	0	0	0
2024-06-05	11:37:08	11:47:45	636229	6.6.1	4_exp_EVA_AWA_CON	67	B	A	Rpleas_acq	Same	Rpleas	2pleas	acq_US_pleas_nomask	acq45_nomask	5	29	400	1	300	300	0	0	347	50	1	0	schlau	freundlich	ehrlich	spielen	schön	treu	schroff	fanatisch	eitel	strafen	schlecht	tot	retten	helfen	tolerant	loyal	fair	lachen	rächen	hindern	tyrannisch	lasch	faul	leiden	1	blank2r.bmp	0	1	+	0	1	blank2r.bmp	500	1	GKQX	500	1	blank2r.bmp	880	6	treu	880	1	!	1232	1	!	1248	0	0	0	0	0	0
2024-06-05	11:37:08	11:47:47	638482	6.6.1	4_exp_EVA_AWA_CON	67	B	A	Rpleas_acq	Same	Rpleas	2pleas	acq_US_pleas_nomask	acq45_nomask	5	30	400	0	300	300	0	0	481	50	1	0	schlau	freundlich	ehrlich	spielen	schön	treu	schroff	fanatisch	eitel	strafen	schlecht	tot	retten	helfen	tolerant	loyal	fair	lachen	rächen	hindern	tyrannisch	lasch	faul	leiden	1	blank2r.bmp	0	1	+	0	1	blank2r.bmp	500	1	GKQX	500	1	blank2r.bmp	880	1	schlau	880	1	!	1233	1	!	-1	0	0	0	0	0	0
2024-06-05	11:37:08	11:47:49	640622	6.6.1	4_exp_EVA_AWA_CON	67	B	A	Rpleas_acq	Same	Rpleas	2pleas	acq_US_unple_nomask	acq45_nomask	5	31	400	1	300	300	0	0	356	46	1	0	schlau	freundlich	ehrlich	spielen	schön	treu	schroff	fanatisch	eitel	strafen	schlecht	tot	retten	helfen	tolerant	loyal	fair	lachen	rächen	hindern	tyrannisch	lasch	faul	leiden	1	blank2r.bmp	0	1	+	0	1	blank2r.bmp	500	1	BMVZ	500	1	blank2r.bmp	880	5	schlecht	880	1	!	1233	1	!	1257	0	0	0	0	0	0
2024-06-05	11:37:08	11:47:51	642813	6.6.1	4_exp_EVA_AWA_CON	67	B	A	Rpleas_acq	Same	Rpleas	2pleas	acq_US_unple_nomask	acq45_nomask	5	32	400	1	300	300	0	0	416	46	1	0	schlau	freundlich	ehrlich	spielen	schön	treu	schroff	fanatisch	eitel	strafen	schlecht	tot	retten	helfen	tolerant	loyal	fair	lachen	rächen	hindern	tyrannisch	lasch	faul	leiden	1	blank2r.bmp	0	1	+	0	1	blank2r.bmp	500	1	BMVZ	500	1	blank2r.bmp	880	6	tot	880	1	!	1232	1	!	1318	0	0	0	0	0	0
2024-06-05	11:37:08	11:47:54	644990	6.6.1	4_exp_EVA_AWA_CON	67	B	A	Rpleas_acq	Same	Rpleas	2pleas	acq_US_unple_nomask	acq45_nomask	5	33	400	1	300	300	0	0	401	46	1	0	schlau	freundlich	ehrlich	spielen	schön	treu	schroff	fanatisch	eitel	strafen	schlecht	tot	retten	helfen	tolerant	loyal	fair	lachen	rächen	hindern	tyrannisch	lasch	faul	leiden	1	blank2r.bmp	0	1	+	0	1	blank2r.bmp	500	1	BMVZ	500	1	blank2r.bmp	880	1	schroff	880	1	!	1232	1	!	1302	0	0	0	0	0	0
2024-06-05	11:37:08	11:47:56	647214	6.6.1	4_exp_EVA_AWA_CON	67	B	A	Rpleas_acq	Same	Rpleas	2pleas	acq_US_pleas_nomask	acq45_nomask	5	34	400	1	300	300	0	0	443	50	1	0	schlau	freundlich	ehrlich	spielen	schön	treu	schroff	fanatisch	eitel	strafen	schlecht	tot	retten	helfen	tolerant	loyal	fair	lachen	rächen	hindern	tyrannisch	lasch	faul	leiden	1	blank2r.bmp	0	1	+	0	1	blank2r.bmp	500	1	GKQX	500	1	blank2r.bmp	880	4	spielen	880	1	!	1233	1	!	1345	0	0	0	0	0	0
2024-06-05	11:37:08	11:47:58	649342	6.6.1	4_exp_EVA_AWA_CON	67	B	A	Rpleas_acq	Same	Rpleas	2pleas	acq_US_pleas_nomask	acq45_nomask	5	35	400	1	300	300	0	0	350	46	0	0	schlau	freundlich	ehrlich	spielen	schön	treu	schroff	fanatisch	eitel	strafen	schlecht	tot	retten	helfen	tolerant	loyal	fair	lachen	rächen	hindern	tyrannisch	lasch	faul	leiden	1	blank2r.bmp	0	1	+	0	1	blank2r.bmp	500	1	GKQX	500	1	blank2r.bmp	880	2	freundlich	880	1	!	1232	1	!	1252	0	0	0	0	0	0
2024-06-05	11:37:08	11:48:00	651620	6.6.1	4_exp_EVA_AWA_CON	67	B	A	Rpleas_acq	Same	Rpleas	2pleas	acq_US_pleas_nomask	acq45_nomask	5	36	400	0	300	300	0	0	499	50	1	0	schlau	freundlich	ehrlich	spielen	schön	treu	schroff	fanatisch	eitel	strafen	schlecht	tot	retten	helfen	tolerant	loyal	fair	lachen	rächen	hindern	tyrannisch	lasch	faul	leiden	1	blank2r.bmp	0	1	+	0	1	blank2r.bmp	500	1	GKQX	500	1	blank2r.bmp	880	5	schön	880	1	!	1232	1	!	-1	0	0	0	0	0	0
2024-06-05	11:37:08	11:48:41	692344	6.6.1	4_exp_EVA_AWA_CON	67	B	A	Rpleas_acq	Same	Rpleas	2pleas	EvalRating_firsttwo	EvalRating_firsttwo	6	1	0	0	300	300	0	0	15077	line	0	-8,59375pct	schlau	freundlich	ehrlich	spielen	schön	treu	schroff	fanatisch	eitel	strafen	schlecht	tot	retten	helfen	tolerant	loyal	fair	lachen	rächen	hindern	tyrannisch	lasch	faul	leiden	1		-8	1	Wie angenehm oder unangenehm finden Sie die  Buchstabenkette ZGVK?	-8	1		-8	1		-8	1		-8	1	Unangenehm	-8	1	Angenehm	-8	0	0	0	0	0	0	0	0	0
2024-06-05	11:37:08	11:48:46	697553	6.6.1	4_exp_EVA_AWA_CON	67	B	A	Rpleas_acq	Same	Rpleas	2pleas	EvalRating_lastfour	EvalRating_lastfour	7	1	0	0	300	300	0	0	2833	line	0	-37,890625pct	schlau	freundlich	ehrlich	spielen	schön	treu	schroff	fanatisch	eitel	strafen	schlecht	tot	retten	helfen	tolerant	loyal	fair	lachen	rächen	hindern	tyrannisch	lasch	faul	leiden	1		-8	2	Wie angenehm oder unangenehm finden Sie die  Buchstabenkette GKQX?	-8	1		-8	1		-8	1		-8	1	Unangenehm	-8	1	Angenehm	-8	0	0	0	0	0	0	0	0	0
2024-06-05	11:37:08	11:48:49	699924	6.6.1	4_exp_EVA_AWA_CON	67	B	A	Rpleas_acq	Same	Rpleas	2pleas	blank_screen	EvalRating_lastfour	7	3	0	0	300	300	0	0	0	0	0	-37,890625pct	schlau	freundlich	ehrlich	spielen	schön	treu	schroff	fanatisch	eitel	strafen	schlecht	tot	retten	helfen	tolerant	loyal	fair	lachen	rächen	hindern	tyrannisch	lasch	faul	leiden	1		-8	0	0	0	0	0	0	0	0	0	0	0	0	0	0	0	0	0	0	0	0	0	0	0	0	0	0	0
2024-06-05	11:37:08	11:48:55	706112	6.6.1	4_exp_EVA_AWA_CON	67	B	A	Rpleas_acq	Same	Rpleas	2pleas	EvalRating_lastfour	EvalRating_lastfour	7	4	0	0	300	300	0	0	5600	line	0	-18,2291666666666571928pct	schlau	freundlich	ehrlich	spielen	schön	treu	schroff	fanatisch	eitel	strafen	schlecht	tot	retten	helfen	tolerant	loyal	fair	lachen	rächen	hindern	tyrannisch	lasch	faul	leiden	1		-8	1	Wie angenehm oder unangenehm finden Sie die  Buchstabenkette BMVZ?	-8	1		-8	1		-8	1		-8	1	Unangenehm	-8	1	Angenehm	-8	0	0	0	0	0	0	0	0	0
2024-06-05	11:37:08	11:48:57	708480	6.6.1	4_exp_EVA_AWA_CON	67	B	A	Rpleas_acq	Same	Rpleas	2pleas	blank_screen	EvalRating_lastfour	7	6	0	0	300	300	0	0	0	0	0	-18,2291666666666571928pct	schlau	freundlich	ehrlich	spielen	schön	treu	schroff	fanatisch	eitel	strafen	schlecht	tot	retten	helfen	tolerant	loyal	fair	lachen	rächen	hindern	tyrannisch	lasch	faul	leiden	1		-8	0	0	0	0	0	0	0	0	0	0	0	0	0	0	0	0	0	0	0	0	0	0	0	0	0	0	0
2024-06-05	11:37:08	11:49:05	715841	6.6.1	4_exp_EVA_AWA_CON	67	B	A	Rpleas_acq	Same	Rpleas	2pleas	EvalRating_lastfour	EvalRating_lastfour	7	7	0	0	300	300	0	0	6772	line	0	-23,6979166666666571928pct	schlau	freundlich	ehrlich	spielen	schön	treu	schroff	fanatisch	eitel	strafen	schlecht	tot	retten	helfen	tolerant	loyal	fair	lachen	rächen	hindern	tyrannisch	lasch	faul	leiden	1		-7	3	Wie angenehm oder unangenehm finden Sie die  Buchstabenkette XBQM?	-7	1		-7	1		-7	1		-7	1	Unangenehm	-7	1	Angenehm	-7	0	0	0	0	0	0	0	0	0
2024-06-05	11:37:08	11:50:06	777773	6.6.1	4_exp_EVA_AWA_CON	67	B	A	Rpleas_acq	Same	Rpleas	2pleas	conawa_CS2_US3	conawa1_nomask	8	1	0	0	300	300	0	0	9391	eitel	1	-23,6979166666666571928pct	schlau	freundlich	ehrlich	spielen	schön	treu	schroff	fanatisch	eitel	strafen	schlecht	tot	retten	helfen	tolerant	loyal	fair	lachen	rächen	hindern	tyrannisch	lasch	faul	leiden	0	0	0	0	0	0	0	0	0	0	0	0	0	0	0	0	0	0	0	0	0	0	0	0	0	0	0	0	0	0
2024-06-05	11:37:08	11:50:06	777775	6.6.1	4_exp_EVA_AWA_CON	67	B	A	Rpleas_acq	Same	Rpleas	2pleas	conawa_CS2_US3_confidence	conawa1_nomask	8	1	0	0	300	300	0	0	9391	guess	1	-23,6979166666666571928pct	schlau	freundlich	ehrlich	spielen	schön	treu	schroff	fanatisch	eitel	strafen	schlecht	tot	retten	helfen	tolerant	loyal	fair	lachen	rächen	hindern	tyrannisch	lasch	faul	leiden	0	0	0	0	0	0	0	0	0	0	0	0	0	0	0	0	0	0	0	0	0	0	0	0	0	0	0	0	0	0
2024-06-05	11:37:08	11:50:15	786258	6.6.1	4_exp_EVA_AWA_CON	67	B	A	Rpleas_acq	Same	Rpleas	2pleas	conawa_CS1_US2	conawa1_nomask	8	2	0	0	300	300	0	0	7867	freundlich	1	-23,6979166666666571928pct	schlau	freundlich	ehrlich	spielen	schön	treu	schroff	fanatisch	eitel	strafen	schlecht	tot	retten	helfen	tolerant	loyal	fair	lachen	rächen	hindern	tyrannisch	lasch	faul	leiden	0	0	0	0	0	0	0	0	0	0	0	0	0	0	0	0	0	0	0	0	0	0	0	0	0	0	0	0	0	0
2024-06-05	11:37:08	11:50:15	786260	6.6.1	4_exp_EVA_AWA_CON	67	B	A	Rpleas_acq	Same	Rpleas	2pleas	conawa_CS1_US2_confidence	conawa1_nomask	8	2	0	0	300	300	0	0	7867	guess	1	-23,6979166666666571928pct	schlau	freundlich	ehrlich	spielen	schön	treu	schroff	fanatisch	eitel	strafen	schlecht	tot	retten	helfen	tolerant	loyal	fair	lachen	rächen	hindern	tyrannisch	lasch	faul	leiden	0	0	0	0	0	0	0	0	0	0	0	0	0	0	0	0	0	0	0	0	0	0	0	0	0	0	0	0	0	0
2024-06-05	11:37:08	11:50:24	795465	6.6.1	4_exp_EVA_AWA_CON	67	B	A	Rpleas_acq	Same	Rpleas	2pleas	conawa_CS1_US3	conawa1_nomask	8	3	0	0	300	300	0	0	8592	tyrannisch	1	-23,6979166666666571928pct	schlau	freundlich	ehrlich	spielen	schön	treu	schroff	fanatisch	eitel	strafen	schlecht	tot	retten	helfen	tolerant	loyal	fair	lachen	rächen	hindern	tyrannisch	lasch	faul	leiden	0	0	0	0	0	0	0	0	0	0	0	0	0	0	0	0	0	0	0	0	0	0	0	0	0	0	0	0	0	0
2024-06-05	11:37:08	11:50:24	795466	6.6.1	4_exp_EVA_AWA_CON	67	B	A	Rpleas_acq	Same	Rpleas	2pleas	conawa_CS1_US3_confidence	conawa1_nomask	8	3	0	0	300	300	0	0	8592	guess	1	-23,6979166666666571928pct	schlau	freundlich	ehrlich	spielen	schön	treu	schroff	fanatisch	eitel	strafen	schlecht	tot	retten	helfen	tolerant	loyal	fair	lachen	rächen	hindern	tyrannisch	lasch	faul	leiden	0	0	0	0	0	0	0	0	0	0	0	0	0	0	0	0	0	0	0	0	0	0	0	0	0	0	0	0	0	0
2024-06-05	11:37:08	11:50:31	802729	6.6.1	4_exp_EVA_AWA_CON	67	B	A	Rpleas_acq	Same	Rpleas	2pleas	conawa_CS2_US5	conawa1_nomask	8	4	0	0	300	300	0	0	6650	leiden	1	-23,6979166666666571928pct	schlau	freundlich	ehrlich	spielen	schön	treu	schroff	fanatisch	eitel	strafen	schlecht	tot	retten	helfen	tolerant	loyal	fair	lachen	rächen	hindern	tyrannisch	lasch	faul	leiden	0	0	0	0	0	0	0	0	0	0	0	0	0	0	0	0	0	0	0	0	0	0	0	0	0	0	0	0	0	0
2024-06-05	11:37:08	11:50:31	802731	6.6.1	4_exp_EVA_AWA_CON	67	B	A	Rpleas_acq	Same	Rpleas	2pleas	conawa_CS2_US5_confidence	conawa1_nomask	8	4	0	0	300	300	0	0	6650	guess	1	-23,6979166666666571928pct	schlau	freundlich	ehrlich	spielen	schön	treu	schroff	fanatisch	eitel	strafen	schlecht	tot	retten	helfen	tolerant	loyal	fair	lachen	rächen	hindern	tyrannisch	lasch	faul	leiden	0	0	0	0	0	0	0	0	0	0	0	0	0	0	0	0	0	0	0	0	0	0	0	0	0	0	0	0	0	0
2024-06-05	11:37:08	11:50:39	810044	6.6.1	4_exp_EVA_AWA_CON	67	B	A	Rpleas_acq	Same	Rpleas	2pleas	conawa_CS1_US1	conawa1_nomask	8	5	0	0	300	300	0	0	6698	schroff	1	-23,6979166666666571928pct	schlau	freundlich	ehrlich	spielen	schön	treu	schroff	fanatisch	eitel	strafen	schlecht	tot	retten	helfen	tolerant	loyal	fair	lachen	rächen	hindern	tyrannisch	lasch	faul	leiden	0	0	0	0	0	0	0	0	0	0	0	0	0	0	0	0	0	0	0	0	0	0	0	0	0	0	0	0	0	0
2024-06-05	11:37:08	11:50:39	810046	6.6.1	4_exp_EVA_AWA_CON	67	B	A	Rpleas_acq	Same	Rpleas	2pleas	conawa_CS1_US1_confidence	conawa1_nomask	8	5	0	0	300	300	0	0	6698	guess	1	-23,6979166666666571928pct	schlau	freundlich	ehrlich	spielen	schön	treu	schroff	fanatisch	eitel	strafen	schlecht	tot	retten	helfen	tolerant	loyal	fair	lachen	rächen	hindern	tyrannisch	lasch	faul	leiden	0	0	0	0	0	0	0	0	0	0	0	0	0	0	0	0	0	0	0	0	0	0	0	0	0	0	0	0	0	0
2024-06-05	11:37:08	11:50:47	818150	6.6.1	4_exp_EVA_AWA_CON	67	B	A	Rpleas_acq	Same	Rpleas	2pleas	conawa_CS1_US6	conawa1_nomask	8	6	0	0	300	300	0	0	7488	lachen	1	-23,6979166666666571928pct	schlau	freundlich	ehrlich	spielen	schön	treu	schroff	fanatisch	eitel	strafen	schlecht	tot	retten	helfen	tolerant	loyal	fair	lachen	rächen	hindern	tyrannisch	lasch	faul	leiden	0	0	0	0	0	0	0	0	0	0	0	0	0	0	0	0	0	0	0	0	0	0	0	0	0	0	0	0	0	0
2024-06-05	11:37:08	11:50:47	818151	6.6.1	4_exp_EVA_AWA_CON	67	B	A	Rpleas_acq	Same	Rpleas	2pleas	conawa_CS1_US6_confidence	conawa1_nomask	8	6	0	0	300	300	0	0	7488	guess	1	-23,6979166666666571928pct	schlau	freundlich	ehrlich	spielen	schön	treu	schroff	fanatisch	eitel	strafen	schlecht	tot	retten	helfen	tolerant	loyal	fair	lachen	rächen	hindern	tyrannisch	lasch	faul	leiden	0	0	0	0	0	0	0	0	0	0	0	0	0	0	0	0	0	0	0	0	0	0	0	0	0	0	0	0	0	0
2024-06-05	11:37:08	11:50:53	824013	6.6.1	4_exp_EVA_AWA_CON	67	B	A	Rpleas_acq	Same	Rpleas	2pleas	conawa_CS2_US6	conawa1_nomask	8	7	0	0	300	300	0	0	5246	rächen	1	-23,6979166666666571928pct	schlau	freundlich	ehrlich	spielen	schön	treu	schroff	fanatisch	eitel	strafen	schlecht	tot	retten	helfen	tolerant	loyal	fair	lachen	rächen	hindern	tyrannisch	lasch	faul	leiden	0	0	0	0	0	0	0	0	0	0	0	0	0	0	0	0	0	0	0	0	0	0	0	0	0	0	0	0	0	0
2024-06-05	11:37:08	11:50:53	824015	6.6.1	4_exp_EVA_AWA_CON	67	B	A	Rpleas_acq	Same	Rpleas	2pleas	conawa_CS2_US6_confidence	conawa1_nomask	8	7	0	0	300	300	0	0	5246	guess	1	-23,6979166666666571928pct	schlau	freundlich	ehrlich	spielen	schön	treu	schroff	fanatisch	eitel	strafen	schlecht	tot	retten	helfen	tolerant	loyal	fair	lachen	rächen	hindern	tyrannisch	lasch	faul	leiden	0	0	0	0	0	0	0	0	0	0	0	0	0	0	0	0	0	0	0	0	0	0	0	0	0	0	0	0	0	0
2024-06-05	11:37:08	11:50:59	830347	6.6.1	4_exp_EVA_AWA_CON	67	B	A	Rpleas_acq	Same	Rpleas	2pleas	conawa_CS2_US2	conawa1_nomask	8	8	0	0	300	300	0	0	5718	fanatisch	1	-23,6979166666666571928pct	schlau	freundlich	ehrlich	spielen	schön	treu	schroff	fanatisch	eitel	strafen	schlecht	tot	retten	helfen	tolerant	loyal	fair	lachen	rächen	hindern	tyrannisch	lasch	faul	leiden	0	0	0	0	0	0	0	0	0	0	0	0	0	0	0	0	0	0	0	0	0	0	0	0	0	0	0	0	0	0
2024-06-05	11:37:08	11:50:59	830349	6.6.1	4_exp_EVA_AWA_CON	67	B	A	Rpleas_acq	Same	Rpleas	2pleas	conawa_CS2_US2_confidence	conawa1_nomask	8	8	0	0	300	300	0	0	5718	guess	1	-23,6979166666666571928pct	schlau	freundlich	ehrlich	spielen	schön	treu	schroff	fanatisch	eitel	strafen	schlecht	tot	retten	helfen	tolerant	loyal	fair	lachen	rächen	hindern	tyrannisch	lasch	faul	leiden	0	0	0	0	0	0	0	0	0	0	0	0	0	0	0	0	0	0	0	0	0	0	0	0	0	0	0	0	0	0
2024-06-05	11:37:08	11:51:05	836401	6.6.1	4_exp_EVA_AWA_CON	67	B	A	Rpleas_acq	Same	Rpleas	2pleas	conawa_CS1_US4	conawa1_nomask	8	9	0	0	300	300	0	0	5439	spielen	1	-23,6979166666666571928pct	schlau	freundlich	ehrlich	spielen	schön	treu	schroff	fanatisch	eitel	strafen	schlecht	tot	retten	helfen	tolerant	loyal	fair	lachen	rächen	hindern	tyrannisch	lasch	faul	leiden	0	0	0	0	0	0	0	0	0	0	0	0	0	0	0	0	0	0	0	0	0	0	0	0	0	0	0	0	0	0
2024-06-05	11:37:08	11:51:05	836404	6.6.1	4_exp_EVA_AWA_CON	67	B	A	Rpleas_acq	Same	Rpleas	2pleas	conawa_CS1_US4_confidence	conawa1_nomask	8	9	0	0	300	300	0	0	5439	guess	1	-23,6979166666666571928pct	schlau	freundlich	ehrlich	spielen	schön	treu	schroff	fanatisch	eitel	strafen	schlecht	tot	retten	helfen	tolerant	loyal	fair	lachen	rächen	hindern	tyrannisch	lasch	faul	leiden	0	0	0	0	0	0	0	0	0	0	0	0	0	0	0	0	0	0	0	0	0	0	0	0	0	0	0	0	0	0
2024-06-05	11:37:08	11:51:10	841235	6.6.1	4_exp_EVA_AWA_CON	67	B	A	Rpleas_acq	Same	Rpleas	2pleas	conawa_CS2_US1	conawa1_nomask	8	10	0	0	300	300	0	0	4219	schroff	1	-23,6979166666666571928pct	schlau	freundlich	ehrlich	spielen	schön	treu	schroff	fanatisch	eitel	strafen	schlecht	tot	retten	helfen	tolerant	loyal	fair	lachen	rächen	hindern	tyrannisch	lasch	faul	leiden	0	0	0	0	0	0	0	0	0	0	0	0	0	0	0	0	0	0	0	0	0	0	0	0	0	0	0	0	0	0
2024-06-05	11:37:08	11:51:10	841236	6.6.1	4_exp_EVA_AWA_CON	67	B	A	Rpleas_acq	Same	Rpleas	2pleas	conawa_CS2_US1_confidence	conawa1_nomask	8	10	0	0	300	300	0	0	4219	guess	1	-23,6979166666666571928pct	schlau	freundlich	ehrlich	spielen	schön	treu	schroff	fanatisch	eitel	strafen	schlecht	tot	retten	helfen	tolerant	loyal	fair	lachen	rächen	hindern	tyrannisch	lasch	faul	leiden	0	0	0	0	0	0	0	0	0	0	0	0	0	0	0	0	0	0	0	0	0	0	0	0	0	0	0	0	0	0
2024-06-05	11:37:08	11:51:18	849080	6.6.1	4_exp_EVA_AWA_CON	67	B	A	Rpleas_acq	Same	Rpleas	2pleas	conawa_CS1_US5	conawa1_nomask	8	11	0	0	300	300	0	0	7233	faul	1	-23,6979166666666571928pct	schlau	freundlich	ehrlich	spielen	schön	treu	schroff	fanatisch	eitel	strafen	schlecht	tot	retten	helfen	tolerant	loyal	fair	lachen	rächen	hindern	tyrannisch	lasch	faul	leiden	0	0	0	0	0	0	0	0	0	0	0	0	0	0	0	0	0	0	0	0	0	0	0	0	0	0	0	0	0	0
2024-06-05	11:37:08	11:51:18	849082	6.6.1	4_exp_EVA_AWA_CON	67	B	A	Rpleas_acq	Same	Rpleas	2pleas	conawa_CS1_US5_confidence	conawa1_nomask	8	11	0	0	300	300	0	0	7233	guess	1	-23,6979166666666571928pct	schlau	freundlich	ehrlich	spielen	schön	treu	schroff	fanatisch	eitel	strafen	schlecht	tot	retten	helfen	tolerant	loyal	fair	lachen	rächen	hindern	tyrannisch	lasch	faul	leiden	0	0	0	0	0	0	0	0	0	0	0	0	0	0	0	0	0	0	0	0	0	0	0	0	0	0	0	0	0	0
2024-06-05	11:37:08	11:51:23	854153	6.6.1	4_exp_EVA_AWA_CON	67	B	A	Rpleas_acq	Same	Rpleas	2pleas	conawa_CS2_US4	conawa1_nomask	8	12	0	0	300	300	0	0	4459	strafen	1	-23,6979166666666571928pct	schlau	freundlich	ehrlich	spielen	schön	treu	schroff	fanatisch	eitel	strafen	schlecht	tot	retten	helfen	tolerant	loyal	fair	lachen	rächen	hindern	tyrannisch	lasch	faul	leiden	0	0	0	0	0	0	0	0	0	0	0	0	0	0	0	0	0	0	0	0	0	0	0	0	0	0	0	0	0	0
2024-06-05	11:37:08	11:51:23	854155	6.6.1	4_exp_EVA_AWA_CON	67	B	A	Rpleas_acq	Same	Rpleas	2pleas	conawa_CS2_US4_confidence	conawa1_nomask	8	12	0	0	300	300	0	0	4459	guess	1	-23,6979166666666571928pct	schlau	freundlich	ehrlich	spielen	schön	treu	schroff	fanatisch	eitel	strafen	schlecht	tot	retten	helfen	tolerant	loyal	fair	lachen	rächen	hindern	tyrannisch	lasch	faul	leiden	0	0	0	0	0	0	0	0	0	0	0	0	0	0	0	0	0	0	0	0	0	0	0	0	0	0	0	0	0	0
2024-06-05	11:37:08	11:52:57	948668	6.6.1	4_exp_EVA_AWA_CON	67	B	A	Rpleas_acq	Same	Rpleas	2pleas	cond_new_pleas_456_nomask_CS2	condtest_nomask_1	11	1	400	0	300	300	0	0	4826	46	0	-23,6979166666666571928pct	schlau	freundlich	ehrlich	spielen	schön	treu	schroff	fanatisch	eitel	strafen	schlecht	tot	retten	helfen	tolerant	loyal	fair	lachen	rächen	hindern	tyrannisch	lasch	faul	leiden	1	blank2r.bmp	0	1	+	0	1	blank2r.bmp	500	1	GKQX	500	1	blank2r.bmp	880	1	lachen	880	1	!	1233	1	!	-1	0	0	0	0	0	0
2024-06-05	11:37:08	11:53:00	950964	6.6.1	4_exp_EVA_AWA_CON	67	B	A	Rpleas_acq	Same	Rpleas	2pleas	cond_US_unple_123_nomask_CS2	condtest_nomask_1	11	2	400	0	300	300	0	0	517	46	1	-23,6979166666666571928pct	schlau	freundlich	ehrlich	spielen	schön	treu	schroff	fanatisch	eitel	strafen	schlecht	tot	retten	helfen	tolerant	loyal	fair	lachen	rächen	hindern	tyrannisch	lasch	faul	leiden	1	blank2r.bmp	0	1	+	0	1	blank2r.bmp	500	1	GKQX	500	1	blank2r.bmp	880	1	eitel	880	1	!	1232	1	!	-1	0	0	0	0	0	0
2024-06-05	11:37:08	11:53:02	953068	6.6.1	4_exp_EVA_AWA_CON	67	B	A	Rpleas_acq	Same	Rpleas	2pleas	cond_US_pleas_123_nomask_CS2	condtest_nomask_1	11	3	400	0	300	300	0	0	330	50	1	-23,6979166666666571928pct	schlau	freundlich	ehrlich	spielen	schön	treu	schroff	fanatisch	eitel	strafen	schlecht	tot	retten	helfen	tolerant	loyal	fair	lachen	rächen	hindern	tyrannisch	lasch	faul	leiden	1	blank2r.bmp	0	1	+	0	1	blank2r.bmp	500	1	GKQX	500	1	blank2r.bmp	880	3	freundlich	880	1	!	-1	1	!	-1	0	0	0	0	0	0
2024-06-05	11:37:08	11:53:04	955293	6.6.1	4_exp_EVA_AWA_CON	67	B	A	Rpleas_acq	Same	Rpleas	2pleas	cond_US_pleas_123_nomask_CS1	condtest_nomask_1	11	4	400	1	300	300	0	0	442	50	1	-23,6979166666666571928pct	schlau	freundlich	ehrlich	spielen	schön	treu	schroff	fanatisch	eitel	strafen	schlecht	tot	retten	helfen	tolerant	loyal	fair	lachen	rächen	hindern	tyrannisch	lasch	faul	leiden	1	blank2r.bmp	0	1	+	0	1	blank2r.bmp	500	1	BMVZ	500	1	blank2r.bmp	880	3	ehrlich	880	1	!	1232	1	!	1344	0	0	0	0	0	0
2024-06-05	11:37:08	11:53:06	957469	6.6.1	4_exp_EVA_AWA_CON	67	B	A	Rpleas_acq	Same	Rpleas	2pleas	cond_US_unple_123_nomask_CS1	condtest_nomask_1	11	5	400	1	300	300	0	0	397	46	1	-23,6979166666666571928pct	schlau	freundlich	ehrlich	spielen	schön	treu	schroff	fanatisch	eitel	strafen	schlecht	tot	retten	helfen	tolerant	loyal	fair	lachen	rächen	hindern	tyrannisch	lasch	faul	leiden	1	blank2r.bmp	0	1	+	0	1	blank2r.bmp	500	1	BMVZ	500	1	blank2r.bmp	880	1	schroff	880	1	!	1232	1	!	1298	0	0	0	0	0	0
2024-06-05	11:37:08	11:53:08	959661	6.6.1	4_exp_EVA_AWA_CON	67	B	A	Rpleas_acq	Same	Rpleas	2pleas	cond_new_unple_456_nomask_CS2	condtest_nomask_1	11	6	400	1	300	300	0	0	418	46	1	-23,6979166666666571928pct	schlau	freundlich	ehrlich	spielen	schön	treu	schroff	fanatisch	eitel	strafen	schlecht	tot	retten	helfen	tolerant	loyal	fair	lachen	rächen	hindern	tyrannisch	lasch	faul	leiden	1	blank2r.bmp	0	1	+	0	1	blank2r.bmp	500	1	GKQX	500	1	blank2r.bmp	880	3	faul	880	1	!	1232	1	!	1319	0	0	0	0	0	0
2024-06-05	11:37:08	11:53:10	961806	6.6.1	4_exp_EVA_AWA_CON	67	B	A	Rpleas_acq	Same	Rpleas	2pleas	cond_new_unple_456_nomask_CS1	condtest_nomask_1	11	7	400	1	300	300	0	0	360	50	0	-23,6979166666666571928pct	schlau	freundlich	ehrlich	spielen	schön	treu	schroff	fanatisch	eitel	strafen	schlecht	tot	retten	helfen	tolerant	loyal	fair	lachen	rächen	hindern	tyrannisch	lasch	faul	leiden	1	blank2r.bmp	0	1	+	0	1	blank2r.bmp	500	1	BMVZ	500	1	blank2r.bmp	880	3	leiden	880	1	!	1232	1	!	1262	0	0	0	0	0	0
2024-06-05	11:37:08	11:53:13	964021	6.6.1	4_exp_EVA_AWA_CON	67	B	A	Rpleas_acq	Same	Rpleas	2pleas	cond_new_pleas_456_nomask_CS1	condtest_nomask_1	11	8	400	1	300	300	0	0	435	46	0	-23,6979166666666571928pct	schlau	freundlich	ehrlich	spielen	schön	treu	schroff	fanatisch	eitel	strafen	schlecht	tot	retten	helfen	tolerant	loyal	fair	lachen	rächen	hindern	tyrannisch	lasch	faul	leiden	1	blank2r.bmp	0	1	+	0	1	blank2r.bmp	500	1	BMVZ	500	1	blank2r.bmp	880	1	loyal	880	1	!	1233	1	!	1336	0	0	0	0	0	0
2024-06-05	11:37:08	11:53:26	977677	6.6.1	4_exp_EVA_AWA_CON	67	B	A	Rpleas_acq	Same	Rpleas	2pleas	cond_new_pleas_456_nomask_CS1	condtest_nomask_2	12	1	400	1	300	300	0	0	432	50	1	-23,6979166666666571928pct	schlau	freundlich	ehrlich	spielen	schön	treu	schroff	fanatisch	eitel	strafen	schlecht	tot	retten	helfen	tolerant	loyal	fair	lachen	rächen	hindern	tyrannisch	lasch	faul	leiden	1	blank2r.bmp	0	1	+	0	1	blank2r.bmp	500	1	BMVZ	500	1	blank2r.bmp	880	2	fair	880	1	!	1232	1	!	1333	0	0	0	0	0	0
