date	time	currenttime	elapsedtime	build	currentexpt	subject	CS_AB	US_AB	LRpleas_acq	SameOppo	condition_Lpleas	condition_1pleas	trialcode	blockcode	blocknum	trialnum	windowcenter	inwindow	pretrialpause	posttrialpause	trialduration	trialtimeout	latency	response	correct	correctedscore	US_nomask_pleas1	US_nomask_pleas2	US_nomask_pleas3	US_nomask_pleas4	US_nomask_pleas5	US_nomask_pleas6	US_nomask_unple1	US_nomask_unple2	US_nomask_unple3	US_nomask_unple4	US_nomask_unple5	US_nomask_unple6	new_nomask_pleas1	new_nomask_pleas2	new_nomask_pleas3	new_nomask_pleas4	new_nomask_pleas5	new_nomask_pleas6	new_nomask_unple1	new_nomask_unple2	new_nomask_unple3	new_nomask_unple4	new_nomask_unple5	new_nomask_unple6	stimulusnumber1	stimulusitem1	stimulusonset1	stimulusnumber2	stimulusitem2	stimulusonset2	stimulusnumber3	stimulusitem3	stimulusonset3	stimulusnumber4	stimulusitem4	stimulusonset4	stimulusnumber5	stimulusitem5	stimulusonset5	stimulusnumber6	stimulusitem6	stimulusonset6	stimulusnumber7	stimulusitem7	stimulusonset7	stimulusnumber8	stimulusitem8	stimulusonset8	stimulusnumber9	stimulusitem9	stimulusonset9	stimulusnumber10	stimulusitem10	stimulusonset10
2024-06-05	11:43:20	11:45:09	108519	6.6.1	4_exp_EVA_AWA_CON	69	B	A	Rpleas_acq	Same	Rpleas	1pleas	acq_US_pleas_nomask	acq1_nomask	1	1	0	0	300	300	0	0	1741	50	1	0	retten	treu	spielen	freundlich	schlau	lachen	rächen	tot	strafen	fanatisch	schroff	leiden	helfen	loyal	tolerant	ehrlich	fair	schön	hindern	lasch	tyrannisch	eitel	faul	schlecht	1	blank2r.bmp	0	1	+	0	1	blank2r.bmp	500	1	BMVZ	500	1	blank2r.bmp	880	6	lachen	880	0	0	0	0	0	0	0	0	0	0	0	0
2024-06-05	11:43:20	11:45:11	111134	6.6.1	4_exp_EVA_AWA_CON	69	B	A	Rpleas_acq	Same	Rpleas	1pleas	acq_new_unple_nomask	acq1_nomask	1	2	0	0	300	300	0	0	1134	46	1	0	retten	treu	spielen	freundlich	schlau	lachen	rächen	tot	strafen	fanatisch	schroff	leiden	helfen	loyal	tolerant	ehrlich	fair	schön	hindern	lasch	tyrannisch	eitel	faul	schlecht	1	blank2r.bmp	0	1	+	0	1	blank2r.bmp	500	4	B4r.bmp	500	1	blank2r.bmp	880	5	faul	880	0	0	0	0	0	0	0	0	0	0	0	0
2024-06-05	11:43:20	11:45:14	113726	6.6.1	4_exp_EVA_AWA_CON	69	B	A	Rpleas_acq	Same	Rpleas	1pleas	acq_US_unple_nomask	acq1_nomask	1	3	0	0	300	300	0	0	1105	46	1	0	retten	treu	spielen	freundlich	schlau	lachen	rächen	tot	strafen	fanatisch	schroff	leiden	helfen	loyal	tolerant	ehrlich	fair	schön	hindern	lasch	tyrannisch	eitel	faul	schlecht	1	blank2r.bmp	0	1	+	0	1	blank2r.bmp	500	1	GKQX	500	1	blank2r.bmp	880	4	fanatisch	880	0	0	0	0	0	0	0	0	0	0	0	0
2024-06-05	11:43:20	11:45:16	115990	6.6.1	4_exp_EVA_AWA_CON	69	B	A	Rpleas_acq	Same	Rpleas	1pleas	acq_new_pleas_nomask	acq1_nomask	1	4	0	0	300	300	0	0	777	50	1	0	retten	treu	spielen	freundlich	schlau	lachen	rächen	tot	strafen	fanatisch	schroff	leiden	helfen	loyal	tolerant	ehrlich	fair	schön	hindern	lasch	tyrannisch	eitel	faul	schlecht	1	blank2r.bmp	0	1	+	0	1	blank2r.bmp	500	8	C4r.bmp	500	1	blank2r.bmp	880	2	loyal	880	0	0	0	0	0	0	0	0	0	0	0	0
2024-06-05	11:43:20	11:45:18	118182	6.6.1	4_exp_EVA_AWA_CON	69	B	A	Rpleas_acq	Same	Rpleas	1pleas	acq_US_unple_nomask	acq1_nomask	1	5	0	0	300	300	0	0	708	46	1	0	retten	treu	spielen	freundlich	schlau	lachen	rächen	tot	strafen	fanatisch	schroff	leiden	helfen	loyal	tolerant	ehrlich	fair	schön	hindern	lasch	tyrannisch	eitel	faul	schlecht	1	blank2r.bmp	0	1	+	0	1	blank2r.bmp	500	1	GKQX	500	1	blank2r.bmp	880	6	leiden	880	0	0	0	0	0	0	0	0	0	0	0	0
2024-06-05	11:43:20	11:45:20	120270	6.6.1	4_exp_EVA_AWA_CON	69	B	A	Rpleas_acq	Same	Rpleas	1pleas	acq_new_unple_nomask	acq1_nomask	1	6	0	0	300	300	0	0	604	46	1	0	retten	treu	spielen	freundlich	schlau	lachen	rächen	tot	strafen	fanatisch	schroff	leiden	helfen	loyal	tolerant	ehrlich	fair	schön	hindern	lasch	tyrannisch	eitel	faul	schlecht	1	blank2r.bmp	0	1	+	0	1	blank2r.bmp	500	2	B2r.bmp	500	1	blank2r.bmp	880	1	hindern	880	0	0	0	0	0	0	0	0	0	0	0	0
2024-06-05	11:43:20	11:45:22	122374	6.6.1	4_exp_EVA_AWA_CON	69	B	A	Rpleas_acq	Same	Rpleas	1pleas	acq_US_pleas_nomask	acq1_nomask	1	7	0	0	300	300	0	0	617	50	1	0	retten	treu	spielen	freundlich	schlau	lachen	rächen	tot	strafen	fanatisch	schroff	leiden	helfen	loyal	tolerant	ehrlich	fair	schön	hindern	lasch	tyrannisch	eitel	faul	schlecht	1	blank2r.bmp	0	1	+	0	1	blank2r.bmp	500	1	BMVZ	500	1	blank2r.bmp	880	3	spielen	880	0	0	0	0	0	0	0	0	0	0	0	0
2024-06-05	11:43:20	11:45:24	124494	6.6.1	4_exp_EVA_AWA_CON	69	B	A	Rpleas_acq	Same	Rpleas	1pleas	acq_new_unple_nomask	acq1_nomask	1	8	0	0	300	300	0	0	635	46	1	0	retten	treu	spielen	freundlich	schlau	lachen	rächen	tot	strafen	fanatisch	schroff	leiden	helfen	loyal	tolerant	ehrlich	fair	schön	hindern	lasch	tyrannisch	eitel	faul	schlecht	1	blank2r.bmp	0	1	+	0	1	blank2r.bmp	500	6	C2r.bmp	500	1	blank2r.bmp	880	6	schlecht	880	0	0	0	0	0	0	0	0	0	0	0	0
2024-06-05	11:43:20	11:45:27	126582	6.6.1	4_exp_EVA_AWA_CON	69	B	A	Rpleas_acq	Same	Rpleas	1pleas	acq_US_unple_nomask	acq1_nomask	1	9	0	0	300	300	0	0	602	46	1	0	retten	treu	spielen	freundlich	schlau	lachen	rächen	tot	strafen	fanatisch	schroff	leiden	helfen	loyal	tolerant	ehrlich	fair	schön	hindern	lasch	tyrannisch	eitel	faul	schlecht	1	blank2r.bmp	0	1	+	0	1	blank2r.bmp	500	1	GKQX	500	1	blank2r.bmp	880	5	schroff	880	0	0	0	0	0	0	0	0	0	0	0	0
2024-06-05	11:43:20	11:45:29	128734	6.6.1	4_exp_EVA_AWA_CON	69	B	A	Rpleas_acq	Same	Rpleas	1pleas	acq_new_pleas_nomask	acq1_nomask	1	10	0	0	300	300	0	0	663	50	1	0	retten	treu	spielen	freundlich	schlau	lachen	rächen	tot	strafen	fanatisch	schroff	leiden	helfen	loyal	tolerant	ehrlich	fair	schön	hindern	lasch	tyrannisch	eitel	faul	schlecht	1	blank2r.bmp	0	1	+	0	1	blank2r.bmp	500	5	C1r.bmp	500	1	blank2r.bmp	880	6	schön	880	0	0	0	0	0	0	0	0	0	0	0	0
2024-06-05	11:43:20	11:45:31	130830	6.6.1	4_exp_EVA_AWA_CON	69	B	A	Rpleas_acq	Same	Rpleas	1pleas	acq_new_pleas_nomask	acq1_nomask	1	11	0	0	300	300	0	0	607	50	1	0	retten	treu	spielen	freundlich	schlau	lachen	rächen	tot	strafen	fanatisch	schroff	leiden	helfen	loyal	tolerant	ehrlich	fair	schön	hindern	lasch	tyrannisch	eitel	faul	schlecht	1	blank2r.bmp	0	1	+	0	1	blank2r.bmp	500	1	B1r.bmp	500	1	blank2r.bmp	880	5	fair	880	0	0	0	0	0	0	0	0	0	0	0	0
2024-06-05	11:43:20	11:45:33	133272	6.6.1	4_exp_EVA_AWA_CON	69	B	A	Rpleas_acq	Same	Rpleas	1pleas	acq_US_pleas_nomask	acq1_nomask	1	12	0	0	300	300	0	0	756	46	0	0	retten	treu	spielen	freundlich	schlau	lachen	rächen	tot	strafen	fanatisch	schroff	leiden	helfen	loyal	tolerant	ehrlich	fair	schön	hindern	lasch	tyrannisch	eitel	faul	schlecht	1	blank2r.bmp	0	1	+	0	1	blank2r.bmp	500	1	BMVZ	500	1	blank2r.bmp	880	2	treu	880	1	FEHLER	1658	0	0	0	0	0	0	0	0	0
2024-06-05	11:43:20	11:45:35	135174	6.6.1	4_exp_EVA_AWA_CON	69	B	A	Rpleas_acq	Same	Rpleas	1pleas	acq_US_unple_nomask	acq1_nomask	1	13	0	0	300	300	0	0	619	46	1	0	retten	treu	spielen	freundlich	schlau	lachen	rächen	tot	strafen	fanatisch	schroff	leiden	helfen	loyal	tolerant	ehrlich	fair	schön	hindern	lasch	tyrannisch	eitel	faul	schlecht	1	blank2r.bmp	0	1	+	0	1	blank2r.bmp	500	1	GKQX	500	1	blank2r.bmp	880	1	rächen	880	0	0	0	0	0	0	0	0	0	0	0	0
2024-06-05	11:43:20	11:45:37	137374	6.6.1	4_exp_EVA_AWA_CON	69	B	A	Rpleas_acq	Same	Rpleas	1pleas	acq_US_pleas_nomask	acq1_nomask	1	14	0	0	300	300	0	0	717	50	1	0	retten	treu	spielen	freundlich	schlau	lachen	rächen	tot	strafen	fanatisch	schroff	leiden	helfen	loyal	tolerant	ehrlich	fair	schön	hindern	lasch	tyrannisch	eitel	faul	schlecht	1	blank2r.bmp	0	1	+	0	1	blank2r.bmp	500	1	BMVZ	500	1	blank2r.bmp	880	5	schlau	880	0	0	0	0	0	0	0	0	0	0	0	0
2024-06-05	11:43:20	11:45:39	139446	6.6.1	4_exp_EVA_AWA_CON	69	B	A	Rpleas_acq	Same	Rpleas	1pleas	acq_new_pleas_nomask	acq1_nomask	1	15	0	0	300	300	0	0	588	50	1	0	retten	treu	spielen	freundlich	schlau	lachen	rächen	tot	strafen	fanatisch	schroff	leiden	helfen	loyal	tolerant	ehrlich	fair	schön	hindern	lasch	tyrannisch	eitel	faul	schlecht	1	blank2r.bmp	0	1	+	0	1	blank2r.bmp	500	3	B3r.bmp	500	1	blank2r.bmp	880	1	helfen	880	0	0	0	0	0	0	0	0	0	0	0	0
2024-06-05	11:43:20	11:45:42	141526	6.6.1	4_exp_EVA_AWA_CON	69	B	A	Rpleas_acq	Same	Rpleas	1pleas	acq_US_pleas_nomask	acq1_nomask	1	16	0	0	300	300	0	0	596	50	1	0	retten	treu	spielen	freundlich	schlau	lachen	rächen	tot	strafen	fanatisch	schroff	leiden	helfen	loyal	tolerant	ehrlich	fair	schön	hindern	lasch	tyrannisch	eitel	faul	schlecht	1	blank2r.bmp	0	1	+	0	1	blank2r.bmp	500	1	BMVZ	500	1	blank2r.bmp	880	4	freundlich	880	0	0	0	0	0	0	0	0	0	0	0	0
2024-06-05	11:43:20	11:45:44	143614	6.6.1	4_exp_EVA_AWA_CON	69	B	A	Rpleas_acq	Same	Rpleas	1pleas	acq_US_pleas_nomask	acq1_nomask	1	17	0	0	300	300	0	0	603	50	1	0	retten	treu	spielen	freundlich	schlau	lachen	rächen	tot	strafen	fanatisch	schroff	leiden	helfen	loyal	tolerant	ehrlich	fair	schön	hindern	lasch	tyrannisch	eitel	faul	schlecht	1	blank2r.bmp	0	1	+	0	1	blank2r.bmp	500	1	BMVZ	500	1	blank2r.bmp	880	1	retten	880	0	0	0	0	0	0	0	0	0	0	0	0
2024-06-05	11:43:20	11:45:46	145750	6.6.1	4_exp_EVA_AWA_CON	69	B	A	Rpleas_acq	Same	Rpleas	1pleas	acq_new_pleas_nomask	acq1_nomask	1	18	0	0	300	300	0	0	648	50	1	0	retten	treu	spielen	freundlich	schlau	lachen	rächen	tot	strafen	fanatisch	schroff	leiden	helfen	loyal	tolerant	ehrlich	fair	schön	hindern	lasch	tyrannisch	eitel	faul	schlecht	1	blank2r.bmp	0	1	+	0	1	blank2r.bmp	500	7	C3r.bmp	500	1	blank2r.bmp	880	3	tolerant	880	0	0	0	0	0	0	0	0	0	0	0	0
2024-06-05	11:43:20	11:45:48	148046	6.6.1	4_exp_EVA_AWA_CON	69	B	A	Rpleas_acq	Same	Rpleas	1pleas	acq_new_unple_nomask	acq1_nomask	1	19	0	0	300	300	0	0	812	46	1	0	retten	treu	spielen	freundlich	schlau	lachen	rächen	tot	strafen	fanatisch	schroff	leiden	helfen	loyal	tolerant	ehrlich	fair	schön	hindern	lasch	tyrannisch	eitel	faul	schlecht	1	blank2r.bmp	0	1	+	0	1	blank2r.bmp	500	6	C2r.bmp	500	1	blank2r.bmp	880	4	eitel	880	0	0	0	0	0	0	0	0	0	0	0	0
2024-06-05	11:43:20	11:45:50	150142	6.6.1	4_exp_EVA_AWA_CON	69	B	A	Rpleas_acq	Same	Rpleas	1pleas	acq_new_unple_nomask	acq1_nomask	1	20	0	0	300	300	0	0	607	46	1	0	retten	treu	spielen	freundlich	schlau	lachen	rächen	tot	strafen	fanatisch	schroff	leiden	helfen	loyal	tolerant	ehrlich	fair	schön	hindern	lasch	tyrannisch	eitel	faul	schlecht	1	blank2r.bmp	0	1	+	0	1	blank2r.bmp	500	4	B4r.bmp	500	1	blank2r.bmp	880	3	tyrannisch	880	0	0	0	0	0	0	0	0	0	0	0	0
2024-06-05	11:43:20	11:45:52	152302	6.6.1	4_exp_EVA_AWA_CON	69	B	A	Rpleas_acq	Same	Rpleas	1pleas	acq_new_unple_nomask	acq1_nomask	1	21	0	0	300	300	0	0	675	46	1	0	retten	treu	spielen	freundlich	schlau	lachen	rächen	tot	strafen	fanatisch	schroff	leiden	helfen	loyal	tolerant	ehrlich	fair	schön	hindern	lasch	tyrannisch	eitel	faul	schlecht	1	blank2r.bmp	0	1	+	0	1	blank2r.bmp	500	2	B2r.bmp	500	1	blank2r.bmp	880	2	lasch	880	0	0	0	0	0	0	0	0	0	0	0	0
2024-06-05	11:43:20	11:45:54	154502	6.6.1	4_exp_EVA_AWA_CON	69	B	A	Rpleas_acq	Same	Rpleas	1pleas	acq_new_pleas_nomask	acq1_nomask	1	22	0	0	300	300	0	0	714	50	1	0	retten	treu	spielen	freundlich	schlau	lachen	rächen	tot	strafen	fanatisch	schroff	leiden	helfen	loyal	tolerant	ehrlich	fair	schön	hindern	lasch	tyrannisch	eitel	faul	schlecht	1	blank2r.bmp	0	1	+	0	1	blank2r.bmp	500	5	C1r.bmp	500	1	blank2r.bmp	880	4	ehrlich	880	0	0	0	0	0	0	0	0	0	0	0	0
2024-06-05	11:43:20	11:45:57	156686	6.6.1	4_exp_EVA_AWA_CON	69	B	A	Rpleas_acq	Same	Rpleas	1pleas	acq_US_unple_nomask	acq1_nomask	1	23	0	0	300	300	0	0	696	46	1	0	retten	treu	spielen	freundlich	schlau	lachen	rächen	tot	strafen	fanatisch	schroff	leiden	helfen	loyal	tolerant	ehrlich	fair	schön	hindern	lasch	tyrannisch	eitel	faul	schlecht	1	blank2r.bmp	0	1	+	0	1	blank2r.bmp	500	1	GKQX	500	1	blank2r.bmp	880	2	tot	880	0	0	0	0	0	0	0	0	0	0	0	0
2024-06-05	11:43:20	11:45:59	158742	6.6.1	4_exp_EVA_AWA_CON	69	B	A	Rpleas_acq	Same	Rpleas	1pleas	acq_US_unple_nomask	acq1_nomask	1	24	0	0	300	300	0	0	571	46	1	0	retten	treu	spielen	freundlich	schlau	lachen	rächen	tot	strafen	fanatisch	schroff	leiden	helfen	loyal	tolerant	ehrlich	fair	schön	hindern	lasch	tyrannisch	eitel	faul	schlecht	1	blank2r.bmp	0	1	+	0	1	blank2r.bmp	500	1	GKQX	500	1	blank2r.bmp	880	3	strafen	880	0	0	0	0	0	0	0	0	0	0	0	0
2024-06-05	11:43:20	11:46:01	160910	6.6.1	4_exp_EVA_AWA_CON	69	B	A	Rpleas_acq	Same	Rpleas	1pleas	acq_new_pleas_nomask	acq1_nomask	1	25	0	0	300	300	0	0	678	50	1	0	retten	treu	spielen	freundlich	schlau	lachen	rächen	tot	strafen	fanatisch	schroff	leiden	helfen	loyal	tolerant	ehrlich	fair	schön	hindern	lasch	tyrannisch	eitel	faul	schlecht	1	blank2r.bmp	0	1	+	0	1	blank2r.bmp	500	1	B1r.bmp	500	1	blank2r.bmp	880	2	loyal	880	0	0	0	0	0	0	0	0	0	0	0	0
2024-06-05	11:43:20	11:46:03	163022	6.6.1	4_exp_EVA_AWA_CON	69	B	A	Rpleas_acq	Same	Rpleas	1pleas	acq_US_pleas_nomask	acq1_nomask	1	26	0	0	300	300	0	0	628	50	1	0	retten	treu	spielen	freundlich	schlau	lachen	rächen	tot	strafen	fanatisch	schroff	leiden	helfen	loyal	tolerant	ehrlich	fair	schön	hindern	lasch	tyrannisch	eitel	faul	schlecht	1	blank2r.bmp	0	1	+	0	1	blank2r.bmp	500	1	BMVZ	500	1	blank2r.bmp	880	3	spielen	880	0	0	0	0	0	0	0	0	0	0	0	0
2024-06-05	11:43:20	11:46:05	165150	6.6.1	4_exp_EVA_AWA_CON	69	B	A	Rpleas_acq	Same	Rpleas	1pleas	acq_new_unple_nomask	acq1_nomask	1	27	0	0	300	300	0	0	645	46	1	0	retten	treu	spielen	freundlich	schlau	lachen	rächen	tot	strafen	fanatisch	schroff	leiden	helfen	loyal	tolerant	ehrlich	fair	schön	hindern	lasch	tyrannisch	eitel	faul	schlecht	1	blank2r.bmp	0	1	+	0	1	blank2r.bmp	500	3	B3r.bmp	500	1	blank2r.bmp	880	2	lasch	880	0	0	0	0	0	0	0	0	0	0	0	0
2024-06-05	11:43:20	11:46:07	167270	6.6.1	4_exp_EVA_AWA_CON	69	B	A	Rpleas_acq	Same	Rpleas	1pleas	acq_US_unple_nomask	acq1_nomask	1	28	0	0	300	300	0	0	634	46	1	0	retten	treu	spielen	freundlich	schlau	lachen	rächen	tot	strafen	fanatisch	schroff	leiden	helfen	loyal	tolerant	ehrlich	fair	schön	hindern	lasch	tyrannisch	eitel	faul	schlecht	1	blank2r.bmp	0	1	+	0	1	blank2r.bmp	500	1	GKQX	500	1	blank2r.bmp	880	1	rächen	880	0	0	0	0	0	0	0	0	0	0	0	0
2024-06-05	11:43:20	11:46:09	169318	6.6.1	4_exp_EVA_AWA_CON	69	B	A	Rpleas_acq	Same	Rpleas	1pleas	acq_new_unple_nomask	acq1_nomask	1	29	0	0	300	300	0	0	560	46	1	0	retten	treu	spielen	freundlich	schlau	lachen	rächen	tot	strafen	fanatisch	schroff	leiden	helfen	loyal	tolerant	ehrlich	fair	schön	hindern	lasch	tyrannisch	eitel	faul	schlecht	1	blank2r.bmp	0	1	+	0	1	blank2r.bmp	500	8	C4r.bmp	500	1	blank2r.bmp	880	4	eitel	880	0	0	0	0	0	0	0	0	0	0	0	0
2024-06-05	11:43:20	11:46:11	171438	6.6.1	4_exp_EVA_AWA_CON	69	B	A	Rpleas_acq	Same	Rpleas	1pleas	acq_US_pleas_nomask	acq1_nomask	1	30	0	0	300	300	0	0	639	50	1	0	retten	treu	spielen	freundlich	schlau	lachen	rächen	tot	strafen	fanatisch	schroff	leiden	helfen	loyal	tolerant	ehrlich	fair	schön	hindern	lasch	tyrannisch	eitel	faul	schlecht	1	blank2r.bmp	0	1	+	0	1	blank2r.bmp	500	1	BMVZ	500	1	blank2r.bmp	880	6	lachen	880	0	0	0	0	0	0	0	0	0	0	0	0
2024-06-05	11:43:20	11:46:14	173806	6.6.1	4_exp_EVA_AWA_CON	69	B	A	Rpleas_acq	Same	Rpleas	1pleas	acq_US_pleas_nomask	acq1_nomask	1	31	0	0	300	300	0	0	886	50	1	0	retten	treu	spielen	freundlich	schlau	lachen	rächen	tot	strafen	fanatisch	schroff	leiden	helfen	loyal	tolerant	ehrlich	fair	schön	hindern	lasch	tyrannisch	eitel	faul	schlecht	1	blank2r.bmp	0	1	+	0	1	blank2r.bmp	500	1	BMVZ	500	1	blank2r.bmp	880	1	retten	880	0	0	0	0	0	0	0	0	0	0	0	0
2024-06-05	11:43:20	11:46:16	175870	6.6.1	4_exp_EVA_AWA_CON	69	B	A	Rpleas_acq	Same	Rpleas	1pleas	acq_US_unple_nomask	acq1_nomask	1	32	0	0	300	300	0	0	578	46	1	0	retten	treu	spielen	freundlich	schlau	lachen	rächen	tot	strafen	fanatisch	schroff	leiden	helfen	loyal	tolerant	ehrlich	fair	schön	hindern	lasch	tyrannisch	eitel	faul	schlecht	1	blank2r.bmp	0	1	+	0	1	blank2r.bmp	500	1	GKQX	500	1	blank2r.bmp	880	3	strafen	880	0	0	0	0	0	0	0	0	0	0	0	0
2024-06-05	11:43:20	11:46:18	177958	6.6.1	4_exp_EVA_AWA_CON	69	B	A	Rpleas_acq	Same	Rpleas	1pleas	acq_US_unple_nomask	acq1_nomask	1	33	0	0	300	300	0	0	605	46	1	0	retten	treu	spielen	freundlich	schlau	lachen	rächen	tot	strafen	fanatisch	schroff	leiden	helfen	loyal	tolerant	ehrlich	fair	schön	hindern	lasch	tyrannisch	eitel	faul	schlecht	1	blank2r.bmp	0	1	+	0	1	blank2r.bmp	500	1	GKQX	500	1	blank2r.bmp	880	2	tot	880	0	0	0	0	0	0	0	0	0	0	0	0
2024-06-05	11:43:20	11:46:20	180206	6.6.1	4_exp_EVA_AWA_CON	69	B	A	Rpleas_acq	Same	Rpleas	1pleas	acq_new_unple_nomask	acq1_nomask	1	34	0	0	300	300	0	0	761	46	1	0	retten	treu	spielen	freundlich	schlau	lachen	rächen	tot	strafen	fanatisch	schroff	leiden	helfen	loyal	tolerant	ehrlich	fair	schön	hindern	lasch	tyrannisch	eitel	faul	schlecht	1	blank2r.bmp	0	1	+	0	1	blank2r.bmp	500	7	C3r.bmp	500	1	blank2r.bmp	880	6	schlecht	880	0	0	0	0	0	0	0	0	0	0	0	0
2024-06-05	11:43:20	11:46:22	182278	6.6.1	4_exp_EVA_AWA_CON	69	B	A	Rpleas_acq	Same	Rpleas	1pleas	acq_new_pleas_nomask	acq1_nomask	1	35	0	0	300	300	0	0	582	50	1	0	retten	treu	spielen	freundlich	schlau	lachen	rächen	tot	strafen	fanatisch	schroff	leiden	helfen	loyal	tolerant	ehrlich	fair	schön	hindern	lasch	tyrannisch	eitel	faul	schlecht	1	blank2r.bmp	0	1	+	0	1	blank2r.bmp	500	6	C2r.bmp	500	1	blank2r.bmp	880	6	schön	880	0	0	0	0	0	0	0	0	0	0	0	0
2024-06-05	11:43:20	11:46:24	184350	6.6.1	4_exp_EVA_AWA_CON	69	B	A	Rpleas_acq	Same	Rpleas	1pleas	acq_new_pleas_nomask	acq1_nomask	1	36	0	0	300	300	0	0	582	50	1	0	retten	treu	spielen	freundlich	schlau	lachen	rächen	tot	strafen	fanatisch	schroff	leiden	helfen	loyal	tolerant	ehrlich	fair	schön	hindern	lasch	tyrannisch	eitel	faul	schlecht	1	blank2r.bmp	0	1	+	0	1	blank2r.bmp	500	5	C1r.bmp	500	1	blank2r.bmp	880	4	ehrlich	880	0	0	0	0	0	0	0	0	0	0	0	0
2024-06-05	11:43:20	11:47:00	219552	6.6.1	4_exp_EVA_AWA_CON	69	B	A	Rpleas_acq	Same	Rpleas	1pleas	acq_US_pleas_nomask	acq2_nomask	2	1	480	0	300	300	0	0	902	50	1	0	retten	treu	spielen	freundlich	schlau	lachen	rächen	tot	strafen	fanatisch	schroff	leiden	helfen	loyal	tolerant	ehrlich	fair	schön	hindern	lasch	tyrannisch	eitel	faul	schlecht	1	blank2r.bmp	0	1	+	0	1	blank2r.bmp	500	1	BMVZ	500	1	blank2r.bmp	880	5	schlau	880	1	!	1312	1	!	-1	0	0	0	0	0	0
2024-06-05	11:43:20	11:47:02	222072	6.6.1	4_exp_EVA_AWA_CON	69	B	A	Rpleas_acq	Same	Rpleas	1pleas	acq_US_unple_nomask	acq2_nomask	2	2	480	0	300	300	0	0	740	46	1	0	retten	treu	spielen	freundlich	schlau	lachen	rächen	tot	strafen	fanatisch	schroff	leiden	helfen	loyal	tolerant	ehrlich	fair	schön	hindern	lasch	tyrannisch	eitel	faul	schlecht	1	blank2r.bmp	0	1	+	0	1	blank2r.bmp	500	1	GKQX	500	1	blank2r.bmp	880	6	leiden	880	1	!	1312	1	!	-1	0	0	0	0	0	0
2024-06-05	11:43:20	11:47:04	224338	6.6.1	4_exp_EVA_AWA_CON	69	B	A	Rpleas_acq	Same	Rpleas	1pleas	acq_US_pleas_nomask	acq2_nomask	2	3	480	1	300	300	0	0	483	50	1	0	retten	treu	spielen	freundlich	schlau	lachen	rächen	tot	strafen	fanatisch	schroff	leiden	helfen	loyal	tolerant	ehrlich	fair	schön	hindern	lasch	tyrannisch	eitel	faul	schlecht	1	blank2r.bmp	0	1	+	0	1	blank2r.bmp	500	1	BMVZ	500	1	blank2r.bmp	880	4	freundlich	880	1	!	1313	1	!	1384	0	0	0	0	0	0
2024-06-05	11:43:20	11:47:07	226744	6.6.1	4_exp_EVA_AWA_CON	69	B	A	Rpleas_acq	Same	Rpleas	1pleas	acq_new_unple_nomask	acq2_nomask	2	4	480	0	300	300	0	0	629	46	1	0	retten	treu	spielen	freundlich	schlau	lachen	rächen	tot	strafen	fanatisch	schroff	leiden	helfen	loyal	tolerant	ehrlich	fair	schön	hindern	lasch	tyrannisch	eitel	faul	schlecht	1	blank2r.bmp	0	1	+	0	1	blank2r.bmp	500	1	B1r.bmp	500	1	blank2r.bmp	880	1	hindern	880	1	!	1312	1	!	-1	0	0	0	0	0	0
2024-06-05	11:43:20	11:47:09	229208	6.6.1	4_exp_EVA_AWA_CON	69	B	A	Rpleas_acq	Same	Rpleas	1pleas	acq_new_pleas_nomask	acq2_nomask	2	5	480	0	300	300	0	0	692	50	1	0	retten	treu	spielen	freundlich	schlau	lachen	rächen	tot	strafen	fanatisch	schroff	leiden	helfen	loyal	tolerant	ehrlich	fair	schön	hindern	lasch	tyrannisch	eitel	faul	schlecht	1	blank2r.bmp	0	1	+	0	1	blank2r.bmp	500	4	B4r.bmp	500	1	blank2r.bmp	880	5	fair	880	1	!	1313	1	!	-1	0	0	0	0	0	0
2024-06-05	11:43:20	11:47:11	231408	6.6.1	4_exp_EVA_AWA_CON	69	B	A	Rpleas_acq	Same	Rpleas	1pleas	acq_US_unple_nomask	acq2_nomask	2	6	480	1	300	300	0	0	420	46	1	0	retten	treu	spielen	freundlich	schlau	lachen	rächen	tot	strafen	fanatisch	schroff	leiden	helfen	loyal	tolerant	ehrlich	fair	schön	hindern	lasch	tyrannisch	eitel	faul	schlecht	1	blank2r.bmp	0	1	+	0	1	blank2r.bmp	500	1	GKQX	500	1	blank2r.bmp	880	5	schroff	880	1	!	1312	1	!	1319	0	0	0	0	0	0
2024-06-05	11:43:20	11:47:14	233690	6.6.1	4_exp_EVA_AWA_CON	69	B	A	Rpleas_acq	Same	Rpleas	1pleas	acq_new_unple_nomask	acq2_nomask	2	7	480	1	300	300	0	0	499	46	1	0	retten	treu	spielen	freundlich	schlau	lachen	rächen	tot	strafen	fanatisch	schroff	leiden	helfen	loyal	tolerant	ehrlich	fair	schön	hindern	lasch	tyrannisch	eitel	faul	schlecht	1	blank2r.bmp	0	1	+	0	1	blank2r.bmp	500	2	B2r.bmp	500	1	blank2r.bmp	880	3	tyrannisch	880	1	!	1313	1	!	1400	0	0	0	0	0	0
2024-06-05	11:43:20	11:47:16	236099	6.6.1	4_exp_EVA_AWA_CON	69	B	A	Rpleas_acq	Same	Rpleas	1pleas	acq_US_unple_nomask	acq2_nomask	2	8	480	1	300	300	0	0	425	50	0	0	retten	treu	spielen	freundlich	schlau	lachen	rächen	tot	strafen	fanatisch	schroff	leiden	helfen	loyal	tolerant	ehrlich	fair	schön	hindern	lasch	tyrannisch	eitel	faul	schlecht	1	blank2r.bmp	0	1	+	0	1	blank2r.bmp	500	1	GKQX	500	1	blank2r.bmp	880	4	fanatisch	880	1	FEHLER	1618	1	!	1313	1	!	1326	0	0	0
2024-06-05	11:43:20	11:47:18	238352	6.6.1	4_exp_EVA_AWA_CON	69	B	A	Rpleas_acq	Same	Rpleas	1pleas	acq_new_pleas_nomask	acq2_nomask	2	9	480	0	300	300	0	0	680	50	1	0	retten	treu	spielen	freundlich	schlau	lachen	rächen	tot	strafen	fanatisch	schroff	leiden	helfen	loyal	tolerant	ehrlich	fair	schön	hindern	lasch	tyrannisch	eitel	faul	schlecht	1	blank2r.bmp	0	1	+	0	1	blank2r.bmp	500	8	C4r.bmp	500	1	blank2r.bmp	880	3	tolerant	880	1	!	1312	1	!	-1	0	0	0	0	0	0
2024-06-05	11:43:20	11:47:21	240593	6.6.1	4_exp_EVA_AWA_CON	69	B	A	Rpleas_acq	Same	Rpleas	1pleas	acq_new_pleas_nomask	acq2_nomask	2	10	480	1	300	300	0	0	458	50	1	0	retten	treu	spielen	freundlich	schlau	lachen	rächen	tot	strafen	fanatisch	schroff	leiden	helfen	loyal	tolerant	ehrlich	fair	schön	hindern	lasch	tyrannisch	eitel	faul	schlecht	1	blank2r.bmp	0	1	+	0	1	blank2r.bmp	500	3	B3r.bmp	500	1	blank2r.bmp	880	1	helfen	880	1	!	1312	1	!	1359	0	0	0	0	0	0
2024-06-05	11:43:20	11:47:23	242809	6.6.1	4_exp_EVA_AWA_CON	69	B	A	Rpleas_acq	Same	Rpleas	1pleas	acq_US_pleas_nomask	acq2_nomask	2	11	480	1	300	300	0	0	433	50	1	0	retten	treu	spielen	freundlich	schlau	lachen	rächen	tot	strafen	fanatisch	schroff	leiden	helfen	loyal	tolerant	ehrlich	fair	schön	hindern	lasch	tyrannisch	eitel	faul	schlecht	1	blank2r.bmp	0	1	+	0	1	blank2r.bmp	500	1	BMVZ	500	1	blank2r.bmp	880	2	treu	880	1	!	1312	1	!	1334	0	0	0	0	0	0
2024-06-05	11:43:20	11:47:25	245073	6.6.1	4_exp_EVA_AWA_CON	69	B	A	Rpleas_acq	Same	Rpleas	1pleas	acq_new_unple_nomask	acq2_nomask	2	12	480	1	300	300	0	0	485	46	1	0	retten	treu	spielen	freundlich	schlau	lachen	rächen	tot	strafen	fanatisch	schroff	leiden	helfen	loyal	tolerant	ehrlich	fair	schön	hindern	lasch	tyrannisch	eitel	faul	schlecht	1	blank2r.bmp	0	1	+	0	1	blank2r.bmp	500	7	C3r.bmp	500	1	blank2r.bmp	880	5	faul	880	1	!	1312	1	!	1386	0	0	0	0	0	0
2024-06-05	11:43:20	11:47:27	247216	6.6.1	4_exp_EVA_AWA_CON	69	B	A	Rpleas_acq	Same	Rpleas	1pleas	acq_new_unple_nomask	acq2_nomask	2	13	480	0	300	300	0	0	368	46	1	0	retten	treu	spielen	freundlich	schlau	lachen	rächen	tot	strafen	fanatisch	schroff	leiden	helfen	loyal	tolerant	ehrlich	fair	schön	hindern	lasch	tyrannisch	eitel	faul	schlecht	1	blank2r.bmp	0	1	+	0	1	blank2r.bmp	500	2	B2r.bmp	500	1	blank2r.bmp	880	5	faul	880	1	!	-1	1	!	-1	0	0	0	0	0	0
2024-06-05	11:43:20	11:47:29	249473	6.6.1	4_exp_EVA_AWA_CON	69	B	A	Rpleas_acq	Same	Rpleas	1pleas	acq_US_pleas_nomask	acq2_nomask	2	14	480	1	300	300	0	0	482	50	1	0	retten	treu	spielen	freundlich	schlau	lachen	rächen	tot	strafen	fanatisch	schroff	leiden	helfen	loyal	tolerant	ehrlich	fair	schön	hindern	lasch	tyrannisch	eitel	faul	schlecht	1	blank2r.bmp	0	1	+	0	1	blank2r.bmp	500	1	BMVZ	500	1	blank2r.bmp	880	5	schlau	880	1	!	1312	1	!	1383	0	0	0	0	0	0
2024-06-05	11:43:20	11:47:32	251738	6.6.1	4_exp_EVA_AWA_CON	69	B	A	Rpleas_acq	Same	Rpleas	1pleas	acq_new_pleas_nomask	acq2_nomask	2	15	480	1	300	300	0	0	485	50	1	0	retten	treu	spielen	freundlich	schlau	lachen	rächen	tot	strafen	fanatisch	schroff	leiden	helfen	loyal	tolerant	ehrlich	fair	schön	hindern	lasch	tyrannisch	eitel	faul	schlecht	1	blank2r.bmp	0	1	+	0	1	blank2r.bmp	500	6	C2r.bmp	500	1	blank2r.bmp	880	1	helfen	880	1	!	1312	1	!	1386	0	0	0	0	0	0
2024-06-05	11:43:20	11:47:34	254129	6.6.1	4_exp_EVA_AWA_CON	69	B	A	Rpleas_acq	Same	Rpleas	1pleas	acq_US_pleas_nomask	acq2_nomask	2	16	480	1	300	300	0	0	415	46	0	0	retten	treu	spielen	freundlich	schlau	lachen	rächen	tot	strafen	fanatisch	schroff	leiden	helfen	loyal	tolerant	ehrlich	fair	schön	hindern	lasch	tyrannisch	eitel	faul	schlecht	1	blank2r.bmp	0	1	+	0	1	blank2r.bmp	500	1	BMVZ	500	1	blank2r.bmp	880	1	retten	880	1	FEHLER	1607	1	!	1313	1	!	1315	0	0	0
2024-06-05	11:43:20	11:47:36	256226	6.6.1	4_exp_EVA_AWA_CON	69	B	A	Rpleas_acq	Same	Rpleas	1pleas	acq_new_pleas_nomask	acq2_nomask	2	17	480	1	300	300	0	0	520	50	1	0	retten	treu	spielen	freundlich	schlau	lachen	rächen	tot	strafen	fanatisch	schroff	leiden	helfen	loyal	tolerant	ehrlich	fair	schön	hindern	lasch	tyrannisch	eitel	faul	schlecht	1	blank2r.bmp	0	1	+	0	1	blank2r.bmp	500	5	C1r.bmp	500	1	blank2r.bmp	880	5	fair	880	1	!	1312	1	!	1422	0	0	0	0	0	0
2024-06-05	11:43:20	11:47:39	258707	6.6.1	4_exp_EVA_AWA_CON	69	B	A	Rpleas_acq	Same	Rpleas	1pleas	acq_new_unple_nomask	acq2_nomask	2	18	480	1	300	300	0	0	498	50	0	0	retten	treu	spielen	freundlich	schlau	lachen	rächen	tot	strafen	fanatisch	schroff	leiden	helfen	loyal	tolerant	ehrlich	fair	schön	hindern	lasch	tyrannisch	eitel	faul	schlecht	1	blank2r.bmp	0	1	+	0	1	blank2r.bmp	500	1	B1r.bmp	500	1	blank2r.bmp	880	4	eitel	880	1	FEHLER	1692	1	!	1313	1	!	1399	0	0	0
2024-06-05	11:43:20	11:47:41	261056	6.6.1	4_exp_EVA_AWA_CON	69	B	A	Rpleas_acq	Same	Rpleas	1pleas	acq_US_unple_nomask	acq2_nomask	2	19	480	0	300	300	0	0	769	46	1	0	retten	treu	spielen	freundlich	schlau	lachen	rächen	tot	strafen	fanatisch	schroff	leiden	helfen	loyal	tolerant	ehrlich	fair	schön	hindern	lasch	tyrannisch	eitel	faul	schlecht	1	blank2r.bmp	0	1	+	0	1	blank2r.bmp	500	1	GKQX	500	1	blank2r.bmp	880	4	fanatisch	880	1	!	1312	1	!	-1	0	0	0	0	0	0
2024-06-05	11:43:20	11:47:43	263248	6.6.1	4_exp_EVA_AWA_CON	69	B	A	Rpleas_acq	Same	Rpleas	1pleas	acq_US_unple_nomask	acq2_nomask	2	20	480	1	300	300	0	0	419	46	1	0	retten	treu	spielen	freundlich	schlau	lachen	rächen	tot	strafen	fanatisch	schroff	leiden	helfen	loyal	tolerant	ehrlich	fair	schön	hindern	lasch	tyrannisch	eitel	faul	schlecht	1	blank2r.bmp	0	1	+	0	1	blank2r.bmp	500	1	GKQX	500	1	blank2r.bmp	880	5	schroff	880	1	!	1313	1	!	1319	0	0	0	0	0	0
2024-06-05	11:43:20	11:47:45	265473	6.6.1	4_exp_EVA_AWA_CON	69	B	A	Rpleas_acq	Same	Rpleas	1pleas	acq_US_pleas_nomask	acq2_nomask	2	21	480	1	300	300	0	0	442	50	1	0	retten	treu	spielen	freundlich	schlau	lachen	rächen	tot	strafen	fanatisch	schroff	leiden	helfen	loyal	tolerant	ehrlich	fair	schön	hindern	lasch	tyrannisch	eitel	faul	schlecht	1	blank2r.bmp	0	1	+	0	1	blank2r.bmp	500	1	BMVZ	500	1	blank2r.bmp	880	6	lachen	880	1	!	1312	1	!	1343	0	0	0	0	0	0
2024-06-05	11:43:20	11:47:48	267721	6.6.1	4_exp_EVA_AWA_CON	69	B	A	Rpleas_acq	Same	Rpleas	1pleas	acq_US_unple_nomask	acq2_nomask	2	22	480	1	300	300	0	0	468	46	1	0	retten	treu	spielen	freundlich	schlau	lachen	rächen	tot	strafen	fanatisch	schroff	leiden	helfen	loyal	tolerant	ehrlich	fair	schön	hindern	lasch	tyrannisch	eitel	faul	schlecht	1	blank2r.bmp	0	1	+	0	1	blank2r.bmp	500	1	GKQX	500	1	blank2r.bmp	880	2	tot	880	1	!	1313	1	!	1369	0	0	0	0	0	0
2024-06-05	11:43:20	11:47:50	270034	6.6.1	4_exp_EVA_AWA_CON	69	B	A	Rpleas_acq	Same	Rpleas	1pleas	acq_new_pleas_nomask	acq2_nomask	2	23	480	1	300	300	0	0	529	50	1	0	retten	treu	spielen	freundlich	schlau	lachen	rächen	tot	strafen	fanatisch	schroff	leiden	helfen	loyal	tolerant	ehrlich	fair	schön	hindern	lasch	tyrannisch	eitel	faul	schlecht	1	blank2r.bmp	0	1	+	0	1	blank2r.bmp	500	3	B3r.bmp	500	1	blank2r.bmp	880	4	ehrlich	880	1	!	1312	1	!	1430	0	0	0	0	0	0
2024-06-05	11:43:20	11:47:52	272289	6.6.1	4_exp_EVA_AWA_CON	69	B	A	Rpleas_acq	Same	Rpleas	1pleas	acq_new_unple_nomask	acq2_nomask	2	24	480	1	300	300	0	0	473	46	1	0	retten	treu	spielen	freundlich	schlau	lachen	rächen	tot	strafen	fanatisch	schroff	leiden	helfen	loyal	tolerant	ehrlich	fair	schön	hindern	lasch	tyrannisch	eitel	faul	schlecht	1	blank2r.bmp	0	1	+	0	1	blank2r.bmp	500	4	B4r.bmp	500	1	blank2r.bmp	880	1	hindern	880	1	!	1312	1	!	1374	0	0	0	0	0	0
2024-06-05	11:43:20	11:47:55	274521	6.6.1	4_exp_EVA_AWA_CON	69	B	A	Rpleas_acq	Same	Rpleas	1pleas	acq_new_pleas_nomask	acq2_nomask	2	25	480	1	300	300	0	0	454	50	1	0	retten	treu	spielen	freundlich	schlau	lachen	rächen	tot	strafen	fanatisch	schroff	leiden	helfen	loyal	tolerant	ehrlich	fair	schön	hindern	lasch	tyrannisch	eitel	faul	schlecht	1	blank2r.bmp	0	1	+	0	1	blank2r.bmp	500	8	C4r.bmp	500	1	blank2r.bmp	880	2	loyal	880	1	!	1312	1	!	1355	0	0	0	0	0	0
2024-06-05	11:43:20	11:47:57	276778	6.6.1	4_exp_EVA_AWA_CON	69	B	A	Rpleas_acq	Same	Rpleas	1pleas	acq_new_unple_nomask	acq2_nomask	2	26	480	1	300	300	0	0	478	46	1	0	retten	treu	spielen	freundlich	schlau	lachen	rächen	tot	strafen	fanatisch	schroff	leiden	helfen	loyal	tolerant	ehrlich	fair	schön	hindern	lasch	tyrannisch	eitel	faul	schlecht	1	blank2r.bmp	0	1	+	0	1	blank2r.bmp	500	7	C3r.bmp	500	1	blank2r.bmp	880	3	tyrannisch	880	1	!	1312	1	!	1379	0	0	0	0	0	0
2024-06-05	11:43:20	11:47:59	279017	6.6.1	4_exp_EVA_AWA_CON	69	B	A	Rpleas_acq	Same	Rpleas	1pleas	acq_US_unple_nomask	acq2_nomask	2	27	480	1	300	300	0	0	457	46	1	0	retten	treu	spielen	freundlich	schlau	lachen	rächen	tot	strafen	fanatisch	schroff	leiden	helfen	loyal	tolerant	ehrlich	fair	schön	hindern	lasch	tyrannisch	eitel	faul	schlecht	1	blank2r.bmp	0	1	+	0	1	blank2r.bmp	500	1	GKQX	500	1	blank2r.bmp	880	3	strafen	880	1	!	1313	1	!	1358	0	0	0	0	0	0
2024-06-05	11:43:20	11:48:01	281337	6.6.1	4_exp_EVA_AWA_CON	69	B	A	Rpleas_acq	Same	Rpleas	1pleas	acq_new_pleas_nomask	acq2_nomask	2	28	480	1	300	300	0	0	546	50	1	0	retten	treu	spielen	freundlich	schlau	lachen	rächen	tot	strafen	fanatisch	schroff	leiden	helfen	loyal	tolerant	ehrlich	fair	schön	hindern	lasch	tyrannisch	eitel	faul	schlecht	1	blank2r.bmp	0	1	+	0	1	blank2r.bmp	500	7	C3r.bmp	500	1	blank2r.bmp	880	3	tolerant	880	1	!	1313	1	!	1447	0	0	0	0	0	0
2024-06-05	11:43:20	11:48:04	283577	6.6.1	4_exp_EVA_AWA_CON	69	B	A	Rpleas_acq	Same	Rpleas	1pleas	acq_US_unple_nomask	acq2_nomask	2	29	480	1	300	300	0	0	464	46	1	0	retten	treu	spielen	freundlich	schlau	lachen	rächen	tot	strafen	fanatisch	schroff	leiden	helfen	loyal	tolerant	ehrlich	fair	schön	hindern	lasch	tyrannisch	eitel	faul	schlecht	1	blank2r.bmp	0	1	+	0	1	blank2r.bmp	500	1	GKQX	500	1	blank2r.bmp	880	6	leiden	880	1	!	1312	1	!	1365	0	0	0	0	0	0
2024-06-05	11:43:20	11:48:06	285910	6.6.1	4_exp_EVA_AWA_CON	69	B	A	Rpleas_acq	Same	Rpleas	1pleas	acq_new_pleas_nomask	acq2_nomask	2	30	480	0	300	300	0	0	558	50	1	0	retten	treu	spielen	freundlich	schlau	lachen	rächen	tot	strafen	fanatisch	schroff	leiden	helfen	loyal	tolerant	ehrlich	fair	schön	hindern	lasch	tyrannisch	eitel	faul	schlecht	1	blank2r.bmp	0	1	+	0	1	blank2r.bmp	500	8	C4r.bmp	500	1	blank2r.bmp	880	6	schön	880	1	!	1312	1	!	-1	0	0	0	0	0	0
2024-06-05	11:43:20	11:48:08	288186	6.6.1	4_exp_EVA_AWA_CON	69	B	A	Rpleas_acq	Same	Rpleas	1pleas	acq_US_pleas_nomask	acq2_nomask	2	31	480	1	300	300	0	0	499	50	1	0	retten	treu	spielen	freundlich	schlau	lachen	rächen	tot	strafen	fanatisch	schroff	leiden	helfen	loyal	tolerant	ehrlich	fair	schön	hindern	lasch	tyrannisch	eitel	faul	schlecht	1	blank2r.bmp	0	1	+	0	1	blank2r.bmp	500	1	BMVZ	500	1	blank2r.bmp	880	3	spielen	880	1	!	1312	1	!	1400	0	0	0	0	0	0
2024-06-05	11:43:20	11:48:10	290465	6.6.1	4_exp_EVA_AWA_CON	69	B	A	Rpleas_acq	Same	Rpleas	1pleas	acq_US_unple_nomask	acq2_nomask	2	32	480	1	300	300	0	0	498	46	1	0	retten	treu	spielen	freundlich	schlau	lachen	rächen	tot	strafen	fanatisch	schroff	leiden	helfen	loyal	tolerant	ehrlich	fair	schön	hindern	lasch	tyrannisch	eitel	faul	schlecht	1	blank2r.bmp	0	1	+	0	1	blank2r.bmp	500	1	GKQX	500	1	blank2r.bmp	880	1	rächen	880	1	!	1312	1	!	1399	0	0	0	0	0	0
2024-06-05	11:43:20	11:48:13	292856	6.6.1	4_exp_EVA_AWA_CON	69	B	A	Rpleas_acq	Same	Rpleas	1pleas	acq_US_pleas_nomask	acq2_nomask	2	33	480	0	300	300	0	0	618	50	1	0	retten	treu	spielen	freundlich	schlau	lachen	rächen	tot	strafen	fanatisch	schroff	leiden	helfen	loyal	tolerant	ehrlich	fair	schön	hindern	lasch	tyrannisch	eitel	faul	schlecht	1	blank2r.bmp	0	1	+	0	1	blank2r.bmp	500	1	BMVZ	500	1	blank2r.bmp	880	2	treu	880	1	!	1313	1	!	-1	0	0	0	0	0	0
2024-06-05	11:43:20	11:48:15	295200	6.6.1	4_exp_EVA_AWA_CON	69	B	A	Rpleas_acq	Same	Rpleas	1pleas	acq_US_pleas_nomask	acq2_nomask	2	34	480	0	300	300	0	0	571	50	1	0	retten	treu	spielen	freundlich	schlau	lachen	rächen	tot	strafen	fanatisch	schroff	leiden	helfen	loyal	tolerant	ehrlich	fair	schön	hindern	lasch	tyrannisch	eitel	faul	schlecht	1	blank2r.bmp	0	1	+	0	1	blank2r.bmp	500	1	BMVZ	500	1	blank2r.bmp	880	4	freundlich	880	1	!	1313	1	!	-1	0	0	0	0	0	0
2024-06-05	11:43:20	11:48:18	297771	6.6.1	4_exp_EVA_AWA_CON	69	B	A	Rpleas_acq	Same	Rpleas	1pleas	acq_new_unple_nomask	acq2_nomask	2	35	480	0	300	300	0	0	587	50	0	0	retten	treu	spielen	freundlich	schlau	lachen	rächen	tot	strafen	fanatisch	schroff	leiden	helfen	loyal	tolerant	ehrlich	fair	schön	hindern	lasch	tyrannisch	eitel	faul	schlecht	1	blank2r.bmp	0	1	+	0	1	blank2r.bmp	500	4	B4r.bmp	500	1	blank2r.bmp	880	6	schlecht	880	1	FEHLER	1780	1	!	1312	1	!	-1	0	0	0
2024-06-05	11:43:20	11:48:20	299928	6.6.1	4_exp_EVA_AWA_CON	69	B	A	Rpleas_acq	Same	Rpleas	1pleas	acq_new_unple_nomask	acq2_nomask	2	36	480	0	300	300	0	0	585	46	1	0	retten	treu	spielen	freundlich	schlau	lachen	rächen	tot	strafen	fanatisch	schroff	leiden	helfen	loyal	tolerant	ehrlich	fair	schön	hindern	lasch	tyrannisch	eitel	faul	schlecht	1	blank2r.bmp	0	1	+	0	1	blank2r.bmp	500	1	B1r.bmp	500	1	blank2r.bmp	880	2	lasch	880	1	!	1312	1	!	-1	0	0	0	0	0	0
2024-06-05	11:43:20	11:48:38	317719	6.6.1	4_exp_EVA_AWA_CON	69	B	A	Rpleas_acq	Same	Rpleas	1pleas	acq_US_pleas_nomask	acq3_nomask	3	1	453	0	300	300	0	0	756	50	1	0	retten	treu	spielen	freundlich	schlau	lachen	rächen	tot	strafen	fanatisch	schroff	leiden	helfen	loyal	tolerant	ehrlich	fair	schön	hindern	lasch	tyrannisch	eitel	faul	schlecht	1	blank2r.bmp	0	1	+	0	1	blank2r.bmp	500	1	BMVZ	500	1	blank2r.bmp	880	5	schlau	880	1	!	1292	1	!	-1	0	0	0	0	0	0
2024-06-05	11:43:20	11:48:40	319864	6.6.1	4_exp_EVA_AWA_CON	69	B	A	Rpleas_acq	Same	Rpleas	1pleas	acq_US_pleas_nomask	acq3_nomask	3	2	453	0	300	300	0	0	368	50	1	0	retten	treu	spielen	freundlich	schlau	lachen	rächen	tot	strafen	fanatisch	schroff	leiden	helfen	loyal	tolerant	ehrlich	fair	schön	hindern	lasch	tyrannisch	eitel	faul	schlecht	1	blank2r.bmp	0	1	+	0	1	blank2r.bmp	500	1	BMVZ	500	1	blank2r.bmp	880	3	spielen	880	1	!	-1	1	!	-1	0	0	0	0	0	0
2024-06-05	11:43:20	11:48:42	322240	6.6.1	4_exp_EVA_AWA_CON	69	B	A	Rpleas_acq	Same	Rpleas	1pleas	acq_US_unple_nomask	acq3_nomask	3	3	453	0	300	300	0	0	603	46	1	0	retten	treu	spielen	freundlich	schlau	lachen	rächen	tot	strafen	fanatisch	schroff	leiden	helfen	loyal	tolerant	ehrlich	fair	schön	hindern	lasch	tyrannisch	eitel	faul	schlecht	1	blank2r.bmp	0	1	+	0	1	blank2r.bmp	500	1	GKQX	500	1	blank2r.bmp	880	6	leiden	880	1	!	1292	1	!	-1	0	0	0	0	0	0
2024-06-05	11:43:20	11:48:45	324683	6.6.1	4_exp_EVA_AWA_CON	69	B	A	Rpleas_acq	Same	Rpleas	1pleas	acq_US_unple_nomask	acq3_nomask	3	4	453	1	300	300	0	0	461	50	0	0	retten	treu	spielen	freundlich	schlau	lachen	rächen	tot	strafen	fanatisch	schroff	leiden	helfen	loyal	tolerant	ehrlich	fair	schön	hindern	lasch	tyrannisch	eitel	faul	schlecht	1	blank2r.bmp	0	1	+	0	1	blank2r.bmp	500	1	GKQX	500	1	blank2r.bmp	880	5	schroff	880	1	FEHLER	1655	1	!	1293	1	!	1363	0	0	0
2024-06-05	11:43:20	11:48:47	326769	6.6.1	4_exp_EVA_AWA_CON	69	B	A	Rpleas_acq	Same	Rpleas	1pleas	acq_US_unple_nomask	acq3_nomask	3	5	453	1	300	300	0	0	508	46	1	0	retten	treu	spielen	freundlich	schlau	lachen	rächen	tot	strafen	fanatisch	schroff	leiden	helfen	loyal	tolerant	ehrlich	fair	schön	hindern	lasch	tyrannisch	eitel	faul	schlecht	1	blank2r.bmp	0	1	+	0	1	blank2r.bmp	500	1	GKQX	500	1	blank2r.bmp	880	4	fanatisch	880	1	!	1292	1	!	1409	0	0	0	0	0	0
2024-06-05	11:43:20	11:48:49	329203	6.6.1	4_exp_EVA_AWA_CON	69	B	A	Rpleas_acq	Same	Rpleas	1pleas	acq_US_pleas_nomask	acq3_nomask	3	6	453	1	300	300	0	0	448	46	0	0	retten	treu	spielen	freundlich	schlau	lachen	rächen	tot	strafen	fanatisch	schroff	leiden	helfen	loyal	tolerant	ehrlich	fair	schön	hindern	lasch	tyrannisch	eitel	faul	schlecht	1	blank2r.bmp	0	1	+	0	1	blank2r.bmp	500	1	BMVZ	500	1	blank2r.bmp	880	1	retten	880	1	FEHLER	1642	1	!	1292	1	!	1349	0	0	0
2024-06-05	11:43:20	11:48:52	331513	6.6.1	4_exp_EVA_AWA_CON	69	B	A	Rpleas_acq	Same	Rpleas	1pleas	acq_US_unple_nomask	acq3_nomask	3	7	453	0	300	300	0	0	529	50	0	0	retten	treu	spielen	freundlich	schlau	lachen	rächen	tot	strafen	fanatisch	schroff	leiden	helfen	loyal	tolerant	ehrlich	fair	schön	hindern	lasch	tyrannisch	eitel	faul	schlecht	1	blank2r.bmp	0	1	+	0	1	blank2r.bmp	500	1	GKQX	500	1	blank2r.bmp	880	1	rächen	880	1	FEHLER	1720	1	!	1293	1	!	-1	0	0	0
2024-06-05	11:43:20	11:48:54	333513	6.6.1	4_exp_EVA_AWA_CON	69	B	A	Rpleas_acq	Same	Rpleas	1pleas	acq_US_pleas_nomask	acq3_nomask	3	8	453	1	300	300	0	0	428	50	1	0	retten	treu	spielen	freundlich	schlau	lachen	rächen	tot	strafen	fanatisch	schroff	leiden	helfen	loyal	tolerant	ehrlich	fair	schön	hindern	lasch	tyrannisch	eitel	faul	schlecht	1	blank2r.bmp	0	1	+	0	1	blank2r.bmp	500	1	BMVZ	500	1	blank2r.bmp	880	2	treu	880	1	!	1293	1	!	1329	0	0	0	0	0	0
2024-06-05	11:43:20	11:48:56	335698	6.6.1	4_exp_EVA_AWA_CON	69	B	A	Rpleas_acq	Same	Rpleas	1pleas	acq_US_pleas_nomask	acq3_nomask	3	9	453	1	300	300	0	0	410	50	1	0	retten	treu	spielen	freundlich	schlau	lachen	rächen	tot	strafen	fanatisch	schroff	leiden	helfen	loyal	tolerant	ehrlich	fair	schön	hindern	lasch	tyrannisch	eitel	faul	schlecht	1	blank2r.bmp	0	1	+	0	1	blank2r.bmp	500	1	BMVZ	500	1	blank2r.bmp	880	4	freundlich	880	1	!	1292	1	!	1312	0	0	0	0	0	0
2024-06-05	11:43:20	11:48:58	338202	6.6.1	4_exp_EVA_AWA_CON	69	B	A	Rpleas_acq	Same	Rpleas	1pleas	acq_US_unple_nomask	acq3_nomask	3	10	453	0	300	300	0	0	524	50	0	0	retten	treu	spielen	freundlich	schlau	lachen	rächen	tot	strafen	fanatisch	schroff	leiden	helfen	loyal	tolerant	ehrlich	fair	schön	hindern	lasch	tyrannisch	eitel	faul	schlecht	1	blank2r.bmp	0	1	+	0	1	blank2r.bmp	500	1	GKQX	500	1	blank2r.bmp	880	3	strafen	880	1	FEHLER	1715	1	!	1292	1	!	-1	0	0	0
2024-06-05	11:43:20	11:49:00	340193	6.6.1	4_exp_EVA_AWA_CON	69	B	A	Rpleas_acq	Same	Rpleas	1pleas	acq_US_pleas_nomask	acq3_nomask	3	11	453	1	300	300	0	0	413	50	1	0	retten	treu	spielen	freundlich	schlau	lachen	rächen	tot	strafen	fanatisch	schroff	leiden	helfen	loyal	tolerant	ehrlich	fair	schön	hindern	lasch	tyrannisch	eitel	faul	schlecht	1	blank2r.bmp	0	1	+	0	1	blank2r.bmp	500	1	BMVZ	500	1	blank2r.bmp	880	6	lachen	880	1	!	1293	1	!	1314	0	0	0	0	0	0
2024-06-05	11:43:20	11:49:02	342359	6.6.1	4_exp_EVA_AWA_CON	69	B	A	Rpleas_acq	Same	Rpleas	1pleas	acq_US_unple_nomask	acq3_nomask	3	12	453	0	300	300	0	0	390	46	1	0	retten	treu	spielen	freundlich	schlau	lachen	rächen	tot	strafen	fanatisch	schroff	leiden	helfen	loyal	tolerant	ehrlich	fair	schön	hindern	lasch	tyrannisch	eitel	faul	schlecht	1	blank2r.bmp	0	1	+	0	1	blank2r.bmp	500	1	GKQX	500	1	blank2r.bmp	880	2	tot	880	1	!	-1	1	!	-1	0	0	0	0	0	0
2024-06-05	11:43:20	11:49:05	344625	6.6.1	4_exp_EVA_AWA_CON	69	B	A	Rpleas_acq	Same	Rpleas	1pleas	acq_US_unple_nomask	acq3_nomask	3	13	453	1	300	300	0	0	492	46	1	0	retten	treu	spielen	freundlich	schlau	lachen	rächen	tot	strafen	fanatisch	schroff	leiden	helfen	loyal	tolerant	ehrlich	fair	schön	hindern	lasch	tyrannisch	eitel	faul	schlecht	1	blank2r.bmp	0	1	+	0	1	blank2r.bmp	500	1	GKQX	500	1	blank2r.bmp	880	3	strafen	880	1	!	1293	1	!	1393	0	0	0	0	0	0
2024-06-05	11:43:20	11:49:07	346874	6.6.1	4_exp_EVA_AWA_CON	69	B	A	Rpleas_acq	Same	Rpleas	1pleas	acq_US_pleas_nomask	acq3_nomask	3	14	453	1	300	300	0	0	469	50	1	0	retten	treu	spielen	freundlich	schlau	lachen	rächen	tot	strafen	fanatisch	schroff	leiden	helfen	loyal	tolerant	ehrlich	fair	schön	hindern	lasch	tyrannisch	eitel	faul	schlecht	1	blank2r.bmp	0	1	+	0	1	blank2r.bmp	500	1	BMVZ	500	1	blank2r.bmp	880	4	freundlich	880	1	!	1292	1	!	1370	0	0	0	0	0	0
2024-06-05	11:43:20	11:49:09	349106	6.6.1	4_exp_EVA_AWA_CON	69	B	A	Rpleas_acq	Same	Rpleas	1pleas	acq_US_unple_nomask	acq3_nomask	3	15	453	1	300	300	0	0	449	46	1	0	retten	treu	spielen	freundlich	schlau	lachen	rächen	tot	strafen	fanatisch	schroff	leiden	helfen	loyal	tolerant	ehrlich	fair	schön	hindern	lasch	tyrannisch	eitel	faul	schlecht	1	blank2r.bmp	0	1	+	0	1	blank2r.bmp	500	1	GKQX	500	1	blank2r.bmp	880	1	rächen	880	1	!	1293	1	!	1350	0	0	0	0	0	0
2024-06-05	11:43:20	11:49:11	351287	6.6.1	4_exp_EVA_AWA_CON	69	B	A	Rpleas_acq	Same	Rpleas	1pleas	acq_US_unple_nomask	acq3_nomask	3	16	453	1	300	300	0	0	402	46	1	0	retten	treu	spielen	freundlich	schlau	lachen	rächen	tot	strafen	fanatisch	schroff	leiden	helfen	loyal	tolerant	ehrlich	fair	schön	hindern	lasch	tyrannisch	eitel	faul	schlecht	1	blank2r.bmp	0	1	+	0	1	blank2r.bmp	500	1	GKQX	500	1	blank2r.bmp	880	5	schroff	880	1	!	1292	1	!	1301	0	0	0	0	0	0
2024-06-05	11:43:20	11:49:14	353505	6.6.1	4_exp_EVA_AWA_CON	69	B	A	Rpleas_acq	Same	Rpleas	1pleas	acq_US_unple_nomask	acq3_nomask	3	17	453	1	300	300	0	0	437	46	1	0	retten	treu	spielen	freundlich	schlau	lachen	rächen	tot	strafen	fanatisch	schroff	leiden	helfen	loyal	tolerant	ehrlich	fair	schön	hindern	lasch	tyrannisch	eitel	faul	schlecht	1	blank2r.bmp	0	1	+	0	1	blank2r.bmp	500	1	GKQX	500	1	blank2r.bmp	880	2	tot	880	1	!	1293	1	!	1337	0	0	0	0	0	0
2024-06-05	11:43:20	11:49:16	355713	6.6.1	4_exp_EVA_AWA_CON	69	B	A	Rpleas_acq	Same	Rpleas	1pleas	acq_US_unple_nomask	acq3_nomask	3	18	453	1	300	300	0	0	433	46	1	0	retten	treu	spielen	freundlich	schlau	lachen	rächen	tot	strafen	fanatisch	schroff	leiden	helfen	loyal	tolerant	ehrlich	fair	schön	hindern	lasch	tyrannisch	eitel	faul	schlecht	1	blank2r.bmp	0	1	+	0	1	blank2r.bmp	500	1	GKQX	500	1	blank2r.bmp	880	6	leiden	880	1	!	1292	1	!	1334	0	0	0	0	0	0
2024-06-05	11:43:20	11:49:18	357921	6.6.1	4_exp_EVA_AWA_CON	69	B	A	Rpleas_acq	Same	Rpleas	1pleas	acq_US_pleas_nomask	acq3_nomask	3	19	453	1	300	300	0	0	430	50	1	0	retten	treu	spielen	freundlich	schlau	lachen	rächen	tot	strafen	fanatisch	schroff	leiden	helfen	loyal	tolerant	ehrlich	fair	schön	hindern	lasch	tyrannisch	eitel	faul	schlecht	1	blank2r.bmp	0	1	+	0	1	blank2r.bmp	500	1	BMVZ	500	1	blank2r.bmp	880	3	spielen	880	1	!	1292	1	!	1330	0	0	0	0	0	0
2024-06-05	11:43:20	11:49:20	360379	6.6.1	4_exp_EVA_AWA_CON	69	B	A	Rpleas_acq	Same	Rpleas	1pleas	acq_US_pleas_nomask	acq3_nomask	3	20	453	1	300	300	0	0	474	46	0	0	retten	treu	spielen	freundlich	schlau	lachen	rächen	tot	strafen	fanatisch	schroff	leiden	helfen	loyal	tolerant	ehrlich	fair	schön	hindern	lasch	tyrannisch	eitel	faul	schlecht	1	blank2r.bmp	0	1	+	0	1	blank2r.bmp	500	1	BMVZ	500	1	blank2r.bmp	880	6	lachen	880	1	FEHLER	1667	1	!	1292	1	!	1375	0	0	0
2024-06-05	11:43:20	11:49:23	362602	6.6.1	4_exp_EVA_AWA_CON	69	B	A	Rpleas_acq	Same	Rpleas	1pleas	acq_US_pleas_nomask	acq3_nomask	3	21	453	1	300	300	0	0	447	46	0	0	retten	treu	spielen	freundlich	schlau	lachen	rächen	tot	strafen	fanatisch	schroff	leiden	helfen	loyal	tolerant	ehrlich	fair	schön	hindern	lasch	tyrannisch	eitel	faul	schlecht	1	blank2r.bmp	0	1	+	0	1	blank2r.bmp	500	1	BMVZ	500	1	blank2r.bmp	880	2	treu	880	1	FEHLER	1639	1	!	1292	1	!	1348	0	0	0
2024-06-05	11:43:20	11:49:25	364673	6.6.1	4_exp_EVA_AWA_CON	69	B	A	Rpleas_acq	Same	Rpleas	1pleas	acq_US_pleas_nomask	acq3_nomask	3	22	453	1	300	300	0	0	497	50	1	0	retten	treu	spielen	freundlich	schlau	lachen	rächen	tot	strafen	fanatisch	schroff	leiden	helfen	loyal	tolerant	ehrlich	fair	schön	hindern	lasch	tyrannisch	eitel	faul	schlecht	1	blank2r.bmp	0	1	+	0	1	blank2r.bmp	500	1	BMVZ	500	1	blank2r.bmp	880	1	retten	880	1	!	1292	1	!	1398	0	0	0	0	0	0
2024-06-05	11:43:20	11:49:27	367091	6.6.1	4_exp_EVA_AWA_CON	69	B	A	Rpleas_acq	Same	Rpleas	1pleas	acq_US_unple_nomask	acq3_nomask	3	23	453	1	300	300	0	0	442	50	0	0	retten	treu	spielen	freundlich	schlau	lachen	rächen	tot	strafen	fanatisch	schroff	leiden	helfen	loyal	tolerant	ehrlich	fair	schön	hindern	lasch	tyrannisch	eitel	faul	schlecht	1	blank2r.bmp	0	1	+	0	1	blank2r.bmp	500	1	GKQX	500	1	blank2r.bmp	880	4	fanatisch	880	1	FEHLER	1635	1	!	1293	1	!	1343	0	0	0
2024-06-05	11:43:20	11:49:29	369362	6.6.1	4_exp_EVA_AWA_CON	69	B	A	Rpleas_acq	Same	Rpleas	1pleas	acq_US_pleas_nomask	acq3_nomask	3	24	453	1	300	300	0	0	492	46	0	0	retten	treu	spielen	freundlich	schlau	lachen	rächen	tot	strafen	fanatisch	schroff	leiden	helfen	loyal	tolerant	ehrlich	fair	schön	hindern	lasch	tyrannisch	eitel	faul	schlecht	1	blank2r.bmp	0	1	+	0	1	blank2r.bmp	500	1	BMVZ	500	1	blank2r.bmp	880	5	schlau	880	1	FEHLER	1685	1	!	1293	1	!	1393	0	0	0
2024-06-05	11:43:20	11:49:31	371441	6.6.1	4_exp_EVA_AWA_CON	69	B	A	Rpleas_acq	Same	Rpleas	1pleas	acq_US_pleas_nomask	acq3_nomask	3	25	453	1	300	300	0	0	501	50	1	0	retten	treu	spielen	freundlich	schlau	lachen	rächen	tot	strafen	fanatisch	schroff	leiden	helfen	loyal	tolerant	ehrlich	fair	schön	hindern	lasch	tyrannisch	eitel	faul	schlecht	1	blank2r.bmp	0	1	+	0	1	blank2r.bmp	500	1	BMVZ	500	1	blank2r.bmp	880	4	freundlich	880	1	!	1292	1	!	1402	0	0	0	0	0	0
2024-06-05	11:43:20	11:49:34	373721	6.6.1	4_exp_EVA_AWA_CON	69	B	A	Rpleas_acq	Same	Rpleas	1pleas	acq_US_unple_nomask	acq3_nomask	3	26	453	1	300	300	0	0	499	46	1	0	retten	treu	spielen	freundlich	schlau	lachen	rächen	tot	strafen	fanatisch	schroff	leiden	helfen	loyal	tolerant	ehrlich	fair	schön	hindern	lasch	tyrannisch	eitel	faul	schlecht	1	blank2r.bmp	0	1	+	0	1	blank2r.bmp	500	1	GKQX	500	1	blank2r.bmp	880	4	fanatisch	880	1	!	1292	1	!	1400	0	0	0	0	0	0
2024-06-05	11:43:20	11:49:36	376024	6.6.1	4_exp_EVA_AWA_CON	69	B	A	Rpleas_acq	Same	Rpleas	1pleas	acq_US_pleas_nomask	acq3_nomask	3	27	453	0	300	300	0	0	524	50	1	0	retten	treu	spielen	freundlich	schlau	lachen	rächen	tot	strafen	fanatisch	schroff	leiden	helfen	loyal	tolerant	ehrlich	fair	schön	hindern	lasch	tyrannisch	eitel	faul	schlecht	1	blank2r.bmp	0	1	+	0	1	blank2r.bmp	500	1	BMVZ	500	1	blank2r.bmp	880	5	schlau	880	1	!	1292	1	!	-1	0	0	0	0	0	0
2024-06-05	11:43:20	11:49:38	378306	6.6.1	4_exp_EVA_AWA_CON	69	B	A	Rpleas_acq	Same	Rpleas	1pleas	acq_US_pleas_nomask	acq3_nomask	3	28	453	1	300	300	0	0	500	50	1	0	retten	treu	spielen	freundlich	schlau	lachen	rächen	tot	strafen	fanatisch	schroff	leiden	helfen	loyal	tolerant	ehrlich	fair	schön	hindern	lasch	tyrannisch	eitel	faul	schlecht	1	blank2r.bmp	0	1	+	0	1	blank2r.bmp	500	1	BMVZ	500	1	blank2r.bmp	880	1	retten	880	1	!	1293	1	!	1402	0	0	0	0	0	0
2024-06-05	11:43:20	11:49:40	380498	6.6.1	4_exp_EVA_AWA_CON	69	B	A	Rpleas_acq	Same	Rpleas	1pleas	acq_US_unple_nomask	acq3_nomask	3	29	453	1	300	300	0	0	411	46	1	0	retten	treu	spielen	freundlich	schlau	lachen	rächen	tot	strafen	fanatisch	schroff	leiden	helfen	loyal	tolerant	ehrlich	fair	schön	hindern	lasch	tyrannisch	eitel	faul	schlecht	1	blank2r.bmp	0	1	+	0	1	blank2r.bmp	500	1	GKQX	500	1	blank2r.bmp	880	2	tot	880	1	!	1293	1	!	1312	0	0	0	0	0	0
2024-06-05	11:43:20	11:49:43	382721	6.6.1	4_exp_EVA_AWA_CON	69	B	A	Rpleas_acq	Same	Rpleas	1pleas	acq_US_pleas_nomask	acq3_nomask	3	30	453	1	300	300	0	0	444	50	1	0	retten	treu	spielen	freundlich	schlau	lachen	rächen	tot	strafen	fanatisch	schroff	leiden	helfen	loyal	tolerant	ehrlich	fair	schön	hindern	lasch	tyrannisch	eitel	faul	schlecht	1	blank2r.bmp	0	1	+	0	1	blank2r.bmp	500	1	BMVZ	500	1	blank2r.bmp	880	3	spielen	880	1	!	1292	1	!	1344	0	0	0	0	0	0
2024-06-05	11:43:20	11:49:45	385022	6.6.1	4_exp_EVA_AWA_CON	69	B	A	Rpleas_acq	Same	Rpleas	1pleas	acq_US_pleas_nomask	acq3_nomask	3	31	453	0	300	300	0	0	526	50	1	0	retten	treu	spielen	freundlich	schlau	lachen	rächen	tot	strafen	fanatisch	schroff	leiden	helfen	loyal	tolerant	ehrlich	fair	schön	hindern	lasch	tyrannisch	eitel	faul	schlecht	1	blank2r.bmp	0	1	+	0	1	blank2r.bmp	500	1	BMVZ	500	1	blank2r.bmp	880	2	treu	880	1	!	1293	1	!	-1	0	0	0	0	0	0
2024-06-05	11:43:20	11:49:47	387217	6.6.1	4_exp_EVA_AWA_CON	69	B	A	Rpleas_acq	Same	Rpleas	1pleas	acq_US_pleas_nomask	acq3_nomask	3	32	453	1	300	300	0	0	417	50	1	0	retten	treu	spielen	freundlich	schlau	lachen	rächen	tot	strafen	fanatisch	schroff	leiden	helfen	loyal	tolerant	ehrlich	fair	schön	hindern	lasch	tyrannisch	eitel	faul	schlecht	1	blank2r.bmp	0	1	+	0	1	blank2r.bmp	500	1	BMVZ	500	1	blank2r.bmp	880	6	lachen	880	1	!	1292	1	!	1317	0	0	0	0	0	0
2024-06-05	11:43:20	11:49:49	389465	6.6.1	4_exp_EVA_AWA_CON	69	B	A	Rpleas_acq	Same	Rpleas	1pleas	acq_US_unple_nomask	acq3_nomask	3	33	453	1	300	300	0	0	473	46	1	0	retten	treu	spielen	freundlich	schlau	lachen	rächen	tot	strafen	fanatisch	schroff	leiden	helfen	loyal	tolerant	ehrlich	fair	schön	hindern	lasch	tyrannisch	eitel	faul	schlecht	1	blank2r.bmp	0	1	+	0	1	blank2r.bmp	500	1	GKQX	500	1	blank2r.bmp	880	3	strafen	880	1	!	1292	1	!	1374	0	0	0	0	0	0
2024-06-05	11:43:20	11:49:52	391623	6.6.1	4_exp_EVA_AWA_CON	69	B	A	Rpleas_acq	Same	Rpleas	1pleas	acq_US_unple_nomask	acq3_nomask	3	34	453	0	300	300	0	0	382	46	1	0	retten	treu	spielen	freundlich	schlau	lachen	rächen	tot	strafen	fanatisch	schroff	leiden	helfen	loyal	tolerant	ehrlich	fair	schön	hindern	lasch	tyrannisch	eitel	faul	schlecht	1	blank2r.bmp	0	1	+	0	1	blank2r.bmp	500	1	GKQX	500	1	blank2r.bmp	880	6	leiden	880	1	!	-1	1	!	-1	0	0	0	0	0	0
2024-06-05	11:43:20	11:49:54	393826	6.6.1	4_exp_EVA_AWA_CON	69	B	A	Rpleas_acq	Same	Rpleas	1pleas	acq_US_unple_nomask	acq3_nomask	3	35	453	1	300	300	0	0	420	46	1	0	retten	treu	spielen	freundlich	schlau	lachen	rächen	tot	strafen	fanatisch	schroff	leiden	helfen	loyal	tolerant	ehrlich	fair	schön	hindern	lasch	tyrannisch	eitel	faul	schlecht	1	blank2r.bmp	0	1	+	0	1	blank2r.bmp	500	1	GKQX	500	1	blank2r.bmp	880	1	rächen	880	1	!	1292	1	!	1322	0	0	0	0	0	0
2024-06-05	11:43:20	11:49:56	396159	6.6.1	4_exp_EVA_AWA_CON	69	B	A	Rpleas_acq	Same	Rpleas	1pleas	acq_US_unple_nomask	acq3_nomask	3	36	453	0	300	300	0	0	554	46	1	0	retten	treu	spielen	freundlich	schlau	lachen	rächen	tot	strafen	fanatisch	schroff	leiden	helfen	loyal	tolerant	ehrlich	fair	schön	hindern	lasch	tyrannisch	eitel	faul	schlecht	1	blank2r.bmp	0	1	+	0	1	blank2r.bmp	500	1	GKQX	500	1	blank2r.bmp	880	5	schroff	880	1	!	1292	1	!	-1	0	0	0	0	0	0
2024-06-05	11:43:20	11:50:18	418151	6.6.1	4_exp_EVA_AWA_CON	69	B	A	Rpleas_acq	Same	Rpleas	1pleas	acq_US_unple_nomask	acq45_nomask	4	1	400	0	300	300	0	0	473	46	1	0	retten	treu	spielen	freundlich	schlau	lachen	rächen	tot	strafen	fanatisch	schroff	leiden	helfen	loyal	tolerant	ehrlich	fair	schön	hindern	lasch	tyrannisch	eitel	faul	schlecht	1	blank2r.bmp	0	1	+	0	1	blank2r.bmp	500	1	GKQX	500	1	blank2r.bmp	880	6	leiden	880	1	!	1232	1	!	-1	0	0	0	0	0	0
2024-06-05	11:43:20	11:50:20	420353	6.6.1	4_exp_EVA_AWA_CON	69	B	A	Rpleas_acq	Same	Rpleas	1pleas	acq_US_unple_nomask	acq45_nomask	4	2	400	1	300	300	0	0	420	46	1	0	retten	treu	spielen	freundlich	schlau	lachen	rächen	tot	strafen	fanatisch	schroff	leiden	helfen	loyal	tolerant	ehrlich	fair	schön	hindern	lasch	tyrannisch	eitel	faul	schlecht	1	blank2r.bmp	0	1	+	0	1	blank2r.bmp	500	1	GKQX	500	1	blank2r.bmp	880	2	tot	880	1	!	1232	1	!	1322	0	0	0	0	0	0
2024-06-05	11:43:20	11:50:23	422553	6.6.1	4_exp_EVA_AWA_CON	69	B	A	Rpleas_acq	Same	Rpleas	1pleas	acq_US_pleas_nomask	acq45_nomask	4	3	400	1	300	300	0	0	420	50	1	0	retten	treu	spielen	freundlich	schlau	lachen	rächen	tot	strafen	fanatisch	schroff	leiden	helfen	loyal	tolerant	ehrlich	fair	schön	hindern	lasch	tyrannisch	eitel	faul	schlecht	1	blank2r.bmp	0	1	+	0	1	blank2r.bmp	500	1	BMVZ	500	1	blank2r.bmp	880	4	freundlich	880	1	!	1232	1	!	1321	0	0	0	0	0	0
2024-06-05	11:43:20	11:50:25	424839	6.6.1	4_exp_EVA_AWA_CON	69	B	A	Rpleas_acq	Same	Rpleas	1pleas	acq_US_unple_nomask	acq45_nomask	4	4	400	0	300	300	0	0	505	46	1	0	retten	treu	spielen	freundlich	schlau	lachen	rächen	tot	strafen	fanatisch	schroff	leiden	helfen	loyal	tolerant	ehrlich	fair	schön	hindern	lasch	tyrannisch	eitel	faul	schlecht	1	blank2r.bmp	0	1	+	0	1	blank2r.bmp	500	1	GKQX	500	1	blank2r.bmp	880	5	schroff	880	1	!	1232	1	!	-1	0	0	0	0	0	0
2024-06-05	11:43:20	11:50:27	427057	6.6.1	4_exp_EVA_AWA_CON	69	B	A	Rpleas_acq	Same	Rpleas	1pleas	acq_US_pleas_nomask	acq45_nomask	4	5	400	1	300	300	0	0	440	50	1	0	retten	treu	spielen	freundlich	schlau	lachen	rächen	tot	strafen	fanatisch	schroff	leiden	helfen	loyal	tolerant	ehrlich	fair	schön	hindern	lasch	tyrannisch	eitel	faul	schlecht	1	blank2r.bmp	0	1	+	0	1	blank2r.bmp	500	1	BMVZ	500	1	blank2r.bmp	880	2	treu	880	1	!	1232	1	!	1342	0	0	0	0	0	0
2024-06-05	11:43:20	11:50:29	429359	6.6.1	4_exp_EVA_AWA_CON	69	B	A	Rpleas_acq	Same	Rpleas	1pleas	acq_US_unple_nomask	acq45_nomask	4	6	400	0	300	300	0	0	522	46	1	0	retten	treu	spielen	freundlich	schlau	lachen	rächen	tot	strafen	fanatisch	schroff	leiden	helfen	loyal	tolerant	ehrlich	fair	schön	hindern	lasch	tyrannisch	eitel	faul	schlecht	1	blank2r.bmp	0	1	+	0	1	blank2r.bmp	500	1	GKQX	500	1	blank2r.bmp	880	3	strafen	880	1	!	1232	1	!	-1	0	0	0	0	0	0
2024-06-05	11:43:20	11:50:32	431577	6.6.1	4_exp_EVA_AWA_CON	69	B	A	Rpleas_acq	Same	Rpleas	1pleas	acq_US_pleas_nomask	acq45_nomask	4	7	400	1	300	300	0	0	438	46	0	0	retten	treu	spielen	freundlich	schlau	lachen	rächen	tot	strafen	fanatisch	schroff	leiden	helfen	loyal	tolerant	ehrlich	fair	schön	hindern	lasch	tyrannisch	eitel	faul	schlecht	1	blank2r.bmp	0	1	+	0	1	blank2r.bmp	500	1	BMVZ	500	1	blank2r.bmp	880	1	retten	880	1	!	1233	1	!	1339	0	0	0	0	0	0
2024-06-05	11:43:20	11:50:34	433762	6.6.1	4_exp_EVA_AWA_CON	69	B	A	Rpleas_acq	Same	Rpleas	1pleas	acq_US_pleas_nomask	acq45_nomask	4	8	400	1	300	300	0	0	409	50	1	0	retten	treu	spielen	freundlich	schlau	lachen	rächen	tot	strafen	fanatisch	schroff	leiden	helfen	loyal	tolerant	ehrlich	fair	schön	hindern	lasch	tyrannisch	eitel	faul	schlecht	1	blank2r.bmp	0	1	+	0	1	blank2r.bmp	500	1	BMVZ	500	1	blank2r.bmp	880	6	lachen	880	1	!	1232	1	!	1312	0	0	0	0	0	0
2024-06-05	11:43:20	11:50:36	436032	6.6.1	4_exp_EVA_AWA_CON	69	B	A	Rpleas_acq	Same	Rpleas	1pleas	acq_US_unple_nomask	acq45_nomask	4	9	400	0	300	300	0	0	490	46	1	0	retten	treu	spielen	freundlich	schlau	lachen	rächen	tot	strafen	fanatisch	schroff	leiden	helfen	loyal	tolerant	ehrlich	fair	schön	hindern	lasch	tyrannisch	eitel	faul	schlecht	1	blank2r.bmp	0	1	+	0	1	blank2r.bmp	500	1	GKQX	500	1	blank2r.bmp	880	1	rächen	880	1	!	1232	1	!	-1	0	0	0	0	0	0
2024-06-05	11:43:20	11:50:38	438185	6.6.1	4_exp_EVA_AWA_CON	69	B	A	Rpleas_acq	Same	Rpleas	1pleas	acq_US_pleas_nomask	acq45_nomask	4	10	400	1	300	300	0	0	370	46	0	0	retten	treu	spielen	freundlich	schlau	lachen	rächen	tot	strafen	fanatisch	schroff	leiden	helfen	loyal	tolerant	ehrlich	fair	schön	hindern	lasch	tyrannisch	eitel	faul	schlecht	1	blank2r.bmp	0	1	+	0	1	blank2r.bmp	500	1	BMVZ	500	1	blank2r.bmp	880	3	spielen	880	1	!	1232	1	!	1272	0	0	0	0	0	0
2024-06-05	11:43:20	11:50:40	440353	6.6.1	4_exp_EVA_AWA_CON	69	B	A	Rpleas_acq	Same	Rpleas	1pleas	acq_US_pleas_nomask	acq45_nomask	4	11	400	1	300	300	0	0	387	50	1	0	retten	treu	spielen	freundlich	schlau	lachen	rächen	tot	strafen	fanatisch	schroff	leiden	helfen	loyal	tolerant	ehrlich	fair	schön	hindern	lasch	tyrannisch	eitel	faul	schlecht	1	blank2r.bmp	0	1	+	0	1	blank2r.bmp	500	1	BMVZ	500	1	blank2r.bmp	880	5	schlau	880	1	!	1232	1	!	1289	0	0	0	0	0	0
2024-06-05	11:43:20	11:50:43	442561	6.6.1	4_exp_EVA_AWA_CON	69	B	A	Rpleas_acq	Same	Rpleas	1pleas	acq_US_unple_nomask	acq45_nomask	4	12	400	1	300	300	0	0	424	50	0	0	retten	treu	spielen	freundlich	schlau	lachen	rächen	tot	strafen	fanatisch	schroff	leiden	helfen	loyal	tolerant	ehrlich	fair	schön	hindern	lasch	tyrannisch	eitel	faul	schlecht	1	blank2r.bmp	0	1	+	0	1	blank2r.bmp	500	1	GKQX	500	1	blank2r.bmp	880	4	fanatisch	880	1	!	1232	1	!	1325	0	0	0	0	0	0
2024-06-05	11:43:20	11:50:45	444738	6.6.1	4_exp_EVA_AWA_CON	69	B	A	Rpleas_acq	Same	Rpleas	1pleas	acq_US_pleas_nomask	acq45_nomask	4	13	400	1	300	300	0	0	399	50	1	0	retten	treu	spielen	freundlich	schlau	lachen	rächen	tot	strafen	fanatisch	schroff	leiden	helfen	loyal	tolerant	ehrlich	fair	schön	hindern	lasch	tyrannisch	eitel	faul	schlecht	1	blank2r.bmp	0	1	+	0	1	blank2r.bmp	500	1	BMVZ	500	1	blank2r.bmp	880	3	spielen	880	1	!	1233	1	!	1300	0	0	0	0	0	0
2024-06-05	11:43:20	11:50:47	446929	6.6.1	4_exp_EVA_AWA_CON	69	B	A	Rpleas_acq	Same	Rpleas	1pleas	acq_US_unple_nomask	acq45_nomask	4	14	400	1	300	300	0	0	409	46	1	0	retten	treu	spielen	freundlich	schlau	lachen	rächen	tot	strafen	fanatisch	schroff	leiden	helfen	loyal	tolerant	ehrlich	fair	schön	hindern	lasch	tyrannisch	eitel	faul	schlecht	1	blank2r.bmp	0	1	+	0	1	blank2r.bmp	500	1	GKQX	500	1	blank2r.bmp	880	4	fanatisch	880	1	!	1232	1	!	1311	0	0	0	0	0	0
2024-06-05	11:43:20	11:50:49	449129	6.6.1	4_exp_EVA_AWA_CON	69	B	A	Rpleas_acq	Same	Rpleas	1pleas	acq_US_pleas_nomask	acq45_nomask	4	15	400	1	300	300	0	0	417	50	1	0	retten	treu	spielen	freundlich	schlau	lachen	rächen	tot	strafen	fanatisch	schroff	leiden	helfen	loyal	tolerant	ehrlich	fair	schön	hindern	lasch	tyrannisch	eitel	faul	schlecht	1	blank2r.bmp	0	1	+	0	1	blank2r.bmp	500	1	BMVZ	500	1	blank2r.bmp	880	4	freundlich	880	1	!	1232	1	!	1319	0	0	0	0	0	0
2024-06-05	11:43:20	11:50:51	451289	6.6.1	4_exp_EVA_AWA_CON	69	B	A	Rpleas_acq	Same	Rpleas	1pleas	acq_US_pleas_nomask	acq45_nomask	4	16	400	1	300	300	0	0	376	46	0	0	retten	treu	spielen	freundlich	schlau	lachen	rächen	tot	strafen	fanatisch	schroff	leiden	helfen	loyal	tolerant	ehrlich	fair	schön	hindern	lasch	tyrannisch	eitel	faul	schlecht	1	blank2r.bmp	0	1	+	0	1	blank2r.bmp	500	1	BMVZ	500	1	blank2r.bmp	880	5	schlau	880	1	!	1232	1	!	1278	0	0	0	0	0	0
2024-06-05	11:43:20	11:50:53	453433	6.6.1	4_exp_EVA_AWA_CON	69	B	A	Rpleas_acq	Same	Rpleas	1pleas	acq_US_unple_nomask	acq45_nomask	4	17	400	1	300	300	0	0	368	46	1	0	retten	treu	spielen	freundlich	schlau	lachen	rächen	tot	strafen	fanatisch	schroff	leiden	helfen	loyal	tolerant	ehrlich	fair	schön	hindern	lasch	tyrannisch	eitel	faul	schlecht	1	blank2r.bmp	0	1	+	0	1	blank2r.bmp	500	1	GKQX	500	1	blank2r.bmp	880	5	schroff	880	1	!	1232	1	!	1270	0	0	0	0	0	0
2024-06-05	11:43:20	11:50:56	455625	6.6.1	4_exp_EVA_AWA_CON	69	B	A	Rpleas_acq	Same	Rpleas	1pleas	acq_US_unple_nomask	acq45_nomask	4	18	400	1	300	300	0	0	409	46	1	0	retten	treu	spielen	freundlich	schlau	lachen	rächen	tot	strafen	fanatisch	schroff	leiden	helfen	loyal	tolerant	ehrlich	fair	schön	hindern	lasch	tyrannisch	eitel	faul	schlecht	1	blank2r.bmp	0	1	+	0	1	blank2r.bmp	500	1	GKQX	500	1	blank2r.bmp	880	6	leiden	880	1	!	1232	1	!	1311	0	0	0	0	0	0
2024-06-05	11:43:20	11:50:58	457801	6.6.1	4_exp_EVA_AWA_CON	69	B	A	Rpleas_acq	Same	Rpleas	1pleas	acq_US_unple_nomask	acq45_nomask	4	19	400	1	300	300	0	0	394	46	1	0	retten	treu	spielen	freundlich	schlau	lachen	rächen	tot	strafen	fanatisch	schroff	leiden	helfen	loyal	tolerant	ehrlich	fair	schön	hindern	lasch	tyrannisch	eitel	faul	schlecht	1	blank2r.bmp	0	1	+	0	1	blank2r.bmp	500	1	GKQX	500	1	blank2r.bmp	880	2	tot	880	1	!	1232	1	!	1295	0	0	0	0	0	0
2024-06-05	11:43:20	11:51:00	460009	6.6.1	4_exp_EVA_AWA_CON	69	B	A	Rpleas_acq	Same	Rpleas	1pleas	acq_US_unple_nomask	acq45_nomask	4	20	400	1	300	300	0	0	430	46	1	0	retten	treu	spielen	freundlich	schlau	lachen	rächen	tot	strafen	fanatisch	schroff	leiden	helfen	loyal	tolerant	ehrlich	fair	schön	hindern	lasch	tyrannisch	eitel	faul	schlecht	1	blank2r.bmp	0	1	+	0	1	blank2r.bmp	500	1	GKQX	500	1	blank2r.bmp	880	1	rächen	880	1	!	1232	1	!	1332	0	0	0	0	0	0
2024-06-05	11:43:20	11:51:02	462249	6.6.1	4_exp_EVA_AWA_CON	69	B	A	Rpleas_acq	Same	Rpleas	1pleas	acq_US_pleas_nomask	acq45_nomask	4	21	400	1	300	300	0	0	459	46	0	0	retten	treu	spielen	freundlich	schlau	lachen	rächen	tot	strafen	fanatisch	schroff	leiden	helfen	loyal	tolerant	ehrlich	fair	schön	hindern	lasch	tyrannisch	eitel	faul	schlecht	1	blank2r.bmp	0	1	+	0	1	blank2r.bmp	500	1	BMVZ	500	1	blank2r.bmp	880	2	treu	880	1	!	1232	1	!	1360	0	0	0	0	0	0
2024-06-05	11:43:20	11:51:04	464465	6.6.1	4_exp_EVA_AWA_CON	69	B	A	Rpleas_acq	Same	Rpleas	1pleas	acq_US_pleas_nomask	acq45_nomask	4	22	400	1	300	300	0	0	433	50	1	0	retten	treu	spielen	freundlich	schlau	lachen	rächen	tot	strafen	fanatisch	schroff	leiden	helfen	loyal	tolerant	ehrlich	fair	schön	hindern	lasch	tyrannisch	eitel	faul	schlecht	1	blank2r.bmp	0	1	+	0	1	blank2r.bmp	500	1	BMVZ	500	1	blank2r.bmp	880	6	lachen	880	1	!	1232	1	!	1335	0	0	0	0	0	0
2024-06-05	11:43:20	11:51:07	466665	6.6.1	4_exp_EVA_AWA_CON	69	B	A	Rpleas_acq	Same	Rpleas	1pleas	acq_US_unple_nomask	acq45_nomask	4	23	400	1	300	300	0	0	422	46	1	0	retten	treu	spielen	freundlich	schlau	lachen	rächen	tot	strafen	fanatisch	schroff	leiden	helfen	loyal	tolerant	ehrlich	fair	schön	hindern	lasch	tyrannisch	eitel	faul	schlecht	1	blank2r.bmp	0	1	+	0	1	blank2r.bmp	500	1	GKQX	500	1	blank2r.bmp	880	3	strafen	880	1	!	1232	1	!	1323	0	0	0	0	0	0
2024-06-05	11:43:20	11:51:09	468817	6.6.1	4_exp_EVA_AWA_CON	69	B	A	Rpleas_acq	Same	Rpleas	1pleas	acq_US_pleas_nomask	acq45_nomask	4	24	400	1	300	300	0	0	372	46	0	0	retten	treu	spielen	freundlich	schlau	lachen	rächen	tot	strafen	fanatisch	schroff	leiden	helfen	loyal	tolerant	ehrlich	fair	schön	hindern	lasch	tyrannisch	eitel	faul	schlecht	1	blank2r.bmp	0	1	+	0	1	blank2r.bmp	500	1	BMVZ	500	1	blank2r.bmp	880	1	retten	880	1	!	1232	1	!	1274	0	0	0	0	0	0
2024-06-05	11:43:20	11:51:11	471025	6.6.1	4_exp_EVA_AWA_CON	69	B	A	Rpleas_acq	Same	Rpleas	1pleas	acq_US_unple_nomask	acq45_nomask	4	25	400	1	300	300	0	0	429	46	1	0	retten	treu	spielen	freundlich	schlau	lachen	rächen	tot	strafen	fanatisch	schroff	leiden	helfen	loyal	tolerant	ehrlich	fair	schön	hindern	lasch	tyrannisch	eitel	faul	schlecht	1	blank2r.bmp	0	1	+	0	1	blank2r.bmp	500	1	GKQX	500	1	blank2r.bmp	880	1	rächen	880	1	!	1232	1	!	1331	0	0	0	0	0	0
2024-06-05	11:43:20	11:51:13	473193	6.6.1	4_exp_EVA_AWA_CON	69	B	A	Rpleas_acq	Same	Rpleas	1pleas	acq_US_pleas_nomask	acq45_nomask	4	26	400	1	300	300	0	0	386	50	1	0	retten	treu	spielen	freundlich	schlau	lachen	rächen	tot	strafen	fanatisch	schroff	leiden	helfen	loyal	tolerant	ehrlich	fair	schön	hindern	lasch	tyrannisch	eitel	faul	schlecht	1	blank2r.bmp	0	1	+	0	1	blank2r.bmp	500	1	BMVZ	500	1	blank2r.bmp	880	5	schlau	880	1	!	1232	1	!	1287	0	0	0	0	0	0
2024-06-05	11:43:20	11:51:15	475345	6.6.1	4_exp_EVA_AWA_CON	69	B	A	Rpleas_acq	Same	Rpleas	1pleas	acq_US_pleas_nomask	acq45_nomask	4	27	400	1	300	300	0	0	376	50	1	0	retten	treu	spielen	freundlich	schlau	lachen	rächen	tot	strafen	fanatisch	schroff	leiden	helfen	loyal	tolerant	ehrlich	fair	schön	hindern	lasch	tyrannisch	eitel	faul	schlecht	1	blank2r.bmp	0	1	+	0	1	blank2r.bmp	500	1	BMVZ	500	1	blank2r.bmp	880	6	lachen	880	1	!	1232	1	!	1278	0	0	0	0	0	0
2024-06-05	11:43:20	11:51:18	477529	6.6.1	4_exp_EVA_AWA_CON	69	B	A	Rpleas_acq	Same	Rpleas	1pleas	acq_US_pleas_nomask	acq45_nomask	4	28	400	1	300	300	0	0	409	50	1	0	retten	treu	spielen	freundlich	schlau	lachen	rächen	tot	strafen	fanatisch	schroff	leiden	helfen	loyal	tolerant	ehrlich	fair	schön	hindern	lasch	tyrannisch	eitel	faul	schlecht	1	blank2r.bmp	0	1	+	0	1	blank2r.bmp	500	1	BMVZ	500	1	blank2r.bmp	880	3	spielen	880	1	!	1232	1	!	1310	0	0	0	0	0	0
2024-06-05	11:43:20	11:51:20	479815	6.6.1	4_exp_EVA_AWA_CON	69	B	A	Rpleas_acq	Same	Rpleas	1pleas	acq_US_unple_nomask	acq45_nomask	4	29	400	0	300	300	0	0	505	46	1	0	retten	treu	spielen	freundlich	schlau	lachen	rächen	tot	strafen	fanatisch	schroff	leiden	helfen	loyal	tolerant	ehrlich	fair	schön	hindern	lasch	tyrannisch	eitel	faul	schlecht	1	blank2r.bmp	0	1	+	0	1	blank2r.bmp	500	1	GKQX	500	1	blank2r.bmp	880	6	leiden	880	1	!	1232	1	!	-1	0	0	0	0	0	0
2024-06-05	11:43:20	11:51:22	482001	6.6.1	4_exp_EVA_AWA_CON	69	B	A	Rpleas_acq	Same	Rpleas	1pleas	acq_US_pleas_nomask	acq45_nomask	4	30	400	1	300	300	0	0	408	46	0	0	retten	treu	spielen	freundlich	schlau	lachen	rächen	tot	strafen	fanatisch	schroff	leiden	helfen	loyal	tolerant	ehrlich	fair	schön	hindern	lasch	tyrannisch	eitel	faul	schlecht	1	blank2r.bmp	0	1	+	0	1	blank2r.bmp	500	1	BMVZ	500	1	blank2r.bmp	880	4	freundlich	880	1	!	1232	1	!	1309	0	0	0	0	0	0
2024-06-05	11:43:20	11:51:24	484241	6.6.1	4_exp_EVA_AWA_CON	69	B	A	Rpleas_acq	Same	Rpleas	1pleas	acq_US_pleas_nomask	acq45_nomask	4	31	400	1	300	300	0	0	456	50	1	0	retten	treu	spielen	freundlich	schlau	lachen	rächen	tot	strafen	fanatisch	schroff	leiden	helfen	loyal	tolerant	ehrlich	fair	schön	hindern	lasch	tyrannisch	eitel	faul	schlecht	1	blank2r.bmp	0	1	+	0	1	blank2r.bmp	500	1	BMVZ	500	1	blank2r.bmp	880	2	treu	880	1	!	1232	1	!	1358	0	0	0	0	0	0
2024-06-05	11:43:20	11:51:26	486393	6.6.1	4_exp_EVA_AWA_CON	69	B	A	Rpleas_acq	Same	Rpleas	1pleas	acq_US_unple_nomask	acq45_nomask	4	32	400	1	300	300	0	0	377	50	0	0	retten	treu	spielen	freundlich	schlau	lachen	rächen	tot	strafen	fanatisch	schroff	leiden	helfen	loyal	tolerant	ehrlich	fair	schön	hindern	lasch	tyrannisch	eitel	faul	schlecht	1	blank2r.bmp	0	1	+	0	1	blank2r.bmp	500	1	GKQX	500	1	blank2r.bmp	880	4	fanatisch	880	1	!	1232	1	!	1278	0	0	0	0	0	0
2024-06-05	11:43:20	11:51:29	488633	6.6.1	4_exp_EVA_AWA_CON	69	B	A	Rpleas_acq	Same	Rpleas	1pleas	acq_US_unple_nomask	acq45_nomask	4	33	400	1	300	300	0	0	466	46	1	0	retten	treu	spielen	freundlich	schlau	lachen	rächen	tot	strafen	fanatisch	schroff	leiden	helfen	loyal	tolerant	ehrlich	fair	schön	hindern	lasch	tyrannisch	eitel	faul	schlecht	1	blank2r.bmp	0	1	+	0	1	blank2r.bmp	500	1	GKQX	500	1	blank2r.bmp	880	2	tot	880	1	!	1232	1	!	1367	0	0	0	0	0	0
2024-06-05	11:43:20	11:51:31	490809	6.6.1	4_exp_EVA_AWA_CON	69	B	A	Rpleas_acq	Same	Rpleas	1pleas	acq_US_unple_nomask	acq45_nomask	4	34	400	1	300	300	0	0	400	46	1	0	retten	treu	spielen	freundlich	schlau	lachen	rächen	tot	strafen	fanatisch	schroff	leiden	helfen	loyal	tolerant	ehrlich	fair	schön	hindern	lasch	tyrannisch	eitel	faul	schlecht	1	blank2r.bmp	0	1	+	0	1	blank2r.bmp	500	1	GKQX	500	1	blank2r.bmp	880	3	strafen	880	1	!	1233	1	!	1302	0	0	0	0	0	0
2024-06-05	11:43:20	11:51:33	493017	6.6.1	4_exp_EVA_AWA_CON	69	B	A	Rpleas_acq	Same	Rpleas	1pleas	acq_US_unple_nomask	acq45_nomask	4	35	400	1	300	300	0	0	427	46	1	0	retten	treu	spielen	freundlich	schlau	lachen	rächen	tot	strafen	fanatisch	schroff	leiden	helfen	loyal	tolerant	ehrlich	fair	schön	hindern	lasch	tyrannisch	eitel	faul	schlecht	1	blank2r.bmp	0	1	+	0	1	blank2r.bmp	500	1	GKQX	500	1	blank2r.bmp	880	5	schroff	880	1	!	1232	1	!	1328	0	0	0	0	0	0
2024-06-05	11:43:20	11:51:35	495311	6.6.1	4_exp_EVA_AWA_CON	69	B	A	Rpleas_acq	Same	Rpleas	1pleas	acq_US_pleas_nomask	acq45_nomask	4	36	400	0	300	300	0	0	511	46	0	0	retten	treu	spielen	freundlich	schlau	lachen	rächen	tot	strafen	fanatisch	schroff	leiden	helfen	loyal	tolerant	ehrlich	fair	schön	hindern	lasch	tyrannisch	eitel	faul	schlecht	1	blank2r.bmp	0	1	+	0	1	blank2r.bmp	500	1	BMVZ	500	1	blank2r.bmp	880	1	retten	880	1	!	1233	1	!	-1	0	0	0	0	0	0
2024-06-05	11:43:20	11:52:03	523111	6.6.1	4_exp_EVA_AWA_CON	69	B	A	Rpleas_acq	Same	Rpleas	1pleas	acq_US_pleas_nomask	acq45_nomask	5	1	400	1	300	300	0	0	343	50	1	0	retten	treu	spielen	freundlich	schlau	lachen	rächen	tot	strafen	fanatisch	schroff	leiden	helfen	loyal	tolerant	ehrlich	fair	schön	hindern	lasch	tyrannisch	eitel	faul	schlecht	1	blank2r.bmp	0	1	+	0	1	blank2r.bmp	500	1	BMVZ	500	1	blank2r.bmp	880	3	spielen	880	1	!	1232	1	!	1243	0	0	0	0	0	0
2024-06-05	11:43:20	11:52:05	525231	6.6.1	4_exp_EVA_AWA_CON	69	B	A	Rpleas_acq	Same	Rpleas	1pleas	acq_US_pleas_nomask	acq45_nomask	5	2	400	1	300	300	0	0	342	50	1	0	retten	treu	spielen	freundlich	schlau	lachen	rächen	tot	strafen	fanatisch	schroff	leiden	helfen	loyal	tolerant	ehrlich	fair	schön	hindern	lasch	tyrannisch	eitel	faul	schlecht	1	blank2r.bmp	0	1	+	0	1	blank2r.bmp	500	1	BMVZ	500	1	blank2r.bmp	880	4	freundlich	880	1	!	1232	1	!	1242	0	0	0	0	0	0
2024-06-05	11:43:20	11:52:07	527457	6.6.1	4_exp_EVA_AWA_CON	69	B	A	Rpleas_acq	Same	Rpleas	1pleas	acq_US_unple_nomask	acq45_nomask	5	3	400	1	300	300	0	0	444	46	1	0	retten	treu	spielen	freundlich	schlau	lachen	rächen	tot	strafen	fanatisch	schroff	leiden	helfen	loyal	tolerant	ehrlich	fair	schön	hindern	lasch	tyrannisch	eitel	faul	schlecht	1	blank2r.bmp	0	1	+	0	1	blank2r.bmp	500	1	GKQX	500	1	blank2r.bmp	880	1	rächen	880	1	!	1232	1	!	1346	0	0	0	0	0	0
2024-06-05	11:43:20	11:52:10	529585	6.6.1	4_exp_EVA_AWA_CON	69	B	A	Rpleas_acq	Same	Rpleas	1pleas	acq_US_unple_nomask	acq45_nomask	5	4	400	1	300	300	0	0	351	50	0	0	retten	treu	spielen	freundlich	schlau	lachen	rächen	tot	strafen	fanatisch	schroff	leiden	helfen	loyal	tolerant	ehrlich	fair	schön	hindern	lasch	tyrannisch	eitel	faul	schlecht	1	blank2r.bmp	0	1	+	0	1	blank2r.bmp	500	1	GKQX	500	1	blank2r.bmp	880	2	tot	880	1	!	1232	1	!	1252	0	0	0	0	0	0
2024-06-05	11:43:20	11:52:12	531729	6.6.1	4_exp_EVA_AWA_CON	69	B	A	Rpleas_acq	Same	Rpleas	1pleas	acq_US_pleas_nomask	acq45_nomask	5	5	400	1	300	300	0	0	364	50	1	0	retten	treu	spielen	freundlich	schlau	lachen	rächen	tot	strafen	fanatisch	schroff	leiden	helfen	loyal	tolerant	ehrlich	fair	schön	hindern	lasch	tyrannisch	eitel	faul	schlecht	1	blank2r.bmp	0	1	+	0	1	blank2r.bmp	500	1	BMVZ	500	1	blank2r.bmp	880	2	treu	880	1	!	1232	1	!	1265	0	0	0	0	0	0
2024-06-05	11:43:20	11:52:14	533981	6.6.1	4_exp_EVA_AWA_CON	69	B	A	Rpleas_acq	Same	Rpleas	1pleas	acq_US_unple_nomask	acq45_nomask	5	6	400	0	300	300	0	0	478	50	0	0	retten	treu	spielen	freundlich	schlau	lachen	rächen	tot	strafen	fanatisch	schroff	leiden	helfen	loyal	tolerant	ehrlich	fair	schön	hindern	lasch	tyrannisch	eitel	faul	schlecht	1	blank2r.bmp	0	1	+	0	1	blank2r.bmp	500	1	GKQX	500	1	blank2r.bmp	880	4	fanatisch	880	1	!	1232	1	!	-1	0	0	0	0	0	0
2024-06-05	11:43:20	11:52:16	536087	6.6.1	4_exp_EVA_AWA_CON	69	B	A	Rpleas_acq	Same	Rpleas	1pleas	acq_US_unple_nomask	acq45_nomask	5	7	400	0	300	300	0	0	331	46	1	0	retten	treu	spielen	freundlich	schlau	lachen	rächen	tot	strafen	fanatisch	schroff	leiden	helfen	loyal	tolerant	ehrlich	fair	schön	hindern	lasch	tyrannisch	eitel	faul	schlecht	1	blank2r.bmp	0	1	+	0	1	blank2r.bmp	500	1	GKQX	500	1	blank2r.bmp	880	3	strafen	880	1	!	-1	1	!	-1	0	0	0	0	0	0
2024-06-05	11:43:20	11:52:18	538305	6.6.1	4_exp_EVA_AWA_CON	69	B	A	Rpleas_acq	Same	Rpleas	1pleas	acq_US_unple_nomask	acq45_nomask	5	8	400	1	300	300	0	0	435	46	1	0	retten	treu	spielen	freundlich	schlau	lachen	rächen	tot	strafen	fanatisch	schroff	leiden	helfen	loyal	tolerant	ehrlich	fair	schön	hindern	lasch	tyrannisch	eitel	faul	schlecht	1	blank2r.bmp	0	1	+	0	1	blank2r.bmp	500	1	GKQX	500	1	blank2r.bmp	880	5	schroff	880	1	!	1232	1	!	1337	0	0	0	0	0	0
2024-06-05	11:43:20	11:52:21	540513	6.6.1	4_exp_EVA_AWA_CON	69	B	A	Rpleas_acq	Same	Rpleas	1pleas	acq_US_pleas_nomask	acq45_nomask	5	9	400	1	300	300	0	0	432	50	1	0	retten	treu	spielen	freundlich	schlau	lachen	rächen	tot	strafen	fanatisch	schroff	leiden	helfen	loyal	tolerant	ehrlich	fair	schön	hindern	lasch	tyrannisch	eitel	faul	schlecht	1	blank2r.bmp	0	1	+	0	1	blank2r.bmp	500	1	BMVZ	500	1	blank2r.bmp	880	5	schlau	880	1	!	1232	1	!	1333	0	0	0	0	0	0
2024-06-05	11:43:20	11:52:23	542689	6.6.1	4_exp_EVA_AWA_CON	69	B	A	Rpleas_acq	Same	Rpleas	1pleas	acq_US_unple_nomask	acq45_nomask	5	10	400	1	300	300	0	0	396	46	1	0	retten	treu	spielen	freundlich	schlau	lachen	rächen	tot	strafen	fanatisch	schroff	leiden	helfen	loyal	tolerant	ehrlich	fair	schön	hindern	lasch	tyrannisch	eitel	faul	schlecht	1	blank2r.bmp	0	1	+	0	1	blank2r.bmp	500	1	GKQX	500	1	blank2r.bmp	880	6	leiden	880	1	!	1232	1	!	1298	0	0	0	0	0	0
2024-06-05	11:43:20	11:52:25	544816	6.6.1	4_exp_EVA_AWA_CON	69	B	A	Rpleas_acq	Same	Rpleas	1pleas	acq_US_unple_nomask	acq45_nomask	5	11	400	1	300	300	0	0	353	46	1	0	retten	treu	spielen	freundlich	schlau	lachen	rächen	tot	strafen	fanatisch	schroff	leiden	helfen	loyal	tolerant	ehrlich	fair	schön	hindern	lasch	tyrannisch	eitel	faul	schlecht	1	blank2r.bmp	0	1	+	0	1	blank2r.bmp	500	1	GKQX	500	1	blank2r.bmp	880	2	tot	880	1	!	1232	1	!	1254	0	0	0	0	0	0
2024-06-05	11:43:20	11:52:27	547001	6.6.1	4_exp_EVA_AWA_CON	69	B	A	Rpleas_acq	Same	Rpleas	1pleas	acq_US_pleas_nomask	acq45_nomask	5	12	400	1	300	300	0	0	406	50	1	0	retten	treu	spielen	freundlich	schlau	lachen	rächen	tot	strafen	fanatisch	schroff	leiden	helfen	loyal	tolerant	ehrlich	fair	schön	hindern	lasch	tyrannisch	eitel	faul	schlecht	1	blank2r.bmp	0	1	+	0	1	blank2r.bmp	500	1	BMVZ	500	1	blank2r.bmp	880	1	retten	880	1	!	1232	1	!	1307	0	0	0	0	0	0
2024-06-05	11:43:20	11:52:29	549185	6.6.1	4_exp_EVA_AWA_CON	69	B	A	Rpleas_acq	Same	Rpleas	1pleas	acq_US_pleas_nomask	acq45_nomask	5	13	400	1	300	300	0	0	408	50	1	0	retten	treu	spielen	freundlich	schlau	lachen	rächen	tot	strafen	fanatisch	schroff	leiden	helfen	loyal	tolerant	ehrlich	fair	schön	hindern	lasch	tyrannisch	eitel	faul	schlecht	1	blank2r.bmp	0	1	+	0	1	blank2r.bmp	500	1	BMVZ	500	1	blank2r.bmp	880	6	lachen	880	1	!	1232	1	!	1310	0	0	0	0	0	0
2024-06-05	11:43:20	11:52:31	551433	6.6.1	4_exp_EVA_AWA_CON	69	B	A	Rpleas_acq	Same	Rpleas	1pleas	acq_US_pleas_nomask	acq45_nomask	5	14	400	1	300	300	0	0	465	46	0	0	retten	treu	spielen	freundlich	schlau	lachen	rächen	tot	strafen	fanatisch	schroff	leiden	helfen	loyal	tolerant	ehrlich	fair	schön	hindern	lasch	tyrannisch	eitel	faul	schlecht	1	blank2r.bmp	0	1	+	0	1	blank2r.bmp	500	1	BMVZ	500	1	blank2r.bmp	880	1	retten	880	1	!	1232	1	!	1366	0	0	0	0	0	0
2024-06-05	11:43:20	11:52:34	553577	6.6.1	4_exp_EVA_AWA_CON	69	B	A	Rpleas_acq	Same	Rpleas	1pleas	acq_US_pleas_nomask	acq45_nomask	5	15	400	1	300	300	0	0	367	50	1	0	retten	treu	spielen	freundlich	schlau	lachen	rächen	tot	strafen	fanatisch	schroff	leiden	helfen	loyal	tolerant	ehrlich	fair	schön	hindern	lasch	tyrannisch	eitel	faul	schlecht	1	blank2r.bmp	0	1	+	0	1	blank2r.bmp	500	1	BMVZ	500	1	blank2r.bmp	880	5	schlau	880	1	!	1232	1	!	1269	0	0	0	0	0	0
2024-06-05	11:43:20	11:52:36	555777	6.6.1	4_exp_EVA_AWA_CON	69	B	A	Rpleas_acq	Same	Rpleas	1pleas	acq_US_unple_nomask	acq45_nomask	5	16	400	1	300	300	0	0	416	50	0	0	retten	treu	spielen	freundlich	schlau	lachen	rächen	tot	strafen	fanatisch	schroff	leiden	helfen	loyal	tolerant	ehrlich	fair	schön	hindern	lasch	tyrannisch	eitel	faul	schlecht	1	blank2r.bmp	0	1	+	0	1	blank2r.bmp	500	1	GKQX	500	1	blank2r.bmp	880	6	leiden	880	1	!	1232	1	!	1317	0	0	0	0	0	0
2024-06-05	11:43:20	11:52:38	558022	6.6.1	4_exp_EVA_AWA_CON	69	B	A	Rpleas_acq	Same	Rpleas	1pleas	acq_US_unple_nomask	acq45_nomask	5	17	400	0	300	300	0	0	474	46	1	0	retten	treu	spielen	freundlich	schlau	lachen	rächen	tot	strafen	fanatisch	schroff	leiden	helfen	loyal	tolerant	ehrlich	fair	schön	hindern	lasch	tyrannisch	eitel	faul	schlecht	1	blank2r.bmp	0	1	+	0	1	blank2r.bmp	500	1	GKQX	500	1	blank2r.bmp	880	4	fanatisch	880	1	!	1232	1	!	-1	0	0	0	0	0	0
2024-06-05	11:43:20	11:52:40	560249	6.6.1	4_exp_EVA_AWA_CON	69	B	A	Rpleas_acq	Same	Rpleas	1pleas	acq_US_pleas_nomask	acq45_nomask	5	18	400	1	300	300	0	0	445	50	1	0	retten	treu	spielen	freundlich	schlau	lachen	rächen	tot	strafen	fanatisch	schroff	leiden	helfen	loyal	tolerant	ehrlich	fair	schön	hindern	lasch	tyrannisch	eitel	faul	schlecht	1	blank2r.bmp	0	1	+	0	1	blank2r.bmp	500	1	BMVZ	500	1	blank2r.bmp	880	6	lachen	880	1	!	1233	1	!	1347	0	0	0	0	0	0
2024-06-05	11:43:20	11:52:42	562385	6.6.1	4_exp_EVA_AWA_CON	69	B	A	Rpleas_acq	Same	Rpleas	1pleas	acq_US_unple_nomask	acq45_nomask	5	19	400	1	300	300	0	0	360	46	1	0	retten	treu	spielen	freundlich	schlau	lachen	rächen	tot	strafen	fanatisch	schroff	leiden	helfen	loyal	tolerant	ehrlich	fair	schön	hindern	lasch	tyrannisch	eitel	faul	schlecht	1	blank2r.bmp	0	1	+	0	1	blank2r.bmp	500	1	GKQX	500	1	blank2r.bmp	880	3	strafen	880	1	!	1232	1	!	1262	0	0	0	0	0	0
2024-06-05	11:43:20	11:52:45	564600	6.6.1	4_exp_EVA_AWA_CON	69	B	A	Rpleas_acq	Same	Rpleas	1pleas	acq_US_pleas_nomask	acq45_nomask	5	20	400	1	300	300	0	0	434	50	1	0	retten	treu	spielen	freundlich	schlau	lachen	rächen	tot	strafen	fanatisch	schroff	leiden	helfen	loyal	tolerant	ehrlich	fair	schön	hindern	lasch	tyrannisch	eitel	faul	schlecht	1	blank2r.bmp	0	1	+	0	1	blank2r.bmp	500	1	BMVZ	500	1	blank2r.bmp	880	3	spielen	880	1	!	1232	1	!	1335	0	0	0	0	0	0
2024-06-05	11:43:20	11:52:47	566809	6.6.1	4_exp_EVA_AWA_CON	69	B	A	Rpleas_acq	Same	Rpleas	1pleas	acq_US_unple_nomask	acq45_nomask	5	21	400	1	300	300	0	0	431	46	1	0	retten	treu	spielen	freundlich	schlau	lachen	rächen	tot	strafen	fanatisch	schroff	leiden	helfen	loyal	tolerant	ehrlich	fair	schön	hindern	lasch	tyrannisch	eitel	faul	schlecht	1	blank2r.bmp	0	1	+	0	1	blank2r.bmp	500	1	GKQX	500	1	blank2r.bmp	880	5	schroff	880	1	!	1232	1	!	1333	0	0	0	0	0	0
2024-06-05	11:43:20	11:52:49	568969	6.6.1	4_exp_EVA_AWA_CON	69	B	A	Rpleas_acq	Same	Rpleas	1pleas	acq_US_unple_nomask	acq45_nomask	5	22	400	1	300	300	0	0	379	50	0	0	retten	treu	spielen	freundlich	schlau	lachen	rächen	tot	strafen	fanatisch	schroff	leiden	helfen	loyal	tolerant	ehrlich	fair	schön	hindern	lasch	tyrannisch	eitel	faul	schlecht	1	blank2r.bmp	0	1	+	0	1	blank2r.bmp	500	1	GKQX	500	1	blank2r.bmp	880	1	rächen	880	1	!	1232	1	!	1281	0	0	0	0	0	0
2024-06-05	11:43:20	11:52:51	571145	6.6.1	4_exp_EVA_AWA_CON	69	B	A	Rpleas_acq	Same	Rpleas	1pleas	acq_US_unple_nomask	acq45_nomask	5	23	400	1	300	300	0	0	394	46	1	0	retten	treu	spielen	freundlich	schlau	lachen	rächen	tot	strafen	fanatisch	schroff	leiden	helfen	loyal	tolerant	ehrlich	fair	schön	hindern	lasch	tyrannisch	eitel	faul	schlecht	1	blank2r.bmp	0	1	+	0	1	blank2r.bmp	500	1	GKQX	500	1	blank2r.bmp	880	2	tot	880	1	!	1232	1	!	1295	0	0	0	0	0	0
2024-06-05	11:43:20	11:52:53	573336	6.6.1	4_exp_EVA_AWA_CON	69	B	A	Rpleas_acq	Same	Rpleas	1pleas	acq_US_pleas_nomask	acq45_nomask	5	24	400	1	300	300	0	0	415	50	1	0	retten	treu	spielen	freundlich	schlau	lachen	rächen	tot	strafen	fanatisch	schroff	leiden	helfen	loyal	tolerant	ehrlich	fair	schön	hindern	lasch	tyrannisch	eitel	faul	schlecht	1	blank2r.bmp	0	1	+	0	1	blank2r.bmp	500	1	BMVZ	500	1	blank2r.bmp	880	4	freundlich	880	1	!	1232	1	!	1316	0	0	0	0	0	0
2024-06-05	11:43:20	11:52:55	575497	6.6.1	4_exp_EVA_AWA_CON	69	B	A	Rpleas_acq	Same	Rpleas	1pleas	acq_US_unple_nomask	acq45_nomask	5	25	400	1	300	300	0	0	383	46	1	0	retten	treu	spielen	freundlich	schlau	lachen	rächen	tot	strafen	fanatisch	schroff	leiden	helfen	loyal	tolerant	ehrlich	fair	schön	hindern	lasch	tyrannisch	eitel	faul	schlecht	1	blank2r.bmp	0	1	+	0	1	blank2r.bmp	500	1	GKQX	500	1	blank2r.bmp	880	3	strafen	880	1	!	1233	1	!	1284	0	0	0	0	0	0
2024-06-05	11:43:20	11:52:58	577791	6.6.1	4_exp_EVA_AWA_CON	69	B	A	Rpleas_acq	Same	Rpleas	1pleas	acq_US_unple_nomask	acq45_nomask	5	26	400	0	300	300	0	0	518	50	0	0	retten	treu	spielen	freundlich	schlau	lachen	rächen	tot	strafen	fanatisch	schroff	leiden	helfen	loyal	tolerant	ehrlich	fair	schön	hindern	lasch	tyrannisch	eitel	faul	schlecht	1	blank2r.bmp	0	1	+	0	1	blank2r.bmp	500	1	GKQX	500	1	blank2r.bmp	880	6	leiden	880	1	!	1232	1	!	-1	0	0	0	0	0	0
2024-06-05	11:43:20	11:53:00	580017	6.6.1	4_exp_EVA_AWA_CON	69	B	A	Rpleas_acq	Same	Rpleas	1pleas	acq_US_pleas_nomask	acq45_nomask	5	27	400	1	300	300	0	0	450	50	1	0	retten	treu	spielen	freundlich	schlau	lachen	rächen	tot	strafen	fanatisch	schroff	leiden	helfen	loyal	tolerant	ehrlich	fair	schön	hindern	lasch	tyrannisch	eitel	faul	schlecht	1	blank2r.bmp	0	1	+	0	1	blank2r.bmp	500	1	BMVZ	500	1	blank2r.bmp	880	2	treu	880	1	!	1232	1	!	1352	0	0	0	0	0	0
2024-06-05	11:43:20	11:53:02	582193	6.6.1	4_exp_EVA_AWA_CON	69	B	A	Rpleas_acq	Same	Rpleas	1pleas	acq_US_pleas_nomask	acq45_nomask	5	28	400	1	300	300	0	0	395	46	0	0	retten	treu	spielen	freundlich	schlau	lachen	rächen	tot	strafen	fanatisch	schroff	leiden	helfen	loyal	tolerant	ehrlich	fair	schön	hindern	lasch	tyrannisch	eitel	faul	schlecht	1	blank2r.bmp	0	1	+	0	1	blank2r.bmp	500	1	BMVZ	500	1	blank2r.bmp	880	1	retten	880	1	!	1233	1	!	1296	0	0	0	0	0	0
2024-06-05	11:43:20	11:53:04	584455	6.6.1	4_exp_EVA_AWA_CON	69	B	A	Rpleas_acq	Same	Rpleas	1pleas	acq_US_unple_nomask	acq45_nomask	5	29	400	0	300	300	0	0	487	50	0	0	retten	treu	spielen	freundlich	schlau	lachen	rächen	tot	strafen	fanatisch	schroff	leiden	helfen	loyal	tolerant	ehrlich	fair	schön	hindern	lasch	tyrannisch	eitel	faul	schlecht	1	blank2r.bmp	0	1	+	0	1	blank2r.bmp	500	1	GKQX	500	1	blank2r.bmp	880	1	rächen	880	1	!	1232	1	!	-1	0	0	0	0	0	0
2024-06-05	11:43:20	11:53:07	586673	6.6.1	4_exp_EVA_AWA_CON	69	B	A	Rpleas_acq	Same	Rpleas	1pleas	acq_US_pleas_nomask	acq45_nomask	5	30	400	1	300	300	0	0	442	50	1	0	retten	treu	spielen	freundlich	schlau	lachen	rächen	tot	strafen	fanatisch	schroff	leiden	helfen	loyal	tolerant	ehrlich	fair	schön	hindern	lasch	tyrannisch	eitel	faul	schlecht	1	blank2r.bmp	0	1	+	0	1	blank2r.bmp	500	1	BMVZ	500	1	blank2r.bmp	880	2	treu	880	1	!	1232	1	!	1343	0	0	0	0	0	0
2024-06-05	11:43:20	11:53:09	588849	6.6.1	4_exp_EVA_AWA_CON	69	B	A	Rpleas_acq	Same	Rpleas	1pleas	acq_US_pleas_nomask	acq45_nomask	5	31	400	1	300	300	0	0	396	46	0	0	retten	treu	spielen	freundlich	schlau	lachen	rächen	tot	strafen	fanatisch	schroff	leiden	helfen	loyal	tolerant	ehrlich	fair	schön	hindern	lasch	tyrannisch	eitel	faul	schlecht	1	blank2r.bmp	0	1	+	0	1	blank2r.bmp	500	1	BMVZ	500	1	blank2r.bmp	880	4	freundlich	880	1	!	1232	1	!	1298	0	0	0	0	0	0
2024-06-05	11:43:20	11:53:11	591033	6.6.1	4_exp_EVA_AWA_CON	69	B	A	Rpleas_acq	Same	Rpleas	1pleas	acq_US_unple_nomask	acq45_nomask	5	32	400	1	300	300	0	0	409	50	0	0	retten	treu	spielen	freundlich	schlau	lachen	rächen	tot	strafen	fanatisch	schroff	leiden	helfen	loyal	tolerant	ehrlich	fair	schön	hindern	lasch	tyrannisch	eitel	faul	schlecht	1	blank2r.bmp	0	1	+	0	1	blank2r.bmp	500	1	GKQX	500	1	blank2r.bmp	880	4	fanatisch	880	1	!	1232	1	!	1310	0	0	0	0	0	0
2024-06-05	11:43:20	11:53:13	593327	6.6.1	4_exp_EVA_AWA_CON	69	B	A	Rpleas_acq	Same	Rpleas	1pleas	acq_US_pleas_nomask	acq45_nomask	5	33	400	0	300	300	0	0	514	50	1	0	retten	treu	spielen	freundlich	schlau	lachen	rächen	tot	strafen	fanatisch	schroff	leiden	helfen	loyal	tolerant	ehrlich	fair	schön	hindern	lasch	tyrannisch	eitel	faul	schlecht	1	blank2r.bmp	0	1	+	0	1	blank2r.bmp	500	1	BMVZ	500	1	blank2r.bmp	880	5	schlau	880	1	!	1233	1	!	-1	0	0	0	0	0	0
2024-06-05	11:43:20	11:53:16	595512	6.6.1	4_exp_EVA_AWA_CON	69	B	A	Rpleas_acq	Same	Rpleas	1pleas	acq_US_unple_nomask	acq45_nomask	5	34	400	1	300	300	0	0	406	46	1	0	retten	treu	spielen	freundlich	schlau	lachen	rächen	tot	strafen	fanatisch	schroff	leiden	helfen	loyal	tolerant	ehrlich	fair	schön	hindern	lasch	tyrannisch	eitel	faul	schlecht	1	blank2r.bmp	0	1	+	0	1	blank2r.bmp	500	1	GKQX	500	1	blank2r.bmp	880	5	schroff	880	1	!	1232	1	!	1307	0	0	0	0	0	0
2024-06-05	11:43:20	11:53:18	597697	6.6.1	4_exp_EVA_AWA_CON	69	B	A	Rpleas_acq	Same	Rpleas	1pleas	acq_US_pleas_nomask	acq45_nomask	5	35	400	1	300	300	0	0	409	50	1	0	retten	treu	spielen	freundlich	schlau	lachen	rächen	tot	strafen	fanatisch	schroff	leiden	helfen	loyal	tolerant	ehrlich	fair	schön	hindern	lasch	tyrannisch	eitel	faul	schlecht	1	blank2r.bmp	0	1	+	0	1	blank2r.bmp	500	1	BMVZ	500	1	blank2r.bmp	880	3	spielen	880	1	!	1232	1	!	1310	0	0	0	0	0	0
2024-06-05	11:43:20	11:53:20	599880	6.6.1	4_exp_EVA_AWA_CON	69	B	A	Rpleas_acq	Same	Rpleas	1pleas	acq_US_pleas_nomask	acq45_nomask	5	36	400	1	300	300	0	0	401	50	1	0	retten	treu	spielen	freundlich	schlau	lachen	rächen	tot	strafen	fanatisch	schroff	leiden	helfen	loyal	tolerant	ehrlich	fair	schön	hindern	lasch	tyrannisch	eitel	faul	schlecht	1	blank2r.bmp	0	1	+	0	1	blank2r.bmp	500	1	BMVZ	500	1	blank2r.bmp	880	6	lachen	880	1	!	1232	1	!	1303	0	0	0	0	0	0
2024-06-05	11:43:20	11:53:41	620548	6.6.1	4_exp_EVA_AWA_CON	69	B	A	Rpleas_acq	Same	Rpleas	1pleas	EvalRating_firsttwo	EvalRating_firsttwo	6	1	0	0	300	300	0	0	4260	line	0	62,6302083333333428072pct	retten	treu	spielen	freundlich	schlau	lachen	rächen	tot	strafen	fanatisch	schroff	leiden	helfen	loyal	tolerant	ehrlich	fair	schön	hindern	lasch	tyrannisch	eitel	faul	schlecht	1		-7	1	Wie angenehm oder unangenehm finden Sie die  Buchstabenkette ZGVK?	-7	1		-7	1		-7	1		-7	1	Unangenehm	-7	1	Angenehm	-7	0	0	0	0	0	0	0	0	0
2024-06-05	11:43:20	11:53:52	631531	6.6.1	4_exp_EVA_AWA_CON	69	B	A	Rpleas_acq	Same	Rpleas	1pleas	EvalRating_lastfour	EvalRating_lastfour	7	1	0	0	300	300	0	0	8609	line	0	-43,359375pct	retten	treu	spielen	freundlich	schlau	lachen	rächen	tot	strafen	fanatisch	schroff	leiden	helfen	loyal	tolerant	ehrlich	fair	schön	hindern	lasch	tyrannisch	eitel	faul	schlecht	1		-8	2	Wie angenehm oder unangenehm finden Sie die  Buchstabenkette GKQX?	-8	1		-8	1		-8	1		-8	1	Unangenehm	-8	1	Angenehm	-8	0	0	0	0	0	0	0	0	0
2024-06-05	11:43:20	11:53:54	633902	6.6.1	4_exp_EVA_AWA_CON	69	B	A	Rpleas_acq	Same	Rpleas	1pleas	blank_screen	EvalRating_lastfour	7	3	0	0	300	300	0	0	0	0	0	-43,359375pct	retten	treu	spielen	freundlich	schlau	lachen	rächen	tot	strafen	fanatisch	schroff	leiden	helfen	loyal	tolerant	ehrlich	fair	schön	hindern	lasch	tyrannisch	eitel	faul	schlecht	1		-8	0	0	0	0	0	0	0	0	0	0	0	0	0	0	0	0	0	0	0	0	0	0	0	0	0	0	0
2024-06-05	11:43:20	11:53:58	637883	6.6.1	4_exp_EVA_AWA_CON	69	B	A	Rpleas_acq	Same	Rpleas	1pleas	EvalRating_lastfour	EvalRating_lastfour	7	4	0	0	300	300	0	0	3394	line	0	19,0104166666666714036pct	retten	treu	spielen	freundlich	schlau	lachen	rächen	tot	strafen	fanatisch	schroff	leiden	helfen	loyal	tolerant	ehrlich	fair	schön	hindern	lasch	tyrannisch	eitel	faul	schlecht	1		-8	1	Wie angenehm oder unangenehm finden Sie die  Buchstabenkette BMVZ?	-8	1		-8	1		-8	1		-8	1	Unangenehm	-8	1	Angenehm	-8	0	0	0	0	0	0	0	0	0
2024-06-05	11:43:20	11:54:00	640256	6.6.1	4_exp_EVA_AWA_CON	69	B	A	Rpleas_acq	Same	Rpleas	1pleas	blank_screen	EvalRating_lastfour	7	6	0	0	300	300	0	0	0	0	0	19,0104166666666714036pct	retten	treu	spielen	freundlich	schlau	lachen	rächen	tot	strafen	fanatisch	schroff	leiden	helfen	loyal	tolerant	ehrlich	fair	schön	hindern	lasch	tyrannisch	eitel	faul	schlecht	1		-8	0	0	0	0	0	0	0	0	0	0	0	0	0	0	0	0	0	0	0	0	0	0	0	0	0	0	0
2024-06-05	11:43:20	11:54:07	647283	6.6.1	4_exp_EVA_AWA_CON	69	B	A	Rpleas_acq	Same	Rpleas	1pleas	EvalRating_lastfour	EvalRating_lastfour	7	7	0	0	300	300	0	0	6439	line	0	-4,5572916666666571928pct	retten	treu	spielen	freundlich	schlau	lachen	rächen	tot	strafen	fanatisch	schroff	leiden	helfen	loyal	tolerant	ehrlich	fair	schön	hindern	lasch	tyrannisch	eitel	faul	schlecht	1		-8	3	Wie angenehm oder unangenehm finden Sie die  Buchstabenkette XBQM?	-8	1		-8	1		-8	1		-8	1	Unangenehm	-8	1	Angenehm	-8	0	0	0	0	0	0	0	0	0
2024-06-05	11:43:20	11:54:58	697541	6.6.1	4_exp_EVA_AWA_CON	69	B	A	Rpleas_acq	Same	Rpleas	1pleas	conawa_CS2_US3	conawa1_nomask	8	1	0	0	300	300	0	0	18541	spielen	1	-4,5572916666666571928pct	retten	treu	spielen	freundlich	schlau	lachen	rächen	tot	strafen	fanatisch	schroff	leiden	helfen	loyal	tolerant	ehrlich	fair	schön	hindern	lasch	tyrannisch	eitel	faul	schlecht	0	0	0	0	0	0	0	0	0	0	0	0	0	0	0	0	0	0	0	0	0	0	0	0	0	0	0	0	0	0
2024-06-05	11:43:20	11:54:58	697543	6.6.1	4_exp_EVA_AWA_CON	69	B	A	Rpleas_acq	Same	Rpleas	1pleas	conawa_CS2_US3_confidence	conawa1_nomask	8	1	0	0	300	300	0	0	18541	guess	1	-4,5572916666666571928pct	retten	treu	spielen	freundlich	schlau	lachen	rächen	tot	strafen	fanatisch	schroff	leiden	helfen	loyal	tolerant	ehrlich	fair	schön	hindern	lasch	tyrannisch	eitel	faul	schlecht	0	0	0	0	0	0	0	0	0	0	0	0	0	0	0	0	0	0	0	0	0	0	0	0	0	0	0	0	0	0
2024-06-05	11:43:20	11:55:07	706777	6.6.1	4_exp_EVA_AWA_CON	69	B	A	Rpleas_acq	Same	Rpleas	1pleas	conawa_CS1_US1	conawa1_nomask	8	2	0	0	300	300	0	0	8622	retten	1	-4,5572916666666571928pct	retten	treu	spielen	freundlich	schlau	lachen	rächen	tot	strafen	fanatisch	schroff	leiden	helfen	loyal	tolerant	ehrlich	fair	schön	hindern	lasch	tyrannisch	eitel	faul	schlecht	0	0	0	0	0	0	0	0	0	0	0	0	0	0	0	0	0	0	0	0	0	0	0	0	0	0	0	0	0	0
2024-06-05	11:43:20	11:55:07	706778	6.6.1	4_exp_EVA_AWA_CON	69	B	A	Rpleas_acq	Same	Rpleas	1pleas	conawa_CS1_US1_confidence	conawa1_nomask	8	2	0	0	300	300	0	0	8622	guess	1	-4,5572916666666571928pct	retten	treu	spielen	freundlich	schlau	lachen	rächen	tot	strafen	fanatisch	schroff	leiden	helfen	loyal	tolerant	ehrlich	fair	schön	hindern	lasch	tyrannisch	eitel	faul	schlecht	0	0	0	0	0	0	0	0	0	0	0	0	0	0	0	0	0	0	0	0	0	0	0	0	0	0	0	0	0	0
2024-06-05	11:43:20	11:55:26	726200	6.6.1	4_exp_EVA_AWA_CON	69	B	A	Rpleas_acq	Same	Rpleas	1pleas	conawa_CS1_US6	conawa1_nomask	8	3	0	0	300	300	0	0	18803	lachen	1	-4,5572916666666571928pct	retten	treu	spielen	freundlich	schlau	lachen	rächen	tot	strafen	fanatisch	schroff	leiden	helfen	loyal	tolerant	ehrlich	fair	schön	hindern	lasch	tyrannisch	eitel	faul	schlecht	0	0	0	0	0	0	0	0	0	0	0	0	0	0	0	0	0	0	0	0	0	0	0	0	0	0	0	0	0	0
2024-06-05	11:43:20	11:55:26	726201	6.6.1	4_exp_EVA_AWA_CON	69	B	A	Rpleas_acq	Same	Rpleas	1pleas	conawa_CS1_US6_confidence	conawa1_nomask	8	3	0	0	300	300	0	0	18803	guess	1	-4,5572916666666571928pct	retten	treu	spielen	freundlich	schlau	lachen	rächen	tot	strafen	fanatisch	schroff	leiden	helfen	loyal	tolerant	ehrlich	fair	schön	hindern	lasch	tyrannisch	eitel	faul	schlecht	0	0	0	0	0	0	0	0	0	0	0	0	0	0	0	0	0	0	0	0	0	0	0	0	0	0	0	0	0	0
2024-06-05	11:43:20	11:55:38	737727	6.6.1	4_exp_EVA_AWA_CON	69	B	A	Rpleas_acq	Same	Rpleas	1pleas	conawa_CS2_US6	conawa1_nomask	8	4	0	0	300	300	0	0	10909	leiden	1	-4,5572916666666571928pct	retten	treu	spielen	freundlich	schlau	lachen	rächen	tot	strafen	fanatisch	schroff	leiden	helfen	loyal	tolerant	ehrlich	fair	schön	hindern	lasch	tyrannisch	eitel	faul	schlecht	0	0	0	0	0	0	0	0	0	0	0	0	0	0	0	0	0	0	0	0	0	0	0	0	0	0	0	0	0	0
2024-06-05	11:43:20	11:55:38	737729	6.6.1	4_exp_EVA_AWA_CON	69	B	A	Rpleas_acq	Same	Rpleas	1pleas	conawa_CS2_US6_confidence	conawa1_nomask	8	4	0	0	300	300	0	0	10909	guess	1	-4,5572916666666571928pct	retten	treu	spielen	freundlich	schlau	lachen	rächen	tot	strafen	fanatisch	schroff	leiden	helfen	loyal	tolerant	ehrlich	fair	schön	hindern	lasch	tyrannisch	eitel	faul	schlecht	0	0	0	0	0	0	0	0	0	0	0	0	0	0	0	0	0	0	0	0	0	0	0	0	0	0	0	0	0	0
2024-06-05	11:43:20	11:55:50	749545	6.6.1	4_exp_EVA_AWA_CON	69	B	A	Rpleas_acq	Same	Rpleas	1pleas	conawa_CS1_US4	conawa1_nomask	8	5	0	0	300	300	0	0	11205	ehrlich	1	-4,5572916666666571928pct	retten	treu	spielen	freundlich	schlau	lachen	rächen	tot	strafen	fanatisch	schroff	leiden	helfen	loyal	tolerant	ehrlich	fair	schön	hindern	lasch	tyrannisch	eitel	faul	schlecht	0	0	0	0	0	0	0	0	0	0	0	0	0	0	0	0	0	0	0	0	0	0	0	0	0	0	0	0	0	0
2024-06-05	11:43:20	11:55:50	749547	6.6.1	4_exp_EVA_AWA_CON	69	B	A	Rpleas_acq	Same	Rpleas	1pleas	conawa_CS1_US4_confidence	conawa1_nomask	8	5	0	0	300	300	0	0	11205	guess	1	-4,5572916666666571928pct	retten	treu	spielen	freundlich	schlau	lachen	rächen	tot	strafen	fanatisch	schroff	leiden	helfen	loyal	tolerant	ehrlich	fair	schön	hindern	lasch	tyrannisch	eitel	faul	schlecht	0	0	0	0	0	0	0	0	0	0	0	0	0	0	0	0	0	0	0	0	0	0	0	0	0	0	0	0	0	0
2024-06-05	11:43:20	11:56:01	760832	6.6.1	4_exp_EVA_AWA_CON	69	B	A	Rpleas_acq	Same	Rpleas	1pleas	conawa_CS1_US2	conawa1_nomask	8	6	0	0	300	300	0	0	10674	treu	1	-4,5572916666666571928pct	retten	treu	spielen	freundlich	schlau	lachen	rächen	tot	strafen	fanatisch	schroff	leiden	helfen	loyal	tolerant	ehrlich	fair	schön	hindern	lasch	tyrannisch	eitel	faul	schlecht	0	0	0	0	0	0	0	0	0	0	0	0	0	0	0	0	0	0	0	0	0	0	0	0	0	0	0	0	0	0
2024-06-05	11:43:20	11:56:01	760833	6.6.1	4_exp_EVA_AWA_CON	69	B	A	Rpleas_acq	Same	Rpleas	1pleas	conawa_CS1_US2_confidence	conawa1_nomask	8	6	0	0	300	300	0	0	10674	guess	1	-4,5572916666666571928pct	retten	treu	spielen	freundlich	schlau	lachen	rächen	tot	strafen	fanatisch	schroff	leiden	helfen	loyal	tolerant	ehrlich	fair	schön	hindern	lasch	tyrannisch	eitel	faul	schlecht	0	0	0	0	0	0	0	0	0	0	0	0	0	0	0	0	0	0	0	0	0	0	0	0	0	0	0	0	0	0
2024-06-05	11:43:20	11:56:10	770319	6.6.1	4_exp_EVA_AWA_CON	69	B	A	Rpleas_acq	Same	Rpleas	1pleas	conawa_CS2_US2	conawa1_nomask	8	7	0	0	300	300	0	0	8870	tolerant	1	-4,5572916666666571928pct	retten	treu	spielen	freundlich	schlau	lachen	rächen	tot	strafen	fanatisch	schroff	leiden	helfen	loyal	tolerant	ehrlich	fair	schön	hindern	lasch	tyrannisch	eitel	faul	schlecht	0	0	0	0	0	0	0	0	0	0	0	0	0	0	0	0	0	0	0	0	0	0	0	0	0	0	0	0	0	0
2024-06-05	11:43:20	11:56:10	770320	6.6.1	4_exp_EVA_AWA_CON	69	B	A	Rpleas_acq	Same	Rpleas	1pleas	conawa_CS2_US2_confidence	conawa1_nomask	8	7	0	0	300	300	0	0	8870	guess	1	-4,5572916666666571928pct	retten	treu	spielen	freundlich	schlau	lachen	rächen	tot	strafen	fanatisch	schroff	leiden	helfen	loyal	tolerant	ehrlich	fair	schön	hindern	lasch	tyrannisch	eitel	faul	schlecht	0	0	0	0	0	0	0	0	0	0	0	0	0	0	0	0	0	0	0	0	0	0	0	0	0	0	0	0	0	0
2024-06-05	11:43:20	11:56:31	791032	6.6.1	4_exp_EVA_AWA_CON	69	B	A	Rpleas_acq	Same	Rpleas	1pleas	conawa_CS2_US4	conawa1_nomask	8	8	0	0	300	300	0	0	20103	faul	1	-4,5572916666666571928pct	retten	treu	spielen	freundlich	schlau	lachen	rächen	tot	strafen	fanatisch	schroff	leiden	helfen	loyal	tolerant	ehrlich	fair	schön	hindern	lasch	tyrannisch	eitel	faul	schlecht	0	0	0	0	0	0	0	0	0	0	0	0	0	0	0	0	0	0	0	0	0	0	0	0	0	0	0	0	0	0
2024-06-05	11:43:20	11:56:31	791034	6.6.1	4_exp_EVA_AWA_CON	69	B	A	Rpleas_acq	Same	Rpleas	1pleas	conawa_CS2_US4_confidence	conawa1_nomask	8	8	0	0	300	300	0	0	20103	guess	1	-4,5572916666666571928pct	retten	treu	spielen	freundlich	schlau	lachen	rächen	tot	strafen	fanatisch	schroff	leiden	helfen	loyal	tolerant	ehrlich	fair	schön	hindern	lasch	tyrannisch	eitel	faul	schlecht	0	0	0	0	0	0	0	0	0	0	0	0	0	0	0	0	0	0	0	0	0	0	0	0	0	0	0	0	0	0
2024-06-05	11:43:20	11:56:38	797787	6.6.1	4_exp_EVA_AWA_CON	69	B	A	Rpleas_acq	Same	Rpleas	1pleas	conawa_CS2_US5	conawa1_nomask	8	9	0	0	300	300	0	0	6141	schroff	1	-4,5572916666666571928pct	retten	treu	spielen	freundlich	schlau	lachen	rächen	tot	strafen	fanatisch	schroff	leiden	helfen	loyal	tolerant	ehrlich	fair	schön	hindern	lasch	tyrannisch	eitel	faul	schlecht	0	0	0	0	0	0	0	0	0	0	0	0	0	0	0	0	0	0	0	0	0	0	0	0	0	0	0	0	0	0
2024-06-05	11:43:20	11:56:38	797788	6.6.1	4_exp_EVA_AWA_CON	69	B	A	Rpleas_acq	Same	Rpleas	1pleas	conawa_CS2_US5_confidence	conawa1_nomask	8	9	0	0	300	300	0	0	6141	guess	1	-4,5572916666666571928pct	retten	treu	spielen	freundlich	schlau	lachen	rächen	tot	strafen	fanatisch	schroff	leiden	helfen	loyal	tolerant	ehrlich	fair	schön	hindern	lasch	tyrannisch	eitel	faul	schlecht	0	0	0	0	0	0	0	0	0	0	0	0	0	0	0	0	0	0	0	0	0	0	0	0	0	0	0	0	0	0
2024-06-05	11:43:20	11:56:45	805091	6.6.1	4_exp_EVA_AWA_CON	69	B	A	Rpleas_acq	Same	Rpleas	1pleas	conawa_CS1_US5	conawa1_nomask	8	10	0	0	300	300	0	0	6692	schlau	1	-4,5572916666666571928pct	retten	treu	spielen	freundlich	schlau	lachen	rächen	tot	strafen	fanatisch	schroff	leiden	helfen	loyal	tolerant	ehrlich	fair	schön	hindern	lasch	tyrannisch	eitel	faul	schlecht	0	0	0	0	0	0	0	0	0	0	0	0	0	0	0	0	0	0	0	0	0	0	0	0	0	0	0	0	0	0
2024-06-05	11:43:20	11:56:45	805093	6.6.1	4_exp_EVA_AWA_CON	69	B	A	Rpleas_acq	Same	Rpleas	1pleas	conawa_CS1_US5_confidence	conawa1_nomask	8	10	0	0	300	300	0	0	6692	guess	1	-4,5572916666666571928pct	retten	treu	spielen	freundlich	schlau	lachen	rächen	tot	strafen	fanatisch	schroff	leiden	helfen	loyal	tolerant	ehrlich	fair	schön	hindern	lasch	tyrannisch	eitel	faul	schlecht	0	0	0	0	0	0	0	0	0	0	0	0	0	0	0	0	0	0	0	0	0	0	0	0	0	0	0	0	0	0
2024-06-05	11:43:20	11:56:54	814047	6.6.1	4_exp_EVA_AWA_CON	69	B	A	Rpleas_acq	Same	Rpleas	1pleas	conawa_CS2_US1	conawa1_nomask	8	11	0	0	300	300	0	0	8340	lasch	1	-4,5572916666666571928pct	retten	treu	spielen	freundlich	schlau	lachen	rächen	tot	strafen	fanatisch	schroff	leiden	helfen	loyal	tolerant	ehrlich	fair	schön	hindern	lasch	tyrannisch	eitel	faul	schlecht	0	0	0	0	0	0	0	0	0	0	0	0	0	0	0	0	0	0	0	0	0	0	0	0	0	0	0	0	0	0
2024-06-05	11:43:20	11:56:54	814049	6.6.1	4_exp_EVA_AWA_CON	69	B	A	Rpleas_acq	Same	Rpleas	1pleas	conawa_CS2_US1_confidence	conawa1_nomask	8	11	0	0	300	300	0	0	8340	guess	1	-4,5572916666666571928pct	retten	treu	spielen	freundlich	schlau	lachen	rächen	tot	strafen	fanatisch	schroff	leiden	helfen	loyal	tolerant	ehrlich	fair	schön	hindern	lasch	tyrannisch	eitel	faul	schlecht	0	0	0	0	0	0	0	0	0	0	0	0	0	0	0	0	0	0	0	0	0	0	0	0	0	0	0	0	0	0
2024-06-05	11:43:20	11:57:04	824073	6.6.1	4_exp_EVA_AWA_CON	69	B	A	Rpleas_acq	Same	Rpleas	1pleas	conawa_CS1_US3	conawa1_nomask	8	12	0	0	300	300	0	0	9415	tolerant	1	-4,5572916666666571928pct	retten	treu	spielen	freundlich	schlau	lachen	rächen	tot	strafen	fanatisch	schroff	leiden	helfen	loyal	tolerant	ehrlich	fair	schön	hindern	lasch	tyrannisch	eitel	faul	schlecht	0	0	0	0	0	0	0	0	0	0	0	0	0	0	0	0	0	0	0	0	0	0	0	0	0	0	0	0	0	0
2024-06-05	11:43:20	11:57:04	824075	6.6.1	4_exp_EVA_AWA_CON	69	B	A	Rpleas_acq	Same	Rpleas	1pleas	conawa_CS1_US3_confidence	conawa1_nomask	8	12	0	0	300	300	0	0	9415	guess	1	-4,5572916666666571928pct	retten	treu	spielen	freundlich	schlau	lachen	rächen	tot	strafen	fanatisch	schroff	leiden	helfen	loyal	tolerant	ehrlich	fair	schön	hindern	lasch	tyrannisch	eitel	faul	schlecht	0	0	0	0	0	0	0	0	0	0	0	0	0	0	0	0	0	0	0	0	0	0	0	0	0	0	0	0	0	0
2024-06-05	11:43:20	11:58:33	912744	6.6.1	4_exp_EVA_AWA_CON	69	B	A	Rpleas_acq	Same	Rpleas	1pleas	cond_US_unple_123_nomask_CS2	condtest_nomask_1	11	1	400	1	300	300	0	0	431	46	1	-4,5572916666666571928pct	retten	treu	spielen	freundlich	schlau	lachen	rächen	tot	strafen	fanatisch	schroff	leiden	helfen	loyal	tolerant	ehrlich	fair	schön	hindern	lasch	tyrannisch	eitel	faul	schlecht	1	blank2r.bmp	0	1	+	0	1	blank2r.bmp	500	1	GKQX	500	1	blank2r.bmp	880	1	strafen	880	1	!	1233	1	!	1333	0	0	0	0	0	0
2024-06-05	11:43:20	11:58:35	914872	6.6.1	4_exp_EVA_AWA_CON	69	B	A	Rpleas_acq	Same	Rpleas	1pleas	cond_new_pleas_456_nomask_CS1	condtest_nomask_1	11	2	400	1	300	300	0	0	347	50	1	-4,5572916666666571928pct	retten	treu	spielen	freundlich	schlau	lachen	rächen	tot	strafen	fanatisch	schroff	leiden	helfen	loyal	tolerant	ehrlich	fair	schön	hindern	lasch	tyrannisch	eitel	faul	schlecht	1	blank2r.bmp	0	1	+	0	1	blank2r.bmp	500	1	BMVZ	500	1	blank2r.bmp	880	3	schön	880	1	!	1232	1	!	1249	0	0	0	0	0	0
2024-06-05	11:43:20	11:58:37	917112	6.6.1	4_exp_EVA_AWA_CON	69	B	A	Rpleas_acq	Same	Rpleas	1pleas	cond_new_pleas_456_nomask_CS2	condtest_nomask_1	11	3	400	1	300	300	0	0	456	50	1	-4,5572916666666571928pct	retten	treu	spielen	freundlich	schlau	lachen	rächen	tot	strafen	fanatisch	schroff	leiden	helfen	loyal	tolerant	ehrlich	fair	schön	hindern	lasch	tyrannisch	eitel	faul	schlecht	1	blank2r.bmp	0	1	+	0	1	blank2r.bmp	500	1	GKQX	500	1	blank2r.bmp	880	1	schön	880	1	!	1232	1	!	1357	0	0	0	0	0	0
2024-06-05	11:43:20	11:58:39	919296	6.6.1	4_exp_EVA_AWA_CON	69	B	A	Rpleas_acq	Same	Rpleas	1pleas	cond_US_unple_123_nomask_CS1	condtest_nomask_1	11	4	400	1	300	300	0	0	408	46	1	-4,5572916666666571928pct	retten	treu	spielen	freundlich	schlau	lachen	rächen	tot	strafen	fanatisch	schroff	leiden	helfen	loyal	tolerant	ehrlich	fair	schön	hindern	lasch	tyrannisch	eitel	faul	schlecht	1	blank2r.bmp	0	1	+	0	1	blank2r.bmp	500	1	BMVZ	500	1	blank2r.bmp	880	2	tot	880	1	!	1232	1	!	1310	0	0	0	0	0	0
2024-06-05	11:43:20	11:58:41	921472	6.6.1	4_exp_EVA_AWA_CON	69	B	A	Rpleas_acq	Same	Rpleas	1pleas	cond_new_unple_456_nomask_CS1	condtest_nomask_1	11	5	400	1	300	300	0	0	393	46	1	-4,5572916666666571928pct	retten	treu	spielen	freundlich	schlau	lachen	rächen	tot	strafen	fanatisch	schroff	leiden	helfen	loyal	tolerant	ehrlich	fair	schön	hindern	lasch	tyrannisch	eitel	faul	schlecht	1	blank2r.bmp	0	1	+	0	1	blank2r.bmp	500	1	BMVZ	500	1	blank2r.bmp	880	1	eitel	880	1	!	1232	1	!	1295	0	0	0	0	0	0
2024-06-05	11:43:20	11:58:44	923632	6.6.1	4_exp_EVA_AWA_CON	69	B	A	Rpleas_acq	Same	Rpleas	1pleas	cond_US_pleas_123_nomask_CS2	condtest_nomask_1	11	6	400	1	300	300	0	0	382	50	1	-4,5572916666666571928pct	retten	treu	spielen	freundlich	schlau	lachen	rächen	tot	strafen	fanatisch	schroff	leiden	helfen	loyal	tolerant	ehrlich	fair	schön	hindern	lasch	tyrannisch	eitel	faul	schlecht	1	blank2r.bmp	0	1	+	0	1	blank2r.bmp	500	1	GKQX	500	1	blank2r.bmp	880	3	treu	880	1	!	1233	1	!	1283	0	0	0	0	0	0
2024-06-05	11:43:20	11:58:46	925840	6.6.1	4_exp_EVA_AWA_CON	69	B	A	Rpleas_acq	Same	Rpleas	1pleas	cond_US_pleas_123_nomask_CS1	condtest_nomask_1	11	7	400	1	300	300	0	0	428	46	0	-4,5572916666666571928pct	retten	treu	spielen	freundlich	schlau	lachen	rächen	tot	strafen	fanatisch	schroff	leiden	helfen	loyal	tolerant	ehrlich	fair	schön	hindern	lasch	tyrannisch	eitel	faul	schlecht	1	blank2r.bmp	0	1	+	0	1	blank2r.bmp	500	1	BMVZ	500	1	blank2r.bmp	880	2	treu	880	1	!	1232	1	!	1330	0	0	0	0	0	0
2024-06-05	11:43:20	11:58:48	928048	6.6.1	4_exp_EVA_AWA_CON	69	B	A	Rpleas_acq	Same	Rpleas	1pleas	cond_new_unple_456_nomask_CS2	condtest_nomask_1	11	8	400	1	300	300	0	0	425	50	0	-4,5572916666666571928pct	retten	treu	spielen	freundlich	schlau	lachen	rächen	tot	strafen	fanatisch	schroff	leiden	helfen	loyal	tolerant	ehrlich	fair	schön	hindern	lasch	tyrannisch	eitel	faul	schlecht	1	blank2r.bmp	0	1	+	0	1	blank2r.bmp	500	1	GKQX	500	1	blank2r.bmp	880	3	faul	880	1	!	1232	1	!	1326	0	0	0	0	0	0
2024-06-05	11:43:20	11:59:01	941016	6.6.1	4_exp_EVA_AWA_CON	69	B	A	Rpleas_acq	Same	Rpleas	1pleas	cond_new_unple_456_nomask_CS2	condtest_nomask_2	12	1	400	1	300	300	0	0	434	50	0	-4,5572916666666571928pct	retten	treu	spielen	freundlich	schlau	lachen	rächen	tot	strafen	fanatisch	schroff	leiden	helfen	loyal	tolerant	ehrlich	fair	schön	hindern	lasch	tyrannisch	eitel	faul	schlecht	1	blank2r.bmp	0	1	+	0	1	blank2r.bmp	500	1	GKQX	500	1	blank2r.bmp	880	2	eitel	880	1	!	1232	1	!	1336	0	0	0	0	0	0
