date	time	currenttime	elapsedtime	build	currentexpt	subject	CS_AB	US_AB	LRpleas_acq	SameOppo	condition_Lpleas	condition_1pleas	trialcode	blockcode	blocknum	trialnum	windowcenter	inwindow	pretrialpause	posttrialpause	trialduration	trialtimeout	latency	response	correct	correctedscore	US_nomask_pleas1	US_nomask_pleas2	US_nomask_pleas3	US_nomask_pleas4	US_nomask_pleas5	US_nomask_pleas6	US_nomask_unple1	US_nomask_unple2	US_nomask_unple3	US_nomask_unple4	US_nomask_unple5	US_nomask_unple6	new_nomask_pleas1	new_nomask_pleas2	new_nomask_pleas3	new_nomask_pleas4	new_nomask_pleas5	new_nomask_pleas6	new_nomask_unple1	new_nomask_unple2	new_nomask_unple3	new_nomask_unple4	new_nomask_unple5	new_nomask_unple6	stimulusnumber1	stimulusitem1	stimulusonset1	stimulusnumber2	stimulusitem2	stimulusonset2	stimulusnumber3	stimulusitem3	stimulusonset3	stimulusnumber4	stimulusitem4	stimulusonset4	stimulusnumber5	stimulusitem5	stimulusonset5	stimulusnumber6	stimulusitem6	stimulusonset6	stimulusnumber7	stimulusitem7	stimulusonset7	stimulusnumber8	stimulusitem8	stimulusonset8	stimulusnumber9	stimulusitem9	stimulusonset9	stimulusnumber10	stimulusitem10	stimulusonset10
2024-05-02	09:53:23	09:55:34	130469	6.6.1	4_exp_EVA_AWA_CON	6	B	A	Rpleas_acq	Oppo	Rpleas	1pleas	acq_new_pleas_nomask	acq1_nomask	1	1	0	0	300	300	0	0	992	50	1	0	treu	lachen	schlau	loyal	tolerant	schön	tot	leiden	schroff	lasch	tyrannisch	schlecht	helfen	freundlich	retten	fair	ehrlich	spielen	hindern	fanatisch	rächen	faul	eitel	strafen	1	blank2r.bmp	0	1	+	0	1	blank2r.bmp	500	8	C4r.bmp	500	1	blank2r.bmp	880	1	helfen	880	0	0	0	0	0	0	0	0	0	0	0	0
2024-05-02	09:53:23	09:55:36	132878	6.6.1	4_exp_EVA_AWA_CON	6	B	A	Rpleas_acq	Oppo	Rpleas	1pleas	acq_US_pleas_nomask	acq1_nomask	1	2	0	0	300	300	0	0	918	50	1	0	treu	lachen	schlau	loyal	tolerant	schön	tot	leiden	schroff	lasch	tyrannisch	schlecht	helfen	freundlich	retten	fair	ehrlich	spielen	hindern	fanatisch	rächen	faul	eitel	strafen	1	blank2r.bmp	0	1	+	0	1	blank2r.bmp	500	1	BMVZ	500	1	blank2r.bmp	880	4	loyal	880	0	0	0	0	0	0	0	0	0	0	0	0
2024-05-02	09:53:23	09:55:38	135030	6.6.1	4_exp_EVA_AWA_CON	6	B	A	Rpleas_acq	Oppo	Rpleas	1pleas	acq_US_unple_nomask	acq1_nomask	1	3	0	0	300	300	0	0	669	46	1	0	treu	lachen	schlau	loyal	tolerant	schön	tot	leiden	schroff	lasch	tyrannisch	schlecht	helfen	freundlich	retten	fair	ehrlich	spielen	hindern	fanatisch	rächen	faul	eitel	strafen	1	blank2r.bmp	0	1	+	0	1	blank2r.bmp	500	1	GKQX	500	1	blank2r.bmp	880	4	lasch	880	0	0	0	0	0	0	0	0	0	0	0	0
2024-05-02	09:53:23	09:55:40	137142	6.6.1	4_exp_EVA_AWA_CON	6	B	A	Rpleas_acq	Oppo	Rpleas	1pleas	acq_US_unple_nomask	acq1_nomask	1	4	0	0	300	300	0	0	629	46	1	0	treu	lachen	schlau	loyal	tolerant	schön	tot	leiden	schroff	lasch	tyrannisch	schlecht	helfen	freundlich	retten	fair	ehrlich	spielen	hindern	fanatisch	rächen	faul	eitel	strafen	1	blank2r.bmp	0	1	+	0	1	blank2r.bmp	500	1	GKQX	500	1	blank2r.bmp	880	3	schroff	880	0	0	0	0	0	0	0	0	0	0	0	0
2024-05-02	09:53:23	09:55:43	139254	6.6.1	4_exp_EVA_AWA_CON	6	B	A	Rpleas_acq	Oppo	Rpleas	1pleas	acq_new_unple_nomask	acq1_nomask	1	5	0	0	300	300	0	0	630	46	1	0	treu	lachen	schlau	loyal	tolerant	schön	tot	leiden	schroff	lasch	tyrannisch	schlecht	helfen	freundlich	retten	fair	ehrlich	spielen	hindern	fanatisch	rächen	faul	eitel	strafen	1	blank2r.bmp	0	1	+	0	1	blank2r.bmp	500	3	B3r.bmp	500	1	blank2r.bmp	880	3	rächen	880	0	0	0	0	0	0	0	0	0	0	0	0
2024-05-02	09:53:23	09:55:45	141439	6.6.1	4_exp_EVA_AWA_CON	6	B	A	Rpleas_acq	Oppo	Rpleas	1pleas	acq_new_unple_nomask	acq1_nomask	1	6	0	0	300	300	0	0	503	50	0	0	treu	lachen	schlau	loyal	tolerant	schön	tot	leiden	schroff	lasch	tyrannisch	schlecht	helfen	freundlich	retten	fair	ehrlich	spielen	hindern	fanatisch	rächen	faul	eitel	strafen	1	blank2r.bmp	0	1	+	0	1	blank2r.bmp	500	5	C1r.bmp	500	1	blank2r.bmp	880	5	eitel	880	1	FEHLER	1404	0	0	0	0	0	0	0	0	0
2024-05-02	09:53:23	09:55:46	143213	6.6.1	4_exp_EVA_AWA_CON	6	B	A	Rpleas_acq	Oppo	Rpleas	1pleas	acq_US_pleas_nomask	acq1_nomask	1	7	0	0	300	300	0	0	487	50	1	0	treu	lachen	schlau	loyal	tolerant	schön	tot	leiden	schroff	lasch	tyrannisch	schlecht	helfen	freundlich	retten	fair	ehrlich	spielen	hindern	fanatisch	rächen	faul	eitel	strafen	1	blank2r.bmp	0	1	+	0	1	blank2r.bmp	500	1	BMVZ	500	1	blank2r.bmp	880	2	lachen	880	0	0	0	0	0	0	0	0	0	0	0	0
2024-05-02	09:53:23	09:55:49	145341	6.6.1	4_exp_EVA_AWA_CON	6	B	A	Rpleas_acq	Oppo	Rpleas	1pleas	acq_US_unple_nomask	acq1_nomask	1	8	0	0	300	300	0	0	644	46	1	0	treu	lachen	schlau	loyal	tolerant	schön	tot	leiden	schroff	lasch	tyrannisch	schlecht	helfen	freundlich	retten	fair	ehrlich	spielen	hindern	fanatisch	rächen	faul	eitel	strafen	1	blank2r.bmp	0	1	+	0	1	blank2r.bmp	500	1	GKQX	500	1	blank2r.bmp	880	2	leiden	880	0	0	0	0	0	0	0	0	0	0	0	0
2024-05-02	09:53:23	09:55:51	147325	6.6.1	4_exp_EVA_AWA_CON	6	B	A	Rpleas_acq	Oppo	Rpleas	1pleas	acq_new_pleas_nomask	acq1_nomask	1	9	0	0	300	300	0	0	497	50	1	0	treu	lachen	schlau	loyal	tolerant	schön	tot	leiden	schroff	lasch	tyrannisch	schlecht	helfen	freundlich	retten	fair	ehrlich	spielen	hindern	fanatisch	rächen	faul	eitel	strafen	1	blank2r.bmp	0	1	+	0	1	blank2r.bmp	500	1	B1r.bmp	500	1	blank2r.bmp	880	3	retten	880	0	0	0	0	0	0	0	0	0	0	0	0
2024-05-02	09:53:23	09:55:53	149310	6.6.1	4_exp_EVA_AWA_CON	6	B	A	Rpleas_acq	Oppo	Rpleas	1pleas	acq_new_pleas_nomask	acq1_nomask	1	10	0	0	300	300	0	0	499	50	1	0	treu	lachen	schlau	loyal	tolerant	schön	tot	leiden	schroff	lasch	tyrannisch	schlecht	helfen	freundlich	retten	fair	ehrlich	spielen	hindern	fanatisch	rächen	faul	eitel	strafen	1	blank2r.bmp	0	1	+	0	1	blank2r.bmp	500	6	C2r.bmp	500	1	blank2r.bmp	880	6	spielen	880	0	0	0	0	0	0	0	0	0	0	0	0
2024-05-02	09:53:23	09:55:55	151269	6.6.1	4_exp_EVA_AWA_CON	6	B	A	Rpleas_acq	Oppo	Rpleas	1pleas	acq_new_unple_nomask	acq1_nomask	1	11	0	0	300	300	0	0	478	46	1	0	treu	lachen	schlau	loyal	tolerant	schön	tot	leiden	schroff	lasch	tyrannisch	schlecht	helfen	freundlich	retten	fair	ehrlich	spielen	hindern	fanatisch	rächen	faul	eitel	strafen	1	blank2r.bmp	0	1	+	0	1	blank2r.bmp	500	4	B4r.bmp	500	1	blank2r.bmp	880	6	strafen	880	0	0	0	0	0	0	0	0	0	0	0	0
2024-05-02	09:53:23	09:55:57	153294	6.6.1	4_exp_EVA_AWA_CON	6	B	A	Rpleas_acq	Oppo	Rpleas	1pleas	acq_US_pleas_nomask	acq1_nomask	1	12	0	0	300	300	0	0	541	50	1	0	treu	lachen	schlau	loyal	tolerant	schön	tot	leiden	schroff	lasch	tyrannisch	schlecht	helfen	freundlich	retten	fair	ehrlich	spielen	hindern	fanatisch	rächen	faul	eitel	strafen	1	blank2r.bmp	0	1	+	0	1	blank2r.bmp	500	1	BMVZ	500	1	blank2r.bmp	880	3	schlau	880	0	0	0	0	0	0	0	0	0	0	0	0
2024-05-02	09:53:23	09:55:59	155294	6.6.1	4_exp_EVA_AWA_CON	6	B	A	Rpleas_acq	Oppo	Rpleas	1pleas	acq_new_unple_nomask	acq1_nomask	1	13	0	0	300	300	0	0	509	46	1	0	treu	lachen	schlau	loyal	tolerant	schön	tot	leiden	schroff	lasch	tyrannisch	schlecht	helfen	freundlich	retten	fair	ehrlich	spielen	hindern	fanatisch	rächen	faul	eitel	strafen	1	blank2r.bmp	0	1	+	0	1	blank2r.bmp	500	2	B2r.bmp	500	1	blank2r.bmp	880	4	faul	880	0	0	0	0	0	0	0	0	0	0	0	0
2024-05-02	09:53:23	09:56:01	157238	6.6.1	4_exp_EVA_AWA_CON	6	B	A	Rpleas_acq	Oppo	Rpleas	1pleas	acq_new_pleas_nomask	acq1_nomask	1	14	0	0	300	300	0	0	462	50	1	0	treu	lachen	schlau	loyal	tolerant	schön	tot	leiden	schroff	lasch	tyrannisch	schlecht	helfen	freundlich	retten	fair	ehrlich	spielen	hindern	fanatisch	rächen	faul	eitel	strafen	1	blank2r.bmp	0	1	+	0	1	blank2r.bmp	500	7	C3r.bmp	500	1	blank2r.bmp	880	2	freundlich	880	0	0	0	0	0	0	0	0	0	0	0	0
2024-05-02	09:53:23	09:56:02	159198	6.6.1	4_exp_EVA_AWA_CON	6	B	A	Rpleas_acq	Oppo	Rpleas	1pleas	acq_new_pleas_nomask	acq1_nomask	1	15	0	0	300	300	0	0	471	50	1	0	treu	lachen	schlau	loyal	tolerant	schön	tot	leiden	schroff	lasch	tyrannisch	schlecht	helfen	freundlich	retten	fair	ehrlich	spielen	hindern	fanatisch	rächen	faul	eitel	strafen	1	blank2r.bmp	0	1	+	0	1	blank2r.bmp	500	7	C3r.bmp	500	1	blank2r.bmp	880	4	fair	880	0	0	0	0	0	0	0	0	0	0	0	0
2024-05-02	09:53:23	09:56:05	161367	6.6.1	4_exp_EVA_AWA_CON	6	B	A	Rpleas_acq	Oppo	Rpleas	1pleas	acq_new_unple_nomask	acq1_nomask	1	16	0	0	300	300	0	0	478	50	0	0	treu	lachen	schlau	loyal	tolerant	schön	tot	leiden	schroff	lasch	tyrannisch	schlecht	helfen	freundlich	retten	fair	ehrlich	spielen	hindern	fanatisch	rächen	faul	eitel	strafen	1	blank2r.bmp	0	1	+	0	1	blank2r.bmp	500	1	B1r.bmp	500	1	blank2r.bmp	880	2	fanatisch	880	1	FEHLER	1379	0	0	0	0	0	0	0	0	0
2024-05-02	09:53:23	09:56:06	163181	6.6.1	4_exp_EVA_AWA_CON	6	B	A	Rpleas_acq	Oppo	Rpleas	1pleas	acq_US_pleas_nomask	acq1_nomask	1	17	0	0	300	300	0	0	533	50	1	0	treu	lachen	schlau	loyal	tolerant	schön	tot	leiden	schroff	lasch	tyrannisch	schlecht	helfen	freundlich	retten	fair	ehrlich	spielen	hindern	fanatisch	rächen	faul	eitel	strafen	1	blank2r.bmp	0	1	+	0	1	blank2r.bmp	500	1	BMVZ	500	1	blank2r.bmp	880	1	treu	880	0	0	0	0	0	0	0	0	0	0	0	0
2024-05-02	09:53:23	09:56:08	165182	6.6.1	4_exp_EVA_AWA_CON	6	B	A	Rpleas_acq	Oppo	Rpleas	1pleas	acq_US_pleas_nomask	acq1_nomask	1	18	0	0	300	300	0	0	511	50	1	0	treu	lachen	schlau	loyal	tolerant	schön	tot	leiden	schroff	lasch	tyrannisch	schlecht	helfen	freundlich	retten	fair	ehrlich	spielen	hindern	fanatisch	rächen	faul	eitel	strafen	1	blank2r.bmp	0	1	+	0	1	blank2r.bmp	500	1	BMVZ	500	1	blank2r.bmp	880	5	tolerant	880	0	0	0	0	0	0	0	0	0	0	0	0
2024-05-02	09:53:23	09:56:11	167344	6.6.1	4_exp_EVA_AWA_CON	6	B	A	Rpleas_acq	Oppo	Rpleas	1pleas	acq_new_unple_nomask	acq1_nomask	1	19	0	0	300	300	0	0	470	50	0	0	treu	lachen	schlau	loyal	tolerant	schön	tot	leiden	schroff	lasch	tyrannisch	schlecht	helfen	freundlich	retten	fair	ehrlich	spielen	hindern	fanatisch	rächen	faul	eitel	strafen	1	blank2r.bmp	0	1	+	0	1	blank2r.bmp	500	8	C4r.bmp	500	1	blank2r.bmp	880	1	hindern	880	1	FEHLER	1372	0	0	0	0	0	0	0	0	0
2024-05-02	09:53:23	09:56:12	169061	6.6.1	4_exp_EVA_AWA_CON	6	B	A	Rpleas_acq	Oppo	Rpleas	1pleas	acq_US_pleas_nomask	acq1_nomask	1	20	0	0	300	300	0	0	439	50	1	0	treu	lachen	schlau	loyal	tolerant	schön	tot	leiden	schroff	lasch	tyrannisch	schlecht	helfen	freundlich	retten	fair	ehrlich	spielen	hindern	fanatisch	rächen	faul	eitel	strafen	1	blank2r.bmp	0	1	+	0	1	blank2r.bmp	500	1	BMVZ	500	1	blank2r.bmp	880	6	schön	880	0	0	0	0	0	0	0	0	0	0	0	0
2024-05-02	09:53:23	09:56:14	171086	6.6.1	4_exp_EVA_AWA_CON	6	B	A	Rpleas_acq	Oppo	Rpleas	1pleas	acq_US_unple_nomask	acq1_nomask	1	21	0	0	300	300	0	0	541	46	1	0	treu	lachen	schlau	loyal	tolerant	schön	tot	leiden	schroff	lasch	tyrannisch	schlecht	helfen	freundlich	retten	fair	ehrlich	spielen	hindern	fanatisch	rächen	faul	eitel	strafen	1	blank2r.bmp	0	1	+	0	1	blank2r.bmp	500	1	GKQX	500	1	blank2r.bmp	880	6	schlecht	880	0	0	0	0	0	0	0	0	0	0	0	0
2024-05-02	09:53:23	09:56:16	173166	6.6.1	4_exp_EVA_AWA_CON	6	B	A	Rpleas_acq	Oppo	Rpleas	1pleas	acq_US_unple_nomask	acq1_nomask	1	22	0	0	300	300	0	0	590	46	1	0	treu	lachen	schlau	loyal	tolerant	schön	tot	leiden	schroff	lasch	tyrannisch	schlecht	helfen	freundlich	retten	fair	ehrlich	spielen	hindern	fanatisch	rächen	faul	eitel	strafen	1	blank2r.bmp	0	1	+	0	1	blank2r.bmp	500	1	GKQX	500	1	blank2r.bmp	880	5	tyrannisch	880	0	0	0	0	0	0	0	0	0	0	0	0
2024-05-02	09:53:23	09:56:18	175142	6.6.1	4_exp_EVA_AWA_CON	6	B	A	Rpleas_acq	Oppo	Rpleas	1pleas	acq_new_pleas_nomask	acq1_nomask	1	23	0	0	300	300	0	0	495	50	1	0	treu	lachen	schlau	loyal	tolerant	schön	tot	leiden	schroff	lasch	tyrannisch	schlecht	helfen	freundlich	retten	fair	ehrlich	spielen	hindern	fanatisch	rächen	faul	eitel	strafen	1	blank2r.bmp	0	1	+	0	1	blank2r.bmp	500	4	B4r.bmp	500	1	blank2r.bmp	880	5	ehrlich	880	0	0	0	0	0	0	0	0	0	0	0	0
2024-05-02	09:53:23	09:56:20	177189	6.6.1	4_exp_EVA_AWA_CON	6	B	A	Rpleas_acq	Oppo	Rpleas	1pleas	acq_US_unple_nomask	acq1_nomask	1	24	0	0	300	300	0	0	562	46	1	0	treu	lachen	schlau	loyal	tolerant	schön	tot	leiden	schroff	lasch	tyrannisch	schlecht	helfen	freundlich	retten	fair	ehrlich	spielen	hindern	fanatisch	rächen	faul	eitel	strafen	1	blank2r.bmp	0	1	+	0	1	blank2r.bmp	500	1	GKQX	500	1	blank2r.bmp	880	1	tot	880	0	0	0	0	0	0	0	0	0	0	0	0
2024-05-02	09:53:23	09:56:23	179453	6.6.1	4_exp_EVA_AWA_CON	6	B	A	Rpleas_acq	Oppo	Rpleas	1pleas	acq_new_unple_nomask	acq1_nomask	1	25	0	0	300	300	0	0	774	46	1	0	treu	lachen	schlau	loyal	tolerant	schön	tot	leiden	schroff	lasch	tyrannisch	schlecht	helfen	freundlich	retten	fair	ehrlich	spielen	hindern	fanatisch	rächen	faul	eitel	strafen	1	blank2r.bmp	0	1	+	0	1	blank2r.bmp	500	2	B2r.bmp	500	1	blank2r.bmp	880	5	eitel	880	0	0	0	0	0	0	0	0	0	0	0	0
2024-05-02	09:53:23	09:56:25	181494	6.6.1	4_exp_EVA_AWA_CON	6	B	A	Rpleas_acq	Oppo	Rpleas	1pleas	acq_new_pleas_nomask	acq1_nomask	1	26	0	0	300	300	0	0	553	50	1	0	treu	lachen	schlau	loyal	tolerant	schön	tot	leiden	schroff	lasch	tyrannisch	schlecht	helfen	freundlich	retten	fair	ehrlich	spielen	hindern	fanatisch	rächen	faul	eitel	strafen	1	blank2r.bmp	0	1	+	0	1	blank2r.bmp	500	6	C2r.bmp	500	1	blank2r.bmp	880	4	fair	880	0	0	0	0	0	0	0	0	0	0	0	0
2024-05-02	09:53:23	09:56:27	183526	6.6.1	4_exp_EVA_AWA_CON	6	B	A	Rpleas_acq	Oppo	Rpleas	1pleas	acq_new_pleas_nomask	acq1_nomask	1	27	0	0	300	300	0	0	544	50	1	0	treu	lachen	schlau	loyal	tolerant	schön	tot	leiden	schroff	lasch	tyrannisch	schlecht	helfen	freundlich	retten	fair	ehrlich	spielen	hindern	fanatisch	rächen	faul	eitel	strafen	1	blank2r.bmp	0	1	+	0	1	blank2r.bmp	500	3	B3r.bmp	500	1	blank2r.bmp	880	6	spielen	880	0	0	0	0	0	0	0	0	0	0	0	0
2024-05-02	09:53:23	09:56:29	185749	6.6.1	4_exp_EVA_AWA_CON	6	B	A	Rpleas_acq	Oppo	Rpleas	1pleas	acq_US_pleas_nomask	acq1_nomask	1	28	0	0	300	300	0	0	736	50	1	0	treu	lachen	schlau	loyal	tolerant	schön	tot	leiden	schroff	lasch	tyrannisch	schlecht	helfen	freundlich	retten	fair	ehrlich	spielen	hindern	fanatisch	rächen	faul	eitel	strafen	1	blank2r.bmp	0	1	+	0	1	blank2r.bmp	500	1	BMVZ	500	1	blank2r.bmp	880	1	treu	880	0	0	0	0	0	0	0	0	0	0	0	0
2024-05-02	09:53:23	09:56:31	187893	6.6.1	4_exp_EVA_AWA_CON	6	B	A	Rpleas_acq	Oppo	Rpleas	1pleas	acq_US_unple_nomask	acq1_nomask	1	29	0	0	300	300	0	0	659	46	1	0	treu	lachen	schlau	loyal	tolerant	schön	tot	leiden	schroff	lasch	tyrannisch	schlecht	helfen	freundlich	retten	fair	ehrlich	spielen	hindern	fanatisch	rächen	faul	eitel	strafen	1	blank2r.bmp	0	1	+	0	1	blank2r.bmp	500	1	GKQX	500	1	blank2r.bmp	880	1	tot	880	0	0	0	0	0	0	0	0	0	0	0	0
2024-05-02	09:53:23	09:56:33	189934	6.6.1	4_exp_EVA_AWA_CON	6	B	A	Rpleas_acq	Oppo	Rpleas	1pleas	acq_US_pleas_nomask	acq1_nomask	1	30	0	0	300	300	0	0	557	50	1	0	treu	lachen	schlau	loyal	tolerant	schön	tot	leiden	schroff	lasch	tyrannisch	schlecht	helfen	freundlich	retten	fair	ehrlich	spielen	hindern	fanatisch	rächen	faul	eitel	strafen	1	blank2r.bmp	0	1	+	0	1	blank2r.bmp	500	1	BMVZ	500	1	blank2r.bmp	880	6	schön	880	0	0	0	0	0	0	0	0	0	0	0	0
2024-05-02	09:53:23	09:56:35	191958	6.6.1	4_exp_EVA_AWA_CON	6	B	A	Rpleas_acq	Oppo	Rpleas	1pleas	acq_new_unple_nomask	acq1_nomask	1	31	0	0	300	300	0	0	540	46	1	0	treu	lachen	schlau	loyal	tolerant	schön	tot	leiden	schroff	lasch	tyrannisch	schlecht	helfen	freundlich	retten	fair	ehrlich	spielen	hindern	fanatisch	rächen	faul	eitel	strafen	1	blank2r.bmp	0	1	+	0	1	blank2r.bmp	500	5	C1r.bmp	500	1	blank2r.bmp	880	3	rächen	880	0	0	0	0	0	0	0	0	0	0	0	0
2024-05-02	09:53:23	09:56:37	194150	6.6.1	4_exp_EVA_AWA_CON	6	B	A	Rpleas_acq	Oppo	Rpleas	1pleas	acq_new_unple_nomask	acq1_nomask	1	32	0	0	300	300	0	0	711	46	1	0	treu	lachen	schlau	loyal	tolerant	schön	tot	leiden	schroff	lasch	tyrannisch	schlecht	helfen	freundlich	retten	fair	ehrlich	spielen	hindern	fanatisch	rächen	faul	eitel	strafen	1	blank2r.bmp	0	1	+	0	1	blank2r.bmp	500	8	C4r.bmp	500	1	blank2r.bmp	880	2	fanatisch	880	0	0	0	0	0	0	0	0	0	0	0	0
2024-05-02	09:53:23	09:56:39	196125	6.6.1	4_exp_EVA_AWA_CON	6	B	A	Rpleas_acq	Oppo	Rpleas	1pleas	acq_US_unple_nomask	acq1_nomask	1	33	0	0	300	300	0	0	495	46	1	0	treu	lachen	schlau	loyal	tolerant	schön	tot	leiden	schroff	lasch	tyrannisch	schlecht	helfen	freundlich	retten	fair	ehrlich	spielen	hindern	fanatisch	rächen	faul	eitel	strafen	1	blank2r.bmp	0	1	+	0	1	blank2r.bmp	500	1	GKQX	500	1	blank2r.bmp	880	2	leiden	880	0	0	0	0	0	0	0	0	0	0	0	0
2024-05-02	09:53:23	09:56:41	198165	6.6.1	4_exp_EVA_AWA_CON	6	B	A	Rpleas_acq	Oppo	Rpleas	1pleas	acq_US_unple_nomask	acq1_nomask	1	34	0	0	300	300	0	0	554	46	1	0	treu	lachen	schlau	loyal	tolerant	schön	tot	leiden	schroff	lasch	tyrannisch	schlecht	helfen	freundlich	retten	fair	ehrlich	spielen	hindern	fanatisch	rächen	faul	eitel	strafen	1	blank2r.bmp	0	1	+	0	1	blank2r.bmp	500	1	GKQX	500	1	blank2r.bmp	880	4	lasch	880	0	0	0	0	0	0	0	0	0	0	0	0
2024-05-02	09:53:23	09:56:44	200278	6.6.1	4_exp_EVA_AWA_CON	6	B	A	Rpleas_acq	Oppo	Rpleas	1pleas	acq_US_pleas_nomask	acq1_nomask	1	35	0	0	300	300	0	0	625	50	1	0	treu	lachen	schlau	loyal	tolerant	schön	tot	leiden	schroff	lasch	tyrannisch	schlecht	helfen	freundlich	retten	fair	ehrlich	spielen	hindern	fanatisch	rächen	faul	eitel	strafen	1	blank2r.bmp	0	1	+	0	1	blank2r.bmp	500	1	BMVZ	500	1	blank2r.bmp	880	5	tolerant	880	0	0	0	0	0	0	0	0	0	0	0	0
2024-05-02	09:53:23	09:56:46	202326	6.6.1	4_exp_EVA_AWA_CON	6	B	A	Rpleas_acq	Oppo	Rpleas	1pleas	acq_new_pleas_nomask	acq1_nomask	1	36	0	0	300	300	0	0	561	50	1	0	treu	lachen	schlau	loyal	tolerant	schön	tot	leiden	schroff	lasch	tyrannisch	schlecht	helfen	freundlich	retten	fair	ehrlich	spielen	hindern	fanatisch	rächen	faul	eitel	strafen	1	blank2r.bmp	0	1	+	0	1	blank2r.bmp	500	7	C3r.bmp	500	1	blank2r.bmp	880	5	ehrlich	880	0	0	0	0	0	0	0	0	0	0	0	0
2024-05-02	09:53:23	09:57:20	237128	6.6.1	4_exp_EVA_AWA_CON	6	B	A	Rpleas_acq	Oppo	Rpleas	1pleas	acq_US_unple_nomask	acq2_nomask	2	1	480	0	300	300	0	0	581	46	1	0	treu	lachen	schlau	loyal	tolerant	schön	tot	leiden	schroff	lasch	tyrannisch	schlecht	helfen	freundlich	retten	fair	ehrlich	spielen	hindern	fanatisch	rächen	faul	eitel	strafen	1	blank2r.bmp	0	1	+	0	1	blank2r.bmp	500	1	GKQX	500	1	blank2r.bmp	880	3	schroff	880	1	!	1313	1	!	-1	0	0	0	0	0	0
2024-05-02	09:53:23	09:57:23	239511	6.6.1	4_exp_EVA_AWA_CON	6	B	A	Rpleas_acq	Oppo	Rpleas	1pleas	acq_new_pleas_nomask	acq2_nomask	2	2	480	0	300	300	0	0	604	50	1	0	treu	lachen	schlau	loyal	tolerant	schön	tot	leiden	schroff	lasch	tyrannisch	schlecht	helfen	freundlich	retten	fair	ehrlich	spielen	hindern	fanatisch	rächen	faul	eitel	strafen	1	blank2r.bmp	0	1	+	0	1	blank2r.bmp	500	2	B2r.bmp	500	1	blank2r.bmp	880	2	freundlich	880	1	!	1313	1	!	-1	0	0	0	0	0	0
2024-05-02	09:53:23	09:57:25	241986	6.6.1	4_exp_EVA_AWA_CON	6	B	A	Rpleas_acq	Oppo	Rpleas	1pleas	acq_US_pleas_nomask	acq2_nomask	2	3	480	1	300	300	0	0	494	46	0	0	treu	lachen	schlau	loyal	tolerant	schön	tot	leiden	schroff	lasch	tyrannisch	schlecht	helfen	freundlich	retten	fair	ehrlich	spielen	hindern	fanatisch	rächen	faul	eitel	strafen	1	blank2r.bmp	0	1	+	0	1	blank2r.bmp	500	1	BMVZ	500	1	blank2r.bmp	880	2	lachen	880	1	FEHLER	1687	1	!	1312	1	!	1395	0	0	0
2024-05-02	09:53:23	09:57:27	244065	6.6.1	4_exp_EVA_AWA_CON	6	B	A	Rpleas_acq	Oppo	Rpleas	1pleas	acq_US_pleas_nomask	acq2_nomask	2	4	480	1	300	300	0	0	503	50	1	0	treu	lachen	schlau	loyal	tolerant	schön	tot	leiden	schroff	lasch	tyrannisch	schlecht	helfen	freundlich	retten	fair	ehrlich	spielen	hindern	fanatisch	rächen	faul	eitel	strafen	1	blank2r.bmp	0	1	+	0	1	blank2r.bmp	500	1	BMVZ	500	1	blank2r.bmp	880	3	schlau	880	1	!	1312	1	!	1404	0	0	0	0	0	0
2024-05-02	09:53:23	09:57:30	246551	6.6.1	4_exp_EVA_AWA_CON	6	B	A	Rpleas_acq	Oppo	Rpleas	1pleas	acq_US_pleas_nomask	acq2_nomask	2	5	480	0	300	300	0	0	709	50	1	0	treu	lachen	schlau	loyal	tolerant	schön	tot	leiden	schroff	lasch	tyrannisch	schlecht	helfen	freundlich	retten	fair	ehrlich	spielen	hindern	fanatisch	rächen	faul	eitel	strafen	1	blank2r.bmp	0	1	+	0	1	blank2r.bmp	500	1	BMVZ	500	1	blank2r.bmp	880	4	loyal	880	1	!	1312	1	!	-1	0	0	0	0	0	0
2024-05-02	09:53:23	09:57:32	248793	6.6.1	4_exp_EVA_AWA_CON	6	B	A	Rpleas_acq	Oppo	Rpleas	1pleas	acq_new_pleas_nomask	acq2_nomask	2	6	480	1	300	300	0	0	468	50	1	0	treu	lachen	schlau	loyal	tolerant	schön	tot	leiden	schroff	lasch	tyrannisch	schlecht	helfen	freundlich	retten	fair	ehrlich	spielen	hindern	fanatisch	rächen	faul	eitel	strafen	1	blank2r.bmp	0	1	+	0	1	blank2r.bmp	500	1	B1r.bmp	500	1	blank2r.bmp	880	3	retten	880	1	!	1313	1	!	1369	0	0	0	0	0	0
2024-05-02	09:53:23	09:57:34	250943	6.6.1	4_exp_EVA_AWA_CON	6	B	A	Rpleas_acq	Oppo	Rpleas	1pleas	acq_new_unple_nomask	acq2_nomask	2	7	480	0	300	300	0	0	378	46	1	0	treu	lachen	schlau	loyal	tolerant	schön	tot	leiden	schroff	lasch	tyrannisch	schlecht	helfen	freundlich	retten	fair	ehrlich	spielen	hindern	fanatisch	rächen	faul	eitel	strafen	1	blank2r.bmp	0	1	+	0	1	blank2r.bmp	500	4	B4r.bmp	500	1	blank2r.bmp	880	4	faul	880	1	!	-1	1	!	-1	0	0	0	0	0	0
2024-05-02	09:53:23	09:57:37	253423	6.6.1	4_exp_EVA_AWA_CON	6	B	A	Rpleas_acq	Oppo	Rpleas	1pleas	acq_US_unple_nomask	acq2_nomask	2	8	480	0	300	300	0	0	707	46	1	0	treu	lachen	schlau	loyal	tolerant	schön	tot	leiden	schroff	lasch	tyrannisch	schlecht	helfen	freundlich	retten	fair	ehrlich	spielen	hindern	fanatisch	rächen	faul	eitel	strafen	1	blank2r.bmp	0	1	+	0	1	blank2r.bmp	500	1	GKQX	500	1	blank2r.bmp	880	5	tyrannisch	880	1	!	1313	1	!	-1	0	0	0	0	0	0
2024-05-02	09:53:23	09:57:39	255705	6.6.1	4_exp_EVA_AWA_CON	6	B	A	Rpleas_acq	Oppo	Rpleas	1pleas	acq_US_unple_nomask	acq2_nomask	2	9	480	1	300	300	0	0	505	46	1	0	treu	lachen	schlau	loyal	tolerant	schön	tot	leiden	schroff	lasch	tyrannisch	schlecht	helfen	freundlich	retten	fair	ehrlich	spielen	hindern	fanatisch	rächen	faul	eitel	strafen	1	blank2r.bmp	0	1	+	0	1	blank2r.bmp	500	1	GKQX	500	1	blank2r.bmp	880	6	schlecht	880	1	!	1313	1	!	1406	0	0	0	0	0	0
2024-05-02	09:53:23	09:57:41	258127	6.6.1	4_exp_EVA_AWA_CON	6	B	A	Rpleas_acq	Oppo	Rpleas	1pleas	acq_new_pleas_nomask	acq2_nomask	2	10	480	0	300	300	0	0	648	50	1	0	treu	lachen	schlau	loyal	tolerant	schön	tot	leiden	schroff	lasch	tyrannisch	schlecht	helfen	freundlich	retten	fair	ehrlich	spielen	hindern	fanatisch	rächen	faul	eitel	strafen	1	blank2r.bmp	0	1	+	0	1	blank2r.bmp	500	6	C2r.bmp	500	1	blank2r.bmp	880	1	helfen	880	1	!	1312	1	!	-1	0	0	0	0	0	0
2024-05-02	09:53:23	09:57:44	260559	6.6.1	4_exp_EVA_AWA_CON	6	B	A	Rpleas_acq	Oppo	Rpleas	1pleas	acq_new_unple_nomask	acq2_nomask	2	11	480	0	300	300	0	0	658	46	1	0	treu	lachen	schlau	loyal	tolerant	schön	tot	leiden	schroff	lasch	tyrannisch	schlecht	helfen	freundlich	retten	fair	ehrlich	spielen	hindern	fanatisch	rächen	faul	eitel	strafen	1	blank2r.bmp	0	1	+	0	1	blank2r.bmp	500	3	B3r.bmp	500	1	blank2r.bmp	880	6	strafen	880	1	!	1312	1	!	-1	0	0	0	0	0	0
2024-05-02	09:53:23	09:57:47	264111	6.6.1	4_exp_EVA_AWA_CON	6	B	A	Rpleas_acq	Oppo	Rpleas	1pleas	acq_new_unple_nomask	acq2_nomask	2	12	480	0	300	300	0	0	1779	46	1	0	treu	lachen	schlau	loyal	tolerant	schön	tot	leiden	schroff	lasch	tyrannisch	schlecht	helfen	freundlich	retten	fair	ehrlich	spielen	hindern	fanatisch	rächen	faul	eitel	strafen	1	blank2r.bmp	0	1	+	0	1	blank2r.bmp	500	5	C1r.bmp	500	1	blank2r.bmp	880	1	hindern	880	1	!	1312	1	!	-1	0	0	0	0	0	0
2024-05-02	09:53:23	09:57:50	266264	6.6.1	4_exp_EVA_AWA_CON	6	B	A	Rpleas_acq	Oppo	Rpleas	1pleas	acq_new_pleas_nomask	acq2_nomask	2	13	480	0	300	300	0	0	378	50	1	0	treu	lachen	schlau	loyal	tolerant	schön	tot	leiden	schroff	lasch	tyrannisch	schlecht	helfen	freundlich	retten	fair	ehrlich	spielen	hindern	fanatisch	rächen	faul	eitel	strafen	1	blank2r.bmp	0	1	+	0	1	blank2r.bmp	500	2	B2r.bmp	500	1	blank2r.bmp	880	4	fair	880	1	!	-1	1	!	-1	0	0	0	0	0	0
2024-05-02	09:53:23	09:57:52	268695	6.6.1	4_exp_EVA_AWA_CON	6	B	A	Rpleas_acq	Oppo	Rpleas	1pleas	acq_new_unple_nomask	acq2_nomask	2	14	480	0	300	300	0	0	659	46	1	0	treu	lachen	schlau	loyal	tolerant	schön	tot	leiden	schroff	lasch	tyrannisch	schlecht	helfen	freundlich	retten	fair	ehrlich	spielen	hindern	fanatisch	rächen	faul	eitel	strafen	1	blank2r.bmp	0	1	+	0	1	blank2r.bmp	500	3	B3r.bmp	500	1	blank2r.bmp	880	2	fanatisch	880	1	!	1313	1	!	-1	0	0	0	0	0	0
2024-05-02	09:53:23	09:57:54	271095	6.6.1	4_exp_EVA_AWA_CON	6	B	A	Rpleas_acq	Oppo	Rpleas	1pleas	acq_US_unple_nomask	acq2_nomask	2	15	480	0	300	300	0	0	628	46	1	0	treu	lachen	schlau	loyal	tolerant	schön	tot	leiden	schroff	lasch	tyrannisch	schlecht	helfen	freundlich	retten	fair	ehrlich	spielen	hindern	fanatisch	rächen	faul	eitel	strafen	1	blank2r.bmp	0	1	+	0	1	blank2r.bmp	500	1	GKQX	500	1	blank2r.bmp	880	5	tyrannisch	880	1	!	1313	1	!	-1	0	0	0	0	0	0
2024-05-02	09:53:23	09:57:57	273385	6.6.1	4_exp_EVA_AWA_CON	6	B	A	Rpleas_acq	Oppo	Rpleas	1pleas	acq_US_pleas_nomask	acq2_nomask	2	16	480	1	300	300	0	0	514	50	1	0	treu	lachen	schlau	loyal	tolerant	schön	tot	leiden	schroff	lasch	tyrannisch	schlecht	helfen	freundlich	retten	fair	ehrlich	spielen	hindern	fanatisch	rächen	faul	eitel	strafen	1	blank2r.bmp	0	1	+	0	1	blank2r.bmp	500	1	BMVZ	500	1	blank2r.bmp	880	4	loyal	880	1	!	1312	1	!	1415	0	0	0	0	0	0
2024-05-02	09:53:23	09:57:59	275634	6.6.1	4_exp_EVA_AWA_CON	6	B	A	Rpleas_acq	Oppo	Rpleas	1pleas	acq_new_pleas_nomask	acq2_nomask	2	17	480	1	300	300	0	0	471	50	1	0	treu	lachen	schlau	loyal	tolerant	schön	tot	leiden	schroff	lasch	tyrannisch	schlecht	helfen	freundlich	retten	fair	ehrlich	spielen	hindern	fanatisch	rächen	faul	eitel	strafen	1	blank2r.bmp	0	1	+	0	1	blank2r.bmp	500	1	B1r.bmp	500	1	blank2r.bmp	880	5	ehrlich	880	1	!	1313	1	!	1372	0	0	0	0	0	0
2024-05-02	09:53:23	09:58:01	277946	6.6.1	4_exp_EVA_AWA_CON	6	B	A	Rpleas_acq	Oppo	Rpleas	1pleas	acq_US_unple_nomask	acq2_nomask	2	18	480	1	300	300	0	0	531	46	1	0	treu	lachen	schlau	loyal	tolerant	schön	tot	leiden	schroff	lasch	tyrannisch	schlecht	helfen	freundlich	retten	fair	ehrlich	spielen	hindern	fanatisch	rächen	faul	eitel	strafen	1	blank2r.bmp	0	1	+	0	1	blank2r.bmp	500	1	GKQX	500	1	blank2r.bmp	880	2	leiden	880	1	!	1312	1	!	1432	0	0	0	0	0	0
2024-05-02	09:53:23	09:58:04	280367	6.6.1	4_exp_EVA_AWA_CON	6	B	A	Rpleas_acq	Oppo	Rpleas	1pleas	acq_new_unple_nomask	acq2_nomask	2	19	480	0	300	300	0	0	644	46	1	0	treu	lachen	schlau	loyal	tolerant	schön	tot	leiden	schroff	lasch	tyrannisch	schlecht	helfen	freundlich	retten	fair	ehrlich	spielen	hindern	fanatisch	rächen	faul	eitel	strafen	1	blank2r.bmp	0	1	+	0	1	blank2r.bmp	500	8	C4r.bmp	500	1	blank2r.bmp	880	3	rächen	880	1	!	1313	1	!	-1	0	0	0	0	0	0
2024-05-02	09:53:23	09:58:06	282799	6.6.1	4_exp_EVA_AWA_CON	6	B	A	Rpleas_acq	Oppo	Rpleas	1pleas	acq_US_pleas_nomask	acq2_nomask	2	20	480	0	300	300	0	0	654	50	1	0	treu	lachen	schlau	loyal	tolerant	schön	tot	leiden	schroff	lasch	tyrannisch	schlecht	helfen	freundlich	retten	fair	ehrlich	spielen	hindern	fanatisch	rächen	faul	eitel	strafen	1	blank2r.bmp	0	1	+	0	1	blank2r.bmp	500	1	BMVZ	500	1	blank2r.bmp	880	2	lachen	880	1	!	1312	1	!	-1	0	0	0	0	0	0
2024-05-02	09:53:23	09:58:08	285215	6.6.1	4_exp_EVA_AWA_CON	6	B	A	Rpleas_acq	Oppo	Rpleas	1pleas	acq_US_pleas_nomask	acq2_nomask	2	21	480	0	300	300	0	0	638	50	1	0	treu	lachen	schlau	loyal	tolerant	schön	tot	leiden	schroff	lasch	tyrannisch	schlecht	helfen	freundlich	retten	fair	ehrlich	spielen	hindern	fanatisch	rächen	faul	eitel	strafen	1	blank2r.bmp	0	1	+	0	1	blank2r.bmp	500	1	BMVZ	500	1	blank2r.bmp	880	6	schön	880	1	!	1313	1	!	-1	0	0	0	0	0	0
2024-05-02	09:53:23	09:58:11	287537	6.6.1	4_exp_EVA_AWA_CON	6	B	A	Rpleas_acq	Oppo	Rpleas	1pleas	acq_US_unple_nomask	acq2_nomask	2	22	480	1	300	300	0	0	547	46	1	0	treu	lachen	schlau	loyal	tolerant	schön	tot	leiden	schroff	lasch	tyrannisch	schlecht	helfen	freundlich	retten	fair	ehrlich	spielen	hindern	fanatisch	rächen	faul	eitel	strafen	1	blank2r.bmp	0	1	+	0	1	blank2r.bmp	500	1	GKQX	500	1	blank2r.bmp	880	1	tot	880	1	!	1313	1	!	1448	0	0	0	0	0	0
2024-05-02	09:53:23	09:58:13	289919	6.6.1	4_exp_EVA_AWA_CON	6	B	A	Rpleas_acq	Oppo	Rpleas	1pleas	acq_new_unple_nomask	acq2_nomask	2	23	480	0	300	300	0	0	609	46	1	0	treu	lachen	schlau	loyal	tolerant	schön	tot	leiden	schroff	lasch	tyrannisch	schlecht	helfen	freundlich	retten	fair	ehrlich	spielen	hindern	fanatisch	rächen	faul	eitel	strafen	1	blank2r.bmp	0	1	+	0	1	blank2r.bmp	500	4	B4r.bmp	500	1	blank2r.bmp	880	6	strafen	880	1	!	1312	1	!	-1	0	0	0	0	0	0
2024-05-02	09:53:23	09:58:16	292351	6.6.1	4_exp_EVA_AWA_CON	6	B	A	Rpleas_acq	Oppo	Rpleas	1pleas	acq_new_pleas_nomask	acq2_nomask	2	24	480	0	300	300	0	0	660	50	1	0	treu	lachen	schlau	loyal	tolerant	schön	tot	leiden	schroff	lasch	tyrannisch	schlecht	helfen	freundlich	retten	fair	ehrlich	spielen	hindern	fanatisch	rächen	faul	eitel	strafen	1	blank2r.bmp	0	1	+	0	1	blank2r.bmp	500	7	C3r.bmp	500	1	blank2r.bmp	880	2	freundlich	880	1	!	1313	1	!	-1	0	0	0	0	0	0
2024-05-02	09:53:23	09:58:18	294657	6.6.1	4_exp_EVA_AWA_CON	6	B	A	Rpleas_acq	Oppo	Rpleas	1pleas	acq_new_unple_nomask	acq2_nomask	2	25	480	1	300	300	0	0	522	46	1	0	treu	lachen	schlau	loyal	tolerant	schön	tot	leiden	schroff	lasch	tyrannisch	schlecht	helfen	freundlich	retten	fair	ehrlich	spielen	hindern	fanatisch	rächen	faul	eitel	strafen	1	blank2r.bmp	0	1	+	0	1	blank2r.bmp	500	5	C1r.bmp	500	1	blank2r.bmp	880	5	eitel	880	1	!	1312	1	!	1423	0	0	0	0	0	0
2024-05-02	09:53:23	09:58:20	297067	6.6.1	4_exp_EVA_AWA_CON	6	B	A	Rpleas_acq	Oppo	Rpleas	1pleas	acq_new_pleas_nomask	acq2_nomask	2	26	480	1	300	300	0	0	429	46	0	0	treu	lachen	schlau	loyal	tolerant	schön	tot	leiden	schroff	lasch	tyrannisch	schlecht	helfen	freundlich	retten	fair	ehrlich	spielen	hindern	fanatisch	rächen	faul	eitel	strafen	1	blank2r.bmp	0	1	+	0	1	blank2r.bmp	500	6	C2r.bmp	500	1	blank2r.bmp	880	1	helfen	880	1	FEHLER	1622	1	!	1312	1	!	1330	0	0	0
2024-05-02	09:53:23	09:58:22	299098	6.6.1	4_exp_EVA_AWA_CON	6	B	A	Rpleas_acq	Oppo	Rpleas	1pleas	acq_US_unple_nomask	acq2_nomask	2	27	480	1	300	300	0	0	449	46	1	0	treu	lachen	schlau	loyal	tolerant	schön	tot	leiden	schroff	lasch	tyrannisch	schlecht	helfen	freundlich	retten	fair	ehrlich	spielen	hindern	fanatisch	rächen	faul	eitel	strafen	1	blank2r.bmp	0	1	+	0	1	blank2r.bmp	500	1	GKQX	500	1	blank2r.bmp	880	4	lasch	880	1	!	1312	1	!	1350	0	0	0	0	0	0
2024-05-02	09:53:23	09:58:25	301401	6.6.1	4_exp_EVA_AWA_CON	6	B	A	Rpleas_acq	Oppo	Rpleas	1pleas	acq_new_unple_nomask	acq2_nomask	2	28	480	1	300	300	0	0	522	46	1	0	treu	lachen	schlau	loyal	tolerant	schön	tot	leiden	schroff	lasch	tyrannisch	schlecht	helfen	freundlich	retten	fair	ehrlich	spielen	hindern	fanatisch	rächen	faul	eitel	strafen	1	blank2r.bmp	0	1	+	0	1	blank2r.bmp	500	1	B1r.bmp	500	1	blank2r.bmp	880	1	hindern	880	1	!	1313	1	!	1423	0	0	0	0	0	0
2024-05-02	09:53:23	09:58:27	303527	6.6.1	4_exp_EVA_AWA_CON	6	B	A	Rpleas_acq	Oppo	Rpleas	1pleas	acq_US_pleas_nomask	acq2_nomask	2	29	480	0	300	300	0	0	348	50	1	0	treu	lachen	schlau	loyal	tolerant	schön	tot	leiden	schroff	lasch	tyrannisch	schlecht	helfen	freundlich	retten	fair	ehrlich	spielen	hindern	fanatisch	rächen	faul	eitel	strafen	1	blank2r.bmp	0	1	+	0	1	blank2r.bmp	500	1	BMVZ	500	1	blank2r.bmp	880	1	treu	880	1	!	-1	1	!	-1	0	0	0	0	0	0
2024-05-02	09:53:23	09:58:29	305912	6.6.1	4_exp_EVA_AWA_CON	6	B	A	Rpleas_acq	Oppo	Rpleas	1pleas	acq_new_pleas_nomask	acq2_nomask	2	30	480	0	300	300	0	0	611	50	1	0	treu	lachen	schlau	loyal	tolerant	schön	tot	leiden	schroff	lasch	tyrannisch	schlecht	helfen	freundlich	retten	fair	ehrlich	spielen	hindern	fanatisch	rächen	faul	eitel	strafen	1	blank2r.bmp	0	1	+	0	1	blank2r.bmp	500	6	C2r.bmp	500	1	blank2r.bmp	880	3	retten	880	1	!	1312	1	!	-1	0	0	0	0	0	0
2024-05-02	09:53:23	09:58:32	308233	6.6.1	4_exp_EVA_AWA_CON	6	B	A	Rpleas_acq	Oppo	Rpleas	1pleas	acq_US_unple_nomask	acq2_nomask	2	31	480	1	300	300	0	0	540	46	1	0	treu	lachen	schlau	loyal	tolerant	schön	tot	leiden	schroff	lasch	tyrannisch	schlecht	helfen	freundlich	retten	fair	ehrlich	spielen	hindern	fanatisch	rächen	faul	eitel	strafen	1	blank2r.bmp	0	1	+	0	1	blank2r.bmp	500	1	GKQX	500	1	blank2r.bmp	880	6	schlecht	880	1	!	1313	1	!	1440	0	0	0	0	0	0
2024-05-02	09:53:23	09:58:34	310624	6.6.1	4_exp_EVA_AWA_CON	6	B	A	Rpleas_acq	Oppo	Rpleas	1pleas	acq_US_pleas_nomask	acq2_nomask	2	32	480	0	300	300	0	0	610	50	1	0	treu	lachen	schlau	loyal	tolerant	schön	tot	leiden	schroff	lasch	tyrannisch	schlecht	helfen	freundlich	retten	fair	ehrlich	spielen	hindern	fanatisch	rächen	faul	eitel	strafen	1	blank2r.bmp	0	1	+	0	1	blank2r.bmp	500	1	BMVZ	500	1	blank2r.bmp	880	5	tolerant	880	1	!	1313	1	!	-1	0	0	0	0	0	0
2024-05-02	09:53:23	09:58:36	312983	6.6.1	4_exp_EVA_AWA_CON	6	B	A	Rpleas_acq	Oppo	Rpleas	1pleas	acq_US_unple_nomask	acq2_nomask	2	33	480	0	300	300	0	0	579	46	1	0	treu	lachen	schlau	loyal	tolerant	schön	tot	leiden	schroff	lasch	tyrannisch	schlecht	helfen	freundlich	retten	fair	ehrlich	spielen	hindern	fanatisch	rächen	faul	eitel	strafen	1	blank2r.bmp	0	1	+	0	1	blank2r.bmp	500	1	GKQX	500	1	blank2r.bmp	880	3	schroff	880	1	!	1312	1	!	-1	0	0	0	0	0	0
2024-05-02	09:53:23	09:58:39	315427	6.6.1	4_exp_EVA_AWA_CON	6	B	A	Rpleas_acq	Oppo	Rpleas	1pleas	acq_new_unple_nomask	acq2_nomask	2	34	480	1	300	300	0	0	467	50	0	0	treu	lachen	schlau	loyal	tolerant	schön	tot	leiden	schroff	lasch	tyrannisch	schlecht	helfen	freundlich	retten	fair	ehrlich	spielen	hindern	fanatisch	rächen	faul	eitel	strafen	1	blank2r.bmp	0	1	+	0	1	blank2r.bmp	500	3	B3r.bmp	500	1	blank2r.bmp	880	4	faul	880	1	FEHLER	1660	1	!	1313	1	!	1368	0	0	0
2024-05-02	09:53:23	09:58:41	317521	6.6.1	4_exp_EVA_AWA_CON	6	B	A	Rpleas_acq	Oppo	Rpleas	1pleas	acq_US_pleas_nomask	acq2_nomask	2	35	480	1	300	300	0	0	522	50	1	0	treu	lachen	schlau	loyal	tolerant	schön	tot	leiden	schroff	lasch	tyrannisch	schlecht	helfen	freundlich	retten	fair	ehrlich	spielen	hindern	fanatisch	rächen	faul	eitel	strafen	1	blank2r.bmp	0	1	+	0	1	blank2r.bmp	500	1	BMVZ	500	1	blank2r.bmp	880	3	schlau	880	1	!	1313	1	!	1423	0	0	0	0	0	0
2024-05-02	09:53:23	09:58:43	319793	6.6.1	4_exp_EVA_AWA_CON	6	B	A	Rpleas_acq	Oppo	Rpleas	1pleas	acq_new_pleas_nomask	acq2_nomask	2	36	480	1	300	300	0	0	492	50	1	0	treu	lachen	schlau	loyal	tolerant	schön	tot	leiden	schroff	lasch	tyrannisch	schlecht	helfen	freundlich	retten	fair	ehrlich	spielen	hindern	fanatisch	rächen	faul	eitel	strafen	1	blank2r.bmp	0	1	+	0	1	blank2r.bmp	500	8	C4r.bmp	500	1	blank2r.bmp	880	6	spielen	880	1	!	1313	1	!	1393	0	0	0	0	0	0
2024-05-02	09:53:23	09:59:20	357071	6.6.1	4_exp_EVA_AWA_CON	6	B	A	Rpleas_acq	Oppo	Rpleas	1pleas	acq_US_pleas_nomask	acq3_nomask	3	1	453	0	300	300	0	0	538	50	1	0	treu	lachen	schlau	loyal	tolerant	schön	tot	leiden	schroff	lasch	tyrannisch	schlecht	helfen	freundlich	retten	fair	ehrlich	spielen	hindern	fanatisch	rächen	faul	eitel	strafen	1	blank2r.bmp	0	1	+	0	1	blank2r.bmp	500	1	BMVZ	500	1	blank2r.bmp	880	4	loyal	880	1	!	1293	1	!	-1	0	0	0	0	0	0
2024-05-02	09:53:23	09:59:23	359367	6.6.1	4_exp_EVA_AWA_CON	6	B	A	Rpleas_acq	Oppo	Rpleas	1pleas	acq_US_unple_nomask	acq3_nomask	3	2	453	0	300	300	0	0	524	46	1	0	treu	lachen	schlau	loyal	tolerant	schön	tot	leiden	schroff	lasch	tyrannisch	schlecht	helfen	freundlich	retten	fair	ehrlich	spielen	hindern	fanatisch	rächen	faul	eitel	strafen	1	blank2r.bmp	0	1	+	0	1	blank2r.bmp	500	1	GKQX	500	1	blank2r.bmp	880	2	leiden	880	1	!	1292	1	!	-1	0	0	0	0	0	0
2024-05-02	09:53:23	09:59:25	361751	6.6.1	4_exp_EVA_AWA_CON	6	B	A	Rpleas_acq	Oppo	Rpleas	1pleas	acq_US_unple_nomask	acq3_nomask	3	3	453	0	300	300	0	0	605	46	1	0	treu	lachen	schlau	loyal	tolerant	schön	tot	leiden	schroff	lasch	tyrannisch	schlecht	helfen	freundlich	retten	fair	ehrlich	spielen	hindern	fanatisch	rächen	faul	eitel	strafen	1	blank2r.bmp	0	1	+	0	1	blank2r.bmp	500	1	GKQX	500	1	blank2r.bmp	880	3	schroff	880	1	!	1293	1	!	-1	0	0	0	0	0	0
2024-05-02	09:53:23	09:59:27	363969	6.6.1	4_exp_EVA_AWA_CON	6	B	A	Rpleas_acq	Oppo	Rpleas	1pleas	acq_US_unple_nomask	acq3_nomask	3	4	453	1	300	300	0	0	440	46	1	0	treu	lachen	schlau	loyal	tolerant	schön	tot	leiden	schroff	lasch	tyrannisch	schlecht	helfen	freundlich	retten	fair	ehrlich	spielen	hindern	fanatisch	rächen	faul	eitel	strafen	1	blank2r.bmp	0	1	+	0	1	blank2r.bmp	500	1	GKQX	500	1	blank2r.bmp	880	6	schlecht	880	1	!	1293	1	!	1341	0	0	0	0	0	0
2024-05-02	09:53:23	09:59:29	366169	6.6.1	4_exp_EVA_AWA_CON	6	B	A	Rpleas_acq	Oppo	Rpleas	1pleas	acq_US_pleas_nomask	acq3_nomask	3	5	453	1	300	300	0	0	418	50	1	0	treu	lachen	schlau	loyal	tolerant	schön	tot	leiden	schroff	lasch	tyrannisch	schlecht	helfen	freundlich	retten	fair	ehrlich	spielen	hindern	fanatisch	rächen	faul	eitel	strafen	1	blank2r.bmp	0	1	+	0	1	blank2r.bmp	500	1	BMVZ	500	1	blank2r.bmp	880	6	schön	880	1	!	1292	1	!	1319	0	0	0	0	0	0
2024-05-02	09:53:23	09:59:32	368457	6.6.1	4_exp_EVA_AWA_CON	6	B	A	Rpleas_acq	Oppo	Rpleas	1pleas	acq_US_unple_nomask	acq3_nomask	3	6	453	1	300	300	0	0	505	46	1	0	treu	lachen	schlau	loyal	tolerant	schön	tot	leiden	schroff	lasch	tyrannisch	schlecht	helfen	freundlich	retten	fair	ehrlich	spielen	hindern	fanatisch	rächen	faul	eitel	strafen	1	blank2r.bmp	0	1	+	0	1	blank2r.bmp	500	1	GKQX	500	1	blank2r.bmp	880	4	lasch	880	1	!	1292	1	!	1406	0	0	0	0	0	0
2024-05-02	09:53:23	09:59:34	370729	6.6.1	4_exp_EVA_AWA_CON	6	B	A	Rpleas_acq	Oppo	Rpleas	1pleas	acq_US_unple_nomask	acq3_nomask	3	7	453	1	300	300	0	0	495	46	1	0	treu	lachen	schlau	loyal	tolerant	schön	tot	leiden	schroff	lasch	tyrannisch	schlecht	helfen	freundlich	retten	fair	ehrlich	spielen	hindern	fanatisch	rächen	faul	eitel	strafen	1	blank2r.bmp	0	1	+	0	1	blank2r.bmp	500	1	GKQX	500	1	blank2r.bmp	880	1	tot	880	1	!	1292	1	!	1396	0	0	0	0	0	0
2024-05-02	09:53:23	09:59:36	372937	6.6.1	4_exp_EVA_AWA_CON	6	B	A	Rpleas_acq	Oppo	Rpleas	1pleas	acq_US_pleas_nomask	acq3_nomask	3	8	453	1	300	300	0	0	432	50	1	0	treu	lachen	schlau	loyal	tolerant	schön	tot	leiden	schroff	lasch	tyrannisch	schlecht	helfen	freundlich	retten	fair	ehrlich	spielen	hindern	fanatisch	rächen	faul	eitel	strafen	1	blank2r.bmp	0	1	+	0	1	blank2r.bmp	500	1	BMVZ	500	1	blank2r.bmp	880	3	schlau	880	1	!	1292	1	!	1333	0	0	0	0	0	0
2024-05-02	09:53:23	09:59:39	375402	6.6.1	4_exp_EVA_AWA_CON	6	B	A	Rpleas_acq	Oppo	Rpleas	1pleas	acq_US_pleas_nomask	acq3_nomask	3	9	453	1	300	300	0	0	485	46	0	0	treu	lachen	schlau	loyal	tolerant	schön	tot	leiden	schroff	lasch	tyrannisch	schlecht	helfen	freundlich	retten	fair	ehrlich	spielen	hindern	fanatisch	rächen	faul	eitel	strafen	1	blank2r.bmp	0	1	+	0	1	blank2r.bmp	500	1	BMVZ	500	1	blank2r.bmp	880	5	tolerant	880	1	FEHLER	1677	1	!	1293	1	!	1385	0	0	0
2024-05-02	09:53:23	09:59:41	377481	6.6.1	4_exp_EVA_AWA_CON	6	B	A	Rpleas_acq	Oppo	Rpleas	1pleas	acq_US_unple_nomask	acq3_nomask	3	10	453	1	300	300	0	0	503	46	1	0	treu	lachen	schlau	loyal	tolerant	schön	tot	leiden	schroff	lasch	tyrannisch	schlecht	helfen	freundlich	retten	fair	ehrlich	spielen	hindern	fanatisch	rächen	faul	eitel	strafen	1	blank2r.bmp	0	1	+	0	1	blank2r.bmp	500	1	GKQX	500	1	blank2r.bmp	880	5	tyrannisch	880	1	!	1293	1	!	1404	0	0	0	0	0	0
2024-05-02	09:53:23	09:59:43	379753	6.6.1	4_exp_EVA_AWA_CON	6	B	A	Rpleas_acq	Oppo	Rpleas	1pleas	acq_US_pleas_nomask	acq3_nomask	3	11	453	1	300	300	0	0	494	50	1	0	treu	lachen	schlau	loyal	tolerant	schön	tot	leiden	schroff	lasch	tyrannisch	schlecht	helfen	freundlich	retten	fair	ehrlich	spielen	hindern	fanatisch	rächen	faul	eitel	strafen	1	blank2r.bmp	0	1	+	0	1	blank2r.bmp	500	1	BMVZ	500	1	blank2r.bmp	880	1	treu	880	1	!	1293	1	!	1395	0	0	0	0	0	0
2024-05-02	09:53:23	09:59:45	381993	6.6.1	4_exp_EVA_AWA_CON	6	B	A	Rpleas_acq	Oppo	Rpleas	1pleas	acq_US_pleas_nomask	acq3_nomask	3	12	453	1	300	300	0	0	462	50	1	0	treu	lachen	schlau	loyal	tolerant	schön	tot	leiden	schroff	lasch	tyrannisch	schlecht	helfen	freundlich	retten	fair	ehrlich	spielen	hindern	fanatisch	rächen	faul	eitel	strafen	1	blank2r.bmp	0	1	+	0	1	blank2r.bmp	500	1	BMVZ	500	1	blank2r.bmp	880	2	lachen	880	1	!	1293	1	!	1363	0	0	0	0	0	0
2024-05-02	09:53:23	09:59:47	384202	6.6.1	4_exp_EVA_AWA_CON	6	B	A	Rpleas_acq	Oppo	Rpleas	1pleas	acq_US_unple_nomask	acq3_nomask	3	13	453	1	300	300	0	0	429	46	1	0	treu	lachen	schlau	loyal	tolerant	schön	tot	leiden	schroff	lasch	tyrannisch	schlecht	helfen	freundlich	retten	fair	ehrlich	spielen	hindern	fanatisch	rächen	faul	eitel	strafen	1	blank2r.bmp	0	1	+	0	1	blank2r.bmp	500	1	GKQX	500	1	blank2r.bmp	880	1	tot	880	1	!	1292	1	!	1330	0	0	0	0	0	0
2024-05-02	09:53:23	09:59:50	386417	6.6.1	4_exp_EVA_AWA_CON	6	B	A	Rpleas_acq	Oppo	Rpleas	1pleas	acq_US_pleas_nomask	acq3_nomask	3	14	453	1	300	300	0	0	433	50	1	0	treu	lachen	schlau	loyal	tolerant	schön	tot	leiden	schroff	lasch	tyrannisch	schlecht	helfen	freundlich	retten	fair	ehrlich	spielen	hindern	fanatisch	rächen	faul	eitel	strafen	1	blank2r.bmp	0	1	+	0	1	blank2r.bmp	500	1	BMVZ	500	1	blank2r.bmp	880	6	schön	880	1	!	1293	1	!	1334	0	0	0	0	0	0
2024-05-02	09:53:23	09:59:52	388649	6.6.1	4_exp_EVA_AWA_CON	6	B	A	Rpleas_acq	Oppo	Rpleas	1pleas	acq_US_pleas_nomask	acq3_nomask	3	15	453	1	300	300	0	0	454	50	1	0	treu	lachen	schlau	loyal	tolerant	schön	tot	leiden	schroff	lasch	tyrannisch	schlecht	helfen	freundlich	retten	fair	ehrlich	spielen	hindern	fanatisch	rächen	faul	eitel	strafen	1	blank2r.bmp	0	1	+	0	1	blank2r.bmp	500	1	BMVZ	500	1	blank2r.bmp	880	3	schlau	880	1	!	1292	1	!	1355	0	0	0	0	0	0
2024-05-02	09:53:23	09:59:54	391031	6.6.1	4_exp_EVA_AWA_CON	6	B	A	Rpleas_acq	Oppo	Rpleas	1pleas	acq_US_pleas_nomask	acq3_nomask	3	16	453	0	300	300	0	0	606	50	1	0	treu	lachen	schlau	loyal	tolerant	schön	tot	leiden	schroff	lasch	tyrannisch	schlecht	helfen	freundlich	retten	fair	ehrlich	spielen	hindern	fanatisch	rächen	faul	eitel	strafen	1	blank2r.bmp	0	1	+	0	1	blank2r.bmp	500	1	BMVZ	500	1	blank2r.bmp	880	4	loyal	880	1	!	1292	1	!	-1	0	0	0	0	0	0
2024-05-02	09:53:23	09:59:57	393241	6.6.1	4_exp_EVA_AWA_CON	6	B	A	Rpleas_acq	Oppo	Rpleas	1pleas	acq_US_unple_nomask	acq3_nomask	3	17	453	1	300	300	0	0	433	46	1	0	treu	lachen	schlau	loyal	tolerant	schön	tot	leiden	schroff	lasch	tyrannisch	schlecht	helfen	freundlich	retten	fair	ehrlich	spielen	hindern	fanatisch	rächen	faul	eitel	strafen	1	blank2r.bmp	0	1	+	0	1	blank2r.bmp	500	1	GKQX	500	1	blank2r.bmp	880	3	schroff	880	1	!	1292	1	!	1334	0	0	0	0	0	0
2024-05-02	09:53:23	09:59:59	395615	6.6.1	4_exp_EVA_AWA_CON	6	B	A	Rpleas_acq	Oppo	Rpleas	1pleas	acq_US_unple_nomask	acq3_nomask	3	18	453	0	300	300	0	0	598	46	1	0	treu	lachen	schlau	loyal	tolerant	schön	tot	leiden	schroff	lasch	tyrannisch	schlecht	helfen	freundlich	retten	fair	ehrlich	spielen	hindern	fanatisch	rächen	faul	eitel	strafen	1	blank2r.bmp	0	1	+	0	1	blank2r.bmp	500	1	GKQX	500	1	blank2r.bmp	880	2	leiden	880	1	!	1292	1	!	-1	0	0	0	0	0	0
2024-05-02	09:53:23	10:00:01	397775	6.6.1	4_exp_EVA_AWA_CON	6	B	A	Rpleas_acq	Oppo	Rpleas	1pleas	acq_US_pleas_nomask	acq3_nomask	3	19	453	0	300	300	0	0	386	50	1	0	treu	lachen	schlau	loyal	tolerant	schön	tot	leiden	schroff	lasch	tyrannisch	schlecht	helfen	freundlich	retten	fair	ehrlich	spielen	hindern	fanatisch	rächen	faul	eitel	strafen	1	blank2r.bmp	0	1	+	0	1	blank2r.bmp	500	1	BMVZ	500	1	blank2r.bmp	880	2	lachen	880	1	!	-1	1	!	-1	0	0	0	0	0	0
2024-05-02	09:53:23	10:00:03	399912	6.6.1	4_exp_EVA_AWA_CON	6	B	A	Rpleas_acq	Oppo	Rpleas	1pleas	acq_US_pleas_nomask	acq3_nomask	3	20	453	0	300	300	0	0	361	50	1	0	treu	lachen	schlau	loyal	tolerant	schön	tot	leiden	schroff	lasch	tyrannisch	schlecht	helfen	freundlich	retten	fair	ehrlich	spielen	hindern	fanatisch	rächen	faul	eitel	strafen	1	blank2r.bmp	0	1	+	0	1	blank2r.bmp	500	1	BMVZ	500	1	blank2r.bmp	880	1	treu	880	1	!	-1	1	!	-1	0	0	0	0	0	0
2024-05-02	09:53:23	10:00:06	402279	6.6.1	4_exp_EVA_AWA_CON	6	B	A	Rpleas_acq	Oppo	Rpleas	1pleas	acq_US_pleas_nomask	acq3_nomask	3	21	453	0	300	300	0	0	587	50	1	0	treu	lachen	schlau	loyal	tolerant	schön	tot	leiden	schroff	lasch	tyrannisch	schlecht	helfen	freundlich	retten	fair	ehrlich	spielen	hindern	fanatisch	rächen	faul	eitel	strafen	1	blank2r.bmp	0	1	+	0	1	blank2r.bmp	500	1	BMVZ	500	1	blank2r.bmp	880	5	tolerant	880	1	!	1292	1	!	-1	0	0	0	0	0	0
2024-05-02	09:53:23	10:00:08	404607	6.6.1	4_exp_EVA_AWA_CON	6	B	A	Rpleas_acq	Oppo	Rpleas	1pleas	acq_US_unple_nomask	acq3_nomask	3	22	453	0	300	300	0	0	554	46	1	0	treu	lachen	schlau	loyal	tolerant	schön	tot	leiden	schroff	lasch	tyrannisch	schlecht	helfen	freundlich	retten	fair	ehrlich	spielen	hindern	fanatisch	rächen	faul	eitel	strafen	1	blank2r.bmp	0	1	+	0	1	blank2r.bmp	500	1	GKQX	500	1	blank2r.bmp	880	4	lasch	880	1	!	1292	1	!	-1	0	0	0	0	0	0
2024-05-02	09:53:23	10:00:10	406936	6.6.1	4_exp_EVA_AWA_CON	6	B	A	Rpleas_acq	Oppo	Rpleas	1pleas	acq_US_unple_nomask	acq3_nomask	3	23	453	0	300	300	0	0	550	46	1	0	treu	lachen	schlau	loyal	tolerant	schön	tot	leiden	schroff	lasch	tyrannisch	schlecht	helfen	freundlich	retten	fair	ehrlich	spielen	hindern	fanatisch	rächen	faul	eitel	strafen	1	blank2r.bmp	0	1	+	0	1	blank2r.bmp	500	1	GKQX	500	1	blank2r.bmp	880	5	tyrannisch	880	1	!	1292	1	!	-1	0	0	0	0	0	0
2024-05-02	09:53:23	10:00:12	409185	6.6.1	4_exp_EVA_AWA_CON	6	B	A	Rpleas_acq	Oppo	Rpleas	1pleas	acq_US_unple_nomask	acq3_nomask	3	24	453	1	300	300	0	0	467	46	1	0	treu	lachen	schlau	loyal	tolerant	schön	tot	leiden	schroff	lasch	tyrannisch	schlecht	helfen	freundlich	retten	fair	ehrlich	spielen	hindern	fanatisch	rächen	faul	eitel	strafen	1	blank2r.bmp	0	1	+	0	1	blank2r.bmp	500	1	GKQX	500	1	blank2r.bmp	880	6	schlecht	880	1	!	1292	1	!	1368	0	0	0	0	0	0
2024-05-02	09:53:23	10:00:15	411465	6.6.1	4_exp_EVA_AWA_CON	6	B	A	Rpleas_acq	Oppo	Rpleas	1pleas	acq_US_unple_nomask	acq3_nomask	3	25	453	1	300	300	0	0	505	46	1	0	treu	lachen	schlau	loyal	tolerant	schön	tot	leiden	schroff	lasch	tyrannisch	schlecht	helfen	freundlich	retten	fair	ehrlich	spielen	hindern	fanatisch	rächen	faul	eitel	strafen	1	blank2r.bmp	0	1	+	0	1	blank2r.bmp	500	1	GKQX	500	1	blank2r.bmp	880	3	schroff	880	1	!	1292	1	!	1406	0	0	0	0	0	0
2024-05-02	09:53:23	10:00:17	413729	6.6.1	4_exp_EVA_AWA_CON	6	B	A	Rpleas_acq	Oppo	Rpleas	1pleas	acq_US_pleas_nomask	acq3_nomask	3	26	453	1	300	300	0	0	488	50	1	0	treu	lachen	schlau	loyal	tolerant	schön	tot	leiden	schroff	lasch	tyrannisch	schlecht	helfen	freundlich	retten	fair	ehrlich	spielen	hindern	fanatisch	rächen	faul	eitel	strafen	1	blank2r.bmp	0	1	+	0	1	blank2r.bmp	500	1	BMVZ	500	1	blank2r.bmp	880	6	schön	880	1	!	1293	1	!	1389	0	0	0	0	0	0
2024-05-02	09:53:23	10:00:19	416170	6.6.1	4_exp_EVA_AWA_CON	6	B	A	Rpleas_acq	Oppo	Rpleas	1pleas	acq_US_pleas_nomask	acq3_nomask	3	27	453	1	300	300	0	0	466	46	0	0	treu	lachen	schlau	loyal	tolerant	schön	tot	leiden	schroff	lasch	tyrannisch	schlecht	helfen	freundlich	retten	fair	ehrlich	spielen	hindern	fanatisch	rächen	faul	eitel	strafen	1	blank2r.bmp	0	1	+	0	1	blank2r.bmp	500	1	BMVZ	500	1	blank2r.bmp	880	4	loyal	880	1	FEHLER	1659	1	!	1292	1	!	1367	0	0	0
2024-05-02	09:53:23	10:00:22	418311	6.6.1	4_exp_EVA_AWA_CON	6	B	A	Rpleas_acq	Oppo	Rpleas	1pleas	acq_US_pleas_nomask	acq3_nomask	3	28	453	0	300	300	0	0	569	50	1	0	treu	lachen	schlau	loyal	tolerant	schön	tot	leiden	schroff	lasch	tyrannisch	schlecht	helfen	freundlich	retten	fair	ehrlich	spielen	hindern	fanatisch	rächen	faul	eitel	strafen	1	blank2r.bmp	0	1	+	0	1	blank2r.bmp	500	1	BMVZ	500	1	blank2r.bmp	880	3	schlau	880	1	!	1293	1	!	-1	0	0	0	0	0	0
2024-05-02	09:53:23	10:00:24	420545	6.6.1	4_exp_EVA_AWA_CON	6	B	A	Rpleas_acq	Oppo	Rpleas	1pleas	acq_US_unple_nomask	acq3_nomask	3	29	453	1	300	300	0	0	459	46	1	0	treu	lachen	schlau	loyal	tolerant	schön	tot	leiden	schroff	lasch	tyrannisch	schlecht	helfen	freundlich	retten	fair	ehrlich	spielen	hindern	fanatisch	rächen	faul	eitel	strafen	1	blank2r.bmp	0	1	+	0	1	blank2r.bmp	500	1	GKQX	500	1	blank2r.bmp	880	1	tot	880	1	!	1292	1	!	1360	0	0	0	0	0	0
2024-05-02	09:53:23	10:00:26	422777	6.6.1	4_exp_EVA_AWA_CON	6	B	A	Rpleas_acq	Oppo	Rpleas	1pleas	acq_US_pleas_nomask	acq3_nomask	3	30	453	1	300	300	0	0	450	50	1	0	treu	lachen	schlau	loyal	tolerant	schön	tot	leiden	schroff	lasch	tyrannisch	schlecht	helfen	freundlich	retten	fair	ehrlich	spielen	hindern	fanatisch	rächen	faul	eitel	strafen	1	blank2r.bmp	0	1	+	0	1	blank2r.bmp	500	1	BMVZ	500	1	blank2r.bmp	880	5	tolerant	880	1	!	1293	1	!	1351	0	0	0	0	0	0
2024-05-02	09:53:23	10:00:28	425025	6.6.1	4_exp_EVA_AWA_CON	6	B	A	Rpleas_acq	Oppo	Rpleas	1pleas	acq_US_unple_nomask	acq3_nomask	3	31	453	1	300	300	0	0	466	46	1	0	treu	lachen	schlau	loyal	tolerant	schön	tot	leiden	schroff	lasch	tyrannisch	schlecht	helfen	freundlich	retten	fair	ehrlich	spielen	hindern	fanatisch	rächen	faul	eitel	strafen	1	blank2r.bmp	0	1	+	0	1	blank2r.bmp	500	1	GKQX	500	1	blank2r.bmp	880	2	leiden	880	1	!	1292	1	!	1367	0	0	0	0	0	0
2024-05-02	09:53:23	10:00:31	427343	6.6.1	4_exp_EVA_AWA_CON	6	B	A	Rpleas_acq	Oppo	Rpleas	1pleas	acq_US_unple_nomask	acq3_nomask	3	32	453	0	300	300	0	0	545	46	1	0	treu	lachen	schlau	loyal	tolerant	schön	tot	leiden	schroff	lasch	tyrannisch	schlecht	helfen	freundlich	retten	fair	ehrlich	spielen	hindern	fanatisch	rächen	faul	eitel	strafen	1	blank2r.bmp	0	1	+	0	1	blank2r.bmp	500	1	GKQX	500	1	blank2r.bmp	880	4	lasch	880	1	!	1293	1	!	-1	0	0	0	0	0	0
2024-05-02	09:53:23	10:00:33	429601	6.6.1	4_exp_EVA_AWA_CON	6	B	A	Rpleas_acq	Oppo	Rpleas	1pleas	acq_US_unple_nomask	acq3_nomask	3	33	453	1	300	300	0	0	480	46	1	0	treu	lachen	schlau	loyal	tolerant	schön	tot	leiden	schroff	lasch	tyrannisch	schlecht	helfen	freundlich	retten	fair	ehrlich	spielen	hindern	fanatisch	rächen	faul	eitel	strafen	1	blank2r.bmp	0	1	+	0	1	blank2r.bmp	500	1	GKQX	500	1	blank2r.bmp	880	5	tyrannisch	880	1	!	1292	1	!	1380	0	0	0	0	0	0
2024-05-02	09:53:23	10:00:35	431794	6.6.1	4_exp_EVA_AWA_CON	6	B	A	Rpleas_acq	Oppo	Rpleas	1pleas	acq_US_pleas_nomask	acq3_nomask	3	34	453	1	300	300	0	0	410	50	1	0	treu	lachen	schlau	loyal	tolerant	schön	tot	leiden	schroff	lasch	tyrannisch	schlecht	helfen	freundlich	retten	fair	ehrlich	spielen	hindern	fanatisch	rächen	faul	eitel	strafen	1	blank2r.bmp	0	1	+	0	1	blank2r.bmp	500	1	BMVZ	500	1	blank2r.bmp	880	2	lachen	880	1	!	1293	1	!	1312	0	0	0	0	0	0
2024-05-02	09:53:23	10:00:37	434041	6.6.1	4_exp_EVA_AWA_CON	6	B	A	Rpleas_acq	Oppo	Rpleas	1pleas	acq_US_pleas_nomask	acq3_nomask	3	35	453	1	300	300	0	0	467	50	1	0	treu	lachen	schlau	loyal	tolerant	schön	tot	leiden	schroff	lasch	tyrannisch	schlecht	helfen	freundlich	retten	fair	ehrlich	spielen	hindern	fanatisch	rächen	faul	eitel	strafen	1	blank2r.bmp	0	1	+	0	1	blank2r.bmp	500	1	BMVZ	500	1	blank2r.bmp	880	1	treu	880	1	!	1293	1	!	1368	0	0	0	0	0	0
2024-05-02	09:53:23	10:00:40	436383	6.6.1	4_exp_EVA_AWA_CON	6	B	A	Rpleas_acq	Oppo	Rpleas	1pleas	acq_US_unple_nomask	acq3_nomask	3	36	453	0	300	300	0	0	569	46	1	0	treu	lachen	schlau	loyal	tolerant	schön	tot	leiden	schroff	lasch	tyrannisch	schlecht	helfen	freundlich	retten	fair	ehrlich	spielen	hindern	fanatisch	rächen	faul	eitel	strafen	1	blank2r.bmp	0	1	+	0	1	blank2r.bmp	500	1	GKQX	500	1	blank2r.bmp	880	6	schlecht	880	1	!	1293	1	!	-1	0	0	0	0	0	0
2024-05-02	09:53:23	10:01:08	464375	6.6.1	4_exp_EVA_AWA_CON	6	B	A	Rpleas_acq	Oppo	Rpleas	1pleas	acq_US_pleas_nomask	acq45_nomask	4	1	400	0	300	300	0	0	533	50	1	0	treu	lachen	schlau	loyal	tolerant	schön	tot	leiden	schroff	lasch	tyrannisch	schlecht	helfen	freundlich	retten	fair	ehrlich	spielen	hindern	fanatisch	rächen	faul	eitel	strafen	1	blank2r.bmp	0	1	+	0	1	blank2r.bmp	500	1	BMVZ	500	1	blank2r.bmp	880	3	schlau	880	1	!	1233	1	!	-1	0	0	0	0	0	0
2024-05-02	09:53:23	10:01:10	466479	6.6.1	4_exp_EVA_AWA_CON	6	B	A	Rpleas_acq	Oppo	Rpleas	1pleas	acq_US_pleas_nomask	acq45_nomask	4	2	400	0	300	300	0	0	326	50	1	0	treu	lachen	schlau	loyal	tolerant	schön	tot	leiden	schroff	lasch	tyrannisch	schlecht	helfen	freundlich	retten	fair	ehrlich	spielen	hindern	fanatisch	rächen	faul	eitel	strafen	1	blank2r.bmp	0	1	+	0	1	blank2r.bmp	500	1	BMVZ	500	1	blank2r.bmp	880	5	tolerant	880	1	!	-1	1	!	-1	0	0	0	0	0	0
2024-05-02	09:53:23	10:01:12	468705	6.6.1	4_exp_EVA_AWA_CON	6	B	A	Rpleas_acq	Oppo	Rpleas	1pleas	acq_US_unple_nomask	acq45_nomask	4	3	400	1	300	300	0	0	448	46	1	0	treu	lachen	schlau	loyal	tolerant	schön	tot	leiden	schroff	lasch	tyrannisch	schlecht	helfen	freundlich	retten	fair	ehrlich	spielen	hindern	fanatisch	rächen	faul	eitel	strafen	1	blank2r.bmp	0	1	+	0	1	blank2r.bmp	500	1	GKQX	500	1	blank2r.bmp	880	6	schlecht	880	1	!	1233	1	!	1349	0	0	0	0	0	0
2024-05-02	09:53:23	10:01:14	471055	6.6.1	4_exp_EVA_AWA_CON	6	B	A	Rpleas_acq	Oppo	Rpleas	1pleas	acq_US_unple_nomask	acq45_nomask	4	4	400	0	300	300	0	0	569	46	1	0	treu	lachen	schlau	loyal	tolerant	schön	tot	leiden	schroff	lasch	tyrannisch	schlecht	helfen	freundlich	retten	fair	ehrlich	spielen	hindern	fanatisch	rächen	faul	eitel	strafen	1	blank2r.bmp	0	1	+	0	1	blank2r.bmp	500	1	GKQX	500	1	blank2r.bmp	880	2	leiden	880	1	!	1232	1	!	-1	0	0	0	0	0	0
2024-05-02	09:53:23	10:01:16	473209	6.6.1	4_exp_EVA_AWA_CON	6	B	A	Rpleas_acq	Oppo	Rpleas	1pleas	acq_US_pleas_nomask	acq45_nomask	4	5	400	1	300	300	0	0	380	50	1	0	treu	lachen	schlau	loyal	tolerant	schön	tot	leiden	schroff	lasch	tyrannisch	schlecht	helfen	freundlich	retten	fair	ehrlich	spielen	hindern	fanatisch	rächen	faul	eitel	strafen	1	blank2r.bmp	0	1	+	0	1	blank2r.bmp	500	1	BMVZ	500	1	blank2r.bmp	880	1	treu	880	1	!	1232	1	!	1280	0	0	0	0	0	0
2024-05-02	09:53:23	10:01:19	475385	6.6.1	4_exp_EVA_AWA_CON	6	B	A	Rpleas_acq	Oppo	Rpleas	1pleas	acq_US_unple_nomask	acq45_nomask	4	6	400	1	300	300	0	0	394	46	1	0	treu	lachen	schlau	loyal	tolerant	schön	tot	leiden	schroff	lasch	tyrannisch	schlecht	helfen	freundlich	retten	fair	ehrlich	spielen	hindern	fanatisch	rächen	faul	eitel	strafen	1	blank2r.bmp	0	1	+	0	1	blank2r.bmp	500	1	GKQX	500	1	blank2r.bmp	880	1	tot	880	1	!	1233	1	!	1295	0	0	0	0	0	0
2024-05-02	09:53:23	10:01:21	477529	6.6.1	4_exp_EVA_AWA_CON	6	B	A	Rpleas_acq	Oppo	Rpleas	1pleas	acq_US_pleas_nomask	acq45_nomask	4	7	400	1	300	300	0	0	367	50	1	0	treu	lachen	schlau	loyal	tolerant	schön	tot	leiden	schroff	lasch	tyrannisch	schlecht	helfen	freundlich	retten	fair	ehrlich	spielen	hindern	fanatisch	rächen	faul	eitel	strafen	1	blank2r.bmp	0	1	+	0	1	blank2r.bmp	500	1	BMVZ	500	1	blank2r.bmp	880	6	schön	880	1	!	1233	1	!	1268	0	0	0	0	0	0
2024-05-02	09:53:23	10:01:23	479769	6.6.1	4_exp_EVA_AWA_CON	6	B	A	Rpleas_acq	Oppo	Rpleas	1pleas	acq_US_unple_nomask	acq45_nomask	4	8	400	1	300	300	0	0	465	46	1	0	treu	lachen	schlau	loyal	tolerant	schön	tot	leiden	schroff	lasch	tyrannisch	schlecht	helfen	freundlich	retten	fair	ehrlich	spielen	hindern	fanatisch	rächen	faul	eitel	strafen	1	blank2r.bmp	0	1	+	0	1	blank2r.bmp	500	1	GKQX	500	1	blank2r.bmp	880	5	tyrannisch	880	1	!	1232	1	!	1366	0	0	0	0	0	0
2024-05-02	09:53:23	10:01:25	481993	6.6.1	4_exp_EVA_AWA_CON	6	B	A	Rpleas_acq	Oppo	Rpleas	1pleas	acq_US_pleas_nomask	acq45_nomask	4	9	400	1	300	300	0	0	448	50	1	0	treu	lachen	schlau	loyal	tolerant	schön	tot	leiden	schroff	lasch	tyrannisch	schlecht	helfen	freundlich	retten	fair	ehrlich	spielen	hindern	fanatisch	rächen	faul	eitel	strafen	1	blank2r.bmp	0	1	+	0	1	blank2r.bmp	500	1	BMVZ	500	1	blank2r.bmp	880	2	lachen	880	1	!	1232	1	!	1349	0	0	0	0	0	0
2024-05-02	09:53:23	10:01:27	484113	6.6.1	4_exp_EVA_AWA_CON	6	B	A	Rpleas_acq	Oppo	Rpleas	1pleas	acq_US_pleas_nomask	acq45_nomask	4	10	400	1	300	300	0	0	347	50	1	0	treu	lachen	schlau	loyal	tolerant	schön	tot	leiden	schroff	lasch	tyrannisch	schlecht	helfen	freundlich	retten	fair	ehrlich	spielen	hindern	fanatisch	rächen	faul	eitel	strafen	1	blank2r.bmp	0	1	+	0	1	blank2r.bmp	500	1	BMVZ	500	1	blank2r.bmp	880	4	loyal	880	1	!	1233	1	!	1247	0	0	0	0	0	0
2024-05-02	09:53:23	10:01:30	486305	6.6.1	4_exp_EVA_AWA_CON	6	B	A	Rpleas_acq	Oppo	Rpleas	1pleas	acq_US_unple_nomask	acq45_nomask	4	11	400	1	300	300	0	0	417	46	1	0	treu	lachen	schlau	loyal	tolerant	schön	tot	leiden	schroff	lasch	tyrannisch	schlecht	helfen	freundlich	retten	fair	ehrlich	spielen	hindern	fanatisch	rächen	faul	eitel	strafen	1	blank2r.bmp	0	1	+	0	1	blank2r.bmp	500	1	GKQX	500	1	blank2r.bmp	880	4	lasch	880	1	!	1232	1	!	1318	0	0	0	0	0	0
2024-05-02	09:53:23	10:01:32	488537	6.6.1	4_exp_EVA_AWA_CON	6	B	A	Rpleas_acq	Oppo	Rpleas	1pleas	acq_US_pleas_nomask	acq45_nomask	4	12	400	1	300	300	0	0	458	50	1	0	treu	lachen	schlau	loyal	tolerant	schön	tot	leiden	schroff	lasch	tyrannisch	schlecht	helfen	freundlich	retten	fair	ehrlich	spielen	hindern	fanatisch	rächen	faul	eitel	strafen	1	blank2r.bmp	0	1	+	0	1	blank2r.bmp	500	1	BMVZ	500	1	blank2r.bmp	880	6	schön	880	1	!	1232	1	!	1359	0	0	0	0	0	0
2024-05-02	09:53:23	10:01:34	490800	6.6.1	4_exp_EVA_AWA_CON	6	B	A	Rpleas_acq	Oppo	Rpleas	1pleas	acq_US_pleas_nomask	acq45_nomask	4	13	400	0	300	300	0	0	489	50	1	0	treu	lachen	schlau	loyal	tolerant	schön	tot	leiden	schroff	lasch	tyrannisch	schlecht	helfen	freundlich	retten	fair	ehrlich	spielen	hindern	fanatisch	rächen	faul	eitel	strafen	1	blank2r.bmp	0	1	+	0	1	blank2r.bmp	500	1	BMVZ	500	1	blank2r.bmp	880	1	treu	880	1	!	1233	1	!	-1	0	0	0	0	0	0
2024-05-02	09:53:23	10:01:36	493025	6.6.1	4_exp_EVA_AWA_CON	6	B	A	Rpleas_acq	Oppo	Rpleas	1pleas	acq_US_pleas_nomask	acq45_nomask	4	14	400	1	300	300	0	0	442	50	1	0	treu	lachen	schlau	loyal	tolerant	schön	tot	leiden	schroff	lasch	tyrannisch	schlecht	helfen	freundlich	retten	fair	ehrlich	spielen	hindern	fanatisch	rächen	faul	eitel	strafen	1	blank2r.bmp	0	1	+	0	1	blank2r.bmp	500	1	BMVZ	500	1	blank2r.bmp	880	2	lachen	880	1	!	1232	1	!	1344	0	0	0	0	0	0
2024-05-02	09:53:23	10:01:39	495304	6.6.1	4_exp_EVA_AWA_CON	6	B	A	Rpleas_acq	Oppo	Rpleas	1pleas	acq_US_unple_nomask	acq45_nomask	4	15	400	0	300	300	0	0	501	46	1	0	treu	lachen	schlau	loyal	tolerant	schön	tot	leiden	schroff	lasch	tyrannisch	schlecht	helfen	freundlich	retten	fair	ehrlich	spielen	hindern	fanatisch	rächen	faul	eitel	strafen	1	blank2r.bmp	0	1	+	0	1	blank2r.bmp	500	1	GKQX	500	1	blank2r.bmp	880	3	schroff	880	1	!	1233	1	!	-1	0	0	0	0	0	0
2024-05-02	09:53:23	10:01:42	498496	6.6.1	4_exp_EVA_AWA_CON	6	B	A	Rpleas_acq	Oppo	Rpleas	1pleas	acq_US_unple_nomask	acq45_nomask	4	16	400	0	300	300	0	0	1411	46	1	0	treu	lachen	schlau	loyal	tolerant	schön	tot	leiden	schroff	lasch	tyrannisch	schlecht	helfen	freundlich	retten	fair	ehrlich	spielen	hindern	fanatisch	rächen	faul	eitel	strafen	1	blank2r.bmp	0	1	+	0	1	blank2r.bmp	500	1	GKQX	500	1	blank2r.bmp	880	3	schroff	880	1	!	1232	1	!	-1	0	0	0	0	0	0
2024-05-02	09:53:23	10:01:44	500665	6.6.1	4_exp_EVA_AWA_CON	6	B	A	Rpleas_acq	Oppo	Rpleas	1pleas	acq_US_unple_nomask	acq45_nomask	4	17	400	1	300	300	0	0	387	50	0	0	treu	lachen	schlau	loyal	tolerant	schön	tot	leiden	schroff	lasch	tyrannisch	schlecht	helfen	freundlich	retten	fair	ehrlich	spielen	hindern	fanatisch	rächen	faul	eitel	strafen	1	blank2r.bmp	0	1	+	0	1	blank2r.bmp	500	1	GKQX	500	1	blank2r.bmp	880	5	tyrannisch	880	1	!	1232	1	!	1289	0	0	0	0	0	0
2024-05-02	09:53:23	10:01:46	502905	6.6.1	4_exp_EVA_AWA_CON	6	B	A	Rpleas_acq	Oppo	Rpleas	1pleas	acq_US_unple_nomask	acq45_nomask	4	18	400	1	300	300	0	0	467	50	0	0	treu	lachen	schlau	loyal	tolerant	schön	tot	leiden	schroff	lasch	tyrannisch	schlecht	helfen	freundlich	retten	fair	ehrlich	spielen	hindern	fanatisch	rächen	faul	eitel	strafen	1	blank2r.bmp	0	1	+	0	1	blank2r.bmp	500	1	GKQX	500	1	blank2r.bmp	880	2	leiden	880	1	!	1233	1	!	1367	0	0	0	0	0	0
2024-05-02	09:53:23	10:01:48	505137	6.6.1	4_exp_EVA_AWA_CON	6	B	A	Rpleas_acq	Oppo	Rpleas	1pleas	acq_US_unple_nomask	acq45_nomask	4	19	400	1	300	300	0	0	456	50	0	0	treu	lachen	schlau	loyal	tolerant	schön	tot	leiden	schroff	lasch	tyrannisch	schlecht	helfen	freundlich	retten	fair	ehrlich	spielen	hindern	fanatisch	rächen	faul	eitel	strafen	1	blank2r.bmp	0	1	+	0	1	blank2r.bmp	500	1	GKQX	500	1	blank2r.bmp	880	1	tot	880	1	!	1232	1	!	1358	0	0	0	0	0	0
2024-05-02	09:53:23	10:01:51	507305	6.6.1	4_exp_EVA_AWA_CON	6	B	A	Rpleas_acq	Oppo	Rpleas	1pleas	acq_US_pleas_nomask	acq45_nomask	4	20	400	1	300	300	0	0	394	50	1	0	treu	lachen	schlau	loyal	tolerant	schön	tot	leiden	schroff	lasch	tyrannisch	schlecht	helfen	freundlich	retten	fair	ehrlich	spielen	hindern	fanatisch	rächen	faul	eitel	strafen	1	blank2r.bmp	0	1	+	0	1	blank2r.bmp	500	1	BMVZ	500	1	blank2r.bmp	880	4	loyal	880	1	!	1232	1	!	1294	0	0	0	0	0	0
2024-05-02	09:53:23	10:01:53	509505	6.6.1	4_exp_EVA_AWA_CON	6	B	A	Rpleas_acq	Oppo	Rpleas	1pleas	acq_US_unple_nomask	acq45_nomask	4	21	400	1	300	300	0	0	422	46	1	0	treu	lachen	schlau	loyal	tolerant	schön	tot	leiden	schroff	lasch	tyrannisch	schlecht	helfen	freundlich	retten	fair	ehrlich	spielen	hindern	fanatisch	rächen	faul	eitel	strafen	1	blank2r.bmp	0	1	+	0	1	blank2r.bmp	500	1	GKQX	500	1	blank2r.bmp	880	6	schlecht	880	1	!	1233	1	!	1323	0	0	0	0	0	0
2024-05-02	09:53:23	10:01:55	511799	6.6.1	4_exp_EVA_AWA_CON	6	B	A	Rpleas_acq	Oppo	Rpleas	1pleas	acq_US_unple_nomask	acq45_nomask	4	22	400	0	300	300	0	0	517	46	1	0	treu	lachen	schlau	loyal	tolerant	schön	tot	leiden	schroff	lasch	tyrannisch	schlecht	helfen	freundlich	retten	fair	ehrlich	spielen	hindern	fanatisch	rächen	faul	eitel	strafen	1	blank2r.bmp	0	1	+	0	1	blank2r.bmp	500	1	GKQX	500	1	blank2r.bmp	880	4	lasch	880	1	!	1232	1	!	-1	0	0	0	0	0	0
2024-05-02	09:53:23	10:01:57	514009	6.6.1	4_exp_EVA_AWA_CON	6	B	A	Rpleas_acq	Oppo	Rpleas	1pleas	acq_US_unple_nomask	acq45_nomask	4	23	400	1	300	300	0	0	433	46	1	0	treu	lachen	schlau	loyal	tolerant	schön	tot	leiden	schroff	lasch	tyrannisch	schlecht	helfen	freundlich	retten	fair	ehrlich	spielen	hindern	fanatisch	rächen	faul	eitel	strafen	1	blank2r.bmp	0	1	+	0	1	blank2r.bmp	500	1	GKQX	500	1	blank2r.bmp	880	5	tyrannisch	880	1	!	1233	1	!	1334	0	0	0	0	0	0
2024-05-02	09:53:23	10:02:00	516261	6.6.1	4_exp_EVA_AWA_CON	6	B	A	Rpleas_acq	Oppo	Rpleas	1pleas	acq_US_unple_nomask	acq45_nomask	4	24	400	0	300	300	0	0	477	46	1	0	treu	lachen	schlau	loyal	tolerant	schön	tot	leiden	schroff	lasch	tyrannisch	schlecht	helfen	freundlich	retten	fair	ehrlich	spielen	hindern	fanatisch	rächen	faul	eitel	strafen	1	blank2r.bmp	0	1	+	0	1	blank2r.bmp	500	1	GKQX	500	1	blank2r.bmp	880	1	tot	880	1	!	1232	1	!	-1	0	0	0	0	0	0
2024-05-02	09:53:23	10:02:02	518497	6.6.1	4_exp_EVA_AWA_CON	6	B	A	Rpleas_acq	Oppo	Rpleas	1pleas	acq_US_pleas_nomask	acq45_nomask	4	25	400	1	300	300	0	0	457	50	1	0	treu	lachen	schlau	loyal	tolerant	schön	tot	leiden	schroff	lasch	tyrannisch	schlecht	helfen	freundlich	retten	fair	ehrlich	spielen	hindern	fanatisch	rächen	faul	eitel	strafen	1	blank2r.bmp	0	1	+	0	1	blank2r.bmp	500	1	BMVZ	500	1	blank2r.bmp	880	5	tolerant	880	1	!	1232	1	!	1359	0	0	0	0	0	0
2024-05-02	09:53:23	10:02:04	520807	6.6.1	4_exp_EVA_AWA_CON	6	B	A	Rpleas_acq	Oppo	Rpleas	1pleas	acq_US_unple_nomask	acq45_nomask	4	26	400	0	300	300	0	0	529	46	1	0	treu	lachen	schlau	loyal	tolerant	schön	tot	leiden	schroff	lasch	tyrannisch	schlecht	helfen	freundlich	retten	fair	ehrlich	spielen	hindern	fanatisch	rächen	faul	eitel	strafen	1	blank2r.bmp	0	1	+	0	1	blank2r.bmp	500	1	GKQX	500	1	blank2r.bmp	880	2	leiden	880	1	!	1232	1	!	-1	0	0	0	0	0	0
2024-05-02	09:53:23	10:02:06	523017	6.6.1	4_exp_EVA_AWA_CON	6	B	A	Rpleas_acq	Oppo	Rpleas	1pleas	acq_US_unple_nomask	acq45_nomask	4	27	400	1	300	300	0	0	436	46	1	0	treu	lachen	schlau	loyal	tolerant	schön	tot	leiden	schroff	lasch	tyrannisch	schlecht	helfen	freundlich	retten	fair	ehrlich	spielen	hindern	fanatisch	rächen	faul	eitel	strafen	1	blank2r.bmp	0	1	+	0	1	blank2r.bmp	500	1	GKQX	500	1	blank2r.bmp	880	3	schroff	880	1	!	1232	1	!	1336	0	0	0	0	0	0
2024-05-02	09:53:23	10:02:08	525209	6.6.1	4_exp_EVA_AWA_CON	6	B	A	Rpleas_acq	Oppo	Rpleas	1pleas	acq_US_pleas_nomask	acq45_nomask	4	28	400	1	300	300	0	0	415	50	1	0	treu	lachen	schlau	loyal	tolerant	schön	tot	leiden	schroff	lasch	tyrannisch	schlecht	helfen	freundlich	retten	fair	ehrlich	spielen	hindern	fanatisch	rächen	faul	eitel	strafen	1	blank2r.bmp	0	1	+	0	1	blank2r.bmp	500	1	BMVZ	500	1	blank2r.bmp	880	3	schlau	880	1	!	1232	1	!	1317	0	0	0	0	0	0
2024-05-02	09:53:23	10:02:11	527369	6.6.1	4_exp_EVA_AWA_CON	6	B	A	Rpleas_acq	Oppo	Rpleas	1pleas	acq_US_pleas_nomask	acq45_nomask	4	29	400	1	300	300	0	0	384	46	0	0	treu	lachen	schlau	loyal	tolerant	schön	tot	leiden	schroff	lasch	tyrannisch	schlecht	helfen	freundlich	retten	fair	ehrlich	spielen	hindern	fanatisch	rächen	faul	eitel	strafen	1	blank2r.bmp	0	1	+	0	1	blank2r.bmp	500	1	BMVZ	500	1	blank2r.bmp	880	2	lachen	880	1	!	1232	1	!	1286	0	0	0	0	0	0
2024-05-02	09:53:23	10:02:13	529553	6.6.1	4_exp_EVA_AWA_CON	6	B	A	Rpleas_acq	Oppo	Rpleas	1pleas	acq_US_pleas_nomask	acq45_nomask	4	30	400	1	300	300	0	0	406	46	0	0	treu	lachen	schlau	loyal	tolerant	schön	tot	leiden	schroff	lasch	tyrannisch	schlecht	helfen	freundlich	retten	fair	ehrlich	spielen	hindern	fanatisch	rächen	faul	eitel	strafen	1	blank2r.bmp	0	1	+	0	1	blank2r.bmp	500	1	BMVZ	500	1	blank2r.bmp	880	1	treu	880	1	!	1232	1	!	1308	0	0	0	0	0	0
2024-05-02	09:53:23	10:02:15	531761	6.6.1	4_exp_EVA_AWA_CON	6	B	A	Rpleas_acq	Oppo	Rpleas	1pleas	acq_US_unple_nomask	acq45_nomask	4	31	400	1	300	300	0	0	433	46	1	0	treu	lachen	schlau	loyal	tolerant	schön	tot	leiden	schroff	lasch	tyrannisch	schlecht	helfen	freundlich	retten	fair	ehrlich	spielen	hindern	fanatisch	rächen	faul	eitel	strafen	1	blank2r.bmp	0	1	+	0	1	blank2r.bmp	500	1	GKQX	500	1	blank2r.bmp	880	6	schlecht	880	1	!	1232	1	!	1335	0	0	0	0	0	0
2024-05-02	09:53:23	10:02:17	533945	6.6.1	4_exp_EVA_AWA_CON	6	B	A	Rpleas_acq	Oppo	Rpleas	1pleas	acq_US_pleas_nomask	acq45_nomask	4	32	400	1	300	300	0	0	407	50	1	0	treu	lachen	schlau	loyal	tolerant	schön	tot	leiden	schroff	lasch	tyrannisch	schlecht	helfen	freundlich	retten	fair	ehrlich	spielen	hindern	fanatisch	rächen	faul	eitel	strafen	1	blank2r.bmp	0	1	+	0	1	blank2r.bmp	500	1	BMVZ	500	1	blank2r.bmp	880	6	schön	880	1	!	1232	1	!	1307	0	0	0	0	0	0
2024-05-02	09:53:23	10:02:19	536169	6.6.1	4_exp_EVA_AWA_CON	6	B	A	Rpleas_acq	Oppo	Rpleas	1pleas	acq_US_pleas_nomask	acq45_nomask	4	33	400	1	300	300	0	0	449	46	0	0	treu	lachen	schlau	loyal	tolerant	schön	tot	leiden	schroff	lasch	tyrannisch	schlecht	helfen	freundlich	retten	fair	ehrlich	spielen	hindern	fanatisch	rächen	faul	eitel	strafen	1	blank2r.bmp	0	1	+	0	1	blank2r.bmp	500	1	BMVZ	500	1	blank2r.bmp	880	5	tolerant	880	1	!	1232	1	!	1350	0	0	0	0	0	0
2024-05-02	09:53:23	10:02:22	538321	6.6.1	4_exp_EVA_AWA_CON	6	B	A	Rpleas_acq	Oppo	Rpleas	1pleas	acq_US_pleas_nomask	acq45_nomask	4	34	400	1	300	300	0	0	370	50	1	0	treu	lachen	schlau	loyal	tolerant	schön	tot	leiden	schroff	lasch	tyrannisch	schlecht	helfen	freundlich	retten	fair	ehrlich	spielen	hindern	fanatisch	rächen	faul	eitel	strafen	1	blank2r.bmp	0	1	+	0	1	blank2r.bmp	500	1	BMVZ	500	1	blank2r.bmp	880	4	loyal	880	1	!	1232	1	!	1271	0	0	0	0	0	0
2024-05-02	09:53:23	10:02:24	540505	6.6.1	4_exp_EVA_AWA_CON	6	B	A	Rpleas_acq	Oppo	Rpleas	1pleas	acq_US_unple_nomask	acq45_nomask	4	35	400	1	300	300	0	0	402	50	0	0	treu	lachen	schlau	loyal	tolerant	schön	tot	leiden	schroff	lasch	tyrannisch	schlecht	helfen	freundlich	retten	fair	ehrlich	spielen	hindern	fanatisch	rächen	faul	eitel	strafen	1	blank2r.bmp	0	1	+	0	1	blank2r.bmp	500	1	GKQX	500	1	blank2r.bmp	880	4	lasch	880	1	!	1232	1	!	1303	0	0	0	0	0	0
2024-05-02	09:53:23	10:02:26	542807	6.6.1	4_exp_EVA_AWA_CON	6	B	A	Rpleas_acq	Oppo	Rpleas	1pleas	acq_US_pleas_nomask	acq45_nomask	4	36	400	0	300	300	0	0	524	50	1	0	treu	lachen	schlau	loyal	tolerant	schön	tot	leiden	schroff	lasch	tyrannisch	schlecht	helfen	freundlich	retten	fair	ehrlich	spielen	hindern	fanatisch	rächen	faul	eitel	strafen	1	blank2r.bmp	0	1	+	0	1	blank2r.bmp	500	1	BMVZ	500	1	blank2r.bmp	880	3	schlau	880	1	!	1233	1	!	-1	0	0	0	0	0	0
2024-05-02	09:53:23	10:02:41	557463	6.6.1	4_exp_EVA_AWA_CON	6	B	A	Rpleas_acq	Oppo	Rpleas	1pleas	acq_US_unple_nomask	acq45_nomask	5	1	400	0	300	300	0	0	521	46	1	0	treu	lachen	schlau	loyal	tolerant	schön	tot	leiden	schroff	lasch	tyrannisch	schlecht	helfen	freundlich	retten	fair	ehrlich	spielen	hindern	fanatisch	rächen	faul	eitel	strafen	1	blank2r.bmp	0	1	+	0	1	blank2r.bmp	500	1	GKQX	500	1	blank2r.bmp	880	4	lasch	880	1	!	1232	1	!	-1	0	0	0	0	0	0
2024-05-02	09:53:23	10:02:43	559705	6.6.1	4_exp_EVA_AWA_CON	6	B	A	Rpleas_acq	Oppo	Rpleas	1pleas	acq_US_unple_nomask	acq45_nomask	5	2	400	1	300	300	0	0	459	46	1	0	treu	lachen	schlau	loyal	tolerant	schön	tot	leiden	schroff	lasch	tyrannisch	schlecht	helfen	freundlich	retten	fair	ehrlich	spielen	hindern	fanatisch	rächen	faul	eitel	strafen	1	blank2r.bmp	0	1	+	0	1	blank2r.bmp	500	1	GKQX	500	1	blank2r.bmp	880	2	leiden	880	1	!	1232	1	!	1361	0	0	0	0	0	0
2024-05-02	09:53:23	10:02:45	562071	6.6.1	4_exp_EVA_AWA_CON	6	B	A	Rpleas_acq	Oppo	Rpleas	1pleas	acq_US_pleas_nomask	acq45_nomask	5	3	400	0	300	300	0	0	587	46	0	0	treu	lachen	schlau	loyal	tolerant	schön	tot	leiden	schroff	lasch	tyrannisch	schlecht	helfen	freundlich	retten	fair	ehrlich	spielen	hindern	fanatisch	rächen	faul	eitel	strafen	1	blank2r.bmp	0	1	+	0	1	blank2r.bmp	500	1	BMVZ	500	1	blank2r.bmp	880	5	tolerant	880	1	!	1232	1	!	-1	0	0	0	0	0	0
2024-05-02	09:53:23	10:02:48	564335	6.6.1	4_exp_EVA_AWA_CON	6	B	A	Rpleas_acq	Oppo	Rpleas	1pleas	acq_US_unple_nomask	acq45_nomask	5	4	400	0	300	300	0	0	488	46	1	0	treu	lachen	schlau	loyal	tolerant	schön	tot	leiden	schroff	lasch	tyrannisch	schlecht	helfen	freundlich	retten	fair	ehrlich	spielen	hindern	fanatisch	rächen	faul	eitel	strafen	1	blank2r.bmp	0	1	+	0	1	blank2r.bmp	500	1	GKQX	500	1	blank2r.bmp	880	3	schroff	880	1	!	1232	1	!	-1	0	0	0	0	0	0
2024-05-02	09:53:23	10:02:50	566569	6.6.1	4_exp_EVA_AWA_CON	6	B	A	Rpleas_acq	Oppo	Rpleas	1pleas	acq_US_unple_nomask	acq45_nomask	5	5	400	1	300	300	0	0	459	46	1	0	treu	lachen	schlau	loyal	tolerant	schön	tot	leiden	schroff	lasch	tyrannisch	schlecht	helfen	freundlich	retten	fair	ehrlich	spielen	hindern	fanatisch	rächen	faul	eitel	strafen	1	blank2r.bmp	0	1	+	0	1	blank2r.bmp	500	1	GKQX	500	1	blank2r.bmp	880	5	tyrannisch	880	1	!	1232	1	!	1360	0	0	0	0	0	0
2024-05-02	09:53:23	10:02:52	568705	6.6.1	4_exp_EVA_AWA_CON	6	B	A	Rpleas_acq	Oppo	Rpleas	1pleas	acq_US_pleas_nomask	acq45_nomask	5	6	400	1	300	300	0	0	354	50	1	0	treu	lachen	schlau	loyal	tolerant	schön	tot	leiden	schroff	lasch	tyrannisch	schlecht	helfen	freundlich	retten	fair	ehrlich	spielen	hindern	fanatisch	rächen	faul	eitel	strafen	1	blank2r.bmp	0	1	+	0	1	blank2r.bmp	500	1	BMVZ	500	1	blank2r.bmp	880	1	treu	880	1	!	1232	1	!	1255	0	0	0	0	0	0
2024-05-02	09:53:23	10:02:54	570889	6.6.1	4_exp_EVA_AWA_CON	6	B	A	Rpleas_acq	Oppo	Rpleas	1pleas	acq_US_pleas_nomask	acq45_nomask	5	7	400	1	300	300	0	0	406	50	1	0	treu	lachen	schlau	loyal	tolerant	schön	tot	leiden	schroff	lasch	tyrannisch	schlecht	helfen	freundlich	retten	fair	ehrlich	spielen	hindern	fanatisch	rächen	faul	eitel	strafen	1	blank2r.bmp	0	1	+	0	1	blank2r.bmp	500	1	BMVZ	500	1	blank2r.bmp	880	6	schön	880	1	!	1232	1	!	1308	0	0	0	0	0	0
2024-05-02	09:53:23	10:02:56	573057	6.6.1	4_exp_EVA_AWA_CON	6	B	A	Rpleas_acq	Oppo	Rpleas	1pleas	acq_US_pleas_nomask	acq45_nomask	5	8	400	1	300	300	0	0	393	50	1	0	treu	lachen	schlau	loyal	tolerant	schön	tot	leiden	schroff	lasch	tyrannisch	schlecht	helfen	freundlich	retten	fair	ehrlich	spielen	hindern	fanatisch	rächen	faul	eitel	strafen	1	blank2r.bmp	0	1	+	0	1	blank2r.bmp	500	1	BMVZ	500	1	blank2r.bmp	880	4	loyal	880	1	!	1232	1	!	1294	0	0	0	0	0	0
2024-05-02	09:53:23	10:02:58	575167	6.6.1	4_exp_EVA_AWA_CON	6	B	A	Rpleas_acq	Oppo	Rpleas	1pleas	acq_US_pleas_nomask	acq45_nomask	5	9	400	1	300	300	0	0	334	50	1	0	treu	lachen	schlau	loyal	tolerant	schön	tot	leiden	schroff	lasch	tyrannisch	schlecht	helfen	freundlich	retten	fair	ehrlich	spielen	hindern	fanatisch	rächen	faul	eitel	strafen	1	blank2r.bmp	0	1	+	0	1	blank2r.bmp	500	1	BMVZ	500	1	blank2r.bmp	880	3	schlau	880	1	!	1232	1	!	1233	0	0	0	0	0	0
2024-05-02	09:53:23	10:03:01	577447	6.6.1	4_exp_EVA_AWA_CON	6	B	A	Rpleas_acq	Oppo	Rpleas	1pleas	acq_US_unple_nomask	acq45_nomask	5	10	400	0	300	300	0	0	503	46	1	0	treu	lachen	schlau	loyal	tolerant	schön	tot	leiden	schroff	lasch	tyrannisch	schlecht	helfen	freundlich	retten	fair	ehrlich	spielen	hindern	fanatisch	rächen	faul	eitel	strafen	1	blank2r.bmp	0	1	+	0	1	blank2r.bmp	500	1	GKQX	500	1	blank2r.bmp	880	6	schlecht	880	1	!	1232	1	!	-1	0	0	0	0	0	0
2024-05-02	09:53:23	10:03:03	579649	6.6.1	4_exp_EVA_AWA_CON	6	B	A	Rpleas_acq	Oppo	Rpleas	1pleas	acq_US_pleas_nomask	acq45_nomask	5	11	400	1	300	300	0	0	421	50	1	0	treu	lachen	schlau	loyal	tolerant	schön	tot	leiden	schroff	lasch	tyrannisch	schlecht	helfen	freundlich	retten	fair	ehrlich	spielen	hindern	fanatisch	rächen	faul	eitel	strafen	1	blank2r.bmp	0	1	+	0	1	blank2r.bmp	500	1	BMVZ	500	1	blank2r.bmp	880	2	lachen	880	1	!	1232	1	!	1322	0	0	0	0	0	0
2024-05-02	09:53:23	10:03:05	581785	6.6.1	4_exp_EVA_AWA_CON	6	B	A	Rpleas_acq	Oppo	Rpleas	1pleas	acq_US_unple_nomask	acq45_nomask	5	12	400	1	300	300	0	0	356	46	1	0	treu	lachen	schlau	loyal	tolerant	schön	tot	leiden	schroff	lasch	tyrannisch	schlecht	helfen	freundlich	retten	fair	ehrlich	spielen	hindern	fanatisch	rächen	faul	eitel	strafen	1	blank2r.bmp	0	1	+	0	1	blank2r.bmp	500	1	GKQX	500	1	blank2r.bmp	880	1	tot	880	1	!	1232	1	!	1257	0	0	0	0	0	0
2024-05-02	09:53:23	10:03:07	584017	6.6.1	4_exp_EVA_AWA_CON	6	B	A	Rpleas_acq	Oppo	Rpleas	1pleas	acq_US_unple_nomask	acq45_nomask	5	13	400	1	300	300	0	0	456	50	0	0	treu	lachen	schlau	loyal	tolerant	schön	tot	leiden	schroff	lasch	tyrannisch	schlecht	helfen	freundlich	retten	fair	ehrlich	spielen	hindern	fanatisch	rächen	faul	eitel	strafen	1	blank2r.bmp	0	1	+	0	1	blank2r.bmp	500	1	GKQX	500	1	blank2r.bmp	880	3	schroff	880	1	!	1233	1	!	1357	0	0	0	0	0	0
2024-05-02	09:53:23	10:03:10	586249	6.6.1	4_exp_EVA_AWA_CON	6	B	A	Rpleas_acq	Oppo	Rpleas	1pleas	acq_US_unple_nomask	acq45_nomask	5	14	400	1	300	300	0	0	456	46	1	0	treu	lachen	schlau	loyal	tolerant	schön	tot	leiden	schroff	lasch	tyrannisch	schlecht	helfen	freundlich	retten	fair	ehrlich	spielen	hindern	fanatisch	rächen	faul	eitel	strafen	1	blank2r.bmp	0	1	+	0	1	blank2r.bmp	500	1	GKQX	500	1	blank2r.bmp	880	2	leiden	880	1	!	1232	1	!	1358	0	0	0	0	0	0
2024-05-02	09:53:23	10:03:12	588449	6.6.1	4_exp_EVA_AWA_CON	6	B	A	Rpleas_acq	Oppo	Rpleas	1pleas	acq_US_pleas_nomask	acq45_nomask	5	15	400	1	300	300	0	0	425	46	0	0	treu	lachen	schlau	loyal	tolerant	schön	tot	leiden	schroff	lasch	tyrannisch	schlecht	helfen	freundlich	retten	fair	ehrlich	spielen	hindern	fanatisch	rächen	faul	eitel	strafen	1	blank2r.bmp	0	1	+	0	1	blank2r.bmp	500	1	BMVZ	500	1	blank2r.bmp	880	5	tolerant	880	1	!	1232	1	!	1326	0	0	0	0	0	0
2024-05-02	09:53:23	10:03:14	590751	6.6.1	4_exp_EVA_AWA_CON	6	B	A	Rpleas_acq	Oppo	Rpleas	1pleas	acq_US_pleas_nomask	acq45_nomask	5	16	400	0	300	300	0	0	527	50	1	0	treu	lachen	schlau	loyal	tolerant	schön	tot	leiden	schroff	lasch	tyrannisch	schlecht	helfen	freundlich	retten	fair	ehrlich	spielen	hindern	fanatisch	rächen	faul	eitel	strafen	1	blank2r.bmp	0	1	+	0	1	blank2r.bmp	500	1	BMVZ	500	1	blank2r.bmp	880	2	lachen	880	1	!	1232	1	!	-1	0	0	0	0	0	0
2024-05-02	09:53:23	10:03:16	592977	6.6.1	4_exp_EVA_AWA_CON	6	B	A	Rpleas_acq	Oppo	Rpleas	1pleas	acq_US_pleas_nomask	acq45_nomask	5	17	400	1	300	300	0	0	450	50	1	0	treu	lachen	schlau	loyal	tolerant	schön	tot	leiden	schroff	lasch	tyrannisch	schlecht	helfen	freundlich	retten	fair	ehrlich	spielen	hindern	fanatisch	rächen	faul	eitel	strafen	1	blank2r.bmp	0	1	+	0	1	blank2r.bmp	500	1	BMVZ	500	1	blank2r.bmp	880	3	schlau	880	1	!	1232	1	!	1352	0	0	0	0	0	0
2024-05-02	09:53:23	10:03:18	595193	6.6.1	4_exp_EVA_AWA_CON	6	B	A	Rpleas_acq	Oppo	Rpleas	1pleas	acq_US_unple_nomask	acq45_nomask	5	18	400	1	300	300	0	0	434	46	1	0	treu	lachen	schlau	loyal	tolerant	schön	tot	leiden	schroff	lasch	tyrannisch	schlecht	helfen	freundlich	retten	fair	ehrlich	spielen	hindern	fanatisch	rächen	faul	eitel	strafen	1	blank2r.bmp	0	1	+	0	1	blank2r.bmp	500	1	GKQX	500	1	blank2r.bmp	880	6	schlecht	880	1	!	1232	1	!	1336	0	0	0	0	0	0
2024-05-02	09:53:23	10:03:21	597471	6.6.1	4_exp_EVA_AWA_CON	6	B	A	Rpleas_acq	Oppo	Rpleas	1pleas	acq_US_pleas_nomask	acq45_nomask	5	19	400	0	300	300	0	0	503	50	1	0	treu	lachen	schlau	loyal	tolerant	schön	tot	leiden	schroff	lasch	tyrannisch	schlecht	helfen	freundlich	retten	fair	ehrlich	spielen	hindern	fanatisch	rächen	faul	eitel	strafen	1	blank2r.bmp	0	1	+	0	1	blank2r.bmp	500	1	BMVZ	500	1	blank2r.bmp	880	4	loyal	880	1	!	1233	1	!	-1	0	0	0	0	0	0
2024-05-02	09:53:23	10:03:23	599657	6.6.1	4_exp_EVA_AWA_CON	6	B	A	Rpleas_acq	Oppo	Rpleas	1pleas	acq_US_pleas_nomask	acq45_nomask	5	20	400	1	300	300	0	0	406	50	1	0	treu	lachen	schlau	loyal	tolerant	schön	tot	leiden	schroff	lasch	tyrannisch	schlecht	helfen	freundlich	retten	fair	ehrlich	spielen	hindern	fanatisch	rächen	faul	eitel	strafen	1	blank2r.bmp	0	1	+	0	1	blank2r.bmp	500	1	BMVZ	500	1	blank2r.bmp	880	6	schön	880	1	!	1232	1	!	1307	0	0	0	0	0	0
2024-05-02	09:53:23	10:03:26	603167	6.6.1	4_exp_EVA_AWA_CON	6	B	A	Rpleas_acq	Oppo	Rpleas	1pleas	acq_US_pleas_nomask	acq45_nomask	5	21	400	0	300	300	0	0	1736	50	1	0	treu	lachen	schlau	loyal	tolerant	schön	tot	leiden	schroff	lasch	tyrannisch	schlecht	helfen	freundlich	retten	fair	ehrlich	spielen	hindern	fanatisch	rächen	faul	eitel	strafen	1	blank2r.bmp	0	1	+	0	1	blank2r.bmp	500	1	BMVZ	500	1	blank2r.bmp	880	1	treu	880	1	!	1232	1	!	-1	0	0	0	0	0	0
2024-05-02	09:53:23	10:03:29	605361	6.6.1	4_exp_EVA_AWA_CON	6	B	A	Rpleas_acq	Oppo	Rpleas	1pleas	acq_US_unple_nomask	acq45_nomask	5	22	400	1	300	300	0	0	417	50	0	0	treu	lachen	schlau	loyal	tolerant	schön	tot	leiden	schroff	lasch	tyrannisch	schlecht	helfen	freundlich	retten	fair	ehrlich	spielen	hindern	fanatisch	rächen	faul	eitel	strafen	1	blank2r.bmp	0	1	+	0	1	blank2r.bmp	500	1	GKQX	500	1	blank2r.bmp	880	4	lasch	880	1	!	1232	1	!	1318	0	0	0	0	0	0
2024-05-02	09:53:23	10:03:31	607569	6.6.1	4_exp_EVA_AWA_CON	6	B	A	Rpleas_acq	Oppo	Rpleas	1pleas	acq_US_unple_nomask	acq45_nomask	5	23	400	1	300	300	0	0	432	46	1	0	treu	lachen	schlau	loyal	tolerant	schön	tot	leiden	schroff	lasch	tyrannisch	schlecht	helfen	freundlich	retten	fair	ehrlich	spielen	hindern	fanatisch	rächen	faul	eitel	strafen	1	blank2r.bmp	0	1	+	0	1	blank2r.bmp	500	1	GKQX	500	1	blank2r.bmp	880	5	tyrannisch	880	1	!	1232	1	!	1334	0	0	0	0	0	0
2024-05-02	09:53:23	10:03:33	609855	6.6.1	4_exp_EVA_AWA_CON	6	B	A	Rpleas_acq	Oppo	Rpleas	1pleas	acq_US_unple_nomask	acq45_nomask	5	24	400	0	300	300	0	0	509	46	1	0	treu	lachen	schlau	loyal	tolerant	schön	tot	leiden	schroff	lasch	tyrannisch	schlecht	helfen	freundlich	retten	fair	ehrlich	spielen	hindern	fanatisch	rächen	faul	eitel	strafen	1	blank2r.bmp	0	1	+	0	1	blank2r.bmp	500	1	GKQX	500	1	blank2r.bmp	880	1	tot	880	1	!	1232	1	!	-1	0	0	0	0	0	0
2024-05-02	09:53:23	10:03:35	611959	6.6.1	4_exp_EVA_AWA_CON	6	B	A	Rpleas_acq	Oppo	Rpleas	1pleas	acq_US_pleas_nomask	acq45_nomask	5	25	400	0	300	300	0	0	321	50	1	0	treu	lachen	schlau	loyal	tolerant	schön	tot	leiden	schroff	lasch	tyrannisch	schlecht	helfen	freundlich	retten	fair	ehrlich	spielen	hindern	fanatisch	rächen	faul	eitel	strafen	1	blank2r.bmp	0	1	+	0	1	blank2r.bmp	500	1	BMVZ	500	1	blank2r.bmp	880	2	lachen	880	1	!	-1	1	!	-1	0	0	0	0	0	0
2024-05-02	09:53:23	10:03:37	614177	6.6.1	4_exp_EVA_AWA_CON	6	B	A	Rpleas_acq	Oppo	Rpleas	1pleas	acq_US_unple_nomask	acq45_nomask	5	26	400	1	300	300	0	0	437	46	1	0	treu	lachen	schlau	loyal	tolerant	schön	tot	leiden	schroff	lasch	tyrannisch	schlecht	helfen	freundlich	retten	fair	ehrlich	spielen	hindern	fanatisch	rächen	faul	eitel	strafen	1	blank2r.bmp	0	1	+	0	1	blank2r.bmp	500	1	GKQX	500	1	blank2r.bmp	880	6	schlecht	880	1	!	1233	1	!	1338	0	0	0	0	0	0
2024-05-02	09:53:23	10:03:40	616409	6.6.1	4_exp_EVA_AWA_CON	6	B	A	Rpleas_acq	Oppo	Rpleas	1pleas	acq_US_unple_nomask	acq45_nomask	5	27	400	1	300	300	0	0	457	50	0	0	treu	lachen	schlau	loyal	tolerant	schön	tot	leiden	schroff	lasch	tyrannisch	schlecht	helfen	freundlich	retten	fair	ehrlich	spielen	hindern	fanatisch	rächen	faul	eitel	strafen	1	blank2r.bmp	0	1	+	0	1	blank2r.bmp	500	1	GKQX	500	1	blank2r.bmp	880	3	schroff	880	1	!	1232	1	!	1358	0	0	0	0	0	0
2024-05-02	09:53:23	10:03:42	618641	6.6.1	4_exp_EVA_AWA_CON	6	B	A	Rpleas_acq	Oppo	Rpleas	1pleas	acq_US_pleas_nomask	acq45_nomask	5	28	400	1	300	300	0	0	448	50	1	0	treu	lachen	schlau	loyal	tolerant	schön	tot	leiden	schroff	lasch	tyrannisch	schlecht	helfen	freundlich	retten	fair	ehrlich	spielen	hindern	fanatisch	rächen	faul	eitel	strafen	1	blank2r.bmp	0	1	+	0	1	blank2r.bmp	500	1	BMVZ	500	1	blank2r.bmp	880	4	loyal	880	1	!	1232	1	!	1349	0	0	0	0	0	0
2024-05-02	09:53:23	10:03:44	620865	6.6.1	4_exp_EVA_AWA_CON	6	B	A	Rpleas_acq	Oppo	Rpleas	1pleas	acq_US_unple_nomask	acq45_nomask	5	29	400	1	300	300	0	0	441	46	1	0	treu	lachen	schlau	loyal	tolerant	schön	tot	leiden	schroff	lasch	tyrannisch	schlecht	helfen	freundlich	retten	fair	ehrlich	spielen	hindern	fanatisch	rächen	faul	eitel	strafen	1	blank2r.bmp	0	1	+	0	1	blank2r.bmp	500	1	GKQX	500	1	blank2r.bmp	880	4	lasch	880	1	!	1232	1	!	1342	0	0	0	0	0	0
2024-05-02	09:53:23	10:03:46	623117	6.6.1	4_exp_EVA_AWA_CON	6	B	A	Rpleas_acq	Oppo	Rpleas	1pleas	acq_US_unple_nomask	acq45_nomask	5	30	400	0	300	300	0	0	474	46	1	0	treu	lachen	schlau	loyal	tolerant	schön	tot	leiden	schroff	lasch	tyrannisch	schlecht	helfen	freundlich	retten	fair	ehrlich	spielen	hindern	fanatisch	rächen	faul	eitel	strafen	1	blank2r.bmp	0	1	+	0	1	blank2r.bmp	500	1	GKQX	500	1	blank2r.bmp	880	2	leiden	880	1	!	1232	1	!	-1	0	0	0	0	0	0
2024-05-02	09:53:23	10:03:49	625399	6.6.1	4_exp_EVA_AWA_CON	6	B	A	Rpleas_acq	Oppo	Rpleas	1pleas	acq_US_pleas_nomask	acq45_nomask	5	31	400	0	300	300	0	0	503	50	1	0	treu	lachen	schlau	loyal	tolerant	schön	tot	leiden	schroff	lasch	tyrannisch	schlecht	helfen	freundlich	retten	fair	ehrlich	spielen	hindern	fanatisch	rächen	faul	eitel	strafen	1	blank2r.bmp	0	1	+	0	1	blank2r.bmp	500	1	BMVZ	500	1	blank2r.bmp	880	5	tolerant	880	1	!	1232	1	!	-1	0	0	0	0	0	0
2024-05-02	09:53:23	10:03:51	627610	6.6.1	4_exp_EVA_AWA_CON	6	B	A	Rpleas_acq	Oppo	Rpleas	1pleas	acq_US_pleas_nomask	acq45_nomask	5	32	400	1	300	300	0	0	430	50	1	0	treu	lachen	schlau	loyal	tolerant	schön	tot	leiden	schroff	lasch	tyrannisch	schlecht	helfen	freundlich	retten	fair	ehrlich	spielen	hindern	fanatisch	rächen	faul	eitel	strafen	1	blank2r.bmp	0	1	+	0	1	blank2r.bmp	500	1	BMVZ	500	1	blank2r.bmp	880	1	treu	880	1	!	1232	1	!	1332	0	0	0	0	0	0
2024-05-02	09:53:23	10:03:53	629770	6.6.1	4_exp_EVA_AWA_CON	6	B	A	Rpleas_acq	Oppo	Rpleas	1pleas	acq_US_pleas_nomask	acq45_nomask	5	33	400	1	300	300	0	0	379	50	1	0	treu	lachen	schlau	loyal	tolerant	schön	tot	leiden	schroff	lasch	tyrannisch	schlecht	helfen	freundlich	retten	fair	ehrlich	spielen	hindern	fanatisch	rächen	faul	eitel	strafen	1	blank2r.bmp	0	1	+	0	1	blank2r.bmp	500	1	BMVZ	500	1	blank2r.bmp	880	6	schön	880	1	!	1232	1	!	1280	0	0	0	0	0	0
2024-05-02	09:53:23	10:03:55	631985	6.6.1	4_exp_EVA_AWA_CON	6	B	A	Rpleas_acq	Oppo	Rpleas	1pleas	acq_US_pleas_nomask	acq45_nomask	5	34	400	1	300	300	0	0	433	50	1	0	treu	lachen	schlau	loyal	tolerant	schön	tot	leiden	schroff	lasch	tyrannisch	schlecht	helfen	freundlich	retten	fair	ehrlich	spielen	hindern	fanatisch	rächen	faul	eitel	strafen	1	blank2r.bmp	0	1	+	0	1	blank2r.bmp	500	1	BMVZ	500	1	blank2r.bmp	880	3	schlau	880	1	!	1232	1	!	1334	0	0	0	0	0	0
2024-05-02	09:53:23	10:03:57	634161	6.6.1	4_exp_EVA_AWA_CON	6	B	A	Rpleas_acq	Oppo	Rpleas	1pleas	acq_US_unple_nomask	acq45_nomask	5	35	400	1	300	300	0	0	397	46	1	0	treu	lachen	schlau	loyal	tolerant	schön	tot	leiden	schroff	lasch	tyrannisch	schlecht	helfen	freundlich	retten	fair	ehrlich	spielen	hindern	fanatisch	rächen	faul	eitel	strafen	1	blank2r.bmp	0	1	+	0	1	blank2r.bmp	500	1	GKQX	500	1	blank2r.bmp	880	1	tot	880	1	!	1232	1	!	1299	0	0	0	0	0	0
2024-05-02	09:53:23	10:04:00	636369	6.6.1	4_exp_EVA_AWA_CON	6	B	A	Rpleas_acq	Oppo	Rpleas	1pleas	acq_US_unple_nomask	acq45_nomask	5	36	400	1	300	300	0	0	424	46	1	0	treu	lachen	schlau	loyal	tolerant	schön	tot	leiden	schroff	lasch	tyrannisch	schlecht	helfen	freundlich	retten	fair	ehrlich	spielen	hindern	fanatisch	rächen	faul	eitel	strafen	1	blank2r.bmp	0	1	+	0	1	blank2r.bmp	500	1	GKQX	500	1	blank2r.bmp	880	5	tyrannisch	880	1	!	1232	1	!	1326	0	0	0	0	0	0
2024-05-02	09:53:23	10:04:24	660747	6.6.1	4_exp_EVA_AWA_CON	6	B	A	Rpleas_acq	Oppo	Lpleas	1pleas	EvalRating_firsttwo	EvalRating_firsttwo	6	1	0	0	300	300	0	0	8284	line	0	41,40625pct	treu	lachen	schlau	loyal	tolerant	schön	tot	leiden	schroff	lasch	tyrannisch	schlecht	helfen	freundlich	retten	fair	ehrlich	spielen	hindern	fanatisch	rächen	faul	eitel	strafen	1		-8	1	Wie angenehm oder unangenehm finden Sie die  Buchstabenkette ZGVK?	-8	1		-8	1		-8	1		-8	1	Unangenehm	-8	1	Angenehm	-8	0	0	0	0	0	0	0	0	0
2024-05-02	09:53:23	10:04:33	669244	6.6.1	4_exp_EVA_AWA_CON	6	B	A	Rpleas_acq	Oppo	Lpleas	1pleas	EvalRating_lastfour	EvalRating_lastfour	7	1	0	0	300	300	0	0	6125	line	0	-58,7239583333333285964pct	treu	lachen	schlau	loyal	tolerant	schön	tot	leiden	schroff	lasch	tyrannisch	schlecht	helfen	freundlich	retten	fair	ehrlich	spielen	hindern	fanatisch	rächen	faul	eitel	strafen	1		-7	3	Wie angenehm oder unangenehm finden Sie die  Buchstabenkette XBQM?	-7	1		-7	1		-7	1		-7	1	Unangenehm	-7	1	Angenehm	-7	0	0	0	0	0	0	0	0	0
2024-05-02	09:53:23	10:04:35	671617	6.6.1	4_exp_EVA_AWA_CON	6	B	A	Rpleas_acq	Oppo	Lpleas	1pleas	blank_screen	EvalRating_lastfour	7	3	0	0	300	300	0	0	0	0	0	-58,7239583333333285964pct	treu	lachen	schlau	loyal	tolerant	schön	tot	leiden	schroff	lasch	tyrannisch	schlecht	helfen	freundlich	retten	fair	ehrlich	spielen	hindern	fanatisch	rächen	faul	eitel	strafen	1		-8	0	0	0	0	0	0	0	0	0	0	0	0	0	0	0	0	0	0	0	0	0	0	0	0	0	0	0
2024-05-02	09:53:23	10:04:40	676587	6.6.1	4_exp_EVA_AWA_CON	6	B	A	Rpleas_acq	Oppo	Lpleas	1pleas	EvalRating_lastfour	EvalRating_lastfour	7	4	0	0	300	300	0	0	4382	line	0	-52,9947916666666642982pct	treu	lachen	schlau	loyal	tolerant	schön	tot	leiden	schroff	lasch	tyrannisch	schlecht	helfen	freundlich	retten	fair	ehrlich	spielen	hindern	fanatisch	rächen	faul	eitel	strafen	1		-8	1	Wie angenehm oder unangenehm finden Sie die  Buchstabenkette BMVZ?	-8	1		-8	1		-8	1		-8	1	Unangenehm	-8	1	Angenehm	-8	0	0	0	0	0	0	0	0	0
2024-05-02	09:53:23	10:04:42	678952	6.6.1	4_exp_EVA_AWA_CON	6	B	A	Rpleas_acq	Oppo	Lpleas	1pleas	blank_screen	EvalRating_lastfour	7	6	0	0	300	300	0	0	0	0	0	-52,9947916666666642982pct	treu	lachen	schlau	loyal	tolerant	schön	tot	leiden	schroff	lasch	tyrannisch	schlecht	helfen	freundlich	retten	fair	ehrlich	spielen	hindern	fanatisch	rächen	faul	eitel	strafen	1		-8	0	0	0	0	0	0	0	0	0	0	0	0	0	0	0	0	0	0	0	0	0	0	0	0	0	0	0
2024-05-02	09:53:23	10:04:48	684283	6.6.1	4_exp_EVA_AWA_CON	6	B	A	Rpleas_acq	Oppo	Lpleas	1pleas	EvalRating_lastfour	EvalRating_lastfour	7	7	0	0	300	300	0	0	4743	line	0	-86,328125pct	treu	lachen	schlau	loyal	tolerant	schön	tot	leiden	schroff	lasch	tyrannisch	schlecht	helfen	freundlich	retten	fair	ehrlich	spielen	hindern	fanatisch	rächen	faul	eitel	strafen	1		-8	2	Wie angenehm oder unangenehm finden Sie die  Buchstabenkette GKQX?	-8	1		-8	1		-8	1		-8	1	Unangenehm	-8	1	Angenehm	-8	0	0	0	0	0	0	0	0	0
2024-05-02	09:53:23	10:05:46	742721	6.6.1	4_exp_EVA_AWA_CON	6	B	A	Rpleas_acq	Oppo	Lpleas	1pleas	conawa_CS2_US5	conawa1_nomask	8	1	0	0	300	300	0	0	23484	tyrannisch	1	-86,328125pct	treu	lachen	schlau	loyal	tolerant	schön	tot	leiden	schroff	lasch	tyrannisch	schlecht	helfen	freundlich	retten	fair	ehrlich	spielen	hindern	fanatisch	rächen	faul	eitel	strafen	0	0	0	0	0	0	0	0	0	0	0	0	0	0	0	0	0	0	0	0	0	0	0	0	0	0	0	0	0	0
2024-05-02	09:53:23	10:05:46	742723	6.6.1	4_exp_EVA_AWA_CON	6	B	A	Rpleas_acq	Oppo	Lpleas	1pleas	conawa_CS2_US5_confidence	conawa1_nomask	8	1	0	0	300	300	0	0	23484	sure	1	-86,328125pct	treu	lachen	schlau	loyal	tolerant	schön	tot	leiden	schroff	lasch	tyrannisch	schlecht	helfen	freundlich	retten	fair	ehrlich	spielen	hindern	fanatisch	rächen	faul	eitel	strafen	0	0	0	0	0	0	0	0	0	0	0	0	0	0	0	0	0	0	0	0	0	0	0	0	0	0	0	0	0	0
2024-05-02	09:53:23	10:05:59	755889	6.6.1	4_exp_EVA_AWA_CON	6	B	A	Rpleas_acq	Oppo	Lpleas	1pleas	conawa_CS1_US6	conawa1_nomask	8	2	0	0	300	300	0	0	12546	schlecht	1	-86,328125pct	treu	lachen	schlau	loyal	tolerant	schön	tot	leiden	schroff	lasch	tyrannisch	schlecht	helfen	freundlich	retten	fair	ehrlich	spielen	hindern	fanatisch	rächen	faul	eitel	strafen	0	0	0	0	0	0	0	0	0	0	0	0	0	0	0	0	0	0	0	0	0	0	0	0	0	0	0	0	0	0
2024-05-02	09:53:23	10:05:59	755891	6.6.1	4_exp_EVA_AWA_CON	6	B	A	Rpleas_acq	Oppo	Lpleas	1pleas	conawa_CS1_US6_confidence	conawa1_nomask	8	2	0	0	300	300	0	0	12546	probably	1	-86,328125pct	treu	lachen	schlau	loyal	tolerant	schön	tot	leiden	schroff	lasch	tyrannisch	schlecht	helfen	freundlich	retten	fair	ehrlich	spielen	hindern	fanatisch	rächen	faul	eitel	strafen	0	0	0	0	0	0	0	0	0	0	0	0	0	0	0	0	0	0	0	0	0	0	0	0	0	0	0	0	0	0
2024-05-02	09:53:23	10:06:10	766816	6.6.1	4_exp_EVA_AWA_CON	6	B	A	Rpleas_acq	Oppo	Lpleas	1pleas	conawa_CS2_US6	conawa1_nomask	8	3	0	0	300	300	0	0	10309	hindern	1	-86,328125pct	treu	lachen	schlau	loyal	tolerant	schön	tot	leiden	schroff	lasch	tyrannisch	schlecht	helfen	freundlich	retten	fair	ehrlich	spielen	hindern	fanatisch	rächen	faul	eitel	strafen	0	0	0	0	0	0	0	0	0	0	0	0	0	0	0	0	0	0	0	0	0	0	0	0	0	0	0	0	0	0
2024-05-02	09:53:23	10:06:10	766819	6.6.1	4_exp_EVA_AWA_CON	6	B	A	Rpleas_acq	Oppo	Lpleas	1pleas	conawa_CS2_US6_confidence	conawa1_nomask	8	3	0	0	300	300	0	0	10309	probably	1	-86,328125pct	treu	lachen	schlau	loyal	tolerant	schön	tot	leiden	schroff	lasch	tyrannisch	schlecht	helfen	freundlich	retten	fair	ehrlich	spielen	hindern	fanatisch	rächen	faul	eitel	strafen	0	0	0	0	0	0	0	0	0	0	0	0	0	0	0	0	0	0	0	0	0	0	0	0	0	0	0	0	0	0
2024-05-02	09:53:23	10:06:28	784388	6.6.1	4_exp_EVA_AWA_CON	6	B	A	Rpleas_acq	Oppo	Lpleas	1pleas	conawa_CS1_US3	conawa1_nomask	8	4	0	0	300	300	0	0	16957	retten	1	-86,328125pct	treu	lachen	schlau	loyal	tolerant	schön	tot	leiden	schroff	lasch	tyrannisch	schlecht	helfen	freundlich	retten	fair	ehrlich	spielen	hindern	fanatisch	rächen	faul	eitel	strafen	0	0	0	0	0	0	0	0	0	0	0	0	0	0	0	0	0	0	0	0	0	0	0	0	0	0	0	0	0	0
2024-05-02	09:53:23	10:06:28	784390	6.6.1	4_exp_EVA_AWA_CON	6	B	A	Rpleas_acq	Oppo	Lpleas	1pleas	conawa_CS1_US3_confidence	conawa1_nomask	8	4	0	0	300	300	0	0	16957	guess	1	-86,328125pct	treu	lachen	schlau	loyal	tolerant	schön	tot	leiden	schroff	lasch	tyrannisch	schlecht	helfen	freundlich	retten	fair	ehrlich	spielen	hindern	fanatisch	rächen	faul	eitel	strafen	0	0	0	0	0	0	0	0	0	0	0	0	0	0	0	0	0	0	0	0	0	0	0	0	0	0	0	0	0	0
2024-05-02	09:53:23	10:06:49	805762	6.6.1	4_exp_EVA_AWA_CON	6	B	A	Rpleas_acq	Oppo	Lpleas	1pleas	conawa_CS1_US4	conawa1_nomask	8	5	0	0	300	300	0	0	20762	lasch	1	-86,328125pct	treu	lachen	schlau	loyal	tolerant	schön	tot	leiden	schroff	lasch	tyrannisch	schlecht	helfen	freundlich	retten	fair	ehrlich	spielen	hindern	fanatisch	rächen	faul	eitel	strafen	0	0	0	0	0	0	0	0	0	0	0	0	0	0	0	0	0	0	0	0	0	0	0	0	0	0	0	0	0	0
2024-05-02	09:53:23	10:06:49	805763	6.6.1	4_exp_EVA_AWA_CON	6	B	A	Rpleas_acq	Oppo	Lpleas	1pleas	conawa_CS1_US4_confidence	conawa1_nomask	8	5	0	0	300	300	0	0	20762	probably	1	-86,328125pct	treu	lachen	schlau	loyal	tolerant	schön	tot	leiden	schroff	lasch	tyrannisch	schlecht	helfen	freundlich	retten	fair	ehrlich	spielen	hindern	fanatisch	rächen	faul	eitel	strafen	0	0	0	0	0	0	0	0	0	0	0	0	0	0	0	0	0	0	0	0	0	0	0	0	0	0	0	0	0	0
2024-05-02	09:53:23	10:06:55	811345	6.6.1	4_exp_EVA_AWA_CON	6	B	A	Rpleas_acq	Oppo	Lpleas	1pleas	conawa_CS2_US2	conawa1_nomask	8	6	0	0	300	300	0	0	4963	rächen	1	-86,328125pct	treu	lachen	schlau	loyal	tolerant	schön	tot	leiden	schroff	lasch	tyrannisch	schlecht	helfen	freundlich	retten	fair	ehrlich	spielen	hindern	fanatisch	rächen	faul	eitel	strafen	0	0	0	0	0	0	0	0	0	0	0	0	0	0	0	0	0	0	0	0	0	0	0	0	0	0	0	0	0	0
2024-05-02	09:53:23	10:06:55	811347	6.6.1	4_exp_EVA_AWA_CON	6	B	A	Rpleas_acq	Oppo	Lpleas	1pleas	conawa_CS2_US2_confidence	conawa1_nomask	8	6	0	0	300	300	0	0	4963	sure	1	-86,328125pct	treu	lachen	schlau	loyal	tolerant	schön	tot	leiden	schroff	lasch	tyrannisch	schlecht	helfen	freundlich	retten	fair	ehrlich	spielen	hindern	fanatisch	rächen	faul	eitel	strafen	0	0	0	0	0	0	0	0	0	0	0	0	0	0	0	0	0	0	0	0	0	0	0	0	0	0	0	0	0	0
2024-05-02	09:53:23	10:07:05	822032	6.6.1	4_exp_EVA_AWA_CON	6	B	A	Rpleas_acq	Oppo	Lpleas	1pleas	conawa_CS2_US1	conawa1_nomask	8	7	0	0	300	300	0	0	10069	tot	1	-86,328125pct	treu	lachen	schlau	loyal	tolerant	schön	tot	leiden	schroff	lasch	tyrannisch	schlecht	helfen	freundlich	retten	fair	ehrlich	spielen	hindern	fanatisch	rächen	faul	eitel	strafen	0	0	0	0	0	0	0	0	0	0	0	0	0	0	0	0	0	0	0	0	0	0	0	0	0	0	0	0	0	0
2024-05-02	09:53:23	10:07:05	822034	6.6.1	4_exp_EVA_AWA_CON	6	B	A	Rpleas_acq	Oppo	Lpleas	1pleas	conawa_CS2_US1_confidence	conawa1_nomask	8	7	0	0	300	300	0	0	10069	probably	1	-86,328125pct	treu	lachen	schlau	loyal	tolerant	schön	tot	leiden	schroff	lasch	tyrannisch	schlecht	helfen	freundlich	retten	fair	ehrlich	spielen	hindern	fanatisch	rächen	faul	eitel	strafen	0	0	0	0	0	0	0	0	0	0	0	0	0	0	0	0	0	0	0	0	0	0	0	0	0	0	0	0	0	0
2024-05-02	09:53:23	10:07:19	835241	6.6.1	4_exp_EVA_AWA_CON	6	B	A	Rpleas_acq	Oppo	Lpleas	1pleas	conawa_CS1_US5	conawa1_nomask	8	8	0	0	300	300	0	0	12590	tyrannisch	1	-86,328125pct	treu	lachen	schlau	loyal	tolerant	schön	tot	leiden	schroff	lasch	tyrannisch	schlecht	helfen	freundlich	retten	fair	ehrlich	spielen	hindern	fanatisch	rächen	faul	eitel	strafen	0	0	0	0	0	0	0	0	0	0	0	0	0	0	0	0	0	0	0	0	0	0	0	0	0	0	0	0	0	0
2024-05-02	09:53:23	10:07:19	835242	6.6.1	4_exp_EVA_AWA_CON	6	B	A	Rpleas_acq	Oppo	Lpleas	1pleas	conawa_CS1_US5_confidence	conawa1_nomask	8	8	0	0	300	300	0	0	12590	guess	1	-86,328125pct	treu	lachen	schlau	loyal	tolerant	schön	tot	leiden	schroff	lasch	tyrannisch	schlecht	helfen	freundlich	retten	fair	ehrlich	spielen	hindern	fanatisch	rächen	faul	eitel	strafen	0	0	0	0	0	0	0	0	0	0	0	0	0	0	0	0	0	0	0	0	0	0	0	0	0	0	0	0	0	0
2024-05-02	09:53:23	10:07:26	842986	6.6.1	4_exp_EVA_AWA_CON	6	B	A	Rpleas_acq	Oppo	Lpleas	1pleas	conawa_CS2_US3	conawa1_nomask	8	9	0	0	300	300	0	0	7133	schroff	1	-86,328125pct	treu	lachen	schlau	loyal	tolerant	schön	tot	leiden	schroff	lasch	tyrannisch	schlecht	helfen	freundlich	retten	fair	ehrlich	spielen	hindern	fanatisch	rächen	faul	eitel	strafen	0	0	0	0	0	0	0	0	0	0	0	0	0	0	0	0	0	0	0	0	0	0	0	0	0	0	0	0	0	0
2024-05-02	09:53:23	10:07:26	842987	6.6.1	4_exp_EVA_AWA_CON	6	B	A	Rpleas_acq	Oppo	Lpleas	1pleas	conawa_CS2_US3_confidence	conawa1_nomask	8	9	0	0	300	300	0	0	7133	probably	1	-86,328125pct	treu	lachen	schlau	loyal	tolerant	schön	tot	leiden	schroff	lasch	tyrannisch	schlecht	helfen	freundlich	retten	fair	ehrlich	spielen	hindern	fanatisch	rächen	faul	eitel	strafen	0	0	0	0	0	0	0	0	0	0	0	0	0	0	0	0	0	0	0	0	0	0	0	0	0	0	0	0	0	0
2024-05-02	09:53:23	10:07:33	849279	6.6.1	4_exp_EVA_AWA_CON	6	B	A	Rpleas_acq	Oppo	Lpleas	1pleas	conawa_CS1_US1	conawa1_nomask	8	10	0	0	300	300	0	0	5676	tot	1	-86,328125pct	treu	lachen	schlau	loyal	tolerant	schön	tot	leiden	schroff	lasch	tyrannisch	schlecht	helfen	freundlich	retten	fair	ehrlich	spielen	hindern	fanatisch	rächen	faul	eitel	strafen	0	0	0	0	0	0	0	0	0	0	0	0	0	0	0	0	0	0	0	0	0	0	0	0	0	0	0	0	0	0
2024-05-02	09:53:23	10:07:33	849281	6.6.1	4_exp_EVA_AWA_CON	6	B	A	Rpleas_acq	Oppo	Lpleas	1pleas	conawa_CS1_US1_confidence	conawa1_nomask	8	10	0	0	300	300	0	0	5676	sure	1	-86,328125pct	treu	lachen	schlau	loyal	tolerant	schön	tot	leiden	schroff	lasch	tyrannisch	schlecht	helfen	freundlich	retten	fair	ehrlich	spielen	hindern	fanatisch	rächen	faul	eitel	strafen	0	0	0	0	0	0	0	0	0	0	0	0	0	0	0	0	0	0	0	0	0	0	0	0	0	0	0	0	0	0
2024-05-02	09:53:23	10:07:49	866201	6.6.1	4_exp_EVA_AWA_CON	6	B	A	Rpleas_acq	Oppo	Lpleas	1pleas	conawa_CS1_US2	conawa1_nomask	8	11	0	0	300	300	0	0	16310	leiden	1	-86,328125pct	treu	lachen	schlau	loyal	tolerant	schön	tot	leiden	schroff	lasch	tyrannisch	schlecht	helfen	freundlich	retten	fair	ehrlich	spielen	hindern	fanatisch	rächen	faul	eitel	strafen	0	0	0	0	0	0	0	0	0	0	0	0	0	0	0	0	0	0	0	0	0	0	0	0	0	0	0	0	0	0
2024-05-02	09:53:23	10:07:49	866203	6.6.1	4_exp_EVA_AWA_CON	6	B	A	Rpleas_acq	Oppo	Lpleas	1pleas	conawa_CS1_US2_confidence	conawa1_nomask	8	11	0	0	300	300	0	0	16310	guess	1	-86,328125pct	treu	lachen	schlau	loyal	tolerant	schön	tot	leiden	schroff	lasch	tyrannisch	schlecht	helfen	freundlich	retten	fair	ehrlich	spielen	hindern	fanatisch	rächen	faul	eitel	strafen	0	0	0	0	0	0	0	0	0	0	0	0	0	0	0	0	0	0	0	0	0	0	0	0	0	0	0	0	0	0
2024-05-02	09:53:23	10:07:58	874346	6.6.1	4_exp_EVA_AWA_CON	6	B	A	Rpleas_acq	Oppo	Lpleas	1pleas	conawa_CS2_US4	conawa1_nomask	8	12	0	0	300	300	0	0	7533	lasch	1	-86,328125pct	treu	lachen	schlau	loyal	tolerant	schön	tot	leiden	schroff	lasch	tyrannisch	schlecht	helfen	freundlich	retten	fair	ehrlich	spielen	hindern	fanatisch	rächen	faul	eitel	strafen	0	0	0	0	0	0	0	0	0	0	0	0	0	0	0	0	0	0	0	0	0	0	0	0	0	0	0	0	0	0
2024-05-02	09:53:23	10:07:58	874347	6.6.1	4_exp_EVA_AWA_CON	6	B	A	Rpleas_acq	Oppo	Lpleas	1pleas	conawa_CS2_US4_confidence	conawa1_nomask	8	12	0	0	300	300	0	0	7533	probably	1	-86,328125pct	treu	lachen	schlau	loyal	tolerant	schön	tot	leiden	schroff	lasch	tyrannisch	schlecht	helfen	freundlich	retten	fair	ehrlich	spielen	hindern	fanatisch	rächen	faul	eitel	strafen	0	0	0	0	0	0	0	0	0	0	0	0	0	0	0	0	0	0	0	0	0	0	0	0	0	0	0	0	0	0
2024-05-02	09:53:23	10:09:07	944047	6.6.1	4_exp_EVA_AWA_CON	6	B	A	Rpleas_acq	Oppo	Lpleas	1pleas	cond_US_pleas_123_nomask_CS1	condtest_nomask_1	11	1	400	0	300	300	0	0	546	46	1	-86,328125pct	treu	lachen	schlau	loyal	tolerant	schön	tot	leiden	schroff	lasch	tyrannisch	schlecht	helfen	freundlich	retten	fair	ehrlich	spielen	hindern	fanatisch	rächen	faul	eitel	strafen	1	blank2r.bmp	0	1	+	0	1	blank2r.bmp	500	1	BMVZ	500	1	blank2r.bmp	880	1	treu	880	1	!	1232	1	!	-1	0	0	0	0	0	0
2024-05-02	09:53:23	10:09:10	946367	6.6.1	4_exp_EVA_AWA_CON	6	B	A	Rpleas_acq	Oppo	Lpleas	1pleas	cond_new_pleas_456_nomask_CS1	condtest_nomask_1	11	2	400	0	300	300	0	0	545	46	1	-86,328125pct	treu	lachen	schlau	loyal	tolerant	schön	tot	leiden	schroff	lasch	tyrannisch	schlecht	helfen	freundlich	retten	fair	ehrlich	spielen	hindern	fanatisch	rächen	faul	eitel	strafen	1	blank2r.bmp	0	1	+	0	1	blank2r.bmp	500	1	BMVZ	500	1	blank2r.bmp	880	2	ehrlich	880	1	!	1232	1	!	-1	0	0	0	0	0	0
2024-05-02	09:53:23	10:09:12	948727	6.6.1	4_exp_EVA_AWA_CON	6	B	A	Rpleas_acq	Oppo	Lpleas	1pleas	cond_new_unple_456_nomask_CS1	condtest_nomask_1	11	3	400	0	300	300	0	0	583	50	1	-86,328125pct	treu	lachen	schlau	loyal	tolerant	schön	tot	leiden	schroff	lasch	tyrannisch	schlecht	helfen	freundlich	retten	fair	ehrlich	spielen	hindern	fanatisch	rächen	faul	eitel	strafen	1	blank2r.bmp	0	1	+	0	1	blank2r.bmp	500	1	BMVZ	500	1	blank2r.bmp	880	1	faul	880	1	!	1233	1	!	-1	0	0	0	0	0	0
2024-05-02	09:53:23	10:09:14	950937	6.6.1	4_exp_EVA_AWA_CON	6	B	A	Rpleas_acq	Oppo	Lpleas	1pleas	cond_US_pleas_123_nomask_CS2	condtest_nomask_1	11	4	400	1	300	300	0	0	430	46	1	-86,328125pct	treu	lachen	schlau	loyal	tolerant	schön	tot	leiden	schroff	lasch	tyrannisch	schlecht	helfen	freundlich	retten	fair	ehrlich	spielen	hindern	fanatisch	rächen	faul	eitel	strafen	1	blank2r.bmp	0	1	+	0	1	blank2r.bmp	500	1	GKQX	500	1	blank2r.bmp	880	3	lachen	880	1	!	1232	1	!	1332	0	0	0	0	0	0
2024-05-02	09:53:23	10:09:16	953097	6.6.1	4_exp_EVA_AWA_CON	6	B	A	Rpleas_acq	Oppo	Lpleas	1pleas	cond_new_unple_456_nomask_CS2	condtest_nomask_1	11	5	400	1	300	300	0	0	378	50	1	-86,328125pct	treu	lachen	schlau	loyal	tolerant	schön	tot	leiden	schroff	lasch	tyrannisch	schlecht	helfen	freundlich	retten	fair	ehrlich	spielen	hindern	fanatisch	rächen	faul	eitel	strafen	1	blank2r.bmp	0	1	+	0	1	blank2r.bmp	500	1	GKQX	500	1	blank2r.bmp	880	3	eitel	880	1	!	1232	1	!	1280	0	0	0	0	0	0
2024-05-02	09:53:23	10:09:18	955215	6.6.1	4_exp_EVA_AWA_CON	6	B	A	Rpleas_acq	Oppo	Lpleas	1pleas	cond_new_pleas_456_nomask_CS2	condtest_nomask_1	11	6	400	1	300	300	0	0	337	46	1	-86,328125pct	treu	lachen	schlau	loyal	tolerant	schön	tot	leiden	schroff	lasch	tyrannisch	schlecht	helfen	freundlich	retten	fair	ehrlich	spielen	hindern	fanatisch	rächen	faul	eitel	strafen	1	blank2r.bmp	0	1	+	0	1	blank2r.bmp	500	1	GKQX	500	1	blank2r.bmp	880	1	spielen	880	1	!	1232	1	!	1237	0	0	0	0	0	0
2024-05-02	09:53:23	10:09:21	957327	6.6.1	4_exp_EVA_AWA_CON	6	B	A	Rpleas_acq	Oppo	Lpleas	1pleas	cond_US_unple_123_nomask_CS2	condtest_nomask_1	11	7	400	1	300	300	0	0	338	50	1	-86,328125pct	treu	lachen	schlau	loyal	tolerant	schön	tot	leiden	schroff	lasch	tyrannisch	schlecht	helfen	freundlich	retten	fair	ehrlich	spielen	hindern	fanatisch	rächen	faul	eitel	strafen	1	blank2r.bmp	0	1	+	0	1	blank2r.bmp	500	1	GKQX	500	1	blank2r.bmp	880	3	leiden	880	1	!	1232	1	!	1238	0	0	0	0	0	0
2024-05-02	09:53:23	10:09:23	959581	6.6.1	4_exp_EVA_AWA_CON	6	B	A	Rpleas_acq	Oppo	Lpleas	1pleas	cond_US_unple_123_nomask_CS1	condtest_nomask_1	11	8	400	0	300	300	0	0	482	50	1	-86,328125pct	treu	lachen	schlau	loyal	tolerant	schön	tot	leiden	schroff	lasch	tyrannisch	schlecht	helfen	freundlich	retten	fair	ehrlich	spielen	hindern	fanatisch	rächen	faul	eitel	strafen	1	blank2r.bmp	0	1	+	0	1	blank2r.bmp	500	1	BMVZ	500	1	blank2r.bmp	880	2	leiden	880	1	!	1232	1	!	-1	0	0	0	0	0	0
2024-05-02	09:53:23	10:09:35	971913	6.6.1	4_exp_EVA_AWA_CON	6	B	A	Rpleas_acq	Oppo	Lpleas	1pleas	cond_new_pleas_456_nomask_CS2	condtest_nomask_2	12	1	400	1	300	300	0	0	432	46	1	-86,328125pct	treu	lachen	schlau	loyal	tolerant	schön	tot	leiden	schroff	lasch	tyrannisch	schlecht	helfen	freundlich	retten	fair	ehrlich	spielen	hindern	fanatisch	rächen	faul	eitel	strafen	1	blank2r.bmp	0	1	+	0	1	blank2r.bmp	500	1	GKQX	500	1	blank2r.bmp	880	3	ehrlich	880	1	!	1232	1	!	1334	0	0	0	0	0	0
2024-05-02	09:53:23	10:09:37	974145	6.6.1	4_exp_EVA_AWA_CON	6	B	A	Rpleas_acq	Oppo	Lpleas	1pleas	cond_new_pleas_456_nomask_CS2	condtest_nomask_2	12	2	400	1	300	300	0	0	453	50	0	-86,328125pct	treu	lachen	schlau	loyal	tolerant	schön	tot	leiden	schroff	lasch	tyrannisch	schlecht	helfen	freundlich	retten	fair	ehrlich	spielen	hindern	fanatisch	rächen	faul	eitel	strafen	1	blank2r.bmp	0	1	+	0	1	blank2r.bmp	500	1	GKQX	500	1	blank2r.bmp	880	2	fair	880	1	!	1232	1	!	1355	0	0	0	0	0	0
