date	time	currenttime	elapsedtime	build	currentexpt	subject	CS_AB	US_AB	LRpleas_acq	SameOppo	condition_Lpleas	condition_1pleas	trialcode	blockcode	blocknum	trialnum	windowcenter	inwindow	pretrialpause	posttrialpause	trialduration	trialtimeout	latency	response	correct	correctedscore	US_nomask_pleas1	US_nomask_pleas2	US_nomask_pleas3	US_nomask_pleas4	US_nomask_pleas5	US_nomask_pleas6	US_nomask_unple1	US_nomask_unple2	US_nomask_unple3	US_nomask_unple4	US_nomask_unple5	US_nomask_unple6	new_nomask_pleas1	new_nomask_pleas2	new_nomask_pleas3	new_nomask_pleas4	new_nomask_pleas5	new_nomask_pleas6	new_nomask_unple1	new_nomask_unple2	new_nomask_unple3	new_nomask_unple4	new_nomask_unple5	new_nomask_unple6	stimulusnumber1	stimulusitem1	stimulusonset1	stimulusnumber2	stimulusitem2	stimulusonset2	stimulusnumber3	stimulusitem3	stimulusonset3	stimulusnumber4	stimulusitem4	stimulusonset4	stimulusnumber5	stimulusitem5	stimulusonset5	stimulusnumber6	stimulusitem6	stimulusonset6	stimulusnumber7	stimulusitem7	stimulusonset7	stimulusnumber8	stimulusitem8	stimulusonset8	stimulusnumber9	stimulusitem9	stimulusonset9	stimulusnumber10	stimulusitem10	stimulusonset10
2024-06-19	14:43:49	14:45:22	93215	6.6.1	4_exp_EVA_AWA_CON	90	A	B	Rpleas_acq	Oppo	Rpleas	1pleas	acq_US_pleas_nomask	acq1_nomask	1	1	0	0	300	300	0	0	1038	50	1	0	anregung	träumen	engagiert	gesittet	gütig	kuss	ausrottung	töten	engstirnig	geizig	gierig	krise	kreativ	sonnig	vergnügt	genießen	vertrauen	besonnen	krank	sterben	verbissen	gemein	versagen	bange	1	blank2r.bmp	0	1	+	0	1	blank2r.bmp	500	1	CPLW	500	1	blank2r.bmp	880	4	gesittet	880	0	0	0	0	0	0	0	0	0	0	0	0
2024-06-19	14:43:49	14:45:24	95342	6.6.1	4_exp_EVA_AWA_CON	90	A	B	Rpleas_acq	Oppo	Rpleas	1pleas	acq_new_unple_nomask	acq1_nomask	1	2	0	0	300	300	0	0	644	46	1	0	anregung	träumen	engagiert	gesittet	gütig	kuss	ausrottung	töten	engstirnig	geizig	gierig	krise	kreativ	sonnig	vergnügt	genießen	vertrauen	besonnen	krank	sterben	verbissen	gemein	versagen	bange	1	blank2r.bmp	0	1	+	0	1	blank2r.bmp	500	4	B4r.bmp	500	1	blank2r.bmp	880	3	verbissen	880	0	0	0	0	0	0	0	0	0	0	0	0
2024-06-19	14:43:49	14:45:26	97358	6.6.1	4_exp_EVA_AWA_CON	90	A	B	Rpleas_acq	Oppo	Rpleas	1pleas	acq_new_pleas_nomask	acq1_nomask	1	3	0	0	300	300	0	0	529	50	1	0	anregung	träumen	engagiert	gesittet	gütig	kuss	ausrottung	töten	engstirnig	geizig	gierig	krise	kreativ	sonnig	vergnügt	genießen	vertrauen	besonnen	krank	sterben	verbissen	gemein	versagen	bange	1	blank2r.bmp	0	1	+	0	1	blank2r.bmp	500	6	C2r.bmp	500	1	blank2r.bmp	880	2	sonnig	880	0	0	0	0	0	0	0	0	0	0	0	0
2024-06-19	14:43:49	14:45:29	99406	6.6.1	4_exp_EVA_AWA_CON	90	A	B	Rpleas_acq	Oppo	Rpleas	1pleas	acq_US_pleas_nomask	acq1_nomask	1	4	0	0	300	300	0	0	566	50	1	0	anregung	träumen	engagiert	gesittet	gütig	kuss	ausrottung	töten	engstirnig	geizig	gierig	krise	kreativ	sonnig	vergnügt	genießen	vertrauen	besonnen	krank	sterben	verbissen	gemein	versagen	bange	1	blank2r.bmp	0	1	+	0	1	blank2r.bmp	500	1	CPLW	500	1	blank2r.bmp	880	1	anregung	880	0	0	0	0	0	0	0	0	0	0	0	0
2024-06-19	14:43:49	14:45:31	101550	6.6.1	4_exp_EVA_AWA_CON	90	A	B	Rpleas_acq	Oppo	Rpleas	1pleas	acq_US_unple_nomask	acq1_nomask	1	5	0	0	300	300	0	0	658	46	1	0	anregung	träumen	engagiert	gesittet	gütig	kuss	ausrottung	töten	engstirnig	geizig	gierig	krise	kreativ	sonnig	vergnügt	genießen	vertrauen	besonnen	krank	sterben	verbissen	gemein	versagen	bange	1	blank2r.bmp	0	1	+	0	1	blank2r.bmp	500	1	DHJF	500	1	blank2r.bmp	880	6	krise	880	0	0	0	0	0	0	0	0	0	0	0	0
2024-06-19	14:43:49	14:45:33	103550	6.6.1	4_exp_EVA_AWA_CON	90	A	B	Rpleas_acq	Oppo	Rpleas	1pleas	acq_US_unple_nomask	acq1_nomask	1	6	0	0	300	300	0	0	517	46	1	0	anregung	träumen	engagiert	gesittet	gütig	kuss	ausrottung	töten	engstirnig	geizig	gierig	krise	kreativ	sonnig	vergnügt	genießen	vertrauen	besonnen	krank	sterben	verbissen	gemein	versagen	bange	1	blank2r.bmp	0	1	+	0	1	blank2r.bmp	500	1	DHJF	500	1	blank2r.bmp	880	2	töten	880	0	0	0	0	0	0	0	0	0	0	0	0
2024-06-19	14:43:49	14:45:35	105575	6.6.1	4_exp_EVA_AWA_CON	90	A	B	Rpleas_acq	Oppo	Rpleas	1pleas	acq_new_pleas_nomask	acq1_nomask	1	7	0	0	300	300	0	0	540	50	1	0	anregung	träumen	engagiert	gesittet	gütig	kuss	ausrottung	töten	engstirnig	geizig	gierig	krise	kreativ	sonnig	vergnügt	genießen	vertrauen	besonnen	krank	sterben	verbissen	gemein	versagen	bange	1	blank2r.bmp	0	1	+	0	1	blank2r.bmp	500	5	C1r.bmp	500	1	blank2r.bmp	880	5	vertrauen	880	0	0	0	0	0	0	0	0	0	0	0	0
2024-06-19	14:43:49	14:45:37	107614	6.6.1	4_exp_EVA_AWA_CON	90	A	B	Rpleas_acq	Oppo	Rpleas	1pleas	acq_US_unple_nomask	acq1_nomask	1	8	0	0	300	300	0	0	558	46	1	0	anregung	träumen	engagiert	gesittet	gütig	kuss	ausrottung	töten	engstirnig	geizig	gierig	krise	kreativ	sonnig	vergnügt	genießen	vertrauen	besonnen	krank	sterben	verbissen	gemein	versagen	bange	1	blank2r.bmp	0	1	+	0	1	blank2r.bmp	500	1	DHJF	500	1	blank2r.bmp	880	3	engstirnig	880	0	0	0	0	0	0	0	0	0	0	0	0
2024-06-19	14:43:49	14:45:39	109590	6.6.1	4_exp_EVA_AWA_CON	90	A	B	Rpleas_acq	Oppo	Rpleas	1pleas	acq_new_pleas_nomask	acq1_nomask	1	9	0	0	300	300	0	0	493	50	1	0	anregung	träumen	engagiert	gesittet	gütig	kuss	ausrottung	töten	engstirnig	geizig	gierig	krise	kreativ	sonnig	vergnügt	genießen	vertrauen	besonnen	krank	sterben	verbissen	gemein	versagen	bange	1	blank2r.bmp	0	1	+	0	1	blank2r.bmp	500	2	B2r.bmp	500	1	blank2r.bmp	880	4	genießen	880	0	0	0	0	0	0	0	0	0	0	0	0
2024-06-19	14:43:49	14:45:41	111559	6.6.1	4_exp_EVA_AWA_CON	90	A	B	Rpleas_acq	Oppo	Rpleas	1pleas	acq_US_pleas_nomask	acq1_nomask	1	10	0	0	300	300	0	0	480	50	1	0	anregung	träumen	engagiert	gesittet	gütig	kuss	ausrottung	töten	engstirnig	geizig	gierig	krise	kreativ	sonnig	vergnügt	genießen	vertrauen	besonnen	krank	sterben	verbissen	gemein	versagen	bange	1	blank2r.bmp	0	1	+	0	1	blank2r.bmp	500	1	CPLW	500	1	blank2r.bmp	880	6	kuss	880	0	0	0	0	0	0	0	0	0	0	0	0
2024-06-19	14:43:49	14:45:43	113654	6.6.1	4_exp_EVA_AWA_CON	90	A	B	Rpleas_acq	Oppo	Rpleas	1pleas	acq_new_unple_nomask	acq1_nomask	1	11	0	0	300	300	0	0	614	46	1	0	anregung	träumen	engagiert	gesittet	gütig	kuss	ausrottung	töten	engstirnig	geizig	gierig	krise	kreativ	sonnig	vergnügt	genießen	vertrauen	besonnen	krank	sterben	verbissen	gemein	versagen	bange	1	blank2r.bmp	0	1	+	0	1	blank2r.bmp	500	3	B3r.bmp	500	1	blank2r.bmp	880	6	bange	880	0	0	0	0	0	0	0	0	0	0	0	0
2024-06-19	14:43:49	14:45:45	115614	6.6.1	4_exp_EVA_AWA_CON	90	A	B	Rpleas_acq	Oppo	Rpleas	1pleas	acq_new_unple_nomask	acq1_nomask	1	12	0	0	300	300	0	0	473	46	1	0	anregung	träumen	engagiert	gesittet	gütig	kuss	ausrottung	töten	engstirnig	geizig	gierig	krise	kreativ	sonnig	vergnügt	genießen	vertrauen	besonnen	krank	sterben	verbissen	gemein	versagen	bange	1	blank2r.bmp	0	1	+	0	1	blank2r.bmp	500	1	B1r.bmp	500	1	blank2r.bmp	880	2	sterben	880	0	0	0	0	0	0	0	0	0	0	0	0
2024-06-19	14:43:49	14:45:47	117566	6.6.1	4_exp_EVA_AWA_CON	90	A	B	Rpleas_acq	Oppo	Rpleas	1pleas	acq_new_pleas_nomask	acq1_nomask	1	13	0	0	300	300	0	0	464	50	1	0	anregung	träumen	engagiert	gesittet	gütig	kuss	ausrottung	töten	engstirnig	geizig	gierig	krise	kreativ	sonnig	vergnügt	genießen	vertrauen	besonnen	krank	sterben	verbissen	gemein	versagen	bange	1	blank2r.bmp	0	1	+	0	1	blank2r.bmp	500	8	C4r.bmp	500	1	blank2r.bmp	880	6	besonnen	880	0	0	0	0	0	0	0	0	0	0	0	0
2024-06-19	14:43:49	14:45:49	119535	6.6.1	4_exp_EVA_AWA_CON	90	A	B	Rpleas_acq	Oppo	Rpleas	1pleas	acq_new_pleas_nomask	acq1_nomask	1	14	0	0	300	300	0	0	481	50	1	0	anregung	träumen	engagiert	gesittet	gütig	kuss	ausrottung	töten	engstirnig	geizig	gierig	krise	kreativ	sonnig	vergnügt	genießen	vertrauen	besonnen	krank	sterben	verbissen	gemein	versagen	bange	1	blank2r.bmp	0	1	+	0	1	blank2r.bmp	500	7	C3r.bmp	500	1	blank2r.bmp	880	1	kreativ	880	0	0	0	0	0	0	0	0	0	0	0	0
2024-06-19	14:43:49	14:45:51	121535	6.6.1	4_exp_EVA_AWA_CON	90	A	B	Rpleas_acq	Oppo	Rpleas	1pleas	acq_new_unple_nomask	acq1_nomask	1	15	0	0	300	300	0	0	519	46	1	0	anregung	träumen	engagiert	gesittet	gütig	kuss	ausrottung	töten	engstirnig	geizig	gierig	krise	kreativ	sonnig	vergnügt	genießen	vertrauen	besonnen	krank	sterben	verbissen	gemein	versagen	bange	1	blank2r.bmp	0	1	+	0	1	blank2r.bmp	500	2	B2r.bmp	500	1	blank2r.bmp	880	5	versagen	880	0	0	0	0	0	0	0	0	0	0	0	0
2024-06-19	14:43:49	14:45:53	123518	6.6.1	4_exp_EVA_AWA_CON	90	A	B	Rpleas_acq	Oppo	Rpleas	1pleas	acq_US_pleas_nomask	acq1_nomask	1	16	0	0	300	300	0	0	502	50	1	0	anregung	träumen	engagiert	gesittet	gütig	kuss	ausrottung	töten	engstirnig	geizig	gierig	krise	kreativ	sonnig	vergnügt	genießen	vertrauen	besonnen	krank	sterben	verbissen	gemein	versagen	bange	1	blank2r.bmp	0	1	+	0	1	blank2r.bmp	500	1	CPLW	500	1	blank2r.bmp	880	5	gütig	880	0	0	0	0	0	0	0	0	0	0	0	0
2024-06-19	14:43:49	14:45:55	125510	6.6.1	4_exp_EVA_AWA_CON	90	A	B	Rpleas_acq	Oppo	Rpleas	1pleas	acq_US_unple_nomask	acq1_nomask	1	17	0	0	300	300	0	0	503	46	1	0	anregung	träumen	engagiert	gesittet	gütig	kuss	ausrottung	töten	engstirnig	geizig	gierig	krise	kreativ	sonnig	vergnügt	genießen	vertrauen	besonnen	krank	sterben	verbissen	gemein	versagen	bange	1	blank2r.bmp	0	1	+	0	1	blank2r.bmp	500	1	DHJF	500	1	blank2r.bmp	880	4	geizig	880	0	0	0	0	0	0	0	0	0	0	0	0
2024-06-19	14:43:49	14:45:57	127430	6.6.1	4_exp_EVA_AWA_CON	90	A	B	Rpleas_acq	Oppo	Rpleas	1pleas	acq_US_unple_nomask	acq1_nomask	1	18	0	0	300	300	0	0	431	46	1	0	anregung	träumen	engagiert	gesittet	gütig	kuss	ausrottung	töten	engstirnig	geizig	gierig	krise	kreativ	sonnig	vergnügt	genießen	vertrauen	besonnen	krank	sterben	verbissen	gemein	versagen	bange	1	blank2r.bmp	0	1	+	0	1	blank2r.bmp	500	1	DHJF	500	1	blank2r.bmp	880	5	gierig	880	0	0	0	0	0	0	0	0	0	0	0	0
2024-06-19	14:43:49	14:45:59	129471	6.6.1	4_exp_EVA_AWA_CON	90	A	B	Rpleas_acq	Oppo	Rpleas	1pleas	acq_US_pleas_nomask	acq1_nomask	1	19	0	0	300	300	0	0	560	50	1	0	anregung	träumen	engagiert	gesittet	gütig	kuss	ausrottung	töten	engstirnig	geizig	gierig	krise	kreativ	sonnig	vergnügt	genießen	vertrauen	besonnen	krank	sterben	verbissen	gemein	versagen	bange	1	blank2r.bmp	0	1	+	0	1	blank2r.bmp	500	1	CPLW	500	1	blank2r.bmp	880	2	träumen	880	0	0	0	0	0	0	0	0	0	0	0	0
2024-06-19	14:43:49	14:46:01	131423	6.6.1	4_exp_EVA_AWA_CON	90	A	B	Rpleas_acq	Oppo	Rpleas	1pleas	acq_new_unple_nomask	acq1_nomask	1	20	0	0	300	300	0	0	471	46	1	0	anregung	träumen	engagiert	gesittet	gütig	kuss	ausrottung	töten	engstirnig	geizig	gierig	krise	kreativ	sonnig	vergnügt	genießen	vertrauen	besonnen	krank	sterben	verbissen	gemein	versagen	bange	1	blank2r.bmp	0	1	+	0	1	blank2r.bmp	500	8	C4r.bmp	500	1	blank2r.bmp	880	4	gemein	880	0	0	0	0	0	0	0	0	0	0	0	0
2024-06-19	14:43:49	14:46:03	133430	6.6.1	4_exp_EVA_AWA_CON	90	A	B	Rpleas_acq	Oppo	Rpleas	1pleas	acq_new_unple_nomask	acq1_nomask	1	21	0	0	300	300	0	0	528	46	1	0	anregung	träumen	engagiert	gesittet	gütig	kuss	ausrottung	töten	engstirnig	geizig	gierig	krise	kreativ	sonnig	vergnügt	genießen	vertrauen	besonnen	krank	sterben	verbissen	gemein	versagen	bange	1	blank2r.bmp	0	1	+	0	1	blank2r.bmp	500	4	B4r.bmp	500	1	blank2r.bmp	880	1	krank	880	0	0	0	0	0	0	0	0	0	0	0	0
2024-06-19	14:43:49	14:46:05	135415	6.6.1	4_exp_EVA_AWA_CON	90	A	B	Rpleas_acq	Oppo	Rpleas	1pleas	acq_new_pleas_nomask	acq1_nomask	1	22	0	0	300	300	0	0	500	50	1	0	anregung	träumen	engagiert	gesittet	gütig	kuss	ausrottung	töten	engstirnig	geizig	gierig	krise	kreativ	sonnig	vergnügt	genießen	vertrauen	besonnen	krank	sterben	verbissen	gemein	versagen	bange	1	blank2r.bmp	0	1	+	0	1	blank2r.bmp	500	6	C2r.bmp	500	1	blank2r.bmp	880	3	vergnügt	880	0	0	0	0	0	0	0	0	0	0	0	0
2024-06-19	14:43:49	14:46:06	137350	6.6.1	4_exp_EVA_AWA_CON	90	A	B	Rpleas_acq	Oppo	Rpleas	1pleas	acq_US_pleas_nomask	acq1_nomask	1	23	0	0	300	300	0	0	455	50	1	0	anregung	träumen	engagiert	gesittet	gütig	kuss	ausrottung	töten	engstirnig	geizig	gierig	krise	kreativ	sonnig	vergnügt	genießen	vertrauen	besonnen	krank	sterben	verbissen	gemein	versagen	bange	1	blank2r.bmp	0	1	+	0	1	blank2r.bmp	500	1	CPLW	500	1	blank2r.bmp	880	3	engagiert	880	0	0	0	0	0	0	0	0	0	0	0	0
2024-06-19	14:43:49	14:46:08	139310	6.6.1	4_exp_EVA_AWA_CON	90	A	B	Rpleas_acq	Oppo	Rpleas	1pleas	acq_US_unple_nomask	acq1_nomask	1	24	0	0	300	300	0	0	474	46	1	0	anregung	träumen	engagiert	gesittet	gütig	kuss	ausrottung	töten	engstirnig	geizig	gierig	krise	kreativ	sonnig	vergnügt	genießen	vertrauen	besonnen	krank	sterben	verbissen	gemein	versagen	bange	1	blank2r.bmp	0	1	+	0	1	blank2r.bmp	500	1	DHJF	500	1	blank2r.bmp	880	1	ausrottung	880	0	0	0	0	0	0	0	0	0	0	0	0
2024-06-19	14:43:49	14:46:10	141222	6.6.1	4_exp_EVA_AWA_CON	90	A	B	Rpleas_acq	Oppo	Rpleas	1pleas	acq_US_unple_nomask	acq1_nomask	1	25	0	0	300	300	0	0	425	46	1	0	anregung	träumen	engagiert	gesittet	gütig	kuss	ausrottung	töten	engstirnig	geizig	gierig	krise	kreativ	sonnig	vergnügt	genießen	vertrauen	besonnen	krank	sterben	verbissen	gemein	versagen	bange	1	blank2r.bmp	0	1	+	0	1	blank2r.bmp	500	1	DHJF	500	1	blank2r.bmp	880	1	ausrottung	880	0	0	0	0	0	0	0	0	0	0	0	0
2024-06-19	14:43:49	14:46:12	143206	6.6.1	4_exp_EVA_AWA_CON	90	A	B	Rpleas_acq	Oppo	Rpleas	1pleas	acq_new_unple_nomask	acq1_nomask	1	26	0	0	300	300	0	0	497	46	1	0	anregung	träumen	engagiert	gesittet	gütig	kuss	ausrottung	töten	engstirnig	geizig	gierig	krise	kreativ	sonnig	vergnügt	genießen	vertrauen	besonnen	krank	sterben	verbissen	gemein	versagen	bange	1	blank2r.bmp	0	1	+	0	1	blank2r.bmp	500	3	B3r.bmp	500	1	blank2r.bmp	880	6	bange	880	0	0	0	0	0	0	0	0	0	0	0	0
2024-06-19	14:43:49	14:46:14	145151	6.6.1	4_exp_EVA_AWA_CON	90	A	B	Rpleas_acq	Oppo	Rpleas	1pleas	acq_new_pleas_nomask	acq1_nomask	1	27	0	0	300	300	0	0	460	50	1	0	anregung	träumen	engagiert	gesittet	gütig	kuss	ausrottung	töten	engstirnig	geizig	gierig	krise	kreativ	sonnig	vergnügt	genießen	vertrauen	besonnen	krank	sterben	verbissen	gemein	versagen	bange	1	blank2r.bmp	0	1	+	0	1	blank2r.bmp	500	1	B1r.bmp	500	1	blank2r.bmp	880	2	sonnig	880	0	0	0	0	0	0	0	0	0	0	0	0
2024-06-19	14:43:49	14:46:16	147158	6.6.1	4_exp_EVA_AWA_CON	90	A	B	Rpleas_acq	Oppo	Rpleas	1pleas	acq_US_unple_nomask	acq1_nomask	1	28	0	0	300	300	0	0	527	46	1	0	anregung	träumen	engagiert	gesittet	gütig	kuss	ausrottung	töten	engstirnig	geizig	gierig	krise	kreativ	sonnig	vergnügt	genießen	vertrauen	besonnen	krank	sterben	verbissen	gemein	versagen	bange	1	blank2r.bmp	0	1	+	0	1	blank2r.bmp	500	1	DHJF	500	1	blank2r.bmp	880	3	engstirnig	880	0	0	0	0	0	0	0	0	0	0	0	0
2024-06-19	14:43:49	14:46:18	149174	6.6.1	4_exp_EVA_AWA_CON	90	A	B	Rpleas_acq	Oppo	Rpleas	1pleas	acq_US_pleas_nomask	acq1_nomask	1	29	0	0	300	300	0	0	531	50	1	0	anregung	träumen	engagiert	gesittet	gütig	kuss	ausrottung	töten	engstirnig	geizig	gierig	krise	kreativ	sonnig	vergnügt	genießen	vertrauen	besonnen	krank	sterben	verbissen	gemein	versagen	bange	1	blank2r.bmp	0	1	+	0	1	blank2r.bmp	500	1	CPLW	500	1	blank2r.bmp	880	1	anregung	880	0	0	0	0	0	0	0	0	0	0	0	0
2024-06-19	14:43:49	14:46:20	151158	6.6.1	4_exp_EVA_AWA_CON	90	A	B	Rpleas_acq	Oppo	Rpleas	1pleas	acq_new_pleas_nomask	acq1_nomask	1	30	0	0	300	300	0	0	494	50	1	0	anregung	träumen	engagiert	gesittet	gütig	kuss	ausrottung	töten	engstirnig	geizig	gierig	krise	kreativ	sonnig	vergnügt	genießen	vertrauen	besonnen	krank	sterben	verbissen	gemein	versagen	bange	1	blank2r.bmp	0	1	+	0	1	blank2r.bmp	500	5	C1r.bmp	500	1	blank2r.bmp	880	6	besonnen	880	0	0	0	0	0	0	0	0	0	0	0	0
2024-06-19	14:43:49	14:46:22	153102	6.6.1	4_exp_EVA_AWA_CON	90	A	B	Rpleas_acq	Oppo	Rpleas	1pleas	acq_US_pleas_nomask	acq1_nomask	1	31	0	0	300	300	0	0	457	50	1	0	anregung	träumen	engagiert	gesittet	gütig	kuss	ausrottung	töten	engstirnig	geizig	gierig	krise	kreativ	sonnig	vergnügt	genießen	vertrauen	besonnen	krank	sterben	verbissen	gemein	versagen	bange	1	blank2r.bmp	0	1	+	0	1	blank2r.bmp	500	1	CPLW	500	1	blank2r.bmp	880	5	gütig	880	0	0	0	0	0	0	0	0	0	0	0	0
2024-06-19	14:43:49	14:46:24	155022	6.6.1	4_exp_EVA_AWA_CON	90	A	B	Rpleas_acq	Oppo	Rpleas	1pleas	acq_new_pleas_nomask	acq1_nomask	1	32	0	0	300	300	0	0	436	50	1	0	anregung	träumen	engagiert	gesittet	gütig	kuss	ausrottung	töten	engstirnig	geizig	gierig	krise	kreativ	sonnig	vergnügt	genießen	vertrauen	besonnen	krank	sterben	verbissen	gemein	versagen	bange	1	blank2r.bmp	0	1	+	0	1	blank2r.bmp	500	7	C3r.bmp	500	1	blank2r.bmp	880	4	genießen	880	0	0	0	0	0	0	0	0	0	0	0	0
2024-06-19	14:43:49	14:46:26	156982	6.6.1	4_exp_EVA_AWA_CON	90	A	B	Rpleas_acq	Oppo	Rpleas	1pleas	acq_US_pleas_nomask	acq1_nomask	1	33	0	0	300	300	0	0	474	50	1	0	anregung	träumen	engagiert	gesittet	gütig	kuss	ausrottung	töten	engstirnig	geizig	gierig	krise	kreativ	sonnig	vergnügt	genießen	vertrauen	besonnen	krank	sterben	verbissen	gemein	versagen	bange	1	blank2r.bmp	0	1	+	0	1	blank2r.bmp	500	1	CPLW	500	1	blank2r.bmp	880	6	kuss	880	0	0	0	0	0	0	0	0	0	0	0	0
2024-06-19	14:43:49	14:46:28	158910	6.6.1	4_exp_EVA_AWA_CON	90	A	B	Rpleas_acq	Oppo	Rpleas	1pleas	acq_new_unple_nomask	acq1_nomask	1	34	0	0	300	300	0	0	441	46	1	0	anregung	träumen	engagiert	gesittet	gütig	kuss	ausrottung	töten	engstirnig	geizig	gierig	krise	kreativ	sonnig	vergnügt	genießen	vertrauen	besonnen	krank	sterben	verbissen	gemein	versagen	bange	1	blank2r.bmp	0	1	+	0	1	blank2r.bmp	500	2	B2r.bmp	500	1	blank2r.bmp	880	3	verbissen	880	0	0	0	0	0	0	0	0	0	0	0	0
2024-06-19	14:43:49	14:46:30	160814	6.6.1	4_exp_EVA_AWA_CON	90	A	B	Rpleas_acq	Oppo	Rpleas	1pleas	acq_new_unple_nomask	acq1_nomask	1	35	0	0	300	300	0	0	424	46	1	0	anregung	träumen	engagiert	gesittet	gütig	kuss	ausrottung	töten	engstirnig	geizig	gierig	krise	kreativ	sonnig	vergnügt	genießen	vertrauen	besonnen	krank	sterben	verbissen	gemein	versagen	bange	1	blank2r.bmp	0	1	+	0	1	blank2r.bmp	500	3	B3r.bmp	500	1	blank2r.bmp	880	2	sterben	880	0	0	0	0	0	0	0	0	0	0	0	0
2024-06-19	14:43:49	14:46:32	162790	6.6.1	4_exp_EVA_AWA_CON	90	A	B	Rpleas_acq	Oppo	Rpleas	1pleas	acq_US_unple_nomask	acq1_nomask	1	36	0	0	300	300	0	0	489	46	1	0	anregung	träumen	engagiert	gesittet	gütig	kuss	ausrottung	töten	engstirnig	geizig	gierig	krise	kreativ	sonnig	vergnügt	genießen	vertrauen	besonnen	krank	sterben	verbissen	gemein	versagen	bange	1	blank2r.bmp	0	1	+	0	1	blank2r.bmp	500	1	DHJF	500	1	blank2r.bmp	880	6	krise	880	0	0	0	0	0	0	0	0	0	0	0	0
2024-06-19	14:43:49	14:47:05	195576	6.6.1	4_exp_EVA_AWA_CON	90	A	B	Rpleas_acq	Oppo	Rpleas	1pleas	acq_US_unple_nomask	acq2_nomask	2	1	480	0	300	300	0	0	874	46	1	0	anregung	träumen	engagiert	gesittet	gütig	kuss	ausrottung	töten	engstirnig	geizig	gierig	krise	kreativ	sonnig	vergnügt	genießen	vertrauen	besonnen	krank	sterben	verbissen	gemein	versagen	bange	1	blank2r.bmp	0	1	+	0	1	blank2r.bmp	500	1	DHJF	500	1	blank2r.bmp	880	4	geizig	880	1	!	1312	1	!	-1	0	0	0	0	0	0
2024-06-19	14:43:49	14:47:07	197907	6.6.1	4_exp_EVA_AWA_CON	90	A	B	Rpleas_acq	Oppo	Rpleas	1pleas	acq_new_pleas_nomask	acq2_nomask	2	2	480	1	300	300	0	0	550	50	1	0	anregung	träumen	engagiert	gesittet	gütig	kuss	ausrottung	töten	engstirnig	geizig	gierig	krise	kreativ	sonnig	vergnügt	genießen	vertrauen	besonnen	krank	sterben	verbissen	gemein	versagen	bange	1	blank2r.bmp	0	1	+	0	1	blank2r.bmp	500	1	B1r.bmp	500	1	blank2r.bmp	880	1	kreativ	880	1	!	1313	1	!	1452	0	0	0	0	0	0
2024-06-19	14:43:49	14:47:09	200337	6.6.1	4_exp_EVA_AWA_CON	90	A	B	Rpleas_acq	Oppo	Rpleas	1pleas	acq_US_unple_nomask	acq2_nomask	2	3	480	0	300	300	0	0	651	46	1	0	anregung	träumen	engagiert	gesittet	gütig	kuss	ausrottung	töten	engstirnig	geizig	gierig	krise	kreativ	sonnig	vergnügt	genießen	vertrauen	besonnen	krank	sterben	verbissen	gemein	versagen	bange	1	blank2r.bmp	0	1	+	0	1	blank2r.bmp	500	1	DHJF	500	1	blank2r.bmp	880	2	töten	880	1	!	1313	1	!	-1	0	0	0	0	0	0
2024-06-19	14:43:49	14:47:12	202530	6.6.1	4_exp_EVA_AWA_CON	90	A	B	Rpleas_acq	Oppo	Rpleas	1pleas	acq_US_unple_nomask	acq2_nomask	2	4	480	1	300	300	0	0	411	46	1	0	anregung	träumen	engagiert	gesittet	gütig	kuss	ausrottung	töten	engstirnig	geizig	gierig	krise	kreativ	sonnig	vergnügt	genießen	vertrauen	besonnen	krank	sterben	verbissen	gemein	versagen	bange	1	blank2r.bmp	0	1	+	0	1	blank2r.bmp	500	1	DHJF	500	1	blank2r.bmp	880	5	gierig	880	1	!	1313	1	!	1313	0	0	0	0	0	0
2024-06-19	14:43:49	14:47:14	204810	6.6.1	4_exp_EVA_AWA_CON	90	A	B	Rpleas_acq	Oppo	Rpleas	1pleas	acq_US_pleas_nomask	acq2_nomask	2	5	480	1	300	300	0	0	500	50	1	0	anregung	träumen	engagiert	gesittet	gütig	kuss	ausrottung	töten	engstirnig	geizig	gierig	krise	kreativ	sonnig	vergnügt	genießen	vertrauen	besonnen	krank	sterben	verbissen	gemein	versagen	bange	1	blank2r.bmp	0	1	+	0	1	blank2r.bmp	500	1	CPLW	500	1	blank2r.bmp	880	2	träumen	880	1	!	1312	1	!	1401	0	0	0	0	0	0
2024-06-19	14:43:49	14:47:16	207219	6.6.1	4_exp_EVA_AWA_CON	90	A	B	Rpleas_acq	Oppo	Rpleas	1pleas	acq_US_pleas_nomask	acq2_nomask	2	6	480	1	300	300	0	0	426	46	0	0	anregung	träumen	engagiert	gesittet	gütig	kuss	ausrottung	töten	engstirnig	geizig	gierig	krise	kreativ	sonnig	vergnügt	genießen	vertrauen	besonnen	krank	sterben	verbissen	gemein	versagen	bange	1	blank2r.bmp	0	1	+	0	1	blank2r.bmp	500	1	CPLW	500	1	blank2r.bmp	880	4	gesittet	880	1	FEHLER	1619	1	!	1313	1	!	1328	0	0	0
2024-06-19	14:43:49	14:47:18	209368	6.6.1	4_exp_EVA_AWA_CON	90	A	B	Rpleas_acq	Oppo	Rpleas	1pleas	acq_new_pleas_nomask	acq2_nomask	2	7	480	0	300	300	0	0	577	50	1	0	anregung	träumen	engagiert	gesittet	gütig	kuss	ausrottung	töten	engstirnig	geizig	gierig	krise	kreativ	sonnig	vergnügt	genießen	vertrauen	besonnen	krank	sterben	verbissen	gemein	versagen	bange	1	blank2r.bmp	0	1	+	0	1	blank2r.bmp	500	6	C2r.bmp	500	1	blank2r.bmp	880	5	vertrauen	880	1	!	1313	1	!	-1	0	0	0	0	0	0
2024-06-19	14:43:49	14:47:21	211642	6.6.1	4_exp_EVA_AWA_CON	90	A	B	Rpleas_acq	Oppo	Rpleas	1pleas	acq_new_unple_nomask	acq2_nomask	2	8	480	1	300	300	0	0	497	46	1	0	anregung	träumen	engagiert	gesittet	gütig	kuss	ausrottung	töten	engstirnig	geizig	gierig	krise	kreativ	sonnig	vergnügt	genießen	vertrauen	besonnen	krank	sterben	verbissen	gemein	versagen	bange	1	blank2r.bmp	0	1	+	0	1	blank2r.bmp	500	7	C3r.bmp	500	1	blank2r.bmp	880	4	gemein	880	1	!	1313	1	!	1399	0	0	0	0	0	0
2024-06-19	14:43:49	14:47:23	214056	6.6.1	4_exp_EVA_AWA_CON	90	A	B	Rpleas_acq	Oppo	Rpleas	1pleas	acq_new_pleas_nomask	acq2_nomask	2	9	480	0	300	300	0	0	642	50	1	0	anregung	träumen	engagiert	gesittet	gütig	kuss	ausrottung	töten	engstirnig	geizig	gierig	krise	kreativ	sonnig	vergnügt	genießen	vertrauen	besonnen	krank	sterben	verbissen	gemein	versagen	bange	1	blank2r.bmp	0	1	+	0	1	blank2r.bmp	500	8	C4r.bmp	500	1	blank2r.bmp	880	3	vergnügt	880	1	!	1312	1	!	-1	0	0	0	0	0	0
2024-06-19	14:43:49	14:47:26	216457	6.6.1	4_exp_EVA_AWA_CON	90	A	B	Rpleas_acq	Oppo	Rpleas	1pleas	acq_new_unple_nomask	acq2_nomask	2	10	480	0	300	300	0	0	620	46	1	0	anregung	träumen	engagiert	gesittet	gütig	kuss	ausrottung	töten	engstirnig	geizig	gierig	krise	kreativ	sonnig	vergnügt	genießen	vertrauen	besonnen	krank	sterben	verbissen	gemein	versagen	bange	1	blank2r.bmp	0	1	+	0	1	blank2r.bmp	500	5	C1r.bmp	500	1	blank2r.bmp	880	5	versagen	880	1	!	1312	1	!	-1	0	0	0	0	0	0
2024-06-19	14:43:49	14:47:28	218722	6.6.1	4_exp_EVA_AWA_CON	90	A	B	Rpleas_acq	Oppo	Rpleas	1pleas	acq_US_pleas_nomask	acq2_nomask	2	11	480	1	300	300	0	0	483	50	1	0	anregung	träumen	engagiert	gesittet	gütig	kuss	ausrottung	töten	engstirnig	geizig	gierig	krise	kreativ	sonnig	vergnügt	genießen	vertrauen	besonnen	krank	sterben	verbissen	gemein	versagen	bange	1	blank2r.bmp	0	1	+	0	1	blank2r.bmp	500	1	CPLW	500	1	blank2r.bmp	880	3	engagiert	880	1	!	1312	1	!	1384	0	0	0	0	0	0
2024-06-19	14:43:49	14:47:30	220938	6.6.1	4_exp_EVA_AWA_CON	90	A	B	Rpleas_acq	Oppo	Rpleas	1pleas	acq_new_unple_nomask	acq2_nomask	2	12	480	1	300	300	0	0	437	46	1	0	anregung	träumen	engagiert	gesittet	gütig	kuss	ausrottung	töten	engstirnig	geizig	gierig	krise	kreativ	sonnig	vergnügt	genießen	vertrauen	besonnen	krank	sterben	verbissen	gemein	versagen	bange	1	blank2r.bmp	0	1	+	0	1	blank2r.bmp	500	4	B4r.bmp	500	1	blank2r.bmp	880	1	krank	880	1	!	1312	1	!	1338	0	0	0	0	0	0
2024-06-19	14:43:49	14:47:32	223234	6.6.1	4_exp_EVA_AWA_CON	90	A	B	Rpleas_acq	Oppo	Rpleas	1pleas	acq_new_pleas_nomask	acq2_nomask	2	13	480	1	300	300	0	0	522	50	1	0	anregung	träumen	engagiert	gesittet	gütig	kuss	ausrottung	töten	engstirnig	geizig	gierig	krise	kreativ	sonnig	vergnügt	genießen	vertrauen	besonnen	krank	sterben	verbissen	gemein	versagen	bange	1	blank2r.bmp	0	1	+	0	1	blank2r.bmp	500	4	B4r.bmp	500	1	blank2r.bmp	880	1	kreativ	880	1	!	1313	1	!	1423	0	0	0	0	0	0
2024-06-19	14:43:49	14:47:35	225563	6.6.1	4_exp_EVA_AWA_CON	90	A	B	Rpleas_acq	Oppo	Rpleas	1pleas	acq_US_pleas_nomask	acq2_nomask	2	14	480	1	300	300	0	0	548	50	1	0	anregung	träumen	engagiert	gesittet	gütig	kuss	ausrottung	töten	engstirnig	geizig	gierig	krise	kreativ	sonnig	vergnügt	genießen	vertrauen	besonnen	krank	sterben	verbissen	gemein	versagen	bange	1	blank2r.bmp	0	1	+	0	1	blank2r.bmp	500	1	CPLW	500	1	blank2r.bmp	880	2	träumen	880	1	!	1313	1	!	1450	0	0	0	0	0	0
2024-06-19	14:43:49	14:47:37	227928	6.6.1	4_exp_EVA_AWA_CON	90	A	B	Rpleas_acq	Oppo	Rpleas	1pleas	acq_new_unple_nomask	acq2_nomask	2	15	480	0	300	300	0	0	585	46	1	0	anregung	träumen	engagiert	gesittet	gütig	kuss	ausrottung	töten	engstirnig	geizig	gierig	krise	kreativ	sonnig	vergnügt	genießen	vertrauen	besonnen	krank	sterben	verbissen	gemein	versagen	bange	1	blank2r.bmp	0	1	+	0	1	blank2r.bmp	500	8	C4r.bmp	500	1	blank2r.bmp	880	6	bange	880	1	!	1313	1	!	-1	0	0	0	0	0	0
2024-06-19	14:43:49	14:47:39	230154	6.6.1	4_exp_EVA_AWA_CON	90	A	B	Rpleas_acq	Oppo	Rpleas	1pleas	acq_US_pleas_nomask	acq2_nomask	2	16	480	1	300	300	0	0	447	50	1	0	anregung	träumen	engagiert	gesittet	gütig	kuss	ausrottung	töten	engstirnig	geizig	gierig	krise	kreativ	sonnig	vergnügt	genießen	vertrauen	besonnen	krank	sterben	verbissen	gemein	versagen	bange	1	blank2r.bmp	0	1	+	0	1	blank2r.bmp	500	1	CPLW	500	1	blank2r.bmp	880	6	kuss	880	1	!	1312	1	!	1348	0	0	0	0	0	0
2024-06-19	14:43:49	14:47:42	232386	6.6.1	4_exp_EVA_AWA_CON	90	A	B	Rpleas_acq	Oppo	Rpleas	1pleas	acq_new_unple_nomask	acq2_nomask	2	17	480	1	300	300	0	0	448	46	1	0	anregung	träumen	engagiert	gesittet	gütig	kuss	ausrottung	töten	engstirnig	geizig	gierig	krise	kreativ	sonnig	vergnügt	genießen	vertrauen	besonnen	krank	sterben	verbissen	gemein	versagen	bange	1	blank2r.bmp	0	1	+	0	1	blank2r.bmp	500	3	B3r.bmp	500	1	blank2r.bmp	880	2	sterben	880	1	!	1313	1	!	1349	0	0	0	0	0	0
2024-06-19	14:43:49	14:47:44	234610	6.6.1	4_exp_EVA_AWA_CON	90	A	B	Rpleas_acq	Oppo	Rpleas	1pleas	acq_new_pleas_nomask	acq2_nomask	2	18	480	1	300	300	0	0	440	50	1	0	anregung	träumen	engagiert	gesittet	gütig	kuss	ausrottung	töten	engstirnig	geizig	gierig	krise	kreativ	sonnig	vergnügt	genießen	vertrauen	besonnen	krank	sterben	verbissen	gemein	versagen	bange	1	blank2r.bmp	0	1	+	0	1	blank2r.bmp	500	1	B1r.bmp	500	1	blank2r.bmp	880	2	sonnig	880	1	!	1312	1	!	1342	0	0	0	0	0	0
2024-06-19	14:43:49	14:47:46	236834	6.6.1	4_exp_EVA_AWA_CON	90	A	B	Rpleas_acq	Oppo	Rpleas	1pleas	acq_US_unple_nomask	acq2_nomask	2	19	480	1	300	300	0	0	443	46	1	0	anregung	träumen	engagiert	gesittet	gütig	kuss	ausrottung	töten	engstirnig	geizig	gierig	krise	kreativ	sonnig	vergnügt	genießen	vertrauen	besonnen	krank	sterben	verbissen	gemein	versagen	bange	1	blank2r.bmp	0	1	+	0	1	blank2r.bmp	500	1	DHJF	500	1	blank2r.bmp	880	6	krise	880	1	!	1313	1	!	1344	0	0	0	0	0	0
2024-06-19	14:43:49	14:47:48	239252	6.6.1	4_exp_EVA_AWA_CON	90	A	B	Rpleas_acq	Oppo	Rpleas	1pleas	acq_new_unple_nomask	acq2_nomask	2	20	480	1	300	300	0	0	437	50	0	0	anregung	träumen	engagiert	gesittet	gütig	kuss	ausrottung	töten	engstirnig	geizig	gierig	krise	kreativ	sonnig	vergnügt	genießen	vertrauen	besonnen	krank	sterben	verbissen	gemein	versagen	bange	1	blank2r.bmp	0	1	+	0	1	blank2r.bmp	500	6	C2r.bmp	500	1	blank2r.bmp	880	5	versagen	880	1	FEHLER	1631	1	!	1312	1	!	1339	0	0	0
2024-06-19	14:43:49	14:47:51	241440	6.6.1	4_exp_EVA_AWA_CON	90	A	B	Rpleas_acq	Oppo	Rpleas	1pleas	acq_US_unple_nomask	acq2_nomask	2	21	480	0	300	300	0	0	618	46	1	0	anregung	träumen	engagiert	gesittet	gütig	kuss	ausrottung	töten	engstirnig	geizig	gierig	krise	kreativ	sonnig	vergnügt	genießen	vertrauen	besonnen	krank	sterben	verbissen	gemein	versagen	bange	1	blank2r.bmp	0	1	+	0	1	blank2r.bmp	500	1	DHJF	500	1	blank2r.bmp	880	5	gierig	880	1	!	1313	1	!	-1	0	0	0	0	0	0
2024-06-19	14:43:49	14:47:53	243658	6.6.1	4_exp_EVA_AWA_CON	90	A	B	Rpleas_acq	Oppo	Rpleas	1pleas	acq_new_pleas_nomask	acq2_nomask	2	22	480	1	300	300	0	0	442	50	1	0	anregung	träumen	engagiert	gesittet	gütig	kuss	ausrottung	töten	engstirnig	geizig	gierig	krise	kreativ	sonnig	vergnügt	genießen	vertrauen	besonnen	krank	sterben	verbissen	gemein	versagen	bange	1	blank2r.bmp	0	1	+	0	1	blank2r.bmp	500	7	C3r.bmp	500	1	blank2r.bmp	880	5	vertrauen	880	1	!	1313	1	!	1344	0	0	0	0	0	0
2024-06-19	14:43:49	14:47:55	245962	6.6.1	4_exp_EVA_AWA_CON	90	A	B	Rpleas_acq	Oppo	Rpleas	1pleas	acq_US_pleas_nomask	acq2_nomask	2	23	480	1	300	300	0	0	525	50	1	0	anregung	träumen	engagiert	gesittet	gütig	kuss	ausrottung	töten	engstirnig	geizig	gierig	krise	kreativ	sonnig	vergnügt	genießen	vertrauen	besonnen	krank	sterben	verbissen	gemein	versagen	bange	1	blank2r.bmp	0	1	+	0	1	blank2r.bmp	500	1	CPLW	500	1	blank2r.bmp	880	1	anregung	880	1	!	1313	1	!	1426	0	0	0	0	0	0
2024-06-19	14:43:49	14:47:57	248144	6.6.1	4_exp_EVA_AWA_CON	90	A	B	Rpleas_acq	Oppo	Rpleas	1pleas	acq_US_unple_nomask	acq2_nomask	2	24	480	0	300	300	0	0	407	46	1	0	anregung	träumen	engagiert	gesittet	gütig	kuss	ausrottung	töten	engstirnig	geizig	gierig	krise	kreativ	sonnig	vergnügt	genießen	vertrauen	besonnen	krank	sterben	verbissen	gemein	versagen	bange	1	blank2r.bmp	0	1	+	0	1	blank2r.bmp	500	1	DHJF	500	1	blank2r.bmp	880	1	ausrottung	880	1	!	-1	1	!	-1	0	0	0	0	0	0
2024-06-19	14:43:49	14:48:00	250426	6.6.1	4_exp_EVA_AWA_CON	90	A	B	Rpleas_acq	Oppo	Rpleas	1pleas	acq_US_unple_nomask	acq2_nomask	2	25	480	1	300	300	0	0	506	46	1	0	anregung	träumen	engagiert	gesittet	gütig	kuss	ausrottung	töten	engstirnig	geizig	gierig	krise	kreativ	sonnig	vergnügt	genießen	vertrauen	besonnen	krank	sterben	verbissen	gemein	versagen	bange	1	blank2r.bmp	0	1	+	0	1	blank2r.bmp	500	1	DHJF	500	1	blank2r.bmp	880	3	engstirnig	880	1	!	1313	1	!	1407	0	0	0	0	0	0
2024-06-19	14:43:49	14:48:02	252714	6.6.1	4_exp_EVA_AWA_CON	90	A	B	Rpleas_acq	Oppo	Rpleas	1pleas	acq_US_pleas_nomask	acq2_nomask	2	26	480	1	300	300	0	0	513	50	1	0	anregung	träumen	engagiert	gesittet	gütig	kuss	ausrottung	töten	engstirnig	geizig	gierig	krise	kreativ	sonnig	vergnügt	genießen	vertrauen	besonnen	krank	sterben	verbissen	gemein	versagen	bange	1	blank2r.bmp	0	1	+	0	1	blank2r.bmp	500	1	CPLW	500	1	blank2r.bmp	880	5	gütig	880	1	!	1312	1	!	1414	0	0	0	0	0	0
2024-06-19	14:43:49	14:48:04	254986	6.6.1	4_exp_EVA_AWA_CON	90	A	B	Rpleas_acq	Oppo	Rpleas	1pleas	acq_new_pleas_nomask	acq2_nomask	2	27	480	1	300	300	0	0	493	50	1	0	anregung	träumen	engagiert	gesittet	gütig	kuss	ausrottung	töten	engstirnig	geizig	gierig	krise	kreativ	sonnig	vergnügt	genießen	vertrauen	besonnen	krank	sterben	verbissen	gemein	versagen	bange	1	blank2r.bmp	0	1	+	0	1	blank2r.bmp	500	5	C1r.bmp	500	1	blank2r.bmp	880	3	vergnügt	880	1	!	1312	1	!	1394	0	0	0	0	0	0
2024-06-19	14:43:49	14:48:06	257194	6.6.1	4_exp_EVA_AWA_CON	90	A	B	Rpleas_acq	Oppo	Rpleas	1pleas	acq_US_unple_nomask	acq2_nomask	2	28	480	1	300	300	0	0	430	46	1	0	anregung	träumen	engagiert	gesittet	gütig	kuss	ausrottung	töten	engstirnig	geizig	gierig	krise	kreativ	sonnig	vergnügt	genießen	vertrauen	besonnen	krank	sterben	verbissen	gemein	versagen	bange	1	blank2r.bmp	0	1	+	0	1	blank2r.bmp	500	1	DHJF	500	1	blank2r.bmp	880	2	töten	880	1	!	1313	1	!	1331	0	0	0	0	0	0
2024-06-19	14:43:49	14:48:09	259568	6.6.1	4_exp_EVA_AWA_CON	90	A	B	Rpleas_acq	Oppo	Rpleas	1pleas	acq_new_unple_nomask	acq2_nomask	2	29	480	0	300	300	0	0	594	46	1	0	anregung	träumen	engagiert	gesittet	gütig	kuss	ausrottung	töten	engstirnig	geizig	gierig	krise	kreativ	sonnig	vergnügt	genießen	vertrauen	besonnen	krank	sterben	verbissen	gemein	versagen	bange	1	blank2r.bmp	0	1	+	0	1	blank2r.bmp	500	2	B2r.bmp	500	1	blank2r.bmp	880	3	verbissen	880	1	!	1313	1	!	-1	0	0	0	0	0	0
2024-06-19	14:43:49	14:48:11	261956	6.6.1	4_exp_EVA_AWA_CON	90	A	B	Rpleas_acq	Oppo	Rpleas	1pleas	acq_new_unple_nomask	acq2_nomask	2	30	480	0	300	300	0	0	407	50	0	0	anregung	träumen	engagiert	gesittet	gütig	kuss	ausrottung	töten	engstirnig	geizig	gierig	krise	kreativ	sonnig	vergnügt	genießen	vertrauen	besonnen	krank	sterben	verbissen	gemein	versagen	bange	1	blank2r.bmp	0	1	+	0	1	blank2r.bmp	500	6	C2r.bmp	500	1	blank2r.bmp	880	4	gemein	880	1	FEHLER	1600	1	!	-1	1	!	-1	0	0	0
2024-06-19	14:43:49	14:48:13	264120	6.6.1	4_exp_EVA_AWA_CON	90	A	B	Rpleas_acq	Oppo	Rpleas	1pleas	acq_US_pleas_nomask	acq2_nomask	2	31	480	0	300	300	0	0	593	50	1	0	anregung	träumen	engagiert	gesittet	gütig	kuss	ausrottung	töten	engstirnig	geizig	gierig	krise	kreativ	sonnig	vergnügt	genießen	vertrauen	besonnen	krank	sterben	verbissen	gemein	versagen	bange	1	blank2r.bmp	0	1	+	0	1	blank2r.bmp	500	1	CPLW	500	1	blank2r.bmp	880	4	gesittet	880	1	!	1313	1	!	-1	0	0	0	0	0	0
2024-06-19	14:43:49	14:48:15	266371	6.6.1	4_exp_EVA_AWA_CON	90	A	B	Rpleas_acq	Oppo	Rpleas	1pleas	acq_new_unple_nomask	acq2_nomask	2	32	480	1	300	300	0	0	470	46	1	0	anregung	träumen	engagiert	gesittet	gütig	kuss	ausrottung	töten	engstirnig	geizig	gierig	krise	kreativ	sonnig	vergnügt	genießen	vertrauen	besonnen	krank	sterben	verbissen	gemein	versagen	bange	1	blank2r.bmp	0	1	+	0	1	blank2r.bmp	500	4	B4r.bmp	500	1	blank2r.bmp	880	1	krank	880	1	!	1313	1	!	1372	0	0	0	0	0	0
2024-06-19	14:43:49	14:48:18	268594	6.6.1	4_exp_EVA_AWA_CON	90	A	B	Rpleas_acq	Oppo	Rpleas	1pleas	acq_US_unple_nomask	acq2_nomask	2	33	480	1	300	300	0	0	442	46	1	0	anregung	träumen	engagiert	gesittet	gütig	kuss	ausrottung	töten	engstirnig	geizig	gierig	krise	kreativ	sonnig	vergnügt	genießen	vertrauen	besonnen	krank	sterben	verbissen	gemein	versagen	bange	1	blank2r.bmp	0	1	+	0	1	blank2r.bmp	500	1	DHJF	500	1	blank2r.bmp	880	4	geizig	880	1	!	1313	1	!	1343	0	0	0	0	0	0
2024-06-19	14:43:49	14:48:20	270890	6.6.1	4_exp_EVA_AWA_CON	90	A	B	Rpleas_acq	Oppo	Rpleas	1pleas	acq_new_pleas_nomask	acq2_nomask	2	34	480	1	300	300	0	0	517	50	1	0	anregung	träumen	engagiert	gesittet	gütig	kuss	ausrottung	töten	engstirnig	geizig	gierig	krise	kreativ	sonnig	vergnügt	genießen	vertrauen	besonnen	krank	sterben	verbissen	gemein	versagen	bange	1	blank2r.bmp	0	1	+	0	1	blank2r.bmp	500	7	C3r.bmp	500	1	blank2r.bmp	880	4	genießen	880	1	!	1313	1	!	1418	0	0	0	0	0	0
2024-06-19	14:43:49	14:48:22	273215	6.6.1	4_exp_EVA_AWA_CON	90	A	B	Rpleas_acq	Oppo	Rpleas	1pleas	acq_new_pleas_nomask	acq2_nomask	2	35	480	0	300	300	0	0	554	50	1	0	anregung	träumen	engagiert	gesittet	gütig	kuss	ausrottung	töten	engstirnig	geizig	gierig	krise	kreativ	sonnig	vergnügt	genießen	vertrauen	besonnen	krank	sterben	verbissen	gemein	versagen	bange	1	blank2r.bmp	0	1	+	0	1	blank2r.bmp	500	3	B3r.bmp	500	1	blank2r.bmp	880	6	besonnen	880	1	!	1313	1	!	-1	0	0	0	0	0	0
2024-06-19	14:43:49	14:48:25	275530	6.6.1	4_exp_EVA_AWA_CON	90	A	B	Rpleas_acq	Oppo	Rpleas	1pleas	acq_US_pleas_nomask	acq2_nomask	2	36	480	1	300	300	0	0	534	50	1	0	anregung	träumen	engagiert	gesittet	gütig	kuss	ausrottung	töten	engstirnig	geizig	gierig	krise	kreativ	sonnig	vergnügt	genießen	vertrauen	besonnen	krank	sterben	verbissen	gemein	versagen	bange	1	blank2r.bmp	0	1	+	0	1	blank2r.bmp	500	1	CPLW	500	1	blank2r.bmp	880	3	engagiert	880	1	!	1313	1	!	1435	0	0	0	0	0	0
2024-06-19	14:43:49	14:48:40	290714	6.6.1	4_exp_EVA_AWA_CON	90	A	B	Rpleas_acq	Oppo	Rpleas	1pleas	acq_US_pleas_nomask	acq3_nomask	3	1	453	1	300	300	0	0	508	50	1	0	anregung	träumen	engagiert	gesittet	gütig	kuss	ausrottung	töten	engstirnig	geizig	gierig	krise	kreativ	sonnig	vergnügt	genießen	vertrauen	besonnen	krank	sterben	verbissen	gemein	versagen	bange	1	blank2r.bmp	0	1	+	0	1	blank2r.bmp	500	1	CPLW	500	1	blank2r.bmp	880	5	gütig	880	1	!	1293	1	!	1409	0	0	0	0	0	0
2024-06-19	14:43:49	14:48:42	292970	6.6.1	4_exp_EVA_AWA_CON	90	A	B	Rpleas_acq	Oppo	Rpleas	1pleas	acq_US_unple_nomask	acq3_nomask	3	2	453	1	300	300	0	0	472	46	1	0	anregung	träumen	engagiert	gesittet	gütig	kuss	ausrottung	töten	engstirnig	geizig	gierig	krise	kreativ	sonnig	vergnügt	genießen	vertrauen	besonnen	krank	sterben	verbissen	gemein	versagen	bange	1	blank2r.bmp	0	1	+	0	1	blank2r.bmp	500	1	DHJF	500	1	blank2r.bmp	880	1	ausrottung	880	1	!	1293	1	!	1374	0	0	0	0	0	0
2024-06-19	14:43:49	14:48:44	295162	6.6.1	4_exp_EVA_AWA_CON	90	A	B	Rpleas_acq	Oppo	Rpleas	1pleas	acq_US_unple_nomask	acq3_nomask	3	3	453	1	300	300	0	0	413	46	1	0	anregung	träumen	engagiert	gesittet	gütig	kuss	ausrottung	töten	engstirnig	geizig	gierig	krise	kreativ	sonnig	vergnügt	genießen	vertrauen	besonnen	krank	sterben	verbissen	gemein	versagen	bange	1	blank2r.bmp	0	1	+	0	1	blank2r.bmp	500	1	DHJF	500	1	blank2r.bmp	880	6	krise	880	1	!	1293	1	!	1314	0	0	0	0	0	0
2024-06-19	14:43:49	14:48:47	297450	6.6.1	4_exp_EVA_AWA_CON	90	A	B	Rpleas_acq	Oppo	Rpleas	1pleas	acq_US_pleas_nomask	acq3_nomask	3	4	453	1	300	300	0	0	509	50	1	0	anregung	träumen	engagiert	gesittet	gütig	kuss	ausrottung	töten	engstirnig	geizig	gierig	krise	kreativ	sonnig	vergnügt	genießen	vertrauen	besonnen	krank	sterben	verbissen	gemein	versagen	bange	1	blank2r.bmp	0	1	+	0	1	blank2r.bmp	500	1	CPLW	500	1	blank2r.bmp	880	6	kuss	880	1	!	1292	1	!	1411	0	0	0	0	0	0
2024-06-19	14:43:49	14:48:49	299714	6.6.1	4_exp_EVA_AWA_CON	90	A	B	Rpleas_acq	Oppo	Rpleas	1pleas	acq_US_unple_nomask	acq3_nomask	3	5	453	1	300	300	0	0	482	46	1	0	anregung	träumen	engagiert	gesittet	gütig	kuss	ausrottung	töten	engstirnig	geizig	gierig	krise	kreativ	sonnig	vergnügt	genießen	vertrauen	besonnen	krank	sterben	verbissen	gemein	versagen	bange	1	blank2r.bmp	0	1	+	0	1	blank2r.bmp	500	1	DHJF	500	1	blank2r.bmp	880	2	töten	880	1	!	1292	1	!	1383	0	0	0	0	0	0
2024-06-19	14:43:49	14:48:51	302048	6.6.1	4_exp_EVA_AWA_CON	90	A	B	Rpleas_acq	Oppo	Rpleas	1pleas	acq_US_unple_nomask	acq3_nomask	3	6	453	0	300	300	0	0	557	46	1	0	anregung	träumen	engagiert	gesittet	gütig	kuss	ausrottung	töten	engstirnig	geizig	gierig	krise	kreativ	sonnig	vergnügt	genießen	vertrauen	besonnen	krank	sterben	verbissen	gemein	versagen	bange	1	blank2r.bmp	0	1	+	0	1	blank2r.bmp	500	1	DHJF	500	1	blank2r.bmp	880	4	geizig	880	1	!	1293	1	!	-1	0	0	0	0	0	0
2024-06-19	14:43:49	14:48:53	304208	6.6.1	4_exp_EVA_AWA_CON	90	A	B	Rpleas_acq	Oppo	Rpleas	1pleas	acq_US_unple_nomask	acq3_nomask	3	7	453	0	300	300	0	0	385	46	1	0	anregung	träumen	engagiert	gesittet	gütig	kuss	ausrottung	töten	engstirnig	geizig	gierig	krise	kreativ	sonnig	vergnügt	genießen	vertrauen	besonnen	krank	sterben	verbissen	gemein	versagen	bange	1	blank2r.bmp	0	1	+	0	1	blank2r.bmp	500	1	DHJF	500	1	blank2r.bmp	880	3	engstirnig	880	1	!	-1	1	!	-1	0	0	0	0	0	0
2024-06-19	14:43:49	14:48:56	306528	6.6.1	4_exp_EVA_AWA_CON	90	A	B	Rpleas_acq	Oppo	Rpleas	1pleas	acq_US_unple_nomask	acq3_nomask	3	8	453	0	300	300	0	0	544	46	1	0	anregung	träumen	engagiert	gesittet	gütig	kuss	ausrottung	töten	engstirnig	geizig	gierig	krise	kreativ	sonnig	vergnügt	genießen	vertrauen	besonnen	krank	sterben	verbissen	gemein	versagen	bange	1	blank2r.bmp	0	1	+	0	1	blank2r.bmp	500	1	DHJF	500	1	blank2r.bmp	880	5	gierig	880	1	!	1292	1	!	-1	0	0	0	0	0	0
2024-06-19	14:43:49	14:48:58	308754	6.6.1	4_exp_EVA_AWA_CON	90	A	B	Rpleas_acq	Oppo	Rpleas	1pleas	acq_US_pleas_nomask	acq3_nomask	3	9	453	1	300	300	0	0	446	50	1	0	anregung	träumen	engagiert	gesittet	gütig	kuss	ausrottung	töten	engstirnig	geizig	gierig	krise	kreativ	sonnig	vergnügt	genießen	vertrauen	besonnen	krank	sterben	verbissen	gemein	versagen	bange	1	blank2r.bmp	0	1	+	0	1	blank2r.bmp	500	1	CPLW	500	1	blank2r.bmp	880	1	anregung	880	1	!	1293	1	!	1347	0	0	0	0	0	0
2024-06-19	14:43:49	14:49:00	311054	6.6.1	4_exp_EVA_AWA_CON	90	A	B	Rpleas_acq	Oppo	Rpleas	1pleas	acq_US_pleas_nomask	acq3_nomask	3	10	453	0	300	300	0	0	529	50	1	0	anregung	träumen	engagiert	gesittet	gütig	kuss	ausrottung	töten	engstirnig	geizig	gierig	krise	kreativ	sonnig	vergnügt	genießen	vertrauen	besonnen	krank	sterben	verbissen	gemein	versagen	bange	1	blank2r.bmp	0	1	+	0	1	blank2r.bmp	500	1	CPLW	500	1	blank2r.bmp	880	4	gesittet	880	1	!	1293	1	!	-1	0	0	0	0	0	0
2024-06-19	14:43:49	14:49:02	313216	6.6.1	4_exp_EVA_AWA_CON	90	A	B	Rpleas_acq	Oppo	Rpleas	1pleas	acq_US_pleas_nomask	acq3_nomask	3	11	453	0	300	300	0	0	387	50	1	0	anregung	träumen	engagiert	gesittet	gütig	kuss	ausrottung	töten	engstirnig	geizig	gierig	krise	kreativ	sonnig	vergnügt	genießen	vertrauen	besonnen	krank	sterben	verbissen	gemein	versagen	bange	1	blank2r.bmp	0	1	+	0	1	blank2r.bmp	500	1	CPLW	500	1	blank2r.bmp	880	3	engagiert	880	1	!	-1	1	!	-1	0	0	0	0	0	0
2024-06-19	14:43:49	14:49:05	315490	6.6.1	4_exp_EVA_AWA_CON	90	A	B	Rpleas_acq	Oppo	Rpleas	1pleas	acq_US_pleas_nomask	acq3_nomask	3	12	453	1	300	300	0	0	498	50	1	0	anregung	träumen	engagiert	gesittet	gütig	kuss	ausrottung	töten	engstirnig	geizig	gierig	krise	kreativ	sonnig	vergnügt	genießen	vertrauen	besonnen	krank	sterben	verbissen	gemein	versagen	bange	1	blank2r.bmp	0	1	+	0	1	blank2r.bmp	500	1	CPLW	500	1	blank2r.bmp	880	2	träumen	880	1	!	1293	1	!	1399	0	0	0	0	0	0
2024-06-19	14:43:49	14:49:07	317746	6.6.1	4_exp_EVA_AWA_CON	90	A	B	Rpleas_acq	Oppo	Rpleas	1pleas	acq_US_pleas_nomask	acq3_nomask	3	13	453	1	300	300	0	0	472	50	1	0	anregung	träumen	engagiert	gesittet	gütig	kuss	ausrottung	töten	engstirnig	geizig	gierig	krise	kreativ	sonnig	vergnügt	genießen	vertrauen	besonnen	krank	sterben	verbissen	gemein	versagen	bange	1	blank2r.bmp	0	1	+	0	1	blank2r.bmp	500	1	CPLW	500	1	blank2r.bmp	880	5	gütig	880	1	!	1292	1	!	1374	0	0	0	0	0	0
2024-06-19	14:43:49	14:49:09	319994	6.6.1	4_exp_EVA_AWA_CON	90	A	B	Rpleas_acq	Oppo	Rpleas	1pleas	acq_US_unple_nomask	acq3_nomask	3	14	453	1	300	300	0	0	469	46	1	0	anregung	träumen	engagiert	gesittet	gütig	kuss	ausrottung	töten	engstirnig	geizig	gierig	krise	kreativ	sonnig	vergnügt	genießen	vertrauen	besonnen	krank	sterben	verbissen	gemein	versagen	bange	1	blank2r.bmp	0	1	+	0	1	blank2r.bmp	500	1	DHJF	500	1	blank2r.bmp	880	1	ausrottung	880	1	!	1292	1	!	1370	0	0	0	0	0	0
2024-06-19	14:43:49	14:49:11	322226	6.6.1	4_exp_EVA_AWA_CON	90	A	B	Rpleas_acq	Oppo	Rpleas	1pleas	acq_US_unple_nomask	acq3_nomask	3	15	453	1	300	300	0	0	449	46	1	0	anregung	träumen	engagiert	gesittet	gütig	kuss	ausrottung	töten	engstirnig	geizig	gierig	krise	kreativ	sonnig	vergnügt	genießen	vertrauen	besonnen	krank	sterben	verbissen	gemein	versagen	bange	1	blank2r.bmp	0	1	+	0	1	blank2r.bmp	500	1	DHJF	500	1	blank2r.bmp	880	2	töten	880	1	!	1292	1	!	1351	0	0	0	0	0	0
2024-06-19	14:43:49	14:49:14	324522	6.6.1	4_exp_EVA_AWA_CON	90	A	B	Rpleas_acq	Oppo	Rpleas	1pleas	acq_US_unple_nomask	acq3_nomask	3	16	453	1	300	300	0	0	514	46	1	0	anregung	träumen	engagiert	gesittet	gütig	kuss	ausrottung	töten	engstirnig	geizig	gierig	krise	kreativ	sonnig	vergnügt	genießen	vertrauen	besonnen	krank	sterben	verbissen	gemein	versagen	bange	1	blank2r.bmp	0	1	+	0	1	blank2r.bmp	500	1	DHJF	500	1	blank2r.bmp	880	3	engstirnig	880	1	!	1293	1	!	1415	0	0	0	0	0	0
2024-06-19	14:43:49	14:49:16	326746	6.6.1	4_exp_EVA_AWA_CON	90	A	B	Rpleas_acq	Oppo	Rpleas	1pleas	acq_US_pleas_nomask	acq3_nomask	3	17	453	1	300	300	0	0	446	50	1	0	anregung	träumen	engagiert	gesittet	gütig	kuss	ausrottung	töten	engstirnig	geizig	gierig	krise	kreativ	sonnig	vergnügt	genießen	vertrauen	besonnen	krank	sterben	verbissen	gemein	versagen	bange	1	blank2r.bmp	0	1	+	0	1	blank2r.bmp	500	1	CPLW	500	1	blank2r.bmp	880	3	engagiert	880	1	!	1292	1	!	1348	0	0	0	0	0	0
2024-06-19	14:43:49	14:49:18	328946	6.6.1	4_exp_EVA_AWA_CON	90	A	B	Rpleas_acq	Oppo	Rpleas	1pleas	acq_US_pleas_nomask	acq3_nomask	3	18	453	1	300	300	0	0	425	50	1	0	anregung	träumen	engagiert	gesittet	gütig	kuss	ausrottung	töten	engstirnig	geizig	gierig	krise	kreativ	sonnig	vergnügt	genießen	vertrauen	besonnen	krank	sterben	verbissen	gemein	versagen	bange	1	blank2r.bmp	0	1	+	0	1	blank2r.bmp	500	1	CPLW	500	1	blank2r.bmp	880	6	kuss	880	1	!	1293	1	!	1326	0	0	0	0	0	0
2024-06-19	14:43:49	14:49:20	331234	6.6.1	4_exp_EVA_AWA_CON	90	A	B	Rpleas_acq	Oppo	Rpleas	1pleas	acq_US_pleas_nomask	acq3_nomask	3	19	453	1	300	300	0	0	512	50	1	0	anregung	träumen	engagiert	gesittet	gütig	kuss	ausrottung	töten	engstirnig	geizig	gierig	krise	kreativ	sonnig	vergnügt	genießen	vertrauen	besonnen	krank	sterben	verbissen	gemein	versagen	bange	1	blank2r.bmp	0	1	+	0	1	blank2r.bmp	500	1	CPLW	500	1	blank2r.bmp	880	1	anregung	880	1	!	1293	1	!	1413	0	0	0	0	0	0
2024-06-19	14:43:49	14:49:23	333542	6.6.1	4_exp_EVA_AWA_CON	90	A	B	Rpleas_acq	Oppo	Rpleas	1pleas	acq_US_unple_nomask	acq3_nomask	3	20	453	0	300	300	0	0	532	46	1	0	anregung	träumen	engagiert	gesittet	gütig	kuss	ausrottung	töten	engstirnig	geizig	gierig	krise	kreativ	sonnig	vergnügt	genießen	vertrauen	besonnen	krank	sterben	verbissen	gemein	versagen	bange	1	blank2r.bmp	0	1	+	0	1	blank2r.bmp	500	1	DHJF	500	1	blank2r.bmp	880	4	geizig	880	1	!	1293	1	!	-1	0	0	0	0	0	0
2024-06-19	14:43:49	14:49:25	335810	6.6.1	4_exp_EVA_AWA_CON	90	A	B	Rpleas_acq	Oppo	Rpleas	1pleas	acq_US_unple_nomask	acq3_nomask	3	21	453	1	300	300	0	0	485	46	1	0	anregung	träumen	engagiert	gesittet	gütig	kuss	ausrottung	töten	engstirnig	geizig	gierig	krise	kreativ	sonnig	vergnügt	genießen	vertrauen	besonnen	krank	sterben	verbissen	gemein	versagen	bange	1	blank2r.bmp	0	1	+	0	1	blank2r.bmp	500	1	DHJF	500	1	blank2r.bmp	880	6	krise	880	1	!	1292	1	!	1386	0	0	0	0	0	0
2024-06-19	14:43:49	14:49:27	338308	6.6.1	4_exp_EVA_AWA_CON	90	A	B	Rpleas_acq	Oppo	Rpleas	1pleas	acq_US_unple_nomask	acq3_nomask	3	22	453	1	300	300	0	0	519	50	0	0	anregung	träumen	engagiert	gesittet	gütig	kuss	ausrottung	töten	engstirnig	geizig	gierig	krise	kreativ	sonnig	vergnügt	genießen	vertrauen	besonnen	krank	sterben	verbissen	gemein	versagen	bange	1	blank2r.bmp	0	1	+	0	1	blank2r.bmp	500	1	DHJF	500	1	blank2r.bmp	880	5	gierig	880	1	FEHLER	1713	1	!	1292	1	!	1420	0	0	0
2024-06-19	14:43:49	14:49:29	340346	6.6.1	4_exp_EVA_AWA_CON	90	A	B	Rpleas_acq	Oppo	Rpleas	1pleas	acq_US_pleas_nomask	acq3_nomask	3	23	453	1	300	300	0	0	458	50	1	0	anregung	träumen	engagiert	gesittet	gütig	kuss	ausrottung	töten	engstirnig	geizig	gierig	krise	kreativ	sonnig	vergnügt	genießen	vertrauen	besonnen	krank	sterben	verbissen	gemein	versagen	bange	1	blank2r.bmp	0	1	+	0	1	blank2r.bmp	500	1	CPLW	500	1	blank2r.bmp	880	4	gesittet	880	1	!	1292	1	!	1359	0	0	0	0	0	0
2024-06-19	14:43:49	14:49:32	342689	6.6.1	4_exp_EVA_AWA_CON	90	A	B	Rpleas_acq	Oppo	Rpleas	1pleas	acq_US_pleas_nomask	acq3_nomask	3	24	453	0	300	300	0	0	560	50	1	0	anregung	träumen	engagiert	gesittet	gütig	kuss	ausrottung	töten	engstirnig	geizig	gierig	krise	kreativ	sonnig	vergnügt	genießen	vertrauen	besonnen	krank	sterben	verbissen	gemein	versagen	bange	1	blank2r.bmp	0	1	+	0	1	blank2r.bmp	500	1	CPLW	500	1	blank2r.bmp	880	2	träumen	880	1	!	1293	1	!	-1	0	0	0	0	0	0
2024-06-19	14:43:49	14:49:34	344991	6.6.1	4_exp_EVA_AWA_CON	90	A	B	Rpleas_acq	Oppo	Rpleas	1pleas	acq_US_unple_nomask	acq3_nomask	3	25	453	0	300	300	0	0	524	46	1	0	anregung	träumen	engagiert	gesittet	gütig	kuss	ausrottung	töten	engstirnig	geizig	gierig	krise	kreativ	sonnig	vergnügt	genießen	vertrauen	besonnen	krank	sterben	verbissen	gemein	versagen	bange	1	blank2r.bmp	0	1	+	0	1	blank2r.bmp	500	1	DHJF	500	1	blank2r.bmp	880	3	engstirnig	880	1	!	1292	1	!	-1	0	0	0	0	0	0
2024-06-19	14:43:49	14:49:36	347324	6.6.1	4_exp_EVA_AWA_CON	90	A	B	Rpleas_acq	Oppo	Rpleas	1pleas	acq_US_pleas_nomask	acq3_nomask	3	26	453	0	300	300	0	0	349	46	0	0	anregung	träumen	engagiert	gesittet	gütig	kuss	ausrottung	töten	engstirnig	geizig	gierig	krise	kreativ	sonnig	vergnügt	genießen	vertrauen	besonnen	krank	sterben	verbissen	gemein	versagen	bange	1	blank2r.bmp	0	1	+	0	1	blank2r.bmp	500	1	CPLW	500	1	blank2r.bmp	880	3	engagiert	880	1	FEHLER	1543	1	!	-1	1	!	-1	0	0	0
2024-06-19	14:43:49	14:49:38	349330	6.6.1	4_exp_EVA_AWA_CON	90	A	B	Rpleas_acq	Oppo	Rpleas	1pleas	acq_US_unple_nomask	acq3_nomask	3	27	453	1	300	300	0	0	436	46	1	0	anregung	träumen	engagiert	gesittet	gütig	kuss	ausrottung	töten	engstirnig	geizig	gierig	krise	kreativ	sonnig	vergnügt	genießen	vertrauen	besonnen	krank	sterben	verbissen	gemein	versagen	bange	1	blank2r.bmp	0	1	+	0	1	blank2r.bmp	500	1	DHJF	500	1	blank2r.bmp	880	4	geizig	880	1	!	1293	1	!	1337	0	0	0	0	0	0
2024-06-19	14:43:49	14:49:41	351665	6.6.1	4_exp_EVA_AWA_CON	90	A	B	Rpleas_acq	Oppo	Rpleas	1pleas	acq_US_pleas_nomask	acq3_nomask	3	28	453	0	300	300	0	0	560	50	1	0	anregung	träumen	engagiert	gesittet	gütig	kuss	ausrottung	töten	engstirnig	geizig	gierig	krise	kreativ	sonnig	vergnügt	genießen	vertrauen	besonnen	krank	sterben	verbissen	gemein	versagen	bange	1	blank2r.bmp	0	1	+	0	1	blank2r.bmp	500	1	CPLW	500	1	blank2r.bmp	880	4	gesittet	880	1	!	1292	1	!	-1	0	0	0	0	0	0
2024-06-19	14:43:49	14:49:43	353890	6.6.1	4_exp_EVA_AWA_CON	90	A	B	Rpleas_acq	Oppo	Rpleas	1pleas	acq_US_unple_nomask	acq3_nomask	3	29	453	1	300	300	0	0	443	46	1	0	anregung	träumen	engagiert	gesittet	gütig	kuss	ausrottung	töten	engstirnig	geizig	gierig	krise	kreativ	sonnig	vergnügt	genießen	vertrauen	besonnen	krank	sterben	verbissen	gemein	versagen	bange	1	blank2r.bmp	0	1	+	0	1	blank2r.bmp	500	1	DHJF	500	1	blank2r.bmp	880	2	töten	880	1	!	1293	1	!	1344	0	0	0	0	0	0
2024-06-19	14:43:49	14:49:45	356146	6.6.1	4_exp_EVA_AWA_CON	90	A	B	Rpleas_acq	Oppo	Rpleas	1pleas	acq_US_unple_nomask	acq3_nomask	3	30	453	1	300	300	0	0	477	46	1	0	anregung	träumen	engagiert	gesittet	gütig	kuss	ausrottung	töten	engstirnig	geizig	gierig	krise	kreativ	sonnig	vergnügt	genießen	vertrauen	besonnen	krank	sterben	verbissen	gemein	versagen	bange	1	blank2r.bmp	0	1	+	0	1	blank2r.bmp	500	1	DHJF	500	1	blank2r.bmp	880	1	ausrottung	880	1	!	1292	1	!	1379	0	0	0	0	0	0
2024-06-19	14:43:49	14:49:48	358434	6.6.1	4_exp_EVA_AWA_CON	90	A	B	Rpleas_acq	Oppo	Rpleas	1pleas	acq_US_pleas_nomask	acq3_nomask	3	31	453	1	300	300	0	0	504	50	1	0	anregung	träumen	engagiert	gesittet	gütig	kuss	ausrottung	töten	engstirnig	geizig	gierig	krise	kreativ	sonnig	vergnügt	genießen	vertrauen	besonnen	krank	sterben	verbissen	gemein	versagen	bange	1	blank2r.bmp	0	1	+	0	1	blank2r.bmp	500	1	CPLW	500	1	blank2r.bmp	880	1	anregung	880	1	!	1293	1	!	1405	0	0	0	0	0	0
2024-06-19	14:43:49	14:49:50	360698	6.6.1	4_exp_EVA_AWA_CON	90	A	B	Rpleas_acq	Oppo	Rpleas	1pleas	acq_US_pleas_nomask	acq3_nomask	3	32	453	1	300	300	0	0	486	50	1	0	anregung	träumen	engagiert	gesittet	gütig	kuss	ausrottung	töten	engstirnig	geizig	gierig	krise	kreativ	sonnig	vergnügt	genießen	vertrauen	besonnen	krank	sterben	verbissen	gemein	versagen	bange	1	blank2r.bmp	0	1	+	0	1	blank2r.bmp	500	1	CPLW	500	1	blank2r.bmp	880	6	kuss	880	1	!	1293	1	!	1388	0	0	0	0	0	0
2024-06-19	14:43:49	14:49:52	362922	6.6.1	4_exp_EVA_AWA_CON	90	A	B	Rpleas_acq	Oppo	Rpleas	1pleas	acq_US_unple_nomask	acq3_nomask	3	33	453	1	300	300	0	0	449	46	1	0	anregung	träumen	engagiert	gesittet	gütig	kuss	ausrottung	töten	engstirnig	geizig	gierig	krise	kreativ	sonnig	vergnügt	genießen	vertrauen	besonnen	krank	sterben	verbissen	gemein	versagen	bange	1	blank2r.bmp	0	1	+	0	1	blank2r.bmp	500	1	DHJF	500	1	blank2r.bmp	880	6	krise	880	1	!	1292	1	!	1350	0	0	0	0	0	0
2024-06-19	14:43:49	14:49:54	365186	6.6.1	4_exp_EVA_AWA_CON	90	A	B	Rpleas_acq	Oppo	Rpleas	1pleas	acq_US_unple_nomask	acq3_nomask	3	34	453	1	300	300	0	0	481	46	1	0	anregung	träumen	engagiert	gesittet	gütig	kuss	ausrottung	töten	engstirnig	geizig	gierig	krise	kreativ	sonnig	vergnügt	genießen	vertrauen	besonnen	krank	sterben	verbissen	gemein	versagen	bange	1	blank2r.bmp	0	1	+	0	1	blank2r.bmp	500	1	DHJF	500	1	blank2r.bmp	880	5	gierig	880	1	!	1292	1	!	1383	0	0	0	0	0	0
2024-06-19	14:43:49	14:49:57	367442	6.6.1	4_exp_EVA_AWA_CON	90	A	B	Rpleas_acq	Oppo	Rpleas	1pleas	acq_US_pleas_nomask	acq3_nomask	3	35	453	1	300	300	0	0	476	50	1	0	anregung	träumen	engagiert	gesittet	gütig	kuss	ausrottung	töten	engstirnig	geizig	gierig	krise	kreativ	sonnig	vergnügt	genießen	vertrauen	besonnen	krank	sterben	verbissen	gemein	versagen	bange	1	blank2r.bmp	0	1	+	0	1	blank2r.bmp	500	1	CPLW	500	1	blank2r.bmp	880	5	gütig	880	1	!	1293	1	!	1377	0	0	0	0	0	0
2024-06-19	14:43:49	14:49:59	369690	6.6.1	4_exp_EVA_AWA_CON	90	A	B	Rpleas_acq	Oppo	Rpleas	1pleas	acq_US_pleas_nomask	acq3_nomask	3	36	453	1	300	300	0	0	473	50	1	0	anregung	träumen	engagiert	gesittet	gütig	kuss	ausrottung	töten	engstirnig	geizig	gierig	krise	kreativ	sonnig	vergnügt	genießen	vertrauen	besonnen	krank	sterben	verbissen	gemein	versagen	bange	1	blank2r.bmp	0	1	+	0	1	blank2r.bmp	500	1	CPLW	500	1	blank2r.bmp	880	2	träumen	880	1	!	1293	1	!	1374	0	0	0	0	0	0
2024-06-19	14:43:49	14:50:19	390298	6.6.1	4_exp_EVA_AWA_CON	90	A	B	Rpleas_acq	Oppo	Rpleas	1pleas	acq_US_unple_nomask	acq45_nomask	4	1	400	1	300	300	0	0	407	46	1	0	anregung	träumen	engagiert	gesittet	gütig	kuss	ausrottung	töten	engstirnig	geizig	gierig	krise	kreativ	sonnig	vergnügt	genießen	vertrauen	besonnen	krank	sterben	verbissen	gemein	versagen	bange	1	blank2r.bmp	0	1	+	0	1	blank2r.bmp	500	1	DHJF	500	1	blank2r.bmp	880	2	töten	880	1	!	1232	1	!	1308	0	0	0	0	0	0
2024-06-19	14:43:49	14:50:22	392538	6.6.1	4_exp_EVA_AWA_CON	90	A	B	Rpleas_acq	Oppo	Rpleas	1pleas	acq_US_pleas_nomask	acq45_nomask	4	2	400	1	300	300	0	0	466	50	1	0	anregung	träumen	engagiert	gesittet	gütig	kuss	ausrottung	töten	engstirnig	geizig	gierig	krise	kreativ	sonnig	vergnügt	genießen	vertrauen	besonnen	krank	sterben	verbissen	gemein	versagen	bange	1	blank2r.bmp	0	1	+	0	1	blank2r.bmp	500	1	CPLW	500	1	blank2r.bmp	880	6	kuss	880	1	!	1233	1	!	1367	0	0	0	0	0	0
2024-06-19	14:43:49	14:50:24	394754	6.6.1	4_exp_EVA_AWA_CON	90	A	B	Rpleas_acq	Oppo	Rpleas	1pleas	acq_US_pleas_nomask	acq45_nomask	4	3	400	1	300	300	0	0	440	50	1	0	anregung	träumen	engagiert	gesittet	gütig	kuss	ausrottung	töten	engstirnig	geizig	gierig	krise	kreativ	sonnig	vergnügt	genießen	vertrauen	besonnen	krank	sterben	verbissen	gemein	versagen	bange	1	blank2r.bmp	0	1	+	0	1	blank2r.bmp	500	1	CPLW	500	1	blank2r.bmp	880	3	engagiert	880	1	!	1232	1	!	1342	0	0	0	0	0	0
2024-06-19	14:43:49	14:50:26	397002	6.6.1	4_exp_EVA_AWA_CON	90	A	B	Rpleas_acq	Oppo	Rpleas	1pleas	acq_US_pleas_nomask	acq45_nomask	4	4	400	1	300	300	0	0	467	50	1	0	anregung	träumen	engagiert	gesittet	gütig	kuss	ausrottung	töten	engstirnig	geizig	gierig	krise	kreativ	sonnig	vergnügt	genießen	vertrauen	besonnen	krank	sterben	verbissen	gemein	versagen	bange	1	blank2r.bmp	0	1	+	0	1	blank2r.bmp	500	1	CPLW	500	1	blank2r.bmp	880	2	träumen	880	1	!	1232	1	!	1368	0	0	0	0	0	0
2024-06-19	14:43:49	14:50:28	399242	6.6.1	4_exp_EVA_AWA_CON	90	A	B	Rpleas_acq	Oppo	Rpleas	1pleas	acq_US_pleas_nomask	acq45_nomask	4	5	400	1	300	300	0	0	465	50	1	0	anregung	träumen	engagiert	gesittet	gütig	kuss	ausrottung	töten	engstirnig	geizig	gierig	krise	kreativ	sonnig	vergnügt	genießen	vertrauen	besonnen	krank	sterben	verbissen	gemein	versagen	bange	1	blank2r.bmp	0	1	+	0	1	blank2r.bmp	500	1	CPLW	500	1	blank2r.bmp	880	4	gesittet	880	1	!	1233	1	!	1367	0	0	0	0	0	0
2024-06-19	14:43:49	14:50:31	401386	6.6.1	4_exp_EVA_AWA_CON	90	A	B	Rpleas_acq	Oppo	Rpleas	1pleas	acq_US_unple_nomask	acq45_nomask	4	6	400	1	300	300	0	0	368	46	1	0	anregung	träumen	engagiert	gesittet	gütig	kuss	ausrottung	töten	engstirnig	geizig	gierig	krise	kreativ	sonnig	vergnügt	genießen	vertrauen	besonnen	krank	sterben	verbissen	gemein	versagen	bange	1	blank2r.bmp	0	1	+	0	1	blank2r.bmp	500	1	DHJF	500	1	blank2r.bmp	880	6	krise	880	1	!	1232	1	!	1269	0	0	0	0	0	0
2024-06-19	14:43:49	14:50:33	403578	6.6.1	4_exp_EVA_AWA_CON	90	A	B	Rpleas_acq	Oppo	Rpleas	1pleas	acq_US_pleas_nomask	acq45_nomask	4	7	400	1	300	300	0	0	409	50	1	0	anregung	träumen	engagiert	gesittet	gütig	kuss	ausrottung	töten	engstirnig	geizig	gierig	krise	kreativ	sonnig	vergnügt	genießen	vertrauen	besonnen	krank	sterben	verbissen	gemein	versagen	bange	1	blank2r.bmp	0	1	+	0	1	blank2r.bmp	500	1	CPLW	500	1	blank2r.bmp	880	5	gütig	880	1	!	1233	1	!	1310	0	0	0	0	0	0
2024-06-19	14:43:49	14:50:35	405856	6.6.1	4_exp_EVA_AWA_CON	90	A	B	Rpleas_acq	Oppo	Rpleas	1pleas	acq_US_unple_nomask	acq45_nomask	4	8	400	0	300	300	0	0	497	46	1	0	anregung	träumen	engagiert	gesittet	gütig	kuss	ausrottung	töten	engstirnig	geizig	gierig	krise	kreativ	sonnig	vergnügt	genießen	vertrauen	besonnen	krank	sterben	verbissen	gemein	versagen	bange	1	blank2r.bmp	0	1	+	0	1	blank2r.bmp	500	1	DHJF	500	1	blank2r.bmp	880	3	engstirnig	880	1	!	1232	1	!	-1	0	0	0	0	0	0
2024-06-19	14:43:49	14:50:37	408160	6.6.1	4_exp_EVA_AWA_CON	90	A	B	Rpleas_acq	Oppo	Rpleas	1pleas	acq_US_unple_nomask	acq45_nomask	4	9	400	0	300	300	0	0	530	46	1	0	anregung	träumen	engagiert	gesittet	gütig	kuss	ausrottung	töten	engstirnig	geizig	gierig	krise	kreativ	sonnig	vergnügt	genießen	vertrauen	besonnen	krank	sterben	verbissen	gemein	versagen	bange	1	blank2r.bmp	0	1	+	0	1	blank2r.bmp	500	1	DHJF	500	1	blank2r.bmp	880	5	gierig	880	1	!	1232	1	!	-1	0	0	0	0	0	0
2024-06-19	14:43:49	14:50:39	410338	6.6.1	4_exp_EVA_AWA_CON	90	A	B	Rpleas_acq	Oppo	Rpleas	1pleas	acq_US_pleas_nomask	acq45_nomask	4	10	400	1	300	300	0	0	394	50	1	0	anregung	träumen	engagiert	gesittet	gütig	kuss	ausrottung	töten	engstirnig	geizig	gierig	krise	kreativ	sonnig	vergnügt	genießen	vertrauen	besonnen	krank	sterben	verbissen	gemein	versagen	bange	1	blank2r.bmp	0	1	+	0	1	blank2r.bmp	500	1	CPLW	500	1	blank2r.bmp	880	1	anregung	880	1	!	1232	1	!	1295	0	0	0	0	0	0
2024-06-19	14:43:49	14:50:42	412522	6.6.1	4_exp_EVA_AWA_CON	90	A	B	Rpleas_acq	Oppo	Rpleas	1pleas	acq_US_pleas_nomask	acq45_nomask	4	11	400	1	300	300	0	0	407	50	1	0	anregung	träumen	engagiert	gesittet	gütig	kuss	ausrottung	töten	engstirnig	geizig	gierig	krise	kreativ	sonnig	vergnügt	genießen	vertrauen	besonnen	krank	sterben	verbissen	gemein	versagen	bange	1	blank2r.bmp	0	1	+	0	1	blank2r.bmp	500	1	CPLW	500	1	blank2r.bmp	880	1	anregung	880	1	!	1232	1	!	1308	0	0	0	0	0	0
2024-06-19	14:43:49	14:50:44	414784	6.6.1	4_exp_EVA_AWA_CON	90	A	B	Rpleas_acq	Oppo	Rpleas	1pleas	acq_US_unple_nomask	acq45_nomask	4	12	400	0	300	300	0	0	489	46	1	0	anregung	träumen	engagiert	gesittet	gütig	kuss	ausrottung	töten	engstirnig	geizig	gierig	krise	kreativ	sonnig	vergnügt	genießen	vertrauen	besonnen	krank	sterben	verbissen	gemein	versagen	bange	1	blank2r.bmp	0	1	+	0	1	blank2r.bmp	500	1	DHJF	500	1	blank2r.bmp	880	4	geizig	880	1	!	1232	1	!	-1	0	0	0	0	0	0
2024-06-19	14:43:49	14:50:46	416962	6.6.1	4_exp_EVA_AWA_CON	90	A	B	Rpleas_acq	Oppo	Rpleas	1pleas	acq_US_unple_nomask	acq45_nomask	4	13	400	1	300	300	0	0	404	46	1	0	anregung	träumen	engagiert	gesittet	gütig	kuss	ausrottung	töten	engstirnig	geizig	gierig	krise	kreativ	sonnig	vergnügt	genießen	vertrauen	besonnen	krank	sterben	verbissen	gemein	versagen	bange	1	blank2r.bmp	0	1	+	0	1	blank2r.bmp	500	1	DHJF	500	1	blank2r.bmp	880	1	ausrottung	880	1	!	1233	1	!	1305	0	0	0	0	0	0
2024-06-19	14:43:49	14:50:48	419130	6.6.1	4_exp_EVA_AWA_CON	90	A	B	Rpleas_acq	Oppo	Rpleas	1pleas	acq_US_unple_nomask	acq45_nomask	4	14	400	1	300	300	0	0	391	50	0	0	anregung	träumen	engagiert	gesittet	gütig	kuss	ausrottung	töten	engstirnig	geizig	gierig	krise	kreativ	sonnig	vergnügt	genießen	vertrauen	besonnen	krank	sterben	verbissen	gemein	versagen	bange	1	blank2r.bmp	0	1	+	0	1	blank2r.bmp	500	1	DHJF	500	1	blank2r.bmp	880	3	engstirnig	880	1	!	1232	1	!	1292	0	0	0	0	0	0
2024-06-19	14:43:49	14:50:50	421314	6.6.1	4_exp_EVA_AWA_CON	90	A	B	Rpleas_acq	Oppo	Rpleas	1pleas	acq_US_pleas_nomask	acq45_nomask	4	15	400	1	300	300	0	0	403	50	1	0	anregung	träumen	engagiert	gesittet	gütig	kuss	ausrottung	töten	engstirnig	geizig	gierig	krise	kreativ	sonnig	vergnügt	genießen	vertrauen	besonnen	krank	sterben	verbissen	gemein	versagen	bange	1	blank2r.bmp	0	1	+	0	1	blank2r.bmp	500	1	CPLW	500	1	blank2r.bmp	880	6	kuss	880	1	!	1232	1	!	1304	0	0	0	0	0	0
2024-06-19	14:43:49	14:50:53	423498	6.6.1	4_exp_EVA_AWA_CON	90	A	B	Rpleas_acq	Oppo	Rpleas	1pleas	acq_US_unple_nomask	acq45_nomask	4	16	400	1	300	300	0	0	406	46	1	0	anregung	träumen	engagiert	gesittet	gütig	kuss	ausrottung	töten	engstirnig	geizig	gierig	krise	kreativ	sonnig	vergnügt	genießen	vertrauen	besonnen	krank	sterben	verbissen	gemein	versagen	bange	1	blank2r.bmp	0	1	+	0	1	blank2r.bmp	500	1	DHJF	500	1	blank2r.bmp	880	2	töten	880	1	!	1233	1	!	1307	0	0	0	0	0	0
2024-06-19	14:43:49	14:50:55	425793	6.6.1	4_exp_EVA_AWA_CON	90	A	B	Rpleas_acq	Oppo	Rpleas	1pleas	acq_US_pleas_nomask	acq45_nomask	4	17	400	0	300	300	0	0	520	50	1	0	anregung	träumen	engagiert	gesittet	gütig	kuss	ausrottung	töten	engstirnig	geizig	gierig	krise	kreativ	sonnig	vergnügt	genießen	vertrauen	besonnen	krank	sterben	verbissen	gemein	versagen	bange	1	blank2r.bmp	0	1	+	0	1	blank2r.bmp	500	1	CPLW	500	1	blank2r.bmp	880	5	gütig	880	1	!	1232	1	!	-1	0	0	0	0	0	0
2024-06-19	14:43:49	14:50:57	427994	6.6.1	4_exp_EVA_AWA_CON	90	A	B	Rpleas_acq	Oppo	Rpleas	1pleas	acq_US_unple_nomask	acq45_nomask	4	18	400	1	300	300	0	0	419	46	1	0	anregung	träumen	engagiert	gesittet	gütig	kuss	ausrottung	töten	engstirnig	geizig	gierig	krise	kreativ	sonnig	vergnügt	genießen	vertrauen	besonnen	krank	sterben	verbissen	gemein	versagen	bange	1	blank2r.bmp	0	1	+	0	1	blank2r.bmp	500	1	DHJF	500	1	blank2r.bmp	880	5	gierig	880	1	!	1232	1	!	1320	0	0	0	0	0	0
2024-06-19	14:43:49	14:50:59	430112	6.6.1	4_exp_EVA_AWA_CON	90	A	B	Rpleas_acq	Oppo	Rpleas	1pleas	acq_US_unple_nomask	acq45_nomask	4	19	400	1	300	300	0	0	337	46	1	0	anregung	träumen	engagiert	gesittet	gütig	kuss	ausrottung	töten	engstirnig	geizig	gierig	krise	kreativ	sonnig	vergnügt	genießen	vertrauen	besonnen	krank	sterben	verbissen	gemein	versagen	bange	1	blank2r.bmp	0	1	+	0	1	blank2r.bmp	500	1	DHJF	500	1	blank2r.bmp	880	6	krise	880	1	!	1232	1	!	1237	0	0	0	0	0	0
2024-06-19	14:43:49	14:51:01	432354	6.6.1	4_exp_EVA_AWA_CON	90	A	B	Rpleas_acq	Oppo	Rpleas	1pleas	acq_US_pleas_nomask	acq45_nomask	4	20	400	1	300	300	0	0	466	50	1	0	anregung	träumen	engagiert	gesittet	gütig	kuss	ausrottung	töten	engstirnig	geizig	gierig	krise	kreativ	sonnig	vergnügt	genießen	vertrauen	besonnen	krank	sterben	verbissen	gemein	versagen	bange	1	blank2r.bmp	0	1	+	0	1	blank2r.bmp	500	1	CPLW	500	1	blank2r.bmp	880	2	träumen	880	1	!	1233	1	!	1367	0	0	0	0	0	0
2024-06-19	14:43:49	14:51:04	434546	6.6.1	4_exp_EVA_AWA_CON	90	A	B	Rpleas_acq	Oppo	Rpleas	1pleas	acq_US_pleas_nomask	acq45_nomask	4	21	400	1	300	300	0	0	417	46	0	0	anregung	träumen	engagiert	gesittet	gütig	kuss	ausrottung	töten	engstirnig	geizig	gierig	krise	kreativ	sonnig	vergnügt	genießen	vertrauen	besonnen	krank	sterben	verbissen	gemein	versagen	bange	1	blank2r.bmp	0	1	+	0	1	blank2r.bmp	500	1	CPLW	500	1	blank2r.bmp	880	3	engagiert	880	1	!	1232	1	!	1318	0	0	0	0	0	0
2024-06-19	14:43:49	14:51:06	436706	6.6.1	4_exp_EVA_AWA_CON	90	A	B	Rpleas_acq	Oppo	Rpleas	1pleas	acq_US_unple_nomask	acq45_nomask	4	22	400	1	300	300	0	0	385	50	0	0	anregung	träumen	engagiert	gesittet	gütig	kuss	ausrottung	töten	engstirnig	geizig	gierig	krise	kreativ	sonnig	vergnügt	genießen	vertrauen	besonnen	krank	sterben	verbissen	gemein	versagen	bange	1	blank2r.bmp	0	1	+	0	1	blank2r.bmp	500	1	DHJF	500	1	blank2r.bmp	880	1	ausrottung	880	1	!	1233	1	!	1286	0	0	0	0	0	0
2024-06-19	14:43:49	14:51:08	438898	6.6.1	4_exp_EVA_AWA_CON	90	A	B	Rpleas_acq	Oppo	Rpleas	1pleas	acq_US_unple_nomask	acq45_nomask	4	23	400	1	300	300	0	0	416	50	0	0	anregung	träumen	engagiert	gesittet	gütig	kuss	ausrottung	töten	engstirnig	geizig	gierig	krise	kreativ	sonnig	vergnügt	genießen	vertrauen	besonnen	krank	sterben	verbissen	gemein	versagen	bange	1	blank2r.bmp	0	1	+	0	1	blank2r.bmp	500	1	DHJF	500	1	blank2r.bmp	880	4	geizig	880	1	!	1233	1	!	1317	0	0	0	0	0	0
2024-06-19	14:43:49	14:51:10	441240	6.6.1	4_exp_EVA_AWA_CON	90	A	B	Rpleas_acq	Oppo	Rpleas	1pleas	acq_US_unple_nomask	acq45_nomask	4	24	400	0	300	300	0	0	568	46	1	0	anregung	träumen	engagiert	gesittet	gütig	kuss	ausrottung	töten	engstirnig	geizig	gierig	krise	kreativ	sonnig	vergnügt	genießen	vertrauen	besonnen	krank	sterben	verbissen	gemein	versagen	bange	1	blank2r.bmp	0	1	+	0	1	blank2r.bmp	500	1	DHJF	500	1	blank2r.bmp	880	4	geizig	880	1	!	1232	1	!	-1	0	0	0	0	0	0
2024-06-19	14:43:49	14:51:12	443362	6.6.1	4_exp_EVA_AWA_CON	90	A	B	Rpleas_acq	Oppo	Rpleas	1pleas	acq_US_pleas_nomask	acq45_nomask	4	25	400	1	300	300	0	0	347	46	0	0	anregung	träumen	engagiert	gesittet	gütig	kuss	ausrottung	töten	engstirnig	geizig	gierig	krise	kreativ	sonnig	vergnügt	genießen	vertrauen	besonnen	krank	sterben	verbissen	gemein	versagen	bange	1	blank2r.bmp	0	1	+	0	1	blank2r.bmp	500	1	CPLW	500	1	blank2r.bmp	880	4	gesittet	880	1	!	1232	1	!	1248	0	0	0	0	0	0
2024-06-19	14:43:49	14:51:15	445602	6.6.1	4_exp_EVA_AWA_CON	90	A	B	Rpleas_acq	Oppo	Rpleas	1pleas	acq_US_unple_nomask	acq45_nomask	4	26	400	1	300	300	0	0	465	46	1	0	anregung	träumen	engagiert	gesittet	gütig	kuss	ausrottung	töten	engstirnig	geizig	gierig	krise	kreativ	sonnig	vergnügt	genießen	vertrauen	besonnen	krank	sterben	verbissen	gemein	versagen	bange	1	blank2r.bmp	0	1	+	0	1	blank2r.bmp	500	1	DHJF	500	1	blank2r.bmp	880	3	engstirnig	880	1	!	1233	1	!	1367	0	0	0	0	0	0
2024-06-19	14:43:49	14:51:17	447802	6.6.1	4_exp_EVA_AWA_CON	90	A	B	Rpleas_acq	Oppo	Rpleas	1pleas	acq_US_pleas_nomask	acq45_nomask	4	27	400	1	300	300	0	0	424	50	1	0	anregung	träumen	engagiert	gesittet	gütig	kuss	ausrottung	töten	engstirnig	geizig	gierig	krise	kreativ	sonnig	vergnügt	genießen	vertrauen	besonnen	krank	sterben	verbissen	gemein	versagen	bange	1	blank2r.bmp	0	1	+	0	1	blank2r.bmp	500	1	CPLW	500	1	blank2r.bmp	880	2	träumen	880	1	!	1233	1	!	1325	0	0	0	0	0	0
2024-06-19	14:43:49	14:51:19	449978	6.6.1	4_exp_EVA_AWA_CON	90	A	B	Rpleas_acq	Oppo	Rpleas	1pleas	acq_US_unple_nomask	acq45_nomask	4	28	400	1	300	300	0	0	399	46	1	0	anregung	träumen	engagiert	gesittet	gütig	kuss	ausrottung	töten	engstirnig	geizig	gierig	krise	kreativ	sonnig	vergnügt	genießen	vertrauen	besonnen	krank	sterben	verbissen	gemein	versagen	bange	1	blank2r.bmp	0	1	+	0	1	blank2r.bmp	500	1	DHJF	500	1	blank2r.bmp	880	1	ausrottung	880	1	!	1232	1	!	1300	0	0	0	0	0	0
2024-06-19	14:43:49	14:51:21	452096	6.6.1	4_exp_EVA_AWA_CON	90	A	B	Rpleas_acq	Oppo	Rpleas	1pleas	acq_US_pleas_nomask	acq45_nomask	4	29	400	1	300	300	0	0	337	50	1	0	anregung	träumen	engagiert	gesittet	gütig	kuss	ausrottung	töten	engstirnig	geizig	gierig	krise	kreativ	sonnig	vergnügt	genießen	vertrauen	besonnen	krank	sterben	verbissen	gemein	versagen	bange	1	blank2r.bmp	0	1	+	0	1	blank2r.bmp	500	1	CPLW	500	1	blank2r.bmp	880	4	gesittet	880	1	!	1232	1	!	1237	0	0	0	0	0	0
2024-06-19	14:43:49	14:51:23	454338	6.6.1	4_exp_EVA_AWA_CON	90	A	B	Rpleas_acq	Oppo	Rpleas	1pleas	acq_US_unple_nomask	acq45_nomask	4	30	400	1	300	300	0	0	466	50	0	0	anregung	träumen	engagiert	gesittet	gütig	kuss	ausrottung	töten	engstirnig	geizig	gierig	krise	kreativ	sonnig	vergnügt	genießen	vertrauen	besonnen	krank	sterben	verbissen	gemein	versagen	bange	1	blank2r.bmp	0	1	+	0	1	blank2r.bmp	500	1	DHJF	500	1	blank2r.bmp	880	6	krise	880	1	!	1232	1	!	1367	0	0	0	0	0	0
2024-06-19	14:43:49	14:51:26	456514	6.6.1	4_exp_EVA_AWA_CON	90	A	B	Rpleas_acq	Oppo	Rpleas	1pleas	acq_US_pleas_nomask	acq45_nomask	4	31	400	1	300	300	0	0	400	50	1	0	anregung	träumen	engagiert	gesittet	gütig	kuss	ausrottung	töten	engstirnig	geizig	gierig	krise	kreativ	sonnig	vergnügt	genießen	vertrauen	besonnen	krank	sterben	verbissen	gemein	versagen	bange	1	blank2r.bmp	0	1	+	0	1	blank2r.bmp	500	1	CPLW	500	1	blank2r.bmp	880	5	gütig	880	1	!	1232	1	!	1302	0	0	0	0	0	0
2024-06-19	14:43:49	14:51:28	458730	6.6.1	4_exp_EVA_AWA_CON	90	A	B	Rpleas_acq	Oppo	Rpleas	1pleas	acq_US_unple_nomask	acq45_nomask	4	32	400	1	300	300	0	0	435	46	1	0	anregung	träumen	engagiert	gesittet	gütig	kuss	ausrottung	töten	engstirnig	geizig	gierig	krise	kreativ	sonnig	vergnügt	genießen	vertrauen	besonnen	krank	sterben	verbissen	gemein	versagen	bange	1	blank2r.bmp	0	1	+	0	1	blank2r.bmp	500	1	DHJF	500	1	blank2r.bmp	880	2	töten	880	1	!	1232	1	!	1336	0	0	0	0	0	0
2024-06-19	14:43:49	14:51:30	460874	6.6.1	4_exp_EVA_AWA_CON	90	A	B	Rpleas_acq	Oppo	Rpleas	1pleas	acq_US_unple_nomask	acq45_nomask	4	33	400	1	300	300	0	0	367	50	0	0	anregung	träumen	engagiert	gesittet	gütig	kuss	ausrottung	töten	engstirnig	geizig	gierig	krise	kreativ	sonnig	vergnügt	genießen	vertrauen	besonnen	krank	sterben	verbissen	gemein	versagen	bange	1	blank2r.bmp	0	1	+	0	1	blank2r.bmp	500	1	DHJF	500	1	blank2r.bmp	880	5	gierig	880	1	!	1232	1	!	1269	0	0	0	0	0	0
2024-06-19	14:43:49	14:51:32	463018	6.6.1	4_exp_EVA_AWA_CON	90	A	B	Rpleas_acq	Oppo	Rpleas	1pleas	acq_US_pleas_nomask	acq45_nomask	4	34	400	1	300	300	0	0	360	50	1	0	anregung	träumen	engagiert	gesittet	gütig	kuss	ausrottung	töten	engstirnig	geizig	gierig	krise	kreativ	sonnig	vergnügt	genießen	vertrauen	besonnen	krank	sterben	verbissen	gemein	versagen	bange	1	blank2r.bmp	0	1	+	0	1	blank2r.bmp	500	1	CPLW	500	1	blank2r.bmp	880	6	kuss	880	1	!	1233	1	!	1262	0	0	0	0	0	0
2024-06-19	14:43:49	14:51:34	465250	6.6.1	4_exp_EVA_AWA_CON	90	A	B	Rpleas_acq	Oppo	Rpleas	1pleas	acq_US_pleas_nomask	acq45_nomask	4	35	400	1	300	300	0	0	451	50	1	0	anregung	träumen	engagiert	gesittet	gütig	kuss	ausrottung	töten	engstirnig	geizig	gierig	krise	kreativ	sonnig	vergnügt	genießen	vertrauen	besonnen	krank	sterben	verbissen	gemein	versagen	bange	1	blank2r.bmp	0	1	+	0	1	blank2r.bmp	500	1	CPLW	500	1	blank2r.bmp	880	1	anregung	880	1	!	1233	1	!	1352	0	0	0	0	0	0
2024-06-19	14:43:49	14:51:37	467450	6.6.1	4_exp_EVA_AWA_CON	90	A	B	Rpleas_acq	Oppo	Rpleas	1pleas	acq_US_pleas_nomask	acq45_nomask	4	36	400	1	300	300	0	0	419	50	1	0	anregung	träumen	engagiert	gesittet	gütig	kuss	ausrottung	töten	engstirnig	geizig	gierig	krise	kreativ	sonnig	vergnügt	genießen	vertrauen	besonnen	krank	sterben	verbissen	gemein	versagen	bange	1	blank2r.bmp	0	1	+	0	1	blank2r.bmp	500	1	CPLW	500	1	blank2r.bmp	880	3	engagiert	880	1	!	1232	1	!	1320	0	0	0	0	0	0
2024-06-19	14:43:49	14:51:48	478930	6.6.1	4_exp_EVA_AWA_CON	90	A	B	Rpleas_acq	Oppo	Rpleas	1pleas	acq_US_pleas_nomask	acq45_nomask	5	1	400	1	300	300	0	0	452	50	1	0	anregung	träumen	engagiert	gesittet	gütig	kuss	ausrottung	töten	engstirnig	geizig	gierig	krise	kreativ	sonnig	vergnügt	genießen	vertrauen	besonnen	krank	sterben	verbissen	gemein	versagen	bange	1	blank2r.bmp	0	1	+	0	1	blank2r.bmp	500	1	CPLW	500	1	blank2r.bmp	880	3	engagiert	880	1	!	1232	1	!	1353	0	0	0	0	0	0
2024-06-19	14:43:49	14:51:50	481082	6.6.1	4_exp_EVA_AWA_CON	90	A	B	Rpleas_acq	Oppo	Rpleas	1pleas	acq_US_unple_nomask	acq45_nomask	5	2	400	1	300	300	0	0	372	50	0	0	anregung	träumen	engagiert	gesittet	gütig	kuss	ausrottung	töten	engstirnig	geizig	gierig	krise	kreativ	sonnig	vergnügt	genießen	vertrauen	besonnen	krank	sterben	verbissen	gemein	versagen	bange	1	blank2r.bmp	0	1	+	0	1	blank2r.bmp	500	1	DHJF	500	1	blank2r.bmp	880	3	engstirnig	880	1	!	1232	1	!	1273	0	0	0	0	0	0
2024-06-19	14:43:49	14:51:52	483330	6.6.1	4_exp_EVA_AWA_CON	90	A	B	Rpleas_acq	Oppo	Rpleas	1pleas	acq_US_pleas_nomask	acq45_nomask	5	3	400	1	300	300	0	0	469	50	1	0	anregung	träumen	engagiert	gesittet	gütig	kuss	ausrottung	töten	engstirnig	geizig	gierig	krise	kreativ	sonnig	vergnügt	genießen	vertrauen	besonnen	krank	sterben	verbissen	gemein	versagen	bange	1	blank2r.bmp	0	1	+	0	1	blank2r.bmp	500	1	CPLW	500	1	blank2r.bmp	880	4	gesittet	880	1	!	1232	1	!	1370	0	0	0	0	0	0
2024-06-19	14:43:49	14:51:55	485506	6.6.1	4_exp_EVA_AWA_CON	90	A	B	Rpleas_acq	Oppo	Rpleas	1pleas	acq_US_unple_nomask	acq45_nomask	5	4	400	1	300	300	0	0	394	46	1	0	anregung	träumen	engagiert	gesittet	gütig	kuss	ausrottung	töten	engstirnig	geizig	gierig	krise	kreativ	sonnig	vergnügt	genießen	vertrauen	besonnen	krank	sterben	verbissen	gemein	versagen	bange	1	blank2r.bmp	0	1	+	0	1	blank2r.bmp	500	1	DHJF	500	1	blank2r.bmp	880	6	krise	880	1	!	1232	1	!	1295	0	0	0	0	0	0
2024-06-19	14:43:49	14:51:57	487666	6.6.1	4_exp_EVA_AWA_CON	90	A	B	Rpleas_acq	Oppo	Rpleas	1pleas	acq_US_pleas_nomask	acq45_nomask	5	5	400	1	300	300	0	0	382	50	1	0	anregung	träumen	engagiert	gesittet	gütig	kuss	ausrottung	töten	engstirnig	geizig	gierig	krise	kreativ	sonnig	vergnügt	genießen	vertrauen	besonnen	krank	sterben	verbissen	gemein	versagen	bange	1	blank2r.bmp	0	1	+	0	1	blank2r.bmp	500	1	CPLW	500	1	blank2r.bmp	880	6	kuss	880	1	!	1232	1	!	1283	0	0	0	0	0	0
2024-06-19	14:43:49	14:51:59	489810	6.6.1	4_exp_EVA_AWA_CON	90	A	B	Rpleas_acq	Oppo	Rpleas	1pleas	acq_US_pleas_nomask	acq45_nomask	5	6	400	1	300	300	0	0	365	50	1	0	anregung	träumen	engagiert	gesittet	gütig	kuss	ausrottung	töten	engstirnig	geizig	gierig	krise	kreativ	sonnig	vergnügt	genießen	vertrauen	besonnen	krank	sterben	verbissen	gemein	versagen	bange	1	blank2r.bmp	0	1	+	0	1	blank2r.bmp	500	1	CPLW	500	1	blank2r.bmp	880	2	träumen	880	1	!	1232	1	!	1266	0	0	0	0	0	0
2024-06-19	14:43:49	14:52:01	492034	6.6.1	4_exp_EVA_AWA_CON	90	A	B	Rpleas_acq	Oppo	Rpleas	1pleas	acq_US_pleas_nomask	acq45_nomask	5	7	400	1	300	300	0	0	447	50	1	0	anregung	träumen	engagiert	gesittet	gütig	kuss	ausrottung	töten	engstirnig	geizig	gierig	krise	kreativ	sonnig	vergnügt	genießen	vertrauen	besonnen	krank	sterben	verbissen	gemein	versagen	bange	1	blank2r.bmp	0	1	+	0	1	blank2r.bmp	500	1	CPLW	500	1	blank2r.bmp	880	1	anregung	880	1	!	1233	1	!	1349	0	0	0	0	0	0
2024-06-19	14:43:49	14:52:03	494226	6.6.1	4_exp_EVA_AWA_CON	90	A	B	Rpleas_acq	Oppo	Rpleas	1pleas	acq_US_pleas_nomask	acq45_nomask	5	8	400	1	300	300	0	0	418	50	1	0	anregung	träumen	engagiert	gesittet	gütig	kuss	ausrottung	töten	engstirnig	geizig	gierig	krise	kreativ	sonnig	vergnügt	genießen	vertrauen	besonnen	krank	sterben	verbissen	gemein	versagen	bange	1	blank2r.bmp	0	1	+	0	1	blank2r.bmp	500	1	CPLW	500	1	blank2r.bmp	880	5	gütig	880	1	!	1232	1	!	1319	0	0	0	0	0	0
2024-06-19	14:43:49	14:52:05	496386	6.6.1	4_exp_EVA_AWA_CON	90	A	B	Rpleas_acq	Oppo	Rpleas	1pleas	acq_US_unple_nomask	acq45_nomask	5	9	400	1	300	300	0	0	386	50	0	0	anregung	träumen	engagiert	gesittet	gütig	kuss	ausrottung	töten	engstirnig	geizig	gierig	krise	kreativ	sonnig	vergnügt	genießen	vertrauen	besonnen	krank	sterben	verbissen	gemein	versagen	bange	1	blank2r.bmp	0	1	+	0	1	blank2r.bmp	500	1	DHJF	500	1	blank2r.bmp	880	4	geizig	880	1	!	1233	1	!	1288	0	0	0	0	0	0
2024-06-19	14:43:49	14:52:08	498594	6.6.1	4_exp_EVA_AWA_CON	90	A	B	Rpleas_acq	Oppo	Rpleas	1pleas	acq_US_unple_nomask	acq45_nomask	5	10	400	1	300	300	0	0	433	46	1	0	anregung	träumen	engagiert	gesittet	gütig	kuss	ausrottung	töten	engstirnig	geizig	gierig	krise	kreativ	sonnig	vergnügt	genießen	vertrauen	besonnen	krank	sterben	verbissen	gemein	versagen	bange	1	blank2r.bmp	0	1	+	0	1	blank2r.bmp	500	1	DHJF	500	1	blank2r.bmp	880	2	töten	880	1	!	1232	1	!	1334	0	0	0	0	0	0
2024-06-19	14:43:49	14:52:10	500818	6.6.1	4_exp_EVA_AWA_CON	90	A	B	Rpleas_acq	Oppo	Rpleas	1pleas	acq_US_pleas_nomask	acq45_nomask	5	11	400	1	300	300	0	0	446	50	1	0	anregung	träumen	engagiert	gesittet	gütig	kuss	ausrottung	töten	engstirnig	geizig	gierig	krise	kreativ	sonnig	vergnügt	genießen	vertrauen	besonnen	krank	sterben	verbissen	gemein	versagen	bange	1	blank2r.bmp	0	1	+	0	1	blank2r.bmp	500	1	CPLW	500	1	blank2r.bmp	880	4	gesittet	880	1	!	1233	1	!	1347	0	0	0	0	0	0
2024-06-19	14:43:49	14:52:12	502970	6.6.1	4_exp_EVA_AWA_CON	90	A	B	Rpleas_acq	Oppo	Rpleas	1pleas	acq_US_unple_nomask	acq45_nomask	5	12	400	1	300	300	0	0	376	50	0	0	anregung	träumen	engagiert	gesittet	gütig	kuss	ausrottung	töten	engstirnig	geizig	gierig	krise	kreativ	sonnig	vergnügt	genießen	vertrauen	besonnen	krank	sterben	verbissen	gemein	versagen	bange	1	blank2r.bmp	0	1	+	0	1	blank2r.bmp	500	1	DHJF	500	1	blank2r.bmp	880	5	gierig	880	1	!	1232	1	!	1277	0	0	0	0	0	0
2024-06-19	14:43:49	14:52:14	505170	6.6.1	4_exp_EVA_AWA_CON	90	A	B	Rpleas_acq	Oppo	Rpleas	1pleas	acq_US_unple_nomask	acq45_nomask	5	13	400	1	300	300	0	0	425	50	0	0	anregung	träumen	engagiert	gesittet	gütig	kuss	ausrottung	töten	engstirnig	geizig	gierig	krise	kreativ	sonnig	vergnügt	genießen	vertrauen	besonnen	krank	sterben	verbissen	gemein	versagen	bange	1	blank2r.bmp	0	1	+	0	1	blank2r.bmp	500	1	DHJF	500	1	blank2r.bmp	880	1	ausrottung	880	1	!	1232	1	!	1326	0	0	0	0	0	0
2024-06-19	14:43:49	14:52:17	507386	6.6.1	4_exp_EVA_AWA_CON	90	A	B	Rpleas_acq	Oppo	Rpleas	1pleas	acq_US_pleas_nomask	acq45_nomask	5	14	400	1	300	300	0	0	439	50	1	0	anregung	träumen	engagiert	gesittet	gütig	kuss	ausrottung	töten	engstirnig	geizig	gierig	krise	kreativ	sonnig	vergnügt	genießen	vertrauen	besonnen	krank	sterben	verbissen	gemein	versagen	bange	1	blank2r.bmp	0	1	+	0	1	blank2r.bmp	500	1	CPLW	500	1	blank2r.bmp	880	2	träumen	880	1	!	1233	1	!	1341	0	0	0	0	0	0
2024-06-19	14:43:49	14:52:19	509578	6.6.1	4_exp_EVA_AWA_CON	90	A	B	Rpleas_acq	Oppo	Rpleas	1pleas	acq_US_unple_nomask	acq45_nomask	5	15	400	1	300	300	0	0	410	46	1	0	anregung	träumen	engagiert	gesittet	gütig	kuss	ausrottung	töten	engstirnig	geizig	gierig	krise	kreativ	sonnig	vergnügt	genießen	vertrauen	besonnen	krank	sterben	verbissen	gemein	versagen	bange	1	blank2r.bmp	0	1	+	0	1	blank2r.bmp	500	1	DHJF	500	1	blank2r.bmp	880	1	ausrottung	880	1	!	1232	1	!	1312	0	0	0	0	0	0
2024-06-19	14:43:49	14:52:21	511754	6.6.1	4_exp_EVA_AWA_CON	90	A	B	Rpleas_acq	Oppo	Rpleas	1pleas	acq_US_unple_nomask	acq45_nomask	5	16	400	1	300	300	0	0	394	46	1	0	anregung	träumen	engagiert	gesittet	gütig	kuss	ausrottung	töten	engstirnig	geizig	gierig	krise	kreativ	sonnig	vergnügt	genießen	vertrauen	besonnen	krank	sterben	verbissen	gemein	versagen	bange	1	blank2r.bmp	0	1	+	0	1	blank2r.bmp	500	1	DHJF	500	1	blank2r.bmp	880	2	töten	880	1	!	1233	1	!	1296	0	0	0	0	0	0
2024-06-19	14:43:49	14:52:23	513970	6.6.1	4_exp_EVA_AWA_CON	90	A	B	Rpleas_acq	Oppo	Rpleas	1pleas	acq_US_pleas_nomask	acq45_nomask	5	17	400	1	300	300	0	0	439	46	0	0	anregung	träumen	engagiert	gesittet	gütig	kuss	ausrottung	töten	engstirnig	geizig	gierig	krise	kreativ	sonnig	vergnügt	genießen	vertrauen	besonnen	krank	sterben	verbissen	gemein	versagen	bange	1	blank2r.bmp	0	1	+	0	1	blank2r.bmp	500	1	CPLW	500	1	blank2r.bmp	880	1	anregung	880	1	!	1232	1	!	1340	0	0	0	0	0	0
2024-06-19	14:43:49	14:52:25	516130	6.6.1	4_exp_EVA_AWA_CON	90	A	B	Rpleas_acq	Oppo	Rpleas	1pleas	acq_US_unple_nomask	acq45_nomask	5	18	400	1	300	300	0	0	378	46	1	0	anregung	träumen	engagiert	gesittet	gütig	kuss	ausrottung	töten	engstirnig	geizig	gierig	krise	kreativ	sonnig	vergnügt	genießen	vertrauen	besonnen	krank	sterben	verbissen	gemein	versagen	bange	1	blank2r.bmp	0	1	+	0	1	blank2r.bmp	500	1	DHJF	500	1	blank2r.bmp	880	5	gierig	880	1	!	1232	1	!	1279	0	0	0	0	0	0
2024-06-19	14:43:49	14:52:27	518315	6.6.1	4_exp_EVA_AWA_CON	90	A	B	Rpleas_acq	Oppo	Rpleas	1pleas	acq_US_pleas_nomask	acq45_nomask	5	19	400	1	300	300	0	0	400	46	0	0	anregung	träumen	engagiert	gesittet	gütig	kuss	ausrottung	töten	engstirnig	geizig	gierig	krise	kreativ	sonnig	vergnügt	genießen	vertrauen	besonnen	krank	sterben	verbissen	gemein	versagen	bange	1	blank2r.bmp	0	1	+	0	1	blank2r.bmp	500	1	CPLW	500	1	blank2r.bmp	880	5	gütig	880	1	!	1232	1	!	1302	0	0	0	0	0	0
2024-06-19	14:43:49	14:52:30	520574	6.6.1	4_exp_EVA_AWA_CON	90	A	B	Rpleas_acq	Oppo	Rpleas	1pleas	acq_US_pleas_nomask	acq45_nomask	5	20	400	0	300	300	0	0	483	50	1	0	anregung	träumen	engagiert	gesittet	gütig	kuss	ausrottung	töten	engstirnig	geizig	gierig	krise	kreativ	sonnig	vergnügt	genießen	vertrauen	besonnen	krank	sterben	verbissen	gemein	versagen	bange	1	blank2r.bmp	0	1	+	0	1	blank2r.bmp	500	1	CPLW	500	1	blank2r.bmp	880	3	engagiert	880	1	!	1232	1	!	-1	0	0	0	0	0	0
2024-06-19	14:43:49	14:52:32	522762	6.6.1	4_exp_EVA_AWA_CON	90	A	B	Rpleas_acq	Oppo	Rpleas	1pleas	acq_US_unple_nomask	acq45_nomask	5	21	400	1	300	300	0	0	405	50	0	0	anregung	träumen	engagiert	gesittet	gütig	kuss	ausrottung	töten	engstirnig	geizig	gierig	krise	kreativ	sonnig	vergnügt	genießen	vertrauen	besonnen	krank	sterben	verbissen	gemein	versagen	bange	1	blank2r.bmp	0	1	+	0	1	blank2r.bmp	500	1	DHJF	500	1	blank2r.bmp	880	3	engstirnig	880	1	!	1233	1	!	1306	0	0	0	0	0	0
2024-06-19	14:43:49	14:52:34	524970	6.6.1	4_exp_EVA_AWA_CON	90	A	B	Rpleas_acq	Oppo	Rpleas	1pleas	acq_US_unple_nomask	acq45_nomask	5	22	400	1	300	300	0	0	432	46	1	0	anregung	träumen	engagiert	gesittet	gütig	kuss	ausrottung	töten	engstirnig	geizig	gierig	krise	kreativ	sonnig	vergnügt	genießen	vertrauen	besonnen	krank	sterben	verbissen	gemein	versagen	bange	1	blank2r.bmp	0	1	+	0	1	blank2r.bmp	500	1	DHJF	500	1	blank2r.bmp	880	6	krise	880	1	!	1232	1	!	1333	0	0	0	0	0	0
2024-06-19	14:43:49	14:52:36	527154	6.6.1	4_exp_EVA_AWA_CON	90	A	B	Rpleas_acq	Oppo	Rpleas	1pleas	acq_US_unple_nomask	acq45_nomask	5	23	400	1	300	300	0	0	405	50	0	0	anregung	träumen	engagiert	gesittet	gütig	kuss	ausrottung	töten	engstirnig	geizig	gierig	krise	kreativ	sonnig	vergnügt	genießen	vertrauen	besonnen	krank	sterben	verbissen	gemein	versagen	bange	1	blank2r.bmp	0	1	+	0	1	blank2r.bmp	500	1	DHJF	500	1	blank2r.bmp	880	4	geizig	880	1	!	1232	1	!	1306	0	0	0	0	0	0
2024-06-19	14:43:49	14:52:38	529272	6.6.1	4_exp_EVA_AWA_CON	90	A	B	Rpleas_acq	Oppo	Rpleas	1pleas	acq_US_pleas_nomask	acq45_nomask	5	24	400	1	300	300	0	0	343	50	1	0	anregung	träumen	engagiert	gesittet	gütig	kuss	ausrottung	töten	engstirnig	geizig	gierig	krise	kreativ	sonnig	vergnügt	genießen	vertrauen	besonnen	krank	sterben	verbissen	gemein	versagen	bange	1	blank2r.bmp	0	1	+	0	1	blank2r.bmp	500	1	CPLW	500	1	blank2r.bmp	880	6	kuss	880	1	!	1232	1	!	1242	0	0	0	0	0	0
2024-06-19	14:43:49	14:52:41	531458	6.6.1	4_exp_EVA_AWA_CON	90	A	B	Rpleas_acq	Oppo	Rpleas	1pleas	acq_US_pleas_nomask	acq45_nomask	5	25	400	1	300	300	0	0	406	50	1	0	anregung	träumen	engagiert	gesittet	gütig	kuss	ausrottung	töten	engstirnig	geizig	gierig	krise	kreativ	sonnig	vergnügt	genießen	vertrauen	besonnen	krank	sterben	verbissen	gemein	versagen	bange	1	blank2r.bmp	0	1	+	0	1	blank2r.bmp	500	1	CPLW	500	1	blank2r.bmp	880	1	anregung	880	1	!	1232	1	!	1307	0	0	0	0	0	0
2024-06-19	14:43:49	14:52:43	533666	6.6.1	4_exp_EVA_AWA_CON	90	A	B	Rpleas_acq	Oppo	Rpleas	1pleas	acq_US_pleas_nomask	acq45_nomask	5	26	400	1	300	300	0	0	432	50	1	0	anregung	träumen	engagiert	gesittet	gütig	kuss	ausrottung	töten	engstirnig	geizig	gierig	krise	kreativ	sonnig	vergnügt	genießen	vertrauen	besonnen	krank	sterben	verbissen	gemein	versagen	bange	1	blank2r.bmp	0	1	+	0	1	blank2r.bmp	500	1	CPLW	500	1	blank2r.bmp	880	5	gütig	880	1	!	1232	1	!	1334	0	0	0	0	0	0
2024-06-19	14:43:49	14:52:45	535914	6.6.1	4_exp_EVA_AWA_CON	90	A	B	Rpleas_acq	Oppo	Rpleas	1pleas	acq_US_pleas_nomask	acq45_nomask	5	27	400	1	300	300	0	0	469	50	1	0	anregung	träumen	engagiert	gesittet	gütig	kuss	ausrottung	töten	engstirnig	geizig	gierig	krise	kreativ	sonnig	vergnügt	genießen	vertrauen	besonnen	krank	sterben	verbissen	gemein	versagen	bange	1	blank2r.bmp	0	1	+	0	1	blank2r.bmp	500	1	CPLW	500	1	blank2r.bmp	880	4	gesittet	880	1	!	1232	1	!	1370	0	0	0	0	0	0
2024-06-19	14:43:49	14:52:47	538200	6.6.1	4_exp_EVA_AWA_CON	90	A	B	Rpleas_acq	Oppo	Rpleas	1pleas	acq_US_unple_nomask	acq45_nomask	5	28	400	0	300	300	0	0	505	46	1	0	anregung	träumen	engagiert	gesittet	gütig	kuss	ausrottung	töten	engstirnig	geizig	gierig	krise	kreativ	sonnig	vergnügt	genießen	vertrauen	besonnen	krank	sterben	verbissen	gemein	versagen	bange	1	blank2r.bmp	0	1	+	0	1	blank2r.bmp	500	1	DHJF	500	1	blank2r.bmp	880	1	ausrottung	880	1	!	1232	1	!	-1	0	0	0	0	0	0
2024-06-19	14:43:49	14:52:49	540338	6.6.1	4_exp_EVA_AWA_CON	90	A	B	Rpleas_acq	Oppo	Rpleas	1pleas	acq_US_unple_nomask	acq45_nomask	5	29	400	1	300	300	0	0	360	46	1	0	anregung	träumen	engagiert	gesittet	gütig	kuss	ausrottung	töten	engstirnig	geizig	gierig	krise	kreativ	sonnig	vergnügt	genießen	vertrauen	besonnen	krank	sterben	verbissen	gemein	versagen	bange	1	blank2r.bmp	0	1	+	0	1	blank2r.bmp	500	1	DHJF	500	1	blank2r.bmp	880	4	geizig	880	1	!	1232	1	!	1262	0	0	0	0	0	0
2024-06-19	14:43:49	14:52:52	542466	6.6.1	4_exp_EVA_AWA_CON	90	A	B	Rpleas_acq	Oppo	Rpleas	1pleas	acq_US_unple_nomask	acq45_nomask	5	30	400	1	300	300	0	0	346	46	1	0	anregung	träumen	engagiert	gesittet	gütig	kuss	ausrottung	töten	engstirnig	geizig	gierig	krise	kreativ	sonnig	vergnügt	genießen	vertrauen	besonnen	krank	sterben	verbissen	gemein	versagen	bange	1	blank2r.bmp	0	1	+	0	1	blank2r.bmp	500	1	DHJF	500	1	blank2r.bmp	880	2	töten	880	1	!	1232	1	!	1247	0	0	0	0	0	0
2024-06-19	14:43:49	14:52:54	544594	6.6.1	4_exp_EVA_AWA_CON	90	A	B	Rpleas_acq	Oppo	Rpleas	1pleas	acq_US_pleas_nomask	acq45_nomask	5	31	400	1	300	300	0	0	353	50	1	0	anregung	träumen	engagiert	gesittet	gütig	kuss	ausrottung	töten	engstirnig	geizig	gierig	krise	kreativ	sonnig	vergnügt	genießen	vertrauen	besonnen	krank	sterben	verbissen	gemein	versagen	bange	1	blank2r.bmp	0	1	+	0	1	blank2r.bmp	500	1	CPLW	500	1	blank2r.bmp	880	2	träumen	880	1	!	1232	1	!	1254	0	0	0	0	0	0
2024-06-19	14:43:49	14:52:56	546754	6.6.1	4_exp_EVA_AWA_CON	90	A	B	Rpleas_acq	Oppo	Rpleas	1pleas	acq_US_pleas_nomask	acq45_nomask	5	32	400	1	300	300	0	0	382	50	1	0	anregung	träumen	engagiert	gesittet	gütig	kuss	ausrottung	töten	engstirnig	geizig	gierig	krise	kreativ	sonnig	vergnügt	genießen	vertrauen	besonnen	krank	sterben	verbissen	gemein	versagen	bange	1	blank2r.bmp	0	1	+	0	1	blank2r.bmp	500	1	CPLW	500	1	blank2r.bmp	880	6	kuss	880	1	!	1233	1	!	1283	0	0	0	0	0	0
2024-06-19	14:43:49	14:52:58	548970	6.6.1	4_exp_EVA_AWA_CON	90	A	B	Rpleas_acq	Oppo	Rpleas	1pleas	acq_US_unple_nomask	acq45_nomask	5	33	400	1	300	300	0	0	436	46	1	0	anregung	träumen	engagiert	gesittet	gütig	kuss	ausrottung	töten	engstirnig	geizig	gierig	krise	kreativ	sonnig	vergnügt	genießen	vertrauen	besonnen	krank	sterben	verbissen	gemein	versagen	bange	1	blank2r.bmp	0	1	+	0	1	blank2r.bmp	500	1	DHJF	500	1	blank2r.bmp	880	6	krise	880	1	!	1232	1	!	1337	0	0	0	0	0	0
2024-06-19	14:43:49	14:53:00	551138	6.6.1	4_exp_EVA_AWA_CON	90	A	B	Rpleas_acq	Oppo	Rpleas	1pleas	acq_US_unple_nomask	acq45_nomask	5	34	400	1	300	300	0	0	393	46	1	0	anregung	träumen	engagiert	gesittet	gütig	kuss	ausrottung	töten	engstirnig	geizig	gierig	krise	kreativ	sonnig	vergnügt	genießen	vertrauen	besonnen	krank	sterben	verbissen	gemein	versagen	bange	1	blank2r.bmp	0	1	+	0	1	blank2r.bmp	500	1	DHJF	500	1	blank2r.bmp	880	3	engstirnig	880	1	!	1232	1	!	1294	0	0	0	0	0	0
2024-06-19	14:43:49	14:53:02	553282	6.6.1	4_exp_EVA_AWA_CON	90	A	B	Rpleas_acq	Oppo	Rpleas	1pleas	acq_US_unple_nomask	acq45_nomask	5	35	400	1	300	300	0	0	365	46	1	0	anregung	träumen	engagiert	gesittet	gütig	kuss	ausrottung	töten	engstirnig	geizig	gierig	krise	kreativ	sonnig	vergnügt	genießen	vertrauen	besonnen	krank	sterben	verbissen	gemein	versagen	bange	1	blank2r.bmp	0	1	+	0	1	blank2r.bmp	500	1	DHJF	500	1	blank2r.bmp	880	5	gierig	880	1	!	1232	1	!	1267	0	0	0	0	0	0
2024-06-19	14:43:49	14:53:05	555458	6.6.1	4_exp_EVA_AWA_CON	90	A	B	Rpleas_acq	Oppo	Rpleas	1pleas	acq_US_pleas_nomask	acq45_nomask	5	36	400	1	300	300	0	0	400	46	0	0	anregung	träumen	engagiert	gesittet	gütig	kuss	ausrottung	töten	engstirnig	geizig	gierig	krise	kreativ	sonnig	vergnügt	genießen	vertrauen	besonnen	krank	sterben	verbissen	gemein	versagen	bange	1	blank2r.bmp	0	1	+	0	1	blank2r.bmp	500	1	CPLW	500	1	blank2r.bmp	880	3	engagiert	880	1	!	1232	1	!	1302	0	0	0	0	0	0
2024-06-19	14:43:49	14:53:29	579957	6.6.1	4_exp_EVA_AWA_CON	90	A	B	Rpleas_acq	Oppo	Lpleas	1pleas	EvalRating_firsttwo	EvalRating_firsttwo	6	1	0	0	300	300	0	0	4118	line	0	-32,8125pct	anregung	träumen	engagiert	gesittet	gütig	kuss	ausrottung	töten	engstirnig	geizig	gierig	krise	kreativ	sonnig	vergnügt	genießen	vertrauen	besonnen	krank	sterben	verbissen	gemein	versagen	bange	1		-7	1	Wie angenehm oder unangenehm finden Sie die  Buchstabenkette WDLH?	-7	1		-7	1		-7	1		-7	1	Unangenehm	-7	1	Angenehm	-7	0	0	0	0	0	0	0	0	0
2024-06-19	14:43:49	14:53:34	585213	6.6.1	4_exp_EVA_AWA_CON	90	A	B	Rpleas_acq	Oppo	Lpleas	1pleas	EvalRating_lastfour	EvalRating_lastfour	7	1	0	0	300	300	0	0	2880	line	0	25,2604166666666714036pct	anregung	träumen	engagiert	gesittet	gütig	kuss	ausrottung	töten	engstirnig	geizig	gierig	krise	kreativ	sonnig	vergnügt	genießen	vertrauen	besonnen	krank	sterben	verbissen	gemein	versagen	bange	1		-7	3	Wie angenehm oder unangenehm finden Sie die  Buchstabenkette FCJP?	-7	1		-7	1		-7	1		-7	1	Unangenehm	-7	1	Angenehm	-7	0	0	0	0	0	0	0	0	0
2024-06-19	14:43:49	14:53:37	587579	6.6.1	4_exp_EVA_AWA_CON	90	A	B	Rpleas_acq	Oppo	Lpleas	1pleas	blank_screen	EvalRating_lastfour	7	3	0	0	300	300	0	0	0	0	0	25,2604166666666714036pct	anregung	träumen	engagiert	gesittet	gütig	kuss	ausrottung	töten	engstirnig	geizig	gierig	krise	kreativ	sonnig	vergnügt	genießen	vertrauen	besonnen	krank	sterben	verbissen	gemein	versagen	bange	1		-8	0	0	0	0	0	0	0	0	0	0	0	0	0	0	0	0	0	0	0	0	0	0	0	0	0	0	0
2024-06-19	14:43:49	14:53:40	590892	6.6.1	4_exp_EVA_AWA_CON	90	A	B	Rpleas_acq	Oppo	Lpleas	1pleas	EvalRating_lastfour	EvalRating_lastfour	7	4	0	0	300	300	0	0	2726	line	0	-42,4479166666666642982pct	anregung	träumen	engagiert	gesittet	gütig	kuss	ausrottung	töten	engstirnig	geizig	gierig	krise	kreativ	sonnig	vergnügt	genießen	vertrauen	besonnen	krank	sterben	verbissen	gemein	versagen	bange	1		-7	1	Wie angenehm oder unangenehm finden Sie die  Buchstabenkette CPLW?	-7	1		-7	1		-7	1		-7	1	Unangenehm	-7	1	Angenehm	-7	0	0	0	0	0	0	0	0	0
2024-06-19	14:43:49	14:53:42	593262	6.6.1	4_exp_EVA_AWA_CON	90	A	B	Rpleas_acq	Oppo	Lpleas	1pleas	blank_screen	EvalRating_lastfour	7	6	0	0	300	300	0	0	0	0	0	-42,4479166666666642982pct	anregung	träumen	engagiert	gesittet	gütig	kuss	ausrottung	töten	engstirnig	geizig	gierig	krise	kreativ	sonnig	vergnügt	genießen	vertrauen	besonnen	krank	sterben	verbissen	gemein	versagen	bange	1		-8	0	0	0	0	0	0	0	0	0	0	0	0	0	0	0	0	0	0	0	0	0	0	0	0	0	0	0
2024-06-19	14:43:49	14:53:46	596908	6.6.1	4_exp_EVA_AWA_CON	90	A	B	Rpleas_acq	Oppo	Lpleas	1pleas	EvalRating_lastfour	EvalRating_lastfour	7	7	0	0	300	300	0	0	3058	line	0	29,4270833333333428072pct	anregung	träumen	engagiert	gesittet	gütig	kuss	ausrottung	töten	engstirnig	geizig	gierig	krise	kreativ	sonnig	vergnügt	genießen	vertrauen	besonnen	krank	sterben	verbissen	gemein	versagen	bange	1		-8	2	Wie angenehm oder unangenehm finden Sie die  Buchstabenkette DHJF?	-8	1		-8	1		-8	1		-8	1	Unangenehm	-8	1	Angenehm	-8	0	0	0	0	0	0	0	0	0
2024-06-19	14:43:49	14:54:13	623611	6.6.1	4_exp_EVA_AWA_CON	90	A	B	Rpleas_acq	Oppo	Lpleas	1pleas	conawa_CS1_US3	conawa1_nomask	8	1	0	0	300	300	0	0	8718	vergnügt	1	29,4270833333333428072pct	anregung	träumen	engagiert	gesittet	gütig	kuss	ausrottung	töten	engstirnig	geizig	gierig	krise	kreativ	sonnig	vergnügt	genießen	vertrauen	besonnen	krank	sterben	verbissen	gemein	versagen	bange	0	0	0	0	0	0	0	0	0	0	0	0	0	0	0	0	0	0	0	0	0	0	0	0	0	0	0	0	0	0
2024-06-19	14:43:49	14:54:13	623612	6.6.1	4_exp_EVA_AWA_CON	90	A	B	Rpleas_acq	Oppo	Lpleas	1pleas	conawa_CS1_US3_confidence	conawa1_nomask	8	1	0	0	300	300	0	0	8718	guess	1	29,4270833333333428072pct	anregung	träumen	engagiert	gesittet	gütig	kuss	ausrottung	töten	engstirnig	geizig	gierig	krise	kreativ	sonnig	vergnügt	genießen	vertrauen	besonnen	krank	sterben	verbissen	gemein	versagen	bange	0	0	0	0	0	0	0	0	0	0	0	0	0	0	0	0	0	0	0	0	0	0	0	0	0	0	0	0	0	0
2024-06-19	14:43:49	14:54:23	634287	6.6.1	4_exp_EVA_AWA_CON	90	A	B	Rpleas_acq	Oppo	Lpleas	1pleas	conawa_CS1_US4	conawa1_nomask	8	2	0	0	300	300	0	0	10058	gesittet	1	29,4270833333333428072pct	anregung	träumen	engagiert	gesittet	gütig	kuss	ausrottung	töten	engstirnig	geizig	gierig	krise	kreativ	sonnig	vergnügt	genießen	vertrauen	besonnen	krank	sterben	verbissen	gemein	versagen	bange	0	0	0	0	0	0	0	0	0	0	0	0	0	0	0	0	0	0	0	0	0	0	0	0	0	0	0	0	0	0
2024-06-19	14:43:49	14:54:23	634288	6.6.1	4_exp_EVA_AWA_CON	90	A	B	Rpleas_acq	Oppo	Lpleas	1pleas	conawa_CS1_US4_confidence	conawa1_nomask	8	2	0	0	300	300	0	0	10058	guess	1	29,4270833333333428072pct	anregung	träumen	engagiert	gesittet	gütig	kuss	ausrottung	töten	engstirnig	geizig	gierig	krise	kreativ	sonnig	vergnügt	genießen	vertrauen	besonnen	krank	sterben	verbissen	gemein	versagen	bange	0	0	0	0	0	0	0	0	0	0	0	0	0	0	0	0	0	0	0	0	0	0	0	0	0	0	0	0	0	0
2024-06-19	14:43:49	14:54:30	640651	6.6.1	4_exp_EVA_AWA_CON	90	A	B	Rpleas_acq	Oppo	Lpleas	1pleas	conawa_CS2_US2	conawa1_nomask	8	3	0	0	300	300	0	0	5750	träumen	1	29,4270833333333428072pct	anregung	träumen	engagiert	gesittet	gütig	kuss	ausrottung	töten	engstirnig	geizig	gierig	krise	kreativ	sonnig	vergnügt	genießen	vertrauen	besonnen	krank	sterben	verbissen	gemein	versagen	bange	0	0	0	0	0	0	0	0	0	0	0	0	0	0	0	0	0	0	0	0	0	0	0	0	0	0	0	0	0	0
2024-06-19	14:43:49	14:54:30	640653	6.6.1	4_exp_EVA_AWA_CON	90	A	B	Rpleas_acq	Oppo	Lpleas	1pleas	conawa_CS2_US2_confidence	conawa1_nomask	8	3	0	0	300	300	0	0	5750	guess	1	29,4270833333333428072pct	anregung	träumen	engagiert	gesittet	gütig	kuss	ausrottung	töten	engstirnig	geizig	gierig	krise	kreativ	sonnig	vergnügt	genießen	vertrauen	besonnen	krank	sterben	verbissen	gemein	versagen	bange	0	0	0	0	0	0	0	0	0	0	0	0	0	0	0	0	0	0	0	0	0	0	0	0	0	0	0	0	0	0
2024-06-19	14:43:49	14:54:36	647196	6.6.1	4_exp_EVA_AWA_CON	90	A	B	Rpleas_acq	Oppo	Lpleas	1pleas	conawa_CS2_US5	conawa1_nomask	8	4	0	0	300	300	0	0	5940	gütig	1	29,4270833333333428072pct	anregung	träumen	engagiert	gesittet	gütig	kuss	ausrottung	töten	engstirnig	geizig	gierig	krise	kreativ	sonnig	vergnügt	genießen	vertrauen	besonnen	krank	sterben	verbissen	gemein	versagen	bange	0	0	0	0	0	0	0	0	0	0	0	0	0	0	0	0	0	0	0	0	0	0	0	0	0	0	0	0	0	0
2024-06-19	14:43:49	14:54:36	647198	6.6.1	4_exp_EVA_AWA_CON	90	A	B	Rpleas_acq	Oppo	Lpleas	1pleas	conawa_CS2_US5_confidence	conawa1_nomask	8	4	0	0	300	300	0	0	5940	guess	1	29,4270833333333428072pct	anregung	träumen	engagiert	gesittet	gütig	kuss	ausrottung	töten	engstirnig	geizig	gierig	krise	kreativ	sonnig	vergnügt	genießen	vertrauen	besonnen	krank	sterben	verbissen	gemein	versagen	bange	0	0	0	0	0	0	0	0	0	0	0	0	0	0	0	0	0	0	0	0	0	0	0	0	0	0	0	0	0	0
2024-06-19	14:43:49	14:54:45	655611	6.6.1	4_exp_EVA_AWA_CON	90	A	B	Rpleas_acq	Oppo	Lpleas	1pleas	conawa_CS1_US5	conawa1_nomask	8	5	0	0	300	300	0	0	7796	vertrauen	1	29,4270833333333428072pct	anregung	träumen	engagiert	gesittet	gütig	kuss	ausrottung	töten	engstirnig	geizig	gierig	krise	kreativ	sonnig	vergnügt	genießen	vertrauen	besonnen	krank	sterben	verbissen	gemein	versagen	bange	0	0	0	0	0	0	0	0	0	0	0	0	0	0	0	0	0	0	0	0	0	0	0	0	0	0	0	0	0	0
2024-06-19	14:43:49	14:54:45	655612	6.6.1	4_exp_EVA_AWA_CON	90	A	B	Rpleas_acq	Oppo	Lpleas	1pleas	conawa_CS1_US5_confidence	conawa1_nomask	8	5	0	0	300	300	0	0	7796	guess	1	29,4270833333333428072pct	anregung	träumen	engagiert	gesittet	gütig	kuss	ausrottung	töten	engstirnig	geizig	gierig	krise	kreativ	sonnig	vergnügt	genießen	vertrauen	besonnen	krank	sterben	verbissen	gemein	versagen	bange	0	0	0	0	0	0	0	0	0	0	0	0	0	0	0	0	0	0	0	0	0	0	0	0	0	0	0	0	0	0
2024-06-19	14:43:49	14:54:51	661805	6.6.1	4_exp_EVA_AWA_CON	90	A	B	Rpleas_acq	Oppo	Lpleas	1pleas	conawa_CS2_US1	conawa1_nomask	8	6	0	0	300	300	0	0	5581	sonnig	1	29,4270833333333428072pct	anregung	träumen	engagiert	gesittet	gütig	kuss	ausrottung	töten	engstirnig	geizig	gierig	krise	kreativ	sonnig	vergnügt	genießen	vertrauen	besonnen	krank	sterben	verbissen	gemein	versagen	bange	0	0	0	0	0	0	0	0	0	0	0	0	0	0	0	0	0	0	0	0	0	0	0	0	0	0	0	0	0	0
2024-06-19	14:43:49	14:54:51	661806	6.6.1	4_exp_EVA_AWA_CON	90	A	B	Rpleas_acq	Oppo	Lpleas	1pleas	conawa_CS2_US1_confidence	conawa1_nomask	8	6	0	0	300	300	0	0	5581	guess	1	29,4270833333333428072pct	anregung	träumen	engagiert	gesittet	gütig	kuss	ausrottung	töten	engstirnig	geizig	gierig	krise	kreativ	sonnig	vergnügt	genießen	vertrauen	besonnen	krank	sterben	verbissen	gemein	versagen	bange	0	0	0	0	0	0	0	0	0	0	0	0	0	0	0	0	0	0	0	0	0	0	0	0	0	0	0	0	0	0
2024-06-19	14:43:49	14:54:56	666858	6.6.1	4_exp_EVA_AWA_CON	90	A	B	Rpleas_acq	Oppo	Lpleas	1pleas	conawa_CS2_US3	conawa1_nomask	8	7	0	0	300	300	0	0	4442	genießen	1	29,4270833333333428072pct	anregung	träumen	engagiert	gesittet	gütig	kuss	ausrottung	töten	engstirnig	geizig	gierig	krise	kreativ	sonnig	vergnügt	genießen	vertrauen	besonnen	krank	sterben	verbissen	gemein	versagen	bange	0	0	0	0	0	0	0	0	0	0	0	0	0	0	0	0	0	0	0	0	0	0	0	0	0	0	0	0	0	0
2024-06-19	14:43:49	14:54:56	666859	6.6.1	4_exp_EVA_AWA_CON	90	A	B	Rpleas_acq	Oppo	Lpleas	1pleas	conawa_CS2_US3_confidence	conawa1_nomask	8	7	0	0	300	300	0	0	4442	guess	1	29,4270833333333428072pct	anregung	träumen	engagiert	gesittet	gütig	kuss	ausrottung	töten	engstirnig	geizig	gierig	krise	kreativ	sonnig	vergnügt	genießen	vertrauen	besonnen	krank	sterben	verbissen	gemein	versagen	bange	0	0	0	0	0	0	0	0	0	0	0	0	0	0	0	0	0	0	0	0	0	0	0	0	0	0	0	0	0	0
2024-06-19	14:43:49	14:55:00	670811	6.6.1	4_exp_EVA_AWA_CON	90	A	B	Rpleas_acq	Oppo	Lpleas	1pleas	conawa_CS1_US6	conawa1_nomask	8	8	0	0	300	300	0	0	3335	besonnen	1	29,4270833333333428072pct	anregung	träumen	engagiert	gesittet	gütig	kuss	ausrottung	töten	engstirnig	geizig	gierig	krise	kreativ	sonnig	vergnügt	genießen	vertrauen	besonnen	krank	sterben	verbissen	gemein	versagen	bange	0	0	0	0	0	0	0	0	0	0	0	0	0	0	0	0	0	0	0	0	0	0	0	0	0	0	0	0	0	0
2024-06-19	14:43:49	14:55:00	670812	6.6.1	4_exp_EVA_AWA_CON	90	A	B	Rpleas_acq	Oppo	Lpleas	1pleas	conawa_CS1_US6_confidence	conawa1_nomask	8	8	0	0	300	300	0	0	3335	guess	1	29,4270833333333428072pct	anregung	träumen	engagiert	gesittet	gütig	kuss	ausrottung	töten	engstirnig	geizig	gierig	krise	kreativ	sonnig	vergnügt	genießen	vertrauen	besonnen	krank	sterben	verbissen	gemein	versagen	bange	0	0	0	0	0	0	0	0	0	0	0	0	0	0	0	0	0	0	0	0	0	0	0	0	0	0	0	0	0	0
2024-06-19	14:43:49	14:55:06	676464	6.6.1	4_exp_EVA_AWA_CON	90	A	B	Rpleas_acq	Oppo	Lpleas	1pleas	conawa_CS1_US1	conawa1_nomask	8	9	0	0	300	300	0	0	5038	anregung	1	29,4270833333333428072pct	anregung	träumen	engagiert	gesittet	gütig	kuss	ausrottung	töten	engstirnig	geizig	gierig	krise	kreativ	sonnig	vergnügt	genießen	vertrauen	besonnen	krank	sterben	verbissen	gemein	versagen	bange	0	0	0	0	0	0	0	0	0	0	0	0	0	0	0	0	0	0	0	0	0	0	0	0	0	0	0	0	0	0
2024-06-19	14:43:49	14:55:06	676466	6.6.1	4_exp_EVA_AWA_CON	90	A	B	Rpleas_acq	Oppo	Lpleas	1pleas	conawa_CS1_US1_confidence	conawa1_nomask	8	9	0	0	300	300	0	0	5038	guess	1	29,4270833333333428072pct	anregung	träumen	engagiert	gesittet	gütig	kuss	ausrottung	töten	engstirnig	geizig	gierig	krise	kreativ	sonnig	vergnügt	genießen	vertrauen	besonnen	krank	sterben	verbissen	gemein	versagen	bange	0	0	0	0	0	0	0	0	0	0	0	0	0	0	0	0	0	0	0	0	0	0	0	0	0	0	0	0	0	0
2024-06-19	14:43:49	14:55:12	682939	6.6.1	4_exp_EVA_AWA_CON	90	A	B	Rpleas_acq	Oppo	Lpleas	1pleas	conawa_CS2_US6	conawa1_nomask	8	10	0	0	300	300	0	0	5863	kreativ	1	29,4270833333333428072pct	anregung	träumen	engagiert	gesittet	gütig	kuss	ausrottung	töten	engstirnig	geizig	gierig	krise	kreativ	sonnig	vergnügt	genießen	vertrauen	besonnen	krank	sterben	verbissen	gemein	versagen	bange	0	0	0	0	0	0	0	0	0	0	0	0	0	0	0	0	0	0	0	0	0	0	0	0	0	0	0	0	0	0
2024-06-19	14:43:49	14:55:12	682940	6.6.1	4_exp_EVA_AWA_CON	90	A	B	Rpleas_acq	Oppo	Lpleas	1pleas	conawa_CS2_US6_confidence	conawa1_nomask	8	10	0	0	300	300	0	0	5863	guess	1	29,4270833333333428072pct	anregung	träumen	engagiert	gesittet	gütig	kuss	ausrottung	töten	engstirnig	geizig	gierig	krise	kreativ	sonnig	vergnügt	genießen	vertrauen	besonnen	krank	sterben	verbissen	gemein	versagen	bange	0	0	0	0	0	0	0	0	0	0	0	0	0	0	0	0	0	0	0	0	0	0	0	0	0	0	0	0	0	0
2024-06-19	14:43:49	14:55:20	690824	6.6.1	4_exp_EVA_AWA_CON	90	A	B	Rpleas_acq	Oppo	Lpleas	1pleas	conawa_CS2_US4	conawa1_nomask	8	11	0	0	300	300	0	0	7269	gesittet	1	29,4270833333333428072pct	anregung	träumen	engagiert	gesittet	gütig	kuss	ausrottung	töten	engstirnig	geizig	gierig	krise	kreativ	sonnig	vergnügt	genießen	vertrauen	besonnen	krank	sterben	verbissen	gemein	versagen	bange	0	0	0	0	0	0	0	0	0	0	0	0	0	0	0	0	0	0	0	0	0	0	0	0	0	0	0	0	0	0
2024-06-19	14:43:49	14:55:20	690825	6.6.1	4_exp_EVA_AWA_CON	90	A	B	Rpleas_acq	Oppo	Lpleas	1pleas	conawa_CS2_US4_confidence	conawa1_nomask	8	11	0	0	300	300	0	0	7269	guess	1	29,4270833333333428072pct	anregung	träumen	engagiert	gesittet	gütig	kuss	ausrottung	töten	engstirnig	geizig	gierig	krise	kreativ	sonnig	vergnügt	genießen	vertrauen	besonnen	krank	sterben	verbissen	gemein	versagen	bange	0	0	0	0	0	0	0	0	0	0	0	0	0	0	0	0	0	0	0	0	0	0	0	0	0	0	0	0	0	0
2024-06-19	14:43:49	14:55:24	694956	6.6.1	4_exp_EVA_AWA_CON	90	A	B	Rpleas_acq	Oppo	Lpleas	1pleas	conawa_CS1_US2	conawa1_nomask	8	12	0	0	300	300	0	0	3519	sonnig	1	29,4270833333333428072pct	anregung	träumen	engagiert	gesittet	gütig	kuss	ausrottung	töten	engstirnig	geizig	gierig	krise	kreativ	sonnig	vergnügt	genießen	vertrauen	besonnen	krank	sterben	verbissen	gemein	versagen	bange	0	0	0	0	0	0	0	0	0	0	0	0	0	0	0	0	0	0	0	0	0	0	0	0	0	0	0	0	0	0
2024-06-19	14:43:49	14:55:24	694958	6.6.1	4_exp_EVA_AWA_CON	90	A	B	Rpleas_acq	Oppo	Lpleas	1pleas	conawa_CS1_US2_confidence	conawa1_nomask	8	12	0	0	300	300	0	0	3519	guess	1	29,4270833333333428072pct	anregung	träumen	engagiert	gesittet	gütig	kuss	ausrottung	töten	engstirnig	geizig	gierig	krise	kreativ	sonnig	vergnügt	genießen	vertrauen	besonnen	krank	sterben	verbissen	gemein	versagen	bange	0	0	0	0	0	0	0	0	0	0	0	0	0	0	0	0	0	0	0	0	0	0	0	0	0	0	0	0	0	0
2024-06-19	14:43:49	14:56:08	738568	6.6.1	4_exp_EVA_AWA_CON	90	A	B	Rpleas_acq	Oppo	Lpleas	1pleas	cond_US_pleas_123_nomask_CS2	condtest_nomask_1	11	1	400	0	300	300	0	0	93	46	1	29,4270833333333428072pct	anregung	träumen	engagiert	gesittet	gütig	kuss	ausrottung	töten	engstirnig	geizig	gierig	krise	kreativ	sonnig	vergnügt	genießen	vertrauen	besonnen	krank	sterben	verbissen	gemein	versagen	bange	1	blank2r.bmp	0	1	+	0	1	blank2r.bmp	500	1	DHJF	500	1	blank2r.bmp	880	1	engagiert	880	1	!	-1	1	!	-1	0	0	0	0	0	0
