date	time	currenttime	elapsedtime	build	currentexpt	subject	CS_AB	US_AB	LRpleas_acq	SameOppo	condition_Lpleas	condition_1pleas	trialcode	blockcode	blocknum	trialnum	windowcenter	inwindow	pretrialpause	posttrialpause	trialduration	trialtimeout	latency	response	correct	correctedscore	US_nomask_pleas1	US_nomask_pleas2	US_nomask_pleas3	US_nomask_pleas4	US_nomask_pleas5	US_nomask_pleas6	US_nomask_unple1	US_nomask_unple2	US_nomask_unple3	US_nomask_unple4	US_nomask_unple5	US_nomask_unple6	new_nomask_pleas1	new_nomask_pleas2	new_nomask_pleas3	new_nomask_pleas4	new_nomask_pleas5	new_nomask_pleas6	new_nomask_unple1	new_nomask_unple2	new_nomask_unple3	new_nomask_unple4	new_nomask_unple5	new_nomask_unple6	stimulusnumber1	stimulusitem1	stimulusonset1	stimulusnumber2	stimulusitem2	stimulusonset2	stimulusnumber3	stimulusitem3	stimulusonset3	stimulusnumber4	stimulusitem4	stimulusonset4	stimulusnumber5	stimulusitem5	stimulusonset5	stimulusnumber6	stimulusitem6	stimulusonset6	stimulusnumber7	stimulusitem7	stimulusonset7	stimulusnumber8	stimulusitem8	stimulusonset8	stimulusnumber9	stimulusitem9	stimulusonset9	stimulusnumber10	stimulusitem10	stimulusonset10
2024-06-19	14:17:24	14:21:50	265217	6.6.1	4_exp_EVA_AWA_CON	89	A	B	Rpleas_acq	Same	Rpleas	1pleas	acq_US_unple_nomask	acq1_nomask	1	1	0	0	300	300	0	0	1257	50	0	0	kreativ	anregung	sonnig	genießen	gütig	träumen	krank	ausrottung	sterben	gemein	gierig	töten	engagiert	vertrauen	gesittet	vergnügt	kuss	besonnen	engstirnig	versagen	geizig	verbissen	krise	bange	1	blank2r.bmp	0	1	+	0	1	blank2r.bmp	500	1	DHJF	500	1	blank2r.bmp	880	4	gemein	880	1	FEHLER	2159	0	0	0	0	0	0	0	0	0
2024-06-19	14:17:24	14:21:52	267600	6.6.1	4_exp_EVA_AWA_CON	89	A	B	Rpleas_acq	Same	Rpleas	1pleas	acq_new_unple_nomask	acq1_nomask	1	2	0	0	300	300	0	0	1100	46	1	0	kreativ	anregung	sonnig	genießen	gütig	träumen	krank	ausrottung	sterben	gemein	gierig	töten	engagiert	vertrauen	gesittet	vergnügt	kuss	besonnen	engstirnig	versagen	geizig	verbissen	krise	bange	1	blank2r.bmp	0	1	+	0	1	blank2r.bmp	500	1	B1r.bmp	500	1	blank2r.bmp	880	5	krise	880	0	0	0	0	0	0	0	0	0	0	0	0
2024-06-19	14:17:24	14:21:54	269799	6.6.1	4_exp_EVA_AWA_CON	89	A	B	Rpleas_acq	Same	Rpleas	1pleas	acq_US_pleas_nomask	acq1_nomask	1	3	0	0	300	300	0	0	718	50	1	0	kreativ	anregung	sonnig	genießen	gütig	träumen	krank	ausrottung	sterben	gemein	gierig	töten	engagiert	vertrauen	gesittet	vergnügt	kuss	besonnen	engstirnig	versagen	geizig	verbissen	krise	bange	1	blank2r.bmp	0	1	+	0	1	blank2r.bmp	500	1	CPLW	500	1	blank2r.bmp	880	1	kreativ	880	0	0	0	0	0	0	0	0	0	0	0	0
2024-06-19	14:17:24	14:21:56	271999	6.6.1	4_exp_EVA_AWA_CON	89	A	B	Rpleas_acq	Same	Rpleas	1pleas	acq_US_pleas_nomask	acq1_nomask	1	4	0	0	300	300	0	0	717	50	1	0	kreativ	anregung	sonnig	genießen	gütig	träumen	krank	ausrottung	sterben	gemein	gierig	töten	engagiert	vertrauen	gesittet	vergnügt	kuss	besonnen	engstirnig	versagen	geizig	verbissen	krise	bange	1	blank2r.bmp	0	1	+	0	1	blank2r.bmp	500	1	CPLW	500	1	blank2r.bmp	880	4	genießen	880	0	0	0	0	0	0	0	0	0	0	0	0
2024-06-19	14:17:24	14:21:59	274304	6.6.1	4_exp_EVA_AWA_CON	89	A	B	Rpleas_acq	Same	Rpleas	1pleas	acq_US_unple_nomask	acq1_nomask	1	5	0	0	300	300	0	0	819	46	1	0	kreativ	anregung	sonnig	genießen	gütig	träumen	krank	ausrottung	sterben	gemein	gierig	töten	engagiert	vertrauen	gesittet	vergnügt	kuss	besonnen	engstirnig	versagen	geizig	verbissen	krise	bange	1	blank2r.bmp	0	1	+	0	1	blank2r.bmp	500	1	DHJF	500	1	blank2r.bmp	880	1	krank	880	0	0	0	0	0	0	0	0	0	0	0	0
2024-06-19	14:17:24	14:22:01	276904	6.6.1	4_exp_EVA_AWA_CON	89	A	B	Rpleas_acq	Same	Rpleas	1pleas	acq_new_unple_nomask	acq1_nomask	1	6	0	0	300	300	0	0	1118	46	1	0	kreativ	anregung	sonnig	genießen	gütig	träumen	krank	ausrottung	sterben	gemein	gierig	töten	engagiert	vertrauen	gesittet	vergnügt	kuss	besonnen	engstirnig	versagen	geizig	verbissen	krise	bange	1	blank2r.bmp	0	1	+	0	1	blank2r.bmp	500	3	B3r.bmp	500	1	blank2r.bmp	880	6	bange	880	0	0	0	0	0	0	0	0	0	0	0	0
2024-06-19	14:17:24	14:22:03	278943	6.6.1	4_exp_EVA_AWA_CON	89	A	B	Rpleas_acq	Same	Rpleas	1pleas	acq_new_pleas_nomask	acq1_nomask	1	7	0	0	300	300	0	0	556	50	1	0	kreativ	anregung	sonnig	genießen	gütig	träumen	krank	ausrottung	sterben	gemein	gierig	töten	engagiert	vertrauen	gesittet	vergnügt	kuss	besonnen	engstirnig	versagen	geizig	verbissen	krise	bange	1	blank2r.bmp	0	1	+	0	1	blank2r.bmp	500	6	C2r.bmp	500	1	blank2r.bmp	880	5	kuss	880	0	0	0	0	0	0	0	0	0	0	0	0
2024-06-19	14:17:24	14:22:05	280983	6.6.1	4_exp_EVA_AWA_CON	89	A	B	Rpleas_acq	Same	Rpleas	1pleas	acq_US_pleas_nomask	acq1_nomask	1	8	0	0	300	300	0	0	555	50	1	0	kreativ	anregung	sonnig	genießen	gütig	träumen	krank	ausrottung	sterben	gemein	gierig	töten	engagiert	vertrauen	gesittet	vergnügt	kuss	besonnen	engstirnig	versagen	geizig	verbissen	krise	bange	1	blank2r.bmp	0	1	+	0	1	blank2r.bmp	500	1	CPLW	500	1	blank2r.bmp	880	6	träumen	880	0	0	0	0	0	0	0	0	0	0	0	0
2024-06-19	14:17:24	14:22:08	283183	6.6.1	4_exp_EVA_AWA_CON	89	A	B	Rpleas_acq	Same	Rpleas	1pleas	acq_new_unple_nomask	acq1_nomask	1	9	0	0	300	300	0	0	713	46	1	0	kreativ	anregung	sonnig	genießen	gütig	träumen	krank	ausrottung	sterben	gemein	gierig	töten	engagiert	vertrauen	gesittet	vergnügt	kuss	besonnen	engstirnig	versagen	geizig	verbissen	krise	bange	1	blank2r.bmp	0	1	+	0	1	blank2r.bmp	500	2	B2r.bmp	500	1	blank2r.bmp	880	1	engstirnig	880	0	0	0	0	0	0	0	0	0	0	0	0
2024-06-19	14:17:24	14:22:10	285256	6.6.1	4_exp_EVA_AWA_CON	89	A	B	Rpleas_acq	Same	Rpleas	1pleas	acq_new_pleas_nomask	acq1_nomask	1	10	0	0	300	300	0	0	584	50	1	0	kreativ	anregung	sonnig	genießen	gütig	träumen	krank	ausrottung	sterben	gemein	gierig	töten	engagiert	vertrauen	gesittet	vergnügt	kuss	besonnen	engstirnig	versagen	geizig	verbissen	krise	bange	1	blank2r.bmp	0	1	+	0	1	blank2r.bmp	500	8	C4r.bmp	500	1	blank2r.bmp	880	4	vergnügt	880	0	0	0	0	0	0	0	0	0	0	0	0
2024-06-19	14:17:24	14:22:12	287575	6.6.1	4_exp_EVA_AWA_CON	89	A	B	Rpleas_acq	Same	Rpleas	1pleas	acq_US_unple_nomask	acq1_nomask	1	11	0	0	300	300	0	0	833	46	1	0	kreativ	anregung	sonnig	genießen	gütig	träumen	krank	ausrottung	sterben	gemein	gierig	töten	engagiert	vertrauen	gesittet	vergnügt	kuss	besonnen	engstirnig	versagen	geizig	verbissen	krise	bange	1	blank2r.bmp	0	1	+	0	1	blank2r.bmp	500	1	DHJF	500	1	blank2r.bmp	880	2	ausrottung	880	0	0	0	0	0	0	0	0	0	0	0	0
2024-06-19	14:17:24	14:22:14	289816	6.6.1	4_exp_EVA_AWA_CON	89	A	B	Rpleas_acq	Same	Rpleas	1pleas	acq_new_pleas_nomask	acq1_nomask	1	12	0	0	300	300	0	0	751	50	1	0	kreativ	anregung	sonnig	genießen	gütig	träumen	krank	ausrottung	sterben	gemein	gierig	töten	engagiert	vertrauen	gesittet	vergnügt	kuss	besonnen	engstirnig	versagen	geizig	verbissen	krise	bange	1	blank2r.bmp	0	1	+	0	1	blank2r.bmp	500	5	C1r.bmp	500	1	blank2r.bmp	880	3	gesittet	880	0	0	0	0	0	0	0	0	0	0	0	0
2024-06-19	14:17:24	14:22:17	292135	6.6.1	4_exp_EVA_AWA_CON	89	A	B	Rpleas_acq	Same	Rpleas	1pleas	acq_US_pleas_nomask	acq1_nomask	1	13	0	0	300	300	0	0	840	50	1	0	kreativ	anregung	sonnig	genießen	gütig	träumen	krank	ausrottung	sterben	gemein	gierig	töten	engagiert	vertrauen	gesittet	vergnügt	kuss	besonnen	engstirnig	versagen	geizig	verbissen	krise	bange	1	blank2r.bmp	0	1	+	0	1	blank2r.bmp	500	1	CPLW	500	1	blank2r.bmp	880	2	anregung	880	0	0	0	0	0	0	0	0	0	0	0	0
2024-06-19	14:17:24	14:22:19	294271	6.6.1	4_exp_EVA_AWA_CON	89	A	B	Rpleas_acq	Same	Rpleas	1pleas	acq_US_pleas_nomask	acq1_nomask	1	14	0	0	300	300	0	0	654	50	1	0	kreativ	anregung	sonnig	genießen	gütig	träumen	krank	ausrottung	sterben	gemein	gierig	töten	engagiert	vertrauen	gesittet	vergnügt	kuss	besonnen	engstirnig	versagen	geizig	verbissen	krise	bange	1	blank2r.bmp	0	1	+	0	1	blank2r.bmp	500	1	CPLW	500	1	blank2r.bmp	880	3	sonnig	880	0	0	0	0	0	0	0	0	0	0	0	0
2024-06-19	14:17:24	14:22:21	296423	6.6.1	4_exp_EVA_AWA_CON	89	A	B	Rpleas_acq	Same	Rpleas	1pleas	acq_new_unple_nomask	acq1_nomask	1	15	0	0	300	300	0	0	665	46	1	0	kreativ	anregung	sonnig	genießen	gütig	träumen	krank	ausrottung	sterben	gemein	gierig	töten	engagiert	vertrauen	gesittet	vergnügt	kuss	besonnen	engstirnig	versagen	geizig	verbissen	krise	bange	1	blank2r.bmp	0	1	+	0	1	blank2r.bmp	500	4	B4r.bmp	500	1	blank2r.bmp	880	2	versagen	880	0	0	0	0	0	0	0	0	0	0	0	0
2024-06-19	14:17:24	14:22:23	298703	6.6.1	4_exp_EVA_AWA_CON	89	A	B	Rpleas_acq	Same	Rpleas	1pleas	acq_US_unple_nomask	acq1_nomask	1	16	0	0	300	300	0	0	793	46	1	0	kreativ	anregung	sonnig	genießen	gütig	träumen	krank	ausrottung	sterben	gemein	gierig	töten	engagiert	vertrauen	gesittet	vergnügt	kuss	besonnen	engstirnig	versagen	geizig	verbissen	krise	bange	1	blank2r.bmp	0	1	+	0	1	blank2r.bmp	500	1	DHJF	500	1	blank2r.bmp	880	5	gierig	880	0	0	0	0	0	0	0	0	0	0	0	0
2024-06-19	14:17:24	14:22:25	300888	6.6.1	4_exp_EVA_AWA_CON	89	A	B	Rpleas_acq	Same	Rpleas	1pleas	acq_new_pleas_nomask	acq1_nomask	1	17	0	0	300	300	0	0	696	50	1	0	kreativ	anregung	sonnig	genießen	gütig	träumen	krank	ausrottung	sterben	gemein	gierig	töten	engagiert	vertrauen	gesittet	vergnügt	kuss	besonnen	engstirnig	versagen	geizig	verbissen	krise	bange	1	blank2r.bmp	0	1	+	0	1	blank2r.bmp	500	7	C3r.bmp	500	1	blank2r.bmp	880	2	vertrauen	880	0	0	0	0	0	0	0	0	0	0	0	0
2024-06-19	14:17:24	14:22:27	302991	6.6.1	4_exp_EVA_AWA_CON	89	A	B	Rpleas_acq	Same	Rpleas	1pleas	acq_US_pleas_nomask	acq1_nomask	1	18	0	0	300	300	0	0	618	50	1	0	kreativ	anregung	sonnig	genießen	gütig	träumen	krank	ausrottung	sterben	gemein	gierig	töten	engagiert	vertrauen	gesittet	vergnügt	kuss	besonnen	engstirnig	versagen	geizig	verbissen	krise	bange	1	blank2r.bmp	0	1	+	0	1	blank2r.bmp	500	1	CPLW	500	1	blank2r.bmp	880	5	gütig	880	0	0	0	0	0	0	0	0	0	0	0	0
2024-06-19	14:17:24	14:22:29	305079	6.6.1	4_exp_EVA_AWA_CON	89	A	B	Rpleas_acq	Same	Rpleas	1pleas	acq_US_unple_nomask	acq1_nomask	1	19	0	0	300	300	0	0	605	46	1	0	kreativ	anregung	sonnig	genießen	gütig	träumen	krank	ausrottung	sterben	gemein	gierig	töten	engagiert	vertrauen	gesittet	vergnügt	kuss	besonnen	engstirnig	versagen	geizig	verbissen	krise	bange	1	blank2r.bmp	0	1	+	0	1	blank2r.bmp	500	1	DHJF	500	1	blank2r.bmp	880	6	töten	880	0	0	0	0	0	0	0	0	0	0	0	0
2024-06-19	14:17:24	14:22:32	307224	6.6.1	4_exp_EVA_AWA_CON	89	A	B	Rpleas_acq	Same	Rpleas	1pleas	acq_new_unple_nomask	acq1_nomask	1	20	0	0	300	300	0	0	658	46	1	0	kreativ	anregung	sonnig	genießen	gütig	träumen	krank	ausrottung	sterben	gemein	gierig	töten	engagiert	vertrauen	gesittet	vergnügt	kuss	besonnen	engstirnig	versagen	geizig	verbissen	krise	bange	1	blank2r.bmp	0	1	+	0	1	blank2r.bmp	500	1	B1r.bmp	500	1	blank2r.bmp	880	3	geizig	880	0	0	0	0	0	0	0	0	0	0	0	0
2024-06-19	14:17:24	14:22:34	309375	6.6.1	4_exp_EVA_AWA_CON	89	A	B	Rpleas_acq	Same	Rpleas	1pleas	acq_new_unple_nomask	acq1_nomask	1	21	0	0	300	300	0	0	668	46	1	0	kreativ	anregung	sonnig	genießen	gütig	träumen	krank	ausrottung	sterben	gemein	gierig	töten	engagiert	vertrauen	gesittet	vergnügt	kuss	besonnen	engstirnig	versagen	geizig	verbissen	krise	bange	1	blank2r.bmp	0	1	+	0	1	blank2r.bmp	500	3	B3r.bmp	500	1	blank2r.bmp	880	4	verbissen	880	0	0	0	0	0	0	0	0	0	0	0	0
2024-06-19	14:17:24	14:22:36	311567	6.6.1	4_exp_EVA_AWA_CON	89	A	B	Rpleas_acq	Same	Rpleas	1pleas	acq_new_pleas_nomask	acq1_nomask	1	22	0	0	300	300	0	0	709	50	1	0	kreativ	anregung	sonnig	genießen	gütig	träumen	krank	ausrottung	sterben	gemein	gierig	töten	engagiert	vertrauen	gesittet	vergnügt	kuss	besonnen	engstirnig	versagen	geizig	verbissen	krise	bange	1	blank2r.bmp	0	1	+	0	1	blank2r.bmp	500	8	C4r.bmp	500	1	blank2r.bmp	880	1	engagiert	880	0	0	0	0	0	0	0	0	0	0	0	0
2024-06-19	14:17:24	14:22:38	313592	6.6.1	4_exp_EVA_AWA_CON	89	A	B	Rpleas_acq	Same	Rpleas	1pleas	acq_new_pleas_nomask	acq1_nomask	1	23	0	0	300	300	0	0	541	50	1	0	kreativ	anregung	sonnig	genießen	gütig	träumen	krank	ausrottung	sterben	gemein	gierig	töten	engagiert	vertrauen	gesittet	vergnügt	kuss	besonnen	engstirnig	versagen	geizig	verbissen	krise	bange	1	blank2r.bmp	0	1	+	0	1	blank2r.bmp	500	4	B4r.bmp	500	1	blank2r.bmp	880	6	besonnen	880	0	0	0	0	0	0	0	0	0	0	0	0
2024-06-19	14:17:24	14:22:40	315743	6.6.1	4_exp_EVA_AWA_CON	89	A	B	Rpleas_acq	Same	Rpleas	1pleas	acq_US_unple_nomask	acq1_nomask	1	24	0	0	300	300	0	0	672	46	1	0	kreativ	anregung	sonnig	genießen	gütig	träumen	krank	ausrottung	sterben	gemein	gierig	töten	engagiert	vertrauen	gesittet	vergnügt	kuss	besonnen	engstirnig	versagen	geizig	verbissen	krise	bange	1	blank2r.bmp	0	1	+	0	1	blank2r.bmp	500	1	DHJF	500	1	blank2r.bmp	880	3	sterben	880	0	0	0	0	0	0	0	0	0	0	0	0
2024-06-19	14:17:24	14:22:42	317904	6.6.1	4_exp_EVA_AWA_CON	89	A	B	Rpleas_acq	Same	Rpleas	1pleas	acq_US_pleas_nomask	acq1_nomask	1	25	0	0	300	300	0	0	671	50	1	0	kreativ	anregung	sonnig	genießen	gütig	träumen	krank	ausrottung	sterben	gemein	gierig	töten	engagiert	vertrauen	gesittet	vergnügt	kuss	besonnen	engstirnig	versagen	geizig	verbissen	krise	bange	1	blank2r.bmp	0	1	+	0	1	blank2r.bmp	500	1	CPLW	500	1	blank2r.bmp	880	4	genießen	880	0	0	0	0	0	0	0	0	0	0	0	0
2024-06-19	14:17:24	14:22:45	320136	6.6.1	4_exp_EVA_AWA_CON	89	A	B	Rpleas_acq	Same	Rpleas	1pleas	acq_new_unple_nomask	acq1_nomask	1	26	0	0	300	300	0	0	751	46	1	0	kreativ	anregung	sonnig	genießen	gütig	träumen	krank	ausrottung	sterben	gemein	gierig	töten	engagiert	vertrauen	gesittet	vergnügt	kuss	besonnen	engstirnig	versagen	geizig	verbissen	krise	bange	1	blank2r.bmp	0	1	+	0	1	blank2r.bmp	500	5	C1r.bmp	500	1	blank2r.bmp	880	1	engstirnig	880	0	0	0	0	0	0	0	0	0	0	0	0
2024-06-19	14:17:24	14:22:47	322352	6.6.1	4_exp_EVA_AWA_CON	89	A	B	Rpleas_acq	Same	Rpleas	1pleas	acq_US_pleas_nomask	acq1_nomask	1	27	0	0	300	300	0	0	736	50	1	0	kreativ	anregung	sonnig	genießen	gütig	träumen	krank	ausrottung	sterben	gemein	gierig	töten	engagiert	vertrauen	gesittet	vergnügt	kuss	besonnen	engstirnig	versagen	geizig	verbissen	krise	bange	1	blank2r.bmp	0	1	+	0	1	blank2r.bmp	500	1	CPLW	500	1	blank2r.bmp	880	2	anregung	880	0	0	0	0	0	0	0	0	0	0	0	0
2024-06-19	14:17:24	14:22:49	324648	6.6.1	4_exp_EVA_AWA_CON	89	A	B	Rpleas_acq	Same	Rpleas	1pleas	acq_new_unple_nomask	acq1_nomask	1	28	0	0	300	300	0	0	810	46	1	0	kreativ	anregung	sonnig	genießen	gütig	träumen	krank	ausrottung	sterben	gemein	gierig	töten	engagiert	vertrauen	gesittet	vergnügt	kuss	besonnen	engstirnig	versagen	geizig	verbissen	krise	bange	1	blank2r.bmp	0	1	+	0	1	blank2r.bmp	500	6	C2r.bmp	500	1	blank2r.bmp	880	6	bange	880	0	0	0	0	0	0	0	0	0	0	0	0
2024-06-19	14:17:24	14:22:51	326720	6.6.1	4_exp_EVA_AWA_CON	89	A	B	Rpleas_acq	Same	Rpleas	1pleas	acq_US_pleas_nomask	acq1_nomask	1	29	0	0	300	300	0	0	591	50	1	0	kreativ	anregung	sonnig	genießen	gütig	träumen	krank	ausrottung	sterben	gemein	gierig	töten	engagiert	vertrauen	gesittet	vergnügt	kuss	besonnen	engstirnig	versagen	geizig	verbissen	krise	bange	1	blank2r.bmp	0	1	+	0	1	blank2r.bmp	500	1	CPLW	500	1	blank2r.bmp	880	5	gütig	880	0	0	0	0	0	0	0	0	0	0	0	0
2024-06-19	14:17:24	14:22:53	328847	6.6.1	4_exp_EVA_AWA_CON	89	A	B	Rpleas_acq	Same	Rpleas	1pleas	acq_new_unple_nomask	acq1_nomask	1	30	0	0	300	300	0	0	647	46	1	0	kreativ	anregung	sonnig	genießen	gütig	träumen	krank	ausrottung	sterben	gemein	gierig	töten	engagiert	vertrauen	gesittet	vergnügt	kuss	besonnen	engstirnig	versagen	geizig	verbissen	krise	bange	1	blank2r.bmp	0	1	+	0	1	blank2r.bmp	500	7	C3r.bmp	500	1	blank2r.bmp	880	2	versagen	880	0	0	0	0	0	0	0	0	0	0	0	0
2024-06-19	14:17:24	14:22:55	330975	6.6.1	4_exp_EVA_AWA_CON	89	A	B	Rpleas_acq	Same	Rpleas	1pleas	acq_US_unple_nomask	acq1_nomask	1	31	0	0	300	300	0	0	644	46	1	0	kreativ	anregung	sonnig	genießen	gütig	träumen	krank	ausrottung	sterben	gemein	gierig	töten	engagiert	vertrauen	gesittet	vergnügt	kuss	besonnen	engstirnig	versagen	geizig	verbissen	krise	bange	1	blank2r.bmp	0	1	+	0	1	blank2r.bmp	500	1	DHJF	500	1	blank2r.bmp	880	2	ausrottung	880	0	0	0	0	0	0	0	0	0	0	0	0
2024-06-19	14:17:24	14:22:57	333071	6.6.1	4_exp_EVA_AWA_CON	89	A	B	Rpleas_acq	Same	Rpleas	1pleas	acq_US_unple_nomask	acq1_nomask	1	32	0	0	300	300	0	0	609	46	1	0	kreativ	anregung	sonnig	genießen	gütig	träumen	krank	ausrottung	sterben	gemein	gierig	töten	engagiert	vertrauen	gesittet	vergnügt	kuss	besonnen	engstirnig	versagen	geizig	verbissen	krise	bange	1	blank2r.bmp	0	1	+	0	1	blank2r.bmp	500	1	DHJF	500	1	blank2r.bmp	880	1	krank	880	0	0	0	0	0	0	0	0	0	0	0	0
2024-06-19	14:17:24	14:22:59	335087	6.6.1	4_exp_EVA_AWA_CON	89	A	B	Rpleas_acq	Same	Rpleas	1pleas	acq_US_unple_nomask	acq1_nomask	1	33	0	0	300	300	0	0	533	46	1	0	kreativ	anregung	sonnig	genießen	gütig	träumen	krank	ausrottung	sterben	gemein	gierig	töten	engagiert	vertrauen	gesittet	vergnügt	kuss	besonnen	engstirnig	versagen	geizig	verbissen	krise	bange	1	blank2r.bmp	0	1	+	0	1	blank2r.bmp	500	1	DHJF	500	1	blank2r.bmp	880	6	töten	880	0	0	0	0	0	0	0	0	0	0	0	0
2024-06-19	14:17:24	14:23:02	337383	6.6.1	4_exp_EVA_AWA_CON	89	A	B	Rpleas_acq	Same	Rpleas	1pleas	acq_new_pleas_nomask	acq1_nomask	1	34	0	0	300	300	0	0	808	50	1	0	kreativ	anregung	sonnig	genießen	gütig	träumen	krank	ausrottung	sterben	gemein	gierig	töten	engagiert	vertrauen	gesittet	vergnügt	kuss	besonnen	engstirnig	versagen	geizig	verbissen	krise	bange	1	blank2r.bmp	0	1	+	0	1	blank2r.bmp	500	2	B2r.bmp	500	1	blank2r.bmp	880	4	vergnügt	880	0	0	0	0	0	0	0	0	0	0	0	0
2024-06-19	14:17:24	14:23:05	340168	6.6.1	4_exp_EVA_AWA_CON	89	A	B	Rpleas_acq	Same	Rpleas	1pleas	acq_new_pleas_nomask	acq1_nomask	1	35	0	0	300	300	0	0	1300	50	1	0	kreativ	anregung	sonnig	genießen	gütig	träumen	krank	ausrottung	sterben	gemein	gierig	töten	engagiert	vertrauen	gesittet	vergnügt	kuss	besonnen	engstirnig	versagen	geizig	verbissen	krise	bange	1	blank2r.bmp	0	1	+	0	1	blank2r.bmp	500	1	B1r.bmp	500	1	blank2r.bmp	880	1	engagiert	880	0	0	0	0	0	0	0	0	0	0	0	0
2024-06-19	14:17:24	14:23:07	342184	6.6.1	4_exp_EVA_AWA_CON	89	A	B	Rpleas_acq	Same	Rpleas	1pleas	acq_new_pleas_nomask	acq1_nomask	1	36	0	0	300	300	0	0	535	50	1	0	kreativ	anregung	sonnig	genießen	gütig	träumen	krank	ausrottung	sterben	gemein	gierig	töten	engagiert	vertrauen	gesittet	vergnügt	kuss	besonnen	engstirnig	versagen	geizig	verbissen	krise	bange	1	blank2r.bmp	0	1	+	0	1	blank2r.bmp	500	2	B2r.bmp	500	1	blank2r.bmp	880	5	kuss	880	0	0	0	0	0	0	0	0	0	0	0	0
2024-06-19	14:17:24	14:23:45	381125	6.6.1	4_exp_EVA_AWA_CON	89	A	B	Rpleas_acq	Same	Rpleas	1pleas	acq_new_pleas_nomask	acq2_nomask	2	1	480	0	300	300	0	0	5551	46	0	0	kreativ	anregung	sonnig	genießen	gütig	träumen	krank	ausrottung	sterben	gemein	gierig	töten	engagiert	vertrauen	gesittet	vergnügt	kuss	besonnen	engstirnig	versagen	geizig	verbissen	krise	bange	1	blank2r.bmp	0	1	+	0	1	blank2r.bmp	500	3	B3r.bmp	500	1	blank2r.bmp	880	6	besonnen	880	1	FEHLER	6744	1	!	1313	1	!	-1	0	0	0
2024-06-19	14:17:24	14:23:49	384481	6.6.1	4_exp_EVA_AWA_CON	89	A	B	Rpleas_acq	Same	Rpleas	1pleas	acq_US_unple_nomask	acq2_nomask	2	2	480	0	300	300	0	0	1786	46	1	0	kreativ	anregung	sonnig	genießen	gütig	träumen	krank	ausrottung	sterben	gemein	gierig	töten	engagiert	vertrauen	gesittet	vergnügt	kuss	besonnen	engstirnig	versagen	geizig	verbissen	krise	bange	1	blank2r.bmp	0	1	+	0	1	blank2r.bmp	500	1	DHJF	500	1	blank2r.bmp	880	4	gemein	880	1	!	1312	1	!	-1	0	0	0	0	0	0
2024-06-19	14:17:24	14:23:51	386833	6.6.1	4_exp_EVA_AWA_CON	89	A	B	Rpleas_acq	Same	Rpleas	1pleas	acq_new_pleas_nomask	acq2_nomask	2	3	480	0	300	300	0	0	576	50	1	0	kreativ	anregung	sonnig	genießen	gütig	träumen	krank	ausrottung	sterben	gemein	gierig	töten	engagiert	vertrauen	gesittet	vergnügt	kuss	besonnen	engstirnig	versagen	geizig	verbissen	krise	bange	1	blank2r.bmp	0	1	+	0	1	blank2r.bmp	500	8	C4r.bmp	500	1	blank2r.bmp	880	2	vertrauen	880	1	!	1313	1	!	-1	0	0	0	0	0	0
2024-06-19	14:17:24	14:23:53	389092	6.6.1	4_exp_EVA_AWA_CON	89	A	B	Rpleas_acq	Same	Rpleas	1pleas	acq_US_unple_nomask	acq2_nomask	2	4	480	1	300	300	0	0	480	46	1	0	kreativ	anregung	sonnig	genießen	gütig	träumen	krank	ausrottung	sterben	gemein	gierig	töten	engagiert	vertrauen	gesittet	vergnügt	kuss	besonnen	engstirnig	versagen	geizig	verbissen	krise	bange	1	blank2r.bmp	0	1	+	0	1	blank2r.bmp	500	1	DHJF	500	1	blank2r.bmp	880	3	sterben	880	1	!	1312	1	!	1382	0	0	0	0	0	0
2024-06-19	14:17:24	14:23:56	391289	6.6.1	4_exp_EVA_AWA_CON	89	A	B	Rpleas_acq	Same	Rpleas	1pleas	acq_US_pleas_nomask	acq2_nomask	2	5	480	1	300	300	0	0	419	50	1	0	kreativ	anregung	sonnig	genießen	gütig	träumen	krank	ausrottung	sterben	gemein	gierig	töten	engagiert	vertrauen	gesittet	vergnügt	kuss	besonnen	engstirnig	versagen	geizig	verbissen	krise	bange	1	blank2r.bmp	0	1	+	0	1	blank2r.bmp	500	1	CPLW	500	1	blank2r.bmp	880	6	träumen	880	1	!	1313	1	!	1318	0	0	0	0	0	0
2024-06-19	14:17:24	14:23:58	393499	6.6.1	4_exp_EVA_AWA_CON	89	A	B	Rpleas_acq	Same	Rpleas	1pleas	acq_US_pleas_nomask	acq2_nomask	2	6	480	1	300	300	0	0	435	50	1	0	kreativ	anregung	sonnig	genießen	gütig	träumen	krank	ausrottung	sterben	gemein	gierig	töten	engagiert	vertrauen	gesittet	vergnügt	kuss	besonnen	engstirnig	versagen	geizig	verbissen	krise	bange	1	blank2r.bmp	0	1	+	0	1	blank2r.bmp	500	1	CPLW	500	1	blank2r.bmp	880	1	kreativ	880	1	!	1313	1	!	1336	0	0	0	0	0	0
2024-06-19	14:17:24	14:24:00	395723	6.6.1	4_exp_EVA_AWA_CON	89	A	B	Rpleas_acq	Same	Rpleas	1pleas	acq_new_unple_nomask	acq2_nomask	2	7	480	1	300	300	0	0	448	46	1	0	kreativ	anregung	sonnig	genießen	gütig	träumen	krank	ausrottung	sterben	gemein	gierig	töten	engagiert	vertrauen	gesittet	vergnügt	kuss	besonnen	engstirnig	versagen	geizig	verbissen	krise	bange	1	blank2r.bmp	0	1	+	0	1	blank2r.bmp	500	4	B4r.bmp	500	1	blank2r.bmp	880	4	verbissen	880	1	!	1313	1	!	1349	0	0	0	0	0	0
2024-06-19	14:17:24	14:24:03	398132	6.6.1	4_exp_EVA_AWA_CON	89	A	B	Rpleas_acq	Same	Rpleas	1pleas	acq_new_unple_nomask	acq2_nomask	2	8	480	1	300	300	0	0	424	50	0	0	kreativ	anregung	sonnig	genießen	gütig	träumen	krank	ausrottung	sterben	gemein	gierig	töten	engagiert	vertrauen	gesittet	vergnügt	kuss	besonnen	engstirnig	versagen	geizig	verbissen	krise	bange	1	blank2r.bmp	0	1	+	0	1	blank2r.bmp	500	6	C2r.bmp	500	1	blank2r.bmp	880	3	geizig	880	1	FEHLER	1617	1	!	1312	1	!	1325	0	0	0
2024-06-19	14:17:24	14:24:05	400121	6.6.1	4_exp_EVA_AWA_CON	89	A	B	Rpleas_acq	Same	Rpleas	1pleas	acq_new_pleas_nomask	acq2_nomask	2	9	480	1	300	300	0	0	415	50	1	0	kreativ	anregung	sonnig	genießen	gütig	träumen	krank	ausrottung	sterben	gemein	gierig	töten	engagiert	vertrauen	gesittet	vergnügt	kuss	besonnen	engstirnig	versagen	geizig	verbissen	krise	bange	1	blank2r.bmp	0	1	+	0	1	blank2r.bmp	500	5	C1r.bmp	500	1	blank2r.bmp	880	3	gesittet	880	1	!	1312	1	!	1314	0	0	0	0	0	0
2024-06-19	14:17:24	14:24:07	402355	6.6.1	4_exp_EVA_AWA_CON	89	A	B	Rpleas_acq	Same	Rpleas	1pleas	acq_US_unple_nomask	acq2_nomask	2	10	480	1	300	300	0	0	455	46	1	0	kreativ	anregung	sonnig	genießen	gütig	träumen	krank	ausrottung	sterben	gemein	gierig	töten	engagiert	vertrauen	gesittet	vergnügt	kuss	besonnen	engstirnig	versagen	geizig	verbissen	krise	bange	1	blank2r.bmp	0	1	+	0	1	blank2r.bmp	500	1	DHJF	500	1	blank2r.bmp	880	5	gierig	880	1	!	1312	1	!	1356	0	0	0	0	0	0
2024-06-19	14:17:24	14:24:09	404612	6.6.1	4_exp_EVA_AWA_CON	89	A	B	Rpleas_acq	Same	Rpleas	1pleas	acq_new_unple_nomask	acq2_nomask	2	11	480	1	300	300	0	0	480	46	1	0	kreativ	anregung	sonnig	genießen	gütig	träumen	krank	ausrottung	sterben	gemein	gierig	töten	engagiert	vertrauen	gesittet	vergnügt	kuss	besonnen	engstirnig	versagen	geizig	verbissen	krise	bange	1	blank2r.bmp	0	1	+	0	1	blank2r.bmp	500	7	C3r.bmp	500	1	blank2r.bmp	880	5	krise	880	1	!	1313	1	!	1382	0	0	0	0	0	0
2024-06-19	14:17:24	14:24:11	406753	6.6.1	4_exp_EVA_AWA_CON	89	A	B	Rpleas_acq	Same	Rpleas	1pleas	acq_US_pleas_nomask	acq2_nomask	2	12	480	0	300	300	0	0	363	50	1	0	kreativ	anregung	sonnig	genießen	gütig	träumen	krank	ausrottung	sterben	gemein	gierig	töten	engagiert	vertrauen	gesittet	vergnügt	kuss	besonnen	engstirnig	versagen	geizig	verbissen	krise	bange	1	blank2r.bmp	0	1	+	0	1	blank2r.bmp	500	1	CPLW	500	1	blank2r.bmp	880	3	sonnig	880	1	!	-1	1	!	-1	0	0	0	0	0	0
2024-06-19	14:17:24	14:24:16	411257	6.6.1	4_exp_EVA_AWA_CON	89	A	B	Rpleas_acq	Same	Rpleas	1pleas	acq_new_unple_nomask	acq2_nomask	2	13	480	0	300	300	0	0	2725	46	1	0	kreativ	anregung	sonnig	genießen	gütig	träumen	krank	ausrottung	sterben	gemein	gierig	töten	engagiert	vertrauen	gesittet	vergnügt	kuss	besonnen	engstirnig	versagen	geizig	verbissen	krise	bange	1	blank2r.bmp	0	1	+	0	1	blank2r.bmp	500	6	C2r.bmp	500	1	blank2r.bmp	880	2	versagen	880	1	!	1313	1	!	-1	0	0	0	0	0	0
2024-06-19	14:17:24	14:24:18	413475	6.6.1	4_exp_EVA_AWA_CON	89	A	B	Rpleas_acq	Same	Rpleas	1pleas	acq_new_unple_nomask	acq2_nomask	2	14	480	1	300	300	0	0	438	46	1	0	kreativ	anregung	sonnig	genießen	gütig	träumen	krank	ausrottung	sterben	gemein	gierig	töten	engagiert	vertrauen	gesittet	vergnügt	kuss	besonnen	engstirnig	versagen	geizig	verbissen	krise	bange	1	blank2r.bmp	0	1	+	0	1	blank2r.bmp	500	2	B2r.bmp	500	1	blank2r.bmp	880	4	verbissen	880	1	!	1312	1	!	1339	0	0	0	0	0	0
2024-06-19	14:17:24	14:24:20	415545	6.6.1	4_exp_EVA_AWA_CON	89	A	B	Rpleas_acq	Same	Rpleas	1pleas	acq_US_pleas_nomask	acq2_nomask	2	15	480	0	300	300	0	0	289	50	1	0	kreativ	anregung	sonnig	genießen	gütig	träumen	krank	ausrottung	sterben	gemein	gierig	töten	engagiert	vertrauen	gesittet	vergnügt	kuss	besonnen	engstirnig	versagen	geizig	verbissen	krise	bange	1	blank2r.bmp	0	1	+	0	1	blank2r.bmp	500	1	CPLW	500	1	blank2r.bmp	880	1	kreativ	880	1	!	-1	1	!	-1	0	0	0	0	0	0
2024-06-19	14:17:24	14:24:22	417747	6.6.1	4_exp_EVA_AWA_CON	89	A	B	Rpleas_acq	Same	Rpleas	1pleas	acq_new_unple_nomask	acq2_nomask	2	16	480	1	300	300	0	0	427	46	1	0	kreativ	anregung	sonnig	genießen	gütig	träumen	krank	ausrottung	sterben	gemein	gierig	töten	engagiert	vertrauen	gesittet	vergnügt	kuss	besonnen	engstirnig	versagen	geizig	verbissen	krise	bange	1	blank2r.bmp	0	1	+	0	1	blank2r.bmp	500	4	B4r.bmp	500	1	blank2r.bmp	880	1	engstirnig	880	1	!	1313	1	!	1328	0	0	0	0	0	0
2024-06-19	14:17:24	14:24:24	420076	6.6.1	4_exp_EVA_AWA_CON	89	A	B	Rpleas_acq	Same	Rpleas	1pleas	acq_US_unple_nomask	acq2_nomask	2	17	480	0	300	300	0	0	354	50	0	0	kreativ	anregung	sonnig	genießen	gütig	träumen	krank	ausrottung	sterben	gemein	gierig	töten	engagiert	vertrauen	gesittet	vergnügt	kuss	besonnen	engstirnig	versagen	geizig	verbissen	krise	bange	1	blank2r.bmp	0	1	+	0	1	blank2r.bmp	500	1	DHJF	500	1	blank2r.bmp	880	1	krank	880	1	FEHLER	1547	1	!	-1	1	!	-1	0	0	0
2024-06-19	14:17:24	14:24:26	422107	6.6.1	4_exp_EVA_AWA_CON	89	A	B	Rpleas_acq	Same	Rpleas	1pleas	acq_US_unple_nomask	acq2_nomask	2	18	480	1	300	300	0	0	455	46	1	0	kreativ	anregung	sonnig	genießen	gütig	träumen	krank	ausrottung	sterben	gemein	gierig	töten	engagiert	vertrauen	gesittet	vergnügt	kuss	besonnen	engstirnig	versagen	geizig	verbissen	krise	bange	1	blank2r.bmp	0	1	+	0	1	blank2r.bmp	500	1	DHJF	500	1	blank2r.bmp	880	6	töten	880	1	!	1312	1	!	1355	0	0	0	0	0	0
2024-06-19	14:17:24	14:24:29	424387	6.6.1	4_exp_EVA_AWA_CON	89	A	B	Rpleas_acq	Same	Rpleas	1pleas	acq_US_pleas_nomask	acq2_nomask	2	19	480	1	300	300	0	0	503	50	1	0	kreativ	anregung	sonnig	genießen	gütig	träumen	krank	ausrottung	sterben	gemein	gierig	töten	engagiert	vertrauen	gesittet	vergnügt	kuss	besonnen	engstirnig	versagen	geizig	verbissen	krise	bange	1	blank2r.bmp	0	1	+	0	1	blank2r.bmp	500	1	CPLW	500	1	blank2r.bmp	880	3	sonnig	880	1	!	1312	1	!	1404	0	0	0	0	0	0
2024-06-19	14:17:24	14:24:31	426845	6.6.1	4_exp_EVA_AWA_CON	89	A	B	Rpleas_acq	Same	Rpleas	1pleas	acq_new_pleas_nomask	acq2_nomask	2	20	480	1	300	300	0	0	478	46	0	0	kreativ	anregung	sonnig	genießen	gütig	träumen	krank	ausrottung	sterben	gemein	gierig	töten	engagiert	vertrauen	gesittet	vergnügt	kuss	besonnen	engstirnig	versagen	geizig	verbissen	krise	bange	1	blank2r.bmp	0	1	+	0	1	blank2r.bmp	500	7	C3r.bmp	500	1	blank2r.bmp	880	3	gesittet	880	1	FEHLER	1671	1	!	1313	1	!	1379	0	0	0
2024-06-19	14:17:24	14:24:35	430412	6.6.1	4_exp_EVA_AWA_CON	89	A	B	Rpleas_acq	Same	Rpleas	1pleas	acq_US_pleas_nomask	acq2_nomask	2	21	480	0	300	300	0	0	1784	46	0	0	kreativ	anregung	sonnig	genießen	gütig	träumen	krank	ausrottung	sterben	gemein	gierig	töten	engagiert	vertrauen	gesittet	vergnügt	kuss	besonnen	engstirnig	versagen	geizig	verbissen	krise	bange	1	blank2r.bmp	0	1	+	0	1	blank2r.bmp	500	1	CPLW	500	1	blank2r.bmp	880	5	gütig	880	1	FEHLER	2977	1	!	1313	1	!	-1	0	0	0
2024-06-19	14:17:24	14:24:37	432419	6.6.1	4_exp_EVA_AWA_CON	89	A	B	Rpleas_acq	Same	Rpleas	1pleas	acq_US_unple_nomask	acq2_nomask	2	22	480	1	300	300	0	0	430	46	1	0	kreativ	anregung	sonnig	genießen	gütig	träumen	krank	ausrottung	sterben	gemein	gierig	töten	engagiert	vertrauen	gesittet	vergnügt	kuss	besonnen	engstirnig	versagen	geizig	verbissen	krise	bange	1	blank2r.bmp	0	1	+	0	1	blank2r.bmp	500	1	DHJF	500	1	blank2r.bmp	880	2	ausrottung	880	1	!	1313	1	!	1331	0	0	0	0	0	0
2024-06-19	14:17:24	14:24:39	434667	6.6.1	4_exp_EVA_AWA_CON	89	A	B	Rpleas_acq	Same	Rpleas	1pleas	acq_new_pleas_nomask	acq2_nomask	2	23	480	1	300	300	0	0	466	50	1	0	kreativ	anregung	sonnig	genießen	gütig	träumen	krank	ausrottung	sterben	gemein	gierig	töten	engagiert	vertrauen	gesittet	vergnügt	kuss	besonnen	engstirnig	versagen	geizig	verbissen	krise	bange	1	blank2r.bmp	0	1	+	0	1	blank2r.bmp	500	1	B1r.bmp	500	1	blank2r.bmp	880	2	vertrauen	880	1	!	1312	1	!	1367	0	0	0	0	0	0
2024-06-19	14:17:24	14:24:41	437092	6.6.1	4_exp_EVA_AWA_CON	89	A	B	Rpleas_acq	Same	Rpleas	1pleas	acq_new_pleas_nomask	acq2_nomask	2	24	480	1	300	300	0	0	449	46	0	0	kreativ	anregung	sonnig	genießen	gütig	träumen	krank	ausrottung	sterben	gemein	gierig	töten	engagiert	vertrauen	gesittet	vergnügt	kuss	besonnen	engstirnig	versagen	geizig	verbissen	krise	bange	1	blank2r.bmp	0	1	+	0	1	blank2r.bmp	500	5	C1r.bmp	500	1	blank2r.bmp	880	4	vergnügt	880	1	FEHLER	1642	1	!	1313	1	!	1350	0	0	0
2024-06-19	14:17:24	14:24:44	439305	6.6.1	4_exp_EVA_AWA_CON	89	A	B	Rpleas_acq	Same	Rpleas	1pleas	acq_new_unple_nomask	acq2_nomask	2	25	480	0	300	300	0	0	633	46	1	0	kreativ	anregung	sonnig	genießen	gütig	träumen	krank	ausrottung	sterben	gemein	gierig	töten	engagiert	vertrauen	gesittet	vergnügt	kuss	besonnen	engstirnig	versagen	geizig	verbissen	krise	bange	1	blank2r.bmp	0	1	+	0	1	blank2r.bmp	500	8	C4r.bmp	500	1	blank2r.bmp	880	6	bange	880	1	!	1312	1	!	-1	0	0	0	0	0	0
2024-06-19	14:17:24	14:24:46	441401	6.6.1	4_exp_EVA_AWA_CON	89	A	B	Rpleas_acq	Same	Rpleas	1pleas	acq_US_pleas_nomask	acq2_nomask	2	26	480	0	300	300	0	0	318	50	1	0	kreativ	anregung	sonnig	genießen	gütig	träumen	krank	ausrottung	sterben	gemein	gierig	töten	engagiert	vertrauen	gesittet	vergnügt	kuss	besonnen	engstirnig	versagen	geizig	verbissen	krise	bange	1	blank2r.bmp	0	1	+	0	1	blank2r.bmp	500	1	CPLW	500	1	blank2r.bmp	880	2	anregung	880	1	!	-1	1	!	-1	0	0	0	0	0	0
2024-06-19	14:17:24	14:24:48	443772	6.6.1	4_exp_EVA_AWA_CON	89	A	B	Rpleas_acq	Same	Rpleas	1pleas	acq_new_unple_nomask	acq2_nomask	2	27	480	0	300	300	0	0	395	50	0	0	kreativ	anregung	sonnig	genießen	gütig	träumen	krank	ausrottung	sterben	gemein	gierig	töten	engagiert	vertrauen	gesittet	vergnügt	kuss	besonnen	engstirnig	versagen	geizig	verbissen	krise	bange	1	blank2r.bmp	0	1	+	0	1	blank2r.bmp	500	3	B3r.bmp	500	1	blank2r.bmp	880	3	geizig	880	1	FEHLER	1587	1	!	-1	1	!	-1	0	0	0
2024-06-19	14:17:24	14:24:50	445819	6.6.1	4_exp_EVA_AWA_CON	89	A	B	Rpleas_acq	Same	Rpleas	1pleas	acq_US_pleas_nomask	acq2_nomask	2	28	480	1	300	300	0	0	471	50	1	0	kreativ	anregung	sonnig	genießen	gütig	träumen	krank	ausrottung	sterben	gemein	gierig	töten	engagiert	vertrauen	gesittet	vergnügt	kuss	besonnen	engstirnig	versagen	geizig	verbissen	krise	bange	1	blank2r.bmp	0	1	+	0	1	blank2r.bmp	500	1	CPLW	500	1	blank2r.bmp	880	6	träumen	880	1	!	1313	1	!	1373	0	0	0	0	0	0
2024-06-19	14:17:24	14:24:52	448107	6.6.1	4_exp_EVA_AWA_CON	89	A	B	Rpleas_acq	Same	Rpleas	1pleas	acq_new_pleas_nomask	acq2_nomask	2	29	480	1	300	300	0	0	508	50	1	0	kreativ	anregung	sonnig	genießen	gütig	träumen	krank	ausrottung	sterben	gemein	gierig	töten	engagiert	vertrauen	gesittet	vergnügt	kuss	besonnen	engstirnig	versagen	geizig	verbissen	krise	bange	1	blank2r.bmp	0	1	+	0	1	blank2r.bmp	500	4	B4r.bmp	500	1	blank2r.bmp	880	6	besonnen	880	1	!	1312	1	!	1409	0	0	0	0	0	0
2024-06-19	14:17:24	14:24:55	450521	6.6.1	4_exp_EVA_AWA_CON	89	A	B	Rpleas_acq	Same	Rpleas	1pleas	acq_US_unple_nomask	acq2_nomask	2	30	480	0	300	300	0	0	642	46	1	0	kreativ	anregung	sonnig	genießen	gütig	träumen	krank	ausrottung	sterben	gemein	gierig	töten	engagiert	vertrauen	gesittet	vergnügt	kuss	besonnen	engstirnig	versagen	geizig	verbissen	krise	bange	1	blank2r.bmp	0	1	+	0	1	blank2r.bmp	500	1	DHJF	500	1	blank2r.bmp	880	4	gemein	880	1	!	1313	1	!	-1	0	0	0	0	0	0
2024-06-19	14:17:24	14:24:57	452973	6.6.1	4_exp_EVA_AWA_CON	89	A	B	Rpleas_acq	Same	Rpleas	1pleas	acq_new_pleas_nomask	acq2_nomask	2	31	480	1	300	300	0	0	469	46	0	0	kreativ	anregung	sonnig	genießen	gütig	träumen	krank	ausrottung	sterben	gemein	gierig	töten	engagiert	vertrauen	gesittet	vergnügt	kuss	besonnen	engstirnig	versagen	geizig	verbissen	krise	bange	1	blank2r.bmp	0	1	+	0	1	blank2r.bmp	500	7	C3r.bmp	500	1	blank2r.bmp	880	1	engagiert	880	1	FEHLER	1662	1	!	1313	1	!	1369	0	0	0
2024-06-19	14:17:24	14:24:59	455019	6.6.1	4_exp_EVA_AWA_CON	89	A	B	Rpleas_acq	Same	Rpleas	1pleas	acq_US_unple_nomask	acq2_nomask	2	32	480	1	300	300	0	0	465	46	1	0	kreativ	anregung	sonnig	genießen	gütig	träumen	krank	ausrottung	sterben	gemein	gierig	töten	engagiert	vertrauen	gesittet	vergnügt	kuss	besonnen	engstirnig	versagen	geizig	verbissen	krise	bange	1	blank2r.bmp	0	1	+	0	1	blank2r.bmp	500	1	DHJF	500	1	blank2r.bmp	880	5	gierig	880	1	!	1313	1	!	1366	0	0	0	0	0	0
2024-06-19	14:17:24	14:25:02	457283	6.6.1	4_exp_EVA_AWA_CON	89	A	B	Rpleas_acq	Same	Rpleas	1pleas	acq_new_pleas_nomask	acq2_nomask	2	33	480	1	300	300	0	0	488	50	1	0	kreativ	anregung	sonnig	genießen	gütig	träumen	krank	ausrottung	sterben	gemein	gierig	töten	engagiert	vertrauen	gesittet	vergnügt	kuss	besonnen	engstirnig	versagen	geizig	verbissen	krise	bange	1	blank2r.bmp	0	1	+	0	1	blank2r.bmp	500	1	B1r.bmp	500	1	blank2r.bmp	880	5	kuss	880	1	!	1313	1	!	1389	0	0	0	0	0	0
2024-06-19	14:17:24	14:25:04	459579	6.6.1	4_exp_EVA_AWA_CON	89	A	B	Rpleas_acq	Same	Rpleas	1pleas	acq_new_unple_nomask	acq2_nomask	2	34	480	1	300	300	0	0	522	46	1	0	kreativ	anregung	sonnig	genießen	gütig	träumen	krank	ausrottung	sterben	gemein	gierig	töten	engagiert	vertrauen	gesittet	vergnügt	kuss	besonnen	engstirnig	versagen	geizig	verbissen	krise	bange	1	blank2r.bmp	0	1	+	0	1	blank2r.bmp	500	2	B2r.bmp	500	1	blank2r.bmp	880	5	krise	880	1	!	1312	1	!	1423	0	0	0	0	0	0
2024-06-19	14:17:24	14:25:06	462045	6.6.1	4_exp_EVA_AWA_CON	89	A	B	Rpleas_acq	Same	Rpleas	1pleas	acq_US_unple_nomask	acq2_nomask	2	35	480	1	300	300	0	0	485	50	0	0	kreativ	anregung	sonnig	genießen	gütig	träumen	krank	ausrottung	sterben	gemein	gierig	töten	engagiert	vertrauen	gesittet	vergnügt	kuss	besonnen	engstirnig	versagen	geizig	verbissen	krise	bange	1	blank2r.bmp	0	1	+	0	1	blank2r.bmp	500	1	DHJF	500	1	blank2r.bmp	880	3	sterben	880	1	FEHLER	1678	1	!	1313	1	!	1386	0	0	0
2024-06-19	14:17:24	14:25:09	464265	6.6.1	4_exp_EVA_AWA_CON	89	A	B	Rpleas_acq	Same	Rpleas	1pleas	acq_US_pleas_nomask	acq2_nomask	2	36	480	0	300	300	0	0	647	50	1	0	kreativ	anregung	sonnig	genießen	gütig	träumen	krank	ausrottung	sterben	gemein	gierig	töten	engagiert	vertrauen	gesittet	vergnügt	kuss	besonnen	engstirnig	versagen	geizig	verbissen	krise	bange	1	blank2r.bmp	0	1	+	0	1	blank2r.bmp	500	1	CPLW	500	1	blank2r.bmp	880	4	genießen	880	1	!	1312	1	!	-1	0	0	0	0	0	0
2024-06-19	14:17:24	14:25:20	475665	6.6.1	4_exp_EVA_AWA_CON	89	A	B	Rpleas_acq	Same	Rpleas	1pleas	acq_US_unple_nomask	acq3_nomask	3	1	453	0	300	300	0	0	540	46	1	0	kreativ	anregung	sonnig	genießen	gütig	träumen	krank	ausrottung	sterben	gemein	gierig	töten	engagiert	vertrauen	gesittet	vergnügt	kuss	besonnen	engstirnig	versagen	geizig	verbissen	krise	bange	1	blank2r.bmp	0	1	+	0	1	blank2r.bmp	500	1	DHJF	500	1	blank2r.bmp	880	3	sterben	880	1	!	1293	1	!	-1	0	0	0	0	0	0
2024-06-19	14:17:24	14:25:22	478076	6.6.1	4_exp_EVA_AWA_CON	89	A	B	Rpleas_acq	Same	Rpleas	1pleas	acq_US_unple_nomask	acq3_nomask	3	2	453	1	300	300	0	0	426	50	0	0	kreativ	anregung	sonnig	genießen	gütig	träumen	krank	ausrottung	sterben	gemein	gierig	töten	engagiert	vertrauen	gesittet	vergnügt	kuss	besonnen	engstirnig	versagen	geizig	verbissen	krise	bange	1	blank2r.bmp	0	1	+	0	1	blank2r.bmp	500	1	DHJF	500	1	blank2r.bmp	880	6	töten	880	1	FEHLER	1619	1	!	1293	1	!	1327	0	0	0
2024-06-19	14:17:24	14:25:25	480147	6.6.1	4_exp_EVA_AWA_CON	89	A	B	Rpleas_acq	Same	Rpleas	1pleas	acq_US_pleas_nomask	acq3_nomask	3	3	453	1	300	300	0	0	497	50	1	0	kreativ	anregung	sonnig	genießen	gütig	träumen	krank	ausrottung	sterben	gemein	gierig	töten	engagiert	vertrauen	gesittet	vergnügt	kuss	besonnen	engstirnig	versagen	geizig	verbissen	krise	bange	1	blank2r.bmp	0	1	+	0	1	blank2r.bmp	500	1	CPLW	500	1	blank2r.bmp	880	6	träumen	880	1	!	1293	1	!	1398	0	0	0	0	0	0
2024-06-19	14:17:24	14:25:27	482331	6.6.1	4_exp_EVA_AWA_CON	89	A	B	Rpleas_acq	Same	Rpleas	1pleas	acq_US_unple_nomask	acq3_nomask	3	4	453	1	300	300	0	0	409	46	1	0	kreativ	anregung	sonnig	genießen	gütig	träumen	krank	ausrottung	sterben	gemein	gierig	töten	engagiert	vertrauen	gesittet	vergnügt	kuss	besonnen	engstirnig	versagen	geizig	verbissen	krise	bange	1	blank2r.bmp	0	1	+	0	1	blank2r.bmp	500	1	DHJF	500	1	blank2r.bmp	880	1	krank	880	1	!	1292	1	!	1310	0	0	0	0	0	0
2024-06-19	14:17:24	14:25:29	484539	6.6.1	4_exp_EVA_AWA_CON	89	A	B	Rpleas_acq	Same	Rpleas	1pleas	acq_US_unple_nomask	acq3_nomask	3	5	453	1	300	300	0	0	426	46	1	0	kreativ	anregung	sonnig	genießen	gütig	träumen	krank	ausrottung	sterben	gemein	gierig	töten	engagiert	vertrauen	gesittet	vergnügt	kuss	besonnen	engstirnig	versagen	geizig	verbissen	krise	bange	1	blank2r.bmp	0	1	+	0	1	blank2r.bmp	500	1	DHJF	500	1	blank2r.bmp	880	2	ausrottung	880	1	!	1293	1	!	1327	0	0	0	0	0	0
2024-06-19	14:17:24	14:25:31	486665	6.6.1	4_exp_EVA_AWA_CON	89	A	B	Rpleas_acq	Same	Rpleas	1pleas	acq_US_pleas_nomask	acq3_nomask	3	6	453	0	300	300	0	0	352	50	1	0	kreativ	anregung	sonnig	genießen	gütig	träumen	krank	ausrottung	sterben	gemein	gierig	töten	engagiert	vertrauen	gesittet	vergnügt	kuss	besonnen	engstirnig	versagen	geizig	verbissen	krise	bange	1	blank2r.bmp	0	1	+	0	1	blank2r.bmp	500	1	CPLW	500	1	blank2r.bmp	880	2	anregung	880	1	!	-1	1	!	-1	0	0	0	0	0	0
2024-06-19	14:17:24	14:25:33	488923	6.6.1	4_exp_EVA_AWA_CON	89	A	B	Rpleas_acq	Same	Rpleas	1pleas	acq_US_pleas_nomask	acq3_nomask	3	7	453	1	300	300	0	0	477	50	1	0	kreativ	anregung	sonnig	genießen	gütig	träumen	krank	ausrottung	sterben	gemein	gierig	töten	engagiert	vertrauen	gesittet	vergnügt	kuss	besonnen	engstirnig	versagen	geizig	verbissen	krise	bange	1	blank2r.bmp	0	1	+	0	1	blank2r.bmp	500	1	CPLW	500	1	blank2r.bmp	880	3	sonnig	880	1	!	1293	1	!	1378	0	0	0	0	0	0
2024-06-19	14:17:24	14:25:35	491098	6.6.1	4_exp_EVA_AWA_CON	89	A	B	Rpleas_acq	Same	Rpleas	1pleas	acq_US_pleas_nomask	acq3_nomask	3	8	453	1	300	300	0	0	402	50	1	0	kreativ	anregung	sonnig	genießen	gütig	träumen	krank	ausrottung	sterben	gemein	gierig	töten	engagiert	vertrauen	gesittet	vergnügt	kuss	besonnen	engstirnig	versagen	geizig	verbissen	krise	bange	1	blank2r.bmp	0	1	+	0	1	blank2r.bmp	500	1	CPLW	500	1	blank2r.bmp	880	5	gütig	880	1	!	1292	1	!	1301	0	0	0	0	0	0
2024-06-19	14:17:24	14:25:38	493355	6.6.1	4_exp_EVA_AWA_CON	89	A	B	Rpleas_acq	Same	Rpleas	1pleas	acq_US_unple_nomask	acq3_nomask	3	9	453	1	300	300	0	0	476	46	1	0	kreativ	anregung	sonnig	genießen	gütig	träumen	krank	ausrottung	sterben	gemein	gierig	töten	engagiert	vertrauen	gesittet	vergnügt	kuss	besonnen	engstirnig	versagen	geizig	verbissen	krise	bange	1	blank2r.bmp	0	1	+	0	1	blank2r.bmp	500	1	DHJF	500	1	blank2r.bmp	880	5	gierig	880	1	!	1292	1	!	1377	0	0	0	0	0	0
2024-06-19	14:17:24	14:25:40	495540	6.6.1	4_exp_EVA_AWA_CON	89	A	B	Rpleas_acq	Same	Rpleas	1pleas	acq_US_pleas_nomask	acq3_nomask	3	10	453	1	300	300	0	0	409	50	1	0	kreativ	anregung	sonnig	genießen	gütig	träumen	krank	ausrottung	sterben	gemein	gierig	töten	engagiert	vertrauen	gesittet	vergnügt	kuss	besonnen	engstirnig	versagen	geizig	verbissen	krise	bange	1	blank2r.bmp	0	1	+	0	1	blank2r.bmp	500	1	CPLW	500	1	blank2r.bmp	880	1	kreativ	880	1	!	1293	1	!	1310	0	0	0	0	0	0
2024-06-19	14:17:24	14:25:42	497882	6.6.1	4_exp_EVA_AWA_CON	89	A	B	Rpleas_acq	Same	Rpleas	1pleas	acq_US_unple_nomask	acq3_nomask	3	11	453	0	300	300	0	0	561	46	1	0	kreativ	anregung	sonnig	genießen	gütig	träumen	krank	ausrottung	sterben	gemein	gierig	töten	engagiert	vertrauen	gesittet	vergnügt	kuss	besonnen	engstirnig	versagen	geizig	verbissen	krise	bange	1	blank2r.bmp	0	1	+	0	1	blank2r.bmp	500	1	DHJF	500	1	blank2r.bmp	880	4	gemein	880	1	!	1292	1	!	-1	0	0	0	0	0	0
2024-06-19	14:17:24	14:25:45	500297	6.6.1	4_exp_EVA_AWA_CON	89	A	B	Rpleas_acq	Same	Rpleas	1pleas	acq_US_pleas_nomask	acq3_nomask	3	12	453	0	300	300	0	0	636	50	1	0	kreativ	anregung	sonnig	genießen	gütig	träumen	krank	ausrottung	sterben	gemein	gierig	töten	engagiert	vertrauen	gesittet	vergnügt	kuss	besonnen	engstirnig	versagen	geizig	verbissen	krise	bange	1	blank2r.bmp	0	1	+	0	1	blank2r.bmp	500	1	CPLW	500	1	blank2r.bmp	880	4	genießen	880	1	!	1292	1	!	-1	0	0	0	0	0	0
2024-06-19	14:17:24	14:25:47	502641	6.6.1	4_exp_EVA_AWA_CON	89	A	B	Rpleas_acq	Same	Rpleas	1pleas	acq_US_pleas_nomask	acq3_nomask	3	13	453	0	300	300	0	0	568	50	1	0	kreativ	anregung	sonnig	genießen	gütig	träumen	krank	ausrottung	sterben	gemein	gierig	töten	engagiert	vertrauen	gesittet	vergnügt	kuss	besonnen	engstirnig	versagen	geizig	verbissen	krise	bange	1	blank2r.bmp	0	1	+	0	1	blank2r.bmp	500	1	CPLW	500	1	blank2r.bmp	880	2	anregung	880	1	!	1292	1	!	-1	0	0	0	0	0	0
2024-06-19	14:17:24	14:25:49	504836	6.6.1	4_exp_EVA_AWA_CON	89	A	B	Rpleas_acq	Same	Rpleas	1pleas	acq_US_pleas_nomask	acq3_nomask	3	14	453	1	300	300	0	0	419	50	1	0	kreativ	anregung	sonnig	genießen	gütig	träumen	krank	ausrottung	sterben	gemein	gierig	töten	engagiert	vertrauen	gesittet	vergnügt	kuss	besonnen	engstirnig	versagen	geizig	verbissen	krise	bange	1	blank2r.bmp	0	1	+	0	1	blank2r.bmp	500	1	CPLW	500	1	blank2r.bmp	880	1	kreativ	880	1	!	1293	1	!	1319	0	0	0	0	0	0
2024-06-19	14:17:24	14:25:51	506993	6.6.1	4_exp_EVA_AWA_CON	89	A	B	Rpleas_acq	Same	Rpleas	1pleas	acq_US_unple_nomask	acq3_nomask	3	15	453	0	300	300	0	0	377	46	1	0	kreativ	anregung	sonnig	genießen	gütig	träumen	krank	ausrottung	sterben	gemein	gierig	töten	engagiert	vertrauen	gesittet	vergnügt	kuss	besonnen	engstirnig	versagen	geizig	verbissen	krise	bange	1	blank2r.bmp	0	1	+	0	1	blank2r.bmp	500	1	DHJF	500	1	blank2r.bmp	880	4	gemein	880	1	!	-1	1	!	-1	0	0	0	0	0	0
2024-06-19	14:17:24	14:25:54	509169	6.6.1	4_exp_EVA_AWA_CON	89	A	B	Rpleas_acq	Same	Rpleas	1pleas	acq_US_pleas_nomask	acq3_nomask	3	16	453	1	300	300	0	0	402	50	1	0	kreativ	anregung	sonnig	genießen	gütig	träumen	krank	ausrottung	sterben	gemein	gierig	töten	engagiert	vertrauen	gesittet	vergnügt	kuss	besonnen	engstirnig	versagen	geizig	verbissen	krise	bange	1	blank2r.bmp	0	1	+	0	1	blank2r.bmp	500	1	CPLW	500	1	blank2r.bmp	880	3	sonnig	880	1	!	1292	1	!	1301	0	0	0	0	0	0
2024-06-19	14:17:24	14:25:56	511452	6.6.1	4_exp_EVA_AWA_CON	89	A	B	Rpleas_acq	Same	Rpleas	1pleas	acq_US_unple_nomask	acq3_nomask	3	17	453	1	300	300	0	0	500	46	1	0	kreativ	anregung	sonnig	genießen	gütig	träumen	krank	ausrottung	sterben	gemein	gierig	töten	engagiert	vertrauen	gesittet	vergnügt	kuss	besonnen	engstirnig	versagen	geizig	verbissen	krise	bange	1	blank2r.bmp	0	1	+	0	1	blank2r.bmp	500	1	DHJF	500	1	blank2r.bmp	880	6	töten	880	1	!	1292	1	!	1402	0	0	0	0	0	0
2024-06-19	14:17:24	14:25:58	513739	6.6.1	4_exp_EVA_AWA_CON	89	A	B	Rpleas_acq	Same	Rpleas	1pleas	acq_US_unple_nomask	acq3_nomask	3	18	453	1	300	300	0	0	507	46	1	0	kreativ	anregung	sonnig	genießen	gütig	träumen	krank	ausrottung	sterben	gemein	gierig	töten	engagiert	vertrauen	gesittet	vergnügt	kuss	besonnen	engstirnig	versagen	geizig	verbissen	krise	bange	1	blank2r.bmp	0	1	+	0	1	blank2r.bmp	500	1	DHJF	500	1	blank2r.bmp	880	2	ausrottung	880	1	!	1292	1	!	1408	0	0	0	0	0	0
2024-06-19	14:17:24	14:26:01	516228	6.6.1	4_exp_EVA_AWA_CON	89	A	B	Rpleas_acq	Same	Rpleas	1pleas	acq_US_unple_nomask	acq3_nomask	3	19	453	1	300	300	0	0	513	50	0	0	kreativ	anregung	sonnig	genießen	gütig	träumen	krank	ausrottung	sterben	gemein	gierig	töten	engagiert	vertrauen	gesittet	vergnügt	kuss	besonnen	engstirnig	versagen	geizig	verbissen	krise	bange	1	blank2r.bmp	0	1	+	0	1	blank2r.bmp	500	1	DHJF	500	1	blank2r.bmp	880	5	gierig	880	1	FEHLER	1706	1	!	1293	1	!	1414	0	0	0
2024-06-19	14:17:24	14:26:03	518315	6.6.1	4_exp_EVA_AWA_CON	89	A	B	Rpleas_acq	Same	Rpleas	1pleas	acq_US_pleas_nomask	acq3_nomask	3	20	453	1	300	300	0	0	510	50	1	0	kreativ	anregung	sonnig	genießen	gütig	träumen	krank	ausrottung	sterben	gemein	gierig	töten	engagiert	vertrauen	gesittet	vergnügt	kuss	besonnen	engstirnig	versagen	geizig	verbissen	krise	bange	1	blank2r.bmp	0	1	+	0	1	blank2r.bmp	500	1	CPLW	500	1	blank2r.bmp	880	4	genießen	880	1	!	1293	1	!	1411	0	0	0	0	0	0
2024-06-19	14:17:24	14:26:05	520595	6.6.1	4_exp_EVA_AWA_CON	89	A	B	Rpleas_acq	Same	Rpleas	1pleas	acq_US_pleas_nomask	acq3_nomask	3	21	453	1	300	300	0	0	498	50	1	0	kreativ	anregung	sonnig	genießen	gütig	träumen	krank	ausrottung	sterben	gemein	gierig	töten	engagiert	vertrauen	gesittet	vergnügt	kuss	besonnen	engstirnig	versagen	geizig	verbissen	krise	bange	1	blank2r.bmp	0	1	+	0	1	blank2r.bmp	500	1	CPLW	500	1	blank2r.bmp	880	5	gütig	880	1	!	1293	1	!	1399	0	0	0	0	0	0
2024-06-19	14:17:24	14:26:07	522883	6.6.1	4_exp_EVA_AWA_CON	89	A	B	Rpleas_acq	Same	Rpleas	1pleas	acq_US_pleas_nomask	acq3_nomask	3	22	453	1	300	300	0	0	505	50	1	0	kreativ	anregung	sonnig	genießen	gütig	träumen	krank	ausrottung	sterben	gemein	gierig	töten	engagiert	vertrauen	gesittet	vergnügt	kuss	besonnen	engstirnig	versagen	geizig	verbissen	krise	bange	1	blank2r.bmp	0	1	+	0	1	blank2r.bmp	500	1	CPLW	500	1	blank2r.bmp	880	6	träumen	880	1	!	1292	1	!	1406	0	0	0	0	0	0
2024-06-19	14:17:24	14:26:09	525107	6.6.1	4_exp_EVA_AWA_CON	89	A	B	Rpleas_acq	Same	Rpleas	1pleas	acq_US_unple_nomask	acq3_nomask	3	23	453	1	300	300	0	0	447	46	1	0	kreativ	anregung	sonnig	genießen	gütig	träumen	krank	ausrottung	sterben	gemein	gierig	töten	engagiert	vertrauen	gesittet	vergnügt	kuss	besonnen	engstirnig	versagen	geizig	verbissen	krise	bange	1	blank2r.bmp	0	1	+	0	1	blank2r.bmp	500	1	DHJF	500	1	blank2r.bmp	880	3	sterben	880	1	!	1293	1	!	1348	0	0	0	0	0	0
2024-06-19	14:17:24	14:26:12	527425	6.6.1	4_exp_EVA_AWA_CON	89	A	B	Rpleas_acq	Same	Rpleas	1pleas	acq_US_unple_nomask	acq3_nomask	3	24	453	0	300	300	0	0	546	46	1	0	kreativ	anregung	sonnig	genießen	gütig	träumen	krank	ausrottung	sterben	gemein	gierig	töten	engagiert	vertrauen	gesittet	vergnügt	kuss	besonnen	engstirnig	versagen	geizig	verbissen	krise	bange	1	blank2r.bmp	0	1	+	0	1	blank2r.bmp	500	1	DHJF	500	1	blank2r.bmp	880	1	krank	880	1	!	1293	1	!	-1	0	0	0	0	0	0
2024-06-19	14:17:24	14:26:14	529699	6.6.1	4_exp_EVA_AWA_CON	89	A	B	Rpleas_acq	Same	Rpleas	1pleas	acq_US_unple_nomask	acq3_nomask	3	25	453	1	300	300	0	0	496	46	1	0	kreativ	anregung	sonnig	genießen	gütig	träumen	krank	ausrottung	sterben	gemein	gierig	töten	engagiert	vertrauen	gesittet	vergnügt	kuss	besonnen	engstirnig	versagen	geizig	verbissen	krise	bange	1	blank2r.bmp	0	1	+	0	1	blank2r.bmp	500	1	DHJF	500	1	blank2r.bmp	880	4	gemein	880	1	!	1292	1	!	1397	0	0	0	0	0	0
2024-06-19	14:17:24	14:26:16	531907	6.6.1	4_exp_EVA_AWA_CON	89	A	B	Rpleas_acq	Same	Rpleas	1pleas	acq_US_unple_nomask	acq3_nomask	3	26	453	1	300	300	0	0	433	46	1	0	kreativ	anregung	sonnig	genießen	gütig	träumen	krank	ausrottung	sterben	gemein	gierig	töten	engagiert	vertrauen	gesittet	vergnügt	kuss	besonnen	engstirnig	versagen	geizig	verbissen	krise	bange	1	blank2r.bmp	0	1	+	0	1	blank2r.bmp	500	1	DHJF	500	1	blank2r.bmp	880	3	sterben	880	1	!	1292	1	!	1334	0	0	0	0	0	0
2024-06-19	14:17:24	14:26:18	534081	6.6.1	4_exp_EVA_AWA_CON	89	A	B	Rpleas_acq	Same	Rpleas	1pleas	acq_US_unple_nomask	acq3_nomask	3	27	453	1	300	300	0	0	397	46	1	0	kreativ	anregung	sonnig	genießen	gütig	träumen	krank	ausrottung	sterben	gemein	gierig	töten	engagiert	vertrauen	gesittet	vergnügt	kuss	besonnen	engstirnig	versagen	geizig	verbissen	krise	bange	1	blank2r.bmp	0	1	+	0	1	blank2r.bmp	500	1	DHJF	500	1	blank2r.bmp	880	1	krank	880	1	!	1293	1	!	1297	0	0	0	0	0	0
2024-06-19	14:17:24	14:26:21	536420	6.6.1	4_exp_EVA_AWA_CON	89	A	B	Rpleas_acq	Same	Rpleas	1pleas	acq_US_pleas_nomask	acq3_nomask	3	28	453	0	300	300	0	0	362	46	0	0	kreativ	anregung	sonnig	genießen	gütig	träumen	krank	ausrottung	sterben	gemein	gierig	töten	engagiert	vertrauen	gesittet	vergnügt	kuss	besonnen	engstirnig	versagen	geizig	verbissen	krise	bange	1	blank2r.bmp	0	1	+	0	1	blank2r.bmp	500	1	CPLW	500	1	blank2r.bmp	880	1	kreativ	880	1	FEHLER	1555	1	!	-1	1	!	-1	0	0	0
2024-06-19	14:17:24	14:26:23	538515	6.6.1	4_exp_EVA_AWA_CON	89	A	B	Rpleas_acq	Same	Rpleas	1pleas	acq_US_pleas_nomask	acq3_nomask	3	29	453	1	300	300	0	0	517	50	1	0	kreativ	anregung	sonnig	genießen	gütig	träumen	krank	ausrottung	sterben	gemein	gierig	töten	engagiert	vertrauen	gesittet	vergnügt	kuss	besonnen	engstirnig	versagen	geizig	verbissen	krise	bange	1	blank2r.bmp	0	1	+	0	1	blank2r.bmp	500	1	CPLW	500	1	blank2r.bmp	880	6	träumen	880	1	!	1292	1	!	1418	0	0	0	0	0	0
2024-06-19	14:17:24	14:26:25	540956	6.6.1	4_exp_EVA_AWA_CON	89	A	B	Rpleas_acq	Same	Rpleas	1pleas	acq_US_pleas_nomask	acq3_nomask	3	30	453	1	300	300	0	0	465	46	0	0	kreativ	anregung	sonnig	genießen	gütig	träumen	krank	ausrottung	sterben	gemein	gierig	töten	engagiert	vertrauen	gesittet	vergnügt	kuss	besonnen	engstirnig	versagen	geizig	verbissen	krise	bange	1	blank2r.bmp	0	1	+	0	1	blank2r.bmp	500	1	CPLW	500	1	blank2r.bmp	880	5	gütig	880	1	FEHLER	1658	1	!	1292	1	!	1366	0	0	0
2024-06-19	14:17:24	14:26:27	543019	6.6.1	4_exp_EVA_AWA_CON	89	A	B	Rpleas_acq	Same	Rpleas	1pleas	acq_US_pleas_nomask	acq3_nomask	3	31	453	1	300	300	0	0	488	50	1	0	kreativ	anregung	sonnig	genießen	gütig	träumen	krank	ausrottung	sterben	gemein	gierig	töten	engagiert	vertrauen	gesittet	vergnügt	kuss	besonnen	engstirnig	versagen	geizig	verbissen	krise	bange	1	blank2r.bmp	0	1	+	0	1	blank2r.bmp	500	1	CPLW	500	1	blank2r.bmp	880	4	genießen	880	1	!	1293	1	!	1389	0	0	0	0	0	0
2024-06-19	14:17:24	14:26:30	545377	6.6.1	4_exp_EVA_AWA_CON	89	A	B	Rpleas_acq	Same	Rpleas	1pleas	acq_US_unple_nomask	acq3_nomask	3	32	453	0	300	300	0	0	586	46	1	0	kreativ	anregung	sonnig	genießen	gütig	träumen	krank	ausrottung	sterben	gemein	gierig	töten	engagiert	vertrauen	gesittet	vergnügt	kuss	besonnen	engstirnig	versagen	geizig	verbissen	krise	bange	1	blank2r.bmp	0	1	+	0	1	blank2r.bmp	500	1	DHJF	500	1	blank2r.bmp	880	5	gierig	880	1	!	1293	1	!	-1	0	0	0	0	0	0
2024-06-19	14:17:24	14:26:32	547619	6.6.1	4_exp_EVA_AWA_CON	89	A	B	Rpleas_acq	Same	Rpleas	1pleas	acq_US_unple_nomask	acq3_nomask	3	33	453	1	300	300	0	0	465	46	1	0	kreativ	anregung	sonnig	genießen	gütig	träumen	krank	ausrottung	sterben	gemein	gierig	töten	engagiert	vertrauen	gesittet	vergnügt	kuss	besonnen	engstirnig	versagen	geizig	verbissen	krise	bange	1	blank2r.bmp	0	1	+	0	1	blank2r.bmp	500	1	DHJF	500	1	blank2r.bmp	880	2	ausrottung	880	1	!	1293	1	!	1366	0	0	0	0	0	0
2024-06-19	14:17:24	14:26:34	549769	6.6.1	4_exp_EVA_AWA_CON	89	A	B	Rpleas_acq	Same	Rpleas	1pleas	acq_US_pleas_nomask	acq3_nomask	3	34	453	0	300	300	0	0	375	50	1	0	kreativ	anregung	sonnig	genießen	gütig	träumen	krank	ausrottung	sterben	gemein	gierig	töten	engagiert	vertrauen	gesittet	vergnügt	kuss	besonnen	engstirnig	versagen	geizig	verbissen	krise	bange	1	blank2r.bmp	0	1	+	0	1	blank2r.bmp	500	1	CPLW	500	1	blank2r.bmp	880	3	sonnig	880	1	!	-1	1	!	-1	0	0	0	0	0	0
2024-06-19	14:17:24	14:26:36	552011	6.6.1	4_exp_EVA_AWA_CON	89	A	B	Rpleas_acq	Same	Rpleas	1pleas	acq_US_unple_nomask	acq3_nomask	3	35	453	1	300	300	0	0	464	46	1	0	kreativ	anregung	sonnig	genießen	gütig	träumen	krank	ausrottung	sterben	gemein	gierig	töten	engagiert	vertrauen	gesittet	vergnügt	kuss	besonnen	engstirnig	versagen	geizig	verbissen	krise	bange	1	blank2r.bmp	0	1	+	0	1	blank2r.bmp	500	1	DHJF	500	1	blank2r.bmp	880	6	töten	880	1	!	1292	1	!	1365	0	0	0	0	0	0
2024-06-19	14:17:24	14:26:39	554260	6.6.1	4_exp_EVA_AWA_CON	89	A	B	Rpleas_acq	Same	Rpleas	1pleas	acq_US_pleas_nomask	acq3_nomask	3	36	453	1	300	300	0	0	470	50	1	0	kreativ	anregung	sonnig	genießen	gütig	träumen	krank	ausrottung	sterben	gemein	gierig	töten	engagiert	vertrauen	gesittet	vergnügt	kuss	besonnen	engstirnig	versagen	geizig	verbissen	krise	bange	1	blank2r.bmp	0	1	+	0	1	blank2r.bmp	500	1	CPLW	500	1	blank2r.bmp	880	2	anregung	880	1	!	1292	1	!	1372	0	0	0	0	0	0
2024-06-19	14:17:24	14:26:51	567097	6.6.1	4_exp_EVA_AWA_CON	89	A	B	Rpleas_acq	Same	Rpleas	1pleas	acq_US_pleas_nomask	acq45_nomask	4	1	400	0	300	300	0	0	582	50	1	0	kreativ	anregung	sonnig	genießen	gütig	träumen	krank	ausrottung	sterben	gemein	gierig	töten	engagiert	vertrauen	gesittet	vergnügt	kuss	besonnen	engstirnig	versagen	geizig	verbissen	krise	bange	1	blank2r.bmp	0	1	+	0	1	blank2r.bmp	500	1	CPLW	500	1	blank2r.bmp	880	1	kreativ	880	1	!	1232	1	!	-1	0	0	0	0	0	0
2024-06-19	14:17:24	14:26:54	569291	6.6.1	4_exp_EVA_AWA_CON	89	A	B	Rpleas_acq	Same	Rpleas	1pleas	acq_US_pleas_nomask	acq45_nomask	4	2	400	1	300	300	0	0	412	50	1	0	kreativ	anregung	sonnig	genießen	gütig	träumen	krank	ausrottung	sterben	gemein	gierig	töten	engagiert	vertrauen	gesittet	vergnügt	kuss	besonnen	engstirnig	versagen	geizig	verbissen	krise	bange	1	blank2r.bmp	0	1	+	0	1	blank2r.bmp	500	1	CPLW	500	1	blank2r.bmp	880	5	gütig	880	1	!	1232	1	!	1313	0	0	0	0	0	0
2024-06-19	14:17:24	14:26:56	571467	6.6.1	4_exp_EVA_AWA_CON	89	A	B	Rpleas_acq	Same	Rpleas	1pleas	acq_US_pleas_nomask	acq45_nomask	4	3	400	1	300	300	0	0	397	50	1	0	kreativ	anregung	sonnig	genießen	gütig	träumen	krank	ausrottung	sterben	gemein	gierig	töten	engagiert	vertrauen	gesittet	vergnügt	kuss	besonnen	engstirnig	versagen	geizig	verbissen	krise	bange	1	blank2r.bmp	0	1	+	0	1	blank2r.bmp	500	1	CPLW	500	1	blank2r.bmp	880	3	sonnig	880	1	!	1232	1	!	1298	0	0	0	0	0	0
2024-06-19	14:17:24	14:26:58	573659	6.6.1	4_exp_EVA_AWA_CON	89	A	B	Rpleas_acq	Same	Rpleas	1pleas	acq_US_unple_nomask	acq45_nomask	4	4	400	1	300	300	0	0	418	50	0	0	kreativ	anregung	sonnig	genießen	gütig	träumen	krank	ausrottung	sterben	gemein	gierig	töten	engagiert	vertrauen	gesittet	vergnügt	kuss	besonnen	engstirnig	versagen	geizig	verbissen	krise	bange	1	blank2r.bmp	0	1	+	0	1	blank2r.bmp	500	1	DHJF	500	1	blank2r.bmp	880	5	gierig	880	1	!	1233	1	!	1319	0	0	0	0	0	0
2024-06-19	14:17:24	14:27:00	575884	6.6.1	4_exp_EVA_AWA_CON	89	A	B	Rpleas_acq	Same	Rpleas	1pleas	acq_US_pleas_nomask	acq45_nomask	4	5	400	1	300	300	0	0	450	50	1	0	kreativ	anregung	sonnig	genießen	gütig	träumen	krank	ausrottung	sterben	gemein	gierig	töten	engagiert	vertrauen	gesittet	vergnügt	kuss	besonnen	engstirnig	versagen	geizig	verbissen	krise	bange	1	blank2r.bmp	0	1	+	0	1	blank2r.bmp	500	1	CPLW	500	1	blank2r.bmp	880	6	träumen	880	1	!	1232	1	!	1352	0	0	0	0	0	0
2024-06-19	14:17:24	14:27:02	578019	6.6.1	4_exp_EVA_AWA_CON	89	A	B	Rpleas_acq	Same	Rpleas	1pleas	acq_US_unple_nomask	acq45_nomask	4	6	400	1	300	300	0	0	355	46	1	0	kreativ	anregung	sonnig	genießen	gütig	träumen	krank	ausrottung	sterben	gemein	gierig	töten	engagiert	vertrauen	gesittet	vergnügt	kuss	besonnen	engstirnig	versagen	geizig	verbissen	krise	bange	1	blank2r.bmp	0	1	+	0	1	blank2r.bmp	500	1	DHJF	500	1	blank2r.bmp	880	1	krank	880	1	!	1232	1	!	1255	0	0	0	0	0	0
2024-06-19	14:17:24	14:27:05	580251	6.6.1	4_exp_EVA_AWA_CON	89	A	B	Rpleas_acq	Same	Rpleas	1pleas	acq_US_unple_nomask	acq45_nomask	4	7	400	1	300	300	0	0	455	46	1	0	kreativ	anregung	sonnig	genießen	gütig	träumen	krank	ausrottung	sterben	gemein	gierig	töten	engagiert	vertrauen	gesittet	vergnügt	kuss	besonnen	engstirnig	versagen	geizig	verbissen	krise	bange	1	blank2r.bmp	0	1	+	0	1	blank2r.bmp	500	1	DHJF	500	1	blank2r.bmp	880	6	töten	880	1	!	1232	1	!	1356	0	0	0	0	0	0
2024-06-19	14:17:24	14:27:07	582503	6.6.1	4_exp_EVA_AWA_CON	89	A	B	Rpleas_acq	Same	Rpleas	1pleas	acq_US_unple_nomask	acq45_nomask	4	8	400	0	300	300	0	0	480	46	1	0	kreativ	anregung	sonnig	genießen	gütig	träumen	krank	ausrottung	sterben	gemein	gierig	töten	engagiert	vertrauen	gesittet	vergnügt	kuss	besonnen	engstirnig	versagen	geizig	verbissen	krise	bange	1	blank2r.bmp	0	1	+	0	1	blank2r.bmp	500	1	DHJF	500	1	blank2r.bmp	880	2	ausrottung	880	1	!	1232	1	!	-1	0	0	0	0	0	0
2024-06-19	14:17:24	14:27:09	584801	6.6.1	4_exp_EVA_AWA_CON	89	A	B	Rpleas_acq	Same	Rpleas	1pleas	acq_US_pleas_nomask	acq45_nomask	4	9	400	0	300	300	0	0	524	46	0	0	kreativ	anregung	sonnig	genießen	gütig	träumen	krank	ausrottung	sterben	gemein	gierig	töten	engagiert	vertrauen	gesittet	vergnügt	kuss	besonnen	engstirnig	versagen	geizig	verbissen	krise	bange	1	blank2r.bmp	0	1	+	0	1	blank2r.bmp	500	1	CPLW	500	1	blank2r.bmp	880	2	anregung	880	1	!	1233	1	!	-1	0	0	0	0	0	0
2024-06-19	14:17:24	14:27:11	586980	6.6.1	4_exp_EVA_AWA_CON	89	A	B	Rpleas_acq	Same	Rpleas	1pleas	acq_US_pleas_nomask	acq45_nomask	4	10	400	1	300	300	0	0	399	46	0	0	kreativ	anregung	sonnig	genießen	gütig	träumen	krank	ausrottung	sterben	gemein	gierig	töten	engagiert	vertrauen	gesittet	vergnügt	kuss	besonnen	engstirnig	versagen	geizig	verbissen	krise	bange	1	blank2r.bmp	0	1	+	0	1	blank2r.bmp	500	1	CPLW	500	1	blank2r.bmp	880	4	genießen	880	1	!	1232	1	!	1300	0	0	0	0	0	0
2024-06-19	14:17:24	14:27:14	589227	6.6.1	4_exp_EVA_AWA_CON	89	A	B	Rpleas_acq	Same	Rpleas	1pleas	acq_US_pleas_nomask	acq45_nomask	4	11	400	1	300	300	0	0	465	50	1	0	kreativ	anregung	sonnig	genießen	gütig	träumen	krank	ausrottung	sterben	gemein	gierig	töten	engagiert	vertrauen	gesittet	vergnügt	kuss	besonnen	engstirnig	versagen	geizig	verbissen	krise	bange	1	blank2r.bmp	0	1	+	0	1	blank2r.bmp	500	1	CPLW	500	1	blank2r.bmp	880	1	kreativ	880	1	!	1232	1	!	1366	0	0	0	0	0	0
2024-06-19	14:17:24	14:27:16	591444	6.6.1	4_exp_EVA_AWA_CON	89	A	B	Rpleas_acq	Same	Rpleas	1pleas	acq_US_pleas_nomask	acq45_nomask	4	12	400	1	300	300	0	0	440	50	1	0	kreativ	anregung	sonnig	genießen	gütig	träumen	krank	ausrottung	sterben	gemein	gierig	töten	engagiert	vertrauen	gesittet	vergnügt	kuss	besonnen	engstirnig	versagen	geizig	verbissen	krise	bange	1	blank2r.bmp	0	1	+	0	1	blank2r.bmp	500	1	CPLW	500	1	blank2r.bmp	880	3	sonnig	880	1	!	1232	1	!	1342	0	0	0	0	0	0
2024-06-19	14:17:24	14:27:19	594721	6.6.1	4_exp_EVA_AWA_CON	89	A	B	Rpleas_acq	Same	Rpleas	1pleas	acq_US_unple_nomask	acq45_nomask	4	13	400	0	300	300	0	0	1498	46	1	0	kreativ	anregung	sonnig	genießen	gütig	träumen	krank	ausrottung	sterben	gemein	gierig	töten	engagiert	vertrauen	gesittet	vergnügt	kuss	besonnen	engstirnig	versagen	geizig	verbissen	krise	bange	1	blank2r.bmp	0	1	+	0	1	blank2r.bmp	500	1	DHJF	500	1	blank2r.bmp	880	4	gemein	880	1	!	1232	1	!	-1	0	0	0	0	0	0
2024-06-19	14:17:24	14:27:21	596963	6.6.1	4_exp_EVA_AWA_CON	89	A	B	Rpleas_acq	Same	Rpleas	1pleas	acq_US_unple_nomask	acq45_nomask	4	14	400	1	300	300	0	0	466	46	1	0	kreativ	anregung	sonnig	genießen	gütig	träumen	krank	ausrottung	sterben	gemein	gierig	töten	engagiert	vertrauen	gesittet	vergnügt	kuss	besonnen	engstirnig	versagen	geizig	verbissen	krise	bange	1	blank2r.bmp	0	1	+	0	1	blank2r.bmp	500	1	DHJF	500	1	blank2r.bmp	880	3	sterben	880	1	!	1233	1	!	1367	0	0	0	0	0	0
2024-06-19	14:17:24	14:27:24	599215	6.6.1	4_exp_EVA_AWA_CON	89	A	B	Rpleas_acq	Same	Rpleas	1pleas	acq_US_unple_nomask	acq45_nomask	4	15	400	0	300	300	0	0	481	46	1	0	kreativ	anregung	sonnig	genießen	gütig	träumen	krank	ausrottung	sterben	gemein	gierig	töten	engagiert	vertrauen	gesittet	vergnügt	kuss	besonnen	engstirnig	versagen	geizig	verbissen	krise	bange	1	blank2r.bmp	0	1	+	0	1	blank2r.bmp	500	1	DHJF	500	1	blank2r.bmp	880	6	töten	880	1	!	1232	1	!	-1	0	0	0	0	0	0
2024-06-19	14:17:24	14:27:26	601435	6.6.1	4_exp_EVA_AWA_CON	89	A	B	Rpleas_acq	Same	Rpleas	1pleas	acq_US_unple_nomask	acq45_nomask	4	16	400	1	300	300	0	0	445	46	1	0	kreativ	anregung	sonnig	genießen	gütig	träumen	krank	ausrottung	sterben	gemein	gierig	töten	engagiert	vertrauen	gesittet	vergnügt	kuss	besonnen	engstirnig	versagen	geizig	verbissen	krise	bange	1	blank2r.bmp	0	1	+	0	1	blank2r.bmp	500	1	DHJF	500	1	blank2r.bmp	880	3	sterben	880	1	!	1232	1	!	1346	0	0	0	0	0	0
2024-06-19	14:17:24	14:27:28	603659	6.6.1	4_exp_EVA_AWA_CON	89	A	B	Rpleas_acq	Same	Rpleas	1pleas	acq_US_unple_nomask	acq45_nomask	4	17	400	1	300	300	0	0	448	46	1	0	kreativ	anregung	sonnig	genießen	gütig	träumen	krank	ausrottung	sterben	gemein	gierig	töten	engagiert	vertrauen	gesittet	vergnügt	kuss	besonnen	engstirnig	versagen	geizig	verbissen	krise	bange	1	blank2r.bmp	0	1	+	0	1	blank2r.bmp	500	1	DHJF	500	1	blank2r.bmp	880	2	ausrottung	880	1	!	1232	1	!	1349	0	0	0	0	0	0
2024-06-19	14:17:24	14:27:30	605867	6.6.1	4_exp_EVA_AWA_CON	89	A	B	Rpleas_acq	Same	Rpleas	1pleas	acq_US_pleas_nomask	acq45_nomask	4	18	400	1	300	300	0	0	424	50	1	0	kreativ	anregung	sonnig	genießen	gütig	träumen	krank	ausrottung	sterben	gemein	gierig	töten	engagiert	vertrauen	gesittet	vergnügt	kuss	besonnen	engstirnig	versagen	geizig	verbissen	krise	bange	1	blank2r.bmp	0	1	+	0	1	blank2r.bmp	500	1	CPLW	500	1	blank2r.bmp	880	5	gütig	880	1	!	1232	1	!	1325	0	0	0	0	0	0
2024-06-19	14:17:24	14:27:33	608145	6.6.1	4_exp_EVA_AWA_CON	89	A	B	Rpleas_acq	Same	Rpleas	1pleas	acq_US_unple_nomask	acq45_nomask	4	19	400	0	300	300	0	0	503	46	1	0	kreativ	anregung	sonnig	genießen	gütig	träumen	krank	ausrottung	sterben	gemein	gierig	töten	engagiert	vertrauen	gesittet	vergnügt	kuss	besonnen	engstirnig	versagen	geizig	verbissen	krise	bange	1	blank2r.bmp	0	1	+	0	1	blank2r.bmp	500	1	DHJF	500	1	blank2r.bmp	880	5	gierig	880	1	!	1232	1	!	-1	0	0	0	0	0	0
2024-06-19	14:17:24	14:27:35	610315	6.6.1	4_exp_EVA_AWA_CON	89	A	B	Rpleas_acq	Same	Rpleas	1pleas	acq_US_pleas_nomask	acq45_nomask	4	20	400	1	300	300	0	0	390	46	0	0	kreativ	anregung	sonnig	genießen	gütig	träumen	krank	ausrottung	sterben	gemein	gierig	töten	engagiert	vertrauen	gesittet	vergnügt	kuss	besonnen	engstirnig	versagen	geizig	verbissen	krise	bange	1	blank2r.bmp	0	1	+	0	1	blank2r.bmp	500	1	CPLW	500	1	blank2r.bmp	880	2	anregung	880	1	!	1232	1	!	1290	0	0	0	0	0	0
2024-06-19	14:17:24	14:27:37	612377	6.6.1	4_exp_EVA_AWA_CON	89	A	B	Rpleas_acq	Same	Rpleas	1pleas	acq_US_pleas_nomask	acq45_nomask	4	21	400	0	300	300	0	0	282	46	0	0	kreativ	anregung	sonnig	genießen	gütig	träumen	krank	ausrottung	sterben	gemein	gierig	töten	engagiert	vertrauen	gesittet	vergnügt	kuss	besonnen	engstirnig	versagen	geizig	verbissen	krise	bange	1	blank2r.bmp	0	1	+	0	1	blank2r.bmp	500	1	CPLW	500	1	blank2r.bmp	880	4	genießen	880	1	!	-1	1	!	-1	0	0	0	0	0	0
2024-06-19	14:17:24	14:27:39	614588	6.6.1	4_exp_EVA_AWA_CON	89	A	B	Rpleas_acq	Same	Rpleas	1pleas	acq_US_pleas_nomask	acq45_nomask	4	22	400	1	300	300	0	0	429	46	0	0	kreativ	anregung	sonnig	genießen	gütig	träumen	krank	ausrottung	sterben	gemein	gierig	töten	engagiert	vertrauen	gesittet	vergnügt	kuss	besonnen	engstirnig	versagen	geizig	verbissen	krise	bange	1	blank2r.bmp	0	1	+	0	1	blank2r.bmp	500	1	CPLW	500	1	blank2r.bmp	880	6	träumen	880	1	!	1232	1	!	1330	0	0	0	0	0	0
2024-06-19	14:17:24	14:27:41	616865	6.6.1	4_exp_EVA_AWA_CON	89	A	B	Rpleas_acq	Same	Rpleas	1pleas	acq_US_unple_nomask	acq45_nomask	4	23	400	0	300	300	0	0	497	46	1	0	kreativ	anregung	sonnig	genießen	gütig	träumen	krank	ausrottung	sterben	gemein	gierig	töten	engagiert	vertrauen	gesittet	vergnügt	kuss	besonnen	engstirnig	versagen	geizig	verbissen	krise	bange	1	blank2r.bmp	0	1	+	0	1	blank2r.bmp	500	1	DHJF	500	1	blank2r.bmp	880	1	krank	880	1	!	1232	1	!	-1	0	0	0	0	0	0
2024-06-19	14:17:24	14:27:43	619107	6.6.1	4_exp_EVA_AWA_CON	89	A	B	Rpleas_acq	Same	Rpleas	1pleas	acq_US_pleas_nomask	acq45_nomask	4	24	400	1	300	300	0	0	466	46	0	0	kreativ	anregung	sonnig	genießen	gütig	träumen	krank	ausrottung	sterben	gemein	gierig	töten	engagiert	vertrauen	gesittet	vergnügt	kuss	besonnen	engstirnig	versagen	geizig	verbissen	krise	bange	1	blank2r.bmp	0	1	+	0	1	blank2r.bmp	500	1	CPLW	500	1	blank2r.bmp	880	4	genießen	880	1	!	1232	1	!	1367	0	0	0	0	0	0
2024-06-19	14:17:24	14:27:46	621347	6.6.1	4_exp_EVA_AWA_CON	89	A	B	Rpleas_acq	Same	Rpleas	1pleas	acq_US_unple_nomask	acq45_nomask	4	25	400	1	300	300	0	0	464	50	0	0	kreativ	anregung	sonnig	genießen	gütig	träumen	krank	ausrottung	sterben	gemein	gierig	töten	engagiert	vertrauen	gesittet	vergnügt	kuss	besonnen	engstirnig	versagen	geizig	verbissen	krise	bange	1	blank2r.bmp	0	1	+	0	1	blank2r.bmp	500	1	DHJF	500	1	blank2r.bmp	880	4	gemein	880	1	!	1232	1	!	1365	0	0	0	0	0	0
2024-06-19	14:17:24	14:27:48	623579	6.6.1	4_exp_EVA_AWA_CON	89	A	B	Rpleas_acq	Same	Rpleas	1pleas	acq_US_pleas_nomask	acq45_nomask	4	26	400	1	300	300	0	0	455	50	1	0	kreativ	anregung	sonnig	genießen	gütig	träumen	krank	ausrottung	sterben	gemein	gierig	töten	engagiert	vertrauen	gesittet	vergnügt	kuss	besonnen	engstirnig	versagen	geizig	verbissen	krise	bange	1	blank2r.bmp	0	1	+	0	1	blank2r.bmp	500	1	CPLW	500	1	blank2r.bmp	880	5	gütig	880	1	!	1232	1	!	1356	0	0	0	0	0	0
2024-06-19	14:17:24	14:27:50	625865	6.6.1	4_exp_EVA_AWA_CON	89	A	B	Rpleas_acq	Same	Rpleas	1pleas	acq_US_unple_nomask	acq45_nomask	4	27	400	0	300	300	0	0	512	46	1	0	kreativ	anregung	sonnig	genießen	gütig	träumen	krank	ausrottung	sterben	gemein	gierig	töten	engagiert	vertrauen	gesittet	vergnügt	kuss	besonnen	engstirnig	versagen	geizig	verbissen	krise	bange	1	blank2r.bmp	0	1	+	0	1	blank2r.bmp	500	1	DHJF	500	1	blank2r.bmp	880	4	gemein	880	1	!	1232	1	!	-1	0	0	0	0	0	0
2024-06-19	14:17:24	14:27:53	628249	6.6.1	4_exp_EVA_AWA_CON	89	A	B	Rpleas_acq	Same	Rpleas	1pleas	acq_US_unple_nomask	acq45_nomask	4	28	400	0	300	300	0	0	604	46	1	0	kreativ	anregung	sonnig	genießen	gütig	träumen	krank	ausrottung	sterben	gemein	gierig	töten	engagiert	vertrauen	gesittet	vergnügt	kuss	besonnen	engstirnig	versagen	geizig	verbissen	krise	bange	1	blank2r.bmp	0	1	+	0	1	blank2r.bmp	500	1	DHJF	500	1	blank2r.bmp	880	1	krank	880	1	!	1232	1	!	-1	0	0	0	0	0	0
2024-06-19	14:17:24	14:27:55	630468	6.6.1	4_exp_EVA_AWA_CON	89	A	B	Rpleas_acq	Same	Rpleas	1pleas	acq_US_pleas_nomask	acq45_nomask	4	29	400	1	300	300	0	0	438	50	1	0	kreativ	anregung	sonnig	genießen	gütig	träumen	krank	ausrottung	sterben	gemein	gierig	töten	engagiert	vertrauen	gesittet	vergnügt	kuss	besonnen	engstirnig	versagen	geizig	verbissen	krise	bange	1	blank2r.bmp	0	1	+	0	1	blank2r.bmp	500	1	CPLW	500	1	blank2r.bmp	880	3	sonnig	880	1	!	1232	1	!	1339	0	0	0	0	0	0
2024-06-19	14:17:24	14:27:57	632707	6.6.1	4_exp_EVA_AWA_CON	89	A	B	Rpleas_acq	Same	Rpleas	1pleas	acq_US_unple_nomask	acq45_nomask	4	30	400	1	300	300	0	0	457	46	1	0	kreativ	anregung	sonnig	genießen	gütig	träumen	krank	ausrottung	sterben	gemein	gierig	töten	engagiert	vertrauen	gesittet	vergnügt	kuss	besonnen	engstirnig	versagen	geizig	verbissen	krise	bange	1	blank2r.bmp	0	1	+	0	1	blank2r.bmp	500	1	DHJF	500	1	blank2r.bmp	880	2	ausrottung	880	1	!	1233	1	!	1358	0	0	0	0	0	0
2024-06-19	14:17:24	14:27:59	634907	6.6.1	4_exp_EVA_AWA_CON	89	A	B	Rpleas_acq	Same	Rpleas	1pleas	acq_US_pleas_nomask	acq45_nomask	4	31	400	1	300	300	0	0	426	50	1	0	kreativ	anregung	sonnig	genießen	gütig	träumen	krank	ausrottung	sterben	gemein	gierig	töten	engagiert	vertrauen	gesittet	vergnügt	kuss	besonnen	engstirnig	versagen	geizig	verbissen	krise	bange	1	blank2r.bmp	0	1	+	0	1	blank2r.bmp	500	1	CPLW	500	1	blank2r.bmp	880	1	kreativ	880	1	!	1232	1	!	1327	0	0	0	0	0	0
2024-06-19	14:17:24	14:28:01	637115	6.6.1	4_exp_EVA_AWA_CON	89	A	B	Rpleas_acq	Same	Rpleas	1pleas	acq_US_unple_nomask	acq45_nomask	4	32	400	1	300	300	0	0	432	46	1	0	kreativ	anregung	sonnig	genießen	gütig	träumen	krank	ausrottung	sterben	gemein	gierig	töten	engagiert	vertrauen	gesittet	vergnügt	kuss	besonnen	engstirnig	versagen	geizig	verbissen	krise	bange	1	blank2r.bmp	0	1	+	0	1	blank2r.bmp	500	1	DHJF	500	1	blank2r.bmp	880	6	töten	880	1	!	1232	1	!	1333	0	0	0	0	0	0
2024-06-19	14:17:24	14:28:04	639284	6.6.1	4_exp_EVA_AWA_CON	89	A	B	Rpleas_acq	Same	Rpleas	1pleas	acq_US_unple_nomask	acq45_nomask	4	33	400	1	300	300	0	0	389	50	0	0	kreativ	anregung	sonnig	genießen	gütig	träumen	krank	ausrottung	sterben	gemein	gierig	töten	engagiert	vertrauen	gesittet	vergnügt	kuss	besonnen	engstirnig	versagen	geizig	verbissen	krise	bange	1	blank2r.bmp	0	1	+	0	1	blank2r.bmp	500	1	DHJF	500	1	blank2r.bmp	880	5	gierig	880	1	!	1232	1	!	1290	0	0	0	0	0	0
2024-06-19	14:17:24	14:28:06	641993	6.6.1	4_exp_EVA_AWA_CON	89	A	B	Rpleas_acq	Same	Rpleas	1pleas	acq_US_pleas_nomask	acq45_nomask	4	34	400	0	300	300	0	0	929	50	1	0	kreativ	anregung	sonnig	genießen	gütig	träumen	krank	ausrottung	sterben	gemein	gierig	töten	engagiert	vertrauen	gesittet	vergnügt	kuss	besonnen	engstirnig	versagen	geizig	verbissen	krise	bange	1	blank2r.bmp	0	1	+	0	1	blank2r.bmp	500	1	CPLW	500	1	blank2r.bmp	880	2	anregung	880	1	!	1232	1	!	-1	0	0	0	0	0	0
2024-06-19	14:17:24	14:28:09	644240	6.6.1	4_exp_EVA_AWA_CON	89	A	B	Rpleas_acq	Same	Rpleas	1pleas	acq_US_pleas_nomask	acq45_nomask	4	35	400	0	300	300	0	0	476	50	1	0	kreativ	anregung	sonnig	genießen	gütig	träumen	krank	ausrottung	sterben	gemein	gierig	töten	engagiert	vertrauen	gesittet	vergnügt	kuss	besonnen	engstirnig	versagen	geizig	verbissen	krise	bange	1	blank2r.bmp	0	1	+	0	1	blank2r.bmp	500	1	CPLW	500	1	blank2r.bmp	880	6	träumen	880	1	!	1233	1	!	-1	0	0	0	0	0	0
2024-06-19	14:17:24	14:28:11	646395	6.6.1	4_exp_EVA_AWA_CON	89	A	B	Rpleas_acq	Same	Rpleas	1pleas	acq_US_unple_nomask	acq45_nomask	4	36	400	1	300	300	0	0	376	46	1	0	kreativ	anregung	sonnig	genießen	gütig	träumen	krank	ausrottung	sterben	gemein	gierig	töten	engagiert	vertrauen	gesittet	vergnügt	kuss	besonnen	engstirnig	versagen	geizig	verbissen	krise	bange	1	blank2r.bmp	0	1	+	0	1	blank2r.bmp	500	1	DHJF	500	1	blank2r.bmp	880	3	sterben	880	1	!	1232	1	!	1277	0	0	0	0	0	0
2024-06-19	14:17:24	14:28:21	657113	6.6.1	4_exp_EVA_AWA_CON	89	A	B	Rpleas_acq	Same	Rpleas	1pleas	acq_US_pleas_nomask	acq45_nomask	5	1	400	0	300	300	0	0	559	50	1	0	kreativ	anregung	sonnig	genießen	gütig	träumen	krank	ausrottung	sterben	gemein	gierig	töten	engagiert	vertrauen	gesittet	vergnügt	kuss	besonnen	engstirnig	versagen	geizig	verbissen	krise	bange	1	blank2r.bmp	0	1	+	0	1	blank2r.bmp	500	1	CPLW	500	1	blank2r.bmp	880	2	anregung	880	1	!	1233	1	!	-1	0	0	0	0	0	0
2024-06-19	14:17:24	14:28:24	659355	6.6.1	4_exp_EVA_AWA_CON	89	A	B	Rpleas_acq	Same	Rpleas	1pleas	acq_US_pleas_nomask	acq45_nomask	5	2	400	1	300	300	0	0	468	50	1	0	kreativ	anregung	sonnig	genießen	gütig	träumen	krank	ausrottung	sterben	gemein	gierig	töten	engagiert	vertrauen	gesittet	vergnügt	kuss	besonnen	engstirnig	versagen	geizig	verbissen	krise	bange	1	blank2r.bmp	0	1	+	0	1	blank2r.bmp	500	1	CPLW	500	1	blank2r.bmp	880	6	träumen	880	1	!	1233	1	!	1369	0	0	0	0	0	0
2024-06-19	14:17:24	14:28:26	661458	6.6.1	4_exp_EVA_AWA_CON	89	A	B	Rpleas_acq	Same	Rpleas	1pleas	acq_US_pleas_nomask	acq45_nomask	5	3	400	0	300	300	0	0	330	46	0	0	kreativ	anregung	sonnig	genießen	gütig	träumen	krank	ausrottung	sterben	gemein	gierig	töten	engagiert	vertrauen	gesittet	vergnügt	kuss	besonnen	engstirnig	versagen	geizig	verbissen	krise	bange	1	blank2r.bmp	0	1	+	0	1	blank2r.bmp	500	1	CPLW	500	1	blank2r.bmp	880	3	sonnig	880	1	!	-1	1	!	-1	0	0	0	0	0	0
2024-06-19	14:17:24	14:28:28	664090	6.6.1	4_exp_EVA_AWA_CON	89	A	B	Rpleas_acq	Same	Rpleas	1pleas	acq_US_unple_nomask	acq45_nomask	5	4	400	0	300	300	0	0	851	46	1	0	kreativ	anregung	sonnig	genießen	gütig	träumen	krank	ausrottung	sterben	gemein	gierig	töten	engagiert	vertrauen	gesittet	vergnügt	kuss	besonnen	engstirnig	versagen	geizig	verbissen	krise	bange	1	blank2r.bmp	0	1	+	0	1	blank2r.bmp	500	1	DHJF	500	1	blank2r.bmp	880	3	sterben	880	1	!	1232	1	!	-1	0	0	0	0	0	0
2024-06-19	14:17:24	14:28:31	666343	6.6.1	4_exp_EVA_AWA_CON	89	A	B	Rpleas_acq	Same	Rpleas	1pleas	acq_US_pleas_nomask	acq45_nomask	5	5	400	0	300	300	0	0	475	50	1	0	kreativ	anregung	sonnig	genießen	gütig	träumen	krank	ausrottung	sterben	gemein	gierig	töten	engagiert	vertrauen	gesittet	vergnügt	kuss	besonnen	engstirnig	versagen	geizig	verbissen	krise	bange	1	blank2r.bmp	0	1	+	0	1	blank2r.bmp	500	1	CPLW	500	1	blank2r.bmp	880	5	gütig	880	1	!	1232	1	!	-1	0	0	0	0	0	0
2024-06-19	14:17:24	14:28:33	668889	6.6.1	4_exp_EVA_AWA_CON	89	A	B	Rpleas_acq	Same	Rpleas	1pleas	acq_US_unple_nomask	acq45_nomask	5	6	400	0	300	300	0	0	768	46	1	0	kreativ	anregung	sonnig	genießen	gütig	träumen	krank	ausrottung	sterben	gemein	gierig	töten	engagiert	vertrauen	gesittet	vergnügt	kuss	besonnen	engstirnig	versagen	geizig	verbissen	krise	bange	1	blank2r.bmp	0	1	+	0	1	blank2r.bmp	500	1	DHJF	500	1	blank2r.bmp	880	5	gierig	880	1	!	1232	1	!	-1	0	0	0	0	0	0
2024-06-19	14:17:24	14:28:35	671083	6.6.1	4_exp_EVA_AWA_CON	89	A	B	Rpleas_acq	Same	Rpleas	1pleas	acq_US_pleas_nomask	acq45_nomask	5	7	400	1	300	300	0	0	418	50	1	0	kreativ	anregung	sonnig	genießen	gütig	träumen	krank	ausrottung	sterben	gemein	gierig	töten	engagiert	vertrauen	gesittet	vergnügt	kuss	besonnen	engstirnig	versagen	geizig	verbissen	krise	bange	1	blank2r.bmp	0	1	+	0	1	blank2r.bmp	500	1	CPLW	500	1	blank2r.bmp	880	1	kreativ	880	1	!	1232	1	!	1319	0	0	0	0	0	0
2024-06-19	14:17:24	14:28:38	673401	6.6.1	4_exp_EVA_AWA_CON	89	A	B	Rpleas_acq	Same	Rpleas	1pleas	acq_US_pleas_nomask	acq45_nomask	5	8	400	0	300	300	0	0	537	50	1	0	kreativ	anregung	sonnig	genießen	gütig	träumen	krank	ausrottung	sterben	gemein	gierig	töten	engagiert	vertrauen	gesittet	vergnügt	kuss	besonnen	engstirnig	versagen	geizig	verbissen	krise	bange	1	blank2r.bmp	0	1	+	0	1	blank2r.bmp	500	1	CPLW	500	1	blank2r.bmp	880	4	genießen	880	1	!	1232	1	!	-1	0	0	0	0	0	0
2024-06-19	14:17:24	14:28:40	675648	6.6.1	4_exp_EVA_AWA_CON	89	A	B	Rpleas_acq	Same	Rpleas	1pleas	acq_US_unple_nomask	acq45_nomask	5	9	400	0	300	300	0	0	473	46	1	0	kreativ	anregung	sonnig	genießen	gütig	träumen	krank	ausrottung	sterben	gemein	gierig	töten	engagiert	vertrauen	gesittet	vergnügt	kuss	besonnen	engstirnig	versagen	geizig	verbissen	krise	bange	1	blank2r.bmp	0	1	+	0	1	blank2r.bmp	500	1	DHJF	500	1	blank2r.bmp	880	4	gemein	880	1	!	1233	1	!	-1	0	0	0	0	0	0
2024-06-19	14:17:24	14:28:42	677913	6.6.1	4_exp_EVA_AWA_CON	89	A	B	Rpleas_acq	Same	Rpleas	1pleas	acq_US_unple_nomask	acq45_nomask	5	10	400	0	300	300	0	0	486	46	1	0	kreativ	anregung	sonnig	genießen	gütig	träumen	krank	ausrottung	sterben	gemein	gierig	töten	engagiert	vertrauen	gesittet	vergnügt	kuss	besonnen	engstirnig	versagen	geizig	verbissen	krise	bange	1	blank2r.bmp	0	1	+	0	1	blank2r.bmp	500	1	DHJF	500	1	blank2r.bmp	880	1	krank	880	1	!	1232	1	!	-1	0	0	0	0	0	0
2024-06-19	14:17:24	14:28:44	680010	6.6.1	4_exp_EVA_AWA_CON	89	A	B	Rpleas_acq	Same	Rpleas	1pleas	acq_US_unple_nomask	acq45_nomask	5	11	400	0	300	300	0	0	320	46	1	0	kreativ	anregung	sonnig	genießen	gütig	träumen	krank	ausrottung	sterben	gemein	gierig	töten	engagiert	vertrauen	gesittet	vergnügt	kuss	besonnen	engstirnig	versagen	geizig	verbissen	krise	bange	1	blank2r.bmp	0	1	+	0	1	blank2r.bmp	500	1	DHJF	500	1	blank2r.bmp	880	6	töten	880	1	!	-1	1	!	-1	0	0	0	0	0	0
2024-06-19	14:17:24	14:28:47	682353	6.6.1	4_exp_EVA_AWA_CON	89	A	B	Rpleas_acq	Same	Rpleas	1pleas	acq_US_pleas_nomask	acq45_nomask	5	12	400	0	300	300	0	0	563	50	1	0	kreativ	anregung	sonnig	genießen	gütig	träumen	krank	ausrottung	sterben	gemein	gierig	töten	engagiert	vertrauen	gesittet	vergnügt	kuss	besonnen	engstirnig	versagen	geizig	verbissen	krise	bange	1	blank2r.bmp	0	1	+	0	1	blank2r.bmp	500	1	CPLW	500	1	blank2r.bmp	880	6	träumen	880	1	!	1232	1	!	-1	0	0	0	0	0	0
2024-06-19	14:17:24	14:28:49	684555	6.6.1	4_exp_EVA_AWA_CON	89	A	B	Rpleas_acq	Same	Rpleas	1pleas	acq_US_pleas_nomask	acq45_nomask	5	13	400	1	300	300	0	0	421	50	1	0	kreativ	anregung	sonnig	genießen	gütig	träumen	krank	ausrottung	sterben	gemein	gierig	töten	engagiert	vertrauen	gesittet	vergnügt	kuss	besonnen	engstirnig	versagen	geizig	verbissen	krise	bange	1	blank2r.bmp	0	1	+	0	1	blank2r.bmp	500	1	CPLW	500	1	blank2r.bmp	880	1	kreativ	880	1	!	1232	1	!	1322	0	0	0	0	0	0
2024-06-19	14:17:24	14:28:51	686731	6.6.1	4_exp_EVA_AWA_CON	89	A	B	Rpleas_acq	Same	Rpleas	1pleas	acq_US_unple_nomask	acq45_nomask	5	14	400	1	300	300	0	0	396	46	1	0	kreativ	anregung	sonnig	genießen	gütig	träumen	krank	ausrottung	sterben	gemein	gierig	töten	engagiert	vertrauen	gesittet	vergnügt	kuss	besonnen	engstirnig	versagen	geizig	verbissen	krise	bange	1	blank2r.bmp	0	1	+	0	1	blank2r.bmp	500	1	DHJF	500	1	blank2r.bmp	880	2	ausrottung	880	1	!	1232	1	!	1297	0	0	0	0	0	0
2024-06-19	14:17:24	14:28:53	689009	6.6.1	4_exp_EVA_AWA_CON	89	A	B	Rpleas_acq	Same	Rpleas	1pleas	acq_US_pleas_nomask	acq45_nomask	5	15	400	0	300	300	0	0	504	46	0	0	kreativ	anregung	sonnig	genießen	gütig	träumen	krank	ausrottung	sterben	gemein	gierig	töten	engagiert	vertrauen	gesittet	vergnügt	kuss	besonnen	engstirnig	versagen	geizig	verbissen	krise	bange	1	blank2r.bmp	0	1	+	0	1	blank2r.bmp	500	1	CPLW	500	1	blank2r.bmp	880	2	anregung	880	1	!	1232	1	!	-1	0	0	0	0	0	0
2024-06-19	14:17:24	14:28:56	691220	6.6.1	4_exp_EVA_AWA_CON	89	A	B	Rpleas_acq	Same	Rpleas	1pleas	acq_US_unple_nomask	acq45_nomask	5	16	400	1	300	300	0	0	431	46	1	0	kreativ	anregung	sonnig	genießen	gütig	träumen	krank	ausrottung	sterben	gemein	gierig	töten	engagiert	vertrauen	gesittet	vergnügt	kuss	besonnen	engstirnig	versagen	geizig	verbissen	krise	bange	1	blank2r.bmp	0	1	+	0	1	blank2r.bmp	500	1	DHJF	500	1	blank2r.bmp	880	2	ausrottung	880	1	!	1232	1	!	1332	0	0	0	0	0	0
2024-06-19	14:17:24	14:28:58	693379	6.6.1	4_exp_EVA_AWA_CON	89	A	B	Rpleas_acq	Same	Rpleas	1pleas	acq_US_unple_nomask	acq45_nomask	5	17	400	1	300	300	0	0	379	46	1	0	kreativ	anregung	sonnig	genießen	gütig	träumen	krank	ausrottung	sterben	gemein	gierig	töten	engagiert	vertrauen	gesittet	vergnügt	kuss	besonnen	engstirnig	versagen	geizig	verbissen	krise	bange	1	blank2r.bmp	0	1	+	0	1	blank2r.bmp	500	1	DHJF	500	1	blank2r.bmp	880	3	sterben	880	1	!	1232	1	!	1280	0	0	0	0	0	0
2024-06-19	14:17:24	14:29:00	695665	6.6.1	4_exp_EVA_AWA_CON	89	A	B	Rpleas_acq	Same	Rpleas	1pleas	acq_US_unple_nomask	acq45_nomask	5	18	400	0	300	300	0	0	506	46	1	0	kreativ	anregung	sonnig	genießen	gütig	träumen	krank	ausrottung	sterben	gemein	gierig	töten	engagiert	vertrauen	gesittet	vergnügt	kuss	besonnen	engstirnig	versagen	geizig	verbissen	krise	bange	1	blank2r.bmp	0	1	+	0	1	blank2r.bmp	500	1	DHJF	500	1	blank2r.bmp	880	6	töten	880	1	!	1233	1	!	-1	0	0	0	0	0	0
2024-06-19	14:17:24	14:29:02	697953	6.6.1	4_exp_EVA_AWA_CON	89	A	B	Rpleas_acq	Same	Rpleas	1pleas	acq_US_pleas_nomask	acq45_nomask	5	19	400	0	300	300	0	0	513	50	1	0	kreativ	anregung	sonnig	genießen	gütig	träumen	krank	ausrottung	sterben	gemein	gierig	töten	engagiert	vertrauen	gesittet	vergnügt	kuss	besonnen	engstirnig	versagen	geizig	verbissen	krise	bange	1	blank2r.bmp	0	1	+	0	1	blank2r.bmp	500	1	CPLW	500	1	blank2r.bmp	880	3	sonnig	880	1	!	1232	1	!	-1	0	0	0	0	0	0
2024-06-19	14:17:24	14:29:05	700217	6.6.1	4_exp_EVA_AWA_CON	89	A	B	Rpleas_acq	Same	Rpleas	1pleas	acq_US_pleas_nomask	acq45_nomask	5	20	400	0	300	300	0	0	485	50	1	0	kreativ	anregung	sonnig	genießen	gütig	träumen	krank	ausrottung	sterben	gemein	gierig	töten	engagiert	vertrauen	gesittet	vergnügt	kuss	besonnen	engstirnig	versagen	geizig	verbissen	krise	bange	1	blank2r.bmp	0	1	+	0	1	blank2r.bmp	500	1	CPLW	500	1	blank2r.bmp	880	4	genießen	880	1	!	1233	1	!	-1	0	0	0	0	0	0
2024-06-19	14:17:24	14:29:07	702489	6.6.1	4_exp_EVA_AWA_CON	89	A	B	Rpleas_acq	Same	Rpleas	1pleas	acq_US_pleas_nomask	acq45_nomask	5	21	400	0	300	300	0	0	496	50	1	0	kreativ	anregung	sonnig	genießen	gütig	träumen	krank	ausrottung	sterben	gemein	gierig	töten	engagiert	vertrauen	gesittet	vergnügt	kuss	besonnen	engstirnig	versagen	geizig	verbissen	krise	bange	1	blank2r.bmp	0	1	+	0	1	blank2r.bmp	500	1	CPLW	500	1	blank2r.bmp	880	5	gütig	880	1	!	1232	1	!	-1	0	0	0	0	0	0
2024-06-19	14:17:24	14:29:09	704619	6.6.1	4_exp_EVA_AWA_CON	89	A	B	Rpleas_acq	Same	Rpleas	1pleas	acq_US_unple_nomask	acq45_nomask	5	22	400	1	300	300	0	0	352	50	0	0	kreativ	anregung	sonnig	genießen	gütig	träumen	krank	ausrottung	sterben	gemein	gierig	töten	engagiert	vertrauen	gesittet	vergnügt	kuss	besonnen	engstirnig	versagen	geizig	verbissen	krise	bange	1	blank2r.bmp	0	1	+	0	1	blank2r.bmp	500	1	DHJF	500	1	blank2r.bmp	880	1	krank	880	1	!	1233	1	!	1253	0	0	0	0	0	0
2024-06-19	14:17:24	14:29:11	707105	6.6.1	4_exp_EVA_AWA_CON	89	A	B	Rpleas_acq	Same	Rpleas	1pleas	acq_US_unple_nomask	acq45_nomask	5	23	400	0	300	300	0	0	709	46	1	0	kreativ	anregung	sonnig	genießen	gütig	träumen	krank	ausrottung	sterben	gemein	gierig	töten	engagiert	vertrauen	gesittet	vergnügt	kuss	besonnen	engstirnig	versagen	geizig	verbissen	krise	bange	1	blank2r.bmp	0	1	+	0	1	blank2r.bmp	500	1	DHJF	500	1	blank2r.bmp	880	4	gemein	880	1	!	1232	1	!	-1	0	0	0	0	0	0
2024-06-19	14:17:24	14:29:14	709340	6.6.1	4_exp_EVA_AWA_CON	89	A	B	Rpleas_acq	Same	Rpleas	1pleas	acq_US_unple_nomask	acq45_nomask	5	24	400	1	300	300	0	0	459	50	0	0	kreativ	anregung	sonnig	genießen	gütig	träumen	krank	ausrottung	sterben	gemein	gierig	töten	engagiert	vertrauen	gesittet	vergnügt	kuss	besonnen	engstirnig	versagen	geizig	verbissen	krise	bange	1	blank2r.bmp	0	1	+	0	1	blank2r.bmp	500	1	DHJF	500	1	blank2r.bmp	880	5	gierig	880	1	!	1232	1	!	1360	0	0	0	0	0	0
2024-06-19	14:17:24	14:29:16	711801	6.6.1	4_exp_EVA_AWA_CON	89	A	B	Rpleas_acq	Same	Rpleas	1pleas	acq_US_unple_nomask	acq45_nomask	5	25	400	0	300	300	0	0	682	46	1	0	kreativ	anregung	sonnig	genießen	gütig	träumen	krank	ausrottung	sterben	gemein	gierig	töten	engagiert	vertrauen	gesittet	vergnügt	kuss	besonnen	engstirnig	versagen	geizig	verbissen	krise	bange	1	blank2r.bmp	0	1	+	0	1	blank2r.bmp	500	1	DHJF	500	1	blank2r.bmp	880	3	sterben	880	1	!	1232	1	!	-1	0	0	0	0	0	0
2024-06-19	14:17:24	14:29:19	714322	6.6.1	4_exp_EVA_AWA_CON	89	A	B	Rpleas_acq	Same	Rpleas	1pleas	acq_US_pleas_nomask	acq45_nomask	5	26	400	0	300	300	0	0	740	50	1	0	kreativ	anregung	sonnig	genießen	gütig	träumen	krank	ausrottung	sterben	gemein	gierig	töten	engagiert	vertrauen	gesittet	vergnügt	kuss	besonnen	engstirnig	versagen	geizig	verbissen	krise	bange	1	blank2r.bmp	0	1	+	0	1	blank2r.bmp	500	1	CPLW	500	1	blank2r.bmp	880	2	anregung	880	1	!	1233	1	!	-1	0	0	0	0	0	0
2024-06-19	14:17:24	14:29:21	716523	6.6.1	4_exp_EVA_AWA_CON	89	A	B	Rpleas_acq	Same	Rpleas	1pleas	acq_US_unple_nomask	acq45_nomask	5	27	400	1	300	300	0	0	418	46	1	0	kreativ	anregung	sonnig	genießen	gütig	träumen	krank	ausrottung	sterben	gemein	gierig	töten	engagiert	vertrauen	gesittet	vergnügt	kuss	besonnen	engstirnig	versagen	geizig	verbissen	krise	bange	1	blank2r.bmp	0	1	+	0	1	blank2r.bmp	500	1	DHJF	500	1	blank2r.bmp	880	6	töten	880	1	!	1232	1	!	1319	0	0	0	0	0	0
2024-06-19	14:17:24	14:29:23	718849	6.6.1	4_exp_EVA_AWA_CON	89	A	B	Rpleas_acq	Same	Rpleas	1pleas	acq_US_pleas_nomask	acq45_nomask	5	28	400	0	300	300	0	0	545	50	1	0	kreativ	anregung	sonnig	genießen	gütig	träumen	krank	ausrottung	sterben	gemein	gierig	töten	engagiert	vertrauen	gesittet	vergnügt	kuss	besonnen	engstirnig	versagen	geizig	verbissen	krise	bange	1	blank2r.bmp	0	1	+	0	1	blank2r.bmp	500	1	CPLW	500	1	blank2r.bmp	880	1	kreativ	880	1	!	1232	1	!	-1	0	0	0	0	0	0
2024-06-19	14:17:24	14:29:26	721145	6.6.1	4_exp_EVA_AWA_CON	89	A	B	Rpleas_acq	Same	Rpleas	1pleas	acq_US_unple_nomask	acq45_nomask	5	29	400	0	300	300	0	0	519	46	1	0	kreativ	anregung	sonnig	genießen	gütig	träumen	krank	ausrottung	sterben	gemein	gierig	töten	engagiert	vertrauen	gesittet	vergnügt	kuss	besonnen	engstirnig	versagen	geizig	verbissen	krise	bange	1	blank2r.bmp	0	1	+	0	1	blank2r.bmp	500	1	DHJF	500	1	blank2r.bmp	880	1	krank	880	1	!	1232	1	!	-1	0	0	0	0	0	0
2024-06-19	14:17:24	14:29:28	723363	6.6.1	4_exp_EVA_AWA_CON	89	A	B	Rpleas_acq	Same	Rpleas	1pleas	acq_US_pleas_nomask	acq45_nomask	5	30	400	1	300	300	0	0	444	50	1	0	kreativ	anregung	sonnig	genießen	gütig	träumen	krank	ausrottung	sterben	gemein	gierig	töten	engagiert	vertrauen	gesittet	vergnügt	kuss	besonnen	engstirnig	versagen	geizig	verbissen	krise	bange	1	blank2r.bmp	0	1	+	0	1	blank2r.bmp	500	1	CPLW	500	1	blank2r.bmp	880	6	träumen	880	1	!	1232	1	!	1345	0	0	0	0	0	0
2024-06-19	14:17:24	14:29:30	725665	6.6.1	4_exp_EVA_AWA_CON	89	A	B	Rpleas_acq	Same	Rpleas	1pleas	acq_US_pleas_nomask	acq45_nomask	5	31	400	0	300	300	0	0	526	46	0	0	kreativ	anregung	sonnig	genießen	gütig	träumen	krank	ausrottung	sterben	gemein	gierig	töten	engagiert	vertrauen	gesittet	vergnügt	kuss	besonnen	engstirnig	versagen	geizig	verbissen	krise	bange	1	blank2r.bmp	0	1	+	0	1	blank2r.bmp	500	1	CPLW	500	1	blank2r.bmp	880	4	genießen	880	1	!	1233	1	!	-1	0	0	0	0	0	0
2024-06-19	14:17:24	14:29:33	728162	6.6.1	4_exp_EVA_AWA_CON	89	A	B	Rpleas_acq	Same	Rpleas	1pleas	acq_US_pleas_nomask	acq45_nomask	5	32	400	0	300	300	0	0	721	50	1	0	kreativ	anregung	sonnig	genießen	gütig	träumen	krank	ausrottung	sterben	gemein	gierig	töten	engagiert	vertrauen	gesittet	vergnügt	kuss	besonnen	engstirnig	versagen	geizig	verbissen	krise	bange	1	blank2r.bmp	0	1	+	0	1	blank2r.bmp	500	1	CPLW	500	1	blank2r.bmp	880	5	gütig	880	1	!	1232	1	!	-1	0	0	0	0	0	0
2024-06-19	14:17:24	14:29:35	730601	6.6.1	4_exp_EVA_AWA_CON	89	A	B	Rpleas_acq	Same	Rpleas	1pleas	acq_US_unple_nomask	acq45_nomask	5	33	400	0	300	300	0	0	659	46	1	0	kreativ	anregung	sonnig	genießen	gütig	träumen	krank	ausrottung	sterben	gemein	gierig	töten	engagiert	vertrauen	gesittet	vergnügt	kuss	besonnen	engstirnig	versagen	geizig	verbissen	krise	bange	1	blank2r.bmp	0	1	+	0	1	blank2r.bmp	500	1	DHJF	500	1	blank2r.bmp	880	5	gierig	880	1	!	1232	1	!	-1	0	0	0	0	0	0
2024-06-19	14:17:24	14:29:37	732827	6.6.1	4_exp_EVA_AWA_CON	89	A	B	Rpleas_acq	Same	Rpleas	1pleas	acq_US_pleas_nomask	acq45_nomask	5	34	400	1	300	300	0	0	452	50	1	0	kreativ	anregung	sonnig	genießen	gütig	träumen	krank	ausrottung	sterben	gemein	gierig	töten	engagiert	vertrauen	gesittet	vergnügt	kuss	besonnen	engstirnig	versagen	geizig	verbissen	krise	bange	1	blank2r.bmp	0	1	+	0	1	blank2r.bmp	500	1	CPLW	500	1	blank2r.bmp	880	3	sonnig	880	1	!	1232	1	!	1353	0	0	0	0	0	0
2024-06-19	14:17:24	14:29:40	735146	6.6.1	4_exp_EVA_AWA_CON	89	A	B	Rpleas_acq	Same	Rpleas	1pleas	acq_US_unple_nomask	acq45_nomask	5	35	400	0	300	300	0	0	540	46	1	0	kreativ	anregung	sonnig	genießen	gütig	träumen	krank	ausrottung	sterben	gemein	gierig	töten	engagiert	vertrauen	gesittet	vergnügt	kuss	besonnen	engstirnig	versagen	geizig	verbissen	krise	bange	1	blank2r.bmp	0	1	+	0	1	blank2r.bmp	500	1	DHJF	500	1	blank2r.bmp	880	4	gemein	880	1	!	1232	1	!	-1	0	0	0	0	0	0
2024-06-19	14:17:24	14:29:42	737418	6.6.1	4_exp_EVA_AWA_CON	89	A	B	Rpleas_acq	Same	Rpleas	1pleas	acq_US_unple_nomask	acq45_nomask	5	36	400	0	300	300	0	0	491	46	1	0	kreativ	anregung	sonnig	genießen	gütig	träumen	krank	ausrottung	sterben	gemein	gierig	töten	engagiert	vertrauen	gesittet	vergnügt	kuss	besonnen	engstirnig	versagen	geizig	verbissen	krise	bange	1	blank2r.bmp	0	1	+	0	1	blank2r.bmp	500	1	DHJF	500	1	blank2r.bmp	880	2	ausrottung	880	1	!	1232	1	!	-1	0	0	0	0	0	0
2024-06-19	14:17:24	14:30:08	764101	6.6.1	4_exp_EVA_AWA_CON	89	A	B	Rpleas_acq	Same	Rpleas	1pleas	EvalRating_firsttwo	EvalRating_firsttwo	6	1	0	0	300	300	0	0	7313	line	0	-2,0833333333333285964pct	kreativ	anregung	sonnig	genießen	gütig	träumen	krank	ausrottung	sterben	gemein	gierig	töten	engagiert	vertrauen	gesittet	vergnügt	kuss	besonnen	engstirnig	versagen	geizig	verbissen	krise	bange	1		-8	1	Wie angenehm oder unangenehm finden Sie die  Buchstabenkette WDLH?	-8	1		-8	1		-8	1		-8	1	Unangenehm	-8	1	Angenehm	-8	0	0	0	0	0	0	0	0	0
2024-06-19	14:17:24	14:30:16	771141	6.6.1	4_exp_EVA_AWA_CON	89	A	B	Rpleas_acq	Same	Rpleas	1pleas	EvalRating_lastfour	EvalRating_lastfour	7	1	0	0	300	300	0	0	4666	line	0	45,9635416666666856145pct	kreativ	anregung	sonnig	genießen	gütig	träumen	krank	ausrottung	sterben	gemein	gierig	töten	engagiert	vertrauen	gesittet	vergnügt	kuss	besonnen	engstirnig	versagen	geizig	verbissen	krise	bange	1		-8	3	Wie angenehm oder unangenehm finden Sie die  Buchstabenkette FCJP?	-8	1		-8	1		-8	1		-8	1	Unangenehm	-8	1	Angenehm	-8	0	0	0	0	0	0	0	0	0
2024-06-19	14:17:24	14:30:18	773512	6.6.1	4_exp_EVA_AWA_CON	89	A	B	Rpleas_acq	Same	Rpleas	1pleas	blank_screen	EvalRating_lastfour	7	3	0	0	300	300	0	0	0	0	0	45,9635416666666856145pct	kreativ	anregung	sonnig	genießen	gütig	träumen	krank	ausrottung	sterben	gemein	gierig	töten	engagiert	vertrauen	gesittet	vergnügt	kuss	besonnen	engstirnig	versagen	geizig	verbissen	krise	bange	1		-8	0	0	0	0	0	0	0	0	0	0	0	0	0	0	0	0	0	0	0	0	0	0	0	0	0	0	0
2024-06-19	14:17:24	14:30:21	776166	6.6.1	4_exp_EVA_AWA_CON	89	A	B	Rpleas_acq	Same	Rpleas	1pleas	EvalRating_lastfour	EvalRating_lastfour	7	4	0	0	300	300	0	0	2066	line	0	57,8125pct	kreativ	anregung	sonnig	genießen	gütig	träumen	krank	ausrottung	sterben	gemein	gierig	töten	engagiert	vertrauen	gesittet	vergnügt	kuss	besonnen	engstirnig	versagen	geizig	verbissen	krise	bange	1		-7	2	Wie angenehm oder unangenehm finden Sie die  Buchstabenkette DHJF?	-7	1		-7	1		-7	1		-7	1	Unangenehm	-7	1	Angenehm	-7	0	0	0	0	0	0	0	0	0
2024-06-19	14:17:24	14:30:23	778536	6.6.1	4_exp_EVA_AWA_CON	89	A	B	Rpleas_acq	Same	Rpleas	1pleas	blank_screen	EvalRating_lastfour	7	6	0	0	300	300	0	0	0	0	0	57,8125pct	kreativ	anregung	sonnig	genießen	gütig	träumen	krank	ausrottung	sterben	gemein	gierig	töten	engagiert	vertrauen	gesittet	vergnügt	kuss	besonnen	engstirnig	versagen	geizig	verbissen	krise	bange	1		-8	0	0	0	0	0	0	0	0	0	0	0	0	0	0	0	0	0	0	0	0	0	0	0	0	0	0	0
2024-06-19	14:17:24	14:30:26	781285	6.6.1	4_exp_EVA_AWA_CON	89	A	B	Rpleas_acq	Same	Rpleas	1pleas	EvalRating_lastfour	EvalRating_lastfour	7	7	0	0	300	300	0	0	2161	line	0	27,2135416666666714036pct	kreativ	anregung	sonnig	genießen	gütig	träumen	krank	ausrottung	sterben	gemein	gierig	töten	engagiert	vertrauen	gesittet	vergnügt	kuss	besonnen	engstirnig	versagen	geizig	verbissen	krise	bange	1		-8	1	Wie angenehm oder unangenehm finden Sie die  Buchstabenkette CPLW?	-8	1		-8	1		-8	1		-8	1	Unangenehm	-8	1	Angenehm	-8	0	0	0	0	0	0	0	0	0
2024-06-19	14:17:24	14:30:43	798747	6.6.1	4_exp_EVA_AWA_CON	89	A	B	Rpleas_acq	Same	Rpleas	1pleas	conawa_CS2_US2	conawa1_nomask	8	1	0	0	300	300	0	0	11974	anregung	1	27,2135416666666714036pct	kreativ	anregung	sonnig	genießen	gütig	träumen	krank	ausrottung	sterben	gemein	gierig	töten	engagiert	vertrauen	gesittet	vergnügt	kuss	besonnen	engstirnig	versagen	geizig	verbissen	krise	bange	0	0	0	0	0	0	0	0	0	0	0	0	0	0	0	0	0	0	0	0	0	0	0	0	0	0	0	0	0	0
2024-06-19	14:17:24	14:30:43	798748	6.6.1	4_exp_EVA_AWA_CON	89	A	B	Rpleas_acq	Same	Rpleas	1pleas	conawa_CS2_US2_confidence	conawa1_nomask	8	1	0	0	300	300	0	0	11974	guess	1	27,2135416666666714036pct	kreativ	anregung	sonnig	genießen	gütig	träumen	krank	ausrottung	sterben	gemein	gierig	töten	engagiert	vertrauen	gesittet	vergnügt	kuss	besonnen	engstirnig	versagen	geizig	verbissen	krise	bange	0	0	0	0	0	0	0	0	0	0	0	0	0	0	0	0	0	0	0	0	0	0	0	0	0	0	0	0	0	0
2024-06-19	14:17:24	14:30:53	809064	6.6.1	4_exp_EVA_AWA_CON	89	A	B	Rpleas_acq	Same	Rpleas	1pleas	conawa_CS2_US5	conawa1_nomask	8	2	0	0	300	300	0	0	9701	gierig	1	27,2135416666666714036pct	kreativ	anregung	sonnig	genießen	gütig	träumen	krank	ausrottung	sterben	gemein	gierig	töten	engagiert	vertrauen	gesittet	vergnügt	kuss	besonnen	engstirnig	versagen	geizig	verbissen	krise	bange	0	0	0	0	0	0	0	0	0	0	0	0	0	0	0	0	0	0	0	0	0	0	0	0	0	0	0	0	0	0
2024-06-19	14:17:24	14:30:53	809065	6.6.1	4_exp_EVA_AWA_CON	89	A	B	Rpleas_acq	Same	Rpleas	1pleas	conawa_CS2_US5_confidence	conawa1_nomask	8	2	0	0	300	300	0	0	9701	guess	1	27,2135416666666714036pct	kreativ	anregung	sonnig	genießen	gütig	träumen	krank	ausrottung	sterben	gemein	gierig	töten	engagiert	vertrauen	gesittet	vergnügt	kuss	besonnen	engstirnig	versagen	geizig	verbissen	krise	bange	0	0	0	0	0	0	0	0	0	0	0	0	0	0	0	0	0	0	0	0	0	0	0	0	0	0	0	0	0	0
2024-06-19	14:17:24	14:31:02	817860	6.6.1	4_exp_EVA_AWA_CON	89	A	B	Rpleas_acq	Same	Rpleas	1pleas	conawa_CS1_US4	conawa1_nomask	8	3	0	0	300	300	0	0	8182	gemein	1	27,2135416666666714036pct	kreativ	anregung	sonnig	genießen	gütig	träumen	krank	ausrottung	sterben	gemein	gierig	töten	engagiert	vertrauen	gesittet	vergnügt	kuss	besonnen	engstirnig	versagen	geizig	verbissen	krise	bange	0	0	0	0	0	0	0	0	0	0	0	0	0	0	0	0	0	0	0	0	0	0	0	0	0	0	0	0	0	0
2024-06-19	14:17:24	14:31:02	817860	6.6.1	4_exp_EVA_AWA_CON	89	A	B	Rpleas_acq	Same	Rpleas	1pleas	conawa_CS1_US4_confidence	conawa1_nomask	8	3	0	0	300	300	0	0	8182	guess	1	27,2135416666666714036pct	kreativ	anregung	sonnig	genießen	gütig	träumen	krank	ausrottung	sterben	gemein	gierig	töten	engagiert	vertrauen	gesittet	vergnügt	kuss	besonnen	engstirnig	versagen	geizig	verbissen	krise	bange	0	0	0	0	0	0	0	0	0	0	0	0	0	0	0	0	0	0	0	0	0	0	0	0	0	0	0	0	0	0
2024-06-19	14:17:24	14:31:09	825024	6.6.1	4_exp_EVA_AWA_CON	89	A	B	Rpleas_acq	Same	Rpleas	1pleas	conawa_CS2_US4	conawa1_nomask	8	4	0	0	300	300	0	0	6550	krise	1	27,2135416666666714036pct	kreativ	anregung	sonnig	genießen	gütig	träumen	krank	ausrottung	sterben	gemein	gierig	töten	engagiert	vertrauen	gesittet	vergnügt	kuss	besonnen	engstirnig	versagen	geizig	verbissen	krise	bange	0	0	0	0	0	0	0	0	0	0	0	0	0	0	0	0	0	0	0	0	0	0	0	0	0	0	0	0	0	0
2024-06-19	14:17:24	14:31:09	825025	6.6.1	4_exp_EVA_AWA_CON	89	A	B	Rpleas_acq	Same	Rpleas	1pleas	conawa_CS2_US4_confidence	conawa1_nomask	8	4	0	0	300	300	0	0	6550	guess	1	27,2135416666666714036pct	kreativ	anregung	sonnig	genießen	gütig	träumen	krank	ausrottung	sterben	gemein	gierig	töten	engagiert	vertrauen	gesittet	vergnügt	kuss	besonnen	engstirnig	versagen	geizig	verbissen	krise	bange	0	0	0	0	0	0	0	0	0	0	0	0	0	0	0	0	0	0	0	0	0	0	0	0	0	0	0	0	0	0
2024-06-19	14:17:24	14:31:15	831099	6.6.1	4_exp_EVA_AWA_CON	89	A	B	Rpleas_acq	Same	Rpleas	1pleas	conawa_CS1_US6	conawa1_nomask	8	5	0	0	300	300	0	0	5455	töten	1	27,2135416666666714036pct	kreativ	anregung	sonnig	genießen	gütig	träumen	krank	ausrottung	sterben	gemein	gierig	töten	engagiert	vertrauen	gesittet	vergnügt	kuss	besonnen	engstirnig	versagen	geizig	verbissen	krise	bange	0	0	0	0	0	0	0	0	0	0	0	0	0	0	0	0	0	0	0	0	0	0	0	0	0	0	0	0	0	0
2024-06-19	14:17:24	14:31:15	831099	6.6.1	4_exp_EVA_AWA_CON	89	A	B	Rpleas_acq	Same	Rpleas	1pleas	conawa_CS1_US6_confidence	conawa1_nomask	8	5	0	0	300	300	0	0	5455	guess	1	27,2135416666666714036pct	kreativ	anregung	sonnig	genießen	gütig	träumen	krank	ausrottung	sterben	gemein	gierig	töten	engagiert	vertrauen	gesittet	vergnügt	kuss	besonnen	engstirnig	versagen	geizig	verbissen	krise	bange	0	0	0	0	0	0	0	0	0	0	0	0	0	0	0	0	0	0	0	0	0	0	0	0	0	0	0	0	0	0
2024-06-19	14:17:24	14:31:21	836812	6.6.1	4_exp_EVA_AWA_CON	89	A	B	Rpleas_acq	Same	Rpleas	1pleas	conawa_CS2_US3	conawa1_nomask	8	6	0	0	300	300	0	0	5103	sterben	1	27,2135416666666714036pct	kreativ	anregung	sonnig	genießen	gütig	träumen	krank	ausrottung	sterben	gemein	gierig	töten	engagiert	vertrauen	gesittet	vergnügt	kuss	besonnen	engstirnig	versagen	geizig	verbissen	krise	bange	0	0	0	0	0	0	0	0	0	0	0	0	0	0	0	0	0	0	0	0	0	0	0	0	0	0	0	0	0	0
2024-06-19	14:17:24	14:31:21	836812	6.6.1	4_exp_EVA_AWA_CON	89	A	B	Rpleas_acq	Same	Rpleas	1pleas	conawa_CS2_US3_confidence	conawa1_nomask	8	6	0	0	300	300	0	0	5103	guess	1	27,2135416666666714036pct	kreativ	anregung	sonnig	genießen	gütig	träumen	krank	ausrottung	sterben	gemein	gierig	töten	engagiert	vertrauen	gesittet	vergnügt	kuss	besonnen	engstirnig	versagen	geizig	verbissen	krise	bange	0	0	0	0	0	0	0	0	0	0	0	0	0	0	0	0	0	0	0	0	0	0	0	0	0	0	0	0	0	0
2024-06-19	14:17:24	14:31:29	844467	6.6.1	4_exp_EVA_AWA_CON	89	A	B	Rpleas_acq	Same	Rpleas	1pleas	conawa_CS1_US3	conawa1_nomask	8	7	0	0	300	300	0	0	7036	geizig	1	27,2135416666666714036pct	kreativ	anregung	sonnig	genießen	gütig	träumen	krank	ausrottung	sterben	gemein	gierig	töten	engagiert	vertrauen	gesittet	vergnügt	kuss	besonnen	engstirnig	versagen	geizig	verbissen	krise	bange	0	0	0	0	0	0	0	0	0	0	0	0	0	0	0	0	0	0	0	0	0	0	0	0	0	0	0	0	0	0
2024-06-19	14:17:24	14:31:29	844468	6.6.1	4_exp_EVA_AWA_CON	89	A	B	Rpleas_acq	Same	Rpleas	1pleas	conawa_CS1_US3_confidence	conawa1_nomask	8	7	0	0	300	300	0	0	7036	guess	1	27,2135416666666714036pct	kreativ	anregung	sonnig	genießen	gütig	träumen	krank	ausrottung	sterben	gemein	gierig	töten	engagiert	vertrauen	gesittet	vergnügt	kuss	besonnen	engstirnig	versagen	geizig	verbissen	krise	bange	0	0	0	0	0	0	0	0	0	0	0	0	0	0	0	0	0	0	0	0	0	0	0	0	0	0	0	0	0	0
2024-06-19	14:17:24	14:31:36	851131	6.6.1	4_exp_EVA_AWA_CON	89	A	B	Rpleas_acq	Same	Rpleas	1pleas	conawa_CS1_US1	conawa1_nomask	8	8	0	0	300	300	0	0	6047	krank	1	27,2135416666666714036pct	kreativ	anregung	sonnig	genießen	gütig	träumen	krank	ausrottung	sterben	gemein	gierig	töten	engagiert	vertrauen	gesittet	vergnügt	kuss	besonnen	engstirnig	versagen	geizig	verbissen	krise	bange	0	0	0	0	0	0	0	0	0	0	0	0	0	0	0	0	0	0	0	0	0	0	0	0	0	0	0	0	0	0
2024-06-19	14:17:24	14:31:36	851132	6.6.1	4_exp_EVA_AWA_CON	89	A	B	Rpleas_acq	Same	Rpleas	1pleas	conawa_CS1_US1_confidence	conawa1_nomask	8	8	0	0	300	300	0	0	6047	guess	1	27,2135416666666714036pct	kreativ	anregung	sonnig	genießen	gütig	träumen	krank	ausrottung	sterben	gemein	gierig	töten	engagiert	vertrauen	gesittet	vergnügt	kuss	besonnen	engstirnig	versagen	geizig	verbissen	krise	bange	0	0	0	0	0	0	0	0	0	0	0	0	0	0	0	0	0	0	0	0	0	0	0	0	0	0	0	0	0	0
2024-06-19	14:17:24	14:31:43	858826	6.6.1	4_exp_EVA_AWA_CON	89	A	B	Rpleas_acq	Same	Rpleas	1pleas	conawa_CS1_US5	conawa1_nomask	8	9	0	0	300	300	0	0	7078	krise	1	27,2135416666666714036pct	kreativ	anregung	sonnig	genießen	gütig	träumen	krank	ausrottung	sterben	gemein	gierig	töten	engagiert	vertrauen	gesittet	vergnügt	kuss	besonnen	engstirnig	versagen	geizig	verbissen	krise	bange	0	0	0	0	0	0	0	0	0	0	0	0	0	0	0	0	0	0	0	0	0	0	0	0	0	0	0	0	0	0
2024-06-19	14:17:24	14:31:43	858827	6.6.1	4_exp_EVA_AWA_CON	89	A	B	Rpleas_acq	Same	Rpleas	1pleas	conawa_CS1_US5_confidence	conawa1_nomask	8	9	0	0	300	300	0	0	7078	guess	1	27,2135416666666714036pct	kreativ	anregung	sonnig	genießen	gütig	träumen	krank	ausrottung	sterben	gemein	gierig	töten	engagiert	vertrauen	gesittet	vergnügt	kuss	besonnen	engstirnig	versagen	geizig	verbissen	krise	bange	0	0	0	0	0	0	0	0	0	0	0	0	0	0	0	0	0	0	0	0	0	0	0	0	0	0	0	0	0	0
2024-06-19	14:17:24	14:31:49	864489	6.6.1	4_exp_EVA_AWA_CON	89	A	B	Rpleas_acq	Same	Rpleas	1pleas	conawa_CS1_US2	conawa1_nomask	8	10	0	0	300	300	0	0	5047	ausrottung	1	27,2135416666666714036pct	kreativ	anregung	sonnig	genießen	gütig	träumen	krank	ausrottung	sterben	gemein	gierig	töten	engagiert	vertrauen	gesittet	vergnügt	kuss	besonnen	engstirnig	versagen	geizig	verbissen	krise	bange	0	0	0	0	0	0	0	0	0	0	0	0	0	0	0	0	0	0	0	0	0	0	0	0	0	0	0	0	0	0
2024-06-19	14:17:24	14:31:49	864490	6.6.1	4_exp_EVA_AWA_CON	89	A	B	Rpleas_acq	Same	Rpleas	1pleas	conawa_CS1_US2_confidence	conawa1_nomask	8	10	0	0	300	300	0	0	5047	guess	1	27,2135416666666714036pct	kreativ	anregung	sonnig	genießen	gütig	träumen	krank	ausrottung	sterben	gemein	gierig	töten	engagiert	vertrauen	gesittet	vergnügt	kuss	besonnen	engstirnig	versagen	geizig	verbissen	krise	bange	0	0	0	0	0	0	0	0	0	0	0	0	0	0	0	0	0	0	0	0	0	0	0	0	0	0	0	0	0	0
2024-06-19	14:17:24	14:31:57	872165	6.6.1	4_exp_EVA_AWA_CON	89	A	B	Rpleas_acq	Same	Rpleas	1pleas	conawa_CS2_US1	conawa1_nomask	8	11	0	0	300	300	0	0	7063	versagen	1	27,2135416666666714036pct	kreativ	anregung	sonnig	genießen	gütig	träumen	krank	ausrottung	sterben	gemein	gierig	töten	engagiert	vertrauen	gesittet	vergnügt	kuss	besonnen	engstirnig	versagen	geizig	verbissen	krise	bange	0	0	0	0	0	0	0	0	0	0	0	0	0	0	0	0	0	0	0	0	0	0	0	0	0	0	0	0	0	0
2024-06-19	14:17:24	14:31:57	872166	6.6.1	4_exp_EVA_AWA_CON	89	A	B	Rpleas_acq	Same	Rpleas	1pleas	conawa_CS2_US1_confidence	conawa1_nomask	8	11	0	0	300	300	0	0	7063	probably	1	27,2135416666666714036pct	kreativ	anregung	sonnig	genießen	gütig	träumen	krank	ausrottung	sterben	gemein	gierig	töten	engagiert	vertrauen	gesittet	vergnügt	kuss	besonnen	engstirnig	versagen	geizig	verbissen	krise	bange	0	0	0	0	0	0	0	0	0	0	0	0	0	0	0	0	0	0	0	0	0	0	0	0	0	0	0	0	0	0
2024-06-19	14:17:24	14:32:03	878299	6.6.1	4_exp_EVA_AWA_CON	89	A	B	Rpleas_acq	Same	Rpleas	1pleas	conawa_CS2_US6	conawa1_nomask	8	12	0	0	300	300	0	0	5525	töten	1	27,2135416666666714036pct	kreativ	anregung	sonnig	genießen	gütig	träumen	krank	ausrottung	sterben	gemein	gierig	töten	engagiert	vertrauen	gesittet	vergnügt	kuss	besonnen	engstirnig	versagen	geizig	verbissen	krise	bange	0	0	0	0	0	0	0	0	0	0	0	0	0	0	0	0	0	0	0	0	0	0	0	0	0	0	0	0	0	0
2024-06-19	14:17:24	14:32:03	878300	6.6.1	4_exp_EVA_AWA_CON	89	A	B	Rpleas_acq	Same	Rpleas	1pleas	conawa_CS2_US6_confidence	conawa1_nomask	8	12	0	0	300	300	0	0	5525	probably	1	27,2135416666666714036pct	kreativ	anregung	sonnig	genießen	gütig	träumen	krank	ausrottung	sterben	gemein	gierig	töten	engagiert	vertrauen	gesittet	vergnügt	kuss	besonnen	engstirnig	versagen	geizig	verbissen	krise	bange	0	0	0	0	0	0	0	0	0	0	0	0	0	0	0	0	0	0	0	0	0	0	0	0	0	0	0	0	0	0
2024-06-19	14:17:24	14:33:14	949313	6.6.1	4_exp_EVA_AWA_CON	89	A	B	Rpleas_acq	Same	Rpleas	1pleas	cond_new_pleas_456_nomask_CS2	condtest_nomask_1	11	1	400	0	300	300	0	0	909	50	1	27,2135416666666714036pct	kreativ	anregung	sonnig	genießen	gütig	träumen	krank	ausrottung	sterben	gemein	gierig	töten	engagiert	vertrauen	gesittet	vergnügt	kuss	besonnen	engstirnig	versagen	geizig	verbissen	krise	bange	1	blank2r.bmp	0	1	+	0	1	blank2r.bmp	500	1	DHJF	500	1	blank2r.bmp	880	3	kuss	880	1	!	1232	1	!	-1	0	0	0	0	0	0
