date	time	currenttime	elapsedtime	build	currentexpt	subject	CS_AB	US_AB	LRpleas_acq	SameOppo	condition_Lpleas	condition_1pleas	trialcode	blockcode	blocknum	trialnum	windowcenter	inwindow	pretrialpause	posttrialpause	trialduration	trialtimeout	latency	response	correct	correctedscore	US_nomask_pleas1	US_nomask_pleas2	US_nomask_pleas3	US_nomask_pleas4	US_nomask_pleas5	US_nomask_pleas6	US_nomask_unple1	US_nomask_unple2	US_nomask_unple3	US_nomask_unple4	US_nomask_unple5	US_nomask_unple6	new_nomask_pleas1	new_nomask_pleas2	new_nomask_pleas3	new_nomask_pleas4	new_nomask_pleas5	new_nomask_pleas6	new_nomask_unple1	new_nomask_unple2	new_nomask_unple3	new_nomask_unple4	new_nomask_unple5	new_nomask_unple6	stimulusnumber1	stimulusitem1	stimulusonset1	stimulusnumber2	stimulusitem2	stimulusonset2	stimulusnumber3	stimulusitem3	stimulusonset3	stimulusnumber4	stimulusitem4	stimulusonset4	stimulusnumber5	stimulusitem5	stimulusonset5	stimulusnumber6	stimulusitem6	stimulusonset6	stimulusnumber7	stimulusitem7	stimulusonset7	stimulusnumber8	stimulusitem8	stimulusonset8	stimulusnumber9	stimulusitem9	stimulusonset9	stimulusnumber10	stimulusitem10	stimulusonset10
2024-05-28	10:07:05	10:08:40	93891	6.6.1	4_exp_EVA_AWA_CON	53	B	A	Rpleas_acq	Same	Rpleas	1pleas	acq_US_pleas_nomask	acq1_nomask	1	1	0	0	300	300	0	0	1180	50	1	0	schlau	lachen	spielen	fair	retten	ehrlich	schroff	leiden	strafen	faul	rächen	eitel	freundlich	helfen	tolerant	treu	schön	loyal	fanatisch	hindern	tyrannisch	tot	schlecht	lasch	1	blank2r.bmp	0	1	+	0	1	blank2r.bmp	500	1	BMVZ	500	1	blank2r.bmp	880	6	ehrlich	880	0	0	0	0	0	0	0	0	0	0	0	0
2024-05-28	10:07:05	10:08:42	96346	6.6.1	4_exp_EVA_AWA_CON	53	B	A	Rpleas_acq	Same	Rpleas	1pleas	acq_new_pleas_nomask	acq1_nomask	1	2	0	0	300	300	0	0	975	50	1	0	schlau	lachen	spielen	fair	retten	ehrlich	schroff	leiden	strafen	faul	rächen	eitel	freundlich	helfen	tolerant	treu	schön	loyal	fanatisch	hindern	tyrannisch	tot	schlecht	lasch	1	blank2r.bmp	0	1	+	0	1	blank2r.bmp	500	2	B2r.bmp	500	1	blank2r.bmp	880	2	helfen	880	0	0	0	0	0	0	0	0	0	0	0	0
2024-05-28	10:07:05	10:08:44	98795	6.6.1	4_exp_EVA_AWA_CON	53	B	A	Rpleas_acq	Same	Rpleas	1pleas	acq_new_unple_nomask	acq1_nomask	1	3	0	0	300	300	0	0	961	46	1	0	schlau	lachen	spielen	fair	retten	ehrlich	schroff	leiden	strafen	faul	rächen	eitel	freundlich	helfen	tolerant	treu	schön	loyal	fanatisch	hindern	tyrannisch	tot	schlecht	lasch	1	blank2r.bmp	0	1	+	0	1	blank2r.bmp	500	1	B1r.bmp	500	1	blank2r.bmp	880	2	hindern	880	0	0	0	0	0	0	0	0	0	0	0	0
2024-05-28	10:07:05	10:08:47	101018	6.6.1	4_exp_EVA_AWA_CON	53	B	A	Rpleas_acq	Same	Rpleas	1pleas	acq_US_unple_nomask	acq1_nomask	1	4	0	0	300	300	0	0	744	46	1	0	schlau	lachen	spielen	fair	retten	ehrlich	schroff	leiden	strafen	faul	rächen	eitel	freundlich	helfen	tolerant	treu	schön	loyal	fanatisch	hindern	tyrannisch	tot	schlecht	lasch	1	blank2r.bmp	0	1	+	0	1	blank2r.bmp	500	1	GKQX	500	1	blank2r.bmp	880	1	schroff	880	0	0	0	0	0	0	0	0	0	0	0	0
2024-05-28	10:07:05	10:08:49	103434	6.6.1	4_exp_EVA_AWA_CON	53	B	A	Rpleas_acq	Same	Rpleas	1pleas	acq_US_pleas_nomask	acq1_nomask	1	5	0	0	300	300	0	0	928	50	1	0	schlau	lachen	spielen	fair	retten	ehrlich	schroff	leiden	strafen	faul	rächen	eitel	freundlich	helfen	tolerant	treu	schön	loyal	fanatisch	hindern	tyrannisch	tot	schlecht	lasch	1	blank2r.bmp	0	1	+	0	1	blank2r.bmp	500	1	BMVZ	500	1	blank2r.bmp	880	1	schlau	880	0	0	0	0	0	0	0	0	0	0	0	0
2024-05-28	10:07:05	10:08:51	105730	6.6.1	4_exp_EVA_AWA_CON	53	B	A	Rpleas_acq	Same	Rpleas	1pleas	acq_US_unple_nomask	acq1_nomask	1	6	0	0	300	300	0	0	813	46	1	0	schlau	lachen	spielen	fair	retten	ehrlich	schroff	leiden	strafen	faul	rächen	eitel	freundlich	helfen	tolerant	treu	schön	loyal	fanatisch	hindern	tyrannisch	tot	schlecht	lasch	1	blank2r.bmp	0	1	+	0	1	blank2r.bmp	500	1	GKQX	500	1	blank2r.bmp	880	5	rächen	880	0	0	0	0	0	0	0	0	0	0	0	0
2024-05-28	10:07:05	10:08:54	107922	6.6.1	4_exp_EVA_AWA_CON	53	B	A	Rpleas_acq	Same	Rpleas	1pleas	acq_US_unple_nomask	acq1_nomask	1	7	0	0	300	300	0	0	703	46	1	0	schlau	lachen	spielen	fair	retten	ehrlich	schroff	leiden	strafen	faul	rächen	eitel	freundlich	helfen	tolerant	treu	schön	loyal	fanatisch	hindern	tyrannisch	tot	schlecht	lasch	1	blank2r.bmp	0	1	+	0	1	blank2r.bmp	500	1	GKQX	500	1	blank2r.bmp	880	2	leiden	880	0	0	0	0	0	0	0	0	0	0	0	0
2024-05-28	10:07:05	10:08:56	110194	6.6.1	4_exp_EVA_AWA_CON	53	B	A	Rpleas_acq	Same	Rpleas	1pleas	acq_US_pleas_nomask	acq1_nomask	1	8	0	0	300	300	0	0	784	50	1	0	schlau	lachen	spielen	fair	retten	ehrlich	schroff	leiden	strafen	faul	rächen	eitel	freundlich	helfen	tolerant	treu	schön	loyal	fanatisch	hindern	tyrannisch	tot	schlecht	lasch	1	blank2r.bmp	0	1	+	0	1	blank2r.bmp	500	1	BMVZ	500	1	blank2r.bmp	880	3	spielen	880	0	0	0	0	0	0	0	0	0	0	0	0
2024-05-28	10:07:05	10:08:58	112538	6.6.1	4_exp_EVA_AWA_CON	53	B	A	Rpleas_acq	Same	Rpleas	1pleas	acq_new_unple_nomask	acq1_nomask	1	9	0	0	300	300	0	0	856	46	1	0	schlau	lachen	spielen	fair	retten	ehrlich	schroff	leiden	strafen	faul	rächen	eitel	freundlich	helfen	tolerant	treu	schön	loyal	fanatisch	hindern	tyrannisch	tot	schlecht	lasch	1	blank2r.bmp	0	1	+	0	1	blank2r.bmp	500	5	C1r.bmp	500	1	blank2r.bmp	880	4	tot	880	0	0	0	0	0	0	0	0	0	0	0	0
2024-05-28	10:07:05	10:09:01	115035	6.6.1	4_exp_EVA_AWA_CON	53	B	A	Rpleas_acq	Same	Rpleas	1pleas	acq_new_unple_nomask	acq1_nomask	1	10	0	0	300	300	0	0	1011	46	1	0	schlau	lachen	spielen	fair	retten	ehrlich	schroff	leiden	strafen	faul	rächen	eitel	freundlich	helfen	tolerant	treu	schön	loyal	fanatisch	hindern	tyrannisch	tot	schlecht	lasch	1	blank2r.bmp	0	1	+	0	1	blank2r.bmp	500	4	B4r.bmp	500	1	blank2r.bmp	880	1	fanatisch	880	0	0	0	0	0	0	0	0	0	0	0	0
2024-05-28	10:07:05	10:09:03	117386	6.6.1	4_exp_EVA_AWA_CON	53	B	A	Rpleas_acq	Same	Rpleas	1pleas	acq_new_pleas_nomask	acq1_nomask	1	11	0	0	300	300	0	0	871	50	1	0	schlau	lachen	spielen	fair	retten	ehrlich	schroff	leiden	strafen	faul	rächen	eitel	freundlich	helfen	tolerant	treu	schön	loyal	fanatisch	hindern	tyrannisch	tot	schlecht	lasch	1	blank2r.bmp	0	1	+	0	1	blank2r.bmp	500	6	C2r.bmp	500	1	blank2r.bmp	880	4	treu	880	0	0	0	0	0	0	0	0	0	0	0	0
2024-05-28	10:07:05	10:09:05	119690	6.6.1	4_exp_EVA_AWA_CON	53	B	A	Rpleas_acq	Same	Rpleas	1pleas	acq_new_pleas_nomask	acq1_nomask	1	12	0	0	300	300	0	0	814	50	1	0	schlau	lachen	spielen	fair	retten	ehrlich	schroff	leiden	strafen	faul	rächen	eitel	freundlich	helfen	tolerant	treu	schön	loyal	fanatisch	hindern	tyrannisch	tot	schlecht	lasch	1	blank2r.bmp	0	1	+	0	1	blank2r.bmp	500	8	C4r.bmp	500	1	blank2r.bmp	880	5	schön	880	0	0	0	0	0	0	0	0	0	0	0	0
2024-05-28	10:07:05	10:09:08	121906	6.6.1	4_exp_EVA_AWA_CON	53	B	A	Rpleas_acq	Same	Rpleas	1pleas	acq_new_pleas_nomask	acq1_nomask	1	13	0	0	300	300	0	0	728	50	1	0	schlau	lachen	spielen	fair	retten	ehrlich	schroff	leiden	strafen	faul	rächen	eitel	freundlich	helfen	tolerant	treu	schön	loyal	fanatisch	hindern	tyrannisch	tot	schlecht	lasch	1	blank2r.bmp	0	1	+	0	1	blank2r.bmp	500	3	B3r.bmp	500	1	blank2r.bmp	880	1	freundlich	880	0	0	0	0	0	0	0	0	0	0	0	0
2024-05-28	10:07:05	10:09:10	124218	6.6.1	4_exp_EVA_AWA_CON	53	B	A	Rpleas_acq	Same	Rpleas	1pleas	acq_US_unple_nomask	acq1_nomask	1	14	0	0	300	300	0	0	829	46	1	0	schlau	lachen	spielen	fair	retten	ehrlich	schroff	leiden	strafen	faul	rächen	eitel	freundlich	helfen	tolerant	treu	schön	loyal	fanatisch	hindern	tyrannisch	tot	schlecht	lasch	1	blank2r.bmp	0	1	+	0	1	blank2r.bmp	500	1	GKQX	500	1	blank2r.bmp	880	4	faul	880	0	0	0	0	0	0	0	0	0	0	0	0
2024-05-28	10:07:05	10:09:12	126826	6.6.1	4_exp_EVA_AWA_CON	53	B	A	Rpleas_acq	Same	Rpleas	1pleas	acq_US_unple_nomask	acq1_nomask	1	15	0	0	300	300	0	0	1125	46	1	0	schlau	lachen	spielen	fair	retten	ehrlich	schroff	leiden	strafen	faul	rächen	eitel	freundlich	helfen	tolerant	treu	schön	loyal	fanatisch	hindern	tyrannisch	tot	schlecht	lasch	1	blank2r.bmp	0	1	+	0	1	blank2r.bmp	500	1	GKQX	500	1	blank2r.bmp	880	6	eitel	880	0	0	0	0	0	0	0	0	0	0	0	0
2024-05-28	10:07:05	10:09:15	129194	6.6.1	4_exp_EVA_AWA_CON	53	B	A	Rpleas_acq	Same	Rpleas	1pleas	acq_new_pleas_nomask	acq1_nomask	1	16	0	0	300	300	0	0	882	50	1	0	schlau	lachen	spielen	fair	retten	ehrlich	schroff	leiden	strafen	faul	rächen	eitel	freundlich	helfen	tolerant	treu	schön	loyal	fanatisch	hindern	tyrannisch	tot	schlecht	lasch	1	blank2r.bmp	0	1	+	0	1	blank2r.bmp	500	7	C3r.bmp	500	1	blank2r.bmp	880	6	loyal	880	0	0	0	0	0	0	0	0	0	0	0	0
2024-05-28	10:07:05	10:09:17	131498	6.6.1	4_exp_EVA_AWA_CON	53	B	A	Rpleas_acq	Same	Rpleas	1pleas	acq_new_unple_nomask	acq1_nomask	1	17	0	0	300	300	0	0	814	46	1	0	schlau	lachen	spielen	fair	retten	ehrlich	schroff	leiden	strafen	faul	rächen	eitel	freundlich	helfen	tolerant	treu	schön	loyal	fanatisch	hindern	tyrannisch	tot	schlecht	lasch	1	blank2r.bmp	0	1	+	0	1	blank2r.bmp	500	6	C2r.bmp	500	1	blank2r.bmp	880	5	schlecht	880	0	0	0	0	0	0	0	0	0	0	0	0
2024-05-28	10:07:05	10:09:19	133754	6.6.1	4_exp_EVA_AWA_CON	53	B	A	Rpleas_acq	Same	Rpleas	1pleas	acq_US_unple_nomask	acq1_nomask	1	18	0	0	300	300	0	0	769	46	1	0	schlau	lachen	spielen	fair	retten	ehrlich	schroff	leiden	strafen	faul	rächen	eitel	freundlich	helfen	tolerant	treu	schön	loyal	fanatisch	hindern	tyrannisch	tot	schlecht	lasch	1	blank2r.bmp	0	1	+	0	1	blank2r.bmp	500	1	GKQX	500	1	blank2r.bmp	880	3	strafen	880	0	0	0	0	0	0	0	0	0	0	0	0
2024-05-28	10:07:05	10:09:22	136218	6.6.1	4_exp_EVA_AWA_CON	53	B	A	Rpleas_acq	Same	Rpleas	1pleas	acq_US_pleas_nomask	acq1_nomask	1	19	0	0	300	300	0	0	981	50	1	0	schlau	lachen	spielen	fair	retten	ehrlich	schroff	leiden	strafen	faul	rächen	eitel	freundlich	helfen	tolerant	treu	schön	loyal	fanatisch	hindern	tyrannisch	tot	schlecht	lasch	1	blank2r.bmp	0	1	+	0	1	blank2r.bmp	500	1	BMVZ	500	1	blank2r.bmp	880	5	retten	880	0	0	0	0	0	0	0	0	0	0	0	0
2024-05-28	10:07:05	10:09:24	138554	6.6.1	4_exp_EVA_AWA_CON	53	B	A	Rpleas_acq	Same	Rpleas	1pleas	acq_new_unple_nomask	acq1_nomask	1	20	0	0	300	300	0	0	856	46	1	0	schlau	lachen	spielen	fair	retten	ehrlich	schroff	leiden	strafen	faul	rächen	eitel	freundlich	helfen	tolerant	treu	schön	loyal	fanatisch	hindern	tyrannisch	tot	schlecht	lasch	1	blank2r.bmp	0	1	+	0	1	blank2r.bmp	500	2	B2r.bmp	500	1	blank2r.bmp	880	3	tyrannisch	880	0	0	0	0	0	0	0	0	0	0	0	0
2024-05-28	10:07:05	10:09:27	140986	6.6.1	4_exp_EVA_AWA_CON	53	B	A	Rpleas_acq	Same	Rpleas	1pleas	acq_new_unple_nomask	acq1_nomask	1	21	0	0	300	300	0	0	946	46	1	0	schlau	lachen	spielen	fair	retten	ehrlich	schroff	leiden	strafen	faul	rächen	eitel	freundlich	helfen	tolerant	treu	schön	loyal	fanatisch	hindern	tyrannisch	tot	schlecht	lasch	1	blank2r.bmp	0	1	+	0	1	blank2r.bmp	500	1	B1r.bmp	500	1	blank2r.bmp	880	6	lasch	880	0	0	0	0	0	0	0	0	0	0	0	0
2024-05-28	10:07:05	10:09:29	143170	6.6.1	4_exp_EVA_AWA_CON	53	B	A	Rpleas_acq	Same	Rpleas	1pleas	acq_US_pleas_nomask	acq1_nomask	1	22	0	0	300	300	0	0	699	50	1	0	schlau	lachen	spielen	fair	retten	ehrlich	schroff	leiden	strafen	faul	rächen	eitel	freundlich	helfen	tolerant	treu	schön	loyal	fanatisch	hindern	tyrannisch	tot	schlecht	lasch	1	blank2r.bmp	0	1	+	0	1	blank2r.bmp	500	1	BMVZ	500	1	blank2r.bmp	880	4	fair	880	0	0	0	0	0	0	0	0	0	0	0	0
2024-05-28	10:07:05	10:09:31	145626	6.6.1	4_exp_EVA_AWA_CON	53	B	A	Rpleas_acq	Same	Rpleas	1pleas	acq_US_pleas_nomask	acq1_nomask	1	23	0	0	300	300	0	0	973	50	1	0	schlau	lachen	spielen	fair	retten	ehrlich	schroff	leiden	strafen	faul	rächen	eitel	freundlich	helfen	tolerant	treu	schön	loyal	fanatisch	hindern	tyrannisch	tot	schlecht	lasch	1	blank2r.bmp	0	1	+	0	1	blank2r.bmp	500	1	BMVZ	500	1	blank2r.bmp	880	2	lachen	880	0	0	0	0	0	0	0	0	0	0	0	0
2024-05-28	10:07:05	10:09:34	147842	6.6.1	4_exp_EVA_AWA_CON	53	B	A	Rpleas_acq	Same	Rpleas	1pleas	acq_new_pleas_nomask	acq1_nomask	1	24	0	0	300	300	0	0	728	50	1	0	schlau	lachen	spielen	fair	retten	ehrlich	schroff	leiden	strafen	faul	rächen	eitel	freundlich	helfen	tolerant	treu	schön	loyal	fanatisch	hindern	tyrannisch	tot	schlecht	lasch	1	blank2r.bmp	0	1	+	0	1	blank2r.bmp	500	7	C3r.bmp	500	1	blank2r.bmp	880	3	tolerant	880	0	0	0	0	0	0	0	0	0	0	0	0
2024-05-28	10:07:05	10:09:36	149842	6.6.1	4_exp_EVA_AWA_CON	53	B	A	Rpleas_acq	Same	Rpleas	1pleas	acq_new_unple_nomask	acq1_nomask	1	25	0	0	300	300	0	0	516	46	1	0	schlau	lachen	spielen	fair	retten	ehrlich	schroff	leiden	strafen	faul	rächen	eitel	freundlich	helfen	tolerant	treu	schön	loyal	fanatisch	hindern	tyrannisch	tot	schlecht	lasch	1	blank2r.bmp	0	1	+	0	1	blank2r.bmp	500	8	C4r.bmp	500	1	blank2r.bmp	880	3	tyrannisch	880	0	0	0	0	0	0	0	0	0	0	0	0
2024-05-28	10:07:05	10:09:38	151946	6.6.1	4_exp_EVA_AWA_CON	53	B	A	Rpleas_acq	Same	Rpleas	1pleas	acq_US_unple_nomask	acq1_nomask	1	26	0	0	300	300	0	0	619	46	1	0	schlau	lachen	spielen	fair	retten	ehrlich	schroff	leiden	strafen	faul	rächen	eitel	freundlich	helfen	tolerant	treu	schön	loyal	fanatisch	hindern	tyrannisch	tot	schlecht	lasch	1	blank2r.bmp	0	1	+	0	1	blank2r.bmp	500	1	GKQX	500	1	blank2r.bmp	880	3	strafen	880	0	0	0	0	0	0	0	0	0	0	0	0
2024-05-28	10:07:05	10:09:40	153938	6.6.1	4_exp_EVA_AWA_CON	53	B	A	Rpleas_acq	Same	Rpleas	1pleas	acq_US_pleas_nomask	acq1_nomask	1	27	0	0	300	300	0	0	509	50	1	0	schlau	lachen	spielen	fair	retten	ehrlich	schroff	leiden	strafen	faul	rächen	eitel	freundlich	helfen	tolerant	treu	schön	loyal	fanatisch	hindern	tyrannisch	tot	schlecht	lasch	1	blank2r.bmp	0	1	+	0	1	blank2r.bmp	500	1	BMVZ	500	1	blank2r.bmp	880	4	fair	880	0	0	0	0	0	0	0	0	0	0	0	0
2024-05-28	10:07:05	10:09:42	156002	6.6.1	4_exp_EVA_AWA_CON	53	B	A	Rpleas_acq	Same	Rpleas	1pleas	acq_new_pleas_nomask	acq1_nomask	1	28	0	0	300	300	0	0	582	50	1	0	schlau	lachen	spielen	fair	retten	ehrlich	schroff	leiden	strafen	faul	rächen	eitel	freundlich	helfen	tolerant	treu	schön	loyal	fanatisch	hindern	tyrannisch	tot	schlecht	lasch	1	blank2r.bmp	0	1	+	0	1	blank2r.bmp	500	4	B4r.bmp	500	1	blank2r.bmp	880	5	schön	880	0	0	0	0	0	0	0	0	0	0	0	0
2024-05-28	10:07:05	10:09:44	158594	6.6.1	4_exp_EVA_AWA_CON	53	B	A	Rpleas_acq	Same	Rpleas	1pleas	acq_US_pleas_nomask	acq1_nomask	1	29	0	0	300	300	0	0	1103	50	1	0	schlau	lachen	spielen	fair	retten	ehrlich	schroff	leiden	strafen	faul	rächen	eitel	freundlich	helfen	tolerant	treu	schön	loyal	fanatisch	hindern	tyrannisch	tot	schlecht	lasch	1	blank2r.bmp	0	1	+	0	1	blank2r.bmp	500	1	BMVZ	500	1	blank2r.bmp	880	3	spielen	880	0	0	0	0	0	0	0	0	0	0	0	0
2024-05-28	10:07:05	10:09:46	160618	6.6.1	4_exp_EVA_AWA_CON	53	B	A	Rpleas_acq	Same	Rpleas	1pleas	acq_US_unple_nomask	acq1_nomask	1	30	0	0	300	300	0	0	535	46	1	0	schlau	lachen	spielen	fair	retten	ehrlich	schroff	leiden	strafen	faul	rächen	eitel	freundlich	helfen	tolerant	treu	schön	loyal	fanatisch	hindern	tyrannisch	tot	schlecht	lasch	1	blank2r.bmp	0	1	+	0	1	blank2r.bmp	500	1	GKQX	500	1	blank2r.bmp	880	1	schroff	880	0	0	0	0	0	0	0	0	0	0	0	0
2024-05-28	10:07:05	10:09:48	162762	6.6.1	4_exp_EVA_AWA_CON	53	B	A	Rpleas_acq	Same	Rpleas	1pleas	acq_US_unple_nomask	acq1_nomask	1	31	0	0	300	300	0	0	658	46	1	0	schlau	lachen	spielen	fair	retten	ehrlich	schroff	leiden	strafen	faul	rächen	eitel	freundlich	helfen	tolerant	treu	schön	loyal	fanatisch	hindern	tyrannisch	tot	schlecht	lasch	1	blank2r.bmp	0	1	+	0	1	blank2r.bmp	500	1	GKQX	500	1	blank2r.bmp	880	6	eitel	880	0	0	0	0	0	0	0	0	0	0	0	0
2024-05-28	10:07:05	10:09:50	164787	6.6.1	4_exp_EVA_AWA_CON	53	B	A	Rpleas_acq	Same	Rpleas	1pleas	acq_new_pleas_nomask	acq1_nomask	1	32	0	0	300	300	0	0	540	50	1	0	schlau	lachen	spielen	fair	retten	ehrlich	schroff	leiden	strafen	faul	rächen	eitel	freundlich	helfen	tolerant	treu	schön	loyal	fanatisch	hindern	tyrannisch	tot	schlecht	lasch	1	blank2r.bmp	0	1	+	0	1	blank2r.bmp	500	3	B3r.bmp	500	1	blank2r.bmp	880	2	helfen	880	0	0	0	0	0	0	0	0	0	0	0	0
2024-05-28	10:07:05	10:09:53	166850	6.6.1	4_exp_EVA_AWA_CON	53	B	A	Rpleas_acq	Same	Rpleas	1pleas	acq_new_unple_nomask	acq1_nomask	1	33	0	0	300	300	0	0	583	46	1	0	schlau	lachen	spielen	fair	retten	ehrlich	schroff	leiden	strafen	faul	rächen	eitel	freundlich	helfen	tolerant	treu	schön	loyal	fanatisch	hindern	tyrannisch	tot	schlecht	lasch	1	blank2r.bmp	0	1	+	0	1	blank2r.bmp	500	5	C1r.bmp	500	1	blank2r.bmp	880	2	hindern	880	0	0	0	0	0	0	0	0	0	0	0	0
2024-05-28	10:07:05	10:09:55	168882	6.6.1	4_exp_EVA_AWA_CON	53	B	A	Rpleas_acq	Same	Rpleas	1pleas	acq_new_pleas_nomask	acq1_nomask	1	34	0	0	300	300	0	0	544	50	1	0	schlau	lachen	spielen	fair	retten	ehrlich	schroff	leiden	strafen	faul	rächen	eitel	freundlich	helfen	tolerant	treu	schön	loyal	fanatisch	hindern	tyrannisch	tot	schlecht	lasch	1	blank2r.bmp	0	1	+	0	1	blank2r.bmp	500	3	B3r.bmp	500	1	blank2r.bmp	880	4	treu	880	0	0	0	0	0	0	0	0	0	0	0	0
2024-05-28	10:07:05	10:09:57	170971	6.6.1	4_exp_EVA_AWA_CON	53	B	A	Rpleas_acq	Same	Rpleas	1pleas	acq_new_unple_nomask	acq1_nomask	1	35	0	0	300	300	0	0	601	46	1	0	schlau	lachen	spielen	fair	retten	ehrlich	schroff	leiden	strafen	faul	rächen	eitel	freundlich	helfen	tolerant	treu	schön	loyal	fanatisch	hindern	tyrannisch	tot	schlecht	lasch	1	blank2r.bmp	0	1	+	0	1	blank2r.bmp	500	5	C1r.bmp	500	1	blank2r.bmp	880	6	lasch	880	0	0	0	0	0	0	0	0	0	0	0	0
2024-05-28	10:07:05	10:09:59	173194	6.6.1	4_exp_EVA_AWA_CON	53	B	A	Rpleas_acq	Same	Rpleas	1pleas	acq_US_pleas_nomask	acq1_nomask	1	36	0	0	300	300	0	0	743	50	1	0	schlau	lachen	spielen	fair	retten	ehrlich	schroff	leiden	strafen	faul	rächen	eitel	freundlich	helfen	tolerant	treu	schön	loyal	fanatisch	hindern	tyrannisch	tot	schlecht	lasch	1	blank2r.bmp	0	1	+	0	1	blank2r.bmp	500	1	BMVZ	500	1	blank2r.bmp	880	5	retten	880	0	0	0	0	0	0	0	0	0	0	0	0
2024-05-28	10:07:05	10:10:40	214212	6.6.1	4_exp_EVA_AWA_CON	53	B	A	Rpleas_acq	Same	Rpleas	1pleas	acq_US_pleas_nomask	acq2_nomask	2	1	480	0	300	300	0	0	585	50	1	0	schlau	lachen	spielen	fair	retten	ehrlich	schroff	leiden	strafen	faul	rächen	eitel	freundlich	helfen	tolerant	treu	schön	loyal	fanatisch	hindern	tyrannisch	tot	schlecht	lasch	1	blank2r.bmp	0	1	+	0	1	blank2r.bmp	500	1	BMVZ	500	1	blank2r.bmp	880	6	ehrlich	880	1	!	1313	1	!	-1	0	0	0	0	0	0
2024-05-28	10:07:05	10:10:43	217052	6.6.1	4_exp_EVA_AWA_CON	53	B	A	Rpleas_acq	Same	Rpleas	1pleas	acq_US_pleas_nomask	acq2_nomask	2	2	480	0	300	300	0	0	1063	50	1	0	schlau	lachen	spielen	fair	retten	ehrlich	schroff	leiden	strafen	faul	rächen	eitel	freundlich	helfen	tolerant	treu	schön	loyal	fanatisch	hindern	tyrannisch	tot	schlecht	lasch	1	blank2r.bmp	0	1	+	0	1	blank2r.bmp	500	1	BMVZ	500	1	blank2r.bmp	880	2	lachen	880	1	!	1312	1	!	-1	0	0	0	0	0	0
2024-05-28	10:07:05	10:10:45	219228	6.6.1	4_exp_EVA_AWA_CON	53	B	A	Rpleas_acq	Same	Rpleas	1pleas	acq_US_unple_nomask	acq2_nomask	2	3	480	0	300	300	0	0	398	46	1	0	schlau	lachen	spielen	fair	retten	ehrlich	schroff	leiden	strafen	faul	rächen	eitel	freundlich	helfen	tolerant	treu	schön	loyal	fanatisch	hindern	tyrannisch	tot	schlecht	lasch	1	blank2r.bmp	0	1	+	0	1	blank2r.bmp	500	1	GKQX	500	1	blank2r.bmp	880	2	leiden	880	1	!	-1	1	!	-1	0	0	0	0	0	0
2024-05-28	10:07:05	10:10:47	221461	6.6.1	4_exp_EVA_AWA_CON	53	B	A	Rpleas_acq	Same	Rpleas	1pleas	acq_new_pleas_nomask	acq2_nomask	2	4	480	1	300	300	0	0	458	50	1	0	schlau	lachen	spielen	fair	retten	ehrlich	schroff	leiden	strafen	faul	rächen	eitel	freundlich	helfen	tolerant	treu	schön	loyal	fanatisch	hindern	tyrannisch	tot	schlecht	lasch	1	blank2r.bmp	0	1	+	0	1	blank2r.bmp	500	8	C4r.bmp	500	1	blank2r.bmp	880	6	loyal	880	1	!	1312	1	!	1359	0	0	0	0	0	0
2024-05-28	10:07:05	10:10:49	223782	6.6.1	4_exp_EVA_AWA_CON	53	B	A	Rpleas_acq	Same	Rpleas	1pleas	acq_new_unple_nomask	acq2_nomask	2	5	480	1	300	300	0	0	537	46	1	0	schlau	lachen	spielen	fair	retten	ehrlich	schroff	leiden	strafen	faul	rächen	eitel	freundlich	helfen	tolerant	treu	schön	loyal	fanatisch	hindern	tyrannisch	tot	schlecht	lasch	1	blank2r.bmp	0	1	+	0	1	blank2r.bmp	500	2	B2r.bmp	500	1	blank2r.bmp	880	4	tot	880	1	!	1313	1	!	1438	0	0	0	0	0	0
2024-05-28	10:07:05	10:10:52	225998	6.6.1	4_exp_EVA_AWA_CON	53	B	A	Rpleas_acq	Same	Rpleas	1pleas	acq_US_pleas_nomask	acq2_nomask	2	6	480	1	300	300	0	0	441	50	1	0	schlau	lachen	spielen	fair	retten	ehrlich	schroff	leiden	strafen	faul	rächen	eitel	freundlich	helfen	tolerant	treu	schön	loyal	fanatisch	hindern	tyrannisch	tot	schlecht	lasch	1	blank2r.bmp	0	1	+	0	1	blank2r.bmp	500	1	BMVZ	500	1	blank2r.bmp	880	1	schlau	880	1	!	1313	1	!	1343	0	0	0	0	0	0
2024-05-28	10:07:05	10:10:54	228270	6.6.1	4_exp_EVA_AWA_CON	53	B	A	Rpleas_acq	Same	Rpleas	1pleas	acq_new_unple_nomask	acq2_nomask	2	7	480	1	300	300	0	0	492	46	1	0	schlau	lachen	spielen	fair	retten	ehrlich	schroff	leiden	strafen	faul	rächen	eitel	freundlich	helfen	tolerant	treu	schön	loyal	fanatisch	hindern	tyrannisch	tot	schlecht	lasch	1	blank2r.bmp	0	1	+	0	1	blank2r.bmp	500	6	C2r.bmp	500	1	blank2r.bmp	880	5	schlecht	880	1	!	1313	1	!	1393	0	0	0	0	0	0
2024-05-28	10:07:05	10:10:56	230599	6.6.1	4_exp_EVA_AWA_CON	53	B	A	Rpleas_acq	Same	Rpleas	1pleas	acq_US_unple_nomask	acq2_nomask	2	8	480	1	300	300	0	0	548	46	1	0	schlau	lachen	spielen	fair	retten	ehrlich	schroff	leiden	strafen	faul	rächen	eitel	freundlich	helfen	tolerant	treu	schön	loyal	fanatisch	hindern	tyrannisch	tot	schlecht	lasch	1	blank2r.bmp	0	1	+	0	1	blank2r.bmp	500	1	GKQX	500	1	blank2r.bmp	880	5	rächen	880	1	!	1312	1	!	1450	0	0	0	0	0	0
2024-05-28	10:07:05	10:10:59	233063	6.6.1	4_exp_EVA_AWA_CON	53	B	A	Rpleas_acq	Same	Rpleas	1pleas	acq_new_unple_nomask	acq2_nomask	2	9	480	1	300	300	0	0	481	50	0	0	schlau	lachen	spielen	fair	retten	ehrlich	schroff	leiden	strafen	faul	rächen	eitel	freundlich	helfen	tolerant	treu	schön	loyal	fanatisch	hindern	tyrannisch	tot	schlecht	lasch	1	blank2r.bmp	0	1	+	0	1	blank2r.bmp	500	1	B1r.bmp	500	1	blank2r.bmp	880	1	fanatisch	880	1	FEHLER	1674	1	!	1312	1	!	1382	0	0	0
2024-05-28	10:07:05	10:11:01	235070	6.6.1	4_exp_EVA_AWA_CON	53	B	A	Rpleas_acq	Same	Rpleas	1pleas	acq_US_unple_nomask	acq2_nomask	2	10	480	1	300	300	0	0	427	46	1	0	schlau	lachen	spielen	fair	retten	ehrlich	schroff	leiden	strafen	faul	rächen	eitel	freundlich	helfen	tolerant	treu	schön	loyal	fanatisch	hindern	tyrannisch	tot	schlecht	lasch	1	blank2r.bmp	0	1	+	0	1	blank2r.bmp	500	1	GKQX	500	1	blank2r.bmp	880	4	faul	880	1	!	1312	1	!	1329	0	0	0	0	0	0
2024-05-28	10:07:05	10:11:03	237536	6.6.1	4_exp_EVA_AWA_CON	53	B	A	Rpleas_acq	Same	Rpleas	1pleas	acq_new_pleas_nomask	acq2_nomask	2	11	480	1	300	300	0	0	480	46	0	0	schlau	lachen	spielen	fair	retten	ehrlich	schroff	leiden	strafen	faul	rächen	eitel	freundlich	helfen	tolerant	treu	schön	loyal	fanatisch	hindern	tyrannisch	tot	schlecht	lasch	1	blank2r.bmp	0	1	+	0	1	blank2r.bmp	500	4	B4r.bmp	500	1	blank2r.bmp	880	3	tolerant	880	1	FEHLER	1674	1	!	1313	1	!	1382	0	0	0
2024-05-28	10:07:05	10:11:06	239836	6.6.1	4_exp_EVA_AWA_CON	53	B	A	Rpleas_acq	Same	Rpleas	1pleas	acq_new_pleas_nomask	acq2_nomask	2	12	480	0	300	300	0	0	723	50	1	0	schlau	lachen	spielen	fair	retten	ehrlich	schroff	leiden	strafen	faul	rächen	eitel	freundlich	helfen	tolerant	treu	schön	loyal	fanatisch	hindern	tyrannisch	tot	schlecht	lasch	1	blank2r.bmp	0	1	+	0	1	blank2r.bmp	500	7	C3r.bmp	500	1	blank2r.bmp	880	1	freundlich	880	1	!	1312	1	!	-1	0	0	0	0	0	0
2024-05-28	10:07:05	10:11:08	242180	6.6.1	4_exp_EVA_AWA_CON	53	B	A	Rpleas_acq	Same	Rpleas	1pleas	acq_US_pleas_nomask	acq2_nomask	2	13	480	0	300	300	0	0	565	50	1	0	schlau	lachen	spielen	fair	retten	ehrlich	schroff	leiden	strafen	faul	rächen	eitel	freundlich	helfen	tolerant	treu	schön	loyal	fanatisch	hindern	tyrannisch	tot	schlecht	lasch	1	blank2r.bmp	0	1	+	0	1	blank2r.bmp	500	1	BMVZ	500	1	blank2r.bmp	880	3	spielen	880	1	!	1312	1	!	-1	0	0	0	0	0	0
2024-05-28	10:07:05	10:11:10	244406	6.6.1	4_exp_EVA_AWA_CON	53	B	A	Rpleas_acq	Same	Rpleas	1pleas	acq_US_pleas_nomask	acq2_nomask	2	14	480	1	300	300	0	0	448	50	1	0	schlau	lachen	spielen	fair	retten	ehrlich	schroff	leiden	strafen	faul	rächen	eitel	freundlich	helfen	tolerant	treu	schön	loyal	fanatisch	hindern	tyrannisch	tot	schlecht	lasch	1	blank2r.bmp	0	1	+	0	1	blank2r.bmp	500	1	BMVZ	500	1	blank2r.bmp	880	4	fair	880	1	!	1312	1	!	1349	0	0	0	0	0	0
2024-05-28	10:07:05	10:11:12	246540	6.6.1	4_exp_EVA_AWA_CON	53	B	A	Rpleas_acq	Same	Rpleas	1pleas	acq_US_unple_nomask	acq2_nomask	2	15	480	0	300	300	0	0	352	46	1	0	schlau	lachen	spielen	fair	retten	ehrlich	schroff	leiden	strafen	faul	rächen	eitel	freundlich	helfen	tolerant	treu	schön	loyal	fanatisch	hindern	tyrannisch	tot	schlecht	lasch	1	blank2r.bmp	0	1	+	0	1	blank2r.bmp	500	1	GKQX	500	1	blank2r.bmp	880	6	eitel	880	1	!	-1	1	!	-1	0	0	0	0	0	0
2024-05-28	10:07:05	10:11:14	248766	6.6.1	4_exp_EVA_AWA_CON	53	B	A	Rpleas_acq	Same	Rpleas	1pleas	acq_new_unple_nomask	acq2_nomask	2	16	480	1	300	300	0	0	445	46	1	0	schlau	lachen	spielen	fair	retten	ehrlich	schroff	leiden	strafen	faul	rächen	eitel	freundlich	helfen	tolerant	treu	schön	loyal	fanatisch	hindern	tyrannisch	tot	schlecht	lasch	1	blank2r.bmp	0	1	+	0	1	blank2r.bmp	500	2	B2r.bmp	500	1	blank2r.bmp	880	4	tot	880	1	!	1312	1	!	1346	0	0	0	0	0	0
2024-05-28	10:07:05	10:11:17	250940	6.6.1	4_exp_EVA_AWA_CON	53	B	A	Rpleas_acq	Same	Rpleas	1pleas	acq_new_unple_nomask	acq2_nomask	2	17	480	0	300	300	0	0	399	46	1	0	schlau	lachen	spielen	fair	retten	ehrlich	schroff	leiden	strafen	faul	rächen	eitel	freundlich	helfen	tolerant	treu	schön	loyal	fanatisch	hindern	tyrannisch	tot	schlecht	lasch	1	blank2r.bmp	0	1	+	0	1	blank2r.bmp	500	5	C1r.bmp	500	1	blank2r.bmp	880	5	schlecht	880	1	!	-1	1	!	-1	0	0	0	0	0	0
2024-05-28	10:07:05	10:11:19	253238	6.6.1	4_exp_EVA_AWA_CON	53	B	A	Rpleas_acq	Same	Rpleas	1pleas	acq_US_unple_nomask	acq2_nomask	2	18	480	1	300	300	0	0	524	46	1	0	schlau	lachen	spielen	fair	retten	ehrlich	schroff	leiden	strafen	faul	rächen	eitel	freundlich	helfen	tolerant	treu	schön	loyal	fanatisch	hindern	tyrannisch	tot	schlecht	lasch	1	blank2r.bmp	0	1	+	0	1	blank2r.bmp	500	1	GKQX	500	1	blank2r.bmp	880	4	faul	880	1	!	1312	1	!	1425	0	0	0	0	0	0
2024-05-28	10:07:05	10:11:21	255510	6.6.1	4_exp_EVA_AWA_CON	53	B	A	Rpleas_acq	Same	Rpleas	1pleas	acq_US_pleas_nomask	acq2_nomask	2	19	480	1	300	300	0	0	494	50	1	0	schlau	lachen	spielen	fair	retten	ehrlich	schroff	leiden	strafen	faul	rächen	eitel	freundlich	helfen	tolerant	treu	schön	loyal	fanatisch	hindern	tyrannisch	tot	schlecht	lasch	1	blank2r.bmp	0	1	+	0	1	blank2r.bmp	500	1	BMVZ	500	1	blank2r.bmp	880	2	lachen	880	1	!	1312	1	!	1395	0	0	0	0	0	0
2024-05-28	10:07:05	10:11:23	257806	6.6.1	4_exp_EVA_AWA_CON	53	B	A	Rpleas_acq	Same	Rpleas	1pleas	acq_US_unple_nomask	acq2_nomask	2	20	480	1	300	300	0	0	519	46	1	0	schlau	lachen	spielen	fair	retten	ehrlich	schroff	leiden	strafen	faul	rächen	eitel	freundlich	helfen	tolerant	treu	schön	loyal	fanatisch	hindern	tyrannisch	tot	schlecht	lasch	1	blank2r.bmp	0	1	+	0	1	blank2r.bmp	500	1	GKQX	500	1	blank2r.bmp	880	3	strafen	880	1	!	1313	1	!	1420	0	0	0	0	0	0
2024-05-28	10:07:05	10:11:26	260086	6.6.1	4_exp_EVA_AWA_CON	53	B	A	Rpleas_acq	Same	Rpleas	1pleas	acq_new_pleas_nomask	acq2_nomask	2	21	480	1	300	300	0	0	497	50	1	0	schlau	lachen	spielen	fair	retten	ehrlich	schroff	leiden	strafen	faul	rächen	eitel	freundlich	helfen	tolerant	treu	schön	loyal	fanatisch	hindern	tyrannisch	tot	schlecht	lasch	1	blank2r.bmp	0	1	+	0	1	blank2r.bmp	500	3	B3r.bmp	500	1	blank2r.bmp	880	5	schön	880	1	!	1312	1	!	1399	0	0	0	0	0	0
2024-05-28	10:07:05	10:11:28	262524	6.6.1	4_exp_EVA_AWA_CON	53	B	A	Rpleas_acq	Same	Rpleas	1pleas	acq_new_pleas_nomask	acq2_nomask	2	22	480	0	300	300	0	0	666	50	1	0	schlau	lachen	spielen	fair	retten	ehrlich	schroff	leiden	strafen	faul	rächen	eitel	freundlich	helfen	tolerant	treu	schön	loyal	fanatisch	hindern	tyrannisch	tot	schlecht	lasch	1	blank2r.bmp	0	1	+	0	1	blank2r.bmp	500	1	B1r.bmp	500	1	blank2r.bmp	880	1	freundlich	880	1	!	1313	1	!	-1	0	0	0	0	0	0
2024-05-28	10:07:05	10:11:30	264708	6.6.1	4_exp_EVA_AWA_CON	53	B	A	Rpleas_acq	Same	Rpleas	1pleas	acq_new_unple_nomask	acq2_nomask	2	23	480	0	300	300	0	0	408	46	1	0	schlau	lachen	spielen	fair	retten	ehrlich	schroff	leiden	strafen	faul	rächen	eitel	freundlich	helfen	tolerant	treu	schön	loyal	fanatisch	hindern	tyrannisch	tot	schlecht	lasch	1	blank2r.bmp	0	1	+	0	1	blank2r.bmp	500	4	B4r.bmp	500	1	blank2r.bmp	880	3	tyrannisch	880	1	!	-1	1	!	-1	0	0	0	0	0	0
2024-05-28	10:07:05	10:11:33	267060	6.6.1	4_exp_EVA_AWA_CON	53	B	A	Rpleas_acq	Same	Rpleas	1pleas	acq_new_pleas_nomask	acq2_nomask	2	24	480	0	300	300	0	0	579	50	1	0	schlau	lachen	spielen	fair	retten	ehrlich	schroff	leiden	strafen	faul	rächen	eitel	freundlich	helfen	tolerant	treu	schön	loyal	fanatisch	hindern	tyrannisch	tot	schlecht	lasch	1	blank2r.bmp	0	1	+	0	1	blank2r.bmp	500	8	C4r.bmp	500	1	blank2r.bmp	880	6	loyal	880	1	!	1313	1	!	-1	0	0	0	0	0	0
2024-05-28	10:07:05	10:11:35	269383	6.6.1	4_exp_EVA_AWA_CON	53	B	A	Rpleas_acq	Same	Rpleas	1pleas	acq_US_pleas_nomask	acq2_nomask	2	25	480	0	300	300	0	0	348	46	0	0	schlau	lachen	spielen	fair	retten	ehrlich	schroff	leiden	strafen	faul	rächen	eitel	freundlich	helfen	tolerant	treu	schön	loyal	fanatisch	hindern	tyrannisch	tot	schlecht	lasch	1	blank2r.bmp	0	1	+	0	1	blank2r.bmp	500	1	BMVZ	500	1	blank2r.bmp	880	6	ehrlich	880	1	FEHLER	1540	1	!	-1	1	!	-1	0	0	0
2024-05-28	10:07:05	10:11:40	273940	6.6.1	4_exp_EVA_AWA_CON	53	B	A	Rpleas_acq	Same	Rpleas	1pleas	acq_new_unple_nomask	acq2_nomask	2	26	480	0	300	300	0	0	2986	46	1	0	schlau	lachen	spielen	fair	retten	ehrlich	schroff	leiden	strafen	faul	rächen	eitel	freundlich	helfen	tolerant	treu	schön	loyal	fanatisch	hindern	tyrannisch	tot	schlecht	lasch	1	blank2r.bmp	0	1	+	0	1	blank2r.bmp	500	6	C2r.bmp	500	1	blank2r.bmp	880	1	fanatisch	880	1	!	1312	1	!	-1	0	0	0	0	0	0
2024-05-28	10:07:05	10:11:42	276182	6.6.1	4_exp_EVA_AWA_CON	53	B	A	Rpleas_acq	Same	Rpleas	1pleas	acq_US_unple_nomask	acq2_nomask	2	27	480	1	300	300	0	0	463	46	1	0	schlau	lachen	spielen	fair	retten	ehrlich	schroff	leiden	strafen	faul	rächen	eitel	freundlich	helfen	tolerant	treu	schön	loyal	fanatisch	hindern	tyrannisch	tot	schlecht	lasch	1	blank2r.bmp	0	1	+	0	1	blank2r.bmp	500	1	GKQX	500	1	blank2r.bmp	880	1	schroff	880	1	!	1312	1	!	1364	0	0	0	0	0	0
2024-05-28	10:07:05	10:11:44	278549	6.6.1	4_exp_EVA_AWA_CON	53	B	A	Rpleas_acq	Same	Rpleas	1pleas	acq_new_pleas_nomask	acq2_nomask	2	28	480	0	300	300	0	0	590	50	1	0	schlau	lachen	spielen	fair	retten	ehrlich	schroff	leiden	strafen	faul	rächen	eitel	freundlich	helfen	tolerant	treu	schön	loyal	fanatisch	hindern	tyrannisch	tot	schlecht	lasch	1	blank2r.bmp	0	1	+	0	1	blank2r.bmp	500	7	C3r.bmp	500	1	blank2r.bmp	880	4	treu	880	1	!	1312	1	!	-1	0	0	0	0	0	0
2024-05-28	10:07:05	10:11:47	280895	6.6.1	4_exp_EVA_AWA_CON	53	B	A	Rpleas_acq	Same	Rpleas	1pleas	acq_US_pleas_nomask	acq2_nomask	2	29	480	0	300	300	0	0	362	46	0	0	schlau	lachen	spielen	fair	retten	ehrlich	schroff	leiden	strafen	faul	rächen	eitel	freundlich	helfen	tolerant	treu	schön	loyal	fanatisch	hindern	tyrannisch	tot	schlecht	lasch	1	blank2r.bmp	0	1	+	0	1	blank2r.bmp	500	1	BMVZ	500	1	blank2r.bmp	880	5	retten	880	1	FEHLER	1555	1	!	-1	1	!	-1	0	0	0
2024-05-28	10:07:05	10:11:49	282990	6.6.1	4_exp_EVA_AWA_CON	53	B	A	Rpleas_acq	Same	Rpleas	1pleas	acq_US_pleas_nomask	acq2_nomask	2	30	480	1	300	300	0	0	517	50	1	0	schlau	lachen	spielen	fair	retten	ehrlich	schroff	leiden	strafen	faul	rächen	eitel	freundlich	helfen	tolerant	treu	schön	loyal	fanatisch	hindern	tyrannisch	tot	schlecht	lasch	1	blank2r.bmp	0	1	+	0	1	blank2r.bmp	500	1	BMVZ	500	1	blank2r.bmp	880	1	schlau	880	1	!	1313	1	!	1418	0	0	0	0	0	0
2024-05-28	10:07:05	10:11:51	285221	6.6.1	4_exp_EVA_AWA_CON	53	B	A	Rpleas_acq	Same	Rpleas	1pleas	acq_new_unple_nomask	acq2_nomask	2	31	480	1	300	300	0	0	457	46	1	0	schlau	lachen	spielen	fair	retten	ehrlich	schroff	leiden	strafen	faul	rächen	eitel	freundlich	helfen	tolerant	treu	schön	loyal	fanatisch	hindern	tyrannisch	tot	schlecht	lasch	1	blank2r.bmp	0	1	+	0	1	blank2r.bmp	500	7	C3r.bmp	500	1	blank2r.bmp	880	6	lasch	880	1	!	1312	1	!	1358	0	0	0	0	0	0
2024-05-28	10:07:05	10:11:53	287477	6.6.1	4_exp_EVA_AWA_CON	53	B	A	Rpleas_acq	Same	Rpleas	1pleas	acq_new_pleas_nomask	acq2_nomask	2	32	480	1	300	300	0	0	482	50	1	0	schlau	lachen	spielen	fair	retten	ehrlich	schroff	leiden	strafen	faul	rächen	eitel	freundlich	helfen	tolerant	treu	schön	loyal	fanatisch	hindern	tyrannisch	tot	schlecht	lasch	1	blank2r.bmp	0	1	+	0	1	blank2r.bmp	500	6	C2r.bmp	500	1	blank2r.bmp	880	2	helfen	880	1	!	1313	1	!	1383	0	0	0	0	0	0
2024-05-28	10:07:05	10:11:56	289852	6.6.1	4_exp_EVA_AWA_CON	53	B	A	Rpleas_acq	Same	Rpleas	1pleas	acq_US_unple_nomask	acq2_nomask	2	33	480	0	300	300	0	0	596	46	1	0	schlau	lachen	spielen	fair	retten	ehrlich	schroff	leiden	strafen	faul	rächen	eitel	freundlich	helfen	tolerant	treu	schön	loyal	fanatisch	hindern	tyrannisch	tot	schlecht	lasch	1	blank2r.bmp	0	1	+	0	1	blank2r.bmp	500	1	GKQX	500	1	blank2r.bmp	880	5	rächen	880	1	!	1312	1	!	-1	0	0	0	0	0	0
2024-05-28	10:07:05	10:11:58	292168	6.6.1	4_exp_EVA_AWA_CON	53	B	A	Rpleas_acq	Same	Rpleas	1pleas	acq_new_unple_nomask	acq2_nomask	2	34	480	0	300	300	0	0	337	50	0	0	schlau	lachen	spielen	fair	retten	ehrlich	schroff	leiden	strafen	faul	rächen	eitel	freundlich	helfen	tolerant	treu	schön	loyal	fanatisch	hindern	tyrannisch	tot	schlecht	lasch	1	blank2r.bmp	0	1	+	0	1	blank2r.bmp	500	8	C4r.bmp	500	1	blank2r.bmp	880	2	hindern	880	1	FEHLER	1530	1	!	-1	1	!	-1	0	0	0
2024-05-28	10:07:05	10:12:00	294149	6.6.1	4_exp_EVA_AWA_CON	53	B	A	Rpleas_acq	Same	Rpleas	1pleas	acq_US_unple_nomask	acq2_nomask	2	35	480	0	300	300	0	0	410	46	1	0	schlau	lachen	spielen	fair	retten	ehrlich	schroff	leiden	strafen	faul	rächen	eitel	freundlich	helfen	tolerant	treu	schön	loyal	fanatisch	hindern	tyrannisch	tot	schlecht	lasch	1	blank2r.bmp	0	1	+	0	1	blank2r.bmp	500	1	GKQX	500	1	blank2r.bmp	880	2	leiden	880	1	!	-1	1	!	-1	0	0	0	0	0	0
2024-05-28	10:07:05	10:12:02	296701	6.6.1	4_exp_EVA_AWA_CON	53	B	A	Rpleas_acq	Same	Rpleas	1pleas	acq_new_pleas_nomask	acq2_nomask	2	36	480	0	300	300	0	0	770	50	1	0	schlau	lachen	spielen	fair	retten	ehrlich	schroff	leiden	strafen	faul	rächen	eitel	freundlich	helfen	tolerant	treu	schön	loyal	fanatisch	hindern	tyrannisch	tot	schlecht	lasch	1	blank2r.bmp	0	1	+	0	1	blank2r.bmp	500	5	C1r.bmp	500	1	blank2r.bmp	880	3	tolerant	880	1	!	1312	1	!	-1	0	0	0	0	0	0
2024-05-28	10:07:05	10:12:16	310318	6.6.1	4_exp_EVA_AWA_CON	53	B	A	Rpleas_acq	Same	Rpleas	1pleas	acq_US_pleas_nomask	acq3_nomask	3	1	453	1	300	300	0	0	467	50	1	0	schlau	lachen	spielen	fair	retten	ehrlich	schroff	leiden	strafen	faul	rächen	eitel	freundlich	helfen	tolerant	treu	schön	loyal	fanatisch	hindern	tyrannisch	tot	schlecht	lasch	1	blank2r.bmp	0	1	+	0	1	blank2r.bmp	500	1	BMVZ	500	1	blank2r.bmp	880	3	spielen	880	1	!	1293	1	!	1369	0	0	0	0	0	0
2024-05-28	10:07:05	10:12:18	312542	6.6.1	4_exp_EVA_AWA_CON	53	B	A	Rpleas_acq	Same	Rpleas	1pleas	acq_US_unple_nomask	acq3_nomask	3	2	453	1	300	300	0	0	450	46	1	0	schlau	lachen	spielen	fair	retten	ehrlich	schroff	leiden	strafen	faul	rächen	eitel	freundlich	helfen	tolerant	treu	schön	loyal	fanatisch	hindern	tyrannisch	tot	schlecht	lasch	1	blank2r.bmp	0	1	+	0	1	blank2r.bmp	500	1	GKQX	500	1	blank2r.bmp	880	5	rächen	880	1	!	1293	1	!	1351	0	0	0	0	0	0
2024-05-28	10:07:05	10:12:20	314806	6.6.1	4_exp_EVA_AWA_CON	53	B	A	Rpleas_acq	Same	Rpleas	1pleas	acq_US_unple_nomask	acq3_nomask	3	3	453	1	300	300	0	0	482	46	1	0	schlau	lachen	spielen	fair	retten	ehrlich	schroff	leiden	strafen	faul	rächen	eitel	freundlich	helfen	tolerant	treu	schön	loyal	fanatisch	hindern	tyrannisch	tot	schlecht	lasch	1	blank2r.bmp	0	1	+	0	1	blank2r.bmp	500	1	GKQX	500	1	blank2r.bmp	880	4	faul	880	1	!	1292	1	!	1384	0	0	0	0	0	0
2024-05-28	10:07:05	10:12:23	317086	6.6.1	4_exp_EVA_AWA_CON	53	B	A	Rpleas_acq	Same	Rpleas	1pleas	acq_US_unple_nomask	acq3_nomask	3	4	453	1	300	300	0	0	501	46	1	0	schlau	lachen	spielen	fair	retten	ehrlich	schroff	leiden	strafen	faul	rächen	eitel	freundlich	helfen	tolerant	treu	schön	loyal	fanatisch	hindern	tyrannisch	tot	schlecht	lasch	1	blank2r.bmp	0	1	+	0	1	blank2r.bmp	500	1	GKQX	500	1	blank2r.bmp	880	6	eitel	880	1	!	1293	1	!	1402	0	0	0	0	0	0
2024-05-28	10:07:05	10:12:25	319420	6.6.1	4_exp_EVA_AWA_CON	53	B	A	Rpleas_acq	Same	Rpleas	1pleas	acq_US_unple_nomask	acq3_nomask	3	5	453	0	300	300	0	0	555	46	1	0	schlau	lachen	spielen	fair	retten	ehrlich	schroff	leiden	strafen	faul	rächen	eitel	freundlich	helfen	tolerant	treu	schön	loyal	fanatisch	hindern	tyrannisch	tot	schlecht	lasch	1	blank2r.bmp	0	1	+	0	1	blank2r.bmp	500	1	GKQX	500	1	blank2r.bmp	880	2	leiden	880	1	!	1292	1	!	-1	0	0	0	0	0	0
2024-05-28	10:07:05	10:12:28	321863	6.6.1	4_exp_EVA_AWA_CON	53	B	A	Rpleas_acq	Same	Rpleas	1pleas	acq_US_pleas_nomask	acq3_nomask	3	6	453	1	300	300	0	0	464	46	0	0	schlau	lachen	spielen	fair	retten	ehrlich	schroff	leiden	strafen	faul	rächen	eitel	freundlich	helfen	tolerant	treu	schön	loyal	fanatisch	hindern	tyrannisch	tot	schlecht	lasch	1	blank2r.bmp	0	1	+	0	1	blank2r.bmp	500	1	BMVZ	500	1	blank2r.bmp	880	5	retten	880	1	FEHLER	1657	1	!	1292	1	!	1365	0	0	0
2024-05-28	10:07:05	10:12:30	323926	6.6.1	4_exp_EVA_AWA_CON	53	B	A	Rpleas_acq	Same	Rpleas	1pleas	acq_US_pleas_nomask	acq3_nomask	3	7	453	1	300	300	0	0	486	50	1	0	schlau	lachen	spielen	fair	retten	ehrlich	schroff	leiden	strafen	faul	rächen	eitel	freundlich	helfen	tolerant	treu	schön	loyal	fanatisch	hindern	tyrannisch	tot	schlecht	lasch	1	blank2r.bmp	0	1	+	0	1	blank2r.bmp	500	1	BMVZ	500	1	blank2r.bmp	880	4	fair	880	1	!	1292	1	!	1388	0	0	0	0	0	0
2024-05-28	10:07:05	10:12:32	326284	6.6.1	4_exp_EVA_AWA_CON	53	B	A	Rpleas_acq	Same	Rpleas	1pleas	acq_US_pleas_nomask	acq3_nomask	3	8	453	0	300	300	0	0	585	50	1	0	schlau	lachen	spielen	fair	retten	ehrlich	schroff	leiden	strafen	faul	rächen	eitel	freundlich	helfen	tolerant	treu	schön	loyal	fanatisch	hindern	tyrannisch	tot	schlecht	lasch	1	blank2r.bmp	0	1	+	0	1	blank2r.bmp	500	1	BMVZ	500	1	blank2r.bmp	880	6	ehrlich	880	1	!	1292	1	!	-1	0	0	0	0	0	0
2024-05-28	10:07:05	10:12:34	328542	6.6.1	4_exp_EVA_AWA_CON	53	B	A	Rpleas_acq	Same	Rpleas	1pleas	acq_US_pleas_nomask	acq3_nomask	3	9	453	1	300	300	0	0	480	50	1	0	schlau	lachen	spielen	fair	retten	ehrlich	schroff	leiden	strafen	faul	rächen	eitel	freundlich	helfen	tolerant	treu	schön	loyal	fanatisch	hindern	tyrannisch	tot	schlecht	lasch	1	blank2r.bmp	0	1	+	0	1	blank2r.bmp	500	1	BMVZ	500	1	blank2r.bmp	880	2	lachen	880	1	!	1292	1	!	1381	0	0	0	0	0	0
2024-05-28	10:07:05	10:12:36	330734	6.6.1	4_exp_EVA_AWA_CON	53	B	A	Rpleas_acq	Same	Rpleas	1pleas	acq_US_pleas_nomask	acq3_nomask	3	10	453	1	300	300	0	0	410	50	1	0	schlau	lachen	spielen	fair	retten	ehrlich	schroff	leiden	strafen	faul	rächen	eitel	freundlich	helfen	tolerant	treu	schön	loyal	fanatisch	hindern	tyrannisch	tot	schlecht	lasch	1	blank2r.bmp	0	1	+	0	1	blank2r.bmp	500	1	BMVZ	500	1	blank2r.bmp	880	1	schlau	880	1	!	1292	1	!	1312	0	0	0	0	0	0
2024-05-28	10:07:05	10:12:39	332958	6.6.1	4_exp_EVA_AWA_CON	53	B	A	Rpleas_acq	Same	Rpleas	1pleas	acq_US_unple_nomask	acq3_nomask	3	11	453	1	300	300	0	0	443	46	1	0	schlau	lachen	spielen	fair	retten	ehrlich	schroff	leiden	strafen	faul	rächen	eitel	freundlich	helfen	tolerant	treu	schön	loyal	fanatisch	hindern	tyrannisch	tot	schlecht	lasch	1	blank2r.bmp	0	1	+	0	1	blank2r.bmp	500	1	GKQX	500	1	blank2r.bmp	880	3	strafen	880	1	!	1292	1	!	1344	0	0	0	0	0	0
2024-05-28	10:07:05	10:12:41	335108	6.6.1	4_exp_EVA_AWA_CON	53	B	A	Rpleas_acq	Same	Rpleas	1pleas	acq_US_unple_nomask	acq3_nomask	3	12	453	0	300	300	0	0	373	46	1	0	schlau	lachen	spielen	fair	retten	ehrlich	schroff	leiden	strafen	faul	rächen	eitel	freundlich	helfen	tolerant	treu	schön	loyal	fanatisch	hindern	tyrannisch	tot	schlecht	lasch	1	blank2r.bmp	0	1	+	0	1	blank2r.bmp	500	1	GKQX	500	1	blank2r.bmp	880	1	schroff	880	1	!	-1	1	!	-1	0	0	0	0	0	0
2024-05-28	10:07:05	10:12:43	337359	6.6.1	4_exp_EVA_AWA_CON	53	B	A	Rpleas_acq	Same	Rpleas	1pleas	acq_US_unple_nomask	acq3_nomask	3	13	453	1	300	300	0	0	470	46	1	0	schlau	lachen	spielen	fair	retten	ehrlich	schroff	leiden	strafen	faul	rächen	eitel	freundlich	helfen	tolerant	treu	schön	loyal	fanatisch	hindern	tyrannisch	tot	schlecht	lasch	1	blank2r.bmp	0	1	+	0	1	blank2r.bmp	500	1	GKQX	500	1	blank2r.bmp	880	4	faul	880	1	!	1292	1	!	1372	0	0	0	0	0	0
2024-05-28	10:07:05	10:12:45	339532	6.6.1	4_exp_EVA_AWA_CON	53	B	A	Rpleas_acq	Same	Rpleas	1pleas	acq_US_unple_nomask	acq3_nomask	3	14	453	1	300	300	0	0	394	46	1	0	schlau	lachen	spielen	fair	retten	ehrlich	schroff	leiden	strafen	faul	rächen	eitel	freundlich	helfen	tolerant	treu	schön	loyal	fanatisch	hindern	tyrannisch	tot	schlecht	lasch	1	blank2r.bmp	0	1	+	0	1	blank2r.bmp	500	1	GKQX	500	1	blank2r.bmp	880	1	schroff	880	1	!	1293	1	!	1294	0	0	0	0	0	0
2024-05-28	10:07:05	10:12:47	341798	6.6.1	4_exp_EVA_AWA_CON	53	B	A	Rpleas_acq	Same	Rpleas	1pleas	acq_US_unple_nomask	acq3_nomask	3	15	453	1	300	300	0	0	487	46	1	0	schlau	lachen	spielen	fair	retten	ehrlich	schroff	leiden	strafen	faul	rächen	eitel	freundlich	helfen	tolerant	treu	schön	loyal	fanatisch	hindern	tyrannisch	tot	schlecht	lasch	1	blank2r.bmp	0	1	+	0	1	blank2r.bmp	500	1	GKQX	500	1	blank2r.bmp	880	5	rächen	880	1	!	1292	1	!	1388	0	0	0	0	0	0
2024-05-28	10:07:05	10:12:50	344148	6.6.1	4_exp_EVA_AWA_CON	53	B	A	Rpleas_acq	Same	Rpleas	1pleas	acq_US_pleas_nomask	acq3_nomask	3	16	453	0	300	300	0	0	578	50	1	0	schlau	lachen	spielen	fair	retten	ehrlich	schroff	leiden	strafen	faul	rächen	eitel	freundlich	helfen	tolerant	treu	schön	loyal	fanatisch	hindern	tyrannisch	tot	schlecht	lasch	1	blank2r.bmp	0	1	+	0	1	blank2r.bmp	500	1	BMVZ	500	1	blank2r.bmp	880	6	ehrlich	880	1	!	1292	1	!	-1	0	0	0	0	0	0
2024-05-28	10:07:05	10:12:52	346456	6.6.1	4_exp_EVA_AWA_CON	53	B	A	Rpleas_acq	Same	Rpleas	1pleas	acq_US_pleas_nomask	acq3_nomask	3	17	453	0	300	300	0	0	330	46	0	0	schlau	lachen	spielen	fair	retten	ehrlich	schroff	leiden	strafen	faul	rächen	eitel	freundlich	helfen	tolerant	treu	schön	loyal	fanatisch	hindern	tyrannisch	tot	schlecht	lasch	1	blank2r.bmp	0	1	+	0	1	blank2r.bmp	500	1	BMVZ	500	1	blank2r.bmp	880	3	spielen	880	1	FEHLER	1524	1	!	-1	1	!	-1	0	0	0
2024-05-28	10:07:05	10:12:54	348550	6.6.1	4_exp_EVA_AWA_CON	53	B	A	Rpleas_acq	Same	Rpleas	1pleas	acq_US_unple_nomask	acq3_nomask	3	18	453	1	300	300	0	0	515	46	1	0	schlau	lachen	spielen	fair	retten	ehrlich	schroff	leiden	strafen	faul	rächen	eitel	freundlich	helfen	tolerant	treu	schön	loyal	fanatisch	hindern	tyrannisch	tot	schlecht	lasch	1	blank2r.bmp	0	1	+	0	1	blank2r.bmp	500	1	GKQX	500	1	blank2r.bmp	880	6	eitel	880	1	!	1293	1	!	1416	0	0	0	0	0	0
2024-05-28	10:07:05	10:12:57	350860	6.6.1	4_exp_EVA_AWA_CON	53	B	A	Rpleas_acq	Same	Rpleas	1pleas	acq_US_unple_nomask	acq3_nomask	3	19	453	0	300	300	0	0	535	46	1	0	schlau	lachen	spielen	fair	retten	ehrlich	schroff	leiden	strafen	faul	rächen	eitel	freundlich	helfen	tolerant	treu	schön	loyal	fanatisch	hindern	tyrannisch	tot	schlecht	lasch	1	blank2r.bmp	0	1	+	0	1	blank2r.bmp	500	1	GKQX	500	1	blank2r.bmp	880	3	strafen	880	1	!	1293	1	!	-1	0	0	0	0	0	0
2024-05-28	10:07:05	10:12:59	353085	6.6.1	4_exp_EVA_AWA_CON	53	B	A	Rpleas_acq	Same	Rpleas	1pleas	acq_US_pleas_nomask	acq3_nomask	3	20	453	1	300	300	0	0	448	50	1	0	schlau	lachen	spielen	fair	retten	ehrlich	schroff	leiden	strafen	faul	rächen	eitel	freundlich	helfen	tolerant	treu	schön	loyal	fanatisch	hindern	tyrannisch	tot	schlecht	lasch	1	blank2r.bmp	0	1	+	0	1	blank2r.bmp	500	1	BMVZ	500	1	blank2r.bmp	880	1	schlau	880	1	!	1292	1	!	1349	0	0	0	0	0	0
2024-05-28	10:07:05	10:13:01	355454	6.6.1	4_exp_EVA_AWA_CON	53	B	A	Rpleas_acq	Same	Rpleas	1pleas	acq_US_pleas_nomask	acq3_nomask	3	21	453	1	300	300	0	0	394	46	0	0	schlau	lachen	spielen	fair	retten	ehrlich	schroff	leiden	strafen	faul	rächen	eitel	freundlich	helfen	tolerant	treu	schön	loyal	fanatisch	hindern	tyrannisch	tot	schlecht	lasch	1	blank2r.bmp	0	1	+	0	1	blank2r.bmp	500	1	BMVZ	500	1	blank2r.bmp	880	5	retten	880	1	FEHLER	1586	1	!	1293	1	!	1294	0	0	0
2024-05-28	10:07:05	10:13:03	357542	6.6.1	4_exp_EVA_AWA_CON	53	B	A	Rpleas_acq	Same	Rpleas	1pleas	acq_US_pleas_nomask	acq3_nomask	3	22	453	1	300	300	0	0	511	50	1	0	schlau	lachen	spielen	fair	retten	ehrlich	schroff	leiden	strafen	faul	rächen	eitel	freundlich	helfen	tolerant	treu	schön	loyal	fanatisch	hindern	tyrannisch	tot	schlecht	lasch	1	blank2r.bmp	0	1	+	0	1	blank2r.bmp	500	1	BMVZ	500	1	blank2r.bmp	880	2	lachen	880	1	!	1292	1	!	1412	0	0	0	0	0	0
2024-05-28	10:07:05	10:13:06	359843	6.6.1	4_exp_EVA_AWA_CON	53	B	A	Rpleas_acq	Same	Rpleas	1pleas	acq_US_unple_nomask	acq3_nomask	3	23	453	0	300	300	0	0	523	46	1	0	schlau	lachen	spielen	fair	retten	ehrlich	schroff	leiden	strafen	faul	rächen	eitel	freundlich	helfen	tolerant	treu	schön	loyal	fanatisch	hindern	tyrannisch	tot	schlecht	lasch	1	blank2r.bmp	0	1	+	0	1	blank2r.bmp	500	1	GKQX	500	1	blank2r.bmp	880	2	leiden	880	1	!	1292	1	!	-1	0	0	0	0	0	0
2024-05-28	10:07:05	10:13:08	362156	6.6.1	4_exp_EVA_AWA_CON	53	B	A	Rpleas_acq	Same	Rpleas	1pleas	acq_US_pleas_nomask	acq3_nomask	3	24	453	0	300	300	0	0	534	50	1	0	schlau	lachen	spielen	fair	retten	ehrlich	schroff	leiden	strafen	faul	rächen	eitel	freundlich	helfen	tolerant	treu	schön	loyal	fanatisch	hindern	tyrannisch	tot	schlecht	lasch	1	blank2r.bmp	0	1	+	0	1	blank2r.bmp	500	1	BMVZ	500	1	blank2r.bmp	880	4	fair	880	1	!	1292	1	!	-1	0	0	0	0	0	0
2024-05-28	10:07:05	10:13:10	364308	6.6.1	4_exp_EVA_AWA_CON	53	B	A	Rpleas_acq	Same	Rpleas	1pleas	acq_US_pleas_nomask	acq3_nomask	3	25	453	0	300	300	0	0	375	50	1	0	schlau	lachen	spielen	fair	retten	ehrlich	schroff	leiden	strafen	faul	rächen	eitel	freundlich	helfen	tolerant	treu	schön	loyal	fanatisch	hindern	tyrannisch	tot	schlecht	lasch	1	blank2r.bmp	0	1	+	0	1	blank2r.bmp	500	1	BMVZ	500	1	blank2r.bmp	880	4	fair	880	1	!	-1	1	!	-1	0	0	0	0	0	0
2024-05-28	10:07:05	10:13:12	366550	6.6.1	4_exp_EVA_AWA_CON	53	B	A	Rpleas_acq	Same	Rpleas	1pleas	acq_US_pleas_nomask	acq3_nomask	3	26	453	1	300	300	0	0	463	50	1	0	schlau	lachen	spielen	fair	retten	ehrlich	schroff	leiden	strafen	faul	rächen	eitel	freundlich	helfen	tolerant	treu	schön	loyal	fanatisch	hindern	tyrannisch	tot	schlecht	lasch	1	blank2r.bmp	0	1	+	0	1	blank2r.bmp	500	1	BMVZ	500	1	blank2r.bmp	880	2	lachen	880	1	!	1292	1	!	1364	0	0	0	0	0	0
2024-05-28	10:07:05	10:13:14	368750	6.6.1	4_exp_EVA_AWA_CON	53	B	A	Rpleas_acq	Same	Rpleas	1pleas	acq_US_pleas_nomask	acq3_nomask	3	27	453	1	300	300	0	0	422	50	1	0	schlau	lachen	spielen	fair	retten	ehrlich	schroff	leiden	strafen	faul	rächen	eitel	freundlich	helfen	tolerant	treu	schön	loyal	fanatisch	hindern	tyrannisch	tot	schlecht	lasch	1	blank2r.bmp	0	1	+	0	1	blank2r.bmp	500	1	BMVZ	500	1	blank2r.bmp	880	6	ehrlich	880	1	!	1293	1	!	1323	0	0	0	0	0	0
2024-05-28	10:07:05	10:13:17	371069	6.6.1	4_exp_EVA_AWA_CON	53	B	A	Rpleas_acq	Same	Rpleas	1pleas	acq_US_unple_nomask	acq3_nomask	3	28	453	0	300	300	0	0	540	46	1	0	schlau	lachen	spielen	fair	retten	ehrlich	schroff	leiden	strafen	faul	rächen	eitel	freundlich	helfen	tolerant	treu	schön	loyal	fanatisch	hindern	tyrannisch	tot	schlecht	lasch	1	blank2r.bmp	0	1	+	0	1	blank2r.bmp	500	1	GKQX	500	1	blank2r.bmp	880	5	rächen	880	1	!	1292	1	!	-1	0	0	0	0	0	0
2024-05-28	10:07:05	10:13:19	373294	6.6.1	4_exp_EVA_AWA_CON	53	B	A	Rpleas_acq	Same	Rpleas	1pleas	acq_US_pleas_nomask	acq3_nomask	3	29	453	1	300	300	0	0	443	50	1	0	schlau	lachen	spielen	fair	retten	ehrlich	schroff	leiden	strafen	faul	rächen	eitel	freundlich	helfen	tolerant	treu	schön	loyal	fanatisch	hindern	tyrannisch	tot	schlecht	lasch	1	blank2r.bmp	0	1	+	0	1	blank2r.bmp	500	1	BMVZ	500	1	blank2r.bmp	880	3	spielen	880	1	!	1292	1	!	1344	0	0	0	0	0	0
2024-05-28	10:07:05	10:13:21	375542	6.6.1	4_exp_EVA_AWA_CON	53	B	A	Rpleas_acq	Same	Rpleas	1pleas	acq_US_unple_nomask	acq3_nomask	3	30	453	1	300	300	0	0	469	46	1	0	schlau	lachen	spielen	fair	retten	ehrlich	schroff	leiden	strafen	faul	rächen	eitel	freundlich	helfen	tolerant	treu	schön	loyal	fanatisch	hindern	tyrannisch	tot	schlecht	lasch	1	blank2r.bmp	0	1	+	0	1	blank2r.bmp	500	1	GKQX	500	1	blank2r.bmp	880	2	leiden	880	1	!	1292	1	!	1370	0	0	0	0	0	0
2024-05-28	10:07:05	10:13:24	378031	6.6.1	4_exp_EVA_AWA_CON	53	B	A	Rpleas_acq	Same	Rpleas	1pleas	acq_US_unple_nomask	acq3_nomask	3	31	453	1	300	300	0	0	506	50	0	0	schlau	lachen	spielen	fair	retten	ehrlich	schroff	leiden	strafen	faul	rächen	eitel	freundlich	helfen	tolerant	treu	schön	loyal	fanatisch	hindern	tyrannisch	tot	schlecht	lasch	1	blank2r.bmp	0	1	+	0	1	blank2r.bmp	500	1	GKQX	500	1	blank2r.bmp	880	4	faul	880	1	FEHLER	1699	1	!	1292	1	!	1407	0	0	0
2024-05-28	10:07:05	10:13:26	380054	6.6.1	4_exp_EVA_AWA_CON	53	B	A	Rpleas_acq	Same	Rpleas	1pleas	acq_US_unple_nomask	acq3_nomask	3	32	453	1	300	300	0	0	448	46	1	0	schlau	lachen	spielen	fair	retten	ehrlich	schroff	leiden	strafen	faul	rächen	eitel	freundlich	helfen	tolerant	treu	schön	loyal	fanatisch	hindern	tyrannisch	tot	schlecht	lasch	1	blank2r.bmp	0	1	+	0	1	blank2r.bmp	500	1	GKQX	500	1	blank2r.bmp	880	1	schroff	880	1	!	1292	1	!	1349	0	0	0	0	0	0
2024-05-28	10:07:05	10:13:28	382278	6.6.1	4_exp_EVA_AWA_CON	53	B	A	Rpleas_acq	Same	Rpleas	1pleas	acq_US_pleas_nomask	acq3_nomask	3	33	453	1	300	300	0	0	441	50	1	0	schlau	lachen	spielen	fair	retten	ehrlich	schroff	leiden	strafen	faul	rächen	eitel	freundlich	helfen	tolerant	treu	schön	loyal	fanatisch	hindern	tyrannisch	tot	schlecht	lasch	1	blank2r.bmp	0	1	+	0	1	blank2r.bmp	500	1	BMVZ	500	1	blank2r.bmp	880	1	schlau	880	1	!	1292	1	!	1342	0	0	0	0	0	0
2024-05-28	10:07:05	10:13:30	384518	6.6.1	4_exp_EVA_AWA_CON	53	B	A	Rpleas_acq	Same	Rpleas	1pleas	acq_US_unple_nomask	acq3_nomask	3	34	453	1	300	300	0	0	459	46	1	0	schlau	lachen	spielen	fair	retten	ehrlich	schroff	leiden	strafen	faul	rächen	eitel	freundlich	helfen	tolerant	treu	schön	loyal	fanatisch	hindern	tyrannisch	tot	schlecht	lasch	1	blank2r.bmp	0	1	+	0	1	blank2r.bmp	500	1	GKQX	500	1	blank2r.bmp	880	3	strafen	880	1	!	1292	1	!	1361	0	0	0	0	0	0
2024-05-28	10:07:05	10:13:33	386836	6.6.1	4_exp_EVA_AWA_CON	53	B	A	Rpleas_acq	Same	Rpleas	1pleas	acq_US_pleas_nomask	acq3_nomask	3	35	453	0	300	300	0	0	538	50	1	0	schlau	lachen	spielen	fair	retten	ehrlich	schroff	leiden	strafen	faul	rächen	eitel	freundlich	helfen	tolerant	treu	schön	loyal	fanatisch	hindern	tyrannisch	tot	schlecht	lasch	1	blank2r.bmp	0	1	+	0	1	blank2r.bmp	500	1	BMVZ	500	1	blank2r.bmp	880	5	retten	880	1	!	1292	1	!	-1	0	0	0	0	0	0
2024-05-28	10:07:05	10:13:35	389030	6.6.1	4_exp_EVA_AWA_CON	53	B	A	Rpleas_acq	Same	Rpleas	1pleas	acq_US_unple_nomask	acq3_nomask	3	36	453	1	300	300	0	0	419	46	1	0	schlau	lachen	spielen	fair	retten	ehrlich	schroff	leiden	strafen	faul	rächen	eitel	freundlich	helfen	tolerant	treu	schön	loyal	fanatisch	hindern	tyrannisch	tot	schlecht	lasch	1	blank2r.bmp	0	1	+	0	1	blank2r.bmp	500	1	GKQX	500	1	blank2r.bmp	880	6	eitel	880	1	!	1293	1	!	1320	0	0	0	0	0	0
2024-05-28	10:07:05	10:13:53	407756	6.6.1	4_exp_EVA_AWA_CON	53	B	A	Rpleas_acq	Same	Rpleas	1pleas	acq_US_unple_nomask	acq45_nomask	4	1	400	0	300	300	0	0	515	46	1	0	schlau	lachen	spielen	fair	retten	ehrlich	schroff	leiden	strafen	faul	rächen	eitel	freundlich	helfen	tolerant	treu	schön	loyal	fanatisch	hindern	tyrannisch	tot	schlecht	lasch	1	blank2r.bmp	0	1	+	0	1	blank2r.bmp	500	1	GKQX	500	1	blank2r.bmp	880	1	schroff	880	1	!	1232	1	!	-1	0	0	0	0	0	0
2024-05-28	10:07:05	10:13:56	410028	6.6.1	4_exp_EVA_AWA_CON	53	B	A	Rpleas_acq	Same	Rpleas	1pleas	acq_US_pleas_nomask	acq45_nomask	4	2	400	0	300	300	0	0	495	50	1	0	schlau	lachen	spielen	fair	retten	ehrlich	schroff	leiden	strafen	faul	rächen	eitel	freundlich	helfen	tolerant	treu	schön	loyal	fanatisch	hindern	tyrannisch	tot	schlecht	lasch	1	blank2r.bmp	0	1	+	0	1	blank2r.bmp	500	1	BMVZ	500	1	blank2r.bmp	880	4	fair	880	1	!	1232	1	!	-1	0	0	0	0	0	0
2024-05-28	10:07:05	10:13:58	412246	6.6.1	4_exp_EVA_AWA_CON	53	B	A	Rpleas_acq	Same	Rpleas	1pleas	acq_US_unple_nomask	acq45_nomask	4	3	400	1	300	300	0	0	440	46	1	0	schlau	lachen	spielen	fair	retten	ehrlich	schroff	leiden	strafen	faul	rächen	eitel	freundlich	helfen	tolerant	treu	schön	loyal	fanatisch	hindern	tyrannisch	tot	schlecht	lasch	1	blank2r.bmp	0	1	+	0	1	blank2r.bmp	500	1	GKQX	500	1	blank2r.bmp	880	3	strafen	880	1	!	1232	1	!	1341	0	0	0	0	0	0
2024-05-28	10:07:05	10:14:00	414628	6.6.1	4_exp_EVA_AWA_CON	53	B	A	Rpleas_acq	Same	Rpleas	1pleas	acq_US_unple_nomask	acq45_nomask	4	4	400	0	300	300	0	0	602	46	1	0	schlau	lachen	spielen	fair	retten	ehrlich	schroff	leiden	strafen	faul	rächen	eitel	freundlich	helfen	tolerant	treu	schön	loyal	fanatisch	hindern	tyrannisch	tot	schlecht	lasch	1	blank2r.bmp	0	1	+	0	1	blank2r.bmp	500	1	GKQX	500	1	blank2r.bmp	880	4	faul	880	1	!	1232	1	!	-1	0	0	0	0	0	0
2024-05-28	10:07:05	10:14:02	416773	6.6.1	4_exp_EVA_AWA_CON	53	B	A	Rpleas_acq	Same	Rpleas	1pleas	acq_US_pleas_nomask	acq45_nomask	4	5	400	1	300	300	0	0	365	46	0	0	schlau	lachen	spielen	fair	retten	ehrlich	schroff	leiden	strafen	faul	rächen	eitel	freundlich	helfen	tolerant	treu	schön	loyal	fanatisch	hindern	tyrannisch	tot	schlecht	lasch	1	blank2r.bmp	0	1	+	0	1	blank2r.bmp	500	1	BMVZ	500	1	blank2r.bmp	880	6	ehrlich	880	1	!	1232	1	!	1266	0	0	0	0	0	0
2024-05-28	10:07:05	10:14:05	418982	6.6.1	4_exp_EVA_AWA_CON	53	B	A	Rpleas_acq	Same	Rpleas	1pleas	acq_US_unple_nomask	acq45_nomask	4	6	400	1	300	300	0	0	431	46	1	0	schlau	lachen	spielen	fair	retten	ehrlich	schroff	leiden	strafen	faul	rächen	eitel	freundlich	helfen	tolerant	treu	schön	loyal	fanatisch	hindern	tyrannisch	tot	schlecht	lasch	1	blank2r.bmp	0	1	+	0	1	blank2r.bmp	500	1	GKQX	500	1	blank2r.bmp	880	6	eitel	880	1	!	1232	1	!	1332	0	0	0	0	0	0
2024-05-28	10:07:05	10:14:07	421301	6.6.1	4_exp_EVA_AWA_CON	53	B	A	Rpleas_acq	Same	Rpleas	1pleas	acq_US_unple_nomask	acq45_nomask	4	7	400	0	300	300	0	0	540	46	1	0	schlau	lachen	spielen	fair	retten	ehrlich	schroff	leiden	strafen	faul	rächen	eitel	freundlich	helfen	tolerant	treu	schön	loyal	fanatisch	hindern	tyrannisch	tot	schlecht	lasch	1	blank2r.bmp	0	1	+	0	1	blank2r.bmp	500	1	GKQX	500	1	blank2r.bmp	880	2	leiden	880	1	!	1232	1	!	-1	0	0	0	0	0	0
2024-05-28	10:07:05	10:14:09	423604	6.6.1	4_exp_EVA_AWA_CON	53	B	A	Rpleas_acq	Same	Rpleas	1pleas	acq_US_pleas_nomask	acq45_nomask	4	8	400	0	300	300	0	0	523	50	1	0	schlau	lachen	spielen	fair	retten	ehrlich	schroff	leiden	strafen	faul	rächen	eitel	freundlich	helfen	tolerant	treu	schön	loyal	fanatisch	hindern	tyrannisch	tot	schlecht	lasch	1	blank2r.bmp	0	1	+	0	1	blank2r.bmp	500	1	BMVZ	500	1	blank2r.bmp	880	3	spielen	880	1	!	1232	1	!	-1	0	0	0	0	0	0
2024-05-28	10:07:05	10:14:12	425858	6.6.1	4_exp_EVA_AWA_CON	53	B	A	Rpleas_acq	Same	Rpleas	1pleas	acq_US_pleas_nomask	acq45_nomask	4	9	400	0	300	300	0	0	477	50	1	0	schlau	lachen	spielen	fair	retten	ehrlich	schroff	leiden	strafen	faul	rächen	eitel	freundlich	helfen	tolerant	treu	schön	loyal	fanatisch	hindern	tyrannisch	tot	schlecht	lasch	1	blank2r.bmp	0	1	+	0	1	blank2r.bmp	500	1	BMVZ	500	1	blank2r.bmp	880	5	retten	880	1	!	1233	1	!	-1	0	0	0	0	0	0
2024-05-28	10:07:05	10:14:14	428148	6.6.1	4_exp_EVA_AWA_CON	53	B	A	Rpleas_acq	Same	Rpleas	1pleas	acq_US_unple_nomask	acq45_nomask	4	10	400	0	300	300	0	0	514	46	1	0	schlau	lachen	spielen	fair	retten	ehrlich	schroff	leiden	strafen	faul	rächen	eitel	freundlich	helfen	tolerant	treu	schön	loyal	fanatisch	hindern	tyrannisch	tot	schlecht	lasch	1	blank2r.bmp	0	1	+	0	1	blank2r.bmp	500	1	GKQX	500	1	blank2r.bmp	880	5	rächen	880	1	!	1232	1	!	-1	0	0	0	0	0	0
2024-05-28	10:07:05	10:14:16	430334	6.6.1	4_exp_EVA_AWA_CON	53	B	A	Rpleas_acq	Same	Rpleas	1pleas	acq_US_pleas_nomask	acq45_nomask	4	11	400	1	300	300	0	0	406	46	0	0	schlau	lachen	spielen	fair	retten	ehrlich	schroff	leiden	strafen	faul	rächen	eitel	freundlich	helfen	tolerant	treu	schön	loyal	fanatisch	hindern	tyrannisch	tot	schlecht	lasch	1	blank2r.bmp	0	1	+	0	1	blank2r.bmp	500	1	BMVZ	500	1	blank2r.bmp	880	2	lachen	880	1	!	1232	1	!	1307	0	0	0	0	0	0
2024-05-28	10:07:05	10:14:18	432470	6.6.1	4_exp_EVA_AWA_CON	53	B	A	Rpleas_acq	Same	Rpleas	1pleas	acq_US_pleas_nomask	acq45_nomask	4	12	400	1	300	300	0	0	361	50	1	0	schlau	lachen	spielen	fair	retten	ehrlich	schroff	leiden	strafen	faul	rächen	eitel	freundlich	helfen	tolerant	treu	schön	loyal	fanatisch	hindern	tyrannisch	tot	schlecht	lasch	1	blank2r.bmp	0	1	+	0	1	blank2r.bmp	500	1	BMVZ	500	1	blank2r.bmp	880	1	schlau	880	1	!	1232	1	!	1262	0	0	0	0	0	0
2024-05-28	10:07:05	10:14:20	434740	6.6.1	4_exp_EVA_AWA_CON	53	B	A	Rpleas_acq	Same	Rpleas	1pleas	acq_US_pleas_nomask	acq45_nomask	4	13	400	0	300	300	0	0	491	50	1	0	schlau	lachen	spielen	fair	retten	ehrlich	schroff	leiden	strafen	faul	rächen	eitel	freundlich	helfen	tolerant	treu	schön	loyal	fanatisch	hindern	tyrannisch	tot	schlecht	lasch	1	blank2r.bmp	0	1	+	0	1	blank2r.bmp	500	1	BMVZ	500	1	blank2r.bmp	880	6	ehrlich	880	1	!	1232	1	!	-1	0	0	0	0	0	0
2024-05-28	10:07:05	10:14:23	436902	6.6.1	4_exp_EVA_AWA_CON	53	B	A	Rpleas_acq	Same	Rpleas	1pleas	acq_US_unple_nomask	acq45_nomask	4	14	400	1	300	300	0	0	380	46	1	0	schlau	lachen	spielen	fair	retten	ehrlich	schroff	leiden	strafen	faul	rächen	eitel	freundlich	helfen	tolerant	treu	schön	loyal	fanatisch	hindern	tyrannisch	tot	schlecht	lasch	1	blank2r.bmp	0	1	+	0	1	blank2r.bmp	500	1	GKQX	500	1	blank2r.bmp	880	1	schroff	880	1	!	1232	1	!	1282	0	0	0	0	0	0
2024-05-28	10:07:05	10:14:25	439086	6.6.1	4_exp_EVA_AWA_CON	53	B	A	Rpleas_acq	Same	Rpleas	1pleas	acq_US_pleas_nomask	acq45_nomask	4	15	400	1	300	300	0	0	403	50	1	0	schlau	lachen	spielen	fair	retten	ehrlich	schroff	leiden	strafen	faul	rächen	eitel	freundlich	helfen	tolerant	treu	schön	loyal	fanatisch	hindern	tyrannisch	tot	schlecht	lasch	1	blank2r.bmp	0	1	+	0	1	blank2r.bmp	500	1	BMVZ	500	1	blank2r.bmp	880	2	lachen	880	1	!	1232	1	!	1303	0	0	0	0	0	0
2024-05-28	10:07:05	10:14:27	441277	6.6.1	4_exp_EVA_AWA_CON	53	B	A	Rpleas_acq	Same	Rpleas	1pleas	acq_US_pleas_nomask	acq45_nomask	4	16	400	1	300	300	0	0	413	50	1	0	schlau	lachen	spielen	fair	retten	ehrlich	schroff	leiden	strafen	faul	rächen	eitel	freundlich	helfen	tolerant	treu	schön	loyal	fanatisch	hindern	tyrannisch	tot	schlecht	lasch	1	blank2r.bmp	0	1	+	0	1	blank2r.bmp	500	1	BMVZ	500	1	blank2r.bmp	880	4	fair	880	1	!	1232	1	!	1314	0	0	0	0	0	0
2024-05-28	10:07:05	10:14:29	443396	6.6.1	4_exp_EVA_AWA_CON	53	B	A	Rpleas_acq	Same	Rpleas	1pleas	acq_US_unple_nomask	acq45_nomask	4	17	400	1	300	300	0	0	342	46	1	0	schlau	lachen	spielen	fair	retten	ehrlich	schroff	leiden	strafen	faul	rächen	eitel	freundlich	helfen	tolerant	treu	schön	loyal	fanatisch	hindern	tyrannisch	tot	schlecht	lasch	1	blank2r.bmp	0	1	+	0	1	blank2r.bmp	500	1	GKQX	500	1	blank2r.bmp	880	3	strafen	880	1	!	1232	1	!	1241	0	0	0	0	0	0
2024-05-28	10:07:05	10:14:31	445630	6.6.1	4_exp_EVA_AWA_CON	53	B	A	Rpleas_acq	Same	Rpleas	1pleas	acq_US_unple_nomask	acq45_nomask	4	18	400	1	300	300	0	0	452	46	1	0	schlau	lachen	spielen	fair	retten	ehrlich	schroff	leiden	strafen	faul	rächen	eitel	freundlich	helfen	tolerant	treu	schön	loyal	fanatisch	hindern	tyrannisch	tot	schlecht	lasch	1	blank2r.bmp	0	1	+	0	1	blank2r.bmp	500	1	GKQX	500	1	blank2r.bmp	880	4	faul	880	1	!	1232	1	!	1353	0	0	0	0	0	0
2024-05-28	10:07:05	10:14:34	448012	6.6.1	4_exp_EVA_AWA_CON	53	B	A	Rpleas_acq	Same	Rpleas	1pleas	acq_US_unple_nomask	acq45_nomask	4	19	400	0	300	300	0	0	605	46	1	0	schlau	lachen	spielen	fair	retten	ehrlich	schroff	leiden	strafen	faul	rächen	eitel	freundlich	helfen	tolerant	treu	schön	loyal	fanatisch	hindern	tyrannisch	tot	schlecht	lasch	1	blank2r.bmp	0	1	+	0	1	blank2r.bmp	500	1	GKQX	500	1	blank2r.bmp	880	5	rächen	880	1	!	1233	1	!	-1	0	0	0	0	0	0
2024-05-28	10:07:05	10:14:36	450124	6.6.1	4_exp_EVA_AWA_CON	53	B	A	Rpleas_acq	Same	Rpleas	1pleas	acq_US_unple_nomask	acq45_nomask	4	20	400	1	300	300	0	0	335	46	1	0	schlau	lachen	spielen	fair	retten	ehrlich	schroff	leiden	strafen	faul	rächen	eitel	freundlich	helfen	tolerant	treu	schön	loyal	fanatisch	hindern	tyrannisch	tot	schlecht	lasch	1	blank2r.bmp	0	1	+	0	1	blank2r.bmp	500	1	GKQX	500	1	blank2r.bmp	880	6	eitel	880	1	!	1232	1	!	1235	0	0	0	0	0	0
2024-05-28	10:07:05	10:14:38	452236	6.6.1	4_exp_EVA_AWA_CON	53	B	A	Rpleas_acq	Same	Rpleas	1pleas	acq_US_unple_nomask	acq45_nomask	4	21	400	1	300	300	0	0	336	46	1	0	schlau	lachen	spielen	fair	retten	ehrlich	schroff	leiden	strafen	faul	rächen	eitel	freundlich	helfen	tolerant	treu	schön	loyal	fanatisch	hindern	tyrannisch	tot	schlecht	lasch	1	blank2r.bmp	0	1	+	0	1	blank2r.bmp	500	1	GKQX	500	1	blank2r.bmp	880	2	leiden	880	1	!	1232	1	!	1236	0	0	0	0	0	0
2024-05-28	10:07:05	10:14:40	454462	6.6.1	4_exp_EVA_AWA_CON	53	B	A	Rpleas_acq	Same	Rpleas	1pleas	acq_US_pleas_nomask	acq45_nomask	4	22	400	1	300	300	0	0	449	50	1	0	schlau	lachen	spielen	fair	retten	ehrlich	schroff	leiden	strafen	faul	rächen	eitel	freundlich	helfen	tolerant	treu	schön	loyal	fanatisch	hindern	tyrannisch	tot	schlecht	lasch	1	blank2r.bmp	0	1	+	0	1	blank2r.bmp	500	1	BMVZ	500	1	blank2r.bmp	880	3	spielen	880	1	!	1232	1	!	1350	0	0	0	0	0	0
2024-05-28	10:07:05	10:14:42	456796	6.6.1	4_exp_EVA_AWA_CON	53	B	A	Rpleas_acq	Same	Rpleas	1pleas	acq_US_pleas_nomask	acq45_nomask	4	23	400	0	300	300	0	0	553	50	1	0	schlau	lachen	spielen	fair	retten	ehrlich	schroff	leiden	strafen	faul	rächen	eitel	freundlich	helfen	tolerant	treu	schön	loyal	fanatisch	hindern	tyrannisch	tot	schlecht	lasch	1	blank2r.bmp	0	1	+	0	1	blank2r.bmp	500	1	BMVZ	500	1	blank2r.bmp	880	5	retten	880	1	!	1232	1	!	-1	0	0	0	0	0	0
2024-05-28	10:07:05	10:14:45	459116	6.6.1	4_exp_EVA_AWA_CON	53	B	A	Rpleas_acq	Same	Rpleas	1pleas	acq_US_pleas_nomask	acq45_nomask	4	24	400	0	300	300	0	0	542	50	1	0	schlau	lachen	spielen	fair	retten	ehrlich	schroff	leiden	strafen	faul	rächen	eitel	freundlich	helfen	tolerant	treu	schön	loyal	fanatisch	hindern	tyrannisch	tot	schlecht	lasch	1	blank2r.bmp	0	1	+	0	1	blank2r.bmp	500	1	BMVZ	500	1	blank2r.bmp	880	1	schlau	880	1	!	1232	1	!	-1	0	0	0	0	0	0
2024-05-28	10:07:05	10:14:47	461220	6.6.1	4_exp_EVA_AWA_CON	53	B	A	Rpleas_acq	Same	Rpleas	1pleas	acq_US_pleas_nomask	acq45_nomask	4	25	400	0	300	300	0	0	324	50	1	0	schlau	lachen	spielen	fair	retten	ehrlich	schroff	leiden	strafen	faul	rächen	eitel	freundlich	helfen	tolerant	treu	schön	loyal	fanatisch	hindern	tyrannisch	tot	schlecht	lasch	1	blank2r.bmp	0	1	+	0	1	blank2r.bmp	500	1	BMVZ	500	1	blank2r.bmp	880	1	schlau	880	1	!	-1	1	!	-1	0	0	0	0	0	0
2024-05-28	10:07:05	10:14:49	463358	6.6.1	4_exp_EVA_AWA_CON	53	B	A	Rpleas_acq	Same	Rpleas	1pleas	acq_US_unple_nomask	acq45_nomask	4	26	400	1	300	300	0	0	359	46	1	0	schlau	lachen	spielen	fair	retten	ehrlich	schroff	leiden	strafen	faul	rächen	eitel	freundlich	helfen	tolerant	treu	schön	loyal	fanatisch	hindern	tyrannisch	tot	schlecht	lasch	1	blank2r.bmp	0	1	+	0	1	blank2r.bmp	500	1	GKQX	500	1	blank2r.bmp	880	2	leiden	880	1	!	1232	1	!	1260	0	0	0	0	0	0
2024-05-28	10:07:05	10:14:51	465660	6.6.1	4_exp_EVA_AWA_CON	53	B	A	Rpleas_acq	Same	Rpleas	1pleas	acq_US_pleas_nomask	acq45_nomask	4	27	400	0	300	300	0	0	521	50	1	0	schlau	lachen	spielen	fair	retten	ehrlich	schroff	leiden	strafen	faul	rächen	eitel	freundlich	helfen	tolerant	treu	schön	loyal	fanatisch	hindern	tyrannisch	tot	schlecht	lasch	1	blank2r.bmp	0	1	+	0	1	blank2r.bmp	500	1	BMVZ	500	1	blank2r.bmp	880	6	ehrlich	880	1	!	1232	1	!	-1	0	0	0	0	0	0
2024-05-28	10:07:05	10:14:53	467789	6.6.1	4_exp_EVA_AWA_CON	53	B	A	Rpleas_acq	Same	Rpleas	1pleas	acq_US_pleas_nomask	acq45_nomask	4	28	400	1	300	300	0	0	348	50	1	0	schlau	lachen	spielen	fair	retten	ehrlich	schroff	leiden	strafen	faul	rächen	eitel	freundlich	helfen	tolerant	treu	schön	loyal	fanatisch	hindern	tyrannisch	tot	schlecht	lasch	1	blank2r.bmp	0	1	+	0	1	blank2r.bmp	500	1	BMVZ	500	1	blank2r.bmp	880	3	spielen	880	1	!	1232	1	!	1249	0	0	0	0	0	0
2024-05-28	10:07:05	10:14:56	470022	6.6.1	4_exp_EVA_AWA_CON	53	B	A	Rpleas_acq	Same	Rpleas	1pleas	acq_US_unple_nomask	acq45_nomask	4	29	400	1	300	300	0	0	459	46	1	0	schlau	lachen	spielen	fair	retten	ehrlich	schroff	leiden	strafen	faul	rächen	eitel	freundlich	helfen	tolerant	treu	schön	loyal	fanatisch	hindern	tyrannisch	tot	schlecht	lasch	1	blank2r.bmp	0	1	+	0	1	blank2r.bmp	500	1	GKQX	500	1	blank2r.bmp	880	3	strafen	880	1	!	1232	1	!	1360	0	0	0	0	0	0
2024-05-28	10:07:05	10:14:58	472237	6.6.1	4_exp_EVA_AWA_CON	53	B	A	Rpleas_acq	Same	Rpleas	1pleas	acq_US_unple_nomask	acq45_nomask	4	30	400	1	300	300	0	0	433	50	0	0	schlau	lachen	spielen	fair	retten	ehrlich	schroff	leiden	strafen	faul	rächen	eitel	freundlich	helfen	tolerant	treu	schön	loyal	fanatisch	hindern	tyrannisch	tot	schlecht	lasch	1	blank2r.bmp	0	1	+	0	1	blank2r.bmp	500	1	GKQX	500	1	blank2r.bmp	880	1	schroff	880	1	!	1232	1	!	1334	0	0	0	0	0	0
2024-05-28	10:07:05	10:15:00	474500	6.6.1	4_exp_EVA_AWA_CON	53	B	A	Rpleas_acq	Same	Rpleas	1pleas	acq_US_unple_nomask	acq45_nomask	4	31	400	0	300	300	0	0	486	46	1	0	schlau	lachen	spielen	fair	retten	ehrlich	schroff	leiden	strafen	faul	rächen	eitel	freundlich	helfen	tolerant	treu	schön	loyal	fanatisch	hindern	tyrannisch	tot	schlecht	lasch	1	blank2r.bmp	0	1	+	0	1	blank2r.bmp	500	1	GKQX	500	1	blank2r.bmp	880	5	rächen	880	1	!	1232	1	!	-1	0	0	0	0	0	0
2024-05-28	10:07:05	10:15:02	476718	6.6.1	4_exp_EVA_AWA_CON	53	B	A	Rpleas_acq	Same	Rpleas	1pleas	acq_US_unple_nomask	acq45_nomask	4	32	400	1	300	300	0	0	440	50	0	0	schlau	lachen	spielen	fair	retten	ehrlich	schroff	leiden	strafen	faul	rächen	eitel	freundlich	helfen	tolerant	treu	schön	loyal	fanatisch	hindern	tyrannisch	tot	schlecht	lasch	1	blank2r.bmp	0	1	+	0	1	blank2r.bmp	500	1	GKQX	500	1	blank2r.bmp	880	6	eitel	880	1	!	1232	1	!	1342	0	0	0	0	0	0
2024-05-28	10:07:05	10:15:05	479028	6.6.1	4_exp_EVA_AWA_CON	53	B	A	Rpleas_acq	Same	Rpleas	1pleas	acq_US_pleas_nomask	acq45_nomask	4	33	400	0	300	300	0	0	531	50	1	0	schlau	lachen	spielen	fair	retten	ehrlich	schroff	leiden	strafen	faul	rächen	eitel	freundlich	helfen	tolerant	treu	schön	loyal	fanatisch	hindern	tyrannisch	tot	schlecht	lasch	1	blank2r.bmp	0	1	+	0	1	blank2r.bmp	500	1	BMVZ	500	1	blank2r.bmp	880	2	lachen	880	1	!	1232	1	!	-1	0	0	0	0	0	0
2024-05-28	10:07:05	10:15:07	481230	6.6.1	4_exp_EVA_AWA_CON	53	B	A	Rpleas_acq	Same	Rpleas	1pleas	acq_US_pleas_nomask	acq45_nomask	4	34	400	1	300	300	0	0	419	46	0	0	schlau	lachen	spielen	fair	retten	ehrlich	schroff	leiden	strafen	faul	rächen	eitel	freundlich	helfen	tolerant	treu	schön	loyal	fanatisch	hindern	tyrannisch	tot	schlecht	lasch	1	blank2r.bmp	0	1	+	0	1	blank2r.bmp	500	1	BMVZ	500	1	blank2r.bmp	880	5	retten	880	1	!	1232	1	!	1320	0	0	0	0	0	0
2024-05-28	10:07:05	10:15:09	483398	6.6.1	4_exp_EVA_AWA_CON	53	B	A	Rpleas_acq	Same	Rpleas	1pleas	acq_US_pleas_nomask	acq45_nomask	4	35	400	1	300	300	0	0	386	50	1	0	schlau	lachen	spielen	fair	retten	ehrlich	schroff	leiden	strafen	faul	rächen	eitel	freundlich	helfen	tolerant	treu	schön	loyal	fanatisch	hindern	tyrannisch	tot	schlecht	lasch	1	blank2r.bmp	0	1	+	0	1	blank2r.bmp	500	1	BMVZ	500	1	blank2r.bmp	880	4	fair	880	1	!	1232	1	!	1287	0	0	0	0	0	0
2024-05-28	10:07:05	10:15:11	485582	6.6.1	4_exp_EVA_AWA_CON	53	B	A	Rpleas_acq	Same	Rpleas	1pleas	acq_US_unple_nomask	acq45_nomask	4	36	400	1	300	300	0	0	409	50	0	0	schlau	lachen	spielen	fair	retten	ehrlich	schroff	leiden	strafen	faul	rächen	eitel	freundlich	helfen	tolerant	treu	schön	loyal	fanatisch	hindern	tyrannisch	tot	schlecht	lasch	1	blank2r.bmp	0	1	+	0	1	blank2r.bmp	500	1	GKQX	500	1	blank2r.bmp	880	4	faul	880	1	!	1232	1	!	1310	0	0	0	0	0	0
2024-05-28	10:07:05	10:15:56	530796	6.6.1	4_exp_EVA_AWA_CON	53	B	A	Rpleas_acq	Same	Rpleas	1pleas	acq_US_unple_nomask	acq45_nomask	5	1	400	0	300	300	0	0	506	46	1	0	schlau	lachen	spielen	fair	retten	ehrlich	schroff	leiden	strafen	faul	rächen	eitel	freundlich	helfen	tolerant	treu	schön	loyal	fanatisch	hindern	tyrannisch	tot	schlecht	lasch	1	blank2r.bmp	0	1	+	0	1	blank2r.bmp	500	1	GKQX	500	1	blank2r.bmp	880	6	eitel	880	1	!	1232	1	!	-1	0	0	0	0	0	0
2024-05-28	10:07:05	10:15:59	533005	6.6.1	4_exp_EVA_AWA_CON	53	B	A	Rpleas_acq	Same	Rpleas	1pleas	acq_US_pleas_nomask	acq45_nomask	5	2	400	1	300	300	0	0	432	50	1	0	schlau	lachen	spielen	fair	retten	ehrlich	schroff	leiden	strafen	faul	rächen	eitel	freundlich	helfen	tolerant	treu	schön	loyal	fanatisch	hindern	tyrannisch	tot	schlecht	lasch	1	blank2r.bmp	0	1	+	0	1	blank2r.bmp	500	1	BMVZ	500	1	blank2r.bmp	880	5	retten	880	1	!	1232	1	!	1333	0	0	0	0	0	0
2024-05-28	10:07:05	10:16:01	535268	6.6.1	4_exp_EVA_AWA_CON	53	B	A	Rpleas_acq	Same	Rpleas	1pleas	acq_US_pleas_nomask	acq45_nomask	5	3	400	0	300	300	0	0	485	50	1	0	schlau	lachen	spielen	fair	retten	ehrlich	schroff	leiden	strafen	faul	rächen	eitel	freundlich	helfen	tolerant	treu	schön	loyal	fanatisch	hindern	tyrannisch	tot	schlecht	lasch	1	blank2r.bmp	0	1	+	0	1	blank2r.bmp	500	1	BMVZ	500	1	blank2r.bmp	880	4	fair	880	1	!	1232	1	!	-1	0	0	0	0	0	0
2024-05-28	10:07:05	10:16:03	537556	6.6.1	4_exp_EVA_AWA_CON	53	B	A	Rpleas_acq	Same	Rpleas	1pleas	acq_US_unple_nomask	acq45_nomask	5	4	400	0	300	300	0	0	511	46	1	0	schlau	lachen	spielen	fair	retten	ehrlich	schroff	leiden	strafen	faul	rächen	eitel	freundlich	helfen	tolerant	treu	schön	loyal	fanatisch	hindern	tyrannisch	tot	schlecht	lasch	1	blank2r.bmp	0	1	+	0	1	blank2r.bmp	500	1	GKQX	500	1	blank2r.bmp	880	4	faul	880	1	!	1232	1	!	-1	0	0	0	0	0	0
2024-05-28	10:07:05	10:16:05	539758	6.6.1	4_exp_EVA_AWA_CON	53	B	A	Rpleas_acq	Same	Rpleas	1pleas	acq_US_pleas_nomask	acq45_nomask	5	5	400	1	300	300	0	0	420	50	1	0	schlau	lachen	spielen	fair	retten	ehrlich	schroff	leiden	strafen	faul	rächen	eitel	freundlich	helfen	tolerant	treu	schön	loyal	fanatisch	hindern	tyrannisch	tot	schlecht	lasch	1	blank2r.bmp	0	1	+	0	1	blank2r.bmp	500	1	BMVZ	500	1	blank2r.bmp	880	3	spielen	880	1	!	1232	1	!	1322	0	0	0	0	0	0
2024-05-28	10:07:05	10:16:08	541918	6.6.1	4_exp_EVA_AWA_CON	53	B	A	Rpleas_acq	Same	Rpleas	1pleas	acq_US_pleas_nomask	acq45_nomask	5	6	400	1	300	300	0	0	379	46	0	0	schlau	lachen	spielen	fair	retten	ehrlich	schroff	leiden	strafen	faul	rächen	eitel	freundlich	helfen	tolerant	treu	schön	loyal	fanatisch	hindern	tyrannisch	tot	schlecht	lasch	1	blank2r.bmp	0	1	+	0	1	blank2r.bmp	500	1	BMVZ	500	1	blank2r.bmp	880	6	ehrlich	880	1	!	1233	1	!	1280	0	0	0	0	0	0
2024-05-28	10:07:05	10:16:10	544117	6.6.1	4_exp_EVA_AWA_CON	53	B	A	Rpleas_acq	Same	Rpleas	1pleas	acq_US_unple_nomask	acq45_nomask	5	7	400	1	300	300	0	0	417	46	1	0	schlau	lachen	spielen	fair	retten	ehrlich	schroff	leiden	strafen	faul	rächen	eitel	freundlich	helfen	tolerant	treu	schön	loyal	fanatisch	hindern	tyrannisch	tot	schlecht	lasch	1	blank2r.bmp	0	1	+	0	1	blank2r.bmp	500	1	GKQX	500	1	blank2r.bmp	880	3	strafen	880	1	!	1232	1	!	1318	0	0	0	0	0	0
2024-05-28	10:07:05	10:16:12	546388	6.6.1	4_exp_EVA_AWA_CON	53	B	A	Rpleas_acq	Same	Rpleas	1pleas	acq_US_unple_nomask	acq45_nomask	5	8	400	0	300	300	0	0	498	46	1	0	schlau	lachen	spielen	fair	retten	ehrlich	schroff	leiden	strafen	faul	rächen	eitel	freundlich	helfen	tolerant	treu	schön	loyal	fanatisch	hindern	tyrannisch	tot	schlecht	lasch	1	blank2r.bmp	0	1	+	0	1	blank2r.bmp	500	1	GKQX	500	1	blank2r.bmp	880	5	rächen	880	1	!	1232	1	!	-1	0	0	0	0	0	0
2024-05-28	10:07:05	10:16:14	548518	6.6.1	4_exp_EVA_AWA_CON	53	B	A	Rpleas_acq	Same	Rpleas	1pleas	acq_US_unple_nomask	acq45_nomask	5	9	400	1	300	300	0	0	354	46	1	0	schlau	lachen	spielen	fair	retten	ehrlich	schroff	leiden	strafen	faul	rächen	eitel	freundlich	helfen	tolerant	treu	schön	loyal	fanatisch	hindern	tyrannisch	tot	schlecht	lasch	1	blank2r.bmp	0	1	+	0	1	blank2r.bmp	500	1	GKQX	500	1	blank2r.bmp	880	2	leiden	880	1	!	1232	1	!	1255	0	0	0	0	0	0
2024-05-28	10:07:05	10:16:17	550900	6.6.1	4_exp_EVA_AWA_CON	53	B	A	Rpleas_acq	Same	Rpleas	1pleas	acq_US_unple_nomask	acq45_nomask	5	10	400	0	300	300	0	0	607	46	1	0	schlau	lachen	spielen	fair	retten	ehrlich	schroff	leiden	strafen	faul	rächen	eitel	freundlich	helfen	tolerant	treu	schön	loyal	fanatisch	hindern	tyrannisch	tot	schlecht	lasch	1	blank2r.bmp	0	1	+	0	1	blank2r.bmp	500	1	GKQX	500	1	blank2r.bmp	880	1	schroff	880	1	!	1232	1	!	-1	0	0	0	0	0	0
2024-05-28	10:07:05	10:16:19	553054	6.6.1	4_exp_EVA_AWA_CON	53	B	A	Rpleas_acq	Same	Rpleas	1pleas	acq_US_pleas_nomask	acq45_nomask	5	11	400	1	300	300	0	0	377	50	1	0	schlau	lachen	spielen	fair	retten	ehrlich	schroff	leiden	strafen	faul	rächen	eitel	freundlich	helfen	tolerant	treu	schön	loyal	fanatisch	hindern	tyrannisch	tot	schlecht	lasch	1	blank2r.bmp	0	1	+	0	1	blank2r.bmp	500	1	BMVZ	500	1	blank2r.bmp	880	2	lachen	880	1	!	1232	1	!	1278	0	0	0	0	0	0
2024-05-28	10:07:05	10:16:21	555294	6.6.1	4_exp_EVA_AWA_CON	53	B	A	Rpleas_acq	Same	Rpleas	1pleas	acq_US_unple_nomask	acq45_nomask	5	12	400	1	300	300	0	0	466	46	1	0	schlau	lachen	spielen	fair	retten	ehrlich	schroff	leiden	strafen	faul	rächen	eitel	freundlich	helfen	tolerant	treu	schön	loyal	fanatisch	hindern	tyrannisch	tot	schlecht	lasch	1	blank2r.bmp	0	1	+	0	1	blank2r.bmp	500	1	GKQX	500	1	blank2r.bmp	880	6	eitel	880	1	!	1232	1	!	1367	0	0	0	0	0	0
2024-05-28	10:07:05	10:16:23	557502	6.6.1	4_exp_EVA_AWA_CON	53	B	A	Rpleas_acq	Same	Rpleas	1pleas	acq_US_unple_nomask	acq45_nomask	5	13	400	1	300	300	0	0	433	46	1	0	schlau	lachen	spielen	fair	retten	ehrlich	schroff	leiden	strafen	faul	rächen	eitel	freundlich	helfen	tolerant	treu	schön	loyal	fanatisch	hindern	tyrannisch	tot	schlecht	lasch	1	blank2r.bmp	0	1	+	0	1	blank2r.bmp	500	1	GKQX	500	1	blank2r.bmp	880	1	schroff	880	1	!	1232	1	!	1334	0	0	0	0	0	0
2024-05-28	10:07:05	10:16:25	559613	6.6.1	4_exp_EVA_AWA_CON	53	B	A	Rpleas_acq	Same	Rpleas	1pleas	acq_US_unple_nomask	acq45_nomask	5	14	400	1	300	300	0	0	333	46	1	0	schlau	lachen	spielen	fair	retten	ehrlich	schroff	leiden	strafen	faul	rächen	eitel	freundlich	helfen	tolerant	treu	schön	loyal	fanatisch	hindern	tyrannisch	tot	schlecht	lasch	1	blank2r.bmp	0	1	+	0	1	blank2r.bmp	500	1	GKQX	500	1	blank2r.bmp	880	2	leiden	880	1	!	1232	1	!	1233	0	0	0	0	0	0
2024-05-28	10:07:05	10:16:27	561782	6.6.1	4_exp_EVA_AWA_CON	53	B	A	Rpleas_acq	Same	Rpleas	1pleas	acq_US_pleas_nomask	acq45_nomask	5	15	400	1	300	300	0	0	390	46	0	0	schlau	lachen	spielen	fair	retten	ehrlich	schroff	leiden	strafen	faul	rächen	eitel	freundlich	helfen	tolerant	treu	schön	loyal	fanatisch	hindern	tyrannisch	tot	schlecht	lasch	1	blank2r.bmp	0	1	+	0	1	blank2r.bmp	500	1	BMVZ	500	1	blank2r.bmp	880	1	schlau	880	1	!	1232	1	!	1291	0	0	0	0	0	0
2024-05-28	10:07:05	10:16:30	563998	6.6.1	4_exp_EVA_AWA_CON	53	B	A	Rpleas_acq	Same	Rpleas	1pleas	acq_US_pleas_nomask	acq45_nomask	5	16	400	1	300	300	0	0	434	50	1	0	schlau	lachen	spielen	fair	retten	ehrlich	schroff	leiden	strafen	faul	rächen	eitel	freundlich	helfen	tolerant	treu	schön	loyal	fanatisch	hindern	tyrannisch	tot	schlecht	lasch	1	blank2r.bmp	0	1	+	0	1	blank2r.bmp	500	1	BMVZ	500	1	blank2r.bmp	880	6	ehrlich	880	1	!	1232	1	!	1335	0	0	0	0	0	0
2024-05-28	10:07:05	10:16:32	566142	6.6.1	4_exp_EVA_AWA_CON	53	B	A	Rpleas_acq	Same	Rpleas	1pleas	acq_US_pleas_nomask	acq45_nomask	5	17	400	1	300	300	0	0	367	46	0	0	schlau	lachen	spielen	fair	retten	ehrlich	schroff	leiden	strafen	faul	rächen	eitel	freundlich	helfen	tolerant	treu	schön	loyal	fanatisch	hindern	tyrannisch	tot	schlecht	lasch	1	blank2r.bmp	0	1	+	0	1	blank2r.bmp	500	1	BMVZ	500	1	blank2r.bmp	880	3	spielen	880	1	!	1232	1	!	1268	0	0	0	0	0	0
2024-05-28	10:07:05	10:16:34	568342	6.6.1	4_exp_EVA_AWA_CON	53	B	A	Rpleas_acq	Same	Rpleas	1pleas	acq_US_pleas_nomask	acq45_nomask	5	18	400	1	300	300	0	0	426	46	0	0	schlau	lachen	spielen	fair	retten	ehrlich	schroff	leiden	strafen	faul	rächen	eitel	freundlich	helfen	tolerant	treu	schön	loyal	fanatisch	hindern	tyrannisch	tot	schlecht	lasch	1	blank2r.bmp	0	1	+	0	1	blank2r.bmp	500	1	BMVZ	500	1	blank2r.bmp	880	1	schlau	880	1	!	1232	1	!	1327	0	0	0	0	0	0
2024-05-28	10:07:05	10:16:36	570732	6.6.1	4_exp_EVA_AWA_CON	53	B	A	Rpleas_acq	Same	Rpleas	1pleas	acq_US_pleas_nomask	acq45_nomask	5	19	400	0	300	300	0	0	616	50	1	0	schlau	lachen	spielen	fair	retten	ehrlich	schroff	leiden	strafen	faul	rächen	eitel	freundlich	helfen	tolerant	treu	schön	loyal	fanatisch	hindern	tyrannisch	tot	schlecht	lasch	1	blank2r.bmp	0	1	+	0	1	blank2r.bmp	500	1	BMVZ	500	1	blank2r.bmp	880	2	lachen	880	1	!	1232	1	!	-1	0	0	0	0	0	0
2024-05-28	10:07:05	10:16:39	572902	6.6.1	4_exp_EVA_AWA_CON	53	B	A	Rpleas_acq	Same	Rpleas	1pleas	acq_US_pleas_nomask	acq45_nomask	5	20	400	1	300	300	0	0	393	50	1	0	schlau	lachen	spielen	fair	retten	ehrlich	schroff	leiden	strafen	faul	rächen	eitel	freundlich	helfen	tolerant	treu	schön	loyal	fanatisch	hindern	tyrannisch	tot	schlecht	lasch	1	blank2r.bmp	0	1	+	0	1	blank2r.bmp	500	1	BMVZ	500	1	blank2r.bmp	880	5	retten	880	1	!	1232	1	!	1294	0	0	0	0	0	0
2024-05-28	10:07:05	10:16:41	575300	6.6.1	4_exp_EVA_AWA_CON	53	B	A	Rpleas_acq	Same	Rpleas	1pleas	acq_US_pleas_nomask	acq45_nomask	5	21	400	0	300	300	0	0	621	50	1	0	schlau	lachen	spielen	fair	retten	ehrlich	schroff	leiden	strafen	faul	rächen	eitel	freundlich	helfen	tolerant	treu	schön	loyal	fanatisch	hindern	tyrannisch	tot	schlecht	lasch	1	blank2r.bmp	0	1	+	0	1	blank2r.bmp	500	1	BMVZ	500	1	blank2r.bmp	880	4	fair	880	1	!	1232	1	!	-1	0	0	0	0	0	0
2024-05-28	10:07:05	10:16:43	577628	6.6.1	4_exp_EVA_AWA_CON	53	B	A	Rpleas_acq	Same	Rpleas	1pleas	acq_US_unple_nomask	acq45_nomask	5	22	400	0	300	300	0	0	548	46	1	0	schlau	lachen	spielen	fair	retten	ehrlich	schroff	leiden	strafen	faul	rächen	eitel	freundlich	helfen	tolerant	treu	schön	loyal	fanatisch	hindern	tyrannisch	tot	schlecht	lasch	1	blank2r.bmp	0	1	+	0	1	blank2r.bmp	500	1	GKQX	500	1	blank2r.bmp	880	3	strafen	880	1	!	1232	1	!	-1	0	0	0	0	0	0
2024-05-28	10:07:05	10:16:46	579908	6.6.1	4_exp_EVA_AWA_CON	53	B	A	Rpleas_acq	Same	Rpleas	1pleas	acq_US_unple_nomask	acq45_nomask	5	23	400	0	300	300	0	0	506	46	1	0	schlau	lachen	spielen	fair	retten	ehrlich	schroff	leiden	strafen	faul	rächen	eitel	freundlich	helfen	tolerant	treu	schön	loyal	fanatisch	hindern	tyrannisch	tot	schlecht	lasch	1	blank2r.bmp	0	1	+	0	1	blank2r.bmp	500	1	GKQX	500	1	blank2r.bmp	880	4	faul	880	1	!	1232	1	!	-1	0	0	0	0	0	0
2024-05-28	10:07:05	10:16:48	582252	6.6.1	4_exp_EVA_AWA_CON	53	B	A	Rpleas_acq	Same	Rpleas	1pleas	acq_US_pleas_nomask	acq45_nomask	5	24	400	0	300	300	0	0	569	50	1	0	schlau	lachen	spielen	fair	retten	ehrlich	schroff	leiden	strafen	faul	rächen	eitel	freundlich	helfen	tolerant	treu	schön	loyal	fanatisch	hindern	tyrannisch	tot	schlecht	lasch	1	blank2r.bmp	0	1	+	0	1	blank2r.bmp	500	1	BMVZ	500	1	blank2r.bmp	880	6	ehrlich	880	1	!	1232	1	!	-1	0	0	0	0	0	0
2024-05-28	10:07:05	10:16:50	584572	6.6.1	4_exp_EVA_AWA_CON	53	B	A	Rpleas_acq	Same	Rpleas	1pleas	acq_US_unple_nomask	acq45_nomask	5	25	400	0	300	300	0	0	547	46	1	0	schlau	lachen	spielen	fair	retten	ehrlich	schroff	leiden	strafen	faul	rächen	eitel	freundlich	helfen	tolerant	treu	schön	loyal	fanatisch	hindern	tyrannisch	tot	schlecht	lasch	1	blank2r.bmp	0	1	+	0	1	blank2r.bmp	500	1	GKQX	500	1	blank2r.bmp	880	5	rächen	880	1	!	1232	1	!	-1	0	0	0	0	0	0
2024-05-28	10:07:05	10:16:52	586694	6.6.1	4_exp_EVA_AWA_CON	53	B	A	Rpleas_acq	Same	Rpleas	1pleas	acq_US_pleas_nomask	acq45_nomask	5	26	400	1	300	300	0	0	346	46	0	0	schlau	lachen	spielen	fair	retten	ehrlich	schroff	leiden	strafen	faul	rächen	eitel	freundlich	helfen	tolerant	treu	schön	loyal	fanatisch	hindern	tyrannisch	tot	schlecht	lasch	1	blank2r.bmp	0	1	+	0	1	blank2r.bmp	500	1	BMVZ	500	1	blank2r.bmp	880	2	lachen	880	1	!	1232	1	!	1247	0	0	0	0	0	0
2024-05-28	10:07:05	10:16:54	588700	6.6.1	4_exp_EVA_AWA_CON	53	B	A	Rpleas_acq	Same	Rpleas	1pleas	acq_US_pleas_nomask	acq45_nomask	5	27	400	0	300	300	0	0	232	50	1	0	schlau	lachen	spielen	fair	retten	ehrlich	schroff	leiden	strafen	faul	rächen	eitel	freundlich	helfen	tolerant	treu	schön	loyal	fanatisch	hindern	tyrannisch	tot	schlecht	lasch	1	blank2r.bmp	0	1	+	0	1	blank2r.bmp	500	1	BMVZ	500	1	blank2r.bmp	880	4	fair	880	1	!	-1	1	!	-1	0	0	0	0	0	0
2024-05-28	10:07:05	10:16:57	590862	6.6.1	4_exp_EVA_AWA_CON	53	B	A	Rpleas_acq	Same	Rpleas	1pleas	acq_US_unple_nomask	acq45_nomask	5	28	400	1	300	300	0	0	381	50	0	0	schlau	lachen	spielen	fair	retten	ehrlich	schroff	leiden	strafen	faul	rächen	eitel	freundlich	helfen	tolerant	treu	schön	loyal	fanatisch	hindern	tyrannisch	tot	schlecht	lasch	1	blank2r.bmp	0	1	+	0	1	blank2r.bmp	500	1	GKQX	500	1	blank2r.bmp	880	6	eitel	880	1	!	1232	1	!	1282	0	0	0	0	0	0
2024-05-28	10:07:05	10:16:59	593114	6.6.1	4_exp_EVA_AWA_CON	53	B	A	Rpleas_acq	Same	Rpleas	1pleas	acq_US_unple_nomask	acq45_nomask	5	29	400	0	300	300	0	0	476	46	1	0	schlau	lachen	spielen	fair	retten	ehrlich	schroff	leiden	strafen	faul	rächen	eitel	freundlich	helfen	tolerant	treu	schön	loyal	fanatisch	hindern	tyrannisch	tot	schlecht	lasch	1	blank2r.bmp	0	1	+	0	1	blank2r.bmp	500	1	GKQX	500	1	blank2r.bmp	880	1	schroff	880	1	!	1232	1	!	-1	0	0	0	0	0	0
2024-05-28	10:07:05	10:17:01	595380	6.6.1	4_exp_EVA_AWA_CON	53	B	A	Rpleas_acq	Same	Rpleas	1pleas	acq_US_unple_nomask	acq45_nomask	5	30	400	0	300	300	0	0	488	46	1	0	schlau	lachen	spielen	fair	retten	ehrlich	schroff	leiden	strafen	faul	rächen	eitel	freundlich	helfen	tolerant	treu	schön	loyal	fanatisch	hindern	tyrannisch	tot	schlecht	lasch	1	blank2r.bmp	0	1	+	0	1	blank2r.bmp	500	1	GKQX	500	1	blank2r.bmp	880	5	rächen	880	1	!	1232	1	!	-1	0	0	0	0	0	0
2024-05-28	10:07:05	10:17:03	597534	6.6.1	4_exp_EVA_AWA_CON	53	B	A	Rpleas_acq	Same	Rpleas	1pleas	acq_US_pleas_nomask	acq45_nomask	5	31	400	1	300	300	0	0	379	50	1	0	schlau	lachen	spielen	fair	retten	ehrlich	schroff	leiden	strafen	faul	rächen	eitel	freundlich	helfen	tolerant	treu	schön	loyal	fanatisch	hindern	tyrannisch	tot	schlecht	lasch	1	blank2r.bmp	0	1	+	0	1	blank2r.bmp	500	1	BMVZ	500	1	blank2r.bmp	880	1	schlau	880	1	!	1232	1	!	1280	0	0	0	0	0	0
2024-05-28	10:07:05	10:17:05	599742	6.6.1	4_exp_EVA_AWA_CON	53	B	A	Rpleas_acq	Same	Rpleas	1pleas	acq_US_pleas_nomask	acq45_nomask	5	32	400	1	300	300	0	0	425	50	1	0	schlau	lachen	spielen	fair	retten	ehrlich	schroff	leiden	strafen	faul	rächen	eitel	freundlich	helfen	tolerant	treu	schön	loyal	fanatisch	hindern	tyrannisch	tot	schlecht	lasch	1	blank2r.bmp	0	1	+	0	1	blank2r.bmp	500	1	BMVZ	500	1	blank2r.bmp	880	3	spielen	880	1	!	1232	1	!	1327	0	0	0	0	0	0
2024-05-28	10:07:05	10:17:08	602012	6.6.1	4_exp_EVA_AWA_CON	53	B	A	Rpleas_acq	Same	Rpleas	1pleas	acq_US_unple_nomask	acq45_nomask	5	33	400	0	300	300	0	0	496	46	1	0	schlau	lachen	spielen	fair	retten	ehrlich	schroff	leiden	strafen	faul	rächen	eitel	freundlich	helfen	tolerant	treu	schön	loyal	fanatisch	hindern	tyrannisch	tot	schlecht	lasch	1	blank2r.bmp	0	1	+	0	1	blank2r.bmp	500	1	GKQX	500	1	blank2r.bmp	880	2	leiden	880	1	!	1232	1	!	-1	0	0	0	0	0	0
2024-05-28	10:07:05	10:17:10	604230	6.6.1	4_exp_EVA_AWA_CON	53	B	A	Rpleas_acq	Same	Rpleas	1pleas	acq_US_pleas_nomask	acq45_nomask	5	34	400	1	300	300	0	0	441	46	0	0	schlau	lachen	spielen	fair	retten	ehrlich	schroff	leiden	strafen	faul	rächen	eitel	freundlich	helfen	tolerant	treu	schön	loyal	fanatisch	hindern	tyrannisch	tot	schlecht	lasch	1	blank2r.bmp	0	1	+	0	1	blank2r.bmp	500	1	BMVZ	500	1	blank2r.bmp	880	5	retten	880	1	!	1232	1	!	1342	0	0	0	0	0	0
2024-05-28	10:07:05	10:17:12	606470	6.6.1	4_exp_EVA_AWA_CON	53	B	A	Rpleas_acq	Same	Rpleas	1pleas	acq_US_unple_nomask	acq45_nomask	5	35	400	1	300	300	0	0	459	50	0	0	schlau	lachen	spielen	fair	retten	ehrlich	schroff	leiden	strafen	faul	rächen	eitel	freundlich	helfen	tolerant	treu	schön	loyal	fanatisch	hindern	tyrannisch	tot	schlecht	lasch	1	blank2r.bmp	0	1	+	0	1	blank2r.bmp	500	1	GKQX	500	1	blank2r.bmp	880	3	strafen	880	1	!	1232	1	!	1360	0	0	0	0	0	0
2024-05-28	10:07:05	10:17:15	609148	6.6.1	4_exp_EVA_AWA_CON	53	B	A	Rpleas_acq	Same	Rpleas	1pleas	acq_US_unple_nomask	acq45_nomask	5	36	400	0	300	300	0	0	898	46	1	0	schlau	lachen	spielen	fair	retten	ehrlich	schroff	leiden	strafen	faul	rächen	eitel	freundlich	helfen	tolerant	treu	schön	loyal	fanatisch	hindern	tyrannisch	tot	schlecht	lasch	1	blank2r.bmp	0	1	+	0	1	blank2r.bmp	500	1	GKQX	500	1	blank2r.bmp	880	4	faul	880	1	!	1232	1	!	-1	0	0	0	0	0	0
2024-05-28	10:07:05	10:17:53	647112	6.6.1	4_exp_EVA_AWA_CON	53	B	A	Rpleas_acq	Same	Rpleas	1pleas	EvalRating_firsttwo	EvalRating_firsttwo	6	1	0	0	300	300	0	0	6562	line	0	-19,2708333333333285964pct	schlau	lachen	spielen	fair	retten	ehrlich	schroff	leiden	strafen	faul	rächen	eitel	freundlich	helfen	tolerant	treu	schön	loyal	fanatisch	hindern	tyrannisch	tot	schlecht	lasch	1		-8	1	Wie angenehm oder unangenehm finden Sie die  Buchstabenkette ZGVK?	-8	1		-8	1		-8	1		-8	1	Unangenehm	-8	1	Angenehm	-8	0	0	0	0	0	0	0	0	0
2024-05-28	10:07:05	10:17:59	653049	6.6.1	4_exp_EVA_AWA_CON	53	B	A	Rpleas_acq	Same	Rpleas	1pleas	EvalRating_lastfour	EvalRating_lastfour	7	1	0	0	300	300	0	0	3562	line	0	-44,7916666666666642982pct	schlau	lachen	spielen	fair	retten	ehrlich	schroff	leiden	strafen	faul	rächen	eitel	freundlich	helfen	tolerant	treu	schön	loyal	fanatisch	hindern	tyrannisch	tot	schlecht	lasch	1		-7	2	Wie angenehm oder unangenehm finden Sie die  Buchstabenkette GKQX?	-7	1		-7	1		-7	1		-7	1	Unangenehm	-7	1	Angenehm	-7	0	0	0	0	0	0	0	0	0
2024-05-28	10:07:05	10:18:01	655422	6.6.1	4_exp_EVA_AWA_CON	53	B	A	Rpleas_acq	Same	Rpleas	1pleas	blank_screen	EvalRating_lastfour	7	3	0	0	300	300	0	0	0	0	0	-44,7916666666666642982pct	schlau	lachen	spielen	fair	retten	ehrlich	schroff	leiden	strafen	faul	rächen	eitel	freundlich	helfen	tolerant	treu	schön	loyal	fanatisch	hindern	tyrannisch	tot	schlecht	lasch	1		-8	0	0	0	0	0	0	0	0	0	0	0	0	0	0	0	0	0	0	0	0	0	0	0	0	0	0	0
2024-05-28	10:07:05	10:18:05	659328	6.6.1	4_exp_EVA_AWA_CON	53	B	A	Rpleas_acq	Same	Rpleas	1pleas	EvalRating_lastfour	EvalRating_lastfour	7	4	0	0	300	300	0	0	3318	line	0	-16,6666666666666571928pct	schlau	lachen	spielen	fair	retten	ehrlich	schroff	leiden	strafen	faul	rächen	eitel	freundlich	helfen	tolerant	treu	schön	loyal	fanatisch	hindern	tyrannisch	tot	schlecht	lasch	1		-7	3	Wie angenehm oder unangenehm finden Sie die  Buchstabenkette XBQM?	-7	1		-7	1		-7	1		-7	1	Unangenehm	-7	1	Angenehm	-7	0	0	0	0	0	0	0	0	0
2024-05-28	10:07:05	10:18:07	661697	6.6.1	4_exp_EVA_AWA_CON	53	B	A	Rpleas_acq	Same	Rpleas	1pleas	blank_screen	EvalRating_lastfour	7	6	0	0	300	300	0	0	0	0	0	-16,6666666666666571928pct	schlau	lachen	spielen	fair	retten	ehrlich	schroff	leiden	strafen	faul	rächen	eitel	freundlich	helfen	tolerant	treu	schön	loyal	fanatisch	hindern	tyrannisch	tot	schlecht	lasch	1		-8	0	0	0	0	0	0	0	0	0	0	0	0	0	0	0	0	0	0	0	0	0	0	0	0	0	0	0
2024-05-28	10:07:05	10:18:10	664560	6.6.1	4_exp_EVA_AWA_CON	53	B	A	Rpleas_acq	Same	Rpleas	1pleas	EvalRating_lastfour	EvalRating_lastfour	7	7	0	0	300	300	0	0	2276	line	0	30,46875pct	schlau	lachen	spielen	fair	retten	ehrlich	schroff	leiden	strafen	faul	rächen	eitel	freundlich	helfen	tolerant	treu	schön	loyal	fanatisch	hindern	tyrannisch	tot	schlecht	lasch	1		-7	1	Wie angenehm oder unangenehm finden Sie die  Buchstabenkette BMVZ?	-7	1		-7	1		-7	1		-7	1	Unangenehm	-7	1	Angenehm	-7	0	0	0	0	0	0	0	0	0
2024-05-28	10:07:05	10:18:52	706293	6.6.1	4_exp_EVA_AWA_CON	53	B	A	Rpleas_acq	Same	Rpleas	1pleas	conawa_CS2_US4	conawa1_nomask	8	1	0	0	300	300	0	0	12396	faul	1	30,46875pct	schlau	lachen	spielen	fair	retten	ehrlich	schroff	leiden	strafen	faul	rächen	eitel	freundlich	helfen	tolerant	treu	schön	loyal	fanatisch	hindern	tyrannisch	tot	schlecht	lasch	0	0	0	0	0	0	0	0	0	0	0	0	0	0	0	0	0	0	0	0	0	0	0	0	0	0	0	0	0	0
2024-05-28	10:07:05	10:18:52	706295	6.6.1	4_exp_EVA_AWA_CON	53	B	A	Rpleas_acq	Same	Rpleas	1pleas	conawa_CS2_US4_confidence	conawa1_nomask	8	1	0	0	300	300	0	0	12396	guess	1	30,46875pct	schlau	lachen	spielen	fair	retten	ehrlich	schroff	leiden	strafen	faul	rächen	eitel	freundlich	helfen	tolerant	treu	schön	loyal	fanatisch	hindern	tyrannisch	tot	schlecht	lasch	0	0	0	0	0	0	0	0	0	0	0	0	0	0	0	0	0	0	0	0	0	0	0	0	0	0	0	0	0	0
2024-05-28	10:07:05	10:19:01	715439	6.6.1	4_exp_EVA_AWA_CON	53	B	A	Rpleas_acq	Same	Rpleas	1pleas	conawa_CS2_US6	conawa1_nomask	8	2	0	0	300	300	0	0	8533	fanatisch	1	30,46875pct	schlau	lachen	spielen	fair	retten	ehrlich	schroff	leiden	strafen	faul	rächen	eitel	freundlich	helfen	tolerant	treu	schön	loyal	fanatisch	hindern	tyrannisch	tot	schlecht	lasch	0	0	0	0	0	0	0	0	0	0	0	0	0	0	0	0	0	0	0	0	0	0	0	0	0	0	0	0	0	0
2024-05-28	10:07:05	10:19:01	715440	6.6.1	4_exp_EVA_AWA_CON	53	B	A	Rpleas_acq	Same	Rpleas	1pleas	conawa_CS2_US6_confidence	conawa1_nomask	8	2	0	0	300	300	0	0	8533	guess	1	30,46875pct	schlau	lachen	spielen	fair	retten	ehrlich	schroff	leiden	strafen	faul	rächen	eitel	freundlich	helfen	tolerant	treu	schön	loyal	fanatisch	hindern	tyrannisch	tot	schlecht	lasch	0	0	0	0	0	0	0	0	0	0	0	0	0	0	0	0	0	0	0	0	0	0	0	0	0	0	0	0	0	0
2024-05-28	10:07:05	10:19:10	724595	6.6.1	4_exp_EVA_AWA_CON	53	B	A	Rpleas_acq	Same	Rpleas	1pleas	conawa_CS2_US1	conawa1_nomask	8	3	0	0	300	300	0	0	8539	schlau	1	30,46875pct	schlau	lachen	spielen	fair	retten	ehrlich	schroff	leiden	strafen	faul	rächen	eitel	freundlich	helfen	tolerant	treu	schön	loyal	fanatisch	hindern	tyrannisch	tot	schlecht	lasch	0	0	0	0	0	0	0	0	0	0	0	0	0	0	0	0	0	0	0	0	0	0	0	0	0	0	0	0	0	0
2024-05-28	10:07:05	10:19:10	724597	6.6.1	4_exp_EVA_AWA_CON	53	B	A	Rpleas_acq	Same	Rpleas	1pleas	conawa_CS2_US1_confidence	conawa1_nomask	8	3	0	0	300	300	0	0	8539	guess	1	30,46875pct	schlau	lachen	spielen	fair	retten	ehrlich	schroff	leiden	strafen	faul	rächen	eitel	freundlich	helfen	tolerant	treu	schön	loyal	fanatisch	hindern	tyrannisch	tot	schlecht	lasch	0	0	0	0	0	0	0	0	0	0	0	0	0	0	0	0	0	0	0	0	0	0	0	0	0	0	0	0	0	0
2024-05-28	10:07:05	10:19:15	729768	6.6.1	4_exp_EVA_AWA_CON	53	B	A	Rpleas_acq	Same	Rpleas	1pleas	conawa_CS1_US3	conawa1_nomask	8	4	0	0	300	300	0	0	4557	spielen	1	30,46875pct	schlau	lachen	spielen	fair	retten	ehrlich	schroff	leiden	strafen	faul	rächen	eitel	freundlich	helfen	tolerant	treu	schön	loyal	fanatisch	hindern	tyrannisch	tot	schlecht	lasch	0	0	0	0	0	0	0	0	0	0	0	0	0	0	0	0	0	0	0	0	0	0	0	0	0	0	0	0	0	0
2024-05-28	10:07:05	10:19:15	729770	6.6.1	4_exp_EVA_AWA_CON	53	B	A	Rpleas_acq	Same	Rpleas	1pleas	conawa_CS1_US3_confidence	conawa1_nomask	8	4	0	0	300	300	0	0	4557	guess	1	30,46875pct	schlau	lachen	spielen	fair	retten	ehrlich	schroff	leiden	strafen	faul	rächen	eitel	freundlich	helfen	tolerant	treu	schön	loyal	fanatisch	hindern	tyrannisch	tot	schlecht	lasch	0	0	0	0	0	0	0	0	0	0	0	0	0	0	0	0	0	0	0	0	0	0	0	0	0	0	0	0	0	0
2024-05-28	10:07:05	10:19:21	735702	6.6.1	4_exp_EVA_AWA_CON	53	B	A	Rpleas_acq	Same	Rpleas	1pleas	conawa_CS1_US6	conawa1_nomask	8	5	0	0	300	300	0	0	5323	loyal	1	30,46875pct	schlau	lachen	spielen	fair	retten	ehrlich	schroff	leiden	strafen	faul	rächen	eitel	freundlich	helfen	tolerant	treu	schön	loyal	fanatisch	hindern	tyrannisch	tot	schlecht	lasch	0	0	0	0	0	0	0	0	0	0	0	0	0	0	0	0	0	0	0	0	0	0	0	0	0	0	0	0	0	0
2024-05-28	10:07:05	10:19:21	735703	6.6.1	4_exp_EVA_AWA_CON	53	B	A	Rpleas_acq	Same	Rpleas	1pleas	conawa_CS1_US6_confidence	conawa1_nomask	8	5	0	0	300	300	0	0	5323	guess	1	30,46875pct	schlau	lachen	spielen	fair	retten	ehrlich	schroff	leiden	strafen	faul	rächen	eitel	freundlich	helfen	tolerant	treu	schön	loyal	fanatisch	hindern	tyrannisch	tot	schlecht	lasch	0	0	0	0	0	0	0	0	0	0	0	0	0	0	0	0	0	0	0	0	0	0	0	0	0	0	0	0	0	0
2024-05-28	10:07:05	10:19:25	739734	6.6.1	4_exp_EVA_AWA_CON	53	B	A	Rpleas_acq	Same	Rpleas	1pleas	conawa_CS2_US3	conawa1_nomask	8	6	0	0	300	300	0	0	3421	tot	1	30,46875pct	schlau	lachen	spielen	fair	retten	ehrlich	schroff	leiden	strafen	faul	rächen	eitel	freundlich	helfen	tolerant	treu	schön	loyal	fanatisch	hindern	tyrannisch	tot	schlecht	lasch	0	0	0	0	0	0	0	0	0	0	0	0	0	0	0	0	0	0	0	0	0	0	0	0	0	0	0	0	0	0
2024-05-28	10:07:05	10:19:25	739736	6.6.1	4_exp_EVA_AWA_CON	53	B	A	Rpleas_acq	Same	Rpleas	1pleas	conawa_CS2_US3_confidence	conawa1_nomask	8	6	0	0	300	300	0	0	3421	guess	1	30,46875pct	schlau	lachen	spielen	fair	retten	ehrlich	schroff	leiden	strafen	faul	rächen	eitel	freundlich	helfen	tolerant	treu	schön	loyal	fanatisch	hindern	tyrannisch	tot	schlecht	lasch	0	0	0	0	0	0	0	0	0	0	0	0	0	0	0	0	0	0	0	0	0	0	0	0	0	0	0	0	0	0
2024-05-28	10:07:05	10:19:30	744168	6.6.1	4_exp_EVA_AWA_CON	53	B	A	Rpleas_acq	Same	Rpleas	1pleas	conawa_CS1_US5	conawa1_nomask	8	7	0	0	300	300	0	0	3819	schön	1	30,46875pct	schlau	lachen	spielen	fair	retten	ehrlich	schroff	leiden	strafen	faul	rächen	eitel	freundlich	helfen	tolerant	treu	schön	loyal	fanatisch	hindern	tyrannisch	tot	schlecht	lasch	0	0	0	0	0	0	0	0	0	0	0	0	0	0	0	0	0	0	0	0	0	0	0	0	0	0	0	0	0	0
2024-05-28	10:07:05	10:19:30	744169	6.6.1	4_exp_EVA_AWA_CON	53	B	A	Rpleas_acq	Same	Rpleas	1pleas	conawa_CS1_US5_confidence	conawa1_nomask	8	7	0	0	300	300	0	0	3819	guess	1	30,46875pct	schlau	lachen	spielen	fair	retten	ehrlich	schroff	leiden	strafen	faul	rächen	eitel	freundlich	helfen	tolerant	treu	schön	loyal	fanatisch	hindern	tyrannisch	tot	schlecht	lasch	0	0	0	0	0	0	0	0	0	0	0	0	0	0	0	0	0	0	0	0	0	0	0	0	0	0	0	0	0	0
2024-05-28	10:07:05	10:19:35	748940	6.6.1	4_exp_EVA_AWA_CON	53	B	A	Rpleas_acq	Same	Rpleas	1pleas	conawa_CS2_US2	conawa1_nomask	8	8	0	0	300	300	0	0	4155	leiden	1	30,46875pct	schlau	lachen	spielen	fair	retten	ehrlich	schroff	leiden	strafen	faul	rächen	eitel	freundlich	helfen	tolerant	treu	schön	loyal	fanatisch	hindern	tyrannisch	tot	schlecht	lasch	0	0	0	0	0	0	0	0	0	0	0	0	0	0	0	0	0	0	0	0	0	0	0	0	0	0	0	0	0	0
2024-05-28	10:07:05	10:19:35	748942	6.6.1	4_exp_EVA_AWA_CON	53	B	A	Rpleas_acq	Same	Rpleas	1pleas	conawa_CS2_US2_confidence	conawa1_nomask	8	8	0	0	300	300	0	0	4155	guess	1	30,46875pct	schlau	lachen	spielen	fair	retten	ehrlich	schroff	leiden	strafen	faul	rächen	eitel	freundlich	helfen	tolerant	treu	schön	loyal	fanatisch	hindern	tyrannisch	tot	schlecht	lasch	0	0	0	0	0	0	0	0	0	0	0	0	0	0	0	0	0	0	0	0	0	0	0	0	0	0	0	0	0	0
2024-05-28	10:07:05	10:19:39	753633	6.6.1	4_exp_EVA_AWA_CON	53	B	A	Rpleas_acq	Same	Rpleas	1pleas	conawa_CS1_US4	conawa1_nomask	8	9	0	0	300	300	0	0	4078	treu	1	30,46875pct	schlau	lachen	spielen	fair	retten	ehrlich	schroff	leiden	strafen	faul	rächen	eitel	freundlich	helfen	tolerant	treu	schön	loyal	fanatisch	hindern	tyrannisch	tot	schlecht	lasch	0	0	0	0	0	0	0	0	0	0	0	0	0	0	0	0	0	0	0	0	0	0	0	0	0	0	0	0	0	0
2024-05-28	10:07:05	10:19:39	753636	6.6.1	4_exp_EVA_AWA_CON	53	B	A	Rpleas_acq	Same	Rpleas	1pleas	conawa_CS1_US4_confidence	conawa1_nomask	8	9	0	0	300	300	0	0	4078	guess	1	30,46875pct	schlau	lachen	spielen	fair	retten	ehrlich	schroff	leiden	strafen	faul	rächen	eitel	freundlich	helfen	tolerant	treu	schön	loyal	fanatisch	hindern	tyrannisch	tot	schlecht	lasch	0	0	0	0	0	0	0	0	0	0	0	0	0	0	0	0	0	0	0	0	0	0	0	0	0	0	0	0	0	0
2024-05-28	10:07:05	10:19:44	758737	6.6.1	4_exp_EVA_AWA_CON	53	B	A	Rpleas_acq	Same	Rpleas	1pleas	conawa_CS1_US2	conawa1_nomask	8	10	0	0	300	300	0	0	4490	lachen	1	30,46875pct	schlau	lachen	spielen	fair	retten	ehrlich	schroff	leiden	strafen	faul	rächen	eitel	freundlich	helfen	tolerant	treu	schön	loyal	fanatisch	hindern	tyrannisch	tot	schlecht	lasch	0	0	0	0	0	0	0	0	0	0	0	0	0	0	0	0	0	0	0	0	0	0	0	0	0	0	0	0	0	0
2024-05-28	10:07:05	10:19:44	758739	6.6.1	4_exp_EVA_AWA_CON	53	B	A	Rpleas_acq	Same	Rpleas	1pleas	conawa_CS1_US2_confidence	conawa1_nomask	8	10	0	0	300	300	0	0	4490	guess	1	30,46875pct	schlau	lachen	spielen	fair	retten	ehrlich	schroff	leiden	strafen	faul	rächen	eitel	freundlich	helfen	tolerant	treu	schön	loyal	fanatisch	hindern	tyrannisch	tot	schlecht	lasch	0	0	0	0	0	0	0	0	0	0	0	0	0	0	0	0	0	0	0	0	0	0	0	0	0	0	0	0	0	0
2024-05-28	10:07:05	10:19:49	763310	6.6.1	4_exp_EVA_AWA_CON	53	B	A	Rpleas_acq	Same	Rpleas	1pleas	conawa_CS1_US1	conawa1_nomask	8	11	0	0	300	300	0	0	3954	freundlich	1	30,46875pct	schlau	lachen	spielen	fair	retten	ehrlich	schroff	leiden	strafen	faul	rächen	eitel	freundlich	helfen	tolerant	treu	schön	loyal	fanatisch	hindern	tyrannisch	tot	schlecht	lasch	0	0	0	0	0	0	0	0	0	0	0	0	0	0	0	0	0	0	0	0	0	0	0	0	0	0	0	0	0	0
2024-05-28	10:07:05	10:19:49	763311	6.6.1	4_exp_EVA_AWA_CON	53	B	A	Rpleas_acq	Same	Rpleas	1pleas	conawa_CS1_US1_confidence	conawa1_nomask	8	11	0	0	300	300	0	0	3954	guess	1	30,46875pct	schlau	lachen	spielen	fair	retten	ehrlich	schroff	leiden	strafen	faul	rächen	eitel	freundlich	helfen	tolerant	treu	schön	loyal	fanatisch	hindern	tyrannisch	tot	schlecht	lasch	0	0	0	0	0	0	0	0	0	0	0	0	0	0	0	0	0	0	0	0	0	0	0	0	0	0	0	0	0	0
2024-05-28	10:07:05	10:19:53	767032	6.6.1	4_exp_EVA_AWA_CON	53	B	A	Rpleas_acq	Same	Rpleas	1pleas	conawa_CS2_US5	conawa1_nomask	8	12	0	0	300	300	0	0	3109	rächen	1	30,46875pct	schlau	lachen	spielen	fair	retten	ehrlich	schroff	leiden	strafen	faul	rächen	eitel	freundlich	helfen	tolerant	treu	schön	loyal	fanatisch	hindern	tyrannisch	tot	schlecht	lasch	0	0	0	0	0	0	0	0	0	0	0	0	0	0	0	0	0	0	0	0	0	0	0	0	0	0	0	0	0	0
2024-05-28	10:07:05	10:19:53	767034	6.6.1	4_exp_EVA_AWA_CON	53	B	A	Rpleas_acq	Same	Rpleas	1pleas	conawa_CS2_US5_confidence	conawa1_nomask	8	12	0	0	300	300	0	0	3109	guess	1	30,46875pct	schlau	lachen	spielen	fair	retten	ehrlich	schroff	leiden	strafen	faul	rächen	eitel	freundlich	helfen	tolerant	treu	schön	loyal	fanatisch	hindern	tyrannisch	tot	schlecht	lasch	0	0	0	0	0	0	0	0	0	0	0	0	0	0	0	0	0	0	0	0	0	0	0	0	0	0	0	0	0	0
2024-05-28	10:07:05	10:20:54	828502	6.6.1	4_exp_EVA_AWA_CON	53	B	A	Rpleas_acq	Same	Rpleas	1pleas	cond_US_unple_123_nomask_CS2	condtest_nomask_1	11	1	400	1	300	300	0	0	449	46	1	30,46875pct	schlau	lachen	spielen	fair	retten	ehrlich	schroff	leiden	strafen	faul	rächen	eitel	freundlich	helfen	tolerant	treu	schön	loyal	fanatisch	hindern	tyrannisch	tot	schlecht	lasch	1	blank2r.bmp	0	1	+	0	1	blank2r.bmp	500	1	GKQX	500	1	blank2r.bmp	880	3	leiden	880	1	!	1232	1	!	1350	0	0	0	0	0	0
2024-05-28	10:07:05	10:20:56	830804	6.6.1	4_exp_EVA_AWA_CON	53	B	A	Rpleas_acq	Same	Rpleas	1pleas	cond_US_pleas_123_nomask_CS2	condtest_nomask_1	11	2	400	0	300	300	0	0	521	50	1	30,46875pct	schlau	lachen	spielen	fair	retten	ehrlich	schroff	leiden	strafen	faul	rächen	eitel	freundlich	helfen	tolerant	treu	schön	loyal	fanatisch	hindern	tyrannisch	tot	schlecht	lasch	1	blank2r.bmp	0	1	+	0	1	blank2r.bmp	500	1	GKQX	500	1	blank2r.bmp	880	3	lachen	880	1	!	1232	1	!	-1	0	0	0	0	0	0
2024-05-28	10:07:05	10:20:59	833037	6.6.1	4_exp_EVA_AWA_CON	53	B	A	Rpleas_acq	Same	Rpleas	1pleas	cond_US_pleas_123_nomask_CS1	condtest_nomask_1	11	3	400	1	300	300	0	0	452	46	0	30,46875pct	schlau	lachen	spielen	fair	retten	ehrlich	schroff	leiden	strafen	faul	rächen	eitel	freundlich	helfen	tolerant	treu	schön	loyal	fanatisch	hindern	tyrannisch	tot	schlecht	lasch	1	blank2r.bmp	0	1	+	0	1	blank2r.bmp	500	1	BMVZ	500	1	blank2r.bmp	880	1	schlau	880	1	!	1232	1	!	1353	0	0	0	0	0	0
2024-05-28	10:07:05	10:21:01	835380	6.6.1	4_exp_EVA_AWA_CON	53	B	A	Rpleas_acq	Same	Rpleas	1pleas	cond_new_unple_456_nomask_CS2	condtest_nomask_1	11	4	400	0	300	300	0	0	564	46	1	30,46875pct	schlau	lachen	spielen	fair	retten	ehrlich	schroff	leiden	strafen	faul	rächen	eitel	freundlich	helfen	tolerant	treu	schön	loyal	fanatisch	hindern	tyrannisch	tot	schlecht	lasch	1	blank2r.bmp	0	1	+	0	1	blank2r.bmp	500	1	GKQX	500	1	blank2r.bmp	880	1	lasch	880	1	!	1233	1	!	-1	0	0	0	0	0	0
2024-05-28	10:07:05	10:21:03	837613	6.6.1	4_exp_EVA_AWA_CON	53	B	A	Rpleas_acq	Same	Rpleas	1pleas	cond_new_pleas_456_nomask_CS2	condtest_nomask_1	11	5	400	1	300	300	0	0	455	50	1	30,46875pct	schlau	lachen	spielen	fair	retten	ehrlich	schroff	leiden	strafen	faul	rächen	eitel	freundlich	helfen	tolerant	treu	schön	loyal	fanatisch	hindern	tyrannisch	tot	schlecht	lasch	1	blank2r.bmp	0	1	+	0	1	blank2r.bmp	500	1	GKQX	500	1	blank2r.bmp	880	3	schön	880	1	!	1232	1	!	1356	0	0	0	0	0	0
2024-05-28	10:07:05	10:21:06	839876	6.6.1	4_exp_EVA_AWA_CON	53	B	A	Rpleas_acq	Same	Rpleas	1pleas	cond_new_pleas_456_nomask_CS1	condtest_nomask_1	11	6	400	0	300	300	0	0	487	50	1	30,46875pct	schlau	lachen	spielen	fair	retten	ehrlich	schroff	leiden	strafen	faul	rächen	eitel	freundlich	helfen	tolerant	treu	schön	loyal	fanatisch	hindern	tyrannisch	tot	schlecht	lasch	1	blank2r.bmp	0	1	+	0	1	blank2r.bmp	500	1	BMVZ	500	1	blank2r.bmp	880	3	loyal	880	1	!	1232	1	!	-1	0	0	0	0	0	0
2024-05-28	10:07:05	10:21:08	842093	6.6.1	4_exp_EVA_AWA_CON	53	B	A	Rpleas_acq	Same	Rpleas	1pleas	cond_new_unple_456_nomask_CS1	condtest_nomask_1	11	7	400	1	300	300	0	0	442	46	1	30,46875pct	schlau	lachen	spielen	fair	retten	ehrlich	schroff	leiden	strafen	faul	rächen	eitel	freundlich	helfen	tolerant	treu	schön	loyal	fanatisch	hindern	tyrannisch	tot	schlecht	lasch	1	blank2r.bmp	0	1	+	0	1	blank2r.bmp	500	1	BMVZ	500	1	blank2r.bmp	880	2	schlecht	880	1	!	1232	1	!	1343	0	0	0	0	0	0
2024-05-28	10:07:05	10:21:10	844309	6.6.1	4_exp_EVA_AWA_CON	53	B	A	Rpleas_acq	Same	Rpleas	1pleas	cond_US_unple_123_nomask_CS1	condtest_nomask_1	11	8	400	1	300	300	0	0	436	46	1	30,46875pct	schlau	lachen	spielen	fair	retten	ehrlich	schroff	leiden	strafen	faul	rächen	eitel	freundlich	helfen	tolerant	treu	schön	loyal	fanatisch	hindern	tyrannisch	tot	schlecht	lasch	1	blank2r.bmp	0	1	+	0	1	blank2r.bmp	500	1	BMVZ	500	1	blank2r.bmp	880	2	leiden	880	1	!	1232	1	!	1337	0	0	0	0	0	0
2024-05-28	10:07:05	10:21:21	855188	6.6.1	4_exp_EVA_AWA_CON	53	B	A	Rpleas_acq	Same	Rpleas	1pleas	cond_US_pleas_123_nomask_CS1	condtest_nomask_2	12	1	400	0	300	300	0	0	540	50	1	30,46875pct	schlau	lachen	spielen	fair	retten	ehrlich	schroff	leiden	strafen	faul	rächen	eitel	freundlich	helfen	tolerant	treu	schön	loyal	fanatisch	hindern	tyrannisch	tot	schlecht	lasch	1	blank2r.bmp	0	1	+	0	1	blank2r.bmp	500	1	BMVZ	500	1	blank2r.bmp	880	2	lachen	880	1	!	1232	1	!	-1	0	0	0	0	0	0
2024-05-28	10:07:05	10:21:23	857414	6.6.1	4_exp_EVA_AWA_CON	53	B	A	Rpleas_acq	Same	Rpleas	1pleas	cond_US_unple_123_nomask_CS1	condtest_nomask_2	12	2	400	1	300	300	0	0	452	46	1	30,46875pct	schlau	lachen	spielen	fair	retten	ehrlich	schroff	leiden	strafen	faul	rächen	eitel	freundlich	helfen	tolerant	treu	schön	loyal	fanatisch	hindern	tyrannisch	tot	schlecht	lasch	1	blank2r.bmp	0	1	+	0	1	blank2r.bmp	500	1	BMVZ	500	1	blank2r.bmp	880	1	schroff	880	1	!	1232	1	!	1353	0	0	0	0	0	0
