date	time	currenttime	elapsedtime	build	currentexpt	subject	CS_AB	US_AB	LRpleas_acq	SameOppo	condition_Lpleas	condition_1pleas	trialcode	blockcode	blocknum	trialnum	windowcenter	inwindow	pretrialpause	posttrialpause	trialduration	trialtimeout	latency	response	correct	correctedscore	US_nomask_pleas1	US_nomask_pleas2	US_nomask_pleas3	US_nomask_pleas4	US_nomask_pleas5	US_nomask_pleas6	US_nomask_unple1	US_nomask_unple2	US_nomask_unple3	US_nomask_unple4	US_nomask_unple5	US_nomask_unple6	new_nomask_pleas1	new_nomask_pleas2	new_nomask_pleas3	new_nomask_pleas4	new_nomask_pleas5	new_nomask_pleas6	new_nomask_unple1	new_nomask_unple2	new_nomask_unple3	new_nomask_unple4	new_nomask_unple5	new_nomask_unple6	stimulusnumber1	stimulusitem1	stimulusonset1	stimulusnumber2	stimulusitem2	stimulusonset2	stimulusnumber3	stimulusitem3	stimulusonset3	stimulusnumber4	stimulusitem4	stimulusonset4	stimulusnumber5	stimulusitem5	stimulusonset5	stimulusnumber6	stimulusitem6	stimulusonset6	stimulusnumber7	stimulusitem7	stimulusonset7	stimulusnumber8	stimulusitem8	stimulusonset8	stimulusnumber9	stimulusitem9	stimulusonset9	stimulusnumber10	stimulusitem10	stimulusonset10
2024-06-11	09:19:38	09:20:37	57774	6.6.1	4_exp_EVA_AWA_CON	78	B	A	Rpleas_acq	Oppo	Rpleas	1pleas	acq_US_pleas_nomask	acq1_nomask	1	1	0	0	300	300	0	0	974	46	0	0	fair	schön	tolerant	schlau	helfen	freundlich	faul	schlecht	tyrannisch	schroff	hindern	fanatisch	loyal	treu	lachen	spielen	ehrlich	retten	lasch	tot	leiden	strafen	eitel	rächen	1	blank2r.bmp	0	1	+	0	1	blank2r.bmp	500	1	BMVZ	500	1	blank2r.bmp	880	6	freundlich	880	1	FEHLER	1875	0	0	0	0	0	0	0	0	0
2024-06-11	09:19:38	09:20:39	59845	6.6.1	4_exp_EVA_AWA_CON	78	B	A	Rpleas_acq	Oppo	Rpleas	1pleas	acq_US_unple_nomask	acq1_nomask	1	2	0	0	300	300	0	0	784	46	1	0	fair	schön	tolerant	schlau	helfen	freundlich	faul	schlecht	tyrannisch	schroff	hindern	fanatisch	loyal	treu	lachen	spielen	ehrlich	retten	lasch	tot	leiden	strafen	eitel	rächen	1	blank2r.bmp	0	1	+	0	1	blank2r.bmp	500	1	GKQX	500	1	blank2r.bmp	880	1	faul	880	0	0	0	0	0	0	0	0	0	0	0	0
2024-06-11	09:19:38	09:20:41	62325	6.6.1	4_exp_EVA_AWA_CON	78	B	A	Rpleas_acq	Oppo	Rpleas	1pleas	acq_new_unple_nomask	acq1_nomask	1	3	0	0	300	300	0	0	993	46	1	0	fair	schön	tolerant	schlau	helfen	freundlich	faul	schlecht	tyrannisch	schroff	hindern	fanatisch	loyal	treu	lachen	spielen	ehrlich	retten	lasch	tot	leiden	strafen	eitel	rächen	1	blank2r.bmp	0	1	+	0	1	blank2r.bmp	500	7	C3r.bmp	500	1	blank2r.bmp	880	5	eitel	880	0	0	0	0	0	0	0	0	0	0	0	0
2024-06-11	09:19:38	09:20:43	64413	6.6.1	4_exp_EVA_AWA_CON	78	B	A	Rpleas_acq	Oppo	Rpleas	1pleas	acq_new_pleas_nomask	acq1_nomask	1	4	0	0	300	300	0	0	599	50	1	0	fair	schön	tolerant	schlau	helfen	freundlich	faul	schlecht	tyrannisch	schroff	hindern	fanatisch	loyal	treu	lachen	spielen	ehrlich	retten	lasch	tot	leiden	strafen	eitel	rächen	1	blank2r.bmp	0	1	+	0	1	blank2r.bmp	500	8	C4r.bmp	500	1	blank2r.bmp	880	3	lachen	880	0	0	0	0	0	0	0	0	0	0	0	0
2024-06-11	09:19:38	09:20:45	66477	6.6.1	4_exp_EVA_AWA_CON	78	B	A	Rpleas_acq	Oppo	Rpleas	1pleas	acq_US_unple_nomask	acq1_nomask	1	5	0	0	300	300	0	0	582	46	1	0	fair	schön	tolerant	schlau	helfen	freundlich	faul	schlecht	tyrannisch	schroff	hindern	fanatisch	loyal	treu	lachen	spielen	ehrlich	retten	lasch	tot	leiden	strafen	eitel	rächen	1	blank2r.bmp	0	1	+	0	1	blank2r.bmp	500	1	GKQX	500	1	blank2r.bmp	880	3	tyrannisch	880	0	0	0	0	0	0	0	0	0	0	0	0
2024-06-11	09:19:38	09:20:48	68949	6.6.1	4_exp_EVA_AWA_CON	78	B	A	Rpleas_acq	Oppo	Rpleas	1pleas	acq_US_unple_nomask	acq1_nomask	1	6	0	0	300	300	0	0	983	46	1	0	fair	schön	tolerant	schlau	helfen	freundlich	faul	schlecht	tyrannisch	schroff	hindern	fanatisch	loyal	treu	lachen	spielen	ehrlich	retten	lasch	tot	leiden	strafen	eitel	rächen	1	blank2r.bmp	0	1	+	0	1	blank2r.bmp	500	1	GKQX	500	1	blank2r.bmp	880	6	fanatisch	880	0	0	0	0	0	0	0	0	0	0	0	0
2024-06-11	09:19:38	09:20:50	70981	6.6.1	4_exp_EVA_AWA_CON	78	B	A	Rpleas_acq	Oppo	Rpleas	1pleas	acq_US_pleas_nomask	acq1_nomask	1	7	0	0	300	300	0	0	543	50	1	0	fair	schön	tolerant	schlau	helfen	freundlich	faul	schlecht	tyrannisch	schroff	hindern	fanatisch	loyal	treu	lachen	spielen	ehrlich	retten	lasch	tot	leiden	strafen	eitel	rächen	1	blank2r.bmp	0	1	+	0	1	blank2r.bmp	500	1	BMVZ	500	1	blank2r.bmp	880	2	schön	880	0	0	0	0	0	0	0	0	0	0	0	0
2024-06-11	09:19:38	09:20:52	73349	6.6.1	4_exp_EVA_AWA_CON	78	B	A	Rpleas_acq	Oppo	Rpleas	1pleas	acq_new_pleas_nomask	acq1_nomask	1	8	0	0	300	300	0	0	880	50	1	0	fair	schön	tolerant	schlau	helfen	freundlich	faul	schlecht	tyrannisch	schroff	hindern	fanatisch	loyal	treu	lachen	spielen	ehrlich	retten	lasch	tot	leiden	strafen	eitel	rächen	1	blank2r.bmp	0	1	+	0	1	blank2r.bmp	500	3	B3r.bmp	500	1	blank2r.bmp	880	6	retten	880	0	0	0	0	0	0	0	0	0	0	0	0
2024-06-11	09:19:38	09:20:54	75517	6.6.1	4_exp_EVA_AWA_CON	78	B	A	Rpleas_acq	Oppo	Rpleas	1pleas	acq_US_pleas_nomask	acq1_nomask	1	9	0	0	300	300	0	0	686	50	1	0	fair	schön	tolerant	schlau	helfen	freundlich	faul	schlecht	tyrannisch	schroff	hindern	fanatisch	loyal	treu	lachen	spielen	ehrlich	retten	lasch	tot	leiden	strafen	eitel	rächen	1	blank2r.bmp	0	1	+	0	1	blank2r.bmp	500	1	BMVZ	500	1	blank2r.bmp	880	3	tolerant	880	0	0	0	0	0	0	0	0	0	0	0	0
2024-06-11	09:19:38	09:20:56	77605	6.6.1	4_exp_EVA_AWA_CON	78	B	A	Rpleas_acq	Oppo	Rpleas	1pleas	acq_new_pleas_nomask	acq1_nomask	1	10	0	0	300	300	0	0	603	50	1	0	fair	schön	tolerant	schlau	helfen	freundlich	faul	schlecht	tyrannisch	schroff	hindern	fanatisch	loyal	treu	lachen	spielen	ehrlich	retten	lasch	tot	leiden	strafen	eitel	rächen	1	blank2r.bmp	0	1	+	0	1	blank2r.bmp	500	2	B2r.bmp	500	1	blank2r.bmp	880	2	treu	880	0	0	0	0	0	0	0	0	0	0	0	0
2024-06-11	09:19:38	09:20:58	79637	6.6.1	4_exp_EVA_AWA_CON	78	B	A	Rpleas_acq	Oppo	Rpleas	1pleas	acq_new_unple_nomask	acq1_nomask	1	11	0	0	300	300	0	0	543	46	1	0	fair	schön	tolerant	schlau	helfen	freundlich	faul	schlecht	tyrannisch	schroff	hindern	fanatisch	loyal	treu	lachen	spielen	ehrlich	retten	lasch	tot	leiden	strafen	eitel	rächen	1	blank2r.bmp	0	1	+	0	1	blank2r.bmp	500	6	C2r.bmp	500	1	blank2r.bmp	880	4	strafen	880	0	0	0	0	0	0	0	0	0	0	0	0
2024-06-11	09:19:38	09:21:00	81693	6.6.1	4_exp_EVA_AWA_CON	78	B	A	Rpleas_acq	Oppo	Rpleas	1pleas	acq_new_unple_nomask	acq1_nomask	1	12	0	0	300	300	0	0	568	46	1	0	fair	schön	tolerant	schlau	helfen	freundlich	faul	schlecht	tyrannisch	schroff	hindern	fanatisch	loyal	treu	lachen	spielen	ehrlich	retten	lasch	tot	leiden	strafen	eitel	rächen	1	blank2r.bmp	0	1	+	0	1	blank2r.bmp	500	4	B4r.bmp	500	1	blank2r.bmp	880	6	rächen	880	0	0	0	0	0	0	0	0	0	0	0	0
2024-06-11	09:19:38	09:21:03	83773	6.6.1	4_exp_EVA_AWA_CON	78	B	A	Rpleas_acq	Oppo	Rpleas	1pleas	acq_new_pleas_nomask	acq1_nomask	1	13	0	0	300	300	0	0	597	50	1	0	fair	schön	tolerant	schlau	helfen	freundlich	faul	schlecht	tyrannisch	schroff	hindern	fanatisch	loyal	treu	lachen	spielen	ehrlich	retten	lasch	tot	leiden	strafen	eitel	rächen	1	blank2r.bmp	0	1	+	0	1	blank2r.bmp	500	1	B1r.bmp	500	1	blank2r.bmp	880	4	spielen	880	0	0	0	0	0	0	0	0	0	0	0	0
2024-06-11	09:19:38	09:21:04	85709	6.6.1	4_exp_EVA_AWA_CON	78	B	A	Rpleas_acq	Oppo	Rpleas	1pleas	acq_US_pleas_nomask	acq1_nomask	1	14	0	0	300	300	0	0	452	50	1	0	fair	schön	tolerant	schlau	helfen	freundlich	faul	schlecht	tyrannisch	schroff	hindern	fanatisch	loyal	treu	lachen	spielen	ehrlich	retten	lasch	tot	leiden	strafen	eitel	rächen	1	blank2r.bmp	0	1	+	0	1	blank2r.bmp	500	1	BMVZ	500	1	blank2r.bmp	880	5	helfen	880	0	0	0	0	0	0	0	0	0	0	0	0
2024-06-11	09:19:38	09:21:07	88133	6.6.1	4_exp_EVA_AWA_CON	78	B	A	Rpleas_acq	Oppo	Rpleas	1pleas	acq_US_unple_nomask	acq1_nomask	1	15	0	0	300	300	0	0	934	46	1	0	fair	schön	tolerant	schlau	helfen	freundlich	faul	schlecht	tyrannisch	schroff	hindern	fanatisch	loyal	treu	lachen	spielen	ehrlich	retten	lasch	tot	leiden	strafen	eitel	rächen	1	blank2r.bmp	0	1	+	0	1	blank2r.bmp	500	1	GKQX	500	1	blank2r.bmp	880	5	hindern	880	0	0	0	0	0	0	0	0	0	0	0	0
2024-06-11	09:19:38	09:21:09	90117	6.6.1	4_exp_EVA_AWA_CON	78	B	A	Rpleas_acq	Oppo	Rpleas	1pleas	acq_new_pleas_nomask	acq1_nomask	1	16	0	0	300	300	0	0	497	50	1	0	fair	schön	tolerant	schlau	helfen	freundlich	faul	schlecht	tyrannisch	schroff	hindern	fanatisch	loyal	treu	lachen	spielen	ehrlich	retten	lasch	tot	leiden	strafen	eitel	rächen	1	blank2r.bmp	0	1	+	0	1	blank2r.bmp	500	5	C1r.bmp	500	1	blank2r.bmp	880	5	ehrlich	880	0	0	0	0	0	0	0	0	0	0	0	0
2024-06-11	09:19:38	09:21:11	92205	6.6.1	4_exp_EVA_AWA_CON	78	B	A	Rpleas_acq	Oppo	Rpleas	1pleas	acq_new_unple_nomask	acq1_nomask	1	17	0	0	300	300	0	0	604	46	1	0	fair	schön	tolerant	schlau	helfen	freundlich	faul	schlecht	tyrannisch	schroff	hindern	fanatisch	loyal	treu	lachen	spielen	ehrlich	retten	lasch	tot	leiden	strafen	eitel	rächen	1	blank2r.bmp	0	1	+	0	1	blank2r.bmp	500	8	C4r.bmp	500	1	blank2r.bmp	880	1	lasch	880	0	0	0	0	0	0	0	0	0	0	0	0
2024-06-11	09:19:38	09:21:13	94197	6.6.1	4_exp_EVA_AWA_CON	78	B	A	Rpleas_acq	Oppo	Rpleas	1pleas	acq_new_unple_nomask	acq1_nomask	1	18	0	0	300	300	0	0	504	46	1	0	fair	schön	tolerant	schlau	helfen	freundlich	faul	schlecht	tyrannisch	schroff	hindern	fanatisch	loyal	treu	lachen	spielen	ehrlich	retten	lasch	tot	leiden	strafen	eitel	rächen	1	blank2r.bmp	0	1	+	0	1	blank2r.bmp	500	2	B2r.bmp	500	1	blank2r.bmp	880	2	tot	880	0	0	0	0	0	0	0	0	0	0	0	0
2024-06-11	09:19:38	09:21:15	96261	6.6.1	4_exp_EVA_AWA_CON	78	B	A	Rpleas_acq	Oppo	Rpleas	1pleas	acq_US_pleas_nomask	acq1_nomask	1	19	0	0	300	300	0	0	577	50	1	0	fair	schön	tolerant	schlau	helfen	freundlich	faul	schlecht	tyrannisch	schroff	hindern	fanatisch	loyal	treu	lachen	spielen	ehrlich	retten	lasch	tot	leiden	strafen	eitel	rächen	1	blank2r.bmp	0	1	+	0	1	blank2r.bmp	500	1	BMVZ	500	1	blank2r.bmp	880	1	fair	880	0	0	0	0	0	0	0	0	0	0	0	0
2024-06-11	09:19:38	09:21:18	98853	6.6.1	4_exp_EVA_AWA_CON	78	B	A	Rpleas_acq	Oppo	Rpleas	1pleas	acq_new_unple_nomask	acq1_nomask	1	20	0	0	300	300	0	0	1108	46	1	0	fair	schön	tolerant	schlau	helfen	freundlich	faul	schlecht	tyrannisch	schroff	hindern	fanatisch	loyal	treu	lachen	spielen	ehrlich	retten	lasch	tot	leiden	strafen	eitel	rächen	1	blank2r.bmp	0	1	+	0	1	blank2r.bmp	500	7	C3r.bmp	500	1	blank2r.bmp	880	3	leiden	880	0	0	0	0	0	0	0	0	0	0	0	0
2024-06-11	09:19:38	09:21:20	100797	6.6.1	4_exp_EVA_AWA_CON	78	B	A	Rpleas_acq	Oppo	Rpleas	1pleas	acq_US_unple_nomask	acq1_nomask	1	21	0	0	300	300	0	0	460	46	1	0	fair	schön	tolerant	schlau	helfen	freundlich	faul	schlecht	tyrannisch	schroff	hindern	fanatisch	loyal	treu	lachen	spielen	ehrlich	retten	lasch	tot	leiden	strafen	eitel	rächen	1	blank2r.bmp	0	1	+	0	1	blank2r.bmp	500	1	GKQX	500	1	blank2r.bmp	880	4	schroff	880	0	0	0	0	0	0	0	0	0	0	0	0
2024-06-11	09:19:38	09:21:22	102909	6.6.1	4_exp_EVA_AWA_CON	78	B	A	Rpleas_acq	Oppo	Rpleas	1pleas	acq_new_pleas_nomask	acq1_nomask	1	22	0	0	300	300	0	0	631	50	1	0	fair	schön	tolerant	schlau	helfen	freundlich	faul	schlecht	tyrannisch	schroff	hindern	fanatisch	loyal	treu	lachen	spielen	ehrlich	retten	lasch	tot	leiden	strafen	eitel	rächen	1	blank2r.bmp	0	1	+	0	1	blank2r.bmp	500	3	B3r.bmp	500	1	blank2r.bmp	880	1	loyal	880	0	0	0	0	0	0	0	0	0	0	0	0
2024-06-11	09:19:38	09:21:24	105029	6.6.1	4_exp_EVA_AWA_CON	78	B	A	Rpleas_acq	Oppo	Rpleas	1pleas	acq_US_pleas_nomask	acq1_nomask	1	23	0	0	300	300	0	0	639	50	1	0	fair	schön	tolerant	schlau	helfen	freundlich	faul	schlecht	tyrannisch	schroff	hindern	fanatisch	loyal	treu	lachen	spielen	ehrlich	retten	lasch	tot	leiden	strafen	eitel	rächen	1	blank2r.bmp	0	1	+	0	1	blank2r.bmp	500	1	BMVZ	500	1	blank2r.bmp	880	4	schlau	880	0	0	0	0	0	0	0	0	0	0	0	0
2024-06-11	09:19:38	09:21:26	107109	6.6.1	4_exp_EVA_AWA_CON	78	B	A	Rpleas_acq	Oppo	Rpleas	1pleas	acq_US_unple_nomask	acq1_nomask	1	24	0	0	300	300	0	0	598	46	1	0	fair	schön	tolerant	schlau	helfen	freundlich	faul	schlecht	tyrannisch	schroff	hindern	fanatisch	loyal	treu	lachen	spielen	ehrlich	retten	lasch	tot	leiden	strafen	eitel	rächen	1	blank2r.bmp	0	1	+	0	1	blank2r.bmp	500	1	GKQX	500	1	blank2r.bmp	880	2	schlecht	880	0	0	0	0	0	0	0	0	0	0	0	0
2024-06-11	09:19:38	09:21:28	109109	6.6.1	4_exp_EVA_AWA_CON	78	B	A	Rpleas_acq	Oppo	Rpleas	1pleas	acq_new_pleas_nomask	acq1_nomask	1	25	0	0	300	300	0	0	517	50	1	0	fair	schön	tolerant	schlau	helfen	freundlich	faul	schlecht	tyrannisch	schroff	hindern	fanatisch	loyal	treu	lachen	spielen	ehrlich	retten	lasch	tot	leiden	strafen	eitel	rächen	1	blank2r.bmp	0	1	+	0	1	blank2r.bmp	500	1	B1r.bmp	500	1	blank2r.bmp	880	1	loyal	880	0	0	0	0	0	0	0	0	0	0	0	0
2024-06-11	09:19:38	09:21:30	111205	6.6.1	4_exp_EVA_AWA_CON	78	B	A	Rpleas_acq	Oppo	Rpleas	1pleas	acq_new_pleas_nomask	acq1_nomask	1	26	0	0	300	300	0	0	611	50	1	0	fair	schön	tolerant	schlau	helfen	freundlich	faul	schlecht	tyrannisch	schroff	hindern	fanatisch	loyal	treu	lachen	spielen	ehrlich	retten	lasch	tot	leiden	strafen	eitel	rächen	1	blank2r.bmp	0	1	+	0	1	blank2r.bmp	500	6	C2r.bmp	500	1	blank2r.bmp	880	6	retten	880	0	0	0	0	0	0	0	0	0	0	0	0
2024-06-11	09:19:38	09:21:32	113397	6.6.1	4_exp_EVA_AWA_CON	78	B	A	Rpleas_acq	Oppo	Rpleas	1pleas	acq_US_unple_nomask	acq1_nomask	1	27	0	0	300	300	0	0	702	46	1	0	fair	schön	tolerant	schlau	helfen	freundlich	faul	schlecht	tyrannisch	schroff	hindern	fanatisch	loyal	treu	lachen	spielen	ehrlich	retten	lasch	tot	leiden	strafen	eitel	rächen	1	blank2r.bmp	0	1	+	0	1	blank2r.bmp	500	1	GKQX	500	1	blank2r.bmp	880	6	fanatisch	880	0	0	0	0	0	0	0	0	0	0	0	0
2024-06-11	09:19:38	09:21:35	115782	6.6.1	4_exp_EVA_AWA_CON	78	B	A	Rpleas_acq	Oppo	Rpleas	1pleas	acq_new_unple_nomask	acq1_nomask	1	28	0	0	300	300	0	0	695	50	0	0	fair	schön	tolerant	schlau	helfen	freundlich	faul	schlecht	tyrannisch	schroff	hindern	fanatisch	loyal	treu	lachen	spielen	ehrlich	retten	lasch	tot	leiden	strafen	eitel	rächen	1	blank2r.bmp	0	1	+	0	1	blank2r.bmp	500	5	C1r.bmp	500	1	blank2r.bmp	880	5	eitel	880	1	FEHLER	1596	0	0	0	0	0	0	0	0	0
2024-06-11	09:19:38	09:21:36	117709	6.6.1	4_exp_EVA_AWA_CON	78	B	A	Rpleas_acq	Oppo	Rpleas	1pleas	acq_US_pleas_nomask	acq1_nomask	1	29	0	0	300	300	0	0	641	50	1	0	fair	schön	tolerant	schlau	helfen	freundlich	faul	schlecht	tyrannisch	schroff	hindern	fanatisch	loyal	treu	lachen	spielen	ehrlich	retten	lasch	tot	leiden	strafen	eitel	rächen	1	blank2r.bmp	0	1	+	0	1	blank2r.bmp	500	1	BMVZ	500	1	blank2r.bmp	880	1	fair	880	0	0	0	0	0	0	0	0	0	0	0	0
2024-06-11	09:19:38	09:21:38	119757	6.6.1	4_exp_EVA_AWA_CON	78	B	A	Rpleas_acq	Oppo	Rpleas	1pleas	acq_US_unple_nomask	acq1_nomask	1	30	0	0	300	300	0	0	558	46	1	0	fair	schön	tolerant	schlau	helfen	freundlich	faul	schlecht	tyrannisch	schroff	hindern	fanatisch	loyal	treu	lachen	spielen	ehrlich	retten	lasch	tot	leiden	strafen	eitel	rächen	1	blank2r.bmp	0	1	+	0	1	blank2r.bmp	500	1	GKQX	500	1	blank2r.bmp	880	2	schlecht	880	0	0	0	0	0	0	0	0	0	0	0	0
2024-06-11	09:19:38	09:21:41	121765	6.6.1	4_exp_EVA_AWA_CON	78	B	A	Rpleas_acq	Oppo	Rpleas	1pleas	acq_new_pleas_nomask	acq1_nomask	1	31	0	0	300	300	0	0	525	50	1	0	fair	schön	tolerant	schlau	helfen	freundlich	faul	schlecht	tyrannisch	schroff	hindern	fanatisch	loyal	treu	lachen	spielen	ehrlich	retten	lasch	tot	leiden	strafen	eitel	rächen	1	blank2r.bmp	0	1	+	0	1	blank2r.bmp	500	4	B4r.bmp	500	1	blank2r.bmp	880	5	ehrlich	880	0	0	0	0	0	0	0	0	0	0	0	0
2024-06-11	09:19:38	09:21:43	124165	6.6.1	4_exp_EVA_AWA_CON	78	B	A	Rpleas_acq	Oppo	Rpleas	1pleas	acq_US_unple_nomask	acq1_nomask	1	32	0	0	300	300	0	0	913	46	1	0	fair	schön	tolerant	schlau	helfen	freundlich	faul	schlecht	tyrannisch	schroff	hindern	fanatisch	loyal	treu	lachen	spielen	ehrlich	retten	lasch	tot	leiden	strafen	eitel	rächen	1	blank2r.bmp	0	1	+	0	1	blank2r.bmp	500	1	GKQX	500	1	blank2r.bmp	880	5	hindern	880	0	0	0	0	0	0	0	0	0	0	0	0
2024-06-11	09:19:38	09:21:45	126325	6.6.1	4_exp_EVA_AWA_CON	78	B	A	Rpleas_acq	Oppo	Rpleas	1pleas	acq_new_unple_nomask	acq1_nomask	1	33	0	0	300	300	0	0	672	46	1	0	fair	schön	tolerant	schlau	helfen	freundlich	faul	schlecht	tyrannisch	schroff	hindern	fanatisch	loyal	treu	lachen	spielen	ehrlich	retten	lasch	tot	leiden	strafen	eitel	rächen	1	blank2r.bmp	0	1	+	0	1	blank2r.bmp	500	8	C4r.bmp	500	1	blank2r.bmp	880	3	leiden	880	0	0	0	0	0	0	0	0	0	0	0	0
2024-06-11	09:19:38	09:21:47	128469	6.6.1	4_exp_EVA_AWA_CON	78	B	A	Rpleas_acq	Oppo	Rpleas	1pleas	acq_US_pleas_nomask	acq1_nomask	1	34	0	0	300	300	0	0	654	50	1	0	fair	schön	tolerant	schlau	helfen	freundlich	faul	schlecht	tyrannisch	schroff	hindern	fanatisch	loyal	treu	lachen	spielen	ehrlich	retten	lasch	tot	leiden	strafen	eitel	rächen	1	blank2r.bmp	0	1	+	0	1	blank2r.bmp	500	1	BMVZ	500	1	blank2r.bmp	880	4	schlau	880	0	0	0	0	0	0	0	0	0	0	0	0
2024-06-11	09:19:38	09:21:49	130597	6.6.1	4_exp_EVA_AWA_CON	78	B	A	Rpleas_acq	Oppo	Rpleas	1pleas	acq_new_unple_nomask	acq1_nomask	1	35	0	0	300	300	0	0	641	46	1	0	fair	schön	tolerant	schlau	helfen	freundlich	faul	schlecht	tyrannisch	schroff	hindern	fanatisch	loyal	treu	lachen	spielen	ehrlich	retten	lasch	tot	leiden	strafen	eitel	rächen	1	blank2r.bmp	0	1	+	0	1	blank2r.bmp	500	5	C1r.bmp	500	1	blank2r.bmp	880	4	strafen	880	0	0	0	0	0	0	0	0	0	0	0	0
2024-06-11	09:19:38	09:21:51	132621	6.6.1	4_exp_EVA_AWA_CON	78	B	A	Rpleas_acq	Oppo	Rpleas	1pleas	acq_US_pleas_nomask	acq1_nomask	1	36	0	0	300	300	0	0	544	50	1	0	fair	schön	tolerant	schlau	helfen	freundlich	faul	schlecht	tyrannisch	schroff	hindern	fanatisch	loyal	treu	lachen	spielen	ehrlich	retten	lasch	tot	leiden	strafen	eitel	rächen	1	blank2r.bmp	0	1	+	0	1	blank2r.bmp	500	1	BMVZ	500	1	blank2r.bmp	880	3	tolerant	880	0	0	0	0	0	0	0	0	0	0	0	0
2024-06-11	09:19:38	09:22:07	147871	6.6.1	4_exp_EVA_AWA_CON	78	B	A	Rpleas_acq	Oppo	Rpleas	1pleas	acq_US_pleas_nomask	acq2_nomask	2	1	480	0	300	300	0	0	954	50	1	0	fair	schön	tolerant	schlau	helfen	freundlich	faul	schlecht	tyrannisch	schroff	hindern	fanatisch	loyal	treu	lachen	spielen	ehrlich	retten	lasch	tot	leiden	strafen	eitel	rächen	1	blank2r.bmp	0	1	+	0	1	blank2r.bmp	500	1	BMVZ	500	1	blank2r.bmp	880	6	freundlich	880	1	!	1312	1	!	-1	0	0	0	0	0	0
2024-06-11	09:19:38	09:22:09	150407	6.6.1	4_exp_EVA_AWA_CON	78	B	A	Rpleas_acq	Oppo	Rpleas	1pleas	acq_US_pleas_nomask	acq2_nomask	2	2	480	0	300	300	0	0	758	50	1	0	fair	schön	tolerant	schlau	helfen	freundlich	faul	schlecht	tyrannisch	schroff	hindern	fanatisch	loyal	treu	lachen	spielen	ehrlich	retten	lasch	tot	leiden	strafen	eitel	rächen	1	blank2r.bmp	0	1	+	0	1	blank2r.bmp	500	1	BMVZ	500	1	blank2r.bmp	880	5	helfen	880	1	!	1312	1	!	-1	0	0	0	0	0	0
2024-06-11	09:19:38	09:22:11	152673	6.6.1	4_exp_EVA_AWA_CON	78	B	A	Rpleas_acq	Oppo	Rpleas	1pleas	acq_new_pleas_nomask	acq2_nomask	2	3	480	1	300	300	0	0	491	50	1	0	fair	schön	tolerant	schlau	helfen	freundlich	faul	schlecht	tyrannisch	schroff	hindern	fanatisch	loyal	treu	lachen	spielen	ehrlich	retten	lasch	tot	leiden	strafen	eitel	rächen	1	blank2r.bmp	0	1	+	0	1	blank2r.bmp	500	6	C2r.bmp	500	1	blank2r.bmp	880	4	spielen	880	1	!	1312	1	!	1392	0	0	0	0	0	0
2024-06-11	09:19:38	09:22:14	154831	6.6.1	4_exp_EVA_AWA_CON	78	B	A	Rpleas_acq	Oppo	Rpleas	1pleas	acq_US_unple_nomask	acq2_nomask	2	4	480	0	300	300	0	0	379	46	1	0	fair	schön	tolerant	schlau	helfen	freundlich	faul	schlecht	tyrannisch	schroff	hindern	fanatisch	loyal	treu	lachen	spielen	ehrlich	retten	lasch	tot	leiden	strafen	eitel	rächen	1	blank2r.bmp	0	1	+	0	1	blank2r.bmp	500	1	GKQX	500	1	blank2r.bmp	880	3	tyrannisch	880	1	!	-1	1	!	-1	0	0	0	0	0	0
2024-06-11	09:19:38	09:22:16	157327	6.6.1	4_exp_EVA_AWA_CON	78	B	A	Rpleas_acq	Oppo	Rpleas	1pleas	acq_new_pleas_nomask	acq2_nomask	2	5	480	0	300	300	0	0	714	50	1	0	fair	schön	tolerant	schlau	helfen	freundlich	faul	schlecht	tyrannisch	schroff	hindern	fanatisch	loyal	treu	lachen	spielen	ehrlich	retten	lasch	tot	leiden	strafen	eitel	rächen	1	blank2r.bmp	0	1	+	0	1	blank2r.bmp	500	1	B1r.bmp	500	1	blank2r.bmp	880	3	lachen	880	1	!	1312	1	!	-1	0	0	0	0	0	0
2024-06-11	09:19:38	09:22:18	159711	6.6.1	4_exp_EVA_AWA_CON	78	B	A	Rpleas_acq	Oppo	Rpleas	1pleas	acq_US_pleas_nomask	acq2_nomask	2	6	480	0	300	300	0	0	606	50	1	0	fair	schön	tolerant	schlau	helfen	freundlich	faul	schlecht	tyrannisch	schroff	hindern	fanatisch	loyal	treu	lachen	spielen	ehrlich	retten	lasch	tot	leiden	strafen	eitel	rächen	1	blank2r.bmp	0	1	+	0	1	blank2r.bmp	500	1	BMVZ	500	1	blank2r.bmp	880	2	schön	880	1	!	1312	1	!	-1	0	0	0	0	0	0
2024-06-11	09:19:38	09:22:21	162287	6.6.1	4_exp_EVA_AWA_CON	78	B	A	Rpleas_acq	Oppo	Rpleas	1pleas	acq_new_unple_nomask	acq2_nomask	2	7	480	0	300	300	0	0	801	46	1	0	fair	schön	tolerant	schlau	helfen	freundlich	faul	schlecht	tyrannisch	schroff	hindern	fanatisch	loyal	treu	lachen	spielen	ehrlich	retten	lasch	tot	leiden	strafen	eitel	rächen	1	blank2r.bmp	0	1	+	0	1	blank2r.bmp	500	7	C3r.bmp	500	1	blank2r.bmp	880	2	tot	880	1	!	1312	1	!	-1	0	0	0	0	0	0
2024-06-11	09:19:38	09:22:23	164571	6.6.1	4_exp_EVA_AWA_CON	78	B	A	Rpleas_acq	Oppo	Rpleas	1pleas	acq_US_unple_nomask	acq2_nomask	2	8	480	0	300	300	0	0	299	50	0	0	fair	schön	tolerant	schlau	helfen	freundlich	faul	schlecht	tyrannisch	schroff	hindern	fanatisch	loyal	treu	lachen	spielen	ehrlich	retten	lasch	tot	leiden	strafen	eitel	rächen	1	blank2r.bmp	0	1	+	0	1	blank2r.bmp	500	1	GKQX	500	1	blank2r.bmp	880	4	schroff	880	1	FEHLER	1493	1	!	-1	1	!	-1	0	0	0
2024-06-11	09:19:38	09:22:25	166664	6.6.1	4_exp_EVA_AWA_CON	78	B	A	Rpleas_acq	Oppo	Rpleas	1pleas	acq_new_pleas_nomask	acq2_nomask	2	9	480	1	300	300	0	0	524	50	1	0	fair	schön	tolerant	schlau	helfen	freundlich	faul	schlecht	tyrannisch	schroff	hindern	fanatisch	loyal	treu	lachen	spielen	ehrlich	retten	lasch	tot	leiden	strafen	eitel	rächen	1	blank2r.bmp	0	1	+	0	1	blank2r.bmp	500	3	B3r.bmp	500	1	blank2r.bmp	880	2	treu	880	1	!	1312	1	!	1425	0	0	0	0	0	0
2024-06-11	09:19:38	09:22:28	169143	6.6.1	4_exp_EVA_AWA_CON	78	B	A	Rpleas_acq	Oppo	Rpleas	1pleas	acq_new_unple_nomask	acq2_nomask	2	10	480	0	300	300	0	0	702	46	1	0	fair	schön	tolerant	schlau	helfen	freundlich	faul	schlecht	tyrannisch	schroff	hindern	fanatisch	loyal	treu	lachen	spielen	ehrlich	retten	lasch	tot	leiden	strafen	eitel	rächen	1	blank2r.bmp	0	1	+	0	1	blank2r.bmp	500	2	B2r.bmp	500	1	blank2r.bmp	880	1	lasch	880	1	!	1313	1	!	-1	0	0	0	0	0	0
2024-06-11	09:19:38	09:22:30	171408	6.6.1	4_exp_EVA_AWA_CON	78	B	A	Rpleas_acq	Oppo	Rpleas	1pleas	acq_US_unple_nomask	acq2_nomask	2	11	480	1	300	300	0	0	485	46	1	0	fair	schön	tolerant	schlau	helfen	freundlich	faul	schlecht	tyrannisch	schroff	hindern	fanatisch	loyal	treu	lachen	spielen	ehrlich	retten	lasch	tot	leiden	strafen	eitel	rächen	1	blank2r.bmp	0	1	+	0	1	blank2r.bmp	500	1	GKQX	500	1	blank2r.bmp	880	1	faul	880	1	!	1312	1	!	1386	0	0	0	0	0	0
2024-06-11	09:19:38	09:22:33	173807	6.6.1	4_exp_EVA_AWA_CON	78	B	A	Rpleas_acq	Oppo	Rpleas	1pleas	acq_new_unple_nomask	acq2_nomask	2	12	480	0	300	300	0	0	623	46	1	0	fair	schön	tolerant	schlau	helfen	freundlich	faul	schlecht	tyrannisch	schroff	hindern	fanatisch	loyal	treu	lachen	spielen	ehrlich	retten	lasch	tot	leiden	strafen	eitel	rächen	1	blank2r.bmp	0	1	+	0	1	blank2r.bmp	500	4	B4r.bmp	500	1	blank2r.bmp	880	6	rächen	880	1	!	1313	1	!	-1	0	0	0	0	0	0
2024-06-11	09:19:38	09:22:35	176247	6.6.1	4_exp_EVA_AWA_CON	78	B	A	Rpleas_acq	Oppo	Rpleas	1pleas	acq_new_pleas_nomask	acq2_nomask	2	13	480	0	300	300	0	0	662	50	1	0	fair	schön	tolerant	schlau	helfen	freundlich	faul	schlecht	tyrannisch	schroff	hindern	fanatisch	loyal	treu	lachen	spielen	ehrlich	retten	lasch	tot	leiden	strafen	eitel	rächen	1	blank2r.bmp	0	1	+	0	1	blank2r.bmp	500	8	C4r.bmp	500	1	blank2r.bmp	880	1	loyal	880	1	!	1313	1	!	-1	0	0	0	0	0	0
2024-06-11	09:19:38	09:22:37	178719	6.6.1	4_exp_EVA_AWA_CON	78	B	A	Rpleas_acq	Oppo	Rpleas	1pleas	acq_US_unple_nomask	acq2_nomask	2	14	480	0	300	300	0	0	692	46	1	0	fair	schön	tolerant	schlau	helfen	freundlich	faul	schlecht	tyrannisch	schroff	hindern	fanatisch	loyal	treu	lachen	spielen	ehrlich	retten	lasch	tot	leiden	strafen	eitel	rächen	1	blank2r.bmp	0	1	+	0	1	blank2r.bmp	500	1	GKQX	500	1	blank2r.bmp	880	6	fanatisch	880	1	!	1313	1	!	-1	0	0	0	0	0	0
2024-06-11	09:19:38	09:22:40	181002	6.6.1	4_exp_EVA_AWA_CON	78	B	A	Rpleas_acq	Oppo	Rpleas	1pleas	acq_US_unple_nomask	acq2_nomask	2	15	480	0	300	300	0	0	301	50	0	0	fair	schön	tolerant	schlau	helfen	freundlich	faul	schlecht	tyrannisch	schroff	hindern	fanatisch	loyal	treu	lachen	spielen	ehrlich	retten	lasch	tot	leiden	strafen	eitel	rächen	1	blank2r.bmp	0	1	+	0	1	blank2r.bmp	500	1	GKQX	500	1	blank2r.bmp	880	2	schlecht	880	1	FEHLER	1494	1	!	-1	1	!	-1	0	0	0
2024-06-11	09:19:38	09:22:42	183096	6.6.1	4_exp_EVA_AWA_CON	78	B	A	Rpleas_acq	Oppo	Rpleas	1pleas	acq_new_pleas_nomask	acq2_nomask	2	16	480	1	300	300	0	0	515	50	1	0	fair	schön	tolerant	schlau	helfen	freundlich	faul	schlecht	tyrannisch	schroff	hindern	fanatisch	loyal	treu	lachen	spielen	ehrlich	retten	lasch	tot	leiden	strafen	eitel	rächen	1	blank2r.bmp	0	1	+	0	1	blank2r.bmp	500	2	B2r.bmp	500	1	blank2r.bmp	880	4	spielen	880	1	!	1312	1	!	1416	0	0	0	0	0	0
2024-06-11	09:19:38	09:22:44	185519	6.6.1	4_exp_EVA_AWA_CON	78	B	A	Rpleas_acq	Oppo	Rpleas	1pleas	acq_new_unple_nomask	acq2_nomask	2	17	480	0	300	300	0	0	648	46	1	0	fair	schön	tolerant	schlau	helfen	freundlich	faul	schlecht	tyrannisch	schroff	hindern	fanatisch	loyal	treu	lachen	spielen	ehrlich	retten	lasch	tot	leiden	strafen	eitel	rächen	1	blank2r.bmp	0	1	+	0	1	blank2r.bmp	500	5	C1r.bmp	500	1	blank2r.bmp	880	3	leiden	880	1	!	1313	1	!	-1	0	0	0	0	0	0
2024-06-11	09:19:38	09:22:47	187959	6.6.1	4_exp_EVA_AWA_CON	78	B	A	Rpleas_acq	Oppo	Rpleas	1pleas	acq_US_unple_nomask	acq2_nomask	2	18	480	0	300	300	0	0	666	46	1	0	fair	schön	tolerant	schlau	helfen	freundlich	faul	schlecht	tyrannisch	schroff	hindern	fanatisch	loyal	treu	lachen	spielen	ehrlich	retten	lasch	tot	leiden	strafen	eitel	rächen	1	blank2r.bmp	0	1	+	0	1	blank2r.bmp	500	1	GKQX	500	1	blank2r.bmp	880	5	hindern	880	1	!	1312	1	!	-1	0	0	0	0	0	0
2024-06-11	09:19:38	09:22:49	190258	6.6.1	4_exp_EVA_AWA_CON	78	B	A	Rpleas_acq	Oppo	Rpleas	1pleas	acq_US_pleas_nomask	acq2_nomask	2	19	480	0	300	300	0	0	321	46	0	0	fair	schön	tolerant	schlau	helfen	freundlich	faul	schlecht	tyrannisch	schroff	hindern	fanatisch	loyal	treu	lachen	spielen	ehrlich	retten	lasch	tot	leiden	strafen	eitel	rächen	1	blank2r.bmp	0	1	+	0	1	blank2r.bmp	500	1	BMVZ	500	1	blank2r.bmp	880	1	fair	880	1	FEHLER	1514	1	!	-1	1	!	-1	0	0	0
2024-06-11	09:19:38	09:22:51	192551	6.6.1	4_exp_EVA_AWA_CON	78	B	A	Rpleas_acq	Oppo	Rpleas	1pleas	acq_new_unple_nomask	acq2_nomask	2	20	480	0	300	300	0	0	715	46	1	0	fair	schön	tolerant	schlau	helfen	freundlich	faul	schlecht	tyrannisch	schroff	hindern	fanatisch	loyal	treu	lachen	spielen	ehrlich	retten	lasch	tot	leiden	strafen	eitel	rächen	1	blank2r.bmp	0	1	+	0	1	blank2r.bmp	500	7	C3r.bmp	500	1	blank2r.bmp	880	2	tot	880	1	!	1312	1	!	-1	0	0	0	0	0	0
2024-06-11	09:19:38	09:22:54	194849	6.6.1	4_exp_EVA_AWA_CON	78	B	A	Rpleas_acq	Oppo	Rpleas	1pleas	acq_new_pleas_nomask	acq2_nomask	2	21	480	1	300	300	0	0	520	50	1	0	fair	schön	tolerant	schlau	helfen	freundlich	faul	schlecht	tyrannisch	schroff	hindern	fanatisch	loyal	treu	lachen	spielen	ehrlich	retten	lasch	tot	leiden	strafen	eitel	rächen	1	blank2r.bmp	0	1	+	0	1	blank2r.bmp	500	6	C2r.bmp	500	1	blank2r.bmp	880	5	ehrlich	880	1	!	1312	1	!	1421	0	0	0	0	0	0
2024-06-11	09:19:38	09:22:56	197243	6.6.1	4_exp_EVA_AWA_CON	78	B	A	Rpleas_acq	Oppo	Rpleas	1pleas	acq_US_pleas_nomask	acq2_nomask	2	22	480	0	300	300	0	0	410	46	0	0	fair	schön	tolerant	schlau	helfen	freundlich	faul	schlecht	tyrannisch	schroff	hindern	fanatisch	loyal	treu	lachen	spielen	ehrlich	retten	lasch	tot	leiden	strafen	eitel	rächen	1	blank2r.bmp	0	1	+	0	1	blank2r.bmp	500	1	BMVZ	500	1	blank2r.bmp	880	5	helfen	880	1	FEHLER	1604	1	!	-1	1	!	-1	0	0	0
2024-06-11	09:19:38	09:22:58	199415	6.6.1	4_exp_EVA_AWA_CON	78	B	A	Rpleas_acq	Oppo	Rpleas	1pleas	acq_US_pleas_nomask	acq2_nomask	2	23	480	0	300	300	0	0	595	50	1	0	fair	schön	tolerant	schlau	helfen	freundlich	faul	schlecht	tyrannisch	schroff	hindern	fanatisch	loyal	treu	lachen	spielen	ehrlich	retten	lasch	tot	leiden	strafen	eitel	rächen	1	blank2r.bmp	0	1	+	0	1	blank2r.bmp	500	1	BMVZ	500	1	blank2r.bmp	880	3	tolerant	880	1	!	1312	1	!	-1	0	0	0	0	0	0
2024-06-11	09:19:38	09:23:00	201720	6.6.1	4_exp_EVA_AWA_CON	78	B	A	Rpleas_acq	Oppo	Rpleas	1pleas	acq_new_unple_nomask	acq2_nomask	2	24	480	1	300	300	0	0	527	46	1	0	fair	schön	tolerant	schlau	helfen	freundlich	faul	schlecht	tyrannisch	schroff	hindern	fanatisch	loyal	treu	lachen	spielen	ehrlich	retten	lasch	tot	leiden	strafen	eitel	rächen	1	blank2r.bmp	0	1	+	0	1	blank2r.bmp	500	1	B1r.bmp	500	1	blank2r.bmp	880	4	strafen	880	1	!	1313	1	!	1428	0	0	0	0	0	0
2024-06-11	09:19:38	09:23:03	203944	6.6.1	4_exp_EVA_AWA_CON	78	B	A	Rpleas_acq	Oppo	Rpleas	1pleas	acq_US_unple_nomask	acq2_nomask	2	25	480	1	300	300	0	0	450	46	1	0	fair	schön	tolerant	schlau	helfen	freundlich	faul	schlecht	tyrannisch	schroff	hindern	fanatisch	loyal	treu	lachen	spielen	ehrlich	retten	lasch	tot	leiden	strafen	eitel	rächen	1	blank2r.bmp	0	1	+	0	1	blank2r.bmp	500	1	GKQX	500	1	blank2r.bmp	880	4	schroff	880	1	!	1312	1	!	1351	0	0	0	0	0	0
2024-06-11	09:19:38	09:23:05	206295	6.6.1	4_exp_EVA_AWA_CON	78	B	A	Rpleas_acq	Oppo	Rpleas	1pleas	acq_new_pleas_nomask	acq2_nomask	2	26	480	0	300	300	0	0	570	50	1	0	fair	schön	tolerant	schlau	helfen	freundlich	faul	schlecht	tyrannisch	schroff	hindern	fanatisch	loyal	treu	lachen	spielen	ehrlich	retten	lasch	tot	leiden	strafen	eitel	rächen	1	blank2r.bmp	0	1	+	0	1	blank2r.bmp	500	4	B4r.bmp	500	1	blank2r.bmp	880	6	retten	880	1	!	1313	1	!	-1	0	0	0	0	0	0
2024-06-11	09:19:38	09:23:07	208722	6.6.1	4_exp_EVA_AWA_CON	78	B	A	Rpleas_acq	Oppo	Rpleas	1pleas	acq_US_unple_nomask	acq2_nomask	2	27	480	1	300	300	0	0	443	50	0	0	fair	schön	tolerant	schlau	helfen	freundlich	faul	schlecht	tyrannisch	schroff	hindern	fanatisch	loyal	treu	lachen	spielen	ehrlich	retten	lasch	tot	leiden	strafen	eitel	rächen	1	blank2r.bmp	0	1	+	0	1	blank2r.bmp	500	1	GKQX	500	1	blank2r.bmp	880	1	faul	880	1	FEHLER	1636	1	!	1312	1	!	1344	0	0	0
2024-06-11	09:19:38	09:23:10	210879	6.6.1	4_exp_EVA_AWA_CON	78	B	A	Rpleas_acq	Oppo	Rpleas	1pleas	acq_new_pleas_nomask	acq2_nomask	2	28	480	0	300	300	0	0	581	50	1	0	fair	schön	tolerant	schlau	helfen	freundlich	faul	schlecht	tyrannisch	schroff	hindern	fanatisch	loyal	treu	lachen	spielen	ehrlich	retten	lasch	tot	leiden	strafen	eitel	rächen	1	blank2r.bmp	0	1	+	0	1	blank2r.bmp	500	3	B3r.bmp	500	1	blank2r.bmp	880	3	lachen	880	1	!	1312	1	!	-1	0	0	0	0	0	0
2024-06-11	09:19:38	09:23:12	213239	6.6.1	4_exp_EVA_AWA_CON	78	B	A	Rpleas_acq	Oppo	Rpleas	1pleas	acq_new_unple_nomask	acq2_nomask	2	29	480	0	300	300	0	0	580	46	1	0	fair	schön	tolerant	schlau	helfen	freundlich	faul	schlecht	tyrannisch	schroff	hindern	fanatisch	loyal	treu	lachen	spielen	ehrlich	retten	lasch	tot	leiden	strafen	eitel	rächen	1	blank2r.bmp	0	1	+	0	1	blank2r.bmp	500	6	C2r.bmp	500	1	blank2r.bmp	880	5	eitel	880	1	!	1312	1	!	-1	0	0	0	0	0	0
2024-06-11	09:19:38	09:23:14	215631	6.6.1	4_exp_EVA_AWA_CON	78	B	A	Rpleas_acq	Oppo	Rpleas	1pleas	acq_US_pleas_nomask	acq2_nomask	2	30	480	0	300	300	0	0	610	50	1	0	fair	schön	tolerant	schlau	helfen	freundlich	faul	schlecht	tyrannisch	schroff	hindern	fanatisch	loyal	treu	lachen	spielen	ehrlich	retten	lasch	tot	leiden	strafen	eitel	rächen	1	blank2r.bmp	0	1	+	0	1	blank2r.bmp	500	1	BMVZ	500	1	blank2r.bmp	880	2	schön	880	1	!	1312	1	!	-1	0	0	0	0	0	0
2024-06-11	09:19:38	09:23:17	218234	6.6.1	4_exp_EVA_AWA_CON	78	B	A	Rpleas_acq	Oppo	Rpleas	1pleas	acq_new_unple_nomask	acq2_nomask	2	31	480	0	300	300	0	0	619	50	0	0	fair	schön	tolerant	schlau	helfen	freundlich	faul	schlecht	tyrannisch	schroff	hindern	fanatisch	loyal	treu	lachen	spielen	ehrlich	retten	lasch	tot	leiden	strafen	eitel	rächen	1	blank2r.bmp	0	1	+	0	1	blank2r.bmp	500	8	C4r.bmp	500	1	blank2r.bmp	880	1	lasch	880	1	FEHLER	1812	1	!	1313	1	!	-1	0	0	0
2024-06-11	09:19:38	09:23:19	220567	6.6.1	4_exp_EVA_AWA_CON	78	B	A	Rpleas_acq	Oppo	Rpleas	1pleas	acq_US_pleas_nomask	acq2_nomask	2	32	480	0	300	300	0	0	763	50	1	0	fair	schön	tolerant	schlau	helfen	freundlich	faul	schlecht	tyrannisch	schroff	hindern	fanatisch	loyal	treu	lachen	spielen	ehrlich	retten	lasch	tot	leiden	strafen	eitel	rächen	1	blank2r.bmp	0	1	+	0	1	blank2r.bmp	500	1	BMVZ	500	1	blank2r.bmp	880	4	schlau	880	1	!	1312	1	!	-1	0	0	0	0	0	0
2024-06-11	09:19:38	09:23:22	222993	6.6.1	4_exp_EVA_AWA_CON	78	B	A	Rpleas_acq	Oppo	Rpleas	1pleas	acq_new_unple_nomask	acq2_nomask	2	33	480	1	300	300	0	0	446	50	0	0	fair	schön	tolerant	schlau	helfen	freundlich	faul	schlecht	tyrannisch	schroff	hindern	fanatisch	loyal	treu	lachen	spielen	ehrlich	retten	lasch	tot	leiden	strafen	eitel	rächen	1	blank2r.bmp	0	1	+	0	1	blank2r.bmp	500	7	C3r.bmp	500	1	blank2r.bmp	880	6	rächen	880	1	FEHLER	1638	1	!	1312	1	!	1347	0	0	0
2024-06-11	09:19:38	09:23:24	225279	6.6.1	4_exp_EVA_AWA_CON	78	B	A	Rpleas_acq	Oppo	Rpleas	1pleas	acq_US_pleas_nomask	acq2_nomask	2	34	480	0	300	300	0	0	712	50	1	0	fair	schön	tolerant	schlau	helfen	freundlich	faul	schlecht	tyrannisch	schroff	hindern	fanatisch	loyal	treu	lachen	spielen	ehrlich	retten	lasch	tot	leiden	strafen	eitel	rächen	1	blank2r.bmp	0	1	+	0	1	blank2r.bmp	500	1	BMVZ	500	1	blank2r.bmp	880	6	freundlich	880	1	!	1312	1	!	-1	0	0	0	0	0	0
2024-06-11	09:19:38	09:23:26	227592	6.6.1	4_exp_EVA_AWA_CON	78	B	A	Rpleas_acq	Oppo	Rpleas	1pleas	acq_US_unple_nomask	acq2_nomask	2	35	480	1	300	300	0	0	533	46	1	0	fair	schön	tolerant	schlau	helfen	freundlich	faul	schlecht	tyrannisch	schroff	hindern	fanatisch	loyal	treu	lachen	spielen	ehrlich	retten	lasch	tot	leiden	strafen	eitel	rächen	1	blank2r.bmp	0	1	+	0	1	blank2r.bmp	500	1	GKQX	500	1	blank2r.bmp	880	3	tyrannisch	880	1	!	1312	1	!	1433	0	0	0	0	0	0
2024-06-11	09:19:38	09:23:29	229841	6.6.1	4_exp_EVA_AWA_CON	78	B	A	Rpleas_acq	Oppo	Rpleas	1pleas	acq_new_pleas_nomask	acq2_nomask	2	36	480	1	300	300	0	0	469	50	1	0	fair	schön	tolerant	schlau	helfen	freundlich	faul	schlecht	tyrannisch	schroff	hindern	fanatisch	loyal	treu	lachen	spielen	ehrlich	retten	lasch	tot	leiden	strafen	eitel	rächen	1	blank2r.bmp	0	1	+	0	1	blank2r.bmp	500	3	B3r.bmp	500	1	blank2r.bmp	880	2	treu	880	1	!	1313	1	!	1370	0	0	0	0	0	0
2024-06-11	09:19:38	09:23:36	237653	6.6.1	4_exp_EVA_AWA_CON	78	B	A	Rpleas_acq	Oppo	Rpleas	1pleas	acq_US_unple_nomask	acq3_nomask	3	1	453	0	300	300	0	0	530	46	1	0	fair	schön	tolerant	schlau	helfen	freundlich	faul	schlecht	tyrannisch	schroff	hindern	fanatisch	loyal	treu	lachen	spielen	ehrlich	retten	lasch	tot	leiden	strafen	eitel	rächen	1	blank2r.bmp	0	1	+	0	1	blank2r.bmp	500	1	GKQX	500	1	blank2r.bmp	880	1	faul	880	1	!	1292	1	!	-1	0	0	0	0	0	0
2024-06-11	09:19:38	09:23:39	240007	6.6.1	4_exp_EVA_AWA_CON	78	B	A	Rpleas_acq	Oppo	Rpleas	1pleas	acq_US_pleas_nomask	acq3_nomask	3	2	453	0	300	300	0	0	581	50	1	0	fair	schön	tolerant	schlau	helfen	freundlich	faul	schlecht	tyrannisch	schroff	hindern	fanatisch	loyal	treu	lachen	spielen	ehrlich	retten	lasch	tot	leiden	strafen	eitel	rächen	1	blank2r.bmp	0	1	+	0	1	blank2r.bmp	500	1	BMVZ	500	1	blank2r.bmp	880	1	fair	880	1	!	1293	1	!	-1	0	0	0	0	0	0
2024-06-11	09:19:38	09:23:41	242296	6.6.1	4_exp_EVA_AWA_CON	78	B	A	Rpleas_acq	Oppo	Rpleas	1pleas	acq_US_pleas_nomask	acq3_nomask	3	3	453	1	300	300	0	0	507	50	1	0	fair	schön	tolerant	schlau	helfen	freundlich	faul	schlecht	tyrannisch	schroff	hindern	fanatisch	loyal	treu	lachen	spielen	ehrlich	retten	lasch	tot	leiden	strafen	eitel	rächen	1	blank2r.bmp	0	1	+	0	1	blank2r.bmp	500	1	BMVZ	500	1	blank2r.bmp	880	5	helfen	880	1	!	1293	1	!	1408	0	0	0	0	0	0
2024-06-11	09:19:38	09:23:43	244455	6.6.1	4_exp_EVA_AWA_CON	78	B	A	Rpleas_acq	Oppo	Rpleas	1pleas	acq_US_unple_nomask	acq3_nomask	3	4	453	0	300	300	0	0	386	46	1	0	fair	schön	tolerant	schlau	helfen	freundlich	faul	schlecht	tyrannisch	schroff	hindern	fanatisch	loyal	treu	lachen	spielen	ehrlich	retten	lasch	tot	leiden	strafen	eitel	rächen	1	blank2r.bmp	0	1	+	0	1	blank2r.bmp	500	1	GKQX	500	1	blank2r.bmp	880	2	schlecht	880	1	!	-1	1	!	-1	0	0	0	0	0	0
2024-06-11	09:19:38	09:23:45	246753	6.6.1	4_exp_EVA_AWA_CON	78	B	A	Rpleas_acq	Oppo	Rpleas	1pleas	acq_US_unple_nomask	acq3_nomask	3	5	453	1	300	300	0	0	520	46	1	0	fair	schön	tolerant	schlau	helfen	freundlich	faul	schlecht	tyrannisch	schroff	hindern	fanatisch	loyal	treu	lachen	spielen	ehrlich	retten	lasch	tot	leiden	strafen	eitel	rächen	1	blank2r.bmp	0	1	+	0	1	blank2r.bmp	500	1	GKQX	500	1	blank2r.bmp	880	4	schroff	880	1	!	1292	1	!	1422	0	0	0	0	0	0
2024-06-11	09:19:38	09:23:48	249128	6.6.1	4_exp_EVA_AWA_CON	78	B	A	Rpleas_acq	Oppo	Rpleas	1pleas	acq_US_unple_nomask	acq3_nomask	3	6	453	1	300	300	0	0	395	50	0	0	fair	schön	tolerant	schlau	helfen	freundlich	faul	schlecht	tyrannisch	schroff	hindern	fanatisch	loyal	treu	lachen	spielen	ehrlich	retten	lasch	tot	leiden	strafen	eitel	rächen	1	blank2r.bmp	0	1	+	0	1	blank2r.bmp	500	1	GKQX	500	1	blank2r.bmp	880	3	tyrannisch	880	1	FEHLER	1586	1	!	1292	1	!	1294	0	0	0
2024-06-11	09:19:38	09:23:50	251417	6.6.1	4_exp_EVA_AWA_CON	78	B	A	Rpleas_acq	Oppo	Rpleas	1pleas	acq_US_unple_nomask	acq3_nomask	3	7	453	1	300	300	0	0	511	50	0	0	fair	schön	tolerant	schlau	helfen	freundlich	faul	schlecht	tyrannisch	schroff	hindern	fanatisch	loyal	treu	lachen	spielen	ehrlich	retten	lasch	tot	leiden	strafen	eitel	rächen	1	blank2r.bmp	0	1	+	0	1	blank2r.bmp	500	1	GKQX	500	1	blank2r.bmp	880	6	fanatisch	880	1	FEHLER	1704	1	!	1292	1	!	1412	0	0	0
2024-06-11	09:19:38	09:23:53	253871	6.6.1	4_exp_EVA_AWA_CON	78	B	A	Rpleas_acq	Oppo	Rpleas	1pleas	acq_US_pleas_nomask	acq3_nomask	3	8	453	0	300	300	0	0	876	50	1	0	fair	schön	tolerant	schlau	helfen	freundlich	faul	schlecht	tyrannisch	schroff	hindern	fanatisch	loyal	treu	lachen	spielen	ehrlich	retten	lasch	tot	leiden	strafen	eitel	rächen	1	blank2r.bmp	0	1	+	0	1	blank2r.bmp	500	1	BMVZ	500	1	blank2r.bmp	880	4	schlau	880	1	!	1293	1	!	-1	0	0	0	0	0	0
2024-06-11	09:19:38	09:23:55	256096	6.6.1	4_exp_EVA_AWA_CON	78	B	A	Rpleas_acq	Oppo	Rpleas	1pleas	acq_US_unple_nomask	acq3_nomask	3	9	453	1	300	300	0	0	448	46	1	0	fair	schön	tolerant	schlau	helfen	freundlich	faul	schlecht	tyrannisch	schroff	hindern	fanatisch	loyal	treu	lachen	spielen	ehrlich	retten	lasch	tot	leiden	strafen	eitel	rächen	1	blank2r.bmp	0	1	+	0	1	blank2r.bmp	500	1	GKQX	500	1	blank2r.bmp	880	5	hindern	880	1	!	1293	1	!	1349	0	0	0	0	0	0
2024-06-11	09:19:38	09:23:57	258447	6.6.1	4_exp_EVA_AWA_CON	78	B	A	Rpleas_acq	Oppo	Rpleas	1pleas	acq_US_pleas_nomask	acq3_nomask	3	10	453	0	300	300	0	0	569	50	1	0	fair	schön	tolerant	schlau	helfen	freundlich	faul	schlecht	tyrannisch	schroff	hindern	fanatisch	loyal	treu	lachen	spielen	ehrlich	retten	lasch	tot	leiden	strafen	eitel	rächen	1	blank2r.bmp	0	1	+	0	1	blank2r.bmp	500	1	BMVZ	500	1	blank2r.bmp	880	3	tolerant	880	1	!	1292	1	!	-1	0	0	0	0	0	0
2024-06-11	09:19:38	09:23:59	260749	6.6.1	4_exp_EVA_AWA_CON	78	B	A	Rpleas_acq	Oppo	Rpleas	1pleas	acq_US_pleas_nomask	acq3_nomask	3	11	453	0	300	300	0	0	532	50	1	0	fair	schön	tolerant	schlau	helfen	freundlich	faul	schlecht	tyrannisch	schroff	hindern	fanatisch	loyal	treu	lachen	spielen	ehrlich	retten	lasch	tot	leiden	strafen	eitel	rächen	1	blank2r.bmp	0	1	+	0	1	blank2r.bmp	500	1	BMVZ	500	1	blank2r.bmp	880	6	freundlich	880	1	!	1293	1	!	-1	0	0	0	0	0	0
2024-06-11	09:19:38	09:24:02	263000	6.6.1	4_exp_EVA_AWA_CON	78	B	A	Rpleas_acq	Oppo	Rpleas	1pleas	acq_US_pleas_nomask	acq3_nomask	3	12	453	1	300	300	0	0	478	50	1	0	fair	schön	tolerant	schlau	helfen	freundlich	faul	schlecht	tyrannisch	schroff	hindern	fanatisch	loyal	treu	lachen	spielen	ehrlich	retten	lasch	tot	leiden	strafen	eitel	rächen	1	blank2r.bmp	0	1	+	0	1	blank2r.bmp	500	1	BMVZ	500	1	blank2r.bmp	880	2	schön	880	1	!	1292	1	!	1379	0	0	0	0	0	0
2024-06-11	09:19:38	09:24:04	265319	6.6.1	4_exp_EVA_AWA_CON	78	B	A	Rpleas_acq	Oppo	Rpleas	1pleas	acq_US_pleas_nomask	acq3_nomask	3	13	453	0	300	300	0	0	547	50	1	0	fair	schön	tolerant	schlau	helfen	freundlich	faul	schlecht	tyrannisch	schroff	hindern	fanatisch	loyal	treu	lachen	spielen	ehrlich	retten	lasch	tot	leiden	strafen	eitel	rächen	1	blank2r.bmp	0	1	+	0	1	blank2r.bmp	500	1	BMVZ	500	1	blank2r.bmp	880	6	freundlich	880	1	!	1293	1	!	-1	0	0	0	0	0	0
2024-06-11	09:19:38	09:24:06	267585	6.6.1	4_exp_EVA_AWA_CON	78	B	A	Rpleas_acq	Oppo	Rpleas	1pleas	acq_US_pleas_nomask	acq3_nomask	3	14	453	1	300	300	0	0	489	50	1	0	fair	schön	tolerant	schlau	helfen	freundlich	faul	schlecht	tyrannisch	schroff	hindern	fanatisch	loyal	treu	lachen	spielen	ehrlich	retten	lasch	tot	leiden	strafen	eitel	rächen	1	blank2r.bmp	0	1	+	0	1	blank2r.bmp	500	1	BMVZ	500	1	blank2r.bmp	880	5	helfen	880	1	!	1292	1	!	1390	0	0	0	0	0	0
2024-06-11	09:19:38	09:24:09	270001	6.6.1	4_exp_EVA_AWA_CON	78	B	A	Rpleas_acq	Oppo	Rpleas	1pleas	acq_US_unple_nomask	acq3_nomask	3	15	453	1	300	300	0	0	434	50	0	0	fair	schön	tolerant	schlau	helfen	freundlich	faul	schlecht	tyrannisch	schroff	hindern	fanatisch	loyal	treu	lachen	spielen	ehrlich	retten	lasch	tot	leiden	strafen	eitel	rächen	1	blank2r.bmp	0	1	+	0	1	blank2r.bmp	500	1	GKQX	500	1	blank2r.bmp	880	6	fanatisch	880	1	FEHLER	1626	1	!	1292	1	!	1335	0	0	0
2024-06-11	09:19:38	09:24:11	272183	6.6.1	4_exp_EVA_AWA_CON	78	B	A	Rpleas_acq	Oppo	Rpleas	1pleas	acq_US_pleas_nomask	acq3_nomask	3	16	453	0	300	300	0	0	606	50	1	0	fair	schön	tolerant	schlau	helfen	freundlich	faul	schlecht	tyrannisch	schroff	hindern	fanatisch	loyal	treu	lachen	spielen	ehrlich	retten	lasch	tot	leiden	strafen	eitel	rächen	1	blank2r.bmp	0	1	+	0	1	blank2r.bmp	500	1	BMVZ	500	1	blank2r.bmp	880	1	fair	880	1	!	1292	1	!	-1	0	0	0	0	0	0
2024-06-11	09:19:38	09:24:13	274352	6.6.1	4_exp_EVA_AWA_CON	78	B	A	Rpleas_acq	Oppo	Rpleas	1pleas	acq_US_unple_nomask	acq3_nomask	3	17	453	1	300	300	0	0	394	46	1	0	fair	schön	tolerant	schlau	helfen	freundlich	faul	schlecht	tyrannisch	schroff	hindern	fanatisch	loyal	treu	lachen	spielen	ehrlich	retten	lasch	tot	leiden	strafen	eitel	rächen	1	blank2r.bmp	0	1	+	0	1	blank2r.bmp	500	1	GKQX	500	1	blank2r.bmp	880	2	schlecht	880	1	!	1292	1	!	1293	0	0	0	0	0	0
2024-06-11	09:19:38	09:24:15	276608	6.6.1	4_exp_EVA_AWA_CON	78	B	A	Rpleas_acq	Oppo	Rpleas	1pleas	acq_US_pleas_nomask	acq3_nomask	3	18	453	1	300	300	0	0	477	50	1	0	fair	schön	tolerant	schlau	helfen	freundlich	faul	schlecht	tyrannisch	schroff	hindern	fanatisch	loyal	treu	lachen	spielen	ehrlich	retten	lasch	tot	leiden	strafen	eitel	rächen	1	blank2r.bmp	0	1	+	0	1	blank2r.bmp	500	1	BMVZ	500	1	blank2r.bmp	880	2	schön	880	1	!	1292	1	!	1378	0	0	0	0	0	0
2024-06-11	09:19:38	09:24:18	278873	6.6.1	4_exp_EVA_AWA_CON	78	B	A	Rpleas_acq	Oppo	Rpleas	1pleas	acq_US_unple_nomask	acq3_nomask	3	19	453	1	300	300	0	0	490	46	1	0	fair	schön	tolerant	schlau	helfen	freundlich	faul	schlecht	tyrannisch	schroff	hindern	fanatisch	loyal	treu	lachen	spielen	ehrlich	retten	lasch	tot	leiden	strafen	eitel	rächen	1	blank2r.bmp	0	1	+	0	1	blank2r.bmp	500	1	GKQX	500	1	blank2r.bmp	880	3	tyrannisch	880	1	!	1293	1	!	1391	0	0	0	0	0	0
2024-06-11	09:19:38	09:24:20	281385	6.6.1	4_exp_EVA_AWA_CON	78	B	A	Rpleas_acq	Oppo	Rpleas	1pleas	acq_US_pleas_nomask	acq3_nomask	3	20	453	0	300	300	0	0	530	46	0	0	fair	schön	tolerant	schlau	helfen	freundlich	faul	schlecht	tyrannisch	schroff	hindern	fanatisch	loyal	treu	lachen	spielen	ehrlich	retten	lasch	tot	leiden	strafen	eitel	rächen	1	blank2r.bmp	0	1	+	0	1	blank2r.bmp	500	1	BMVZ	500	1	blank2r.bmp	880	4	schlau	880	1	FEHLER	1722	1	!	1292	1	!	-1	0	0	0
2024-06-11	09:19:38	09:24:22	283703	6.6.1	4_exp_EVA_AWA_CON	78	B	A	Rpleas_acq	Oppo	Rpleas	1pleas	acq_US_pleas_nomask	acq3_nomask	3	21	453	0	300	300	0	0	749	50	1	0	fair	schön	tolerant	schlau	helfen	freundlich	faul	schlecht	tyrannisch	schroff	hindern	fanatisch	loyal	treu	lachen	spielen	ehrlich	retten	lasch	tot	leiden	strafen	eitel	rächen	1	blank2r.bmp	0	1	+	0	1	blank2r.bmp	500	1	BMVZ	500	1	blank2r.bmp	880	3	tolerant	880	1	!	1292	1	!	-1	0	0	0	0	0	0
2024-06-11	09:19:38	09:24:25	285937	6.6.1	4_exp_EVA_AWA_CON	78	B	A	Rpleas_acq	Oppo	Rpleas	1pleas	acq_US_unple_nomask	acq3_nomask	3	22	453	1	300	300	0	0	459	46	1	0	fair	schön	tolerant	schlau	helfen	freundlich	faul	schlecht	tyrannisch	schroff	hindern	fanatisch	loyal	treu	lachen	spielen	ehrlich	retten	lasch	tot	leiden	strafen	eitel	rächen	1	blank2r.bmp	0	1	+	0	1	blank2r.bmp	500	1	GKQX	500	1	blank2r.bmp	880	4	schroff	880	1	!	1293	1	!	1360	0	0	0	0	0	0
2024-06-11	09:19:38	09:24:27	288136	6.6.1	4_exp_EVA_AWA_CON	78	B	A	Rpleas_acq	Oppo	Rpleas	1pleas	acq_US_unple_nomask	acq3_nomask	3	23	453	1	300	300	0	0	418	46	1	0	fair	schön	tolerant	schlau	helfen	freundlich	faul	schlecht	tyrannisch	schroff	hindern	fanatisch	loyal	treu	lachen	spielen	ehrlich	retten	lasch	tot	leiden	strafen	eitel	rächen	1	blank2r.bmp	0	1	+	0	1	blank2r.bmp	500	1	GKQX	500	1	blank2r.bmp	880	1	faul	880	1	!	1292	1	!	1319	0	0	0	0	0	0
2024-06-11	09:19:38	09:24:29	290495	6.6.1	4_exp_EVA_AWA_CON	78	B	A	Rpleas_acq	Oppo	Rpleas	1pleas	acq_US_unple_nomask	acq3_nomask	3	24	453	0	300	300	0	0	586	46	1	0	fair	schön	tolerant	schlau	helfen	freundlich	faul	schlecht	tyrannisch	schroff	hindern	fanatisch	loyal	treu	lachen	spielen	ehrlich	retten	lasch	tot	leiden	strafen	eitel	rächen	1	blank2r.bmp	0	1	+	0	1	blank2r.bmp	500	1	GKQX	500	1	blank2r.bmp	880	5	hindern	880	1	!	1292	1	!	-1	0	0	0	0	0	0
2024-06-11	09:19:38	09:24:31	292768	6.6.1	4_exp_EVA_AWA_CON	78	B	A	Rpleas_acq	Oppo	Rpleas	1pleas	acq_US_unple_nomask	acq3_nomask	3	25	453	1	300	300	0	0	497	46	1	0	fair	schön	tolerant	schlau	helfen	freundlich	faul	schlecht	tyrannisch	schroff	hindern	fanatisch	loyal	treu	lachen	spielen	ehrlich	retten	lasch	tot	leiden	strafen	eitel	rächen	1	blank2r.bmp	0	1	+	0	1	blank2r.bmp	500	1	GKQX	500	1	blank2r.bmp	880	5	hindern	880	1	!	1292	1	!	1398	0	0	0	0	0	0
2024-06-11	09:19:38	09:24:34	295144	6.6.1	4_exp_EVA_AWA_CON	78	B	A	Rpleas_acq	Oppo	Rpleas	1pleas	acq_US_unple_nomask	acq3_nomask	3	26	453	1	300	300	0	0	401	50	0	0	fair	schön	tolerant	schlau	helfen	freundlich	faul	schlecht	tyrannisch	schroff	hindern	fanatisch	loyal	treu	lachen	spielen	ehrlich	retten	lasch	tot	leiden	strafen	eitel	rächen	1	blank2r.bmp	0	1	+	0	1	blank2r.bmp	500	1	GKQX	500	1	blank2r.bmp	880	1	faul	880	1	FEHLER	1593	1	!	1292	1	!	1301	0	0	0
2024-06-11	09:19:38	09:24:36	297119	6.6.1	4_exp_EVA_AWA_CON	78	B	A	Rpleas_acq	Oppo	Rpleas	1pleas	acq_US_pleas_nomask	acq3_nomask	3	27	453	1	300	300	0	0	396	50	1	0	fair	schön	tolerant	schlau	helfen	freundlich	faul	schlecht	tyrannisch	schroff	hindern	fanatisch	loyal	treu	lachen	spielen	ehrlich	retten	lasch	tot	leiden	strafen	eitel	rächen	1	blank2r.bmp	0	1	+	0	1	blank2r.bmp	500	1	BMVZ	500	1	blank2r.bmp	880	2	schön	880	1	!	1292	1	!	1295	0	0	0	0	0	0
2024-06-11	09:19:38	09:24:38	299506	6.6.1	4_exp_EVA_AWA_CON	78	B	A	Rpleas_acq	Oppo	Rpleas	1pleas	acq_US_pleas_nomask	acq3_nomask	3	28	453	1	300	300	0	0	409	46	0	0	fair	schön	tolerant	schlau	helfen	freundlich	faul	schlecht	tyrannisch	schroff	hindern	fanatisch	loyal	treu	lachen	spielen	ehrlich	retten	lasch	tot	leiden	strafen	eitel	rächen	1	blank2r.bmp	0	1	+	0	1	blank2r.bmp	500	1	BMVZ	500	1	blank2r.bmp	880	3	tolerant	880	1	FEHLER	1602	1	!	1293	1	!	1310	0	0	0
2024-06-11	09:19:38	09:24:40	301751	6.6.1	4_exp_EVA_AWA_CON	78	B	A	Rpleas_acq	Oppo	Rpleas	1pleas	acq_US_pleas_nomask	acq3_nomask	3	29	453	0	300	300	0	0	665	50	1	0	fair	schön	tolerant	schlau	helfen	freundlich	faul	schlecht	tyrannisch	schroff	hindern	fanatisch	loyal	treu	lachen	spielen	ehrlich	retten	lasch	tot	leiden	strafen	eitel	rächen	1	blank2r.bmp	0	1	+	0	1	blank2r.bmp	500	1	BMVZ	500	1	blank2r.bmp	880	5	helfen	880	1	!	1292	1	!	-1	0	0	0	0	0	0
2024-06-11	09:19:38	09:24:43	303921	6.6.1	4_exp_EVA_AWA_CON	78	B	A	Rpleas_acq	Oppo	Rpleas	1pleas	acq_US_unple_nomask	acq3_nomask	3	30	453	1	300	300	0	0	394	46	1	0	fair	schön	tolerant	schlau	helfen	freundlich	faul	schlecht	tyrannisch	schroff	hindern	fanatisch	loyal	treu	lachen	spielen	ehrlich	retten	lasch	tot	leiden	strafen	eitel	rächen	1	blank2r.bmp	0	1	+	0	1	blank2r.bmp	500	1	GKQX	500	1	blank2r.bmp	880	4	schroff	880	1	!	1292	1	!	1293	0	0	0	0	0	0
2024-06-11	09:19:38	09:24:45	306359	6.6.1	4_exp_EVA_AWA_CON	78	B	A	Rpleas_acq	Oppo	Rpleas	1pleas	acq_US_unple_nomask	acq3_nomask	3	31	453	0	300	300	0	0	660	46	1	0	fair	schön	tolerant	schlau	helfen	freundlich	faul	schlecht	tyrannisch	schroff	hindern	fanatisch	loyal	treu	lachen	spielen	ehrlich	retten	lasch	tot	leiden	strafen	eitel	rächen	1	blank2r.bmp	0	1	+	0	1	blank2r.bmp	500	1	GKQX	500	1	blank2r.bmp	880	6	fanatisch	880	1	!	1293	1	!	-1	0	0	0	0	0	0
2024-06-11	09:19:38	09:24:47	308687	6.6.1	4_exp_EVA_AWA_CON	78	B	A	Rpleas_acq	Oppo	Rpleas	1pleas	acq_US_unple_nomask	acq3_nomask	3	32	453	0	300	300	0	0	547	46	1	0	fair	schön	tolerant	schlau	helfen	freundlich	faul	schlecht	tyrannisch	schroff	hindern	fanatisch	loyal	treu	lachen	spielen	ehrlich	retten	lasch	tot	leiden	strafen	eitel	rächen	1	blank2r.bmp	0	1	+	0	1	blank2r.bmp	500	1	GKQX	500	1	blank2r.bmp	880	3	tyrannisch	880	1	!	1292	1	!	-1	0	0	0	0	0	0
2024-06-11	09:19:38	09:24:50	310968	6.6.1	4_exp_EVA_AWA_CON	78	B	A	Rpleas_acq	Oppo	Rpleas	1pleas	acq_US_pleas_nomask	acq3_nomask	3	33	453	1	300	300	0	0	505	50	1	0	fair	schön	tolerant	schlau	helfen	freundlich	faul	schlecht	tyrannisch	schroff	hindern	fanatisch	loyal	treu	lachen	spielen	ehrlich	retten	lasch	tot	leiden	strafen	eitel	rächen	1	blank2r.bmp	0	1	+	0	1	blank2r.bmp	500	1	BMVZ	500	1	blank2r.bmp	880	1	fair	880	1	!	1292	1	!	1406	0	0	0	0	0	0
2024-06-11	09:19:38	09:24:52	313152	6.6.1	4_exp_EVA_AWA_CON	78	B	A	Rpleas_acq	Oppo	Rpleas	1pleas	acq_US_unple_nomask	acq3_nomask	3	34	453	1	300	300	0	0	408	46	1	0	fair	schön	tolerant	schlau	helfen	freundlich	faul	schlecht	tyrannisch	schroff	hindern	fanatisch	loyal	treu	lachen	spielen	ehrlich	retten	lasch	tot	leiden	strafen	eitel	rächen	1	blank2r.bmp	0	1	+	0	1	blank2r.bmp	500	1	GKQX	500	1	blank2r.bmp	880	2	schlecht	880	1	!	1293	1	!	1309	0	0	0	0	0	0
2024-06-11	09:19:38	09:24:54	315503	6.6.1	4_exp_EVA_AWA_CON	78	B	A	Rpleas_acq	Oppo	Rpleas	1pleas	acq_US_pleas_nomask	acq3_nomask	3	35	453	0	300	300	0	0	578	50	1	0	fair	schön	tolerant	schlau	helfen	freundlich	faul	schlecht	tyrannisch	schroff	hindern	fanatisch	loyal	treu	lachen	spielen	ehrlich	retten	lasch	tot	leiden	strafen	eitel	rächen	1	blank2r.bmp	0	1	+	0	1	blank2r.bmp	500	1	BMVZ	500	1	blank2r.bmp	880	4	schlau	880	1	!	1292	1	!	-1	0	0	0	0	0	0
2024-06-11	09:19:38	09:24:56	317663	6.6.1	4_exp_EVA_AWA_CON	78	B	A	Rpleas_acq	Oppo	Rpleas	1pleas	acq_US_pleas_nomask	acq3_nomask	3	36	453	0	300	300	0	0	387	50	1	0	fair	schön	tolerant	schlau	helfen	freundlich	faul	schlecht	tyrannisch	schroff	hindern	fanatisch	loyal	treu	lachen	spielen	ehrlich	retten	lasch	tot	leiden	strafen	eitel	rächen	1	blank2r.bmp	0	1	+	0	1	blank2r.bmp	500	1	BMVZ	500	1	blank2r.bmp	880	6	freundlich	880	1	!	-1	1	!	-1	0	0	0	0	0	0
2024-06-11	09:19:38	09:25:05	326328	6.6.1	4_exp_EVA_AWA_CON	78	B	A	Rpleas_acq	Oppo	Rpleas	1pleas	acq_US_pleas_nomask	acq45_nomask	4	1	400	1	300	300	0	0	365	50	1	0	fair	schön	tolerant	schlau	helfen	freundlich	faul	schlecht	tyrannisch	schroff	hindern	fanatisch	loyal	treu	lachen	spielen	ehrlich	retten	lasch	tot	leiden	strafen	eitel	rächen	1	blank2r.bmp	0	1	+	0	1	blank2r.bmp	500	1	BMVZ	500	1	blank2r.bmp	880	6	freundlich	880	1	!	1232	1	!	1266	0	0	0	0	0	0
2024-06-11	09:19:38	09:25:07	328568	6.6.1	4_exp_EVA_AWA_CON	78	B	A	Rpleas_acq	Oppo	Rpleas	1pleas	acq_US_unple_nomask	acq45_nomask	4	2	400	1	300	300	0	0	464	46	1	0	fair	schön	tolerant	schlau	helfen	freundlich	faul	schlecht	tyrannisch	schroff	hindern	fanatisch	loyal	treu	lachen	spielen	ehrlich	retten	lasch	tot	leiden	strafen	eitel	rächen	1	blank2r.bmp	0	1	+	0	1	blank2r.bmp	500	1	GKQX	500	1	blank2r.bmp	880	1	faul	880	1	!	1232	1	!	1365	0	0	0	0	0	0
2024-06-11	09:19:38	09:25:10	330847	6.6.1	4_exp_EVA_AWA_CON	78	B	A	Rpleas_acq	Oppo	Rpleas	1pleas	acq_US_pleas_nomask	acq45_nomask	4	3	400	0	300	300	0	0	502	50	1	0	fair	schön	tolerant	schlau	helfen	freundlich	faul	schlecht	tyrannisch	schroff	hindern	fanatisch	loyal	treu	lachen	spielen	ehrlich	retten	lasch	tot	leiden	strafen	eitel	rächen	1	blank2r.bmp	0	1	+	0	1	blank2r.bmp	500	1	BMVZ	500	1	blank2r.bmp	880	4	schlau	880	1	!	1232	1	!	-1	0	0	0	0	0	0
2024-06-11	09:19:38	09:25:12	333049	6.6.1	4_exp_EVA_AWA_CON	78	B	A	Rpleas_acq	Oppo	Rpleas	1pleas	acq_US_unple_nomask	acq45_nomask	4	4	400	1	300	300	0	0	421	50	0	0	fair	schön	tolerant	schlau	helfen	freundlich	faul	schlecht	tyrannisch	schroff	hindern	fanatisch	loyal	treu	lachen	spielen	ehrlich	retten	lasch	tot	leiden	strafen	eitel	rächen	1	blank2r.bmp	0	1	+	0	1	blank2r.bmp	500	1	GKQX	500	1	blank2r.bmp	880	6	fanatisch	880	1	!	1232	1	!	1322	0	0	0	0	0	0
2024-06-11	09:19:38	09:25:14	335374	6.6.1	4_exp_EVA_AWA_CON	78	B	A	Rpleas_acq	Oppo	Rpleas	1pleas	acq_US_unple_nomask	acq45_nomask	4	5	400	0	300	300	0	0	547	46	1	0	fair	schön	tolerant	schlau	helfen	freundlich	faul	schlecht	tyrannisch	schroff	hindern	fanatisch	loyal	treu	lachen	spielen	ehrlich	retten	lasch	tot	leiden	strafen	eitel	rächen	1	blank2r.bmp	0	1	+	0	1	blank2r.bmp	500	1	GKQX	500	1	blank2r.bmp	880	4	schroff	880	1	!	1232	1	!	-1	0	0	0	0	0	0
2024-06-11	09:19:38	09:25:16	337687	6.6.1	4_exp_EVA_AWA_CON	78	B	A	Rpleas_acq	Oppo	Rpleas	1pleas	acq_US_unple_nomask	acq45_nomask	4	6	400	0	300	300	0	0	538	46	1	0	fair	schön	tolerant	schlau	helfen	freundlich	faul	schlecht	tyrannisch	schroff	hindern	fanatisch	loyal	treu	lachen	spielen	ehrlich	retten	lasch	tot	leiden	strafen	eitel	rächen	1	blank2r.bmp	0	1	+	0	1	blank2r.bmp	500	1	GKQX	500	1	blank2r.bmp	880	5	hindern	880	1	!	1233	1	!	-1	0	0	0	0	0	0
2024-06-11	09:19:38	09:25:18	339751	6.6.1	4_exp_EVA_AWA_CON	78	B	A	Rpleas_acq	Oppo	Rpleas	1pleas	acq_US_pleas_nomask	acq45_nomask	4	7	400	0	300	300	0	0	291	50	1	0	fair	schön	tolerant	schlau	helfen	freundlich	faul	schlecht	tyrannisch	schroff	hindern	fanatisch	loyal	treu	lachen	spielen	ehrlich	retten	lasch	tot	leiden	strafen	eitel	rächen	1	blank2r.bmp	0	1	+	0	1	blank2r.bmp	500	1	BMVZ	500	1	blank2r.bmp	880	2	schön	880	1	!	-1	1	!	-1	0	0	0	0	0	0
2024-06-11	09:19:38	09:25:21	342039	6.6.1	4_exp_EVA_AWA_CON	78	B	A	Rpleas_acq	Oppo	Rpleas	1pleas	acq_US_pleas_nomask	acq45_nomask	4	8	400	0	300	300	0	0	507	50	1	0	fair	schön	tolerant	schlau	helfen	freundlich	faul	schlecht	tyrannisch	schroff	hindern	fanatisch	loyal	treu	lachen	spielen	ehrlich	retten	lasch	tot	leiden	strafen	eitel	rächen	1	blank2r.bmp	0	1	+	0	1	blank2r.bmp	500	1	BMVZ	500	1	blank2r.bmp	880	1	fair	880	1	!	1232	1	!	-1	0	0	0	0	0	0
2024-06-11	09:19:38	09:25:23	344240	6.6.1	4_exp_EVA_AWA_CON	78	B	A	Rpleas_acq	Oppo	Rpleas	1pleas	acq_US_pleas_nomask	acq45_nomask	4	9	400	1	300	300	0	0	426	46	0	0	fair	schön	tolerant	schlau	helfen	freundlich	faul	schlecht	tyrannisch	schroff	hindern	fanatisch	loyal	treu	lachen	spielen	ehrlich	retten	lasch	tot	leiden	strafen	eitel	rächen	1	blank2r.bmp	0	1	+	0	1	blank2r.bmp	500	1	BMVZ	500	1	blank2r.bmp	880	3	tolerant	880	1	!	1233	1	!	1327	0	0	0	0	0	0
2024-06-11	09:19:38	09:25:25	346480	6.6.1	4_exp_EVA_AWA_CON	78	B	A	Rpleas_acq	Oppo	Rpleas	1pleas	acq_US_pleas_nomask	acq45_nomask	4	10	400	1	300	300	0	0	464	50	1	0	fair	schön	tolerant	schlau	helfen	freundlich	faul	schlecht	tyrannisch	schroff	hindern	fanatisch	loyal	treu	lachen	spielen	ehrlich	retten	lasch	tot	leiden	strafen	eitel	rächen	1	blank2r.bmp	0	1	+	0	1	blank2r.bmp	500	1	BMVZ	500	1	blank2r.bmp	880	5	helfen	880	1	!	1232	1	!	1365	0	0	0	0	0	0
2024-06-11	09:19:38	09:25:28	348767	6.6.1	4_exp_EVA_AWA_CON	78	B	A	Rpleas_acq	Oppo	Rpleas	1pleas	acq_US_unple_nomask	acq45_nomask	4	11	400	0	300	300	0	0	511	46	1	0	fair	schön	tolerant	schlau	helfen	freundlich	faul	schlecht	tyrannisch	schroff	hindern	fanatisch	loyal	treu	lachen	spielen	ehrlich	retten	lasch	tot	leiden	strafen	eitel	rächen	1	blank2r.bmp	0	1	+	0	1	blank2r.bmp	500	1	GKQX	500	1	blank2r.bmp	880	3	tyrannisch	880	1	!	1232	1	!	-1	0	0	0	0	0	0
2024-06-11	09:19:38	09:25:30	351039	6.6.1	4_exp_EVA_AWA_CON	78	B	A	Rpleas_acq	Oppo	Rpleas	1pleas	acq_US_pleas_nomask	acq45_nomask	4	12	400	0	300	300	0	0	491	50	1	0	fair	schön	tolerant	schlau	helfen	freundlich	faul	schlecht	tyrannisch	schroff	hindern	fanatisch	loyal	treu	lachen	spielen	ehrlich	retten	lasch	tot	leiden	strafen	eitel	rächen	1	blank2r.bmp	0	1	+	0	1	blank2r.bmp	500	1	BMVZ	500	1	blank2r.bmp	880	2	schön	880	1	!	1233	1	!	-1	0	0	0	0	0	0
2024-06-11	09:19:38	09:25:32	353192	6.6.1	4_exp_EVA_AWA_CON	78	B	A	Rpleas_acq	Oppo	Rpleas	1pleas	acq_US_pleas_nomask	acq45_nomask	4	13	400	1	300	300	0	0	372	50	1	0	fair	schön	tolerant	schlau	helfen	freundlich	faul	schlecht	tyrannisch	schroff	hindern	fanatisch	loyal	treu	lachen	spielen	ehrlich	retten	lasch	tot	leiden	strafen	eitel	rächen	1	blank2r.bmp	0	1	+	0	1	blank2r.bmp	500	1	BMVZ	500	1	blank2r.bmp	880	6	freundlich	880	1	!	1232	1	!	1273	0	0	0	0	0	0
2024-06-11	09:19:38	09:25:34	355368	6.6.1	4_exp_EVA_AWA_CON	78	B	A	Rpleas_acq	Oppo	Rpleas	1pleas	acq_US_pleas_nomask	acq45_nomask	4	14	400	1	300	300	0	0	397	46	0	0	fair	schön	tolerant	schlau	helfen	freundlich	faul	schlecht	tyrannisch	schroff	hindern	fanatisch	loyal	treu	lachen	spielen	ehrlich	retten	lasch	tot	leiden	strafen	eitel	rächen	1	blank2r.bmp	0	1	+	0	1	blank2r.bmp	500	1	BMVZ	500	1	blank2r.bmp	880	1	fair	880	1	!	1232	1	!	1297	0	0	0	0	0	0
2024-06-11	09:19:38	09:25:36	357585	6.6.1	4_exp_EVA_AWA_CON	78	B	A	Rpleas_acq	Oppo	Rpleas	1pleas	acq_US_unple_nomask	acq45_nomask	4	15	400	1	300	300	0	0	441	46	1	0	fair	schön	tolerant	schlau	helfen	freundlich	faul	schlecht	tyrannisch	schroff	hindern	fanatisch	loyal	treu	lachen	spielen	ehrlich	retten	lasch	tot	leiden	strafen	eitel	rächen	1	blank2r.bmp	0	1	+	0	1	blank2r.bmp	500	1	GKQX	500	1	blank2r.bmp	880	2	schlecht	880	1	!	1232	1	!	1342	0	0	0	0	0	0
2024-06-11	09:19:38	09:25:38	359679	6.6.1	4_exp_EVA_AWA_CON	78	B	A	Rpleas_acq	Oppo	Rpleas	1pleas	acq_US_unple_nomask	acq45_nomask	4	16	400	0	300	300	0	0	316	50	0	0	fair	schön	tolerant	schlau	helfen	freundlich	faul	schlecht	tyrannisch	schroff	hindern	fanatisch	loyal	treu	lachen	spielen	ehrlich	retten	lasch	tot	leiden	strafen	eitel	rächen	1	blank2r.bmp	0	1	+	0	1	blank2r.bmp	500	1	GKQX	500	1	blank2r.bmp	880	5	hindern	880	1	!	-1	1	!	-1	0	0	0	0	0	0
2024-06-11	09:19:38	09:25:41	361920	6.6.1	4_exp_EVA_AWA_CON	78	B	A	Rpleas_acq	Oppo	Rpleas	1pleas	acq_US_unple_nomask	acq45_nomask	4	17	400	1	300	300	0	0	465	46	1	0	fair	schön	tolerant	schlau	helfen	freundlich	faul	schlecht	tyrannisch	schroff	hindern	fanatisch	loyal	treu	lachen	spielen	ehrlich	retten	lasch	tot	leiden	strafen	eitel	rächen	1	blank2r.bmp	0	1	+	0	1	blank2r.bmp	500	1	GKQX	500	1	blank2r.bmp	880	4	schroff	880	1	!	1233	1	!	1365	0	0	0	0	0	0
2024-06-11	09:19:38	09:25:43	364198	6.6.1	4_exp_EVA_AWA_CON	78	B	A	Rpleas_acq	Oppo	Rpleas	1pleas	acq_US_unple_nomask	acq45_nomask	4	18	400	0	300	300	0	0	503	50	0	0	fair	schön	tolerant	schlau	helfen	freundlich	faul	schlecht	tyrannisch	schroff	hindern	fanatisch	loyal	treu	lachen	spielen	ehrlich	retten	lasch	tot	leiden	strafen	eitel	rächen	1	blank2r.bmp	0	1	+	0	1	blank2r.bmp	500	1	GKQX	500	1	blank2r.bmp	880	6	fanatisch	880	1	!	1232	1	!	-1	0	0	0	0	0	0
2024-06-11	09:19:38	09:25:45	366487	6.6.1	4_exp_EVA_AWA_CON	78	B	A	Rpleas_acq	Oppo	Rpleas	1pleas	acq_US_pleas_nomask	acq45_nomask	4	19	400	0	300	300	0	0	510	50	1	0	fair	schön	tolerant	schlau	helfen	freundlich	faul	schlecht	tyrannisch	schroff	hindern	fanatisch	loyal	treu	lachen	spielen	ehrlich	retten	lasch	tot	leiden	strafen	eitel	rächen	1	blank2r.bmp	0	1	+	0	1	blank2r.bmp	500	1	BMVZ	500	1	blank2r.bmp	880	5	helfen	880	1	!	1232	1	!	-1	0	0	0	0	0	0
2024-06-11	09:19:38	09:25:48	368774	6.6.1	4_exp_EVA_AWA_CON	78	B	A	Rpleas_acq	Oppo	Rpleas	1pleas	acq_US_unple_nomask	acq45_nomask	4	20	400	0	300	300	0	0	506	46	1	0	fair	schön	tolerant	schlau	helfen	freundlich	faul	schlecht	tyrannisch	schroff	hindern	fanatisch	loyal	treu	lachen	spielen	ehrlich	retten	lasch	tot	leiden	strafen	eitel	rächen	1	blank2r.bmp	0	1	+	0	1	blank2r.bmp	500	1	GKQX	500	1	blank2r.bmp	880	1	faul	880	1	!	1232	1	!	-1	0	0	0	0	0	0
2024-06-11	09:19:38	09:25:50	370855	6.6.1	4_exp_EVA_AWA_CON	78	B	A	Rpleas_acq	Oppo	Rpleas	1pleas	acq_US_pleas_nomask	acq45_nomask	4	21	400	0	300	300	0	0	305	50	1	0	fair	schön	tolerant	schlau	helfen	freundlich	faul	schlecht	tyrannisch	schroff	hindern	fanatisch	loyal	treu	lachen	spielen	ehrlich	retten	lasch	tot	leiden	strafen	eitel	rächen	1	blank2r.bmp	0	1	+	0	1	blank2r.bmp	500	1	BMVZ	500	1	blank2r.bmp	880	4	schlau	880	1	!	-1	1	!	-1	0	0	0	0	0	0
2024-06-11	09:19:38	09:25:52	373080	6.6.1	4_exp_EVA_AWA_CON	78	B	A	Rpleas_acq	Oppo	Rpleas	1pleas	acq_US_pleas_nomask	acq45_nomask	4	22	400	1	300	300	0	0	447	46	0	0	fair	schön	tolerant	schlau	helfen	freundlich	faul	schlecht	tyrannisch	schroff	hindern	fanatisch	loyal	treu	lachen	spielen	ehrlich	retten	lasch	tot	leiden	strafen	eitel	rächen	1	blank2r.bmp	0	1	+	0	1	blank2r.bmp	500	1	BMVZ	500	1	blank2r.bmp	880	3	tolerant	880	1	!	1232	1	!	1348	0	0	0	0	0	0
2024-06-11	09:19:38	09:25:54	375280	6.6.1	4_exp_EVA_AWA_CON	78	B	A	Rpleas_acq	Oppo	Rpleas	1pleas	acq_US_unple_nomask	acq45_nomask	4	23	400	1	300	300	0	0	426	50	0	0	fair	schön	tolerant	schlau	helfen	freundlich	faul	schlecht	tyrannisch	schroff	hindern	fanatisch	loyal	treu	lachen	spielen	ehrlich	retten	lasch	tot	leiden	strafen	eitel	rächen	1	blank2r.bmp	0	1	+	0	1	blank2r.bmp	500	1	GKQX	500	1	blank2r.bmp	880	3	tyrannisch	880	1	!	1232	1	!	1327	0	0	0	0	0	0
2024-06-11	09:19:38	09:25:56	377497	6.6.1	4_exp_EVA_AWA_CON	78	B	A	Rpleas_acq	Oppo	Rpleas	1pleas	acq_US_unple_nomask	acq45_nomask	4	24	400	1	300	300	0	0	440	46	1	0	fair	schön	tolerant	schlau	helfen	freundlich	faul	schlecht	tyrannisch	schroff	hindern	fanatisch	loyal	treu	lachen	spielen	ehrlich	retten	lasch	tot	leiden	strafen	eitel	rächen	1	blank2r.bmp	0	1	+	0	1	blank2r.bmp	500	1	GKQX	500	1	blank2r.bmp	880	2	schlecht	880	1	!	1232	1	!	1342	0	0	0	0	0	0
2024-06-11	09:19:38	09:25:58	379672	6.6.1	4_exp_EVA_AWA_CON	78	B	A	Rpleas_acq	Oppo	Rpleas	1pleas	acq_US_unple_nomask	acq45_nomask	4	25	400	1	300	300	0	0	395	46	1	0	fair	schön	tolerant	schlau	helfen	freundlich	faul	schlecht	tyrannisch	schroff	hindern	fanatisch	loyal	treu	lachen	spielen	ehrlich	retten	lasch	tot	leiden	strafen	eitel	rächen	1	blank2r.bmp	0	1	+	0	1	blank2r.bmp	500	1	GKQX	500	1	blank2r.bmp	880	2	schlecht	880	1	!	1232	1	!	1296	0	0	0	0	0	0
2024-06-11	09:19:38	09:26:01	381942	6.6.1	4_exp_EVA_AWA_CON	78	B	A	Rpleas_acq	Oppo	Rpleas	1pleas	acq_US_unple_nomask	acq45_nomask	4	26	400	0	300	300	0	0	496	46	1	0	fair	schön	tolerant	schlau	helfen	freundlich	faul	schlecht	tyrannisch	schroff	hindern	fanatisch	loyal	treu	lachen	spielen	ehrlich	retten	lasch	tot	leiden	strafen	eitel	rächen	1	blank2r.bmp	0	1	+	0	1	blank2r.bmp	500	1	GKQX	500	1	blank2r.bmp	880	5	hindern	880	1	!	1232	1	!	-1	0	0	0	0	0	0
2024-06-11	09:19:38	09:26:03	384055	6.6.1	4_exp_EVA_AWA_CON	78	B	A	Rpleas_acq	Oppo	Rpleas	1pleas	acq_US_pleas_nomask	acq45_nomask	4	27	400	1	300	300	0	0	336	50	1	0	fair	schön	tolerant	schlau	helfen	freundlich	faul	schlecht	tyrannisch	schroff	hindern	fanatisch	loyal	treu	lachen	spielen	ehrlich	retten	lasch	tot	leiden	strafen	eitel	rächen	1	blank2r.bmp	0	1	+	0	1	blank2r.bmp	500	1	BMVZ	500	1	blank2r.bmp	880	6	freundlich	880	1	!	1232	1	!	1235	0	0	0	0	0	0
2024-06-11	09:19:38	09:26:05	386281	6.6.1	4_exp_EVA_AWA_CON	78	B	A	Rpleas_acq	Oppo	Rpleas	1pleas	acq_US_unple_nomask	acq45_nomask	4	28	400	1	300	300	0	0	449	46	1	0	fair	schön	tolerant	schlau	helfen	freundlich	faul	schlecht	tyrannisch	schroff	hindern	fanatisch	loyal	treu	lachen	spielen	ehrlich	retten	lasch	tot	leiden	strafen	eitel	rächen	1	blank2r.bmp	0	1	+	0	1	blank2r.bmp	500	1	GKQX	500	1	blank2r.bmp	880	4	schroff	880	1	!	1232	1	!	1349	0	0	0	0	0	0
2024-06-11	09:19:38	09:26:07	388391	6.6.1	4_exp_EVA_AWA_CON	78	B	A	Rpleas_acq	Oppo	Rpleas	1pleas	acq_US_unple_nomask	acq45_nomask	4	29	400	0	300	300	0	0	329	50	0	0	fair	schön	tolerant	schlau	helfen	freundlich	faul	schlecht	tyrannisch	schroff	hindern	fanatisch	loyal	treu	lachen	spielen	ehrlich	retten	lasch	tot	leiden	strafen	eitel	rächen	1	blank2r.bmp	0	1	+	0	1	blank2r.bmp	500	1	GKQX	500	1	blank2r.bmp	880	1	faul	880	1	!	-1	1	!	-1	0	0	0	0	0	0
2024-06-11	09:19:38	09:26:09	390576	6.6.1	4_exp_EVA_AWA_CON	78	B	A	Rpleas_acq	Oppo	Rpleas	1pleas	acq_US_pleas_nomask	acq45_nomask	4	30	400	1	300	300	0	0	412	50	1	0	fair	schön	tolerant	schlau	helfen	freundlich	faul	schlecht	tyrannisch	schroff	hindern	fanatisch	loyal	treu	lachen	spielen	ehrlich	retten	lasch	tot	leiden	strafen	eitel	rächen	1	blank2r.bmp	0	1	+	0	1	blank2r.bmp	500	1	BMVZ	500	1	blank2r.bmp	880	5	helfen	880	1	!	1232	1	!	1313	0	0	0	0	0	0
2024-06-11	09:19:38	09:26:11	392720	6.6.1	4_exp_EVA_AWA_CON	78	B	A	Rpleas_acq	Oppo	Rpleas	1pleas	acq_US_pleas_nomask	acq45_nomask	4	31	400	1	300	300	0	0	365	50	1	0	fair	schön	tolerant	schlau	helfen	freundlich	faul	schlecht	tyrannisch	schroff	hindern	fanatisch	loyal	treu	lachen	spielen	ehrlich	retten	lasch	tot	leiden	strafen	eitel	rächen	1	blank2r.bmp	0	1	+	0	1	blank2r.bmp	500	1	BMVZ	500	1	blank2r.bmp	880	2	schön	880	1	!	1232	1	!	1265	0	0	0	0	0	0
2024-06-11	09:19:38	09:26:14	394807	6.6.1	4_exp_EVA_AWA_CON	78	B	A	Rpleas_acq	Oppo	Rpleas	1pleas	acq_US_unple_nomask	acq45_nomask	4	32	400	0	300	300	0	0	311	46	1	0	fair	schön	tolerant	schlau	helfen	freundlich	faul	schlecht	tyrannisch	schroff	hindern	fanatisch	loyal	treu	lachen	spielen	ehrlich	retten	lasch	tot	leiden	strafen	eitel	rächen	1	blank2r.bmp	0	1	+	0	1	blank2r.bmp	500	1	GKQX	500	1	blank2r.bmp	880	3	tyrannisch	880	1	!	-1	1	!	-1	0	0	0	0	0	0
2024-06-11	09:19:38	09:26:16	397024	6.6.1	4_exp_EVA_AWA_CON	78	B	A	Rpleas_acq	Oppo	Rpleas	1pleas	acq_US_pleas_nomask	acq45_nomask	4	33	400	1	300	300	0	0	436	46	0	0	fair	schön	tolerant	schlau	helfen	freundlich	faul	schlecht	tyrannisch	schroff	hindern	fanatisch	loyal	treu	lachen	spielen	ehrlich	retten	lasch	tot	leiden	strafen	eitel	rächen	1	blank2r.bmp	0	1	+	0	1	blank2r.bmp	500	1	BMVZ	500	1	blank2r.bmp	880	4	schlau	880	1	!	1232	1	!	1337	0	0	0	0	0	0
2024-06-11	09:19:38	09:26:18	399152	6.6.1	4_exp_EVA_AWA_CON	78	B	A	Rpleas_acq	Oppo	Rpleas	1pleas	acq_US_pleas_nomask	acq45_nomask	4	34	400	1	300	300	0	0	352	46	0	0	fair	schön	tolerant	schlau	helfen	freundlich	faul	schlecht	tyrannisch	schroff	hindern	fanatisch	loyal	treu	lachen	spielen	ehrlich	retten	lasch	tot	leiden	strafen	eitel	rächen	1	blank2r.bmp	0	1	+	0	1	blank2r.bmp	500	1	BMVZ	500	1	blank2r.bmp	880	3	tolerant	880	1	!	1232	1	!	1253	0	0	0	0	0	0
2024-06-11	09:19:38	09:26:20	401368	6.6.1	4_exp_EVA_AWA_CON	78	B	A	Rpleas_acq	Oppo	Rpleas	1pleas	acq_US_unple_nomask	acq45_nomask	4	35	400	1	300	300	0	0	437	50	0	0	fair	schön	tolerant	schlau	helfen	freundlich	faul	schlecht	tyrannisch	schroff	hindern	fanatisch	loyal	treu	lachen	spielen	ehrlich	retten	lasch	tot	leiden	strafen	eitel	rächen	1	blank2r.bmp	0	1	+	0	1	blank2r.bmp	500	1	GKQX	500	1	blank2r.bmp	880	6	fanatisch	880	1	!	1232	1	!	1338	0	0	0	0	0	0
2024-06-11	09:19:38	09:26:22	403663	6.6.1	4_exp_EVA_AWA_CON	78	B	A	Rpleas_acq	Oppo	Rpleas	1pleas	acq_US_pleas_nomask	acq45_nomask	4	36	400	0	300	300	0	0	522	50	1	0	fair	schön	tolerant	schlau	helfen	freundlich	faul	schlecht	tyrannisch	schroff	hindern	fanatisch	loyal	treu	lachen	spielen	ehrlich	retten	lasch	tot	leiden	strafen	eitel	rächen	1	blank2r.bmp	0	1	+	0	1	blank2r.bmp	500	1	BMVZ	500	1	blank2r.bmp	880	1	fair	880	1	!	1232	1	!	-1	0	0	0	0	0	0
2024-06-11	09:19:38	09:26:30	411334	6.6.1	4_exp_EVA_AWA_CON	78	B	A	Rpleas_acq	Oppo	Rpleas	1pleas	acq_US_unple_nomask	acq45_nomask	5	1	400	0	300	300	0	0	519	46	1	0	fair	schön	tolerant	schlau	helfen	freundlich	faul	schlecht	tyrannisch	schroff	hindern	fanatisch	loyal	treu	lachen	spielen	ehrlich	retten	lasch	tot	leiden	strafen	eitel	rächen	1	blank2r.bmp	0	1	+	0	1	blank2r.bmp	500	1	GKQX	500	1	blank2r.bmp	880	3	tyrannisch	880	1	!	1232	1	!	-1	0	0	0	0	0	0
2024-06-11	09:19:38	09:26:32	413439	6.6.1	4_exp_EVA_AWA_CON	78	B	A	Rpleas_acq	Oppo	Rpleas	1pleas	acq_US_unple_nomask	acq45_nomask	5	2	400	0	300	300	0	0	330	50	0	0	fair	schön	tolerant	schlau	helfen	freundlich	faul	schlecht	tyrannisch	schroff	hindern	fanatisch	loyal	treu	lachen	spielen	ehrlich	retten	lasch	tot	leiden	strafen	eitel	rächen	1	blank2r.bmp	0	1	+	0	1	blank2r.bmp	500	1	GKQX	500	1	blank2r.bmp	880	4	schroff	880	1	!	-1	1	!	-1	0	0	0	0	0	0
2024-06-11	09:19:38	09:26:34	415584	6.6.1	4_exp_EVA_AWA_CON	78	B	A	Rpleas_acq	Oppo	Rpleas	1pleas	acq_US_pleas_nomask	acq45_nomask	5	3	400	1	300	300	0	0	364	50	1	0	fair	schön	tolerant	schlau	helfen	freundlich	faul	schlecht	tyrannisch	schroff	hindern	fanatisch	loyal	treu	lachen	spielen	ehrlich	retten	lasch	tot	leiden	strafen	eitel	rächen	1	blank2r.bmp	0	1	+	0	1	blank2r.bmp	500	1	BMVZ	500	1	blank2r.bmp	880	4	schlau	880	1	!	1232	1	!	1265	0	0	0	0	0	0
2024-06-11	09:19:38	09:26:37	417878	6.6.1	4_exp_EVA_AWA_CON	78	B	A	Rpleas_acq	Oppo	Rpleas	1pleas	acq_US_unple_nomask	acq45_nomask	5	4	400	0	300	300	0	0	519	46	1	0	fair	schön	tolerant	schlau	helfen	freundlich	faul	schlecht	tyrannisch	schroff	hindern	fanatisch	loyal	treu	lachen	spielen	ehrlich	retten	lasch	tot	leiden	strafen	eitel	rächen	1	blank2r.bmp	0	1	+	0	1	blank2r.bmp	500	1	GKQX	500	1	blank2r.bmp	880	5	hindern	880	1	!	1232	1	!	-1	0	0	0	0	0	0
2024-06-11	09:19:38	09:26:39	420088	6.6.1	4_exp_EVA_AWA_CON	78	B	A	Rpleas_acq	Oppo	Rpleas	1pleas	acq_US_pleas_nomask	acq45_nomask	5	5	400	1	300	300	0	0	435	50	1	0	fair	schön	tolerant	schlau	helfen	freundlich	faul	schlecht	tyrannisch	schroff	hindern	fanatisch	loyal	treu	lachen	spielen	ehrlich	retten	lasch	tot	leiden	strafen	eitel	rächen	1	blank2r.bmp	0	1	+	0	1	blank2r.bmp	500	1	BMVZ	500	1	blank2r.bmp	880	5	helfen	880	1	!	1232	1	!	1336	0	0	0	0	0	0
2024-06-11	09:19:38	09:26:41	422367	6.6.1	4_exp_EVA_AWA_CON	78	B	A	Rpleas_acq	Oppo	Rpleas	1pleas	acq_US_pleas_nomask	acq45_nomask	5	6	400	0	300	300	0	0	504	50	1	0	fair	schön	tolerant	schlau	helfen	freundlich	faul	schlecht	tyrannisch	schroff	hindern	fanatisch	loyal	treu	lachen	spielen	ehrlich	retten	lasch	tot	leiden	strafen	eitel	rächen	1	blank2r.bmp	0	1	+	0	1	blank2r.bmp	500	1	BMVZ	500	1	blank2r.bmp	880	1	fair	880	1	!	1232	1	!	-1	0	0	0	0	0	0
2024-06-11	09:19:38	09:26:43	424687	6.6.1	4_exp_EVA_AWA_CON	78	B	A	Rpleas_acq	Oppo	Rpleas	1pleas	acq_US_unple_nomask	acq45_nomask	5	7	400	0	300	300	0	0	542	50	0	0	fair	schön	tolerant	schlau	helfen	freundlich	faul	schlecht	tyrannisch	schroff	hindern	fanatisch	loyal	treu	lachen	spielen	ehrlich	retten	lasch	tot	leiden	strafen	eitel	rächen	1	blank2r.bmp	0	1	+	0	1	blank2r.bmp	500	1	GKQX	500	1	blank2r.bmp	880	6	fanatisch	880	1	!	1232	1	!	-1	0	0	0	0	0	0
2024-06-11	09:19:38	09:26:46	426897	6.6.1	4_exp_EVA_AWA_CON	78	B	A	Rpleas_acq	Oppo	Rpleas	1pleas	acq_US_pleas_nomask	acq45_nomask	5	8	400	1	300	300	0	0	429	50	1	0	fair	schön	tolerant	schlau	helfen	freundlich	faul	schlecht	tyrannisch	schroff	hindern	fanatisch	loyal	treu	lachen	spielen	ehrlich	retten	lasch	tot	leiden	strafen	eitel	rächen	1	blank2r.bmp	0	1	+	0	1	blank2r.bmp	500	1	BMVZ	500	1	blank2r.bmp	880	6	freundlich	880	1	!	1232	1	!	1329	0	0	0	0	0	0
2024-06-11	09:19:38	09:26:48	429049	6.6.1	4_exp_EVA_AWA_CON	78	B	A	Rpleas_acq	Oppo	Rpleas	1pleas	acq_US_unple_nomask	acq45_nomask	5	9	400	1	300	300	0	0	369	46	1	0	fair	schön	tolerant	schlau	helfen	freundlich	faul	schlecht	tyrannisch	schroff	hindern	fanatisch	loyal	treu	lachen	spielen	ehrlich	retten	lasch	tot	leiden	strafen	eitel	rächen	1	blank2r.bmp	0	1	+	0	1	blank2r.bmp	500	1	GKQX	500	1	blank2r.bmp	880	2	schlecht	880	1	!	1233	1	!	1270	0	0	0	0	0	0
2024-06-11	09:19:38	09:26:50	431272	6.6.1	4_exp_EVA_AWA_CON	78	B	A	Rpleas_acq	Oppo	Rpleas	1pleas	acq_US_unple_nomask	acq45_nomask	5	10	400	1	300	300	0	0	442	46	1	0	fair	schön	tolerant	schlau	helfen	freundlich	faul	schlecht	tyrannisch	schroff	hindern	fanatisch	loyal	treu	lachen	spielen	ehrlich	retten	lasch	tot	leiden	strafen	eitel	rächen	1	blank2r.bmp	0	1	+	0	1	blank2r.bmp	500	1	GKQX	500	1	blank2r.bmp	880	1	faul	880	1	!	1232	1	!	1343	0	0	0	0	0	0
2024-06-11	09:19:38	09:26:52	433351	6.6.1	4_exp_EVA_AWA_CON	78	B	A	Rpleas_acq	Oppo	Rpleas	1pleas	acq_US_pleas_nomask	acq45_nomask	5	11	400	0	300	300	0	0	300	50	1	0	fair	schön	tolerant	schlau	helfen	freundlich	faul	schlecht	tyrannisch	schroff	hindern	fanatisch	loyal	treu	lachen	spielen	ehrlich	retten	lasch	tot	leiden	strafen	eitel	rächen	1	blank2r.bmp	0	1	+	0	1	blank2r.bmp	500	1	BMVZ	500	1	blank2r.bmp	880	2	schön	880	1	!	-1	1	!	-1	0	0	0	0	0	0
2024-06-11	09:19:38	09:26:54	435630	6.6.1	4_exp_EVA_AWA_CON	78	B	A	Rpleas_acq	Oppo	Rpleas	1pleas	acq_US_unple_nomask	acq45_nomask	5	12	400	0	300	300	0	0	499	46	1	0	fair	schön	tolerant	schlau	helfen	freundlich	faul	schlecht	tyrannisch	schroff	hindern	fanatisch	loyal	treu	lachen	spielen	ehrlich	retten	lasch	tot	leiden	strafen	eitel	rächen	1	blank2r.bmp	0	1	+	0	1	blank2r.bmp	500	1	GKQX	500	1	blank2r.bmp	880	2	schlecht	880	1	!	1232	1	!	-1	0	0	0	0	0	0
2024-06-11	09:19:38	09:26:56	437743	6.6.1	4_exp_EVA_AWA_CON	78	B	A	Rpleas_acq	Oppo	Rpleas	1pleas	acq_US_pleas_nomask	acq45_nomask	5	13	400	1	300	300	0	0	340	50	1	0	fair	schön	tolerant	schlau	helfen	freundlich	faul	schlecht	tyrannisch	schroff	hindern	fanatisch	loyal	treu	lachen	spielen	ehrlich	retten	lasch	tot	leiden	strafen	eitel	rächen	1	blank2r.bmp	0	1	+	0	1	blank2r.bmp	500	1	BMVZ	500	1	blank2r.bmp	880	3	tolerant	880	1	!	1232	1	!	1239	0	0	0	0	0	0
2024-06-11	09:19:38	09:26:59	439905	6.6.1	4_exp_EVA_AWA_CON	78	B	A	Rpleas_acq	Oppo	Rpleas	1pleas	acq_US_pleas_nomask	acq45_nomask	5	14	400	1	300	300	0	0	388	50	1	0	fair	schön	tolerant	schlau	helfen	freundlich	faul	schlecht	tyrannisch	schroff	hindern	fanatisch	loyal	treu	lachen	spielen	ehrlich	retten	lasch	tot	leiden	strafen	eitel	rächen	1	blank2r.bmp	0	1	+	0	1	blank2r.bmp	500	1	BMVZ	500	1	blank2r.bmp	880	6	freundlich	880	1	!	1232	1	!	1289	0	0	0	0	0	0
2024-06-11	09:19:38	09:27:01	442247	6.6.1	4_exp_EVA_AWA_CON	78	B	A	Rpleas_acq	Oppo	Rpleas	1pleas	acq_US_unple_nomask	acq45_nomask	5	15	400	0	300	300	0	0	561	46	1	0	fair	schön	tolerant	schlau	helfen	freundlich	faul	schlecht	tyrannisch	schroff	hindern	fanatisch	loyal	treu	lachen	spielen	ehrlich	retten	lasch	tot	leiden	strafen	eitel	rächen	1	blank2r.bmp	0	1	+	0	1	blank2r.bmp	500	1	GKQX	500	1	blank2r.bmp	880	4	schroff	880	1	!	1232	1	!	-1	0	0	0	0	0	0
2024-06-11	09:19:38	09:27:03	444489	6.6.1	4_exp_EVA_AWA_CON	78	B	A	Rpleas_acq	Oppo	Rpleas	1pleas	acq_US_pleas_nomask	acq45_nomask	5	16	400	1	300	300	0	0	459	50	1	0	fair	schön	tolerant	schlau	helfen	freundlich	faul	schlecht	tyrannisch	schroff	hindern	fanatisch	loyal	treu	lachen	spielen	ehrlich	retten	lasch	tot	leiden	strafen	eitel	rächen	1	blank2r.bmp	0	1	+	0	1	blank2r.bmp	500	1	BMVZ	500	1	blank2r.bmp	880	4	schlau	880	1	!	1232	1	!	1360	0	0	0	0	0	0
2024-06-11	09:19:38	09:27:05	446728	6.6.1	4_exp_EVA_AWA_CON	78	B	A	Rpleas_acq	Oppo	Rpleas	1pleas	acq_US_unple_nomask	acq45_nomask	5	17	400	1	300	300	0	0	458	46	1	0	fair	schön	tolerant	schlau	helfen	freundlich	faul	schlecht	tyrannisch	schroff	hindern	fanatisch	loyal	treu	lachen	spielen	ehrlich	retten	lasch	tot	leiden	strafen	eitel	rächen	1	blank2r.bmp	0	1	+	0	1	blank2r.bmp	500	1	GKQX	500	1	blank2r.bmp	880	1	faul	880	1	!	1232	1	!	1359	0	0	0	0	0	0
2024-06-11	09:19:38	09:27:08	449094	6.6.1	4_exp_EVA_AWA_CON	78	B	A	Rpleas_acq	Oppo	Rpleas	1pleas	acq_US_pleas_nomask	acq45_nomask	5	18	400	0	300	300	0	0	595	50	1	0	fair	schön	tolerant	schlau	helfen	freundlich	faul	schlecht	tyrannisch	schroff	hindern	fanatisch	loyal	treu	lachen	spielen	ehrlich	retten	lasch	tot	leiden	strafen	eitel	rächen	1	blank2r.bmp	0	1	+	0	1	blank2r.bmp	500	1	BMVZ	500	1	blank2r.bmp	880	2	schön	880	1	!	1232	1	!	-1	0	0	0	0	0	0
2024-06-11	09:19:38	09:27:10	451256	6.6.1	4_exp_EVA_AWA_CON	78	B	A	Rpleas_acq	Oppo	Rpleas	1pleas	acq_US_pleas_nomask	acq45_nomask	5	19	400	1	300	300	0	0	382	46	0	0	fair	schön	tolerant	schlau	helfen	freundlich	faul	schlecht	tyrannisch	schroff	hindern	fanatisch	loyal	treu	lachen	spielen	ehrlich	retten	lasch	tot	leiden	strafen	eitel	rächen	1	blank2r.bmp	0	1	+	0	1	blank2r.bmp	500	1	BMVZ	500	1	blank2r.bmp	880	3	tolerant	880	1	!	1232	1	!	1284	0	0	0	0	0	0
2024-06-11	09:19:38	09:27:12	453575	6.6.1	4_exp_EVA_AWA_CON	78	B	A	Rpleas_acq	Oppo	Rpleas	1pleas	acq_US_unple_nomask	acq45_nomask	5	20	400	0	300	300	0	0	541	46	1	0	fair	schön	tolerant	schlau	helfen	freundlich	faul	schlecht	tyrannisch	schroff	hindern	fanatisch	loyal	treu	lachen	spielen	ehrlich	retten	lasch	tot	leiden	strafen	eitel	rächen	1	blank2r.bmp	0	1	+	0	1	blank2r.bmp	500	1	GKQX	500	1	blank2r.bmp	880	3	tyrannisch	880	1	!	1232	1	!	-1	0	0	0	0	0	0
2024-06-11	09:19:38	09:27:15	455902	6.6.1	4_exp_EVA_AWA_CON	78	B	A	Rpleas_acq	Oppo	Rpleas	1pleas	acq_US_unple_nomask	acq45_nomask	5	21	400	0	300	300	0	0	548	46	1	0	fair	schön	tolerant	schlau	helfen	freundlich	faul	schlecht	tyrannisch	schroff	hindern	fanatisch	loyal	treu	lachen	spielen	ehrlich	retten	lasch	tot	leiden	strafen	eitel	rächen	1	blank2r.bmp	0	1	+	0	1	blank2r.bmp	500	1	GKQX	500	1	blank2r.bmp	880	5	hindern	880	1	!	1232	1	!	-1	0	0	0	0	0	0
2024-06-11	09:19:38	09:27:17	458120	6.6.1	4_exp_EVA_AWA_CON	78	B	A	Rpleas_acq	Oppo	Rpleas	1pleas	acq_US_unple_nomask	acq45_nomask	5	22	400	1	300	300	0	0	443	50	0	0	fair	schön	tolerant	schlau	helfen	freundlich	faul	schlecht	tyrannisch	schroff	hindern	fanatisch	loyal	treu	lachen	spielen	ehrlich	retten	lasch	tot	leiden	strafen	eitel	rächen	1	blank2r.bmp	0	1	+	0	1	blank2r.bmp	500	1	GKQX	500	1	blank2r.bmp	880	6	fanatisch	880	1	!	1232	1	!	1343	0	0	0	0	0	0
2024-06-11	09:19:38	09:27:19	460574	6.6.1	4_exp_EVA_AWA_CON	78	B	A	Rpleas_acq	Oppo	Rpleas	1pleas	acq_US_unple_nomask	acq45_nomask	5	23	400	0	300	300	0	0	677	46	1	0	fair	schön	tolerant	schlau	helfen	freundlich	faul	schlecht	tyrannisch	schroff	hindern	fanatisch	loyal	treu	lachen	spielen	ehrlich	retten	lasch	tot	leiden	strafen	eitel	rächen	1	blank2r.bmp	0	1	+	0	1	blank2r.bmp	500	1	GKQX	500	1	blank2r.bmp	880	2	schlecht	880	1	!	1232	1	!	-1	0	0	0	0	0	0
2024-06-11	09:19:38	09:27:21	462761	6.6.1	4_exp_EVA_AWA_CON	78	B	A	Rpleas_acq	Oppo	Rpleas	1pleas	acq_US_pleas_nomask	acq45_nomask	5	24	400	1	300	300	0	0	410	50	1	0	fair	schön	tolerant	schlau	helfen	freundlich	faul	schlecht	tyrannisch	schroff	hindern	fanatisch	loyal	treu	lachen	spielen	ehrlich	retten	lasch	tot	leiden	strafen	eitel	rächen	1	blank2r.bmp	0	1	+	0	1	blank2r.bmp	500	1	BMVZ	500	1	blank2r.bmp	880	5	helfen	880	1	!	1233	1	!	1310	0	0	0	0	0	0
2024-06-11	09:19:38	09:27:24	465127	6.6.1	4_exp_EVA_AWA_CON	78	B	A	Rpleas_acq	Oppo	Rpleas	1pleas	acq_US_unple_nomask	acq45_nomask	5	25	400	0	300	300	0	0	586	46	1	0	fair	schön	tolerant	schlau	helfen	freundlich	faul	schlecht	tyrannisch	schroff	hindern	fanatisch	loyal	treu	lachen	spielen	ehrlich	retten	lasch	tot	leiden	strafen	eitel	rächen	1	blank2r.bmp	0	1	+	0	1	blank2r.bmp	500	1	GKQX	500	1	blank2r.bmp	880	6	fanatisch	880	1	!	1232	1	!	-1	0	0	0	0	0	0
2024-06-11	09:19:38	09:27:26	467391	6.6.1	4_exp_EVA_AWA_CON	78	B	A	Rpleas_acq	Oppo	Rpleas	1pleas	acq_US_unple_nomask	acq45_nomask	5	26	400	0	300	300	0	0	489	46	1	0	fair	schön	tolerant	schlau	helfen	freundlich	faul	schlecht	tyrannisch	schroff	hindern	fanatisch	loyal	treu	lachen	spielen	ehrlich	retten	lasch	tot	leiden	strafen	eitel	rächen	1	blank2r.bmp	0	1	+	0	1	blank2r.bmp	500	1	GKQX	500	1	blank2r.bmp	880	1	faul	880	1	!	1232	1	!	-1	0	0	0	0	0	0
2024-06-11	09:19:38	09:27:28	469703	6.6.1	4_exp_EVA_AWA_CON	78	B	A	Rpleas_acq	Oppo	Rpleas	1pleas	acq_US_pleas_nomask	acq45_nomask	5	27	400	0	300	300	0	0	539	50	1	0	fair	schön	tolerant	schlau	helfen	freundlich	faul	schlecht	tyrannisch	schroff	hindern	fanatisch	loyal	treu	lachen	spielen	ehrlich	retten	lasch	tot	leiden	strafen	eitel	rächen	1	blank2r.bmp	0	1	+	0	1	blank2r.bmp	500	1	BMVZ	500	1	blank2r.bmp	880	1	fair	880	1	!	1232	1	!	-1	0	0	0	0	0	0
2024-06-11	09:19:38	09:27:31	471957	6.6.1	4_exp_EVA_AWA_CON	78	B	A	Rpleas_acq	Oppo	Rpleas	1pleas	acq_US_unple_nomask	acq45_nomask	5	28	400	0	300	300	0	0	484	46	1	0	fair	schön	tolerant	schlau	helfen	freundlich	faul	schlecht	tyrannisch	schroff	hindern	fanatisch	loyal	treu	lachen	spielen	ehrlich	retten	lasch	tot	leiden	strafen	eitel	rächen	1	blank2r.bmp	0	1	+	0	1	blank2r.bmp	500	1	GKQX	500	1	blank2r.bmp	880	4	schroff	880	1	!	1232	1	!	-1	0	0	0	0	0	0
2024-06-11	09:19:38	09:27:33	474089	6.6.1	4_exp_EVA_AWA_CON	78	B	A	Rpleas_acq	Oppo	Rpleas	1pleas	acq_US_pleas_nomask	acq45_nomask	5	29	400	1	300	300	0	0	350	46	0	0	fair	schön	tolerant	schlau	helfen	freundlich	faul	schlecht	tyrannisch	schroff	hindern	fanatisch	loyal	treu	lachen	spielen	ehrlich	retten	lasch	tot	leiden	strafen	eitel	rächen	1	blank2r.bmp	0	1	+	0	1	blank2r.bmp	500	1	BMVZ	500	1	blank2r.bmp	880	3	tolerant	880	1	!	1233	1	!	1252	0	0	0	0	0	0
2024-06-11	09:19:38	09:27:35	476281	6.6.1	4_exp_EVA_AWA_CON	78	B	A	Rpleas_acq	Oppo	Rpleas	1pleas	acq_US_pleas_nomask	acq45_nomask	5	30	400	1	300	300	0	0	411	50	1	0	fair	schön	tolerant	schlau	helfen	freundlich	faul	schlecht	tyrannisch	schroff	hindern	fanatisch	loyal	treu	lachen	spielen	ehrlich	retten	lasch	tot	leiden	strafen	eitel	rächen	1	blank2r.bmp	0	1	+	0	1	blank2r.bmp	500	1	BMVZ	500	1	blank2r.bmp	880	5	helfen	880	1	!	1232	1	!	1312	0	0	0	0	0	0
2024-06-11	09:19:38	09:27:37	478488	6.6.1	4_exp_EVA_AWA_CON	78	B	A	Rpleas_acq	Oppo	Rpleas	1pleas	acq_US_pleas_nomask	acq45_nomask	5	31	400	1	300	300	0	0	427	50	1	0	fair	schön	tolerant	schlau	helfen	freundlich	faul	schlecht	tyrannisch	schroff	hindern	fanatisch	loyal	treu	lachen	spielen	ehrlich	retten	lasch	tot	leiden	strafen	eitel	rächen	1	blank2r.bmp	0	1	+	0	1	blank2r.bmp	500	1	BMVZ	500	1	blank2r.bmp	880	6	freundlich	880	1	!	1232	1	!	1328	0	0	0	0	0	0
2024-06-11	09:19:38	09:27:39	480741	6.6.1	4_exp_EVA_AWA_CON	78	B	A	Rpleas_acq	Oppo	Rpleas	1pleas	acq_US_pleas_nomask	acq45_nomask	5	32	400	0	300	300	0	0	482	50	1	0	fair	schön	tolerant	schlau	helfen	freundlich	faul	schlecht	tyrannisch	schroff	hindern	fanatisch	loyal	treu	lachen	spielen	ehrlich	retten	lasch	tot	leiden	strafen	eitel	rächen	1	blank2r.bmp	0	1	+	0	1	blank2r.bmp	500	1	BMVZ	500	1	blank2r.bmp	880	2	schön	880	1	!	1232	1	!	-1	0	0	0	0	0	0
2024-06-11	09:19:38	09:27:42	482985	6.6.1	4_exp_EVA_AWA_CON	78	B	A	Rpleas_acq	Oppo	Rpleas	1pleas	acq_US_unple_nomask	acq45_nomask	5	33	400	1	300	300	0	0	461	46	1	0	fair	schön	tolerant	schlau	helfen	freundlich	faul	schlecht	tyrannisch	schroff	hindern	fanatisch	loyal	treu	lachen	spielen	ehrlich	retten	lasch	tot	leiden	strafen	eitel	rächen	1	blank2r.bmp	0	1	+	0	1	blank2r.bmp	500	1	GKQX	500	1	blank2r.bmp	880	3	tyrannisch	880	1	!	1232	1	!	1362	0	0	0	0	0	0
2024-06-11	09:19:38	09:27:44	485185	6.6.1	4_exp_EVA_AWA_CON	78	B	A	Rpleas_acq	Oppo	Rpleas	1pleas	acq_US_pleas_nomask	acq45_nomask	5	34	400	1	300	300	0	0	419	50	1	0	fair	schön	tolerant	schlau	helfen	freundlich	faul	schlecht	tyrannisch	schroff	hindern	fanatisch	loyal	treu	lachen	spielen	ehrlich	retten	lasch	tot	leiden	strafen	eitel	rächen	1	blank2r.bmp	0	1	+	0	1	blank2r.bmp	500	1	BMVZ	500	1	blank2r.bmp	880	1	fair	880	1	!	1233	1	!	1320	0	0	0	0	0	0
2024-06-11	09:19:38	09:27:46	487455	6.6.1	4_exp_EVA_AWA_CON	78	B	A	Rpleas_acq	Oppo	Rpleas	1pleas	acq_US_unple_nomask	acq45_nomask	5	35	400	0	300	300	0	0	490	50	0	0	fair	schön	tolerant	schlau	helfen	freundlich	faul	schlecht	tyrannisch	schroff	hindern	fanatisch	loyal	treu	lachen	spielen	ehrlich	retten	lasch	tot	leiden	strafen	eitel	rächen	1	blank2r.bmp	0	1	+	0	1	blank2r.bmp	500	1	GKQX	500	1	blank2r.bmp	880	5	hindern	880	1	!	1232	1	!	-1	0	0	0	0	0	0
2024-06-11	09:19:38	09:27:48	489609	6.6.1	4_exp_EVA_AWA_CON	78	B	A	Rpleas_acq	Oppo	Rpleas	1pleas	acq_US_pleas_nomask	acq45_nomask	5	36	400	1	300	300	0	0	370	50	1	0	fair	schön	tolerant	schlau	helfen	freundlich	faul	schlecht	tyrannisch	schroff	hindern	fanatisch	loyal	treu	lachen	spielen	ehrlich	retten	lasch	tot	leiden	strafen	eitel	rächen	1	blank2r.bmp	0	1	+	0	1	blank2r.bmp	500	1	BMVZ	500	1	blank2r.bmp	880	4	schlau	880	1	!	1232	1	!	1272	0	0	0	0	0	0
2024-06-11	09:19:38	09:28:03	504387	6.6.1	4_exp_EVA_AWA_CON	78	B	A	Rpleas_acq	Oppo	Lpleas	1pleas	EvalRating_firsttwo	EvalRating_firsttwo	6	1	0	0	300	300	0	0	4103	line	0	52,734375pct	fair	schön	tolerant	schlau	helfen	freundlich	faul	schlecht	tyrannisch	schroff	hindern	fanatisch	loyal	treu	lachen	spielen	ehrlich	retten	lasch	tot	leiden	strafen	eitel	rächen	1		-8	1	Wie angenehm oder unangenehm finden Sie die  Buchstabenkette ZGVK?	-8	1		-8	1		-8	1		-8	1	Unangenehm	-8	1	Angenehm	-8	0	0	0	0	0	0	0	0	0
2024-06-11	09:19:38	09:28:08	508971	6.6.1	4_exp_EVA_AWA_CON	78	B	A	Rpleas_acq	Oppo	Lpleas	1pleas	EvalRating_lastfour	EvalRating_lastfour	7	1	0	0	300	300	0	0	2203	line	0	46,2239583333333428072pct	fair	schön	tolerant	schlau	helfen	freundlich	faul	schlecht	tyrannisch	schroff	hindern	fanatisch	loyal	treu	lachen	spielen	ehrlich	retten	lasch	tot	leiden	strafen	eitel	rächen	1		-8	1	Wie angenehm oder unangenehm finden Sie die  Buchstabenkette BMVZ?	-8	1		-8	1		-8	1		-8	1	Unangenehm	-8	1	Angenehm	-8	0	0	0	0	0	0	0	0	0
2024-06-11	09:19:38	09:28:10	511343	6.6.1	4_exp_EVA_AWA_CON	78	B	A	Rpleas_acq	Oppo	Lpleas	1pleas	blank_screen	EvalRating_lastfour	7	3	0	0	300	300	0	0	0	0	0	46,2239583333333428072pct	fair	schön	tolerant	schlau	helfen	freundlich	faul	schlecht	tyrannisch	schroff	hindern	fanatisch	loyal	treu	lachen	spielen	ehrlich	retten	lasch	tot	leiden	strafen	eitel	rächen	1		-8	0	0	0	0	0	0	0	0	0	0	0	0	0	0	0	0	0	0	0	0	0	0	0	0	0	0	0
2024-06-11	09:19:38	09:28:13	513931	6.6.1	4_exp_EVA_AWA_CON	78	B	A	Rpleas_acq	Oppo	Lpleas	1pleas	EvalRating_lastfour	EvalRating_lastfour	7	4	0	0	300	300	0	0	2000	line	0	-25,2604166666666571928pct	fair	schön	tolerant	schlau	helfen	freundlich	faul	schlecht	tyrannisch	schroff	hindern	fanatisch	loyal	treu	lachen	spielen	ehrlich	retten	lasch	tot	leiden	strafen	eitel	rächen	1		-7	2	Wie angenehm oder unangenehm finden Sie die  Buchstabenkette GKQX?	-7	1		-7	1		-7	1		-7	1	Unangenehm	-7	1	Angenehm	-7	0	0	0	0	0	0	0	0	0
2024-06-11	09:19:38	09:28:15	516296	6.6.1	4_exp_EVA_AWA_CON	78	B	A	Rpleas_acq	Oppo	Lpleas	1pleas	blank_screen	EvalRating_lastfour	7	6	0	0	300	300	0	0	0	0	0	-25,2604166666666571928pct	fair	schön	tolerant	schlau	helfen	freundlich	faul	schlecht	tyrannisch	schroff	hindern	fanatisch	loyal	treu	lachen	spielen	ehrlich	retten	lasch	tot	leiden	strafen	eitel	rächen	1		-8	0	0	0	0	0	0	0	0	0	0	0	0	0	0	0	0	0	0	0	0	0	0	0	0	0	0	0
2024-06-11	09:19:38	09:28:18	519412	6.6.1	4_exp_EVA_AWA_CON	78	B	A	Rpleas_acq	Oppo	Lpleas	1pleas	EvalRating_lastfour	EvalRating_lastfour	7	7	0	0	300	300	0	0	2529	line	0	-40,3645833333333285964pct	fair	schön	tolerant	schlau	helfen	freundlich	faul	schlecht	tyrannisch	schroff	hindern	fanatisch	loyal	treu	lachen	spielen	ehrlich	retten	lasch	tot	leiden	strafen	eitel	rächen	1		-8	3	Wie angenehm oder unangenehm finden Sie die  Buchstabenkette XBQM?	-8	1		-8	1		-8	1		-8	1	Unangenehm	-8	1	Angenehm	-8	0	0	0	0	0	0	0	0	0
2024-06-11	09:19:38	09:28:41	542000	6.6.1	4_exp_EVA_AWA_CON	78	B	A	Rpleas_acq	Oppo	Lpleas	1pleas	conawa_CS2_US2	conawa1_nomask	8	1	0	0	300	300	0	0	7493	leiden	1	-40,3645833333333285964pct	fair	schön	tolerant	schlau	helfen	freundlich	faul	schlecht	tyrannisch	schroff	hindern	fanatisch	loyal	treu	lachen	spielen	ehrlich	retten	lasch	tot	leiden	strafen	eitel	rächen	0	0	0	0	0	0	0	0	0	0	0	0	0	0	0	0	0	0	0	0	0	0	0	0	0	0	0	0	0	0
2024-06-11	09:19:38	09:28:41	542002	6.6.1	4_exp_EVA_AWA_CON	78	B	A	Rpleas_acq	Oppo	Lpleas	1pleas	conawa_CS2_US2_confidence	conawa1_nomask	8	1	0	0	300	300	0	0	7493	guess	1	-40,3645833333333285964pct	fair	schön	tolerant	schlau	helfen	freundlich	faul	schlecht	tyrannisch	schroff	hindern	fanatisch	loyal	treu	lachen	spielen	ehrlich	retten	lasch	tot	leiden	strafen	eitel	rächen	0	0	0	0	0	0	0	0	0	0	0	0	0	0	0	0	0	0	0	0	0	0	0	0	0	0	0	0	0	0
2024-06-11	09:19:38	09:28:47	548494	6.6.1	4_exp_EVA_AWA_CON	78	B	A	Rpleas_acq	Oppo	Lpleas	1pleas	conawa_CS2_US3	conawa1_nomask	8	2	0	0	300	300	0	0	5872	tyrannisch	1	-40,3645833333333285964pct	fair	schön	tolerant	schlau	helfen	freundlich	faul	schlecht	tyrannisch	schroff	hindern	fanatisch	loyal	treu	lachen	spielen	ehrlich	retten	lasch	tot	leiden	strafen	eitel	rächen	0	0	0	0	0	0	0	0	0	0	0	0	0	0	0	0	0	0	0	0	0	0	0	0	0	0	0	0	0	0
2024-06-11	09:19:38	09:28:47	548496	6.6.1	4_exp_EVA_AWA_CON	78	B	A	Rpleas_acq	Oppo	Lpleas	1pleas	conawa_CS2_US3_confidence	conawa1_nomask	8	2	0	0	300	300	0	0	5872	probably	1	-40,3645833333333285964pct	fair	schön	tolerant	schlau	helfen	freundlich	faul	schlecht	tyrannisch	schroff	hindern	fanatisch	loyal	treu	lachen	spielen	ehrlich	retten	lasch	tot	leiden	strafen	eitel	rächen	0	0	0	0	0	0	0	0	0	0	0	0	0	0	0	0	0	0	0	0	0	0	0	0	0	0	0	0	0	0
2024-06-11	09:19:38	09:28:53	554098	6.6.1	4_exp_EVA_AWA_CON	78	B	A	Rpleas_acq	Oppo	Lpleas	1pleas	conawa_CS2_US5	conawa1_nomask	8	3	0	0	300	300	0	0	4992	rächen	1	-40,3645833333333285964pct	fair	schön	tolerant	schlau	helfen	freundlich	faul	schlecht	tyrannisch	schroff	hindern	fanatisch	loyal	treu	lachen	spielen	ehrlich	retten	lasch	tot	leiden	strafen	eitel	rächen	0	0	0	0	0	0	0	0	0	0	0	0	0	0	0	0	0	0	0	0	0	0	0	0	0	0	0	0	0	0
2024-06-11	09:19:38	09:28:53	554100	6.6.1	4_exp_EVA_AWA_CON	78	B	A	Rpleas_acq	Oppo	Lpleas	1pleas	conawa_CS2_US5_confidence	conawa1_nomask	8	3	0	0	300	300	0	0	4992	guess	1	-40,3645833333333285964pct	fair	schön	tolerant	schlau	helfen	freundlich	faul	schlecht	tyrannisch	schroff	hindern	fanatisch	loyal	treu	lachen	spielen	ehrlich	retten	lasch	tot	leiden	strafen	eitel	rächen	0	0	0	0	0	0	0	0	0	0	0	0	0	0	0	0	0	0	0	0	0	0	0	0	0	0	0	0	0	0
2024-06-11	09:19:38	09:28:58	559141	6.6.1	4_exp_EVA_AWA_CON	78	B	A	Rpleas_acq	Oppo	Lpleas	1pleas	conawa_CS1_US2	conawa1_nomask	8	4	0	0	300	300	0	0	4426	treu	1	-40,3645833333333285964pct	fair	schön	tolerant	schlau	helfen	freundlich	faul	schlecht	tyrannisch	schroff	hindern	fanatisch	loyal	treu	lachen	spielen	ehrlich	retten	lasch	tot	leiden	strafen	eitel	rächen	0	0	0	0	0	0	0	0	0	0	0	0	0	0	0	0	0	0	0	0	0	0	0	0	0	0	0	0	0	0
2024-06-11	09:19:38	09:28:58	559143	6.6.1	4_exp_EVA_AWA_CON	78	B	A	Rpleas_acq	Oppo	Lpleas	1pleas	conawa_CS1_US2_confidence	conawa1_nomask	8	4	0	0	300	300	0	0	4426	probably	1	-40,3645833333333285964pct	fair	schön	tolerant	schlau	helfen	freundlich	faul	schlecht	tyrannisch	schroff	hindern	fanatisch	loyal	treu	lachen	spielen	ehrlich	retten	lasch	tot	leiden	strafen	eitel	rächen	0	0	0	0	0	0	0	0	0	0	0	0	0	0	0	0	0	0	0	0	0	0	0	0	0	0	0	0	0	0
2024-06-11	09:19:38	09:29:04	565566	6.6.1	4_exp_EVA_AWA_CON	78	B	A	Rpleas_acq	Oppo	Lpleas	1pleas	conawa_CS2_US1	conawa1_nomask	8	5	0	0	300	300	0	0	5808	faul	1	-40,3645833333333285964pct	fair	schön	tolerant	schlau	helfen	freundlich	faul	schlecht	tyrannisch	schroff	hindern	fanatisch	loyal	treu	lachen	spielen	ehrlich	retten	lasch	tot	leiden	strafen	eitel	rächen	0	0	0	0	0	0	0	0	0	0	0	0	0	0	0	0	0	0	0	0	0	0	0	0	0	0	0	0	0	0
2024-06-11	09:19:38	09:29:04	565567	6.6.1	4_exp_EVA_AWA_CON	78	B	A	Rpleas_acq	Oppo	Lpleas	1pleas	conawa_CS2_US1_confidence	conawa1_nomask	8	5	0	0	300	300	0	0	5808	guess	1	-40,3645833333333285964pct	fair	schön	tolerant	schlau	helfen	freundlich	faul	schlecht	tyrannisch	schroff	hindern	fanatisch	loyal	treu	lachen	spielen	ehrlich	retten	lasch	tot	leiden	strafen	eitel	rächen	0	0	0	0	0	0	0	0	0	0	0	0	0	0	0	0	0	0	0	0	0	0	0	0	0	0	0	0	0	0
2024-06-11	09:19:38	09:29:08	569498	6.6.1	4_exp_EVA_AWA_CON	78	B	A	Rpleas_acq	Oppo	Lpleas	1pleas	conawa_CS1_US6	conawa1_nomask	8	6	0	0	300	300	0	0	3320	freundlich	1	-40,3645833333333285964pct	fair	schön	tolerant	schlau	helfen	freundlich	faul	schlecht	tyrannisch	schroff	hindern	fanatisch	loyal	treu	lachen	spielen	ehrlich	retten	lasch	tot	leiden	strafen	eitel	rächen	0	0	0	0	0	0	0	0	0	0	0	0	0	0	0	0	0	0	0	0	0	0	0	0	0	0	0	0	0	0
2024-06-11	09:19:38	09:29:08	569500	6.6.1	4_exp_EVA_AWA_CON	78	B	A	Rpleas_acq	Oppo	Lpleas	1pleas	conawa_CS1_US6_confidence	conawa1_nomask	8	6	0	0	300	300	0	0	3320	guess	1	-40,3645833333333285964pct	fair	schön	tolerant	schlau	helfen	freundlich	faul	schlecht	tyrannisch	schroff	hindern	fanatisch	loyal	treu	lachen	spielen	ehrlich	retten	lasch	tot	leiden	strafen	eitel	rächen	0	0	0	0	0	0	0	0	0	0	0	0	0	0	0	0	0	0	0	0	0	0	0	0	0	0	0	0	0	0
2024-06-11	09:19:38	09:29:14	574842	6.6.1	4_exp_EVA_AWA_CON	78	B	A	Rpleas_acq	Oppo	Lpleas	1pleas	conawa_CS1_US3	conawa1_nomask	8	7	0	0	300	300	0	0	4722	lachen	1	-40,3645833333333285964pct	fair	schön	tolerant	schlau	helfen	freundlich	faul	schlecht	tyrannisch	schroff	hindern	fanatisch	loyal	treu	lachen	spielen	ehrlich	retten	lasch	tot	leiden	strafen	eitel	rächen	0	0	0	0	0	0	0	0	0	0	0	0	0	0	0	0	0	0	0	0	0	0	0	0	0	0	0	0	0	0
2024-06-11	09:19:38	09:29:14	574843	6.6.1	4_exp_EVA_AWA_CON	78	B	A	Rpleas_acq	Oppo	Lpleas	1pleas	conawa_CS1_US3_confidence	conawa1_nomask	8	7	0	0	300	300	0	0	4722	guess	1	-40,3645833333333285964pct	fair	schön	tolerant	schlau	helfen	freundlich	faul	schlecht	tyrannisch	schroff	hindern	fanatisch	loyal	treu	lachen	spielen	ehrlich	retten	lasch	tot	leiden	strafen	eitel	rächen	0	0	0	0	0	0	0	0	0	0	0	0	0	0	0	0	0	0	0	0	0	0	0	0	0	0	0	0	0	0
2024-06-11	09:19:38	09:29:19	580465	6.6.1	4_exp_EVA_AWA_CON	78	B	A	Rpleas_acq	Oppo	Lpleas	1pleas	conawa_CS1_US4	conawa1_nomask	8	8	0	0	300	300	0	0	5012	schlau	1	-40,3645833333333285964pct	fair	schön	tolerant	schlau	helfen	freundlich	faul	schlecht	tyrannisch	schroff	hindern	fanatisch	loyal	treu	lachen	spielen	ehrlich	retten	lasch	tot	leiden	strafen	eitel	rächen	0	0	0	0	0	0	0	0	0	0	0	0	0	0	0	0	0	0	0	0	0	0	0	0	0	0	0	0	0	0
2024-06-11	09:19:38	09:29:19	580467	6.6.1	4_exp_EVA_AWA_CON	78	B	A	Rpleas_acq	Oppo	Lpleas	1pleas	conawa_CS1_US4_confidence	conawa1_nomask	8	8	0	0	300	300	0	0	5012	guess	1	-40,3645833333333285964pct	fair	schön	tolerant	schlau	helfen	freundlich	faul	schlecht	tyrannisch	schroff	hindern	fanatisch	loyal	treu	lachen	spielen	ehrlich	retten	lasch	tot	leiden	strafen	eitel	rächen	0	0	0	0	0	0	0	0	0	0	0	0	0	0	0	0	0	0	0	0	0	0	0	0	0	0	0	0	0	0
2024-06-11	09:19:38	09:29:25	585809	6.6.1	4_exp_EVA_AWA_CON	78	B	A	Rpleas_acq	Oppo	Lpleas	1pleas	conawa_CS1_US1	conawa1_nomask	8	9	0	0	300	300	0	0	4725	loyal	1	-40,3645833333333285964pct	fair	schön	tolerant	schlau	helfen	freundlich	faul	schlecht	tyrannisch	schroff	hindern	fanatisch	loyal	treu	lachen	spielen	ehrlich	retten	lasch	tot	leiden	strafen	eitel	rächen	0	0	0	0	0	0	0	0	0	0	0	0	0	0	0	0	0	0	0	0	0	0	0	0	0	0	0	0	0	0
2024-06-11	09:19:38	09:29:25	585811	6.6.1	4_exp_EVA_AWA_CON	78	B	A	Rpleas_acq	Oppo	Lpleas	1pleas	conawa_CS1_US1_confidence	conawa1_nomask	8	9	0	0	300	300	0	0	4725	guess	1	-40,3645833333333285964pct	fair	schön	tolerant	schlau	helfen	freundlich	faul	schlecht	tyrannisch	schroff	hindern	fanatisch	loyal	treu	lachen	spielen	ehrlich	retten	lasch	tot	leiden	strafen	eitel	rächen	0	0	0	0	0	0	0	0	0	0	0	0	0	0	0	0	0	0	0	0	0	0	0	0	0	0	0	0	0	0
2024-06-11	09:19:38	09:29:29	589761	6.6.1	4_exp_EVA_AWA_CON	78	B	A	Rpleas_acq	Oppo	Lpleas	1pleas	conawa_CS2_US6	conawa1_nomask	8	10	0	0	300	300	0	0	3333	lasch	1	-40,3645833333333285964pct	fair	schön	tolerant	schlau	helfen	freundlich	faul	schlecht	tyrannisch	schroff	hindern	fanatisch	loyal	treu	lachen	spielen	ehrlich	retten	lasch	tot	leiden	strafen	eitel	rächen	0	0	0	0	0	0	0	0	0	0	0	0	0	0	0	0	0	0	0	0	0	0	0	0	0	0	0	0	0	0
2024-06-11	09:19:38	09:29:29	589762	6.6.1	4_exp_EVA_AWA_CON	78	B	A	Rpleas_acq	Oppo	Lpleas	1pleas	conawa_CS2_US6_confidence	conawa1_nomask	8	10	0	0	300	300	0	0	3333	guess	1	-40,3645833333333285964pct	fair	schön	tolerant	schlau	helfen	freundlich	faul	schlecht	tyrannisch	schroff	hindern	fanatisch	loyal	treu	lachen	spielen	ehrlich	retten	lasch	tot	leiden	strafen	eitel	rächen	0	0	0	0	0	0	0	0	0	0	0	0	0	0	0	0	0	0	0	0	0	0	0	0	0	0	0	0	0	0
2024-06-11	09:19:38	09:29:33	594254	6.6.1	4_exp_EVA_AWA_CON	78	B	A	Rpleas_acq	Oppo	Lpleas	1pleas	conawa_CS1_US5	conawa1_nomask	8	11	0	0	300	300	0	0	3877	ehrlich	1	-40,3645833333333285964pct	fair	schön	tolerant	schlau	helfen	freundlich	faul	schlecht	tyrannisch	schroff	hindern	fanatisch	loyal	treu	lachen	spielen	ehrlich	retten	lasch	tot	leiden	strafen	eitel	rächen	0	0	0	0	0	0	0	0	0	0	0	0	0	0	0	0	0	0	0	0	0	0	0	0	0	0	0	0	0	0
2024-06-11	09:19:38	09:29:33	594255	6.6.1	4_exp_EVA_AWA_CON	78	B	A	Rpleas_acq	Oppo	Lpleas	1pleas	conawa_CS1_US5_confidence	conawa1_nomask	8	11	0	0	300	300	0	0	3877	guess	1	-40,3645833333333285964pct	fair	schön	tolerant	schlau	helfen	freundlich	faul	schlecht	tyrannisch	schroff	hindern	fanatisch	loyal	treu	lachen	spielen	ehrlich	retten	lasch	tot	leiden	strafen	eitel	rächen	0	0	0	0	0	0	0	0	0	0	0	0	0	0	0	0	0	0	0	0	0	0	0	0	0	0	0	0	0	0
2024-06-11	09:19:38	09:29:37	598496	6.6.1	4_exp_EVA_AWA_CON	78	B	A	Rpleas_acq	Oppo	Lpleas	1pleas	conawa_CS2_US4	conawa1_nomask	8	12	0	0	300	300	0	0	3633	eitel	1	-40,3645833333333285964pct	fair	schön	tolerant	schlau	helfen	freundlich	faul	schlecht	tyrannisch	schroff	hindern	fanatisch	loyal	treu	lachen	spielen	ehrlich	retten	lasch	tot	leiden	strafen	eitel	rächen	0	0	0	0	0	0	0	0	0	0	0	0	0	0	0	0	0	0	0	0	0	0	0	0	0	0	0	0	0	0
2024-06-11	09:19:38	09:29:37	598498	6.6.1	4_exp_EVA_AWA_CON	78	B	A	Rpleas_acq	Oppo	Lpleas	1pleas	conawa_CS2_US4_confidence	conawa1_nomask	8	12	0	0	300	300	0	0	3633	guess	1	-40,3645833333333285964pct	fair	schön	tolerant	schlau	helfen	freundlich	faul	schlecht	tyrannisch	schroff	hindern	fanatisch	loyal	treu	lachen	spielen	ehrlich	retten	lasch	tot	leiden	strafen	eitel	rächen	0	0	0	0	0	0	0	0	0	0	0	0	0	0	0	0	0	0	0	0	0	0	0	0	0	0	0	0	0	0
2024-06-11	09:19:38	09:30:19	640599	6.6.1	4_exp_EVA_AWA_CON	78	B	A	Rpleas_acq	Oppo	Lpleas	1pleas	cond_new_unple_456_nomask_CS1	condtest_nomask_1	11	1	400	0	300	300	0	0	294	46	0	-40,3645833333333285964pct	fair	schön	tolerant	schlau	helfen	freundlich	faul	schlecht	tyrannisch	schroff	hindern	fanatisch	loyal	treu	lachen	spielen	ehrlich	retten	lasch	tot	leiden	strafen	eitel	rächen	1	blank2r.bmp	0	1	+	0	1	blank2r.bmp	500	1	BMVZ	500	1	blank2r.bmp	880	1	strafen	880	1	!	-1	1	!	-1	0	0	0	0	0	0
2024-06-11	09:19:38	09:30:21	642760	6.6.1	4_exp_EVA_AWA_CON	78	B	A	Rpleas_acq	Oppo	Lpleas	1pleas	cond_US_pleas_123_nomask_CS1	condtest_nomask_1	11	2	400	1	300	300	0	0	383	46	1	-40,3645833333333285964pct	fair	schön	tolerant	schlau	helfen	freundlich	faul	schlecht	tyrannisch	schroff	hindern	fanatisch	loyal	treu	lachen	spielen	ehrlich	retten	lasch	tot	leiden	strafen	eitel	rächen	1	blank2r.bmp	0	1	+	0	1	blank2r.bmp	500	1	BMVZ	500	1	blank2r.bmp	880	1	fair	880	1	!	1232	1	!	1285	0	0	0	0	0	0
2024-06-11	09:19:38	09:30:24	644944	6.6.1	4_exp_EVA_AWA_CON	78	B	A	Rpleas_acq	Oppo	Lpleas	1pleas	cond_US_unple_123_nomask_CS1	condtest_nomask_1	11	3	400	1	300	300	0	0	406	46	0	-40,3645833333333285964pct	fair	schön	tolerant	schlau	helfen	freundlich	faul	schlecht	tyrannisch	schroff	hindern	fanatisch	loyal	treu	lachen	spielen	ehrlich	retten	lasch	tot	leiden	strafen	eitel	rächen	1	blank2r.bmp	0	1	+	0	1	blank2r.bmp	500	1	BMVZ	500	1	blank2r.bmp	880	1	faul	880	1	!	1232	1	!	1307	0	0	0	0	0	0
2024-06-11	09:19:38	09:30:26	647129	6.6.1	4_exp_EVA_AWA_CON	78	B	A	Rpleas_acq	Oppo	Lpleas	1pleas	cond_new_pleas_456_nomask_CS2	condtest_nomask_1	11	4	400	1	300	300	0	0	409	46	1	-40,3645833333333285964pct	fair	schön	tolerant	schlau	helfen	freundlich	faul	schlecht	tyrannisch	schroff	hindern	fanatisch	loyal	treu	lachen	spielen	ehrlich	retten	lasch	tot	leiden	strafen	eitel	rächen	1	blank2r.bmp	0	1	+	0	1	blank2r.bmp	500	1	GKQX	500	1	blank2r.bmp	880	3	ehrlich	880	1	!	1232	1	!	1310	0	0	0	0	0	0
2024-06-11	09:19:38	09:30:28	649407	6.6.1	4_exp_EVA_AWA_CON	78	B	A	Rpleas_acq	Oppo	Lpleas	1pleas	cond_new_unple_456_nomask_CS2	condtest_nomask_1	11	5	400	0	300	300	0	0	498	50	1	-40,3645833333333285964pct	fair	schön	tolerant	schlau	helfen	freundlich	faul	schlecht	tyrannisch	schroff	hindern	fanatisch	loyal	treu	lachen	spielen	ehrlich	retten	lasch	tot	leiden	strafen	eitel	rächen	1	blank2r.bmp	0	1	+	0	1	blank2r.bmp	500	1	GKQX	500	1	blank2r.bmp	880	1	rächen	880	1	!	1232	1	!	-1	0	0	0	0	0	0
2024-06-11	09:19:38	09:30:30	651608	6.6.1	4_exp_EVA_AWA_CON	78	B	A	Rpleas_acq	Oppo	Lpleas	1pleas	cond_new_pleas_456_nomask_CS1	condtest_nomask_1	11	6	400	1	300	300	0	0	426	46	1	-40,3645833333333285964pct	fair	schön	tolerant	schlau	helfen	freundlich	faul	schlecht	tyrannisch	schroff	hindern	fanatisch	loyal	treu	lachen	spielen	ehrlich	retten	lasch	tot	leiden	strafen	eitel	rächen	1	blank2r.bmp	0	1	+	0	1	blank2r.bmp	500	1	BMVZ	500	1	blank2r.bmp	880	3	retten	880	1	!	1232	1	!	1327	0	0	0	0	0	0
2024-06-11	09:19:38	09:30:33	653808	6.6.1	4_exp_EVA_AWA_CON	78	B	A	Rpleas_acq	Oppo	Lpleas	1pleas	cond_US_pleas_123_nomask_CS2	condtest_nomask_1	11	7	400	1	300	300	0	0	424	46	1	-40,3645833333333285964pct	fair	schön	tolerant	schlau	helfen	freundlich	faul	schlecht	tyrannisch	schroff	hindern	fanatisch	loyal	treu	lachen	spielen	ehrlich	retten	lasch	tot	leiden	strafen	eitel	rächen	1	blank2r.bmp	0	1	+	0	1	blank2r.bmp	500	1	GKQX	500	1	blank2r.bmp	880	3	schön	880	1	!	1232	1	!	1326	0	0	0	0	0	0
2024-06-11	09:19:38	09:30:35	655927	6.6.1	4_exp_EVA_AWA_CON	78	B	A	Rpleas_acq	Oppo	Lpleas	1pleas	cond_US_unple_123_nomask_CS2	condtest_nomask_1	11	8	400	1	300	300	0	0	344	50	1	-40,3645833333333285964pct	fair	schön	tolerant	schlau	helfen	freundlich	faul	schlecht	tyrannisch	schroff	hindern	fanatisch	loyal	treu	lachen	spielen	ehrlich	retten	lasch	tot	leiden	strafen	eitel	rächen	1	blank2r.bmp	0	1	+	0	1	blank2r.bmp	500	1	GKQX	500	1	blank2r.bmp	880	2	faul	880	1	!	1232	1	!	1243	0	0	0	0	0	0
2024-06-11	09:19:38	09:30:41	662710	6.6.1	4_exp_EVA_AWA_CON	78	B	A	Rpleas_acq	Oppo	Lpleas	1pleas	cond_US_unple_123_nomask_CS2	condtest_nomask_2	12	1	400	0	300	300	0	0	473	50	1	-40,3645833333333285964pct	fair	schön	tolerant	schlau	helfen	freundlich	faul	schlecht	tyrannisch	schroff	hindern	fanatisch	loyal	treu	lachen	spielen	ehrlich	retten	lasch	tot	leiden	strafen	eitel	rächen	1	blank2r.bmp	0	1	+	0	1	blank2r.bmp	500	1	GKQX	500	1	blank2r.bmp	880	1	tyrannisch	880	1	!	1233	1	!	-1	0	0	0	0	0	0
