date	time	currenttime	elapsedtime	build	currentexpt	subject	CS_AB	US_AB	LRpleas_acq	SameOppo	condition_Lpleas	condition_1pleas	trialcode	blockcode	blocknum	trialnum	windowcenter	inwindow	pretrialpause	posttrialpause	trialduration	trialtimeout	latency	response	correct	correctedscore	US_nomask_pleas1	US_nomask_pleas2	US_nomask_pleas3	US_nomask_pleas4	US_nomask_pleas5	US_nomask_pleas6	US_nomask_unple1	US_nomask_unple2	US_nomask_unple3	US_nomask_unple4	US_nomask_unple5	US_nomask_unple6	new_nomask_pleas1	new_nomask_pleas2	new_nomask_pleas3	new_nomask_pleas4	new_nomask_pleas5	new_nomask_pleas6	new_nomask_unple1	new_nomask_unple2	new_nomask_unple3	new_nomask_unple4	new_nomask_unple5	new_nomask_unple6	stimulusnumber1	stimulusitem1	stimulusonset1	stimulusnumber2	stimulusitem2	stimulusonset2	stimulusnumber3	stimulusitem3	stimulusonset3	stimulusnumber4	stimulusitem4	stimulusonset4	stimulusnumber5	stimulusitem5	stimulusonset5	stimulusnumber6	stimulusitem6	stimulusonset6	stimulusnumber7	stimulusitem7	stimulusonset7	stimulusnumber8	stimulusitem8	stimulusonset8	stimulusnumber9	stimulusitem9	stimulusonset9	stimulusnumber10	stimulusitem10	stimulusonset10
2024-06-20	12:16:26	12:21:36	309869	6.6.1	4_exp_EVA_AWA_CON	93	B	A	Rpleas_acq	Same	Rpleas	1pleas	acq_US_pleas_nomask	acq1_nomask	1	1	0	0	300	300	0	0	2679	50	1	0	schlau	lachen	retten	fair	loyal	helfen	schroff	leiden	rächen	faul	lasch	hindern	schön	ehrlich	treu	spielen	freundlich	tolerant	schlecht	eitel	tot	strafen	fanatisch	tyrannisch	1	blank2r.bmp	0	1	+	0	1	blank2r.bmp	500	1	BMVZ	500	1	blank2r.bmp	880	5	loyal	880	0	0	0	0	0	0	0	0	0	0	0	0
2024-06-20	12:16:26	12:21:39	312797	6.6.1	4_exp_EVA_AWA_CON	93	B	A	Rpleas_acq	Same	Rpleas	1pleas	acq_new_unple_nomask	acq1_nomask	1	2	0	0	300	300	0	0	1444	46	1	0	schlau	lachen	retten	fair	loyal	helfen	schroff	leiden	rächen	faul	lasch	hindern	schön	ehrlich	treu	spielen	freundlich	tolerant	schlecht	eitel	tot	strafen	fanatisch	tyrannisch	1	blank2r.bmp	0	1	+	0	1	blank2r.bmp	500	2	B2r.bmp	500	1	blank2r.bmp	880	4	strafen	880	0	0	0	0	0	0	0	0	0	0	0	0
2024-06-20	12:16:26	12:21:43	316061	6.6.1	4_exp_EVA_AWA_CON	93	B	A	Rpleas_acq	Same	Rpleas	1pleas	acq_US_pleas_nomask	acq1_nomask	1	3	0	0	300	300	0	0	1776	50	1	0	schlau	lachen	retten	fair	loyal	helfen	schroff	leiden	rächen	faul	lasch	hindern	schön	ehrlich	treu	spielen	freundlich	tolerant	schlecht	eitel	tot	strafen	fanatisch	tyrannisch	1	blank2r.bmp	0	1	+	0	1	blank2r.bmp	500	1	BMVZ	500	1	blank2r.bmp	880	3	retten	880	0	0	0	0	0	0	0	0	0	0	0	0
2024-06-20	12:16:26	12:21:45	318461	6.6.1	4_exp_EVA_AWA_CON	93	B	A	Rpleas_acq	Same	Rpleas	1pleas	acq_new_pleas_nomask	acq1_nomask	1	4	0	0	300	300	0	0	914	50	1	0	schlau	lachen	retten	fair	loyal	helfen	schroff	leiden	rächen	faul	lasch	hindern	schön	ehrlich	treu	spielen	freundlich	tolerant	schlecht	eitel	tot	strafen	fanatisch	tyrannisch	1	blank2r.bmp	0	1	+	0	1	blank2r.bmp	500	8	C4r.bmp	500	1	blank2r.bmp	880	6	tolerant	880	0	0	0	0	0	0	0	0	0	0	0	0
2024-06-20	12:16:26	12:21:49	322357	6.6.1	4_exp_EVA_AWA_CON	93	B	A	Rpleas_acq	Same	Rpleas	1pleas	acq_US_pleas_nomask	acq1_nomask	1	5	0	0	300	300	0	0	2408	50	1	0	schlau	lachen	retten	fair	loyal	helfen	schroff	leiden	rächen	faul	lasch	hindern	schön	ehrlich	treu	spielen	freundlich	tolerant	schlecht	eitel	tot	strafen	fanatisch	tyrannisch	1	blank2r.bmp	0	1	+	0	1	blank2r.bmp	500	1	BMVZ	500	1	blank2r.bmp	880	1	schlau	880	0	0	0	0	0	0	0	0	0	0	0	0
2024-06-20	12:16:26	12:21:52	325173	6.6.1	4_exp_EVA_AWA_CON	93	B	A	Rpleas_acq	Same	Rpleas	1pleas	acq_US_unple_nomask	acq1_nomask	1	6	0	0	300	300	0	0	1332	46	1	0	schlau	lachen	retten	fair	loyal	helfen	schroff	leiden	rächen	faul	lasch	hindern	schön	ehrlich	treu	spielen	freundlich	tolerant	schlecht	eitel	tot	strafen	fanatisch	tyrannisch	1	blank2r.bmp	0	1	+	0	1	blank2r.bmp	500	1	GKQX	500	1	blank2r.bmp	880	3	rächen	880	0	0	0	0	0	0	0	0	0	0	0	0
2024-06-20	12:16:26	12:21:55	328205	6.6.1	4_exp_EVA_AWA_CON	93	B	A	Rpleas_acq	Same	Rpleas	1pleas	acq_US_unple_nomask	acq1_nomask	1	7	0	0	300	300	0	0	1552	46	1	0	schlau	lachen	retten	fair	loyal	helfen	schroff	leiden	rächen	faul	lasch	hindern	schön	ehrlich	treu	spielen	freundlich	tolerant	schlecht	eitel	tot	strafen	fanatisch	tyrannisch	1	blank2r.bmp	0	1	+	0	1	blank2r.bmp	500	1	GKQX	500	1	blank2r.bmp	880	4	faul	880	0	0	0	0	0	0	0	0	0	0	0	0
2024-06-20	12:16:26	12:21:57	330461	6.6.1	4_exp_EVA_AWA_CON	93	B	A	Rpleas_acq	Same	Rpleas	1pleas	acq_new_unple_nomask	acq1_nomask	1	8	0	0	300	300	0	0	766	46	1	0	schlau	lachen	retten	fair	loyal	helfen	schroff	leiden	rächen	faul	lasch	hindern	schön	ehrlich	treu	spielen	freundlich	tolerant	schlecht	eitel	tot	strafen	fanatisch	tyrannisch	1	blank2r.bmp	0	1	+	0	1	blank2r.bmp	500	5	C1r.bmp	500	1	blank2r.bmp	880	6	tyrannisch	880	0	0	0	0	0	0	0	0	0	0	0	0
2024-06-20	12:16:26	12:21:59	332518	6.6.1	4_exp_EVA_AWA_CON	93	B	A	Rpleas_acq	Same	Rpleas	1pleas	acq_new_pleas_nomask	acq1_nomask	1	9	0	0	300	300	0	0	571	50	1	0	schlau	lachen	retten	fair	loyal	helfen	schroff	leiden	rächen	faul	lasch	hindern	schön	ehrlich	treu	spielen	freundlich	tolerant	schlecht	eitel	tot	strafen	fanatisch	tyrannisch	1	blank2r.bmp	0	1	+	0	1	blank2r.bmp	500	6	C2r.bmp	500	1	blank2r.bmp	880	1	schön	880	0	0	0	0	0	0	0	0	0	0	0	0
2024-06-20	12:16:26	12:22:03	336885	6.6.1	4_exp_EVA_AWA_CON	93	B	A	Rpleas_acq	Same	Rpleas	1pleas	acq_new_unple_nomask	acq1_nomask	1	10	0	0	300	300	0	0	2887	46	1	0	schlau	lachen	retten	fair	loyal	helfen	schroff	leiden	rächen	faul	lasch	hindern	schön	ehrlich	treu	spielen	freundlich	tolerant	schlecht	eitel	tot	strafen	fanatisch	tyrannisch	1	blank2r.bmp	0	1	+	0	1	blank2r.bmp	500	3	B3r.bmp	500	1	blank2r.bmp	880	2	eitel	880	0	0	0	0	0	0	0	0	0	0	0	0
2024-06-20	12:16:26	12:22:06	339229	6.6.1	4_exp_EVA_AWA_CON	93	B	A	Rpleas_acq	Same	Rpleas	1pleas	acq_new_pleas_nomask	acq1_nomask	1	11	0	0	300	300	0	0	858	50	1	0	schlau	lachen	retten	fair	loyal	helfen	schroff	leiden	rächen	faul	lasch	hindern	schön	ehrlich	treu	spielen	freundlich	tolerant	schlecht	eitel	tot	strafen	fanatisch	tyrannisch	1	blank2r.bmp	0	1	+	0	1	blank2r.bmp	500	1	B1r.bmp	500	1	blank2r.bmp	880	2	ehrlich	880	0	0	0	0	0	0	0	0	0	0	0	0
2024-06-20	12:16:26	12:22:08	341445	6.6.1	4_exp_EVA_AWA_CON	93	B	A	Rpleas_acq	Same	Rpleas	1pleas	acq_US_unple_nomask	acq1_nomask	1	12	0	0	300	300	0	0	733	46	1	0	schlau	lachen	retten	fair	loyal	helfen	schroff	leiden	rächen	faul	lasch	hindern	schön	ehrlich	treu	spielen	freundlich	tolerant	schlecht	eitel	tot	strafen	fanatisch	tyrannisch	1	blank2r.bmp	0	1	+	0	1	blank2r.bmp	500	1	GKQX	500	1	blank2r.bmp	880	6	hindern	880	0	0	0	0	0	0	0	0	0	0	0	0
2024-06-20	12:16:26	12:22:14	347181	6.6.1	4_exp_EVA_AWA_CON	93	B	A	Rpleas_acq	Same	Rpleas	1pleas	acq_US_pleas_nomask	acq1_nomask	1	13	0	0	300	300	0	0	4247	50	1	0	schlau	lachen	retten	fair	loyal	helfen	schroff	leiden	rächen	faul	lasch	hindern	schön	ehrlich	treu	spielen	freundlich	tolerant	schlecht	eitel	tot	strafen	fanatisch	tyrannisch	1	blank2r.bmp	0	1	+	0	1	blank2r.bmp	500	1	BMVZ	500	1	blank2r.bmp	880	4	fair	880	0	0	0	0	0	0	0	0	0	0	0	0
2024-06-20	12:16:26	12:22:17	350613	6.6.1	4_exp_EVA_AWA_CON	93	B	A	Rpleas_acq	Same	Rpleas	1pleas	acq_US_pleas_nomask	acq1_nomask	1	14	0	0	300	300	0	0	1946	50	1	0	schlau	lachen	retten	fair	loyal	helfen	schroff	leiden	rächen	faul	lasch	hindern	schön	ehrlich	treu	spielen	freundlich	tolerant	schlecht	eitel	tot	strafen	fanatisch	tyrannisch	1	blank2r.bmp	0	1	+	0	1	blank2r.bmp	500	1	BMVZ	500	1	blank2r.bmp	880	2	lachen	880	0	0	0	0	0	0	0	0	0	0	0	0
2024-06-20	12:16:26	12:22:20	353069	6.6.1	4_exp_EVA_AWA_CON	93	B	A	Rpleas_acq	Same	Rpleas	1pleas	acq_US_pleas_nomask	acq1_nomask	1	15	0	0	300	300	0	0	969	50	1	0	schlau	lachen	retten	fair	loyal	helfen	schroff	leiden	rächen	faul	lasch	hindern	schön	ehrlich	treu	spielen	freundlich	tolerant	schlecht	eitel	tot	strafen	fanatisch	tyrannisch	1	blank2r.bmp	0	1	+	0	1	blank2r.bmp	500	1	BMVZ	500	1	blank2r.bmp	880	6	helfen	880	0	0	0	0	0	0	0	0	0	0	0	0
2024-06-20	12:16:26	12:22:22	355413	6.6.1	4_exp_EVA_AWA_CON	93	B	A	Rpleas_acq	Same	Rpleas	1pleas	acq_US_unple_nomask	acq1_nomask	1	16	0	0	300	300	0	0	862	46	1	0	schlau	lachen	retten	fair	loyal	helfen	schroff	leiden	rächen	faul	lasch	hindern	schön	ehrlich	treu	spielen	freundlich	tolerant	schlecht	eitel	tot	strafen	fanatisch	tyrannisch	1	blank2r.bmp	0	1	+	0	1	blank2r.bmp	500	1	GKQX	500	1	blank2r.bmp	880	2	leiden	880	0	0	0	0	0	0	0	0	0	0	0	0
2024-06-20	12:16:26	12:22:24	357414	6.6.1	4_exp_EVA_AWA_CON	93	B	A	Rpleas_acq	Same	Rpleas	1pleas	acq_new_unple_nomask	acq1_nomask	1	17	0	0	300	300	0	0	520	46	1	0	schlau	lachen	retten	fair	loyal	helfen	schroff	leiden	rächen	faul	lasch	hindern	schön	ehrlich	treu	spielen	freundlich	tolerant	schlecht	eitel	tot	strafen	fanatisch	tyrannisch	1	blank2r.bmp	0	1	+	0	1	blank2r.bmp	500	7	C3r.bmp	500	1	blank2r.bmp	880	3	tot	880	0	0	0	0	0	0	0	0	0	0	0	0
2024-06-20	12:16:26	12:22:26	359469	6.6.1	4_exp_EVA_AWA_CON	93	B	A	Rpleas_acq	Same	Rpleas	1pleas	acq_new_pleas_nomask	acq1_nomask	1	18	0	0	300	300	0	0	575	50	1	0	schlau	lachen	retten	fair	loyal	helfen	schroff	leiden	rächen	faul	lasch	hindern	schön	ehrlich	treu	spielen	freundlich	tolerant	schlecht	eitel	tot	strafen	fanatisch	tyrannisch	1	blank2r.bmp	0	1	+	0	1	blank2r.bmp	500	4	B4r.bmp	500	1	blank2r.bmp	880	5	freundlich	880	0	0	0	0	0	0	0	0	0	0	0	0
2024-06-20	12:16:26	12:22:28	361589	6.6.1	4_exp_EVA_AWA_CON	93	B	A	Rpleas_acq	Same	Rpleas	1pleas	acq_US_unple_nomask	acq1_nomask	1	19	0	0	300	300	0	0	634	46	1	0	schlau	lachen	retten	fair	loyal	helfen	schroff	leiden	rächen	faul	lasch	hindern	schön	ehrlich	treu	spielen	freundlich	tolerant	schlecht	eitel	tot	strafen	fanatisch	tyrannisch	1	blank2r.bmp	0	1	+	0	1	blank2r.bmp	500	1	GKQX	500	1	blank2r.bmp	880	5	lasch	880	0	0	0	0	0	0	0	0	0	0	0	0
2024-06-20	12:16:26	12:22:30	363701	6.6.1	4_exp_EVA_AWA_CON	93	B	A	Rpleas_acq	Same	Rpleas	1pleas	acq_new_pleas_nomask	acq1_nomask	1	20	0	0	300	300	0	0	624	50	1	0	schlau	lachen	retten	fair	loyal	helfen	schroff	leiden	rächen	faul	lasch	hindern	schön	ehrlich	treu	spielen	freundlich	tolerant	schlecht	eitel	tot	strafen	fanatisch	tyrannisch	1	blank2r.bmp	0	1	+	0	1	blank2r.bmp	500	5	C1r.bmp	500	1	blank2r.bmp	880	3	treu	880	0	0	0	0	0	0	0	0	0	0	0	0
2024-06-20	12:16:26	12:22:33	365965	6.6.1	4_exp_EVA_AWA_CON	93	B	A	Rpleas_acq	Same	Rpleas	1pleas	acq_new_unple_nomask	acq1_nomask	1	21	0	0	300	300	0	0	777	46	1	0	schlau	lachen	retten	fair	loyal	helfen	schroff	leiden	rächen	faul	lasch	hindern	schön	ehrlich	treu	spielen	freundlich	tolerant	schlecht	eitel	tot	strafen	fanatisch	tyrannisch	1	blank2r.bmp	0	1	+	0	1	blank2r.bmp	500	8	C4r.bmp	500	1	blank2r.bmp	880	5	fanatisch	880	0	0	0	0	0	0	0	0	0	0	0	0
2024-06-20	12:16:26	12:22:35	368469	6.6.1	4_exp_EVA_AWA_CON	93	B	A	Rpleas_acq	Same	Rpleas	1pleas	acq_new_unple_nomask	acq1_nomask	1	22	0	0	300	300	0	0	1019	46	1	0	schlau	lachen	retten	fair	loyal	helfen	schroff	leiden	rächen	faul	lasch	hindern	schön	ehrlich	treu	spielen	freundlich	tolerant	schlecht	eitel	tot	strafen	fanatisch	tyrannisch	1	blank2r.bmp	0	1	+	0	1	blank2r.bmp	500	7	C3r.bmp	500	1	blank2r.bmp	880	1	schlecht	880	0	0	0	0	0	0	0	0	0	0	0	0
2024-06-20	12:16:26	12:22:37	370901	6.6.1	4_exp_EVA_AWA_CON	93	B	A	Rpleas_acq	Same	Rpleas	1pleas	acq_new_pleas_nomask	acq1_nomask	1	23	0	0	300	300	0	0	950	50	1	0	schlau	lachen	retten	fair	loyal	helfen	schroff	leiden	rächen	faul	lasch	hindern	schön	ehrlich	treu	spielen	freundlich	tolerant	schlecht	eitel	tot	strafen	fanatisch	tyrannisch	1	blank2r.bmp	0	1	+	0	1	blank2r.bmp	500	1	B1r.bmp	500	1	blank2r.bmp	880	4	spielen	880	0	0	0	0	0	0	0	0	0	0	0	0
2024-06-20	12:16:26	12:22:40	372974	6.6.1	4_exp_EVA_AWA_CON	93	B	A	Rpleas_acq	Same	Rpleas	1pleas	acq_US_unple_nomask	acq1_nomask	1	24	0	0	300	300	0	0	590	46	1	0	schlau	lachen	retten	fair	loyal	helfen	schroff	leiden	rächen	faul	lasch	hindern	schön	ehrlich	treu	spielen	freundlich	tolerant	schlecht	eitel	tot	strafen	fanatisch	tyrannisch	1	blank2r.bmp	0	1	+	0	1	blank2r.bmp	500	1	GKQX	500	1	blank2r.bmp	880	1	schroff	880	0	0	0	0	0	0	0	0	0	0	0	0
2024-06-20	12:16:26	12:22:42	375349	6.6.1	4_exp_EVA_AWA_CON	93	B	A	Rpleas_acq	Same	Rpleas	1pleas	acq_new_unple_nomask	acq1_nomask	1	25	0	0	300	300	0	0	895	46	1	0	schlau	lachen	retten	fair	loyal	helfen	schroff	leiden	rächen	faul	lasch	hindern	schön	ehrlich	treu	spielen	freundlich	tolerant	schlecht	eitel	tot	strafen	fanatisch	tyrannisch	1	blank2r.bmp	0	1	+	0	1	blank2r.bmp	500	6	C2r.bmp	500	1	blank2r.bmp	880	5	fanatisch	880	0	0	0	0	0	0	0	0	0	0	0	0
2024-06-20	12:16:26	12:22:44	377797	6.6.1	4_exp_EVA_AWA_CON	93	B	A	Rpleas_acq	Same	Rpleas	1pleas	acq_US_pleas_nomask	acq1_nomask	1	26	0	0	300	300	0	0	961	50	1	0	schlau	lachen	retten	fair	loyal	helfen	schroff	leiden	rächen	faul	lasch	hindern	schön	ehrlich	treu	spielen	freundlich	tolerant	schlecht	eitel	tot	strafen	fanatisch	tyrannisch	1	blank2r.bmp	0	1	+	0	1	blank2r.bmp	500	1	BMVZ	500	1	blank2r.bmp	880	4	fair	880	0	0	0	0	0	0	0	0	0	0	0	0
2024-06-20	12:16:26	12:22:47	380141	6.6.1	4_exp_EVA_AWA_CON	93	B	A	Rpleas_acq	Same	Rpleas	1pleas	acq_US_unple_nomask	acq1_nomask	1	27	0	0	300	300	0	0	864	46	1	0	schlau	lachen	retten	fair	loyal	helfen	schroff	leiden	rächen	faul	lasch	hindern	schön	ehrlich	treu	spielen	freundlich	tolerant	schlecht	eitel	tot	strafen	fanatisch	tyrannisch	1	blank2r.bmp	0	1	+	0	1	blank2r.bmp	500	1	GKQX	500	1	blank2r.bmp	880	3	rächen	880	0	0	0	0	0	0	0	0	0	0	0	0
2024-06-20	12:16:26	12:22:50	383221	6.6.1	4_exp_EVA_AWA_CON	93	B	A	Rpleas_acq	Same	Rpleas	1pleas	acq_new_pleas_nomask	acq1_nomask	1	28	0	0	300	300	0	0	1592	50	1	0	schlau	lachen	retten	fair	loyal	helfen	schroff	leiden	rächen	faul	lasch	hindern	schön	ehrlich	treu	spielen	freundlich	tolerant	schlecht	eitel	tot	strafen	fanatisch	tyrannisch	1	blank2r.bmp	0	1	+	0	1	blank2r.bmp	500	3	B3r.bmp	500	1	blank2r.bmp	880	3	treu	880	0	0	0	0	0	0	0	0	0	0	0	0
2024-06-20	12:16:26	12:22:52	385317	6.6.1	4_exp_EVA_AWA_CON	93	B	A	Rpleas_acq	Same	Rpleas	1pleas	acq_new_pleas_nomask	acq1_nomask	1	29	0	0	300	300	0	0	606	50	1	0	schlau	lachen	retten	fair	loyal	helfen	schroff	leiden	rächen	faul	lasch	hindern	schön	ehrlich	treu	spielen	freundlich	tolerant	schlecht	eitel	tot	strafen	fanatisch	tyrannisch	1	blank2r.bmp	0	1	+	0	1	blank2r.bmp	500	2	B2r.bmp	500	1	blank2r.bmp	880	5	freundlich	880	0	0	0	0	0	0	0	0	0	0	0	0
2024-06-20	12:16:26	12:22:54	387414	6.6.1	4_exp_EVA_AWA_CON	93	B	A	Rpleas_acq	Same	Rpleas	1pleas	acq_US_unple_nomask	acq1_nomask	1	30	0	0	300	300	0	0	611	46	1	0	schlau	lachen	retten	fair	loyal	helfen	schroff	leiden	rächen	faul	lasch	hindern	schön	ehrlich	treu	spielen	freundlich	tolerant	schlecht	eitel	tot	strafen	fanatisch	tyrannisch	1	blank2r.bmp	0	1	+	0	1	blank2r.bmp	500	1	GKQX	500	1	blank2r.bmp	880	5	lasch	880	0	0	0	0	0	0	0	0	0	0	0	0
2024-06-20	12:16:26	12:22:56	389781	6.6.1	4_exp_EVA_AWA_CON	93	B	A	Rpleas_acq	Same	Rpleas	1pleas	acq_US_pleas_nomask	acq1_nomask	1	31	0	0	300	300	0	0	887	50	1	0	schlau	lachen	retten	fair	loyal	helfen	schroff	leiden	rächen	faul	lasch	hindern	schön	ehrlich	treu	spielen	freundlich	tolerant	schlecht	eitel	tot	strafen	fanatisch	tyrannisch	1	blank2r.bmp	0	1	+	0	1	blank2r.bmp	500	1	BMVZ	500	1	blank2r.bmp	880	5	loyal	880	0	0	0	0	0	0	0	0	0	0	0	0
2024-06-20	12:16:26	12:22:59	392029	6.6.1	4_exp_EVA_AWA_CON	93	B	A	Rpleas_acq	Same	Rpleas	1pleas	acq_US_unple_nomask	acq1_nomask	1	32	0	0	300	300	0	0	764	46	1	0	schlau	lachen	retten	fair	loyal	helfen	schroff	leiden	rächen	faul	lasch	hindern	schön	ehrlich	treu	spielen	freundlich	tolerant	schlecht	eitel	tot	strafen	fanatisch	tyrannisch	1	blank2r.bmp	0	1	+	0	1	blank2r.bmp	500	1	GKQX	500	1	blank2r.bmp	880	2	leiden	880	0	0	0	0	0	0	0	0	0	0	0	0
2024-06-20	12:16:26	12:23:01	393989	6.6.1	4_exp_EVA_AWA_CON	93	B	A	Rpleas_acq	Same	Rpleas	1pleas	acq_new_pleas_nomask	acq1_nomask	1	33	0	0	300	300	0	0	472	50	1	0	schlau	lachen	retten	fair	loyal	helfen	schroff	leiden	rächen	faul	lasch	hindern	schön	ehrlich	treu	spielen	freundlich	tolerant	schlecht	eitel	tot	strafen	fanatisch	tyrannisch	1	blank2r.bmp	0	1	+	0	1	blank2r.bmp	500	4	B4r.bmp	500	1	blank2r.bmp	880	4	spielen	880	0	0	0	0	0	0	0	0	0	0	0	0
2024-06-20	12:16:26	12:23:03	396350	6.6.1	4_exp_EVA_AWA_CON	93	B	A	Rpleas_acq	Same	Rpleas	1pleas	acq_new_unple_nomask	acq1_nomask	1	34	0	0	300	300	0	0	871	46	1	0	schlau	lachen	retten	fair	loyal	helfen	schroff	leiden	rächen	faul	lasch	hindern	schön	ehrlich	treu	spielen	freundlich	tolerant	schlecht	eitel	tot	strafen	fanatisch	tyrannisch	1	blank2r.bmp	0	1	+	0	1	blank2r.bmp	500	5	C1r.bmp	500	1	blank2r.bmp	880	6	tyrannisch	880	0	0	0	0	0	0	0	0	0	0	0	0
2024-06-20	12:16:26	12:23:05	398405	6.6.1	4_exp_EVA_AWA_CON	93	B	A	Rpleas_acq	Same	Rpleas	1pleas	acq_new_unple_nomask	acq1_nomask	1	35	0	0	300	300	0	0	576	46	1	0	schlau	lachen	retten	fair	loyal	helfen	schroff	leiden	rächen	faul	lasch	hindern	schön	ehrlich	treu	spielen	freundlich	tolerant	schlecht	eitel	tot	strafen	fanatisch	tyrannisch	1	blank2r.bmp	0	1	+	0	1	blank2r.bmp	500	6	C2r.bmp	500	1	blank2r.bmp	880	1	schlecht	880	0	0	0	0	0	0	0	0	0	0	0	0
2024-06-20	12:16:26	12:23:07	400525	6.6.1	4_exp_EVA_AWA_CON	93	B	A	Rpleas_acq	Same	Rpleas	1pleas	acq_US_pleas_nomask	acq1_nomask	1	36	0	0	300	300	0	0	634	50	1	0	schlau	lachen	retten	fair	loyal	helfen	schroff	leiden	rächen	faul	lasch	hindern	schön	ehrlich	treu	spielen	freundlich	tolerant	schlecht	eitel	tot	strafen	fanatisch	tyrannisch	1	blank2r.bmp	0	1	+	0	1	blank2r.bmp	500	1	BMVZ	500	1	blank2r.bmp	880	3	retten	880	0	0	0	0	0	0	0	0	0	0	0	0
2024-06-20	12:16:26	12:24:07	460607	6.6.1	4_exp_EVA_AWA_CON	93	B	A	Rpleas_acq	Same	Rpleas	1pleas	acq_US_pleas_nomask	acq2_nomask	2	1	480	0	300	300	0	0	1608	50	1	0	schlau	lachen	retten	fair	loyal	helfen	schroff	leiden	rächen	faul	lasch	hindern	schön	ehrlich	treu	spielen	freundlich	tolerant	schlecht	eitel	tot	strafen	fanatisch	tyrannisch	1	blank2r.bmp	0	1	+	0	1	blank2r.bmp	500	1	BMVZ	500	1	blank2r.bmp	880	1	schlau	880	1	!	1312	1	!	-1	0	0	0	0	0	0
2024-06-20	12:16:26	12:24:10	463119	6.6.1	4_exp_EVA_AWA_CON	93	B	A	Rpleas_acq	Same	Rpleas	1pleas	acq_US_unple_nomask	acq2_nomask	2	2	480	0	300	300	0	0	738	46	1	0	schlau	lachen	retten	fair	loyal	helfen	schroff	leiden	rächen	faul	lasch	hindern	schön	ehrlich	treu	spielen	freundlich	tolerant	schlecht	eitel	tot	strafen	fanatisch	tyrannisch	1	blank2r.bmp	0	1	+	0	1	blank2r.bmp	500	1	GKQX	500	1	blank2r.bmp	880	6	hindern	880	1	!	1313	1	!	-1	0	0	0	0	0	0
2024-06-20	12:16:26	12:24:12	465417	6.6.1	4_exp_EVA_AWA_CON	93	B	A	Rpleas_acq	Same	Rpleas	1pleas	acq_US_pleas_nomask	acq2_nomask	2	3	480	1	300	300	0	0	522	50	1	0	schlau	lachen	retten	fair	loyal	helfen	schroff	leiden	rächen	faul	lasch	hindern	schön	ehrlich	treu	spielen	freundlich	tolerant	schlecht	eitel	tot	strafen	fanatisch	tyrannisch	1	blank2r.bmp	0	1	+	0	1	blank2r.bmp	500	1	BMVZ	500	1	blank2r.bmp	880	2	lachen	880	1	!	1313	1	!	1423	0	0	0	0	0	0
2024-06-20	12:16:26	12:24:14	467823	6.6.1	4_exp_EVA_AWA_CON	93	B	A	Rpleas_acq	Same	Rpleas	1pleas	acq_new_pleas_nomask	acq2_nomask	2	4	480	0	300	300	0	0	628	50	1	0	schlau	lachen	retten	fair	loyal	helfen	schroff	leiden	rächen	faul	lasch	hindern	schön	ehrlich	treu	spielen	freundlich	tolerant	schlecht	eitel	tot	strafen	fanatisch	tyrannisch	1	blank2r.bmp	0	1	+	0	1	blank2r.bmp	500	8	C4r.bmp	500	1	blank2r.bmp	880	1	schön	880	1	!	1312	1	!	-1	0	0	0	0	0	0
2024-06-20	12:16:26	12:24:17	469983	6.6.1	4_exp_EVA_AWA_CON	93	B	A	Rpleas_acq	Same	Rpleas	1pleas	acq_new_unple_nomask	acq2_nomask	2	5	480	0	300	300	0	0	387	46	1	0	schlau	lachen	retten	fair	loyal	helfen	schroff	leiden	rächen	faul	lasch	hindern	schön	ehrlich	treu	spielen	freundlich	tolerant	schlecht	eitel	tot	strafen	fanatisch	tyrannisch	1	blank2r.bmp	0	1	+	0	1	blank2r.bmp	500	4	B4r.bmp	500	1	blank2r.bmp	880	3	tot	880	1	!	-1	1	!	-1	0	0	0	0	0	0
2024-06-20	12:16:26	12:24:22	475463	6.6.1	4_exp_EVA_AWA_CON	93	B	A	Rpleas_acq	Same	Rpleas	1pleas	acq_new_unple_nomask	acq2_nomask	2	6	480	0	300	300	0	0	3705	46	1	0	schlau	lachen	retten	fair	loyal	helfen	schroff	leiden	rächen	faul	lasch	hindern	schön	ehrlich	treu	spielen	freundlich	tolerant	schlecht	eitel	tot	strafen	fanatisch	tyrannisch	1	blank2r.bmp	0	1	+	0	1	blank2r.bmp	500	7	C3r.bmp	500	1	blank2r.bmp	880	4	strafen	880	1	!	1313	1	!	-1	0	0	0	0	0	0
2024-06-20	12:16:26	12:24:24	477847	6.6.1	4_exp_EVA_AWA_CON	93	B	A	Rpleas_acq	Same	Rpleas	1pleas	acq_US_unple_nomask	acq2_nomask	2	7	480	0	300	300	0	0	606	46	1	0	schlau	lachen	retten	fair	loyal	helfen	schroff	leiden	rächen	faul	lasch	hindern	schön	ehrlich	treu	spielen	freundlich	tolerant	schlecht	eitel	tot	strafen	fanatisch	tyrannisch	1	blank2r.bmp	0	1	+	0	1	blank2r.bmp	500	1	GKQX	500	1	blank2r.bmp	880	4	faul	880	1	!	1313	1	!	-1	0	0	0	0	0	0
2024-06-20	12:16:26	12:24:27	480335	6.6.1	4_exp_EVA_AWA_CON	93	B	A	Rpleas_acq	Same	Rpleas	1pleas	acq_new_pleas_nomask	acq2_nomask	2	8	480	0	300	300	0	0	712	50	1	0	schlau	lachen	retten	fair	loyal	helfen	schroff	leiden	rächen	faul	lasch	hindern	schön	ehrlich	treu	spielen	freundlich	tolerant	schlecht	eitel	tot	strafen	fanatisch	tyrannisch	1	blank2r.bmp	0	1	+	0	1	blank2r.bmp	500	1	B1r.bmp	500	1	blank2r.bmp	880	6	tolerant	880	1	!	1312	1	!	-1	0	0	0	0	0	0
2024-06-20	12:16:26	12:24:29	482609	6.6.1	4_exp_EVA_AWA_CON	93	B	A	Rpleas_acq	Same	Rpleas	1pleas	acq_US_pleas_nomask	acq2_nomask	2	9	480	1	300	300	0	0	493	50	1	0	schlau	lachen	retten	fair	loyal	helfen	schroff	leiden	rächen	faul	lasch	hindern	schön	ehrlich	treu	spielen	freundlich	tolerant	schlecht	eitel	tot	strafen	fanatisch	tyrannisch	1	blank2r.bmp	0	1	+	0	1	blank2r.bmp	500	1	BMVZ	500	1	blank2r.bmp	880	6	helfen	880	1	!	1312	1	!	1394	0	0	0	0	0	0
2024-06-20	12:16:26	12:24:32	485211	6.6.1	4_exp_EVA_AWA_CON	93	B	A	Rpleas_acq	Same	Rpleas	1pleas	acq_new_unple_nomask	acq2_nomask	2	10	480	0	300	300	0	0	621	50	0	0	schlau	lachen	retten	fair	loyal	helfen	schroff	leiden	rächen	faul	lasch	hindern	schön	ehrlich	treu	spielen	freundlich	tolerant	schlecht	eitel	tot	strafen	fanatisch	tyrannisch	1	blank2r.bmp	0	1	+	0	1	blank2r.bmp	500	2	B2r.bmp	500	1	blank2r.bmp	880	2	eitel	880	1	FEHLER	1815	1	!	1313	1	!	-1	0	0	0
2024-06-20	12:16:26	12:24:34	487210	6.6.1	4_exp_EVA_AWA_CON	93	B	A	Rpleas_acq	Same	Rpleas	1pleas	acq_new_pleas_nomask	acq2_nomask	2	11	480	0	300	300	0	0	220	46	0	0	schlau	lachen	retten	fair	loyal	helfen	schroff	leiden	rächen	faul	lasch	hindern	schön	ehrlich	treu	spielen	freundlich	tolerant	schlecht	eitel	tot	strafen	fanatisch	tyrannisch	1	blank2r.bmp	0	1	+	0	1	blank2r.bmp	500	3	B3r.bmp	500	1	blank2r.bmp	880	2	ehrlich	880	1	FEHLER	1413	1	!	-1	1	!	-1	0	0	0
2024-06-20	12:16:26	12:24:36	489447	6.6.1	4_exp_EVA_AWA_CON	93	B	A	Rpleas_acq	Same	Rpleas	1pleas	acq_US_unple_nomask	acq2_nomask	2	12	480	0	300	300	0	0	658	46	1	0	schlau	lachen	retten	fair	loyal	helfen	schroff	leiden	rächen	faul	lasch	hindern	schön	ehrlich	treu	spielen	freundlich	tolerant	schlecht	eitel	tot	strafen	fanatisch	tyrannisch	1	blank2r.bmp	0	1	+	0	1	blank2r.bmp	500	1	GKQX	500	1	blank2r.bmp	880	1	schroff	880	1	!	1312	1	!	-1	0	0	0	0	0	0
2024-06-20	12:16:26	12:24:38	491773	6.6.1	4_exp_EVA_AWA_CON	93	B	A	Rpleas_acq	Same	Rpleas	1pleas	acq_new_pleas_nomask	acq2_nomask	2	13	480	0	300	300	0	0	555	50	1	0	schlau	lachen	retten	fair	loyal	helfen	schroff	leiden	rächen	faul	lasch	hindern	schön	ehrlich	treu	spielen	freundlich	tolerant	schlecht	eitel	tot	strafen	fanatisch	tyrannisch	1	blank2r.bmp	0	1	+	0	1	blank2r.bmp	500	8	C4r.bmp	500	1	blank2r.bmp	880	6	tolerant	880	1	!	1313	1	!	-1	0	0	0	0	0	0
2024-06-20	12:16:26	12:24:41	494183	6.6.1	4_exp_EVA_AWA_CON	93	B	A	Rpleas_acq	Same	Rpleas	1pleas	acq_new_pleas_nomask	acq2_nomask	2	14	480	0	300	300	0	0	631	50	1	0	schlau	lachen	retten	fair	loyal	helfen	schroff	leiden	rächen	faul	lasch	hindern	schön	ehrlich	treu	spielen	freundlich	tolerant	schlecht	eitel	tot	strafen	fanatisch	tyrannisch	1	blank2r.bmp	0	1	+	0	1	blank2r.bmp	500	7	C3r.bmp	500	1	blank2r.bmp	880	5	freundlich	880	1	!	1313	1	!	-1	0	0	0	0	0	0
2024-06-20	12:16:26	12:24:43	496517	6.6.1	4_exp_EVA_AWA_CON	93	B	A	Rpleas_acq	Same	Rpleas	1pleas	acq_US_pleas_nomask	acq2_nomask	2	15	480	0	300	300	0	0	555	50	1	0	schlau	lachen	retten	fair	loyal	helfen	schroff	leiden	rächen	faul	lasch	hindern	schön	ehrlich	treu	spielen	freundlich	tolerant	schlecht	eitel	tot	strafen	fanatisch	tyrannisch	1	blank2r.bmp	0	1	+	0	1	blank2r.bmp	500	1	BMVZ	500	1	blank2r.bmp	880	5	loyal	880	1	!	1312	1	!	-1	0	0	0	0	0	0
2024-06-20	12:16:26	12:24:45	498738	6.6.1	4_exp_EVA_AWA_CON	93	B	A	Rpleas_acq	Same	Rpleas	1pleas	acq_US_pleas_nomask	acq2_nomask	2	16	480	1	300	300	0	0	440	50	1	0	schlau	lachen	retten	fair	loyal	helfen	schroff	leiden	rächen	faul	lasch	hindern	schön	ehrlich	treu	spielen	freundlich	tolerant	schlecht	eitel	tot	strafen	fanatisch	tyrannisch	1	blank2r.bmp	0	1	+	0	1	blank2r.bmp	500	1	BMVZ	500	1	blank2r.bmp	880	3	retten	880	1	!	1313	1	!	1342	0	0	0	0	0	0
2024-06-20	12:16:26	12:24:48	501122	6.6.1	4_exp_EVA_AWA_CON	93	B	A	Rpleas_acq	Same	Rpleas	1pleas	acq_new_unple_nomask	acq2_nomask	2	17	480	0	300	300	0	0	403	50	0	0	schlau	lachen	retten	fair	loyal	helfen	schroff	leiden	rächen	faul	lasch	hindern	schön	ehrlich	treu	spielen	freundlich	tolerant	schlecht	eitel	tot	strafen	fanatisch	tyrannisch	1	blank2r.bmp	0	1	+	0	1	blank2r.bmp	500	5	C1r.bmp	500	1	blank2r.bmp	880	2	eitel	880	1	FEHLER	1596	1	!	-1	1	!	-1	0	0	0
2024-06-20	12:16:26	12:24:50	503447	6.6.1	4_exp_EVA_AWA_CON	93	B	A	Rpleas_acq	Same	Rpleas	1pleas	acq_US_unple_nomask	acq2_nomask	2	18	480	0	300	300	0	0	749	46	1	0	schlau	lachen	retten	fair	loyal	helfen	schroff	leiden	rächen	faul	lasch	hindern	schön	ehrlich	treu	spielen	freundlich	tolerant	schlecht	eitel	tot	strafen	fanatisch	tyrannisch	1	blank2r.bmp	0	1	+	0	1	blank2r.bmp	500	1	GKQX	500	1	blank2r.bmp	880	1	schroff	880	1	!	1313	1	!	-1	0	0	0	0	0	0
2024-06-20	12:16:26	12:24:52	505863	6.6.1	4_exp_EVA_AWA_CON	93	B	A	Rpleas_acq	Same	Rpleas	1pleas	acq_US_unple_nomask	acq2_nomask	2	19	480	0	300	300	0	0	644	46	1	0	schlau	lachen	retten	fair	loyal	helfen	schroff	leiden	rächen	faul	lasch	hindern	schön	ehrlich	treu	spielen	freundlich	tolerant	schlecht	eitel	tot	strafen	fanatisch	tyrannisch	1	blank2r.bmp	0	1	+	0	1	blank2r.bmp	500	1	GKQX	500	1	blank2r.bmp	880	2	leiden	880	1	!	1313	1	!	-1	0	0	0	0	0	0
2024-06-20	12:16:26	12:24:55	508279	6.6.1	4_exp_EVA_AWA_CON	93	B	A	Rpleas_acq	Same	Rpleas	1pleas	acq_new_unple_nomask	acq2_nomask	2	20	480	0	300	300	0	0	638	46	1	0	schlau	lachen	retten	fair	loyal	helfen	schroff	leiden	rächen	faul	lasch	hindern	schön	ehrlich	treu	spielen	freundlich	tolerant	schlecht	eitel	tot	strafen	fanatisch	tyrannisch	1	blank2r.bmp	0	1	+	0	1	blank2r.bmp	500	6	C2r.bmp	500	1	blank2r.bmp	880	3	tot	880	1	!	1312	1	!	-1	0	0	0	0	0	0
2024-06-20	12:16:26	12:24:57	510464	6.6.1	4_exp_EVA_AWA_CON	93	B	A	Rpleas_acq	Same	Rpleas	1pleas	acq_US_pleas_nomask	acq2_nomask	2	21	480	0	300	300	0	0	410	50	1	0	schlau	lachen	retten	fair	loyal	helfen	schroff	leiden	rächen	faul	lasch	hindern	schön	ehrlich	treu	spielen	freundlich	tolerant	schlecht	eitel	tot	strafen	fanatisch	tyrannisch	1	blank2r.bmp	0	1	+	0	1	blank2r.bmp	500	1	BMVZ	500	1	blank2r.bmp	880	4	fair	880	1	!	-1	1	!	-1	0	0	0	0	0	0
2024-06-20	12:16:26	12:24:59	512839	6.6.1	4_exp_EVA_AWA_CON	93	B	A	Rpleas_acq	Same	Rpleas	1pleas	acq_US_unple_nomask	acq2_nomask	2	22	480	0	300	300	0	0	595	46	1	0	schlau	lachen	retten	fair	loyal	helfen	schroff	leiden	rächen	faul	lasch	hindern	schön	ehrlich	treu	spielen	freundlich	tolerant	schlecht	eitel	tot	strafen	fanatisch	tyrannisch	1	blank2r.bmp	0	1	+	0	1	blank2r.bmp	500	1	GKQX	500	1	blank2r.bmp	880	3	rächen	880	1	!	1312	1	!	-1	0	0	0	0	0	0
2024-06-20	12:16:26	12:25:02	515089	6.6.1	4_exp_EVA_AWA_CON	93	B	A	Rpleas_acq	Same	Rpleas	1pleas	acq_new_pleas_nomask	acq2_nomask	2	23	480	1	300	300	0	0	471	50	1	0	schlau	lachen	retten	fair	loyal	helfen	schroff	leiden	rächen	faul	lasch	hindern	schön	ehrlich	treu	spielen	freundlich	tolerant	schlecht	eitel	tot	strafen	fanatisch	tyrannisch	1	blank2r.bmp	0	1	+	0	1	blank2r.bmp	500	3	B3r.bmp	500	1	blank2r.bmp	880	2	ehrlich	880	1	!	1313	1	!	1373	0	0	0	0	0	0
2024-06-20	12:16:26	12:25:04	517345	6.6.1	4_exp_EVA_AWA_CON	93	B	A	Rpleas_acq	Same	Rpleas	1pleas	acq_new_unple_nomask	acq2_nomask	2	24	480	1	300	300	0	0	476	46	1	0	schlau	lachen	retten	fair	loyal	helfen	schroff	leiden	rächen	faul	lasch	hindern	schön	ehrlich	treu	spielen	freundlich	tolerant	schlecht	eitel	tot	strafen	fanatisch	tyrannisch	1	blank2r.bmp	0	1	+	0	1	blank2r.bmp	500	2	B2r.bmp	500	1	blank2r.bmp	880	5	fanatisch	880	1	!	1312	1	!	1377	0	0	0	0	0	0
2024-06-20	12:16:26	12:25:06	519811	6.6.1	4_exp_EVA_AWA_CON	93	B	A	Rpleas_acq	Same	Rpleas	1pleas	acq_US_unple_nomask	acq2_nomask	2	25	480	1	300	300	0	0	488	50	0	0	schlau	lachen	retten	fair	loyal	helfen	schroff	leiden	rächen	faul	lasch	hindern	schön	ehrlich	treu	spielen	freundlich	tolerant	schlecht	eitel	tot	strafen	fanatisch	tyrannisch	1	blank2r.bmp	0	1	+	0	1	blank2r.bmp	500	1	GKQX	500	1	blank2r.bmp	880	6	hindern	880	1	FEHLER	1682	1	!	1312	1	!	1390	0	0	0
2024-06-20	12:16:26	12:25:09	522079	6.6.1	4_exp_EVA_AWA_CON	93	B	A	Rpleas_acq	Same	Rpleas	1pleas	acq_US_unple_nomask	acq2_nomask	2	26	480	0	300	300	0	0	689	46	1	0	schlau	lachen	retten	fair	loyal	helfen	schroff	leiden	rächen	faul	lasch	hindern	schön	ehrlich	treu	spielen	freundlich	tolerant	schlecht	eitel	tot	strafen	fanatisch	tyrannisch	1	blank2r.bmp	0	1	+	0	1	blank2r.bmp	500	1	GKQX	500	1	blank2r.bmp	880	5	lasch	880	1	!	1312	1	!	-1	0	0	0	0	0	0
2024-06-20	12:16:26	12:25:11	524369	6.6.1	4_exp_EVA_AWA_CON	93	B	A	Rpleas_acq	Same	Rpleas	1pleas	acq_new_unple_nomask	acq2_nomask	2	27	480	1	300	300	0	0	515	46	1	0	schlau	lachen	retten	fair	loyal	helfen	schroff	leiden	rächen	faul	lasch	hindern	schön	ehrlich	treu	spielen	freundlich	tolerant	schlecht	eitel	tot	strafen	fanatisch	tyrannisch	1	blank2r.bmp	0	1	+	0	1	blank2r.bmp	500	1	B1r.bmp	500	1	blank2r.bmp	880	1	schlecht	880	1	!	1313	1	!	1417	0	0	0	0	0	0
2024-06-20	12:16:26	12:25:13	526775	6.6.1	4_exp_EVA_AWA_CON	93	B	A	Rpleas_acq	Same	Rpleas	1pleas	acq_US_pleas_nomask	acq2_nomask	2	28	480	0	300	300	0	0	632	50	1	0	schlau	lachen	retten	fair	loyal	helfen	schroff	leiden	rächen	faul	lasch	hindern	schön	ehrlich	treu	spielen	freundlich	tolerant	schlecht	eitel	tot	strafen	fanatisch	tyrannisch	1	blank2r.bmp	0	1	+	0	1	blank2r.bmp	500	1	BMVZ	500	1	blank2r.bmp	880	6	helfen	880	1	!	1312	1	!	-1	0	0	0	0	0	0
2024-06-20	12:16:26	12:25:16	529443	6.6.1	4_exp_EVA_AWA_CON	93	B	A	Rpleas_acq	Same	Rpleas	1pleas	acq_US_pleas_nomask	acq2_nomask	2	29	480	0	300	300	0	0	684	46	0	0	schlau	lachen	retten	fair	loyal	helfen	schroff	leiden	rächen	faul	lasch	hindern	schön	ehrlich	treu	spielen	freundlich	tolerant	schlecht	eitel	tot	strafen	fanatisch	tyrannisch	1	blank2r.bmp	0	1	+	0	1	blank2r.bmp	500	1	BMVZ	500	1	blank2r.bmp	880	2	lachen	880	1	FEHLER	1878	1	!	1313	1	!	-1	0	0	0
2024-06-20	12:16:26	12:25:18	531561	6.6.1	4_exp_EVA_AWA_CON	93	B	A	Rpleas_acq	Same	Rpleas	1pleas	acq_new_unple_nomask	acq2_nomask	2	30	480	1	300	300	0	0	543	46	1	0	schlau	lachen	retten	fair	loyal	helfen	schroff	leiden	rächen	faul	lasch	hindern	schön	ehrlich	treu	spielen	freundlich	tolerant	schlecht	eitel	tot	strafen	fanatisch	tyrannisch	1	blank2r.bmp	0	1	+	0	1	blank2r.bmp	500	4	B4r.bmp	500	1	blank2r.bmp	880	6	tyrannisch	880	1	!	1312	1	!	1444	0	0	0	0	0	0
2024-06-20	12:16:26	12:25:20	533911	6.6.1	4_exp_EVA_AWA_CON	93	B	A	Rpleas_acq	Same	Rpleas	1pleas	acq_new_pleas_nomask	acq2_nomask	2	31	480	0	300	300	0	0	573	50	1	0	schlau	lachen	retten	fair	loyal	helfen	schroff	leiden	rächen	faul	lasch	hindern	schön	ehrlich	treu	spielen	freundlich	tolerant	schlecht	eitel	tot	strafen	fanatisch	tyrannisch	1	blank2r.bmp	0	1	+	0	1	blank2r.bmp	500	3	B3r.bmp	500	1	blank2r.bmp	880	1	schön	880	1	!	1312	1	!	-1	0	0	0	0	0	0
2024-06-20	12:16:26	12:25:23	536111	6.6.1	4_exp_EVA_AWA_CON	93	B	A	Rpleas_acq	Same	Rpleas	1pleas	acq_new_pleas_nomask	acq2_nomask	2	32	480	1	300	300	0	0	422	50	1	0	schlau	lachen	retten	fair	loyal	helfen	schroff	leiden	rächen	faul	lasch	hindern	schön	ehrlich	treu	spielen	freundlich	tolerant	schlecht	eitel	tot	strafen	fanatisch	tyrannisch	1	blank2r.bmp	0	1	+	0	1	blank2r.bmp	500	7	C3r.bmp	500	1	blank2r.bmp	880	3	treu	880	1	!	1313	1	!	1321	0	0	0	0	0	0
2024-06-20	12:16:26	12:25:25	538361	6.6.1	4_exp_EVA_AWA_CON	93	B	A	Rpleas_acq	Same	Rpleas	1pleas	acq_US_unple_nomask	acq2_nomask	2	33	480	1	300	300	0	0	468	46	1	0	schlau	lachen	retten	fair	loyal	helfen	schroff	leiden	rächen	faul	lasch	hindern	schön	ehrlich	treu	spielen	freundlich	tolerant	schlecht	eitel	tot	strafen	fanatisch	tyrannisch	1	blank2r.bmp	0	1	+	0	1	blank2r.bmp	500	1	GKQX	500	1	blank2r.bmp	880	4	faul	880	1	!	1312	1	!	1369	0	0	0	0	0	0
2024-06-20	12:16:26	12:25:27	540760	6.6.1	4_exp_EVA_AWA_CON	93	B	A	Rpleas_acq	Same	Rpleas	1pleas	acq_US_pleas_nomask	acq2_nomask	2	34	480	1	300	300	0	0	417	46	0	0	schlau	lachen	retten	fair	loyal	helfen	schroff	leiden	rächen	faul	lasch	hindern	schön	ehrlich	treu	spielen	freundlich	tolerant	schlecht	eitel	tot	strafen	fanatisch	tyrannisch	1	blank2r.bmp	0	1	+	0	1	blank2r.bmp	500	1	BMVZ	500	1	blank2r.bmp	880	1	schlau	880	1	FEHLER	1608	1	!	1313	1	!	1316	0	0	0
2024-06-20	12:16:26	12:25:29	542927	6.6.1	4_exp_EVA_AWA_CON	93	B	A	Rpleas_acq	Same	Rpleas	1pleas	acq_new_unple_nomask	acq2_nomask	2	35	480	0	300	300	0	0	593	46	1	0	schlau	lachen	retten	fair	loyal	helfen	schroff	leiden	rächen	faul	lasch	hindern	schön	ehrlich	treu	spielen	freundlich	tolerant	schlecht	eitel	tot	strafen	fanatisch	tyrannisch	1	blank2r.bmp	0	1	+	0	1	blank2r.bmp	500	6	C2r.bmp	500	1	blank2r.bmp	880	4	strafen	880	1	!	1312	1	!	-1	0	0	0	0	0	0
2024-06-20	12:16:26	12:25:32	545258	6.6.1	4_exp_EVA_AWA_CON	93	B	A	Rpleas_acq	Same	Rpleas	1pleas	acq_new_pleas_nomask	acq2_nomask	2	36	480	1	300	300	0	0	550	50	1	0	schlau	lachen	retten	fair	loyal	helfen	schroff	leiden	rächen	faul	lasch	hindern	schön	ehrlich	treu	spielen	freundlich	tolerant	schlecht	eitel	tot	strafen	fanatisch	tyrannisch	1	blank2r.bmp	0	1	+	0	1	blank2r.bmp	500	4	B4r.bmp	500	1	blank2r.bmp	880	4	spielen	880	1	!	1313	1	!	1452	0	0	0	0	0	0
2024-06-20	12:16:26	12:25:49	562529	6.6.1	4_exp_EVA_AWA_CON	93	B	A	Rpleas_acq	Same	Rpleas	1pleas	acq_US_unple_nomask	acq3_nomask	3	1	453	1	300	300	0	0	450	46	1	0	schlau	lachen	retten	fair	loyal	helfen	schroff	leiden	rächen	faul	lasch	hindern	schön	ehrlich	treu	spielen	freundlich	tolerant	schlecht	eitel	tot	strafen	fanatisch	tyrannisch	1	blank2r.bmp	0	1	+	0	1	blank2r.bmp	500	1	GKQX	500	1	blank2r.bmp	880	4	faul	880	1	!	1292	1	!	1352	0	0	0	0	0	0
2024-06-20	12:16:26	12:25:52	564935	6.6.1	4_exp_EVA_AWA_CON	93	B	A	Rpleas_acq	Same	Rpleas	1pleas	acq_US_unple_nomask	acq3_nomask	3	2	453	0	300	300	0	0	627	46	1	0	schlau	lachen	retten	fair	loyal	helfen	schroff	leiden	rächen	faul	lasch	hindern	schön	ehrlich	treu	spielen	freundlich	tolerant	schlecht	eitel	tot	strafen	fanatisch	tyrannisch	1	blank2r.bmp	0	1	+	0	1	blank2r.bmp	500	1	GKQX	500	1	blank2r.bmp	880	2	leiden	880	1	!	1292	1	!	-1	0	0	0	0	0	0
2024-06-20	12:16:26	12:25:54	567303	6.6.1	4_exp_EVA_AWA_CON	93	B	A	Rpleas_acq	Same	Rpleas	1pleas	acq_US_pleas_nomask	acq3_nomask	3	3	453	0	300	300	0	0	593	50	1	0	schlau	lachen	retten	fair	loyal	helfen	schroff	leiden	rächen	faul	lasch	hindern	schön	ehrlich	treu	spielen	freundlich	tolerant	schlecht	eitel	tot	strafen	fanatisch	tyrannisch	1	blank2r.bmp	0	1	+	0	1	blank2r.bmp	500	1	BMVZ	500	1	blank2r.bmp	880	3	retten	880	1	!	1293	1	!	-1	0	0	0	0	0	0
2024-06-20	12:16:26	12:25:56	569537	6.6.1	4_exp_EVA_AWA_CON	93	B	A	Rpleas_acq	Same	Rpleas	1pleas	acq_US_pleas_nomask	acq3_nomask	3	4	453	1	300	300	0	0	454	50	1	0	schlau	lachen	retten	fair	loyal	helfen	schroff	leiden	rächen	faul	lasch	hindern	schön	ehrlich	treu	spielen	freundlich	tolerant	schlecht	eitel	tot	strafen	fanatisch	tyrannisch	1	blank2r.bmp	0	1	+	0	1	blank2r.bmp	500	1	BMVZ	500	1	blank2r.bmp	880	2	lachen	880	1	!	1293	1	!	1355	0	0	0	0	0	0
2024-06-20	12:16:26	12:25:59	571959	6.6.1	4_exp_EVA_AWA_CON	93	B	A	Rpleas_acq	Same	Rpleas	1pleas	acq_US_pleas_nomask	acq3_nomask	3	5	453	0	300	300	0	0	646	50	1	0	schlau	lachen	retten	fair	loyal	helfen	schroff	leiden	rächen	faul	lasch	hindern	schön	ehrlich	treu	spielen	freundlich	tolerant	schlecht	eitel	tot	strafen	fanatisch	tyrannisch	1	blank2r.bmp	0	1	+	0	1	blank2r.bmp	500	1	BMVZ	500	1	blank2r.bmp	880	4	fair	880	1	!	1293	1	!	-1	0	0	0	0	0	0
2024-06-20	12:16:26	12:26:01	574193	6.6.1	4_exp_EVA_AWA_CON	93	B	A	Rpleas_acq	Same	Rpleas	1pleas	acq_US_pleas_nomask	acq3_nomask	3	6	453	1	300	300	0	0	457	50	1	0	schlau	lachen	retten	fair	loyal	helfen	schroff	leiden	rächen	faul	lasch	hindern	schön	ehrlich	treu	spielen	freundlich	tolerant	schlecht	eitel	tot	strafen	fanatisch	tyrannisch	1	blank2r.bmp	0	1	+	0	1	blank2r.bmp	500	1	BMVZ	500	1	blank2r.bmp	880	5	loyal	880	1	!	1293	1	!	1358	0	0	0	0	0	0
2024-06-20	12:16:26	12:26:03	576659	6.6.1	4_exp_EVA_AWA_CON	93	B	A	Rpleas_acq	Same	Rpleas	1pleas	acq_US_pleas_nomask	acq3_nomask	3	7	453	1	300	300	0	0	489	46	0	0	schlau	lachen	retten	fair	loyal	helfen	schroff	leiden	rächen	faul	lasch	hindern	schön	ehrlich	treu	spielen	freundlich	tolerant	schlecht	eitel	tot	strafen	fanatisch	tyrannisch	1	blank2r.bmp	0	1	+	0	1	blank2r.bmp	500	1	BMVZ	500	1	blank2r.bmp	880	1	schlau	880	1	FEHLER	1683	1	!	1293	1	!	1391	0	0	0
2024-06-20	12:16:26	12:26:05	578895	6.6.1	4_exp_EVA_AWA_CON	93	B	A	Rpleas_acq	Same	Rpleas	1pleas	acq_US_unple_nomask	acq3_nomask	3	8	453	0	300	300	0	0	658	46	1	0	schlau	lachen	retten	fair	loyal	helfen	schroff	leiden	rächen	faul	lasch	hindern	schön	ehrlich	treu	spielen	freundlich	tolerant	schlecht	eitel	tot	strafen	fanatisch	tyrannisch	1	blank2r.bmp	0	1	+	0	1	blank2r.bmp	500	1	GKQX	500	1	blank2r.bmp	880	1	schroff	880	1	!	1293	1	!	-1	0	0	0	0	0	0
2024-06-20	12:16:26	12:26:08	581223	6.6.1	4_exp_EVA_AWA_CON	93	B	A	Rpleas_acq	Same	Rpleas	1pleas	acq_US_unple_nomask	acq3_nomask	3	9	453	0	300	300	0	0	554	46	1	0	schlau	lachen	retten	fair	loyal	helfen	schroff	leiden	rächen	faul	lasch	hindern	schön	ehrlich	treu	spielen	freundlich	tolerant	schlecht	eitel	tot	strafen	fanatisch	tyrannisch	1	blank2r.bmp	0	1	+	0	1	blank2r.bmp	500	1	GKQX	500	1	blank2r.bmp	880	3	rächen	880	1	!	1293	1	!	-1	0	0	0	0	0	0
2024-06-20	12:16:26	12:26:10	583425	6.6.1	4_exp_EVA_AWA_CON	93	B	A	Rpleas_acq	Same	Rpleas	1pleas	acq_US_pleas_nomask	acq3_nomask	3	10	453	1	300	300	0	0	423	50	1	0	schlau	lachen	retten	fair	loyal	helfen	schroff	leiden	rächen	faul	lasch	hindern	schön	ehrlich	treu	spielen	freundlich	tolerant	schlecht	eitel	tot	strafen	fanatisch	tyrannisch	1	blank2r.bmp	0	1	+	0	1	blank2r.bmp	500	1	BMVZ	500	1	blank2r.bmp	880	6	helfen	880	1	!	1293	1	!	1324	0	0	0	0	0	0
2024-06-20	12:16:26	12:26:12	585697	6.6.1	4_exp_EVA_AWA_CON	93	B	A	Rpleas_acq	Same	Rpleas	1pleas	acq_US_unple_nomask	acq3_nomask	3	11	453	1	300	300	0	0	493	46	1	0	schlau	lachen	retten	fair	loyal	helfen	schroff	leiden	rächen	faul	lasch	hindern	schön	ehrlich	treu	spielen	freundlich	tolerant	schlecht	eitel	tot	strafen	fanatisch	tyrannisch	1	blank2r.bmp	0	1	+	0	1	blank2r.bmp	500	1	GKQX	500	1	blank2r.bmp	880	5	lasch	880	1	!	1293	1	!	1395	0	0	0	0	0	0
2024-06-20	12:16:26	12:26:15	588071	6.6.1	4_exp_EVA_AWA_CON	93	B	A	Rpleas_acq	Same	Rpleas	1pleas	acq_US_unple_nomask	acq3_nomask	3	12	453	0	300	300	0	0	598	46	1	0	schlau	lachen	retten	fair	loyal	helfen	schroff	leiden	rächen	faul	lasch	hindern	schön	ehrlich	treu	spielen	freundlich	tolerant	schlecht	eitel	tot	strafen	fanatisch	tyrannisch	1	blank2r.bmp	0	1	+	0	1	blank2r.bmp	500	1	GKQX	500	1	blank2r.bmp	880	6	hindern	880	1	!	1292	1	!	-1	0	0	0	0	0	0
2024-06-20	12:16:26	12:26:17	590216	6.6.1	4_exp_EVA_AWA_CON	93	B	A	Rpleas_acq	Same	Rpleas	1pleas	acq_US_pleas_nomask	acq3_nomask	3	13	453	0	300	300	0	0	370	50	1	0	schlau	lachen	retten	fair	loyal	helfen	schroff	leiden	rächen	faul	lasch	hindern	schön	ehrlich	treu	spielen	freundlich	tolerant	schlecht	eitel	tot	strafen	fanatisch	tyrannisch	1	blank2r.bmp	0	1	+	0	1	blank2r.bmp	500	1	BMVZ	500	1	blank2r.bmp	880	2	lachen	880	1	!	-1	1	!	-1	0	0	0	0	0	0
2024-06-20	12:16:26	12:26:19	592591	6.6.1	4_exp_EVA_AWA_CON	93	B	A	Rpleas_acq	Same	Rpleas	1pleas	acq_US_unple_nomask	acq3_nomask	3	14	453	0	300	300	0	0	595	46	1	0	schlau	lachen	retten	fair	loyal	helfen	schroff	leiden	rächen	faul	lasch	hindern	schön	ehrlich	treu	spielen	freundlich	tolerant	schlecht	eitel	tot	strafen	fanatisch	tyrannisch	1	blank2r.bmp	0	1	+	0	1	blank2r.bmp	500	1	GKQX	500	1	blank2r.bmp	880	3	rächen	880	1	!	1292	1	!	-1	0	0	0	0	0	0
2024-06-20	12:16:26	12:26:22	595050	6.6.1	4_exp_EVA_AWA_CON	93	B	A	Rpleas_acq	Same	Rpleas	1pleas	acq_US_unple_nomask	acq3_nomask	3	15	453	1	300	300	0	0	479	50	0	0	schlau	lachen	retten	fair	loyal	helfen	schroff	leiden	rächen	faul	lasch	hindern	schön	ehrlich	treu	spielen	freundlich	tolerant	schlecht	eitel	tot	strafen	fanatisch	tyrannisch	1	blank2r.bmp	0	1	+	0	1	blank2r.bmp	500	1	GKQX	500	1	blank2r.bmp	880	4	faul	880	1	FEHLER	1673	1	!	1293	1	!	1381	0	0	0
2024-06-20	12:16:26	12:26:24	597295	6.6.1	4_exp_EVA_AWA_CON	93	B	A	Rpleas_acq	Same	Rpleas	1pleas	acq_US_unple_nomask	acq3_nomask	3	16	453	0	300	300	0	0	666	46	1	0	schlau	lachen	retten	fair	loyal	helfen	schroff	leiden	rächen	faul	lasch	hindern	schön	ehrlich	treu	spielen	freundlich	tolerant	schlecht	eitel	tot	strafen	fanatisch	tyrannisch	1	blank2r.bmp	0	1	+	0	1	blank2r.bmp	500	1	GKQX	500	1	blank2r.bmp	880	1	schroff	880	1	!	1292	1	!	-1	0	0	0	0	0	0
2024-06-20	12:16:26	12:26:26	599561	6.6.1	4_exp_EVA_AWA_CON	93	B	A	Rpleas_acq	Same	Rpleas	1pleas	acq_US_unple_nomask	acq3_nomask	3	17	453	1	300	300	0	0	488	46	1	0	schlau	lachen	retten	fair	loyal	helfen	schroff	leiden	rächen	faul	lasch	hindern	schön	ehrlich	treu	spielen	freundlich	tolerant	schlecht	eitel	tot	strafen	fanatisch	tyrannisch	1	blank2r.bmp	0	1	+	0	1	blank2r.bmp	500	1	GKQX	500	1	blank2r.bmp	880	6	hindern	880	1	!	1292	1	!	1389	0	0	0	0	0	0
2024-06-20	12:16:26	12:26:28	601727	6.6.1	4_exp_EVA_AWA_CON	93	B	A	Rpleas_acq	Same	Rpleas	1pleas	acq_US_pleas_nomask	acq3_nomask	3	18	453	0	300	300	0	0	385	50	1	0	schlau	lachen	retten	fair	loyal	helfen	schroff	leiden	rächen	faul	lasch	hindern	schön	ehrlich	treu	spielen	freundlich	tolerant	schlecht	eitel	tot	strafen	fanatisch	tyrannisch	1	blank2r.bmp	0	1	+	0	1	blank2r.bmp	500	1	BMVZ	500	1	blank2r.bmp	880	5	loyal	880	1	!	-1	1	!	-1	0	0	0	0	0	0
2024-06-20	12:16:26	12:26:30	603855	6.6.1	4_exp_EVA_AWA_CON	93	B	A	Rpleas_acq	Same	Rpleas	1pleas	acq_US_unple_nomask	acq3_nomask	3	19	453	0	300	300	0	0	351	46	1	0	schlau	lachen	retten	fair	loyal	helfen	schroff	leiden	rächen	faul	lasch	hindern	schön	ehrlich	treu	spielen	freundlich	tolerant	schlecht	eitel	tot	strafen	fanatisch	tyrannisch	1	blank2r.bmp	0	1	+	0	1	blank2r.bmp	500	1	GKQX	500	1	blank2r.bmp	880	2	leiden	880	1	!	-1	1	!	-1	0	0	0	0	0	0
2024-06-20	12:16:26	12:26:33	606207	6.6.1	4_exp_EVA_AWA_CON	93	B	A	Rpleas_acq	Same	Rpleas	1pleas	acq_US_pleas_nomask	acq3_nomask	3	20	453	0	300	300	0	0	572	50	1	0	schlau	lachen	retten	fair	loyal	helfen	schroff	leiden	rächen	faul	lasch	hindern	schön	ehrlich	treu	spielen	freundlich	tolerant	schlecht	eitel	tot	strafen	fanatisch	tyrannisch	1	blank2r.bmp	0	1	+	0	1	blank2r.bmp	500	1	BMVZ	500	1	blank2r.bmp	880	3	retten	880	1	!	1292	1	!	-1	0	0	0	0	0	0
2024-06-20	12:16:26	12:26:35	608458	6.6.1	4_exp_EVA_AWA_CON	93	B	A	Rpleas_acq	Same	Rpleas	1pleas	acq_US_unple_nomask	acq3_nomask	3	21	453	1	300	300	0	0	468	46	1	0	schlau	lachen	retten	fair	loyal	helfen	schroff	leiden	rächen	faul	lasch	hindern	schön	ehrlich	treu	spielen	freundlich	tolerant	schlecht	eitel	tot	strafen	fanatisch	tyrannisch	1	blank2r.bmp	0	1	+	0	1	blank2r.bmp	500	1	GKQX	500	1	blank2r.bmp	880	5	lasch	880	1	!	1293	1	!	1370	0	0	0	0	0	0
2024-06-20	12:16:26	12:26:38	610946	6.6.1	4_exp_EVA_AWA_CON	93	B	A	Rpleas_acq	Same	Rpleas	1pleas	acq_US_pleas_nomask	acq3_nomask	3	22	453	1	300	300	0	0	505	46	0	0	schlau	lachen	retten	fair	loyal	helfen	schroff	leiden	rächen	faul	lasch	hindern	schön	ehrlich	treu	spielen	freundlich	tolerant	schlecht	eitel	tot	strafen	fanatisch	tyrannisch	1	blank2r.bmp	0	1	+	0	1	blank2r.bmp	500	1	BMVZ	500	1	blank2r.bmp	880	4	fair	880	1	FEHLER	1698	1	!	1293	1	!	1407	0	0	0
2024-06-20	12:16:26	12:26:40	613235	6.6.1	4_exp_EVA_AWA_CON	93	B	A	Rpleas_acq	Same	Rpleas	1pleas	acq_US_pleas_nomask	acq3_nomask	3	23	453	1	300	300	0	0	512	46	0	0	schlau	lachen	retten	fair	loyal	helfen	schroff	leiden	rächen	faul	lasch	hindern	schön	ehrlich	treu	spielen	freundlich	tolerant	schlecht	eitel	tot	strafen	fanatisch	tyrannisch	1	blank2r.bmp	0	1	+	0	1	blank2r.bmp	500	1	BMVZ	500	1	blank2r.bmp	880	6	helfen	880	1	FEHLER	1705	1	!	1293	1	!	1413	0	0	0
2024-06-20	12:16:26	12:26:44	617119	6.6.1	4_exp_EVA_AWA_CON	93	B	A	Rpleas_acq	Same	Rpleas	1pleas	acq_US_pleas_nomask	acq3_nomask	3	24	453	0	300	300	0	0	2308	50	1	0	schlau	lachen	retten	fair	loyal	helfen	schroff	leiden	rächen	faul	lasch	hindern	schön	ehrlich	treu	spielen	freundlich	tolerant	schlecht	eitel	tot	strafen	fanatisch	tyrannisch	1	blank2r.bmp	0	1	+	0	1	blank2r.bmp	500	1	BMVZ	500	1	blank2r.bmp	880	1	schlau	880	1	!	1293	1	!	-1	0	0	0	0	0	0
2024-06-20	12:16:26	12:26:46	619409	6.6.1	4_exp_EVA_AWA_CON	93	B	A	Rpleas_acq	Same	Rpleas	1pleas	acq_US_unple_nomask	acq3_nomask	3	25	453	1	300	300	0	0	513	46	1	0	schlau	lachen	retten	fair	loyal	helfen	schroff	leiden	rächen	faul	lasch	hindern	schön	ehrlich	treu	spielen	freundlich	tolerant	schlecht	eitel	tot	strafen	fanatisch	tyrannisch	1	blank2r.bmp	0	1	+	0	1	blank2r.bmp	500	1	GKQX	500	1	blank2r.bmp	880	6	hindern	880	1	!	1293	1	!	1415	0	0	0	0	0	0
2024-06-20	12:16:26	12:26:48	621839	6.6.1	4_exp_EVA_AWA_CON	93	B	A	Rpleas_acq	Same	Rpleas	1pleas	acq_US_unple_nomask	acq3_nomask	3	26	453	0	300	300	0	0	654	46	1	0	schlau	lachen	retten	fair	loyal	helfen	schroff	leiden	rächen	faul	lasch	hindern	schön	ehrlich	treu	spielen	freundlich	tolerant	schlecht	eitel	tot	strafen	fanatisch	tyrannisch	1	blank2r.bmp	0	1	+	0	1	blank2r.bmp	500	1	GKQX	500	1	blank2r.bmp	880	1	schroff	880	1	!	1292	1	!	-1	0	0	0	0	0	0
2024-06-20	12:16:26	12:26:51	624426	6.6.1	4_exp_EVA_AWA_CON	93	B	A	Rpleas_acq	Same	Rpleas	1pleas	acq_US_unple_nomask	acq3_nomask	3	27	453	0	300	300	0	0	606	50	0	0	schlau	lachen	retten	fair	loyal	helfen	schroff	leiden	rächen	faul	lasch	hindern	schön	ehrlich	treu	spielen	freundlich	tolerant	schlecht	eitel	tot	strafen	fanatisch	tyrannisch	1	blank2r.bmp	0	1	+	0	1	blank2r.bmp	500	1	GKQX	500	1	blank2r.bmp	880	5	lasch	880	1	FEHLER	1799	1	!	1292	1	!	-1	0	0	0
2024-06-20	12:16:26	12:26:53	626505	6.6.1	4_exp_EVA_AWA_CON	93	B	A	Rpleas_acq	Same	Rpleas	1pleas	acq_US_pleas_nomask	acq3_nomask	3	28	453	1	300	300	0	0	505	50	1	0	schlau	lachen	retten	fair	loyal	helfen	schroff	leiden	rächen	faul	lasch	hindern	schön	ehrlich	treu	spielen	freundlich	tolerant	schlecht	eitel	tot	strafen	fanatisch	tyrannisch	1	blank2r.bmp	0	1	+	0	1	blank2r.bmp	500	1	BMVZ	500	1	blank2r.bmp	880	5	loyal	880	1	!	1293	1	!	1406	0	0	0	0	0	0
2024-06-20	12:16:26	12:26:56	628943	6.6.1	4_exp_EVA_AWA_CON	93	B	A	Rpleas_acq	Same	Rpleas	1pleas	acq_US_unple_nomask	acq3_nomask	3	29	453	0	300	300	0	0	663	46	1	0	schlau	lachen	retten	fair	loyal	helfen	schroff	leiden	rächen	faul	lasch	hindern	schön	ehrlich	treu	spielen	freundlich	tolerant	schlecht	eitel	tot	strafen	fanatisch	tyrannisch	1	blank2r.bmp	0	1	+	0	1	blank2r.bmp	500	1	GKQX	500	1	blank2r.bmp	880	4	faul	880	1	!	1293	1	!	-1	0	0	0	0	0	0
2024-06-20	12:16:26	12:26:58	631335	6.6.1	4_exp_EVA_AWA_CON	93	B	A	Rpleas_acq	Same	Rpleas	1pleas	acq_US_pleas_nomask	acq3_nomask	3	30	453	0	300	300	0	0	614	50	1	0	schlau	lachen	retten	fair	loyal	helfen	schroff	leiden	rächen	faul	lasch	hindern	schön	ehrlich	treu	spielen	freundlich	tolerant	schlecht	eitel	tot	strafen	fanatisch	tyrannisch	1	blank2r.bmp	0	1	+	0	1	blank2r.bmp	500	1	BMVZ	500	1	blank2r.bmp	880	1	schlau	880	1	!	1292	1	!	-1	0	0	0	0	0	0
2024-06-20	12:16:26	12:27:00	633511	6.6.1	4_exp_EVA_AWA_CON	93	B	A	Rpleas_acq	Same	Rpleas	1pleas	acq_US_unple_nomask	acq3_nomask	3	31	453	1	300	300	0	0	398	46	1	0	schlau	lachen	retten	fair	loyal	helfen	schroff	leiden	rächen	faul	lasch	hindern	schön	ehrlich	treu	spielen	freundlich	tolerant	schlecht	eitel	tot	strafen	fanatisch	tyrannisch	1	blank2r.bmp	0	1	+	0	1	blank2r.bmp	500	1	GKQX	500	1	blank2r.bmp	880	2	leiden	880	1	!	1292	1	!	1297	0	0	0	0	0	0
2024-06-20	12:16:26	12:27:02	635705	6.6.1	4_exp_EVA_AWA_CON	93	B	A	Rpleas_acq	Same	Rpleas	1pleas	acq_US_pleas_nomask	acq3_nomask	3	32	453	1	300	300	0	0	419	50	1	0	schlau	lachen	retten	fair	loyal	helfen	schroff	leiden	rächen	faul	lasch	hindern	schön	ehrlich	treu	spielen	freundlich	tolerant	schlecht	eitel	tot	strafen	fanatisch	tyrannisch	1	blank2r.bmp	0	1	+	0	1	blank2r.bmp	500	1	BMVZ	500	1	blank2r.bmp	880	3	retten	880	1	!	1292	1	!	1320	0	0	0	0	0	0
2024-06-20	12:16:26	12:27:05	638103	6.6.1	4_exp_EVA_AWA_CON	93	B	A	Rpleas_acq	Same	Rpleas	1pleas	acq_US_pleas_nomask	acq3_nomask	3	33	453	0	300	300	0	0	617	50	1	0	schlau	lachen	retten	fair	loyal	helfen	schroff	leiden	rächen	faul	lasch	hindern	schön	ehrlich	treu	spielen	freundlich	tolerant	schlecht	eitel	tot	strafen	fanatisch	tyrannisch	1	blank2r.bmp	0	1	+	0	1	blank2r.bmp	500	1	BMVZ	500	1	blank2r.bmp	880	2	lachen	880	1	!	1292	1	!	-1	0	0	0	0	0	0
2024-06-20	12:16:26	12:27:07	640499	6.6.1	4_exp_EVA_AWA_CON	93	B	A	Rpleas_acq	Same	Rpleas	1pleas	acq_US_pleas_nomask	acq3_nomask	3	34	453	1	300	300	0	0	418	46	0	0	schlau	lachen	retten	fair	loyal	helfen	schroff	leiden	rächen	faul	lasch	hindern	schön	ehrlich	treu	spielen	freundlich	tolerant	schlecht	eitel	tot	strafen	fanatisch	tyrannisch	1	blank2r.bmp	0	1	+	0	1	blank2r.bmp	500	1	BMVZ	500	1	blank2r.bmp	880	4	fair	880	1	FEHLER	1611	1	!	1293	1	!	1319	0	0	0
2024-06-20	12:16:26	12:27:09	642743	6.6.1	4_exp_EVA_AWA_CON	93	B	A	Rpleas_acq	Same	Rpleas	1pleas	acq_US_unple_nomask	acq3_nomask	3	35	453	0	300	300	0	0	664	46	1	0	schlau	lachen	retten	fair	loyal	helfen	schroff	leiden	rächen	faul	lasch	hindern	schön	ehrlich	treu	spielen	freundlich	tolerant	schlecht	eitel	tot	strafen	fanatisch	tyrannisch	1	blank2r.bmp	0	1	+	0	1	blank2r.bmp	500	1	GKQX	500	1	blank2r.bmp	880	3	rächen	880	1	!	1292	1	!	-1	0	0	0	0	0	0
2024-06-20	12:16:26	12:27:12	645001	6.6.1	4_exp_EVA_AWA_CON	93	B	A	Rpleas_acq	Same	Rpleas	1pleas	acq_US_pleas_nomask	acq3_nomask	3	36	453	1	300	300	0	0	479	50	1	0	schlau	lachen	retten	fair	loyal	helfen	schroff	leiden	rächen	faul	lasch	hindern	schön	ehrlich	treu	spielen	freundlich	tolerant	schlecht	eitel	tot	strafen	fanatisch	tyrannisch	1	blank2r.bmp	0	1	+	0	1	blank2r.bmp	500	1	BMVZ	500	1	blank2r.bmp	880	6	helfen	880	1	!	1293	1	!	1380	0	0	0	0	0	0
2024-06-20	12:16:26	12:27:35	668473	6.6.1	4_exp_EVA_AWA_CON	93	B	A	Rpleas_acq	Same	Rpleas	1pleas	acq_US_unple_nomask	acq45_nomask	4	1	400	1	300	300	0	0	435	46	1	0	schlau	lachen	retten	fair	loyal	helfen	schroff	leiden	rächen	faul	lasch	hindern	schön	ehrlich	treu	spielen	freundlich	tolerant	schlecht	eitel	tot	strafen	fanatisch	tyrannisch	1	blank2r.bmp	0	1	+	0	1	blank2r.bmp	500	1	GKQX	500	1	blank2r.bmp	880	2	leiden	880	1	!	1233	1	!	1336	0	0	0	0	0	0
2024-06-20	12:16:26	12:27:37	670759	6.6.1	4_exp_EVA_AWA_CON	93	B	A	Rpleas_acq	Same	Rpleas	1pleas	acq_US_unple_nomask	acq45_nomask	4	2	400	0	300	300	0	0	512	46	1	0	schlau	lachen	retten	fair	loyal	helfen	schroff	leiden	rächen	faul	lasch	hindern	schön	ehrlich	treu	spielen	freundlich	tolerant	schlecht	eitel	tot	strafen	fanatisch	tyrannisch	1	blank2r.bmp	0	1	+	0	1	blank2r.bmp	500	1	GKQX	500	1	blank2r.bmp	880	4	faul	880	1	!	1233	1	!	-1	0	0	0	0	0	0
2024-06-20	12:16:26	12:27:40	672969	6.6.1	4_exp_EVA_AWA_CON	93	B	A	Rpleas_acq	Same	Rpleas	1pleas	acq_US_pleas_nomask	acq45_nomask	4	3	400	1	300	300	0	0	428	50	1	0	schlau	lachen	retten	fair	loyal	helfen	schroff	leiden	rächen	faul	lasch	hindern	schön	ehrlich	treu	spielen	freundlich	tolerant	schlecht	eitel	tot	strafen	fanatisch	tyrannisch	1	blank2r.bmp	0	1	+	0	1	blank2r.bmp	500	1	BMVZ	500	1	blank2r.bmp	880	6	helfen	880	1	!	1233	1	!	1329	0	0	0	0	0	0
2024-06-20	12:16:26	12:27:42	675271	6.6.1	4_exp_EVA_AWA_CON	93	B	A	Rpleas_acq	Same	Rpleas	1pleas	acq_US_unple_nomask	acq45_nomask	4	4	400	0	300	300	0	0	521	46	1	0	schlau	lachen	retten	fair	loyal	helfen	schroff	leiden	rächen	faul	lasch	hindern	schön	ehrlich	treu	spielen	freundlich	tolerant	schlecht	eitel	tot	strafen	fanatisch	tyrannisch	1	blank2r.bmp	0	1	+	0	1	blank2r.bmp	500	1	GKQX	500	1	blank2r.bmp	880	1	schroff	880	1	!	1233	1	!	-1	0	0	0	0	0	0
2024-06-20	12:16:26	12:27:44	677533	6.6.1	4_exp_EVA_AWA_CON	93	B	A	Rpleas_acq	Same	Rpleas	1pleas	acq_US_pleas_nomask	acq45_nomask	4	5	400	0	300	300	0	0	483	50	1	0	schlau	lachen	retten	fair	loyal	helfen	schroff	leiden	rächen	faul	lasch	hindern	schön	ehrlich	treu	spielen	freundlich	tolerant	schlecht	eitel	tot	strafen	fanatisch	tyrannisch	1	blank2r.bmp	0	1	+	0	1	blank2r.bmp	500	1	BMVZ	500	1	blank2r.bmp	880	3	retten	880	1	!	1232	1	!	-1	0	0	0	0	0	0
2024-06-20	12:16:26	12:27:46	679789	6.6.1	4_exp_EVA_AWA_CON	93	B	A	Rpleas_acq	Same	Rpleas	1pleas	acq_US_unple_nomask	acq45_nomask	4	6	400	0	300	300	0	0	478	46	1	0	schlau	lachen	retten	fair	loyal	helfen	schroff	leiden	rächen	faul	lasch	hindern	schön	ehrlich	treu	spielen	freundlich	tolerant	schlecht	eitel	tot	strafen	fanatisch	tyrannisch	1	blank2r.bmp	0	1	+	0	1	blank2r.bmp	500	1	GKQX	500	1	blank2r.bmp	880	6	hindern	880	1	!	1232	1	!	-1	0	0	0	0	0	0
2024-06-20	12:16:26	12:27:49	682063	6.6.1	4_exp_EVA_AWA_CON	93	B	A	Rpleas_acq	Same	Rpleas	1pleas	acq_US_pleas_nomask	acq45_nomask	4	7	400	0	300	300	0	0	498	50	1	0	schlau	lachen	retten	fair	loyal	helfen	schroff	leiden	rächen	faul	lasch	hindern	schön	ehrlich	treu	spielen	freundlich	tolerant	schlecht	eitel	tot	strafen	fanatisch	tyrannisch	1	blank2r.bmp	0	1	+	0	1	blank2r.bmp	500	1	BMVZ	500	1	blank2r.bmp	880	4	fair	880	1	!	1232	1	!	-1	0	0	0	0	0	0
2024-06-20	12:16:26	12:27:51	684185	6.6.1	4_exp_EVA_AWA_CON	93	B	A	Rpleas_acq	Same	Rpleas	1pleas	acq_US_pleas_nomask	acq45_nomask	4	8	400	1	300	300	0	0	347	46	0	0	schlau	lachen	retten	fair	loyal	helfen	schroff	leiden	rächen	faul	lasch	hindern	schön	ehrlich	treu	spielen	freundlich	tolerant	schlecht	eitel	tot	strafen	fanatisch	tyrannisch	1	blank2r.bmp	0	1	+	0	1	blank2r.bmp	500	1	BMVZ	500	1	blank2r.bmp	880	5	loyal	880	1	!	1232	1	!	1248	0	0	0	0	0	0
2024-06-20	12:16:26	12:27:53	686401	6.6.1	4_exp_EVA_AWA_CON	93	B	A	Rpleas_acq	Same	Rpleas	1pleas	acq_US_unple_nomask	acq45_nomask	4	9	400	1	300	300	0	0	442	50	0	0	schlau	lachen	retten	fair	loyal	helfen	schroff	leiden	rächen	faul	lasch	hindern	schön	ehrlich	treu	spielen	freundlich	tolerant	schlecht	eitel	tot	strafen	fanatisch	tyrannisch	1	blank2r.bmp	0	1	+	0	1	blank2r.bmp	500	1	GKQX	500	1	blank2r.bmp	880	3	rächen	880	1	!	1233	1	!	1343	0	0	0	0	0	0
2024-06-20	12:16:26	12:27:55	688695	6.6.1	4_exp_EVA_AWA_CON	93	B	A	Rpleas_acq	Same	Rpleas	1pleas	acq_US_pleas_nomask	acq45_nomask	4	10	400	0	300	300	0	0	516	50	1	0	schlau	lachen	retten	fair	loyal	helfen	schroff	leiden	rächen	faul	lasch	hindern	schön	ehrlich	treu	spielen	freundlich	tolerant	schlecht	eitel	tot	strafen	fanatisch	tyrannisch	1	blank2r.bmp	0	1	+	0	1	blank2r.bmp	500	1	BMVZ	500	1	blank2r.bmp	880	2	lachen	880	1	!	1233	1	!	-1	0	0	0	0	0	0
2024-06-20	12:16:26	12:27:57	690921	6.6.1	4_exp_EVA_AWA_CON	93	B	A	Rpleas_acq	Same	Rpleas	1pleas	acq_US_unple_nomask	acq45_nomask	4	11	400	1	300	300	0	0	449	46	1	0	schlau	lachen	retten	fair	loyal	helfen	schroff	leiden	rächen	faul	lasch	hindern	schön	ehrlich	treu	spielen	freundlich	tolerant	schlecht	eitel	tot	strafen	fanatisch	tyrannisch	1	blank2r.bmp	0	1	+	0	1	blank2r.bmp	500	1	GKQX	500	1	blank2r.bmp	880	5	lasch	880	1	!	1233	1	!	1350	0	0	0	0	0	0
2024-06-20	12:16:26	12:28:00	693255	6.6.1	4_exp_EVA_AWA_CON	93	B	A	Rpleas_acq	Same	Rpleas	1pleas	acq_US_pleas_nomask	acq45_nomask	4	12	400	0	300	300	0	0	553	50	1	0	schlau	lachen	retten	fair	loyal	helfen	schroff	leiden	rächen	faul	lasch	hindern	schön	ehrlich	treu	spielen	freundlich	tolerant	schlecht	eitel	tot	strafen	fanatisch	tyrannisch	1	blank2r.bmp	0	1	+	0	1	blank2r.bmp	500	1	BMVZ	500	1	blank2r.bmp	880	1	schlau	880	1	!	1232	1	!	-1	0	0	0	0	0	0
2024-06-20	12:16:26	12:28:02	695440	6.6.1	4_exp_EVA_AWA_CON	93	B	A	Rpleas_acq	Same	Rpleas	1pleas	acq_US_pleas_nomask	acq45_nomask	4	13	400	1	300	300	0	0	406	50	1	0	schlau	lachen	retten	fair	loyal	helfen	schroff	leiden	rächen	faul	lasch	hindern	schön	ehrlich	treu	spielen	freundlich	tolerant	schlecht	eitel	tot	strafen	fanatisch	tyrannisch	1	blank2r.bmp	0	1	+	0	1	blank2r.bmp	500	1	BMVZ	500	1	blank2r.bmp	880	1	schlau	880	1	!	1233	1	!	1307	0	0	0	0	0	0
2024-06-20	12:16:26	12:28:04	697831	6.6.1	4_exp_EVA_AWA_CON	93	B	A	Rpleas_acq	Same	Rpleas	1pleas	acq_US_unple_nomask	acq45_nomask	4	14	400	0	300	300	0	0	616	46	1	0	schlau	lachen	retten	fair	loyal	helfen	schroff	leiden	rächen	faul	lasch	hindern	schön	ehrlich	treu	spielen	freundlich	tolerant	schlecht	eitel	tot	strafen	fanatisch	tyrannisch	1	blank2r.bmp	0	1	+	0	1	blank2r.bmp	500	1	GKQX	500	1	blank2r.bmp	880	5	lasch	880	1	!	1233	1	!	-1	0	0	0	0	0	0
2024-06-20	12:16:26	12:28:07	700025	6.6.1	4_exp_EVA_AWA_CON	93	B	A	Rpleas_acq	Same	Rpleas	1pleas	acq_US_pleas_nomask	acq45_nomask	4	15	400	1	300	300	0	0	417	50	1	0	schlau	lachen	retten	fair	loyal	helfen	schroff	leiden	rächen	faul	lasch	hindern	schön	ehrlich	treu	spielen	freundlich	tolerant	schlecht	eitel	tot	strafen	fanatisch	tyrannisch	1	blank2r.bmp	0	1	+	0	1	blank2r.bmp	500	1	BMVZ	500	1	blank2r.bmp	880	3	retten	880	1	!	1232	1	!	1318	0	0	0	0	0	0
2024-06-20	12:16:26	12:28:09	702343	6.6.1	4_exp_EVA_AWA_CON	93	B	A	Rpleas_acq	Same	Rpleas	1pleas	acq_US_unple_nomask	acq45_nomask	4	16	400	0	300	300	0	0	545	46	1	0	schlau	lachen	retten	fair	loyal	helfen	schroff	leiden	rächen	faul	lasch	hindern	schön	ehrlich	treu	spielen	freundlich	tolerant	schlecht	eitel	tot	strafen	fanatisch	tyrannisch	1	blank2r.bmp	0	1	+	0	1	blank2r.bmp	500	1	GKQX	500	1	blank2r.bmp	880	1	schroff	880	1	!	1232	1	!	-1	0	0	0	0	0	0
2024-06-20	12:16:26	12:28:11	704473	6.6.1	4_exp_EVA_AWA_CON	93	B	A	Rpleas_acq	Same	Rpleas	1pleas	acq_US_pleas_nomask	acq45_nomask	4	17	400	1	300	300	0	0	352	50	1	0	schlau	lachen	retten	fair	loyal	helfen	schroff	leiden	rächen	faul	lasch	hindern	schön	ehrlich	treu	spielen	freundlich	tolerant	schlecht	eitel	tot	strafen	fanatisch	tyrannisch	1	blank2r.bmp	0	1	+	0	1	blank2r.bmp	500	1	BMVZ	500	1	blank2r.bmp	880	2	lachen	880	1	!	1232	1	!	1253	0	0	0	0	0	0
2024-06-20	12:16:26	12:28:13	706633	6.6.1	4_exp_EVA_AWA_CON	93	B	A	Rpleas_acq	Same	Rpleas	1pleas	acq_US_unple_nomask	acq45_nomask	4	18	400	1	300	300	0	0	380	46	1	0	schlau	lachen	retten	fair	loyal	helfen	schroff	leiden	rächen	faul	lasch	hindern	schön	ehrlich	treu	spielen	freundlich	tolerant	schlecht	eitel	tot	strafen	fanatisch	tyrannisch	1	blank2r.bmp	0	1	+	0	1	blank2r.bmp	500	1	GKQX	500	1	blank2r.bmp	880	2	leiden	880	1	!	1232	1	!	1282	0	0	0	0	0	0
2024-06-20	12:16:26	12:28:15	708817	6.6.1	4_exp_EVA_AWA_CON	93	B	A	Rpleas_acq	Same	Rpleas	1pleas	acq_US_unple_nomask	acq45_nomask	4	19	400	1	300	300	0	0	403	50	0	0	schlau	lachen	retten	fair	loyal	helfen	schroff	leiden	rächen	faul	lasch	hindern	schön	ehrlich	treu	spielen	freundlich	tolerant	schlecht	eitel	tot	strafen	fanatisch	tyrannisch	1	blank2r.bmp	0	1	+	0	1	blank2r.bmp	500	1	GKQX	500	1	blank2r.bmp	880	6	hindern	880	1	!	1232	1	!	1304	0	0	0	0	0	0
2024-06-20	12:16:26	12:28:18	711111	6.6.1	4_exp_EVA_AWA_CON	93	B	A	Rpleas_acq	Same	Rpleas	1pleas	acq_US_unple_nomask	acq45_nomask	4	20	400	0	300	300	0	0	517	46	1	0	schlau	lachen	retten	fair	loyal	helfen	schroff	leiden	rächen	faul	lasch	hindern	schön	ehrlich	treu	spielen	freundlich	tolerant	schlecht	eitel	tot	strafen	fanatisch	tyrannisch	1	blank2r.bmp	0	1	+	0	1	blank2r.bmp	500	1	GKQX	500	1	blank2r.bmp	880	4	faul	880	1	!	1232	1	!	-1	0	0	0	0	0	0
2024-06-20	12:16:26	12:28:20	713297	6.6.1	4_exp_EVA_AWA_CON	93	B	A	Rpleas_acq	Same	Rpleas	1pleas	acq_US_pleas_nomask	acq45_nomask	4	21	400	1	300	300	0	0	410	50	1	0	schlau	lachen	retten	fair	loyal	helfen	schroff	leiden	rächen	faul	lasch	hindern	schön	ehrlich	treu	spielen	freundlich	tolerant	schlecht	eitel	tot	strafen	fanatisch	tyrannisch	1	blank2r.bmp	0	1	+	0	1	blank2r.bmp	500	1	BMVZ	500	1	blank2r.bmp	880	5	loyal	880	1	!	1232	1	!	1312	0	0	0	0	0	0
2024-06-20	12:16:26	12:28:22	715391	6.6.1	4_exp_EVA_AWA_CON	93	B	A	Rpleas_acq	Same	Rpleas	1pleas	acq_US_pleas_nomask	acq45_nomask	4	22	400	0	300	300	0	0	315	46	0	0	schlau	lachen	retten	fair	loyal	helfen	schroff	leiden	rächen	faul	lasch	hindern	schön	ehrlich	treu	spielen	freundlich	tolerant	schlecht	eitel	tot	strafen	fanatisch	tyrannisch	1	blank2r.bmp	0	1	+	0	1	blank2r.bmp	500	1	BMVZ	500	1	blank2r.bmp	880	6	helfen	880	1	!	-1	1	!	-1	0	0	0	0	0	0
2024-06-20	12:16:26	12:28:24	717503	6.6.1	4_exp_EVA_AWA_CON	93	B	A	Rpleas_acq	Same	Rpleas	1pleas	acq_US_pleas_nomask	acq45_nomask	4	23	400	1	300	300	0	0	335	50	1	0	schlau	lachen	retten	fair	loyal	helfen	schroff	leiden	rächen	faul	lasch	hindern	schön	ehrlich	treu	spielen	freundlich	tolerant	schlecht	eitel	tot	strafen	fanatisch	tyrannisch	1	blank2r.bmp	0	1	+	0	1	blank2r.bmp	500	1	BMVZ	500	1	blank2r.bmp	880	4	fair	880	1	!	1233	1	!	1235	0	0	0	0	0	0
2024-06-20	12:16:26	12:28:26	719745	6.6.1	4_exp_EVA_AWA_CON	93	B	A	Rpleas_acq	Same	Rpleas	1pleas	acq_US_unple_nomask	acq45_nomask	4	24	400	1	300	300	0	0	464	46	1	0	schlau	lachen	retten	fair	loyal	helfen	schroff	leiden	rächen	faul	lasch	hindern	schön	ehrlich	treu	spielen	freundlich	tolerant	schlecht	eitel	tot	strafen	fanatisch	tyrannisch	1	blank2r.bmp	0	1	+	0	1	blank2r.bmp	500	1	GKQX	500	1	blank2r.bmp	880	3	rächen	880	1	!	1232	1	!	1365	0	0	0	0	0	0
2024-06-20	12:16:26	12:28:29	722335	6.6.1	4_exp_EVA_AWA_CON	93	B	A	Rpleas_acq	Same	Rpleas	1pleas	acq_US_unple_nomask	acq45_nomask	4	25	400	0	300	300	0	0	814	46	1	0	schlau	lachen	retten	fair	loyal	helfen	schroff	leiden	rächen	faul	lasch	hindern	schön	ehrlich	treu	spielen	freundlich	tolerant	schlecht	eitel	tot	strafen	fanatisch	tyrannisch	1	blank2r.bmp	0	1	+	0	1	blank2r.bmp	500	1	GKQX	500	1	blank2r.bmp	880	4	faul	880	1	!	1233	1	!	-1	0	0	0	0	0	0
2024-06-20	12:16:26	12:28:31	724647	6.6.1	4_exp_EVA_AWA_CON	93	B	A	Rpleas_acq	Same	Rpleas	1pleas	acq_US_unple_nomask	acq45_nomask	4	26	400	0	300	300	0	0	535	46	1	0	schlau	lachen	retten	fair	loyal	helfen	schroff	leiden	rächen	faul	lasch	hindern	schön	ehrlich	treu	spielen	freundlich	tolerant	schlecht	eitel	tot	strafen	fanatisch	tyrannisch	1	blank2r.bmp	0	1	+	0	1	blank2r.bmp	500	1	GKQX	500	1	blank2r.bmp	880	1	schroff	880	1	!	1232	1	!	-1	0	0	0	0	0	0
2024-06-20	12:16:26	12:28:33	726793	6.6.1	4_exp_EVA_AWA_CON	93	B	A	Rpleas_acq	Same	Rpleas	1pleas	acq_US_pleas_nomask	acq45_nomask	4	27	400	1	300	300	0	0	367	50	1	0	schlau	lachen	retten	fair	loyal	helfen	schroff	leiden	rächen	faul	lasch	hindern	schön	ehrlich	treu	spielen	freundlich	tolerant	schlecht	eitel	tot	strafen	fanatisch	tyrannisch	1	blank2r.bmp	0	1	+	0	1	blank2r.bmp	500	1	BMVZ	500	1	blank2r.bmp	880	4	fair	880	1	!	1233	1	!	1268	0	0	0	0	0	0
2024-06-20	12:16:26	12:28:36	729056	6.6.1	4_exp_EVA_AWA_CON	93	B	A	Rpleas_acq	Same	Rpleas	1pleas	acq_US_pleas_nomask	acq45_nomask	4	28	400	0	300	300	0	0	490	50	1	0	schlau	lachen	retten	fair	loyal	helfen	schroff	leiden	rächen	faul	lasch	hindern	schön	ehrlich	treu	spielen	freundlich	tolerant	schlecht	eitel	tot	strafen	fanatisch	tyrannisch	1	blank2r.bmp	0	1	+	0	1	blank2r.bmp	500	1	BMVZ	500	1	blank2r.bmp	880	6	helfen	880	1	!	1232	1	!	-1	0	0	0	0	0	0
2024-06-20	12:16:26	12:28:38	731209	6.6.1	4_exp_EVA_AWA_CON	93	B	A	Rpleas_acq	Same	Rpleas	1pleas	acq_US_pleas_nomask	acq45_nomask	4	29	400	1	300	300	0	0	370	50	1	0	schlau	lachen	retten	fair	loyal	helfen	schroff	leiden	rächen	faul	lasch	hindern	schön	ehrlich	treu	spielen	freundlich	tolerant	schlecht	eitel	tot	strafen	fanatisch	tyrannisch	1	blank2r.bmp	0	1	+	0	1	blank2r.bmp	500	1	BMVZ	500	1	blank2r.bmp	880	2	lachen	880	1	!	1232	1	!	1272	0	0	0	0	0	0
2024-06-20	12:16:26	12:28:40	733567	6.6.1	4_exp_EVA_AWA_CON	93	B	A	Rpleas_acq	Same	Rpleas	1pleas	acq_US_unple_nomask	acq45_nomask	4	30	400	0	300	300	0	0	579	46	1	0	schlau	lachen	retten	fair	loyal	helfen	schroff	leiden	rächen	faul	lasch	hindern	schön	ehrlich	treu	spielen	freundlich	tolerant	schlecht	eitel	tot	strafen	fanatisch	tyrannisch	1	blank2r.bmp	0	1	+	0	1	blank2r.bmp	500	1	GKQX	500	1	blank2r.bmp	880	2	leiden	880	1	!	1232	1	!	-1	0	0	0	0	0	0
2024-06-20	12:16:26	12:28:42	735919	6.6.1	4_exp_EVA_AWA_CON	93	B	A	Rpleas_acq	Same	Rpleas	1pleas	acq_US_pleas_nomask	acq45_nomask	4	31	400	0	300	300	0	0	579	50	1	0	schlau	lachen	retten	fair	loyal	helfen	schroff	leiden	rächen	faul	lasch	hindern	schön	ehrlich	treu	spielen	freundlich	tolerant	schlecht	eitel	tot	strafen	fanatisch	tyrannisch	1	blank2r.bmp	0	1	+	0	1	blank2r.bmp	500	1	BMVZ	500	1	blank2r.bmp	880	1	schlau	880	1	!	1232	1	!	-1	0	0	0	0	0	0
2024-06-20	12:16:26	12:28:45	738015	6.6.1	4_exp_EVA_AWA_CON	93	B	A	Rpleas_acq	Same	Rpleas	1pleas	acq_US_unple_nomask	acq45_nomask	4	32	400	0	300	300	0	0	324	46	1	0	schlau	lachen	retten	fair	loyal	helfen	schroff	leiden	rächen	faul	lasch	hindern	schön	ehrlich	treu	spielen	freundlich	tolerant	schlecht	eitel	tot	strafen	fanatisch	tyrannisch	1	blank2r.bmp	0	1	+	0	1	blank2r.bmp	500	1	GKQX	500	1	blank2r.bmp	880	3	rächen	880	1	!	-1	1	!	-1	0	0	0	0	0	0
2024-06-20	12:16:26	12:28:51	744751	6.6.1	4_exp_EVA_AWA_CON	93	B	A	Rpleas_acq	Same	Rpleas	1pleas	acq_US_unple_nomask	acq45_nomask	4	33	400	0	300	300	0	0	4958	46	1	0	schlau	lachen	retten	fair	loyal	helfen	schroff	leiden	rächen	faul	lasch	hindern	schön	ehrlich	treu	spielen	freundlich	tolerant	schlecht	eitel	tot	strafen	fanatisch	tyrannisch	1	blank2r.bmp	0	1	+	0	1	blank2r.bmp	500	1	GKQX	500	1	blank2r.bmp	880	5	lasch	880	1	!	1232	1	!	-1	0	0	0	0	0	0
2024-06-20	12:16:26	12:28:53	746912	6.6.1	4_exp_EVA_AWA_CON	93	B	A	Rpleas_acq	Same	Rpleas	1pleas	acq_US_unple_nomask	acq45_nomask	4	34	400	1	300	300	0	0	384	50	0	0	schlau	lachen	retten	fair	loyal	helfen	schroff	leiden	rächen	faul	lasch	hindern	schön	ehrlich	treu	spielen	freundlich	tolerant	schlecht	eitel	tot	strafen	fanatisch	tyrannisch	1	blank2r.bmp	0	1	+	0	1	blank2r.bmp	500	1	GKQX	500	1	blank2r.bmp	880	6	hindern	880	1	!	1232	1	!	1285	0	0	0	0	0	0
2024-06-20	12:16:26	12:28:56	749200	6.6.1	4_exp_EVA_AWA_CON	93	B	A	Rpleas_acq	Same	Rpleas	1pleas	acq_US_pleas_nomask	acq45_nomask	4	35	400	0	300	300	0	0	511	50	1	0	schlau	lachen	retten	fair	loyal	helfen	schroff	leiden	rächen	faul	lasch	hindern	schön	ehrlich	treu	spielen	freundlich	tolerant	schlecht	eitel	tot	strafen	fanatisch	tyrannisch	1	blank2r.bmp	0	1	+	0	1	blank2r.bmp	500	1	BMVZ	500	1	blank2r.bmp	880	5	loyal	880	1	!	1232	1	!	-1	0	0	0	0	0	0
2024-06-20	12:16:26	12:28:58	751461	6.6.1	4_exp_EVA_AWA_CON	93	B	A	Rpleas_acq	Same	Rpleas	1pleas	acq_US_pleas_nomask	acq45_nomask	4	36	400	0	300	300	0	0	483	50	1	0	schlau	lachen	retten	fair	loyal	helfen	schroff	leiden	rächen	faul	lasch	hindern	schön	ehrlich	treu	spielen	freundlich	tolerant	schlecht	eitel	tot	strafen	fanatisch	tyrannisch	1	blank2r.bmp	0	1	+	0	1	blank2r.bmp	500	1	BMVZ	500	1	blank2r.bmp	880	3	retten	880	1	!	1232	1	!	-1	0	0	0	0	0	0
2024-06-20	12:16:26	12:29:13	766665	6.6.1	4_exp_EVA_AWA_CON	93	B	A	Rpleas_acq	Same	Rpleas	1pleas	acq_US_pleas_nomask	acq45_nomask	5	1	400	1	300	300	0	0	403	50	1	0	schlau	lachen	retten	fair	loyal	helfen	schroff	leiden	rächen	faul	lasch	hindern	schön	ehrlich	treu	spielen	freundlich	tolerant	schlecht	eitel	tot	strafen	fanatisch	tyrannisch	1	blank2r.bmp	0	1	+	0	1	blank2r.bmp	500	1	BMVZ	500	1	blank2r.bmp	880	2	lachen	880	1	!	1232	1	!	1304	0	0	0	0	0	0
2024-06-20	12:16:26	12:29:15	768824	6.6.1	4_exp_EVA_AWA_CON	93	B	A	Rpleas_acq	Same	Rpleas	1pleas	acq_US_pleas_nomask	acq45_nomask	5	2	400	1	300	300	0	0	382	46	0	0	schlau	lachen	retten	fair	loyal	helfen	schroff	leiden	rächen	faul	lasch	hindern	schön	ehrlich	treu	spielen	freundlich	tolerant	schlecht	eitel	tot	strafen	fanatisch	tyrannisch	1	blank2r.bmp	0	1	+	0	1	blank2r.bmp	500	1	BMVZ	500	1	blank2r.bmp	880	3	retten	880	1	!	1232	1	!	1283	0	0	0	0	0	0
2024-06-20	12:16:26	12:29:18	771104	6.6.1	4_exp_EVA_AWA_CON	93	B	A	Rpleas_acq	Same	Rpleas	1pleas	acq_US_unple_nomask	acq45_nomask	5	3	400	0	300	300	0	0	500	46	1	0	schlau	lachen	retten	fair	loyal	helfen	schroff	leiden	rächen	faul	lasch	hindern	schön	ehrlich	treu	spielen	freundlich	tolerant	schlecht	eitel	tot	strafen	fanatisch	tyrannisch	1	blank2r.bmp	0	1	+	0	1	blank2r.bmp	500	1	GKQX	500	1	blank2r.bmp	880	1	schroff	880	1	!	1232	1	!	-1	0	0	0	0	0	0
2024-06-20	12:16:26	12:29:20	773265	6.6.1	4_exp_EVA_AWA_CON	93	B	A	Rpleas_acq	Same	Rpleas	1pleas	acq_US_unple_nomask	acq45_nomask	5	4	400	1	300	300	0	0	379	50	0	0	schlau	lachen	retten	fair	loyal	helfen	schroff	leiden	rächen	faul	lasch	hindern	schön	ehrlich	treu	spielen	freundlich	tolerant	schlecht	eitel	tot	strafen	fanatisch	tyrannisch	1	blank2r.bmp	0	1	+	0	1	blank2r.bmp	500	1	GKQX	500	1	blank2r.bmp	880	2	leiden	880	1	!	1232	1	!	1280	0	0	0	0	0	0
2024-06-20	12:16:26	12:29:22	775567	6.6.1	4_exp_EVA_AWA_CON	93	B	A	Rpleas_acq	Same	Rpleas	1pleas	acq_US_unple_nomask	acq45_nomask	5	5	400	0	300	300	0	0	521	46	1	0	schlau	lachen	retten	fair	loyal	helfen	schroff	leiden	rächen	faul	lasch	hindern	schön	ehrlich	treu	spielen	freundlich	tolerant	schlecht	eitel	tot	strafen	fanatisch	tyrannisch	1	blank2r.bmp	0	1	+	0	1	blank2r.bmp	500	1	GKQX	500	1	blank2r.bmp	880	5	lasch	880	1	!	1232	1	!	-1	0	0	0	0	0	0
2024-06-20	12:16:26	12:29:25	777943	6.6.1	4_exp_EVA_AWA_CON	93	B	A	Rpleas_acq	Same	Rpleas	1pleas	acq_US_pleas_nomask	acq45_nomask	5	6	400	0	300	300	0	0	596	50	1	0	schlau	lachen	retten	fair	loyal	helfen	schroff	leiden	rächen	faul	lasch	hindern	schön	ehrlich	treu	spielen	freundlich	tolerant	schlecht	eitel	tot	strafen	fanatisch	tyrannisch	1	blank2r.bmp	0	1	+	0	1	blank2r.bmp	500	1	BMVZ	500	1	blank2r.bmp	880	5	loyal	880	1	!	1233	1	!	-1	0	0	0	0	0	0
2024-06-20	12:16:26	12:29:27	780145	6.6.1	4_exp_EVA_AWA_CON	93	B	A	Rpleas_acq	Same	Rpleas	1pleas	acq_US_unple_nomask	acq45_nomask	5	7	400	1	300	300	0	0	424	50	0	0	schlau	lachen	retten	fair	loyal	helfen	schroff	leiden	rächen	faul	lasch	hindern	schön	ehrlich	treu	spielen	freundlich	tolerant	schlecht	eitel	tot	strafen	fanatisch	tyrannisch	1	blank2r.bmp	0	1	+	0	1	blank2r.bmp	500	1	GKQX	500	1	blank2r.bmp	880	4	faul	880	1	!	1233	1	!	1325	0	0	0	0	0	0
2024-06-20	12:16:26	12:29:29	782503	6.6.1	4_exp_EVA_AWA_CON	93	B	A	Rpleas_acq	Same	Rpleas	1pleas	acq_US_pleas_nomask	acq45_nomask	5	8	400	0	300	300	0	0	583	50	1	0	schlau	lachen	retten	fair	loyal	helfen	schroff	leiden	rächen	faul	lasch	hindern	schön	ehrlich	treu	spielen	freundlich	tolerant	schlecht	eitel	tot	strafen	fanatisch	tyrannisch	1	blank2r.bmp	0	1	+	0	1	blank2r.bmp	500	1	BMVZ	500	1	blank2r.bmp	880	4	fair	880	1	!	1232	1	!	-1	0	0	0	0	0	0
2024-06-20	12:16:26	12:29:31	784696	6.6.1	4_exp_EVA_AWA_CON	93	B	A	Rpleas_acq	Same	Rpleas	1pleas	acq_US_unple_nomask	acq45_nomask	5	9	400	1	300	300	0	0	413	46	1	0	schlau	lachen	retten	fair	loyal	helfen	schroff	leiden	rächen	faul	lasch	hindern	schön	ehrlich	treu	spielen	freundlich	tolerant	schlecht	eitel	tot	strafen	fanatisch	tyrannisch	1	blank2r.bmp	0	1	+	0	1	blank2r.bmp	500	1	GKQX	500	1	blank2r.bmp	880	6	hindern	880	1	!	1232	1	!	1314	0	0	0	0	0	0
2024-06-20	12:16:26	12:29:34	787247	6.6.1	4_exp_EVA_AWA_CON	93	B	A	Rpleas_acq	Same	Rpleas	1pleas	acq_US_pleas_nomask	acq45_nomask	5	10	400	0	300	300	0	0	774	50	1	0	schlau	lachen	retten	fair	loyal	helfen	schroff	leiden	rächen	faul	lasch	hindern	schön	ehrlich	treu	spielen	freundlich	tolerant	schlecht	eitel	tot	strafen	fanatisch	tyrannisch	1	blank2r.bmp	0	1	+	0	1	blank2r.bmp	500	1	BMVZ	500	1	blank2r.bmp	880	1	schlau	880	1	!	1233	1	!	-1	0	0	0	0	0	0
2024-06-20	12:16:26	12:29:36	789473	6.6.1	4_exp_EVA_AWA_CON	93	B	A	Rpleas_acq	Same	Rpleas	1pleas	acq_US_pleas_nomask	acq45_nomask	5	11	400	1	300	300	0	0	446	50	1	0	schlau	lachen	retten	fair	loyal	helfen	schroff	leiden	rächen	faul	lasch	hindern	schön	ehrlich	treu	spielen	freundlich	tolerant	schlecht	eitel	tot	strafen	fanatisch	tyrannisch	1	blank2r.bmp	0	1	+	0	1	blank2r.bmp	500	1	BMVZ	500	1	blank2r.bmp	880	6	helfen	880	1	!	1232	1	!	1347	0	0	0	0	0	0
2024-06-20	12:16:26	12:29:38	791807	6.6.1	4_exp_EVA_AWA_CON	93	B	A	Rpleas_acq	Same	Rpleas	1pleas	acq_US_unple_nomask	acq45_nomask	5	12	400	0	300	300	0	0	561	46	1	0	schlau	lachen	retten	fair	loyal	helfen	schroff	leiden	rächen	faul	lasch	hindern	schön	ehrlich	treu	spielen	freundlich	tolerant	schlecht	eitel	tot	strafen	fanatisch	tyrannisch	1	blank2r.bmp	0	1	+	0	1	blank2r.bmp	500	1	GKQX	500	1	blank2r.bmp	880	3	rächen	880	1	!	1232	1	!	-1	0	0	0	0	0	0
2024-06-20	12:16:26	12:29:41	794016	6.6.1	4_exp_EVA_AWA_CON	93	B	A	Rpleas_acq	Same	Rpleas	1pleas	acq_US_pleas_nomask	acq45_nomask	5	13	400	1	300	300	0	0	427	50	1	0	schlau	lachen	retten	fair	loyal	helfen	schroff	leiden	rächen	faul	lasch	hindern	schön	ehrlich	treu	spielen	freundlich	tolerant	schlecht	eitel	tot	strafen	fanatisch	tyrannisch	1	blank2r.bmp	0	1	+	0	1	blank2r.bmp	500	1	BMVZ	500	1	blank2r.bmp	880	4	fair	880	1	!	1232	1	!	1328	0	0	0	0	0	0
2024-06-20	12:16:26	12:29:43	796217	6.6.1	4_exp_EVA_AWA_CON	93	B	A	Rpleas_acq	Same	Rpleas	1pleas	acq_US_pleas_nomask	acq45_nomask	5	14	400	1	300	300	0	0	426	50	1	0	schlau	lachen	retten	fair	loyal	helfen	schroff	leiden	rächen	faul	lasch	hindern	schön	ehrlich	treu	spielen	freundlich	tolerant	schlecht	eitel	tot	strafen	fanatisch	tyrannisch	1	blank2r.bmp	0	1	+	0	1	blank2r.bmp	500	1	BMVZ	500	1	blank2r.bmp	880	5	loyal	880	1	!	1233	1	!	1327	0	0	0	0	0	0
2024-06-20	12:16:26	12:29:45	798345	6.6.1	4_exp_EVA_AWA_CON	93	B	A	Rpleas_acq	Same	Rpleas	1pleas	acq_US_pleas_nomask	acq45_nomask	5	15	400	1	300	300	0	0	352	50	1	0	schlau	lachen	retten	fair	loyal	helfen	schroff	leiden	rächen	faul	lasch	hindern	schön	ehrlich	treu	spielen	freundlich	tolerant	schlecht	eitel	tot	strafen	fanatisch	tyrannisch	1	blank2r.bmp	0	1	+	0	1	blank2r.bmp	500	1	BMVZ	500	1	blank2r.bmp	880	1	schlau	880	1	!	1232	1	!	1253	0	0	0	0	0	0
2024-06-20	12:16:26	12:29:47	800545	6.6.1	4_exp_EVA_AWA_CON	93	B	A	Rpleas_acq	Same	Rpleas	1pleas	acq_US_unple_nomask	acq45_nomask	5	16	400	1	300	300	0	0	421	46	1	0	schlau	lachen	retten	fair	loyal	helfen	schroff	leiden	rächen	faul	lasch	hindern	schön	ehrlich	treu	spielen	freundlich	tolerant	schlecht	eitel	tot	strafen	fanatisch	tyrannisch	1	blank2r.bmp	0	1	+	0	1	blank2r.bmp	500	1	GKQX	500	1	blank2r.bmp	880	3	rächen	880	1	!	1232	1	!	1322	0	0	0	0	0	0
2024-06-20	12:16:26	12:29:49	802797	6.6.1	4_exp_EVA_AWA_CON	93	B	A	Rpleas_acq	Same	Rpleas	1pleas	acq_US_unple_nomask	acq45_nomask	5	17	400	0	300	300	0	0	476	46	1	0	schlau	lachen	retten	fair	loyal	helfen	schroff	leiden	rächen	faul	lasch	hindern	schön	ehrlich	treu	spielen	freundlich	tolerant	schlecht	eitel	tot	strafen	fanatisch	tyrannisch	1	blank2r.bmp	0	1	+	0	1	blank2r.bmp	500	1	GKQX	500	1	blank2r.bmp	880	1	schroff	880	1	!	1233	1	!	-1	0	0	0	0	0	0
2024-06-20	12:16:26	12:29:52	805017	6.6.1	4_exp_EVA_AWA_CON	93	B	A	Rpleas_acq	Same	Rpleas	1pleas	acq_US_unple_nomask	acq45_nomask	5	18	400	1	300	300	0	0	440	50	0	0	schlau	lachen	retten	fair	loyal	helfen	schroff	leiden	rächen	faul	lasch	hindern	schön	ehrlich	treu	spielen	freundlich	tolerant	schlecht	eitel	tot	strafen	fanatisch	tyrannisch	1	blank2r.bmp	0	1	+	0	1	blank2r.bmp	500	1	GKQX	500	1	blank2r.bmp	880	2	leiden	880	1	!	1233	1	!	1342	0	0	0	0	0	0
2024-06-20	12:16:26	12:29:54	807265	6.6.1	4_exp_EVA_AWA_CON	93	B	A	Rpleas_acq	Same	Rpleas	1pleas	acq_US_pleas_nomask	acq45_nomask	5	19	400	1	300	300	0	0	467	50	1	0	schlau	lachen	retten	fair	loyal	helfen	schroff	leiden	rächen	faul	lasch	hindern	schön	ehrlich	treu	spielen	freundlich	tolerant	schlecht	eitel	tot	strafen	fanatisch	tyrannisch	1	blank2r.bmp	0	1	+	0	1	blank2r.bmp	500	1	BMVZ	500	1	blank2r.bmp	880	2	lachen	880	1	!	1232	1	!	1368	0	0	0	0	0	0
2024-06-20	12:16:26	12:29:56	809535	6.6.1	4_exp_EVA_AWA_CON	93	B	A	Rpleas_acq	Same	Rpleas	1pleas	acq_US_pleas_nomask	acq45_nomask	5	20	400	0	300	300	0	0	497	50	1	0	schlau	lachen	retten	fair	loyal	helfen	schroff	leiden	rächen	faul	lasch	hindern	schön	ehrlich	treu	spielen	freundlich	tolerant	schlecht	eitel	tot	strafen	fanatisch	tyrannisch	1	blank2r.bmp	0	1	+	0	1	blank2r.bmp	500	1	BMVZ	500	1	blank2r.bmp	880	3	retten	880	1	!	1232	1	!	-1	0	0	0	0	0	0
2024-06-20	12:16:26	12:29:58	811789	6.6.1	4_exp_EVA_AWA_CON	93	B	A	Rpleas_acq	Same	Rpleas	1pleas	acq_US_pleas_nomask	acq45_nomask	5	21	400	0	300	300	0	0	482	50	1	0	schlau	lachen	retten	fair	loyal	helfen	schroff	leiden	rächen	faul	lasch	hindern	schön	ehrlich	treu	spielen	freundlich	tolerant	schlecht	eitel	tot	strafen	fanatisch	tyrannisch	1	blank2r.bmp	0	1	+	0	1	blank2r.bmp	500	1	BMVZ	500	1	blank2r.bmp	880	6	helfen	880	1	!	1233	1	!	-1	0	0	0	0	0	0
2024-06-20	12:16:26	12:30:01	813993	6.6.1	4_exp_EVA_AWA_CON	93	B	A	Rpleas_acq	Same	Rpleas	1pleas	acq_US_unple_nomask	acq45_nomask	5	22	400	1	300	300	0	0	420	46	1	0	schlau	lachen	retten	fair	loyal	helfen	schroff	leiden	rächen	faul	lasch	hindern	schön	ehrlich	treu	spielen	freundlich	tolerant	schlecht	eitel	tot	strafen	fanatisch	tyrannisch	1	blank2r.bmp	0	1	+	0	1	blank2r.bmp	500	1	GKQX	500	1	blank2r.bmp	880	4	faul	880	1	!	1232	1	!	1322	0	0	0	0	0	0
2024-06-20	12:16:26	12:30:03	816217	6.6.1	4_exp_EVA_AWA_CON	93	B	A	Rpleas_acq	Same	Rpleas	1pleas	acq_US_pleas_nomask	acq45_nomask	5	23	400	1	300	300	0	0	443	50	1	0	schlau	lachen	retten	fair	loyal	helfen	schroff	leiden	rächen	faul	lasch	hindern	schön	ehrlich	treu	spielen	freundlich	tolerant	schlecht	eitel	tot	strafen	fanatisch	tyrannisch	1	blank2r.bmp	0	1	+	0	1	blank2r.bmp	500	1	BMVZ	500	1	blank2r.bmp	880	2	lachen	880	1	!	1232	1	!	1344	0	0	0	0	0	0
2024-06-20	12:16:26	12:30:05	818441	6.6.1	4_exp_EVA_AWA_CON	93	B	A	Rpleas_acq	Same	Rpleas	1pleas	acq_US_unple_nomask	acq45_nomask	5	24	400	1	300	300	0	0	445	46	1	0	schlau	lachen	retten	fair	loyal	helfen	schroff	leiden	rächen	faul	lasch	hindern	schön	ehrlich	treu	spielen	freundlich	tolerant	schlecht	eitel	tot	strafen	fanatisch	tyrannisch	1	blank2r.bmp	0	1	+	0	1	blank2r.bmp	500	1	GKQX	500	1	blank2r.bmp	880	6	hindern	880	1	!	1232	1	!	1346	0	0	0	0	0	0
2024-06-20	12:16:26	12:30:07	820617	6.6.1	4_exp_EVA_AWA_CON	93	B	A	Rpleas_acq	Same	Rpleas	1pleas	acq_US_pleas_nomask	acq45_nomask	5	25	400	1	300	300	0	0	400	50	1	0	schlau	lachen	retten	fair	loyal	helfen	schroff	leiden	rächen	faul	lasch	hindern	schön	ehrlich	treu	spielen	freundlich	tolerant	schlecht	eitel	tot	strafen	fanatisch	tyrannisch	1	blank2r.bmp	0	1	+	0	1	blank2r.bmp	500	1	BMVZ	500	1	blank2r.bmp	880	4	fair	880	1	!	1232	1	!	1302	0	0	0	0	0	0
2024-06-20	12:16:26	12:30:09	822911	6.6.1	4_exp_EVA_AWA_CON	93	B	A	Rpleas_acq	Same	Rpleas	1pleas	acq_US_unple_nomask	acq45_nomask	5	26	400	0	300	300	0	0	514	46	1	0	schlau	lachen	retten	fair	loyal	helfen	schroff	leiden	rächen	faul	lasch	hindern	schön	ehrlich	treu	spielen	freundlich	tolerant	schlecht	eitel	tot	strafen	fanatisch	tyrannisch	1	blank2r.bmp	0	1	+	0	1	blank2r.bmp	500	1	GKQX	500	1	blank2r.bmp	880	5	lasch	880	1	!	1232	1	!	-1	0	0	0	0	0	0
2024-06-20	12:16:26	12:30:12	825112	6.6.1	4_exp_EVA_AWA_CON	93	B	A	Rpleas_acq	Same	Rpleas	1pleas	acq_US_pleas_nomask	acq45_nomask	5	27	400	1	300	300	0	0	423	50	1	0	schlau	lachen	retten	fair	loyal	helfen	schroff	leiden	rächen	faul	lasch	hindern	schön	ehrlich	treu	spielen	freundlich	tolerant	schlecht	eitel	tot	strafen	fanatisch	tyrannisch	1	blank2r.bmp	0	1	+	0	1	blank2r.bmp	500	1	BMVZ	500	1	blank2r.bmp	880	1	schlau	880	1	!	1232	1	!	1324	0	0	0	0	0	0
2024-06-20	12:16:26	12:30:16	828975	6.6.1	4_exp_EVA_AWA_CON	93	B	A	Rpleas_acq	Same	Rpleas	1pleas	acq_US_pleas_nomask	acq45_nomask	5	28	400	0	300	300	0	0	2085	50	1	0	schlau	lachen	retten	fair	loyal	helfen	schroff	leiden	rächen	faul	lasch	hindern	schön	ehrlich	treu	spielen	freundlich	tolerant	schlecht	eitel	tot	strafen	fanatisch	tyrannisch	1	blank2r.bmp	0	1	+	0	1	blank2r.bmp	500	1	BMVZ	500	1	blank2r.bmp	880	5	loyal	880	1	!	1232	1	!	-1	0	0	0	0	0	0
2024-06-20	12:16:26	12:30:18	831121	6.6.1	4_exp_EVA_AWA_CON	93	B	A	Rpleas_acq	Same	Rpleas	1pleas	acq_US_unple_nomask	acq45_nomask	5	29	400	1	300	300	0	0	367	50	0	0	schlau	lachen	retten	fair	loyal	helfen	schroff	leiden	rächen	faul	lasch	hindern	schön	ehrlich	treu	spielen	freundlich	tolerant	schlecht	eitel	tot	strafen	fanatisch	tyrannisch	1	blank2r.bmp	0	1	+	0	1	blank2r.bmp	500	1	GKQX	500	1	blank2r.bmp	880	2	leiden	880	1	!	1233	1	!	1268	0	0	0	0	0	0
2024-06-20	12:16:26	12:30:20	833239	6.6.1	4_exp_EVA_AWA_CON	93	B	A	Rpleas_acq	Same	Rpleas	1pleas	acq_US_unple_nomask	acq45_nomask	5	30	400	1	300	300	0	0	336	46	1	0	schlau	lachen	retten	fair	loyal	helfen	schroff	leiden	rächen	faul	lasch	hindern	schön	ehrlich	treu	spielen	freundlich	tolerant	schlecht	eitel	tot	strafen	fanatisch	tyrannisch	1	blank2r.bmp	0	1	+	0	1	blank2r.bmp	500	1	GKQX	500	1	blank2r.bmp	880	5	lasch	880	1	!	1232	1	!	1235	0	0	0	0	0	0
2024-06-20	12:16:26	12:30:22	835481	6.6.1	4_exp_EVA_AWA_CON	93	B	A	Rpleas_acq	Same	Rpleas	1pleas	acq_US_pleas_nomask	acq45_nomask	5	31	400	1	300	300	0	0	464	50	1	0	schlau	lachen	retten	fair	loyal	helfen	schroff	leiden	rächen	faul	lasch	hindern	schön	ehrlich	treu	spielen	freundlich	tolerant	schlecht	eitel	tot	strafen	fanatisch	tyrannisch	1	blank2r.bmp	0	1	+	0	1	blank2r.bmp	500	1	BMVZ	500	1	blank2r.bmp	880	3	retten	880	1	!	1232	1	!	1365	0	0	0	0	0	0
2024-06-20	12:16:26	12:30:24	837759	6.6.1	4_exp_EVA_AWA_CON	93	B	A	Rpleas_acq	Same	Rpleas	1pleas	acq_US_unple_nomask	acq45_nomask	5	32	400	0	300	300	0	0	503	46	1	0	schlau	lachen	retten	fair	loyal	helfen	schroff	leiden	rächen	faul	lasch	hindern	schön	ehrlich	treu	spielen	freundlich	tolerant	schlecht	eitel	tot	strafen	fanatisch	tyrannisch	1	blank2r.bmp	0	1	+	0	1	blank2r.bmp	500	1	GKQX	500	1	blank2r.bmp	880	1	schroff	880	1	!	1232	1	!	-1	0	0	0	0	0	0
2024-06-20	12:16:26	12:30:26	839799	6.6.1	4_exp_EVA_AWA_CON	93	B	A	Rpleas_acq	Same	Rpleas	1pleas	acq_US_unple_nomask	acq45_nomask	5	33	400	0	300	300	0	0	261	50	0	0	schlau	lachen	retten	fair	loyal	helfen	schroff	leiden	rächen	faul	lasch	hindern	schön	ehrlich	treu	spielen	freundlich	tolerant	schlecht	eitel	tot	strafen	fanatisch	tyrannisch	1	blank2r.bmp	0	1	+	0	1	blank2r.bmp	500	1	GKQX	500	1	blank2r.bmp	880	6	hindern	880	1	!	-1	1	!	-1	0	0	0	0	0	0
2024-06-20	12:16:26	12:30:29	842095	6.6.1	4_exp_EVA_AWA_CON	93	B	A	Rpleas_acq	Same	Rpleas	1pleas	acq_US_pleas_nomask	acq45_nomask	5	34	400	0	300	300	0	0	516	50	1	0	schlau	lachen	retten	fair	loyal	helfen	schroff	leiden	rächen	faul	lasch	hindern	schön	ehrlich	treu	spielen	freundlich	tolerant	schlecht	eitel	tot	strafen	fanatisch	tyrannisch	1	blank2r.bmp	0	1	+	0	1	blank2r.bmp	500	1	BMVZ	500	1	blank2r.bmp	880	6	helfen	880	1	!	1232	1	!	-1	0	0	0	0	0	0
2024-06-20	12:16:26	12:30:32	845512	6.6.1	4_exp_EVA_AWA_CON	93	B	A	Rpleas_acq	Same	Rpleas	1pleas	acq_US_unple_nomask	acq45_nomask	5	35	400	0	300	300	0	0	1640	46	1	0	schlau	lachen	retten	fair	loyal	helfen	schroff	leiden	rächen	faul	lasch	hindern	schön	ehrlich	treu	spielen	freundlich	tolerant	schlecht	eitel	tot	strafen	fanatisch	tyrannisch	1	blank2r.bmp	0	1	+	0	1	blank2r.bmp	500	1	GKQX	500	1	blank2r.bmp	880	4	faul	880	1	!	1232	1	!	-1	0	0	0	0	0	0
2024-06-20	12:16:26	12:30:34	847729	6.6.1	4_exp_EVA_AWA_CON	93	B	A	Rpleas_acq	Same	Rpleas	1pleas	acq_US_unple_nomask	acq45_nomask	5	36	400	1	300	300	0	0	434	50	0	0	schlau	lachen	retten	fair	loyal	helfen	schroff	leiden	rächen	faul	lasch	hindern	schön	ehrlich	treu	spielen	freundlich	tolerant	schlecht	eitel	tot	strafen	fanatisch	tyrannisch	1	blank2r.bmp	0	1	+	0	1	blank2r.bmp	500	1	GKQX	500	1	blank2r.bmp	880	3	rächen	880	1	!	1232	1	!	1335	0	0	0	0	0	0
2024-06-20	12:16:26	12:31:01	874435	6.6.1	4_exp_EVA_AWA_CON	93	B	A	Rpleas_acq	Same	Rpleas	1pleas	EvalRating_firsttwo	EvalRating_firsttwo	6	1	0	0	300	300	0	0	3728	line	0	-52,0833333333333285964pct	schlau	lachen	retten	fair	loyal	helfen	schroff	leiden	rächen	faul	lasch	hindern	schön	ehrlich	treu	spielen	freundlich	tolerant	schlecht	eitel	tot	strafen	fanatisch	tyrannisch	1		-8	1	Wie angenehm oder unangenehm finden Sie die  Buchstabenkette ZGVK?	-8	1		-8	1		-8	1		-8	1	Unangenehm	-8	1	Angenehm	-8	0	0	0	0	0	0	0	0	0
2024-06-20	12:16:26	12:31:07	880619	6.6.1	4_exp_EVA_AWA_CON	93	B	A	Rpleas_acq	Same	Rpleas	1pleas	EvalRating_lastfour	EvalRating_lastfour	7	1	0	0	300	300	0	0	3808	line	0	-73,046875pct	schlau	lachen	retten	fair	loyal	helfen	schroff	leiden	rächen	faul	lasch	hindern	schön	ehrlich	treu	spielen	freundlich	tolerant	schlecht	eitel	tot	strafen	fanatisch	tyrannisch	1		-7	3	Wie angenehm oder unangenehm finden Sie die  Buchstabenkette XBQM?	-7	1		-7	1		-7	1		-7	1	Unangenehm	-7	1	Angenehm	-7	0	0	0	0	0	0	0	0	0
2024-06-20	12:16:26	12:31:10	882988	6.6.1	4_exp_EVA_AWA_CON	93	B	A	Rpleas_acq	Same	Rpleas	1pleas	blank_screen	EvalRating_lastfour	7	3	0	0	300	300	0	0	0	0	0	-73,046875pct	schlau	lachen	retten	fair	loyal	helfen	schroff	leiden	rächen	faul	lasch	hindern	schön	ehrlich	treu	spielen	freundlich	tolerant	schlecht	eitel	tot	strafen	fanatisch	tyrannisch	1		-8	0	0	0	0	0	0	0	0	0	0	0	0	0	0	0	0	0	0	0	0	0	0	0	0	0	0	0
2024-06-20	12:16:26	12:31:12	885811	6.6.1	4_exp_EVA_AWA_CON	93	B	A	Rpleas_acq	Same	Rpleas	1pleas	EvalRating_lastfour	EvalRating_lastfour	7	4	0	0	300	300	0	0	2236	line	0	-27,6041666666666571928pct	schlau	lachen	retten	fair	loyal	helfen	schroff	leiden	rächen	faul	lasch	hindern	schön	ehrlich	treu	spielen	freundlich	tolerant	schlecht	eitel	tot	strafen	fanatisch	tyrannisch	1		-7	1	Wie angenehm oder unangenehm finden Sie die  Buchstabenkette BMVZ?	-7	1		-7	1		-7	1		-7	1	Unangenehm	-7	1	Angenehm	-7	0	0	0	0	0	0	0	0	0
2024-06-20	12:16:26	12:31:15	888181	6.6.1	4_exp_EVA_AWA_CON	93	B	A	Rpleas_acq	Same	Rpleas	1pleas	blank_screen	EvalRating_lastfour	7	6	0	0	300	300	0	0	0	0	0	-27,6041666666666571928pct	schlau	lachen	retten	fair	loyal	helfen	schroff	leiden	rächen	faul	lasch	hindern	schön	ehrlich	treu	spielen	freundlich	tolerant	schlecht	eitel	tot	strafen	fanatisch	tyrannisch	1		-8	0	0	0	0	0	0	0	0	0	0	0	0	0	0	0	0	0	0	0	0	0	0	0	0	0	0	0
2024-06-20	12:16:26	12:31:17	890515	6.6.1	4_exp_EVA_AWA_CON	93	B	A	Rpleas_acq	Same	Rpleas	1pleas	EvalRating_lastfour	EvalRating_lastfour	7	7	0	0	300	300	0	0	1746	line	0	-51,953125pct	schlau	lachen	retten	fair	loyal	helfen	schroff	leiden	rächen	faul	lasch	hindern	schön	ehrlich	treu	spielen	freundlich	tolerant	schlecht	eitel	tot	strafen	fanatisch	tyrannisch	1		-8	2	Wie angenehm oder unangenehm finden Sie die  Buchstabenkette GKQX?	-8	1		-8	1		-8	1		-8	1	Unangenehm	-8	1	Angenehm	-8	0	0	0	0	0	0	0	0	0
2024-06-20	12:16:26	12:32:17	950340	6.6.1	4_exp_EVA_AWA_CON	93	B	A	Rpleas_acq	Same	Rpleas	1pleas	conawa_CS1_US3	conawa1_nomask	8	1	0	0	300	300	0	0	8398	treu	1	-51,953125pct	schlau	lachen	retten	fair	loyal	helfen	schroff	leiden	rächen	faul	lasch	hindern	schön	ehrlich	treu	spielen	freundlich	tolerant	schlecht	eitel	tot	strafen	fanatisch	tyrannisch	0	0	0	0	0	0	0	0	0	0	0	0	0	0	0	0	0	0	0	0	0	0	0	0	0	0	0	0	0	0
2024-06-20	12:16:26	12:32:17	950342	6.6.1	4_exp_EVA_AWA_CON	93	B	A	Rpleas_acq	Same	Rpleas	1pleas	conawa_CS1_US3_confidence	conawa1_nomask	8	1	0	0	300	300	0	0	8398	guess	1	-51,953125pct	schlau	lachen	retten	fair	loyal	helfen	schroff	leiden	rächen	faul	lasch	hindern	schön	ehrlich	treu	spielen	freundlich	tolerant	schlecht	eitel	tot	strafen	fanatisch	tyrannisch	0	0	0	0	0	0	0	0	0	0	0	0	0	0	0	0	0	0	0	0	0	0	0	0	0	0	0	0	0	0
2024-06-20	12:16:26	12:32:24	957455	6.6.1	4_exp_EVA_AWA_CON	93	B	A	Rpleas_acq	Same	Rpleas	1pleas	conawa_CS2_US1	conawa1_nomask	8	2	0	0	300	300	0	0	6497	schroff	1	-51,953125pct	schlau	lachen	retten	fair	loyal	helfen	schroff	leiden	rächen	faul	lasch	hindern	schön	ehrlich	treu	spielen	freundlich	tolerant	schlecht	eitel	tot	strafen	fanatisch	tyrannisch	0	0	0	0	0	0	0	0	0	0	0	0	0	0	0	0	0	0	0	0	0	0	0	0	0	0	0	0	0	0
2024-06-20	12:16:26	12:32:24	957456	6.6.1	4_exp_EVA_AWA_CON	93	B	A	Rpleas_acq	Same	Rpleas	1pleas	conawa_CS2_US1_confidence	conawa1_nomask	8	2	0	0	300	300	0	0	6497	guess	1	-51,953125pct	schlau	lachen	retten	fair	loyal	helfen	schroff	leiden	rächen	faul	lasch	hindern	schön	ehrlich	treu	spielen	freundlich	tolerant	schlecht	eitel	tot	strafen	fanatisch	tyrannisch	0	0	0	0	0	0	0	0	0	0	0	0	0	0	0	0	0	0	0	0	0	0	0	0	0	0	0	0	0	0
2024-06-20	12:16:26	12:32:32	965380	6.6.1	4_exp_EVA_AWA_CON	93	B	A	Rpleas_acq	Same	Rpleas	1pleas	conawa_CS2_US2	conawa1_nomask	8	3	0	0	300	300	0	0	7312	tot	1	-51,953125pct	schlau	lachen	retten	fair	loyal	helfen	schroff	leiden	rächen	faul	lasch	hindern	schön	ehrlich	treu	spielen	freundlich	tolerant	schlecht	eitel	tot	strafen	fanatisch	tyrannisch	0	0	0	0	0	0	0	0	0	0	0	0	0	0	0	0	0	0	0	0	0	0	0	0	0	0	0	0	0	0
2024-06-20	12:16:26	12:32:32	965381	6.6.1	4_exp_EVA_AWA_CON	93	B	A	Rpleas_acq	Same	Rpleas	1pleas	conawa_CS2_US2_confidence	conawa1_nomask	8	3	0	0	300	300	0	0	7312	guess	1	-51,953125pct	schlau	lachen	retten	fair	loyal	helfen	schroff	leiden	rächen	faul	lasch	hindern	schön	ehrlich	treu	spielen	freundlich	tolerant	schlecht	eitel	tot	strafen	fanatisch	tyrannisch	0	0	0	0	0	0	0	0	0	0	0	0	0	0	0	0	0	0	0	0	0	0	0	0	0	0	0	0	0	0
2024-06-20	12:16:26	12:32:41	974476	6.6.1	4_exp_EVA_AWA_CON	93	B	A	Rpleas_acq	Same	Rpleas	1pleas	conawa_CS2_US3	conawa1_nomask	8	4	0	0	300	300	0	0	8480	spielen	1	-51,953125pct	schlau	lachen	retten	fair	loyal	helfen	schroff	leiden	rächen	faul	lasch	hindern	schön	ehrlich	treu	spielen	freundlich	tolerant	schlecht	eitel	tot	strafen	fanatisch	tyrannisch	0	0	0	0	0	0	0	0	0	0	0	0	0	0	0	0	0	0	0	0	0	0	0	0	0	0	0	0	0	0
2024-06-20	12:16:26	12:32:41	974478	6.6.1	4_exp_EVA_AWA_CON	93	B	A	Rpleas_acq	Same	Rpleas	1pleas	conawa_CS2_US3_confidence	conawa1_nomask	8	4	0	0	300	300	0	0	8480	guess	1	-51,953125pct	schlau	lachen	retten	fair	loyal	helfen	schroff	leiden	rächen	faul	lasch	hindern	schön	ehrlich	treu	spielen	freundlich	tolerant	schlecht	eitel	tot	strafen	fanatisch	tyrannisch	0	0	0	0	0	0	0	0	0	0	0	0	0	0	0	0	0	0	0	0	0	0	0	0	0	0	0	0	0	0
2024-06-20	12:16:26	12:32:47	980420	6.6.1	4_exp_EVA_AWA_CON	93	B	A	Rpleas_acq	Same	Rpleas	1pleas	conawa_CS2_US5	conawa1_nomask	8	5	0	0	300	300	0	0	5330	tyrannisch	1	-51,953125pct	schlau	lachen	retten	fair	loyal	helfen	schroff	leiden	rächen	faul	lasch	hindern	schön	ehrlich	treu	spielen	freundlich	tolerant	schlecht	eitel	tot	strafen	fanatisch	tyrannisch	0	0	0	0	0	0	0	0	0	0	0	0	0	0	0	0	0	0	0	0	0	0	0	0	0	0	0	0	0	0
2024-06-20	12:16:26	12:32:47	980421	6.6.1	4_exp_EVA_AWA_CON	93	B	A	Rpleas_acq	Same	Rpleas	1pleas	conawa_CS2_US5_confidence	conawa1_nomask	8	5	0	0	300	300	0	0	5330	guess	1	-51,953125pct	schlau	lachen	retten	fair	loyal	helfen	schroff	leiden	rächen	faul	lasch	hindern	schön	ehrlich	treu	spielen	freundlich	tolerant	schlecht	eitel	tot	strafen	fanatisch	tyrannisch	0	0	0	0	0	0	0	0	0	0	0	0	0	0	0	0	0	0	0	0	0	0	0	0	0	0	0	0	0	0
2024-06-20	12:16:26	12:32:54	987544	6.6.1	4_exp_EVA_AWA_CON	93	B	A	Rpleas_acq	Same	Rpleas	1pleas	conawa_CS1_US5	conawa1_nomask	8	6	0	0	300	300	0	0	6513	freundlich	1	-51,953125pct	schlau	lachen	retten	fair	loyal	helfen	schroff	leiden	rächen	faul	lasch	hindern	schön	ehrlich	treu	spielen	freundlich	tolerant	schlecht	eitel	tot	strafen	fanatisch	tyrannisch	0	0	0	0	0	0	0	0	0	0	0	0	0	0	0	0	0	0	0	0	0	0	0	0	0	0	0	0	0	0
2024-06-20	12:16:26	12:32:54	987545	6.6.1	4_exp_EVA_AWA_CON	93	B	A	Rpleas_acq	Same	Rpleas	1pleas	conawa_CS1_US5_confidence	conawa1_nomask	8	6	0	0	300	300	0	0	6513	guess	1	-51,953125pct	schlau	lachen	retten	fair	loyal	helfen	schroff	leiden	rächen	faul	lasch	hindern	schön	ehrlich	treu	spielen	freundlich	tolerant	schlecht	eitel	tot	strafen	fanatisch	tyrannisch	0	0	0	0	0	0	0	0	0	0	0	0	0	0	0	0	0	0	0	0	0	0	0	0	0	0	0	0	0	0
2024-06-20	12:16:26	12:33:02	995049	6.6.1	4_exp_EVA_AWA_CON	93	B	A	Rpleas_acq	Same	Rpleas	1pleas	conawa_CS1_US1	conawa1_nomask	8	7	0	0	300	300	0	0	6887	schön	1	-51,953125pct	schlau	lachen	retten	fair	loyal	helfen	schroff	leiden	rächen	faul	lasch	hindern	schön	ehrlich	treu	spielen	freundlich	tolerant	schlecht	eitel	tot	strafen	fanatisch	tyrannisch	0	0	0	0	0	0	0	0	0	0	0	0	0	0	0	0	0	0	0	0	0	0	0	0	0	0	0	0	0	0
2024-06-20	12:16:26	12:33:02	995051	6.6.1	4_exp_EVA_AWA_CON	93	B	A	Rpleas_acq	Same	Rpleas	1pleas	conawa_CS1_US1_confidence	conawa1_nomask	8	7	0	0	300	300	0	0	6887	guess	1	-51,953125pct	schlau	lachen	retten	fair	loyal	helfen	schroff	leiden	rächen	faul	lasch	hindern	schön	ehrlich	treu	spielen	freundlich	tolerant	schlecht	eitel	tot	strafen	fanatisch	tyrannisch	0	0	0	0	0	0	0	0	0	0	0	0	0	0	0	0	0	0	0	0	0	0	0	0	0	0	0	0	0	0
2024-06-20	12:16:26	12:33:08	1001473	6.6.1	4_exp_EVA_AWA_CON	93	B	A	Rpleas_acq	Same	Rpleas	1pleas	conawa_CS1_US4	conawa1_nomask	8	8	0	0	300	300	0	0	5813	fair	1	-51,953125pct	schlau	lachen	retten	fair	loyal	helfen	schroff	leiden	rächen	faul	lasch	hindern	schön	ehrlich	treu	spielen	freundlich	tolerant	schlecht	eitel	tot	strafen	fanatisch	tyrannisch	0	0	0	0	0	0	0	0	0	0	0	0	0	0	0	0	0	0	0	0	0	0	0	0	0	0	0	0	0	0
2024-06-20	12:16:26	12:33:08	1001475	6.6.1	4_exp_EVA_AWA_CON	93	B	A	Rpleas_acq	Same	Rpleas	1pleas	conawa_CS1_US4_confidence	conawa1_nomask	8	8	0	0	300	300	0	0	5813	guess	1	-51,953125pct	schlau	lachen	retten	fair	loyal	helfen	schroff	leiden	rächen	faul	lasch	hindern	schön	ehrlich	treu	spielen	freundlich	tolerant	schlecht	eitel	tot	strafen	fanatisch	tyrannisch	0	0	0	0	0	0	0	0	0	0	0	0	0	0	0	0	0	0	0	0	0	0	0	0	0	0	0	0	0	0
2024-06-20	12:16:26	12:33:13	1006657	6.6.1	4_exp_EVA_AWA_CON	93	B	A	Rpleas_acq	Same	Rpleas	1pleas	conawa_CS2_US6	conawa1_nomask	8	9	0	0	300	300	0	0	4566	schlecht	1	-51,953125pct	schlau	lachen	retten	fair	loyal	helfen	schroff	leiden	rächen	faul	lasch	hindern	schön	ehrlich	treu	spielen	freundlich	tolerant	schlecht	eitel	tot	strafen	fanatisch	tyrannisch	0	0	0	0	0	0	0	0	0	0	0	0	0	0	0	0	0	0	0	0	0	0	0	0	0	0	0	0	0	0
2024-06-20	12:16:26	12:33:13	1006658	6.6.1	4_exp_EVA_AWA_CON	93	B	A	Rpleas_acq	Same	Rpleas	1pleas	conawa_CS2_US6_confidence	conawa1_nomask	8	9	0	0	300	300	0	0	4566	guess	1	-51,953125pct	schlau	lachen	retten	fair	loyal	helfen	schroff	leiden	rächen	faul	lasch	hindern	schön	ehrlich	treu	spielen	freundlich	tolerant	schlecht	eitel	tot	strafen	fanatisch	tyrannisch	0	0	0	0	0	0	0	0	0	0	0	0	0	0	0	0	0	0	0	0	0	0	0	0	0	0	0	0	0	0
2024-06-20	12:16:26	12:33:19	1012360	6.6.1	4_exp_EVA_AWA_CON	93	B	A	Rpleas_acq	Same	Rpleas	1pleas	conawa_CS1_US2	conawa1_nomask	8	10	0	0	300	300	0	0	5086	ehrlich	1	-51,953125pct	schlau	lachen	retten	fair	loyal	helfen	schroff	leiden	rächen	faul	lasch	hindern	schön	ehrlich	treu	spielen	freundlich	tolerant	schlecht	eitel	tot	strafen	fanatisch	tyrannisch	0	0	0	0	0	0	0	0	0	0	0	0	0	0	0	0	0	0	0	0	0	0	0	0	0	0	0	0	0	0
2024-06-20	12:16:26	12:33:19	1012362	6.6.1	4_exp_EVA_AWA_CON	93	B	A	Rpleas_acq	Same	Rpleas	1pleas	conawa_CS1_US2_confidence	conawa1_nomask	8	10	0	0	300	300	0	0	5086	guess	1	-51,953125pct	schlau	lachen	retten	fair	loyal	helfen	schroff	leiden	rächen	faul	lasch	hindern	schön	ehrlich	treu	spielen	freundlich	tolerant	schlecht	eitel	tot	strafen	fanatisch	tyrannisch	0	0	0	0	0	0	0	0	0	0	0	0	0	0	0	0	0	0	0	0	0	0	0	0	0	0	0	0	0	0
2024-06-20	12:16:26	12:33:26	1019565	6.6.1	4_exp_EVA_AWA_CON	93	B	A	Rpleas_acq	Same	Rpleas	1pleas	conawa_CS1_US6	conawa1_nomask	8	11	0	0	300	300	0	0	6590	tolerant	1	-51,953125pct	schlau	lachen	retten	fair	loyal	helfen	schroff	leiden	rächen	faul	lasch	hindern	schön	ehrlich	treu	spielen	freundlich	tolerant	schlecht	eitel	tot	strafen	fanatisch	tyrannisch	0	0	0	0	0	0	0	0	0	0	0	0	0	0	0	0	0	0	0	0	0	0	0	0	0	0	0	0	0	0
2024-06-20	12:16:26	12:33:26	1019567	6.6.1	4_exp_EVA_AWA_CON	93	B	A	Rpleas_acq	Same	Rpleas	1pleas	conawa_CS1_US6_confidence	conawa1_nomask	8	11	0	0	300	300	0	0	6590	guess	1	-51,953125pct	schlau	lachen	retten	fair	loyal	helfen	schroff	leiden	rächen	faul	lasch	hindern	schön	ehrlich	treu	spielen	freundlich	tolerant	schlecht	eitel	tot	strafen	fanatisch	tyrannisch	0	0	0	0	0	0	0	0	0	0	0	0	0	0	0	0	0	0	0	0	0	0	0	0	0	0	0	0	0	0
2024-06-20	12:16:26	12:33:32	1025649	6.6.1	4_exp_EVA_AWA_CON	93	B	A	Rpleas_acq	Same	Rpleas	1pleas	conawa_CS2_US4	conawa1_nomask	8	12	0	0	300	300	0	0	5475	fanatisch	1	-51,953125pct	schlau	lachen	retten	fair	loyal	helfen	schroff	leiden	rächen	faul	lasch	hindern	schön	ehrlich	treu	spielen	freundlich	tolerant	schlecht	eitel	tot	strafen	fanatisch	tyrannisch	0	0	0	0	0	0	0	0	0	0	0	0	0	0	0	0	0	0	0	0	0	0	0	0	0	0	0	0	0	0
2024-06-20	12:16:26	12:33:32	1025651	6.6.1	4_exp_EVA_AWA_CON	93	B	A	Rpleas_acq	Same	Rpleas	1pleas	conawa_CS2_US4_confidence	conawa1_nomask	8	12	0	0	300	300	0	0	5475	guess	1	-51,953125pct	schlau	lachen	retten	fair	loyal	helfen	schroff	leiden	rächen	faul	lasch	hindern	schön	ehrlich	treu	spielen	freundlich	tolerant	schlecht	eitel	tot	strafen	fanatisch	tyrannisch	0	0	0	0	0	0	0	0	0	0	0	0	0	0	0	0	0	0	0	0	0	0	0	0	0	0	0	0	0	0
2024-06-20	12:16:26	12:35:05	1118327	6.6.1	4_exp_EVA_AWA_CON	93	B	A	Rpleas_acq	Same	Rpleas	1pleas	cond_new_unple_456_nomask_CS2	condtest_nomask_1	11	1	400	0	300	300	0	0	527	46	1	-51,953125pct	schlau	lachen	retten	fair	loyal	helfen	schroff	leiden	rächen	faul	lasch	hindern	schön	ehrlich	treu	spielen	freundlich	tolerant	schlecht	eitel	tot	strafen	fanatisch	tyrannisch	1	blank2r.bmp	0	1	+	0	1	blank2r.bmp	500	1	GKQX	500	1	blank2r.bmp	880	1	tyrannisch	880	1	!	1232	1	!	-1	0	0	0	0	0	0
2024-06-20	12:16:26	12:35:07	1120504	6.6.1	4_exp_EVA_AWA_CON	93	B	A	Rpleas_acq	Same	Rpleas	1pleas	cond_US_unple_123_nomask_CS2	condtest_nomask_1	11	2	400	1	300	300	0	0	402	46	1	-51,953125pct	schlau	lachen	retten	fair	loyal	helfen	schroff	leiden	rächen	faul	lasch	hindern	schön	ehrlich	treu	spielen	freundlich	tolerant	schlecht	eitel	tot	strafen	fanatisch	tyrannisch	1	blank2r.bmp	0	1	+	0	1	blank2r.bmp	500	1	GKQX	500	1	blank2r.bmp	880	2	schroff	880	1	!	1233	1	!	1303	0	0	0	0	0	0
2024-06-20	12:16:26	12:35:09	1122815	6.6.1	4_exp_EVA_AWA_CON	93	B	A	Rpleas_acq	Same	Rpleas	1pleas	cond_US_unple_123_nomask_CS1	condtest_nomask_1	11	3	400	0	300	300	0	0	533	46	1	-51,953125pct	schlau	lachen	retten	fair	loyal	helfen	schroff	leiden	rächen	faul	lasch	hindern	schön	ehrlich	treu	spielen	freundlich	tolerant	schlecht	eitel	tot	strafen	fanatisch	tyrannisch	1	blank2r.bmp	0	1	+	0	1	blank2r.bmp	500	1	BMVZ	500	1	blank2r.bmp	880	3	rächen	880	1	!	1232	1	!	-1	0	0	0	0	0	0
2024-06-20	12:16:26	12:35:12	1125095	6.6.1	4_exp_EVA_AWA_CON	93	B	A	Rpleas_acq	Same	Rpleas	1pleas	cond_US_pleas_123_nomask_CS2	condtest_nomask_1	11	4	400	0	300	300	0	0	501	50	1	-51,953125pct	schlau	lachen	retten	fair	loyal	helfen	schroff	leiden	rächen	faul	lasch	hindern	schön	ehrlich	treu	spielen	freundlich	tolerant	schlecht	eitel	tot	strafen	fanatisch	tyrannisch	1	blank2r.bmp	0	1	+	0	1	blank2r.bmp	500	1	GKQX	500	1	blank2r.bmp	880	1	retten	880	1	!	1232	1	!	-1	0	0	0	0	0	0
2024-06-20	12:16:26	12:35:14	1127349	6.6.1	4_exp_EVA_AWA_CON	93	B	A	Rpleas_acq	Same	Rpleas	1pleas	cond_US_pleas_123_nomask_CS1	condtest_nomask_1	11	5	400	0	300	300	0	0	476	50	1	-51,953125pct	schlau	lachen	retten	fair	loyal	helfen	schroff	leiden	rächen	faul	lasch	hindern	schön	ehrlich	treu	spielen	freundlich	tolerant	schlecht	eitel	tot	strafen	fanatisch	tyrannisch	1	blank2r.bmp	0	1	+	0	1	blank2r.bmp	500	1	BMVZ	500	1	blank2r.bmp	880	3	retten	880	1	!	1232	1	!	-1	0	0	0	0	0	0
2024-06-20	12:16:26	12:35:16	1129631	6.6.1	4_exp_EVA_AWA_CON	93	B	A	Rpleas_acq	Same	Rpleas	1pleas	cond_new_pleas_456_nomask_CS2	condtest_nomask_1	11	6	400	0	300	300	0	0	504	50	1	-51,953125pct	schlau	lachen	retten	fair	loyal	helfen	schroff	leiden	rächen	faul	lasch	hindern	schön	ehrlich	treu	spielen	freundlich	tolerant	schlecht	eitel	tot	strafen	fanatisch	tyrannisch	1	blank2r.bmp	0	1	+	0	1	blank2r.bmp	500	1	GKQX	500	1	blank2r.bmp	880	2	spielen	880	1	!	1232	1	!	-1	0	0	0	0	0	0
2024-06-20	12:16:26	12:35:18	1131751	6.6.1	4_exp_EVA_AWA_CON	93	B	A	Rpleas_acq	Same	Rpleas	1pleas	cond_new_unple_456_nomask_CS1	condtest_nomask_1	11	7	400	1	300	300	0	0	343	50	0	-51,953125pct	schlau	lachen	retten	fair	loyal	helfen	schroff	leiden	rächen	faul	lasch	hindern	schön	ehrlich	treu	spielen	freundlich	tolerant	schlecht	eitel	tot	strafen	fanatisch	tyrannisch	1	blank2r.bmp	0	1	+	0	1	blank2r.bmp	500	1	BMVZ	500	1	blank2r.bmp	880	1	strafen	880	1	!	1232	1	!	1242	0	0	0	0	0	0
2024-06-20	12:16:26	12:35:21	1134001	6.6.1	4_exp_EVA_AWA_CON	93	B	A	Rpleas_acq	Same	Rpleas	1pleas	cond_new_pleas_456_nomask_CS1	condtest_nomask_1	11	8	400	1	300	300	0	0	469	50	1	-51,953125pct	schlau	lachen	retten	fair	loyal	helfen	schroff	leiden	rächen	faul	lasch	hindern	schön	ehrlich	treu	spielen	freundlich	tolerant	schlecht	eitel	tot	strafen	fanatisch	tyrannisch	1	blank2r.bmp	0	1	+	0	1	blank2r.bmp	500	1	BMVZ	500	1	blank2r.bmp	880	1	spielen	880	1	!	1232	1	!	1370	0	0	0	0	0	0
2024-06-20	12:16:26	12:35:31	1144616	6.6.1	4_exp_EVA_AWA_CON	93	B	A	Rpleas_acq	Same	Rpleas	1pleas	cond_new_unple_456_nomask_CS1	condtest_nomask_2	12	1	400	1	300	300	0	0	398	46	1	-51,953125pct	schlau	lachen	retten	fair	loyal	helfen	schroff	leiden	rächen	faul	lasch	hindern	schön	ehrlich	treu	spielen	freundlich	tolerant	schlecht	eitel	tot	strafen	fanatisch	tyrannisch	1	blank2r.bmp	0	1	+	0	1	blank2r.bmp	500	1	BMVZ	500	1	blank2r.bmp	880	2	fanatisch	880	1	!	1232	1	!	1299	0	0	0	0	0	0
2024-06-20	12:16:26	12:35:34	1146975	6.6.1	4_exp_EVA_AWA_CON	93	B	A	Rpleas_acq	Same	Rpleas	1pleas	cond_new_unple_456_nomask_CS1	condtest_nomask_2	12	2	400	0	300	300	0	0	577	46	1	-51,953125pct	schlau	lachen	retten	fair	loyal	helfen	schroff	leiden	rächen	faul	lasch	hindern	schön	ehrlich	treu	spielen	freundlich	tolerant	schlecht	eitel	tot	strafen	fanatisch	tyrannisch	1	blank2r.bmp	0	1	+	0	1	blank2r.bmp	500	1	BMVZ	500	1	blank2r.bmp	880	3	tyrannisch	880	1	!	1232	1	!	-1	0	0	0	0	0	0
