date	time	currenttime	elapsedtime	build	currentexpt	subject	CS_AB	US_AB	LRpleas_acq	SameOppo	condition_Lpleas	condition_1pleas	trialcode	blockcode	blocknum	trialnum	windowcenter	inwindow	pretrialpause	posttrialpause	trialduration	trialtimeout	latency	response	correct	correctedscore	US_nomask_pleas1	US_nomask_pleas2	US_nomask_pleas3	US_nomask_pleas4	US_nomask_pleas5	US_nomask_pleas6	US_nomask_unple1	US_nomask_unple2	US_nomask_unple3	US_nomask_unple4	US_nomask_unple5	US_nomask_unple6	new_nomask_pleas1	new_nomask_pleas2	new_nomask_pleas3	new_nomask_pleas4	new_nomask_pleas5	new_nomask_pleas6	new_nomask_unple1	new_nomask_unple2	new_nomask_unple3	new_nomask_unple4	new_nomask_unple5	new_nomask_unple6	stimulusnumber1	stimulusitem1	stimulusonset1	stimulusnumber2	stimulusitem2	stimulusonset2	stimulusnumber3	stimulusitem3	stimulusonset3	stimulusnumber4	stimulusitem4	stimulusonset4	stimulusnumber5	stimulusitem5	stimulusonset5	stimulusnumber6	stimulusitem6	stimulusonset6	stimulusnumber7	stimulusitem7	stimulusonset7	stimulusnumber8	stimulusitem8	stimulusonset8	stimulusnumber9	stimulusitem9	stimulusonset9	stimulusnumber10	stimulusitem10	stimulusonset10
2024-05-15	11:37:29	11:38:40	70758	6.6.1	4_exp_EVA_AWA_CON	35	B	A	Rpleas_acq	Same	Rpleas	2pleas	acq_US_pleas_nomask	acq1_nomask	1	1	0	0	300	300	0	0	1449	50	1	0	schlau	fair	spielen	freundlich	lachen	schön	schroff	faul	strafen	fanatisch	leiden	schlecht	helfen	tolerant	loyal	retten	ehrlich	treu	hindern	tyrannisch	lasch	rächen	eitel	tot	1	blank2r.bmp	0	1	+	0	1	blank2r.bmp	500	1	GKQX	500	1	blank2r.bmp	880	2	fair	880	0	0	0	0	0	0	0	0	0	0	0	0
2024-05-15	11:37:29	11:38:42	72822	6.6.1	4_exp_EVA_AWA_CON	35	B	A	Rpleas_acq	Same	Rpleas	2pleas	acq_new_unple_nomask	acq1_nomask	1	2	0	0	300	300	0	0	581	46	1	0	schlau	fair	spielen	freundlich	lachen	schön	schroff	faul	strafen	fanatisch	leiden	schlecht	helfen	tolerant	loyal	retten	ehrlich	treu	hindern	tyrannisch	lasch	rächen	eitel	tot	1	blank2r.bmp	0	1	+	0	1	blank2r.bmp	500	2	B2r.bmp	500	1	blank2r.bmp	880	2	tyrannisch	880	0	0	0	0	0	0	0	0	0	0	0	0
2024-05-15	11:37:29	11:38:44	74958	6.6.1	4_exp_EVA_AWA_CON	35	B	A	Rpleas_acq	Same	Rpleas	2pleas	acq_new_unple_nomask	acq1_nomask	1	3	0	0	300	300	0	0	646	46	1	0	schlau	fair	spielen	freundlich	lachen	schön	schroff	faul	strafen	fanatisch	leiden	schlecht	helfen	tolerant	loyal	retten	ehrlich	treu	hindern	tyrannisch	lasch	rächen	eitel	tot	1	blank2r.bmp	0	1	+	0	1	blank2r.bmp	500	4	B4r.bmp	500	1	blank2r.bmp	880	1	hindern	880	0	0	0	0	0	0	0	0	0	0	0	0
2024-05-15	11:37:29	11:38:47	77046	6.6.1	4_exp_EVA_AWA_CON	35	B	A	Rpleas_acq	Same	Rpleas	2pleas	acq_new_pleas_nomask	acq1_nomask	1	4	0	0	300	300	0	0	603	50	1	0	schlau	fair	spielen	freundlich	lachen	schön	schroff	faul	strafen	fanatisch	leiden	schlecht	helfen	tolerant	loyal	retten	ehrlich	treu	hindern	tyrannisch	lasch	rächen	eitel	tot	1	blank2r.bmp	0	1	+	0	1	blank2r.bmp	500	7	C3r.bmp	500	1	blank2r.bmp	880	5	ehrlich	880	0	0	0	0	0	0	0	0	0	0	0	0
2024-05-15	11:37:29	11:38:49	79158	6.6.1	4_exp_EVA_AWA_CON	35	B	A	Rpleas_acq	Same	Rpleas	2pleas	acq_US_pleas_nomask	acq1_nomask	1	5	0	0	300	300	0	0	623	50	1	0	schlau	fair	spielen	freundlich	lachen	schön	schroff	faul	strafen	fanatisch	leiden	schlecht	helfen	tolerant	loyal	retten	ehrlich	treu	hindern	tyrannisch	lasch	rächen	eitel	tot	1	blank2r.bmp	0	1	+	0	1	blank2r.bmp	500	1	GKQX	500	1	blank2r.bmp	880	1	schlau	880	0	0	0	0	0	0	0	0	0	0	0	0
2024-05-15	11:37:29	11:38:51	81376	6.6.1	4_exp_EVA_AWA_CON	35	B	A	Rpleas_acq	Same	Rpleas	2pleas	acq_new_unple_nomask	acq1_nomask	1	6	0	0	300	300	0	0	528	50	0	0	schlau	fair	spielen	freundlich	lachen	schön	schroff	faul	strafen	fanatisch	leiden	schlecht	helfen	tolerant	loyal	retten	ehrlich	treu	hindern	tyrannisch	lasch	rächen	eitel	tot	1	blank2r.bmp	0	1	+	0	1	blank2r.bmp	500	1	B1r.bmp	500	1	blank2r.bmp	880	6	tot	880	1	FEHLER	1430	0	0	0	0	0	0	0	0	0
2024-05-15	11:37:29	11:38:53	83166	6.6.1	4_exp_EVA_AWA_CON	35	B	A	Rpleas_acq	Same	Rpleas	2pleas	acq_US_unple_nomask	acq1_nomask	1	7	0	0	300	300	0	0	509	46	1	0	schlau	fair	spielen	freundlich	lachen	schön	schroff	faul	strafen	fanatisch	leiden	schlecht	helfen	tolerant	loyal	retten	ehrlich	treu	hindern	tyrannisch	lasch	rächen	eitel	tot	1	blank2r.bmp	0	1	+	0	1	blank2r.bmp	500	1	BMVZ	500	1	blank2r.bmp	880	3	strafen	880	0	0	0	0	0	0	0	0	0	0	0	0
2024-05-15	11:37:29	11:38:55	85463	6.6.1	4_exp_EVA_AWA_CON	35	B	A	Rpleas_acq	Same	Rpleas	2pleas	acq_US_unple_nomask	acq1_nomask	1	8	0	0	300	300	0	0	613	50	0	0	schlau	fair	spielen	freundlich	lachen	schön	schroff	faul	strafen	fanatisch	leiden	schlecht	helfen	tolerant	loyal	retten	ehrlich	treu	hindern	tyrannisch	lasch	rächen	eitel	tot	1	blank2r.bmp	0	1	+	0	1	blank2r.bmp	500	1	BMVZ	500	1	blank2r.bmp	880	4	fanatisch	880	1	FEHLER	1515	0	0	0	0	0	0	0	0	0
2024-05-15	11:37:29	11:38:57	87590	6.6.1	4_exp_EVA_AWA_CON	35	B	A	Rpleas_acq	Same	Rpleas	2pleas	acq_US_unple_nomask	acq1_nomask	1	9	0	0	300	300	0	0	840	46	1	0	schlau	fair	spielen	freundlich	lachen	schön	schroff	faul	strafen	fanatisch	leiden	schlecht	helfen	tolerant	loyal	retten	ehrlich	treu	hindern	tyrannisch	lasch	rächen	eitel	tot	1	blank2r.bmp	0	1	+	0	1	blank2r.bmp	500	1	BMVZ	500	1	blank2r.bmp	880	1	schroff	880	0	0	0	0	0	0	0	0	0	0	0	0
2024-05-15	11:37:29	11:38:59	89582	6.6.1	4_exp_EVA_AWA_CON	35	B	A	Rpleas_acq	Same	Rpleas	2pleas	acq_US_pleas_nomask	acq1_nomask	1	10	0	0	300	300	0	0	510	50	1	0	schlau	fair	spielen	freundlich	lachen	schön	schroff	faul	strafen	fanatisch	leiden	schlecht	helfen	tolerant	loyal	retten	ehrlich	treu	hindern	tyrannisch	lasch	rächen	eitel	tot	1	blank2r.bmp	0	1	+	0	1	blank2r.bmp	500	1	GKQX	500	1	blank2r.bmp	880	4	freundlich	880	0	0	0	0	0	0	0	0	0	0	0	0
2024-05-15	11:37:29	11:39:01	91623	6.6.1	4_exp_EVA_AWA_CON	35	B	A	Rpleas_acq	Same	Rpleas	2pleas	acq_new_pleas_nomask	acq1_nomask	1	11	0	0	300	300	0	0	559	50	1	0	schlau	fair	spielen	freundlich	lachen	schön	schroff	faul	strafen	fanatisch	leiden	schlecht	helfen	tolerant	loyal	retten	ehrlich	treu	hindern	tyrannisch	lasch	rächen	eitel	tot	1	blank2r.bmp	0	1	+	0	1	blank2r.bmp	500	3	B3r.bmp	500	1	blank2r.bmp	880	2	tolerant	880	0	0	0	0	0	0	0	0	0	0	0	0
2024-05-15	11:37:29	11:39:03	93558	6.6.1	4_exp_EVA_AWA_CON	35	B	A	Rpleas_acq	Same	Rpleas	2pleas	acq_new_pleas_nomask	acq1_nomask	1	12	0	0	300	300	0	0	454	50	1	0	schlau	fair	spielen	freundlich	lachen	schön	schroff	faul	strafen	fanatisch	leiden	schlecht	helfen	tolerant	loyal	retten	ehrlich	treu	hindern	tyrannisch	lasch	rächen	eitel	tot	1	blank2r.bmp	0	1	+	0	1	blank2r.bmp	500	5	C1r.bmp	500	1	blank2r.bmp	880	3	loyal	880	0	0	0	0	0	0	0	0	0	0	0	0
2024-05-15	11:37:29	11:39:05	95806	6.6.1	4_exp_EVA_AWA_CON	35	B	A	Rpleas_acq	Same	Rpleas	2pleas	acq_new_pleas_nomask	acq1_nomask	1	13	0	0	300	300	0	0	761	50	1	0	schlau	fair	spielen	freundlich	lachen	schön	schroff	faul	strafen	fanatisch	leiden	schlecht	helfen	tolerant	loyal	retten	ehrlich	treu	hindern	tyrannisch	lasch	rächen	eitel	tot	1	blank2r.bmp	0	1	+	0	1	blank2r.bmp	500	6	C2r.bmp	500	1	blank2r.bmp	880	4	retten	880	0	0	0	0	0	0	0	0	0	0	0	0
2024-05-15	11:37:29	11:39:07	97798	6.6.1	4_exp_EVA_AWA_CON	35	B	A	Rpleas_acq	Same	Rpleas	2pleas	acq_US_unple_nomask	acq1_nomask	1	14	0	0	300	300	0	0	501	46	1	0	schlau	fair	spielen	freundlich	lachen	schön	schroff	faul	strafen	fanatisch	leiden	schlecht	helfen	tolerant	loyal	retten	ehrlich	treu	hindern	tyrannisch	lasch	rächen	eitel	tot	1	blank2r.bmp	0	1	+	0	1	blank2r.bmp	500	1	BMVZ	500	1	blank2r.bmp	880	5	leiden	880	0	0	0	0	0	0	0	0	0	0	0	0
2024-05-15	11:37:29	11:39:09	99822	6.6.1	4_exp_EVA_AWA_CON	35	B	A	Rpleas_acq	Same	Rpleas	2pleas	acq_new_unple_nomask	acq1_nomask	1	15	0	0	300	300	0	0	534	46	1	0	schlau	fair	spielen	freundlich	lachen	schön	schroff	faul	strafen	fanatisch	leiden	schlecht	helfen	tolerant	loyal	retten	ehrlich	treu	hindern	tyrannisch	lasch	rächen	eitel	tot	1	blank2r.bmp	0	1	+	0	1	blank2r.bmp	500	8	C4r.bmp	500	1	blank2r.bmp	880	4	rächen	880	0	0	0	0	0	0	0	0	0	0	0	0
2024-05-15	11:37:29	11:39:11	101766	6.6.1	4_exp_EVA_AWA_CON	35	B	A	Rpleas_acq	Same	Rpleas	2pleas	acq_US_pleas_nomask	acq1_nomask	1	16	0	0	300	300	0	0	457	50	1	0	schlau	fair	spielen	freundlich	lachen	schön	schroff	faul	strafen	fanatisch	leiden	schlecht	helfen	tolerant	loyal	retten	ehrlich	treu	hindern	tyrannisch	lasch	rächen	eitel	tot	1	blank2r.bmp	0	1	+	0	1	blank2r.bmp	500	1	GKQX	500	1	blank2r.bmp	880	6	schön	880	0	0	0	0	0	0	0	0	0	0	0	0
2024-05-15	11:37:29	11:39:13	103894	6.6.1	4_exp_EVA_AWA_CON	35	B	A	Rpleas_acq	Same	Rpleas	2pleas	acq_new_unple_nomask	acq1_nomask	1	17	0	0	300	300	0	0	643	46	1	0	schlau	fair	spielen	freundlich	lachen	schön	schroff	faul	strafen	fanatisch	leiden	schlecht	helfen	tolerant	loyal	retten	ehrlich	treu	hindern	tyrannisch	lasch	rächen	eitel	tot	1	blank2r.bmp	0	1	+	0	1	blank2r.bmp	500	6	C2r.bmp	500	1	blank2r.bmp	880	5	eitel	880	0	0	0	0	0	0	0	0	0	0	0	0
2024-05-15	11:37:29	11:39:15	105886	6.6.1	4_exp_EVA_AWA_CON	35	B	A	Rpleas_acq	Same	Rpleas	2pleas	acq_US_unple_nomask	acq1_nomask	1	18	0	0	300	300	0	0	504	46	1	0	schlau	fair	spielen	freundlich	lachen	schön	schroff	faul	strafen	fanatisch	leiden	schlecht	helfen	tolerant	loyal	retten	ehrlich	treu	hindern	tyrannisch	lasch	rächen	eitel	tot	1	blank2r.bmp	0	1	+	0	1	blank2r.bmp	500	1	BMVZ	500	1	blank2r.bmp	880	2	faul	880	0	0	0	0	0	0	0	0	0	0	0	0
2024-05-15	11:37:29	11:39:17	107830	6.6.1	4_exp_EVA_AWA_CON	35	B	A	Rpleas_acq	Same	Rpleas	2pleas	acq_new_unple_nomask	acq1_nomask	1	19	0	0	300	300	0	0	457	46	1	0	schlau	fair	spielen	freundlich	lachen	schön	schroff	faul	strafen	fanatisch	leiden	schlecht	helfen	tolerant	loyal	retten	ehrlich	treu	hindern	tyrannisch	lasch	rächen	eitel	tot	1	blank2r.bmp	0	1	+	0	1	blank2r.bmp	500	1	B1r.bmp	500	1	blank2r.bmp	880	3	lasch	880	0	0	0	0	0	0	0	0	0	0	0	0
2024-05-15	11:37:29	11:39:19	109726	6.6.1	4_exp_EVA_AWA_CON	35	B	A	Rpleas_acq	Same	Rpleas	2pleas	acq_US_pleas_nomask	acq1_nomask	1	20	0	0	300	300	0	0	412	50	1	0	schlau	fair	spielen	freundlich	lachen	schön	schroff	faul	strafen	fanatisch	leiden	schlecht	helfen	tolerant	loyal	retten	ehrlich	treu	hindern	tyrannisch	lasch	rächen	eitel	tot	1	blank2r.bmp	0	1	+	0	1	blank2r.bmp	500	1	GKQX	500	1	blank2r.bmp	880	3	spielen	880	0	0	0	0	0	0	0	0	0	0	0	0
2024-05-15	11:37:29	11:39:21	111670	6.6.1	4_exp_EVA_AWA_CON	35	B	A	Rpleas_acq	Same	Rpleas	2pleas	acq_US_pleas_nomask	acq1_nomask	1	21	0	0	300	300	0	0	454	50	1	0	schlau	fair	spielen	freundlich	lachen	schön	schroff	faul	strafen	fanatisch	leiden	schlecht	helfen	tolerant	loyal	retten	ehrlich	treu	hindern	tyrannisch	lasch	rächen	eitel	tot	1	blank2r.bmp	0	1	+	0	1	blank2r.bmp	500	1	GKQX	500	1	blank2r.bmp	880	5	lachen	880	0	0	0	0	0	0	0	0	0	0	0	0
2024-05-15	11:37:29	11:39:23	113839	6.6.1	4_exp_EVA_AWA_CON	35	B	A	Rpleas_acq	Same	Rpleas	2pleas	acq_US_unple_nomask	acq1_nomask	1	22	0	0	300	300	0	0	481	50	0	0	schlau	fair	spielen	freundlich	lachen	schön	schroff	faul	strafen	fanatisch	leiden	schlecht	helfen	tolerant	loyal	retten	ehrlich	treu	hindern	tyrannisch	lasch	rächen	eitel	tot	1	blank2r.bmp	0	1	+	0	1	blank2r.bmp	500	1	BMVZ	500	1	blank2r.bmp	880	6	schlecht	880	1	FEHLER	1383	0	0	0	0	0	0	0	0	0
2024-05-15	11:37:29	11:39:25	115646	6.6.1	4_exp_EVA_AWA_CON	35	B	A	Rpleas_acq	Same	Rpleas	2pleas	acq_new_pleas_nomask	acq1_nomask	1	23	0	0	300	300	0	0	518	50	1	0	schlau	fair	spielen	freundlich	lachen	schön	schroff	faul	strafen	fanatisch	leiden	schlecht	helfen	tolerant	loyal	retten	ehrlich	treu	hindern	tyrannisch	lasch	rächen	eitel	tot	1	blank2r.bmp	0	1	+	0	1	blank2r.bmp	500	5	C1r.bmp	500	1	blank2r.bmp	880	1	helfen	880	0	0	0	0	0	0	0	0	0	0	0	0
2024-05-15	11:37:29	11:39:27	117742	6.6.1	4_exp_EVA_AWA_CON	35	B	A	Rpleas_acq	Same	Rpleas	2pleas	acq_new_pleas_nomask	acq1_nomask	1	24	0	0	300	300	0	0	613	50	1	0	schlau	fair	spielen	freundlich	lachen	schön	schroff	faul	strafen	fanatisch	leiden	schlecht	helfen	tolerant	loyal	retten	ehrlich	treu	hindern	tyrannisch	lasch	rächen	eitel	tot	1	blank2r.bmp	0	1	+	0	1	blank2r.bmp	500	2	B2r.bmp	500	1	blank2r.bmp	880	6	treu	880	0	0	0	0	0	0	0	0	0	0	0	0
2024-05-15	11:37:29	11:39:30	120134	6.6.1	4_exp_EVA_AWA_CON	35	B	A	Rpleas_acq	Same	Rpleas	2pleas	acq_new_pleas_nomask	acq1_nomask	1	25	0	0	300	300	0	0	903	50	1	0	schlau	fair	spielen	freundlich	lachen	schön	schroff	faul	strafen	fanatisch	leiden	schlecht	helfen	tolerant	loyal	retten	ehrlich	treu	hindern	tyrannisch	lasch	rächen	eitel	tot	1	blank2r.bmp	0	1	+	0	1	blank2r.bmp	500	3	B3r.bmp	500	1	blank2r.bmp	880	3	loyal	880	0	0	0	0	0	0	0	0	0	0	0	0
2024-05-15	11:37:29	11:39:32	122118	6.6.1	4_exp_EVA_AWA_CON	35	B	A	Rpleas_acq	Same	Rpleas	2pleas	acq_US_pleas_nomask	acq1_nomask	1	26	0	0	300	300	0	0	496	50	1	0	schlau	fair	spielen	freundlich	lachen	schön	schroff	faul	strafen	fanatisch	leiden	schlecht	helfen	tolerant	loyal	retten	ehrlich	treu	hindern	tyrannisch	lasch	rächen	eitel	tot	1	blank2r.bmp	0	1	+	0	1	blank2r.bmp	500	1	GKQX	500	1	blank2r.bmp	880	6	schön	880	0	0	0	0	0	0	0	0	0	0	0	0
2024-05-15	11:37:29	11:39:34	124255	6.6.1	4_exp_EVA_AWA_CON	35	B	A	Rpleas_acq	Same	Rpleas	2pleas	acq_US_unple_nomask	acq1_nomask	1	27	0	0	300	300	0	0	450	50	0	0	schlau	fair	spielen	freundlich	lachen	schön	schroff	faul	strafen	fanatisch	leiden	schlecht	helfen	tolerant	loyal	retten	ehrlich	treu	hindern	tyrannisch	lasch	rächen	eitel	tot	1	blank2r.bmp	0	1	+	0	1	blank2r.bmp	500	1	BMVZ	500	1	blank2r.bmp	880	4	fanatisch	880	1	FEHLER	1352	0	0	0	0	0	0	0	0	0
2024-05-15	11:37:29	11:39:36	126070	6.6.1	4_exp_EVA_AWA_CON	35	B	A	Rpleas_acq	Same	Rpleas	2pleas	acq_US_unple_nomask	acq1_nomask	1	28	0	0	300	300	0	0	535	46	1	0	schlau	fair	spielen	freundlich	lachen	schön	schroff	faul	strafen	fanatisch	leiden	schlecht	helfen	tolerant	loyal	retten	ehrlich	treu	hindern	tyrannisch	lasch	rächen	eitel	tot	1	blank2r.bmp	0	1	+	0	1	blank2r.bmp	500	1	BMVZ	500	1	blank2r.bmp	880	5	leiden	880	0	0	0	0	0	0	0	0	0	0	0	0
2024-05-15	11:37:29	11:39:38	128062	6.6.1	4_exp_EVA_AWA_CON	35	B	A	Rpleas_acq	Same	Rpleas	2pleas	acq_US_pleas_nomask	acq1_nomask	1	29	0	0	300	300	0	0	506	50	1	0	schlau	fair	spielen	freundlich	lachen	schön	schroff	faul	strafen	fanatisch	leiden	schlecht	helfen	tolerant	loyal	retten	ehrlich	treu	hindern	tyrannisch	lasch	rächen	eitel	tot	1	blank2r.bmp	0	1	+	0	1	blank2r.bmp	500	1	GKQX	500	1	blank2r.bmp	880	1	schlau	880	0	0	0	0	0	0	0	0	0	0	0	0
2024-05-15	11:37:29	11:39:40	130054	6.6.1	4_exp_EVA_AWA_CON	35	B	A	Rpleas_acq	Same	Rpleas	2pleas	acq_new_unple_nomask	acq1_nomask	1	30	0	0	300	300	0	0	507	46	1	0	schlau	fair	spielen	freundlich	lachen	schön	schroff	faul	strafen	fanatisch	leiden	schlecht	helfen	tolerant	loyal	retten	ehrlich	treu	hindern	tyrannisch	lasch	rächen	eitel	tot	1	blank2r.bmp	0	1	+	0	1	blank2r.bmp	500	4	B4r.bmp	500	1	blank2r.bmp	880	4	rächen	880	0	0	0	0	0	0	0	0	0	0	0	0
2024-05-15	11:37:29	11:39:42	132039	6.6.1	4_exp_EVA_AWA_CON	35	B	A	Rpleas_acq	Same	Rpleas	2pleas	acq_new_pleas_nomask	acq1_nomask	1	31	0	0	300	300	0	0	499	50	1	0	schlau	fair	spielen	freundlich	lachen	schön	schroff	faul	strafen	fanatisch	leiden	schlecht	helfen	tolerant	loyal	retten	ehrlich	treu	hindern	tyrannisch	lasch	rächen	eitel	tot	1	blank2r.bmp	0	1	+	0	1	blank2r.bmp	500	8	C4r.bmp	500	1	blank2r.bmp	880	1	helfen	880	0	0	0	0	0	0	0	0	0	0	0	0
2024-05-15	11:37:29	11:39:44	134030	6.6.1	4_exp_EVA_AWA_CON	35	B	A	Rpleas_acq	Same	Rpleas	2pleas	acq_new_unple_nomask	acq1_nomask	1	32	0	0	300	300	0	0	510	46	1	0	schlau	fair	spielen	freundlich	lachen	schön	schroff	faul	strafen	fanatisch	leiden	schlecht	helfen	tolerant	loyal	retten	ehrlich	treu	hindern	tyrannisch	lasch	rächen	eitel	tot	1	blank2r.bmp	0	1	+	0	1	blank2r.bmp	500	7	C3r.bmp	500	1	blank2r.bmp	880	5	eitel	880	0	0	0	0	0	0	0	0	0	0	0	0
2024-05-15	11:37:29	11:39:45	135910	6.6.1	4_exp_EVA_AWA_CON	35	B	A	Rpleas_acq	Same	Rpleas	2pleas	acq_US_pleas_nomask	acq1_nomask	1	33	0	0	300	300	0	0	399	50	1	0	schlau	fair	spielen	freundlich	lachen	schön	schroff	faul	strafen	fanatisch	leiden	schlecht	helfen	tolerant	loyal	retten	ehrlich	treu	hindern	tyrannisch	lasch	rächen	eitel	tot	1	blank2r.bmp	0	1	+	0	1	blank2r.bmp	500	1	GKQX	500	1	blank2r.bmp	880	4	freundlich	880	0	0	0	0	0	0	0	0	0	0	0	0
2024-05-15	11:37:29	11:39:48	138104	6.6.1	4_exp_EVA_AWA_CON	35	B	A	Rpleas_acq	Same	Rpleas	2pleas	acq_new_pleas_nomask	acq1_nomask	1	34	0	0	300	300	0	0	509	46	0	0	schlau	fair	spielen	freundlich	lachen	schön	schroff	faul	strafen	fanatisch	leiden	schlecht	helfen	tolerant	loyal	retten	ehrlich	treu	hindern	tyrannisch	lasch	rächen	eitel	tot	1	blank2r.bmp	0	1	+	0	1	blank2r.bmp	500	2	B2r.bmp	500	1	blank2r.bmp	880	6	treu	880	1	FEHLER	1412	0	0	0	0	0	0	0	0	0
2024-05-15	11:37:29	11:39:49	139830	6.6.1	4_exp_EVA_AWA_CON	35	B	A	Rpleas_acq	Same	Rpleas	2pleas	acq_US_unple_nomask	acq1_nomask	1	35	0	0	300	300	0	0	446	46	1	0	schlau	fair	spielen	freundlich	lachen	schön	schroff	faul	strafen	fanatisch	leiden	schlecht	helfen	tolerant	loyal	retten	ehrlich	treu	hindern	tyrannisch	lasch	rächen	eitel	tot	1	blank2r.bmp	0	1	+	0	1	blank2r.bmp	500	1	BMVZ	500	1	blank2r.bmp	880	2	faul	880	0	0	0	0	0	0	0	0	0	0	0	0
2024-05-15	11:37:29	11:39:52	142030	6.6.1	4_exp_EVA_AWA_CON	35	B	A	Rpleas_acq	Same	Rpleas	2pleas	acq_new_unple_nomask	acq1_nomask	1	36	0	0	300	300	0	0	715	46	1	0	schlau	fair	spielen	freundlich	lachen	schön	schroff	faul	strafen	fanatisch	leiden	schlecht	helfen	tolerant	loyal	retten	ehrlich	treu	hindern	tyrannisch	lasch	rächen	eitel	tot	1	blank2r.bmp	0	1	+	0	1	blank2r.bmp	500	7	C3r.bmp	500	1	blank2r.bmp	880	2	tyrannisch	880	0	0	0	0	0	0	0	0	0	0	0	0
2024-05-15	11:37:29	11:40:38	188632	6.6.1	4_exp_EVA_AWA_CON	35	B	A	Rpleas_acq	Same	Rpleas	2pleas	acq_new_unple_nomask	acq2_nomask	2	1	480	0	300	300	0	0	4620	46	1	0	schlau	fair	spielen	freundlich	lachen	schön	schroff	faul	strafen	fanatisch	leiden	schlecht	helfen	tolerant	loyal	retten	ehrlich	treu	hindern	tyrannisch	lasch	rächen	eitel	tot	1	blank2r.bmp	0	1	+	0	1	blank2r.bmp	500	3	B3r.bmp	500	1	blank2r.bmp	880	1	hindern	880	1	!	1312	1	!	-1	0	0	0	0	0	0
2024-05-15	11:37:29	11:40:40	190768	6.6.1	4_exp_EVA_AWA_CON	35	B	A	Rpleas_acq	Same	Rpleas	2pleas	acq_US_pleas_nomask	acq2_nomask	2	2	480	0	300	300	0	0	362	50	1	0	schlau	fair	spielen	freundlich	lachen	schön	schroff	faul	strafen	fanatisch	leiden	schlecht	helfen	tolerant	loyal	retten	ehrlich	treu	hindern	tyrannisch	lasch	rächen	eitel	tot	1	blank2r.bmp	0	1	+	0	1	blank2r.bmp	500	1	GKQX	500	1	blank2r.bmp	880	3	spielen	880	1	!	-1	1	!	-1	0	0	0	0	0	0
2024-05-15	11:37:29	11:40:43	193288	6.6.1	4_exp_EVA_AWA_CON	35	B	A	Rpleas_acq	Same	Rpleas	2pleas	acq_new_unple_nomask	acq2_nomask	2	3	480	0	300	300	0	0	740	46	1	0	schlau	fair	spielen	freundlich	lachen	schön	schroff	faul	strafen	fanatisch	leiden	schlecht	helfen	tolerant	loyal	retten	ehrlich	treu	hindern	tyrannisch	lasch	rächen	eitel	tot	1	blank2r.bmp	0	1	+	0	1	blank2r.bmp	500	1	B1r.bmp	500	1	blank2r.bmp	880	6	tot	880	1	!	1313	1	!	-1	0	0	0	0	0	0
2024-05-15	11:37:29	11:40:45	195704	6.6.1	4_exp_EVA_AWA_CON	35	B	A	Rpleas_acq	Same	Rpleas	2pleas	acq_US_unple_nomask	acq2_nomask	2	4	480	0	300	300	0	0	635	46	1	0	schlau	fair	spielen	freundlich	lachen	schön	schroff	faul	strafen	fanatisch	leiden	schlecht	helfen	tolerant	loyal	retten	ehrlich	treu	hindern	tyrannisch	lasch	rächen	eitel	tot	1	blank2r.bmp	0	1	+	0	1	blank2r.bmp	500	1	BMVZ	500	1	blank2r.bmp	880	6	schlecht	880	1	!	1312	1	!	-1	0	0	0	0	0	0
2024-05-15	11:37:29	11:40:48	198072	6.6.1	4_exp_EVA_AWA_CON	35	B	A	Rpleas_acq	Same	Rpleas	2pleas	acq_new_pleas_nomask	acq2_nomask	2	5	480	0	300	300	0	0	591	50	1	0	schlau	fair	spielen	freundlich	lachen	schön	schroff	faul	strafen	fanatisch	leiden	schlecht	helfen	tolerant	loyal	retten	ehrlich	treu	hindern	tyrannisch	lasch	rächen	eitel	tot	1	blank2r.bmp	0	1	+	0	1	blank2r.bmp	500	5	C1r.bmp	500	1	blank2r.bmp	880	5	ehrlich	880	1	!	1312	1	!	-1	0	0	0	0	0	0
2024-05-15	11:37:29	11:40:50	200491	6.6.1	4_exp_EVA_AWA_CON	35	B	A	Rpleas_acq	Same	Rpleas	2pleas	acq_US_pleas_nomask	acq2_nomask	2	6	480	1	300	300	0	0	435	46	0	0	schlau	fair	spielen	freundlich	lachen	schön	schroff	faul	strafen	fanatisch	leiden	schlecht	helfen	tolerant	loyal	retten	ehrlich	treu	hindern	tyrannisch	lasch	rächen	eitel	tot	1	blank2r.bmp	0	1	+	0	1	blank2r.bmp	500	1	GKQX	500	1	blank2r.bmp	880	5	lachen	880	1	FEHLER	1629	1	!	1312	1	!	1337	0	0	0
2024-05-15	11:37:29	11:40:52	202664	6.6.1	4_exp_EVA_AWA_CON	35	B	A	Rpleas_acq	Same	Rpleas	2pleas	acq_new_pleas_nomask	acq2_nomask	2	7	480	0	300	300	0	0	600	50	1	0	schlau	fair	spielen	freundlich	lachen	schön	schroff	faul	strafen	fanatisch	leiden	schlecht	helfen	tolerant	loyal	retten	ehrlich	treu	hindern	tyrannisch	lasch	rächen	eitel	tot	1	blank2r.bmp	0	1	+	0	1	blank2r.bmp	500	4	B4r.bmp	500	1	blank2r.bmp	880	2	tolerant	880	1	!	1312	1	!	-1	0	0	0	0	0	0
2024-05-15	11:37:29	11:40:54	204913	6.6.1	4_exp_EVA_AWA_CON	35	B	A	Rpleas_acq	Same	Rpleas	2pleas	acq_new_unple_nomask	acq2_nomask	2	8	480	1	300	300	0	0	467	46	1	0	schlau	fair	spielen	freundlich	lachen	schön	schroff	faul	strafen	fanatisch	leiden	schlecht	helfen	tolerant	loyal	retten	ehrlich	treu	hindern	tyrannisch	lasch	rächen	eitel	tot	1	blank2r.bmp	0	1	+	0	1	blank2r.bmp	500	6	C2r.bmp	500	1	blank2r.bmp	880	3	lasch	880	1	!	1312	1	!	1368	0	0	0	0	0	0
2024-05-15	11:37:29	11:40:57	207336	6.6.1	4_exp_EVA_AWA_CON	35	B	A	Rpleas_acq	Same	Rpleas	2pleas	acq_US_unple_nomask	acq2_nomask	2	9	480	0	300	300	0	0	649	46	1	0	schlau	fair	spielen	freundlich	lachen	schön	schroff	faul	strafen	fanatisch	leiden	schlecht	helfen	tolerant	loyal	retten	ehrlich	treu	hindern	tyrannisch	lasch	rächen	eitel	tot	1	blank2r.bmp	0	1	+	0	1	blank2r.bmp	500	1	BMVZ	500	1	blank2r.bmp	880	3	strafen	880	1	!	1312	1	!	-1	0	0	0	0	0	0
2024-05-15	11:37:29	11:40:59	209578	6.6.1	4_exp_EVA_AWA_CON	35	B	A	Rpleas_acq	Same	Rpleas	2pleas	acq_US_unple_nomask	acq2_nomask	2	10	480	1	300	300	0	0	458	46	1	0	schlau	fair	spielen	freundlich	lachen	schön	schroff	faul	strafen	fanatisch	leiden	schlecht	helfen	tolerant	loyal	retten	ehrlich	treu	hindern	tyrannisch	lasch	rächen	eitel	tot	1	blank2r.bmp	0	1	+	0	1	blank2r.bmp	500	1	BMVZ	500	1	blank2r.bmp	880	1	schroff	880	1	!	1313	1	!	1359	0	0	0	0	0	0
2024-05-15	11:37:29	11:41:01	211760	6.6.1	4_exp_EVA_AWA_CON	35	B	A	Rpleas_acq	Same	Rpleas	2pleas	acq_US_pleas_nomask	acq2_nomask	2	11	480	0	300	300	0	0	400	50	1	0	schlau	fair	spielen	freundlich	lachen	schön	schroff	faul	strafen	fanatisch	leiden	schlecht	helfen	tolerant	loyal	retten	ehrlich	treu	hindern	tyrannisch	lasch	rächen	eitel	tot	1	blank2r.bmp	0	1	+	0	1	blank2r.bmp	500	1	GKQX	500	1	blank2r.bmp	880	2	fair	880	1	!	-1	1	!	-1	0	0	0	0	0	0
2024-05-15	11:37:29	11:41:03	214017	6.6.1	4_exp_EVA_AWA_CON	35	B	A	Rpleas_acq	Same	Rpleas	2pleas	acq_new_pleas_nomask	acq2_nomask	2	12	480	1	300	300	0	0	475	50	1	0	schlau	fair	spielen	freundlich	lachen	schön	schroff	faul	strafen	fanatisch	leiden	schlecht	helfen	tolerant	loyal	retten	ehrlich	treu	hindern	tyrannisch	lasch	rächen	eitel	tot	1	blank2r.bmp	0	1	+	0	1	blank2r.bmp	500	8	C4r.bmp	500	1	blank2r.bmp	880	4	retten	880	1	!	1312	1	!	1376	0	0	0	0	0	0
2024-05-15	11:37:29	11:41:06	216250	6.6.1	4_exp_EVA_AWA_CON	35	B	A	Rpleas_acq	Same	Rpleas	2pleas	acq_US_unple_nomask	acq2_nomask	2	13	480	1	300	300	0	0	455	46	1	0	schlau	fair	spielen	freundlich	lachen	schön	schroff	faul	strafen	fanatisch	leiden	schlecht	helfen	tolerant	loyal	retten	ehrlich	treu	hindern	tyrannisch	lasch	rächen	eitel	tot	1	blank2r.bmp	0	1	+	0	1	blank2r.bmp	500	1	BMVZ	500	1	blank2r.bmp	880	2	faul	880	1	!	1313	1	!	1357	0	0	0	0	0	0
2024-05-15	11:37:29	11:41:08	218474	6.6.1	4_exp_EVA_AWA_CON	35	B	A	Rpleas_acq	Same	Rpleas	2pleas	acq_new_unple_nomask	acq2_nomask	2	14	480	1	300	300	0	0	448	46	1	0	schlau	fair	spielen	freundlich	lachen	schön	schroff	faul	strafen	fanatisch	leiden	schlecht	helfen	tolerant	loyal	retten	ehrlich	treu	hindern	tyrannisch	lasch	rächen	eitel	tot	1	blank2r.bmp	0	1	+	0	1	blank2r.bmp	500	1	B1r.bmp	500	1	blank2r.bmp	880	1	hindern	880	1	!	1312	1	!	1349	0	0	0	0	0	0
2024-05-15	11:37:29	11:41:10	220851	6.6.1	4_exp_EVA_AWA_CON	35	B	A	Rpleas_acq	Same	Rpleas	2pleas	acq_new_unple_nomask	acq2_nomask	2	15	480	0	300	300	0	0	392	50	0	0	schlau	fair	spielen	freundlich	lachen	schön	schroff	faul	strafen	fanatisch	leiden	schlecht	helfen	tolerant	loyal	retten	ehrlich	treu	hindern	tyrannisch	lasch	rächen	eitel	tot	1	blank2r.bmp	0	1	+	0	1	blank2r.bmp	500	4	B4r.bmp	500	1	blank2r.bmp	880	4	rächen	880	1	FEHLER	1586	1	!	-1	1	!	-1	0	0	0
2024-05-15	11:37:29	11:41:12	222905	6.6.1	4_exp_EVA_AWA_CON	35	B	A	Rpleas_acq	Same	Rpleas	2pleas	acq_US_pleas_nomask	acq2_nomask	2	16	480	1	300	300	0	0	477	50	1	0	schlau	fair	spielen	freundlich	lachen	schön	schroff	faul	strafen	fanatisch	leiden	schlecht	helfen	tolerant	loyal	retten	ehrlich	treu	hindern	tyrannisch	lasch	rächen	eitel	tot	1	blank2r.bmp	0	1	+	0	1	blank2r.bmp	500	1	GKQX	500	1	blank2r.bmp	880	5	lachen	880	1	!	1313	1	!	1379	0	0	0	0	0	0
2024-05-15	11:37:29	11:41:15	225130	6.6.1	4_exp_EVA_AWA_CON	35	B	A	Rpleas_acq	Same	Rpleas	2pleas	acq_new_pleas_nomask	acq2_nomask	2	17	480	1	300	300	0	0	440	50	1	0	schlau	fair	spielen	freundlich	lachen	schön	schroff	faul	strafen	fanatisch	leiden	schlecht	helfen	tolerant	loyal	retten	ehrlich	treu	hindern	tyrannisch	lasch	rächen	eitel	tot	1	blank2r.bmp	0	1	+	0	1	blank2r.bmp	500	7	C3r.bmp	500	1	blank2r.bmp	880	1	helfen	880	1	!	1313	1	!	1342	0	0	0	0	0	0
2024-05-15	11:37:29	11:41:17	227377	6.6.1	4_exp_EVA_AWA_CON	35	B	A	Rpleas_acq	Same	Rpleas	2pleas	acq_US_unple_nomask	acq2_nomask	2	18	480	1	300	300	0	0	466	46	1	0	schlau	fair	spielen	freundlich	lachen	schön	schroff	faul	strafen	fanatisch	leiden	schlecht	helfen	tolerant	loyal	retten	ehrlich	treu	hindern	tyrannisch	lasch	rächen	eitel	tot	1	blank2r.bmp	0	1	+	0	1	blank2r.bmp	500	1	BMVZ	500	1	blank2r.bmp	880	3	strafen	880	1	!	1312	1	!	1368	0	0	0	0	0	0
2024-05-15	11:37:29	11:41:19	229568	6.6.1	4_exp_EVA_AWA_CON	35	B	A	Rpleas_acq	Same	Rpleas	2pleas	acq_US_pleas_nomask	acq2_nomask	2	19	480	1	300	300	0	0	417	50	1	0	schlau	fair	spielen	freundlich	lachen	schön	schroff	faul	strafen	fanatisch	leiden	schlecht	helfen	tolerant	loyal	retten	ehrlich	treu	hindern	tyrannisch	lasch	rächen	eitel	tot	1	blank2r.bmp	0	1	+	0	1	blank2r.bmp	500	1	GKQX	500	1	blank2r.bmp	880	3	spielen	880	1	!	1312	1	!	1317	0	0	0	0	0	0
2024-05-15	11:37:29	11:41:21	231834	6.6.1	4_exp_EVA_AWA_CON	35	B	A	Rpleas_acq	Same	Rpleas	2pleas	acq_new_unple_nomask	acq2_nomask	2	20	480	1	300	300	0	0	489	46	1	0	schlau	fair	spielen	freundlich	lachen	schön	schroff	faul	strafen	fanatisch	leiden	schlecht	helfen	tolerant	loyal	retten	ehrlich	treu	hindern	tyrannisch	lasch	rächen	eitel	tot	1	blank2r.bmp	0	1	+	0	1	blank2r.bmp	500	3	B3r.bmp	500	1	blank2r.bmp	880	3	lasch	880	1	!	1312	1	!	1392	0	0	0	0	0	0
2024-05-15	11:37:29	11:41:24	234154	6.6.1	4_exp_EVA_AWA_CON	35	B	A	Rpleas_acq	Same	Rpleas	2pleas	acq_US_unple_nomask	acq2_nomask	2	21	480	1	300	300	0	0	538	46	1	0	schlau	fair	spielen	freundlich	lachen	schön	schroff	faul	strafen	fanatisch	leiden	schlecht	helfen	tolerant	loyal	retten	ehrlich	treu	hindern	tyrannisch	lasch	rächen	eitel	tot	1	blank2r.bmp	0	1	+	0	1	blank2r.bmp	500	1	BMVZ	500	1	blank2r.bmp	880	4	fanatisch	880	1	!	1312	1	!	1439	0	0	0	0	0	0
2024-05-15	11:37:29	11:41:26	236504	6.6.1	4_exp_EVA_AWA_CON	35	B	A	Rpleas_acq	Same	Rpleas	2pleas	acq_new_pleas_nomask	acq2_nomask	2	22	480	0	300	300	0	0	568	50	1	0	schlau	fair	spielen	freundlich	lachen	schön	schroff	faul	strafen	fanatisch	leiden	schlecht	helfen	tolerant	loyal	retten	ehrlich	treu	hindern	tyrannisch	lasch	rächen	eitel	tot	1	blank2r.bmp	0	1	+	0	1	blank2r.bmp	500	2	B2r.bmp	500	1	blank2r.bmp	880	4	retten	880	1	!	1313	1	!	-1	0	0	0	0	0	0
2024-05-15	11:37:29	11:41:28	238680	6.6.1	4_exp_EVA_AWA_CON	35	B	A	Rpleas_acq	Same	Rpleas	2pleas	acq_US_pleas_nomask	acq2_nomask	2	23	480	0	300	300	0	0	403	50	1	0	schlau	fair	spielen	freundlich	lachen	schön	schroff	faul	strafen	fanatisch	leiden	schlecht	helfen	tolerant	loyal	retten	ehrlich	treu	hindern	tyrannisch	lasch	rächen	eitel	tot	1	blank2r.bmp	0	1	+	0	1	blank2r.bmp	500	1	GKQX	500	1	blank2r.bmp	880	4	freundlich	880	1	!	-1	1	!	-1	0	0	0	0	0	0
2024-05-15	11:37:29	11:41:30	240945	6.6.1	4_exp_EVA_AWA_CON	35	B	A	Rpleas_acq	Same	Rpleas	2pleas	acq_new_pleas_nomask	acq2_nomask	2	24	480	1	300	300	0	0	486	50	1	0	schlau	fair	spielen	freundlich	lachen	schön	schroff	faul	strafen	fanatisch	leiden	schlecht	helfen	tolerant	loyal	retten	ehrlich	treu	hindern	tyrannisch	lasch	rächen	eitel	tot	1	blank2r.bmp	0	1	+	0	1	blank2r.bmp	500	6	C2r.bmp	500	1	blank2r.bmp	880	2	tolerant	880	1	!	1313	1	!	1387	0	0	0	0	0	0
2024-05-15	11:37:29	11:41:33	243258	6.6.1	4_exp_EVA_AWA_CON	35	B	A	Rpleas_acq	Same	Rpleas	2pleas	acq_new_pleas_nomask	acq2_nomask	2	25	480	1	300	300	0	0	536	50	1	0	schlau	fair	spielen	freundlich	lachen	schön	schroff	faul	strafen	fanatisch	leiden	schlecht	helfen	tolerant	loyal	retten	ehrlich	treu	hindern	tyrannisch	lasch	rächen	eitel	tot	1	blank2r.bmp	0	1	+	0	1	blank2r.bmp	500	8	C4r.bmp	500	1	blank2r.bmp	880	3	loyal	880	1	!	1313	1	!	1438	0	0	0	0	0	0
2024-05-15	11:37:29	11:41:35	245808	6.6.1	4_exp_EVA_AWA_CON	35	B	A	Rpleas_acq	Same	Rpleas	2pleas	acq_US_pleas_nomask	acq2_nomask	2	26	480	0	300	300	0	0	777	50	1	0	schlau	fair	spielen	freundlich	lachen	schön	schroff	faul	strafen	fanatisch	leiden	schlecht	helfen	tolerant	loyal	retten	ehrlich	treu	hindern	tyrannisch	lasch	rächen	eitel	tot	1	blank2r.bmp	0	1	+	0	1	blank2r.bmp	500	1	GKQX	500	1	blank2r.bmp	880	2	fair	880	1	!	1313	1	!	-1	0	0	0	0	0	0
2024-05-15	11:37:29	11:41:37	247960	6.6.1	4_exp_EVA_AWA_CON	35	B	A	Rpleas_acq	Same	Rpleas	2pleas	acq_new_unple_nomask	acq2_nomask	2	27	480	0	300	300	0	0	377	46	1	0	schlau	fair	spielen	freundlich	lachen	schön	schroff	faul	strafen	fanatisch	leiden	schlecht	helfen	tolerant	loyal	retten	ehrlich	treu	hindern	tyrannisch	lasch	rächen	eitel	tot	1	blank2r.bmp	0	1	+	0	1	blank2r.bmp	500	5	C1r.bmp	500	1	blank2r.bmp	880	5	eitel	880	1	!	-1	1	!	-1	0	0	0	0	0	0
2024-05-15	11:37:29	11:41:40	250193	6.6.1	4_exp_EVA_AWA_CON	35	B	A	Rpleas_acq	Same	Rpleas	2pleas	acq_US_pleas_nomask	acq2_nomask	2	28	480	1	300	300	0	0	458	50	1	0	schlau	fair	spielen	freundlich	lachen	schön	schroff	faul	strafen	fanatisch	leiden	schlecht	helfen	tolerant	loyal	retten	ehrlich	treu	hindern	tyrannisch	lasch	rächen	eitel	tot	1	blank2r.bmp	0	1	+	0	1	blank2r.bmp	500	1	GKQX	500	1	blank2r.bmp	880	1	schlau	880	1	!	1312	1	!	1359	0	0	0	0	0	0
2024-05-15	11:37:29	11:41:42	252636	6.6.1	4_exp_EVA_AWA_CON	35	B	A	Rpleas_acq	Same	Rpleas	2pleas	acq_US_unple_nomask	acq2_nomask	2	29	480	1	300	300	0	0	456	50	0	0	schlau	fair	spielen	freundlich	lachen	schön	schroff	faul	strafen	fanatisch	leiden	schlecht	helfen	tolerant	loyal	retten	ehrlich	treu	hindern	tyrannisch	lasch	rächen	eitel	tot	1	blank2r.bmp	0	1	+	0	1	blank2r.bmp	500	1	BMVZ	500	1	blank2r.bmp	880	6	schlecht	880	1	FEHLER	1650	1	!	1313	1	!	1358	0	0	0
2024-05-15	11:37:29	11:41:44	254766	6.6.1	4_exp_EVA_AWA_CON	35	B	A	Rpleas_acq	Same	Rpleas	2pleas	acq_new_unple_nomask	acq2_nomask	2	30	480	0	300	300	0	0	561	46	1	0	schlau	fair	spielen	freundlich	lachen	schön	schroff	faul	strafen	fanatisch	leiden	schlecht	helfen	tolerant	loyal	retten	ehrlich	treu	hindern	tyrannisch	lasch	rächen	eitel	tot	1	blank2r.bmp	0	1	+	0	1	blank2r.bmp	500	8	C4r.bmp	500	1	blank2r.bmp	880	6	tot	880	1	!	1312	1	!	-1	0	0	0	0	0	0
2024-05-15	11:37:29	11:41:46	256968	6.6.1	4_exp_EVA_AWA_CON	35	B	A	Rpleas_acq	Same	Rpleas	2pleas	acq_US_pleas_nomask	acq2_nomask	2	31	480	1	300	300	0	0	419	50	1	0	schlau	fair	spielen	freundlich	lachen	schön	schroff	faul	strafen	fanatisch	leiden	schlecht	helfen	tolerant	loyal	retten	ehrlich	treu	hindern	tyrannisch	lasch	rächen	eitel	tot	1	blank2r.bmp	0	1	+	0	1	blank2r.bmp	500	1	GKQX	500	1	blank2r.bmp	880	6	schön	880	1	!	1312	1	!	1319	0	0	0	0	0	0
2024-05-15	11:37:29	11:41:49	259168	6.6.1	4_exp_EVA_AWA_CON	35	B	A	Rpleas_acq	Same	Rpleas	2pleas	acq_US_unple_nomask	acq2_nomask	2	32	480	1	300	300	0	0	418	46	1	0	schlau	fair	spielen	freundlich	lachen	schön	schroff	faul	strafen	fanatisch	leiden	schlecht	helfen	tolerant	loyal	retten	ehrlich	treu	hindern	tyrannisch	lasch	rächen	eitel	tot	1	blank2r.bmp	0	1	+	0	1	blank2r.bmp	500	1	BMVZ	500	1	blank2r.bmp	880	1	schroff	880	1	!	1312	1	!	1318	0	0	0	0	0	0
2024-05-15	11:37:29	11:41:51	261386	6.6.1	4_exp_EVA_AWA_CON	35	B	A	Rpleas_acq	Same	Rpleas	2pleas	acq_new_unple_nomask	acq2_nomask	2	33	480	1	300	300	0	0	442	46	1	0	schlau	fair	spielen	freundlich	lachen	schön	schroff	faul	strafen	fanatisch	leiden	schlecht	helfen	tolerant	loyal	retten	ehrlich	treu	hindern	tyrannisch	lasch	rächen	eitel	tot	1	blank2r.bmp	0	1	+	0	1	blank2r.bmp	500	1	B1r.bmp	500	1	blank2r.bmp	880	2	tyrannisch	880	1	!	1313	1	!	1344	0	0	0	0	0	0
2024-05-15	11:37:29	11:41:53	263875	6.6.1	4_exp_EVA_AWA_CON	35	B	A	Rpleas_acq	Same	Rpleas	2pleas	acq_US_unple_nomask	acq2_nomask	2	34	480	1	300	300	0	0	509	50	0	0	schlau	fair	spielen	freundlich	lachen	schön	schroff	faul	strafen	fanatisch	leiden	schlecht	helfen	tolerant	loyal	retten	ehrlich	treu	hindern	tyrannisch	lasch	rächen	eitel	tot	1	blank2r.bmp	0	1	+	0	1	blank2r.bmp	500	1	BMVZ	500	1	blank2r.bmp	880	5	leiden	880	1	FEHLER	1703	1	!	1313	1	!	1411	0	0	0
2024-05-15	11:37:29	11:41:55	265890	6.6.1	4_exp_EVA_AWA_CON	35	B	A	Rpleas_acq	Same	Rpleas	2pleas	acq_new_pleas_nomask	acq2_nomask	2	35	480	1	300	300	0	0	434	50	1	0	schlau	fair	spielen	freundlich	lachen	schön	schroff	faul	strafen	fanatisch	leiden	schlecht	helfen	tolerant	loyal	retten	ehrlich	treu	hindern	tyrannisch	lasch	rächen	eitel	tot	1	blank2r.bmp	0	1	+	0	1	blank2r.bmp	500	4	B4r.bmp	500	1	blank2r.bmp	880	5	ehrlich	880	1	!	1313	1	!	1335	0	0	0	0	0	0
2024-05-15	11:37:29	11:41:58	268194	6.6.1	4_exp_EVA_AWA_CON	35	B	A	Rpleas_acq	Same	Rpleas	2pleas	acq_new_pleas_nomask	acq2_nomask	2	36	480	1	300	300	0	0	526	50	1	0	schlau	fair	spielen	freundlich	lachen	schön	schroff	faul	strafen	fanatisch	leiden	schlecht	helfen	tolerant	loyal	retten	ehrlich	treu	hindern	tyrannisch	lasch	rächen	eitel	tot	1	blank2r.bmp	0	1	+	0	1	blank2r.bmp	500	2	B2r.bmp	500	1	blank2r.bmp	880	6	treu	880	1	!	1312	1	!	1428	0	0	0	0	0	0
2024-05-15	11:37:29	11:42:08	278396	6.6.1	4_exp_EVA_AWA_CON	35	B	A	Rpleas_acq	Same	Rpleas	2pleas	acq_US_pleas_nomask	acq3_nomask	3	1	453	0	300	300	0	0	309	46	0	0	schlau	fair	spielen	freundlich	lachen	schön	schroff	faul	strafen	fanatisch	leiden	schlecht	helfen	tolerant	loyal	retten	ehrlich	treu	hindern	tyrannisch	lasch	rächen	eitel	tot	1	blank2r.bmp	0	1	+	0	1	blank2r.bmp	500	1	GKQX	500	1	blank2r.bmp	880	2	fair	880	1	FEHLER	1504	1	!	-1	1	!	-1	0	0	0
2024-05-15	11:37:29	11:42:10	280728	6.6.1	4_exp_EVA_AWA_CON	35	B	A	Rpleas_acq	Same	Rpleas	2pleas	acq_US_pleas_nomask	acq3_nomask	3	2	453	0	300	300	0	0	754	50	1	0	schlau	fair	spielen	freundlich	lachen	schön	schroff	faul	strafen	fanatisch	leiden	schlecht	helfen	tolerant	loyal	retten	ehrlich	treu	hindern	tyrannisch	lasch	rächen	eitel	tot	1	blank2r.bmp	0	1	+	0	1	blank2r.bmp	500	1	GKQX	500	1	blank2r.bmp	880	3	spielen	880	1	!	1292	1	!	-1	0	0	0	0	0	0
2024-05-15	11:37:29	11:42:12	282961	6.6.1	4_exp_EVA_AWA_CON	35	B	A	Rpleas_acq	Same	Rpleas	2pleas	acq_US_pleas_nomask	acq3_nomask	3	3	453	1	300	300	0	0	455	50	1	0	schlau	fair	spielen	freundlich	lachen	schön	schroff	faul	strafen	fanatisch	leiden	schlecht	helfen	tolerant	loyal	retten	ehrlich	treu	hindern	tyrannisch	lasch	rächen	eitel	tot	1	blank2r.bmp	0	1	+	0	1	blank2r.bmp	500	1	GKQX	500	1	blank2r.bmp	880	6	schön	880	1	!	1292	1	!	1356	0	0	0	0	0	0
2024-05-15	11:37:29	11:42:15	285312	6.6.1	4_exp_EVA_AWA_CON	35	B	A	Rpleas_acq	Same	Rpleas	2pleas	acq_US_unple_nomask	acq3_nomask	3	4	453	0	300	300	0	0	575	46	1	0	schlau	fair	spielen	freundlich	lachen	schön	schroff	faul	strafen	fanatisch	leiden	schlecht	helfen	tolerant	loyal	retten	ehrlich	treu	hindern	tyrannisch	lasch	rächen	eitel	tot	1	blank2r.bmp	0	1	+	0	1	blank2r.bmp	500	1	BMVZ	500	1	blank2r.bmp	880	1	schroff	880	1	!	1292	1	!	-1	0	0	0	0	0	0
2024-05-15	11:37:29	11:42:17	287432	6.6.1	4_exp_EVA_AWA_CON	35	B	A	Rpleas_acq	Same	Rpleas	2pleas	acq_US_pleas_nomask	acq3_nomask	3	5	453	0	300	300	0	0	344	50	1	0	schlau	fair	spielen	freundlich	lachen	schön	schroff	faul	strafen	fanatisch	leiden	schlecht	helfen	tolerant	loyal	retten	ehrlich	treu	hindern	tyrannisch	lasch	rächen	eitel	tot	1	blank2r.bmp	0	1	+	0	1	blank2r.bmp	500	1	GKQX	500	1	blank2r.bmp	880	1	schlau	880	1	!	-1	1	!	-1	0	0	0	0	0	0
2024-05-15	11:37:29	11:42:19	289592	6.6.1	4_exp_EVA_AWA_CON	35	B	A	Rpleas_acq	Same	Rpleas	2pleas	acq_US_unple_nomask	acq3_nomask	3	6	453	0	300	300	0	0	382	46	1	0	schlau	fair	spielen	freundlich	lachen	schön	schroff	faul	strafen	fanatisch	leiden	schlecht	helfen	tolerant	loyal	retten	ehrlich	treu	hindern	tyrannisch	lasch	rächen	eitel	tot	1	blank2r.bmp	0	1	+	0	1	blank2r.bmp	500	1	BMVZ	500	1	blank2r.bmp	880	6	schlecht	880	1	!	-1	1	!	-1	0	0	0	0	0	0
2024-05-15	11:37:29	11:42:21	291936	6.6.1	4_exp_EVA_AWA_CON	35	B	A	Rpleas_acq	Same	Rpleas	2pleas	acq_US_unple_nomask	acq3_nomask	3	7	453	0	300	300	0	0	565	46	1	0	schlau	fair	spielen	freundlich	lachen	schön	schroff	faul	strafen	fanatisch	leiden	schlecht	helfen	tolerant	loyal	retten	ehrlich	treu	hindern	tyrannisch	lasch	rächen	eitel	tot	1	blank2r.bmp	0	1	+	0	1	blank2r.bmp	500	1	BMVZ	500	1	blank2r.bmp	880	3	strafen	880	1	!	1293	1	!	-1	0	0	0	0	0	0
2024-05-15	11:37:29	11:42:24	294073	6.6.1	4_exp_EVA_AWA_CON	35	B	A	Rpleas_acq	Same	Rpleas	2pleas	acq_US_pleas_nomask	acq3_nomask	3	8	453	0	300	300	0	0	359	50	1	0	schlau	fair	spielen	freundlich	lachen	schön	schroff	faul	strafen	fanatisch	leiden	schlecht	helfen	tolerant	loyal	retten	ehrlich	treu	hindern	tyrannisch	lasch	rächen	eitel	tot	1	blank2r.bmp	0	1	+	0	1	blank2r.bmp	500	1	GKQX	500	1	blank2r.bmp	880	4	freundlich	880	1	!	-1	1	!	-1	0	0	0	0	0	0
2024-05-15	11:37:29	11:42:26	296378	6.6.1	4_exp_EVA_AWA_CON	35	B	A	Rpleas_acq	Same	Rpleas	2pleas	acq_US_pleas_nomask	acq3_nomask	3	9	453	0	300	300	0	0	322	46	0	0	schlau	fair	spielen	freundlich	lachen	schön	schroff	faul	strafen	fanatisch	leiden	schlecht	helfen	tolerant	loyal	retten	ehrlich	treu	hindern	tyrannisch	lasch	rächen	eitel	tot	1	blank2r.bmp	0	1	+	0	1	blank2r.bmp	500	1	GKQX	500	1	blank2r.bmp	880	5	lachen	880	1	FEHLER	1515	1	!	-1	1	!	-1	0	0	0
2024-05-15	11:37:29	11:42:28	298369	6.6.1	4_exp_EVA_AWA_CON	35	B	A	Rpleas_acq	Same	Rpleas	2pleas	acq_US_unple_nomask	acq3_nomask	3	10	453	1	300	300	0	0	413	46	1	0	schlau	fair	spielen	freundlich	lachen	schön	schroff	faul	strafen	fanatisch	leiden	schlecht	helfen	tolerant	loyal	retten	ehrlich	treu	hindern	tyrannisch	lasch	rächen	eitel	tot	1	blank2r.bmp	0	1	+	0	1	blank2r.bmp	500	1	BMVZ	500	1	blank2r.bmp	880	2	faul	880	1	!	1292	1	!	1314	0	0	0	0	0	0
2024-05-15	11:37:29	11:42:30	300650	6.6.1	4_exp_EVA_AWA_CON	35	B	A	Rpleas_acq	Same	Rpleas	2pleas	acq_US_unple_nomask	acq3_nomask	3	11	453	1	300	300	0	0	501	46	1	0	schlau	fair	spielen	freundlich	lachen	schön	schroff	faul	strafen	fanatisch	leiden	schlecht	helfen	tolerant	loyal	retten	ehrlich	treu	hindern	tyrannisch	lasch	rächen	eitel	tot	1	blank2r.bmp	0	1	+	0	1	blank2r.bmp	500	1	BMVZ	500	1	blank2r.bmp	880	4	fanatisch	880	1	!	1293	1	!	1403	0	0	0	0	0	0
2024-05-15	11:37:29	11:42:32	302922	6.6.1	4_exp_EVA_AWA_CON	35	B	A	Rpleas_acq	Same	Rpleas	2pleas	acq_US_unple_nomask	acq3_nomask	3	12	453	1	300	300	0	0	492	46	1	0	schlau	fair	spielen	freundlich	lachen	schön	schroff	faul	strafen	fanatisch	leiden	schlecht	helfen	tolerant	loyal	retten	ehrlich	treu	hindern	tyrannisch	lasch	rächen	eitel	tot	1	blank2r.bmp	0	1	+	0	1	blank2r.bmp	500	1	BMVZ	500	1	blank2r.bmp	880	5	leiden	880	1	!	1293	1	!	1394	0	0	0	0	0	0
2024-05-15	11:37:29	11:42:35	305113	6.6.1	4_exp_EVA_AWA_CON	35	B	A	Rpleas_acq	Same	Rpleas	2pleas	acq_US_unple_nomask	acq3_nomask	3	13	453	1	300	300	0	0	412	46	1	0	schlau	fair	spielen	freundlich	lachen	schön	schroff	faul	strafen	fanatisch	leiden	schlecht	helfen	tolerant	loyal	retten	ehrlich	treu	hindern	tyrannisch	lasch	rächen	eitel	tot	1	blank2r.bmp	0	1	+	0	1	blank2r.bmp	500	1	BMVZ	500	1	blank2r.bmp	880	2	faul	880	1	!	1293	1	!	1314	0	0	0	0	0	0
2024-05-15	11:37:29	11:42:37	307354	6.6.1	4_exp_EVA_AWA_CON	35	B	A	Rpleas_acq	Same	Rpleas	2pleas	acq_US_pleas_nomask	acq3_nomask	3	14	453	1	300	300	0	0	461	50	1	0	schlau	fair	spielen	freundlich	lachen	schön	schroff	faul	strafen	fanatisch	leiden	schlecht	helfen	tolerant	loyal	retten	ehrlich	treu	hindern	tyrannisch	lasch	rächen	eitel	tot	1	blank2r.bmp	0	1	+	0	1	blank2r.bmp	500	1	GKQX	500	1	blank2r.bmp	880	6	schön	880	1	!	1293	1	!	1363	0	0	0	0	0	0
2024-05-15	11:37:29	11:42:39	309513	6.6.1	4_exp_EVA_AWA_CON	35	B	A	Rpleas_acq	Same	Rpleas	2pleas	acq_US_pleas_nomask	acq3_nomask	3	15	453	0	300	300	0	0	379	50	1	0	schlau	fair	spielen	freundlich	lachen	schön	schroff	faul	strafen	fanatisch	leiden	schlecht	helfen	tolerant	loyal	retten	ehrlich	treu	hindern	tyrannisch	lasch	rächen	eitel	tot	1	blank2r.bmp	0	1	+	0	1	blank2r.bmp	500	1	GKQX	500	1	blank2r.bmp	880	3	spielen	880	1	!	-1	1	!	-1	0	0	0	0	0	0
2024-05-15	11:37:29	11:42:41	311848	6.6.1	4_exp_EVA_AWA_CON	35	B	A	Rpleas_acq	Same	Rpleas	2pleas	acq_US_unple_nomask	acq3_nomask	3	16	453	0	300	300	0	0	554	46	1	0	schlau	fair	spielen	freundlich	lachen	schön	schroff	faul	strafen	fanatisch	leiden	schlecht	helfen	tolerant	loyal	retten	ehrlich	treu	hindern	tyrannisch	lasch	rächen	eitel	tot	1	blank2r.bmp	0	1	+	0	1	blank2r.bmp	500	1	BMVZ	500	1	blank2r.bmp	880	6	schlecht	880	1	!	1293	1	!	-1	0	0	0	0	0	0
2024-05-15	11:37:29	11:42:44	314058	6.6.1	4_exp_EVA_AWA_CON	35	B	A	Rpleas_acq	Same	Rpleas	2pleas	acq_US_unple_nomask	acq3_nomask	3	17	453	1	300	300	0	0	431	46	1	0	schlau	fair	spielen	freundlich	lachen	schön	schroff	faul	strafen	fanatisch	leiden	schlecht	helfen	tolerant	loyal	retten	ehrlich	treu	hindern	tyrannisch	lasch	rächen	eitel	tot	1	blank2r.bmp	0	1	+	0	1	blank2r.bmp	500	1	BMVZ	500	1	blank2r.bmp	880	1	schroff	880	1	!	1293	1	!	1333	0	0	0	0	0	0
2024-05-15	11:37:29	11:42:46	316232	6.6.1	4_exp_EVA_AWA_CON	35	B	A	Rpleas_acq	Same	Rpleas	2pleas	acq_US_pleas_nomask	acq3_nomask	3	18	453	1	300	300	0	0	395	50	1	0	schlau	fair	spielen	freundlich	lachen	schön	schroff	faul	strafen	fanatisch	leiden	schlecht	helfen	tolerant	loyal	retten	ehrlich	treu	hindern	tyrannisch	lasch	rächen	eitel	tot	1	blank2r.bmp	0	1	+	0	1	blank2r.bmp	500	1	GKQX	500	1	blank2r.bmp	880	5	lachen	880	1	!	1293	1	!	1295	0	0	0	0	0	0
2024-05-15	11:37:29	11:42:48	318408	6.6.1	4_exp_EVA_AWA_CON	35	B	A	Rpleas_acq	Same	Rpleas	2pleas	acq_US_pleas_nomask	acq3_nomask	3	19	453	1	300	300	0	0	400	50	1	0	schlau	fair	spielen	freundlich	lachen	schön	schroff	faul	strafen	fanatisch	leiden	schlecht	helfen	tolerant	loyal	retten	ehrlich	treu	hindern	tyrannisch	lasch	rächen	eitel	tot	1	blank2r.bmp	0	1	+	0	1	blank2r.bmp	500	1	GKQX	500	1	blank2r.bmp	880	4	freundlich	880	1	!	1292	1	!	1300	0	0	0	0	0	0
2024-05-15	11:37:29	11:42:50	320584	6.6.1	4_exp_EVA_AWA_CON	35	B	A	Rpleas_acq	Same	Rpleas	2pleas	acq_US_pleas_nomask	acq3_nomask	3	20	453	1	300	300	0	0	394	50	1	0	schlau	fair	spielen	freundlich	lachen	schön	schroff	faul	strafen	fanatisch	leiden	schlecht	helfen	tolerant	loyal	retten	ehrlich	treu	hindern	tyrannisch	lasch	rächen	eitel	tot	1	blank2r.bmp	0	1	+	0	1	blank2r.bmp	500	1	GKQX	500	1	blank2r.bmp	880	2	fair	880	1	!	1292	1	!	1294	0	0	0	0	0	0
2024-05-15	11:37:29	11:42:52	322704	6.6.1	4_exp_EVA_AWA_CON	35	B	A	Rpleas_acq	Same	Rpleas	2pleas	acq_US_unple_nomask	acq3_nomask	3	21	453	0	300	300	0	0	343	46	1	0	schlau	fair	spielen	freundlich	lachen	schön	schroff	faul	strafen	fanatisch	leiden	schlecht	helfen	tolerant	loyal	retten	ehrlich	treu	hindern	tyrannisch	lasch	rächen	eitel	tot	1	blank2r.bmp	0	1	+	0	1	blank2r.bmp	500	1	BMVZ	500	1	blank2r.bmp	880	3	strafen	880	1	!	-1	1	!	-1	0	0	0	0	0	0
2024-05-15	11:37:29	11:42:54	324937	6.6.1	4_exp_EVA_AWA_CON	35	B	A	Rpleas_acq	Same	Rpleas	2pleas	acq_US_unple_nomask	acq3_nomask	3	22	453	1	300	300	0	0	454	46	1	0	schlau	fair	spielen	freundlich	lachen	schön	schroff	faul	strafen	fanatisch	leiden	schlecht	helfen	tolerant	loyal	retten	ehrlich	treu	hindern	tyrannisch	lasch	rächen	eitel	tot	1	blank2r.bmp	0	1	+	0	1	blank2r.bmp	500	1	BMVZ	500	1	blank2r.bmp	880	4	fanatisch	880	1	!	1293	1	!	1355	0	0	0	0	0	0
2024-05-15	11:37:29	11:42:57	327307	6.6.1	4_exp_EVA_AWA_CON	35	B	A	Rpleas_acq	Same	Rpleas	2pleas	acq_US_unple_nomask	acq3_nomask	3	23	453	0	300	300	0	0	390	50	0	0	schlau	fair	spielen	freundlich	lachen	schön	schroff	faul	strafen	fanatisch	leiden	schlecht	helfen	tolerant	loyal	retten	ehrlich	treu	hindern	tyrannisch	lasch	rächen	eitel	tot	1	blank2r.bmp	0	1	+	0	1	blank2r.bmp	500	1	BMVZ	500	1	blank2r.bmp	880	5	leiden	880	1	FEHLER	1584	1	!	-1	1	!	-1	0	0	0
2024-05-15	11:37:29	11:42:59	329192	6.6.1	4_exp_EVA_AWA_CON	35	B	A	Rpleas_acq	Same	Rpleas	2pleas	acq_US_pleas_nomask	acq3_nomask	3	24	453	0	300	300	0	0	307	50	1	0	schlau	fair	spielen	freundlich	lachen	schön	schroff	faul	strafen	fanatisch	leiden	schlecht	helfen	tolerant	loyal	retten	ehrlich	treu	hindern	tyrannisch	lasch	rächen	eitel	tot	1	blank2r.bmp	0	1	+	0	1	blank2r.bmp	500	1	GKQX	500	1	blank2r.bmp	880	1	schlau	880	1	!	-1	1	!	-1	0	0	0	0	0	0
2024-05-15	11:37:29	11:43:01	331368	6.6.1	4_exp_EVA_AWA_CON	35	B	A	Rpleas_acq	Same	Rpleas	2pleas	acq_US_pleas_nomask	acq3_nomask	3	25	453	1	300	300	0	0	401	50	1	0	schlau	fair	spielen	freundlich	lachen	schön	schroff	faul	strafen	fanatisch	leiden	schlecht	helfen	tolerant	loyal	retten	ehrlich	treu	hindern	tyrannisch	lasch	rächen	eitel	tot	1	blank2r.bmp	0	1	+	0	1	blank2r.bmp	500	1	GKQX	500	1	blank2r.bmp	880	4	freundlich	880	1	!	1292	1	!	1301	0	0	0	0	0	0
2024-05-15	11:37:29	11:43:03	333593	6.6.1	4_exp_EVA_AWA_CON	35	B	A	Rpleas_acq	Same	Rpleas	2pleas	acq_US_pleas_nomask	acq3_nomask	3	26	453	1	300	300	0	0	444	50	1	0	schlau	fair	spielen	freundlich	lachen	schön	schroff	faul	strafen	fanatisch	leiden	schlecht	helfen	tolerant	loyal	retten	ehrlich	treu	hindern	tyrannisch	lasch	rächen	eitel	tot	1	blank2r.bmp	0	1	+	0	1	blank2r.bmp	500	1	GKQX	500	1	blank2r.bmp	880	3	spielen	880	1	!	1293	1	!	1346	0	0	0	0	0	0
2024-05-15	11:37:29	11:43:05	335842	6.6.1	4_exp_EVA_AWA_CON	35	B	A	Rpleas_acq	Same	Rpleas	2pleas	acq_US_pleas_nomask	acq3_nomask	3	27	453	1	300	300	0	0	471	50	1	0	schlau	fair	spielen	freundlich	lachen	schön	schroff	faul	strafen	fanatisch	leiden	schlecht	helfen	tolerant	loyal	retten	ehrlich	treu	hindern	tyrannisch	lasch	rächen	eitel	tot	1	blank2r.bmp	0	1	+	0	1	blank2r.bmp	500	1	GKQX	500	1	blank2r.bmp	880	1	schlau	880	1	!	1292	1	!	1372	0	0	0	0	0	0
2024-05-15	11:37:29	11:43:07	337976	6.6.1	4_exp_EVA_AWA_CON	35	B	A	Rpleas_acq	Same	Rpleas	2pleas	acq_US_unple_nomask	acq3_nomask	3	28	453	0	300	300	0	0	355	46	1	0	schlau	fair	spielen	freundlich	lachen	schön	schroff	faul	strafen	fanatisch	leiden	schlecht	helfen	tolerant	loyal	retten	ehrlich	treu	hindern	tyrannisch	lasch	rächen	eitel	tot	1	blank2r.bmp	0	1	+	0	1	blank2r.bmp	500	1	BMVZ	500	1	blank2r.bmp	880	6	schlecht	880	1	!	-1	1	!	-1	0	0	0	0	0	0
2024-05-15	11:37:29	11:43:10	340304	6.6.1	4_exp_EVA_AWA_CON	35	B	A	Rpleas_acq	Same	Rpleas	2pleas	acq_US_unple_nomask	acq3_nomask	3	29	453	0	300	300	0	0	552	46	1	0	schlau	fair	spielen	freundlich	lachen	schön	schroff	faul	strafen	fanatisch	leiden	schlecht	helfen	tolerant	loyal	retten	ehrlich	treu	hindern	tyrannisch	lasch	rächen	eitel	tot	1	blank2r.bmp	0	1	+	0	1	blank2r.bmp	500	1	BMVZ	500	1	blank2r.bmp	880	2	faul	880	1	!	1293	1	!	-1	0	0	0	0	0	0
2024-05-15	11:37:29	11:43:12	342408	6.6.1	4_exp_EVA_AWA_CON	35	B	A	Rpleas_acq	Same	Rpleas	2pleas	acq_US_pleas_nomask	acq3_nomask	3	30	453	0	300	300	0	0	324	50	1	0	schlau	fair	spielen	freundlich	lachen	schön	schroff	faul	strafen	fanatisch	leiden	schlecht	helfen	tolerant	loyal	retten	ehrlich	treu	hindern	tyrannisch	lasch	rächen	eitel	tot	1	blank2r.bmp	0	1	+	0	1	blank2r.bmp	500	1	GKQX	500	1	blank2r.bmp	880	6	schön	880	1	!	-1	1	!	-1	0	0	0	0	0	0
2024-05-15	11:37:29	11:43:14	344634	6.6.1	4_exp_EVA_AWA_CON	35	B	A	Rpleas_acq	Same	Rpleas	2pleas	acq_US_unple_nomask	acq3_nomask	3	31	453	1	300	300	0	0	447	46	1	0	schlau	fair	spielen	freundlich	lachen	schön	schroff	faul	strafen	fanatisch	leiden	schlecht	helfen	tolerant	loyal	retten	ehrlich	treu	hindern	tyrannisch	lasch	rächen	eitel	tot	1	blank2r.bmp	0	1	+	0	1	blank2r.bmp	500	1	BMVZ	500	1	blank2r.bmp	880	1	schroff	880	1	!	1293	1	!	1349	0	0	0	0	0	0
2024-05-15	11:37:29	11:43:17	347067	6.6.1	4_exp_EVA_AWA_CON	35	B	A	Rpleas_acq	Same	Rpleas	2pleas	acq_US_unple_nomask	acq3_nomask	3	32	453	1	300	300	0	0	458	50	0	0	schlau	fair	spielen	freundlich	lachen	schön	schroff	faul	strafen	fanatisch	leiden	schlecht	helfen	tolerant	loyal	retten	ehrlich	treu	hindern	tyrannisch	lasch	rächen	eitel	tot	1	blank2r.bmp	0	1	+	0	1	blank2r.bmp	500	1	BMVZ	500	1	blank2r.bmp	880	4	fanatisch	880	1	FEHLER	1651	1	!	1293	1	!	1359	0	0	0
2024-05-15	11:37:29	11:43:19	349032	6.6.1	4_exp_EVA_AWA_CON	35	B	A	Rpleas_acq	Same	Rpleas	2pleas	acq_US_pleas_nomask	acq3_nomask	3	33	453	0	300	300	0	0	384	50	1	0	schlau	fair	spielen	freundlich	lachen	schön	schroff	faul	strafen	fanatisch	leiden	schlecht	helfen	tolerant	loyal	retten	ehrlich	treu	hindern	tyrannisch	lasch	rächen	eitel	tot	1	blank2r.bmp	0	1	+	0	1	blank2r.bmp	500	1	GKQX	500	1	blank2r.bmp	880	2	fair	880	1	!	-1	1	!	-1	0	0	0	0	0	0
2024-05-15	11:37:29	11:43:21	351305	6.6.1	4_exp_EVA_AWA_CON	35	B	A	Rpleas_acq	Same	Rpleas	2pleas	acq_US_unple_nomask	acq3_nomask	3	34	453	1	300	300	0	0	495	46	1	0	schlau	fair	spielen	freundlich	lachen	schön	schroff	faul	strafen	fanatisch	leiden	schlecht	helfen	tolerant	loyal	retten	ehrlich	treu	hindern	tyrannisch	lasch	rächen	eitel	tot	1	blank2r.bmp	0	1	+	0	1	blank2r.bmp	500	1	BMVZ	500	1	blank2r.bmp	880	5	leiden	880	1	!	1292	1	!	1396	0	0	0	0	0	0
2024-05-15	11:37:29	11:43:23	353513	6.6.1	4_exp_EVA_AWA_CON	35	B	A	Rpleas_acq	Same	Rpleas	2pleas	acq_US_pleas_nomask	acq3_nomask	3	35	453	1	300	300	0	0	431	50	1	0	schlau	fair	spielen	freundlich	lachen	schön	schroff	faul	strafen	fanatisch	leiden	schlecht	helfen	tolerant	loyal	retten	ehrlich	treu	hindern	tyrannisch	lasch	rächen	eitel	tot	1	blank2r.bmp	0	1	+	0	1	blank2r.bmp	500	1	GKQX	500	1	blank2r.bmp	880	5	lachen	880	1	!	1292	1	!	1333	0	0	0	0	0	0
2024-05-15	11:37:29	11:43:25	355714	6.6.1	4_exp_EVA_AWA_CON	35	B	A	Rpleas_acq	Same	Rpleas	2pleas	acq_US_unple_nomask	acq3_nomask	3	36	453	1	300	300	0	0	420	46	1	0	schlau	fair	spielen	freundlich	lachen	schön	schroff	faul	strafen	fanatisch	leiden	schlecht	helfen	tolerant	loyal	retten	ehrlich	treu	hindern	tyrannisch	lasch	rächen	eitel	tot	1	blank2r.bmp	0	1	+	0	1	blank2r.bmp	500	1	BMVZ	500	1	blank2r.bmp	880	3	strafen	880	1	!	1292	1	!	1322	0	0	0	0	0	0
2024-05-15	11:37:29	11:43:38	368377	6.6.1	4_exp_EVA_AWA_CON	35	B	A	Rpleas_acq	Same	Rpleas	2pleas	acq_US_unple_nomask	acq45_nomask	4	1	400	1	300	300	0	0	346	46	1	0	schlau	fair	spielen	freundlich	lachen	schön	schroff	faul	strafen	fanatisch	leiden	schlecht	helfen	tolerant	loyal	retten	ehrlich	treu	hindern	tyrannisch	lasch	rächen	eitel	tot	1	blank2r.bmp	0	1	+	0	1	blank2r.bmp	500	1	BMVZ	500	1	blank2r.bmp	880	2	faul	880	1	!	1232	1	!	1247	0	0	0	0	0	0
2024-05-15	11:37:29	11:43:40	370569	6.6.1	4_exp_EVA_AWA_CON	35	B	A	Rpleas_acq	Same	Rpleas	2pleas	acq_US_unple_nomask	acq45_nomask	4	2	400	1	300	300	0	0	416	46	1	0	schlau	fair	spielen	freundlich	lachen	schön	schroff	faul	strafen	fanatisch	leiden	schlecht	helfen	tolerant	loyal	retten	ehrlich	treu	hindern	tyrannisch	lasch	rächen	eitel	tot	1	blank2r.bmp	0	1	+	0	1	blank2r.bmp	500	1	BMVZ	500	1	blank2r.bmp	880	6	schlecht	880	1	!	1232	1	!	1318	0	0	0	0	0	0
2024-05-15	11:37:29	11:43:42	372769	6.6.1	4_exp_EVA_AWA_CON	35	B	A	Rpleas_acq	Same	Rpleas	2pleas	acq_US_pleas_nomask	acq45_nomask	4	3	400	1	300	300	0	0	425	50	1	0	schlau	fair	spielen	freundlich	lachen	schön	schroff	faul	strafen	fanatisch	leiden	schlecht	helfen	tolerant	loyal	retten	ehrlich	treu	hindern	tyrannisch	lasch	rächen	eitel	tot	1	blank2r.bmp	0	1	+	0	1	blank2r.bmp	500	1	GKQX	500	1	blank2r.bmp	880	3	spielen	880	1	!	1232	1	!	1326	0	0	0	0	0	0
2024-05-15	11:37:29	11:43:44	375002	6.6.1	4_exp_EVA_AWA_CON	35	B	A	Rpleas_acq	Same	Rpleas	2pleas	acq_US_pleas_nomask	acq45_nomask	4	4	400	1	300	300	0	0	455	50	1	0	schlau	fair	spielen	freundlich	lachen	schön	schroff	faul	strafen	fanatisch	leiden	schlecht	helfen	tolerant	loyal	retten	ehrlich	treu	hindern	tyrannisch	lasch	rächen	eitel	tot	1	blank2r.bmp	0	1	+	0	1	blank2r.bmp	500	1	GKQX	500	1	blank2r.bmp	880	1	schlau	880	1	!	1232	1	!	1357	0	0	0	0	0	0
2024-05-15	11:37:29	11:43:47	377209	6.6.1	4_exp_EVA_AWA_CON	35	B	A	Rpleas_acq	Same	Rpleas	2pleas	acq_US_pleas_nomask	acq45_nomask	4	5	400	1	300	300	0	0	432	50	1	0	schlau	fair	spielen	freundlich	lachen	schön	schroff	faul	strafen	fanatisch	leiden	schlecht	helfen	tolerant	loyal	retten	ehrlich	treu	hindern	tyrannisch	lasch	rächen	eitel	tot	1	blank2r.bmp	0	1	+	0	1	blank2r.bmp	500	1	GKQX	500	1	blank2r.bmp	880	4	freundlich	880	1	!	1232	1	!	1334	0	0	0	0	0	0
2024-05-15	11:37:29	11:43:49	379401	6.6.1	4_exp_EVA_AWA_CON	35	B	A	Rpleas_acq	Same	Rpleas	2pleas	acq_US_pleas_nomask	acq45_nomask	4	6	400	1	300	300	0	0	413	50	1	0	schlau	fair	spielen	freundlich	lachen	schön	schroff	faul	strafen	fanatisch	leiden	schlecht	helfen	tolerant	loyal	retten	ehrlich	treu	hindern	tyrannisch	lasch	rächen	eitel	tot	1	blank2r.bmp	0	1	+	0	1	blank2r.bmp	500	1	GKQX	500	1	blank2r.bmp	880	6	schön	880	1	!	1232	1	!	1314	0	0	0	0	0	0
2024-05-15	11:37:29	11:43:51	381553	6.6.1	4_exp_EVA_AWA_CON	35	B	A	Rpleas_acq	Same	Rpleas	2pleas	acq_US_unple_nomask	acq45_nomask	4	7	400	1	300	300	0	0	373	46	1	0	schlau	fair	spielen	freundlich	lachen	schön	schroff	faul	strafen	fanatisch	leiden	schlecht	helfen	tolerant	loyal	retten	ehrlich	treu	hindern	tyrannisch	lasch	rächen	eitel	tot	1	blank2r.bmp	0	1	+	0	1	blank2r.bmp	500	1	BMVZ	500	1	blank2r.bmp	880	5	leiden	880	1	!	1233	1	!	1275	0	0	0	0	0	0
2024-05-15	11:37:29	11:43:53	383770	6.6.1	4_exp_EVA_AWA_CON	35	B	A	Rpleas_acq	Same	Rpleas	2pleas	acq_US_unple_nomask	acq45_nomask	4	8	400	1	300	300	0	0	438	50	0	0	schlau	fair	spielen	freundlich	lachen	schön	schroff	faul	strafen	fanatisch	leiden	schlecht	helfen	tolerant	loyal	retten	ehrlich	treu	hindern	tyrannisch	lasch	rächen	eitel	tot	1	blank2r.bmp	0	1	+	0	1	blank2r.bmp	500	1	BMVZ	500	1	blank2r.bmp	880	3	strafen	880	1	!	1233	1	!	1339	0	0	0	0	0	0
2024-05-15	11:37:29	11:43:55	385914	6.6.1	4_exp_EVA_AWA_CON	35	B	A	Rpleas_acq	Same	Rpleas	2pleas	acq_US_pleas_nomask	acq45_nomask	4	9	400	1	300	300	0	0	360	50	1	0	schlau	fair	spielen	freundlich	lachen	schön	schroff	faul	strafen	fanatisch	leiden	schlecht	helfen	tolerant	loyal	retten	ehrlich	treu	hindern	tyrannisch	lasch	rächen	eitel	tot	1	blank2r.bmp	0	1	+	0	1	blank2r.bmp	500	1	GKQX	500	1	blank2r.bmp	880	2	fair	880	1	!	1232	1	!	1262	0	0	0	0	0	0
2024-05-15	11:37:29	11:43:57	388026	6.6.1	4_exp_EVA_AWA_CON	35	B	A	Rpleas_acq	Same	Rpleas	2pleas	acq_US_unple_nomask	acq45_nomask	4	10	400	1	300	300	0	0	333	46	1	0	schlau	fair	spielen	freundlich	lachen	schön	schroff	faul	strafen	fanatisch	leiden	schlecht	helfen	tolerant	loyal	retten	ehrlich	treu	hindern	tyrannisch	lasch	rächen	eitel	tot	1	blank2r.bmp	0	1	+	0	1	blank2r.bmp	500	1	BMVZ	500	1	blank2r.bmp	880	1	schroff	880	1	!	1232	1	!	1233	0	0	0	0	0	0
2024-05-15	11:37:29	11:44:00	390154	6.6.1	4_exp_EVA_AWA_CON	35	B	A	Rpleas_acq	Same	Rpleas	2pleas	acq_US_unple_nomask	acq45_nomask	4	11	400	1	300	300	0	0	348	46	1	0	schlau	fair	spielen	freundlich	lachen	schön	schroff	faul	strafen	fanatisch	leiden	schlecht	helfen	tolerant	loyal	retten	ehrlich	treu	hindern	tyrannisch	lasch	rächen	eitel	tot	1	blank2r.bmp	0	1	+	0	1	blank2r.bmp	500	1	BMVZ	500	1	blank2r.bmp	880	4	fanatisch	880	1	!	1232	1	!	1249	0	0	0	0	0	0
2024-05-15	11:37:29	11:44:02	392432	6.6.1	4_exp_EVA_AWA_CON	35	B	A	Rpleas_acq	Same	Rpleas	2pleas	acq_US_pleas_nomask	acq45_nomask	4	12	400	0	300	300	0	0	496	50	1	0	schlau	fair	spielen	freundlich	lachen	schön	schroff	faul	strafen	fanatisch	leiden	schlecht	helfen	tolerant	loyal	retten	ehrlich	treu	hindern	tyrannisch	lasch	rächen	eitel	tot	1	blank2r.bmp	0	1	+	0	1	blank2r.bmp	500	1	GKQX	500	1	blank2r.bmp	880	5	lachen	880	1	!	1232	1	!	-1	0	0	0	0	0	0
2024-05-15	11:37:29	11:44:04	394520	6.6.1	4_exp_EVA_AWA_CON	35	B	A	Rpleas_acq	Same	Rpleas	2pleas	acq_US_unple_nomask	acq45_nomask	4	13	400	0	300	300	0	0	313	46	1	0	schlau	fair	spielen	freundlich	lachen	schön	schroff	faul	strafen	fanatisch	leiden	schlecht	helfen	tolerant	loyal	retten	ehrlich	treu	hindern	tyrannisch	lasch	rächen	eitel	tot	1	blank2r.bmp	0	1	+	0	1	blank2r.bmp	500	1	BMVZ	500	1	blank2r.bmp	880	2	faul	880	1	!	-1	1	!	-1	0	0	0	0	0	0
2024-05-15	11:37:29	11:44:06	396608	6.6.1	4_exp_EVA_AWA_CON	35	B	A	Rpleas_acq	Same	Rpleas	2pleas	acq_US_pleas_nomask	acq45_nomask	4	14	400	0	300	300	0	0	310	46	0	0	schlau	fair	spielen	freundlich	lachen	schön	schroff	faul	strafen	fanatisch	leiden	schlecht	helfen	tolerant	loyal	retten	ehrlich	treu	hindern	tyrannisch	lasch	rächen	eitel	tot	1	blank2r.bmp	0	1	+	0	1	blank2r.bmp	500	1	GKQX	500	1	blank2r.bmp	880	3	spielen	880	1	!	-1	1	!	-1	0	0	0	0	0	0
2024-05-15	11:37:29	11:44:08	398857	6.6.1	4_exp_EVA_AWA_CON	35	B	A	Rpleas_acq	Same	Rpleas	2pleas	acq_US_pleas_nomask	acq45_nomask	4	15	400	1	300	300	0	0	466	50	1	0	schlau	fair	spielen	freundlich	lachen	schön	schroff	faul	strafen	fanatisch	leiden	schlecht	helfen	tolerant	loyal	retten	ehrlich	treu	hindern	tyrannisch	lasch	rächen	eitel	tot	1	blank2r.bmp	0	1	+	0	1	blank2r.bmp	500	1	GKQX	500	1	blank2r.bmp	880	6	schön	880	1	!	1232	1	!	1368	0	0	0	0	0	0
2024-05-15	11:37:29	11:44:11	401042	6.6.1	4_exp_EVA_AWA_CON	35	B	A	Rpleas_acq	Same	Rpleas	2pleas	acq_US_unple_nomask	acq45_nomask	4	16	400	1	300	300	0	0	409	46	1	0	schlau	fair	spielen	freundlich	lachen	schön	schroff	faul	strafen	fanatisch	leiden	schlecht	helfen	tolerant	loyal	retten	ehrlich	treu	hindern	tyrannisch	lasch	rächen	eitel	tot	1	blank2r.bmp	0	1	+	0	1	blank2r.bmp	500	1	BMVZ	500	1	blank2r.bmp	880	1	schroff	880	1	!	1232	1	!	1310	0	0	0	0	0	0
2024-05-15	11:37:29	11:44:13	403194	6.6.1	4_exp_EVA_AWA_CON	35	B	A	Rpleas_acq	Same	Rpleas	2pleas	acq_US_unple_nomask	acq45_nomask	4	17	400	1	300	300	0	0	369	46	1	0	schlau	fair	spielen	freundlich	lachen	schön	schroff	faul	strafen	fanatisch	leiden	schlecht	helfen	tolerant	loyal	retten	ehrlich	treu	hindern	tyrannisch	lasch	rächen	eitel	tot	1	blank2r.bmp	0	1	+	0	1	blank2r.bmp	500	1	BMVZ	500	1	blank2r.bmp	880	6	schlecht	880	1	!	1232	1	!	1272	0	0	0	0	0	0
2024-05-15	11:37:29	11:44:15	405386	6.6.1	4_exp_EVA_AWA_CON	35	B	A	Rpleas_acq	Same	Rpleas	2pleas	acq_US_pleas_nomask	acq45_nomask	4	18	400	1	300	300	0	0	410	50	1	0	schlau	fair	spielen	freundlich	lachen	schön	schroff	faul	strafen	fanatisch	leiden	schlecht	helfen	tolerant	loyal	retten	ehrlich	treu	hindern	tyrannisch	lasch	rächen	eitel	tot	1	blank2r.bmp	0	1	+	0	1	blank2r.bmp	500	1	GKQX	500	1	blank2r.bmp	880	5	lachen	880	1	!	1232	1	!	1312	0	0	0	0	0	0
2024-05-15	11:37:29	11:44:17	407546	6.6.1	4_exp_EVA_AWA_CON	35	B	A	Rpleas_acq	Same	Rpleas	2pleas	acq_US_unple_nomask	acq45_nomask	4	19	400	1	300	300	0	0	378	46	1	0	schlau	fair	spielen	freundlich	lachen	schön	schroff	faul	strafen	fanatisch	leiden	schlecht	helfen	tolerant	loyal	retten	ehrlich	treu	hindern	tyrannisch	lasch	rächen	eitel	tot	1	blank2r.bmp	0	1	+	0	1	blank2r.bmp	500	1	BMVZ	500	1	blank2r.bmp	880	5	leiden	880	1	!	1232	1	!	1280	0	0	0	0	0	0
2024-05-15	11:37:29	11:44:19	409745	6.6.1	4_exp_EVA_AWA_CON	35	B	A	Rpleas_acq	Same	Rpleas	2pleas	acq_US_pleas_nomask	acq45_nomask	4	20	400	1	300	300	0	0	417	50	1	0	schlau	fair	spielen	freundlich	lachen	schön	schroff	faul	strafen	fanatisch	leiden	schlecht	helfen	tolerant	loyal	retten	ehrlich	treu	hindern	tyrannisch	lasch	rächen	eitel	tot	1	blank2r.bmp	0	1	+	0	1	blank2r.bmp	500	1	GKQX	500	1	blank2r.bmp	880	2	fair	880	1	!	1232	1	!	1319	0	0	0	0	0	0
2024-05-15	11:37:29	11:44:22	412040	6.6.1	4_exp_EVA_AWA_CON	35	B	A	Rpleas_acq	Same	Rpleas	2pleas	acq_US_pleas_nomask	acq45_nomask	4	21	400	0	300	300	0	0	522	50	1	0	schlau	fair	spielen	freundlich	lachen	schön	schroff	faul	strafen	fanatisch	leiden	schlecht	helfen	tolerant	loyal	retten	ehrlich	treu	hindern	tyrannisch	lasch	rächen	eitel	tot	1	blank2r.bmp	0	1	+	0	1	blank2r.bmp	500	1	GKQX	500	1	blank2r.bmp	880	4	freundlich	880	1	!	1232	1	!	-1	0	0	0	0	0	0
2024-05-15	11:37:29	11:44:24	414160	6.6.1	4_exp_EVA_AWA_CON	35	B	A	Rpleas_acq	Same	Rpleas	2pleas	acq_US_unple_nomask	acq45_nomask	4	22	400	1	300	300	0	0	340	46	1	0	schlau	fair	spielen	freundlich	lachen	schön	schroff	faul	strafen	fanatisch	leiden	schlecht	helfen	tolerant	loyal	retten	ehrlich	treu	hindern	tyrannisch	lasch	rächen	eitel	tot	1	blank2r.bmp	0	1	+	0	1	blank2r.bmp	500	1	BMVZ	500	1	blank2r.bmp	880	4	fanatisch	880	1	!	1232	1	!	1240	0	0	0	0	0	0
2024-05-15	11:37:29	11:44:26	416273	6.6.1	4_exp_EVA_AWA_CON	35	B	A	Rpleas_acq	Same	Rpleas	2pleas	acq_US_pleas_nomask	acq45_nomask	4	23	400	1	300	300	0	0	331	50	1	0	schlau	fair	spielen	freundlich	lachen	schön	schroff	faul	strafen	fanatisch	leiden	schlecht	helfen	tolerant	loyal	retten	ehrlich	treu	hindern	tyrannisch	lasch	rächen	eitel	tot	1	blank2r.bmp	0	1	+	0	1	blank2r.bmp	500	1	GKQX	500	1	blank2r.bmp	880	1	schlau	880	1	!	1232	1	!	1232	0	0	0	0	0	0
2024-05-15	11:37:29	11:44:28	418393	6.6.1	4_exp_EVA_AWA_CON	35	B	A	Rpleas_acq	Same	Rpleas	2pleas	acq_US_unple_nomask	acq45_nomask	4	24	400	1	300	300	0	0	340	46	1	0	schlau	fair	spielen	freundlich	lachen	schön	schroff	faul	strafen	fanatisch	leiden	schlecht	helfen	tolerant	loyal	retten	ehrlich	treu	hindern	tyrannisch	lasch	rächen	eitel	tot	1	blank2r.bmp	0	1	+	0	1	blank2r.bmp	500	1	BMVZ	500	1	blank2r.bmp	880	3	strafen	880	1	!	1232	1	!	1240	0	0	0	0	0	0
2024-05-15	11:37:29	11:44:30	420464	6.6.1	4_exp_EVA_AWA_CON	35	B	A	Rpleas_acq	Same	Rpleas	2pleas	acq_US_unple_nomask	acq45_nomask	4	25	400	0	300	300	0	0	290	50	0	0	schlau	fair	spielen	freundlich	lachen	schön	schroff	faul	strafen	fanatisch	leiden	schlecht	helfen	tolerant	loyal	retten	ehrlich	treu	hindern	tyrannisch	lasch	rächen	eitel	tot	1	blank2r.bmp	0	1	+	0	1	blank2r.bmp	500	1	BMVZ	500	1	blank2r.bmp	880	3	strafen	880	1	!	-1	1	!	-1	0	0	0	0	0	0
2024-05-15	11:37:29	11:44:32	422633	6.6.1	4_exp_EVA_AWA_CON	35	B	A	Rpleas_acq	Same	Rpleas	2pleas	acq_US_unple_nomask	acq45_nomask	4	26	400	1	300	300	0	0	387	46	1	0	schlau	fair	spielen	freundlich	lachen	schön	schroff	faul	strafen	fanatisch	leiden	schlecht	helfen	tolerant	loyal	retten	ehrlich	treu	hindern	tyrannisch	lasch	rächen	eitel	tot	1	blank2r.bmp	0	1	+	0	1	blank2r.bmp	500	1	BMVZ	500	1	blank2r.bmp	880	2	faul	880	1	!	1232	1	!	1288	0	0	0	0	0	0
2024-05-15	11:37:29	11:44:34	424809	6.6.1	4_exp_EVA_AWA_CON	35	B	A	Rpleas_acq	Same	Rpleas	2pleas	acq_US_pleas_nomask	acq45_nomask	4	27	400	1	300	300	0	0	401	50	1	0	schlau	fair	spielen	freundlich	lachen	schön	schroff	faul	strafen	fanatisch	leiden	schlecht	helfen	tolerant	loyal	retten	ehrlich	treu	hindern	tyrannisch	lasch	rächen	eitel	tot	1	blank2r.bmp	0	1	+	0	1	blank2r.bmp	500	1	GKQX	500	1	blank2r.bmp	880	1	schlau	880	1	!	1232	1	!	1303	0	0	0	0	0	0
2024-05-15	11:37:29	11:44:36	426970	6.6.1	4_exp_EVA_AWA_CON	35	B	A	Rpleas_acq	Same	Rpleas	2pleas	acq_US_unple_nomask	acq45_nomask	4	28	400	1	300	300	0	0	380	46	1	0	schlau	fair	spielen	freundlich	lachen	schön	schroff	faul	strafen	fanatisch	leiden	schlecht	helfen	tolerant	loyal	retten	ehrlich	treu	hindern	tyrannisch	lasch	rächen	eitel	tot	1	blank2r.bmp	0	1	+	0	1	blank2r.bmp	500	1	BMVZ	500	1	blank2r.bmp	880	1	schroff	880	1	!	1232	1	!	1282	0	0	0	0	0	0
2024-05-15	11:37:29	11:44:39	429193	6.6.1	4_exp_EVA_AWA_CON	35	B	A	Rpleas_acq	Same	Rpleas	2pleas	acq_US_unple_nomask	acq45_nomask	4	29	400	1	300	300	0	0	443	46	1	0	schlau	fair	spielen	freundlich	lachen	schön	schroff	faul	strafen	fanatisch	leiden	schlecht	helfen	tolerant	loyal	retten	ehrlich	treu	hindern	tyrannisch	lasch	rächen	eitel	tot	1	blank2r.bmp	0	1	+	0	1	blank2r.bmp	500	1	BMVZ	500	1	blank2r.bmp	880	6	schlecht	880	1	!	1232	1	!	1344	0	0	0	0	0	0
2024-05-15	11:37:29	11:44:41	431337	6.6.1	4_exp_EVA_AWA_CON	35	B	A	Rpleas_acq	Same	Rpleas	2pleas	acq_US_pleas_nomask	acq45_nomask	4	30	400	1	300	300	0	0	365	46	0	0	schlau	fair	spielen	freundlich	lachen	schön	schroff	faul	strafen	fanatisch	leiden	schlecht	helfen	tolerant	loyal	retten	ehrlich	treu	hindern	tyrannisch	lasch	rächen	eitel	tot	1	blank2r.bmp	0	1	+	0	1	blank2r.bmp	500	1	GKQX	500	1	blank2r.bmp	880	2	fair	880	1	!	1232	1	!	1267	0	0	0	0	0	0
2024-05-15	11:37:29	11:44:43	433522	6.6.1	4_exp_EVA_AWA_CON	35	B	A	Rpleas_acq	Same	Rpleas	2pleas	acq_US_unple_nomask	acq45_nomask	4	31	400	1	300	300	0	0	408	50	0	0	schlau	fair	spielen	freundlich	lachen	schön	schroff	faul	strafen	fanatisch	leiden	schlecht	helfen	tolerant	loyal	retten	ehrlich	treu	hindern	tyrannisch	lasch	rächen	eitel	tot	1	blank2r.bmp	0	1	+	0	1	blank2r.bmp	500	1	BMVZ	500	1	blank2r.bmp	880	4	fanatisch	880	1	!	1232	1	!	1309	0	0	0	0	0	0
2024-05-15	11:37:29	11:44:45	435674	6.6.1	4_exp_EVA_AWA_CON	35	B	A	Rpleas_acq	Same	Rpleas	2pleas	acq_US_pleas_nomask	acq45_nomask	4	32	400	1	300	300	0	0	368	50	1	0	schlau	fair	spielen	freundlich	lachen	schön	schroff	faul	strafen	fanatisch	leiden	schlecht	helfen	tolerant	loyal	retten	ehrlich	treu	hindern	tyrannisch	lasch	rächen	eitel	tot	1	blank2r.bmp	0	1	+	0	1	blank2r.bmp	500	1	GKQX	500	1	blank2r.bmp	880	6	schön	880	1	!	1232	1	!	1270	0	0	0	0	0	0
2024-05-15	11:37:29	11:44:47	437952	6.6.1	4_exp_EVA_AWA_CON	35	B	A	Rpleas_acq	Same	Rpleas	2pleas	acq_US_pleas_nomask	acq45_nomask	4	33	400	0	300	300	0	0	497	50	1	0	schlau	fair	spielen	freundlich	lachen	schön	schroff	faul	strafen	fanatisch	leiden	schlecht	helfen	tolerant	loyal	retten	ehrlich	treu	hindern	tyrannisch	lasch	rächen	eitel	tot	1	blank2r.bmp	0	1	+	0	1	blank2r.bmp	500	1	GKQX	500	1	blank2r.bmp	880	3	spielen	880	1	!	1232	1	!	-1	0	0	0	0	0	0
2024-05-15	11:37:29	11:44:49	440024	6.6.1	4_exp_EVA_AWA_CON	35	B	A	Rpleas_acq	Same	Rpleas	2pleas	acq_US_pleas_nomask	acq45_nomask	4	34	400	0	300	300	0	0	298	46	0	0	schlau	fair	spielen	freundlich	lachen	schön	schroff	faul	strafen	fanatisch	leiden	schlecht	helfen	tolerant	loyal	retten	ehrlich	treu	hindern	tyrannisch	lasch	rächen	eitel	tot	1	blank2r.bmp	0	1	+	0	1	blank2r.bmp	500	1	GKQX	500	1	blank2r.bmp	880	4	freundlich	880	1	!	-1	1	!	-1	0	0	0	0	0	0
2024-05-15	11:37:29	11:44:52	442193	6.6.1	4_exp_EVA_AWA_CON	35	B	A	Rpleas_acq	Same	Rpleas	2pleas	acq_US_unple_nomask	acq45_nomask	4	35	400	1	300	300	0	0	394	50	0	0	schlau	fair	spielen	freundlich	lachen	schön	schroff	faul	strafen	fanatisch	leiden	schlecht	helfen	tolerant	loyal	retten	ehrlich	treu	hindern	tyrannisch	lasch	rächen	eitel	tot	1	blank2r.bmp	0	1	+	0	1	blank2r.bmp	500	1	BMVZ	500	1	blank2r.bmp	880	5	leiden	880	1	!	1232	1	!	1296	0	0	0	0	0	0
2024-05-15	11:37:29	11:44:54	444321	6.6.1	4_exp_EVA_AWA_CON	35	B	A	Rpleas_acq	Same	Rpleas	2pleas	acq_US_pleas_nomask	acq45_nomask	4	36	400	1	300	300	0	0	351	46	0	0	schlau	fair	spielen	freundlich	lachen	schön	schroff	faul	strafen	fanatisch	leiden	schlecht	helfen	tolerant	loyal	retten	ehrlich	treu	hindern	tyrannisch	lasch	rächen	eitel	tot	1	blank2r.bmp	0	1	+	0	1	blank2r.bmp	500	1	GKQX	500	1	blank2r.bmp	880	5	lachen	880	1	!	1232	1	!	1252	0	0	0	0	0	0
2024-05-15	11:37:29	11:45:07	457786	6.6.1	4_exp_EVA_AWA_CON	35	B	A	Rpleas_acq	Same	Rpleas	2pleas	acq_US_unple_nomask	acq45_nomask	5	1	400	1	300	300	0	0	386	46	1	0	schlau	fair	spielen	freundlich	lachen	schön	schroff	faul	strafen	fanatisch	leiden	schlecht	helfen	tolerant	loyal	retten	ehrlich	treu	hindern	tyrannisch	lasch	rächen	eitel	tot	1	blank2r.bmp	0	1	+	0	1	blank2r.bmp	500	1	BMVZ	500	1	blank2r.bmp	880	4	fanatisch	880	1	!	1232	1	!	1288	0	0	0	0	0	0
2024-05-15	11:37:29	11:45:09	459945	6.6.1	4_exp_EVA_AWA_CON	35	B	A	Rpleas_acq	Same	Rpleas	2pleas	acq_US_pleas_nomask	acq45_nomask	5	2	400	1	300	300	0	0	385	50	1	0	schlau	fair	spielen	freundlich	lachen	schön	schroff	faul	strafen	fanatisch	leiden	schlecht	helfen	tolerant	loyal	retten	ehrlich	treu	hindern	tyrannisch	lasch	rächen	eitel	tot	1	blank2r.bmp	0	1	+	0	1	blank2r.bmp	500	1	GKQX	500	1	blank2r.bmp	880	1	schlau	880	1	!	1232	1	!	1286	0	0	0	0	0	0
2024-05-15	11:37:29	11:45:12	462105	6.6.1	4_exp_EVA_AWA_CON	35	B	A	Rpleas_acq	Same	Rpleas	2pleas	acq_US_unple_nomask	acq45_nomask	5	3	400	1	300	300	0	0	383	46	1	0	schlau	fair	spielen	freundlich	lachen	schön	schroff	faul	strafen	fanatisch	leiden	schlecht	helfen	tolerant	loyal	retten	ehrlich	treu	hindern	tyrannisch	lasch	rächen	eitel	tot	1	blank2r.bmp	0	1	+	0	1	blank2r.bmp	500	1	BMVZ	500	1	blank2r.bmp	880	1	schroff	880	1	!	1232	1	!	1285	0	0	0	0	0	0
2024-05-15	11:37:29	11:45:14	464249	6.6.1	4_exp_EVA_AWA_CON	35	B	A	Rpleas_acq	Same	Rpleas	2pleas	acq_US_pleas_nomask	acq45_nomask	5	4	400	1	300	300	0	0	366	50	1	0	schlau	fair	spielen	freundlich	lachen	schön	schroff	faul	strafen	fanatisch	leiden	schlecht	helfen	tolerant	loyal	retten	ehrlich	treu	hindern	tyrannisch	lasch	rächen	eitel	tot	1	blank2r.bmp	0	1	+	0	1	blank2r.bmp	500	1	GKQX	500	1	blank2r.bmp	880	5	lachen	880	1	!	1233	1	!	1268	0	0	0	0	0	0
2024-05-15	11:37:29	11:45:16	466434	6.6.1	4_exp_EVA_AWA_CON	35	B	A	Rpleas_acq	Same	Rpleas	2pleas	acq_US_unple_nomask	acq45_nomask	5	5	400	1	300	300	0	0	409	46	1	0	schlau	fair	spielen	freundlich	lachen	schön	schroff	faul	strafen	fanatisch	leiden	schlecht	helfen	tolerant	loyal	retten	ehrlich	treu	hindern	tyrannisch	lasch	rächen	eitel	tot	1	blank2r.bmp	0	1	+	0	1	blank2r.bmp	500	1	BMVZ	500	1	blank2r.bmp	880	5	leiden	880	1	!	1232	1	!	1310	0	0	0	0	0	0
2024-05-15	11:37:29	11:45:18	468601	6.6.1	4_exp_EVA_AWA_CON	35	B	A	Rpleas_acq	Same	Rpleas	2pleas	acq_US_unple_nomask	acq45_nomask	5	6	400	1	300	300	0	0	385	46	1	0	schlau	fair	spielen	freundlich	lachen	schön	schroff	faul	strafen	fanatisch	leiden	schlecht	helfen	tolerant	loyal	retten	ehrlich	treu	hindern	tyrannisch	lasch	rächen	eitel	tot	1	blank2r.bmp	0	1	+	0	1	blank2r.bmp	500	1	BMVZ	500	1	blank2r.bmp	880	2	faul	880	1	!	1232	1	!	1287	0	0	0	0	0	0
2024-05-15	11:37:29	11:45:20	470753	6.6.1	4_exp_EVA_AWA_CON	35	B	A	Rpleas_acq	Same	Rpleas	2pleas	acq_US_pleas_nomask	acq45_nomask	5	7	400	1	300	300	0	0	376	46	0	0	schlau	fair	spielen	freundlich	lachen	schön	schroff	faul	strafen	fanatisch	leiden	schlecht	helfen	tolerant	loyal	retten	ehrlich	treu	hindern	tyrannisch	lasch	rächen	eitel	tot	1	blank2r.bmp	0	1	+	0	1	blank2r.bmp	500	1	GKQX	500	1	blank2r.bmp	880	6	schön	880	1	!	1232	1	!	1277	0	0	0	0	0	0
2024-05-15	11:37:29	11:45:22	472994	6.6.1	4_exp_EVA_AWA_CON	35	B	A	Rpleas_acq	Same	Rpleas	2pleas	acq_US_pleas_nomask	acq45_nomask	5	8	400	1	300	300	0	0	465	46	0	0	schlau	fair	spielen	freundlich	lachen	schön	schroff	faul	strafen	fanatisch	leiden	schlecht	helfen	tolerant	loyal	retten	ehrlich	treu	hindern	tyrannisch	lasch	rächen	eitel	tot	1	blank2r.bmp	0	1	+	0	1	blank2r.bmp	500	1	GKQX	500	1	blank2r.bmp	880	2	fair	880	1	!	1233	1	!	1367	0	0	0	0	0	0
2024-05-15	11:37:29	11:45:25	475210	6.6.1	4_exp_EVA_AWA_CON	35	B	A	Rpleas_acq	Same	Rpleas	2pleas	acq_US_unple_nomask	acq45_nomask	5	9	400	1	300	300	0	0	439	46	1	0	schlau	fair	spielen	freundlich	lachen	schön	schroff	faul	strafen	fanatisch	leiden	schlecht	helfen	tolerant	loyal	retten	ehrlich	treu	hindern	tyrannisch	lasch	rächen	eitel	tot	1	blank2r.bmp	0	1	+	0	1	blank2r.bmp	500	1	BMVZ	500	1	blank2r.bmp	880	6	schlecht	880	1	!	1232	1	!	1341	0	0	0	0	0	0
2024-05-15	11:37:29	11:45:27	477320	6.6.1	4_exp_EVA_AWA_CON	35	B	A	Rpleas_acq	Same	Rpleas	2pleas	acq_US_pleas_nomask	acq45_nomask	5	10	400	0	300	300	0	0	330	50	1	0	schlau	fair	spielen	freundlich	lachen	schön	schroff	faul	strafen	fanatisch	leiden	schlecht	helfen	tolerant	loyal	retten	ehrlich	treu	hindern	tyrannisch	lasch	rächen	eitel	tot	1	blank2r.bmp	0	1	+	0	1	blank2r.bmp	500	1	GKQX	500	1	blank2r.bmp	880	3	spielen	880	1	!	-1	1	!	-1	0	0	0	0	0	0
2024-05-15	11:37:29	11:45:29	479368	6.6.1	4_exp_EVA_AWA_CON	35	B	A	Rpleas_acq	Same	Rpleas	2pleas	acq_US_pleas_nomask	acq45_nomask	5	11	400	0	300	300	0	0	266	46	0	0	schlau	fair	spielen	freundlich	lachen	schön	schroff	faul	strafen	fanatisch	leiden	schlecht	helfen	tolerant	loyal	retten	ehrlich	treu	hindern	tyrannisch	lasch	rächen	eitel	tot	1	blank2r.bmp	0	1	+	0	1	blank2r.bmp	500	1	GKQX	500	1	blank2r.bmp	880	4	freundlich	880	1	!	-1	1	!	-1	0	0	0	0	0	0
2024-05-15	11:37:29	11:45:31	481480	6.6.1	4_exp_EVA_AWA_CON	35	B	A	Rpleas_acq	Same	Rpleas	2pleas	acq_US_pleas_nomask	acq45_nomask	5	12	400	1	300	300	0	0	337	46	0	0	schlau	fair	spielen	freundlich	lachen	schön	schroff	faul	strafen	fanatisch	leiden	schlecht	helfen	tolerant	loyal	retten	ehrlich	treu	hindern	tyrannisch	lasch	rächen	eitel	tot	1	blank2r.bmp	0	1	+	0	1	blank2r.bmp	500	1	GKQX	500	1	blank2r.bmp	880	1	schlau	880	1	!	1233	1	!	1237	0	0	0	0	0	0
2024-05-15	11:37:29	11:45:33	483681	6.6.1	4_exp_EVA_AWA_CON	35	B	A	Rpleas_acq	Same	Rpleas	2pleas	acq_US_unple_nomask	acq45_nomask	5	13	400	1	300	300	0	0	426	46	1	0	schlau	fair	spielen	freundlich	lachen	schön	schroff	faul	strafen	fanatisch	leiden	schlecht	helfen	tolerant	loyal	retten	ehrlich	treu	hindern	tyrannisch	lasch	rächen	eitel	tot	1	blank2r.bmp	0	1	+	0	1	blank2r.bmp	500	1	BMVZ	500	1	blank2r.bmp	880	3	strafen	880	1	!	1232	1	!	1327	0	0	0	0	0	0
2024-05-15	11:37:29	11:45:35	485889	6.6.1	4_exp_EVA_AWA_CON	35	B	A	Rpleas_acq	Same	Rpleas	2pleas	acq_US_unple_nomask	acq45_nomask	5	14	400	1	300	300	0	0	432	46	1	0	schlau	fair	spielen	freundlich	lachen	schön	schroff	faul	strafen	fanatisch	leiden	schlecht	helfen	tolerant	loyal	retten	ehrlich	treu	hindern	tyrannisch	lasch	rächen	eitel	tot	1	blank2r.bmp	0	1	+	0	1	blank2r.bmp	500	1	BMVZ	500	1	blank2r.bmp	880	3	strafen	880	1	!	1232	1	!	1334	0	0	0	0	0	0
2024-05-15	11:37:29	11:45:37	488025	6.6.1	4_exp_EVA_AWA_CON	35	B	A	Rpleas_acq	Same	Rpleas	2pleas	acq_US_pleas_nomask	acq45_nomask	5	15	400	1	300	300	0	0	357	50	1	0	schlau	fair	spielen	freundlich	lachen	schön	schroff	faul	strafen	fanatisch	leiden	schlecht	helfen	tolerant	loyal	retten	ehrlich	treu	hindern	tyrannisch	lasch	rächen	eitel	tot	1	blank2r.bmp	0	1	+	0	1	blank2r.bmp	500	1	GKQX	500	1	blank2r.bmp	880	3	spielen	880	1	!	1232	1	!	1258	0	0	0	0	0	0
2024-05-15	11:37:29	11:45:40	490296	6.6.1	4_exp_EVA_AWA_CON	35	B	A	Rpleas_acq	Same	Rpleas	2pleas	acq_US_unple_nomask	acq45_nomask	5	16	400	0	300	300	0	0	498	46	1	0	schlau	fair	spielen	freundlich	lachen	schön	schroff	faul	strafen	fanatisch	leiden	schlecht	helfen	tolerant	loyal	retten	ehrlich	treu	hindern	tyrannisch	lasch	rächen	eitel	tot	1	blank2r.bmp	0	1	+	0	1	blank2r.bmp	500	1	BMVZ	500	1	blank2r.bmp	880	5	leiden	880	1	!	1233	1	!	-1	0	0	0	0	0	0
2024-05-15	11:37:29	11:45:42	492457	6.6.1	4_exp_EVA_AWA_CON	35	B	A	Rpleas_acq	Same	Rpleas	2pleas	acq_US_unple_nomask	acq45_nomask	5	17	400	1	300	300	0	0	386	46	1	0	schlau	fair	spielen	freundlich	lachen	schön	schroff	faul	strafen	fanatisch	leiden	schlecht	helfen	tolerant	loyal	retten	ehrlich	treu	hindern	tyrannisch	lasch	rächen	eitel	tot	1	blank2r.bmp	0	1	+	0	1	blank2r.bmp	500	1	BMVZ	500	1	blank2r.bmp	880	1	schroff	880	1	!	1232	1	!	1288	0	0	0	0	0	0
2024-05-15	11:37:29	11:45:44	494594	6.6.1	4_exp_EVA_AWA_CON	35	B	A	Rpleas_acq	Same	Rpleas	2pleas	acq_US_pleas_nomask	acq45_nomask	5	18	400	1	300	300	0	0	361	50	1	0	schlau	fair	spielen	freundlich	lachen	schön	schroff	faul	strafen	fanatisch	leiden	schlecht	helfen	tolerant	loyal	retten	ehrlich	treu	hindern	tyrannisch	lasch	rächen	eitel	tot	1	blank2r.bmp	0	1	+	0	1	blank2r.bmp	500	1	GKQX	500	1	blank2r.bmp	880	4	freundlich	880	1	!	1233	1	!	1262	0	0	0	0	0	0
2024-05-15	11:37:29	11:45:46	496777	6.6.1	4_exp_EVA_AWA_CON	35	B	A	Rpleas_acq	Same	Rpleas	2pleas	acq_US_pleas_nomask	acq45_nomask	5	19	400	1	300	300	0	0	403	50	1	0	schlau	fair	spielen	freundlich	lachen	schön	schroff	faul	strafen	fanatisch	leiden	schlecht	helfen	tolerant	loyal	retten	ehrlich	treu	hindern	tyrannisch	lasch	rächen	eitel	tot	1	blank2r.bmp	0	1	+	0	1	blank2r.bmp	500	1	GKQX	500	1	blank2r.bmp	880	5	lachen	880	1	!	1232	1	!	1305	0	0	0	0	0	0
2024-05-15	11:37:29	11:45:48	498800	6.6.1	4_exp_EVA_AWA_CON	35	B	A	Rpleas_acq	Same	Rpleas	2pleas	acq_US_unple_nomask	acq45_nomask	5	20	400	0	300	300	0	0	246	46	1	0	schlau	fair	spielen	freundlich	lachen	schön	schroff	faul	strafen	fanatisch	leiden	schlecht	helfen	tolerant	loyal	retten	ehrlich	treu	hindern	tyrannisch	lasch	rächen	eitel	tot	1	blank2r.bmp	0	1	+	0	1	blank2r.bmp	500	1	BMVZ	500	1	blank2r.bmp	880	6	schlecht	880	1	!	-1	1	!	-1	0	0	0	0	0	0
2024-05-15	11:37:29	11:45:50	500986	6.6.1	4_exp_EVA_AWA_CON	35	B	A	Rpleas_acq	Same	Rpleas	2pleas	acq_US_unple_nomask	acq45_nomask	5	21	400	1	300	300	0	0	409	46	1	0	schlau	fair	spielen	freundlich	lachen	schön	schroff	faul	strafen	fanatisch	leiden	schlecht	helfen	tolerant	loyal	retten	ehrlich	treu	hindern	tyrannisch	lasch	rächen	eitel	tot	1	blank2r.bmp	0	1	+	0	1	blank2r.bmp	500	1	BMVZ	500	1	blank2r.bmp	880	2	faul	880	1	!	1232	1	!	1310	0	0	0	0	0	0
2024-05-15	11:37:29	11:45:53	503238	6.6.1	4_exp_EVA_AWA_CON	35	B	A	Rpleas_acq	Same	Rpleas	2pleas	acq_US_unple_nomask	acq45_nomask	5	22	400	0	300	300	0	0	473	46	1	0	schlau	fair	spielen	freundlich	lachen	schön	schroff	faul	strafen	fanatisch	leiden	schlecht	helfen	tolerant	loyal	retten	ehrlich	treu	hindern	tyrannisch	lasch	rächen	eitel	tot	1	blank2r.bmp	0	1	+	0	1	blank2r.bmp	500	1	BMVZ	500	1	blank2r.bmp	880	4	fanatisch	880	1	!	1232	1	!	-1	0	0	0	0	0	0
2024-05-15	11:37:29	11:45:55	505425	6.6.1	4_exp_EVA_AWA_CON	35	B	A	Rpleas_acq	Same	Rpleas	2pleas	acq_US_unple_nomask	acq45_nomask	5	23	400	1	300	300	0	0	406	46	1	0	schlau	fair	spielen	freundlich	lachen	schön	schroff	faul	strafen	fanatisch	leiden	schlecht	helfen	tolerant	loyal	retten	ehrlich	treu	hindern	tyrannisch	lasch	rächen	eitel	tot	1	blank2r.bmp	0	1	+	0	1	blank2r.bmp	500	1	BMVZ	500	1	blank2r.bmp	880	1	schroff	880	1	!	1232	1	!	1307	0	0	0	0	0	0
2024-05-15	11:37:29	11:45:57	507617	6.6.1	4_exp_EVA_AWA_CON	35	B	A	Rpleas_acq	Same	Rpleas	2pleas	acq_US_pleas_nomask	acq45_nomask	5	24	400	1	300	300	0	0	416	50	1	0	schlau	fair	spielen	freundlich	lachen	schön	schroff	faul	strafen	fanatisch	leiden	schlecht	helfen	tolerant	loyal	retten	ehrlich	treu	hindern	tyrannisch	lasch	rächen	eitel	tot	1	blank2r.bmp	0	1	+	0	1	blank2r.bmp	500	1	GKQX	500	1	blank2r.bmp	880	6	schön	880	1	!	1232	1	!	1318	0	0	0	0	0	0
2024-05-15	11:37:29	11:45:59	509778	6.6.1	4_exp_EVA_AWA_CON	35	B	A	Rpleas_acq	Same	Rpleas	2pleas	acq_US_unple_nomask	acq45_nomask	5	25	400	1	300	300	0	0	386	46	1	0	schlau	fair	spielen	freundlich	lachen	schön	schroff	faul	strafen	fanatisch	leiden	schlecht	helfen	tolerant	loyal	retten	ehrlich	treu	hindern	tyrannisch	lasch	rächen	eitel	tot	1	blank2r.bmp	0	1	+	0	1	blank2r.bmp	500	1	BMVZ	500	1	blank2r.bmp	880	2	faul	880	1	!	1232	1	!	1287	0	0	0	0	0	0
2024-05-15	11:37:29	11:46:01	512024	6.6.1	4_exp_EVA_AWA_CON	35	B	A	Rpleas_acq	Same	Rpleas	2pleas	acq_US_pleas_nomask	acq45_nomask	5	26	400	0	300	300	0	0	474	46	0	0	schlau	fair	spielen	freundlich	lachen	schön	schroff	faul	strafen	fanatisch	leiden	schlecht	helfen	tolerant	loyal	retten	ehrlich	treu	hindern	tyrannisch	lasch	rächen	eitel	tot	1	blank2r.bmp	0	1	+	0	1	blank2r.bmp	500	1	GKQX	500	1	blank2r.bmp	880	2	fair	880	1	!	1232	1	!	-1	0	0	0	0	0	0
2024-05-15	11:37:29	11:46:04	514194	6.6.1	4_exp_EVA_AWA_CON	35	B	A	Rpleas_acq	Same	Rpleas	2pleas	acq_US_pleas_nomask	acq45_nomask	5	27	400	1	300	300	0	0	388	50	1	0	schlau	fair	spielen	freundlich	lachen	schön	schroff	faul	strafen	fanatisch	leiden	schlecht	helfen	tolerant	loyal	retten	ehrlich	treu	hindern	tyrannisch	lasch	rächen	eitel	tot	1	blank2r.bmp	0	1	+	0	1	blank2r.bmp	500	1	GKQX	500	1	blank2r.bmp	880	3	spielen	880	1	!	1232	1	!	1290	0	0	0	0	0	0
2024-05-15	11:37:29	11:46:06	516329	6.6.1	4_exp_EVA_AWA_CON	35	B	A	Rpleas_acq	Same	Rpleas	2pleas	acq_US_pleas_nomask	acq45_nomask	5	28	400	1	300	300	0	0	353	46	0	0	schlau	fair	spielen	freundlich	lachen	schön	schroff	faul	strafen	fanatisch	leiden	schlecht	helfen	tolerant	loyal	retten	ehrlich	treu	hindern	tyrannisch	lasch	rächen	eitel	tot	1	blank2r.bmp	0	1	+	0	1	blank2r.bmp	500	1	GKQX	500	1	blank2r.bmp	880	2	fair	880	1	!	1232	1	!	1254	0	0	0	0	0	0
2024-05-15	11:37:29	11:46:08	518458	6.6.1	4_exp_EVA_AWA_CON	35	B	A	Rpleas_acq	Same	Rpleas	2pleas	acq_US_pleas_nomask	acq45_nomask	5	29	400	1	300	300	0	0	349	50	1	0	schlau	fair	spielen	freundlich	lachen	schön	schroff	faul	strafen	fanatisch	leiden	schlecht	helfen	tolerant	loyal	retten	ehrlich	treu	hindern	tyrannisch	lasch	rächen	eitel	tot	1	blank2r.bmp	0	1	+	0	1	blank2r.bmp	500	1	GKQX	500	1	blank2r.bmp	880	6	schön	880	1	!	1232	1	!	1251	0	0	0	0	0	0
2024-05-15	11:37:29	11:46:10	520650	6.6.1	4_exp_EVA_AWA_CON	35	B	A	Rpleas_acq	Same	Rpleas	2pleas	acq_US_unple_nomask	acq45_nomask	5	30	400	1	300	300	0	0	410	46	1	0	schlau	fair	spielen	freundlich	lachen	schön	schroff	faul	strafen	fanatisch	leiden	schlecht	helfen	tolerant	loyal	retten	ehrlich	treu	hindern	tyrannisch	lasch	rächen	eitel	tot	1	blank2r.bmp	0	1	+	0	1	blank2r.bmp	500	1	BMVZ	500	1	blank2r.bmp	880	5	leiden	880	1	!	1232	1	!	1312	0	0	0	0	0	0
2024-05-15	11:37:29	11:46:12	522810	6.6.1	4_exp_EVA_AWA_CON	35	B	A	Rpleas_acq	Same	Rpleas	2pleas	acq_US_pleas_nomask	acq45_nomask	5	31	400	1	300	300	0	0	378	50	1	0	schlau	fair	spielen	freundlich	lachen	schön	schroff	faul	strafen	fanatisch	leiden	schlecht	helfen	tolerant	loyal	retten	ehrlich	treu	hindern	tyrannisch	lasch	rächen	eitel	tot	1	blank2r.bmp	0	1	+	0	1	blank2r.bmp	500	1	GKQX	500	1	blank2r.bmp	880	1	schlau	880	1	!	1232	1	!	1280	0	0	0	0	0	0
2024-05-15	11:37:29	11:46:15	525049	6.6.1	4_exp_EVA_AWA_CON	35	B	A	Rpleas_acq	Same	Rpleas	2pleas	acq_US_pleas_nomask	acq45_nomask	5	32	400	1	300	300	0	0	457	50	1	0	schlau	fair	spielen	freundlich	lachen	schön	schroff	faul	strafen	fanatisch	leiden	schlecht	helfen	tolerant	loyal	retten	ehrlich	treu	hindern	tyrannisch	lasch	rächen	eitel	tot	1	blank2r.bmp	0	1	+	0	1	blank2r.bmp	500	1	GKQX	500	1	blank2r.bmp	880	5	lachen	880	1	!	1232	1	!	1359	0	0	0	0	0	0
2024-05-15	11:37:29	11:46:17	527352	6.6.1	4_exp_EVA_AWA_CON	35	B	A	Rpleas_acq	Same	Rpleas	2pleas	acq_US_unple_nomask	acq45_nomask	5	33	400	0	300	300	0	0	530	46	1	0	schlau	fair	spielen	freundlich	lachen	schön	schroff	faul	strafen	fanatisch	leiden	schlecht	helfen	tolerant	loyal	retten	ehrlich	treu	hindern	tyrannisch	lasch	rächen	eitel	tot	1	blank2r.bmp	0	1	+	0	1	blank2r.bmp	500	1	BMVZ	500	1	blank2r.bmp	880	4	fanatisch	880	1	!	1233	1	!	-1	0	0	0	0	0	0
2024-05-15	11:37:29	11:46:19	529594	6.6.1	4_exp_EVA_AWA_CON	35	B	A	Rpleas_acq	Same	Rpleas	2pleas	acq_US_pleas_nomask	acq45_nomask	5	34	400	1	300	300	0	0	458	50	1	0	schlau	fair	spielen	freundlich	lachen	schön	schroff	faul	strafen	fanatisch	leiden	schlecht	helfen	tolerant	loyal	retten	ehrlich	treu	hindern	tyrannisch	lasch	rächen	eitel	tot	1	blank2r.bmp	0	1	+	0	1	blank2r.bmp	500	1	GKQX	500	1	blank2r.bmp	880	4	freundlich	880	1	!	1232	1	!	1360	0	0	0	0	0	0
2024-05-15	11:37:29	11:46:21	531769	6.6.1	4_exp_EVA_AWA_CON	35	B	A	Rpleas_acq	Same	Rpleas	2pleas	acq_US_unple_nomask	acq45_nomask	5	35	400	1	300	300	0	0	393	46	1	0	schlau	fair	spielen	freundlich	lachen	schön	schroff	faul	strafen	fanatisch	leiden	schlecht	helfen	tolerant	loyal	retten	ehrlich	treu	hindern	tyrannisch	lasch	rächen	eitel	tot	1	blank2r.bmp	0	1	+	0	1	blank2r.bmp	500	1	BMVZ	500	1	blank2r.bmp	880	3	strafen	880	1	!	1233	1	!	1294	0	0	0	0	0	0
2024-05-15	11:37:29	11:46:23	533921	6.6.1	4_exp_EVA_AWA_CON	35	B	A	Rpleas_acq	Same	Rpleas	2pleas	acq_US_unple_nomask	acq45_nomask	5	36	400	1	300	300	0	0	373	50	0	0	schlau	fair	spielen	freundlich	lachen	schön	schroff	faul	strafen	fanatisch	leiden	schlecht	helfen	tolerant	loyal	retten	ehrlich	treu	hindern	tyrannisch	lasch	rächen	eitel	tot	1	blank2r.bmp	0	1	+	0	1	blank2r.bmp	500	1	BMVZ	500	1	blank2r.bmp	880	6	schlecht	880	1	!	1232	1	!	1275	0	0	0	0	0	0
2024-05-15	11:37:29	11:46:40	550444	6.6.1	4_exp_EVA_AWA_CON	35	B	A	Rpleas_acq	Same	Rpleas	2pleas	EvalRating_firsttwo	EvalRating_firsttwo	6	1	0	0	300	300	0	0	3180	line	0	19,7916666666666714036pct	schlau	fair	spielen	freundlich	lachen	schön	schroff	faul	strafen	fanatisch	leiden	schlecht	helfen	tolerant	loyal	retten	ehrlich	treu	hindern	tyrannisch	lasch	rächen	eitel	tot	1		-8	1	Wie angenehm oder unangenehm finden Sie die  Buchstabenkette ZGVK?	-8	1		-8	1		-8	1		-8	1	Unangenehm	-8	1	Angenehm	-8	0	0	0	0	0	0	0	0	0
2024-05-15	11:37:29	11:46:45	555428	6.6.1	4_exp_EVA_AWA_CON	35	B	A	Rpleas_acq	Same	Rpleas	2pleas	EvalRating_lastfour	EvalRating_lastfour	7	1	0	0	300	300	0	0	2610	line	0	41,40625pct	schlau	fair	spielen	freundlich	lachen	schön	schroff	faul	strafen	fanatisch	leiden	schlecht	helfen	tolerant	loyal	retten	ehrlich	treu	hindern	tyrannisch	lasch	rächen	eitel	tot	1		-8	1	Wie angenehm oder unangenehm finden Sie die  Buchstabenkette BMVZ?	-8	1		-8	1		-8	1		-8	1	Unangenehm	-8	1	Angenehm	-8	0	0	0	0	0	0	0	0	0
2024-05-15	11:37:29	11:46:47	557793	6.6.1	4_exp_EVA_AWA_CON	35	B	A	Rpleas_acq	Same	Rpleas	2pleas	blank_screen	EvalRating_lastfour	7	3	0	0	300	300	0	0	0	0	0	41,40625pct	schlau	fair	spielen	freundlich	lachen	schön	schroff	faul	strafen	fanatisch	leiden	schlecht	helfen	tolerant	loyal	retten	ehrlich	treu	hindern	tyrannisch	lasch	rächen	eitel	tot	1		-8	0	0	0	0	0	0	0	0	0	0	0	0	0	0	0	0	0	0	0	0	0	0	0	0	0	0	0
2024-05-15	11:37:29	11:46:50	560324	6.6.1	4_exp_EVA_AWA_CON	35	B	A	Rpleas_acq	Same	Rpleas	2pleas	EvalRating_lastfour	EvalRating_lastfour	7	4	0	0	300	300	0	0	1943	line	0	27,6041666666666714036pct	schlau	fair	spielen	freundlich	lachen	schön	schroff	faul	strafen	fanatisch	leiden	schlecht	helfen	tolerant	loyal	retten	ehrlich	treu	hindern	tyrannisch	lasch	rächen	eitel	tot	1		-8	2	Wie angenehm oder unangenehm finden Sie die  Buchstabenkette GKQX?	-8	1		-8	1		-8	1		-8	1	Unangenehm	-8	1	Angenehm	-8	0	0	0	0	0	0	0	0	0
2024-05-15	11:37:29	11:46:52	562696	6.6.1	4_exp_EVA_AWA_CON	35	B	A	Rpleas_acq	Same	Rpleas	2pleas	blank_screen	EvalRating_lastfour	7	6	0	0	300	300	0	0	0	0	0	27,6041666666666714036pct	schlau	fair	spielen	freundlich	lachen	schön	schroff	faul	strafen	fanatisch	leiden	schlecht	helfen	tolerant	loyal	retten	ehrlich	treu	hindern	tyrannisch	lasch	rächen	eitel	tot	1		-8	0	0	0	0	0	0	0	0	0	0	0	0	0	0	0	0	0	0	0	0	0	0	0	0	0	0	0
2024-05-15	11:37:29	11:46:57	567661	6.6.1	4_exp_EVA_AWA_CON	35	B	A	Rpleas_acq	Same	Rpleas	2pleas	EvalRating_lastfour	EvalRating_lastfour	7	7	0	0	300	300	0	0	4377	line	0	-18,2291666666666571928pct	schlau	fair	spielen	freundlich	lachen	schön	schroff	faul	strafen	fanatisch	leiden	schlecht	helfen	tolerant	loyal	retten	ehrlich	treu	hindern	tyrannisch	lasch	rächen	eitel	tot	1		-8	3	Wie angenehm oder unangenehm finden Sie die  Buchstabenkette XBQM?	-8	1		-8	1		-8	1		-8	1	Unangenehm	-8	1	Angenehm	-8	0	0	0	0	0	0	0	0	0
2024-05-15	11:37:29	11:47:25	595055	6.6.1	4_exp_EVA_AWA_CON	35	B	A	Rpleas_acq	Same	Rpleas	2pleas	conawa_CS2_US4	conawa1_nomask	8	1	0	0	300	300	0	0	7405	freundlich	1	-18,2291666666666571928pct	schlau	fair	spielen	freundlich	lachen	schön	schroff	faul	strafen	fanatisch	leiden	schlecht	helfen	tolerant	loyal	retten	ehrlich	treu	hindern	tyrannisch	lasch	rächen	eitel	tot	0	0	0	0	0	0	0	0	0	0	0	0	0	0	0	0	0	0	0	0	0	0	0	0	0	0	0	0	0	0
2024-05-15	11:37:29	11:47:25	595057	6.6.1	4_exp_EVA_AWA_CON	35	B	A	Rpleas_acq	Same	Rpleas	2pleas	conawa_CS2_US4_confidence	conawa1_nomask	8	1	0	0	300	300	0	0	7405	guess	1	-18,2291666666666571928pct	schlau	fair	spielen	freundlich	lachen	schön	schroff	faul	strafen	fanatisch	leiden	schlecht	helfen	tolerant	loyal	retten	ehrlich	treu	hindern	tyrannisch	lasch	rächen	eitel	tot	0	0	0	0	0	0	0	0	0	0	0	0	0	0	0	0	0	0	0	0	0	0	0	0	0	0	0	0	0	0
2024-05-15	11:37:29	11:47:29	599798	6.6.1	4_exp_EVA_AWA_CON	35	B	A	Rpleas_acq	Same	Rpleas	2pleas	conawa_CS1_US3	conawa1_nomask	8	2	0	0	300	300	0	0	4124	spielen	1	-18,2291666666666571928pct	schlau	fair	spielen	freundlich	lachen	schön	schroff	faul	strafen	fanatisch	leiden	schlecht	helfen	tolerant	loyal	retten	ehrlich	treu	hindern	tyrannisch	lasch	rächen	eitel	tot	0	0	0	0	0	0	0	0	0	0	0	0	0	0	0	0	0	0	0	0	0	0	0	0	0	0	0	0	0	0
2024-05-15	11:37:29	11:47:29	599800	6.6.1	4_exp_EVA_AWA_CON	35	B	A	Rpleas_acq	Same	Rpleas	2pleas	conawa_CS1_US3_confidence	conawa1_nomask	8	2	0	0	300	300	0	0	4124	guess	1	-18,2291666666666571928pct	schlau	fair	spielen	freundlich	lachen	schön	schroff	faul	strafen	fanatisch	leiden	schlecht	helfen	tolerant	loyal	retten	ehrlich	treu	hindern	tyrannisch	lasch	rächen	eitel	tot	0	0	0	0	0	0	0	0	0	0	0	0	0	0	0	0	0	0	0	0	0	0	0	0	0	0	0	0	0	0
2024-05-15	11:37:29	11:47:34	604862	6.6.1	4_exp_EVA_AWA_CON	35	B	A	Rpleas_acq	Same	Rpleas	2pleas	conawa_CS1_US6	conawa1_nomask	8	3	0	0	300	300	0	0	4447	tot	1	-18,2291666666666571928pct	schlau	fair	spielen	freundlich	lachen	schön	schroff	faul	strafen	fanatisch	leiden	schlecht	helfen	tolerant	loyal	retten	ehrlich	treu	hindern	tyrannisch	lasch	rächen	eitel	tot	0	0	0	0	0	0	0	0	0	0	0	0	0	0	0	0	0	0	0	0	0	0	0	0	0	0	0	0	0	0
2024-05-15	11:37:29	11:47:34	604863	6.6.1	4_exp_EVA_AWA_CON	35	B	A	Rpleas_acq	Same	Rpleas	2pleas	conawa_CS1_US6_confidence	conawa1_nomask	8	3	0	0	300	300	0	0	4447	guess	1	-18,2291666666666571928pct	schlau	fair	spielen	freundlich	lachen	schön	schroff	faul	strafen	fanatisch	leiden	schlecht	helfen	tolerant	loyal	retten	ehrlich	treu	hindern	tyrannisch	lasch	rächen	eitel	tot	0	0	0	0	0	0	0	0	0	0	0	0	0	0	0	0	0	0	0	0	0	0	0	0	0	0	0	0	0	0
2024-05-15	11:37:29	11:47:40	610225	6.6.1	4_exp_EVA_AWA_CON	35	B	A	Rpleas_acq	Same	Rpleas	2pleas	conawa_CS1_US4	conawa1_nomask	8	4	0	0	300	300	0	0	4745	freundlich	1	-18,2291666666666571928pct	schlau	fair	spielen	freundlich	lachen	schön	schroff	faul	strafen	fanatisch	leiden	schlecht	helfen	tolerant	loyal	retten	ehrlich	treu	hindern	tyrannisch	lasch	rächen	eitel	tot	0	0	0	0	0	0	0	0	0	0	0	0	0	0	0	0	0	0	0	0	0	0	0	0	0	0	0	0	0	0
2024-05-15	11:37:29	11:47:40	610226	6.6.1	4_exp_EVA_AWA_CON	35	B	A	Rpleas_acq	Same	Rpleas	2pleas	conawa_CS1_US4_confidence	conawa1_nomask	8	4	0	0	300	300	0	0	4745	guess	1	-18,2291666666666571928pct	schlau	fair	spielen	freundlich	lachen	schön	schroff	faul	strafen	fanatisch	leiden	schlecht	helfen	tolerant	loyal	retten	ehrlich	treu	hindern	tyrannisch	lasch	rächen	eitel	tot	0	0	0	0	0	0	0	0	0	0	0	0	0	0	0	0	0	0	0	0	0	0	0	0	0	0	0	0	0	0
2024-05-15	11:37:29	11:47:44	614147	6.6.1	4_exp_EVA_AWA_CON	35	B	A	Rpleas_acq	Same	Rpleas	2pleas	conawa_CS1_US1	conawa1_nomask	8	5	0	0	300	300	0	0	3309	helfen	1	-18,2291666666666571928pct	schlau	fair	spielen	freundlich	lachen	schön	schroff	faul	strafen	fanatisch	leiden	schlecht	helfen	tolerant	loyal	retten	ehrlich	treu	hindern	tyrannisch	lasch	rächen	eitel	tot	0	0	0	0	0	0	0	0	0	0	0	0	0	0	0	0	0	0	0	0	0	0	0	0	0	0	0	0	0	0
2024-05-15	11:37:29	11:47:44	614149	6.6.1	4_exp_EVA_AWA_CON	35	B	A	Rpleas_acq	Same	Rpleas	2pleas	conawa_CS1_US1_confidence	conawa1_nomask	8	5	0	0	300	300	0	0	3309	guess	1	-18,2291666666666571928pct	schlau	fair	spielen	freundlich	lachen	schön	schroff	faul	strafen	fanatisch	leiden	schlecht	helfen	tolerant	loyal	retten	ehrlich	treu	hindern	tyrannisch	lasch	rächen	eitel	tot	0	0	0	0	0	0	0	0	0	0	0	0	0	0	0	0	0	0	0	0	0	0	0	0	0	0	0	0	0	0
2024-05-15	11:37:29	11:47:48	618070	6.6.1	4_exp_EVA_AWA_CON	35	B	A	Rpleas_acq	Same	Rpleas	2pleas	conawa_CS2_US5	conawa1_nomask	8	6	0	0	300	300	0	0	3308	leiden	1	-18,2291666666666571928pct	schlau	fair	spielen	freundlich	lachen	schön	schroff	faul	strafen	fanatisch	leiden	schlecht	helfen	tolerant	loyal	retten	ehrlich	treu	hindern	tyrannisch	lasch	rächen	eitel	tot	0	0	0	0	0	0	0	0	0	0	0	0	0	0	0	0	0	0	0	0	0	0	0	0	0	0	0	0	0	0
2024-05-15	11:37:29	11:47:48	618072	6.6.1	4_exp_EVA_AWA_CON	35	B	A	Rpleas_acq	Same	Rpleas	2pleas	conawa_CS2_US5_confidence	conawa1_nomask	8	6	0	0	300	300	0	0	3308	guess	1	-18,2291666666666571928pct	schlau	fair	spielen	freundlich	lachen	schön	schroff	faul	strafen	fanatisch	leiden	schlecht	helfen	tolerant	loyal	retten	ehrlich	treu	hindern	tyrannisch	lasch	rächen	eitel	tot	0	0	0	0	0	0	0	0	0	0	0	0	0	0	0	0	0	0	0	0	0	0	0	0	0	0	0	0	0	0
2024-05-15	11:37:29	11:47:51	621933	6.6.1	4_exp_EVA_AWA_CON	35	B	A	Rpleas_acq	Same	Rpleas	2pleas	conawa_CS2_US2	conawa1_nomask	8	7	0	0	300	300	0	0	3248	lasch	1	-18,2291666666666571928pct	schlau	fair	spielen	freundlich	lachen	schön	schroff	faul	strafen	fanatisch	leiden	schlecht	helfen	tolerant	loyal	retten	ehrlich	treu	hindern	tyrannisch	lasch	rächen	eitel	tot	0	0	0	0	0	0	0	0	0	0	0	0	0	0	0	0	0	0	0	0	0	0	0	0	0	0	0	0	0	0
2024-05-15	11:37:29	11:47:51	621934	6.6.1	4_exp_EVA_AWA_CON	35	B	A	Rpleas_acq	Same	Rpleas	2pleas	conawa_CS2_US2_confidence	conawa1_nomask	8	7	0	0	300	300	0	0	3248	guess	1	-18,2291666666666571928pct	schlau	fair	spielen	freundlich	lachen	schön	schroff	faul	strafen	fanatisch	leiden	schlecht	helfen	tolerant	loyal	retten	ehrlich	treu	hindern	tyrannisch	lasch	rächen	eitel	tot	0	0	0	0	0	0	0	0	0	0	0	0	0	0	0	0	0	0	0	0	0	0	0	0	0	0	0	0	0	0
2024-05-15	11:37:29	11:47:54	625005	6.6.1	4_exp_EVA_AWA_CON	35	B	A	Rpleas_acq	Same	Rpleas	2pleas	conawa_CS2_US1	conawa1_nomask	8	8	0	0	300	300	0	0	2459	schlau	1	-18,2291666666666571928pct	schlau	fair	spielen	freundlich	lachen	schön	schroff	faul	strafen	fanatisch	leiden	schlecht	helfen	tolerant	loyal	retten	ehrlich	treu	hindern	tyrannisch	lasch	rächen	eitel	tot	0	0	0	0	0	0	0	0	0	0	0	0	0	0	0	0	0	0	0	0	0	0	0	0	0	0	0	0	0	0
2024-05-15	11:37:29	11:47:54	625006	6.6.1	4_exp_EVA_AWA_CON	35	B	A	Rpleas_acq	Same	Rpleas	2pleas	conawa_CS2_US1_confidence	conawa1_nomask	8	8	0	0	300	300	0	0	2459	guess	1	-18,2291666666666571928pct	schlau	fair	spielen	freundlich	lachen	schön	schroff	faul	strafen	fanatisch	leiden	schlecht	helfen	tolerant	loyal	retten	ehrlich	treu	hindern	tyrannisch	lasch	rächen	eitel	tot	0	0	0	0	0	0	0	0	0	0	0	0	0	0	0	0	0	0	0	0	0	0	0	0	0	0	0	0	0	0
2024-05-15	11:37:29	11:47:58	628226	6.6.1	4_exp_EVA_AWA_CON	35	B	A	Rpleas_acq	Same	Rpleas	2pleas	conawa_CS1_US2	conawa1_nomask	8	9	0	0	300	300	0	0	2600	fair	1	-18,2291666666666571928pct	schlau	fair	spielen	freundlich	lachen	schön	schroff	faul	strafen	fanatisch	leiden	schlecht	helfen	tolerant	loyal	retten	ehrlich	treu	hindern	tyrannisch	lasch	rächen	eitel	tot	0	0	0	0	0	0	0	0	0	0	0	0	0	0	0	0	0	0	0	0	0	0	0	0	0	0	0	0	0	0
2024-05-15	11:37:29	11:47:58	628228	6.6.1	4_exp_EVA_AWA_CON	35	B	A	Rpleas_acq	Same	Rpleas	2pleas	conawa_CS1_US2_confidence	conawa1_nomask	8	9	0	0	300	300	0	0	2600	guess	1	-18,2291666666666571928pct	schlau	fair	spielen	freundlich	lachen	schön	schroff	faul	strafen	fanatisch	leiden	schlecht	helfen	tolerant	loyal	retten	ehrlich	treu	hindern	tyrannisch	lasch	rächen	eitel	tot	0	0	0	0	0	0	0	0	0	0	0	0	0	0	0	0	0	0	0	0	0	0	0	0	0	0	0	0	0	0
2024-05-15	11:37:29	11:48:00	630948	6.6.1	4_exp_EVA_AWA_CON	35	B	A	Rpleas_acq	Same	Rpleas	2pleas	conawa_CS1_US5	conawa1_nomask	8	10	0	0	300	300	0	0	2109	leiden	1	-18,2291666666666571928pct	schlau	fair	spielen	freundlich	lachen	schön	schroff	faul	strafen	fanatisch	leiden	schlecht	helfen	tolerant	loyal	retten	ehrlich	treu	hindern	tyrannisch	lasch	rächen	eitel	tot	0	0	0	0	0	0	0	0	0	0	0	0	0	0	0	0	0	0	0	0	0	0	0	0	0	0	0	0	0	0
2024-05-15	11:37:29	11:48:00	630950	6.6.1	4_exp_EVA_AWA_CON	35	B	A	Rpleas_acq	Same	Rpleas	2pleas	conawa_CS1_US5_confidence	conawa1_nomask	8	10	0	0	300	300	0	0	2109	guess	1	-18,2291666666666571928pct	schlau	fair	spielen	freundlich	lachen	schön	schroff	faul	strafen	fanatisch	leiden	schlecht	helfen	tolerant	loyal	retten	ehrlich	treu	hindern	tyrannisch	lasch	rächen	eitel	tot	0	0	0	0	0	0	0	0	0	0	0	0	0	0	0	0	0	0	0	0	0	0	0	0	0	0	0	0	0	0
2024-05-15	11:37:29	11:48:03	633530	6.6.1	4_exp_EVA_AWA_CON	35	B	A	Rpleas_acq	Same	Rpleas	2pleas	conawa_CS2_US3	conawa1_nomask	8	11	0	0	300	300	0	0	1964	spielen	1	-18,2291666666666571928pct	schlau	fair	spielen	freundlich	lachen	schön	schroff	faul	strafen	fanatisch	leiden	schlecht	helfen	tolerant	loyal	retten	ehrlich	treu	hindern	tyrannisch	lasch	rächen	eitel	tot	0	0	0	0	0	0	0	0	0	0	0	0	0	0	0	0	0	0	0	0	0	0	0	0	0	0	0	0	0	0
2024-05-15	11:37:29	11:48:03	633532	6.6.1	4_exp_EVA_AWA_CON	35	B	A	Rpleas_acq	Same	Rpleas	2pleas	conawa_CS2_US3_confidence	conawa1_nomask	8	11	0	0	300	300	0	0	1964	guess	1	-18,2291666666666571928pct	schlau	fair	spielen	freundlich	lachen	schön	schroff	faul	strafen	fanatisch	leiden	schlecht	helfen	tolerant	loyal	retten	ehrlich	treu	hindern	tyrannisch	lasch	rächen	eitel	tot	0	0	0	0	0	0	0	0	0	0	0	0	0	0	0	0	0	0	0	0	0	0	0	0	0	0	0	0	0	0
2024-05-15	11:37:29	11:48:06	636952	6.6.1	4_exp_EVA_AWA_CON	35	B	A	Rpleas_acq	Same	Rpleas	2pleas	conawa_CS2_US6	conawa1_nomask	8	12	0	0	300	300	0	0	2806	schlecht	1	-18,2291666666666571928pct	schlau	fair	spielen	freundlich	lachen	schön	schroff	faul	strafen	fanatisch	leiden	schlecht	helfen	tolerant	loyal	retten	ehrlich	treu	hindern	tyrannisch	lasch	rächen	eitel	tot	0	0	0	0	0	0	0	0	0	0	0	0	0	0	0	0	0	0	0	0	0	0	0	0	0	0	0	0	0	0
2024-05-15	11:37:29	11:48:06	636958	6.6.1	4_exp_EVA_AWA_CON	35	B	A	Rpleas_acq	Same	Rpleas	2pleas	conawa_CS2_US6_confidence	conawa1_nomask	8	12	0	0	300	300	0	0	2806	guess	1	-18,2291666666666571928pct	schlau	fair	spielen	freundlich	lachen	schön	schroff	faul	strafen	fanatisch	leiden	schlecht	helfen	tolerant	loyal	retten	ehrlich	treu	hindern	tyrannisch	lasch	rächen	eitel	tot	0	0	0	0	0	0	0	0	0	0	0	0	0	0	0	0	0	0	0	0	0	0	0	0	0	0	0	0	0	0
2024-05-15	11:37:29	11:48:51	681864	6.6.1	4_exp_EVA_AWA_CON	35	B	A	Rpleas_acq	Same	Rpleas	2pleas	cond_new_unple_456_nomask_CS2	condtest_nomask_1	11	1	400	0	300	300	0	0	793	46	1	-18,2291666666666571928pct	schlau	fair	spielen	freundlich	lachen	schön	schroff	faul	strafen	fanatisch	leiden	schlecht	helfen	tolerant	loyal	retten	ehrlich	treu	hindern	tyrannisch	lasch	rächen	eitel	tot	1	blank2r.bmp	0	1	+	0	1	blank2r.bmp	500	1	GKQX	500	1	blank2r.bmp	880	2	rächen	880	1	!	1233	1	!	-1	0	0	0	0	0	0
2024-05-15	11:37:29	11:48:54	684065	6.6.1	4_exp_EVA_AWA_CON	35	B	A	Rpleas_acq	Same	Rpleas	2pleas	cond_US_pleas_123_nomask_CS2	condtest_nomask_1	11	2	400	1	300	300	0	0	421	50	1	-18,2291666666666571928pct	schlau	fair	spielen	freundlich	lachen	schön	schroff	faul	strafen	fanatisch	leiden	schlecht	helfen	tolerant	loyal	retten	ehrlich	treu	hindern	tyrannisch	lasch	rächen	eitel	tot	1	blank2r.bmp	0	1	+	0	1	blank2r.bmp	500	1	GKQX	500	1	blank2r.bmp	880	3	fair	880	1	!	1233	1	!	1323	0	0	0	0	0	0
2024-05-15	11:37:29	11:48:56	686313	6.6.1	4_exp_EVA_AWA_CON	35	B	A	Rpleas_acq	Same	Rpleas	2pleas	cond_US_unple_123_nomask_CS1	condtest_nomask_1	11	3	400	1	300	300	0	0	468	46	1	-18,2291666666666571928pct	schlau	fair	spielen	freundlich	lachen	schön	schroff	faul	strafen	fanatisch	leiden	schlecht	helfen	tolerant	loyal	retten	ehrlich	treu	hindern	tyrannisch	lasch	rächen	eitel	tot	1	blank2r.bmp	0	1	+	0	1	blank2r.bmp	500	1	BMVZ	500	1	blank2r.bmp	880	1	schroff	880	1	!	1232	1	!	1369	0	0	0	0	0	0
2024-05-15	11:37:29	11:48:58	688521	6.6.1	4_exp_EVA_AWA_CON	35	B	A	Rpleas_acq	Same	Rpleas	2pleas	cond_new_pleas_456_nomask_CS2	condtest_nomask_1	11	4	400	1	300	300	0	0	434	50	1	-18,2291666666666571928pct	schlau	fair	spielen	freundlich	lachen	schön	schroff	faul	strafen	fanatisch	leiden	schlecht	helfen	tolerant	loyal	retten	ehrlich	treu	hindern	tyrannisch	lasch	rächen	eitel	tot	1	blank2r.bmp	0	1	+	0	1	blank2r.bmp	500	1	GKQX	500	1	blank2r.bmp	880	2	retten	880	1	!	1233	1	!	1336	0	0	0	0	0	0
2024-05-15	11:37:29	11:49:00	690600	6.6.1	4_exp_EVA_AWA_CON	35	B	A	Rpleas_acq	Same	Rpleas	2pleas	cond_new_pleas_456_nomask_CS1	condtest_nomask_1	11	5	400	0	300	300	0	0	303	46	0	-18,2291666666666571928pct	schlau	fair	spielen	freundlich	lachen	schön	schroff	faul	strafen	fanatisch	leiden	schlecht	helfen	tolerant	loyal	retten	ehrlich	treu	hindern	tyrannisch	lasch	rächen	eitel	tot	1	blank2r.bmp	0	1	+	0	1	blank2r.bmp	500	1	BMVZ	500	1	blank2r.bmp	880	3	treu	880	1	!	-1	1	!	-1	0	0	0	0	0	0
2024-05-15	11:37:29	11:49:02	692762	6.6.1	4_exp_EVA_AWA_CON	35	B	A	Rpleas_acq	Same	Rpleas	2pleas	cond_US_unple_123_nomask_CS2	condtest_nomask_1	11	6	400	1	300	300	0	0	381	46	1	-18,2291666666666571928pct	schlau	fair	spielen	freundlich	lachen	schön	schroff	faul	strafen	fanatisch	leiden	schlecht	helfen	tolerant	loyal	retten	ehrlich	treu	hindern	tyrannisch	lasch	rächen	eitel	tot	1	blank2r.bmp	0	1	+	0	1	blank2r.bmp	500	1	GKQX	500	1	blank2r.bmp	880	3	faul	880	1	!	1232	1	!	1283	0	0	0	0	0	0
2024-05-15	11:37:29	11:49:04	694864	6.6.1	4_exp_EVA_AWA_CON	35	B	A	Rpleas_acq	Same	Rpleas	2pleas	cond_US_pleas_123_nomask_CS1	condtest_nomask_1	11	7	400	0	300	300	0	0	324	50	1	-18,2291666666666571928pct	schlau	fair	spielen	freundlich	lachen	schön	schroff	faul	strafen	fanatisch	leiden	schlecht	helfen	tolerant	loyal	retten	ehrlich	treu	hindern	tyrannisch	lasch	rächen	eitel	tot	1	blank2r.bmp	0	1	+	0	1	blank2r.bmp	500	1	BMVZ	500	1	blank2r.bmp	880	3	spielen	880	1	!	-1	1	!	-1	0	0	0	0	0	0
2024-05-15	11:37:29	11:49:06	696994	6.6.1	4_exp_EVA_AWA_CON	35	B	A	Rpleas_acq	Same	Rpleas	2pleas	cond_new_unple_456_nomask_CS1	condtest_nomask_1	11	8	400	1	300	300	0	0	351	46	1	-18,2291666666666571928pct	schlau	fair	spielen	freundlich	lachen	schön	schroff	faul	strafen	fanatisch	leiden	schlecht	helfen	tolerant	loyal	retten	ehrlich	treu	hindern	tyrannisch	lasch	rächen	eitel	tot	1	blank2r.bmp	0	1	+	0	1	blank2r.bmp	500	1	BMVZ	500	1	blank2r.bmp	880	3	tot	880	1	!	1233	1	!	1253	0	0	0	0	0	0
2024-05-15	11:37:29	11:49:15	705720	6.6.1	4_exp_EVA_AWA_CON	35	B	A	Rpleas_acq	Same	Rpleas	2pleas	cond_new_pleas_456_nomask_CS2	condtest_nomask_2	12	1	400	1	300	300	0	0	333	50	1	-18,2291666666666571928pct	schlau	fair	spielen	freundlich	lachen	schön	schroff	faul	strafen	fanatisch	leiden	schlecht	helfen	tolerant	loyal	retten	ehrlich	treu	hindern	tyrannisch	lasch	rächen	eitel	tot	1	blank2r.bmp	0	1	+	0	1	blank2r.bmp	500	1	GKQX	500	1	blank2r.bmp	880	3	ehrlich	880	1	!	1232	1	!	1233	0	0	0	0	0	0
