date	time	currenttime	elapsedtime	build	currentexpt	subject	CS_AB	US_AB	LRpleas_acq	SameOppo	condition_Lpleas	condition_1pleas	trialcode	blockcode	blocknum	trialnum	windowcenter	inwindow	pretrialpause	posttrialpause	trialduration	trialtimeout	latency	response	correct	correctedscore	US_nomask_pleas1	US_nomask_pleas2	US_nomask_pleas3	US_nomask_pleas4	US_nomask_pleas5	US_nomask_pleas6	US_nomask_unple1	US_nomask_unple2	US_nomask_unple3	US_nomask_unple4	US_nomask_unple5	US_nomask_unple6	new_nomask_pleas1	new_nomask_pleas2	new_nomask_pleas3	new_nomask_pleas4	new_nomask_pleas5	new_nomask_pleas6	new_nomask_unple1	new_nomask_unple2	new_nomask_unple3	new_nomask_unple4	new_nomask_unple5	new_nomask_unple6	stimulusnumber1	stimulusitem1	stimulusonset1	stimulusnumber2	stimulusitem2	stimulusonset2	stimulusnumber3	stimulusitem3	stimulusonset3	stimulusnumber4	stimulusitem4	stimulusonset4	stimulusnumber5	stimulusitem5	stimulusonset5	stimulusnumber6	stimulusitem6	stimulusonset6	stimulusnumber7	stimulusitem7	stimulusonset7	stimulusnumber8	stimulusitem8	stimulusonset8	stimulusnumber9	stimulusitem9	stimulusonset9	stimulusnumber10	stimulusitem10	stimulusonset10
2024-06-07	13:49:45	13:51:24	98987	6.6.1	4_exp_EVA_AWA_CON	74	A	B	Rpleas_acq	Oppo	Rpleas	1pleas	acq_US_pleas_nomask	acq1_nomask	1	1	0	0	300	300	0	0	898	50	1	0	engagiert	sonnig	anregung	kuss	gütig	vergnügt	engstirnig	sterben	ausrottung	krise	gierig	verbissen	kreativ	gesittet	vertrauen	genießen	träumen	besonnen	krank	geizig	versagen	gemein	töten	bange	1	blank2r.bmp	0	1	+	0	1	blank2r.bmp	500	1	CPLW	500	1	blank2r.bmp	880	2	sonnig	880	0	0	0	0	0	0	0	0	0	0	0	0
2024-06-07	13:49:45	13:51:26	101140	6.6.1	4_exp_EVA_AWA_CON	74	A	B	Rpleas_acq	Oppo	Rpleas	1pleas	acq_new_unple_nomask	acq1_nomask	1	2	0	0	300	300	0	0	669	46	1	0	engagiert	sonnig	anregung	kuss	gütig	vergnügt	engstirnig	sterben	ausrottung	krise	gierig	verbissen	kreativ	gesittet	vertrauen	genießen	träumen	besonnen	krank	geizig	versagen	gemein	töten	bange	1	blank2r.bmp	0	1	+	0	1	blank2r.bmp	500	6	C2r.bmp	500	1	blank2r.bmp	880	2	geizig	880	0	0	0	0	0	0	0	0	0	0	0	0
2024-06-07	13:49:45	13:51:28	103155	6.6.1	4_exp_EVA_AWA_CON	74	A	B	Rpleas_acq	Oppo	Rpleas	1pleas	acq_US_pleas_nomask	acq1_nomask	1	3	0	0	300	300	0	0	533	50	1	0	engagiert	sonnig	anregung	kuss	gütig	vergnügt	engstirnig	sterben	ausrottung	krise	gierig	verbissen	kreativ	gesittet	vertrauen	genießen	träumen	besonnen	krank	geizig	versagen	gemein	töten	bange	1	blank2r.bmp	0	1	+	0	1	blank2r.bmp	500	1	CPLW	500	1	blank2r.bmp	880	5	gütig	880	0	0	0	0	0	0	0	0	0	0	0	0
2024-06-07	13:49:45	13:51:30	105100	6.6.1	4_exp_EVA_AWA_CON	74	A	B	Rpleas_acq	Oppo	Rpleas	1pleas	acq_US_unple_nomask	acq1_nomask	1	4	0	0	300	300	0	0	456	46	1	0	engagiert	sonnig	anregung	kuss	gütig	vergnügt	engstirnig	sterben	ausrottung	krise	gierig	verbissen	kreativ	gesittet	vertrauen	genießen	träumen	besonnen	krank	geizig	versagen	gemein	töten	bange	1	blank2r.bmp	0	1	+	0	1	blank2r.bmp	500	1	DHJF	500	1	blank2r.bmp	880	6	verbissen	880	0	0	0	0	0	0	0	0	0	0	0	0
2024-06-07	13:49:45	13:51:32	107083	6.6.1	4_exp_EVA_AWA_CON	74	A	B	Rpleas_acq	Oppo	Rpleas	1pleas	acq_new_pleas_nomask	acq1_nomask	1	5	0	0	300	300	0	0	499	50	1	0	engagiert	sonnig	anregung	kuss	gütig	vergnügt	engstirnig	sterben	ausrottung	krise	gierig	verbissen	kreativ	gesittet	vertrauen	genießen	träumen	besonnen	krank	geizig	versagen	gemein	töten	bange	1	blank2r.bmp	0	1	+	0	1	blank2r.bmp	500	8	C4r.bmp	500	1	blank2r.bmp	880	5	träumen	880	0	0	0	0	0	0	0	0	0	0	0	0
2024-06-07	13:49:45	13:51:34	109076	6.6.1	4_exp_EVA_AWA_CON	74	A	B	Rpleas_acq	Oppo	Rpleas	1pleas	acq_US_pleas_nomask	acq1_nomask	1	6	0	0	300	300	0	0	510	50	1	0	engagiert	sonnig	anregung	kuss	gütig	vergnügt	engstirnig	sterben	ausrottung	krise	gierig	verbissen	kreativ	gesittet	vertrauen	genießen	träumen	besonnen	krank	geizig	versagen	gemein	töten	bange	1	blank2r.bmp	0	1	+	0	1	blank2r.bmp	500	1	CPLW	500	1	blank2r.bmp	880	4	kuss	880	0	0	0	0	0	0	0	0	0	0	0	0
2024-06-07	13:49:45	13:51:36	110940	6.6.1	4_exp_EVA_AWA_CON	74	A	B	Rpleas_acq	Oppo	Rpleas	1pleas	acq_new_pleas_nomask	acq1_nomask	1	7	0	0	300	300	0	0	382	50	1	0	engagiert	sonnig	anregung	kuss	gütig	vergnügt	engstirnig	sterben	ausrottung	krise	gierig	verbissen	kreativ	gesittet	vertrauen	genießen	träumen	besonnen	krank	geizig	versagen	gemein	töten	bange	1	blank2r.bmp	0	1	+	0	1	blank2r.bmp	500	1	B1r.bmp	500	1	blank2r.bmp	880	6	besonnen	880	0	0	0	0	0	0	0	0	0	0	0	0
2024-06-07	13:49:45	13:51:38	112844	6.6.1	4_exp_EVA_AWA_CON	74	A	B	Rpleas_acq	Oppo	Rpleas	1pleas	acq_new_pleas_nomask	acq1_nomask	1	8	0	0	300	300	0	0	415	50	1	0	engagiert	sonnig	anregung	kuss	gütig	vergnügt	engstirnig	sterben	ausrottung	krise	gierig	verbissen	kreativ	gesittet	vertrauen	genießen	träumen	besonnen	krank	geizig	versagen	gemein	töten	bange	1	blank2r.bmp	0	1	+	0	1	blank2r.bmp	500	7	C3r.bmp	500	1	blank2r.bmp	880	4	genießen	880	0	0	0	0	0	0	0	0	0	0	0	0
2024-06-07	13:49:45	13:51:40	114948	6.6.1	4_exp_EVA_AWA_CON	74	A	B	Rpleas_acq	Oppo	Rpleas	1pleas	acq_US_unple_nomask	acq1_nomask	1	9	0	0	300	300	0	0	418	50	0	0	engagiert	sonnig	anregung	kuss	gütig	vergnügt	engstirnig	sterben	ausrottung	krise	gierig	verbissen	kreativ	gesittet	vertrauen	genießen	träumen	besonnen	krank	geizig	versagen	gemein	töten	bange	1	blank2r.bmp	0	1	+	0	1	blank2r.bmp	500	1	DHJF	500	1	blank2r.bmp	880	3	ausrottung	880	1	FEHLER	1319	0	0	0	0	0	0	0	0	0
2024-06-07	13:49:45	13:51:42	116675	6.6.1	4_exp_EVA_AWA_CON	74	A	B	Rpleas_acq	Oppo	Rpleas	1pleas	acq_new_unple_nomask	acq1_nomask	1	10	0	0	300	300	0	0	445	46	1	0	engagiert	sonnig	anregung	kuss	gütig	vergnügt	engstirnig	sterben	ausrottung	krise	gierig	verbissen	kreativ	gesittet	vertrauen	genießen	träumen	besonnen	krank	geizig	versagen	gemein	töten	bange	1	blank2r.bmp	0	1	+	0	1	blank2r.bmp	500	2	B2r.bmp	500	1	blank2r.bmp	880	4	gemein	880	0	0	0	0	0	0	0	0	0	0	0	0
2024-06-07	13:49:45	13:51:44	118814	6.6.1	4_exp_EVA_AWA_CON	74	A	B	Rpleas_acq	Oppo	Rpleas	1pleas	acq_new_unple_nomask	acq1_nomask	1	11	0	0	300	300	0	0	449	50	0	0	engagiert	sonnig	anregung	kuss	gütig	vergnügt	engstirnig	sterben	ausrottung	krise	gierig	verbissen	kreativ	gesittet	vertrauen	genießen	träumen	besonnen	krank	geizig	versagen	gemein	töten	bange	1	blank2r.bmp	0	1	+	0	1	blank2r.bmp	500	3	B3r.bmp	500	1	blank2r.bmp	880	3	versagen	880	1	FEHLER	1352	0	0	0	0	0	0	0	0	0
2024-06-07	13:49:45	13:51:46	120644	6.6.1	4_exp_EVA_AWA_CON	74	A	B	Rpleas_acq	Oppo	Rpleas	1pleas	acq_US_unple_nomask	acq1_nomask	1	12	0	0	300	300	0	0	550	46	1	0	engagiert	sonnig	anregung	kuss	gütig	vergnügt	engstirnig	sterben	ausrottung	krise	gierig	verbissen	kreativ	gesittet	vertrauen	genießen	träumen	besonnen	krank	geizig	versagen	gemein	töten	bange	1	blank2r.bmp	0	1	+	0	1	blank2r.bmp	500	1	DHJF	500	1	blank2r.bmp	880	4	krise	880	0	0	0	0	0	0	0	0	0	0	0	0
2024-06-07	13:49:45	13:51:48	122603	6.6.1	4_exp_EVA_AWA_CON	74	A	B	Rpleas_acq	Oppo	Rpleas	1pleas	acq_US_pleas_nomask	acq1_nomask	1	13	0	0	300	300	0	0	479	50	1	0	engagiert	sonnig	anregung	kuss	gütig	vergnügt	engstirnig	sterben	ausrottung	krise	gierig	verbissen	kreativ	gesittet	vertrauen	genießen	träumen	besonnen	krank	geizig	versagen	gemein	töten	bange	1	blank2r.bmp	0	1	+	0	1	blank2r.bmp	500	1	CPLW	500	1	blank2r.bmp	880	3	anregung	880	0	0	0	0	0	0	0	0	0	0	0	0
2024-06-07	13:49:45	13:51:50	124483	6.6.1	4_exp_EVA_AWA_CON	74	A	B	Rpleas_acq	Oppo	Rpleas	1pleas	acq_US_unple_nomask	acq1_nomask	1	14	0	0	300	300	0	0	398	46	1	0	engagiert	sonnig	anregung	kuss	gütig	vergnügt	engstirnig	sterben	ausrottung	krise	gierig	verbissen	kreativ	gesittet	vertrauen	genießen	träumen	besonnen	krank	geizig	versagen	gemein	töten	bange	1	blank2r.bmp	0	1	+	0	1	blank2r.bmp	500	1	DHJF	500	1	blank2r.bmp	880	2	sterben	880	0	0	0	0	0	0	0	0	0	0	0	0
2024-06-07	13:49:45	13:51:52	126525	6.6.1	4_exp_EVA_AWA_CON	74	A	B	Rpleas_acq	Oppo	Rpleas	1pleas	acq_new_unple_nomask	acq1_nomask	1	15	0	0	300	300	0	0	356	50	0	0	engagiert	sonnig	anregung	kuss	gütig	vergnügt	engstirnig	sterben	ausrottung	krise	gierig	verbissen	kreativ	gesittet	vertrauen	genießen	träumen	besonnen	krank	geizig	versagen	gemein	töten	bange	1	blank2r.bmp	0	1	+	0	1	blank2r.bmp	500	5	C1r.bmp	500	1	blank2r.bmp	880	1	krank	880	1	FEHLER	1258	0	0	0	0	0	0	0	0	0
2024-06-07	13:49:45	13:51:54	128388	6.6.1	4_exp_EVA_AWA_CON	74	A	B	Rpleas_acq	Oppo	Rpleas	1pleas	acq_new_pleas_nomask	acq1_nomask	1	16	0	0	300	300	0	0	579	50	1	0	engagiert	sonnig	anregung	kuss	gütig	vergnügt	engstirnig	sterben	ausrottung	krise	gierig	verbissen	kreativ	gesittet	vertrauen	genießen	träumen	besonnen	krank	geizig	versagen	gemein	töten	bange	1	blank2r.bmp	0	1	+	0	1	blank2r.bmp	500	4	B4r.bmp	500	1	blank2r.bmp	880	1	kreativ	880	0	0	0	0	0	0	0	0	0	0	0	0
2024-06-07	13:49:45	13:51:56	130452	6.6.1	4_exp_EVA_AWA_CON	74	A	B	Rpleas_acq	Oppo	Rpleas	1pleas	acq_US_unple_nomask	acq1_nomask	1	17	0	0	300	300	0	0	582	46	1	0	engagiert	sonnig	anregung	kuss	gütig	vergnügt	engstirnig	sterben	ausrottung	krise	gierig	verbissen	kreativ	gesittet	vertrauen	genießen	träumen	besonnen	krank	geizig	versagen	gemein	töten	bange	1	blank2r.bmp	0	1	+	0	1	blank2r.bmp	500	1	DHJF	500	1	blank2r.bmp	880	1	engstirnig	880	0	0	0	0	0	0	0	0	0	0	0	0
2024-06-07	13:49:45	13:51:58	132621	6.6.1	4_exp_EVA_AWA_CON	74	A	B	Rpleas_acq	Oppo	Rpleas	1pleas	acq_US_pleas_nomask	acq1_nomask	1	18	0	0	300	300	0	0	479	46	0	0	engagiert	sonnig	anregung	kuss	gütig	vergnügt	engstirnig	sterben	ausrottung	krise	gierig	verbissen	kreativ	gesittet	vertrauen	genießen	träumen	besonnen	krank	geizig	versagen	gemein	töten	bange	1	blank2r.bmp	0	1	+	0	1	blank2r.bmp	500	1	CPLW	500	1	blank2r.bmp	880	6	vergnügt	880	1	FEHLER	1380	0	0	0	0	0	0	0	0	0
2024-06-07	13:49:45	13:52:00	134491	6.6.1	4_exp_EVA_AWA_CON	74	A	B	Rpleas_acq	Oppo	Rpleas	1pleas	acq_new_pleas_nomask	acq1_nomask	1	19	0	0	300	300	0	0	589	50	1	0	engagiert	sonnig	anregung	kuss	gütig	vergnügt	engstirnig	sterben	ausrottung	krise	gierig	verbissen	kreativ	gesittet	vertrauen	genießen	träumen	besonnen	krank	geizig	versagen	gemein	töten	bange	1	blank2r.bmp	0	1	+	0	1	blank2r.bmp	500	6	C2r.bmp	500	1	blank2r.bmp	880	2	gesittet	880	0	0	0	0	0	0	0	0	0	0	0	0
2024-06-07	13:49:45	13:52:02	136356	6.6.1	4_exp_EVA_AWA_CON	74	A	B	Rpleas_acq	Oppo	Rpleas	1pleas	acq_new_unple_nomask	acq1_nomask	1	20	0	0	300	300	0	0	382	46	1	0	engagiert	sonnig	anregung	kuss	gütig	vergnügt	engstirnig	sterben	ausrottung	krise	gierig	verbissen	kreativ	gesittet	vertrauen	genießen	träumen	besonnen	krank	geizig	versagen	gemein	töten	bange	1	blank2r.bmp	0	1	+	0	1	blank2r.bmp	500	5	C1r.bmp	500	1	blank2r.bmp	880	5	töten	880	0	0	0	0	0	0	0	0	0	0	0	0
2024-06-07	13:49:45	13:52:04	138388	6.6.1	4_exp_EVA_AWA_CON	74	A	B	Rpleas_acq	Oppo	Rpleas	1pleas	acq_new_pleas_nomask	acq1_nomask	1	21	0	0	300	300	0	0	543	50	1	0	engagiert	sonnig	anregung	kuss	gütig	vergnügt	engstirnig	sterben	ausrottung	krise	gierig	verbissen	kreativ	gesittet	vertrauen	genießen	träumen	besonnen	krank	geizig	versagen	gemein	töten	bange	1	blank2r.bmp	0	1	+	0	1	blank2r.bmp	500	7	C3r.bmp	500	1	blank2r.bmp	880	3	vertrauen	880	0	0	0	0	0	0	0	0	0	0	0	0
2024-06-07	13:49:45	13:52:06	140379	6.6.1	4_exp_EVA_AWA_CON	74	A	B	Rpleas_acq	Oppo	Rpleas	1pleas	acq_new_unple_nomask	acq1_nomask	1	22	0	0	300	300	0	0	504	46	1	0	engagiert	sonnig	anregung	kuss	gütig	vergnügt	engstirnig	sterben	ausrottung	krise	gierig	verbissen	kreativ	gesittet	vertrauen	genießen	träumen	besonnen	krank	geizig	versagen	gemein	töten	bange	1	blank2r.bmp	0	1	+	0	1	blank2r.bmp	500	3	B3r.bmp	500	1	blank2r.bmp	880	6	bange	880	0	0	0	0	0	0	0	0	0	0	0	0
2024-06-07	13:49:45	13:52:08	142444	6.6.1	4_exp_EVA_AWA_CON	74	A	B	Rpleas_acq	Oppo	Rpleas	1pleas	acq_US_unple_nomask	acq1_nomask	1	23	0	0	300	300	0	0	576	46	1	0	engagiert	sonnig	anregung	kuss	gütig	vergnügt	engstirnig	sterben	ausrottung	krise	gierig	verbissen	kreativ	gesittet	vertrauen	genießen	träumen	besonnen	krank	geizig	versagen	gemein	töten	bange	1	blank2r.bmp	0	1	+	0	1	blank2r.bmp	500	1	DHJF	500	1	blank2r.bmp	880	5	gierig	880	0	0	0	0	0	0	0	0	0	0	0	0
2024-06-07	13:49:45	13:52:10	144460	6.6.1	4_exp_EVA_AWA_CON	74	A	B	Rpleas_acq	Oppo	Rpleas	1pleas	acq_US_pleas_nomask	acq1_nomask	1	24	0	0	300	300	0	0	531	50	1	0	engagiert	sonnig	anregung	kuss	gütig	vergnügt	engstirnig	sterben	ausrottung	krise	gierig	verbissen	kreativ	gesittet	vertrauen	genießen	träumen	besonnen	krank	geizig	versagen	gemein	töten	bange	1	blank2r.bmp	0	1	+	0	1	blank2r.bmp	500	1	CPLW	500	1	blank2r.bmp	880	1	engagiert	880	0	0	0	0	0	0	0	0	0	0	0	0
2024-06-07	13:49:45	13:52:12	146387	6.6.1	4_exp_EVA_AWA_CON	74	A	B	Rpleas_acq	Oppo	Rpleas	1pleas	acq_new_pleas_nomask	acq1_nomask	1	25	0	0	300	300	0	0	438	50	1	0	engagiert	sonnig	anregung	kuss	gütig	vergnügt	engstirnig	sterben	ausrottung	krise	gierig	verbissen	kreativ	gesittet	vertrauen	genießen	träumen	besonnen	krank	geizig	versagen	gemein	töten	bange	1	blank2r.bmp	0	1	+	0	1	blank2r.bmp	500	1	B1r.bmp	500	1	blank2r.bmp	880	2	gesittet	880	0	0	0	0	0	0	0	0	0	0	0	0
2024-06-07	13:49:45	13:52:14	148605	6.6.1	4_exp_EVA_AWA_CON	74	A	B	Rpleas_acq	Oppo	Rpleas	1pleas	acq_US_pleas_nomask	acq1_nomask	1	26	0	0	300	300	0	0	532	46	0	0	engagiert	sonnig	anregung	kuss	gütig	vergnügt	engstirnig	sterben	ausrottung	krise	gierig	verbissen	kreativ	gesittet	vertrauen	genießen	träumen	besonnen	krank	geizig	versagen	gemein	töten	bange	1	blank2r.bmp	0	1	+	0	1	blank2r.bmp	500	1	CPLW	500	1	blank2r.bmp	880	1	engagiert	880	1	FEHLER	1434	0	0	0	0	0	0	0	0	0
2024-06-07	13:49:45	13:52:16	150411	6.6.1	4_exp_EVA_AWA_CON	74	A	B	Rpleas_acq	Oppo	Rpleas	1pleas	acq_new_pleas_nomask	acq1_nomask	1	27	0	0	300	300	0	0	519	50	1	0	engagiert	sonnig	anregung	kuss	gütig	vergnügt	engstirnig	sterben	ausrottung	krise	gierig	verbissen	kreativ	gesittet	vertrauen	genießen	träumen	besonnen	krank	geizig	versagen	gemein	töten	bange	1	blank2r.bmp	0	1	+	0	1	blank2r.bmp	500	8	C4r.bmp	500	1	blank2r.bmp	880	1	kreativ	880	0	0	0	0	0	0	0	0	0	0	0	0
2024-06-07	13:49:45	13:52:18	152276	6.6.1	4_exp_EVA_AWA_CON	74	A	B	Rpleas_acq	Oppo	Rpleas	1pleas	acq_US_unple_nomask	acq1_nomask	1	28	0	0	300	300	0	0	382	46	1	0	engagiert	sonnig	anregung	kuss	gütig	vergnügt	engstirnig	sterben	ausrottung	krise	gierig	verbissen	kreativ	gesittet	vertrauen	genießen	träumen	besonnen	krank	geizig	versagen	gemein	töten	bange	1	blank2r.bmp	0	1	+	0	1	blank2r.bmp	500	1	DHJF	500	1	blank2r.bmp	880	3	ausrottung	880	0	0	0	0	0	0	0	0	0	0	0	0
2024-06-07	13:49:45	13:52:19	154180	6.6.1	4_exp_EVA_AWA_CON	74	A	B	Rpleas_acq	Oppo	Rpleas	1pleas	acq_new_pleas_nomask	acq1_nomask	1	29	0	0	300	300	0	0	415	50	1	0	engagiert	sonnig	anregung	kuss	gütig	vergnügt	engstirnig	sterben	ausrottung	krise	gierig	verbissen	kreativ	gesittet	vertrauen	genießen	träumen	besonnen	krank	geizig	versagen	gemein	töten	bange	1	blank2r.bmp	0	1	+	0	1	blank2r.bmp	500	2	B2r.bmp	500	1	blank2r.bmp	880	3	vertrauen	880	0	0	0	0	0	0	0	0	0	0	0	0
2024-06-07	13:49:45	13:52:21	156100	6.6.1	4_exp_EVA_AWA_CON	74	A	B	Rpleas_acq	Oppo	Rpleas	1pleas	acq_US_pleas_nomask	acq1_nomask	1	30	0	0	300	300	0	0	433	50	1	0	engagiert	sonnig	anregung	kuss	gütig	vergnügt	engstirnig	sterben	ausrottung	krise	gierig	verbissen	kreativ	gesittet	vertrauen	genießen	träumen	besonnen	krank	geizig	versagen	gemein	töten	bange	1	blank2r.bmp	0	1	+	0	1	blank2r.bmp	500	1	CPLW	500	1	blank2r.bmp	880	6	vergnügt	880	0	0	0	0	0	0	0	0	0	0	0	0
2024-06-07	13:49:45	13:52:23	158083	6.6.1	4_exp_EVA_AWA_CON	74	A	B	Rpleas_acq	Oppo	Rpleas	1pleas	acq_new_unple_nomask	acq1_nomask	1	31	0	0	300	300	0	0	496	46	1	0	engagiert	sonnig	anregung	kuss	gütig	vergnügt	engstirnig	sterben	ausrottung	krise	gierig	verbissen	kreativ	gesittet	vertrauen	genießen	träumen	besonnen	krank	geizig	versagen	gemein	töten	bange	1	blank2r.bmp	0	1	+	0	1	blank2r.bmp	500	4	B4r.bmp	500	1	blank2r.bmp	880	2	geizig	880	0	0	0	0	0	0	0	0	0	0	0	0
2024-06-07	13:49:45	13:52:25	160140	6.6.1	4_exp_EVA_AWA_CON	74	A	B	Rpleas_acq	Oppo	Rpleas	1pleas	acq_US_unple_nomask	acq1_nomask	1	32	0	0	300	300	0	0	371	50	0	0	engagiert	sonnig	anregung	kuss	gütig	vergnügt	engstirnig	sterben	ausrottung	krise	gierig	verbissen	kreativ	gesittet	vertrauen	genießen	träumen	besonnen	krank	geizig	versagen	gemein	töten	bange	1	blank2r.bmp	0	1	+	0	1	blank2r.bmp	500	1	DHJF	500	1	blank2r.bmp	880	5	gierig	880	1	FEHLER	1272	0	0	0	0	0	0	0	0	0
2024-06-07	13:49:45	13:52:28	162269	6.6.1	4_exp_EVA_AWA_CON	74	A	B	Rpleas_acq	Oppo	Rpleas	1pleas	acq_US_unple_nomask	acq1_nomask	1	33	0	0	300	300	0	0	638	50	0	0	engagiert	sonnig	anregung	kuss	gütig	vergnügt	engstirnig	sterben	ausrottung	krise	gierig	verbissen	kreativ	gesittet	vertrauen	genießen	träumen	besonnen	krank	geizig	versagen	gemein	töten	bange	1	blank2r.bmp	0	1	+	0	1	blank2r.bmp	500	1	DHJF	500	1	blank2r.bmp	880	2	sterben	880	1	FEHLER	1539	0	0	0	0	0	0	0	0	0
2024-06-07	13:49:45	13:52:29	164003	6.6.1	4_exp_EVA_AWA_CON	74	A	B	Rpleas_acq	Oppo	Rpleas	1pleas	acq_US_pleas_nomask	acq1_nomask	1	34	0	0	300	300	0	0	452	50	1	0	engagiert	sonnig	anregung	kuss	gütig	vergnügt	engstirnig	sterben	ausrottung	krise	gierig	verbissen	kreativ	gesittet	vertrauen	genießen	träumen	besonnen	krank	geizig	versagen	gemein	töten	bange	1	blank2r.bmp	0	1	+	0	1	blank2r.bmp	500	1	CPLW	500	1	blank2r.bmp	880	4	kuss	880	0	0	0	0	0	0	0	0	0	0	0	0
2024-06-07	13:49:45	13:52:31	165940	6.6.1	4_exp_EVA_AWA_CON	74	A	B	Rpleas_acq	Oppo	Rpleas	1pleas	acq_new_unple_nomask	acq1_nomask	1	35	0	0	300	300	0	0	447	46	1	0	engagiert	sonnig	anregung	kuss	gütig	vergnügt	engstirnig	sterben	ausrottung	krise	gierig	verbissen	kreativ	gesittet	vertrauen	genießen	träumen	besonnen	krank	geizig	versagen	gemein	töten	bange	1	blank2r.bmp	0	1	+	0	1	blank2r.bmp	500	7	C3r.bmp	500	1	blank2r.bmp	880	4	gemein	880	0	0	0	0	0	0	0	0	0	0	0	0
2024-06-07	13:49:45	13:52:33	167891	6.6.1	4_exp_EVA_AWA_CON	74	A	B	Rpleas_acq	Oppo	Rpleas	1pleas	acq_new_unple_nomask	acq1_nomask	1	36	0	0	300	300	0	0	468	46	1	0	engagiert	sonnig	anregung	kuss	gütig	vergnügt	engstirnig	sterben	ausrottung	krise	gierig	verbissen	kreativ	gesittet	vertrauen	genießen	träumen	besonnen	krank	geizig	versagen	gemein	töten	bange	1	blank2r.bmp	0	1	+	0	1	blank2r.bmp	500	6	C2r.bmp	500	1	blank2r.bmp	880	5	töten	880	0	0	0	0	0	0	0	0	0	0	0	0
2024-06-07	13:49:45	13:53:01	195784	6.6.1	4_exp_EVA_AWA_CON	74	A	B	Rpleas_acq	Oppo	Rpleas	1pleas	acq_US_pleas_nomask	acq2_nomask	2	1	480	1	300	300	0	0	530	50	1	0	engagiert	sonnig	anregung	kuss	gütig	vergnügt	engstirnig	sterben	ausrottung	krise	gierig	verbissen	kreativ	gesittet	vertrauen	genießen	träumen	besonnen	krank	geizig	versagen	gemein	töten	bange	1	blank2r.bmp	0	1	+	0	1	blank2r.bmp	500	1	CPLW	500	1	blank2r.bmp	880	5	gütig	880	1	!	1312	1	!	1432	0	0	0	0	0	0
2024-06-07	13:49:45	13:53:04	198189	6.6.1	4_exp_EVA_AWA_CON	74	A	B	Rpleas_acq	Oppo	Rpleas	1pleas	acq_new_unple_nomask	acq2_nomask	2	2	480	0	300	300	0	0	627	46	1	0	engagiert	sonnig	anregung	kuss	gütig	vergnügt	engstirnig	sterben	ausrottung	krise	gierig	verbissen	kreativ	gesittet	vertrauen	genießen	träumen	besonnen	krank	geizig	versagen	gemein	töten	bange	1	blank2r.bmp	0	1	+	0	1	blank2r.bmp	500	3	B3r.bmp	500	1	blank2r.bmp	880	6	bange	880	1	!	1312	1	!	-1	0	0	0	0	0	0
2024-06-07	13:49:45	13:53:06	200471	6.6.1	4_exp_EVA_AWA_CON	74	A	B	Rpleas_acq	Oppo	Rpleas	1pleas	acq_new_pleas_nomask	acq2_nomask	2	3	480	1	300	300	0	0	505	50	1	0	engagiert	sonnig	anregung	kuss	gütig	vergnügt	engstirnig	sterben	ausrottung	krise	gierig	verbissen	kreativ	gesittet	vertrauen	genießen	träumen	besonnen	krank	geizig	versagen	gemein	töten	bange	1	blank2r.bmp	0	1	+	0	1	blank2r.bmp	500	5	C1r.bmp	500	1	blank2r.bmp	880	4	genießen	880	1	!	1312	1	!	1406	0	0	0	0	0	0
2024-06-07	13:49:45	13:53:08	202679	6.6.1	4_exp_EVA_AWA_CON	74	A	B	Rpleas_acq	Oppo	Rpleas	1pleas	acq_US_unple_nomask	acq2_nomask	2	4	480	1	300	300	0	0	432	46	1	0	engagiert	sonnig	anregung	kuss	gütig	vergnügt	engstirnig	sterben	ausrottung	krise	gierig	verbissen	kreativ	gesittet	vertrauen	genießen	träumen	besonnen	krank	geizig	versagen	gemein	töten	bange	1	blank2r.bmp	0	1	+	0	1	blank2r.bmp	500	1	DHJF	500	1	blank2r.bmp	880	1	engstirnig	880	1	!	1312	1	!	1333	0	0	0	0	0	0
2024-06-07	13:49:45	13:53:10	204789	6.6.1	4_exp_EVA_AWA_CON	74	A	B	Rpleas_acq	Oppo	Rpleas	1pleas	acq_US_pleas_nomask	acq2_nomask	2	5	480	0	300	300	0	0	332	50	1	0	engagiert	sonnig	anregung	kuss	gütig	vergnügt	engstirnig	sterben	ausrottung	krise	gierig	verbissen	kreativ	gesittet	vertrauen	genießen	träumen	besonnen	krank	geizig	versagen	gemein	töten	bange	1	blank2r.bmp	0	1	+	0	1	blank2r.bmp	500	1	CPLW	500	1	blank2r.bmp	880	3	anregung	880	1	!	-1	1	!	-1	0	0	0	0	0	0
2024-06-07	13:49:45	13:53:12	207141	6.6.1	4_exp_EVA_AWA_CON	74	A	B	Rpleas_acq	Oppo	Rpleas	1pleas	acq_new_unple_nomask	acq2_nomask	2	6	480	0	300	300	0	0	573	46	1	0	engagiert	sonnig	anregung	kuss	gütig	vergnügt	engstirnig	sterben	ausrottung	krise	gierig	verbissen	kreativ	gesittet	vertrauen	genießen	träumen	besonnen	krank	geizig	versagen	gemein	töten	bange	1	blank2r.bmp	0	1	+	0	1	blank2r.bmp	500	1	B1r.bmp	500	1	blank2r.bmp	880	3	versagen	880	1	!	1312	1	!	-1	0	0	0	0	0	0
2024-06-07	13:49:45	13:53:15	209383	6.6.1	4_exp_EVA_AWA_CON	74	A	B	Rpleas_acq	Oppo	Rpleas	1pleas	acq_new_unple_nomask	acq2_nomask	2	7	480	1	300	300	0	0	461	46	1	0	engagiert	sonnig	anregung	kuss	gütig	vergnügt	engstirnig	sterben	ausrottung	krise	gierig	verbissen	kreativ	gesittet	vertrauen	genießen	träumen	besonnen	krank	geizig	versagen	gemein	töten	bange	1	blank2r.bmp	0	1	+	0	1	blank2r.bmp	500	2	B2r.bmp	500	1	blank2r.bmp	880	1	krank	880	1	!	1312	1	!	1363	0	0	0	0	0	0
2024-06-07	13:49:45	13:53:17	211647	6.6.1	4_exp_EVA_AWA_CON	74	A	B	Rpleas_acq	Oppo	Rpleas	1pleas	acq_new_pleas_nomask	acq2_nomask	2	8	480	1	300	300	0	0	484	50	1	0	engagiert	sonnig	anregung	kuss	gütig	vergnügt	engstirnig	sterben	ausrottung	krise	gierig	verbissen	kreativ	gesittet	vertrauen	genießen	träumen	besonnen	krank	geizig	versagen	gemein	töten	bange	1	blank2r.bmp	0	1	+	0	1	blank2r.bmp	500	8	C4r.bmp	500	1	blank2r.bmp	880	5	träumen	880	1	!	1312	1	!	1385	0	0	0	0	0	0
2024-06-07	13:49:45	13:53:19	213837	6.6.1	4_exp_EVA_AWA_CON	74	A	B	Rpleas_acq	Oppo	Rpleas	1pleas	acq_US_unple_nomask	acq2_nomask	2	9	480	1	300	300	0	0	415	46	1	0	engagiert	sonnig	anregung	kuss	gütig	vergnügt	engstirnig	sterben	ausrottung	krise	gierig	verbissen	kreativ	gesittet	vertrauen	genießen	träumen	besonnen	krank	geizig	versagen	gemein	töten	bange	1	blank2r.bmp	0	1	+	0	1	blank2r.bmp	500	1	DHJF	500	1	blank2r.bmp	880	6	verbissen	880	1	!	1312	1	!	1314	0	0	0	0	0	0
2024-06-07	13:49:45	13:53:21	215990	6.6.1	4_exp_EVA_AWA_CON	74	A	B	Rpleas_acq	Oppo	Rpleas	1pleas	acq_US_pleas_nomask	acq2_nomask	2	10	480	0	300	300	0	0	375	50	1	0	engagiert	sonnig	anregung	kuss	gütig	vergnügt	engstirnig	sterben	ausrottung	krise	gierig	verbissen	kreativ	gesittet	vertrauen	genießen	träumen	besonnen	krank	geizig	versagen	gemein	töten	bange	1	blank2r.bmp	0	1	+	0	1	blank2r.bmp	500	1	CPLW	500	1	blank2r.bmp	880	2	sonnig	880	1	!	-1	1	!	-1	0	0	0	0	0	0
2024-06-07	13:49:45	13:53:24	218370	6.6.1	4_exp_EVA_AWA_CON	74	A	B	Rpleas_acq	Oppo	Rpleas	1pleas	acq_new_pleas_nomask	acq2_nomask	2	11	480	0	300	300	0	0	400	46	0	0	engagiert	sonnig	anregung	kuss	gütig	vergnügt	engstirnig	sterben	ausrottung	krise	gierig	verbissen	kreativ	gesittet	vertrauen	genießen	träumen	besonnen	krank	geizig	versagen	gemein	töten	bange	1	blank2r.bmp	0	1	+	0	1	blank2r.bmp	500	4	B4r.bmp	500	1	blank2r.bmp	880	6	besonnen	880	1	FEHLER	1594	1	!	-1	1	!	-1	0	0	0
2024-06-07	13:49:45	13:53:26	220415	6.6.1	4_exp_EVA_AWA_CON	74	A	B	Rpleas_acq	Oppo	Rpleas	1pleas	acq_US_unple_nomask	acq2_nomask	2	12	480	1	300	300	0	0	466	46	1	0	engagiert	sonnig	anregung	kuss	gütig	vergnügt	engstirnig	sterben	ausrottung	krise	gierig	verbissen	kreativ	gesittet	vertrauen	genießen	träumen	besonnen	krank	geizig	versagen	gemein	töten	bange	1	blank2r.bmp	0	1	+	0	1	blank2r.bmp	500	1	DHJF	500	1	blank2r.bmp	880	4	krise	880	1	!	1312	1	!	1367	0	0	0	0	0	0
2024-06-07	13:49:45	13:53:28	222655	6.6.1	4_exp_EVA_AWA_CON	74	A	B	Rpleas_acq	Oppo	Rpleas	1pleas	acq_new_pleas_nomask	acq2_nomask	2	13	480	1	300	300	0	0	465	50	1	0	engagiert	sonnig	anregung	kuss	gütig	vergnügt	engstirnig	sterben	ausrottung	krise	gierig	verbissen	kreativ	gesittet	vertrauen	genießen	träumen	besonnen	krank	geizig	versagen	gemein	töten	bange	1	blank2r.bmp	0	1	+	0	1	blank2r.bmp	500	1	B1r.bmp	500	1	blank2r.bmp	880	2	gesittet	880	1	!	1313	1	!	1366	0	0	0	0	0	0
2024-06-07	13:49:45	13:53:30	224935	6.6.1	4_exp_EVA_AWA_CON	74	A	B	Rpleas_acq	Oppo	Rpleas	1pleas	acq_new_unple_nomask	acq2_nomask	2	14	480	1	300	300	0	0	503	46	1	0	engagiert	sonnig	anregung	kuss	gütig	vergnügt	engstirnig	sterben	ausrottung	krise	gierig	verbissen	kreativ	gesittet	vertrauen	genießen	träumen	besonnen	krank	geizig	versagen	gemein	töten	bange	1	blank2r.bmp	0	1	+	0	1	blank2r.bmp	500	4	B4r.bmp	500	1	blank2r.bmp	880	1	krank	880	1	!	1312	1	!	1404	0	0	0	0	0	0
2024-06-07	13:49:45	13:53:32	227077	6.6.1	4_exp_EVA_AWA_CON	74	A	B	Rpleas_acq	Oppo	Rpleas	1pleas	acq_new_pleas_nomask	acq2_nomask	2	15	480	0	300	300	0	0	366	50	1	0	engagiert	sonnig	anregung	kuss	gütig	vergnügt	engstirnig	sterben	ausrottung	krise	gierig	verbissen	kreativ	gesittet	vertrauen	genießen	träumen	besonnen	krank	geizig	versagen	gemein	töten	bange	1	blank2r.bmp	0	1	+	0	1	blank2r.bmp	500	6	C2r.bmp	500	1	blank2r.bmp	880	5	träumen	880	1	!	-1	1	!	-1	0	0	0	0	0	0
2024-06-07	13:49:45	13:53:35	229421	6.6.1	4_exp_EVA_AWA_CON	74	A	B	Rpleas_acq	Oppo	Rpleas	1pleas	acq_new_unple_nomask	acq2_nomask	2	16	480	0	300	300	0	0	569	46	1	0	engagiert	sonnig	anregung	kuss	gütig	vergnügt	engstirnig	sterben	ausrottung	krise	gierig	verbissen	kreativ	gesittet	vertrauen	genießen	träumen	besonnen	krank	geizig	versagen	gemein	töten	bange	1	blank2r.bmp	0	1	+	0	1	blank2r.bmp	500	2	B2r.bmp	500	1	blank2r.bmp	880	5	töten	880	1	!	1312	1	!	-1	0	0	0	0	0	0
2024-06-07	13:49:45	13:53:37	231745	6.6.1	4_exp_EVA_AWA_CON	74	A	B	Rpleas_acq	Oppo	Rpleas	1pleas	acq_US_unple_nomask	acq2_nomask	2	17	480	0	300	300	0	0	347	50	0	0	engagiert	sonnig	anregung	kuss	gütig	vergnügt	engstirnig	sterben	ausrottung	krise	gierig	verbissen	kreativ	gesittet	vertrauen	genießen	träumen	besonnen	krank	geizig	versagen	gemein	töten	bange	1	blank2r.bmp	0	1	+	0	1	blank2r.bmp	500	1	DHJF	500	1	blank2r.bmp	880	3	ausrottung	880	1	FEHLER	1540	1	!	-1	1	!	-1	0	0	0
2024-06-07	13:49:45	13:53:39	233701	6.6.1	4_exp_EVA_AWA_CON	74	A	B	Rpleas_acq	Oppo	Rpleas	1pleas	acq_US_pleas_nomask	acq2_nomask	2	18	480	0	300	300	0	0	386	50	1	0	engagiert	sonnig	anregung	kuss	gütig	vergnügt	engstirnig	sterben	ausrottung	krise	gierig	verbissen	kreativ	gesittet	vertrauen	genießen	träumen	besonnen	krank	geizig	versagen	gemein	töten	bange	1	blank2r.bmp	0	1	+	0	1	blank2r.bmp	500	1	CPLW	500	1	blank2r.bmp	880	6	vergnügt	880	1	!	-1	1	!	-1	0	0	0	0	0	0
2024-06-07	13:49:45	13:53:41	236000	6.6.1	4_exp_EVA_AWA_CON	74	A	B	Rpleas_acq	Oppo	Rpleas	1pleas	acq_new_unple_nomask	acq2_nomask	2	19	480	1	300	300	0	0	520	46	1	0	engagiert	sonnig	anregung	kuss	gütig	vergnügt	engstirnig	sterben	ausrottung	krise	gierig	verbissen	kreativ	gesittet	vertrauen	genießen	träumen	besonnen	krank	geizig	versagen	gemein	töten	bange	1	blank2r.bmp	0	1	+	0	1	blank2r.bmp	500	8	C4r.bmp	500	1	blank2r.bmp	880	2	geizig	880	1	!	1312	1	!	1422	0	0	0	0	0	0
2024-06-07	13:49:45	13:53:44	238399	6.6.1	4_exp_EVA_AWA_CON	74	A	B	Rpleas_acq	Oppo	Rpleas	1pleas	acq_US_unple_nomask	acq2_nomask	2	20	480	1	300	300	0	0	419	50	0	0	engagiert	sonnig	anregung	kuss	gütig	vergnügt	engstirnig	sterben	ausrottung	krise	gierig	verbissen	kreativ	gesittet	vertrauen	genießen	träumen	besonnen	krank	geizig	versagen	gemein	töten	bange	1	blank2r.bmp	0	1	+	0	1	blank2r.bmp	500	1	DHJF	500	1	blank2r.bmp	880	5	gierig	880	1	FEHLER	1610	1	!	1312	1	!	1318	0	0	0
2024-06-07	13:49:45	13:53:46	240366	6.6.1	4_exp_EVA_AWA_CON	74	A	B	Rpleas_acq	Oppo	Rpleas	1pleas	acq_US_pleas_nomask	acq2_nomask	2	21	480	0	300	300	0	0	395	50	1	0	engagiert	sonnig	anregung	kuss	gütig	vergnügt	engstirnig	sterben	ausrottung	krise	gierig	verbissen	kreativ	gesittet	vertrauen	genießen	träumen	besonnen	krank	geizig	versagen	gemein	töten	bange	1	blank2r.bmp	0	1	+	0	1	blank2r.bmp	500	1	CPLW	500	1	blank2r.bmp	880	2	sonnig	880	1	!	-1	1	!	-1	0	0	0	0	0	0
2024-06-07	13:49:45	13:53:48	242885	6.6.1	4_exp_EVA_AWA_CON	74	A	B	Rpleas_acq	Oppo	Rpleas	1pleas	acq_US_pleas_nomask	acq2_nomask	2	22	480	0	300	300	0	0	744	50	1	0	engagiert	sonnig	anregung	kuss	gütig	vergnügt	engstirnig	sterben	ausrottung	krise	gierig	verbissen	kreativ	gesittet	vertrauen	genießen	träumen	besonnen	krank	geizig	versagen	gemein	töten	bange	1	blank2r.bmp	0	1	+	0	1	blank2r.bmp	500	1	CPLW	500	1	blank2r.bmp	880	3	anregung	880	1	!	1313	1	!	-1	0	0	0	0	0	0
2024-06-07	13:49:45	13:53:50	245167	6.6.1	4_exp_EVA_AWA_CON	74	A	B	Rpleas_acq	Oppo	Rpleas	1pleas	acq_new_pleas_nomask	acq2_nomask	2	23	480	1	300	300	0	0	502	50	1	0	engagiert	sonnig	anregung	kuss	gütig	vergnügt	engstirnig	sterben	ausrottung	krise	gierig	verbissen	kreativ	gesittet	vertrauen	genießen	träumen	besonnen	krank	geizig	versagen	gemein	töten	bange	1	blank2r.bmp	0	1	+	0	1	blank2r.bmp	500	7	C3r.bmp	500	1	blank2r.bmp	880	6	besonnen	880	1	!	1312	1	!	1404	0	0	0	0	0	0
2024-06-07	13:49:45	13:53:53	247376	6.6.1	4_exp_EVA_AWA_CON	74	A	B	Rpleas_acq	Oppo	Rpleas	1pleas	acq_US_unple_nomask	acq2_nomask	2	24	480	1	300	300	0	0	429	46	1	0	engagiert	sonnig	anregung	kuss	gütig	vergnügt	engstirnig	sterben	ausrottung	krise	gierig	verbissen	kreativ	gesittet	vertrauen	genießen	träumen	besonnen	krank	geizig	versagen	gemein	töten	bange	1	blank2r.bmp	0	1	+	0	1	blank2r.bmp	500	1	DHJF	500	1	blank2r.bmp	880	2	sterben	880	1	!	1312	1	!	1330	0	0	0	0	0	0
2024-06-07	13:49:45	13:53:55	249631	6.6.1	4_exp_EVA_AWA_CON	74	A	B	Rpleas_acq	Oppo	Rpleas	1pleas	acq_US_unple_nomask	acq2_nomask	2	25	480	1	300	300	0	0	474	46	1	0	engagiert	sonnig	anregung	kuss	gütig	vergnügt	engstirnig	sterben	ausrottung	krise	gierig	verbissen	kreativ	gesittet	vertrauen	genießen	träumen	besonnen	krank	geizig	versagen	gemein	töten	bange	1	blank2r.bmp	0	1	+	0	1	blank2r.bmp	500	1	DHJF	500	1	blank2r.bmp	880	6	verbissen	880	1	!	1313	1	!	1375	0	0	0	0	0	0
2024-06-07	13:49:45	13:53:57	252049	6.6.1	4_exp_EVA_AWA_CON	74	A	B	Rpleas_acq	Oppo	Rpleas	1pleas	acq_US_pleas_nomask	acq2_nomask	2	26	480	1	300	300	0	0	438	46	0	0	engagiert	sonnig	anregung	kuss	gütig	vergnügt	engstirnig	sterben	ausrottung	krise	gierig	verbissen	kreativ	gesittet	vertrauen	genießen	träumen	besonnen	krank	geizig	versagen	gemein	töten	bange	1	blank2r.bmp	0	1	+	0	1	blank2r.bmp	500	1	CPLW	500	1	blank2r.bmp	880	4	kuss	880	1	FEHLER	1632	1	!	1313	1	!	1339	0	0	0
2024-06-07	13:49:45	13:53:59	254120	6.6.1	4_exp_EVA_AWA_CON	74	A	B	Rpleas_acq	Oppo	Rpleas	1pleas	acq_new_pleas_nomask	acq2_nomask	2	27	480	1	300	300	0	0	489	50	1	0	engagiert	sonnig	anregung	kuss	gütig	vergnügt	engstirnig	sterben	ausrottung	krise	gierig	verbissen	kreativ	gesittet	vertrauen	genießen	träumen	besonnen	krank	geizig	versagen	gemein	töten	bange	1	blank2r.bmp	0	1	+	0	1	blank2r.bmp	500	5	C1r.bmp	500	1	blank2r.bmp	880	1	kreativ	880	1	!	1312	1	!	1390	0	0	0	0	0	0
2024-06-07	13:49:45	13:54:02	256528	6.6.1	4_exp_EVA_AWA_CON	74	A	B	Rpleas_acq	Oppo	Rpleas	1pleas	acq_new_unple_nomask	acq2_nomask	2	28	480	1	300	300	0	0	425	50	0	0	engagiert	sonnig	anregung	kuss	gütig	vergnügt	engstirnig	sterben	ausrottung	krise	gierig	verbissen	kreativ	gesittet	vertrauen	genießen	träumen	besonnen	krank	geizig	versagen	gemein	töten	bange	1	blank2r.bmp	0	1	+	0	1	blank2r.bmp	500	3	B3r.bmp	500	1	blank2r.bmp	880	6	bange	880	1	FEHLER	1618	1	!	1313	1	!	1326	0	0	0
2024-06-07	13:49:45	13:54:04	258673	6.6.1	4_exp_EVA_AWA_CON	74	A	B	Rpleas_acq	Oppo	Rpleas	1pleas	acq_US_unple_nomask	acq2_nomask	2	29	480	0	300	300	0	0	368	50	0	0	engagiert	sonnig	anregung	kuss	gütig	vergnügt	engstirnig	sterben	ausrottung	krise	gierig	verbissen	kreativ	gesittet	vertrauen	genießen	träumen	besonnen	krank	geizig	versagen	gemein	töten	bange	1	blank2r.bmp	0	1	+	0	1	blank2r.bmp	500	1	DHJF	500	1	blank2r.bmp	880	1	engstirnig	880	1	FEHLER	1561	1	!	-1	1	!	-1	0	0	0
2024-06-07	13:49:45	13:54:06	260687	6.6.1	4_exp_EVA_AWA_CON	74	A	B	Rpleas_acq	Oppo	Rpleas	1pleas	acq_new_pleas_nomask	acq2_nomask	2	30	480	1	300	300	0	0	442	50	1	0	engagiert	sonnig	anregung	kuss	gütig	vergnügt	engstirnig	sterben	ausrottung	krise	gierig	verbissen	kreativ	gesittet	vertrauen	genießen	träumen	besonnen	krank	geizig	versagen	gemein	töten	bange	1	blank2r.bmp	0	1	+	0	1	blank2r.bmp	500	4	B4r.bmp	500	1	blank2r.bmp	880	4	genießen	880	1	!	1312	1	!	1344	0	0	0	0	0	0
2024-06-07	13:49:45	13:54:08	262895	6.6.1	4_exp_EVA_AWA_CON	74	A	B	Rpleas_acq	Oppo	Rpleas	1pleas	acq_US_unple_nomask	acq2_nomask	2	31	480	1	300	300	0	0	429	46	1	0	engagiert	sonnig	anregung	kuss	gütig	vergnügt	engstirnig	sterben	ausrottung	krise	gierig	verbissen	kreativ	gesittet	vertrauen	genießen	träumen	besonnen	krank	geizig	versagen	gemein	töten	bange	1	blank2r.bmp	0	1	+	0	1	blank2r.bmp	500	1	DHJF	500	1	blank2r.bmp	880	4	krise	880	1	!	1312	1	!	1330	0	0	0	0	0	0
2024-06-07	13:49:45	13:54:11	265320	6.6.1	4_exp_EVA_AWA_CON	74	A	B	Rpleas_acq	Oppo	Rpleas	1pleas	acq_new_unple_nomask	acq2_nomask	2	32	480	1	300	300	0	0	442	50	0	0	engagiert	sonnig	anregung	kuss	gütig	vergnügt	engstirnig	sterben	ausrottung	krise	gierig	verbissen	kreativ	gesittet	vertrauen	genießen	träumen	besonnen	krank	geizig	versagen	gemein	töten	bange	1	blank2r.bmp	0	1	+	0	1	blank2r.bmp	500	3	B3r.bmp	500	1	blank2r.bmp	880	3	versagen	880	1	FEHLER	1634	1	!	1312	1	!	1343	0	0	0
2024-06-07	13:49:45	13:54:13	267335	6.6.1	4_exp_EVA_AWA_CON	74	A	B	Rpleas_acq	Oppo	Rpleas	1pleas	acq_US_pleas_nomask	acq2_nomask	2	33	480	1	300	300	0	0	436	50	1	0	engagiert	sonnig	anregung	kuss	gütig	vergnügt	engstirnig	sterben	ausrottung	krise	gierig	verbissen	kreativ	gesittet	vertrauen	genießen	träumen	besonnen	krank	geizig	versagen	gemein	töten	bange	1	blank2r.bmp	0	1	+	0	1	blank2r.bmp	500	1	CPLW	500	1	blank2r.bmp	880	1	engagiert	880	1	!	1312	1	!	1337	0	0	0	0	0	0
2024-06-07	13:49:45	13:54:15	269762	6.6.1	4_exp_EVA_AWA_CON	74	A	B	Rpleas_acq	Oppo	Rpleas	1pleas	acq_new_pleas_nomask	acq2_nomask	2	34	480	1	300	300	0	0	449	46	0	0	engagiert	sonnig	anregung	kuss	gütig	vergnügt	engstirnig	sterben	ausrottung	krise	gierig	verbissen	kreativ	gesittet	vertrauen	genießen	träumen	besonnen	krank	geizig	versagen	gemein	töten	bange	1	blank2r.bmp	0	1	+	0	1	blank2r.bmp	500	1	B1r.bmp	500	1	blank2r.bmp	880	3	vertrauen	880	1	FEHLER	1643	1	!	1313	1	!	1350	0	0	0
2024-06-07	13:49:45	13:54:17	271807	6.6.1	4_exp_EVA_AWA_CON	74	A	B	Rpleas_acq	Oppo	Rpleas	1pleas	acq_US_pleas_nomask	acq2_nomask	2	35	480	1	300	300	0	0	465	50	1	0	engagiert	sonnig	anregung	kuss	gütig	vergnügt	engstirnig	sterben	ausrottung	krise	gierig	verbissen	kreativ	gesittet	vertrauen	genießen	träumen	besonnen	krank	geizig	versagen	gemein	töten	bange	1	blank2r.bmp	0	1	+	0	1	blank2r.bmp	500	1	CPLW	500	1	blank2r.bmp	880	5	gütig	880	1	!	1312	1	!	1366	0	0	0	0	0	0
2024-06-07	13:49:45	13:54:19	274031	6.6.1	4_exp_EVA_AWA_CON	74	A	B	Rpleas_acq	Oppo	Rpleas	1pleas	acq_new_unple_nomask	acq2_nomask	2	36	480	1	300	300	0	0	448	46	1	0	engagiert	sonnig	anregung	kuss	gütig	vergnügt	engstirnig	sterben	ausrottung	krise	gierig	verbissen	kreativ	gesittet	vertrauen	genießen	träumen	besonnen	krank	geizig	versagen	gemein	töten	bange	1	blank2r.bmp	0	1	+	0	1	blank2r.bmp	500	2	B2r.bmp	500	1	blank2r.bmp	880	4	gemein	880	1	!	1313	1	!	1349	0	0	0	0	0	0
2024-06-07	13:49:45	13:54:29	283917	6.6.1	4_exp_EVA_AWA_CON	74	A	B	Rpleas_acq	Oppo	Rpleas	1pleas	acq_US_unple_nomask	acq3_nomask	3	1	453	0	300	300	0	0	650	46	1	0	engagiert	sonnig	anregung	kuss	gütig	vergnügt	engstirnig	sterben	ausrottung	krise	gierig	verbissen	kreativ	gesittet	vertrauen	genießen	träumen	besonnen	krank	geizig	versagen	gemein	töten	bange	1	blank2r.bmp	0	1	+	0	1	blank2r.bmp	500	1	DHJF	500	1	blank2r.bmp	880	4	krise	880	1	!	1293	1	!	-1	0	0	0	0	0	0
2024-06-07	13:49:45	13:54:32	286376	6.6.1	4_exp_EVA_AWA_CON	74	A	B	Rpleas_acq	Oppo	Rpleas	1pleas	acq_US_unple_nomask	acq3_nomask	3	2	453	1	300	300	0	0	484	50	0	0	engagiert	sonnig	anregung	kuss	gütig	vergnügt	engstirnig	sterben	ausrottung	krise	gierig	verbissen	kreativ	gesittet	vertrauen	genießen	träumen	besonnen	krank	geizig	versagen	gemein	töten	bange	1	blank2r.bmp	0	1	+	0	1	blank2r.bmp	500	1	DHJF	500	1	blank2r.bmp	880	6	verbissen	880	1	FEHLER	1677	1	!	1293	1	!	1385	0	0	0
2024-06-07	13:49:45	13:54:34	288424	6.6.1	4_exp_EVA_AWA_CON	74	A	B	Rpleas_acq	Oppo	Rpleas	1pleas	acq_US_unple_nomask	acq3_nomask	3	3	453	1	300	300	0	0	471	46	1	0	engagiert	sonnig	anregung	kuss	gütig	vergnügt	engstirnig	sterben	ausrottung	krise	gierig	verbissen	kreativ	gesittet	vertrauen	genießen	träumen	besonnen	krank	geizig	versagen	gemein	töten	bange	1	blank2r.bmp	0	1	+	0	1	blank2r.bmp	500	1	DHJF	500	1	blank2r.bmp	880	2	sterben	880	1	!	1292	1	!	1372	0	0	0	0	0	0
2024-06-07	13:49:45	13:54:36	290589	6.6.1	4_exp_EVA_AWA_CON	74	A	B	Rpleas_acq	Oppo	Rpleas	1pleas	acq_US_pleas_nomask	acq3_nomask	3	4	453	0	300	300	0	0	387	50	1	0	engagiert	sonnig	anregung	kuss	gütig	vergnügt	engstirnig	sterben	ausrottung	krise	gierig	verbissen	kreativ	gesittet	vertrauen	genießen	träumen	besonnen	krank	geizig	versagen	gemein	töten	bange	1	blank2r.bmp	0	1	+	0	1	blank2r.bmp	500	1	CPLW	500	1	blank2r.bmp	880	2	sonnig	880	1	!	-1	1	!	-1	0	0	0	0	0	0
2024-06-07	13:49:45	13:54:38	292791	6.6.1	4_exp_EVA_AWA_CON	74	A	B	Rpleas_acq	Oppo	Rpleas	1pleas	acq_US_pleas_nomask	acq3_nomask	3	5	453	1	300	300	0	0	426	50	1	0	engagiert	sonnig	anregung	kuss	gütig	vergnügt	engstirnig	sterben	ausrottung	krise	gierig	verbissen	kreativ	gesittet	vertrauen	genießen	träumen	besonnen	krank	geizig	versagen	gemein	töten	bange	1	blank2r.bmp	0	1	+	0	1	blank2r.bmp	500	1	CPLW	500	1	blank2r.bmp	880	1	engagiert	880	1	!	1293	1	!	1327	0	0	0	0	0	0
2024-06-07	13:49:45	13:54:40	294917	6.6.1	4_exp_EVA_AWA_CON	74	A	B	Rpleas_acq	Oppo	Rpleas	1pleas	acq_US_pleas_nomask	acq3_nomask	3	6	453	0	300	300	0	0	352	50	1	0	engagiert	sonnig	anregung	kuss	gütig	vergnügt	engstirnig	sterben	ausrottung	krise	gierig	verbissen	kreativ	gesittet	vertrauen	genießen	träumen	besonnen	krank	geizig	versagen	gemein	töten	bange	1	blank2r.bmp	0	1	+	0	1	blank2r.bmp	500	1	CPLW	500	1	blank2r.bmp	880	4	kuss	880	1	!	-1	1	!	-1	0	0	0	0	0	0
2024-06-07	13:49:45	13:54:43	297304	6.6.1	4_exp_EVA_AWA_CON	74	A	B	Rpleas_acq	Oppo	Rpleas	1pleas	acq_US_pleas_nomask	acq3_nomask	3	7	453	1	300	300	0	0	405	46	0	0	engagiert	sonnig	anregung	kuss	gütig	vergnügt	engstirnig	sterben	ausrottung	krise	gierig	verbissen	kreativ	gesittet	vertrauen	genießen	träumen	besonnen	krank	geizig	versagen	gemein	töten	bange	1	blank2r.bmp	0	1	+	0	1	blank2r.bmp	500	1	CPLW	500	1	blank2r.bmp	880	3	anregung	880	1	FEHLER	1598	1	!	1293	1	!	1306	0	0	0
2024-06-07	13:49:45	13:54:45	299311	6.6.1	4_exp_EVA_AWA_CON	74	A	B	Rpleas_acq	Oppo	Rpleas	1pleas	acq_US_unple_nomask	acq3_nomask	3	8	453	1	300	300	0	0	432	46	1	0	engagiert	sonnig	anregung	kuss	gütig	vergnügt	engstirnig	sterben	ausrottung	krise	gierig	verbissen	kreativ	gesittet	vertrauen	genießen	träumen	besonnen	krank	geizig	versagen	gemein	töten	bange	1	blank2r.bmp	0	1	+	0	1	blank2r.bmp	500	1	DHJF	500	1	blank2r.bmp	880	1	engstirnig	880	1	!	1293	1	!	1333	0	0	0	0	0	0
2024-06-07	13:49:45	13:54:47	301681	6.6.1	4_exp_EVA_AWA_CON	74	A	B	Rpleas_acq	Oppo	Rpleas	1pleas	acq_US_unple_nomask	acq3_nomask	3	9	453	0	300	300	0	0	388	50	0	0	engagiert	sonnig	anregung	kuss	gütig	vergnügt	engstirnig	sterben	ausrottung	krise	gierig	verbissen	kreativ	gesittet	vertrauen	genießen	träumen	besonnen	krank	geizig	versagen	gemein	töten	bange	1	blank2r.bmp	0	1	+	0	1	blank2r.bmp	500	1	DHJF	500	1	blank2r.bmp	880	5	gierig	880	1	FEHLER	1582	1	!	-1	1	!	-1	0	0	0
2024-06-07	13:49:45	13:54:49	303735	6.6.1	4_exp_EVA_AWA_CON	74	A	B	Rpleas_acq	Oppo	Rpleas	1pleas	acq_US_unple_nomask	acq3_nomask	3	10	453	1	300	300	0	0	483	46	1	0	engagiert	sonnig	anregung	kuss	gütig	vergnügt	engstirnig	sterben	ausrottung	krise	gierig	verbissen	kreativ	gesittet	vertrauen	genießen	träumen	besonnen	krank	geizig	versagen	gemein	töten	bange	1	blank2r.bmp	0	1	+	0	1	blank2r.bmp	500	1	DHJF	500	1	blank2r.bmp	880	3	ausrottung	880	1	!	1293	1	!	1384	0	0	0	0	0	0
2024-06-07	13:49:45	13:54:51	305901	6.6.1	4_exp_EVA_AWA_CON	74	A	B	Rpleas_acq	Oppo	Rpleas	1pleas	acq_US_pleas_nomask	acq3_nomask	3	11	453	0	300	300	0	0	389	50	1	0	engagiert	sonnig	anregung	kuss	gütig	vergnügt	engstirnig	sterben	ausrottung	krise	gierig	verbissen	kreativ	gesittet	vertrauen	genießen	träumen	besonnen	krank	geizig	versagen	gemein	töten	bange	1	blank2r.bmp	0	1	+	0	1	blank2r.bmp	500	1	CPLW	500	1	blank2r.bmp	880	5	gütig	880	1	!	-1	1	!	-1	0	0	0	0	0	0
2024-06-07	13:49:45	13:54:53	308069	6.6.1	4_exp_EVA_AWA_CON	74	A	B	Rpleas_acq	Oppo	Rpleas	1pleas	acq_US_pleas_nomask	acq3_nomask	3	12	453	0	300	300	0	0	386	50	1	0	engagiert	sonnig	anregung	kuss	gütig	vergnügt	engstirnig	sterben	ausrottung	krise	gierig	verbissen	kreativ	gesittet	vertrauen	genießen	träumen	besonnen	krank	geizig	versagen	gemein	töten	bange	1	blank2r.bmp	0	1	+	0	1	blank2r.bmp	500	1	CPLW	500	1	blank2r.bmp	880	6	vergnügt	880	1	!	-1	1	!	-1	0	0	0	0	0	0
2024-06-07	13:49:45	13:54:56	310296	6.6.1	4_exp_EVA_AWA_CON	74	A	B	Rpleas_acq	Oppo	Rpleas	1pleas	acq_US_unple_nomask	acq3_nomask	3	13	453	1	300	300	0	0	449	46	1	0	engagiert	sonnig	anregung	kuss	gütig	vergnügt	engstirnig	sterben	ausrottung	krise	gierig	verbissen	kreativ	gesittet	vertrauen	genießen	träumen	besonnen	krank	geizig	versagen	gemein	töten	bange	1	blank2r.bmp	0	1	+	0	1	blank2r.bmp	500	1	DHJF	500	1	blank2r.bmp	880	6	verbissen	880	1	!	1293	1	!	1350	0	0	0	0	0	0
2024-06-07	13:49:45	13:54:58	312551	6.6.1	4_exp_EVA_AWA_CON	74	A	B	Rpleas_acq	Oppo	Rpleas	1pleas	acq_US_pleas_nomask	acq3_nomask	3	14	453	1	300	300	0	0	473	50	1	0	engagiert	sonnig	anregung	kuss	gütig	vergnügt	engstirnig	sterben	ausrottung	krise	gierig	verbissen	kreativ	gesittet	vertrauen	genießen	träumen	besonnen	krank	geizig	versagen	gemein	töten	bange	1	blank2r.bmp	0	1	+	0	1	blank2r.bmp	500	1	CPLW	500	1	blank2r.bmp	880	1	engagiert	880	1	!	1293	1	!	1374	0	0	0	0	0	0
2024-06-07	13:49:45	13:55:00	314725	6.6.1	4_exp_EVA_AWA_CON	74	A	B	Rpleas_acq	Oppo	Rpleas	1pleas	acq_US_unple_nomask	acq3_nomask	3	15	453	1	300	300	0	0	398	46	1	0	engagiert	sonnig	anregung	kuss	gütig	vergnügt	engstirnig	sterben	ausrottung	krise	gierig	verbissen	kreativ	gesittet	vertrauen	genießen	träumen	besonnen	krank	geizig	versagen	gemein	töten	bange	1	blank2r.bmp	0	1	+	0	1	blank2r.bmp	500	1	DHJF	500	1	blank2r.bmp	880	2	sterben	880	1	!	1293	1	!	1297	0	0	0	0	0	0
2024-06-07	13:49:45	13:55:02	317113	6.6.1	4_exp_EVA_AWA_CON	74	A	B	Rpleas_acq	Oppo	Rpleas	1pleas	acq_US_unple_nomask	acq3_nomask	3	16	453	1	300	300	0	0	410	50	0	0	engagiert	sonnig	anregung	kuss	gütig	vergnügt	engstirnig	sterben	ausrottung	krise	gierig	verbissen	kreativ	gesittet	vertrauen	genießen	träumen	besonnen	krank	geizig	versagen	gemein	töten	bange	1	blank2r.bmp	0	1	+	0	1	blank2r.bmp	500	1	DHJF	500	1	blank2r.bmp	880	3	ausrottung	880	1	FEHLER	1604	1	!	1292	1	!	1312	0	0	0
2024-06-07	13:49:45	13:55:05	319352	6.6.1	4_exp_EVA_AWA_CON	74	A	B	Rpleas_acq	Oppo	Rpleas	1pleas	acq_US_pleas_nomask	acq3_nomask	3	17	453	1	300	300	0	0	459	46	0	0	engagiert	sonnig	anregung	kuss	gütig	vergnügt	engstirnig	sterben	ausrottung	krise	gierig	verbissen	kreativ	gesittet	vertrauen	genießen	träumen	besonnen	krank	geizig	versagen	gemein	töten	bange	1	blank2r.bmp	0	1	+	0	1	blank2r.bmp	500	1	CPLW	500	1	blank2r.bmp	880	4	kuss	880	1	FEHLER	1652	1	!	1292	1	!	1360	0	0	0
2024-06-07	13:49:45	13:55:07	321333	6.6.1	4_exp_EVA_AWA_CON	74	A	B	Rpleas_acq	Oppo	Rpleas	1pleas	acq_US_pleas_nomask	acq3_nomask	3	18	453	1	300	300	0	0	401	50	1	0	engagiert	sonnig	anregung	kuss	gütig	vergnügt	engstirnig	sterben	ausrottung	krise	gierig	verbissen	kreativ	gesittet	vertrauen	genießen	träumen	besonnen	krank	geizig	versagen	gemein	töten	bange	1	blank2r.bmp	0	1	+	0	1	blank2r.bmp	500	1	CPLW	500	1	blank2r.bmp	880	3	anregung	880	1	!	1292	1	!	1301	0	0	0	0	0	0
2024-06-07	13:49:45	13:55:09	323737	6.6.1	4_exp_EVA_AWA_CON	74	A	B	Rpleas_acq	Oppo	Rpleas	1pleas	acq_US_unple_nomask	acq3_nomask	3	19	453	1	300	300	0	0	420	50	0	0	engagiert	sonnig	anregung	kuss	gütig	vergnügt	engstirnig	sterben	ausrottung	krise	gierig	verbissen	kreativ	gesittet	vertrauen	genießen	träumen	besonnen	krank	geizig	versagen	gemein	töten	bange	1	blank2r.bmp	0	1	+	0	1	blank2r.bmp	500	1	DHJF	500	1	blank2r.bmp	880	5	gierig	880	1	FEHLER	1614	1	!	1293	1	!	1322	0	0	0
2024-06-07	13:49:45	13:55:11	325710	6.6.1	4_exp_EVA_AWA_CON	74	A	B	Rpleas_acq	Oppo	Rpleas	1pleas	acq_US_pleas_nomask	acq3_nomask	3	20	453	1	300	300	0	0	395	50	1	0	engagiert	sonnig	anregung	kuss	gütig	vergnügt	engstirnig	sterben	ausrottung	krise	gierig	verbissen	kreativ	gesittet	vertrauen	genießen	träumen	besonnen	krank	geizig	versagen	gemein	töten	bange	1	blank2r.bmp	0	1	+	0	1	blank2r.bmp	500	1	CPLW	500	1	blank2r.bmp	880	6	vergnügt	880	1	!	1293	1	!	1294	0	0	0	0	0	0
2024-06-07	13:49:45	13:55:13	327869	6.6.1	4_exp_EVA_AWA_CON	74	A	B	Rpleas_acq	Oppo	Rpleas	1pleas	acq_US_pleas_nomask	acq3_nomask	3	21	453	0	300	300	0	0	383	50	1	0	engagiert	sonnig	anregung	kuss	gütig	vergnügt	engstirnig	sterben	ausrottung	krise	gierig	verbissen	kreativ	gesittet	vertrauen	genießen	träumen	besonnen	krank	geizig	versagen	gemein	töten	bange	1	blank2r.bmp	0	1	+	0	1	blank2r.bmp	500	1	CPLW	500	1	blank2r.bmp	880	2	sonnig	880	1	!	-1	1	!	-1	0	0	0	0	0	0
2024-06-07	13:49:45	13:55:15	330055	6.6.1	4_exp_EVA_AWA_CON	74	A	B	Rpleas_acq	Oppo	Rpleas	1pleas	acq_US_pleas_nomask	acq3_nomask	3	22	453	1	300	300	0	0	406	50	1	0	engagiert	sonnig	anregung	kuss	gütig	vergnügt	engstirnig	sterben	ausrottung	krise	gierig	verbissen	kreativ	gesittet	vertrauen	genießen	träumen	besonnen	krank	geizig	versagen	gemein	töten	bange	1	blank2r.bmp	0	1	+	0	1	blank2r.bmp	500	1	CPLW	500	1	blank2r.bmp	880	5	gütig	880	1	!	1292	1	!	1307	0	0	0	0	0	0
2024-06-07	13:49:45	13:55:18	332312	6.6.1	4_exp_EVA_AWA_CON	74	A	B	Rpleas_acq	Oppo	Rpleas	1pleas	acq_US_unple_nomask	acq3_nomask	3	23	453	1	300	300	0	0	481	46	1	0	engagiert	sonnig	anregung	kuss	gütig	vergnügt	engstirnig	sterben	ausrottung	krise	gierig	verbissen	kreativ	gesittet	vertrauen	genießen	träumen	besonnen	krank	geizig	versagen	gemein	töten	bange	1	blank2r.bmp	0	1	+	0	1	blank2r.bmp	500	1	DHJF	500	1	blank2r.bmp	880	4	krise	880	1	!	1292	1	!	1382	0	0	0	0	0	0
2024-06-07	13:49:45	13:55:20	334511	6.6.1	4_exp_EVA_AWA_CON	74	A	B	Rpleas_acq	Oppo	Rpleas	1pleas	acq_US_unple_nomask	acq3_nomask	3	24	453	1	300	300	0	0	419	46	1	0	engagiert	sonnig	anregung	kuss	gütig	vergnügt	engstirnig	sterben	ausrottung	krise	gierig	verbissen	kreativ	gesittet	vertrauen	genießen	träumen	besonnen	krank	geizig	versagen	gemein	töten	bange	1	blank2r.bmp	0	1	+	0	1	blank2r.bmp	500	1	DHJF	500	1	blank2r.bmp	880	1	engstirnig	880	1	!	1293	1	!	1320	0	0	0	0	0	0
2024-06-07	13:49:45	13:55:22	336719	6.6.1	4_exp_EVA_AWA_CON	74	A	B	Rpleas_acq	Oppo	Rpleas	1pleas	acq_US_pleas_nomask	acq3_nomask	3	25	453	1	300	300	0	0	426	50	1	0	engagiert	sonnig	anregung	kuss	gütig	vergnügt	engstirnig	sterben	ausrottung	krise	gierig	verbissen	kreativ	gesittet	vertrauen	genießen	träumen	besonnen	krank	geizig	versagen	gemein	töten	bange	1	blank2r.bmp	0	1	+	0	1	blank2r.bmp	500	1	CPLW	500	1	blank2r.bmp	880	4	kuss	880	1	!	1292	1	!	1327	0	0	0	0	0	0
2024-06-07	13:49:45	13:55:24	338887	6.6.1	4_exp_EVA_AWA_CON	74	A	B	Rpleas_acq	Oppo	Rpleas	1pleas	acq_US_unple_nomask	acq3_nomask	3	26	453	1	300	300	0	0	393	46	1	0	engagiert	sonnig	anregung	kuss	gütig	vergnügt	engstirnig	sterben	ausrottung	krise	gierig	verbissen	kreativ	gesittet	vertrauen	genießen	träumen	besonnen	krank	geizig	versagen	gemein	töten	bange	1	blank2r.bmp	0	1	+	0	1	blank2r.bmp	500	1	DHJF	500	1	blank2r.bmp	880	2	sterben	880	1	!	1293	1	!	1293	0	0	0	0	0	0
2024-06-07	13:49:45	13:55:26	341143	6.6.1	4_exp_EVA_AWA_CON	74	A	B	Rpleas_acq	Oppo	Rpleas	1pleas	acq_US_unple_nomask	acq3_nomask	3	27	453	1	300	300	0	0	477	46	1	0	engagiert	sonnig	anregung	kuss	gütig	vergnügt	engstirnig	sterben	ausrottung	krise	gierig	verbissen	kreativ	gesittet	vertrauen	genießen	träumen	besonnen	krank	geizig	versagen	gemein	töten	bange	1	blank2r.bmp	0	1	+	0	1	blank2r.bmp	500	1	DHJF	500	1	blank2r.bmp	880	6	verbissen	880	1	!	1292	1	!	1378	0	0	0	0	0	0
2024-06-07	13:49:45	13:55:29	343367	6.6.1	4_exp_EVA_AWA_CON	74	A	B	Rpleas_acq	Oppo	Rpleas	1pleas	acq_US_unple_nomask	acq3_nomask	3	28	453	1	300	300	0	0	449	46	1	0	engagiert	sonnig	anregung	kuss	gütig	vergnügt	engstirnig	sterben	ausrottung	krise	gierig	verbissen	kreativ	gesittet	vertrauen	genießen	träumen	besonnen	krank	geizig	versagen	gemein	töten	bange	1	blank2r.bmp	0	1	+	0	1	blank2r.bmp	500	1	DHJF	500	1	blank2r.bmp	880	3	ausrottung	880	1	!	1292	1	!	1350	0	0	0	0	0	0
2024-06-07	13:49:45	13:55:31	345575	6.6.1	4_exp_EVA_AWA_CON	74	A	B	Rpleas_acq	Oppo	Rpleas	1pleas	acq_US_pleas_nomask	acq3_nomask	3	29	453	1	300	300	0	0	426	50	1	0	engagiert	sonnig	anregung	kuss	gütig	vergnügt	engstirnig	sterben	ausrottung	krise	gierig	verbissen	kreativ	gesittet	vertrauen	genießen	träumen	besonnen	krank	geizig	versagen	gemein	töten	bange	1	blank2r.bmp	0	1	+	0	1	blank2r.bmp	500	1	CPLW	500	1	blank2r.bmp	880	2	sonnig	880	1	!	1292	1	!	1327	0	0	0	0	0	0
2024-06-07	13:49:45	13:55:33	347742	6.6.1	4_exp_EVA_AWA_CON	74	A	B	Rpleas_acq	Oppo	Rpleas	1pleas	acq_US_unple_nomask	acq3_nomask	3	30	453	1	300	300	0	0	394	46	1	0	engagiert	sonnig	anregung	kuss	gütig	vergnügt	engstirnig	sterben	ausrottung	krise	gierig	verbissen	kreativ	gesittet	vertrauen	genießen	träumen	besonnen	krank	geizig	versagen	gemein	töten	bange	1	blank2r.bmp	0	1	+	0	1	blank2r.bmp	500	1	DHJF	500	1	blank2r.bmp	880	5	gierig	880	1	!	1292	1	!	1293	0	0	0	0	0	0
2024-06-07	13:49:45	13:55:35	349975	6.6.1	4_exp_EVA_AWA_CON	74	A	B	Rpleas_acq	Oppo	Rpleas	1pleas	acq_US_unple_nomask	acq3_nomask	3	31	453	1	300	300	0	0	453	46	1	0	engagiert	sonnig	anregung	kuss	gütig	vergnügt	engstirnig	sterben	ausrottung	krise	gierig	verbissen	kreativ	gesittet	vertrauen	genießen	träumen	besonnen	krank	geizig	versagen	gemein	töten	bange	1	blank2r.bmp	0	1	+	0	1	blank2r.bmp	500	1	DHJF	500	1	blank2r.bmp	880	4	krise	880	1	!	1292	1	!	1354	0	0	0	0	0	0
2024-06-07	13:49:45	13:55:38	352191	6.6.1	4_exp_EVA_AWA_CON	74	A	B	Rpleas_acq	Oppo	Rpleas	1pleas	acq_US_pleas_nomask	acq3_nomask	3	32	453	1	300	300	0	0	438	50	1	0	engagiert	sonnig	anregung	kuss	gütig	vergnügt	engstirnig	sterben	ausrottung	krise	gierig	verbissen	kreativ	gesittet	vertrauen	genießen	träumen	besonnen	krank	geizig	versagen	gemein	töten	bange	1	blank2r.bmp	0	1	+	0	1	blank2r.bmp	500	1	CPLW	500	1	blank2r.bmp	880	6	vergnügt	880	1	!	1293	1	!	1339	0	0	0	0	0	0
2024-06-07	13:49:45	13:55:40	354365	6.6.1	4_exp_EVA_AWA_CON	74	A	B	Rpleas_acq	Oppo	Rpleas	1pleas	acq_US_unple_nomask	acq3_nomask	3	33	453	1	300	300	0	0	402	46	1	0	engagiert	sonnig	anregung	kuss	gütig	vergnügt	engstirnig	sterben	ausrottung	krise	gierig	verbissen	kreativ	gesittet	vertrauen	genießen	träumen	besonnen	krank	geizig	versagen	gemein	töten	bange	1	blank2r.bmp	0	1	+	0	1	blank2r.bmp	500	1	DHJF	500	1	blank2r.bmp	880	1	engstirnig	880	1	!	1293	1	!	1302	0	0	0	0	0	0
2024-06-07	13:49:45	13:55:42	356518	6.6.1	4_exp_EVA_AWA_CON	74	A	B	Rpleas_acq	Oppo	Rpleas	1pleas	acq_US_pleas_nomask	acq3_nomask	3	34	453	0	300	300	0	0	373	50	1	0	engagiert	sonnig	anregung	kuss	gütig	vergnügt	engstirnig	sterben	ausrottung	krise	gierig	verbissen	kreativ	gesittet	vertrauen	genießen	träumen	besonnen	krank	geizig	versagen	gemein	töten	bange	1	blank2r.bmp	0	1	+	0	1	blank2r.bmp	500	1	CPLW	500	1	blank2r.bmp	880	1	engagiert	880	1	!	-1	1	!	-1	0	0	0	0	0	0
2024-06-07	13:49:45	13:55:44	358685	6.6.1	4_exp_EVA_AWA_CON	74	A	B	Rpleas_acq	Oppo	Rpleas	1pleas	acq_US_pleas_nomask	acq3_nomask	3	35	453	0	300	300	0	0	389	50	1	0	engagiert	sonnig	anregung	kuss	gütig	vergnügt	engstirnig	sterben	ausrottung	krise	gierig	verbissen	kreativ	gesittet	vertrauen	genießen	träumen	besonnen	krank	geizig	versagen	gemein	töten	bange	1	blank2r.bmp	0	1	+	0	1	blank2r.bmp	500	1	CPLW	500	1	blank2r.bmp	880	3	anregung	880	1	!	-1	1	!	-1	0	0	0	0	0	0
2024-06-07	13:49:45	13:55:46	360871	6.6.1	4_exp_EVA_AWA_CON	74	A	B	Rpleas_acq	Oppo	Rpleas	1pleas	acq_US_pleas_nomask	acq3_nomask	3	36	453	1	300	300	0	0	412	50	1	0	engagiert	sonnig	anregung	kuss	gütig	vergnügt	engstirnig	sterben	ausrottung	krise	gierig	verbissen	kreativ	gesittet	vertrauen	genießen	träumen	besonnen	krank	geizig	versagen	gemein	töten	bange	1	blank2r.bmp	0	1	+	0	1	blank2r.bmp	500	1	CPLW	500	1	blank2r.bmp	880	5	gütig	880	1	!	1292	1	!	1313	0	0	0	0	0	0
2024-06-07	13:49:45	13:55:59	373221	6.6.1	4_exp_EVA_AWA_CON	74	A	B	Rpleas_acq	Oppo	Rpleas	1pleas	acq_US_unple_nomask	acq45_nomask	4	1	400	0	300	300	0	0	496	46	1	0	engagiert	sonnig	anregung	kuss	gütig	vergnügt	engstirnig	sterben	ausrottung	krise	gierig	verbissen	kreativ	gesittet	vertrauen	genießen	träumen	besonnen	krank	geizig	versagen	gemein	töten	bange	1	blank2r.bmp	0	1	+	0	1	blank2r.bmp	500	1	DHJF	500	1	blank2r.bmp	880	2	sterben	880	1	!	1232	1	!	-1	0	0	0	0	0	0
2024-06-07	13:49:45	13:56:01	375525	6.6.1	4_exp_EVA_AWA_CON	74	A	B	Rpleas_acq	Oppo	Rpleas	1pleas	acq_US_unple_nomask	acq45_nomask	4	2	400	0	300	300	0	0	529	46	1	0	engagiert	sonnig	anregung	kuss	gütig	vergnügt	engstirnig	sterben	ausrottung	krise	gierig	verbissen	kreativ	gesittet	vertrauen	genießen	träumen	besonnen	krank	geizig	versagen	gemein	töten	bange	1	blank2r.bmp	0	1	+	0	1	blank2r.bmp	500	1	DHJF	500	1	blank2r.bmp	880	5	gierig	880	1	!	1232	1	!	-1	0	0	0	0	0	0
2024-06-07	13:49:45	13:56:03	377727	6.6.1	4_exp_EVA_AWA_CON	74	A	B	Rpleas_acq	Oppo	Rpleas	1pleas	acq_US_unple_nomask	acq45_nomask	4	3	400	1	300	300	0	0	427	46	1	0	engagiert	sonnig	anregung	kuss	gütig	vergnügt	engstirnig	sterben	ausrottung	krise	gierig	verbissen	kreativ	gesittet	vertrauen	genießen	träumen	besonnen	krank	geizig	versagen	gemein	töten	bange	1	blank2r.bmp	0	1	+	0	1	blank2r.bmp	500	1	DHJF	500	1	blank2r.bmp	880	1	engstirnig	880	1	!	1233	1	!	1328	0	0	0	0	0	0
2024-06-07	13:49:45	13:56:05	379838	6.6.1	4_exp_EVA_AWA_CON	74	A	B	Rpleas_acq	Oppo	Rpleas	1pleas	acq_US_pleas_nomask	acq45_nomask	4	4	400	1	300	300	0	0	338	50	1	0	engagiert	sonnig	anregung	kuss	gütig	vergnügt	engstirnig	sterben	ausrottung	krise	gierig	verbissen	kreativ	gesittet	vertrauen	genießen	träumen	besonnen	krank	geizig	versagen	gemein	töten	bange	1	blank2r.bmp	0	1	+	0	1	blank2r.bmp	500	1	CPLW	500	1	blank2r.bmp	880	3	anregung	880	1	!	1232	1	!	1237	0	0	0	0	0	0
2024-06-07	13:49:45	13:56:07	382084	6.6.1	4_exp_EVA_AWA_CON	74	A	B	Rpleas_acq	Oppo	Rpleas	1pleas	acq_US_unple_nomask	acq45_nomask	4	5	400	0	300	300	0	0	475	46	1	0	engagiert	sonnig	anregung	kuss	gütig	vergnügt	engstirnig	sterben	ausrottung	krise	gierig	verbissen	kreativ	gesittet	vertrauen	genießen	träumen	besonnen	krank	geizig	versagen	gemein	töten	bange	1	blank2r.bmp	0	1	+	0	1	blank2r.bmp	500	1	DHJF	500	1	blank2r.bmp	880	6	verbissen	880	1	!	1232	1	!	-1	0	0	0	0	0	0
2024-06-07	13:49:45	13:56:10	384271	6.6.1	4_exp_EVA_AWA_CON	74	A	B	Rpleas_acq	Oppo	Rpleas	1pleas	acq_US_unple_nomask	acq45_nomask	4	6	400	1	300	300	0	0	407	46	1	0	engagiert	sonnig	anregung	kuss	gütig	vergnügt	engstirnig	sterben	ausrottung	krise	gierig	verbissen	kreativ	gesittet	vertrauen	genießen	träumen	besonnen	krank	geizig	versagen	gemein	töten	bange	1	blank2r.bmp	0	1	+	0	1	blank2r.bmp	500	1	DHJF	500	1	blank2r.bmp	880	4	krise	880	1	!	1232	1	!	1308	0	0	0	0	0	0
2024-06-07	13:49:45	13:56:12	386479	6.6.1	4_exp_EVA_AWA_CON	74	A	B	Rpleas_acq	Oppo	Rpleas	1pleas	acq_US_unple_nomask	acq45_nomask	4	7	400	1	300	300	0	0	434	50	0	0	engagiert	sonnig	anregung	kuss	gütig	vergnügt	engstirnig	sterben	ausrottung	krise	gierig	verbissen	kreativ	gesittet	vertrauen	genießen	träumen	besonnen	krank	geizig	versagen	gemein	töten	bange	1	blank2r.bmp	0	1	+	0	1	blank2r.bmp	500	1	DHJF	500	1	blank2r.bmp	880	3	ausrottung	880	1	!	1232	1	!	1335	0	0	0	0	0	0
2024-06-07	13:49:45	13:56:14	388728	6.6.1	4_exp_EVA_AWA_CON	74	A	B	Rpleas_acq	Oppo	Rpleas	1pleas	acq_US_pleas_nomask	acq45_nomask	4	8	400	1	300	300	0	0	470	50	1	0	engagiert	sonnig	anregung	kuss	gütig	vergnügt	engstirnig	sterben	ausrottung	krise	gierig	verbissen	kreativ	gesittet	vertrauen	genießen	träumen	besonnen	krank	geizig	versagen	gemein	töten	bange	1	blank2r.bmp	0	1	+	0	1	blank2r.bmp	500	1	CPLW	500	1	blank2r.bmp	880	1	engagiert	880	1	!	1232	1	!	1372	0	0	0	0	0	0
2024-06-07	13:49:45	13:56:16	390903	6.6.1	4_exp_EVA_AWA_CON	74	A	B	Rpleas_acq	Oppo	Rpleas	1pleas	acq_US_pleas_nomask	acq45_nomask	4	9	400	1	300	300	0	0	395	46	0	0	engagiert	sonnig	anregung	kuss	gütig	vergnügt	engstirnig	sterben	ausrottung	krise	gierig	verbissen	kreativ	gesittet	vertrauen	genießen	träumen	besonnen	krank	geizig	versagen	gemein	töten	bange	1	blank2r.bmp	0	1	+	0	1	blank2r.bmp	500	1	CPLW	500	1	blank2r.bmp	880	4	kuss	880	1	!	1232	1	!	1296	0	0	0	0	0	0
2024-06-07	13:49:45	13:56:18	393079	6.6.1	4_exp_EVA_AWA_CON	74	A	B	Rpleas_acq	Oppo	Rpleas	1pleas	acq_US_pleas_nomask	acq45_nomask	4	10	400	1	300	300	0	0	400	50	1	0	engagiert	sonnig	anregung	kuss	gütig	vergnügt	engstirnig	sterben	ausrottung	krise	gierig	verbissen	kreativ	gesittet	vertrauen	genießen	träumen	besonnen	krank	geizig	versagen	gemein	töten	bange	1	blank2r.bmp	0	1	+	0	1	blank2r.bmp	500	1	CPLW	500	1	blank2r.bmp	880	5	gütig	880	1	!	1233	1	!	1301	0	0	0	0	0	0
2024-06-07	13:49:45	13:56:21	395239	6.6.1	4_exp_EVA_AWA_CON	74	A	B	Rpleas_acq	Oppo	Rpleas	1pleas	acq_US_unple_nomask	acq45_nomask	4	11	400	1	300	300	0	0	378	46	1	0	engagiert	sonnig	anregung	kuss	gütig	vergnügt	engstirnig	sterben	ausrottung	krise	gierig	verbissen	kreativ	gesittet	vertrauen	genießen	träumen	besonnen	krank	geizig	versagen	gemein	töten	bange	1	blank2r.bmp	0	1	+	0	1	blank2r.bmp	500	1	DHJF	500	1	blank2r.bmp	880	5	gierig	880	1	!	1232	1	!	1279	0	0	0	0	0	0
2024-06-07	13:49:45	13:56:23	397439	6.6.1	4_exp_EVA_AWA_CON	74	A	B	Rpleas_acq	Oppo	Rpleas	1pleas	acq_US_unple_nomask	acq45_nomask	4	12	400	1	300	300	0	0	417	46	1	0	engagiert	sonnig	anregung	kuss	gütig	vergnügt	engstirnig	sterben	ausrottung	krise	gierig	verbissen	kreativ	gesittet	vertrauen	genießen	träumen	besonnen	krank	geizig	versagen	gemein	töten	bange	1	blank2r.bmp	0	1	+	0	1	blank2r.bmp	500	1	DHJF	500	1	blank2r.bmp	880	6	verbissen	880	1	!	1232	1	!	1318	0	0	0	0	0	0
2024-06-07	13:49:45	13:56:25	399575	6.6.1	4_exp_EVA_AWA_CON	74	A	B	Rpleas_acq	Oppo	Rpleas	1pleas	acq_US_pleas_nomask	acq45_nomask	4	13	400	1	300	300	0	0	361	50	1	0	engagiert	sonnig	anregung	kuss	gütig	vergnügt	engstirnig	sterben	ausrottung	krise	gierig	verbissen	kreativ	gesittet	vertrauen	genießen	träumen	besonnen	krank	geizig	versagen	gemein	töten	bange	1	blank2r.bmp	0	1	+	0	1	blank2r.bmp	500	1	CPLW	500	1	blank2r.bmp	880	6	vergnügt	880	1	!	1232	1	!	1262	0	0	0	0	0	0
2024-06-07	13:49:45	13:56:27	401751	6.6.1	4_exp_EVA_AWA_CON	74	A	B	Rpleas_acq	Oppo	Rpleas	1pleas	acq_US_pleas_nomask	acq45_nomask	4	14	400	1	300	300	0	0	396	46	0	0	engagiert	sonnig	anregung	kuss	gütig	vergnügt	engstirnig	sterben	ausrottung	krise	gierig	verbissen	kreativ	gesittet	vertrauen	genießen	träumen	besonnen	krank	geizig	versagen	gemein	töten	bange	1	blank2r.bmp	0	1	+	0	1	blank2r.bmp	500	1	CPLW	500	1	blank2r.bmp	880	2	sonnig	880	1	!	1232	1	!	1297	0	0	0	0	0	0
2024-06-07	13:49:45	13:56:29	403854	6.6.1	4_exp_EVA_AWA_CON	74	A	B	Rpleas_acq	Oppo	Rpleas	1pleas	acq_US_pleas_nomask	acq45_nomask	4	15	400	0	300	300	0	0	328	50	1	0	engagiert	sonnig	anregung	kuss	gütig	vergnügt	engstirnig	sterben	ausrottung	krise	gierig	verbissen	kreativ	gesittet	vertrauen	genießen	träumen	besonnen	krank	geizig	versagen	gemein	töten	bange	1	blank2r.bmp	0	1	+	0	1	blank2r.bmp	500	1	CPLW	500	1	blank2r.bmp	880	6	vergnügt	880	1	!	-1	1	!	-1	0	0	0	0	0	0
2024-06-07	13:49:45	13:56:31	405975	6.6.1	4_exp_EVA_AWA_CON	74	A	B	Rpleas_acq	Oppo	Rpleas	1pleas	acq_US_unple_nomask	acq45_nomask	4	16	400	1	300	300	0	0	347	50	0	0	engagiert	sonnig	anregung	kuss	gütig	vergnügt	engstirnig	sterben	ausrottung	krise	gierig	verbissen	kreativ	gesittet	vertrauen	genießen	träumen	besonnen	krank	geizig	versagen	gemein	töten	bange	1	blank2r.bmp	0	1	+	0	1	blank2r.bmp	500	1	DHJF	500	1	blank2r.bmp	880	1	engstirnig	880	1	!	1232	1	!	1248	0	0	0	0	0	0
2024-06-07	13:49:45	13:56:33	408143	6.6.1	4_exp_EVA_AWA_CON	74	A	B	Rpleas_acq	Oppo	Rpleas	1pleas	acq_US_pleas_nomask	acq45_nomask	4	17	400	1	300	300	0	0	394	50	1	0	engagiert	sonnig	anregung	kuss	gütig	vergnügt	engstirnig	sterben	ausrottung	krise	gierig	verbissen	kreativ	gesittet	vertrauen	genießen	träumen	besonnen	krank	geizig	versagen	gemein	töten	bange	1	blank2r.bmp	0	1	+	0	1	blank2r.bmp	500	1	CPLW	500	1	blank2r.bmp	880	3	anregung	880	1	!	1232	1	!	1295	0	0	0	0	0	0
2024-06-07	13:49:45	13:56:36	410320	6.6.1	4_exp_EVA_AWA_CON	74	A	B	Rpleas_acq	Oppo	Rpleas	1pleas	acq_US_pleas_nomask	acq45_nomask	4	18	400	1	300	300	0	0	398	46	0	0	engagiert	sonnig	anregung	kuss	gütig	vergnügt	engstirnig	sterben	ausrottung	krise	gierig	verbissen	kreativ	gesittet	vertrauen	genießen	träumen	besonnen	krank	geizig	versagen	gemein	töten	bange	1	blank2r.bmp	0	1	+	0	1	blank2r.bmp	500	1	CPLW	500	1	blank2r.bmp	880	1	engagiert	880	1	!	1233	1	!	1299	0	0	0	0	0	0
2024-06-07	13:49:45	13:56:38	412447	6.6.1	4_exp_EVA_AWA_CON	74	A	B	Rpleas_acq	Oppo	Rpleas	1pleas	acq_US_pleas_nomask	acq45_nomask	4	19	400	1	300	300	0	0	345	50	1	0	engagiert	sonnig	anregung	kuss	gütig	vergnügt	engstirnig	sterben	ausrottung	krise	gierig	verbissen	kreativ	gesittet	vertrauen	genießen	träumen	besonnen	krank	geizig	versagen	gemein	töten	bange	1	blank2r.bmp	0	1	+	0	1	blank2r.bmp	500	1	CPLW	500	1	blank2r.bmp	880	2	sonnig	880	1	!	1232	1	!	1246	0	0	0	0	0	0
2024-06-07	13:49:45	13:56:40	414623	6.6.1	4_exp_EVA_AWA_CON	74	A	B	Rpleas_acq	Oppo	Rpleas	1pleas	acq_US_unple_nomask	acq45_nomask	4	20	400	1	300	300	0	0	400	46	1	0	engagiert	sonnig	anregung	kuss	gütig	vergnügt	engstirnig	sterben	ausrottung	krise	gierig	verbissen	kreativ	gesittet	vertrauen	genießen	träumen	besonnen	krank	geizig	versagen	gemein	töten	bange	1	blank2r.bmp	0	1	+	0	1	blank2r.bmp	500	1	DHJF	500	1	blank2r.bmp	880	4	krise	880	1	!	1232	1	!	1301	0	0	0	0	0	0
2024-06-07	13:49:45	13:56:42	416839	6.6.1	4_exp_EVA_AWA_CON	74	A	B	Rpleas_acq	Oppo	Rpleas	1pleas	acq_US_unple_nomask	acq45_nomask	4	21	400	1	300	300	0	0	434	50	0	0	engagiert	sonnig	anregung	kuss	gütig	vergnügt	engstirnig	sterben	ausrottung	krise	gierig	verbissen	kreativ	gesittet	vertrauen	genießen	träumen	besonnen	krank	geizig	versagen	gemein	töten	bange	1	blank2r.bmp	0	1	+	0	1	blank2r.bmp	500	1	DHJF	500	1	blank2r.bmp	880	2	sterben	880	1	!	1233	1	!	1335	0	0	0	0	0	0
2024-06-07	13:49:45	13:56:44	418983	6.6.1	4_exp_EVA_AWA_CON	74	A	B	Rpleas_acq	Oppo	Rpleas	1pleas	acq_US_pleas_nomask	acq45_nomask	4	22	400	1	300	300	0	0	367	50	1	0	engagiert	sonnig	anregung	kuss	gütig	vergnügt	engstirnig	sterben	ausrottung	krise	gierig	verbissen	kreativ	gesittet	vertrauen	genießen	träumen	besonnen	krank	geizig	versagen	gemein	töten	bange	1	blank2r.bmp	0	1	+	0	1	blank2r.bmp	500	1	CPLW	500	1	blank2r.bmp	880	4	kuss	880	1	!	1234	1	!	1268	0	0	0	0	0	0
2024-06-07	13:49:45	13:56:46	421159	6.6.1	4_exp_EVA_AWA_CON	74	A	B	Rpleas_acq	Oppo	Rpleas	1pleas	acq_US_unple_nomask	acq45_nomask	4	23	400	1	300	300	0	0	401	50	0	0	engagiert	sonnig	anregung	kuss	gütig	vergnügt	engstirnig	sterben	ausrottung	krise	gierig	verbissen	kreativ	gesittet	vertrauen	genießen	träumen	besonnen	krank	geizig	versagen	gemein	töten	bange	1	blank2r.bmp	0	1	+	0	1	blank2r.bmp	500	1	DHJF	500	1	blank2r.bmp	880	3	ausrottung	880	1	!	1232	1	!	1302	0	0	0	0	0	0
2024-06-07	13:49:45	13:56:49	423278	6.6.1	4_exp_EVA_AWA_CON	74	A	B	Rpleas_acq	Oppo	Rpleas	1pleas	acq_US_pleas_nomask	acq45_nomask	4	24	400	1	300	300	0	0	340	50	1	0	engagiert	sonnig	anregung	kuss	gütig	vergnügt	engstirnig	sterben	ausrottung	krise	gierig	verbissen	kreativ	gesittet	vertrauen	genießen	träumen	besonnen	krank	geizig	versagen	gemein	töten	bange	1	blank2r.bmp	0	1	+	0	1	blank2r.bmp	500	1	CPLW	500	1	blank2r.bmp	880	5	gütig	880	1	!	1232	1	!	1239	0	0	0	0	0	0
2024-06-07	13:49:45	13:56:51	425415	6.6.1	4_exp_EVA_AWA_CON	74	A	B	Rpleas_acq	Oppo	Rpleas	1pleas	acq_US_unple_nomask	acq45_nomask	4	25	400	1	300	300	0	0	355	50	0	0	engagiert	sonnig	anregung	kuss	gütig	vergnügt	engstirnig	sterben	ausrottung	krise	gierig	verbissen	kreativ	gesittet	vertrauen	genießen	träumen	besonnen	krank	geizig	versagen	gemein	töten	bange	1	blank2r.bmp	0	1	+	0	1	blank2r.bmp	500	1	DHJF	500	1	blank2r.bmp	880	5	gierig	880	1	!	1232	1	!	1256	0	0	0	0	0	0
2024-06-07	13:49:45	13:56:53	427599	6.6.1	4_exp_EVA_AWA_CON	74	A	B	Rpleas_acq	Oppo	Rpleas	1pleas	acq_US_pleas_nomask	acq45_nomask	4	26	400	1	300	300	0	0	407	50	1	0	engagiert	sonnig	anregung	kuss	gütig	vergnügt	engstirnig	sterben	ausrottung	krise	gierig	verbissen	kreativ	gesittet	vertrauen	genießen	träumen	besonnen	krank	geizig	versagen	gemein	töten	bange	1	blank2r.bmp	0	1	+	0	1	blank2r.bmp	500	1	CPLW	500	1	blank2r.bmp	880	1	engagiert	880	1	!	1232	1	!	1308	0	0	0	0	0	0
2024-06-07	13:49:45	13:56:55	429751	6.6.1	4_exp_EVA_AWA_CON	74	A	B	Rpleas_acq	Oppo	Rpleas	1pleas	acq_US_unple_nomask	acq45_nomask	4	27	400	1	300	300	0	0	378	46	1	0	engagiert	sonnig	anregung	kuss	gütig	vergnügt	engstirnig	sterben	ausrottung	krise	gierig	verbissen	kreativ	gesittet	vertrauen	genießen	träumen	besonnen	krank	geizig	versagen	gemein	töten	bange	1	blank2r.bmp	0	1	+	0	1	blank2r.bmp	500	1	DHJF	500	1	blank2r.bmp	880	6	verbissen	880	1	!	1232	1	!	1279	0	0	0	0	0	0
2024-06-07	13:49:45	13:56:57	431896	6.6.1	4_exp_EVA_AWA_CON	74	A	B	Rpleas_acq	Oppo	Rpleas	1pleas	acq_US_unple_nomask	acq45_nomask	4	28	400	1	300	300	0	0	360	50	0	0	engagiert	sonnig	anregung	kuss	gütig	vergnügt	engstirnig	sterben	ausrottung	krise	gierig	verbissen	kreativ	gesittet	vertrauen	genießen	träumen	besonnen	krank	geizig	versagen	gemein	töten	bange	1	blank2r.bmp	0	1	+	0	1	blank2r.bmp	500	1	DHJF	500	1	blank2r.bmp	880	2	sterben	880	1	!	1233	1	!	1262	0	0	0	0	0	0
2024-06-07	13:49:45	13:56:59	434080	6.6.1	4_exp_EVA_AWA_CON	74	A	B	Rpleas_acq	Oppo	Rpleas	1pleas	acq_US_pleas_nomask	acq45_nomask	4	29	400	1	300	300	0	0	403	50	1	0	engagiert	sonnig	anregung	kuss	gütig	vergnügt	engstirnig	sterben	ausrottung	krise	gierig	verbissen	kreativ	gesittet	vertrauen	genießen	träumen	besonnen	krank	geizig	versagen	gemein	töten	bange	1	blank2r.bmp	0	1	+	0	1	blank2r.bmp	500	1	CPLW	500	1	blank2r.bmp	880	6	vergnügt	880	1	!	1232	1	!	1304	0	0	0	0	0	0
2024-06-07	13:49:45	13:57:02	436231	6.6.1	4_exp_EVA_AWA_CON	74	A	B	Rpleas_acq	Oppo	Rpleas	1pleas	acq_US_pleas_nomask	acq45_nomask	4	30	400	1	300	300	0	0	374	50	1	0	engagiert	sonnig	anregung	kuss	gütig	vergnügt	engstirnig	sterben	ausrottung	krise	gierig	verbissen	kreativ	gesittet	vertrauen	genießen	träumen	besonnen	krank	geizig	versagen	gemein	töten	bange	1	blank2r.bmp	0	1	+	0	1	blank2r.bmp	500	1	CPLW	500	1	blank2r.bmp	880	3	anregung	880	1	!	1232	1	!	1275	0	0	0	0	0	0
2024-06-07	13:49:45	13:57:04	438349	6.6.1	4_exp_EVA_AWA_CON	74	A	B	Rpleas_acq	Oppo	Rpleas	1pleas	acq_US_pleas_nomask	acq45_nomask	4	31	400	1	300	300	0	0	342	50	1	0	engagiert	sonnig	anregung	kuss	gütig	vergnügt	engstirnig	sterben	ausrottung	krise	gierig	verbissen	kreativ	gesittet	vertrauen	genießen	träumen	besonnen	krank	geizig	versagen	gemein	töten	bange	1	blank2r.bmp	0	1	+	0	1	blank2r.bmp	500	1	CPLW	500	1	blank2r.bmp	880	5	gütig	880	1	!	1232	1	!	1242	0	0	0	0	0	0
2024-06-07	13:49:45	13:57:06	440495	6.6.1	4_exp_EVA_AWA_CON	74	A	B	Rpleas_acq	Oppo	Rpleas	1pleas	acq_US_unple_nomask	acq45_nomask	4	32	400	1	300	300	0	0	365	46	1	0	engagiert	sonnig	anregung	kuss	gütig	vergnügt	engstirnig	sterben	ausrottung	krise	gierig	verbissen	kreativ	gesittet	vertrauen	genießen	träumen	besonnen	krank	geizig	versagen	gemein	töten	bange	1	blank2r.bmp	0	1	+	0	1	blank2r.bmp	500	1	DHJF	500	1	blank2r.bmp	880	1	engstirnig	880	1	!	1232	1	!	1266	0	0	0	0	0	0
2024-06-07	13:49:45	13:57:08	442687	6.6.1	4_exp_EVA_AWA_CON	74	A	B	Rpleas_acq	Oppo	Rpleas	1pleas	acq_US_unple_nomask	acq45_nomask	4	33	400	1	300	300	0	0	416	50	0	0	engagiert	sonnig	anregung	kuss	gütig	vergnügt	engstirnig	sterben	ausrottung	krise	gierig	verbissen	kreativ	gesittet	vertrauen	genießen	träumen	besonnen	krank	geizig	versagen	gemein	töten	bange	1	blank2r.bmp	0	1	+	0	1	blank2r.bmp	500	1	DHJF	500	1	blank2r.bmp	880	4	krise	880	1	!	1232	1	!	1317	0	0	0	0	0	0
2024-06-07	13:49:45	13:57:10	444887	6.6.1	4_exp_EVA_AWA_CON	74	A	B	Rpleas_acq	Oppo	Rpleas	1pleas	acq_US_pleas_nomask	acq45_nomask	4	34	400	1	300	300	0	0	424	50	1	0	engagiert	sonnig	anregung	kuss	gütig	vergnügt	engstirnig	sterben	ausrottung	krise	gierig	verbissen	kreativ	gesittet	vertrauen	genießen	träumen	besonnen	krank	geizig	versagen	gemein	töten	bange	1	blank2r.bmp	0	1	+	0	1	blank2r.bmp	500	1	CPLW	500	1	blank2r.bmp	880	4	kuss	880	1	!	1232	1	!	1325	0	0	0	0	0	0
2024-06-07	13:49:45	13:57:12	447064	6.6.1	4_exp_EVA_AWA_CON	74	A	B	Rpleas_acq	Oppo	Rpleas	1pleas	acq_US_pleas_nomask	acq45_nomask	4	35	400	1	300	300	0	0	399	50	1	0	engagiert	sonnig	anregung	kuss	gütig	vergnügt	engstirnig	sterben	ausrottung	krise	gierig	verbissen	kreativ	gesittet	vertrauen	genießen	träumen	besonnen	krank	geizig	versagen	gemein	töten	bange	1	blank2r.bmp	0	1	+	0	1	blank2r.bmp	500	1	CPLW	500	1	blank2r.bmp	880	2	sonnig	880	1	!	1232	1	!	1300	0	0	0	0	0	0
2024-06-07	13:49:45	13:57:15	449231	6.6.1	4_exp_EVA_AWA_CON	74	A	B	Rpleas_acq	Oppo	Rpleas	1pleas	acq_US_unple_nomask	acq45_nomask	4	36	400	1	300	300	0	0	385	46	1	0	engagiert	sonnig	anregung	kuss	gütig	vergnügt	engstirnig	sterben	ausrottung	krise	gierig	verbissen	kreativ	gesittet	vertrauen	genießen	träumen	besonnen	krank	geizig	versagen	gemein	töten	bange	1	blank2r.bmp	0	1	+	0	1	blank2r.bmp	500	1	DHJF	500	1	blank2r.bmp	880	3	ausrottung	880	1	!	1232	1	!	1286	0	0	0	0	0	0
2024-06-07	13:49:45	13:57:28	462584	6.6.1	4_exp_EVA_AWA_CON	74	A	B	Rpleas_acq	Oppo	Rpleas	1pleas	acq_US_unple_nomask	acq45_nomask	5	1	400	1	300	300	0	0	389	46	1	0	engagiert	sonnig	anregung	kuss	gütig	vergnügt	engstirnig	sterben	ausrottung	krise	gierig	verbissen	kreativ	gesittet	vertrauen	genießen	träumen	besonnen	krank	geizig	versagen	gemein	töten	bange	1	blank2r.bmp	0	1	+	0	1	blank2r.bmp	500	1	DHJF	500	1	blank2r.bmp	880	4	krise	880	1	!	1232	1	!	1290	0	0	0	0	0	0
2024-06-07	13:49:45	13:57:30	464743	6.6.1	4_exp_EVA_AWA_CON	74	A	B	Rpleas_acq	Oppo	Rpleas	1pleas	acq_US_pleas_nomask	acq45_nomask	5	2	400	1	300	300	0	0	377	50	1	0	engagiert	sonnig	anregung	kuss	gütig	vergnügt	engstirnig	sterben	ausrottung	krise	gierig	verbissen	kreativ	gesittet	vertrauen	genießen	träumen	besonnen	krank	geizig	versagen	gemein	töten	bange	1	blank2r.bmp	0	1	+	0	1	blank2r.bmp	500	1	CPLW	500	1	blank2r.bmp	880	2	sonnig	880	1	!	1232	1	!	1279	0	0	0	0	0	0
2024-06-07	13:49:45	13:57:32	466879	6.6.1	4_exp_EVA_AWA_CON	74	A	B	Rpleas_acq	Oppo	Rpleas	1pleas	acq_US_pleas_nomask	acq45_nomask	5	3	400	1	300	300	0	0	362	46	0	0	engagiert	sonnig	anregung	kuss	gütig	vergnügt	engstirnig	sterben	ausrottung	krise	gierig	verbissen	kreativ	gesittet	vertrauen	genießen	träumen	besonnen	krank	geizig	versagen	gemein	töten	bange	1	blank2r.bmp	0	1	+	0	1	blank2r.bmp	500	1	CPLW	500	1	blank2r.bmp	880	6	vergnügt	880	1	!	1232	1	!	1263	0	0	0	0	0	0
2024-06-07	13:49:45	13:57:34	469063	6.6.1	4_exp_EVA_AWA_CON	74	A	B	Rpleas_acq	Oppo	Rpleas	1pleas	acq_US_unple_nomask	acq45_nomask	5	4	400	1	300	300	0	0	405	46	1	0	engagiert	sonnig	anregung	kuss	gütig	vergnügt	engstirnig	sterben	ausrottung	krise	gierig	verbissen	kreativ	gesittet	vertrauen	genießen	träumen	besonnen	krank	geizig	versagen	gemein	töten	bange	1	blank2r.bmp	0	1	+	0	1	blank2r.bmp	500	1	DHJF	500	1	blank2r.bmp	880	3	ausrottung	880	1	!	1233	1	!	1306	0	0	0	0	0	0
2024-06-07	13:49:45	13:57:37	471223	6.6.1	4_exp_EVA_AWA_CON	74	A	B	Rpleas_acq	Oppo	Rpleas	1pleas	acq_US_pleas_nomask	acq45_nomask	5	5	400	1	300	300	0	0	383	46	0	0	engagiert	sonnig	anregung	kuss	gütig	vergnügt	engstirnig	sterben	ausrottung	krise	gierig	verbissen	kreativ	gesittet	vertrauen	genießen	träumen	besonnen	krank	geizig	versagen	gemein	töten	bange	1	blank2r.bmp	0	1	+	0	1	blank2r.bmp	500	1	CPLW	500	1	blank2r.bmp	880	1	engagiert	880	1	!	1232	1	!	1284	0	0	0	0	0	0
2024-06-07	13:49:45	13:57:39	473399	6.6.1	4_exp_EVA_AWA_CON	74	A	B	Rpleas_acq	Oppo	Rpleas	1pleas	acq_US_unple_nomask	acq45_nomask	5	6	400	1	300	300	0	0	398	46	1	0	engagiert	sonnig	anregung	kuss	gütig	vergnügt	engstirnig	sterben	ausrottung	krise	gierig	verbissen	kreativ	gesittet	vertrauen	genießen	träumen	besonnen	krank	geizig	versagen	gemein	töten	bange	1	blank2r.bmp	0	1	+	0	1	blank2r.bmp	500	1	DHJF	500	1	blank2r.bmp	880	1	engstirnig	880	1	!	1232	1	!	1299	0	0	0	0	0	0
2024-06-07	13:49:45	13:57:41	475567	6.6.1	4_exp_EVA_AWA_CON	74	A	B	Rpleas_acq	Oppo	Rpleas	1pleas	acq_US_pleas_nomask	acq45_nomask	5	7	400	1	300	300	0	0	384	50	1	0	engagiert	sonnig	anregung	kuss	gütig	vergnügt	engstirnig	sterben	ausrottung	krise	gierig	verbissen	kreativ	gesittet	vertrauen	genießen	träumen	besonnen	krank	geizig	versagen	gemein	töten	bange	1	blank2r.bmp	0	1	+	0	1	blank2r.bmp	500	1	CPLW	500	1	blank2r.bmp	880	5	gütig	880	1	!	1232	1	!	1286	0	0	0	0	0	0
2024-06-07	13:49:45	13:57:43	477784	6.6.1	4_exp_EVA_AWA_CON	74	A	B	Rpleas_acq	Oppo	Rpleas	1pleas	acq_US_pleas_nomask	acq45_nomask	5	8	400	1	300	300	0	0	439	46	0	0	engagiert	sonnig	anregung	kuss	gütig	vergnügt	engstirnig	sterben	ausrottung	krise	gierig	verbissen	kreativ	gesittet	vertrauen	genießen	träumen	besonnen	krank	geizig	versagen	gemein	töten	bange	1	blank2r.bmp	0	1	+	0	1	blank2r.bmp	500	1	CPLW	500	1	blank2r.bmp	880	4	kuss	880	1	!	1232	1	!	1341	0	0	0	0	0	0
2024-06-07	13:49:45	13:57:45	480031	6.6.1	4_exp_EVA_AWA_CON	74	A	B	Rpleas_acq	Oppo	Rpleas	1pleas	acq_US_unple_nomask	acq45_nomask	5	9	400	1	300	300	0	0	466	46	1	0	engagiert	sonnig	anregung	kuss	gütig	vergnügt	engstirnig	sterben	ausrottung	krise	gierig	verbissen	kreativ	gesittet	vertrauen	genießen	träumen	besonnen	krank	geizig	versagen	gemein	töten	bange	1	blank2r.bmp	0	1	+	0	1	blank2r.bmp	500	1	DHJF	500	1	blank2r.bmp	880	5	gierig	880	1	!	1233	1	!	1367	0	0	0	0	0	0
2024-06-07	13:49:45	13:57:48	482191	6.6.1	4_exp_EVA_AWA_CON	74	A	B	Rpleas_acq	Oppo	Rpleas	1pleas	acq_US_pleas_nomask	acq45_nomask	5	10	400	1	300	300	0	0	384	50	1	0	engagiert	sonnig	anregung	kuss	gütig	vergnügt	engstirnig	sterben	ausrottung	krise	gierig	verbissen	kreativ	gesittet	vertrauen	genießen	träumen	besonnen	krank	geizig	versagen	gemein	töten	bange	1	blank2r.bmp	0	1	+	0	1	blank2r.bmp	500	1	CPLW	500	1	blank2r.bmp	880	3	anregung	880	1	!	1232	1	!	1285	0	0	0	0	0	0
2024-06-07	13:49:45	13:57:50	484368	6.6.1	4_exp_EVA_AWA_CON	74	A	B	Rpleas_acq	Oppo	Rpleas	1pleas	acq_US_pleas_nomask	acq45_nomask	5	11	400	1	300	300	0	0	399	50	1	0	engagiert	sonnig	anregung	kuss	gütig	vergnügt	engstirnig	sterben	ausrottung	krise	gierig	verbissen	kreativ	gesittet	vertrauen	genießen	träumen	besonnen	krank	geizig	versagen	gemein	töten	bange	1	blank2r.bmp	0	1	+	0	1	blank2r.bmp	500	1	CPLW	500	1	blank2r.bmp	880	4	kuss	880	1	!	1232	1	!	1300	0	0	0	0	0	0
2024-06-07	13:49:45	13:57:52	486559	6.6.1	4_exp_EVA_AWA_CON	74	A	B	Rpleas_acq	Oppo	Rpleas	1pleas	acq_US_unple_nomask	acq45_nomask	5	12	400	1	300	300	0	0	409	46	1	0	engagiert	sonnig	anregung	kuss	gütig	vergnügt	engstirnig	sterben	ausrottung	krise	gierig	verbissen	kreativ	gesittet	vertrauen	genießen	träumen	besonnen	krank	geizig	versagen	gemein	töten	bange	1	blank2r.bmp	0	1	+	0	1	blank2r.bmp	500	1	DHJF	500	1	blank2r.bmp	880	6	verbissen	880	1	!	1232	1	!	1310	0	0	0	0	0	0
2024-06-07	13:49:45	13:57:54	488767	6.6.1	4_exp_EVA_AWA_CON	74	A	B	Rpleas_acq	Oppo	Rpleas	1pleas	acq_US_pleas_nomask	acq45_nomask	5	13	400	1	300	300	0	0	426	50	1	0	engagiert	sonnig	anregung	kuss	gütig	vergnügt	engstirnig	sterben	ausrottung	krise	gierig	verbissen	kreativ	gesittet	vertrauen	genießen	träumen	besonnen	krank	geizig	versagen	gemein	töten	bange	1	blank2r.bmp	0	1	+	0	1	blank2r.bmp	500	1	CPLW	500	1	blank2r.bmp	880	6	vergnügt	880	1	!	1233	1	!	1327	0	0	0	0	0	0
2024-06-07	13:49:45	13:57:56	490887	6.6.1	4_exp_EVA_AWA_CON	74	A	B	Rpleas_acq	Oppo	Rpleas	1pleas	acq_US_unple_nomask	acq45_nomask	5	14	400	1	300	300	0	0	345	50	0	0	engagiert	sonnig	anregung	kuss	gütig	vergnügt	engstirnig	sterben	ausrottung	krise	gierig	verbissen	kreativ	gesittet	vertrauen	genießen	träumen	besonnen	krank	geizig	versagen	gemein	töten	bange	1	blank2r.bmp	0	1	+	0	1	blank2r.bmp	500	1	DHJF	500	1	blank2r.bmp	880	2	sterben	880	1	!	1232	1	!	1246	0	0	0	0	0	0
2024-06-07	13:49:45	13:57:58	493063	6.6.1	4_exp_EVA_AWA_CON	74	A	B	Rpleas_acq	Oppo	Rpleas	1pleas	acq_US_unple_nomask	acq45_nomask	5	15	400	1	300	300	0	0	399	46	1	0	engagiert	sonnig	anregung	kuss	gütig	vergnügt	engstirnig	sterben	ausrottung	krise	gierig	verbissen	kreativ	gesittet	vertrauen	genießen	träumen	besonnen	krank	geizig	versagen	gemein	töten	bange	1	blank2r.bmp	0	1	+	0	1	blank2r.bmp	500	1	DHJF	500	1	blank2r.bmp	880	5	gierig	880	1	!	1232	1	!	1300	0	0	0	0	0	0
2024-06-07	13:49:45	13:58:01	495207	6.6.1	4_exp_EVA_AWA_CON	74	A	B	Rpleas_acq	Oppo	Rpleas	1pleas	acq_US_pleas_nomask	acq45_nomask	5	16	400	1	300	300	0	0	362	50	1	0	engagiert	sonnig	anregung	kuss	gütig	vergnügt	engstirnig	sterben	ausrottung	krise	gierig	verbissen	kreativ	gesittet	vertrauen	genießen	träumen	besonnen	krank	geizig	versagen	gemein	töten	bange	1	blank2r.bmp	0	1	+	0	1	blank2r.bmp	500	1	CPLW	500	1	blank2r.bmp	880	5	gütig	880	1	!	1232	1	!	1263	0	0	0	0	0	0
2024-06-07	13:49:45	13:58:03	497336	6.6.1	4_exp_EVA_AWA_CON	74	A	B	Rpleas_acq	Oppo	Rpleas	1pleas	acq_US_unple_nomask	acq45_nomask	5	17	400	1	300	300	0	0	348	50	0	0	engagiert	sonnig	anregung	kuss	gütig	vergnügt	engstirnig	sterben	ausrottung	krise	gierig	verbissen	kreativ	gesittet	vertrauen	genießen	träumen	besonnen	krank	geizig	versagen	gemein	töten	bange	1	blank2r.bmp	0	1	+	0	1	blank2r.bmp	500	1	DHJF	500	1	blank2r.bmp	880	1	engstirnig	880	1	!	1232	1	!	1249	0	0	0	0	0	0
2024-06-07	13:49:45	13:58:05	499358	6.6.1	4_exp_EVA_AWA_CON	74	A	B	Rpleas_acq	Oppo	Rpleas	1pleas	acq_US_unple_nomask	acq45_nomask	5	18	400	0	300	300	0	0	241	50	0	0	engagiert	sonnig	anregung	kuss	gütig	vergnügt	engstirnig	sterben	ausrottung	krise	gierig	verbissen	kreativ	gesittet	vertrauen	genießen	träumen	besonnen	krank	geizig	versagen	gemein	töten	bange	1	blank2r.bmp	0	1	+	0	1	blank2r.bmp	500	1	DHJF	500	1	blank2r.bmp	880	6	verbissen	880	1	!	-1	1	!	-1	0	0	0	0	0	0
2024-06-07	13:49:45	13:58:07	501611	6.6.1	4_exp_EVA_AWA_CON	74	A	B	Rpleas_acq	Oppo	Rpleas	1pleas	acq_US_unple_nomask	acq45_nomask	5	19	400	0	300	300	0	0	476	46	1	0	engagiert	sonnig	anregung	kuss	gütig	vergnügt	engstirnig	sterben	ausrottung	krise	gierig	verbissen	kreativ	gesittet	vertrauen	genießen	träumen	besonnen	krank	geizig	versagen	gemein	töten	bange	1	blank2r.bmp	0	1	+	0	1	blank2r.bmp	500	1	DHJF	500	1	blank2r.bmp	880	3	ausrottung	880	1	!	1232	1	!	-1	0	0	0	0	0	0
2024-06-07	13:49:45	13:58:09	503735	6.6.1	4_exp_EVA_AWA_CON	74	A	B	Rpleas_acq	Oppo	Rpleas	1pleas	acq_US_pleas_nomask	acq45_nomask	5	20	400	1	300	300	0	0	344	50	1	0	engagiert	sonnig	anregung	kuss	gütig	vergnügt	engstirnig	sterben	ausrottung	krise	gierig	verbissen	kreativ	gesittet	vertrauen	genießen	träumen	besonnen	krank	geizig	versagen	gemein	töten	bange	1	blank2r.bmp	0	1	+	0	1	blank2r.bmp	500	1	CPLW	500	1	blank2r.bmp	880	1	engagiert	880	1	!	1232	1	!	1245	0	0	0	0	0	0
2024-06-07	13:49:45	13:58:11	505829	6.6.1	4_exp_EVA_AWA_CON	74	A	B	Rpleas_acq	Oppo	Rpleas	1pleas	acq_US_unple_nomask	acq45_nomask	5	21	400	0	300	300	0	0	319	50	0	0	engagiert	sonnig	anregung	kuss	gütig	vergnügt	engstirnig	sterben	ausrottung	krise	gierig	verbissen	kreativ	gesittet	vertrauen	genießen	träumen	besonnen	krank	geizig	versagen	gemein	töten	bange	1	blank2r.bmp	0	1	+	0	1	blank2r.bmp	500	1	DHJF	500	1	blank2r.bmp	880	4	krise	880	1	!	-1	1	!	-1	0	0	0	0	0	0
2024-06-07	13:49:45	13:58:13	508007	6.6.1	4_exp_EVA_AWA_CON	74	A	B	Rpleas_acq	Oppo	Rpleas	1pleas	acq_US_unple_nomask	acq45_nomask	5	22	400	1	300	300	0	0	404	46	1	0	engagiert	sonnig	anregung	kuss	gütig	vergnügt	engstirnig	sterben	ausrottung	krise	gierig	verbissen	kreativ	gesittet	vertrauen	genießen	träumen	besonnen	krank	geizig	versagen	gemein	töten	bange	1	blank2r.bmp	0	1	+	0	1	blank2r.bmp	500	1	DHJF	500	1	blank2r.bmp	880	2	sterben	880	1	!	1232	1	!	1305	0	0	0	0	0	0
2024-06-07	13:49:45	13:58:16	510216	6.6.1	4_exp_EVA_AWA_CON	74	A	B	Rpleas_acq	Oppo	Rpleas	1pleas	acq_US_pleas_nomask	acq45_nomask	5	23	400	1	300	300	0	0	430	46	0	0	engagiert	sonnig	anregung	kuss	gütig	vergnügt	engstirnig	sterben	ausrottung	krise	gierig	verbissen	kreativ	gesittet	vertrauen	genießen	träumen	besonnen	krank	geizig	versagen	gemein	töten	bange	1	blank2r.bmp	0	1	+	0	1	blank2r.bmp	500	1	CPLW	500	1	blank2r.bmp	880	3	anregung	880	1	!	1232	1	!	1332	0	0	0	0	0	0
2024-06-07	13:49:45	13:58:18	512351	6.6.1	4_exp_EVA_AWA_CON	74	A	B	Rpleas_acq	Oppo	Rpleas	1pleas	acq_US_pleas_nomask	acq45_nomask	5	24	400	1	300	300	0	0	355	50	1	0	engagiert	sonnig	anregung	kuss	gütig	vergnügt	engstirnig	sterben	ausrottung	krise	gierig	verbissen	kreativ	gesittet	vertrauen	genießen	träumen	besonnen	krank	geizig	versagen	gemein	töten	bange	1	blank2r.bmp	0	1	+	0	1	blank2r.bmp	500	1	CPLW	500	1	blank2r.bmp	880	2	sonnig	880	1	!	1232	1	!	1256	0	0	0	0	0	0
2024-06-07	13:49:45	13:58:20	514511	6.6.1	4_exp_EVA_AWA_CON	74	A	B	Rpleas_acq	Oppo	Rpleas	1pleas	acq_US_unple_nomask	acq45_nomask	5	25	400	1	300	300	0	0	383	46	1	0	engagiert	sonnig	anregung	kuss	gütig	vergnügt	engstirnig	sterben	ausrottung	krise	gierig	verbissen	kreativ	gesittet	vertrauen	genießen	träumen	besonnen	krank	geizig	versagen	gemein	töten	bange	1	blank2r.bmp	0	1	+	0	1	blank2r.bmp	500	1	DHJF	500	1	blank2r.bmp	880	3	ausrottung	880	1	!	1232	1	!	1285	0	0	0	0	0	0
2024-06-07	13:49:45	13:58:22	516640	6.6.1	4_exp_EVA_AWA_CON	74	A	B	Rpleas_acq	Oppo	Rpleas	1pleas	acq_US_pleas_nomask	acq45_nomask	5	26	400	1	300	300	0	0	350	50	1	0	engagiert	sonnig	anregung	kuss	gütig	vergnügt	engstirnig	sterben	ausrottung	krise	gierig	verbissen	kreativ	gesittet	vertrauen	genießen	träumen	besonnen	krank	geizig	versagen	gemein	töten	bange	1	blank2r.bmp	0	1	+	0	1	blank2r.bmp	500	1	CPLW	500	1	blank2r.bmp	880	4	kuss	880	1	!	1232	1	!	1252	0	0	0	0	0	0
2024-06-07	13:49:45	13:58:24	518750	6.6.1	4_exp_EVA_AWA_CON	74	A	B	Rpleas_acq	Oppo	Rpleas	1pleas	acq_US_unple_nomask	acq45_nomask	5	27	400	0	300	300	0	0	331	50	0	0	engagiert	sonnig	anregung	kuss	gütig	vergnügt	engstirnig	sterben	ausrottung	krise	gierig	verbissen	kreativ	gesittet	vertrauen	genießen	träumen	besonnen	krank	geizig	versagen	gemein	töten	bange	1	blank2r.bmp	0	1	+	0	1	blank2r.bmp	500	1	DHJF	500	1	blank2r.bmp	880	5	gierig	880	1	!	-1	1	!	-1	0	0	0	0	0	0
2024-06-07	13:49:45	13:58:26	520951	6.6.1	4_exp_EVA_AWA_CON	74	A	B	Rpleas_acq	Oppo	Rpleas	1pleas	acq_US_pleas_nomask	acq45_nomask	5	28	400	1	300	300	0	0	419	50	1	0	engagiert	sonnig	anregung	kuss	gütig	vergnügt	engstirnig	sterben	ausrottung	krise	gierig	verbissen	kreativ	gesittet	vertrauen	genießen	träumen	besonnen	krank	geizig	versagen	gemein	töten	bange	1	blank2r.bmp	0	1	+	0	1	blank2r.bmp	500	1	CPLW	500	1	blank2r.bmp	880	6	vergnügt	880	1	!	1232	1	!	1321	0	0	0	0	0	0
2024-06-07	13:49:45	13:58:28	523095	6.6.1	4_exp_EVA_AWA_CON	74	A	B	Rpleas_acq	Oppo	Rpleas	1pleas	acq_US_pleas_nomask	acq45_nomask	5	29	400	1	300	300	0	0	362	46	0	0	engagiert	sonnig	anregung	kuss	gütig	vergnügt	engstirnig	sterben	ausrottung	krise	gierig	verbissen	kreativ	gesittet	vertrauen	genießen	träumen	besonnen	krank	geizig	versagen	gemein	töten	bange	1	blank2r.bmp	0	1	+	0	1	blank2r.bmp	500	1	CPLW	500	1	blank2r.bmp	880	1	engagiert	880	1	!	1232	1	!	1263	0	0	0	0	0	0
2024-06-07	13:49:45	13:58:31	525239	6.6.1	4_exp_EVA_AWA_CON	74	A	B	Rpleas_acq	Oppo	Rpleas	1pleas	acq_US_unple_nomask	acq45_nomask	5	30	400	1	300	300	0	0	364	46	1	0	engagiert	sonnig	anregung	kuss	gütig	vergnügt	engstirnig	sterben	ausrottung	krise	gierig	verbissen	kreativ	gesittet	vertrauen	genießen	träumen	besonnen	krank	geizig	versagen	gemein	töten	bange	1	blank2r.bmp	0	1	+	0	1	blank2r.bmp	500	1	DHJF	500	1	blank2r.bmp	880	2	sterben	880	1	!	1232	1	!	1266	0	0	0	0	0	0
2024-06-07	13:49:45	13:58:33	527357	6.6.1	4_exp_EVA_AWA_CON	74	A	B	Rpleas_acq	Oppo	Rpleas	1pleas	acq_US_pleas_nomask	acq45_nomask	5	31	400	1	300	300	0	0	343	50	1	0	engagiert	sonnig	anregung	kuss	gütig	vergnügt	engstirnig	sterben	ausrottung	krise	gierig	verbissen	kreativ	gesittet	vertrauen	genießen	träumen	besonnen	krank	geizig	versagen	gemein	töten	bange	1	blank2r.bmp	0	1	+	0	1	blank2r.bmp	500	1	CPLW	500	1	blank2r.bmp	880	5	gütig	880	1	!	1232	1	!	1243	0	0	0	0	0	0
2024-06-07	13:49:45	13:58:35	529477	6.6.1	4_exp_EVA_AWA_CON	74	A	B	Rpleas_acq	Oppo	Rpleas	1pleas	acq_US_pleas_nomask	acq45_nomask	5	32	400	1	300	300	0	0	342	50	1	0	engagiert	sonnig	anregung	kuss	gütig	vergnügt	engstirnig	sterben	ausrottung	krise	gierig	verbissen	kreativ	gesittet	vertrauen	genießen	träumen	besonnen	krank	geizig	versagen	gemein	töten	bange	1	blank2r.bmp	0	1	+	0	1	blank2r.bmp	500	1	CPLW	500	1	blank2r.bmp	880	2	sonnig	880	1	!	1233	1	!	1241	0	0	0	0	0	0
2024-06-07	13:49:45	13:58:37	531590	6.6.1	4_exp_EVA_AWA_CON	74	A	B	Rpleas_acq	Oppo	Rpleas	1pleas	acq_US_unple_nomask	acq45_nomask	5	33	400	1	300	300	0	0	333	50	0	0	engagiert	sonnig	anregung	kuss	gütig	vergnügt	engstirnig	sterben	ausrottung	krise	gierig	verbissen	kreativ	gesittet	vertrauen	genießen	träumen	besonnen	krank	geizig	versagen	gemein	töten	bange	1	blank2r.bmp	0	1	+	0	1	blank2r.bmp	500	1	DHJF	500	1	blank2r.bmp	880	4	krise	880	1	!	1232	1	!	1233	0	0	0	0	0	0
2024-06-07	13:49:45	13:58:39	533743	6.6.1	4_exp_EVA_AWA_CON	74	A	B	Rpleas_acq	Oppo	Rpleas	1pleas	acq_US_unple_nomask	acq45_nomask	5	34	400	1	300	300	0	0	373	46	1	0	engagiert	sonnig	anregung	kuss	gütig	vergnügt	engstirnig	sterben	ausrottung	krise	gierig	verbissen	kreativ	gesittet	vertrauen	genießen	träumen	besonnen	krank	geizig	versagen	gemein	töten	bange	1	blank2r.bmp	0	1	+	0	1	blank2r.bmp	500	1	DHJF	500	1	blank2r.bmp	880	6	verbissen	880	1	!	1232	1	!	1274	0	0	0	0	0	0
2024-06-07	13:49:45	13:58:41	535951	6.6.1	4_exp_EVA_AWA_CON	74	A	B	Rpleas_acq	Oppo	Rpleas	1pleas	acq_US_pleas_nomask	acq45_nomask	5	35	400	1	300	300	0	0	430	50	1	0	engagiert	sonnig	anregung	kuss	gütig	vergnügt	engstirnig	sterben	ausrottung	krise	gierig	verbissen	kreativ	gesittet	vertrauen	genießen	träumen	besonnen	krank	geizig	versagen	gemein	töten	bange	1	blank2r.bmp	0	1	+	0	1	blank2r.bmp	500	1	CPLW	500	1	blank2r.bmp	880	3	anregung	880	1	!	1232	1	!	1331	0	0	0	0	0	0
2024-06-07	13:49:45	13:58:43	538127	6.6.1	4_exp_EVA_AWA_CON	74	A	B	Rpleas_acq	Oppo	Rpleas	1pleas	acq_US_unple_nomask	acq45_nomask	5	36	400	1	300	300	0	0	394	46	1	0	engagiert	sonnig	anregung	kuss	gütig	vergnügt	engstirnig	sterben	ausrottung	krise	gierig	verbissen	kreativ	gesittet	vertrauen	genießen	träumen	besonnen	krank	geizig	versagen	gemein	töten	bange	1	blank2r.bmp	0	1	+	0	1	blank2r.bmp	500	1	DHJF	500	1	blank2r.bmp	880	1	engstirnig	880	1	!	1232	1	!	1295	0	0	0	0	0	0
2024-06-07	13:49:45	13:59:06	560649	6.6.1	4_exp_EVA_AWA_CON	74	A	B	Rpleas_acq	Oppo	Lpleas	1pleas	EvalRating_firsttwo	EvalRating_firsttwo	6	1	0	0	300	300	0	0	4598	line	0	37,7604166666666856145pct	engagiert	sonnig	anregung	kuss	gütig	vergnügt	engstirnig	sterben	ausrottung	krise	gierig	verbissen	kreativ	gesittet	vertrauen	genießen	träumen	besonnen	krank	geizig	versagen	gemein	töten	bange	1		-7	1	Wie angenehm oder unangenehm finden Sie die  Buchstabenkette WDLH?	-7	1		-7	1		-7	1		-7	1	Unangenehm	-7	1	Angenehm	-7	0	0	0	0	0	0	0	0	0
2024-06-07	13:49:45	13:59:11	565266	6.6.1	4_exp_EVA_AWA_CON	74	A	B	Rpleas_acq	Oppo	Lpleas	1pleas	EvalRating_lastfour	EvalRating_lastfour	7	1	0	0	300	300	0	0	2239	line	0	4,296875pct	engagiert	sonnig	anregung	kuss	gütig	vergnügt	engstirnig	sterben	ausrottung	krise	gierig	verbissen	kreativ	gesittet	vertrauen	genießen	träumen	besonnen	krank	geizig	versagen	gemein	töten	bange	1		-8	2	Wie angenehm oder unangenehm finden Sie die  Buchstabenkette DHJF?	-8	1		-8	1		-8	1		-8	1	Unangenehm	-8	1	Angenehm	-8	0	0	0	0	0	0	0	0	0
2024-06-07	13:49:45	13:59:13	567632	6.6.1	4_exp_EVA_AWA_CON	74	A	B	Rpleas_acq	Oppo	Lpleas	1pleas	blank_screen	EvalRating_lastfour	7	3	0	0	300	300	0	0	0	0	0	4,296875pct	engagiert	sonnig	anregung	kuss	gütig	vergnügt	engstirnig	sterben	ausrottung	krise	gierig	verbissen	kreativ	gesittet	vertrauen	genießen	träumen	besonnen	krank	geizig	versagen	gemein	töten	bange	1		-8	0	0	0	0	0	0	0	0	0	0	0	0	0	0	0	0	0	0	0	0	0	0	0	0	0	0	0
2024-06-07	13:49:45	13:59:17	572049	6.6.1	4_exp_EVA_AWA_CON	74	A	B	Rpleas_acq	Oppo	Lpleas	1pleas	EvalRating_lastfour	EvalRating_lastfour	7	4	0	0	300	300	0	0	3830	line	0	-14,453125pct	engagiert	sonnig	anregung	kuss	gütig	vergnügt	engstirnig	sterben	ausrottung	krise	gierig	verbissen	kreativ	gesittet	vertrauen	genießen	träumen	besonnen	krank	geizig	versagen	gemein	töten	bange	1		-8	3	Wie angenehm oder unangenehm finden Sie die  Buchstabenkette FCJP?	-8	1		-8	1		-8	1		-8	1	Unangenehm	-8	1	Angenehm	-8	0	0	0	0	0	0	0	0	0
2024-06-07	13:49:45	13:59:20	574416	6.6.1	4_exp_EVA_AWA_CON	74	A	B	Rpleas_acq	Oppo	Lpleas	1pleas	blank_screen	EvalRating_lastfour	7	6	0	0	300	300	0	0	0	0	0	-14,453125pct	engagiert	sonnig	anregung	kuss	gütig	vergnügt	engstirnig	sterben	ausrottung	krise	gierig	verbissen	kreativ	gesittet	vertrauen	genießen	träumen	besonnen	krank	geizig	versagen	gemein	töten	bange	1		-8	0	0	0	0	0	0	0	0	0	0	0	0	0	0	0	0	0	0	0	0	0	0	0	0	0	0	0
2024-06-07	13:49:45	13:59:22	576266	6.6.1	4_exp_EVA_AWA_CON	74	A	B	Rpleas_acq	Oppo	Lpleas	1pleas	EvalRating_lastfour	EvalRating_lastfour	7	7	0	0	300	300	0	0	1262	line	0	-27,734375pct	engagiert	sonnig	anregung	kuss	gütig	vergnügt	engstirnig	sterben	ausrottung	krise	gierig	verbissen	kreativ	gesittet	vertrauen	genießen	träumen	besonnen	krank	geizig	versagen	gemein	töten	bange	1		-8	1	Wie angenehm oder unangenehm finden Sie die  Buchstabenkette CPLW?	-8	1		-8	1		-8	1		-8	1	Unangenehm	-8	1	Angenehm	-8	0	0	0	0	0	0	0	0	0
2024-06-07	13:49:45	14:00:41	655646	6.6.1	4_exp_EVA_AWA_CON	74	A	B	Rpleas_acq	Oppo	Lpleas	1pleas	conawa_CS2_US5	conawa1_nomask	8	1	0	0	300	300	0	0	28620	gütig	1	-27,734375pct	engagiert	sonnig	anregung	kuss	gütig	vergnügt	engstirnig	sterben	ausrottung	krise	gierig	verbissen	kreativ	gesittet	vertrauen	genießen	träumen	besonnen	krank	geizig	versagen	gemein	töten	bange	0	0	0	0	0	0	0	0	0	0	0	0	0	0	0	0	0	0	0	0	0	0	0	0	0	0	0	0	0	0
2024-06-07	13:49:45	14:00:41	655648	6.6.1	4_exp_EVA_AWA_CON	74	A	B	Rpleas_acq	Oppo	Lpleas	1pleas	conawa_CS2_US5_confidence	conawa1_nomask	8	1	0	0	300	300	0	0	28620	guess	1	-27,734375pct	engagiert	sonnig	anregung	kuss	gütig	vergnügt	engstirnig	sterben	ausrottung	krise	gierig	verbissen	kreativ	gesittet	vertrauen	genießen	träumen	besonnen	krank	geizig	versagen	gemein	töten	bange	0	0	0	0	0	0	0	0	0	0	0	0	0	0	0	0	0	0	0	0	0	0	0	0	0	0	0	0	0	0
2024-06-07	13:49:45	14:00:50	665103	6.6.1	4_exp_EVA_AWA_CON	74	A	B	Rpleas_acq	Oppo	Lpleas	1pleas	conawa_CS2_US4	conawa1_nomask	8	2	0	0	300	300	0	0	8834	kuss	1	-27,734375pct	engagiert	sonnig	anregung	kuss	gütig	vergnügt	engstirnig	sterben	ausrottung	krise	gierig	verbissen	kreativ	gesittet	vertrauen	genießen	träumen	besonnen	krank	geizig	versagen	gemein	töten	bange	0	0	0	0	0	0	0	0	0	0	0	0	0	0	0	0	0	0	0	0	0	0	0	0	0	0	0	0	0	0
2024-06-07	13:49:45	14:00:50	665104	6.6.1	4_exp_EVA_AWA_CON	74	A	B	Rpleas_acq	Oppo	Lpleas	1pleas	conawa_CS2_US4_confidence	conawa1_nomask	8	2	0	0	300	300	0	0	8834	probably	1	-27,734375pct	engagiert	sonnig	anregung	kuss	gütig	vergnügt	engstirnig	sterben	ausrottung	krise	gierig	verbissen	kreativ	gesittet	vertrauen	genießen	träumen	besonnen	krank	geizig	versagen	gemein	töten	bange	0	0	0	0	0	0	0	0	0	0	0	0	0	0	0	0	0	0	0	0	0	0	0	0	0	0	0	0	0	0
2024-06-07	13:49:45	14:01:00	675149	6.6.1	4_exp_EVA_AWA_CON	74	A	B	Rpleas_acq	Oppo	Lpleas	1pleas	conawa_CS1_US3	conawa1_nomask	8	3	0	0	300	300	0	0	9426	versagen	1	-27,734375pct	engagiert	sonnig	anregung	kuss	gütig	vergnügt	engstirnig	sterben	ausrottung	krise	gierig	verbissen	kreativ	gesittet	vertrauen	genießen	träumen	besonnen	krank	geizig	versagen	gemein	töten	bange	0	0	0	0	0	0	0	0	0	0	0	0	0	0	0	0	0	0	0	0	0	0	0	0	0	0	0	0	0	0
2024-06-07	13:49:45	14:01:00	675151	6.6.1	4_exp_EVA_AWA_CON	74	A	B	Rpleas_acq	Oppo	Lpleas	1pleas	conawa_CS1_US3_confidence	conawa1_nomask	8	3	0	0	300	300	0	0	9426	guess	1	-27,734375pct	engagiert	sonnig	anregung	kuss	gütig	vergnügt	engstirnig	sterben	ausrottung	krise	gierig	verbissen	kreativ	gesittet	vertrauen	genießen	träumen	besonnen	krank	geizig	versagen	gemein	töten	bange	0	0	0	0	0	0	0	0	0	0	0	0	0	0	0	0	0	0	0	0	0	0	0	0	0	0	0	0	0	0
2024-06-07	13:49:45	14:01:12	687127	6.6.1	4_exp_EVA_AWA_CON	74	A	B	Rpleas_acq	Oppo	Lpleas	1pleas	conawa_CS2_US1	conawa1_nomask	8	4	0	0	300	300	0	0	11364	engagiert	1	-27,734375pct	engagiert	sonnig	anregung	kuss	gütig	vergnügt	engstirnig	sterben	ausrottung	krise	gierig	verbissen	kreativ	gesittet	vertrauen	genießen	träumen	besonnen	krank	geizig	versagen	gemein	töten	bange	0	0	0	0	0	0	0	0	0	0	0	0	0	0	0	0	0	0	0	0	0	0	0	0	0	0	0	0	0	0
2024-06-07	13:49:45	14:01:12	687128	6.6.1	4_exp_EVA_AWA_CON	74	A	B	Rpleas_acq	Oppo	Lpleas	1pleas	conawa_CS2_US1_confidence	conawa1_nomask	8	4	0	0	300	300	0	0	11364	probably	1	-27,734375pct	engagiert	sonnig	anregung	kuss	gütig	vergnügt	engstirnig	sterben	ausrottung	krise	gierig	verbissen	kreativ	gesittet	vertrauen	genießen	träumen	besonnen	krank	geizig	versagen	gemein	töten	bange	0	0	0	0	0	0	0	0	0	0	0	0	0	0	0	0	0	0	0	0	0	0	0	0	0	0	0	0	0	0
2024-06-07	13:49:45	14:01:19	694172	6.6.1	4_exp_EVA_AWA_CON	74	A	B	Rpleas_acq	Oppo	Lpleas	1pleas	conawa_CS1_US2	conawa1_nomask	8	5	0	0	300	300	0	0	6429	geizig	1	-27,734375pct	engagiert	sonnig	anregung	kuss	gütig	vergnügt	engstirnig	sterben	ausrottung	krise	gierig	verbissen	kreativ	gesittet	vertrauen	genießen	träumen	besonnen	krank	geizig	versagen	gemein	töten	bange	0	0	0	0	0	0	0	0	0	0	0	0	0	0	0	0	0	0	0	0	0	0	0	0	0	0	0	0	0	0
2024-06-07	13:49:45	14:01:19	694173	6.6.1	4_exp_EVA_AWA_CON	74	A	B	Rpleas_acq	Oppo	Lpleas	1pleas	conawa_CS1_US2_confidence	conawa1_nomask	8	5	0	0	300	300	0	0	6429	guess	1	-27,734375pct	engagiert	sonnig	anregung	kuss	gütig	vergnügt	engstirnig	sterben	ausrottung	krise	gierig	verbissen	kreativ	gesittet	vertrauen	genießen	träumen	besonnen	krank	geizig	versagen	gemein	töten	bange	0	0	0	0	0	0	0	0	0	0	0	0	0	0	0	0	0	0	0	0	0	0	0	0	0	0	0	0	0	0
2024-06-07	13:49:45	14:01:28	703167	6.6.1	4_exp_EVA_AWA_CON	74	A	B	Rpleas_acq	Oppo	Lpleas	1pleas	conawa_CS1_US4	conawa1_nomask	8	6	0	0	300	300	0	0	8383	krise	1	-27,734375pct	engagiert	sonnig	anregung	kuss	gütig	vergnügt	engstirnig	sterben	ausrottung	krise	gierig	verbissen	kreativ	gesittet	vertrauen	genießen	träumen	besonnen	krank	geizig	versagen	gemein	töten	bange	0	0	0	0	0	0	0	0	0	0	0	0	0	0	0	0	0	0	0	0	0	0	0	0	0	0	0	0	0	0
2024-06-07	13:49:45	14:01:28	703168	6.6.1	4_exp_EVA_AWA_CON	74	A	B	Rpleas_acq	Oppo	Lpleas	1pleas	conawa_CS1_US4_confidence	conawa1_nomask	8	6	0	0	300	300	0	0	8383	guess	1	-27,734375pct	engagiert	sonnig	anregung	kuss	gütig	vergnügt	engstirnig	sterben	ausrottung	krise	gierig	verbissen	kreativ	gesittet	vertrauen	genießen	träumen	besonnen	krank	geizig	versagen	gemein	töten	bange	0	0	0	0	0	0	0	0	0	0	0	0	0	0	0	0	0	0	0	0	0	0	0	0	0	0	0	0	0	0
2024-06-07	13:49:45	14:01:38	712353	6.6.1	4_exp_EVA_AWA_CON	74	A	B	Rpleas_acq	Oppo	Lpleas	1pleas	conawa_CS1_US1	conawa1_nomask	8	7	0	0	300	300	0	0	8573	krank	1	-27,734375pct	engagiert	sonnig	anregung	kuss	gütig	vergnügt	engstirnig	sterben	ausrottung	krise	gierig	verbissen	kreativ	gesittet	vertrauen	genießen	träumen	besonnen	krank	geizig	versagen	gemein	töten	bange	0	0	0	0	0	0	0	0	0	0	0	0	0	0	0	0	0	0	0	0	0	0	0	0	0	0	0	0	0	0
2024-06-07	13:49:45	14:01:38	712354	6.6.1	4_exp_EVA_AWA_CON	74	A	B	Rpleas_acq	Oppo	Lpleas	1pleas	conawa_CS1_US1_confidence	conawa1_nomask	8	7	0	0	300	300	0	0	8573	guess	1	-27,734375pct	engagiert	sonnig	anregung	kuss	gütig	vergnügt	engstirnig	sterben	ausrottung	krise	gierig	verbissen	kreativ	gesittet	vertrauen	genießen	träumen	besonnen	krank	geizig	versagen	gemein	töten	bange	0	0	0	0	0	0	0	0	0	0	0	0	0	0	0	0	0	0	0	0	0	0	0	0	0	0	0	0	0	0
2024-06-07	13:49:45	14:01:46	720388	6.6.1	4_exp_EVA_AWA_CON	74	A	B	Rpleas_acq	Oppo	Lpleas	1pleas	conawa_CS2_US6	conawa1_nomask	8	8	0	0	300	300	0	0	7420	vergnügt	1	-27,734375pct	engagiert	sonnig	anregung	kuss	gütig	vergnügt	engstirnig	sterben	ausrottung	krise	gierig	verbissen	kreativ	gesittet	vertrauen	genießen	träumen	besonnen	krank	geizig	versagen	gemein	töten	bange	0	0	0	0	0	0	0	0	0	0	0	0	0	0	0	0	0	0	0	0	0	0	0	0	0	0	0	0	0	0
2024-06-07	13:49:45	14:01:46	720389	6.6.1	4_exp_EVA_AWA_CON	74	A	B	Rpleas_acq	Oppo	Lpleas	1pleas	conawa_CS2_US6_confidence	conawa1_nomask	8	8	0	0	300	300	0	0	7420	probably	1	-27,734375pct	engagiert	sonnig	anregung	kuss	gütig	vergnügt	engstirnig	sterben	ausrottung	krise	gierig	verbissen	kreativ	gesittet	vertrauen	genießen	träumen	besonnen	krank	geizig	versagen	gemein	töten	bange	0	0	0	0	0	0	0	0	0	0	0	0	0	0	0	0	0	0	0	0	0	0	0	0	0	0	0	0	0	0
2024-06-07	13:49:45	14:01:52	726932	6.6.1	4_exp_EVA_AWA_CON	74	A	B	Rpleas_acq	Oppo	Lpleas	1pleas	conawa_CS2_US2	conawa1_nomask	8	9	0	0	300	300	0	0	5929	sonnig	1	-27,734375pct	engagiert	sonnig	anregung	kuss	gütig	vergnügt	engstirnig	sterben	ausrottung	krise	gierig	verbissen	kreativ	gesittet	vertrauen	genießen	träumen	besonnen	krank	geizig	versagen	gemein	töten	bange	0	0	0	0	0	0	0	0	0	0	0	0	0	0	0	0	0	0	0	0	0	0	0	0	0	0	0	0	0	0
2024-06-07	13:49:45	14:01:52	726933	6.6.1	4_exp_EVA_AWA_CON	74	A	B	Rpleas_acq	Oppo	Lpleas	1pleas	conawa_CS2_US2_confidence	conawa1_nomask	8	9	0	0	300	300	0	0	5929	probably	1	-27,734375pct	engagiert	sonnig	anregung	kuss	gütig	vergnügt	engstirnig	sterben	ausrottung	krise	gierig	verbissen	kreativ	gesittet	vertrauen	genießen	träumen	besonnen	krank	geizig	versagen	gemein	töten	bange	0	0	0	0	0	0	0	0	0	0	0	0	0	0	0	0	0	0	0	0	0	0	0	0	0	0	0	0	0	0
2024-06-07	13:49:45	14:02:03	737389	6.6.1	4_exp_EVA_AWA_CON	74	A	B	Rpleas_acq	Oppo	Lpleas	1pleas	conawa_CS2_US3	conawa1_nomask	8	10	0	0	300	300	0	0	9841	anregung	1	-27,734375pct	engagiert	sonnig	anregung	kuss	gütig	vergnügt	engstirnig	sterben	ausrottung	krise	gierig	verbissen	kreativ	gesittet	vertrauen	genießen	träumen	besonnen	krank	geizig	versagen	gemein	töten	bange	0	0	0	0	0	0	0	0	0	0	0	0	0	0	0	0	0	0	0	0	0	0	0	0	0	0	0	0	0	0
2024-06-07	13:49:45	14:02:03	737390	6.6.1	4_exp_EVA_AWA_CON	74	A	B	Rpleas_acq	Oppo	Lpleas	1pleas	conawa_CS2_US3_confidence	conawa1_nomask	8	10	0	0	300	300	0	0	9841	guess	1	-27,734375pct	engagiert	sonnig	anregung	kuss	gütig	vergnügt	engstirnig	sterben	ausrottung	krise	gierig	verbissen	kreativ	gesittet	vertrauen	genießen	träumen	besonnen	krank	geizig	versagen	gemein	töten	bange	0	0	0	0	0	0	0	0	0	0	0	0	0	0	0	0	0	0	0	0	0	0	0	0	0	0	0	0	0	0
2024-06-07	13:49:45	14:02:09	744113	6.6.1	4_exp_EVA_AWA_CON	74	A	B	Rpleas_acq	Oppo	Lpleas	1pleas	conawa_CS1_US5	conawa1_nomask	8	11	0	0	300	300	0	0	6110	töten	1	-27,734375pct	engagiert	sonnig	anregung	kuss	gütig	vergnügt	engstirnig	sterben	ausrottung	krise	gierig	verbissen	kreativ	gesittet	vertrauen	genießen	träumen	besonnen	krank	geizig	versagen	gemein	töten	bange	0	0	0	0	0	0	0	0	0	0	0	0	0	0	0	0	0	0	0	0	0	0	0	0	0	0	0	0	0	0
2024-06-07	13:49:45	14:02:09	744115	6.6.1	4_exp_EVA_AWA_CON	74	A	B	Rpleas_acq	Oppo	Lpleas	1pleas	conawa_CS1_US5_confidence	conawa1_nomask	8	11	0	0	300	300	0	0	6110	guess	1	-27,734375pct	engagiert	sonnig	anregung	kuss	gütig	vergnügt	engstirnig	sterben	ausrottung	krise	gierig	verbissen	kreativ	gesittet	vertrauen	genießen	träumen	besonnen	krank	geizig	versagen	gemein	töten	bange	0	0	0	0	0	0	0	0	0	0	0	0	0	0	0	0	0	0	0	0	0	0	0	0	0	0	0	0	0	0
2024-06-07	13:49:45	14:02:19	753519	6.6.1	4_exp_EVA_AWA_CON	74	A	B	Rpleas_acq	Oppo	Lpleas	1pleas	conawa_CS1_US6	conawa1_nomask	8	12	0	0	300	300	0	0	8796	verbissen	1	-27,734375pct	engagiert	sonnig	anregung	kuss	gütig	vergnügt	engstirnig	sterben	ausrottung	krise	gierig	verbissen	kreativ	gesittet	vertrauen	genießen	träumen	besonnen	krank	geizig	versagen	gemein	töten	bange	0	0	0	0	0	0	0	0	0	0	0	0	0	0	0	0	0	0	0	0	0	0	0	0	0	0	0	0	0	0
2024-06-07	13:49:45	14:02:19	753521	6.6.1	4_exp_EVA_AWA_CON	74	A	B	Rpleas_acq	Oppo	Lpleas	1pleas	conawa_CS1_US6_confidence	conawa1_nomask	8	12	0	0	300	300	0	0	8796	probably	1	-27,734375pct	engagiert	sonnig	anregung	kuss	gütig	vergnügt	engstirnig	sterben	ausrottung	krise	gierig	verbissen	kreativ	gesittet	vertrauen	genießen	träumen	besonnen	krank	geizig	versagen	gemein	töten	bange	0	0	0	0	0	0	0	0	0	0	0	0	0	0	0	0	0	0	0	0	0	0	0	0	0	0	0	0	0	0
2024-06-07	13:49:45	14:03:22	816693	6.6.1	4_exp_EVA_AWA_CON	74	A	B	Rpleas_acq	Oppo	Lpleas	1pleas	cond_US_pleas_123_nomask_CS2	condtest_nomask_1	11	1	400	0	300	300	0	0	724	46	1	-27,734375pct	engagiert	sonnig	anregung	kuss	gütig	vergnügt	engstirnig	sterben	ausrottung	krise	gierig	verbissen	kreativ	gesittet	vertrauen	genießen	träumen	besonnen	krank	geizig	versagen	gemein	töten	bange	1	blank2r.bmp	0	1	+	0	1	blank2r.bmp	500	1	DHJF	500	1	blank2r.bmp	880	1	anregung	880	1	!	1233	1	!	-1	0	0	0	0	0	0
