date	time	currenttime	elapsedtime	build	currentexpt	subject	CS_AB	US_AB	LRpleas_acq	SameOppo	condition_Lpleas	condition_1pleas	trialcode	blockcode	blocknum	trialnum	windowcenter	inwindow	pretrialpause	posttrialpause	trialduration	trialtimeout	latency	response	correct	correctedscore	US_nomask_pleas1	US_nomask_pleas2	US_nomask_pleas3	US_nomask_pleas4	US_nomask_pleas5	US_nomask_pleas6	US_nomask_unple1	US_nomask_unple2	US_nomask_unple3	US_nomask_unple4	US_nomask_unple5	US_nomask_unple6	new_nomask_pleas1	new_nomask_pleas2	new_nomask_pleas3	new_nomask_pleas4	new_nomask_pleas5	new_nomask_pleas6	new_nomask_unple1	new_nomask_unple2	new_nomask_unple3	new_nomask_unple4	new_nomask_unple5	new_nomask_unple6	stimulusnumber1	stimulusitem1	stimulusonset1	stimulusnumber2	stimulusitem2	stimulusonset2	stimulusnumber3	stimulusitem3	stimulusonset3	stimulusnumber4	stimulusitem4	stimulusonset4	stimulusnumber5	stimulusitem5	stimulusonset5	stimulusnumber6	stimulusitem6	stimulusonset6	stimulusnumber7	stimulusitem7	stimulusonset7	stimulusnumber8	stimulusitem8	stimulusonset8	stimulusnumber9	stimulusitem9	stimulusonset9	stimulusnumber10	stimulusitem10	stimulusonset10
2024-05-02	12:49:55	12:53:26	210438	6.6.1	4_exp_EVA_AWA_CON	11	B	A	Rpleas_acq	Same	Rpleas	2pleas	acq_new_unple_nomask	acq1_nomask	1	1	0	0	300	300	0	0	3007	46	1	0	loyal	schön	retten	spielen	helfen	lachen	lasch	schlecht	rächen	strafen	hindern	leiden	ehrlich	freundlich	fair	tolerant	schlau	treu	eitel	fanatisch	faul	tyrannisch	schroff	tot	1	blank2r.bmp	0	1	+	0	1	blank2r.bmp	500	8	C4r.bmp	500	1	blank2r.bmp	880	2	fanatisch	880	0	0	0	0	0	0	0	0	0	0	0	0
2024-05-02	12:49:55	12:53:29	213054	6.6.1	4_exp_EVA_AWA_CON	11	B	A	Rpleas_acq	Same	Rpleas	2pleas	acq_US_pleas_nomask	acq1_nomask	1	2	0	0	300	300	0	0	1129	50	1	0	loyal	schön	retten	spielen	helfen	lachen	lasch	schlecht	rächen	strafen	hindern	leiden	ehrlich	freundlich	fair	tolerant	schlau	treu	eitel	fanatisch	faul	tyrannisch	schroff	tot	1	blank2r.bmp	0	1	+	0	1	blank2r.bmp	500	1	GKQX	500	1	blank2r.bmp	880	5	helfen	880	0	0	0	0	0	0	0	0	0	0	0	0
2024-05-02	12:49:55	12:53:31	215510	6.6.1	4_exp_EVA_AWA_CON	11	B	A	Rpleas_acq	Same	Rpleas	2pleas	acq_US_unple_nomask	acq1_nomask	1	3	0	0	300	300	0	0	973	46	1	0	loyal	schön	retten	spielen	helfen	lachen	lasch	schlecht	rächen	strafen	hindern	leiden	ehrlich	freundlich	fair	tolerant	schlau	treu	eitel	fanatisch	faul	tyrannisch	schroff	tot	1	blank2r.bmp	0	1	+	0	1	blank2r.bmp	500	1	BMVZ	500	1	blank2r.bmp	880	3	rächen	880	0	0	0	0	0	0	0	0	0	0	0	0
2024-05-02	12:49:55	12:53:33	217854	6.6.1	4_exp_EVA_AWA_CON	11	B	A	Rpleas_acq	Same	Rpleas	2pleas	acq_new_pleas_nomask	acq1_nomask	1	4	0	0	300	300	0	0	856	50	1	0	loyal	schön	retten	spielen	helfen	lachen	lasch	schlecht	rächen	strafen	hindern	leiden	ehrlich	freundlich	fair	tolerant	schlau	treu	eitel	fanatisch	faul	tyrannisch	schroff	tot	1	blank2r.bmp	0	1	+	0	1	blank2r.bmp	500	6	C2r.bmp	500	1	blank2r.bmp	880	1	ehrlich	880	0	0	0	0	0	0	0	0	0	0	0	0
2024-05-02	12:49:55	12:53:37	221478	6.6.1	4_exp_EVA_AWA_CON	11	B	A	Rpleas_acq	Same	Rpleas	2pleas	acq_US_unple_nomask	acq1_nomask	1	5	0	0	300	300	0	0	2138	46	1	0	loyal	schön	retten	spielen	helfen	lachen	lasch	schlecht	rächen	strafen	hindern	leiden	ehrlich	freundlich	fair	tolerant	schlau	treu	eitel	fanatisch	faul	tyrannisch	schroff	tot	1	blank2r.bmp	0	1	+	0	1	blank2r.bmp	500	1	BMVZ	500	1	blank2r.bmp	880	5	hindern	880	0	0	0	0	0	0	0	0	0	0	0	0
2024-05-02	12:49:55	12:53:39	223758	6.6.1	4_exp_EVA_AWA_CON	11	B	A	Rpleas_acq	Same	Rpleas	2pleas	acq_new_pleas_nomask	acq1_nomask	1	6	0	0	300	300	0	0	796	50	1	0	loyal	schön	retten	spielen	helfen	lachen	lasch	schlecht	rächen	strafen	hindern	leiden	ehrlich	freundlich	fair	tolerant	schlau	treu	eitel	fanatisch	faul	tyrannisch	schroff	tot	1	blank2r.bmp	0	1	+	0	1	blank2r.bmp	500	4	B4r.bmp	500	1	blank2r.bmp	880	5	schlau	880	0	0	0	0	0	0	0	0	0	0	0	0
2024-05-02	12:49:55	12:53:42	226166	6.6.1	4_exp_EVA_AWA_CON	11	B	A	Rpleas_acq	Same	Rpleas	2pleas	acq_new_unple_nomask	acq1_nomask	1	7	0	0	300	300	0	0	923	46	1	0	loyal	schön	retten	spielen	helfen	lachen	lasch	schlecht	rächen	strafen	hindern	leiden	ehrlich	freundlich	fair	tolerant	schlau	treu	eitel	fanatisch	faul	tyrannisch	schroff	tot	1	blank2r.bmp	0	1	+	0	1	blank2r.bmp	500	7	C3r.bmp	500	1	blank2r.bmp	880	4	tyrannisch	880	0	0	0	0	0	0	0	0	0	0	0	0
2024-05-02	12:49:55	12:53:44	228574	6.6.1	4_exp_EVA_AWA_CON	11	B	A	Rpleas_acq	Same	Rpleas	2pleas	acq_US_unple_nomask	acq1_nomask	1	8	0	0	300	300	0	0	919	46	1	0	loyal	schön	retten	spielen	helfen	lachen	lasch	schlecht	rächen	strafen	hindern	leiden	ehrlich	freundlich	fair	tolerant	schlau	treu	eitel	fanatisch	faul	tyrannisch	schroff	tot	1	blank2r.bmp	0	1	+	0	1	blank2r.bmp	500	1	BMVZ	500	1	blank2r.bmp	880	1	lasch	880	0	0	0	0	0	0	0	0	0	0	0	0
2024-05-02	12:49:55	12:53:46	230638	6.6.1	4_exp_EVA_AWA_CON	11	B	A	Rpleas_acq	Same	Rpleas	2pleas	acq_US_pleas_nomask	acq1_nomask	1	9	0	0	300	300	0	0	581	50	1	0	loyal	schön	retten	spielen	helfen	lachen	lasch	schlecht	rächen	strafen	hindern	leiden	ehrlich	freundlich	fair	tolerant	schlau	treu	eitel	fanatisch	faul	tyrannisch	schroff	tot	1	blank2r.bmp	0	1	+	0	1	blank2r.bmp	500	1	GKQX	500	1	blank2r.bmp	880	6	lachen	880	0	0	0	0	0	0	0	0	0	0	0	0
2024-05-02	12:49:55	12:53:48	232839	6.6.1	4_exp_EVA_AWA_CON	11	B	A	Rpleas_acq	Same	Rpleas	2pleas	acq_new_pleas_nomask	acq1_nomask	1	10	0	0	300	300	0	0	710	50	1	0	loyal	schön	retten	spielen	helfen	lachen	lasch	schlecht	rächen	strafen	hindern	leiden	ehrlich	freundlich	fair	tolerant	schlau	treu	eitel	fanatisch	faul	tyrannisch	schroff	tot	1	blank2r.bmp	0	1	+	0	1	blank2r.bmp	500	5	C1r.bmp	500	1	blank2r.bmp	880	6	treu	880	0	0	0	0	0	0	0	0	0	0	0	0
2024-05-02	12:49:55	12:53:50	234934	6.6.1	4_exp_EVA_AWA_CON	11	B	A	Rpleas_acq	Same	Rpleas	2pleas	acq_new_unple_nomask	acq1_nomask	1	11	0	0	300	300	0	0	614	46	1	0	loyal	schön	retten	spielen	helfen	lachen	lasch	schlecht	rächen	strafen	hindern	leiden	ehrlich	freundlich	fair	tolerant	schlau	treu	eitel	fanatisch	faul	tyrannisch	schroff	tot	1	blank2r.bmp	0	1	+	0	1	blank2r.bmp	500	2	B2r.bmp	500	1	blank2r.bmp	880	6	tot	880	0	0	0	0	0	0	0	0	0	0	0	0
2024-05-02	12:49:55	12:53:52	236902	6.6.1	4_exp_EVA_AWA_CON	11	B	A	Rpleas_acq	Same	Rpleas	2pleas	acq_US_pleas_nomask	acq1_nomask	1	12	0	0	300	300	0	0	481	50	1	0	loyal	schön	retten	spielen	helfen	lachen	lasch	schlecht	rächen	strafen	hindern	leiden	ehrlich	freundlich	fair	tolerant	schlau	treu	eitel	fanatisch	faul	tyrannisch	schroff	tot	1	blank2r.bmp	0	1	+	0	1	blank2r.bmp	500	1	GKQX	500	1	blank2r.bmp	880	2	schön	880	0	0	0	0	0	0	0	0	0	0	0	0
2024-05-02	12:49:55	12:53:55	238943	6.6.1	4_exp_EVA_AWA_CON	11	B	A	Rpleas_acq	Same	Rpleas	2pleas	acq_US_unple_nomask	acq1_nomask	1	13	0	0	300	300	0	0	550	46	1	0	loyal	schön	retten	spielen	helfen	lachen	lasch	schlecht	rächen	strafen	hindern	leiden	ehrlich	freundlich	fair	tolerant	schlau	treu	eitel	fanatisch	faul	tyrannisch	schroff	tot	1	blank2r.bmp	0	1	+	0	1	blank2r.bmp	500	1	BMVZ	500	1	blank2r.bmp	880	6	leiden	880	0	0	0	0	0	0	0	0	0	0	0	0
2024-05-02	12:49:55	12:53:57	241238	6.6.1	4_exp_EVA_AWA_CON	11	B	A	Rpleas_acq	Same	Rpleas	2pleas	acq_US_pleas_nomask	acq1_nomask	1	14	0	0	300	300	0	0	815	50	1	0	loyal	schön	retten	spielen	helfen	lachen	lasch	schlecht	rächen	strafen	hindern	leiden	ehrlich	freundlich	fair	tolerant	schlau	treu	eitel	fanatisch	faul	tyrannisch	schroff	tot	1	blank2r.bmp	0	1	+	0	1	blank2r.bmp	500	1	GKQX	500	1	blank2r.bmp	880	1	loyal	880	0	0	0	0	0	0	0	0	0	0	0	0
2024-05-02	12:49:55	12:53:59	243678	6.6.1	4_exp_EVA_AWA_CON	11	B	A	Rpleas_acq	Same	Rpleas	2pleas	acq_new_unple_nomask	acq1_nomask	1	15	0	0	300	300	0	0	953	46	1	0	loyal	schön	retten	spielen	helfen	lachen	lasch	schlecht	rächen	strafen	hindern	leiden	ehrlich	freundlich	fair	tolerant	schlau	treu	eitel	fanatisch	faul	tyrannisch	schroff	tot	1	blank2r.bmp	0	1	+	0	1	blank2r.bmp	500	1	B1r.bmp	500	1	blank2r.bmp	880	1	eitel	880	0	0	0	0	0	0	0	0	0	0	0	0
2024-05-02	12:49:55	12:54:01	245718	6.6.1	4_exp_EVA_AWA_CON	11	B	A	Rpleas_acq	Same	Rpleas	2pleas	acq_US_pleas_nomask	acq1_nomask	1	16	0	0	300	300	0	0	551	50	1	0	loyal	schön	retten	spielen	helfen	lachen	lasch	schlecht	rächen	strafen	hindern	leiden	ehrlich	freundlich	fair	tolerant	schlau	treu	eitel	fanatisch	faul	tyrannisch	schroff	tot	1	blank2r.bmp	0	1	+	0	1	blank2r.bmp	500	1	GKQX	500	1	blank2r.bmp	880	3	retten	880	0	0	0	0	0	0	0	0	0	0	0	0
2024-05-02	12:49:55	12:54:03	247894	6.6.1	4_exp_EVA_AWA_CON	11	B	A	Rpleas_acq	Same	Rpleas	2pleas	acq_US_pleas_nomask	acq1_nomask	1	17	0	0	300	300	0	0	686	50	1	0	loyal	schön	retten	spielen	helfen	lachen	lasch	schlecht	rächen	strafen	hindern	leiden	ehrlich	freundlich	fair	tolerant	schlau	treu	eitel	fanatisch	faul	tyrannisch	schroff	tot	1	blank2r.bmp	0	1	+	0	1	blank2r.bmp	500	1	GKQX	500	1	blank2r.bmp	880	4	spielen	880	0	0	0	0	0	0	0	0	0	0	0	0
2024-05-02	12:49:55	12:54:06	250350	6.6.1	4_exp_EVA_AWA_CON	11	B	A	Rpleas_acq	Same	Rpleas	2pleas	acq_new_pleas_nomask	acq1_nomask	1	18	0	0	300	300	0	0	972	50	1	0	loyal	schön	retten	spielen	helfen	lachen	lasch	schlecht	rächen	strafen	hindern	leiden	ehrlich	freundlich	fair	tolerant	schlau	treu	eitel	fanatisch	faul	tyrannisch	schroff	tot	1	blank2r.bmp	0	1	+	0	1	blank2r.bmp	500	3	B3r.bmp	500	1	blank2r.bmp	880	2	freundlich	880	0	0	0	0	0	0	0	0	0	0	0	0
2024-05-02	12:49:55	12:54:08	252878	6.6.1	4_exp_EVA_AWA_CON	11	B	A	Rpleas_acq	Same	Rpleas	2pleas	acq_new_unple_nomask	acq1_nomask	1	19	0	0	300	300	0	0	1047	46	1	0	loyal	schön	retten	spielen	helfen	lachen	lasch	schlecht	rächen	strafen	hindern	leiden	ehrlich	freundlich	fair	tolerant	schlau	treu	eitel	fanatisch	faul	tyrannisch	schroff	tot	1	blank2r.bmp	0	1	+	0	1	blank2r.bmp	500	2	B2r.bmp	500	1	blank2r.bmp	880	3	faul	880	0	0	0	0	0	0	0	0	0	0	0	0
2024-05-02	12:49:55	12:54:11	254998	6.6.1	4_exp_EVA_AWA_CON	11	B	A	Rpleas_acq	Same	Rpleas	2pleas	acq_new_pleas_nomask	acq1_nomask	1	20	0	0	300	300	0	0	635	50	1	0	loyal	schön	retten	spielen	helfen	lachen	lasch	schlecht	rächen	strafen	hindern	leiden	ehrlich	freundlich	fair	tolerant	schlau	treu	eitel	fanatisch	faul	tyrannisch	schroff	tot	1	blank2r.bmp	0	1	+	0	1	blank2r.bmp	500	1	B1r.bmp	500	1	blank2r.bmp	880	3	fair	880	0	0	0	0	0	0	0	0	0	0	0	0
2024-05-02	12:49:55	12:54:13	257606	6.6.1	4_exp_EVA_AWA_CON	11	B	A	Rpleas_acq	Same	Rpleas	2pleas	acq_US_unple_nomask	acq1_nomask	1	21	0	0	300	300	0	0	1122	46	1	0	loyal	schön	retten	spielen	helfen	lachen	lasch	schlecht	rächen	strafen	hindern	leiden	ehrlich	freundlich	fair	tolerant	schlau	treu	eitel	fanatisch	faul	tyrannisch	schroff	tot	1	blank2r.bmp	0	1	+	0	1	blank2r.bmp	500	1	BMVZ	500	1	blank2r.bmp	880	4	strafen	880	0	0	0	0	0	0	0	0	0	0	0	0
2024-05-02	12:49:55	12:54:15	259862	6.6.1	4_exp_EVA_AWA_CON	11	B	A	Rpleas_acq	Same	Rpleas	2pleas	acq_new_pleas_nomask	acq1_nomask	1	22	0	0	300	300	0	0	766	50	1	0	loyal	schön	retten	spielen	helfen	lachen	lasch	schlecht	rächen	strafen	hindern	leiden	ehrlich	freundlich	fair	tolerant	schlau	treu	eitel	fanatisch	faul	tyrannisch	schroff	tot	1	blank2r.bmp	0	1	+	0	1	blank2r.bmp	500	4	B4r.bmp	500	1	blank2r.bmp	880	4	tolerant	880	0	0	0	0	0	0	0	0	0	0	0	0
2024-05-02	12:49:55	12:54:18	262326	6.6.1	4_exp_EVA_AWA_CON	11	B	A	Rpleas_acq	Same	Rpleas	2pleas	acq_new_unple_nomask	acq1_nomask	1	23	0	0	300	300	0	0	979	46	1	0	loyal	schön	retten	spielen	helfen	lachen	lasch	schlecht	rächen	strafen	hindern	leiden	ehrlich	freundlich	fair	tolerant	schlau	treu	eitel	fanatisch	faul	tyrannisch	schroff	tot	1	blank2r.bmp	0	1	+	0	1	blank2r.bmp	500	3	B3r.bmp	500	1	blank2r.bmp	880	5	schroff	880	0	0	0	0	0	0	0	0	0	0	0	0
2024-05-02	12:49:55	12:54:20	264462	6.6.1	4_exp_EVA_AWA_CON	11	B	A	Rpleas_acq	Same	Rpleas	2pleas	acq_US_unple_nomask	acq1_nomask	1	24	0	0	300	300	0	0	653	46	1	0	loyal	schön	retten	spielen	helfen	lachen	lasch	schlecht	rächen	strafen	hindern	leiden	ehrlich	freundlich	fair	tolerant	schlau	treu	eitel	fanatisch	faul	tyrannisch	schroff	tot	1	blank2r.bmp	0	1	+	0	1	blank2r.bmp	500	1	BMVZ	500	1	blank2r.bmp	880	2	schlecht	880	0	0	0	0	0	0	0	0	0	0	0	0
2024-05-02	12:49:55	12:54:22	266431	6.6.1	4_exp_EVA_AWA_CON	11	B	A	Rpleas_acq	Same	Rpleas	2pleas	acq_US_pleas_nomask	acq1_nomask	1	25	0	0	300	300	0	0	480	50	1	0	loyal	schön	retten	spielen	helfen	lachen	lasch	schlecht	rächen	strafen	hindern	leiden	ehrlich	freundlich	fair	tolerant	schlau	treu	eitel	fanatisch	faul	tyrannisch	schroff	tot	1	blank2r.bmp	0	1	+	0	1	blank2r.bmp	500	1	GKQX	500	1	blank2r.bmp	880	1	loyal	880	0	0	0	0	0	0	0	0	0	0	0	0
2024-05-02	12:49:55	12:54:24	268542	6.6.1	4_exp_EVA_AWA_CON	11	B	A	Rpleas_acq	Same	Rpleas	2pleas	acq_new_unple_nomask	acq1_nomask	1	26	0	0	300	300	0	0	631	46	1	0	loyal	schön	retten	spielen	helfen	lachen	lasch	schlecht	rächen	strafen	hindern	leiden	ehrlich	freundlich	fair	tolerant	schlau	treu	eitel	fanatisch	faul	tyrannisch	schroff	tot	1	blank2r.bmp	0	1	+	0	1	blank2r.bmp	500	6	C2r.bmp	500	1	blank2r.bmp	880	4	tyrannisch	880	0	0	0	0	0	0	0	0	0	0	0	0
2024-05-02	12:49:55	12:54:27	271006	6.6.1	4_exp_EVA_AWA_CON	11	B	A	Rpleas_acq	Same	Rpleas	2pleas	acq_new_pleas_nomask	acq1_nomask	1	27	0	0	300	300	0	0	983	50	1	0	loyal	schön	retten	spielen	helfen	lachen	lasch	schlecht	rächen	strafen	hindern	leiden	ehrlich	freundlich	fair	tolerant	schlau	treu	eitel	fanatisch	faul	tyrannisch	schroff	tot	1	blank2r.bmp	0	1	+	0	1	blank2r.bmp	500	7	C3r.bmp	500	1	blank2r.bmp	880	4	tolerant	880	0	0	0	0	0	0	0	0	0	0	0	0
2024-05-02	12:49:55	12:54:29	273286	6.6.1	4_exp_EVA_AWA_CON	11	B	A	Rpleas_acq	Same	Rpleas	2pleas	acq_US_unple_nomask	acq1_nomask	1	28	0	0	300	300	0	0	792	46	1	0	loyal	schön	retten	spielen	helfen	lachen	lasch	schlecht	rächen	strafen	hindern	leiden	ehrlich	freundlich	fair	tolerant	schlau	treu	eitel	fanatisch	faul	tyrannisch	schroff	tot	1	blank2r.bmp	0	1	+	0	1	blank2r.bmp	500	1	BMVZ	500	1	blank2r.bmp	880	6	leiden	880	0	0	0	0	0	0	0	0	0	0	0	0
2024-05-02	12:49:55	12:54:33	276991	6.6.1	4_exp_EVA_AWA_CON	11	B	A	Rpleas_acq	Same	Rpleas	2pleas	acq_US_pleas_nomask	acq1_nomask	1	29	0	0	300	300	0	0	2014	46	0	0	loyal	schön	retten	spielen	helfen	lachen	lasch	schlecht	rächen	strafen	hindern	leiden	ehrlich	freundlich	fair	tolerant	schlau	treu	eitel	fanatisch	faul	tyrannisch	schroff	tot	1	blank2r.bmp	0	1	+	0	1	blank2r.bmp	500	1	GKQX	500	1	blank2r.bmp	880	4	spielen	880	1	FEHLER	2916	0	0	0	0	0	0	0	0	0
2024-05-02	12:49:55	12:54:35	278966	6.6.1	4_exp_EVA_AWA_CON	11	B	A	Rpleas_acq	Same	Rpleas	2pleas	acq_new_pleas_nomask	acq1_nomask	1	30	0	0	300	300	0	0	688	50	1	0	loyal	schön	retten	spielen	helfen	lachen	lasch	schlecht	rächen	strafen	hindern	leiden	ehrlich	freundlich	fair	tolerant	schlau	treu	eitel	fanatisch	faul	tyrannisch	schroff	tot	1	blank2r.bmp	0	1	+	0	1	blank2r.bmp	500	8	C4r.bmp	500	1	blank2r.bmp	880	3	fair	880	0	0	0	0	0	0	0	0	0	0	0	0
2024-05-02	12:49:55	12:54:37	281166	6.6.1	4_exp_EVA_AWA_CON	11	B	A	Rpleas_acq	Same	Rpleas	2pleas	acq_US_pleas_nomask	acq1_nomask	1	31	0	0	300	300	0	0	716	50	1	0	loyal	schön	retten	spielen	helfen	lachen	lasch	schlecht	rächen	strafen	hindern	leiden	ehrlich	freundlich	fair	tolerant	schlau	treu	eitel	fanatisch	faul	tyrannisch	schroff	tot	1	blank2r.bmp	0	1	+	0	1	blank2r.bmp	500	1	GKQX	500	1	blank2r.bmp	880	5	helfen	880	0	0	0	0	0	0	0	0	0	0	0	0
2024-05-02	12:49:55	12:54:39	283694	6.6.1	4_exp_EVA_AWA_CON	11	B	A	Rpleas_acq	Same	Rpleas	2pleas	acq_US_unple_nomask	acq1_nomask	1	32	0	0	300	300	0	0	1043	46	1	0	loyal	schön	retten	spielen	helfen	lachen	lasch	schlecht	rächen	strafen	hindern	leiden	ehrlich	freundlich	fair	tolerant	schlau	treu	eitel	fanatisch	faul	tyrannisch	schroff	tot	1	blank2r.bmp	0	1	+	0	1	blank2r.bmp	500	1	BMVZ	500	1	blank2r.bmp	880	4	strafen	880	0	0	0	0	0	0	0	0	0	0	0	0
2024-05-02	12:49:55	12:54:41	285838	6.6.1	4_exp_EVA_AWA_CON	11	B	A	Rpleas_acq	Same	Rpleas	2pleas	acq_US_unple_nomask	acq1_nomask	1	33	0	0	300	300	0	0	655	46	1	0	loyal	schön	retten	spielen	helfen	lachen	lasch	schlecht	rächen	strafen	hindern	leiden	ehrlich	freundlich	fair	tolerant	schlau	treu	eitel	fanatisch	faul	tyrannisch	schroff	tot	1	blank2r.bmp	0	1	+	0	1	blank2r.bmp	500	1	BMVZ	500	1	blank2r.bmp	880	1	lasch	880	0	0	0	0	0	0	0	0	0	0	0	0
2024-05-02	12:49:55	12:54:43	287886	6.6.1	4_exp_EVA_AWA_CON	11	B	A	Rpleas_acq	Same	Rpleas	2pleas	acq_new_unple_nomask	acq1_nomask	1	34	0	0	300	300	0	0	562	46	1	0	loyal	schön	retten	spielen	helfen	lachen	lasch	schlecht	rächen	strafen	hindern	leiden	ehrlich	freundlich	fair	tolerant	schlau	treu	eitel	fanatisch	faul	tyrannisch	schroff	tot	1	blank2r.bmp	0	1	+	0	1	blank2r.bmp	500	5	C1r.bmp	500	1	blank2r.bmp	880	5	schroff	880	0	0	0	0	0	0	0	0	0	0	0	0
2024-05-02	12:49:55	12:54:45	289870	6.6.1	4_exp_EVA_AWA_CON	11	B	A	Rpleas_acq	Same	Rpleas	2pleas	acq_new_pleas_nomask	acq1_nomask	1	35	0	0	300	300	0	0	494	50	1	0	loyal	schön	retten	spielen	helfen	lachen	lasch	schlecht	rächen	strafen	hindern	leiden	ehrlich	freundlich	fair	tolerant	schlau	treu	eitel	fanatisch	faul	tyrannisch	schroff	tot	1	blank2r.bmp	0	1	+	0	1	blank2r.bmp	500	1	B1r.bmp	500	1	blank2r.bmp	880	1	ehrlich	880	0	0	0	0	0	0	0	0	0	0	0	0
2024-05-02	12:49:55	12:54:47	291902	6.6.1	4_exp_EVA_AWA_CON	11	B	A	Rpleas_acq	Same	Rpleas	2pleas	acq_new_unple_nomask	acq1_nomask	1	36	0	0	300	300	0	0	545	46	1	0	loyal	schön	retten	spielen	helfen	lachen	lasch	schlecht	rächen	strafen	hindern	leiden	ehrlich	freundlich	fair	tolerant	schlau	treu	eitel	fanatisch	faul	tyrannisch	schroff	tot	1	blank2r.bmp	0	1	+	0	1	blank2r.bmp	500	2	B2r.bmp	500	1	blank2r.bmp	880	6	tot	880	0	0	0	0	0	0	0	0	0	0	0	0
2024-05-02	12:49:55	12:55:23	327456	6.6.1	4_exp_EVA_AWA_CON	11	B	A	Rpleas_acq	Same	Rpleas	2pleas	acq_US_pleas_nomask	acq2_nomask	2	1	480	0	300	300	0	0	1467	50	1	0	loyal	schön	retten	spielen	helfen	lachen	lasch	schlecht	rächen	strafen	hindern	leiden	ehrlich	freundlich	fair	tolerant	schlau	treu	eitel	fanatisch	faul	tyrannisch	schroff	tot	1	blank2r.bmp	0	1	+	0	1	blank2r.bmp	500	1	GKQX	500	1	blank2r.bmp	880	3	retten	880	1	!	1312	1	!	-1	0	0	0	0	0	0
2024-05-02	12:49:55	12:55:25	329754	6.6.1	4_exp_EVA_AWA_CON	11	B	A	Rpleas_acq	Same	Rpleas	2pleas	acq_US_unple_nomask	acq2_nomask	2	2	480	1	300	300	0	0	521	46	1	0	loyal	schön	retten	spielen	helfen	lachen	lasch	schlecht	rächen	strafen	hindern	leiden	ehrlich	freundlich	fair	tolerant	schlau	treu	eitel	fanatisch	faul	tyrannisch	schroff	tot	1	blank2r.bmp	0	1	+	0	1	blank2r.bmp	500	1	BMVZ	500	1	blank2r.bmp	880	3	rächen	880	1	!	1313	1	!	1423	0	0	0	0	0	0
2024-05-02	12:49:55	12:55:28	332113	6.6.1	4_exp_EVA_AWA_CON	11	B	A	Rpleas_acq	Same	Rpleas	2pleas	acq_US_unple_nomask	acq2_nomask	2	3	480	0	300	300	0	0	579	46	1	0	loyal	schön	retten	spielen	helfen	lachen	lasch	schlecht	rächen	strafen	hindern	leiden	ehrlich	freundlich	fair	tolerant	schlau	treu	eitel	fanatisch	faul	tyrannisch	schroff	tot	1	blank2r.bmp	0	1	+	0	1	blank2r.bmp	500	1	BMVZ	500	1	blank2r.bmp	880	5	hindern	880	1	!	1312	1	!	-1	0	0	0	0	0	0
2024-05-02	12:49:55	12:55:30	334387	6.6.1	4_exp_EVA_AWA_CON	11	B	A	Rpleas_acq	Same	Rpleas	2pleas	acq_new_pleas_nomask	acq2_nomask	2	4	480	1	300	300	0	0	490	50	1	0	loyal	schön	retten	spielen	helfen	lachen	lasch	schlecht	rächen	strafen	hindern	leiden	ehrlich	freundlich	fair	tolerant	schlau	treu	eitel	fanatisch	faul	tyrannisch	schroff	tot	1	blank2r.bmp	0	1	+	0	1	blank2r.bmp	500	7	C3r.bmp	500	1	blank2r.bmp	880	5	schlau	880	1	!	1312	1	!	1392	0	0	0	0	0	0
2024-05-02	12:49:55	12:55:32	336864	6.6.1	4_exp_EVA_AWA_CON	11	B	A	Rpleas_acq	Same	Rpleas	2pleas	acq_new_pleas_nomask	acq2_nomask	2	5	480	0	300	300	0	0	698	50	1	0	loyal	schön	retten	spielen	helfen	lachen	lasch	schlecht	rächen	strafen	hindern	leiden	ehrlich	freundlich	fair	tolerant	schlau	treu	eitel	fanatisch	faul	tyrannisch	schroff	tot	1	blank2r.bmp	0	1	+	0	1	blank2r.bmp	500	8	C4r.bmp	500	1	blank2r.bmp	880	6	treu	880	1	!	1312	1	!	-1	0	0	0	0	0	0
2024-05-02	12:49:55	12:55:35	339098	6.6.1	4_exp_EVA_AWA_CON	11	B	A	Rpleas_acq	Same	Rpleas	2pleas	acq_US_pleas_nomask	acq2_nomask	2	6	480	1	300	300	0	0	459	50	1	0	loyal	schön	retten	spielen	helfen	lachen	lasch	schlecht	rächen	strafen	hindern	leiden	ehrlich	freundlich	fair	tolerant	schlau	treu	eitel	fanatisch	faul	tyrannisch	schroff	tot	1	blank2r.bmp	0	1	+	0	1	blank2r.bmp	500	1	GKQX	500	1	blank2r.bmp	880	2	schön	880	1	!	1313	1	!	1360	0	0	0	0	0	0
2024-05-02	12:49:55	12:55:37	341496	6.6.1	4_exp_EVA_AWA_CON	11	B	A	Rpleas_acq	Same	Rpleas	2pleas	acq_US_unple_nomask	acq2_nomask	2	7	480	0	300	300	0	0	617	46	1	0	loyal	schön	retten	spielen	helfen	lachen	lasch	schlecht	rächen	strafen	hindern	leiden	ehrlich	freundlich	fair	tolerant	schlau	treu	eitel	fanatisch	faul	tyrannisch	schroff	tot	1	blank2r.bmp	0	1	+	0	1	blank2r.bmp	500	1	BMVZ	500	1	blank2r.bmp	880	2	schlecht	880	1	!	1313	1	!	-1	0	0	0	0	0	0
2024-05-02	12:49:55	12:55:39	343706	6.6.1	4_exp_EVA_AWA_CON	11	B	A	Rpleas_acq	Same	Rpleas	2pleas	acq_new_unple_nomask	acq2_nomask	2	8	480	1	300	300	0	0	434	46	1	0	loyal	schön	retten	spielen	helfen	lachen	lasch	schlecht	rächen	strafen	hindern	leiden	ehrlich	freundlich	fair	tolerant	schlau	treu	eitel	fanatisch	faul	tyrannisch	schroff	tot	1	blank2r.bmp	0	1	+	0	1	blank2r.bmp	500	4	B4r.bmp	500	1	blank2r.bmp	880	1	eitel	880	1	!	1313	1	!	1335	0	0	0	0	0	0
2024-05-02	12:49:55	12:55:41	345864	6.6.1	4_exp_EVA_AWA_CON	11	B	A	Rpleas_acq	Same	Rpleas	2pleas	acq_US_pleas_nomask	acq2_nomask	2	9	480	0	300	300	0	0	382	50	1	0	loyal	schön	retten	spielen	helfen	lachen	lasch	schlecht	rächen	strafen	hindern	leiden	ehrlich	freundlich	fair	tolerant	schlau	treu	eitel	fanatisch	faul	tyrannisch	schroff	tot	1	blank2r.bmp	0	1	+	0	1	blank2r.bmp	500	1	GKQX	500	1	blank2r.bmp	880	6	lachen	880	1	!	-1	1	!	-1	0	0	0	0	0	0
2024-05-02	12:49:55	12:55:47	351600	6.6.1	4_exp_EVA_AWA_CON	11	B	A	Rpleas_acq	Same	Rpleas	2pleas	acq_new_unple_nomask	acq2_nomask	2	10	480	0	300	300	0	0	3957	46	1	0	loyal	schön	retten	spielen	helfen	lachen	lasch	schlecht	rächen	strafen	hindern	leiden	ehrlich	freundlich	fair	tolerant	schlau	treu	eitel	fanatisch	faul	tyrannisch	schroff	tot	1	blank2r.bmp	0	1	+	0	1	blank2r.bmp	500	5	C1r.bmp	500	1	blank2r.bmp	880	2	fanatisch	880	1	!	1312	1	!	-1	0	0	0	0	0	0
2024-05-02	12:49:55	12:55:50	354064	6.6.1	4_exp_EVA_AWA_CON	11	B	A	Rpleas_acq	Same	Rpleas	2pleas	acq_new_unple_nomask	acq2_nomask	2	11	480	0	300	300	0	0	687	46	1	0	loyal	schön	retten	spielen	helfen	lachen	lasch	schlecht	rächen	strafen	hindern	leiden	ehrlich	freundlich	fair	tolerant	schlau	treu	eitel	fanatisch	faul	tyrannisch	schroff	tot	1	blank2r.bmp	0	1	+	0	1	blank2r.bmp	500	6	C2r.bmp	500	1	blank2r.bmp	880	3	faul	880	1	!	1312	1	!	-1	0	0	0	0	0	0
2024-05-02	12:49:55	12:55:52	356449	6.6.1	4_exp_EVA_AWA_CON	11	B	A	Rpleas_acq	Same	Rpleas	2pleas	acq_new_pleas_nomask	acq2_nomask	2	12	480	0	300	300	0	0	609	50	1	0	loyal	schön	retten	spielen	helfen	lachen	lasch	schlecht	rächen	strafen	hindern	leiden	ehrlich	freundlich	fair	tolerant	schlau	treu	eitel	fanatisch	faul	tyrannisch	schroff	tot	1	blank2r.bmp	0	1	+	0	1	blank2r.bmp	500	3	B3r.bmp	500	1	blank2r.bmp	880	2	freundlich	880	1	!	1312	1	!	-1	0	0	0	0	0	0
2024-05-02	12:49:55	12:55:55	359856	6.6.1	4_exp_EVA_AWA_CON	11	B	A	Rpleas_acq	Same	Rpleas	2pleas	acq_US_unple_nomask	acq2_nomask	2	13	480	0	300	300	0	0	1626	46	1	0	loyal	schön	retten	spielen	helfen	lachen	lasch	schlecht	rächen	strafen	hindern	leiden	ehrlich	freundlich	fair	tolerant	schlau	treu	eitel	fanatisch	faul	tyrannisch	schroff	tot	1	blank2r.bmp	0	1	+	0	1	blank2r.bmp	500	1	BMVZ	500	1	blank2r.bmp	880	3	rächen	880	1	!	1312	1	!	-1	0	0	0	0	0	0
2024-05-02	12:49:55	12:55:58	362264	6.6.1	4_exp_EVA_AWA_CON	11	B	A	Rpleas_acq	Same	Rpleas	2pleas	acq_new_unple_nomask	acq2_nomask	2	14	480	0	300	300	0	0	632	46	1	0	loyal	schön	retten	spielen	helfen	lachen	lasch	schlecht	rächen	strafen	hindern	leiden	ehrlich	freundlich	fair	tolerant	schlau	treu	eitel	fanatisch	faul	tyrannisch	schroff	tot	1	blank2r.bmp	0	1	+	0	1	blank2r.bmp	500	4	B4r.bmp	500	1	blank2r.bmp	880	3	faul	880	1	!	1313	1	!	-1	0	0	0	0	0	0
2024-05-02	12:49:55	12:56:00	364616	6.6.1	4_exp_EVA_AWA_CON	11	B	A	Rpleas_acq	Same	Rpleas	2pleas	acq_US_pleas_nomask	acq2_nomask	2	15	480	0	300	300	0	0	572	50	1	0	loyal	schön	retten	spielen	helfen	lachen	lasch	schlecht	rächen	strafen	hindern	leiden	ehrlich	freundlich	fair	tolerant	schlau	treu	eitel	fanatisch	faul	tyrannisch	schroff	tot	1	blank2r.bmp	0	1	+	0	1	blank2r.bmp	500	1	GKQX	500	1	blank2r.bmp	880	3	retten	880	1	!	1313	1	!	-1	0	0	0	0	0	0
2024-05-02	12:49:55	12:56:03	367328	6.6.1	4_exp_EVA_AWA_CON	11	B	A	Rpleas_acq	Same	Rpleas	2pleas	acq_new_pleas_nomask	acq2_nomask	2	16	480	0	300	300	0	0	932	50	1	0	loyal	schön	retten	spielen	helfen	lachen	lasch	schlecht	rächen	strafen	hindern	leiden	ehrlich	freundlich	fair	tolerant	schlau	treu	eitel	fanatisch	faul	tyrannisch	schroff	tot	1	blank2r.bmp	0	1	+	0	1	blank2r.bmp	500	5	C1r.bmp	500	1	blank2r.bmp	880	2	freundlich	880	1	!	1312	1	!	-1	0	0	0	0	0	0
2024-05-02	12:49:55	12:56:05	369720	6.6.1	4_exp_EVA_AWA_CON	11	B	A	Rpleas_acq	Same	Rpleas	2pleas	acq_new_unple_nomask	acq2_nomask	2	17	480	0	300	300	0	0	614	46	1	0	loyal	schön	retten	spielen	helfen	lachen	lasch	schlecht	rächen	strafen	hindern	leiden	ehrlich	freundlich	fair	tolerant	schlau	treu	eitel	fanatisch	faul	tyrannisch	schroff	tot	1	blank2r.bmp	0	1	+	0	1	blank2r.bmp	500	3	B3r.bmp	500	1	blank2r.bmp	880	1	eitel	880	1	!	1313	1	!	-1	0	0	0	0	0	0
2024-05-02	12:49:55	12:56:08	372144	6.6.1	4_exp_EVA_AWA_CON	11	B	A	Rpleas_acq	Same	Rpleas	2pleas	acq_new_unple_nomask	acq2_nomask	2	18	480	0	300	300	0	0	645	46	1	0	loyal	schön	retten	spielen	helfen	lachen	lasch	schlecht	rächen	strafen	hindern	leiden	ehrlich	freundlich	fair	tolerant	schlau	treu	eitel	fanatisch	faul	tyrannisch	schroff	tot	1	blank2r.bmp	0	1	+	0	1	blank2r.bmp	500	7	C3r.bmp	500	1	blank2r.bmp	880	4	tyrannisch	880	1	!	1312	1	!	-1	0	0	0	0	0	0
2024-05-02	12:49:55	12:56:10	374478	6.6.1	4_exp_EVA_AWA_CON	11	B	A	Rpleas_acq	Same	Rpleas	2pleas	acq_US_pleas_nomask	acq2_nomask	2	19	480	0	300	300	0	0	559	50	1	0	loyal	schön	retten	spielen	helfen	lachen	lasch	schlecht	rächen	strafen	hindern	leiden	ehrlich	freundlich	fair	tolerant	schlau	treu	eitel	fanatisch	faul	tyrannisch	schroff	tot	1	blank2r.bmp	0	1	+	0	1	blank2r.bmp	500	1	GKQX	500	1	blank2r.bmp	880	1	loyal	880	1	!	1312	1	!	-1	0	0	0	0	0	0
2024-05-02	12:49:55	12:56:13	376960	6.6.1	4_exp_EVA_AWA_CON	11	B	A	Rpleas_acq	Same	Rpleas	2pleas	acq_US_pleas_nomask	acq2_nomask	2	20	480	0	300	300	0	0	708	50	1	0	loyal	schön	retten	spielen	helfen	lachen	lasch	schlecht	rächen	strafen	hindern	leiden	ehrlich	freundlich	fair	tolerant	schlau	treu	eitel	fanatisch	faul	tyrannisch	schroff	tot	1	blank2r.bmp	0	1	+	0	1	blank2r.bmp	500	1	GKQX	500	1	blank2r.bmp	880	6	lachen	880	1	!	1313	1	!	-1	0	0	0	0	0	0
2024-05-02	12:49:55	12:56:15	379627	6.6.1	4_exp_EVA_AWA_CON	11	B	A	Rpleas_acq	Same	Rpleas	2pleas	acq_US_unple_nomask	acq2_nomask	2	21	480	0	300	300	0	0	690	50	0	0	loyal	schön	retten	spielen	helfen	lachen	lasch	schlecht	rächen	strafen	hindern	leiden	ehrlich	freundlich	fair	tolerant	schlau	treu	eitel	fanatisch	faul	tyrannisch	schroff	tot	1	blank2r.bmp	0	1	+	0	1	blank2r.bmp	500	1	BMVZ	500	1	blank2r.bmp	880	1	lasch	880	1	FEHLER	1884	1	!	1313	1	!	-1	0	0	0
2024-05-02	12:49:55	12:56:17	381928	6.6.1	4_exp_EVA_AWA_CON	11	B	A	Rpleas_acq	Same	Rpleas	2pleas	acq_new_pleas_nomask	acq2_nomask	2	22	480	0	300	300	0	0	723	50	1	0	loyal	schön	retten	spielen	helfen	lachen	lasch	schlecht	rächen	strafen	hindern	leiden	ehrlich	freundlich	fair	tolerant	schlau	treu	eitel	fanatisch	faul	tyrannisch	schroff	tot	1	blank2r.bmp	0	1	+	0	1	blank2r.bmp	500	2	B2r.bmp	500	1	blank2r.bmp	880	3	fair	880	1	!	1312	1	!	-1	0	0	0	0	0	0
2024-05-02	12:49:55	12:56:20	384288	6.6.1	4_exp_EVA_AWA_CON	11	B	A	Rpleas_acq	Same	Rpleas	2pleas	acq_US_unple_nomask	acq2_nomask	2	23	480	0	300	300	0	0	581	46	1	0	loyal	schön	retten	spielen	helfen	lachen	lasch	schlecht	rächen	strafen	hindern	leiden	ehrlich	freundlich	fair	tolerant	schlau	treu	eitel	fanatisch	faul	tyrannisch	schroff	tot	1	blank2r.bmp	0	1	+	0	1	blank2r.bmp	500	1	BMVZ	500	1	blank2r.bmp	880	5	hindern	880	1	!	1313	1	!	-1	0	0	0	0	0	0
2024-05-02	12:49:55	12:56:22	386720	6.6.1	4_exp_EVA_AWA_CON	11	B	A	Rpleas_acq	Same	Rpleas	2pleas	acq_new_pleas_nomask	acq2_nomask	2	24	480	0	300	300	0	0	652	50	1	0	loyal	schön	retten	spielen	helfen	lachen	lasch	schlecht	rächen	strafen	hindern	leiden	ehrlich	freundlich	fair	tolerant	schlau	treu	eitel	fanatisch	faul	tyrannisch	schroff	tot	1	blank2r.bmp	0	1	+	0	1	blank2r.bmp	500	6	C2r.bmp	500	1	blank2r.bmp	880	6	treu	880	1	!	1313	1	!	-1	0	0	0	0	0	0
2024-05-02	12:49:55	12:56:25	389224	6.6.1	4_exp_EVA_AWA_CON	11	B	A	Rpleas_acq	Same	Rpleas	2pleas	acq_US_unple_nomask	acq2_nomask	2	25	480	0	300	300	0	0	725	46	1	0	loyal	schön	retten	spielen	helfen	lachen	lasch	schlecht	rächen	strafen	hindern	leiden	ehrlich	freundlich	fair	tolerant	schlau	treu	eitel	fanatisch	faul	tyrannisch	schroff	tot	1	blank2r.bmp	0	1	+	0	1	blank2r.bmp	500	1	BMVZ	500	1	blank2r.bmp	880	6	leiden	880	1	!	1313	1	!	-1	0	0	0	0	0	0
2024-05-02	12:49:55	12:56:27	391640	6.6.1	4_exp_EVA_AWA_CON	11	B	A	Rpleas_acq	Same	Rpleas	2pleas	acq_new_unple_nomask	acq2_nomask	2	26	480	0	300	300	0	0	638	46	1	0	loyal	schön	retten	spielen	helfen	lachen	lasch	schlecht	rächen	strafen	hindern	leiden	ehrlich	freundlich	fair	tolerant	schlau	treu	eitel	fanatisch	faul	tyrannisch	schroff	tot	1	blank2r.bmp	0	1	+	0	1	blank2r.bmp	500	1	B1r.bmp	500	1	blank2r.bmp	880	6	tot	880	1	!	1312	1	!	-1	0	0	0	0	0	0
2024-05-02	12:49:55	12:56:30	394012	6.6.1	4_exp_EVA_AWA_CON	11	B	A	Rpleas_acq	Same	Rpleas	2pleas	acq_new_unple_nomask	acq2_nomask	2	27	480	0	300	300	0	0	395	50	0	0	loyal	schön	retten	spielen	helfen	lachen	lasch	schlecht	rächen	strafen	hindern	leiden	ehrlich	freundlich	fair	tolerant	schlau	treu	eitel	fanatisch	faul	tyrannisch	schroff	tot	1	blank2r.bmp	0	1	+	0	1	blank2r.bmp	500	8	C4r.bmp	500	1	blank2r.bmp	880	2	fanatisch	880	1	FEHLER	1589	1	!	-1	1	!	-1	0	0	0
2024-05-02	12:49:55	12:56:33	397680	6.6.1	4_exp_EVA_AWA_CON	11	B	A	Rpleas_acq	Same	Rpleas	2pleas	acq_new_pleas_nomask	acq2_nomask	2	28	480	0	300	300	0	0	2095	50	1	0	loyal	schön	retten	spielen	helfen	lachen	lasch	schlecht	rächen	strafen	hindern	leiden	ehrlich	freundlich	fair	tolerant	schlau	treu	eitel	fanatisch	faul	tyrannisch	schroff	tot	1	blank2r.bmp	0	1	+	0	1	blank2r.bmp	500	7	C3r.bmp	500	1	blank2r.bmp	880	5	schlau	880	1	!	1313	1	!	-1	0	0	0	0	0	0
2024-05-02	12:49:55	12:56:36	400192	6.6.1	4_exp_EVA_AWA_CON	11	B	A	Rpleas_acq	Same	Rpleas	2pleas	acq_US_pleas_nomask	acq2_nomask	2	29	480	0	300	300	0	0	735	50	1	0	loyal	schön	retten	spielen	helfen	lachen	lasch	schlecht	rächen	strafen	hindern	leiden	ehrlich	freundlich	fair	tolerant	schlau	treu	eitel	fanatisch	faul	tyrannisch	schroff	tot	1	blank2r.bmp	0	1	+	0	1	blank2r.bmp	500	1	GKQX	500	1	blank2r.bmp	880	5	helfen	880	1	!	1312	1	!	-1	0	0	0	0	0	0
2024-05-02	12:49:55	12:56:38	402672	6.6.1	4_exp_EVA_AWA_CON	11	B	A	Rpleas_acq	Same	Rpleas	2pleas	acq_US_unple_nomask	acq2_nomask	2	30	480	0	300	300	0	0	703	46	1	0	loyal	schön	retten	spielen	helfen	lachen	lasch	schlecht	rächen	strafen	hindern	leiden	ehrlich	freundlich	fair	tolerant	schlau	treu	eitel	fanatisch	faul	tyrannisch	schroff	tot	1	blank2r.bmp	0	1	+	0	1	blank2r.bmp	500	1	BMVZ	500	1	blank2r.bmp	880	2	schlecht	880	1	!	1312	1	!	-1	0	0	0	0	0	0
2024-05-02	12:49:55	12:56:41	405224	6.6.1	4_exp_EVA_AWA_CON	11	B	A	Rpleas_acq	Same	Rpleas	2pleas	acq_new_pleas_nomask	acq2_nomask	2	31	480	0	300	300	0	0	774	50	1	0	loyal	schön	retten	spielen	helfen	lachen	lasch	schlecht	rächen	strafen	hindern	leiden	ehrlich	freundlich	fair	tolerant	schlau	treu	eitel	fanatisch	faul	tyrannisch	schroff	tot	1	blank2r.bmp	0	1	+	0	1	blank2r.bmp	500	1	B1r.bmp	500	1	blank2r.bmp	880	1	ehrlich	880	1	!	1313	1	!	-1	0	0	0	0	0	0
2024-05-02	12:49:55	12:56:43	407584	6.6.1	4_exp_EVA_AWA_CON	11	B	A	Rpleas_acq	Same	Rpleas	2pleas	acq_new_unple_nomask	acq2_nomask	2	32	480	0	300	300	0	0	582	46	1	0	loyal	schön	retten	spielen	helfen	lachen	lasch	schlecht	rächen	strafen	hindern	leiden	ehrlich	freundlich	fair	tolerant	schlau	treu	eitel	fanatisch	faul	tyrannisch	schroff	tot	1	blank2r.bmp	0	1	+	0	1	blank2r.bmp	500	4	B4r.bmp	500	1	blank2r.bmp	880	5	schroff	880	1	!	1313	1	!	-1	0	0	0	0	0	0
2024-05-02	12:49:55	12:56:46	410048	6.6.1	4_exp_EVA_AWA_CON	11	B	A	Rpleas_acq	Same	Rpleas	2pleas	acq_US_unple_nomask	acq2_nomask	2	33	480	0	300	300	0	0	684	46	1	0	loyal	schön	retten	spielen	helfen	lachen	lasch	schlecht	rächen	strafen	hindern	leiden	ehrlich	freundlich	fair	tolerant	schlau	treu	eitel	fanatisch	faul	tyrannisch	schroff	tot	1	blank2r.bmp	0	1	+	0	1	blank2r.bmp	500	1	BMVZ	500	1	blank2r.bmp	880	4	strafen	880	1	!	1313	1	!	-1	0	0	0	0	0	0
2024-05-02	12:49:55	12:56:48	412576	6.6.1	4_exp_EVA_AWA_CON	11	B	A	Rpleas_acq	Same	Rpleas	2pleas	acq_new_pleas_nomask	acq2_nomask	2	34	480	0	300	300	0	0	751	50	1	0	loyal	schön	retten	spielen	helfen	lachen	lasch	schlecht	rächen	strafen	hindern	leiden	ehrlich	freundlich	fair	tolerant	schlau	treu	eitel	fanatisch	faul	tyrannisch	schroff	tot	1	blank2r.bmp	0	1	+	0	1	blank2r.bmp	500	6	C2r.bmp	500	1	blank2r.bmp	880	4	tolerant	880	1	!	1312	1	!	-1	0	0	0	0	0	0
2024-05-02	12:49:55	12:56:50	414802	6.6.1	4_exp_EVA_AWA_CON	11	B	A	Rpleas_acq	Same	Rpleas	2pleas	acq_US_pleas_nomask	acq2_nomask	2	35	480	1	300	300	0	0	443	50	1	0	loyal	schön	retten	spielen	helfen	lachen	lasch	schlecht	rächen	strafen	hindern	leiden	ehrlich	freundlich	fair	tolerant	schlau	treu	eitel	fanatisch	faul	tyrannisch	schroff	tot	1	blank2r.bmp	0	1	+	0	1	blank2r.bmp	500	1	GKQX	500	1	blank2r.bmp	880	2	schön	880	1	!	1313	1	!	1345	0	0	0	0	0	0
2024-05-02	12:49:55	12:56:53	417082	6.6.1	4_exp_EVA_AWA_CON	11	B	A	Rpleas_acq	Same	Rpleas	2pleas	acq_US_pleas_nomask	acq2_nomask	2	36	480	1	300	300	0	0	502	50	1	0	loyal	schön	retten	spielen	helfen	lachen	lasch	schlecht	rächen	strafen	hindern	leiden	ehrlich	freundlich	fair	tolerant	schlau	treu	eitel	fanatisch	faul	tyrannisch	schroff	tot	1	blank2r.bmp	0	1	+	0	1	blank2r.bmp	500	1	GKQX	500	1	blank2r.bmp	880	4	spielen	880	1	!	1312	1	!	1403	0	0	0	0	0	0
2024-05-02	12:49:55	12:57:09	433440	6.6.1	4_exp_EVA_AWA_CON	11	B	A	Rpleas_acq	Same	Rpleas	2pleas	acq_US_unple_nomask	acq3_nomask	3	1	453	0	300	300	0	0	2522	46	1	0	loyal	schön	retten	spielen	helfen	lachen	lasch	schlecht	rächen	strafen	hindern	leiden	ehrlich	freundlich	fair	tolerant	schlau	treu	eitel	fanatisch	faul	tyrannisch	schroff	tot	1	blank2r.bmp	0	1	+	0	1	blank2r.bmp	500	1	BMVZ	500	1	blank2r.bmp	880	6	leiden	880	1	!	1293	1	!	-1	0	0	0	0	0	0
2024-05-02	12:49:55	12:57:11	435816	6.6.1	4_exp_EVA_AWA_CON	11	B	A	Rpleas_acq	Same	Rpleas	2pleas	acq_US_unple_nomask	acq3_nomask	3	2	453	0	300	300	0	0	595	46	1	0	loyal	schön	retten	spielen	helfen	lachen	lasch	schlecht	rächen	strafen	hindern	leiden	ehrlich	freundlich	fair	tolerant	schlau	treu	eitel	fanatisch	faul	tyrannisch	schroff	tot	1	blank2r.bmp	0	1	+	0	1	blank2r.bmp	500	1	BMVZ	500	1	blank2r.bmp	880	4	strafen	880	1	!	1293	1	!	-1	0	0	0	0	0	0
2024-05-02	12:49:55	12:57:14	438034	6.6.1	4_exp_EVA_AWA_CON	11	B	A	Rpleas_acq	Same	Rpleas	2pleas	acq_US_pleas_nomask	acq3_nomask	3	3	453	1	300	300	0	0	440	50	1	0	loyal	schön	retten	spielen	helfen	lachen	lasch	schlecht	rächen	strafen	hindern	leiden	ehrlich	freundlich	fair	tolerant	schlau	treu	eitel	fanatisch	faul	tyrannisch	schroff	tot	1	blank2r.bmp	0	1	+	0	1	blank2r.bmp	500	1	GKQX	500	1	blank2r.bmp	880	5	helfen	880	1	!	1293	1	!	1342	0	0	0	0	0	0
2024-05-02	12:49:55	12:57:16	440290	6.6.1	4_exp_EVA_AWA_CON	11	B	A	Rpleas_acq	Same	Rpleas	2pleas	acq_US_pleas_nomask	acq3_nomask	3	4	453	1	300	300	0	0	474	50	1	0	loyal	schön	retten	spielen	helfen	lachen	lasch	schlecht	rächen	strafen	hindern	leiden	ehrlich	freundlich	fair	tolerant	schlau	treu	eitel	fanatisch	faul	tyrannisch	schroff	tot	1	blank2r.bmp	0	1	+	0	1	blank2r.bmp	500	1	GKQX	500	1	blank2r.bmp	880	6	lachen	880	1	!	1292	1	!	1376	0	0	0	0	0	0
2024-05-02	12:49:55	12:57:18	442770	6.6.1	4_exp_EVA_AWA_CON	11	B	A	Rpleas_acq	Same	Rpleas	2pleas	acq_US_pleas_nomask	acq3_nomask	3	5	453	1	300	300	0	0	503	46	0	0	loyal	schön	retten	spielen	helfen	lachen	lasch	schlecht	rächen	strafen	hindern	leiden	ehrlich	freundlich	fair	tolerant	schlau	treu	eitel	fanatisch	faul	tyrannisch	schroff	tot	1	blank2r.bmp	0	1	+	0	1	blank2r.bmp	500	1	GKQX	500	1	blank2r.bmp	880	2	schön	880	1	FEHLER	1696	1	!	1292	1	!	1405	0	0	0
2024-05-02	12:49:55	12:57:20	444826	6.6.1	4_exp_EVA_AWA_CON	11	B	A	Rpleas_acq	Same	Rpleas	2pleas	acq_US_pleas_nomask	acq3_nomask	3	6	453	1	300	300	0	0	478	50	1	0	loyal	schön	retten	spielen	helfen	lachen	lasch	schlecht	rächen	strafen	hindern	leiden	ehrlich	freundlich	fair	tolerant	schlau	treu	eitel	fanatisch	faul	tyrannisch	schroff	tot	1	blank2r.bmp	0	1	+	0	1	blank2r.bmp	500	1	GKQX	500	1	blank2r.bmp	880	3	retten	880	1	!	1292	1	!	1379	0	0	0	0	0	0
2024-05-02	12:49:55	12:57:23	447224	6.6.1	4_exp_EVA_AWA_CON	11	B	A	Rpleas_acq	Same	Rpleas	2pleas	acq_US_unple_nomask	acq3_nomask	3	7	453	0	300	300	0	0	617	46	1	0	loyal	schön	retten	spielen	helfen	lachen	lasch	schlecht	rächen	strafen	hindern	leiden	ehrlich	freundlich	fair	tolerant	schlau	treu	eitel	fanatisch	faul	tyrannisch	schroff	tot	1	blank2r.bmp	0	1	+	0	1	blank2r.bmp	500	1	BMVZ	500	1	blank2r.bmp	880	5	hindern	880	1	!	1292	1	!	-1	0	0	0	0	0	0
2024-05-02	12:49:55	12:57:25	449747	6.6.1	4_exp_EVA_AWA_CON	11	B	A	Rpleas_acq	Same	Rpleas	2pleas	acq_US_unple_nomask	acq3_nomask	3	8	453	0	300	300	0	0	545	50	0	0	loyal	schön	retten	spielen	helfen	lachen	lasch	schlecht	rächen	strafen	hindern	leiden	ehrlich	freundlich	fair	tolerant	schlau	treu	eitel	fanatisch	faul	tyrannisch	schroff	tot	1	blank2r.bmp	0	1	+	0	1	blank2r.bmp	500	1	BMVZ	500	1	blank2r.bmp	880	3	rächen	880	1	FEHLER	1738	1	!	1293	1	!	-1	0	0	0
2024-05-02	12:49:55	12:57:28	452232	6.6.1	4_exp_EVA_AWA_CON	11	B	A	Rpleas_acq	Same	Rpleas	2pleas	acq_US_unple_nomask	acq3_nomask	3	9	453	0	300	300	0	0	911	46	1	0	loyal	schön	retten	spielen	helfen	lachen	lasch	schlecht	rächen	strafen	hindern	leiden	ehrlich	freundlich	fair	tolerant	schlau	treu	eitel	fanatisch	faul	tyrannisch	schroff	tot	1	blank2r.bmp	0	1	+	0	1	blank2r.bmp	500	1	BMVZ	500	1	blank2r.bmp	880	2	schlecht	880	1	!	1293	1	!	-1	0	0	0	0	0	0
2024-05-02	12:49:55	12:57:30	454384	6.6.1	4_exp_EVA_AWA_CON	11	B	A	Rpleas_acq	Same	Rpleas	2pleas	acq_US_pleas_nomask	acq3_nomask	3	10	453	0	300	300	0	0	371	50	1	0	loyal	schön	retten	spielen	helfen	lachen	lasch	schlecht	rächen	strafen	hindern	leiden	ehrlich	freundlich	fair	tolerant	schlau	treu	eitel	fanatisch	faul	tyrannisch	schroff	tot	1	blank2r.bmp	0	1	+	0	1	blank2r.bmp	500	1	GKQX	500	1	blank2r.bmp	880	1	loyal	880	1	!	-1	1	!	-1	0	0	0	0	0	0
2024-05-02	12:49:55	12:57:34	458888	6.6.1	4_exp_EVA_AWA_CON	11	B	A	Rpleas_acq	Same	Rpleas	2pleas	acq_US_pleas_nomask	acq3_nomask	3	11	453	0	300	300	0	0	2724	50	1	0	loyal	schön	retten	spielen	helfen	lachen	lasch	schlecht	rächen	strafen	hindern	leiden	ehrlich	freundlich	fair	tolerant	schlau	treu	eitel	fanatisch	faul	tyrannisch	schroff	tot	1	blank2r.bmp	0	1	+	0	1	blank2r.bmp	500	1	GKQX	500	1	blank2r.bmp	880	4	spielen	880	1	!	1293	1	!	-1	0	0	0	0	0	0
2024-05-02	12:49:55	12:57:37	461280	6.6.1	4_exp_EVA_AWA_CON	11	B	A	Rpleas_acq	Same	Rpleas	2pleas	acq_US_unple_nomask	acq3_nomask	3	12	453	0	300	300	0	0	613	46	1	0	loyal	schön	retten	spielen	helfen	lachen	lasch	schlecht	rächen	strafen	hindern	leiden	ehrlich	freundlich	fair	tolerant	schlau	treu	eitel	fanatisch	faul	tyrannisch	schroff	tot	1	blank2r.bmp	0	1	+	0	1	blank2r.bmp	500	1	BMVZ	500	1	blank2r.bmp	880	1	lasch	880	1	!	1292	1	!	-1	0	0	0	0	0	0
2024-05-02	12:49:55	12:57:39	463522	6.6.1	4_exp_EVA_AWA_CON	11	B	A	Rpleas_acq	Same	Rpleas	2pleas	acq_US_pleas_nomask	acq3_nomask	3	13	453	1	300	300	0	0	461	50	1	0	loyal	schön	retten	spielen	helfen	lachen	lasch	schlecht	rächen	strafen	hindern	leiden	ehrlich	freundlich	fair	tolerant	schlau	treu	eitel	fanatisch	faul	tyrannisch	schroff	tot	1	blank2r.bmp	0	1	+	0	1	blank2r.bmp	500	1	GKQX	500	1	blank2r.bmp	880	1	loyal	880	1	!	1293	1	!	1363	0	0	0	0	0	0
2024-05-02	12:49:55	12:57:41	465944	6.6.1	4_exp_EVA_AWA_CON	11	B	A	Rpleas_acq	Same	Rpleas	2pleas	acq_US_pleas_nomask	acq3_nomask	3	14	453	0	300	300	0	0	645	50	1	0	loyal	schön	retten	spielen	helfen	lachen	lasch	schlecht	rächen	strafen	hindern	leiden	ehrlich	freundlich	fair	tolerant	schlau	treu	eitel	fanatisch	faul	tyrannisch	schroff	tot	1	blank2r.bmp	0	1	+	0	1	blank2r.bmp	500	1	GKQX	500	1	blank2r.bmp	880	6	lachen	880	1	!	1293	1	!	-1	0	0	0	0	0	0
2024-05-02	12:49:55	12:57:44	468178	6.6.1	4_exp_EVA_AWA_CON	11	B	A	Rpleas_acq	Same	Rpleas	2pleas	acq_US_pleas_nomask	acq3_nomask	3	15	453	1	300	300	0	0	455	50	1	0	loyal	schön	retten	spielen	helfen	lachen	lasch	schlecht	rächen	strafen	hindern	leiden	ehrlich	freundlich	fair	tolerant	schlau	treu	eitel	fanatisch	faul	tyrannisch	schroff	tot	1	blank2r.bmp	0	1	+	0	1	blank2r.bmp	500	1	GKQX	500	1	blank2r.bmp	880	2	schön	880	1	!	1293	1	!	1356	0	0	0	0	0	0
2024-05-02	12:49:55	12:57:46	470560	6.6.1	4_exp_EVA_AWA_CON	11	B	A	Rpleas_acq	Same	Rpleas	2pleas	acq_US_pleas_nomask	acq3_nomask	3	16	453	0	300	300	0	0	607	50	1	0	loyal	schön	retten	spielen	helfen	lachen	lasch	schlecht	rächen	strafen	hindern	leiden	ehrlich	freundlich	fair	tolerant	schlau	treu	eitel	fanatisch	faul	tyrannisch	schroff	tot	1	blank2r.bmp	0	1	+	0	1	blank2r.bmp	500	1	GKQX	500	1	blank2r.bmp	880	3	retten	880	1	!	1293	1	!	-1	0	0	0	0	0	0
2024-05-02	12:49:55	12:57:48	472728	6.6.1	4_exp_EVA_AWA_CON	11	B	A	Rpleas_acq	Same	Rpleas	2pleas	acq_US_unple_nomask	acq3_nomask	3	17	453	1	300	300	0	0	394	46	1	0	loyal	schön	retten	spielen	helfen	lachen	lasch	schlecht	rächen	strafen	hindern	leiden	ehrlich	freundlich	fair	tolerant	schlau	treu	eitel	fanatisch	faul	tyrannisch	schroff	tot	1	blank2r.bmp	0	1	+	0	1	blank2r.bmp	500	1	BMVZ	500	1	blank2r.bmp	880	1	lasch	880	1	!	1293	1	!	1293	0	0	0	0	0	0
2024-05-02	12:49:55	12:57:51	474978	6.6.1	4_exp_EVA_AWA_CON	11	B	A	Rpleas_acq	Same	Rpleas	2pleas	acq_US_unple_nomask	acq3_nomask	3	18	453	1	300	300	0	0	470	46	1	0	loyal	schön	retten	spielen	helfen	lachen	lasch	schlecht	rächen	strafen	hindern	leiden	ehrlich	freundlich	fair	tolerant	schlau	treu	eitel	fanatisch	faul	tyrannisch	schroff	tot	1	blank2r.bmp	0	1	+	0	1	blank2r.bmp	500	1	BMVZ	500	1	blank2r.bmp	880	6	leiden	880	1	!	1292	1	!	1372	0	0	0	0	0	0
2024-05-02	12:49:55	12:57:53	477279	6.6.1	4_exp_EVA_AWA_CON	11	B	A	Rpleas_acq	Same	Rpleas	2pleas	acq_US_unple_nomask	acq3_nomask	3	19	453	0	300	300	0	0	523	46	1	0	loyal	schön	retten	spielen	helfen	lachen	lasch	schlecht	rächen	strafen	hindern	leiden	ehrlich	freundlich	fair	tolerant	schlau	treu	eitel	fanatisch	faul	tyrannisch	schroff	tot	1	blank2r.bmp	0	1	+	0	1	blank2r.bmp	500	1	BMVZ	500	1	blank2r.bmp	880	3	rächen	880	1	!	1293	1	!	-1	0	0	0	0	0	0
2024-05-02	12:49:55	12:57:55	479522	6.6.1	4_exp_EVA_AWA_CON	11	B	A	Rpleas_acq	Same	Rpleas	2pleas	acq_US_unple_nomask	acq3_nomask	3	20	453	1	300	300	0	0	461	46	1	0	loyal	schön	retten	spielen	helfen	lachen	lasch	schlecht	rächen	strafen	hindern	leiden	ehrlich	freundlich	fair	tolerant	schlau	treu	eitel	fanatisch	faul	tyrannisch	schroff	tot	1	blank2r.bmp	0	1	+	0	1	blank2r.bmp	500	1	BMVZ	500	1	blank2r.bmp	880	2	schlecht	880	1	!	1293	1	!	1363	0	0	0	0	0	0
2024-05-02	12:49:55	12:57:57	481664	6.6.1	4_exp_EVA_AWA_CON	11	B	A	Rpleas_acq	Same	Rpleas	2pleas	acq_US_unple_nomask	acq3_nomask	3	21	453	0	300	300	0	0	363	46	1	0	loyal	schön	retten	spielen	helfen	lachen	lasch	schlecht	rächen	strafen	hindern	leiden	ehrlich	freundlich	fair	tolerant	schlau	treu	eitel	fanatisch	faul	tyrannisch	schroff	tot	1	blank2r.bmp	0	1	+	0	1	blank2r.bmp	500	1	BMVZ	500	1	blank2r.bmp	880	4	strafen	880	1	!	-1	1	!	-1	0	0	0	0	0	0
2024-05-02	12:49:55	12:57:59	483824	6.6.1	4_exp_EVA_AWA_CON	11	B	A	Rpleas_acq	Same	Rpleas	2pleas	acq_US_pleas_nomask	acq3_nomask	3	22	453	0	300	300	0	0	382	50	1	0	loyal	schön	retten	spielen	helfen	lachen	lasch	schlecht	rächen	strafen	hindern	leiden	ehrlich	freundlich	fair	tolerant	schlau	treu	eitel	fanatisch	faul	tyrannisch	schroff	tot	1	blank2r.bmp	0	1	+	0	1	blank2r.bmp	500	1	GKQX	500	1	blank2r.bmp	880	5	helfen	880	1	!	-1	1	!	-1	0	0	0	0	0	0
2024-05-02	12:49:55	12:58:03	487240	6.6.1	4_exp_EVA_AWA_CON	11	B	A	Rpleas_acq	Same	Rpleas	2pleas	acq_US_unple_nomask	acq3_nomask	3	23	453	0	300	300	0	0	1637	46	1	0	loyal	schön	retten	spielen	helfen	lachen	lasch	schlecht	rächen	strafen	hindern	leiden	ehrlich	freundlich	fair	tolerant	schlau	treu	eitel	fanatisch	faul	tyrannisch	schroff	tot	1	blank2r.bmp	0	1	+	0	1	blank2r.bmp	500	1	BMVZ	500	1	blank2r.bmp	880	5	hindern	880	1	!	1292	1	!	-1	0	0	0	0	0	0
2024-05-02	12:49:55	12:58:05	489624	6.6.1	4_exp_EVA_AWA_CON	11	B	A	Rpleas_acq	Same	Rpleas	2pleas	acq_US_pleas_nomask	acq3_nomask	3	24	453	0	300	300	0	0	608	50	1	0	loyal	schön	retten	spielen	helfen	lachen	lasch	schlecht	rächen	strafen	hindern	leiden	ehrlich	freundlich	fair	tolerant	schlau	treu	eitel	fanatisch	faul	tyrannisch	schroff	tot	1	blank2r.bmp	0	1	+	0	1	blank2r.bmp	500	1	GKQX	500	1	blank2r.bmp	880	4	spielen	880	1	!	1293	1	!	-1	0	0	0	0	0	0
2024-05-02	12:49:55	12:58:08	492380	6.6.1	4_exp_EVA_AWA_CON	11	B	A	Rpleas_acq	Same	Rpleas	2pleas	acq_US_pleas_nomask	acq3_nomask	3	25	453	0	300	300	0	0	779	46	0	0	loyal	schön	retten	spielen	helfen	lachen	lasch	schlecht	rächen	strafen	hindern	leiden	ehrlich	freundlich	fair	tolerant	schlau	treu	eitel	fanatisch	faul	tyrannisch	schroff	tot	1	blank2r.bmp	0	1	+	0	1	blank2r.bmp	500	1	GKQX	500	1	blank2r.bmp	880	1	loyal	880	1	FEHLER	1973	1	!	1293	1	!	-1	0	0	0
2024-05-02	12:49:55	12:58:10	494512	6.6.1	4_exp_EVA_AWA_CON	11	B	A	Rpleas_acq	Same	Rpleas	2pleas	acq_US_pleas_nomask	acq3_nomask	3	26	453	0	300	300	0	0	564	50	1	0	loyal	schön	retten	spielen	helfen	lachen	lasch	schlecht	rächen	strafen	hindern	leiden	ehrlich	freundlich	fair	tolerant	schlau	treu	eitel	fanatisch	faul	tyrannisch	schroff	tot	1	blank2r.bmp	0	1	+	0	1	blank2r.bmp	500	1	GKQX	500	1	blank2r.bmp	880	6	lachen	880	1	!	1292	1	!	-1	0	0	0	0	0	0
2024-05-02	12:49:55	12:58:12	496928	6.6.1	4_exp_EVA_AWA_CON	11	B	A	Rpleas_acq	Same	Rpleas	2pleas	acq_US_unple_nomask	acq3_nomask	3	27	453	0	300	300	0	0	639	46	1	0	loyal	schön	retten	spielen	helfen	lachen	lasch	schlecht	rächen	strafen	hindern	leiden	ehrlich	freundlich	fair	tolerant	schlau	treu	eitel	fanatisch	faul	tyrannisch	schroff	tot	1	blank2r.bmp	0	1	+	0	1	blank2r.bmp	500	1	BMVZ	500	1	blank2r.bmp	880	2	schlecht	880	1	!	1293	1	!	-1	0	0	0	0	0	0
2024-05-02	12:49:55	12:58:15	499155	6.6.1	4_exp_EVA_AWA_CON	11	B	A	Rpleas_acq	Same	Rpleas	2pleas	acq_US_unple_nomask	acq3_nomask	3	28	453	1	300	300	0	0	450	46	1	0	loyal	schön	retten	spielen	helfen	lachen	lasch	schlecht	rächen	strafen	hindern	leiden	ehrlich	freundlich	fair	tolerant	schlau	treu	eitel	fanatisch	faul	tyrannisch	schroff	tot	1	blank2r.bmp	0	1	+	0	1	blank2r.bmp	500	1	BMVZ	500	1	blank2r.bmp	880	4	strafen	880	1	!	1292	1	!	1352	0	0	0	0	0	0
2024-05-02	12:49:55	12:58:17	501584	6.6.1	4_exp_EVA_AWA_CON	11	B	A	Rpleas_acq	Same	Rpleas	2pleas	acq_US_pleas_nomask	acq3_nomask	3	29	453	0	300	300	0	0	652	50	1	0	loyal	schön	retten	spielen	helfen	lachen	lasch	schlecht	rächen	strafen	hindern	leiden	ehrlich	freundlich	fair	tolerant	schlau	treu	eitel	fanatisch	faul	tyrannisch	schroff	tot	1	blank2r.bmp	0	1	+	0	1	blank2r.bmp	500	1	GKQX	500	1	blank2r.bmp	880	5	helfen	880	1	!	1293	1	!	-1	0	0	0	0	0	0
2024-05-02	12:49:55	12:58:19	503882	6.6.1	4_exp_EVA_AWA_CON	11	B	A	Rpleas_acq	Same	Rpleas	2pleas	acq_US_unple_nomask	acq3_nomask	3	30	453	1	300	300	0	0	516	46	1	0	loyal	schön	retten	spielen	helfen	lachen	lasch	schlecht	rächen	strafen	hindern	leiden	ehrlich	freundlich	fair	tolerant	schlau	treu	eitel	fanatisch	faul	tyrannisch	schroff	tot	1	blank2r.bmp	0	1	+	0	1	blank2r.bmp	500	1	BMVZ	500	1	blank2r.bmp	880	3	rächen	880	1	!	1293	1	!	1417	0	0	0	0	0	0
2024-05-02	12:49:55	12:58:22	506192	6.6.1	4_exp_EVA_AWA_CON	11	B	A	Rpleas_acq	Same	Rpleas	2pleas	acq_US_unple_nomask	acq3_nomask	3	31	453	0	300	300	0	0	535	46	1	0	loyal	schön	retten	spielen	helfen	lachen	lasch	schlecht	rächen	strafen	hindern	leiden	ehrlich	freundlich	fair	tolerant	schlau	treu	eitel	fanatisch	faul	tyrannisch	schroff	tot	1	blank2r.bmp	0	1	+	0	1	blank2r.bmp	500	1	BMVZ	500	1	blank2r.bmp	880	1	lasch	880	1	!	1292	1	!	-1	0	0	0	0	0	0
2024-05-02	12:49:55	12:58:24	508560	6.6.1	4_exp_EVA_AWA_CON	11	B	A	Rpleas_acq	Same	Rpleas	2pleas	acq_US_pleas_nomask	acq3_nomask	3	32	453	0	300	300	0	0	592	50	1	0	loyal	schön	retten	spielen	helfen	lachen	lasch	schlecht	rächen	strafen	hindern	leiden	ehrlich	freundlich	fair	tolerant	schlau	treu	eitel	fanatisch	faul	tyrannisch	schroff	tot	1	blank2r.bmp	0	1	+	0	1	blank2r.bmp	500	1	GKQX	500	1	blank2r.bmp	880	3	retten	880	1	!	1292	1	!	-1	0	0	0	0	0	0
2024-05-02	12:49:55	12:58:27	511048	6.6.1	4_exp_EVA_AWA_CON	11	B	A	Rpleas_acq	Same	Rpleas	2pleas	acq_US_unple_nomask	acq3_nomask	3	33	453	0	300	300	0	0	709	46	1	0	loyal	schön	retten	spielen	helfen	lachen	lasch	schlecht	rächen	strafen	hindern	leiden	ehrlich	freundlich	fair	tolerant	schlau	treu	eitel	fanatisch	faul	tyrannisch	schroff	tot	1	blank2r.bmp	0	1	+	0	1	blank2r.bmp	500	1	BMVZ	500	1	blank2r.bmp	880	5	hindern	880	1	!	1293	1	!	-1	0	0	0	0	0	0
2024-05-02	12:49:55	12:58:30	514456	6.6.1	4_exp_EVA_AWA_CON	11	B	A	Rpleas_acq	Same	Rpleas	2pleas	acq_US_unple_nomask	acq3_nomask	3	34	453	0	300	300	0	0	1635	46	1	0	loyal	schön	retten	spielen	helfen	lachen	lasch	schlecht	rächen	strafen	hindern	leiden	ehrlich	freundlich	fair	tolerant	schlau	treu	eitel	fanatisch	faul	tyrannisch	schroff	tot	1	blank2r.bmp	0	1	+	0	1	blank2r.bmp	500	1	BMVZ	500	1	blank2r.bmp	880	6	leiden	880	1	!	1292	1	!	-1	0	0	0	0	0	0
2024-05-02	12:49:55	12:58:32	516650	6.6.1	4_exp_EVA_AWA_CON	11	B	A	Rpleas_acq	Same	Rpleas	2pleas	acq_US_pleas_nomask	acq3_nomask	3	35	453	1	300	300	0	0	416	50	1	0	loyal	schön	retten	spielen	helfen	lachen	lasch	schlecht	rächen	strafen	hindern	leiden	ehrlich	freundlich	fair	tolerant	schlau	treu	eitel	fanatisch	faul	tyrannisch	schroff	tot	1	blank2r.bmp	0	1	+	0	1	blank2r.bmp	500	1	GKQX	500	1	blank2r.bmp	880	2	schön	880	1	!	1292	1	!	1316	0	0	0	0	0	0
2024-05-02	12:49:55	12:58:35	519120	6.6.1	4_exp_EVA_AWA_CON	11	B	A	Rpleas_acq	Same	Rpleas	2pleas	acq_US_pleas_nomask	acq3_nomask	3	36	453	0	300	300	0	0	696	50	1	0	loyal	schön	retten	spielen	helfen	lachen	lasch	schlecht	rächen	strafen	hindern	leiden	ehrlich	freundlich	fair	tolerant	schlau	treu	eitel	fanatisch	faul	tyrannisch	schroff	tot	1	blank2r.bmp	0	1	+	0	1	blank2r.bmp	500	1	GKQX	500	1	blank2r.bmp	880	4	spielen	880	1	!	1292	1	!	-1	0	0	0	0	0	0
2024-05-02	12:49:55	12:58:58	542344	6.6.1	4_exp_EVA_AWA_CON	11	B	A	Rpleas_acq	Same	Rpleas	2pleas	acq_US_pleas_nomask	acq45_nomask	4	1	400	0	300	300	0	0	1755	50	1	0	loyal	schön	retten	spielen	helfen	lachen	lasch	schlecht	rächen	strafen	hindern	leiden	ehrlich	freundlich	fair	tolerant	schlau	treu	eitel	fanatisch	faul	tyrannisch	schroff	tot	1	blank2r.bmp	0	1	+	0	1	blank2r.bmp	500	1	GKQX	500	1	blank2r.bmp	880	5	helfen	880	1	!	1232	1	!	-1	0	0	0	0	0	0
2024-05-02	12:49:55	12:59:00	544744	6.6.1	4_exp_EVA_AWA_CON	11	B	A	Rpleas_acq	Same	Rpleas	2pleas	acq_US_pleas_nomask	acq45_nomask	4	2	400	0	300	300	0	0	623	50	1	0	loyal	schön	retten	spielen	helfen	lachen	lasch	schlecht	rächen	strafen	hindern	leiden	ehrlich	freundlich	fair	tolerant	schlau	treu	eitel	fanatisch	faul	tyrannisch	schroff	tot	1	blank2r.bmp	0	1	+	0	1	blank2r.bmp	500	1	GKQX	500	1	blank2r.bmp	880	6	lachen	880	1	!	1232	1	!	-1	0	0	0	0	0	0
2024-05-02	12:49:55	12:59:03	547136	6.6.1	4_exp_EVA_AWA_CON	11	B	A	Rpleas_acq	Same	Rpleas	2pleas	acq_US_unple_nomask	acq45_nomask	4	3	400	0	300	300	0	0	613	46	1	0	loyal	schön	retten	spielen	helfen	lachen	lasch	schlecht	rächen	strafen	hindern	leiden	ehrlich	freundlich	fair	tolerant	schlau	treu	eitel	fanatisch	faul	tyrannisch	schroff	tot	1	blank2r.bmp	0	1	+	0	1	blank2r.bmp	500	1	BMVZ	500	1	blank2r.bmp	880	3	rächen	880	1	!	1232	1	!	-1	0	0	0	0	0	0
2024-05-02	12:49:55	12:59:05	549520	6.6.1	4_exp_EVA_AWA_CON	11	B	A	Rpleas_acq	Same	Rpleas	2pleas	acq_US_unple_nomask	acq45_nomask	4	4	400	0	300	300	0	0	605	46	1	0	loyal	schön	retten	spielen	helfen	lachen	lasch	schlecht	rächen	strafen	hindern	leiden	ehrlich	freundlich	fair	tolerant	schlau	treu	eitel	fanatisch	faul	tyrannisch	schroff	tot	1	blank2r.bmp	0	1	+	0	1	blank2r.bmp	500	1	BMVZ	500	1	blank2r.bmp	880	4	strafen	880	1	!	1232	1	!	-1	0	0	0	0	0	0
2024-05-02	12:49:55	12:59:07	551738	6.6.1	4_exp_EVA_AWA_CON	11	B	A	Rpleas_acq	Same	Rpleas	2pleas	acq_US_unple_nomask	acq45_nomask	4	5	400	1	300	300	0	0	440	46	1	0	loyal	schön	retten	spielen	helfen	lachen	lasch	schlecht	rächen	strafen	hindern	leiden	ehrlich	freundlich	fair	tolerant	schlau	treu	eitel	fanatisch	faul	tyrannisch	schroff	tot	1	blank2r.bmp	0	1	+	0	1	blank2r.bmp	500	1	BMVZ	500	1	blank2r.bmp	880	2	schlecht	880	1	!	1233	1	!	1342	0	0	0	0	0	0
2024-05-02	12:49:55	12:59:10	554136	6.6.1	4_exp_EVA_AWA_CON	11	B	A	Rpleas_acq	Same	Rpleas	2pleas	acq_US_unple_nomask	acq45_nomask	4	6	400	0	300	300	0	0	618	46	1	0	loyal	schön	retten	spielen	helfen	lachen	lasch	schlecht	rächen	strafen	hindern	leiden	ehrlich	freundlich	fair	tolerant	schlau	treu	eitel	fanatisch	faul	tyrannisch	schroff	tot	1	blank2r.bmp	0	1	+	0	1	blank2r.bmp	500	1	BMVZ	500	1	blank2r.bmp	880	6	leiden	880	1	!	1232	1	!	-1	0	0	0	0	0	0
2024-05-02	12:49:55	12:59:12	556408	6.6.1	4_exp_EVA_AWA_CON	11	B	A	Rpleas_acq	Same	Rpleas	2pleas	acq_US_unple_nomask	acq45_nomask	4	7	400	0	300	300	0	0	499	46	1	0	loyal	schön	retten	spielen	helfen	lachen	lasch	schlecht	rächen	strafen	hindern	leiden	ehrlich	freundlich	fair	tolerant	schlau	treu	eitel	fanatisch	faul	tyrannisch	schroff	tot	1	blank2r.bmp	0	1	+	0	1	blank2r.bmp	500	1	BMVZ	500	1	blank2r.bmp	880	5	hindern	880	1	!	1232	1	!	-1	0	0	0	0	0	0
2024-05-02	12:49:55	12:59:14	558736	6.6.1	4_exp_EVA_AWA_CON	11	B	A	Rpleas_acq	Same	Rpleas	2pleas	acq_US_pleas_nomask	acq45_nomask	4	8	400	0	300	300	0	0	556	50	1	0	loyal	schön	retten	spielen	helfen	lachen	lasch	schlecht	rächen	strafen	hindern	leiden	ehrlich	freundlich	fair	tolerant	schlau	treu	eitel	fanatisch	faul	tyrannisch	schroff	tot	1	blank2r.bmp	0	1	+	0	1	blank2r.bmp	500	1	GKQX	500	1	blank2r.bmp	880	2	schön	880	1	!	1232	1	!	-1	0	0	0	0	0	0
2024-05-02	12:49:55	12:59:17	561033	6.6.1	4_exp_EVA_AWA_CON	11	B	A	Rpleas_acq	Same	Rpleas	2pleas	acq_US_unple_nomask	acq45_nomask	4	9	400	0	300	300	0	0	521	46	1	0	loyal	schön	retten	spielen	helfen	lachen	lasch	schlecht	rächen	strafen	hindern	leiden	ehrlich	freundlich	fair	tolerant	schlau	treu	eitel	fanatisch	faul	tyrannisch	schroff	tot	1	blank2r.bmp	0	1	+	0	1	blank2r.bmp	500	1	BMVZ	500	1	blank2r.bmp	880	1	lasch	880	1	!	1233	1	!	-1	0	0	0	0	0	0
2024-05-02	12:49:55	12:59:19	563250	6.6.1	4_exp_EVA_AWA_CON	11	B	A	Rpleas_acq	Same	Rpleas	2pleas	acq_US_pleas_nomask	acq45_nomask	4	10	400	1	300	300	0	0	435	50	1	0	loyal	schön	retten	spielen	helfen	lachen	lasch	schlecht	rächen	strafen	hindern	leiden	ehrlich	freundlich	fair	tolerant	schlau	treu	eitel	fanatisch	faul	tyrannisch	schroff	tot	1	blank2r.bmp	0	1	+	0	1	blank2r.bmp	500	1	GKQX	500	1	blank2r.bmp	880	4	spielen	880	1	!	1232	1	!	1336	0	0	0	0	0	0
2024-05-02	12:49:55	12:59:21	565520	6.6.1	4_exp_EVA_AWA_CON	11	B	A	Rpleas_acq	Same	Rpleas	2pleas	acq_US_unple_nomask	acq45_nomask	4	11	400	0	300	300	0	0	495	46	1	0	loyal	schön	retten	spielen	helfen	lachen	lasch	schlecht	rächen	strafen	hindern	leiden	ehrlich	freundlich	fair	tolerant	schlau	treu	eitel	fanatisch	faul	tyrannisch	schroff	tot	1	blank2r.bmp	0	1	+	0	1	blank2r.bmp	500	1	BMVZ	500	1	blank2r.bmp	880	5	hindern	880	1	!	1233	1	!	-1	0	0	0	0	0	0
2024-05-02	12:49:55	12:59:23	567674	6.6.1	4_exp_EVA_AWA_CON	11	B	A	Rpleas_acq	Same	Rpleas	2pleas	acq_US_pleas_nomask	acq45_nomask	4	12	400	1	300	300	0	0	375	50	1	0	loyal	schön	retten	spielen	helfen	lachen	lasch	schlecht	rächen	strafen	hindern	leiden	ehrlich	freundlich	fair	tolerant	schlau	treu	eitel	fanatisch	faul	tyrannisch	schroff	tot	1	blank2r.bmp	0	1	+	0	1	blank2r.bmp	500	1	GKQX	500	1	blank2r.bmp	880	3	retten	880	1	!	1232	1	!	1277	0	0	0	0	0	0
2024-05-02	12:49:55	12:59:26	570016	6.6.1	4_exp_EVA_AWA_CON	11	B	A	Rpleas_acq	Same	Rpleas	2pleas	acq_US_pleas_nomask	acq45_nomask	4	13	400	0	300	300	0	0	568	50	1	0	loyal	schön	retten	spielen	helfen	lachen	lasch	schlecht	rächen	strafen	hindern	leiden	ehrlich	freundlich	fair	tolerant	schlau	treu	eitel	fanatisch	faul	tyrannisch	schroff	tot	1	blank2r.bmp	0	1	+	0	1	blank2r.bmp	500	1	GKQX	500	1	blank2r.bmp	880	1	loyal	880	1	!	1233	1	!	-1	0	0	0	0	0	0
2024-05-02	12:49:55	12:59:28	572146	6.6.1	4_exp_EVA_AWA_CON	11	B	A	Rpleas_acq	Same	Rpleas	2pleas	acq_US_unple_nomask	acq45_nomask	4	14	400	1	300	300	0	0	354	46	1	0	loyal	schön	retten	spielen	helfen	lachen	lasch	schlecht	rächen	strafen	hindern	leiden	ehrlich	freundlich	fair	tolerant	schlau	treu	eitel	fanatisch	faul	tyrannisch	schroff	tot	1	blank2r.bmp	0	1	+	0	1	blank2r.bmp	500	1	BMVZ	500	1	blank2r.bmp	880	6	leiden	880	1	!	1232	1	!	1256	0	0	0	0	0	0
2024-05-02	12:49:55	12:59:30	574322	6.6.1	4_exp_EVA_AWA_CON	11	B	A	Rpleas_acq	Same	Rpleas	2pleas	acq_US_pleas_nomask	acq45_nomask	4	15	400	1	300	300	0	0	399	50	1	0	loyal	schön	retten	spielen	helfen	lachen	lasch	schlecht	rächen	strafen	hindern	leiden	ehrlich	freundlich	fair	tolerant	schlau	treu	eitel	fanatisch	faul	tyrannisch	schroff	tot	1	blank2r.bmp	0	1	+	0	1	blank2r.bmp	500	1	GKQX	500	1	blank2r.bmp	880	1	loyal	880	1	!	1232	1	!	1301	0	0	0	0	0	0
2024-05-02	12:49:55	12:59:32	576482	6.6.1	4_exp_EVA_AWA_CON	11	B	A	Rpleas_acq	Same	Rpleas	2pleas	acq_US_pleas_nomask	acq45_nomask	4	16	400	1	300	300	0	0	377	46	0	0	loyal	schön	retten	spielen	helfen	lachen	lasch	schlecht	rächen	strafen	hindern	leiden	ehrlich	freundlich	fair	tolerant	schlau	treu	eitel	fanatisch	faul	tyrannisch	schroff	tot	1	blank2r.bmp	0	1	+	0	1	blank2r.bmp	500	1	GKQX	500	1	blank2r.bmp	880	5	helfen	880	1	!	1232	1	!	1279	0	0	0	0	0	0
2024-05-02	12:49:55	12:59:34	578792	6.6.1	4_exp_EVA_AWA_CON	11	B	A	Rpleas_acq	Same	Rpleas	2pleas	acq_US_unple_nomask	acq45_nomask	4	17	400	0	300	300	0	0	529	46	1	0	loyal	schön	retten	spielen	helfen	lachen	lasch	schlecht	rächen	strafen	hindern	leiden	ehrlich	freundlich	fair	tolerant	schlau	treu	eitel	fanatisch	faul	tyrannisch	schroff	tot	1	blank2r.bmp	0	1	+	0	1	blank2r.bmp	500	1	BMVZ	500	1	blank2r.bmp	880	1	lasch	880	1	!	1232	1	!	-1	0	0	0	0	0	0
2024-05-02	12:49:55	12:59:36	580930	6.6.1	4_exp_EVA_AWA_CON	11	B	A	Rpleas_acq	Same	Rpleas	2pleas	acq_US_pleas_nomask	acq45_nomask	4	18	400	1	300	300	0	0	364	50	1	0	loyal	schön	retten	spielen	helfen	lachen	lasch	schlecht	rächen	strafen	hindern	leiden	ehrlich	freundlich	fair	tolerant	schlau	treu	eitel	fanatisch	faul	tyrannisch	schroff	tot	1	blank2r.bmp	0	1	+	0	1	blank2r.bmp	500	1	GKQX	500	1	blank2r.bmp	880	2	schön	880	1	!	1233	1	!	1264	0	0	0	0	0	0
2024-05-02	12:49:55	12:59:39	583192	6.6.1	4_exp_EVA_AWA_CON	11	B	A	Rpleas_acq	Same	Rpleas	2pleas	acq_US_unple_nomask	acq45_nomask	4	19	400	0	300	300	0	0	485	46	1	0	loyal	schön	retten	spielen	helfen	lachen	lasch	schlecht	rächen	strafen	hindern	leiden	ehrlich	freundlich	fair	tolerant	schlau	treu	eitel	fanatisch	faul	tyrannisch	schroff	tot	1	blank2r.bmp	0	1	+	0	1	blank2r.bmp	500	1	BMVZ	500	1	blank2r.bmp	880	2	schlecht	880	1	!	1232	1	!	-1	0	0	0	0	0	0
2024-05-02	12:49:55	12:59:41	585464	6.6.1	4_exp_EVA_AWA_CON	11	B	A	Rpleas_acq	Same	Rpleas	2pleas	acq_US_pleas_nomask	acq45_nomask	4	20	400	0	300	300	0	0	497	50	1	0	loyal	schön	retten	spielen	helfen	lachen	lasch	schlecht	rächen	strafen	hindern	leiden	ehrlich	freundlich	fair	tolerant	schlau	treu	eitel	fanatisch	faul	tyrannisch	schroff	tot	1	blank2r.bmp	0	1	+	0	1	blank2r.bmp	500	1	GKQX	500	1	blank2r.bmp	880	6	lachen	880	1	!	1233	1	!	-1	0	0	0	0	0	0
2024-05-02	12:49:55	12:59:43	587832	6.6.1	4_exp_EVA_AWA_CON	11	B	A	Rpleas_acq	Same	Rpleas	2pleas	acq_US_pleas_nomask	acq45_nomask	4	21	400	0	300	300	0	0	593	50	1	0	loyal	schön	retten	spielen	helfen	lachen	lasch	schlecht	rächen	strafen	hindern	leiden	ehrlich	freundlich	fair	tolerant	schlau	treu	eitel	fanatisch	faul	tyrannisch	schroff	tot	1	blank2r.bmp	0	1	+	0	1	blank2r.bmp	500	1	GKQX	500	1	blank2r.bmp	880	4	spielen	880	1	!	1232	1	!	-1	0	0	0	0	0	0
2024-05-02	12:49:55	12:59:45	589936	6.6.1	4_exp_EVA_AWA_CON	11	B	A	Rpleas_acq	Same	Rpleas	2pleas	acq_US_unple_nomask	acq45_nomask	4	22	400	0	300	300	0	0	326	46	1	0	loyal	schön	retten	spielen	helfen	lachen	lasch	schlecht	rächen	strafen	hindern	leiden	ehrlich	freundlich	fair	tolerant	schlau	treu	eitel	fanatisch	faul	tyrannisch	schroff	tot	1	blank2r.bmp	0	1	+	0	1	blank2r.bmp	500	1	BMVZ	500	1	blank2r.bmp	880	3	rächen	880	1	!	-1	1	!	-1	0	0	0	0	0	0
2024-05-02	12:49:55	12:59:48	592016	6.6.1	4_exp_EVA_AWA_CON	11	B	A	Rpleas_acq	Same	Rpleas	2pleas	acq_US_unple_nomask	acq45_nomask	4	23	400	0	300	300	0	0	303	50	0	0	loyal	schön	retten	spielen	helfen	lachen	lasch	schlecht	rächen	strafen	hindern	leiden	ehrlich	freundlich	fair	tolerant	schlau	treu	eitel	fanatisch	faul	tyrannisch	schroff	tot	1	blank2r.bmp	0	1	+	0	1	blank2r.bmp	500	1	BMVZ	500	1	blank2r.bmp	880	4	strafen	880	1	!	-1	1	!	-1	0	0	0	0	0	0
2024-05-02	12:49:55	12:59:50	594202	6.6.1	4_exp_EVA_AWA_CON	11	B	A	Rpleas_acq	Same	Rpleas	2pleas	acq_US_pleas_nomask	acq45_nomask	4	24	400	1	300	300	0	0	407	46	0	0	loyal	schön	retten	spielen	helfen	lachen	lasch	schlecht	rächen	strafen	hindern	leiden	ehrlich	freundlich	fair	tolerant	schlau	treu	eitel	fanatisch	faul	tyrannisch	schroff	tot	1	blank2r.bmp	0	1	+	0	1	blank2r.bmp	500	1	GKQX	500	1	blank2r.bmp	880	3	retten	880	1	!	1232	1	!	1308	0	0	0	0	0	0
2024-05-02	12:49:55	12:59:52	596552	6.6.1	4_exp_EVA_AWA_CON	11	B	A	Rpleas_acq	Same	Rpleas	2pleas	acq_US_pleas_nomask	acq45_nomask	4	25	400	0	300	300	0	0	577	50	1	0	loyal	schön	retten	spielen	helfen	lachen	lasch	schlecht	rächen	strafen	hindern	leiden	ehrlich	freundlich	fair	tolerant	schlau	treu	eitel	fanatisch	faul	tyrannisch	schroff	tot	1	blank2r.bmp	0	1	+	0	1	blank2r.bmp	500	1	GKQX	500	1	blank2r.bmp	880	4	spielen	880	1	!	1233	1	!	-1	0	0	0	0	0	0
2024-05-02	12:49:55	12:59:54	598824	6.6.1	4_exp_EVA_AWA_CON	11	B	A	Rpleas_acq	Same	Rpleas	2pleas	acq_US_pleas_nomask	acq45_nomask	4	26	400	0	300	300	0	0	497	50	1	0	loyal	schön	retten	spielen	helfen	lachen	lasch	schlecht	rächen	strafen	hindern	leiden	ehrlich	freundlich	fair	tolerant	schlau	treu	eitel	fanatisch	faul	tyrannisch	schroff	tot	1	blank2r.bmp	0	1	+	0	1	blank2r.bmp	500	1	GKQX	500	1	blank2r.bmp	880	6	lachen	880	1	!	1233	1	!	-1	0	0	0	0	0	0
2024-05-02	12:49:55	12:59:57	601089	6.6.1	4_exp_EVA_AWA_CON	11	B	A	Rpleas_acq	Same	Rpleas	2pleas	acq_US_unple_nomask	acq45_nomask	4	27	400	0	300	300	0	0	489	46	1	0	loyal	schön	retten	spielen	helfen	lachen	lasch	schlecht	rächen	strafen	hindern	leiden	ehrlich	freundlich	fair	tolerant	schlau	treu	eitel	fanatisch	faul	tyrannisch	schroff	tot	1	blank2r.bmp	0	1	+	0	1	blank2r.bmp	500	1	BMVZ	500	1	blank2r.bmp	880	1	lasch	880	1	!	1233	1	!	-1	0	0	0	0	0	0
2024-05-02	12:49:55	12:59:59	603306	6.6.1	4_exp_EVA_AWA_CON	11	B	A	Rpleas_acq	Same	Rpleas	2pleas	acq_US_pleas_nomask	acq45_nomask	4	28	400	1	300	300	0	0	434	50	1	0	loyal	schön	retten	spielen	helfen	lachen	lasch	schlecht	rächen	strafen	hindern	leiden	ehrlich	freundlich	fair	tolerant	schlau	treu	eitel	fanatisch	faul	tyrannisch	schroff	tot	1	blank2r.bmp	0	1	+	0	1	blank2r.bmp	500	1	GKQX	500	1	blank2r.bmp	880	1	loyal	880	1	!	1233	1	!	1336	0	0	0	0	0	0
2024-05-02	12:49:55	13:00:01	605568	6.6.1	4_exp_EVA_AWA_CON	11	B	A	Rpleas_acq	Same	Rpleas	2pleas	acq_US_unple_nomask	acq45_nomask	4	29	400	0	300	300	0	0	487	46	1	0	loyal	schön	retten	spielen	helfen	lachen	lasch	schlecht	rächen	strafen	hindern	leiden	ehrlich	freundlich	fair	tolerant	schlau	treu	eitel	fanatisch	faul	tyrannisch	schroff	tot	1	blank2r.bmp	0	1	+	0	1	blank2r.bmp	500	1	BMVZ	500	1	blank2r.bmp	880	3	rächen	880	1	!	1232	1	!	-1	0	0	0	0	0	0
2024-05-02	12:49:55	13:00:03	607706	6.6.1	4_exp_EVA_AWA_CON	11	B	A	Rpleas_acq	Same	Rpleas	2pleas	acq_US_unple_nomask	acq45_nomask	4	30	400	1	300	300	0	0	361	50	0	0	loyal	schön	retten	spielen	helfen	lachen	lasch	schlecht	rächen	strafen	hindern	leiden	ehrlich	freundlich	fair	tolerant	schlau	treu	eitel	fanatisch	faul	tyrannisch	schroff	tot	1	blank2r.bmp	0	1	+	0	1	blank2r.bmp	500	1	BMVZ	500	1	blank2r.bmp	880	4	strafen	880	1	!	1233	1	!	1263	0	0	0	0	0	0
2024-05-02	12:49:55	13:00:06	610536	6.6.1	4_exp_EVA_AWA_CON	11	B	A	Rpleas_acq	Same	Rpleas	2pleas	acq_US_unple_nomask	acq45_nomask	4	31	400	0	300	300	0	0	1053	46	1	0	loyal	schön	retten	spielen	helfen	lachen	lasch	schlecht	rächen	strafen	hindern	leiden	ehrlich	freundlich	fair	tolerant	schlau	treu	eitel	fanatisch	faul	tyrannisch	schroff	tot	1	blank2r.bmp	0	1	+	0	1	blank2r.bmp	500	1	BMVZ	500	1	blank2r.bmp	880	2	schlecht	880	1	!	1233	1	!	-1	0	0	0	0	0	0
2024-05-02	12:49:55	13:00:09	612952	6.6.1	4_exp_EVA_AWA_CON	11	B	A	Rpleas_acq	Same	Rpleas	2pleas	acq_US_pleas_nomask	acq45_nomask	4	32	400	0	300	300	0	0	637	50	1	0	loyal	schön	retten	spielen	helfen	lachen	lasch	schlecht	rächen	strafen	hindern	leiden	ehrlich	freundlich	fair	tolerant	schlau	treu	eitel	fanatisch	faul	tyrannisch	schroff	tot	1	blank2r.bmp	0	1	+	0	1	blank2r.bmp	500	1	GKQX	500	1	blank2r.bmp	880	3	retten	880	1	!	1232	1	!	-1	0	0	0	0	0	0
2024-05-02	12:49:55	13:00:11	615216	6.6.1	4_exp_EVA_AWA_CON	11	B	A	Rpleas_acq	Same	Rpleas	2pleas	acq_US_pleas_nomask	acq45_nomask	4	33	400	0	300	300	0	0	489	50	1	0	loyal	schön	retten	spielen	helfen	lachen	lasch	schlecht	rächen	strafen	hindern	leiden	ehrlich	freundlich	fair	tolerant	schlau	treu	eitel	fanatisch	faul	tyrannisch	schroff	tot	1	blank2r.bmp	0	1	+	0	1	blank2r.bmp	500	1	GKQX	500	1	blank2r.bmp	880	2	schön	880	1	!	1233	1	!	-1	0	0	0	0	0	0
2024-05-02	12:49:55	13:00:13	617470	6.6.1	4_exp_EVA_AWA_CON	11	B	A	Rpleas_acq	Same	Rpleas	2pleas	acq_US_unple_nomask	acq45_nomask	4	34	400	0	300	300	0	0	484	46	1	0	loyal	schön	retten	spielen	helfen	lachen	lasch	schlecht	rächen	strafen	hindern	leiden	ehrlich	freundlich	fair	tolerant	schlau	treu	eitel	fanatisch	faul	tyrannisch	schroff	tot	1	blank2r.bmp	0	1	+	0	1	blank2r.bmp	500	1	BMVZ	500	1	blank2r.bmp	880	5	hindern	880	1	!	1233	1	!	-1	0	0	0	0	0	0
2024-05-02	12:49:55	13:00:15	619776	6.6.1	4_exp_EVA_AWA_CON	11	B	A	Rpleas_acq	Same	Rpleas	2pleas	acq_US_pleas_nomask	acq45_nomask	4	35	400	0	300	300	0	0	526	50	1	0	loyal	schön	retten	spielen	helfen	lachen	lasch	schlecht	rächen	strafen	hindern	leiden	ehrlich	freundlich	fair	tolerant	schlau	treu	eitel	fanatisch	faul	tyrannisch	schroff	tot	1	blank2r.bmp	0	1	+	0	1	blank2r.bmp	500	1	GKQX	500	1	blank2r.bmp	880	5	helfen	880	1	!	1233	1	!	-1	0	0	0	0	0	0
2024-05-02	12:49:55	13:00:18	622104	6.6.1	4_exp_EVA_AWA_CON	11	B	A	Rpleas_acq	Same	Rpleas	2pleas	acq_US_unple_nomask	acq45_nomask	4	36	400	0	300	300	0	0	552	46	1	0	loyal	schön	retten	spielen	helfen	lachen	lasch	schlecht	rächen	strafen	hindern	leiden	ehrlich	freundlich	fair	tolerant	schlau	treu	eitel	fanatisch	faul	tyrannisch	schroff	tot	1	blank2r.bmp	0	1	+	0	1	blank2r.bmp	500	1	BMVZ	500	1	blank2r.bmp	880	6	leiden	880	1	!	1232	1	!	-1	0	0	0	0	0	0
2024-05-02	12:49:55	13:00:41	645048	6.6.1	4_exp_EVA_AWA_CON	11	B	A	Rpleas_acq	Same	Rpleas	2pleas	acq_US_pleas_nomask	acq45_nomask	5	1	400	0	300	300	0	0	522	50	1	0	loyal	schön	retten	spielen	helfen	lachen	lasch	schlecht	rächen	strafen	hindern	leiden	ehrlich	freundlich	fair	tolerant	schlau	treu	eitel	fanatisch	faul	tyrannisch	schroff	tot	1	blank2r.bmp	0	1	+	0	1	blank2r.bmp	500	1	GKQX	500	1	blank2r.bmp	880	6	lachen	880	1	!	1232	1	!	-1	0	0	0	0	0	0
2024-05-02	12:49:55	13:00:43	647226	6.6.1	4_exp_EVA_AWA_CON	11	B	A	Rpleas_acq	Same	Rpleas	2pleas	acq_US_pleas_nomask	acq45_nomask	5	2	400	1	300	300	0	0	395	50	1	0	loyal	schön	retten	spielen	helfen	lachen	lasch	schlecht	rächen	strafen	hindern	leiden	ehrlich	freundlich	fair	tolerant	schlau	treu	eitel	fanatisch	faul	tyrannisch	schroff	tot	1	blank2r.bmp	0	1	+	0	1	blank2r.bmp	500	1	GKQX	500	1	blank2r.bmp	880	4	spielen	880	1	!	1232	1	!	1297	0	0	0	0	0	0
2024-05-02	12:49:55	13:00:45	649681	6.6.1	4_exp_EVA_AWA_CON	11	B	A	Rpleas_acq	Same	Rpleas	2pleas	acq_US_unple_nomask	acq45_nomask	5	3	400	0	300	300	0	0	681	46	1	0	loyal	schön	retten	spielen	helfen	lachen	lasch	schlecht	rächen	strafen	hindern	leiden	ehrlich	freundlich	fair	tolerant	schlau	treu	eitel	fanatisch	faul	tyrannisch	schroff	tot	1	blank2r.bmp	0	1	+	0	1	blank2r.bmp	500	1	BMVZ	500	1	blank2r.bmp	880	3	rächen	880	1	!	1232	1	!	-1	0	0	0	0	0	0
2024-05-02	12:49:55	13:00:48	652113	6.6.1	4_exp_EVA_AWA_CON	11	B	A	Rpleas_acq	Same	Rpleas	2pleas	acq_US_unple_nomask	acq45_nomask	5	4	400	0	300	300	0	0	650	46	1	0	loyal	schön	retten	spielen	helfen	lachen	lasch	schlecht	rächen	strafen	hindern	leiden	ehrlich	freundlich	fair	tolerant	schlau	treu	eitel	fanatisch	faul	tyrannisch	schroff	tot	1	blank2r.bmp	0	1	+	0	1	blank2r.bmp	500	1	BMVZ	500	1	blank2r.bmp	880	6	leiden	880	1	!	1233	1	!	-1	0	0	0	0	0	0
2024-05-02	12:49:55	13:00:50	654392	6.6.1	4_exp_EVA_AWA_CON	11	B	A	Rpleas_acq	Same	Rpleas	2pleas	acq_US_unple_nomask	acq45_nomask	5	5	400	0	300	300	0	0	499	46	1	0	loyal	schön	retten	spielen	helfen	lachen	lasch	schlecht	rächen	strafen	hindern	leiden	ehrlich	freundlich	fair	tolerant	schlau	treu	eitel	fanatisch	faul	tyrannisch	schroff	tot	1	blank2r.bmp	0	1	+	0	1	blank2r.bmp	500	1	BMVZ	500	1	blank2r.bmp	880	4	strafen	880	1	!	1232	1	!	-1	0	0	0	0	0	0
2024-05-02	12:49:55	13:00:52	656488	6.6.1	4_exp_EVA_AWA_CON	11	B	A	Rpleas_acq	Same	Rpleas	2pleas	acq_US_unple_nomask	acq45_nomask	5	6	400	0	300	300	0	0	323	46	1	0	loyal	schön	retten	spielen	helfen	lachen	lasch	schlecht	rächen	strafen	hindern	leiden	ehrlich	freundlich	fair	tolerant	schlau	treu	eitel	fanatisch	faul	tyrannisch	schroff	tot	1	blank2r.bmp	0	1	+	0	1	blank2r.bmp	500	1	BMVZ	500	1	blank2r.bmp	880	2	schlecht	880	1	!	-1	1	!	-1	0	0	0	0	0	0
2024-05-02	12:49:55	13:00:54	658752	6.6.1	4_exp_EVA_AWA_CON	11	B	A	Rpleas_acq	Same	Rpleas	2pleas	acq_US_unple_nomask	acq45_nomask	5	7	400	0	300	300	0	0	486	46	1	0	loyal	schön	retten	spielen	helfen	lachen	lasch	schlecht	rächen	strafen	hindern	leiden	ehrlich	freundlich	fair	tolerant	schlau	treu	eitel	fanatisch	faul	tyrannisch	schroff	tot	1	blank2r.bmp	0	1	+	0	1	blank2r.bmp	500	1	BMVZ	500	1	blank2r.bmp	880	5	hindern	880	1	!	1232	1	!	-1	0	0	0	0	0	0
2024-05-02	12:49:55	13:00:57	660978	6.6.1	4_exp_EVA_AWA_CON	11	B	A	Rpleas_acq	Same	Rpleas	2pleas	acq_US_pleas_nomask	acq45_nomask	5	8	400	1	300	300	0	0	449	50	1	0	loyal	schön	retten	spielen	helfen	lachen	lasch	schlecht	rächen	strafen	hindern	leiden	ehrlich	freundlich	fair	tolerant	schlau	treu	eitel	fanatisch	faul	tyrannisch	schroff	tot	1	blank2r.bmp	0	1	+	0	1	blank2r.bmp	500	1	GKQX	500	1	blank2r.bmp	880	3	retten	880	1	!	1232	1	!	1350	0	0	0	0	0	0
2024-05-02	12:49:55	13:00:59	663264	6.6.1	4_exp_EVA_AWA_CON	11	B	A	Rpleas_acq	Same	Rpleas	2pleas	acq_US_pleas_nomask	acq45_nomask	5	9	400	0	300	300	0	0	505	50	1	0	loyal	schön	retten	spielen	helfen	lachen	lasch	schlecht	rächen	strafen	hindern	leiden	ehrlich	freundlich	fair	tolerant	schlau	treu	eitel	fanatisch	faul	tyrannisch	schroff	tot	1	blank2r.bmp	0	1	+	0	1	blank2r.bmp	500	1	GKQX	500	1	blank2r.bmp	880	2	schön	880	1	!	1233	1	!	-1	0	0	0	0	0	0
2024-05-02	12:49:55	13:01:01	665518	6.6.1	4_exp_EVA_AWA_CON	11	B	A	Rpleas_acq	Same	Rpleas	2pleas	acq_US_unple_nomask	acq45_nomask	5	10	400	0	300	300	0	0	479	46	1	0	loyal	schön	retten	spielen	helfen	lachen	lasch	schlecht	rächen	strafen	hindern	leiden	ehrlich	freundlich	fair	tolerant	schlau	treu	eitel	fanatisch	faul	tyrannisch	schroff	tot	1	blank2r.bmp	0	1	+	0	1	blank2r.bmp	500	1	BMVZ	500	1	blank2r.bmp	880	1	lasch	880	1	!	1232	1	!	-1	0	0	0	0	0	0
2024-05-02	12:49:55	13:01:04	667944	6.6.1	4_exp_EVA_AWA_CON	11	B	A	Rpleas_acq	Same	Rpleas	2pleas	acq_US_unple_nomask	acq45_nomask	5	11	400	0	300	300	0	0	653	46	1	0	loyal	schön	retten	spielen	helfen	lachen	lasch	schlecht	rächen	strafen	hindern	leiden	ehrlich	freundlich	fair	tolerant	schlau	treu	eitel	fanatisch	faul	tyrannisch	schroff	tot	1	blank2r.bmp	0	1	+	0	1	blank2r.bmp	500	1	BMVZ	500	1	blank2r.bmp	880	6	leiden	880	1	!	1232	1	!	-1	0	0	0	0	0	0
2024-05-02	12:49:55	13:01:06	670265	6.6.1	4_exp_EVA_AWA_CON	11	B	A	Rpleas_acq	Same	Rpleas	2pleas	acq_US_unple_nomask	acq45_nomask	5	12	400	0	300	300	0	0	541	46	1	0	loyal	schön	retten	spielen	helfen	lachen	lasch	schlecht	rächen	strafen	hindern	leiden	ehrlich	freundlich	fair	tolerant	schlau	treu	eitel	fanatisch	faul	tyrannisch	schroff	tot	1	blank2r.bmp	0	1	+	0	1	blank2r.bmp	500	1	BMVZ	500	1	blank2r.bmp	880	4	strafen	880	1	!	1233	1	!	-1	0	0	0	0	0	0
2024-05-02	12:49:55	13:01:08	672536	6.6.1	4_exp_EVA_AWA_CON	11	B	A	Rpleas_acq	Same	Rpleas	2pleas	acq_US_pleas_nomask	acq45_nomask	5	13	400	0	300	300	0	0	492	50	1	0	loyal	schön	retten	spielen	helfen	lachen	lasch	schlecht	rächen	strafen	hindern	leiden	ehrlich	freundlich	fair	tolerant	schlau	treu	eitel	fanatisch	faul	tyrannisch	schroff	tot	1	blank2r.bmp	0	1	+	0	1	blank2r.bmp	500	1	GKQX	500	1	blank2r.bmp	880	1	loyal	880	1	!	1232	1	!	-1	0	0	0	0	0	0
2024-05-02	12:49:55	13:01:10	674817	6.6.1	4_exp_EVA_AWA_CON	11	B	A	Rpleas_acq	Same	Rpleas	2pleas	acq_US_pleas_nomask	acq45_nomask	5	14	400	0	300	300	0	0	499	50	1	0	loyal	schön	retten	spielen	helfen	lachen	lasch	schlecht	rächen	strafen	hindern	leiden	ehrlich	freundlich	fair	tolerant	schlau	treu	eitel	fanatisch	faul	tyrannisch	schroff	tot	1	blank2r.bmp	0	1	+	0	1	blank2r.bmp	500	1	GKQX	500	1	blank2r.bmp	880	5	helfen	880	1	!	1233	1	!	-1	0	0	0	0	0	0
2024-05-02	12:49:55	13:01:13	677070	6.6.1	4_exp_EVA_AWA_CON	11	B	A	Rpleas_acq	Same	Rpleas	2pleas	acq_US_unple_nomask	acq45_nomask	5	15	400	0	300	300	0	0	474	46	1	0	loyal	schön	retten	spielen	helfen	lachen	lasch	schlecht	rächen	strafen	hindern	leiden	ehrlich	freundlich	fair	tolerant	schlau	treu	eitel	fanatisch	faul	tyrannisch	schroff	tot	1	blank2r.bmp	0	1	+	0	1	blank2r.bmp	500	1	BMVZ	500	1	blank2r.bmp	880	2	schlecht	880	1	!	1233	1	!	-1	0	0	0	0	0	0
2024-05-02	12:49:55	13:01:15	679632	6.6.1	4_exp_EVA_AWA_CON	11	B	A	Rpleas_acq	Same	Rpleas	2pleas	acq_US_pleas_nomask	acq45_nomask	5	16	400	0	300	300	0	0	782	50	1	0	loyal	schön	retten	spielen	helfen	lachen	lasch	schlecht	rächen	strafen	hindern	leiden	ehrlich	freundlich	fair	tolerant	schlau	treu	eitel	fanatisch	faul	tyrannisch	schroff	tot	1	blank2r.bmp	0	1	+	0	1	blank2r.bmp	500	1	GKQX	500	1	blank2r.bmp	880	5	helfen	880	1	!	1232	1	!	-1	0	0	0	0	0	0
2024-05-02	12:49:55	13:01:17	681802	6.6.1	4_exp_EVA_AWA_CON	11	B	A	Rpleas_acq	Same	Rpleas	2pleas	acq_US_pleas_nomask	acq45_nomask	5	17	400	1	300	300	0	0	390	50	1	0	loyal	schön	retten	spielen	helfen	lachen	lasch	schlecht	rächen	strafen	hindern	leiden	ehrlich	freundlich	fair	tolerant	schlau	treu	eitel	fanatisch	faul	tyrannisch	schroff	tot	1	blank2r.bmp	0	1	+	0	1	blank2r.bmp	500	1	GKQX	500	1	blank2r.bmp	880	4	spielen	880	1	!	1232	1	!	1291	0	0	0	0	0	0
2024-05-02	12:49:55	13:01:20	684104	6.6.1	4_exp_EVA_AWA_CON	11	B	A	Rpleas_acq	Same	Rpleas	2pleas	acq_US_pleas_nomask	acq45_nomask	5	18	400	0	300	300	0	0	521	50	1	0	loyal	schön	retten	spielen	helfen	lachen	lasch	schlecht	rächen	strafen	hindern	leiden	ehrlich	freundlich	fair	tolerant	schlau	treu	eitel	fanatisch	faul	tyrannisch	schroff	tot	1	blank2r.bmp	0	1	+	0	1	blank2r.bmp	500	1	GKQX	500	1	blank2r.bmp	880	1	loyal	880	1	!	1232	1	!	-1	0	0	0	0	0	0
2024-05-02	12:49:55	13:01:22	686330	6.6.1	4_exp_EVA_AWA_CON	11	B	A	Rpleas_acq	Same	Rpleas	2pleas	acq_US_unple_nomask	acq45_nomask	5	19	400	1	300	300	0	0	444	46	1	0	loyal	schön	retten	spielen	helfen	lachen	lasch	schlecht	rächen	strafen	hindern	leiden	ehrlich	freundlich	fair	tolerant	schlau	treu	eitel	fanatisch	faul	tyrannisch	schroff	tot	1	blank2r.bmp	0	1	+	0	1	blank2r.bmp	500	1	BMVZ	500	1	blank2r.bmp	880	1	lasch	880	1	!	1233	1	!	1345	0	0	0	0	0	0
2024-05-02	12:49:55	13:01:24	688672	6.6.1	4_exp_EVA_AWA_CON	11	B	A	Rpleas_acq	Same	Rpleas	2pleas	acq_US_unple_nomask	acq45_nomask	5	20	400	0	300	300	0	0	567	50	0	0	loyal	schön	retten	spielen	helfen	lachen	lasch	schlecht	rächen	strafen	hindern	leiden	ehrlich	freundlich	fair	tolerant	schlau	treu	eitel	fanatisch	faul	tyrannisch	schroff	tot	1	blank2r.bmp	0	1	+	0	1	blank2r.bmp	500	1	BMVZ	500	1	blank2r.bmp	880	5	hindern	880	1	!	1232	1	!	-1	0	0	0	0	0	0
2024-05-02	12:49:55	13:01:26	690919	6.6.1	4_exp_EVA_AWA_CON	11	B	A	Rpleas_acq	Same	Rpleas	2pleas	acq_US_unple_nomask	acq45_nomask	5	21	400	0	300	300	0	0	474	46	1	0	loyal	schön	retten	spielen	helfen	lachen	lasch	schlecht	rächen	strafen	hindern	leiden	ehrlich	freundlich	fair	tolerant	schlau	treu	eitel	fanatisch	faul	tyrannisch	schroff	tot	1	blank2r.bmp	0	1	+	0	1	blank2r.bmp	500	1	BMVZ	500	1	blank2r.bmp	880	3	rächen	880	1	!	1233	1	!	-1	0	0	0	0	0	0
2024-05-02	12:49:55	13:01:29	693200	6.6.1	4_exp_EVA_AWA_CON	11	B	A	Rpleas_acq	Same	Rpleas	2pleas	acq_US_pleas_nomask	acq45_nomask	5	22	400	0	300	300	0	0	502	50	1	0	loyal	schön	retten	spielen	helfen	lachen	lasch	schlecht	rächen	strafen	hindern	leiden	ehrlich	freundlich	fair	tolerant	schlau	treu	eitel	fanatisch	faul	tyrannisch	schroff	tot	1	blank2r.bmp	0	1	+	0	1	blank2r.bmp	500	1	GKQX	500	1	blank2r.bmp	880	2	schön	880	1	!	1233	1	!	-1	0	0	0	0	0	0
2024-05-02	12:49:55	13:01:31	695394	6.6.1	4_exp_EVA_AWA_CON	11	B	A	Rpleas_acq	Same	Rpleas	2pleas	acq_US_pleas_nomask	acq45_nomask	5	23	400	1	300	300	0	0	413	46	0	0	loyal	schön	retten	spielen	helfen	lachen	lasch	schlecht	rächen	strafen	hindern	leiden	ehrlich	freundlich	fair	tolerant	schlau	treu	eitel	fanatisch	faul	tyrannisch	schroff	tot	1	blank2r.bmp	0	1	+	0	1	blank2r.bmp	500	1	GKQX	500	1	blank2r.bmp	880	6	lachen	880	1	!	1232	1	!	1314	0	0	0	0	0	0
2024-05-02	12:49:55	13:01:33	697602	6.6.1	4_exp_EVA_AWA_CON	11	B	A	Rpleas_acq	Same	Rpleas	2pleas	acq_US_unple_nomask	acq45_nomask	5	24	400	1	300	300	0	0	428	50	0	0	loyal	schön	retten	spielen	helfen	lachen	lasch	schlecht	rächen	strafen	hindern	leiden	ehrlich	freundlich	fair	tolerant	schlau	treu	eitel	fanatisch	faul	tyrannisch	schroff	tot	1	blank2r.bmp	0	1	+	0	1	blank2r.bmp	500	1	BMVZ	500	1	blank2r.bmp	880	2	schlecht	880	1	!	1232	1	!	1330	0	0	0	0	0	0
2024-05-02	12:49:55	13:01:36	699976	6.6.1	4_exp_EVA_AWA_CON	11	B	A	Rpleas_acq	Same	Rpleas	2pleas	acq_US_unple_nomask	acq45_nomask	5	25	400	0	300	300	0	0	594	46	1	0	loyal	schön	retten	spielen	helfen	lachen	lasch	schlecht	rächen	strafen	hindern	leiden	ehrlich	freundlich	fair	tolerant	schlau	treu	eitel	fanatisch	faul	tyrannisch	schroff	tot	1	blank2r.bmp	0	1	+	0	1	blank2r.bmp	500	1	BMVZ	500	1	blank2r.bmp	880	6	leiden	880	1	!	1232	1	!	-1	0	0	0	0	0	0
2024-05-02	12:49:55	13:01:38	702240	6.6.1	4_exp_EVA_AWA_CON	11	B	A	Rpleas_acq	Same	Rpleas	2pleas	acq_US_unple_nomask	acq45_nomask	5	26	400	0	300	300	0	0	486	46	1	0	loyal	schön	retten	spielen	helfen	lachen	lasch	schlecht	rächen	strafen	hindern	leiden	ehrlich	freundlich	fair	tolerant	schlau	treu	eitel	fanatisch	faul	tyrannisch	schroff	tot	1	blank2r.bmp	0	1	+	0	1	blank2r.bmp	500	1	BMVZ	500	1	blank2r.bmp	880	3	rächen	880	1	!	1232	1	!	-1	0	0	0	0	0	0
2024-05-02	12:49:55	13:01:40	704304	6.6.1	4_exp_EVA_AWA_CON	11	B	A	Rpleas_acq	Same	Rpleas	2pleas	acq_US_unple_nomask	acq45_nomask	5	27	400	0	300	300	0	0	288	46	1	0	loyal	schön	retten	spielen	helfen	lachen	lasch	schlecht	rächen	strafen	hindern	leiden	ehrlich	freundlich	fair	tolerant	schlau	treu	eitel	fanatisch	faul	tyrannisch	schroff	tot	1	blank2r.bmp	0	1	+	0	1	blank2r.bmp	500	1	BMVZ	500	1	blank2r.bmp	880	5	hindern	880	1	!	-1	1	!	-1	0	0	0	0	0	0
2024-05-02	12:49:55	13:01:42	706530	6.6.1	4_exp_EVA_AWA_CON	11	B	A	Rpleas_acq	Same	Rpleas	2pleas	acq_US_pleas_nomask	acq45_nomask	5	28	400	1	300	300	0	0	452	50	1	0	loyal	schön	retten	spielen	helfen	lachen	lasch	schlecht	rächen	strafen	hindern	leiden	ehrlich	freundlich	fair	tolerant	schlau	treu	eitel	fanatisch	faul	tyrannisch	schroff	tot	1	blank2r.bmp	0	1	+	0	1	blank2r.bmp	500	1	GKQX	500	1	blank2r.bmp	880	3	retten	880	1	!	1233	1	!	1353	0	0	0	0	0	0
2024-05-02	12:49:55	13:01:44	708800	6.6.1	4_exp_EVA_AWA_CON	11	B	A	Rpleas_acq	Same	Rpleas	2pleas	acq_US_pleas_nomask	acq45_nomask	5	29	400	0	300	300	0	0	492	50	1	0	loyal	schön	retten	spielen	helfen	lachen	lasch	schlecht	rächen	strafen	hindern	leiden	ehrlich	freundlich	fair	tolerant	schlau	treu	eitel	fanatisch	faul	tyrannisch	schroff	tot	1	blank2r.bmp	0	1	+	0	1	blank2r.bmp	500	1	GKQX	500	1	blank2r.bmp	880	2	schön	880	1	!	1233	1	!	-1	0	0	0	0	0	0
2024-05-02	12:49:55	13:01:47	711144	6.6.1	4_exp_EVA_AWA_CON	11	B	A	Rpleas_acq	Same	Rpleas	2pleas	acq_US_pleas_nomask	acq45_nomask	5	30	400	0	300	300	0	0	565	50	1	0	loyal	schön	retten	spielen	helfen	lachen	lasch	schlecht	rächen	strafen	hindern	leiden	ehrlich	freundlich	fair	tolerant	schlau	treu	eitel	fanatisch	faul	tyrannisch	schroff	tot	1	blank2r.bmp	0	1	+	0	1	blank2r.bmp	500	1	GKQX	500	1	blank2r.bmp	880	4	spielen	880	1	!	1232	1	!	-1	0	0	0	0	0	0
2024-05-02	12:49:55	13:01:49	713354	6.6.1	4_exp_EVA_AWA_CON	11	B	A	Rpleas_acq	Same	Rpleas	2pleas	acq_US_pleas_nomask	acq45_nomask	5	31	400	1	300	300	0	0	431	50	1	0	loyal	schön	retten	spielen	helfen	lachen	lasch	schlecht	rächen	strafen	hindern	leiden	ehrlich	freundlich	fair	tolerant	schlau	treu	eitel	fanatisch	faul	tyrannisch	schroff	tot	1	blank2r.bmp	0	1	+	0	1	blank2r.bmp	500	1	GKQX	500	1	blank2r.bmp	880	6	lachen	880	1	!	1232	1	!	1332	0	0	0	0	0	0
2024-05-02	12:49:55	13:01:51	715632	6.6.1	4_exp_EVA_AWA_CON	11	B	A	Rpleas_acq	Same	Rpleas	2pleas	acq_US_pleas_nomask	acq45_nomask	5	32	400	0	300	300	0	0	500	50	1	0	loyal	schön	retten	spielen	helfen	lachen	lasch	schlecht	rächen	strafen	hindern	leiden	ehrlich	freundlich	fair	tolerant	schlau	treu	eitel	fanatisch	faul	tyrannisch	schroff	tot	1	blank2r.bmp	0	1	+	0	1	blank2r.bmp	500	1	GKQX	500	1	blank2r.bmp	880	3	retten	880	1	!	1232	1	!	-1	0	0	0	0	0	0
2024-05-02	12:49:55	13:01:53	717920	6.6.1	4_exp_EVA_AWA_CON	11	B	A	Rpleas_acq	Same	Rpleas	2pleas	acq_US_pleas_nomask	acq45_nomask	5	33	400	0	300	300	0	0	506	50	1	0	loyal	schön	retten	spielen	helfen	lachen	lasch	schlecht	rächen	strafen	hindern	leiden	ehrlich	freundlich	fair	tolerant	schlau	treu	eitel	fanatisch	faul	tyrannisch	schroff	tot	1	blank2r.bmp	0	1	+	0	1	blank2r.bmp	500	1	GKQX	500	1	blank2r.bmp	880	5	helfen	880	1	!	1233	1	!	-1	0	0	0	0	0	0
2024-05-02	12:49:55	13:01:56	720024	6.6.1	4_exp_EVA_AWA_CON	11	B	A	Rpleas_acq	Same	Rpleas	2pleas	acq_US_unple_nomask	acq45_nomask	5	34	400	0	300	300	0	0	328	50	0	0	loyal	schön	retten	spielen	helfen	lachen	lasch	schlecht	rächen	strafen	hindern	leiden	ehrlich	freundlich	fair	tolerant	schlau	treu	eitel	fanatisch	faul	tyrannisch	schroff	tot	1	blank2r.bmp	0	1	+	0	1	blank2r.bmp	500	1	BMVZ	500	1	blank2r.bmp	880	4	strafen	880	1	!	-1	1	!	-1	0	0	0	0	0	0
2024-05-02	12:49:55	13:01:58	722270	6.6.1	4_exp_EVA_AWA_CON	11	B	A	Rpleas_acq	Same	Rpleas	2pleas	acq_US_unple_nomask	acq45_nomask	5	35	400	0	300	300	0	0	474	46	1	0	loyal	schön	retten	spielen	helfen	lachen	lasch	schlecht	rächen	strafen	hindern	leiden	ehrlich	freundlich	fair	tolerant	schlau	treu	eitel	fanatisch	faul	tyrannisch	schroff	tot	1	blank2r.bmp	0	1	+	0	1	blank2r.bmp	500	1	BMVZ	500	1	blank2r.bmp	880	1	lasch	880	1	!	1232	1	!	-1	0	0	0	0	0	0
2024-05-02	12:49:55	13:02:00	724576	6.6.1	4_exp_EVA_AWA_CON	11	B	A	Rpleas_acq	Same	Rpleas	2pleas	acq_US_pleas_nomask	acq45_nomask	5	36	400	0	300	300	0	0	527	50	1	0	loyal	schön	retten	spielen	helfen	lachen	lasch	schlecht	rächen	strafen	hindern	leiden	ehrlich	freundlich	fair	tolerant	schlau	treu	eitel	fanatisch	faul	tyrannisch	schroff	tot	1	blank2r.bmp	0	1	+	0	1	blank2r.bmp	500	1	GKQX	500	1	blank2r.bmp	880	1	loyal	880	1	!	1232	1	!	-1	0	0	0	0	0	0
2024-05-02	12:49:55	13:02:21	745412	6.6.1	4_exp_EVA_AWA_CON	11	B	A	Rpleas_acq	Same	Rpleas	2pleas	EvalRating_firsttwo	EvalRating_firsttwo	6	1	0	0	300	300	0	0	4733	line	0	-64,3229166666666571928pct	loyal	schön	retten	spielen	helfen	lachen	lasch	schlecht	rächen	strafen	hindern	leiden	ehrlich	freundlich	fair	tolerant	schlau	treu	eitel	fanatisch	faul	tyrannisch	schroff	tot	1		-8	1	Wie angenehm oder unangenehm finden Sie die  Buchstabenkette ZGVK?	-8	1		-8	1		-8	1		-8	1	Unangenehm	-8	1	Angenehm	-8	0	0	0	0	0	0	0	0	0
2024-05-02	12:49:55	13:02:28	752621	6.6.1	4_exp_EVA_AWA_CON	11	B	A	Rpleas_acq	Same	Rpleas	2pleas	EvalRating_lastfour	EvalRating_lastfour	7	1	0	0	300	300	0	0	4828	line	0	-56,640625pct	loyal	schön	retten	spielen	helfen	lachen	lasch	schlecht	rächen	strafen	hindern	leiden	ehrlich	freundlich	fair	tolerant	schlau	treu	eitel	fanatisch	faul	tyrannisch	schroff	tot	1		-7	2	Wie angenehm oder unangenehm finden Sie die  Buchstabenkette GKQX?	-7	1		-7	1		-7	1		-7	1	Unangenehm	-7	1	Angenehm	-7	0	0	0	0	0	0	0	0	0
2024-05-02	12:49:55	13:02:31	754990	6.6.1	4_exp_EVA_AWA_CON	11	B	A	Rpleas_acq	Same	Rpleas	2pleas	blank_screen	EvalRating_lastfour	7	3	0	0	300	300	0	0	0	0	0	-56,640625pct	loyal	schön	retten	spielen	helfen	lachen	lasch	schlecht	rächen	strafen	hindern	leiden	ehrlich	freundlich	fair	tolerant	schlau	treu	eitel	fanatisch	faul	tyrannisch	schroff	tot	1		-8	0	0	0	0	0	0	0	0	0	0	0	0	0	0	0	0	0	0	0	0	0	0	0	0	0	0	0
2024-05-02	12:49:55	13:02:33	757829	6.6.1	4_exp_EVA_AWA_CON	11	B	A	Rpleas_acq	Same	Rpleas	2pleas	EvalRating_lastfour	EvalRating_lastfour	7	4	0	0	300	300	0	0	2249	line	0	-38,1510416666666642982pct	loyal	schön	retten	spielen	helfen	lachen	lasch	schlecht	rächen	strafen	hindern	leiden	ehrlich	freundlich	fair	tolerant	schlau	treu	eitel	fanatisch	faul	tyrannisch	schroff	tot	1		-8	1	Wie angenehm oder unangenehm finden Sie die  Buchstabenkette BMVZ?	-8	1		-8	1		-8	1		-8	1	Unangenehm	-8	1	Angenehm	-8	0	0	0	0	0	0	0	0	0
2024-05-02	12:49:55	13:02:36	760194	6.6.1	4_exp_EVA_AWA_CON	11	B	A	Rpleas_acq	Same	Rpleas	2pleas	blank_screen	EvalRating_lastfour	7	6	0	0	300	300	0	0	0	0	0	-38,1510416666666642982pct	loyal	schön	retten	spielen	helfen	lachen	lasch	schlecht	rächen	strafen	hindern	leiden	ehrlich	freundlich	fair	tolerant	schlau	treu	eitel	fanatisch	faul	tyrannisch	schroff	tot	1		-8	0	0	0	0	0	0	0	0	0	0	0	0	0	0	0	0	0	0	0	0	0	0	0	0	0	0	0
2024-05-02	12:49:55	13:02:41	765381	6.6.1	4_exp_EVA_AWA_CON	11	B	A	Rpleas_acq	Same	Rpleas	2pleas	EvalRating_lastfour	EvalRating_lastfour	7	7	0	0	300	300	0	0	4598	line	0	-41,6666666666666642982pct	loyal	schön	retten	spielen	helfen	lachen	lasch	schlecht	rächen	strafen	hindern	leiden	ehrlich	freundlich	fair	tolerant	schlau	treu	eitel	fanatisch	faul	tyrannisch	schroff	tot	1		-8	3	Wie angenehm oder unangenehm finden Sie die  Buchstabenkette XBQM?	-8	1		-8	1		-8	1		-8	1	Unangenehm	-8	1	Angenehm	-8	0	0	0	0	0	0	0	0	0
2024-05-02	12:49:55	13:03:44	828637	6.6.1	4_exp_EVA_AWA_CON	11	B	A	Rpleas_acq	Same	Rpleas	2pleas	conawa_CS2_US2	conawa1_nomask	8	1	0	0	300	300	0	0	20646	fair	1	-41,6666666666666642982pct	loyal	schön	retten	spielen	helfen	lachen	lasch	schlecht	rächen	strafen	hindern	leiden	ehrlich	freundlich	fair	tolerant	schlau	treu	eitel	fanatisch	faul	tyrannisch	schroff	tot	0	0	0	0	0	0	0	0	0	0	0	0	0	0	0	0	0	0	0	0	0	0	0	0	0	0	0	0	0	0
2024-05-02	12:49:55	13:03:44	828638	6.6.1	4_exp_EVA_AWA_CON	11	B	A	Rpleas_acq	Same	Rpleas	2pleas	conawa_CS2_US2_confidence	conawa1_nomask	8	1	0	0	300	300	0	0	20646	probably	1	-41,6666666666666642982pct	loyal	schön	retten	spielen	helfen	lachen	lasch	schlecht	rächen	strafen	hindern	leiden	ehrlich	freundlich	fair	tolerant	schlau	treu	eitel	fanatisch	faul	tyrannisch	schroff	tot	0	0	0	0	0	0	0	0	0	0	0	0	0	0	0	0	0	0	0	0	0	0	0	0	0	0	0	0	0	0
2024-05-02	12:49:55	13:03:52	836202	6.6.1	4_exp_EVA_AWA_CON	11	B	A	Rpleas_acq	Same	Rpleas	2pleas	conawa_CS1_US5	conawa1_nomask	8	2	0	0	300	300	0	0	6954	hindern	1	-41,6666666666666642982pct	loyal	schön	retten	spielen	helfen	lachen	lasch	schlecht	rächen	strafen	hindern	leiden	ehrlich	freundlich	fair	tolerant	schlau	treu	eitel	fanatisch	faul	tyrannisch	schroff	tot	0	0	0	0	0	0	0	0	0	0	0	0	0	0	0	0	0	0	0	0	0	0	0	0	0	0	0	0	0	0
2024-05-02	12:49:55	13:03:52	836203	6.6.1	4_exp_EVA_AWA_CON	11	B	A	Rpleas_acq	Same	Rpleas	2pleas	conawa_CS1_US5_confidence	conawa1_nomask	8	2	0	0	300	300	0	0	6954	guess	1	-41,6666666666666642982pct	loyal	schön	retten	spielen	helfen	lachen	lasch	schlecht	rächen	strafen	hindern	leiden	ehrlich	freundlich	fair	tolerant	schlau	treu	eitel	fanatisch	faul	tyrannisch	schroff	tot	0	0	0	0	0	0	0	0	0	0	0	0	0	0	0	0	0	0	0	0	0	0	0	0	0	0	0	0	0	0
2024-05-02	12:49:55	13:04:00	844897	6.6.1	4_exp_EVA_AWA_CON	11	B	A	Rpleas_acq	Same	Rpleas	2pleas	conawa_CS2_US6	conawa1_nomask	8	3	0	0	300	300	0	0	8087	lachen	1	-41,6666666666666642982pct	loyal	schön	retten	spielen	helfen	lachen	lasch	schlecht	rächen	strafen	hindern	leiden	ehrlich	freundlich	fair	tolerant	schlau	treu	eitel	fanatisch	faul	tyrannisch	schroff	tot	0	0	0	0	0	0	0	0	0	0	0	0	0	0	0	0	0	0	0	0	0	0	0	0	0	0	0	0	0	0
2024-05-02	12:49:55	13:04:00	844899	6.6.1	4_exp_EVA_AWA_CON	11	B	A	Rpleas_acq	Same	Rpleas	2pleas	conawa_CS2_US6_confidence	conawa1_nomask	8	3	0	0	300	300	0	0	8087	guess	1	-41,6666666666666642982pct	loyal	schön	retten	spielen	helfen	lachen	lasch	schlecht	rächen	strafen	hindern	leiden	ehrlich	freundlich	fair	tolerant	schlau	treu	eitel	fanatisch	faul	tyrannisch	schroff	tot	0	0	0	0	0	0	0	0	0	0	0	0	0	0	0	0	0	0	0	0	0	0	0	0	0	0	0	0	0	0
2024-05-02	12:49:55	13:04:26	870735	6.6.1	4_exp_EVA_AWA_CON	11	B	A	Rpleas_acq	Same	Rpleas	2pleas	conawa_CS1_US6	conawa1_nomask	8	4	0	0	300	300	0	0	25222	leiden	1	-41,6666666666666642982pct	loyal	schön	retten	spielen	helfen	lachen	lasch	schlecht	rächen	strafen	hindern	leiden	ehrlich	freundlich	fair	tolerant	schlau	treu	eitel	fanatisch	faul	tyrannisch	schroff	tot	0	0	0	0	0	0	0	0	0	0	0	0	0	0	0	0	0	0	0	0	0	0	0	0	0	0	0	0	0	0
2024-05-02	12:49:55	13:04:26	870736	6.6.1	4_exp_EVA_AWA_CON	11	B	A	Rpleas_acq	Same	Rpleas	2pleas	conawa_CS1_US6_confidence	conawa1_nomask	8	4	0	0	300	300	0	0	25222	probably	1	-41,6666666666666642982pct	loyal	schön	retten	spielen	helfen	lachen	lasch	schlecht	rächen	strafen	hindern	leiden	ehrlich	freundlich	fair	tolerant	schlau	treu	eitel	fanatisch	faul	tyrannisch	schroff	tot	0	0	0	0	0	0	0	0	0	0	0	0	0	0	0	0	0	0	0	0	0	0	0	0	0	0	0	0	0	0
2024-05-02	12:49:55	13:04:35	879089	6.6.1	4_exp_EVA_AWA_CON	11	B	A	Rpleas_acq	Same	Rpleas	2pleas	conawa_CS2_US3	conawa1_nomask	8	5	0	0	300	300	0	0	7736	rächen	1	-41,6666666666666642982pct	loyal	schön	retten	spielen	helfen	lachen	lasch	schlecht	rächen	strafen	hindern	leiden	ehrlich	freundlich	fair	tolerant	schlau	treu	eitel	fanatisch	faul	tyrannisch	schroff	tot	0	0	0	0	0	0	0	0	0	0	0	0	0	0	0	0	0	0	0	0	0	0	0	0	0	0	0	0	0	0
2024-05-02	12:49:55	13:04:35	879091	6.6.1	4_exp_EVA_AWA_CON	11	B	A	Rpleas_acq	Same	Rpleas	2pleas	conawa_CS2_US3_confidence	conawa1_nomask	8	5	0	0	300	300	0	0	7736	guess	1	-41,6666666666666642982pct	loyal	schön	retten	spielen	helfen	lachen	lasch	schlecht	rächen	strafen	hindern	leiden	ehrlich	freundlich	fair	tolerant	schlau	treu	eitel	fanatisch	faul	tyrannisch	schroff	tot	0	0	0	0	0	0	0	0	0	0	0	0	0	0	0	0	0	0	0	0	0	0	0	0	0	0	0	0	0	0
2024-05-02	12:49:55	13:04:46	890457	6.6.1	4_exp_EVA_AWA_CON	11	B	A	Rpleas_acq	Same	Rpleas	2pleas	conawa_CS1_US1	conawa1_nomask	8	6	0	0	300	300	0	0	10749	loyal	1	-41,6666666666666642982pct	loyal	schön	retten	spielen	helfen	lachen	lasch	schlecht	rächen	strafen	hindern	leiden	ehrlich	freundlich	fair	tolerant	schlau	treu	eitel	fanatisch	faul	tyrannisch	schroff	tot	0	0	0	0	0	0	0	0	0	0	0	0	0	0	0	0	0	0	0	0	0	0	0	0	0	0	0	0	0	0
2024-05-02	12:49:55	13:04:46	890459	6.6.1	4_exp_EVA_AWA_CON	11	B	A	Rpleas_acq	Same	Rpleas	2pleas	conawa_CS1_US1_confidence	conawa1_nomask	8	6	0	0	300	300	0	0	10749	probably	1	-41,6666666666666642982pct	loyal	schön	retten	spielen	helfen	lachen	lasch	schlecht	rächen	strafen	hindern	leiden	ehrlich	freundlich	fair	tolerant	schlau	treu	eitel	fanatisch	faul	tyrannisch	schroff	tot	0	0	0	0	0	0	0	0	0	0	0	0	0	0	0	0	0	0	0	0	0	0	0	0	0	0	0	0	0	0
2024-05-02	12:49:55	13:05:14	918146	6.6.1	4_exp_EVA_AWA_CON	11	B	A	Rpleas_acq	Same	Rpleas	2pleas	conawa_CS1_US2	conawa1_nomask	8	7	0	0	300	300	0	0	27078	schlecht	1	-41,6666666666666642982pct	loyal	schön	retten	spielen	helfen	lachen	lasch	schlecht	rächen	strafen	hindern	leiden	ehrlich	freundlich	fair	tolerant	schlau	treu	eitel	fanatisch	faul	tyrannisch	schroff	tot	0	0	0	0	0	0	0	0	0	0	0	0	0	0	0	0	0	0	0	0	0	0	0	0	0	0	0	0	0	0
2024-05-02	12:49:55	13:05:14	918147	6.6.1	4_exp_EVA_AWA_CON	11	B	A	Rpleas_acq	Same	Rpleas	2pleas	conawa_CS1_US2_confidence	conawa1_nomask	8	7	0	0	300	300	0	0	27078	guess	1	-41,6666666666666642982pct	loyal	schön	retten	spielen	helfen	lachen	lasch	schlecht	rächen	strafen	hindern	leiden	ehrlich	freundlich	fair	tolerant	schlau	treu	eitel	fanatisch	faul	tyrannisch	schroff	tot	0	0	0	0	0	0	0	0	0	0	0	0	0	0	0	0	0	0	0	0	0	0	0	0	0	0	0	0	0	0
2024-05-02	12:49:55	13:05:20	924899	6.6.1	4_exp_EVA_AWA_CON	11	B	A	Rpleas_acq	Same	Rpleas	2pleas	conawa_CS2_US4	conawa1_nomask	8	8	0	0	300	300	0	0	6140	schroff	1	-41,6666666666666642982pct	loyal	schön	retten	spielen	helfen	lachen	lasch	schlecht	rächen	strafen	hindern	leiden	ehrlich	freundlich	fair	tolerant	schlau	treu	eitel	fanatisch	faul	tyrannisch	schroff	tot	0	0	0	0	0	0	0	0	0	0	0	0	0	0	0	0	0	0	0	0	0	0	0	0	0	0	0	0	0	0
2024-05-02	12:49:55	13:05:20	924901	6.6.1	4_exp_EVA_AWA_CON	11	B	A	Rpleas_acq	Same	Rpleas	2pleas	conawa_CS2_US4_confidence	conawa1_nomask	8	8	0	0	300	300	0	0	6140	probably	1	-41,6666666666666642982pct	loyal	schön	retten	spielen	helfen	lachen	lasch	schlecht	rächen	strafen	hindern	leiden	ehrlich	freundlich	fair	tolerant	schlau	treu	eitel	fanatisch	faul	tyrannisch	schroff	tot	0	0	0	0	0	0	0	0	0	0	0	0	0	0	0	0	0	0	0	0	0	0	0	0	0	0	0	0	0	0
2024-05-02	12:49:55	13:05:29	933936	6.6.1	4_exp_EVA_AWA_CON	11	B	A	Rpleas_acq	Same	Rpleas	2pleas	conawa_CS1_US4	conawa1_nomask	8	9	0	0	300	300	0	0	8419	tolerant	1	-41,6666666666666642982pct	loyal	schön	retten	spielen	helfen	lachen	lasch	schlecht	rächen	strafen	hindern	leiden	ehrlich	freundlich	fair	tolerant	schlau	treu	eitel	fanatisch	faul	tyrannisch	schroff	tot	0	0	0	0	0	0	0	0	0	0	0	0	0	0	0	0	0	0	0	0	0	0	0	0	0	0	0	0	0	0
2024-05-02	12:49:55	13:05:29	933937	6.6.1	4_exp_EVA_AWA_CON	11	B	A	Rpleas_acq	Same	Rpleas	2pleas	conawa_CS1_US4_confidence	conawa1_nomask	8	9	0	0	300	300	0	0	8419	probably	1	-41,6666666666666642982pct	loyal	schön	retten	spielen	helfen	lachen	lasch	schlecht	rächen	strafen	hindern	leiden	ehrlich	freundlich	fair	tolerant	schlau	treu	eitel	fanatisch	faul	tyrannisch	schroff	tot	0	0	0	0	0	0	0	0	0	0	0	0	0	0	0	0	0	0	0	0	0	0	0	0	0	0	0	0	0	0
2024-05-02	12:49:55	13:05:39	943852	6.6.1	4_exp_EVA_AWA_CON	11	B	A	Rpleas_acq	Same	Rpleas	2pleas	conawa_CS2_US1	conawa1_nomask	8	10	0	0	300	300	0	0	9303	lasch	1	-41,6666666666666642982pct	loyal	schön	retten	spielen	helfen	lachen	lasch	schlecht	rächen	strafen	hindern	leiden	ehrlich	freundlich	fair	tolerant	schlau	treu	eitel	fanatisch	faul	tyrannisch	schroff	tot	0	0	0	0	0	0	0	0	0	0	0	0	0	0	0	0	0	0	0	0	0	0	0	0	0	0	0	0	0	0
2024-05-02	12:49:55	13:05:39	943854	6.6.1	4_exp_EVA_AWA_CON	11	B	A	Rpleas_acq	Same	Rpleas	2pleas	conawa_CS2_US1_confidence	conawa1_nomask	8	10	0	0	300	300	0	0	9303	guess	1	-41,6666666666666642982pct	loyal	schön	retten	spielen	helfen	lachen	lasch	schlecht	rächen	strafen	hindern	leiden	ehrlich	freundlich	fair	tolerant	schlau	treu	eitel	fanatisch	faul	tyrannisch	schroff	tot	0	0	0	0	0	0	0	0	0	0	0	0	0	0	0	0	0	0	0	0	0	0	0	0	0	0	0	0	0	0
2024-05-02	12:49:55	13:05:50	954148	6.6.1	4_exp_EVA_AWA_CON	11	B	A	Rpleas_acq	Same	Rpleas	2pleas	conawa_CS2_US5	conawa1_nomask	8	11	0	0	300	300	0	0	9685	hindern	1	-41,6666666666666642982pct	loyal	schön	retten	spielen	helfen	lachen	lasch	schlecht	rächen	strafen	hindern	leiden	ehrlich	freundlich	fair	tolerant	schlau	treu	eitel	fanatisch	faul	tyrannisch	schroff	tot	0	0	0	0	0	0	0	0	0	0	0	0	0	0	0	0	0	0	0	0	0	0	0	0	0	0	0	0	0	0
2024-05-02	12:49:55	13:05:50	954150	6.6.1	4_exp_EVA_AWA_CON	11	B	A	Rpleas_acq	Same	Rpleas	2pleas	conawa_CS2_US5_confidence	conawa1_nomask	8	11	0	0	300	300	0	0	9685	guess	1	-41,6666666666666642982pct	loyal	schön	retten	spielen	helfen	lachen	lasch	schlecht	rächen	strafen	hindern	leiden	ehrlich	freundlich	fair	tolerant	schlau	treu	eitel	fanatisch	faul	tyrannisch	schroff	tot	0	0	0	0	0	0	0	0	0	0	0	0	0	0	0	0	0	0	0	0	0	0	0	0	0	0	0	0	0	0
2024-05-02	12:49:55	13:05:58	962084	6.6.1	4_exp_EVA_AWA_CON	11	B	A	Rpleas_acq	Same	Rpleas	2pleas	conawa_CS1_US3	conawa1_nomask	8	12	0	0	300	300	0	0	7325	fair	1	-41,6666666666666642982pct	loyal	schön	retten	spielen	helfen	lachen	lasch	schlecht	rächen	strafen	hindern	leiden	ehrlich	freundlich	fair	tolerant	schlau	treu	eitel	fanatisch	faul	tyrannisch	schroff	tot	0	0	0	0	0	0	0	0	0	0	0	0	0	0	0	0	0	0	0	0	0	0	0	0	0	0	0	0	0	0
2024-05-02	12:49:55	13:05:58	962086	6.6.1	4_exp_EVA_AWA_CON	11	B	A	Rpleas_acq	Same	Rpleas	2pleas	conawa_CS1_US3_confidence	conawa1_nomask	8	12	0	0	300	300	0	0	7325	probably	1	-41,6666666666666642982pct	loyal	schön	retten	spielen	helfen	lachen	lasch	schlecht	rächen	strafen	hindern	leiden	ehrlich	freundlich	fair	tolerant	schlau	treu	eitel	fanatisch	faul	tyrannisch	schroff	tot	0	0	0	0	0	0	0	0	0	0	0	0	0	0	0	0	0	0	0	0	0	0	0	0	0	0	0	0	0	0
2024-05-02	12:49:55	13:07:12	1036544	6.6.1	4_exp_EVA_AWA_CON	11	B	A	Rpleas_acq	Same	Rpleas	2pleas	cond_new_pleas_456_nomask_CS1	condtest_nomask_1	11	1	400	0	300	300	0	0	1293	50	1	-41,6666666666666642982pct	loyal	schön	retten	spielen	helfen	lachen	lasch	schlecht	rächen	strafen	hindern	leiden	ehrlich	freundlich	fair	tolerant	schlau	treu	eitel	fanatisch	faul	tyrannisch	schroff	tot	1	blank2r.bmp	0	1	+	0	1	blank2r.bmp	500	1	BMVZ	500	1	blank2r.bmp	880	3	treu	880	1	!	1233	1	!	-1	0	0	0	0	0	0
2024-05-02	12:49:55	13:07:14	1038625	6.6.1	4_exp_EVA_AWA_CON	11	B	A	Rpleas_acq	Same	Rpleas	2pleas	cond_new_unple_456_nomask_CS2	condtest_nomask_1	11	2	400	0	300	300	0	0	301	46	1	-41,6666666666666642982pct	loyal	schön	retten	spielen	helfen	lachen	lasch	schlecht	rächen	strafen	hindern	leiden	ehrlich	freundlich	fair	tolerant	schlau	treu	eitel	fanatisch	faul	tyrannisch	schroff	tot	1	blank2r.bmp	0	1	+	0	1	blank2r.bmp	500	1	GKQX	500	1	blank2r.bmp	880	1	tot	880	1	!	-1	1	!	-1	0	0	0	0	0	0
2024-05-02	12:49:55	13:07:16	1040576	6.6.1	4_exp_EVA_AWA_CON	11	B	A	Rpleas_acq	Same	Rpleas	2pleas	cond_new_unple_456_nomask_CS1	condtest_nomask_1	11	3	400	0	300	300	0	0	171	50	0	-41,6666666666666642982pct	loyal	schön	retten	spielen	helfen	lachen	lasch	schlecht	rächen	strafen	hindern	leiden	ehrlich	freundlich	fair	tolerant	schlau	treu	eitel	fanatisch	faul	tyrannisch	schroff	tot	1	blank2r.bmp	0	1	+	0	1	blank2r.bmp	500	1	BMVZ	500	1	blank2r.bmp	880	1	tyrannisch	880	1	!	-1	1	!	-1	0	0	0	0	0	0
2024-05-02	12:49:55	13:07:19	1043936	6.6.1	4_exp_EVA_AWA_CON	11	B	A	Rpleas_acq	Same	Rpleas	2pleas	cond_US_pleas_123_nomask_CS2	condtest_nomask_1	11	4	400	0	300	300	0	0	1580	50	1	-41,6666666666666642982pct	loyal	schön	retten	spielen	helfen	lachen	lasch	schlecht	rächen	strafen	hindern	leiden	ehrlich	freundlich	fair	tolerant	schlau	treu	eitel	fanatisch	faul	tyrannisch	schroff	tot	1	blank2r.bmp	0	1	+	0	1	blank2r.bmp	500	1	GKQX	500	1	blank2r.bmp	880	2	loyal	880	1	!	1232	1	!	-1	0	0	0	0	0	0
2024-05-02	12:49:55	13:07:22	1046224	6.6.1	4_exp_EVA_AWA_CON	11	B	A	Rpleas_acq	Same	Rpleas	2pleas	cond_US_pleas_123_nomask_CS1	condtest_nomask_1	11	5	400	0	300	300	0	0	516	50	1	-41,6666666666666642982pct	loyal	schön	retten	spielen	helfen	lachen	lasch	schlecht	rächen	strafen	hindern	leiden	ehrlich	freundlich	fair	tolerant	schlau	treu	eitel	fanatisch	faul	tyrannisch	schroff	tot	1	blank2r.bmp	0	1	+	0	1	blank2r.bmp	500	1	BMVZ	500	1	blank2r.bmp	880	3	retten	880	1	!	1233	1	!	-1	0	0	0	0	0	0
2024-05-02	12:49:55	13:07:24	1048561	6.6.1	4_exp_EVA_AWA_CON	11	B	A	Rpleas_acq	Same	Rpleas	2pleas	cond_new_pleas_456_nomask_CS2	condtest_nomask_1	11	6	400	0	300	300	0	0	560	50	1	-41,6666666666666642982pct	loyal	schön	retten	spielen	helfen	lachen	lasch	schlecht	rächen	strafen	hindern	leiden	ehrlich	freundlich	fair	tolerant	schlau	treu	eitel	fanatisch	faul	tyrannisch	schroff	tot	1	blank2r.bmp	0	1	+	0	1	blank2r.bmp	500	1	GKQX	500	1	blank2r.bmp	880	2	tolerant	880	1	!	1232	1	!	-1	0	0	0	0	0	0
2024-05-02	12:49:55	13:07:27	1051208	6.6.1	4_exp_EVA_AWA_CON	11	B	A	Rpleas_acq	Same	Rpleas	2pleas	cond_US_unple_123_nomask_CS1	condtest_nomask_1	11	7	400	0	300	300	0	0	867	46	1	-41,6666666666666642982pct	loyal	schön	retten	spielen	helfen	lachen	lasch	schlecht	rächen	strafen	hindern	leiden	ehrlich	freundlich	fair	tolerant	schlau	treu	eitel	fanatisch	faul	tyrannisch	schroff	tot	1	blank2r.bmp	0	1	+	0	1	blank2r.bmp	500	1	BMVZ	500	1	blank2r.bmp	880	3	rächen	880	1	!	1232	1	!	-1	0	0	0	0	0	0
2024-05-02	12:49:55	13:07:29	1053560	6.6.1	4_exp_EVA_AWA_CON	11	B	A	Rpleas_acq	Same	Rpleas	2pleas	cond_US_unple_123_nomask_CS2	condtest_nomask_1	11	8	400	0	300	300	0	0	577	46	1	-41,6666666666666642982pct	loyal	schön	retten	spielen	helfen	lachen	lasch	schlecht	rächen	strafen	hindern	leiden	ehrlich	freundlich	fair	tolerant	schlau	treu	eitel	fanatisch	faul	tyrannisch	schroff	tot	1	blank2r.bmp	0	1	+	0	1	blank2r.bmp	500	1	GKQX	500	1	blank2r.bmp	880	3	schlecht	880	1	!	1233	1	!	-1	0	0	0	0	0	0
2024-05-02	12:49:55	13:07:41	1065504	6.6.1	4_exp_EVA_AWA_CON	11	B	A	Rpleas_acq	Same	Rpleas	2pleas	cond_new_pleas_456_nomask_CS1	condtest_nomask_2	12	1	400	0	300	300	0	0	583	50	1	-41,6666666666666642982pct	loyal	schön	retten	spielen	helfen	lachen	lasch	schlecht	rächen	strafen	hindern	leiden	ehrlich	freundlich	fair	tolerant	schlau	treu	eitel	fanatisch	faul	tyrannisch	schroff	tot	1	blank2r.bmp	0	1	+	0	1	blank2r.bmp	500	1	BMVZ	500	1	blank2r.bmp	880	2	schlau	880	1	!	1233	1	!	-1	0	0	0	0	0	0
