date	time	currenttime	elapsedtime	build	currentexpt	subject	CS_AB	US_AB	LRpleas_acq	SameOppo	condition_Lpleas	condition_1pleas	trialcode	blockcode	blocknum	trialnum	windowcenter	inwindow	pretrialpause	posttrialpause	trialduration	trialtimeout	latency	response	correct	correctedscore	US_nomask_pleas1	US_nomask_pleas2	US_nomask_pleas3	US_nomask_pleas4	US_nomask_pleas5	US_nomask_pleas6	US_nomask_unple1	US_nomask_unple2	US_nomask_unple3	US_nomask_unple4	US_nomask_unple5	US_nomask_unple6	new_nomask_pleas1	new_nomask_pleas2	new_nomask_pleas3	new_nomask_pleas4	new_nomask_pleas5	new_nomask_pleas6	new_nomask_unple1	new_nomask_unple2	new_nomask_unple3	new_nomask_unple4	new_nomask_unple5	new_nomask_unple6	stimulusnumber1	stimulusitem1	stimulusonset1	stimulusnumber2	stimulusitem2	stimulusonset2	stimulusnumber3	stimulusitem3	stimulusonset3	stimulusnumber4	stimulusitem4	stimulusonset4	stimulusnumber5	stimulusitem5	stimulusonset5	stimulusnumber6	stimulusitem6	stimulusonset6	stimulusnumber7	stimulusitem7	stimulusonset7	stimulusnumber8	stimulusitem8	stimulusonset8	stimulusnumber9	stimulusitem9	stimulusonset9	stimulusnumber10	stimulusitem10	stimulusonset10
2024-06-05	12:13:18	12:14:55	96474	6.6.1	4_exp_EVA_AWA_CON	70	B	A	Rpleas_acq	Oppo	Rpleas	1pleas	acq_new_unple_nomask	acq1_nomask	1	1	0	0	300	300	0	0	633	50	0	0	schön	treu	spielen	retten	tolerant	fair	schlecht	tot	strafen	rächen	tyrannisch	faul	helfen	lachen	schlau	freundlich	loyal	ehrlich	hindern	leiden	schroff	fanatisch	lasch	eitel	1	blank2r.bmp	0	1	+	0	1	blank2r.bmp	500	4	B4r.bmp	500	1	blank2r.bmp	880	4	fanatisch	880	1	FEHLER	1534	0	0	0	0	0	0	0	0	0
2024-06-05	12:13:18	12:14:57	98617	6.6.1	4_exp_EVA_AWA_CON	70	B	A	Rpleas_acq	Oppo	Rpleas	1pleas	acq_US_unple_nomask	acq1_nomask	1	2	0	0	300	300	0	0	856	46	1	0	schön	treu	spielen	retten	tolerant	fair	schlecht	tot	strafen	rächen	tyrannisch	faul	helfen	lachen	schlau	freundlich	loyal	ehrlich	hindern	leiden	schroff	fanatisch	lasch	eitel	1	blank2r.bmp	0	1	+	0	1	blank2r.bmp	500	1	GKQX	500	1	blank2r.bmp	880	6	faul	880	0	0	0	0	0	0	0	0	0	0	0	0
2024-06-05	12:13:18	12:15:00	101177	6.6.1	4_exp_EVA_AWA_CON	70	B	A	Rpleas_acq	Oppo	Rpleas	1pleas	acq_US_pleas_nomask	acq1_nomask	1	3	0	0	300	300	0	0	1074	50	1	0	schön	treu	spielen	retten	tolerant	fair	schlecht	tot	strafen	rächen	tyrannisch	faul	helfen	lachen	schlau	freundlich	loyal	ehrlich	hindern	leiden	schroff	fanatisch	lasch	eitel	1	blank2r.bmp	0	1	+	0	1	blank2r.bmp	500	1	BMVZ	500	1	blank2r.bmp	880	2	treu	880	0	0	0	0	0	0	0	0	0	0	0	0
2024-06-05	12:13:18	12:15:02	103489	6.6.1	4_exp_EVA_AWA_CON	70	B	A	Rpleas_acq	Oppo	Rpleas	1pleas	acq_US_unple_nomask	acq1_nomask	1	4	0	0	300	300	0	0	825	46	1	0	schön	treu	spielen	retten	tolerant	fair	schlecht	tot	strafen	rächen	tyrannisch	faul	helfen	lachen	schlau	freundlich	loyal	ehrlich	hindern	leiden	schroff	fanatisch	lasch	eitel	1	blank2r.bmp	0	1	+	0	1	blank2r.bmp	500	1	GKQX	500	1	blank2r.bmp	880	5	tyrannisch	880	0	0	0	0	0	0	0	0	0	0	0	0
2024-06-05	12:13:18	12:15:04	105889	6.6.1	4_exp_EVA_AWA_CON	70	B	A	Rpleas_acq	Oppo	Rpleas	1pleas	acq_new_unple_nomask	acq1_nomask	1	5	0	0	300	300	0	0	913	46	1	0	schön	treu	spielen	retten	tolerant	fair	schlecht	tot	strafen	rächen	tyrannisch	faul	helfen	lachen	schlau	freundlich	loyal	ehrlich	hindern	leiden	schroff	fanatisch	lasch	eitel	1	blank2r.bmp	0	1	+	0	1	blank2r.bmp	500	1	B1r.bmp	500	1	blank2r.bmp	880	5	lasch	880	0	0	0	0	0	0	0	0	0	0	0	0
2024-06-05	12:13:18	12:15:07	108153	6.6.1	4_exp_EVA_AWA_CON	70	B	A	Rpleas_acq	Oppo	Rpleas	1pleas	acq_new_unple_nomask	acq1_nomask	1	6	0	0	300	300	0	0	776	46	1	0	schön	treu	spielen	retten	tolerant	fair	schlecht	tot	strafen	rächen	tyrannisch	faul	helfen	lachen	schlau	freundlich	loyal	ehrlich	hindern	leiden	schroff	fanatisch	lasch	eitel	1	blank2r.bmp	0	1	+	0	1	blank2r.bmp	500	7	C3r.bmp	500	1	blank2r.bmp	880	6	eitel	880	0	0	0	0	0	0	0	0	0	0	0	0
2024-06-05	12:13:18	12:15:09	110305	6.6.1	4_exp_EVA_AWA_CON	70	B	A	Rpleas_acq	Oppo	Rpleas	1pleas	acq_new_pleas_nomask	acq1_nomask	1	7	0	0	300	300	0	0	666	50	1	0	schön	treu	spielen	retten	tolerant	fair	schlecht	tot	strafen	rächen	tyrannisch	faul	helfen	lachen	schlau	freundlich	loyal	ehrlich	hindern	leiden	schroff	fanatisch	lasch	eitel	1	blank2r.bmp	0	1	+	0	1	blank2r.bmp	500	2	B2r.bmp	500	1	blank2r.bmp	880	1	helfen	880	0	0	0	0	0	0	0	0	0	0	0	0
2024-06-05	12:13:18	12:15:11	112385	6.6.1	4_exp_EVA_AWA_CON	70	B	A	Rpleas_acq	Oppo	Rpleas	1pleas	acq_new_pleas_nomask	acq1_nomask	1	8	0	0	300	300	0	0	595	50	1	0	schön	treu	spielen	retten	tolerant	fair	schlecht	tot	strafen	rächen	tyrannisch	faul	helfen	lachen	schlau	freundlich	loyal	ehrlich	hindern	leiden	schroff	fanatisch	lasch	eitel	1	blank2r.bmp	0	1	+	0	1	blank2r.bmp	500	3	B3r.bmp	500	1	blank2r.bmp	880	4	freundlich	880	0	0	0	0	0	0	0	0	0	0	0	0
2024-06-05	12:13:18	12:15:13	114513	6.6.1	4_exp_EVA_AWA_CON	70	B	A	Rpleas_acq	Oppo	Rpleas	1pleas	acq_new_pleas_nomask	acq1_nomask	1	9	0	0	300	300	0	0	642	50	1	0	schön	treu	spielen	retten	tolerant	fair	schlecht	tot	strafen	rächen	tyrannisch	faul	helfen	lachen	schlau	freundlich	loyal	ehrlich	hindern	leiden	schroff	fanatisch	lasch	eitel	1	blank2r.bmp	0	1	+	0	1	blank2r.bmp	500	5	C1r.bmp	500	1	blank2r.bmp	880	3	schlau	880	0	0	0	0	0	0	0	0	0	0	0	0
2024-06-05	12:13:18	12:15:16	117225	6.6.1	4_exp_EVA_AWA_CON	70	B	A	Rpleas_acq	Oppo	Rpleas	1pleas	acq_US_pleas_nomask	acq1_nomask	1	10	0	0	300	300	0	0	1222	50	1	0	schön	treu	spielen	retten	tolerant	fair	schlecht	tot	strafen	rächen	tyrannisch	faul	helfen	lachen	schlau	freundlich	loyal	ehrlich	hindern	leiden	schroff	fanatisch	lasch	eitel	1	blank2r.bmp	0	1	+	0	1	blank2r.bmp	500	1	BMVZ	500	1	blank2r.bmp	880	3	spielen	880	0	0	0	0	0	0	0	0	0	0	0	0
2024-06-05	12:13:18	12:15:18	119537	6.6.1	4_exp_EVA_AWA_CON	70	B	A	Rpleas_acq	Oppo	Rpleas	1pleas	acq_US_pleas_nomask	acq1_nomask	1	11	0	0	300	300	0	0	822	50	1	0	schön	treu	spielen	retten	tolerant	fair	schlecht	tot	strafen	rächen	tyrannisch	faul	helfen	lachen	schlau	freundlich	loyal	ehrlich	hindern	leiden	schroff	fanatisch	lasch	eitel	1	blank2r.bmp	0	1	+	0	1	blank2r.bmp	500	1	BMVZ	500	1	blank2r.bmp	880	4	retten	880	0	0	0	0	0	0	0	0	0	0	0	0
2024-06-05	12:13:18	12:15:20	121681	6.6.1	4_exp_EVA_AWA_CON	70	B	A	Rpleas_acq	Oppo	Rpleas	1pleas	acq_US_unple_nomask	acq1_nomask	1	12	0	0	300	300	0	0	655	46	1	0	schön	treu	spielen	retten	tolerant	fair	schlecht	tot	strafen	rächen	tyrannisch	faul	helfen	lachen	schlau	freundlich	loyal	ehrlich	hindern	leiden	schroff	fanatisch	lasch	eitel	1	blank2r.bmp	0	1	+	0	1	blank2r.bmp	500	1	GKQX	500	1	blank2r.bmp	880	2	tot	880	0	0	0	0	0	0	0	0	0	0	0	0
2024-06-05	12:13:18	12:15:22	123785	6.6.1	4_exp_EVA_AWA_CON	70	B	A	Rpleas_acq	Oppo	Rpleas	1pleas	acq_US_pleas_nomask	acq1_nomask	1	13	0	0	300	300	0	0	618	50	1	0	schön	treu	spielen	retten	tolerant	fair	schlecht	tot	strafen	rächen	tyrannisch	faul	helfen	lachen	schlau	freundlich	loyal	ehrlich	hindern	leiden	schroff	fanatisch	lasch	eitel	1	blank2r.bmp	0	1	+	0	1	blank2r.bmp	500	1	BMVZ	500	1	blank2r.bmp	880	6	fair	880	0	0	0	0	0	0	0	0	0	0	0	0
2024-06-05	12:13:18	12:15:24	125921	6.6.1	4_exp_EVA_AWA_CON	70	B	A	Rpleas_acq	Oppo	Rpleas	1pleas	acq_new_unple_nomask	acq1_nomask	1	14	0	0	300	300	0	0	652	46	1	0	schön	treu	spielen	retten	tolerant	fair	schlecht	tot	strafen	rächen	tyrannisch	faul	helfen	lachen	schlau	freundlich	loyal	ehrlich	hindern	leiden	schroff	fanatisch	lasch	eitel	1	blank2r.bmp	0	1	+	0	1	blank2r.bmp	500	8	C4r.bmp	500	1	blank2r.bmp	880	3	schroff	880	0	0	0	0	0	0	0	0	0	0	0	0
2024-06-05	12:13:18	12:15:27	128122	6.6.1	4_exp_EVA_AWA_CON	70	B	A	Rpleas_acq	Oppo	Rpleas	1pleas	acq_US_pleas_nomask	acq1_nomask	1	15	0	0	300	300	0	0	711	50	1	0	schön	treu	spielen	retten	tolerant	fair	schlecht	tot	strafen	rächen	tyrannisch	faul	helfen	lachen	schlau	freundlich	loyal	ehrlich	hindern	leiden	schroff	fanatisch	lasch	eitel	1	blank2r.bmp	0	1	+	0	1	blank2r.bmp	500	1	BMVZ	500	1	blank2r.bmp	880	5	tolerant	880	0	0	0	0	0	0	0	0	0	0	0	0
2024-06-05	12:13:18	12:15:29	130145	6.6.1	4_exp_EVA_AWA_CON	70	B	A	Rpleas_acq	Oppo	Rpleas	1pleas	acq_new_pleas_nomask	acq1_nomask	1	16	0	0	300	300	0	0	543	50	1	0	schön	treu	spielen	retten	tolerant	fair	schlecht	tot	strafen	rächen	tyrannisch	faul	helfen	lachen	schlau	freundlich	loyal	ehrlich	hindern	leiden	schroff	fanatisch	lasch	eitel	1	blank2r.bmp	0	1	+	0	1	blank2r.bmp	500	6	C2r.bmp	500	1	blank2r.bmp	880	5	loyal	880	0	0	0	0	0	0	0	0	0	0	0	0
2024-06-05	12:13:18	12:15:31	132114	6.6.1	4_exp_EVA_AWA_CON	70	B	A	Rpleas_acq	Oppo	Rpleas	1pleas	acq_US_unple_nomask	acq1_nomask	1	17	0	0	300	300	0	0	480	46	1	0	schön	treu	spielen	retten	tolerant	fair	schlecht	tot	strafen	rächen	tyrannisch	faul	helfen	lachen	schlau	freundlich	loyal	ehrlich	hindern	leiden	schroff	fanatisch	lasch	eitel	1	blank2r.bmp	0	1	+	0	1	blank2r.bmp	500	1	GKQX	500	1	blank2r.bmp	880	1	schlecht	880	0	0	0	0	0	0	0	0	0	0	0	0
2024-06-05	12:13:18	12:15:33	134538	6.6.1	4_exp_EVA_AWA_CON	70	B	A	Rpleas_acq	Oppo	Rpleas	1pleas	acq_new_unple_nomask	acq1_nomask	1	18	0	0	300	300	0	0	743	50	0	0	schön	treu	spielen	retten	tolerant	fair	schlecht	tot	strafen	rächen	tyrannisch	faul	helfen	lachen	schlau	freundlich	loyal	ehrlich	hindern	leiden	schroff	fanatisch	lasch	eitel	1	blank2r.bmp	0	1	+	0	1	blank2r.bmp	500	1	B1r.bmp	500	1	blank2r.bmp	880	1	hindern	880	1	FEHLER	1644	0	0	0	0	0	0	0	0	0
2024-06-05	12:13:18	12:15:35	136497	6.6.1	4_exp_EVA_AWA_CON	70	B	A	Rpleas_acq	Oppo	Rpleas	1pleas	acq_US_pleas_nomask	acq1_nomask	1	19	0	0	300	300	0	0	671	50	1	0	schön	treu	spielen	retten	tolerant	fair	schlecht	tot	strafen	rächen	tyrannisch	faul	helfen	lachen	schlau	freundlich	loyal	ehrlich	hindern	leiden	schroff	fanatisch	lasch	eitel	1	blank2r.bmp	0	1	+	0	1	blank2r.bmp	500	1	BMVZ	500	1	blank2r.bmp	880	1	schön	880	0	0	0	0	0	0	0	0	0	0	0	0
2024-06-05	12:13:18	12:15:37	138905	6.6.1	4_exp_EVA_AWA_CON	70	B	A	Rpleas_acq	Oppo	Rpleas	1pleas	acq_new_pleas_nomask	acq1_nomask	1	20	0	0	300	300	0	0	928	50	1	0	schön	treu	spielen	retten	tolerant	fair	schlecht	tot	strafen	rächen	tyrannisch	faul	helfen	lachen	schlau	freundlich	loyal	ehrlich	hindern	leiden	schroff	fanatisch	lasch	eitel	1	blank2r.bmp	0	1	+	0	1	blank2r.bmp	500	6	C2r.bmp	500	1	blank2r.bmp	880	6	ehrlich	880	0	0	0	0	0	0	0	0	0	0	0	0
2024-06-05	12:13:18	12:15:40	141153	6.6.1	4_exp_EVA_AWA_CON	70	B	A	Rpleas_acq	Oppo	Rpleas	1pleas	acq_new_unple_nomask	acq1_nomask	1	21	0	0	300	300	0	0	765	46	1	0	schön	treu	spielen	retten	tolerant	fair	schlecht	tot	strafen	rächen	tyrannisch	faul	helfen	lachen	schlau	freundlich	loyal	ehrlich	hindern	leiden	schroff	fanatisch	lasch	eitel	1	blank2r.bmp	0	1	+	0	1	blank2r.bmp	500	8	C4r.bmp	500	1	blank2r.bmp	880	2	leiden	880	0	0	0	0	0	0	0	0	0	0	0	0
2024-06-05	12:13:18	12:15:42	143305	6.6.1	4_exp_EVA_AWA_CON	70	B	A	Rpleas_acq	Oppo	Rpleas	1pleas	acq_US_unple_nomask	acq1_nomask	1	22	0	0	300	300	0	0	665	46	1	0	schön	treu	spielen	retten	tolerant	fair	schlecht	tot	strafen	rächen	tyrannisch	faul	helfen	lachen	schlau	freundlich	loyal	ehrlich	hindern	leiden	schroff	fanatisch	lasch	eitel	1	blank2r.bmp	0	1	+	0	1	blank2r.bmp	500	1	GKQX	500	1	blank2r.bmp	880	4	rächen	880	0	0	0	0	0	0	0	0	0	0	0	0
2024-06-05	12:13:18	12:15:44	145417	6.6.1	4_exp_EVA_AWA_CON	70	B	A	Rpleas_acq	Oppo	Rpleas	1pleas	acq_new_pleas_nomask	acq1_nomask	1	23	0	0	300	300	0	0	626	50	1	0	schön	treu	spielen	retten	tolerant	fair	schlecht	tot	strafen	rächen	tyrannisch	faul	helfen	lachen	schlau	freundlich	loyal	ehrlich	hindern	leiden	schroff	fanatisch	lasch	eitel	1	blank2r.bmp	0	1	+	0	1	blank2r.bmp	500	7	C3r.bmp	500	1	blank2r.bmp	880	2	lachen	880	0	0	0	0	0	0	0	0	0	0	0	0
2024-06-05	12:13:18	12:15:46	147649	6.6.1	4_exp_EVA_AWA_CON	70	B	A	Rpleas_acq	Oppo	Rpleas	1pleas	acq_US_unple_nomask	acq1_nomask	1	24	0	0	300	300	0	0	746	46	1	0	schön	treu	spielen	retten	tolerant	fair	schlecht	tot	strafen	rächen	tyrannisch	faul	helfen	lachen	schlau	freundlich	loyal	ehrlich	hindern	leiden	schroff	fanatisch	lasch	eitel	1	blank2r.bmp	0	1	+	0	1	blank2r.bmp	500	1	GKQX	500	1	blank2r.bmp	880	3	strafen	880	0	0	0	0	0	0	0	0	0	0	0	0
2024-06-05	12:13:18	12:15:48	149737	6.6.1	4_exp_EVA_AWA_CON	70	B	A	Rpleas_acq	Oppo	Rpleas	1pleas	acq_US_pleas_nomask	acq1_nomask	1	25	0	0	300	300	0	0	603	50	1	0	schön	treu	spielen	retten	tolerant	fair	schlecht	tot	strafen	rächen	tyrannisch	faul	helfen	lachen	schlau	freundlich	loyal	ehrlich	hindern	leiden	schroff	fanatisch	lasch	eitel	1	blank2r.bmp	0	1	+	0	1	blank2r.bmp	500	1	BMVZ	500	1	blank2r.bmp	880	2	treu	880	0	0	0	0	0	0	0	0	0	0	0	0
2024-06-05	12:13:18	12:15:50	151945	6.6.1	4_exp_EVA_AWA_CON	70	B	A	Rpleas_acq	Oppo	Rpleas	1pleas	acq_new_unple_nomask	acq1_nomask	1	26	0	0	300	300	0	0	719	46	1	0	schön	treu	spielen	retten	tolerant	fair	schlecht	tot	strafen	rächen	tyrannisch	faul	helfen	lachen	schlau	freundlich	loyal	ehrlich	hindern	leiden	schroff	fanatisch	lasch	eitel	1	blank2r.bmp	0	1	+	0	1	blank2r.bmp	500	3	B3r.bmp	500	1	blank2r.bmp	880	2	leiden	880	0	0	0	0	0	0	0	0	0	0	0	0
2024-06-05	12:13:18	12:15:53	154561	6.6.1	4_exp_EVA_AWA_CON	70	B	A	Rpleas_acq	Oppo	Rpleas	1pleas	acq_US_unple_nomask	acq1_nomask	1	27	0	0	300	300	0	0	1134	46	1	0	schön	treu	spielen	retten	tolerant	fair	schlecht	tot	strafen	rächen	tyrannisch	faul	helfen	lachen	schlau	freundlich	loyal	ehrlich	hindern	leiden	schroff	fanatisch	lasch	eitel	1	blank2r.bmp	0	1	+	0	1	blank2r.bmp	500	1	GKQX	500	1	blank2r.bmp	880	4	rächen	880	0	0	0	0	0	0	0	0	0	0	0	0
2024-06-05	12:13:18	12:15:56	157257	6.6.1	4_exp_EVA_AWA_CON	70	B	A	Rpleas_acq	Oppo	Rpleas	1pleas	acq_US_pleas_nomask	acq1_nomask	1	28	0	0	300	300	0	0	1208	50	1	0	schön	treu	spielen	retten	tolerant	fair	schlecht	tot	strafen	rächen	tyrannisch	faul	helfen	lachen	schlau	freundlich	loyal	ehrlich	hindern	leiden	schroff	fanatisch	lasch	eitel	1	blank2r.bmp	0	1	+	0	1	blank2r.bmp	500	1	BMVZ	500	1	blank2r.bmp	880	5	tolerant	880	0	0	0	0	0	0	0	0	0	0	0	0
2024-06-05	12:13:18	12:15:58	159529	6.6.1	4_exp_EVA_AWA_CON	70	B	A	Rpleas_acq	Oppo	Rpleas	1pleas	acq_new_unple_nomask	acq1_nomask	1	29	0	0	300	300	0	0	789	46	1	0	schön	treu	spielen	retten	tolerant	fair	schlecht	tot	strafen	rächen	tyrannisch	faul	helfen	lachen	schlau	freundlich	loyal	ehrlich	hindern	leiden	schroff	fanatisch	lasch	eitel	1	blank2r.bmp	0	1	+	0	1	blank2r.bmp	500	2	B2r.bmp	500	1	blank2r.bmp	880	5	lasch	880	0	0	0	0	0	0	0	0	0	0	0	0
2024-06-05	12:13:18	12:16:00	161649	6.6.1	4_exp_EVA_AWA_CON	70	B	A	Rpleas_acq	Oppo	Rpleas	1pleas	acq_new_pleas_nomask	acq1_nomask	1	30	0	0	300	300	0	0	637	50	1	0	schön	treu	spielen	retten	tolerant	fair	schlecht	tot	strafen	rächen	tyrannisch	faul	helfen	lachen	schlau	freundlich	loyal	ehrlich	hindern	leiden	schroff	fanatisch	lasch	eitel	1	blank2r.bmp	0	1	+	0	1	blank2r.bmp	500	5	C1r.bmp	500	1	blank2r.bmp	880	4	freundlich	880	0	0	0	0	0	0	0	0	0	0	0	0
2024-06-05	12:13:18	12:16:02	163674	6.6.1	4_exp_EVA_AWA_CON	70	B	A	Rpleas_acq	Oppo	Rpleas	1pleas	acq_new_unple_nomask	acq1_nomask	1	31	0	0	300	300	0	0	540	46	1	0	schön	treu	spielen	retten	tolerant	fair	schlecht	tot	strafen	rächen	tyrannisch	faul	helfen	lachen	schlau	freundlich	loyal	ehrlich	hindern	leiden	schroff	fanatisch	lasch	eitel	1	blank2r.bmp	0	1	+	0	1	blank2r.bmp	500	4	B4r.bmp	500	1	blank2r.bmp	880	1	hindern	880	0	0	0	0	0	0	0	0	0	0	0	0
2024-06-05	12:13:18	12:16:04	165746	6.6.1	4_exp_EVA_AWA_CON	70	B	A	Rpleas_acq	Oppo	Rpleas	1pleas	acq_new_pleas_nomask	acq1_nomask	1	32	0	0	300	300	0	0	591	50	1	0	schön	treu	spielen	retten	tolerant	fair	schlecht	tot	strafen	rächen	tyrannisch	faul	helfen	lachen	schlau	freundlich	loyal	ehrlich	hindern	leiden	schroff	fanatisch	lasch	eitel	1	blank2r.bmp	0	1	+	0	1	blank2r.bmp	500	1	B1r.bmp	500	1	blank2r.bmp	880	5	loyal	880	0	0	0	0	0	0	0	0	0	0	0	0
2024-06-05	12:13:18	12:16:07	168489	6.6.1	4_exp_EVA_AWA_CON	70	B	A	Rpleas_acq	Oppo	Rpleas	1pleas	acq_US_pleas_nomask	acq1_nomask	1	33	0	0	300	300	0	0	1263	50	1	0	schön	treu	spielen	retten	tolerant	fair	schlecht	tot	strafen	rächen	tyrannisch	faul	helfen	lachen	schlau	freundlich	loyal	ehrlich	hindern	leiden	schroff	fanatisch	lasch	eitel	1	blank2r.bmp	0	1	+	0	1	blank2r.bmp	500	1	BMVZ	500	1	blank2r.bmp	880	1	schön	880	0	0	0	0	0	0	0	0	0	0	0	0
2024-06-05	12:13:18	12:16:09	170537	6.6.1	4_exp_EVA_AWA_CON	70	B	A	Rpleas_acq	Oppo	Rpleas	1pleas	acq_new_pleas_nomask	acq1_nomask	1	34	0	0	300	300	0	0	560	50	1	0	schön	treu	spielen	retten	tolerant	fair	schlecht	tot	strafen	rächen	tyrannisch	faul	helfen	lachen	schlau	freundlich	loyal	ehrlich	hindern	leiden	schroff	fanatisch	lasch	eitel	1	blank2r.bmp	0	1	+	0	1	blank2r.bmp	500	5	C1r.bmp	500	1	blank2r.bmp	880	3	schlau	880	0	0	0	0	0	0	0	0	0	0	0	0
2024-06-05	12:13:18	12:16:11	172793	6.6.1	4_exp_EVA_AWA_CON	70	B	A	Rpleas_acq	Oppo	Rpleas	1pleas	acq_US_unple_nomask	acq1_nomask	1	35	0	0	300	300	0	0	774	46	1	0	schön	treu	spielen	retten	tolerant	fair	schlecht	tot	strafen	rächen	tyrannisch	faul	helfen	lachen	schlau	freundlich	loyal	ehrlich	hindern	leiden	schroff	fanatisch	lasch	eitel	1	blank2r.bmp	0	1	+	0	1	blank2r.bmp	500	1	GKQX	500	1	blank2r.bmp	880	6	faul	880	0	0	0	0	0	0	0	0	0	0	0	0
2024-06-05	12:13:18	12:16:14	174993	6.6.1	4_exp_EVA_AWA_CON	70	B	A	Rpleas_acq	Oppo	Rpleas	1pleas	acq_US_unple_nomask	acq1_nomask	1	36	0	0	300	300	0	0	713	46	1	0	schön	treu	spielen	retten	tolerant	fair	schlecht	tot	strafen	rächen	tyrannisch	faul	helfen	lachen	schlau	freundlich	loyal	ehrlich	hindern	leiden	schroff	fanatisch	lasch	eitel	1	blank2r.bmp	0	1	+	0	1	blank2r.bmp	500	1	GKQX	500	1	blank2r.bmp	880	3	strafen	880	0	0	0	0	0	0	0	0	0	0	0	0
2024-06-05	12:13:18	12:16:50	211227	6.6.1	4_exp_EVA_AWA_CON	70	B	A	Rpleas_acq	Oppo	Rpleas	1pleas	acq_US_unple_nomask	acq2_nomask	2	1	480	0	300	300	0	0	834	46	1	0	schön	treu	spielen	retten	tolerant	fair	schlecht	tot	strafen	rächen	tyrannisch	faul	helfen	lachen	schlau	freundlich	loyal	ehrlich	hindern	leiden	schroff	fanatisch	lasch	eitel	1	blank2r.bmp	0	1	+	0	1	blank2r.bmp	500	1	GKQX	500	1	blank2r.bmp	880	2	tot	880	1	!	1313	1	!	-1	0	0	0	0	0	0
2024-06-05	12:13:18	12:16:52	213331	6.6.1	4_exp_EVA_AWA_CON	70	B	A	Rpleas_acq	Oppo	Rpleas	1pleas	acq_US_pleas_nomask	acq2_nomask	2	2	480	0	300	300	0	0	326	50	1	0	schön	treu	spielen	retten	tolerant	fair	schlecht	tot	strafen	rächen	tyrannisch	faul	helfen	lachen	schlau	freundlich	loyal	ehrlich	hindern	leiden	schroff	fanatisch	lasch	eitel	1	blank2r.bmp	0	1	+	0	1	blank2r.bmp	500	1	BMVZ	500	1	blank2r.bmp	880	3	spielen	880	1	!	-1	1	!	-1	0	0	0	0	0	0
2024-06-05	12:13:18	12:16:54	215589	6.6.1	4_exp_EVA_AWA_CON	70	B	A	Rpleas_acq	Oppo	Rpleas	1pleas	acq_new_unple_nomask	acq2_nomask	2	3	480	1	300	300	0	0	481	46	1	0	schön	treu	spielen	retten	tolerant	fair	schlecht	tot	strafen	rächen	tyrannisch	faul	helfen	lachen	schlau	freundlich	loyal	ehrlich	hindern	leiden	schroff	fanatisch	lasch	eitel	1	blank2r.bmp	0	1	+	0	1	blank2r.bmp	500	7	C3r.bmp	500	1	blank2r.bmp	880	6	eitel	880	1	!	1312	1	!	1382	0	0	0	0	0	0
2024-06-05	12:13:18	12:16:56	217771	6.6.1	4_exp_EVA_AWA_CON	70	B	A	Rpleas_acq	Oppo	Rpleas	1pleas	acq_new_pleas_nomask	acq2_nomask	2	4	480	0	300	300	0	0	403	50	1	0	schön	treu	spielen	retten	tolerant	fair	schlecht	tot	strafen	rächen	tyrannisch	faul	helfen	lachen	schlau	freundlich	loyal	ehrlich	hindern	leiden	schroff	fanatisch	lasch	eitel	1	blank2r.bmp	0	1	+	0	1	blank2r.bmp	500	3	B3r.bmp	500	1	blank2r.bmp	880	6	ehrlich	880	1	!	-1	1	!	-1	0	0	0	0	0	0
2024-06-05	12:13:18	12:16:59	220213	6.6.1	4_exp_EVA_AWA_CON	70	B	A	Rpleas_acq	Oppo	Rpleas	1pleas	acq_new_pleas_nomask	acq2_nomask	2	5	480	1	300	300	0	0	462	46	0	0	schön	treu	spielen	retten	tolerant	fair	schlecht	tot	strafen	rächen	tyrannisch	faul	helfen	lachen	schlau	freundlich	loyal	ehrlich	hindern	leiden	schroff	fanatisch	lasch	eitel	1	blank2r.bmp	0	1	+	0	1	blank2r.bmp	500	2	B2r.bmp	500	1	blank2r.bmp	880	2	lachen	880	1	FEHLER	1654	1	!	1312	1	!	1363	0	0	0
2024-06-05	12:13:18	12:17:01	222412	6.6.1	4_exp_EVA_AWA_CON	70	B	A	Rpleas_acq	Oppo	Rpleas	1pleas	acq_US_pleas_nomask	acq2_nomask	2	6	480	0	300	300	0	0	620	50	1	0	schön	treu	spielen	retten	tolerant	fair	schlecht	tot	strafen	rächen	tyrannisch	faul	helfen	lachen	schlau	freundlich	loyal	ehrlich	hindern	leiden	schroff	fanatisch	lasch	eitel	1	blank2r.bmp	0	1	+	0	1	blank2r.bmp	500	1	BMVZ	500	1	blank2r.bmp	880	4	retten	880	1	!	1312	1	!	-1	0	0	0	0	0	0
2024-06-05	12:13:18	12:17:03	224629	6.6.1	4_exp_EVA_AWA_CON	70	B	A	Rpleas_acq	Oppo	Rpleas	1pleas	acq_new_pleas_nomask	acq2_nomask	2	7	480	1	300	300	0	0	435	50	1	0	schön	treu	spielen	retten	tolerant	fair	schlecht	tot	strafen	rächen	tyrannisch	faul	helfen	lachen	schlau	freundlich	loyal	ehrlich	hindern	leiden	schroff	fanatisch	lasch	eitel	1	blank2r.bmp	0	1	+	0	1	blank2r.bmp	500	4	B4r.bmp	500	1	blank2r.bmp	880	1	helfen	880	1	!	1313	1	!	1336	0	0	0	0	0	0
2024-06-05	12:13:18	12:17:06	227015	6.6.1	4_exp_EVA_AWA_CON	70	B	A	Rpleas_acq	Oppo	Rpleas	1pleas	acq_new_unple_nomask	acq2_nomask	2	8	480	0	300	300	0	0	408	50	0	0	schön	treu	spielen	retten	tolerant	fair	schlecht	tot	strafen	rächen	tyrannisch	faul	helfen	lachen	schlau	freundlich	loyal	ehrlich	hindern	leiden	schroff	fanatisch	lasch	eitel	1	blank2r.bmp	0	1	+	0	1	blank2r.bmp	500	6	C2r.bmp	500	1	blank2r.bmp	880	4	fanatisch	880	1	FEHLER	1601	1	!	-1	1	!	-1	0	0	0
2024-06-05	12:13:18	12:17:08	229203	6.6.1	4_exp_EVA_AWA_CON	70	B	A	Rpleas_acq	Oppo	Rpleas	1pleas	acq_US_unple_nomask	acq2_nomask	2	9	480	0	300	300	0	0	618	46	1	0	schön	treu	spielen	retten	tolerant	fair	schlecht	tot	strafen	rächen	tyrannisch	faul	helfen	lachen	schlau	freundlich	loyal	ehrlich	hindern	leiden	schroff	fanatisch	lasch	eitel	1	blank2r.bmp	0	1	+	0	1	blank2r.bmp	500	1	GKQX	500	1	blank2r.bmp	880	5	tyrannisch	880	1	!	1313	1	!	-1	0	0	0	0	0	0
2024-06-05	12:13:18	12:17:10	231477	6.6.1	4_exp_EVA_AWA_CON	70	B	A	Rpleas_acq	Oppo	Rpleas	1pleas	acq_US_unple_nomask	acq2_nomask	2	10	480	1	300	300	0	0	499	46	1	0	schön	treu	spielen	retten	tolerant	fair	schlecht	tot	strafen	rächen	tyrannisch	faul	helfen	lachen	schlau	freundlich	loyal	ehrlich	hindern	leiden	schroff	fanatisch	lasch	eitel	1	blank2r.bmp	0	1	+	0	1	blank2r.bmp	500	1	GKQX	500	1	blank2r.bmp	880	1	schlecht	880	1	!	1312	1	!	1399	0	0	0	0	0	0
2024-06-05	12:13:18	12:17:12	233741	6.6.1	4_exp_EVA_AWA_CON	70	B	A	Rpleas_acq	Oppo	Rpleas	1pleas	acq_US_pleas_nomask	acq2_nomask	2	11	480	1	300	300	0	0	481	50	1	0	schön	treu	spielen	retten	tolerant	fair	schlecht	tot	strafen	rächen	tyrannisch	faul	helfen	lachen	schlau	freundlich	loyal	ehrlich	hindern	leiden	schroff	fanatisch	lasch	eitel	1	blank2r.bmp	0	1	+	0	1	blank2r.bmp	500	1	BMVZ	500	1	blank2r.bmp	880	6	fair	880	1	!	1313	1	!	1383	0	0	0	0	0	0
2024-06-05	12:13:18	12:17:15	235997	6.6.1	4_exp_EVA_AWA_CON	70	B	A	Rpleas_acq	Oppo	Rpleas	1pleas	acq_new_unple_nomask	acq2_nomask	2	12	480	1	300	300	0	0	476	46	1	0	schön	treu	spielen	retten	tolerant	fair	schlecht	tot	strafen	rächen	tyrannisch	faul	helfen	lachen	schlau	freundlich	loyal	ehrlich	hindern	leiden	schroff	fanatisch	lasch	eitel	1	blank2r.bmp	0	1	+	0	1	blank2r.bmp	500	8	C4r.bmp	500	1	blank2r.bmp	880	3	schroff	880	1	!	1313	1	!	1377	0	0	0	0	0	0
2024-06-05	12:13:18	12:17:17	238261	6.6.1	4_exp_EVA_AWA_CON	70	B	A	Rpleas_acq	Oppo	Rpleas	1pleas	acq_US_unple_nomask	acq2_nomask	2	13	480	1	300	300	0	0	488	46	1	0	schön	treu	spielen	retten	tolerant	fair	schlecht	tot	strafen	rächen	tyrannisch	faul	helfen	lachen	schlau	freundlich	loyal	ehrlich	hindern	leiden	schroff	fanatisch	lasch	eitel	1	blank2r.bmp	0	1	+	0	1	blank2r.bmp	500	1	GKQX	500	1	blank2r.bmp	880	5	tyrannisch	880	1	!	1312	1	!	1389	0	0	0	0	0	0
2024-06-05	12:13:18	12:17:19	240589	6.6.1	4_exp_EVA_AWA_CON	70	B	A	Rpleas_acq	Oppo	Rpleas	1pleas	acq_new_pleas_nomask	acq2_nomask	2	14	480	1	300	300	0	0	545	50	1	0	schön	treu	spielen	retten	tolerant	fair	schlecht	tot	strafen	rächen	tyrannisch	faul	helfen	lachen	schlau	freundlich	loyal	ehrlich	hindern	leiden	schroff	fanatisch	lasch	eitel	1	blank2r.bmp	0	1	+	0	1	blank2r.bmp	500	2	B2r.bmp	500	1	blank2r.bmp	880	3	schlau	880	1	!	1312	1	!	1446	0	0	0	0	0	0
2024-06-05	12:13:18	12:17:22	242939	6.6.1	4_exp_EVA_AWA_CON	70	B	A	Rpleas_acq	Oppo	Rpleas	1pleas	acq_new_pleas_nomask	acq2_nomask	2	15	480	0	300	300	0	0	575	50	1	0	schön	treu	spielen	retten	tolerant	fair	schlecht	tot	strafen	rächen	tyrannisch	faul	helfen	lachen	schlau	freundlich	loyal	ehrlich	hindern	leiden	schroff	fanatisch	lasch	eitel	1	blank2r.bmp	0	1	+	0	1	blank2r.bmp	500	7	C3r.bmp	500	1	blank2r.bmp	880	1	helfen	880	1	!	1312	1	!	-1	0	0	0	0	0	0
2024-06-05	12:13:18	12:17:26	247379	6.6.1	4_exp_EVA_AWA_CON	70	B	A	Rpleas_acq	Oppo	Rpleas	1pleas	acq_new_pleas_nomask	acq2_nomask	2	16	480	0	300	300	0	0	2664	50	1	0	schön	treu	spielen	retten	tolerant	fair	schlecht	tot	strafen	rächen	tyrannisch	faul	helfen	lachen	schlau	freundlich	loyal	ehrlich	hindern	leiden	schroff	fanatisch	lasch	eitel	1	blank2r.bmp	0	1	+	0	1	blank2r.bmp	500	6	C2r.bmp	500	1	blank2r.bmp	880	6	ehrlich	880	1	!	1312	1	!	-1	0	0	0	0	0	0
2024-06-05	12:13:18	12:17:29	249947	6.6.1	4_exp_EVA_AWA_CON	70	B	A	Rpleas_acq	Oppo	Rpleas	1pleas	acq_US_unple_nomask	acq2_nomask	2	17	480	0	300	300	0	0	789	46	1	0	schön	treu	spielen	retten	tolerant	fair	schlecht	tot	strafen	rächen	tyrannisch	faul	helfen	lachen	schlau	freundlich	loyal	ehrlich	hindern	leiden	schroff	fanatisch	lasch	eitel	1	blank2r.bmp	0	1	+	0	1	blank2r.bmp	500	1	GKQX	500	1	blank2r.bmp	880	2	tot	880	1	!	1312	1	!	-1	0	0	0	0	0	0
2024-06-05	12:13:18	12:17:31	252269	6.6.1	4_exp_EVA_AWA_CON	70	B	A	Rpleas_acq	Oppo	Rpleas	1pleas	acq_new_unple_nomask	acq2_nomask	2	18	480	1	300	300	0	0	547	46	1	0	schön	treu	spielen	retten	tolerant	fair	schlecht	tot	strafen	rächen	tyrannisch	faul	helfen	lachen	schlau	freundlich	loyal	ehrlich	hindern	leiden	schroff	fanatisch	lasch	eitel	1	blank2r.bmp	0	1	+	0	1	blank2r.bmp	500	5	C1r.bmp	500	1	blank2r.bmp	880	6	eitel	880	1	!	1312	1	!	1448	0	0	0	0	0	0
2024-06-05	12:13:18	12:17:33	254723	6.6.1	4_exp_EVA_AWA_CON	70	B	A	Rpleas_acq	Oppo	Rpleas	1pleas	acq_US_pleas_nomask	acq2_nomask	2	19	480	0	300	300	0	0	682	50	1	0	schön	treu	spielen	retten	tolerant	fair	schlecht	tot	strafen	rächen	tyrannisch	faul	helfen	lachen	schlau	freundlich	loyal	ehrlich	hindern	leiden	schroff	fanatisch	lasch	eitel	1	blank2r.bmp	0	1	+	0	1	blank2r.bmp	500	1	BMVZ	500	1	blank2r.bmp	880	5	tolerant	880	1	!	1313	1	!	-1	0	0	0	0	0	0
2024-06-05	12:13:18	12:17:36	257731	6.6.1	4_exp_EVA_AWA_CON	70	B	A	Rpleas_acq	Oppo	Rpleas	1pleas	acq_new_unple_nomask	acq2_nomask	2	20	480	0	300	300	0	0	1228	46	1	0	schön	treu	spielen	retten	tolerant	fair	schlecht	tot	strafen	rächen	tyrannisch	faul	helfen	lachen	schlau	freundlich	loyal	ehrlich	hindern	leiden	schroff	fanatisch	lasch	eitel	1	blank2r.bmp	0	1	+	0	1	blank2r.bmp	500	1	B1r.bmp	500	1	blank2r.bmp	880	4	fanatisch	880	1	!	1313	1	!	-1	0	0	0	0	0	0
2024-06-05	12:13:18	12:17:39	260276	6.6.1	4_exp_EVA_AWA_CON	70	B	A	Rpleas_acq	Oppo	Rpleas	1pleas	acq_new_unple_nomask	acq2_nomask	2	21	480	0	300	300	0	0	770	46	1	0	schön	treu	spielen	retten	tolerant	fair	schlecht	tot	strafen	rächen	tyrannisch	faul	helfen	lachen	schlau	freundlich	loyal	ehrlich	hindern	leiden	schroff	fanatisch	lasch	eitel	1	blank2r.bmp	0	1	+	0	1	blank2r.bmp	500	8	C4r.bmp	500	1	blank2r.bmp	880	5	lasch	880	1	!	1313	1	!	-1	0	0	0	0	0	0
2024-06-05	12:13:18	12:17:41	262651	6.6.1	4_exp_EVA_AWA_CON	70	B	A	Rpleas_acq	Oppo	Rpleas	1pleas	acq_US_pleas_nomask	acq2_nomask	2	22	480	0	300	300	0	0	595	50	1	0	schön	treu	spielen	retten	tolerant	fair	schlecht	tot	strafen	rächen	tyrannisch	faul	helfen	lachen	schlau	freundlich	loyal	ehrlich	hindern	leiden	schroff	fanatisch	lasch	eitel	1	blank2r.bmp	0	1	+	0	1	blank2r.bmp	500	1	BMVZ	500	1	blank2r.bmp	880	6	fair	880	1	!	1312	1	!	-1	0	0	0	0	0	0
2024-06-05	12:13:18	12:17:44	265027	6.6.1	4_exp_EVA_AWA_CON	70	B	A	Rpleas_acq	Oppo	Rpleas	1pleas	acq_US_unple_nomask	acq2_nomask	2	23	480	0	300	300	0	0	599	46	1	0	schön	treu	spielen	retten	tolerant	fair	schlecht	tot	strafen	rächen	tyrannisch	faul	helfen	lachen	schlau	freundlich	loyal	ehrlich	hindern	leiden	schroff	fanatisch	lasch	eitel	1	blank2r.bmp	0	1	+	0	1	blank2r.bmp	500	1	GKQX	500	1	blank2r.bmp	880	3	strafen	880	1	!	1313	1	!	-1	0	0	0	0	0	0
2024-06-05	12:13:18	12:17:46	267939	6.6.1	4_exp_EVA_AWA_CON	70	B	A	Rpleas_acq	Oppo	Rpleas	1pleas	acq_US_pleas_nomask	acq2_nomask	2	24	480	0	300	300	0	0	1140	50	1	0	schön	treu	spielen	retten	tolerant	fair	schlecht	tot	strafen	rächen	tyrannisch	faul	helfen	lachen	schlau	freundlich	loyal	ehrlich	hindern	leiden	schroff	fanatisch	lasch	eitel	1	blank2r.bmp	0	1	+	0	1	blank2r.bmp	500	1	BMVZ	500	1	blank2r.bmp	880	4	retten	880	1	!	1312	1	!	-1	0	0	0	0	0	0
2024-06-05	12:13:18	12:17:49	270715	6.6.1	4_exp_EVA_AWA_CON	70	B	A	Rpleas_acq	Oppo	Rpleas	1pleas	acq_new_pleas_nomask	acq2_nomask	2	25	480	0	300	300	0	0	1004	50	1	0	schön	treu	spielen	retten	tolerant	fair	schlecht	tot	strafen	rächen	tyrannisch	faul	helfen	lachen	schlau	freundlich	loyal	ehrlich	hindern	leiden	schroff	fanatisch	lasch	eitel	1	blank2r.bmp	0	1	+	0	1	blank2r.bmp	500	3	B3r.bmp	500	1	blank2r.bmp	880	5	loyal	880	1	!	1312	1	!	-1	0	0	0	0	0	0
2024-06-05	12:13:18	12:17:52	273091	6.6.1	4_exp_EVA_AWA_CON	70	B	A	Rpleas_acq	Oppo	Rpleas	1pleas	acq_US_unple_nomask	acq2_nomask	2	26	480	0	300	300	0	0	598	46	1	0	schön	treu	spielen	retten	tolerant	fair	schlecht	tot	strafen	rächen	tyrannisch	faul	helfen	lachen	schlau	freundlich	loyal	ehrlich	hindern	leiden	schroff	fanatisch	lasch	eitel	1	blank2r.bmp	0	1	+	0	1	blank2r.bmp	500	1	GKQX	500	1	blank2r.bmp	880	1	schlecht	880	1	!	1313	1	!	-1	0	0	0	0	0	0
2024-06-05	12:13:18	12:17:57	278819	6.6.1	4_exp_EVA_AWA_CON	70	B	A	Rpleas_acq	Oppo	Rpleas	1pleas	acq_new_unple_nomask	acq2_nomask	2	27	480	0	300	300	0	0	3954	46	1	0	schön	treu	spielen	retten	tolerant	fair	schlecht	tot	strafen	rächen	tyrannisch	faul	helfen	lachen	schlau	freundlich	loyal	ehrlich	hindern	leiden	schroff	fanatisch	lasch	eitel	1	blank2r.bmp	0	1	+	0	1	blank2r.bmp	500	4	B4r.bmp	500	1	blank2r.bmp	880	2	leiden	880	1	!	1312	1	!	-1	0	0	0	0	0	0
2024-06-05	12:13:18	12:18:00	281077	6.6.1	4_exp_EVA_AWA_CON	70	B	A	Rpleas_acq	Oppo	Rpleas	1pleas	acq_US_pleas_nomask	acq2_nomask	2	28	480	1	300	300	0	0	477	50	1	0	schön	treu	spielen	retten	tolerant	fair	schlecht	tot	strafen	rächen	tyrannisch	faul	helfen	lachen	schlau	freundlich	loyal	ehrlich	hindern	leiden	schroff	fanatisch	lasch	eitel	1	blank2r.bmp	0	1	+	0	1	blank2r.bmp	500	1	BMVZ	500	1	blank2r.bmp	880	1	schön	880	1	!	1312	1	!	1378	0	0	0	0	0	0
2024-06-05	12:13:18	12:18:02	283373	6.6.1	4_exp_EVA_AWA_CON	70	B	A	Rpleas_acq	Oppo	Rpleas	1pleas	acq_US_unple_nomask	acq2_nomask	2	29	480	1	300	300	0	0	521	46	1	0	schön	treu	spielen	retten	tolerant	fair	schlecht	tot	strafen	rächen	tyrannisch	faul	helfen	lachen	schlau	freundlich	loyal	ehrlich	hindern	leiden	schroff	fanatisch	lasch	eitel	1	blank2r.bmp	0	1	+	0	1	blank2r.bmp	500	1	GKQX	500	1	blank2r.bmp	880	4	rächen	880	1	!	1312	1	!	1423	0	0	0	0	0	0
2024-06-05	12:13:18	12:18:04	285621	6.6.1	4_exp_EVA_AWA_CON	70	B	A	Rpleas_acq	Oppo	Rpleas	1pleas	acq_US_pleas_nomask	acq2_nomask	2	30	480	1	300	300	0	0	468	50	1	0	schön	treu	spielen	retten	tolerant	fair	schlecht	tot	strafen	rächen	tyrannisch	faul	helfen	lachen	schlau	freundlich	loyal	ehrlich	hindern	leiden	schroff	fanatisch	lasch	eitel	1	blank2r.bmp	0	1	+	0	1	blank2r.bmp	500	1	BMVZ	500	1	blank2r.bmp	880	3	spielen	880	1	!	1313	1	!	1369	0	0	0	0	0	0
2024-06-05	12:13:18	12:18:06	287804	6.6.1	4_exp_EVA_AWA_CON	70	B	A	Rpleas_acq	Oppo	Rpleas	1pleas	acq_new_unple_nomask	acq2_nomask	2	31	480	0	300	300	0	0	410	46	1	0	schön	treu	spielen	retten	tolerant	fair	schlecht	tot	strafen	rächen	tyrannisch	faul	helfen	lachen	schlau	freundlich	loyal	ehrlich	hindern	leiden	schroff	fanatisch	lasch	eitel	1	blank2r.bmp	0	1	+	0	1	blank2r.bmp	500	2	B2r.bmp	500	1	blank2r.bmp	880	3	schroff	880	1	!	-1	1	!	-1	0	0	0	0	0	0
2024-06-05	12:13:18	12:18:09	290093	6.6.1	4_exp_EVA_AWA_CON	70	B	A	Rpleas_acq	Oppo	Rpleas	1pleas	acq_new_unple_nomask	acq2_nomask	2	32	480	1	300	300	0	0	507	46	1	0	schön	treu	spielen	retten	tolerant	fair	schlecht	tot	strafen	rächen	tyrannisch	faul	helfen	lachen	schlau	freundlich	loyal	ehrlich	hindern	leiden	schroff	fanatisch	lasch	eitel	1	blank2r.bmp	0	1	+	0	1	blank2r.bmp	500	3	B3r.bmp	500	1	blank2r.bmp	880	1	hindern	880	1	!	1313	1	!	1408	0	0	0	0	0	0
2024-06-05	12:13:18	12:18:11	292235	6.6.1	4_exp_EVA_AWA_CON	70	B	A	Rpleas_acq	Oppo	Rpleas	1pleas	acq_new_pleas_nomask	acq2_nomask	2	33	480	0	300	300	0	0	369	50	1	0	schön	treu	spielen	retten	tolerant	fair	schlecht	tot	strafen	rächen	tyrannisch	faul	helfen	lachen	schlau	freundlich	loyal	ehrlich	hindern	leiden	schroff	fanatisch	lasch	eitel	1	blank2r.bmp	0	1	+	0	1	blank2r.bmp	500	4	B4r.bmp	500	1	blank2r.bmp	880	4	freundlich	880	1	!	-1	1	!	-1	0	0	0	0	0	0
2024-06-05	12:13:18	12:18:13	294444	6.6.1	4_exp_EVA_AWA_CON	70	B	A	Rpleas_acq	Oppo	Rpleas	1pleas	acq_US_unple_nomask	acq2_nomask	2	34	480	1	300	300	0	0	426	46	1	0	schön	treu	spielen	retten	tolerant	fair	schlecht	tot	strafen	rächen	tyrannisch	faul	helfen	lachen	schlau	freundlich	loyal	ehrlich	hindern	leiden	schroff	fanatisch	lasch	eitel	1	blank2r.bmp	0	1	+	0	1	blank2r.bmp	500	1	GKQX	500	1	blank2r.bmp	880	6	faul	880	1	!	1313	1	!	1327	0	0	0	0	0	0
2024-06-05	12:13:18	12:18:15	296652	6.6.1	4_exp_EVA_AWA_CON	70	B	A	Rpleas_acq	Oppo	Rpleas	1pleas	acq_new_pleas_nomask	acq2_nomask	2	35	480	1	300	300	0	0	433	50	1	0	schön	treu	spielen	retten	tolerant	fair	schlecht	tot	strafen	rächen	tyrannisch	faul	helfen	lachen	schlau	freundlich	loyal	ehrlich	hindern	leiden	schroff	fanatisch	lasch	eitel	1	blank2r.bmp	0	1	+	0	1	blank2r.bmp	500	1	B1r.bmp	500	1	blank2r.bmp	880	2	lachen	880	1	!	1312	1	!	1334	0	0	0	0	0	0
2024-06-05	12:13:18	12:18:18	299078	6.6.1	4_exp_EVA_AWA_CON	70	B	A	Rpleas_acq	Oppo	Rpleas	1pleas	acq_US_pleas_nomask	acq2_nomask	2	36	480	1	300	300	0	0	445	46	0	0	schön	treu	spielen	retten	tolerant	fair	schlecht	tot	strafen	rächen	tyrannisch	faul	helfen	lachen	schlau	freundlich	loyal	ehrlich	hindern	leiden	schroff	fanatisch	lasch	eitel	1	blank2r.bmp	0	1	+	0	1	blank2r.bmp	500	1	BMVZ	500	1	blank2r.bmp	880	2	treu	880	1	FEHLER	1638	1	!	1312	1	!	1346	0	0	0
2024-06-05	12:13:18	12:18:33	314493	6.6.1	4_exp_EVA_AWA_CON	70	B	A	Rpleas_acq	Oppo	Rpleas	1pleas	acq_US_unple_nomask	acq3_nomask	3	1	453	1	300	300	0	0	471	46	1	0	schön	treu	spielen	retten	tolerant	fair	schlecht	tot	strafen	rächen	tyrannisch	faul	helfen	lachen	schlau	freundlich	loyal	ehrlich	hindern	leiden	schroff	fanatisch	lasch	eitel	1	blank2r.bmp	0	1	+	0	1	blank2r.bmp	500	1	GKQX	500	1	blank2r.bmp	880	3	strafen	880	1	!	1292	1	!	1372	0	0	0	0	0	0
2024-06-05	12:13:18	12:18:35	316740	6.6.1	4_exp_EVA_AWA_CON	70	B	A	Rpleas_acq	Oppo	Rpleas	1pleas	acq_US_pleas_nomask	acq3_nomask	3	2	453	1	300	300	0	0	468	50	1	0	schön	treu	spielen	retten	tolerant	fair	schlecht	tot	strafen	rächen	tyrannisch	faul	helfen	lachen	schlau	freundlich	loyal	ehrlich	hindern	leiden	schroff	fanatisch	lasch	eitel	1	blank2r.bmp	0	1	+	0	1	blank2r.bmp	500	1	BMVZ	500	1	blank2r.bmp	880	2	treu	880	1	!	1292	1	!	1369	0	0	0	0	0	0
2024-06-05	12:13:18	12:18:38	319150	6.6.1	4_exp_EVA_AWA_CON	70	B	A	Rpleas_acq	Oppo	Rpleas	1pleas	acq_US_unple_nomask	acq3_nomask	3	3	453	1	300	300	0	0	434	50	0	0	schön	treu	spielen	retten	tolerant	fair	schlecht	tot	strafen	rächen	tyrannisch	faul	helfen	lachen	schlau	freundlich	loyal	ehrlich	hindern	leiden	schroff	fanatisch	lasch	eitel	1	blank2r.bmp	0	1	+	0	1	blank2r.bmp	500	1	GKQX	500	1	blank2r.bmp	880	6	faul	880	1	FEHLER	1627	1	!	1293	1	!	1336	0	0	0
2024-06-05	12:13:18	12:18:40	321220	6.6.1	4_exp_EVA_AWA_CON	70	B	A	Rpleas_acq	Oppo	Rpleas	1pleas	acq_US_unple_nomask	acq3_nomask	3	4	453	1	300	300	0	0	495	46	1	0	schön	treu	spielen	retten	tolerant	fair	schlecht	tot	strafen	rächen	tyrannisch	faul	helfen	lachen	schlau	freundlich	loyal	ehrlich	hindern	leiden	schroff	fanatisch	lasch	eitel	1	blank2r.bmp	0	1	+	0	1	blank2r.bmp	500	1	GKQX	500	1	blank2r.bmp	880	2	tot	880	1	!	1292	1	!	1396	0	0	0	0	0	0
2024-06-05	12:13:18	12:18:42	323421	6.6.1	4_exp_EVA_AWA_CON	70	B	A	Rpleas_acq	Oppo	Rpleas	1pleas	acq_US_pleas_nomask	acq3_nomask	3	5	453	1	300	300	0	0	423	50	1	0	schön	treu	spielen	retten	tolerant	fair	schlecht	tot	strafen	rächen	tyrannisch	faul	helfen	lachen	schlau	freundlich	loyal	ehrlich	hindern	leiden	schroff	fanatisch	lasch	eitel	1	blank2r.bmp	0	1	+	0	1	blank2r.bmp	500	1	BMVZ	500	1	blank2r.bmp	880	1	schön	880	1	!	1292	1	!	1324	0	0	0	0	0	0
2024-06-05	12:13:18	12:18:44	325739	6.6.1	4_exp_EVA_AWA_CON	70	B	A	Rpleas_acq	Oppo	Rpleas	1pleas	acq_US_pleas_nomask	acq3_nomask	3	6	453	0	300	300	0	0	542	50	1	0	schön	treu	spielen	retten	tolerant	fair	schlecht	tot	strafen	rächen	tyrannisch	faul	helfen	lachen	schlau	freundlich	loyal	ehrlich	hindern	leiden	schroff	fanatisch	lasch	eitel	1	blank2r.bmp	0	1	+	0	1	blank2r.bmp	500	1	BMVZ	500	1	blank2r.bmp	880	6	fair	880	1	!	1292	1	!	-1	0	0	0	0	0	0
2024-06-05	12:13:18	12:18:47	328037	6.6.1	4_exp_EVA_AWA_CON	70	B	A	Rpleas_acq	Oppo	Rpleas	1pleas	acq_US_unple_nomask	acq3_nomask	3	7	453	1	300	300	0	0	517	46	1	0	schön	treu	spielen	retten	tolerant	fair	schlecht	tot	strafen	rächen	tyrannisch	faul	helfen	lachen	schlau	freundlich	loyal	ehrlich	hindern	leiden	schroff	fanatisch	lasch	eitel	1	blank2r.bmp	0	1	+	0	1	blank2r.bmp	500	1	GKQX	500	1	blank2r.bmp	880	4	rächen	880	1	!	1293	1	!	1418	0	0	0	0	0	0
2024-06-05	12:13:18	12:18:49	330371	6.6.1	4_exp_EVA_AWA_CON	70	B	A	Rpleas_acq	Oppo	Rpleas	1pleas	acq_US_unple_nomask	acq3_nomask	3	8	453	0	300	300	0	0	561	46	1	0	schön	treu	spielen	retten	tolerant	fair	schlecht	tot	strafen	rächen	tyrannisch	faul	helfen	lachen	schlau	freundlich	loyal	ehrlich	hindern	leiden	schroff	fanatisch	lasch	eitel	1	blank2r.bmp	0	1	+	0	1	blank2r.bmp	500	1	GKQX	500	1	blank2r.bmp	880	5	tyrannisch	880	1	!	1292	1	!	-1	0	0	0	0	0	0
2024-06-05	12:13:18	12:18:51	332539	6.6.1	4_exp_EVA_AWA_CON	70	B	A	Rpleas_acq	Oppo	Rpleas	1pleas	acq_US_pleas_nomask	acq3_nomask	3	9	453	0	300	300	0	0	388	50	1	0	schön	treu	spielen	retten	tolerant	fair	schlecht	tot	strafen	rächen	tyrannisch	faul	helfen	lachen	schlau	freundlich	loyal	ehrlich	hindern	leiden	schroff	fanatisch	lasch	eitel	1	blank2r.bmp	0	1	+	0	1	blank2r.bmp	500	1	BMVZ	500	1	blank2r.bmp	880	3	spielen	880	1	!	-1	1	!	-1	0	0	0	0	0	0
2024-06-05	12:13:18	12:18:53	334902	6.6.1	4_exp_EVA_AWA_CON	70	B	A	Rpleas_acq	Oppo	Rpleas	1pleas	acq_US_unple_nomask	acq3_nomask	3	10	453	0	300	300	0	0	386	50	0	0	schön	treu	spielen	retten	tolerant	fair	schlecht	tot	strafen	rächen	tyrannisch	faul	helfen	lachen	schlau	freundlich	loyal	ehrlich	hindern	leiden	schroff	fanatisch	lasch	eitel	1	blank2r.bmp	0	1	+	0	1	blank2r.bmp	500	1	GKQX	500	1	blank2r.bmp	880	1	schlecht	880	1	FEHLER	1579	1	!	-1	1	!	-1	0	0	0
2024-06-05	12:13:18	12:18:56	337278	6.6.1	4_exp_EVA_AWA_CON	70	B	A	Rpleas_acq	Oppo	Rpleas	1pleas	acq_US_pleas_nomask	acq3_nomask	3	11	453	0	300	300	0	0	601	46	0	0	schön	treu	spielen	retten	tolerant	fair	schlecht	tot	strafen	rächen	tyrannisch	faul	helfen	lachen	schlau	freundlich	loyal	ehrlich	hindern	leiden	schroff	fanatisch	lasch	eitel	1	blank2r.bmp	0	1	+	0	1	blank2r.bmp	500	1	BMVZ	500	1	blank2r.bmp	880	4	retten	880	1	FEHLER	1794	1	!	1292	1	!	-1	0	0	0
2024-06-05	12:13:18	12:18:58	339803	6.6.1	4_exp_EVA_AWA_CON	70	B	A	Rpleas_acq	Oppo	Rpleas	1pleas	acq_US_pleas_nomask	acq3_nomask	3	12	453	0	300	300	0	0	947	50	1	0	schön	treu	spielen	retten	tolerant	fair	schlecht	tot	strafen	rächen	tyrannisch	faul	helfen	lachen	schlau	freundlich	loyal	ehrlich	hindern	leiden	schroff	fanatisch	lasch	eitel	1	blank2r.bmp	0	1	+	0	1	blank2r.bmp	500	1	BMVZ	500	1	blank2r.bmp	880	5	tolerant	880	1	!	1292	1	!	-1	0	0	0	0	0	0
2024-06-05	12:13:18	12:19:01	342053	6.6.1	4_exp_EVA_AWA_CON	70	B	A	Rpleas_acq	Oppo	Rpleas	1pleas	acq_US_pleas_nomask	acq3_nomask	3	13	453	1	300	300	0	0	474	50	1	0	schön	treu	spielen	retten	tolerant	fair	schlecht	tot	strafen	rächen	tyrannisch	faul	helfen	lachen	schlau	freundlich	loyal	ehrlich	hindern	leiden	schroff	fanatisch	lasch	eitel	1	blank2r.bmp	0	1	+	0	1	blank2r.bmp	500	1	BMVZ	500	1	blank2r.bmp	880	3	spielen	880	1	!	1292	1	!	1375	0	0	0	0	0	0
2024-06-05	12:13:18	12:19:03	344211	6.6.1	4_exp_EVA_AWA_CON	70	B	A	Rpleas_acq	Oppo	Rpleas	1pleas	acq_US_unple_nomask	acq3_nomask	3	14	453	0	300	300	0	0	382	46	1	0	schön	treu	spielen	retten	tolerant	fair	schlecht	tot	strafen	rächen	tyrannisch	faul	helfen	lachen	schlau	freundlich	loyal	ehrlich	hindern	leiden	schroff	fanatisch	lasch	eitel	1	blank2r.bmp	0	1	+	0	1	blank2r.bmp	500	1	GKQX	500	1	blank2r.bmp	880	6	faul	880	1	!	-1	1	!	-1	0	0	0	0	0	0
2024-06-05	12:13:18	12:19:05	346445	6.6.1	4_exp_EVA_AWA_CON	70	B	A	Rpleas_acq	Oppo	Rpleas	1pleas	acq_US_pleas_nomask	acq3_nomask	3	15	453	1	300	300	0	0	453	50	1	0	schön	treu	spielen	retten	tolerant	fair	schlecht	tot	strafen	rächen	tyrannisch	faul	helfen	lachen	schlau	freundlich	loyal	ehrlich	hindern	leiden	schroff	fanatisch	lasch	eitel	1	blank2r.bmp	0	1	+	0	1	blank2r.bmp	500	1	BMVZ	500	1	blank2r.bmp	880	6	fair	880	1	!	1292	1	!	1354	0	0	0	0	0	0
2024-06-05	12:13:18	12:19:07	348531	6.6.1	4_exp_EVA_AWA_CON	70	B	A	Rpleas_acq	Oppo	Rpleas	1pleas	acq_US_unple_nomask	acq3_nomask	3	16	453	0	300	300	0	0	309	46	1	0	schön	treu	spielen	retten	tolerant	fair	schlecht	tot	strafen	rächen	tyrannisch	faul	helfen	lachen	schlau	freundlich	loyal	ehrlich	hindern	leiden	schroff	fanatisch	lasch	eitel	1	blank2r.bmp	0	1	+	0	1	blank2r.bmp	500	1	GKQX	500	1	blank2r.bmp	880	1	schlecht	880	1	!	-1	1	!	-1	0	0	0	0	0	0
2024-06-05	12:13:18	12:19:09	350780	6.6.1	4_exp_EVA_AWA_CON	70	B	A	Rpleas_acq	Oppo	Rpleas	1pleas	acq_US_pleas_nomask	acq3_nomask	3	17	453	1	300	300	0	0	476	50	1	0	schön	treu	spielen	retten	tolerant	fair	schlecht	tot	strafen	rächen	tyrannisch	faul	helfen	lachen	schlau	freundlich	loyal	ehrlich	hindern	leiden	schroff	fanatisch	lasch	eitel	1	blank2r.bmp	0	1	+	0	1	blank2r.bmp	500	1	BMVZ	500	1	blank2r.bmp	880	5	tolerant	880	1	!	1293	1	!	1377	0	0	0	0	0	0
2024-06-05	12:13:18	12:19:12	353013	6.6.1	4_exp_EVA_AWA_CON	70	B	A	Rpleas_acq	Oppo	Rpleas	1pleas	acq_US_pleas_nomask	acq3_nomask	3	18	453	1	300	300	0	0	457	50	1	0	schön	treu	spielen	retten	tolerant	fair	schlecht	tot	strafen	rächen	tyrannisch	faul	helfen	lachen	schlau	freundlich	loyal	ehrlich	hindern	leiden	schroff	fanatisch	lasch	eitel	1	blank2r.bmp	0	1	+	0	1	blank2r.bmp	500	1	BMVZ	500	1	blank2r.bmp	880	2	treu	880	1	!	1293	1	!	1358	0	0	0	0	0	0
2024-06-05	12:13:18	12:19:14	355381	6.6.1	4_exp_EVA_AWA_CON	70	B	A	Rpleas_acq	Oppo	Rpleas	1pleas	acq_US_unple_nomask	acq3_nomask	3	19	453	1	300	300	0	0	393	50	0	0	schön	treu	spielen	retten	tolerant	fair	schlecht	tot	strafen	rächen	tyrannisch	faul	helfen	lachen	schlau	freundlich	loyal	ehrlich	hindern	leiden	schroff	fanatisch	lasch	eitel	1	blank2r.bmp	0	1	+	0	1	blank2r.bmp	500	1	GKQX	500	1	blank2r.bmp	880	5	tyrannisch	880	1	FEHLER	1585	1	!	1292	1	!	1293	0	0	0
2024-06-05	12:13:18	12:19:16	357851	6.6.1	4_exp_EVA_AWA_CON	70	B	A	Rpleas_acq	Oppo	Rpleas	1pleas	acq_US_pleas_nomask	acq3_nomask	3	20	453	0	300	300	0	0	894	50	1	0	schön	treu	spielen	retten	tolerant	fair	schlecht	tot	strafen	rächen	tyrannisch	faul	helfen	lachen	schlau	freundlich	loyal	ehrlich	hindern	leiden	schroff	fanatisch	lasch	eitel	1	blank2r.bmp	0	1	+	0	1	blank2r.bmp	500	1	BMVZ	500	1	blank2r.bmp	880	4	retten	880	1	!	1292	1	!	-1	0	0	0	0	0	0
2024-06-05	12:13:18	12:19:19	360149	6.6.1	4_exp_EVA_AWA_CON	70	B	A	Rpleas_acq	Oppo	Rpleas	1pleas	acq_US_unple_nomask	acq3_nomask	3	21	453	1	300	300	0	0	518	46	1	0	schön	treu	spielen	retten	tolerant	fair	schlecht	tot	strafen	rächen	tyrannisch	faul	helfen	lachen	schlau	freundlich	loyal	ehrlich	hindern	leiden	schroff	fanatisch	lasch	eitel	1	blank2r.bmp	0	1	+	0	1	blank2r.bmp	500	1	GKQX	500	1	blank2r.bmp	880	3	strafen	880	1	!	1292	1	!	1419	0	0	0	0	0	0
2024-06-05	12:13:18	12:19:21	362364	6.6.1	4_exp_EVA_AWA_CON	70	B	A	Rpleas_acq	Oppo	Rpleas	1pleas	acq_US_unple_nomask	acq3_nomask	3	22	453	1	300	300	0	0	442	46	1	0	schön	treu	spielen	retten	tolerant	fair	schlecht	tot	strafen	rächen	tyrannisch	faul	helfen	lachen	schlau	freundlich	loyal	ehrlich	hindern	leiden	schroff	fanatisch	lasch	eitel	1	blank2r.bmp	0	1	+	0	1	blank2r.bmp	500	1	GKQX	500	1	blank2r.bmp	880	2	tot	880	1	!	1292	1	!	1343	0	0	0	0	0	0
2024-06-05	12:13:18	12:19:23	364581	6.6.1	4_exp_EVA_AWA_CON	70	B	A	Rpleas_acq	Oppo	Rpleas	1pleas	acq_US_pleas_nomask	acq3_nomask	3	23	453	1	300	300	0	0	437	50	1	0	schön	treu	spielen	retten	tolerant	fair	schlecht	tot	strafen	rächen	tyrannisch	faul	helfen	lachen	schlau	freundlich	loyal	ehrlich	hindern	leiden	schroff	fanatisch	lasch	eitel	1	blank2r.bmp	0	1	+	0	1	blank2r.bmp	500	1	BMVZ	500	1	blank2r.bmp	880	1	schön	880	1	!	1293	1	!	1338	0	0	0	0	0	0
2024-06-05	12:13:18	12:19:25	366812	6.6.1	4_exp_EVA_AWA_CON	70	B	A	Rpleas_acq	Oppo	Rpleas	1pleas	acq_US_unple_nomask	acq3_nomask	3	24	453	1	300	300	0	0	458	46	1	0	schön	treu	spielen	retten	tolerant	fair	schlecht	tot	strafen	rächen	tyrannisch	faul	helfen	lachen	schlau	freundlich	loyal	ehrlich	hindern	leiden	schroff	fanatisch	lasch	eitel	1	blank2r.bmp	0	1	+	0	1	blank2r.bmp	500	1	GKQX	500	1	blank2r.bmp	880	4	rächen	880	1	!	1292	1	!	1359	0	0	0	0	0	0
2024-06-05	12:13:18	12:19:28	368971	6.6.1	4_exp_EVA_AWA_CON	70	B	A	Rpleas_acq	Oppo	Rpleas	1pleas	acq_US_unple_nomask	acq3_nomask	3	25	453	0	300	300	0	0	386	46	1	0	schön	treu	spielen	retten	tolerant	fair	schlecht	tot	strafen	rächen	tyrannisch	faul	helfen	lachen	schlau	freundlich	loyal	ehrlich	hindern	leiden	schroff	fanatisch	lasch	eitel	1	blank2r.bmp	0	1	+	0	1	blank2r.bmp	500	1	GKQX	500	1	blank2r.bmp	880	6	faul	880	1	!	-1	1	!	-1	0	0	0	0	0	0
2024-06-05	12:13:18	12:19:30	371091	6.6.1	4_exp_EVA_AWA_CON	70	B	A	Rpleas_acq	Oppo	Rpleas	1pleas	acq_US_pleas_nomask	acq3_nomask	3	26	453	0	300	300	0	0	345	50	1	0	schön	treu	spielen	retten	tolerant	fair	schlecht	tot	strafen	rächen	tyrannisch	faul	helfen	lachen	schlau	freundlich	loyal	ehrlich	hindern	leiden	schroff	fanatisch	lasch	eitel	1	blank2r.bmp	0	1	+	0	1	blank2r.bmp	500	1	BMVZ	500	1	blank2r.bmp	880	3	spielen	880	1	!	-1	1	!	-1	0	0	0	0	0	0
2024-06-05	12:13:18	12:19:32	373494	6.6.1	4_exp_EVA_AWA_CON	70	B	A	Rpleas_acq	Oppo	Rpleas	1pleas	acq_US_pleas_nomask	acq3_nomask	3	27	453	1	300	300	0	0	423	46	0	0	schön	treu	spielen	retten	tolerant	fair	schlecht	tot	strafen	rächen	tyrannisch	faul	helfen	lachen	schlau	freundlich	loyal	ehrlich	hindern	leiden	schroff	fanatisch	lasch	eitel	1	blank2r.bmp	0	1	+	0	1	blank2r.bmp	500	1	BMVZ	500	1	blank2r.bmp	880	4	retten	880	1	FEHLER	1616	1	!	1293	1	!	1324	0	0	0
2024-06-05	12:13:18	12:19:34	375675	6.6.1	4_exp_EVA_AWA_CON	70	B	A	Rpleas_acq	Oppo	Rpleas	1pleas	acq_US_unple_nomask	acq3_nomask	3	28	453	0	300	300	0	0	606	46	1	0	schön	treu	spielen	retten	tolerant	fair	schlecht	tot	strafen	rächen	tyrannisch	faul	helfen	lachen	schlau	freundlich	loyal	ehrlich	hindern	leiden	schroff	fanatisch	lasch	eitel	1	blank2r.bmp	0	1	+	0	1	blank2r.bmp	500	1	GKQX	500	1	blank2r.bmp	880	3	strafen	880	1	!	1293	1	!	-1	0	0	0	0	0	0
2024-06-05	12:13:18	12:19:37	378011	6.6.1	4_exp_EVA_AWA_CON	70	B	A	Rpleas_acq	Oppo	Rpleas	1pleas	acq_US_unple_nomask	acq3_nomask	3	29	453	0	300	300	0	0	561	46	1	0	schön	treu	spielen	retten	tolerant	fair	schlecht	tot	strafen	rächen	tyrannisch	faul	helfen	lachen	schlau	freundlich	loyal	ehrlich	hindern	leiden	schroff	fanatisch	lasch	eitel	1	blank2r.bmp	0	1	+	0	1	blank2r.bmp	500	1	GKQX	500	1	blank2r.bmp	880	1	schlecht	880	1	!	1293	1	!	-1	0	0	0	0	0	0
2024-06-05	12:13:18	12:19:39	380285	6.6.1	4_exp_EVA_AWA_CON	70	B	A	Rpleas_acq	Oppo	Rpleas	1pleas	acq_US_unple_nomask	acq3_nomask	3	30	453	1	300	300	0	0	491	46	1	0	schön	treu	spielen	retten	tolerant	fair	schlecht	tot	strafen	rächen	tyrannisch	faul	helfen	lachen	schlau	freundlich	loyal	ehrlich	hindern	leiden	schroff	fanatisch	lasch	eitel	1	blank2r.bmp	0	1	+	0	1	blank2r.bmp	500	1	GKQX	500	1	blank2r.bmp	880	4	rächen	880	1	!	1292	1	!	1392	0	0	0	0	0	0
2024-06-05	12:13:18	12:19:41	382500	6.6.1	4_exp_EVA_AWA_CON	70	B	A	Rpleas_acq	Oppo	Rpleas	1pleas	acq_US_unple_nomask	acq3_nomask	3	31	453	1	300	300	0	0	436	46	1	0	schön	treu	spielen	retten	tolerant	fair	schlecht	tot	strafen	rächen	tyrannisch	faul	helfen	lachen	schlau	freundlich	loyal	ehrlich	hindern	leiden	schroff	fanatisch	lasch	eitel	1	blank2r.bmp	0	1	+	0	1	blank2r.bmp	500	1	GKQX	500	1	blank2r.bmp	880	2	tot	880	1	!	1292	1	!	1336	0	0	0	0	0	0
2024-06-05	12:13:18	12:19:43	384801	6.6.1	4_exp_EVA_AWA_CON	70	B	A	Rpleas_acq	Oppo	Rpleas	1pleas	acq_US_pleas_nomask	acq3_nomask	3	32	453	0	300	300	0	0	528	50	1	0	schön	treu	spielen	retten	tolerant	fair	schlecht	tot	strafen	rächen	tyrannisch	faul	helfen	lachen	schlau	freundlich	loyal	ehrlich	hindern	leiden	schroff	fanatisch	lasch	eitel	1	blank2r.bmp	0	1	+	0	1	blank2r.bmp	500	1	BMVZ	500	1	blank2r.bmp	880	6	fair	880	1	!	1293	1	!	-1	0	0	0	0	0	0
2024-06-05	12:13:18	12:19:46	387171	6.6.1	4_exp_EVA_AWA_CON	70	B	A	Rpleas_acq	Oppo	Rpleas	1pleas	acq_US_pleas_nomask	acq3_nomask	3	33	453	0	300	300	0	0	595	50	1	0	schön	treu	spielen	retten	tolerant	fair	schlecht	tot	strafen	rächen	tyrannisch	faul	helfen	lachen	schlau	freundlich	loyal	ehrlich	hindern	leiden	schroff	fanatisch	lasch	eitel	1	blank2r.bmp	0	1	+	0	1	blank2r.bmp	500	1	BMVZ	500	1	blank2r.bmp	880	5	tolerant	880	1	!	1292	1	!	-1	0	0	0	0	0	0
2024-06-05	12:13:18	12:19:48	389453	6.6.1	4_exp_EVA_AWA_CON	70	B	A	Rpleas_acq	Oppo	Rpleas	1pleas	acq_US_pleas_nomask	acq3_nomask	3	34	453	1	300	300	0	0	503	50	1	0	schön	treu	spielen	retten	tolerant	fair	schlecht	tot	strafen	rächen	tyrannisch	faul	helfen	lachen	schlau	freundlich	loyal	ehrlich	hindern	leiden	schroff	fanatisch	lasch	eitel	1	blank2r.bmp	0	1	+	0	1	blank2r.bmp	500	1	BMVZ	500	1	blank2r.bmp	880	1	schön	880	1	!	1292	1	!	1404	0	0	0	0	0	0
2024-06-05	12:13:18	12:19:50	391652	6.6.1	4_exp_EVA_AWA_CON	70	B	A	Rpleas_acq	Oppo	Rpleas	1pleas	acq_US_pleas_nomask	acq3_nomask	3	35	453	1	300	300	0	0	422	50	1	0	schön	treu	spielen	retten	tolerant	fair	schlecht	tot	strafen	rächen	tyrannisch	faul	helfen	lachen	schlau	freundlich	loyal	ehrlich	hindern	leiden	schroff	fanatisch	lasch	eitel	1	blank2r.bmp	0	1	+	0	1	blank2r.bmp	500	1	BMVZ	500	1	blank2r.bmp	880	2	treu	880	1	!	1292	1	!	1322	0	0	0	0	0	0
2024-06-05	12:13:18	12:19:52	393925	6.6.1	4_exp_EVA_AWA_CON	70	B	A	Rpleas_acq	Oppo	Rpleas	1pleas	acq_US_unple_nomask	acq3_nomask	3	36	453	1	300	300	0	0	492	46	1	0	schön	treu	spielen	retten	tolerant	fair	schlecht	tot	strafen	rächen	tyrannisch	faul	helfen	lachen	schlau	freundlich	loyal	ehrlich	hindern	leiden	schroff	fanatisch	lasch	eitel	1	blank2r.bmp	0	1	+	0	1	blank2r.bmp	500	1	GKQX	500	1	blank2r.bmp	880	5	tyrannisch	880	1	!	1292	1	!	1393	0	0	0	0	0	0
2024-06-05	12:13:18	12:20:12	413451	6.6.1	4_exp_EVA_AWA_CON	70	B	A	Rpleas_acq	Oppo	Rpleas	1pleas	acq_US_unple_nomask	acq45_nomask	4	1	400	0	300	300	0	0	788	46	1	0	schön	treu	spielen	retten	tolerant	fair	schlecht	tot	strafen	rächen	tyrannisch	faul	helfen	lachen	schlau	freundlich	loyal	ehrlich	hindern	leiden	schroff	fanatisch	lasch	eitel	1	blank2r.bmp	0	1	+	0	1	blank2r.bmp	500	1	GKQX	500	1	blank2r.bmp	880	1	schlecht	880	1	!	1232	1	!	-1	0	0	0	0	0	0
2024-06-05	12:13:18	12:20:14	415731	6.6.1	4_exp_EVA_AWA_CON	70	B	A	Rpleas_acq	Oppo	Rpleas	1pleas	acq_US_unple_nomask	acq45_nomask	4	2	400	0	300	300	0	0	506	46	1	0	schön	treu	spielen	retten	tolerant	fair	schlecht	tot	strafen	rächen	tyrannisch	faul	helfen	lachen	schlau	freundlich	loyal	ehrlich	hindern	leiden	schroff	fanatisch	lasch	eitel	1	blank2r.bmp	0	1	+	0	1	blank2r.bmp	500	1	GKQX	500	1	blank2r.bmp	880	5	tyrannisch	880	1	!	1233	1	!	-1	0	0	0	0	0	0
2024-06-05	12:13:18	12:20:16	417933	6.6.1	4_exp_EVA_AWA_CON	70	B	A	Rpleas_acq	Oppo	Rpleas	1pleas	acq_US_pleas_nomask	acq45_nomask	4	3	400	1	300	300	0	0	425	50	1	0	schön	treu	spielen	retten	tolerant	fair	schlecht	tot	strafen	rächen	tyrannisch	faul	helfen	lachen	schlau	freundlich	loyal	ehrlich	hindern	leiden	schroff	fanatisch	lasch	eitel	1	blank2r.bmp	0	1	+	0	1	blank2r.bmp	500	1	BMVZ	500	1	blank2r.bmp	880	1	schön	880	1	!	1232	1	!	1326	0	0	0	0	0	0
2024-06-05	12:13:18	12:20:19	420069	6.6.1	4_exp_EVA_AWA_CON	70	B	A	Rpleas_acq	Oppo	Rpleas	1pleas	acq_US_unple_nomask	acq45_nomask	4	4	400	1	300	300	0	0	359	46	1	0	schön	treu	spielen	retten	tolerant	fair	schlecht	tot	strafen	rächen	tyrannisch	faul	helfen	lachen	schlau	freundlich	loyal	ehrlich	hindern	leiden	schroff	fanatisch	lasch	eitel	1	blank2r.bmp	0	1	+	0	1	blank2r.bmp	500	1	GKQX	500	1	blank2r.bmp	880	3	strafen	880	1	!	1232	1	!	1260	0	0	0	0	0	0
2024-06-05	12:13:18	12:20:21	422347	6.6.1	4_exp_EVA_AWA_CON	70	B	A	Rpleas_acq	Oppo	Rpleas	1pleas	acq_US_unple_nomask	acq45_nomask	4	5	400	0	300	300	0	0	498	46	1	0	schön	treu	spielen	retten	tolerant	fair	schlecht	tot	strafen	rächen	tyrannisch	faul	helfen	lachen	schlau	freundlich	loyal	ehrlich	hindern	leiden	schroff	fanatisch	lasch	eitel	1	blank2r.bmp	0	1	+	0	1	blank2r.bmp	500	1	GKQX	500	1	blank2r.bmp	880	4	rächen	880	1	!	1232	1	!	-1	0	0	0	0	0	0
2024-06-05	12:13:18	12:20:23	424627	6.6.1	4_exp_EVA_AWA_CON	70	B	A	Rpleas_acq	Oppo	Rpleas	1pleas	acq_US_pleas_nomask	acq45_nomask	4	6	400	0	300	300	0	0	506	50	1	0	schön	treu	spielen	retten	tolerant	fair	schlecht	tot	strafen	rächen	tyrannisch	faul	helfen	lachen	schlau	freundlich	loyal	ehrlich	hindern	leiden	schroff	fanatisch	lasch	eitel	1	blank2r.bmp	0	1	+	0	1	blank2r.bmp	500	1	BMVZ	500	1	blank2r.bmp	880	4	retten	880	1	!	1232	1	!	-1	0	0	0	0	0	0
2024-06-05	12:13:18	12:20:25	426813	6.6.1	4_exp_EVA_AWA_CON	70	B	A	Rpleas_acq	Oppo	Rpleas	1pleas	acq_US_unple_nomask	acq45_nomask	4	7	400	1	300	300	0	0	409	46	1	0	schön	treu	spielen	retten	tolerant	fair	schlecht	tot	strafen	rächen	tyrannisch	faul	helfen	lachen	schlau	freundlich	loyal	ehrlich	hindern	leiden	schroff	fanatisch	lasch	eitel	1	blank2r.bmp	0	1	+	0	1	blank2r.bmp	500	1	GKQX	500	1	blank2r.bmp	880	6	faul	880	1	!	1232	1	!	1310	0	0	0	0	0	0
2024-06-05	12:13:18	12:20:28	429036	6.6.1	4_exp_EVA_AWA_CON	70	B	A	Rpleas_acq	Oppo	Rpleas	1pleas	acq_US_unple_nomask	acq45_nomask	4	8	400	1	300	300	0	0	442	46	1	0	schön	treu	spielen	retten	tolerant	fair	schlecht	tot	strafen	rächen	tyrannisch	faul	helfen	lachen	schlau	freundlich	loyal	ehrlich	hindern	leiden	schroff	fanatisch	lasch	eitel	1	blank2r.bmp	0	1	+	0	1	blank2r.bmp	500	1	GKQX	500	1	blank2r.bmp	880	2	tot	880	1	!	1232	1	!	1342	0	0	0	0	0	0
2024-06-05	12:13:18	12:20:30	431189	6.6.1	4_exp_EVA_AWA_CON	70	B	A	Rpleas_acq	Oppo	Rpleas	1pleas	acq_US_unple_nomask	acq45_nomask	4	9	400	1	300	300	0	0	372	46	1	0	schön	treu	spielen	retten	tolerant	fair	schlecht	tot	strafen	rächen	tyrannisch	faul	helfen	lachen	schlau	freundlich	loyal	ehrlich	hindern	leiden	schroff	fanatisch	lasch	eitel	1	blank2r.bmp	0	1	+	0	1	blank2r.bmp	500	1	GKQX	500	1	blank2r.bmp	880	2	tot	880	1	!	1233	1	!	1273	0	0	0	0	0	0
2024-06-05	12:13:18	12:20:32	433603	6.6.1	4_exp_EVA_AWA_CON	70	B	A	Rpleas_acq	Oppo	Rpleas	1pleas	acq_US_pleas_nomask	acq45_nomask	4	10	400	0	300	300	0	0	637	50	1	0	schön	treu	spielen	retten	tolerant	fair	schlecht	tot	strafen	rächen	tyrannisch	faul	helfen	lachen	schlau	freundlich	loyal	ehrlich	hindern	leiden	schroff	fanatisch	lasch	eitel	1	blank2r.bmp	0	1	+	0	1	blank2r.bmp	500	1	BMVZ	500	1	blank2r.bmp	880	2	treu	880	1	!	1233	1	!	-1	0	0	0	0	0	0
2024-06-05	12:13:18	12:20:34	435899	6.6.1	4_exp_EVA_AWA_CON	70	B	A	Rpleas_acq	Oppo	Rpleas	1pleas	acq_US_pleas_nomask	acq45_nomask	4	11	400	0	300	300	0	0	521	50	1	0	schön	treu	spielen	retten	tolerant	fair	schlecht	tot	strafen	rächen	tyrannisch	faul	helfen	lachen	schlau	freundlich	loyal	ehrlich	hindern	leiden	schroff	fanatisch	lasch	eitel	1	blank2r.bmp	0	1	+	0	1	blank2r.bmp	500	1	BMVZ	500	1	blank2r.bmp	880	6	fair	880	1	!	1232	1	!	-1	0	0	0	0	0	0
2024-06-05	12:13:18	12:20:37	438148	6.6.1	4_exp_EVA_AWA_CON	70	B	A	Rpleas_acq	Oppo	Rpleas	1pleas	acq_US_pleas_nomask	acq45_nomask	4	12	400	1	300	300	0	0	468	50	1	0	schön	treu	spielen	retten	tolerant	fair	schlecht	tot	strafen	rächen	tyrannisch	faul	helfen	lachen	schlau	freundlich	loyal	ehrlich	hindern	leiden	schroff	fanatisch	lasch	eitel	1	blank2r.bmp	0	1	+	0	1	blank2r.bmp	500	1	BMVZ	500	1	blank2r.bmp	880	3	spielen	880	1	!	1232	1	!	1369	0	0	0	0	0	0
2024-06-05	12:13:18	12:20:39	440364	6.6.1	4_exp_EVA_AWA_CON	70	B	A	Rpleas_acq	Oppo	Rpleas	1pleas	acq_US_unple_nomask	acq45_nomask	4	13	400	1	300	300	0	0	442	46	1	0	schön	treu	spielen	retten	tolerant	fair	schlecht	tot	strafen	rächen	tyrannisch	faul	helfen	lachen	schlau	freundlich	loyal	ehrlich	hindern	leiden	schroff	fanatisch	lasch	eitel	1	blank2r.bmp	0	1	+	0	1	blank2r.bmp	500	1	GKQX	500	1	blank2r.bmp	880	6	faul	880	1	!	1232	1	!	1343	0	0	0	0	0	0
2024-06-05	12:13:18	12:20:41	442573	6.6.1	4_exp_EVA_AWA_CON	70	B	A	Rpleas_acq	Oppo	Rpleas	1pleas	acq_US_pleas_nomask	acq45_nomask	4	14	400	1	300	300	0	0	429	46	0	0	schön	treu	spielen	retten	tolerant	fair	schlecht	tot	strafen	rächen	tyrannisch	faul	helfen	lachen	schlau	freundlich	loyal	ehrlich	hindern	leiden	schroff	fanatisch	lasch	eitel	1	blank2r.bmp	0	1	+	0	1	blank2r.bmp	500	1	BMVZ	500	1	blank2r.bmp	880	5	tolerant	880	1	!	1232	1	!	1330	0	0	0	0	0	0
2024-06-05	12:13:18	12:20:43	444813	6.6.1	4_exp_EVA_AWA_CON	70	B	A	Rpleas_acq	Oppo	Rpleas	1pleas	acq_US_pleas_nomask	acq45_nomask	4	15	400	1	300	300	0	0	458	50	1	0	schön	treu	spielen	retten	tolerant	fair	schlecht	tot	strafen	rächen	tyrannisch	faul	helfen	lachen	schlau	freundlich	loyal	ehrlich	hindern	leiden	schroff	fanatisch	lasch	eitel	1	blank2r.bmp	0	1	+	0	1	blank2r.bmp	500	1	BMVZ	500	1	blank2r.bmp	880	3	spielen	880	1	!	1232	1	!	1359	0	0	0	0	0	0
2024-06-05	12:13:18	12:20:46	447021	6.6.1	4_exp_EVA_AWA_CON	70	B	A	Rpleas_acq	Oppo	Rpleas	1pleas	acq_US_pleas_nomask	acq45_nomask	4	16	400	1	300	300	0	0	434	50	1	0	schön	treu	spielen	retten	tolerant	fair	schlecht	tot	strafen	rächen	tyrannisch	faul	helfen	lachen	schlau	freundlich	loyal	ehrlich	hindern	leiden	schroff	fanatisch	lasch	eitel	1	blank2r.bmp	0	1	+	0	1	blank2r.bmp	500	1	BMVZ	500	1	blank2r.bmp	880	2	treu	880	1	!	1232	1	!	1335	0	0	0	0	0	0
2024-06-05	12:13:18	12:20:48	449212	6.6.1	4_exp_EVA_AWA_CON	70	B	A	Rpleas_acq	Oppo	Rpleas	1pleas	acq_US_pleas_nomask	acq45_nomask	4	17	400	1	300	300	0	0	415	50	1	0	schön	treu	spielen	retten	tolerant	fair	schlecht	tot	strafen	rächen	tyrannisch	faul	helfen	lachen	schlau	freundlich	loyal	ehrlich	hindern	leiden	schroff	fanatisch	lasch	eitel	1	blank2r.bmp	0	1	+	0	1	blank2r.bmp	500	1	BMVZ	500	1	blank2r.bmp	880	5	tolerant	880	1	!	1232	1	!	1316	0	0	0	0	0	0
2024-06-05	12:13:18	12:20:50	451437	6.6.1	4_exp_EVA_AWA_CON	70	B	A	Rpleas_acq	Oppo	Rpleas	1pleas	acq_US_unple_nomask	acq45_nomask	4	18	400	1	300	300	0	0	447	50	0	0	schön	treu	spielen	retten	tolerant	fair	schlecht	tot	strafen	rächen	tyrannisch	faul	helfen	lachen	schlau	freundlich	loyal	ehrlich	hindern	leiden	schroff	fanatisch	lasch	eitel	1	blank2r.bmp	0	1	+	0	1	blank2r.bmp	500	1	GKQX	500	1	blank2r.bmp	880	3	strafen	880	1	!	1232	1	!	1348	0	0	0	0	0	0
2024-06-05	12:13:18	12:20:52	453523	6.6.1	4_exp_EVA_AWA_CON	70	B	A	Rpleas_acq	Oppo	Rpleas	1pleas	acq_US_unple_nomask	acq45_nomask	4	19	400	0	300	300	0	0	314	46	1	0	schön	treu	spielen	retten	tolerant	fair	schlecht	tot	strafen	rächen	tyrannisch	faul	helfen	lachen	schlau	freundlich	loyal	ehrlich	hindern	leiden	schroff	fanatisch	lasch	eitel	1	blank2r.bmp	0	1	+	0	1	blank2r.bmp	500	1	GKQX	500	1	blank2r.bmp	880	1	schlecht	880	1	!	-1	1	!	-1	0	0	0	0	0	0
2024-06-05	12:13:18	12:20:54	455708	6.6.1	4_exp_EVA_AWA_CON	70	B	A	Rpleas_acq	Oppo	Rpleas	1pleas	acq_US_pleas_nomask	acq45_nomask	4	20	400	1	300	300	0	0	407	50	1	0	schön	treu	spielen	retten	tolerant	fair	schlecht	tot	strafen	rächen	tyrannisch	faul	helfen	lachen	schlau	freundlich	loyal	ehrlich	hindern	leiden	schroff	fanatisch	lasch	eitel	1	blank2r.bmp	0	1	+	0	1	blank2r.bmp	500	1	BMVZ	500	1	blank2r.bmp	880	4	retten	880	1	!	1232	1	!	1307	0	0	0	0	0	0
2024-06-05	12:13:18	12:20:57	458147	6.6.1	4_exp_EVA_AWA_CON	70	B	A	Rpleas_acq	Oppo	Rpleas	1pleas	acq_US_unple_nomask	acq45_nomask	4	21	400	0	300	300	0	0	665	46	1	0	schön	treu	spielen	retten	tolerant	fair	schlecht	tot	strafen	rächen	tyrannisch	faul	helfen	lachen	schlau	freundlich	loyal	ehrlich	hindern	leiden	schroff	fanatisch	lasch	eitel	1	blank2r.bmp	0	1	+	0	1	blank2r.bmp	500	1	GKQX	500	1	blank2r.bmp	880	4	rächen	880	1	!	1232	1	!	-1	0	0	0	0	0	0
2024-06-05	12:13:18	12:20:59	460308	6.6.1	4_exp_EVA_AWA_CON	70	B	A	Rpleas_acq	Oppo	Rpleas	1pleas	acq_US_unple_nomask	acq45_nomask	4	22	400	1	300	300	0	0	384	50	0	0	schön	treu	spielen	retten	tolerant	fair	schlecht	tot	strafen	rächen	tyrannisch	faul	helfen	lachen	schlau	freundlich	loyal	ehrlich	hindern	leiden	schroff	fanatisch	lasch	eitel	1	blank2r.bmp	0	1	+	0	1	blank2r.bmp	500	1	GKQX	500	1	blank2r.bmp	880	5	tyrannisch	880	1	!	1232	1	!	1284	0	0	0	0	0	0
2024-06-05	12:13:18	12:21:01	462437	6.6.1	4_exp_EVA_AWA_CON	70	B	A	Rpleas_acq	Oppo	Rpleas	1pleas	acq_US_unple_nomask	acq45_nomask	4	23	400	1	300	300	0	0	350	46	1	0	schön	treu	spielen	retten	tolerant	fair	schlecht	tot	strafen	rächen	tyrannisch	faul	helfen	lachen	schlau	freundlich	loyal	ehrlich	hindern	leiden	schroff	fanatisch	lasch	eitel	1	blank2r.bmp	0	1	+	0	1	blank2r.bmp	500	1	GKQX	500	1	blank2r.bmp	880	4	rächen	880	1	!	1233	1	!	1252	0	0	0	0	0	0
2024-06-05	12:13:18	12:21:03	464689	6.6.1	4_exp_EVA_AWA_CON	70	B	A	Rpleas_acq	Oppo	Rpleas	1pleas	acq_US_pleas_nomask	acq45_nomask	4	24	400	0	300	300	0	0	475	50	1	0	schön	treu	spielen	retten	tolerant	fair	schlecht	tot	strafen	rächen	tyrannisch	faul	helfen	lachen	schlau	freundlich	loyal	ehrlich	hindern	leiden	schroff	fanatisch	lasch	eitel	1	blank2r.bmp	0	1	+	0	1	blank2r.bmp	500	1	BMVZ	500	1	blank2r.bmp	880	1	schön	880	1	!	1232	1	!	-1	0	0	0	0	0	0
2024-06-05	12:13:18	12:21:06	466995	6.6.1	4_exp_EVA_AWA_CON	70	B	A	Rpleas_acq	Oppo	Rpleas	1pleas	acq_US_unple_nomask	acq45_nomask	4	25	400	0	300	300	0	0	527	46	1	0	schön	treu	spielen	retten	tolerant	fair	schlecht	tot	strafen	rächen	tyrannisch	faul	helfen	lachen	schlau	freundlich	loyal	ehrlich	hindern	leiden	schroff	fanatisch	lasch	eitel	1	blank2r.bmp	0	1	+	0	1	blank2r.bmp	500	1	GKQX	500	1	blank2r.bmp	880	5	tyrannisch	880	1	!	1232	1	!	-1	0	0	0	0	0	0
2024-06-05	12:13:18	12:21:08	469237	6.6.1	4_exp_EVA_AWA_CON	70	B	A	Rpleas_acq	Oppo	Rpleas	1pleas	acq_US_unple_nomask	acq45_nomask	4	26	400	1	300	300	0	0	466	46	1	0	schön	treu	spielen	retten	tolerant	fair	schlecht	tot	strafen	rächen	tyrannisch	faul	helfen	lachen	schlau	freundlich	loyal	ehrlich	hindern	leiden	schroff	fanatisch	lasch	eitel	1	blank2r.bmp	0	1	+	0	1	blank2r.bmp	500	1	GKQX	500	1	blank2r.bmp	880	2	tot	880	1	!	1232	1	!	1367	0	0	0	0	0	0
2024-06-05	12:13:18	12:21:10	471579	6.6.1	4_exp_EVA_AWA_CON	70	B	A	Rpleas_acq	Oppo	Rpleas	1pleas	acq_US_pleas_nomask	acq45_nomask	4	27	400	0	300	300	0	0	569	50	1	0	schön	treu	spielen	retten	tolerant	fair	schlecht	tot	strafen	rächen	tyrannisch	faul	helfen	lachen	schlau	freundlich	loyal	ehrlich	hindern	leiden	schroff	fanatisch	lasch	eitel	1	blank2r.bmp	0	1	+	0	1	blank2r.bmp	500	1	BMVZ	500	1	blank2r.bmp	880	6	fair	880	1	!	1233	1	!	-1	0	0	0	0	0	0
2024-06-05	12:13:18	12:21:13	474019	6.6.1	4_exp_EVA_AWA_CON	70	B	A	Rpleas_acq	Oppo	Rpleas	1pleas	acq_US_unple_nomask	acq45_nomask	4	28	400	0	300	300	0	0	667	46	1	0	schön	treu	spielen	retten	tolerant	fair	schlecht	tot	strafen	rächen	tyrannisch	faul	helfen	lachen	schlau	freundlich	loyal	ehrlich	hindern	leiden	schroff	fanatisch	lasch	eitel	1	blank2r.bmp	0	1	+	0	1	blank2r.bmp	500	1	GKQX	500	1	blank2r.bmp	880	6	faul	880	1	!	1232	1	!	-1	0	0	0	0	0	0
2024-06-05	12:13:18	12:21:15	476273	6.6.1	4_exp_EVA_AWA_CON	70	B	A	Rpleas_acq	Oppo	Rpleas	1pleas	acq_US_pleas_nomask	acq45_nomask	4	29	400	0	300	300	0	0	481	50	1	0	schön	treu	spielen	retten	tolerant	fair	schlecht	tot	strafen	rächen	tyrannisch	faul	helfen	lachen	schlau	freundlich	loyal	ehrlich	hindern	leiden	schroff	fanatisch	lasch	eitel	1	blank2r.bmp	0	1	+	0	1	blank2r.bmp	500	1	BMVZ	500	1	blank2r.bmp	880	5	tolerant	880	1	!	1232	1	!	-1	0	0	0	0	0	0
2024-06-05	12:13:18	12:21:17	478412	6.6.1	4_exp_EVA_AWA_CON	70	B	A	Rpleas_acq	Oppo	Rpleas	1pleas	acq_US_pleas_nomask	acq45_nomask	4	30	400	1	300	300	0	0	366	50	1	0	schön	treu	spielen	retten	tolerant	fair	schlecht	tot	strafen	rächen	tyrannisch	faul	helfen	lachen	schlau	freundlich	loyal	ehrlich	hindern	leiden	schroff	fanatisch	lasch	eitel	1	blank2r.bmp	0	1	+	0	1	blank2r.bmp	500	1	BMVZ	500	1	blank2r.bmp	880	1	schön	880	1	!	1232	1	!	1267	0	0	0	0	0	0
2024-06-05	12:13:18	12:21:19	480629	6.6.1	4_exp_EVA_AWA_CON	70	B	A	Rpleas_acq	Oppo	Rpleas	1pleas	acq_US_pleas_nomask	acq45_nomask	4	31	400	1	300	300	0	0	440	50	1	0	schön	treu	spielen	retten	tolerant	fair	schlecht	tot	strafen	rächen	tyrannisch	faul	helfen	lachen	schlau	freundlich	loyal	ehrlich	hindern	leiden	schroff	fanatisch	lasch	eitel	1	blank2r.bmp	0	1	+	0	1	blank2r.bmp	500	1	BMVZ	500	1	blank2r.bmp	880	3	spielen	880	1	!	1232	1	!	1342	0	0	0	0	0	0
2024-06-05	12:13:18	12:21:21	482837	6.6.1	4_exp_EVA_AWA_CON	70	B	A	Rpleas_acq	Oppo	Rpleas	1pleas	acq_US_pleas_nomask	acq45_nomask	4	32	400	1	300	300	0	0	427	50	1	0	schön	treu	spielen	retten	tolerant	fair	schlecht	tot	strafen	rächen	tyrannisch	faul	helfen	lachen	schlau	freundlich	loyal	ehrlich	hindern	leiden	schroff	fanatisch	lasch	eitel	1	blank2r.bmp	0	1	+	0	1	blank2r.bmp	500	1	BMVZ	500	1	blank2r.bmp	880	6	fair	880	1	!	1232	1	!	1328	0	0	0	0	0	0
2024-06-05	12:13:18	12:21:24	484996	6.6.1	4_exp_EVA_AWA_CON	70	B	A	Rpleas_acq	Oppo	Rpleas	1pleas	acq_US_unple_nomask	acq45_nomask	4	33	400	1	300	300	0	0	386	46	1	0	schön	treu	spielen	retten	tolerant	fair	schlecht	tot	strafen	rächen	tyrannisch	faul	helfen	lachen	schlau	freundlich	loyal	ehrlich	hindern	leiden	schroff	fanatisch	lasch	eitel	1	blank2r.bmp	0	1	+	0	1	blank2r.bmp	500	1	GKQX	500	1	blank2r.bmp	880	3	strafen	880	1	!	1233	1	!	1287	0	0	0	0	0	0
2024-06-05	12:13:18	12:21:26	487205	6.6.1	4_exp_EVA_AWA_CON	70	B	A	Rpleas_acq	Oppo	Rpleas	1pleas	acq_US_pleas_nomask	acq45_nomask	4	34	400	1	300	300	0	0	432	46	0	0	schön	treu	spielen	retten	tolerant	fair	schlecht	tot	strafen	rächen	tyrannisch	faul	helfen	lachen	schlau	freundlich	loyal	ehrlich	hindern	leiden	schroff	fanatisch	lasch	eitel	1	blank2r.bmp	0	1	+	0	1	blank2r.bmp	500	1	BMVZ	500	1	blank2r.bmp	880	2	treu	880	1	!	1232	1	!	1333	0	0	0	0	0	0
2024-06-05	12:13:18	12:21:28	489507	6.6.1	4_exp_EVA_AWA_CON	70	B	A	Rpleas_acq	Oppo	Rpleas	1pleas	acq_US_pleas_nomask	acq45_nomask	4	35	400	0	300	300	0	0	525	46	0	0	schön	treu	spielen	retten	tolerant	fair	schlecht	tot	strafen	rächen	tyrannisch	faul	helfen	lachen	schlau	freundlich	loyal	ehrlich	hindern	leiden	schroff	fanatisch	lasch	eitel	1	blank2r.bmp	0	1	+	0	1	blank2r.bmp	500	1	BMVZ	500	1	blank2r.bmp	880	4	retten	880	1	!	1232	1	!	-1	0	0	0	0	0	0
2024-06-05	12:13:18	12:21:30	491595	6.6.1	4_exp_EVA_AWA_CON	70	B	A	Rpleas_acq	Oppo	Rpleas	1pleas	acq_US_unple_nomask	acq45_nomask	4	36	400	0	300	300	0	0	311	50	0	0	schön	treu	spielen	retten	tolerant	fair	schlecht	tot	strafen	rächen	tyrannisch	faul	helfen	lachen	schlau	freundlich	loyal	ehrlich	hindern	leiden	schroff	fanatisch	lasch	eitel	1	blank2r.bmp	0	1	+	0	1	blank2r.bmp	500	1	GKQX	500	1	blank2r.bmp	880	1	schlecht	880	1	!	-1	1	!	-1	0	0	0	0	0	0
2024-06-05	12:13:18	12:21:45	506835	6.6.1	4_exp_EVA_AWA_CON	70	B	A	Rpleas_acq	Oppo	Rpleas	1pleas	acq_US_unple_nomask	acq45_nomask	5	1	400	0	300	300	0	0	492	46	1	0	schön	treu	spielen	retten	tolerant	fair	schlecht	tot	strafen	rächen	tyrannisch	faul	helfen	lachen	schlau	freundlich	loyal	ehrlich	hindern	leiden	schroff	fanatisch	lasch	eitel	1	blank2r.bmp	0	1	+	0	1	blank2r.bmp	500	1	GKQX	500	1	blank2r.bmp	880	3	strafen	880	1	!	1233	1	!	-1	0	0	0	0	0	0
2024-06-05	12:13:18	12:21:48	509068	6.6.1	4_exp_EVA_AWA_CON	70	B	A	Rpleas_acq	Oppo	Rpleas	1pleas	acq_US_unple_nomask	acq45_nomask	5	2	400	1	300	300	0	0	452	50	0	0	schön	treu	spielen	retten	tolerant	fair	schlecht	tot	strafen	rächen	tyrannisch	faul	helfen	lachen	schlau	freundlich	loyal	ehrlich	hindern	leiden	schroff	fanatisch	lasch	eitel	1	blank2r.bmp	0	1	+	0	1	blank2r.bmp	500	1	GKQX	500	1	blank2r.bmp	880	4	rächen	880	1	!	1232	1	!	1353	0	0	0	0	0	0
2024-06-05	12:13:18	12:21:50	511331	6.6.1	4_exp_EVA_AWA_CON	70	B	A	Rpleas_acq	Oppo	Rpleas	1pleas	acq_US_pleas_nomask	acq45_nomask	5	3	400	0	300	300	0	0	485	50	1	0	schön	treu	spielen	retten	tolerant	fair	schlecht	tot	strafen	rächen	tyrannisch	faul	helfen	lachen	schlau	freundlich	loyal	ehrlich	hindern	leiden	schroff	fanatisch	lasch	eitel	1	blank2r.bmp	0	1	+	0	1	blank2r.bmp	500	1	BMVZ	500	1	blank2r.bmp	880	4	retten	880	1	!	1232	1	!	-1	0	0	0	0	0	0
2024-06-05	12:13:18	12:21:52	513585	6.6.1	4_exp_EVA_AWA_CON	70	B	A	Rpleas_acq	Oppo	Rpleas	1pleas	acq_US_pleas_nomask	acq45_nomask	5	4	400	0	300	300	0	0	479	50	1	0	schön	treu	spielen	retten	tolerant	fair	schlecht	tot	strafen	rächen	tyrannisch	faul	helfen	lachen	schlau	freundlich	loyal	ehrlich	hindern	leiden	schroff	fanatisch	lasch	eitel	1	blank2r.bmp	0	1	+	0	1	blank2r.bmp	500	1	BMVZ	500	1	blank2r.bmp	880	2	treu	880	1	!	1232	1	!	-1	0	0	0	0	0	0
2024-06-05	12:13:18	12:21:54	515788	6.6.1	4_exp_EVA_AWA_CON	70	B	A	Rpleas_acq	Oppo	Rpleas	1pleas	acq_US_unple_nomask	acq45_nomask	5	5	400	1	300	300	0	0	428	46	1	0	schön	treu	spielen	retten	tolerant	fair	schlecht	tot	strafen	rächen	tyrannisch	faul	helfen	lachen	schlau	freundlich	loyal	ehrlich	hindern	leiden	schroff	fanatisch	lasch	eitel	1	blank2r.bmp	0	1	+	0	1	blank2r.bmp	500	1	GKQX	500	1	blank2r.bmp	880	6	faul	880	1	!	1232	1	!	1329	0	0	0	0	0	0
2024-06-05	12:13:18	12:21:56	517949	6.6.1	4_exp_EVA_AWA_CON	70	B	A	Rpleas_acq	Oppo	Rpleas	1pleas	acq_US_unple_nomask	acq45_nomask	5	6	400	1	300	300	0	0	387	46	1	0	schön	treu	spielen	retten	tolerant	fair	schlecht	tot	strafen	rächen	tyrannisch	faul	helfen	lachen	schlau	freundlich	loyal	ehrlich	hindern	leiden	schroff	fanatisch	lasch	eitel	1	blank2r.bmp	0	1	+	0	1	blank2r.bmp	500	1	GKQX	500	1	blank2r.bmp	880	2	tot	880	1	!	1232	1	!	1287	0	0	0	0	0	0
2024-06-05	12:13:18	12:21:59	520189	6.6.1	4_exp_EVA_AWA_CON	70	B	A	Rpleas_acq	Oppo	Rpleas	1pleas	acq_US_pleas_nomask	acq45_nomask	5	7	400	1	300	300	0	0	465	50	1	0	schön	treu	spielen	retten	tolerant	fair	schlecht	tot	strafen	rächen	tyrannisch	faul	helfen	lachen	schlau	freundlich	loyal	ehrlich	hindern	leiden	schroff	fanatisch	lasch	eitel	1	blank2r.bmp	0	1	+	0	1	blank2r.bmp	500	1	BMVZ	500	1	blank2r.bmp	880	5	tolerant	880	1	!	1233	1	!	1366	0	0	0	0	0	0
2024-06-05	12:13:18	12:22:01	522429	6.6.1	4_exp_EVA_AWA_CON	70	B	A	Rpleas_acq	Oppo	Rpleas	1pleas	acq_US_unple_nomask	acq45_nomask	5	8	400	1	300	300	0	0	464	46	1	0	schön	treu	spielen	retten	tolerant	fair	schlecht	tot	strafen	rächen	tyrannisch	faul	helfen	lachen	schlau	freundlich	loyal	ehrlich	hindern	leiden	schroff	fanatisch	lasch	eitel	1	blank2r.bmp	0	1	+	0	1	blank2r.bmp	500	1	GKQX	500	1	blank2r.bmp	880	1	schlecht	880	1	!	1232	1	!	1365	0	0	0	0	0	0
2024-06-05	12:13:18	12:22:03	524677	6.6.1	4_exp_EVA_AWA_CON	70	B	A	Rpleas_acq	Oppo	Rpleas	1pleas	acq_US_unple_nomask	acq45_nomask	5	9	400	1	300	300	0	0	470	46	1	0	schön	treu	spielen	retten	tolerant	fair	schlecht	tot	strafen	rächen	tyrannisch	faul	helfen	lachen	schlau	freundlich	loyal	ehrlich	hindern	leiden	schroff	fanatisch	lasch	eitel	1	blank2r.bmp	0	1	+	0	1	blank2r.bmp	500	1	GKQX	500	1	blank2r.bmp	880	5	tyrannisch	880	1	!	1232	1	!	1372	0	0	0	0	0	0
2024-06-05	12:13:18	12:22:05	526929	6.6.1	4_exp_EVA_AWA_CON	70	B	A	Rpleas_acq	Oppo	Rpleas	1pleas	acq_US_pleas_nomask	acq45_nomask	5	10	400	0	300	300	0	0	475	50	1	0	schön	treu	spielen	retten	tolerant	fair	schlecht	tot	strafen	rächen	tyrannisch	faul	helfen	lachen	schlau	freundlich	loyal	ehrlich	hindern	leiden	schroff	fanatisch	lasch	eitel	1	blank2r.bmp	0	1	+	0	1	blank2r.bmp	500	1	BMVZ	500	1	blank2r.bmp	880	6	fair	880	1	!	1232	1	!	-1	0	0	0	0	0	0
2024-06-05	12:13:18	12:22:08	529051	6.6.1	4_exp_EVA_AWA_CON	70	B	A	Rpleas_acq	Oppo	Rpleas	1pleas	acq_US_unple_nomask	acq45_nomask	5	11	400	1	300	300	0	0	343	50	0	0	schön	treu	spielen	retten	tolerant	fair	schlecht	tot	strafen	rächen	tyrannisch	faul	helfen	lachen	schlau	freundlich	loyal	ehrlich	hindern	leiden	schroff	fanatisch	lasch	eitel	1	blank2r.bmp	0	1	+	0	1	blank2r.bmp	500	1	GKQX	500	1	blank2r.bmp	880	4	rächen	880	1	!	1232	1	!	1243	0	0	0	0	0	0
2024-06-05	12:13:18	12:22:10	531212	6.6.1	4_exp_EVA_AWA_CON	70	B	A	Rpleas_acq	Oppo	Rpleas	1pleas	acq_US_pleas_nomask	acq45_nomask	5	12	400	1	300	300	0	0	382	50	1	0	schön	treu	spielen	retten	tolerant	fair	schlecht	tot	strafen	rächen	tyrannisch	faul	helfen	lachen	schlau	freundlich	loyal	ehrlich	hindern	leiden	schroff	fanatisch	lasch	eitel	1	blank2r.bmp	0	1	+	0	1	blank2r.bmp	500	1	BMVZ	500	1	blank2r.bmp	880	1	schön	880	1	!	1233	1	!	1283	0	0	0	0	0	0
2024-06-05	12:13:18	12:22:12	533388	6.6.1	4_exp_EVA_AWA_CON	70	B	A	Rpleas_acq	Oppo	Rpleas	1pleas	acq_US_pleas_nomask	acq45_nomask	5	13	400	1	300	300	0	0	397	50	1	0	schön	treu	spielen	retten	tolerant	fair	schlecht	tot	strafen	rächen	tyrannisch	faul	helfen	lachen	schlau	freundlich	loyal	ehrlich	hindern	leiden	schroff	fanatisch	lasch	eitel	1	blank2r.bmp	0	1	+	0	1	blank2r.bmp	500	1	BMVZ	500	1	blank2r.bmp	880	3	spielen	880	1	!	1232	1	!	1297	0	0	0	0	0	0
2024-06-05	12:13:18	12:22:15	535939	6.6.1	4_exp_EVA_AWA_CON	70	B	A	Rpleas_acq	Oppo	Rpleas	1pleas	acq_US_pleas_nomask	acq45_nomask	5	14	400	0	300	300	0	0	777	50	1	0	schön	treu	spielen	retten	tolerant	fair	schlecht	tot	strafen	rächen	tyrannisch	faul	helfen	lachen	schlau	freundlich	loyal	ehrlich	hindern	leiden	schroff	fanatisch	lasch	eitel	1	blank2r.bmp	0	1	+	0	1	blank2r.bmp	500	1	BMVZ	500	1	blank2r.bmp	880	2	treu	880	1	!	1233	1	!	-1	0	0	0	0	0	0
2024-06-05	12:13:18	12:22:17	538165	6.6.1	4_exp_EVA_AWA_CON	70	B	A	Rpleas_acq	Oppo	Rpleas	1pleas	acq_US_unple_nomask	acq45_nomask	5	15	400	1	300	300	0	0	450	50	0	0	schön	treu	spielen	retten	tolerant	fair	schlecht	tot	strafen	rächen	tyrannisch	faul	helfen	lachen	schlau	freundlich	loyal	ehrlich	hindern	leiden	schroff	fanatisch	lasch	eitel	1	blank2r.bmp	0	1	+	0	1	blank2r.bmp	500	1	GKQX	500	1	blank2r.bmp	880	2	tot	880	1	!	1232	1	!	1350	0	0	0	0	0	0
2024-06-05	12:13:18	12:22:19	540317	6.6.1	4_exp_EVA_AWA_CON	70	B	A	Rpleas_acq	Oppo	Rpleas	1pleas	acq_US_pleas_nomask	acq45_nomask	5	16	400	1	300	300	0	0	370	50	1	0	schön	treu	spielen	retten	tolerant	fair	schlecht	tot	strafen	rächen	tyrannisch	faul	helfen	lachen	schlau	freundlich	loyal	ehrlich	hindern	leiden	schroff	fanatisch	lasch	eitel	1	blank2r.bmp	0	1	+	0	1	blank2r.bmp	500	1	BMVZ	500	1	blank2r.bmp	880	1	schön	880	1	!	1232	1	!	1272	0	0	0	0	0	0
2024-06-05	12:13:18	12:22:21	542509	6.6.1	4_exp_EVA_AWA_CON	70	B	A	Rpleas_acq	Oppo	Rpleas	1pleas	acq_US_unple_nomask	acq45_nomask	5	17	400	1	300	300	0	0	411	46	1	0	schön	treu	spielen	retten	tolerant	fair	schlecht	tot	strafen	rächen	tyrannisch	faul	helfen	lachen	schlau	freundlich	loyal	ehrlich	hindern	leiden	schroff	fanatisch	lasch	eitel	1	blank2r.bmp	0	1	+	0	1	blank2r.bmp	500	1	GKQX	500	1	blank2r.bmp	880	6	faul	880	1	!	1232	1	!	1312	0	0	0	0	0	0
2024-06-05	12:13:18	12:22:23	544709	6.6.1	4_exp_EVA_AWA_CON	70	B	A	Rpleas_acq	Oppo	Rpleas	1pleas	acq_US_pleas_nomask	acq45_nomask	5	18	400	1	300	300	0	0	419	46	0	0	schön	treu	spielen	retten	tolerant	fair	schlecht	tot	strafen	rächen	tyrannisch	faul	helfen	lachen	schlau	freundlich	loyal	ehrlich	hindern	leiden	schroff	fanatisch	lasch	eitel	1	blank2r.bmp	0	1	+	0	1	blank2r.bmp	500	1	BMVZ	500	1	blank2r.bmp	880	4	retten	880	1	!	1232	1	!	1320	0	0	0	0	0	0
2024-06-05	12:13:18	12:22:26	547035	6.6.1	4_exp_EVA_AWA_CON	70	B	A	Rpleas_acq	Oppo	Rpleas	1pleas	acq_US_unple_nomask	acq45_nomask	5	19	400	0	300	300	0	0	546	46	1	0	schön	treu	spielen	retten	tolerant	fair	schlecht	tot	strafen	rächen	tyrannisch	faul	helfen	lachen	schlau	freundlich	loyal	ehrlich	hindern	leiden	schroff	fanatisch	lasch	eitel	1	blank2r.bmp	0	1	+	0	1	blank2r.bmp	500	1	GKQX	500	1	blank2r.bmp	880	3	strafen	880	1	!	1232	1	!	-1	0	0	0	0	0	0
2024-06-05	12:13:18	12:22:28	549260	6.6.1	4_exp_EVA_AWA_CON	70	B	A	Rpleas_acq	Oppo	Rpleas	1pleas	acq_US_unple_nomask	acq45_nomask	5	20	400	1	300	300	0	0	449	46	1	0	schön	treu	spielen	retten	tolerant	fair	schlecht	tot	strafen	rächen	tyrannisch	faul	helfen	lachen	schlau	freundlich	loyal	ehrlich	hindern	leiden	schroff	fanatisch	lasch	eitel	1	blank2r.bmp	0	1	+	0	1	blank2r.bmp	500	1	GKQX	500	1	blank2r.bmp	880	1	schlecht	880	1	!	1232	1	!	1349	0	0	0	0	0	0
2024-06-05	12:13:18	12:22:30	551413	6.6.1	4_exp_EVA_AWA_CON	70	B	A	Rpleas_acq	Oppo	Rpleas	1pleas	acq_US_pleas_nomask	acq45_nomask	5	21	400	1	300	300	0	0	369	46	0	0	schön	treu	spielen	retten	tolerant	fair	schlecht	tot	strafen	rächen	tyrannisch	faul	helfen	lachen	schlau	freundlich	loyal	ehrlich	hindern	leiden	schroff	fanatisch	lasch	eitel	1	blank2r.bmp	0	1	+	0	1	blank2r.bmp	500	1	BMVZ	500	1	blank2r.bmp	880	3	spielen	880	1	!	1232	1	!	1270	0	0	0	0	0	0
2024-06-05	12:13:18	12:22:32	553636	6.6.1	4_exp_EVA_AWA_CON	70	B	A	Rpleas_acq	Oppo	Rpleas	1pleas	acq_US_pleas_nomask	acq45_nomask	5	22	400	1	300	300	0	0	442	50	1	0	schön	treu	spielen	retten	tolerant	fair	schlecht	tot	strafen	rächen	tyrannisch	faul	helfen	lachen	schlau	freundlich	loyal	ehrlich	hindern	leiden	schroff	fanatisch	lasch	eitel	1	blank2r.bmp	0	1	+	0	1	blank2r.bmp	500	1	BMVZ	500	1	blank2r.bmp	880	6	fair	880	1	!	1233	1	!	1343	0	0	0	0	0	0
2024-06-05	12:13:18	12:22:35	555963	6.6.1	4_exp_EVA_AWA_CON	70	B	A	Rpleas_acq	Oppo	Rpleas	1pleas	acq_US_unple_nomask	acq45_nomask	5	23	400	0	300	300	0	0	548	46	1	0	schön	treu	spielen	retten	tolerant	fair	schlecht	tot	strafen	rächen	tyrannisch	faul	helfen	lachen	schlau	freundlich	loyal	ehrlich	hindern	leiden	schroff	fanatisch	lasch	eitel	1	blank2r.bmp	0	1	+	0	1	blank2r.bmp	500	1	GKQX	500	1	blank2r.bmp	880	5	tyrannisch	880	1	!	1232	1	!	-1	0	0	0	0	0	0
2024-06-05	12:13:18	12:22:37	558363	6.6.1	4_exp_EVA_AWA_CON	70	B	A	Rpleas_acq	Oppo	Rpleas	1pleas	acq_US_unple_nomask	acq45_nomask	5	24	400	0	300	300	0	0	627	50	0	0	schön	treu	spielen	retten	tolerant	fair	schlecht	tot	strafen	rächen	tyrannisch	faul	helfen	lachen	schlau	freundlich	loyal	ehrlich	hindern	leiden	schroff	fanatisch	lasch	eitel	1	blank2r.bmp	0	1	+	0	1	blank2r.bmp	500	1	GKQX	500	1	blank2r.bmp	880	4	rächen	880	1	!	1232	1	!	-1	0	0	0	0	0	0
2024-06-05	12:13:18	12:22:39	560635	6.6.1	4_exp_EVA_AWA_CON	70	B	A	Rpleas_acq	Oppo	Rpleas	1pleas	acq_US_pleas_nomask	acq45_nomask	5	25	400	0	300	300	0	0	497	50	1	0	schön	treu	spielen	retten	tolerant	fair	schlecht	tot	strafen	rächen	tyrannisch	faul	helfen	lachen	schlau	freundlich	loyal	ehrlich	hindern	leiden	schroff	fanatisch	lasch	eitel	1	blank2r.bmp	0	1	+	0	1	blank2r.bmp	500	1	BMVZ	500	1	blank2r.bmp	880	5	tolerant	880	1	!	1232	1	!	-1	0	0	0	0	0	0
2024-06-05	12:13:18	12:22:41	562812	6.6.1	4_exp_EVA_AWA_CON	70	B	A	Rpleas_acq	Oppo	Rpleas	1pleas	acq_US_pleas_nomask	acq45_nomask	5	26	400	1	300	300	0	0	402	50	1	0	schön	treu	spielen	retten	tolerant	fair	schlecht	tot	strafen	rächen	tyrannisch	faul	helfen	lachen	schlau	freundlich	loyal	ehrlich	hindern	leiden	schroff	fanatisch	lasch	eitel	1	blank2r.bmp	0	1	+	0	1	blank2r.bmp	500	1	BMVZ	500	1	blank2r.bmp	880	1	schön	880	1	!	1232	1	!	1303	0	0	0	0	0	0
2024-06-05	12:13:18	12:22:44	564940	6.6.1	4_exp_EVA_AWA_CON	70	B	A	Rpleas_acq	Oppo	Rpleas	1pleas	acq_US_pleas_nomask	acq45_nomask	5	27	400	1	300	300	0	0	348	50	1	0	schön	treu	spielen	retten	tolerant	fair	schlecht	tot	strafen	rächen	tyrannisch	faul	helfen	lachen	schlau	freundlich	loyal	ehrlich	hindern	leiden	schroff	fanatisch	lasch	eitel	1	blank2r.bmp	0	1	+	0	1	blank2r.bmp	500	1	BMVZ	500	1	blank2r.bmp	880	5	tolerant	880	1	!	1232	1	!	1249	0	0	0	0	0	0
2024-06-05	12:13:18	12:22:46	567051	6.6.1	4_exp_EVA_AWA_CON	70	B	A	Rpleas_acq	Oppo	Rpleas	1pleas	acq_US_unple_nomask	acq45_nomask	5	28	400	0	300	300	0	0	329	50	0	0	schön	treu	spielen	retten	tolerant	fair	schlecht	tot	strafen	rächen	tyrannisch	faul	helfen	lachen	schlau	freundlich	loyal	ehrlich	hindern	leiden	schroff	fanatisch	lasch	eitel	1	blank2r.bmp	0	1	+	0	1	blank2r.bmp	500	1	GKQX	500	1	blank2r.bmp	880	2	tot	880	1	!	-1	1	!	-1	0	0	0	0	0	0
2024-06-05	12:13:18	12:22:48	569260	6.6.1	4_exp_EVA_AWA_CON	70	B	A	Rpleas_acq	Oppo	Rpleas	1pleas	acq_US_pleas_nomask	acq45_nomask	5	29	400	1	300	300	0	0	426	50	1	0	schön	treu	spielen	retten	tolerant	fair	schlecht	tot	strafen	rächen	tyrannisch	faul	helfen	lachen	schlau	freundlich	loyal	ehrlich	hindern	leiden	schroff	fanatisch	lasch	eitel	1	blank2r.bmp	0	1	+	0	1	blank2r.bmp	500	1	BMVZ	500	1	blank2r.bmp	880	2	treu	880	1	!	1232	1	!	1327	0	0	0	0	0	0
2024-06-05	12:13:18	12:22:50	571397	6.6.1	4_exp_EVA_AWA_CON	70	B	A	Rpleas_acq	Oppo	Rpleas	1pleas	acq_US_unple_nomask	acq45_nomask	5	30	400	1	300	300	0	0	360	46	1	0	schön	treu	spielen	retten	tolerant	fair	schlecht	tot	strafen	rächen	tyrannisch	faul	helfen	lachen	schlau	freundlich	loyal	ehrlich	hindern	leiden	schroff	fanatisch	lasch	eitel	1	blank2r.bmp	0	1	+	0	1	blank2r.bmp	500	1	GKQX	500	1	blank2r.bmp	880	6	faul	880	1	!	1232	1	!	1262	0	0	0	0	0	0
2024-06-05	12:13:18	12:22:52	573532	6.6.1	4_exp_EVA_AWA_CON	70	B	A	Rpleas_acq	Oppo	Rpleas	1pleas	acq_US_unple_nomask	acq45_nomask	5	31	400	1	300	300	0	0	355	46	1	0	schön	treu	spielen	retten	tolerant	fair	schlecht	tot	strafen	rächen	tyrannisch	faul	helfen	lachen	schlau	freundlich	loyal	ehrlich	hindern	leiden	schroff	fanatisch	lasch	eitel	1	blank2r.bmp	0	1	+	0	1	blank2r.bmp	500	1	GKQX	500	1	blank2r.bmp	880	1	schlecht	880	1	!	1232	1	!	1256	0	0	0	0	0	0
2024-06-05	12:13:18	12:22:54	575660	6.6.1	4_exp_EVA_AWA_CON	70	B	A	Rpleas_acq	Oppo	Rpleas	1pleas	acq_US_unple_nomask	acq45_nomask	5	32	400	1	300	300	0	0	352	50	0	0	schön	treu	spielen	retten	tolerant	fair	schlecht	tot	strafen	rächen	tyrannisch	faul	helfen	lachen	schlau	freundlich	loyal	ehrlich	hindern	leiden	schroff	fanatisch	lasch	eitel	1	blank2r.bmp	0	1	+	0	1	blank2r.bmp	500	1	GKQX	500	1	blank2r.bmp	880	5	tyrannisch	880	1	!	1232	1	!	1252	0	0	0	0	0	0
2024-06-05	12:13:18	12:22:56	577861	6.6.1	4_exp_EVA_AWA_CON	70	B	A	Rpleas_acq	Oppo	Rpleas	1pleas	acq_US_pleas_nomask	acq45_nomask	5	33	400	1	300	300	0	0	420	50	1	0	schön	treu	spielen	retten	tolerant	fair	schlecht	tot	strafen	rächen	tyrannisch	faul	helfen	lachen	schlau	freundlich	loyal	ehrlich	hindern	leiden	schroff	fanatisch	lasch	eitel	1	blank2r.bmp	0	1	+	0	1	blank2r.bmp	500	1	BMVZ	500	1	blank2r.bmp	880	3	spielen	880	1	!	1232	1	!	1322	0	0	0	0	0	0
2024-06-05	12:13:18	12:22:59	580036	6.6.1	4_exp_EVA_AWA_CON	70	B	A	Rpleas_acq	Oppo	Rpleas	1pleas	acq_US_pleas_nomask	acq45_nomask	5	34	400	1	300	300	0	0	395	50	1	0	schön	treu	spielen	retten	tolerant	fair	schlecht	tot	strafen	rächen	tyrannisch	faul	helfen	lachen	schlau	freundlich	loyal	ehrlich	hindern	leiden	schroff	fanatisch	lasch	eitel	1	blank2r.bmp	0	1	+	0	1	blank2r.bmp	500	1	BMVZ	500	1	blank2r.bmp	880	6	fair	880	1	!	1232	1	!	1296	0	0	0	0	0	0
2024-06-05	12:13:18	12:23:01	582139	6.6.1	4_exp_EVA_AWA_CON	70	B	A	Rpleas_acq	Oppo	Rpleas	1pleas	acq_US_pleas_nomask	acq45_nomask	5	35	400	0	300	300	0	0	327	50	1	0	schön	treu	spielen	retten	tolerant	fair	schlecht	tot	strafen	rächen	tyrannisch	faul	helfen	lachen	schlau	freundlich	loyal	ehrlich	hindern	leiden	schroff	fanatisch	lasch	eitel	1	blank2r.bmp	0	1	+	0	1	blank2r.bmp	500	1	BMVZ	500	1	blank2r.bmp	880	4	retten	880	1	!	-1	1	!	-1	0	0	0	0	0	0
2024-06-05	12:13:18	12:23:03	584491	6.6.1	4_exp_EVA_AWA_CON	70	B	A	Rpleas_acq	Oppo	Rpleas	1pleas	acq_US_unple_nomask	acq45_nomask	5	36	400	0	300	300	0	0	578	46	1	0	schön	treu	spielen	retten	tolerant	fair	schlecht	tot	strafen	rächen	tyrannisch	faul	helfen	lachen	schlau	freundlich	loyal	ehrlich	hindern	leiden	schroff	fanatisch	lasch	eitel	1	blank2r.bmp	0	1	+	0	1	blank2r.bmp	500	1	GKQX	500	1	blank2r.bmp	880	3	strafen	880	1	!	1232	1	!	-1	0	0	0	0	0	0
2024-06-05	12:13:18	12:23:23	604879	6.6.1	4_exp_EVA_AWA_CON	70	B	A	Rpleas_acq	Oppo	Lpleas	1pleas	EvalRating_firsttwo	EvalRating_firsttwo	6	1	0	0	300	300	0	0	5257	line	0	40,4947916666666856145pct	schön	treu	spielen	retten	tolerant	fair	schlecht	tot	strafen	rächen	tyrannisch	faul	helfen	lachen	schlau	freundlich	loyal	ehrlich	hindern	leiden	schroff	fanatisch	lasch	eitel	1		-8	1	Wie angenehm oder unangenehm finden Sie die  Buchstabenkette ZGVK?	-8	1		-8	1		-8	1		-8	1	Unangenehm	-8	1	Angenehm	-8	0	0	0	0	0	0	0	0	0
2024-06-05	12:13:18	12:23:31	611952	6.6.1	4_exp_EVA_AWA_CON	70	B	A	Rpleas_acq	Oppo	Lpleas	1pleas	EvalRating_lastfour	EvalRating_lastfour	7	1	0	0	300	300	0	0	4694	line	0	48,828125pct	schön	treu	spielen	retten	tolerant	fair	schlecht	tot	strafen	rächen	tyrannisch	faul	helfen	lachen	schlau	freundlich	loyal	ehrlich	hindern	leiden	schroff	fanatisch	lasch	eitel	1		-8	1	Wie angenehm oder unangenehm finden Sie die  Buchstabenkette BMVZ?	-8	1		-8	1		-8	1		-8	1	Unangenehm	-8	1	Angenehm	-8	0	0	0	0	0	0	0	0	0
2024-06-05	12:13:18	12:23:33	614324	6.6.1	4_exp_EVA_AWA_CON	70	B	A	Rpleas_acq	Oppo	Lpleas	1pleas	blank_screen	EvalRating_lastfour	7	3	0	0	300	300	0	0	0	0	0	48,828125pct	schön	treu	spielen	retten	tolerant	fair	schlecht	tot	strafen	rächen	tyrannisch	faul	helfen	lachen	schlau	freundlich	loyal	ehrlich	hindern	leiden	schroff	fanatisch	lasch	eitel	1		-8	0	0	0	0	0	0	0	0	0	0	0	0	0	0	0	0	0	0	0	0	0	0	0	0	0	0	0
2024-06-05	12:13:18	12:23:37	617975	6.6.1	4_exp_EVA_AWA_CON	70	B	A	Rpleas_acq	Oppo	Lpleas	1pleas	EvalRating_lastfour	EvalRating_lastfour	7	4	0	0	300	300	0	0	3063	line	0	-33,7239583333333285964pct	schön	treu	spielen	retten	tolerant	fair	schlecht	tot	strafen	rächen	tyrannisch	faul	helfen	lachen	schlau	freundlich	loyal	ehrlich	hindern	leiden	schroff	fanatisch	lasch	eitel	1		-8	2	Wie angenehm oder unangenehm finden Sie die  Buchstabenkette GKQX?	-8	1		-8	1		-8	1		-8	1	Unangenehm	-8	1	Angenehm	-8	0	0	0	0	0	0	0	0	0
2024-06-05	12:13:18	12:23:39	620348	6.6.1	4_exp_EVA_AWA_CON	70	B	A	Rpleas_acq	Oppo	Lpleas	1pleas	blank_screen	EvalRating_lastfour	7	6	0	0	300	300	0	0	0	0	0	-33,7239583333333285964pct	schön	treu	spielen	retten	tolerant	fair	schlecht	tot	strafen	rächen	tyrannisch	faul	helfen	lachen	schlau	freundlich	loyal	ehrlich	hindern	leiden	schroff	fanatisch	lasch	eitel	1		-8	0	0	0	0	0	0	0	0	0	0	0	0	0	0	0	0	0	0	0	0	0	0	0	0	0	0	0
2024-06-05	12:13:18	12:23:45	626871	6.6.1	4_exp_EVA_AWA_CON	70	B	A	Rpleas_acq	Oppo	Lpleas	1pleas	EvalRating_lastfour	EvalRating_lastfour	7	7	0	0	300	300	0	0	5935	line	0	-59,6354166666666642982pct	schön	treu	spielen	retten	tolerant	fair	schlecht	tot	strafen	rächen	tyrannisch	faul	helfen	lachen	schlau	freundlich	loyal	ehrlich	hindern	leiden	schroff	fanatisch	lasch	eitel	1		-8	3	Wie angenehm oder unangenehm finden Sie die  Buchstabenkette XBQM?	-8	1		-8	1		-8	1		-8	1	Unangenehm	-8	1	Angenehm	-8	0	0	0	0	0	0	0	0	0
2024-06-05	12:13:18	12:24:13	654468	6.6.1	4_exp_EVA_AWA_CON	70	B	A	Rpleas_acq	Oppo	Lpleas	1pleas	conawa_CS2_US2	conawa1_nomask	8	1	0	0	300	300	0	0	8988	treu	1	-59,6354166666666642982pct	schön	treu	spielen	retten	tolerant	fair	schlecht	tot	strafen	rächen	tyrannisch	faul	helfen	lachen	schlau	freundlich	loyal	ehrlich	hindern	leiden	schroff	fanatisch	lasch	eitel	0	0	0	0	0	0	0	0	0	0	0	0	0	0	0	0	0	0	0	0	0	0	0	0	0	0	0	0	0	0
2024-06-05	12:13:18	12:24:13	654470	6.6.1	4_exp_EVA_AWA_CON	70	B	A	Rpleas_acq	Oppo	Lpleas	1pleas	conawa_CS2_US2_confidence	conawa1_nomask	8	1	0	0	300	300	0	0	8988	guess	1	-59,6354166666666642982pct	schön	treu	spielen	retten	tolerant	fair	schlecht	tot	strafen	rächen	tyrannisch	faul	helfen	lachen	schlau	freundlich	loyal	ehrlich	hindern	leiden	schroff	fanatisch	lasch	eitel	0	0	0	0	0	0	0	0	0	0	0	0	0	0	0	0	0	0	0	0	0	0	0	0	0	0	0	0	0	0
2024-06-05	12:13:18	12:24:19	660823	6.6.1	4_exp_EVA_AWA_CON	70	B	A	Rpleas_acq	Oppo	Lpleas	1pleas	conawa_CS1_US4	conawa1_nomask	8	2	0	0	300	300	0	0	5738	fanatisch	1	-59,6354166666666642982pct	schön	treu	spielen	retten	tolerant	fair	schlecht	tot	strafen	rächen	tyrannisch	faul	helfen	lachen	schlau	freundlich	loyal	ehrlich	hindern	leiden	schroff	fanatisch	lasch	eitel	0	0	0	0	0	0	0	0	0	0	0	0	0	0	0	0	0	0	0	0	0	0	0	0	0	0	0	0	0	0
2024-06-05	12:13:18	12:24:19	660824	6.6.1	4_exp_EVA_AWA_CON	70	B	A	Rpleas_acq	Oppo	Lpleas	1pleas	conawa_CS1_US4_confidence	conawa1_nomask	8	2	0	0	300	300	0	0	5738	guess	1	-59,6354166666666642982pct	schön	treu	spielen	retten	tolerant	fair	schlecht	tot	strafen	rächen	tyrannisch	faul	helfen	lachen	schlau	freundlich	loyal	ehrlich	hindern	leiden	schroff	fanatisch	lasch	eitel	0	0	0	0	0	0	0	0	0	0	0	0	0	0	0	0	0	0	0	0	0	0	0	0	0	0	0	0	0	0
2024-06-05	12:13:18	12:24:28	669228	6.6.1	4_exp_EVA_AWA_CON	70	B	A	Rpleas_acq	Oppo	Lpleas	1pleas	conawa_CS2_US4	conawa1_nomask	8	3	0	0	300	300	0	0	7787	rächen	1	-59,6354166666666642982pct	schön	treu	spielen	retten	tolerant	fair	schlecht	tot	strafen	rächen	tyrannisch	faul	helfen	lachen	schlau	freundlich	loyal	ehrlich	hindern	leiden	schroff	fanatisch	lasch	eitel	0	0	0	0	0	0	0	0	0	0	0	0	0	0	0	0	0	0	0	0	0	0	0	0	0	0	0	0	0	0
2024-06-05	12:13:18	12:24:28	669229	6.6.1	4_exp_EVA_AWA_CON	70	B	A	Rpleas_acq	Oppo	Lpleas	1pleas	conawa_CS2_US4_confidence	conawa1_nomask	8	3	0	0	300	300	0	0	7787	guess	1	-59,6354166666666642982pct	schön	treu	spielen	retten	tolerant	fair	schlecht	tot	strafen	rächen	tyrannisch	faul	helfen	lachen	schlau	freundlich	loyal	ehrlich	hindern	leiden	schroff	fanatisch	lasch	eitel	0	0	0	0	0	0	0	0	0	0	0	0	0	0	0	0	0	0	0	0	0	0	0	0	0	0	0	0	0	0
2024-06-05	12:13:18	12:24:36	677693	6.6.1	4_exp_EVA_AWA_CON	70	B	A	Rpleas_acq	Oppo	Lpleas	1pleas	conawa_CS2_US5	conawa1_nomask	8	4	0	0	300	300	0	0	7846	tolerant	1	-59,6354166666666642982pct	schön	treu	spielen	retten	tolerant	fair	schlecht	tot	strafen	rächen	tyrannisch	faul	helfen	lachen	schlau	freundlich	loyal	ehrlich	hindern	leiden	schroff	fanatisch	lasch	eitel	0	0	0	0	0	0	0	0	0	0	0	0	0	0	0	0	0	0	0	0	0	0	0	0	0	0	0	0	0	0
2024-06-05	12:13:18	12:24:36	677695	6.6.1	4_exp_EVA_AWA_CON	70	B	A	Rpleas_acq	Oppo	Lpleas	1pleas	conawa_CS2_US5_confidence	conawa1_nomask	8	4	0	0	300	300	0	0	7846	guess	1	-59,6354166666666642982pct	schön	treu	spielen	retten	tolerant	fair	schlecht	tot	strafen	rächen	tyrannisch	faul	helfen	lachen	schlau	freundlich	loyal	ehrlich	hindern	leiden	schroff	fanatisch	lasch	eitel	0	0	0	0	0	0	0	0	0	0	0	0	0	0	0	0	0	0	0	0	0	0	0	0	0	0	0	0	0	0
2024-06-05	12:13:18	12:24:42	682956	6.6.1	4_exp_EVA_AWA_CON	70	B	A	Rpleas_acq	Oppo	Lpleas	1pleas	conawa_CS1_US5	conawa1_nomask	8	5	0	0	300	300	0	0	4645	loyal	1	-59,6354166666666642982pct	schön	treu	spielen	retten	tolerant	fair	schlecht	tot	strafen	rächen	tyrannisch	faul	helfen	lachen	schlau	freundlich	loyal	ehrlich	hindern	leiden	schroff	fanatisch	lasch	eitel	0	0	0	0	0	0	0	0	0	0	0	0	0	0	0	0	0	0	0	0	0	0	0	0	0	0	0	0	0	0
2024-06-05	12:13:18	12:24:42	682959	6.6.1	4_exp_EVA_AWA_CON	70	B	A	Rpleas_acq	Oppo	Lpleas	1pleas	conawa_CS1_US5_confidence	conawa1_nomask	8	5	0	0	300	300	0	0	4645	guess	1	-59,6354166666666642982pct	schön	treu	spielen	retten	tolerant	fair	schlecht	tot	strafen	rächen	tyrannisch	faul	helfen	lachen	schlau	freundlich	loyal	ehrlich	hindern	leiden	schroff	fanatisch	lasch	eitel	0	0	0	0	0	0	0	0	0	0	0	0	0	0	0	0	0	0	0	0	0	0	0	0	0	0	0	0	0	0
2024-06-05	12:13:18	12:24:48	689501	6.6.1	4_exp_EVA_AWA_CON	70	B	A	Rpleas_acq	Oppo	Lpleas	1pleas	conawa_CS1_US6	conawa1_nomask	8	6	0	0	300	300	0	0	5933	fair	1	-59,6354166666666642982pct	schön	treu	spielen	retten	tolerant	fair	schlecht	tot	strafen	rächen	tyrannisch	faul	helfen	lachen	schlau	freundlich	loyal	ehrlich	hindern	leiden	schroff	fanatisch	lasch	eitel	0	0	0	0	0	0	0	0	0	0	0	0	0	0	0	0	0	0	0	0	0	0	0	0	0	0	0	0	0	0
2024-06-05	12:13:18	12:24:48	689503	6.6.1	4_exp_EVA_AWA_CON	70	B	A	Rpleas_acq	Oppo	Lpleas	1pleas	conawa_CS1_US6_confidence	conawa1_nomask	8	6	0	0	300	300	0	0	5933	guess	1	-59,6354166666666642982pct	schön	treu	spielen	retten	tolerant	fair	schlecht	tot	strafen	rächen	tyrannisch	faul	helfen	lachen	schlau	freundlich	loyal	ehrlich	hindern	leiden	schroff	fanatisch	lasch	eitel	0	0	0	0	0	0	0	0	0	0	0	0	0	0	0	0	0	0	0	0	0	0	0	0	0	0	0	0	0	0
2024-06-05	12:13:18	12:24:53	694664	6.6.1	4_exp_EVA_AWA_CON	70	B	A	Rpleas_acq	Oppo	Lpleas	1pleas	conawa_CS1_US3	conawa1_nomask	8	7	0	0	300	300	0	0	4548	spielen	1	-59,6354166666666642982pct	schön	treu	spielen	retten	tolerant	fair	schlecht	tot	strafen	rächen	tyrannisch	faul	helfen	lachen	schlau	freundlich	loyal	ehrlich	hindern	leiden	schroff	fanatisch	lasch	eitel	0	0	0	0	0	0	0	0	0	0	0	0	0	0	0	0	0	0	0	0	0	0	0	0	0	0	0	0	0	0
2024-06-05	12:13:18	12:24:53	694666	6.6.1	4_exp_EVA_AWA_CON	70	B	A	Rpleas_acq	Oppo	Lpleas	1pleas	conawa_CS1_US3_confidence	conawa1_nomask	8	7	0	0	300	300	0	0	4548	guess	1	-59,6354166666666642982pct	schön	treu	spielen	retten	tolerant	fair	schlecht	tot	strafen	rächen	tyrannisch	faul	helfen	lachen	schlau	freundlich	loyal	ehrlich	hindern	leiden	schroff	fanatisch	lasch	eitel	0	0	0	0	0	0	0	0	0	0	0	0	0	0	0	0	0	0	0	0	0	0	0	0	0	0	0	0	0	0
2024-06-05	12:13:18	12:24:59	700588	6.6.1	4_exp_EVA_AWA_CON	70	B	A	Rpleas_acq	Oppo	Lpleas	1pleas	conawa_CS2_US6	conawa1_nomask	8	8	0	0	300	300	0	0	5306	helfen	1	-59,6354166666666642982pct	schön	treu	spielen	retten	tolerant	fair	schlecht	tot	strafen	rächen	tyrannisch	faul	helfen	lachen	schlau	freundlich	loyal	ehrlich	hindern	leiden	schroff	fanatisch	lasch	eitel	0	0	0	0	0	0	0	0	0	0	0	0	0	0	0	0	0	0	0	0	0	0	0	0	0	0	0	0	0	0
2024-06-05	12:13:18	12:24:59	700590	6.6.1	4_exp_EVA_AWA_CON	70	B	A	Rpleas_acq	Oppo	Lpleas	1pleas	conawa_CS2_US6_confidence	conawa1_nomask	8	8	0	0	300	300	0	0	5306	guess	1	-59,6354166666666642982pct	schön	treu	spielen	retten	tolerant	fair	schlecht	tot	strafen	rächen	tyrannisch	faul	helfen	lachen	schlau	freundlich	loyal	ehrlich	hindern	leiden	schroff	fanatisch	lasch	eitel	0	0	0	0	0	0	0	0	0	0	0	0	0	0	0	0	0	0	0	0	0	0	0	0	0	0	0	0	0	0
2024-06-05	12:13:18	12:25:05	706662	6.6.1	4_exp_EVA_AWA_CON	70	B	A	Rpleas_acq	Oppo	Lpleas	1pleas	conawa_CS1_US1	conawa1_nomask	8	9	0	0	300	300	0	0	5451	schön	1	-59,6354166666666642982pct	schön	treu	spielen	retten	tolerant	fair	schlecht	tot	strafen	rächen	tyrannisch	faul	helfen	lachen	schlau	freundlich	loyal	ehrlich	hindern	leiden	schroff	fanatisch	lasch	eitel	0	0	0	0	0	0	0	0	0	0	0	0	0	0	0	0	0	0	0	0	0	0	0	0	0	0	0	0	0	0
2024-06-05	12:13:18	12:25:05	706663	6.6.1	4_exp_EVA_AWA_CON	70	B	A	Rpleas_acq	Oppo	Lpleas	1pleas	conawa_CS1_US1_confidence	conawa1_nomask	8	9	0	0	300	300	0	0	5451	guess	1	-59,6354166666666642982pct	schön	treu	spielen	retten	tolerant	fair	schlecht	tot	strafen	rächen	tyrannisch	faul	helfen	lachen	schlau	freundlich	loyal	ehrlich	hindern	leiden	schroff	fanatisch	lasch	eitel	0	0	0	0	0	0	0	0	0	0	0	0	0	0	0	0	0	0	0	0	0	0	0	0	0	0	0	0	0	0
2024-06-05	12:13:18	12:25:12	713196	6.6.1	4_exp_EVA_AWA_CON	70	B	A	Rpleas_acq	Oppo	Lpleas	1pleas	conawa_CS2_US3	conawa1_nomask	8	10	0	0	300	300	0	0	5925	freundlich	1	-59,6354166666666642982pct	schön	treu	spielen	retten	tolerant	fair	schlecht	tot	strafen	rächen	tyrannisch	faul	helfen	lachen	schlau	freundlich	loyal	ehrlich	hindern	leiden	schroff	fanatisch	lasch	eitel	0	0	0	0	0	0	0	0	0	0	0	0	0	0	0	0	0	0	0	0	0	0	0	0	0	0	0	0	0	0
2024-06-05	12:13:18	12:25:12	713198	6.6.1	4_exp_EVA_AWA_CON	70	B	A	Rpleas_acq	Oppo	Lpleas	1pleas	conawa_CS2_US3_confidence	conawa1_nomask	8	10	0	0	300	300	0	0	5925	guess	1	-59,6354166666666642982pct	schön	treu	spielen	retten	tolerant	fair	schlecht	tot	strafen	rächen	tyrannisch	faul	helfen	lachen	schlau	freundlich	loyal	ehrlich	hindern	leiden	schroff	fanatisch	lasch	eitel	0	0	0	0	0	0	0	0	0	0	0	0	0	0	0	0	0	0	0	0	0	0	0	0	0	0	0	0	0	0
2024-06-05	12:13:18	12:25:25	726395	6.6.1	4_exp_EVA_AWA_CON	70	B	A	Rpleas_acq	Oppo	Lpleas	1pleas	conawa_CS1_US2	conawa1_nomask	8	11	0	0	300	300	0	0	12582	treu	1	-59,6354166666666642982pct	schön	treu	spielen	retten	tolerant	fair	schlecht	tot	strafen	rächen	tyrannisch	faul	helfen	lachen	schlau	freundlich	loyal	ehrlich	hindern	leiden	schroff	fanatisch	lasch	eitel	0	0	0	0	0	0	0	0	0	0	0	0	0	0	0	0	0	0	0	0	0	0	0	0	0	0	0	0	0	0
2024-06-05	12:13:18	12:25:25	726396	6.6.1	4_exp_EVA_AWA_CON	70	B	A	Rpleas_acq	Oppo	Lpleas	1pleas	conawa_CS1_US2_confidence	conawa1_nomask	8	11	0	0	300	300	0	0	12582	guess	1	-59,6354166666666642982pct	schön	treu	spielen	retten	tolerant	fair	schlecht	tot	strafen	rächen	tyrannisch	faul	helfen	lachen	schlau	freundlich	loyal	ehrlich	hindern	leiden	schroff	fanatisch	lasch	eitel	0	0	0	0	0	0	0	0	0	0	0	0	0	0	0	0	0	0	0	0	0	0	0	0	0	0	0	0	0	0
2024-06-05	12:13:18	12:25:31	732618	6.6.1	4_exp_EVA_AWA_CON	70	B	A	Rpleas_acq	Oppo	Lpleas	1pleas	conawa_CS2_US1	conawa1_nomask	8	12	0	0	300	300	0	0	5606	leiden	1	-59,6354166666666642982pct	schön	treu	spielen	retten	tolerant	fair	schlecht	tot	strafen	rächen	tyrannisch	faul	helfen	lachen	schlau	freundlich	loyal	ehrlich	hindern	leiden	schroff	fanatisch	lasch	eitel	0	0	0	0	0	0	0	0	0	0	0	0	0	0	0	0	0	0	0	0	0	0	0	0	0	0	0	0	0	0
2024-06-05	12:13:18	12:25:31	732620	6.6.1	4_exp_EVA_AWA_CON	70	B	A	Rpleas_acq	Oppo	Lpleas	1pleas	conawa_CS2_US1_confidence	conawa1_nomask	8	12	0	0	300	300	0	0	5606	guess	1	-59,6354166666666642982pct	schön	treu	spielen	retten	tolerant	fair	schlecht	tot	strafen	rächen	tyrannisch	faul	helfen	lachen	schlau	freundlich	loyal	ehrlich	hindern	leiden	schroff	fanatisch	lasch	eitel	0	0	0	0	0	0	0	0	0	0	0	0	0	0	0	0	0	0	0	0	0	0	0	0	0	0	0	0	0	0
2024-06-05	12:13:18	12:26:27	788089	6.6.1	4_exp_EVA_AWA_CON	70	B	A	Rpleas_acq	Oppo	Lpleas	1pleas	cond_new_unple_456_nomask_CS2	condtest_nomask_1	11	1	400	0	300	300	0	0	477	46	0	-59,6354166666666642982pct	schön	treu	spielen	retten	tolerant	fair	schlecht	tot	strafen	rächen	tyrannisch	faul	helfen	lachen	schlau	freundlich	loyal	ehrlich	hindern	leiden	schroff	fanatisch	lasch	eitel	1	blank2r.bmp	0	1	+	0	1	blank2r.bmp	500	1	GKQX	500	1	blank2r.bmp	880	1	eitel	880	1	!	1232	1	!	-1	0	0	0	0	0	0
2024-06-05	12:13:18	12:26:29	790324	6.6.1	4_exp_EVA_AWA_CON	70	B	A	Rpleas_acq	Oppo	Lpleas	1pleas	cond_US_pleas_123_nomask_CS2	condtest_nomask_1	11	2	400	1	300	300	0	0	457	46	1	-59,6354166666666642982pct	schön	treu	spielen	retten	tolerant	fair	schlecht	tot	strafen	rächen	tyrannisch	faul	helfen	lachen	schlau	freundlich	loyal	ehrlich	hindern	leiden	schroff	fanatisch	lasch	eitel	1	blank2r.bmp	0	1	+	0	1	blank2r.bmp	500	1	GKQX	500	1	blank2r.bmp	880	3	treu	880	1	!	1232	1	!	1359	0	0	0	0	0	0
2024-06-05	12:13:18	12:26:31	792569	6.6.1	4_exp_EVA_AWA_CON	70	B	A	Rpleas_acq	Oppo	Lpleas	1pleas	cond_new_pleas_456_nomask_CS2	condtest_nomask_1	11	3	400	0	300	300	0	0	474	46	1	-59,6354166666666642982pct	schön	treu	spielen	retten	tolerant	fair	schlecht	tot	strafen	rächen	tyrannisch	faul	helfen	lachen	schlau	freundlich	loyal	ehrlich	hindern	leiden	schroff	fanatisch	lasch	eitel	1	blank2r.bmp	0	1	+	0	1	blank2r.bmp	500	1	GKQX	500	1	blank2r.bmp	880	2	freundlich	880	1	!	1232	1	!	-1	0	0	0	0	0	0
2024-06-05	12:13:18	12:26:33	794749	6.6.1	4_exp_EVA_AWA_CON	70	B	A	Rpleas_acq	Oppo	Lpleas	1pleas	cond_US_pleas_123_nomask_CS1	condtest_nomask_1	11	4	400	1	300	300	0	0	398	46	1	-59,6354166666666642982pct	schön	treu	spielen	retten	tolerant	fair	schlecht	tot	strafen	rächen	tyrannisch	faul	helfen	lachen	schlau	freundlich	loyal	ehrlich	hindern	leiden	schroff	fanatisch	lasch	eitel	1	blank2r.bmp	0	1	+	0	1	blank2r.bmp	500	1	BMVZ	500	1	blank2r.bmp	880	3	spielen	880	1	!	1233	1	!	1300	0	0	0	0	0	0
2024-06-05	12:13:18	12:26:36	797035	6.6.1	4_exp_EVA_AWA_CON	70	B	A	Rpleas_acq	Oppo	Lpleas	1pleas	cond_US_unple_123_nomask_CS2	condtest_nomask_1	11	5	400	0	300	300	0	0	506	50	1	-59,6354166666666642982pct	schön	treu	spielen	retten	tolerant	fair	schlecht	tot	strafen	rächen	tyrannisch	faul	helfen	lachen	schlau	freundlich	loyal	ehrlich	hindern	leiden	schroff	fanatisch	lasch	eitel	1	blank2r.bmp	0	1	+	0	1	blank2r.bmp	500	1	GKQX	500	1	blank2r.bmp	880	2	schlecht	880	1	!	1232	1	!	-1	0	0	0	0	0	0
2024-06-05	12:13:18	12:26:38	799307	6.6.1	4_exp_EVA_AWA_CON	70	B	A	Rpleas_acq	Oppo	Lpleas	1pleas	cond_new_unple_456_nomask_CS1	condtest_nomask_1	11	6	400	0	300	300	0	0	495	46	0	-59,6354166666666642982pct	schön	treu	spielen	retten	tolerant	fair	schlecht	tot	strafen	rächen	tyrannisch	faul	helfen	lachen	schlau	freundlich	loyal	ehrlich	hindern	leiden	schroff	fanatisch	lasch	eitel	1	blank2r.bmp	0	1	+	0	1	blank2r.bmp	500	1	BMVZ	500	1	blank2r.bmp	880	1	fanatisch	880	1	!	1232	1	!	-1	0	0	0	0	0	0
2024-06-05	12:13:18	12:26:40	801587	6.6.1	4_exp_EVA_AWA_CON	70	B	A	Rpleas_acq	Oppo	Lpleas	1pleas	cond_US_unple_123_nomask_CS1	condtest_nomask_1	11	7	400	0	300	300	0	0	505	50	1	-59,6354166666666642982pct	schön	treu	spielen	retten	tolerant	fair	schlecht	tot	strafen	rächen	tyrannisch	faul	helfen	lachen	schlau	freundlich	loyal	ehrlich	hindern	leiden	schroff	fanatisch	lasch	eitel	1	blank2r.bmp	0	1	+	0	1	blank2r.bmp	500	1	BMVZ	500	1	blank2r.bmp	880	1	schlecht	880	1	!	1233	1	!	-1	0	0	0	0	0	0
2024-06-05	12:13:18	12:26:42	803931	6.6.1	4_exp_EVA_AWA_CON	70	B	A	Rpleas_acq	Oppo	Lpleas	1pleas	cond_new_pleas_456_nomask_CS1	condtest_nomask_1	11	8	400	0	300	300	0	0	567	46	1	-59,6354166666666642982pct	schön	treu	spielen	retten	tolerant	fair	schlecht	tot	strafen	rächen	tyrannisch	faul	helfen	lachen	schlau	freundlich	loyal	ehrlich	hindern	leiden	schroff	fanatisch	lasch	eitel	1	blank2r.bmp	0	1	+	0	1	blank2r.bmp	500	1	BMVZ	500	1	blank2r.bmp	880	3	ehrlich	880	1	!	1232	1	!	-1	0	0	0	0	0	0
2024-06-05	12:13:18	12:26:53	814053	6.6.1	4_exp_EVA_AWA_CON	70	B	A	Rpleas_acq	Oppo	Lpleas	1pleas	cond_US_pleas_123_nomask_CS2	condtest_nomask_2	12	1	400	1	300	300	0	0	440	46	1	-59,6354166666666642982pct	schön	treu	spielen	retten	tolerant	fair	schlecht	tot	strafen	rächen	tyrannisch	faul	helfen	lachen	schlau	freundlich	loyal	ehrlich	hindern	leiden	schroff	fanatisch	lasch	eitel	1	blank2r.bmp	0	1	+	0	1	blank2r.bmp	500	1	GKQX	500	1	blank2r.bmp	880	1	spielen	880	1	!	1232	1	!	1342	0	0	0	0	0	0
