date	time	currenttime	elapsedtime	build	currentexpt	subject	CS_AB	US_AB	LRpleas_acq	SameOppo	condition_Lpleas	condition_1pleas	trialcode	blockcode	blocknum	trialnum	windowcenter	inwindow	pretrialpause	posttrialpause	trialduration	trialtimeout	latency	response	correct	correctedscore	US_nomask_pleas1	US_nomask_pleas2	US_nomask_pleas3	US_nomask_pleas4	US_nomask_pleas5	US_nomask_pleas6	US_nomask_unple1	US_nomask_unple2	US_nomask_unple3	US_nomask_unple4	US_nomask_unple5	US_nomask_unple6	new_nomask_pleas1	new_nomask_pleas2	new_nomask_pleas3	new_nomask_pleas4	new_nomask_pleas5	new_nomask_pleas6	new_nomask_unple1	new_nomask_unple2	new_nomask_unple3	new_nomask_unple4	new_nomask_unple5	new_nomask_unple6	stimulusnumber1	stimulusitem1	stimulusonset1	stimulusnumber2	stimulusitem2	stimulusonset2	stimulusnumber3	stimulusitem3	stimulusonset3	stimulusnumber4	stimulusitem4	stimulusonset4	stimulusnumber5	stimulusitem5	stimulusonset5	stimulusnumber6	stimulusitem6	stimulusonset6	stimulusnumber7	stimulusitem7	stimulusonset7	stimulusnumber8	stimulusitem8	stimulusonset8	stimulusnumber9	stimulusitem9	stimulusonset9	stimulusnumber10	stimulusitem10	stimulusonset10
2024-06-10	12:17:47	12:22:36	288681	6.6.1	4_exp_EVA_AWA_CON	76	B	A	Rpleas_acq	Oppo	Rpleas	2pleas	acq_US_pleas_nomask	acq1_nomask	1	1	0	0	300	300	0	0	701	46	0	0	ehrlich	schön	freundlich	treu	retten	helfen	eitel	schlecht	fanatisch	tot	rächen	hindern	spielen	schlau	loyal	lachen	fair	tolerant	strafen	schroff	lasch	leiden	faul	tyrannisch	1	blank2r.bmp	0	1	+	0	1	blank2r.bmp	500	1	GKQX	500	1	blank2r.bmp	880	4	treu	880	1	FEHLER	1603	0	0	0	0	0	0	0	0	0
2024-06-10	12:17:47	12:22:38	290407	6.6.1	4_exp_EVA_AWA_CON	76	B	A	Rpleas_acq	Oppo	Rpleas	2pleas	acq_new_pleas_nomask	acq1_nomask	1	2	0	0	300	300	0	0	447	50	1	0	ehrlich	schön	freundlich	treu	retten	helfen	eitel	schlecht	fanatisch	tot	rächen	hindern	spielen	schlau	loyal	lachen	fair	tolerant	strafen	schroff	lasch	leiden	faul	tyrannisch	1	blank2r.bmp	0	1	+	0	1	blank2r.bmp	500	8	C4r.bmp	500	1	blank2r.bmp	880	2	schlau	880	0	0	0	0	0	0	0	0	0	0	0	0
2024-06-10	12:17:47	12:22:40	292729	6.6.1	4_exp_EVA_AWA_CON	76	B	A	Rpleas_acq	Oppo	Rpleas	2pleas	acq_US_pleas_nomask	acq1_nomask	1	3	0	0	300	300	0	0	636	46	0	0	ehrlich	schön	freundlich	treu	retten	helfen	eitel	schlecht	fanatisch	tot	rächen	hindern	spielen	schlau	loyal	lachen	fair	tolerant	strafen	schroff	lasch	leiden	faul	tyrannisch	1	blank2r.bmp	0	1	+	0	1	blank2r.bmp	500	1	GKQX	500	1	blank2r.bmp	880	5	retten	880	1	FEHLER	1538	0	0	0	0	0	0	0	0	0
2024-06-10	12:17:47	12:22:46	298031	6.6.1	4_exp_EVA_AWA_CON	76	B	A	Rpleas_acq	Oppo	Rpleas	2pleas	acq_US_unple_nomask	acq1_nomask	1	4	0	0	300	300	0	0	4019	46	1	0	ehrlich	schön	freundlich	treu	retten	helfen	eitel	schlecht	fanatisch	tot	rächen	hindern	spielen	schlau	loyal	lachen	fair	tolerant	strafen	schroff	lasch	leiden	faul	tyrannisch	1	blank2r.bmp	0	1	+	0	1	blank2r.bmp	500	1	BMVZ	500	1	blank2r.bmp	880	6	hindern	880	0	0	0	0	0	0	0	0	0	0	0	0
2024-06-10	12:17:47	12:22:48	300591	6.6.1	4_exp_EVA_AWA_CON	76	B	A	Rpleas_acq	Oppo	Rpleas	2pleas	acq_new_pleas_nomask	acq1_nomask	1	5	0	0	300	300	0	0	1075	50	1	0	ehrlich	schön	freundlich	treu	retten	helfen	eitel	schlecht	fanatisch	tot	rächen	hindern	spielen	schlau	loyal	lachen	fair	tolerant	strafen	schroff	lasch	leiden	faul	tyrannisch	1	blank2r.bmp	0	1	+	0	1	blank2r.bmp	500	1	B1r.bmp	500	1	blank2r.bmp	880	6	tolerant	880	0	0	0	0	0	0	0	0	0	0	0	0
2024-06-10	12:17:47	12:22:51	302912	6.6.1	4_exp_EVA_AWA_CON	76	B	A	Rpleas_acq	Oppo	Rpleas	2pleas	acq_new_pleas_nomask	acq1_nomask	1	6	0	0	300	300	0	0	633	46	0	0	ehrlich	schön	freundlich	treu	retten	helfen	eitel	schlecht	fanatisch	tot	rächen	hindern	spielen	schlau	loyal	lachen	fair	tolerant	strafen	schroff	lasch	leiden	faul	tyrannisch	1	blank2r.bmp	0	1	+	0	1	blank2r.bmp	500	3	B3r.bmp	500	1	blank2r.bmp	880	3	loyal	880	1	FEHLER	1535	0	0	0	0	0	0	0	0	0
2024-06-10	12:17:47	12:22:53	304969	6.6.1	4_exp_EVA_AWA_CON	76	B	A	Rpleas_acq	Oppo	Rpleas	2pleas	acq_new_unple_nomask	acq1_nomask	1	7	0	0	300	300	0	0	568	50	0	0	ehrlich	schön	freundlich	treu	retten	helfen	eitel	schlecht	fanatisch	tot	rächen	hindern	spielen	schlau	loyal	lachen	fair	tolerant	strafen	schroff	lasch	leiden	faul	tyrannisch	1	blank2r.bmp	0	1	+	0	1	blank2r.bmp	500	4	B4r.bmp	500	1	blank2r.bmp	880	2	schroff	880	1	FEHLER	1470	0	0	0	0	0	0	0	0	0
2024-06-10	12:17:47	12:22:54	306688	6.6.1	4_exp_EVA_AWA_CON	76	B	A	Rpleas_acq	Oppo	Rpleas	2pleas	acq_US_pleas_nomask	acq1_nomask	1	8	0	0	300	300	0	0	237	46	0	0	ehrlich	schön	freundlich	treu	retten	helfen	eitel	schlecht	fanatisch	tot	rächen	hindern	spielen	schlau	loyal	lachen	fair	tolerant	strafen	schroff	lasch	leiden	faul	tyrannisch	1	blank2r.bmp	0	1	+	0	1	blank2r.bmp	500	1	GKQX	500	1	blank2r.bmp	880	1	ehrlich	880	1	FEHLER	1138	0	0	0	0	0	0	0	0	0
2024-06-10	12:17:47	12:22:56	308673	6.6.1	4_exp_EVA_AWA_CON	76	B	A	Rpleas_acq	Oppo	Rpleas	2pleas	acq_new_unple_nomask	acq1_nomask	1	9	0	0	300	300	0	0	500	50	0	0	ehrlich	schön	freundlich	treu	retten	helfen	eitel	schlecht	fanatisch	tot	rächen	hindern	spielen	schlau	loyal	lachen	fair	tolerant	strafen	schroff	lasch	leiden	faul	tyrannisch	1	blank2r.bmp	0	1	+	0	1	blank2r.bmp	500	5	C1r.bmp	500	1	blank2r.bmp	880	4	leiden	880	1	FEHLER	1402	0	0	0	0	0	0	0	0	0
2024-06-10	12:17:47	12:22:58	310279	6.6.1	4_exp_EVA_AWA_CON	76	B	A	Rpleas_acq	Oppo	Rpleas	2pleas	acq_US_unple_nomask	acq1_nomask	1	10	0	0	300	300	0	0	326	46	1	0	ehrlich	schön	freundlich	treu	retten	helfen	eitel	schlecht	fanatisch	tot	rächen	hindern	spielen	schlau	loyal	lachen	fair	tolerant	strafen	schroff	lasch	leiden	faul	tyrannisch	1	blank2r.bmp	0	1	+	0	1	blank2r.bmp	500	1	BMVZ	500	1	blank2r.bmp	880	2	schlecht	880	0	0	0	0	0	0	0	0	0	0	0	0
2024-06-10	12:17:47	12:23:00	312337	6.6.1	4_exp_EVA_AWA_CON	76	B	A	Rpleas_acq	Oppo	Rpleas	2pleas	acq_US_unple_nomask	acq1_nomask	1	11	0	0	300	300	0	0	371	50	0	0	ehrlich	schön	freundlich	treu	retten	helfen	eitel	schlecht	fanatisch	tot	rächen	hindern	spielen	schlau	loyal	lachen	fair	tolerant	strafen	schroff	lasch	leiden	faul	tyrannisch	1	blank2r.bmp	0	1	+	0	1	blank2r.bmp	500	1	BMVZ	500	1	blank2r.bmp	880	5	rächen	880	1	FEHLER	1273	0	0	0	0	0	0	0	0	0
2024-06-10	12:17:47	12:23:02	314096	6.6.1	4_exp_EVA_AWA_CON	76	B	A	Rpleas_acq	Oppo	Rpleas	2pleas	acq_new_unple_nomask	acq1_nomask	1	12	0	0	300	300	0	0	480	46	1	0	ehrlich	schön	freundlich	treu	retten	helfen	eitel	schlecht	fanatisch	tot	rächen	hindern	spielen	schlau	loyal	lachen	fair	tolerant	strafen	schroff	lasch	leiden	faul	tyrannisch	1	blank2r.bmp	0	1	+	0	1	blank2r.bmp	500	7	C3r.bmp	500	1	blank2r.bmp	880	3	lasch	880	0	0	0	0	0	0	0	0	0	0	0	0
2024-06-10	12:17:47	12:23:04	316240	6.6.1	4_exp_EVA_AWA_CON	76	B	A	Rpleas_acq	Oppo	Rpleas	2pleas	acq_US_unple_nomask	acq1_nomask	1	13	0	0	300	300	0	0	463	50	0	0	ehrlich	schön	freundlich	treu	retten	helfen	eitel	schlecht	fanatisch	tot	rächen	hindern	spielen	schlau	loyal	lachen	fair	tolerant	strafen	schroff	lasch	leiden	faul	tyrannisch	1	blank2r.bmp	0	1	+	0	1	blank2r.bmp	500	1	BMVZ	500	1	blank2r.bmp	880	4	tot	880	1	FEHLER	1364	0	0	0	0	0	0	0	0	0
2024-06-10	12:17:47	12:23:06	317888	6.6.1	4_exp_EVA_AWA_CON	76	B	A	Rpleas_acq	Oppo	Rpleas	2pleas	acq_new_unple_nomask	acq1_nomask	1	14	0	0	300	300	0	0	360	46	1	0	ehrlich	schön	freundlich	treu	retten	helfen	eitel	schlecht	fanatisch	tot	rächen	hindern	spielen	schlau	loyal	lachen	fair	tolerant	strafen	schroff	lasch	leiden	faul	tyrannisch	1	blank2r.bmp	0	1	+	0	1	blank2r.bmp	500	6	C2r.bmp	500	1	blank2r.bmp	880	1	strafen	880	0	0	0	0	0	0	0	0	0	0	0	0
2024-06-10	12:17:47	12:23:08	319921	6.6.1	4_exp_EVA_AWA_CON	76	B	A	Rpleas_acq	Oppo	Rpleas	2pleas	acq_US_pleas_nomask	acq1_nomask	1	15	0	0	300	300	0	0	350	46	0	0	ehrlich	schön	freundlich	treu	retten	helfen	eitel	schlecht	fanatisch	tot	rächen	hindern	spielen	schlau	loyal	lachen	fair	tolerant	strafen	schroff	lasch	leiden	faul	tyrannisch	1	blank2r.bmp	0	1	+	0	1	blank2r.bmp	500	1	GKQX	500	1	blank2r.bmp	880	2	schön	880	1	FEHLER	1252	0	0	0	0	0	0	0	0	0
2024-06-10	12:17:47	12:23:10	321911	6.6.1	4_exp_EVA_AWA_CON	76	B	A	Rpleas_acq	Oppo	Rpleas	2pleas	acq_new_pleas_nomask	acq1_nomask	1	16	0	0	300	300	0	0	711	50	1	0	ehrlich	schön	freundlich	treu	retten	helfen	eitel	schlecht	fanatisch	tot	rächen	hindern	spielen	schlau	loyal	lachen	fair	tolerant	strafen	schroff	lasch	leiden	faul	tyrannisch	1	blank2r.bmp	0	1	+	0	1	blank2r.bmp	500	2	B2r.bmp	500	1	blank2r.bmp	880	1	spielen	880	0	0	0	0	0	0	0	0	0	0	0	0
2024-06-10	12:17:47	12:23:11	323863	6.6.1	4_exp_EVA_AWA_CON	76	B	A	Rpleas_acq	Oppo	Rpleas	2pleas	acq_US_pleas_nomask	acq1_nomask	1	17	0	0	300	300	0	0	472	50	1	0	ehrlich	schön	freundlich	treu	retten	helfen	eitel	schlecht	fanatisch	tot	rächen	hindern	spielen	schlau	loyal	lachen	fair	tolerant	strafen	schroff	lasch	leiden	faul	tyrannisch	1	blank2r.bmp	0	1	+	0	1	blank2r.bmp	500	1	GKQX	500	1	blank2r.bmp	880	3	freundlich	880	0	0	0	0	0	0	0	0	0	0	0	0
2024-06-10	12:17:47	12:23:14	326073	6.6.1	4_exp_EVA_AWA_CON	76	B	A	Rpleas_acq	Oppo	Rpleas	2pleas	acq_US_unple_nomask	acq1_nomask	1	18	0	0	300	300	0	0	518	50	0	0	ehrlich	schön	freundlich	treu	retten	helfen	eitel	schlecht	fanatisch	tot	rächen	hindern	spielen	schlau	loyal	lachen	fair	tolerant	strafen	schroff	lasch	leiden	faul	tyrannisch	1	blank2r.bmp	0	1	+	0	1	blank2r.bmp	500	1	BMVZ	500	1	blank2r.bmp	880	3	fanatisch	880	1	FEHLER	1420	0	0	0	0	0	0	0	0	0
2024-06-10	12:17:47	12:23:15	327823	6.6.1	4_exp_EVA_AWA_CON	76	B	A	Rpleas_acq	Oppo	Rpleas	2pleas	acq_US_unple_nomask	acq1_nomask	1	19	0	0	300	300	0	0	469	46	1	0	ehrlich	schön	freundlich	treu	retten	helfen	eitel	schlecht	fanatisch	tot	rächen	hindern	spielen	schlau	loyal	lachen	fair	tolerant	strafen	schroff	lasch	leiden	faul	tyrannisch	1	blank2r.bmp	0	1	+	0	1	blank2r.bmp	500	1	BMVZ	500	1	blank2r.bmp	880	1	eitel	880	0	0	0	0	0	0	0	0	0	0	0	0
2024-06-10	12:17:47	12:23:17	329831	6.6.1	4_exp_EVA_AWA_CON	76	B	A	Rpleas_acq	Oppo	Rpleas	2pleas	acq_US_pleas_nomask	acq1_nomask	1	20	0	0	300	300	0	0	526	50	1	0	ehrlich	schön	freundlich	treu	retten	helfen	eitel	schlecht	fanatisch	tot	rächen	hindern	spielen	schlau	loyal	lachen	fair	tolerant	strafen	schroff	lasch	leiden	faul	tyrannisch	1	blank2r.bmp	0	1	+	0	1	blank2r.bmp	500	1	GKQX	500	1	blank2r.bmp	880	6	helfen	880	0	0	0	0	0	0	0	0	0	0	0	0
2024-06-10	12:17:47	12:23:20	331983	6.6.1	4_exp_EVA_AWA_CON	76	B	A	Rpleas_acq	Oppo	Rpleas	2pleas	acq_new_pleas_nomask	acq1_nomask	1	21	0	0	300	300	0	0	667	50	1	0	ehrlich	schön	freundlich	treu	retten	helfen	eitel	schlecht	fanatisch	tot	rächen	hindern	spielen	schlau	loyal	lachen	fair	tolerant	strafen	schroff	lasch	leiden	faul	tyrannisch	1	blank2r.bmp	0	1	+	0	1	blank2r.bmp	500	1	B1r.bmp	500	1	blank2r.bmp	880	4	lachen	880	0	0	0	0	0	0	0	0	0	0	0	0
2024-06-10	12:17:47	12:23:22	334112	6.6.1	4_exp_EVA_AWA_CON	76	B	A	Rpleas_acq	Oppo	Rpleas	2pleas	acq_new_pleas_nomask	acq1_nomask	1	22	0	0	300	300	0	0	443	46	0	0	ehrlich	schön	freundlich	treu	retten	helfen	eitel	schlecht	fanatisch	tot	rächen	hindern	spielen	schlau	loyal	lachen	fair	tolerant	strafen	schroff	lasch	leiden	faul	tyrannisch	1	blank2r.bmp	0	1	+	0	1	blank2r.bmp	500	5	C1r.bmp	500	1	blank2r.bmp	880	5	fair	880	1	FEHLER	1344	0	0	0	0	0	0	0	0	0
2024-06-10	12:17:47	12:23:24	336184	6.6.1	4_exp_EVA_AWA_CON	76	B	A	Rpleas_acq	Oppo	Rpleas	2pleas	acq_new_unple_nomask	acq1_nomask	1	23	0	0	300	300	0	0	584	50	0	0	ehrlich	schön	freundlich	treu	retten	helfen	eitel	schlecht	fanatisch	tot	rächen	hindern	spielen	schlau	loyal	lachen	fair	tolerant	strafen	schroff	lasch	leiden	faul	tyrannisch	1	blank2r.bmp	0	1	+	0	1	blank2r.bmp	500	2	B2r.bmp	500	1	blank2r.bmp	880	6	tyrannisch	880	1	FEHLER	1485	0	0	0	0	0	0	0	0	0
2024-06-10	12:17:47	12:23:26	337927	6.6.1	4_exp_EVA_AWA_CON	76	B	A	Rpleas_acq	Oppo	Rpleas	2pleas	acq_new_unple_nomask	acq1_nomask	1	24	0	0	300	300	0	0	457	46	1	0	ehrlich	schön	freundlich	treu	retten	helfen	eitel	schlecht	fanatisch	tot	rächen	hindern	spielen	schlau	loyal	lachen	fair	tolerant	strafen	schroff	lasch	leiden	faul	tyrannisch	1	blank2r.bmp	0	1	+	0	1	blank2r.bmp	500	4	B4r.bmp	500	1	blank2r.bmp	880	5	faul	880	0	0	0	0	0	0	0	0	0	0	0	0
2024-06-10	12:17:47	12:23:28	340025	6.6.1	4_exp_EVA_AWA_CON	76	B	A	Rpleas_acq	Oppo	Rpleas	2pleas	acq_new_unple_nomask	acq1_nomask	1	25	0	0	300	300	0	0	411	50	0	0	ehrlich	schön	freundlich	treu	retten	helfen	eitel	schlecht	fanatisch	tot	rächen	hindern	spielen	schlau	loyal	lachen	fair	tolerant	strafen	schroff	lasch	leiden	faul	tyrannisch	1	blank2r.bmp	0	1	+	0	1	blank2r.bmp	500	8	C4r.bmp	500	1	blank2r.bmp	880	1	strafen	880	1	FEHLER	1313	0	0	0	0	0	0	0	0	0
2024-06-10	12:17:47	12:23:29	341767	6.6.1	4_exp_EVA_AWA_CON	76	B	A	Rpleas_acq	Oppo	Rpleas	2pleas	acq_US_pleas_nomask	acq1_nomask	1	26	0	0	300	300	0	0	454	50	1	0	ehrlich	schön	freundlich	treu	retten	helfen	eitel	schlecht	fanatisch	tot	rächen	hindern	spielen	schlau	loyal	lachen	fair	tolerant	strafen	schroff	lasch	leiden	faul	tyrannisch	1	blank2r.bmp	0	1	+	0	1	blank2r.bmp	500	1	GKQX	500	1	blank2r.bmp	880	3	freundlich	880	0	0	0	0	0	0	0	0	0	0	0	0
2024-06-10	12:17:47	12:23:31	343743	6.6.1	4_exp_EVA_AWA_CON	76	B	A	Rpleas_acq	Oppo	Rpleas	2pleas	acq_new_pleas_nomask	acq1_nomask	1	27	0	0	300	300	0	0	489	50	1	0	ehrlich	schön	freundlich	treu	retten	helfen	eitel	schlecht	fanatisch	tot	rächen	hindern	spielen	schlau	loyal	lachen	fair	tolerant	strafen	schroff	lasch	leiden	faul	tyrannisch	1	blank2r.bmp	0	1	+	0	1	blank2r.bmp	500	7	C3r.bmp	500	1	blank2r.bmp	880	3	loyal	880	0	0	0	0	0	0	0	0	0	0	0	0
2024-06-10	12:17:47	12:23:34	345879	6.6.1	4_exp_EVA_AWA_CON	76	B	A	Rpleas_acq	Oppo	Rpleas	2pleas	acq_new_unple_nomask	acq1_nomask	1	28	0	0	300	300	0	0	654	46	1	0	ehrlich	schön	freundlich	treu	retten	helfen	eitel	schlecht	fanatisch	tot	rächen	hindern	spielen	schlau	loyal	lachen	fair	tolerant	strafen	schroff	lasch	leiden	faul	tyrannisch	1	blank2r.bmp	0	1	+	0	1	blank2r.bmp	500	3	B3r.bmp	500	1	blank2r.bmp	880	6	tyrannisch	880	0	0	0	0	0	0	0	0	0	0	0	0
2024-06-10	12:17:47	12:23:36	348049	6.6.1	4_exp_EVA_AWA_CON	76	B	A	Rpleas_acq	Oppo	Rpleas	2pleas	acq_new_unple_nomask	acq1_nomask	1	29	0	0	300	300	0	0	480	50	0	0	ehrlich	schön	freundlich	treu	retten	helfen	eitel	schlecht	fanatisch	tot	rächen	hindern	spielen	schlau	loyal	lachen	fair	tolerant	strafen	schroff	lasch	leiden	faul	tyrannisch	1	blank2r.bmp	0	1	+	0	1	blank2r.bmp	500	6	C2r.bmp	500	1	blank2r.bmp	880	5	faul	880	1	FEHLER	1382	0	0	0	0	0	0	0	0	0
2024-06-10	12:17:47	12:23:38	349984	6.6.1	4_exp_EVA_AWA_CON	76	B	A	Rpleas_acq	Oppo	Rpleas	2pleas	acq_US_pleas_nomask	acq1_nomask	1	30	0	0	300	300	0	0	455	46	0	0	ehrlich	schön	freundlich	treu	retten	helfen	eitel	schlecht	fanatisch	tot	rächen	hindern	spielen	schlau	loyal	lachen	fair	tolerant	strafen	schroff	lasch	leiden	faul	tyrannisch	1	blank2r.bmp	0	1	+	0	1	blank2r.bmp	500	1	GKQX	500	1	blank2r.bmp	880	6	helfen	880	1	FEHLER	1356	0	0	0	0	0	0	0	0	0
2024-06-10	12:17:47	12:23:40	351952	6.6.1	4_exp_EVA_AWA_CON	76	B	A	Rpleas_acq	Oppo	Rpleas	2pleas	acq_US_unple_nomask	acq1_nomask	1	31	0	0	300	300	0	0	482	50	0	0	ehrlich	schön	freundlich	treu	retten	helfen	eitel	schlecht	fanatisch	tot	rächen	hindern	spielen	schlau	loyal	lachen	fair	tolerant	strafen	schroff	lasch	leiden	faul	tyrannisch	1	blank2r.bmp	0	1	+	0	1	blank2r.bmp	500	1	BMVZ	500	1	blank2r.bmp	880	5	rächen	880	1	FEHLER	1383	0	0	0	0	0	0	0	0	0
2024-06-10	12:17:47	12:23:41	353847	6.6.1	4_exp_EVA_AWA_CON	76	B	A	Rpleas_acq	Oppo	Rpleas	2pleas	acq_US_unple_nomask	acq1_nomask	1	32	0	0	300	300	0	0	606	46	1	0	ehrlich	schön	freundlich	treu	retten	helfen	eitel	schlecht	fanatisch	tot	rächen	hindern	spielen	schlau	loyal	lachen	fair	tolerant	strafen	schroff	lasch	leiden	faul	tyrannisch	1	blank2r.bmp	0	1	+	0	1	blank2r.bmp	500	1	BMVZ	500	1	blank2r.bmp	880	6	hindern	880	0	0	0	0	0	0	0	0	0	0	0	0
2024-06-10	12:17:47	12:23:43	355783	6.6.1	4_exp_EVA_AWA_CON	76	B	A	Rpleas_acq	Oppo	Rpleas	2pleas	acq_US_pleas_nomask	acq1_nomask	1	33	0	0	300	300	0	0	451	50	1	0	ehrlich	schön	freundlich	treu	retten	helfen	eitel	schlecht	fanatisch	tot	rächen	hindern	spielen	schlau	loyal	lachen	fair	tolerant	strafen	schroff	lasch	leiden	faul	tyrannisch	1	blank2r.bmp	0	1	+	0	1	blank2r.bmp	500	1	GKQX	500	1	blank2r.bmp	880	4	treu	880	0	0	0	0	0	0	0	0	0	0	0	0
2024-06-10	12:17:47	12:23:45	357631	6.6.1	4_exp_EVA_AWA_CON	76	B	A	Rpleas_acq	Oppo	Rpleas	2pleas	acq_US_unple_nomask	acq1_nomask	1	34	0	0	300	300	0	0	368	46	1	0	ehrlich	schön	freundlich	treu	retten	helfen	eitel	schlecht	fanatisch	tot	rächen	hindern	spielen	schlau	loyal	lachen	fair	tolerant	strafen	schroff	lasch	leiden	faul	tyrannisch	1	blank2r.bmp	0	1	+	0	1	blank2r.bmp	500	1	BMVZ	500	1	blank2r.bmp	880	3	fanatisch	880	0	0	0	0	0	0	0	0	0	0	0	0
2024-06-10	12:17:47	12:23:47	359711	6.6.1	4_exp_EVA_AWA_CON	76	B	A	Rpleas_acq	Oppo	Rpleas	2pleas	acq_new_pleas_nomask	acq1_nomask	1	35	0	0	300	300	0	0	596	50	1	0	ehrlich	schön	freundlich	treu	retten	helfen	eitel	schlecht	fanatisch	tot	rächen	hindern	spielen	schlau	loyal	lachen	fair	tolerant	strafen	schroff	lasch	leiden	faul	tyrannisch	1	blank2r.bmp	0	1	+	0	1	blank2r.bmp	500	6	C2r.bmp	500	1	blank2r.bmp	880	2	schlau	880	0	0	0	0	0	0	0	0	0	0	0	0
2024-06-10	12:17:47	12:23:49	361759	6.6.1	4_exp_EVA_AWA_CON	76	B	A	Rpleas_acq	Oppo	Rpleas	2pleas	acq_new_pleas_nomask	acq1_nomask	1	36	0	0	300	300	0	0	563	50	1	0	ehrlich	schön	freundlich	treu	retten	helfen	eitel	schlecht	fanatisch	tot	rächen	hindern	spielen	schlau	loyal	lachen	fair	tolerant	strafen	schroff	lasch	leiden	faul	tyrannisch	1	blank2r.bmp	0	1	+	0	1	blank2r.bmp	500	3	B3r.bmp	500	1	blank2r.bmp	880	4	lachen	880	0	0	0	0	0	0	0	0	0	0	0	0
2024-06-10	12:17:47	12:24:55	427339	6.6.1	4_exp_EVA_AWA_CON	76	B	A	Rpleas_acq	Oppo	Rpleas	2pleas	acq_US_unple_nomask	acq2_nomask	2	1	480	1	300	300	0	0	489	46	1	0	ehrlich	schön	freundlich	treu	retten	helfen	eitel	schlecht	fanatisch	tot	rächen	hindern	spielen	schlau	loyal	lachen	fair	tolerant	strafen	schroff	lasch	leiden	faul	tyrannisch	1	blank2r.bmp	0	1	+	0	1	blank2r.bmp	500	1	BMVZ	500	1	blank2r.bmp	880	4	tot	880	1	!	1313	1	!	1389	0	0	0	0	0	0
2024-06-10	12:17:47	12:24:57	429644	6.6.1	4_exp_EVA_AWA_CON	76	B	A	Rpleas_acq	Oppo	Rpleas	2pleas	acq_new_unple_nomask	acq2_nomask	2	2	480	0	300	300	0	0	321	50	0	0	ehrlich	schön	freundlich	treu	retten	helfen	eitel	schlecht	fanatisch	tot	rächen	hindern	spielen	schlau	loyal	lachen	fair	tolerant	strafen	schroff	lasch	leiden	faul	tyrannisch	1	blank2r.bmp	0	1	+	0	1	blank2r.bmp	500	1	B1r.bmp	500	1	blank2r.bmp	880	4	leiden	880	1	FEHLER	1514	1	!	-1	1	!	-1	0	0	0
2024-06-10	12:17:47	12:24:59	431666	6.6.1	4_exp_EVA_AWA_CON	76	B	A	Rpleas_acq	Oppo	Rpleas	2pleas	acq_US_pleas_nomask	acq2_nomask	2	3	480	1	300	300	0	0	444	50	1	0	ehrlich	schön	freundlich	treu	retten	helfen	eitel	schlecht	fanatisch	tot	rächen	hindern	spielen	schlau	loyal	lachen	fair	tolerant	strafen	schroff	lasch	leiden	faul	tyrannisch	1	blank2r.bmp	0	1	+	0	1	blank2r.bmp	500	1	GKQX	500	1	blank2r.bmp	880	2	schön	880	1	!	1312	1	!	1344	0	0	0	0	0	0
2024-06-10	12:17:47	12:25:01	433794	6.6.1	4_exp_EVA_AWA_CON	76	B	A	Rpleas_acq	Oppo	Rpleas	2pleas	acq_US_unple_nomask	acq2_nomask	2	4	480	0	300	300	0	0	350	46	1	0	ehrlich	schön	freundlich	treu	retten	helfen	eitel	schlecht	fanatisch	tot	rächen	hindern	spielen	schlau	loyal	lachen	fair	tolerant	strafen	schroff	lasch	leiden	faul	tyrannisch	1	blank2r.bmp	0	1	+	0	1	blank2r.bmp	500	1	BMVZ	500	1	blank2r.bmp	880	2	schlecht	880	1	!	-1	1	!	-1	0	0	0	0	0	0
2024-06-10	12:17:47	12:25:04	436236	6.6.1	4_exp_EVA_AWA_CON	76	B	A	Rpleas_acq	Oppo	Rpleas	2pleas	acq_new_unple_nomask	acq2_nomask	2	5	480	1	300	300	0	0	459	50	0	0	ehrlich	schön	freundlich	treu	retten	helfen	eitel	schlecht	fanatisch	tot	rächen	hindern	spielen	schlau	loyal	lachen	fair	tolerant	strafen	schroff	lasch	leiden	faul	tyrannisch	1	blank2r.bmp	0	1	+	0	1	blank2r.bmp	500	7	C3r.bmp	500	1	blank2r.bmp	880	3	lasch	880	1	FEHLER	1652	1	!	1313	1	!	1360	0	0	0
2024-06-10	12:17:47	12:25:06	438375	6.6.1	4_exp_EVA_AWA_CON	76	B	A	Rpleas_acq	Oppo	Rpleas	2pleas	acq_US_pleas_nomask	acq2_nomask	2	6	480	0	300	300	0	0	560	50	1	0	ehrlich	schön	freundlich	treu	retten	helfen	eitel	schlecht	fanatisch	tot	rächen	hindern	spielen	schlau	loyal	lachen	fair	tolerant	strafen	schroff	lasch	leiden	faul	tyrannisch	1	blank2r.bmp	0	1	+	0	1	blank2r.bmp	500	1	GKQX	500	1	blank2r.bmp	880	1	ehrlich	880	1	!	1313	1	!	-1	0	0	0	0	0	0
2024-06-10	12:17:47	12:25:08	440596	6.6.1	4_exp_EVA_AWA_CON	76	B	A	Rpleas_acq	Oppo	Rpleas	2pleas	acq_new_pleas_nomask	acq2_nomask	2	7	480	0	300	300	0	0	246	46	0	0	ehrlich	schön	freundlich	treu	retten	helfen	eitel	schlecht	fanatisch	tot	rächen	hindern	spielen	schlau	loyal	lachen	fair	tolerant	strafen	schroff	lasch	leiden	faul	tyrannisch	1	blank2r.bmp	0	1	+	0	1	blank2r.bmp	500	5	C1r.bmp	500	1	blank2r.bmp	880	1	spielen	880	1	FEHLER	1439	1	!	-1	1	!	-1	0	0	0
2024-06-10	12:17:47	12:25:10	442545	6.6.1	4_exp_EVA_AWA_CON	76	B	A	Rpleas_acq	Oppo	Rpleas	2pleas	acq_new_pleas_nomask	acq2_nomask	2	8	480	0	300	300	0	0	377	50	1	0	ehrlich	schön	freundlich	treu	retten	helfen	eitel	schlecht	fanatisch	tot	rächen	hindern	spielen	schlau	loyal	lachen	fair	tolerant	strafen	schroff	lasch	leiden	faul	tyrannisch	1	blank2r.bmp	0	1	+	0	1	blank2r.bmp	500	4	B4r.bmp	500	1	blank2r.bmp	880	5	fair	880	1	!	-1	1	!	-1	0	0	0	0	0	0
2024-06-10	12:17:47	12:25:13	445005	6.6.1	4_exp_EVA_AWA_CON	76	B	A	Rpleas_acq	Oppo	Rpleas	2pleas	acq_US_pleas_nomask	acq2_nomask	2	9	480	1	300	300	0	0	481	46	0	0	ehrlich	schön	freundlich	treu	retten	helfen	eitel	schlecht	fanatisch	tot	rächen	hindern	spielen	schlau	loyal	lachen	fair	tolerant	strafen	schroff	lasch	leiden	faul	tyrannisch	1	blank2r.bmp	0	1	+	0	1	blank2r.bmp	500	1	GKQX	500	1	blank2r.bmp	880	5	retten	880	1	FEHLER	1675	1	!	1313	1	!	1383	0	0	0
2024-06-10	12:17:47	12:25:15	447156	6.6.1	4_exp_EVA_AWA_CON	76	B	A	Rpleas_acq	Oppo	Rpleas	2pleas	acq_new_unple_nomask	acq2_nomask	2	10	480	0	300	300	0	0	372	50	0	0	ehrlich	schön	freundlich	treu	retten	helfen	eitel	schlecht	fanatisch	tot	rächen	hindern	spielen	schlau	loyal	lachen	fair	tolerant	strafen	schroff	lasch	leiden	faul	tyrannisch	1	blank2r.bmp	0	1	+	0	1	blank2r.bmp	500	2	B2r.bmp	500	1	blank2r.bmp	880	2	schroff	880	1	FEHLER	1565	1	!	-1	1	!	-1	0	0	0
2024-06-10	12:17:47	12:25:17	449081	6.6.1	4_exp_EVA_AWA_CON	76	B	A	Rpleas_acq	Oppo	Rpleas	2pleas	acq_US_unple_nomask	acq2_nomask	2	11	480	0	300	300	0	0	348	46	1	0	ehrlich	schön	freundlich	treu	retten	helfen	eitel	schlecht	fanatisch	tot	rächen	hindern	spielen	schlau	loyal	lachen	fair	tolerant	strafen	schroff	lasch	leiden	faul	tyrannisch	1	blank2r.bmp	0	1	+	0	1	blank2r.bmp	500	1	BMVZ	500	1	blank2r.bmp	880	1	eitel	880	1	!	-1	1	!	-1	0	0	0	0	0	0
2024-06-10	12:17:47	12:25:19	451445	6.6.1	4_exp_EVA_AWA_CON	76	B	A	Rpleas_acq	Oppo	Rpleas	2pleas	acq_new_pleas_nomask	acq2_nomask	2	12	480	0	300	300	0	0	387	46	0	0	ehrlich	schön	freundlich	treu	retten	helfen	eitel	schlecht	fanatisch	tot	rächen	hindern	spielen	schlau	loyal	lachen	fair	tolerant	strafen	schroff	lasch	leiden	faul	tyrannisch	1	blank2r.bmp	0	1	+	0	1	blank2r.bmp	500	8	C4r.bmp	500	1	blank2r.bmp	880	6	tolerant	880	1	FEHLER	1580	1	!	-1	1	!	-1	0	0	0
2024-06-10	12:17:47	12:25:21	453450	6.6.1	4_exp_EVA_AWA_CON	76	B	A	Rpleas_acq	Oppo	Rpleas	2pleas	acq_new_pleas_nomask	acq2_nomask	2	13	480	1	300	300	0	0	433	50	1	0	ehrlich	schön	freundlich	treu	retten	helfen	eitel	schlecht	fanatisch	tot	rächen	hindern	spielen	schlau	loyal	lachen	fair	tolerant	strafen	schroff	lasch	leiden	faul	tyrannisch	1	blank2r.bmp	0	1	+	0	1	blank2r.bmp	500	3	B3r.bmp	500	1	blank2r.bmp	880	5	fair	880	1	!	1312	1	!	1334	0	0	0	0	0	0
2024-06-10	12:17:47	12:25:23	455593	6.6.1	4_exp_EVA_AWA_CON	76	B	A	Rpleas_acq	Oppo	Rpleas	2pleas	acq_new_unple_nomask	acq2_nomask	2	14	480	0	300	300	0	0	365	46	1	0	ehrlich	schön	freundlich	treu	retten	helfen	eitel	schlecht	fanatisch	tot	rächen	hindern	spielen	schlau	loyal	lachen	fair	tolerant	strafen	schroff	lasch	leiden	faul	tyrannisch	1	blank2r.bmp	0	1	+	0	1	blank2r.bmp	500	6	C2r.bmp	500	1	blank2r.bmp	880	3	lasch	880	1	!	-1	1	!	-1	0	0	0	0	0	0
2024-06-10	12:17:47	12:25:26	458235	6.6.1	4_exp_EVA_AWA_CON	76	B	A	Rpleas_acq	Oppo	Rpleas	2pleas	acq_US_unple_nomask	acq2_nomask	2	15	480	0	300	300	0	0	664	50	0	0	ehrlich	schön	freundlich	treu	retten	helfen	eitel	schlecht	fanatisch	tot	rächen	hindern	spielen	schlau	loyal	lachen	fair	tolerant	strafen	schroff	lasch	leiden	faul	tyrannisch	1	blank2r.bmp	0	1	+	0	1	blank2r.bmp	500	1	BMVZ	500	1	blank2r.bmp	880	1	eitel	880	1	FEHLER	1857	1	!	1313	1	!	-1	0	0	0
2024-06-10	12:17:47	12:25:28	460316	6.6.1	4_exp_EVA_AWA_CON	76	B	A	Rpleas_acq	Oppo	Rpleas	2pleas	acq_new_pleas_nomask	acq2_nomask	2	16	480	0	300	300	0	0	302	46	0	0	ehrlich	schön	freundlich	treu	retten	helfen	eitel	schlecht	fanatisch	tot	rächen	hindern	spielen	schlau	loyal	lachen	fair	tolerant	strafen	schroff	lasch	leiden	faul	tyrannisch	1	blank2r.bmp	0	1	+	0	1	blank2r.bmp	500	1	B1r.bmp	500	1	blank2r.bmp	880	3	loyal	880	1	FEHLER	1496	1	!	-1	1	!	-1	0	0	0
2024-06-10	12:17:47	12:25:30	462467	6.6.1	4_exp_EVA_AWA_CON	76	B	A	Rpleas_acq	Oppo	Rpleas	2pleas	acq_new_unple_nomask	acq2_nomask	2	17	480	0	300	300	0	0	373	50	0	0	ehrlich	schön	freundlich	treu	retten	helfen	eitel	schlecht	fanatisch	tot	rächen	hindern	spielen	schlau	loyal	lachen	fair	tolerant	strafen	schroff	lasch	leiden	faul	tyrannisch	1	blank2r.bmp	0	1	+	0	1	blank2r.bmp	500	8	C4r.bmp	500	1	blank2r.bmp	880	2	schroff	880	1	FEHLER	1566	1	!	-1	1	!	-1	0	0	0
2024-06-10	12:17:47	12:25:32	464605	6.6.1	4_exp_EVA_AWA_CON	76	B	A	Rpleas_acq	Oppo	Rpleas	2pleas	acq_US_pleas_nomask	acq2_nomask	2	18	480	0	300	300	0	0	357	46	0	0	ehrlich	schön	freundlich	treu	retten	helfen	eitel	schlecht	fanatisch	tot	rächen	hindern	spielen	schlau	loyal	lachen	fair	tolerant	strafen	schroff	lasch	leiden	faul	tyrannisch	1	blank2r.bmp	0	1	+	0	1	blank2r.bmp	500	1	GKQX	500	1	blank2r.bmp	880	4	treu	880	1	FEHLER	1552	1	!	-1	1	!	-1	0	0	0
2024-06-10	12:17:47	12:25:34	466708	6.6.1	4_exp_EVA_AWA_CON	76	B	A	Rpleas_acq	Oppo	Rpleas	2pleas	acq_US_unple_nomask	acq2_nomask	2	19	480	0	300	300	0	0	331	50	0	0	ehrlich	schön	freundlich	treu	retten	helfen	eitel	schlecht	fanatisch	tot	rächen	hindern	spielen	schlau	loyal	lachen	fair	tolerant	strafen	schroff	lasch	leiden	faul	tyrannisch	1	blank2r.bmp	0	1	+	0	1	blank2r.bmp	500	1	BMVZ	500	1	blank2r.bmp	880	5	rächen	880	1	FEHLER	1524	1	!	-1	1	!	-1	0	0	0
2024-06-10	12:17:47	12:25:36	468859	6.6.1	4_exp_EVA_AWA_CON	76	B	A	Rpleas_acq	Oppo	Rpleas	2pleas	acq_US_pleas_nomask	acq2_nomask	2	20	480	0	300	300	0	0	372	46	0	0	ehrlich	schön	freundlich	treu	retten	helfen	eitel	schlecht	fanatisch	tot	rächen	hindern	spielen	schlau	loyal	lachen	fair	tolerant	strafen	schroff	lasch	leiden	faul	tyrannisch	1	blank2r.bmp	0	1	+	0	1	blank2r.bmp	500	1	GKQX	500	1	blank2r.bmp	880	3	freundlich	880	1	FEHLER	1564	1	!	-1	1	!	-1	0	0	0
2024-06-10	12:17:47	12:25:39	470991	6.6.1	4_exp_EVA_AWA_CON	76	B	A	Rpleas_acq	Oppo	Rpleas	2pleas	acq_US_pleas_nomask	acq2_nomask	2	21	480	0	300	300	0	0	556	50	1	0	ehrlich	schön	freundlich	treu	retten	helfen	eitel	schlecht	fanatisch	tot	rächen	hindern	spielen	schlau	loyal	lachen	fair	tolerant	strafen	schroff	lasch	leiden	faul	tyrannisch	1	blank2r.bmp	0	1	+	0	1	blank2r.bmp	500	1	GKQX	500	1	blank2r.bmp	880	1	ehrlich	880	1	!	1312	1	!	-1	0	0	0	0	0	0
2024-06-10	12:17:47	12:25:41	473226	6.6.1	4_exp_EVA_AWA_CON	76	B	A	Rpleas_acq	Oppo	Rpleas	2pleas	acq_new_pleas_nomask	acq2_nomask	2	22	480	1	300	300	0	0	457	50	1	0	ehrlich	schön	freundlich	treu	retten	helfen	eitel	schlecht	fanatisch	tot	rächen	hindern	spielen	schlau	loyal	lachen	fair	tolerant	strafen	schroff	lasch	leiden	faul	tyrannisch	1	blank2r.bmp	0	1	+	0	1	blank2r.bmp	500	5	C1r.bmp	500	1	blank2r.bmp	880	2	schlau	880	1	!	1313	1	!	1358	0	0	0	0	0	0
2024-06-10	12:17:47	12:25:43	475483	6.6.1	4_exp_EVA_AWA_CON	76	B	A	Rpleas_acq	Oppo	Rpleas	2pleas	acq_new_unple_nomask	acq2_nomask	2	23	480	1	300	300	0	0	480	46	1	0	ehrlich	schön	freundlich	treu	retten	helfen	eitel	schlecht	fanatisch	tot	rächen	hindern	spielen	schlau	loyal	lachen	fair	tolerant	strafen	schroff	lasch	leiden	faul	tyrannisch	1	blank2r.bmp	0	1	+	0	1	blank2r.bmp	500	2	B2r.bmp	500	1	blank2r.bmp	880	1	strafen	880	1	!	1312	1	!	1383	0	0	0	0	0	0
2024-06-10	12:17:47	12:25:45	477867	6.6.1	4_exp_EVA_AWA_CON	76	B	A	Rpleas_acq	Oppo	Rpleas	2pleas	acq_US_unple_nomask	acq2_nomask	2	24	480	0	300	300	0	0	403	50	0	0	ehrlich	schön	freundlich	treu	retten	helfen	eitel	schlecht	fanatisch	tot	rächen	hindern	spielen	schlau	loyal	lachen	fair	tolerant	strafen	schroff	lasch	leiden	faul	tyrannisch	1	blank2r.bmp	0	1	+	0	1	blank2r.bmp	500	1	BMVZ	500	1	blank2r.bmp	880	4	tot	880	1	FEHLER	1596	1	!	-1	1	!	-1	0	0	0
2024-06-10	12:17:47	12:25:48	479906	6.6.1	4_exp_EVA_AWA_CON	76	B	A	Rpleas_acq	Oppo	Rpleas	2pleas	acq_US_pleas_nomask	acq2_nomask	2	25	480	1	300	300	0	0	461	50	1	0	ehrlich	schön	freundlich	treu	retten	helfen	eitel	schlecht	fanatisch	tot	rächen	hindern	spielen	schlau	loyal	lachen	fair	tolerant	strafen	schroff	lasch	leiden	faul	tyrannisch	1	blank2r.bmp	0	1	+	0	1	blank2r.bmp	500	1	GKQX	500	1	blank2r.bmp	880	5	retten	880	1	!	1313	1	!	1363	0	0	0	0	0	0
2024-06-10	12:17:47	12:25:50	481969	6.6.1	4_exp_EVA_AWA_CON	76	B	A	Rpleas_acq	Oppo	Rpleas	2pleas	acq_US_unple_nomask	acq2_nomask	2	26	480	0	300	300	0	0	285	46	1	0	ehrlich	schön	freundlich	treu	retten	helfen	eitel	schlecht	fanatisch	tot	rächen	hindern	spielen	schlau	loyal	lachen	fair	tolerant	strafen	schroff	lasch	leiden	faul	tyrannisch	1	blank2r.bmp	0	1	+	0	1	blank2r.bmp	500	1	BMVZ	500	1	blank2r.bmp	880	3	fanatisch	880	1	!	-1	1	!	-1	0	0	0	0	0	0
2024-06-10	12:17:47	12:25:52	484218	6.6.1	4_exp_EVA_AWA_CON	76	B	A	Rpleas_acq	Oppo	Rpleas	2pleas	acq_new_unple_nomask	acq2_nomask	2	27	480	1	300	300	0	0	471	46	1	0	ehrlich	schön	freundlich	treu	retten	helfen	eitel	schlecht	fanatisch	tot	rächen	hindern	spielen	schlau	loyal	lachen	fair	tolerant	strafen	schroff	lasch	leiden	faul	tyrannisch	1	blank2r.bmp	0	1	+	0	1	blank2r.bmp	500	4	B4r.bmp	500	1	blank2r.bmp	880	4	leiden	880	1	!	1313	1	!	1372	0	0	0	0	0	0
2024-06-10	12:17:47	12:25:54	486772	6.6.1	4_exp_EVA_AWA_CON	76	B	A	Rpleas_acq	Oppo	Rpleas	2pleas	acq_new_pleas_nomask	acq2_nomask	2	28	480	0	300	300	0	0	571	46	0	0	ehrlich	schön	freundlich	treu	retten	helfen	eitel	schlecht	fanatisch	tot	rächen	hindern	spielen	schlau	loyal	lachen	fair	tolerant	strafen	schroff	lasch	leiden	faul	tyrannisch	1	blank2r.bmp	0	1	+	0	1	blank2r.bmp	500	7	C3r.bmp	500	1	blank2r.bmp	880	4	lachen	880	1	FEHLER	1765	1	!	1312	1	!	-1	0	0	0
2024-06-10	12:17:47	12:25:57	489075	6.6.1	4_exp_EVA_AWA_CON	76	B	A	Rpleas_acq	Oppo	Rpleas	2pleas	acq_new_pleas_nomask	acq2_nomask	2	29	480	1	300	300	0	0	524	46	0	0	ehrlich	schön	freundlich	treu	retten	helfen	eitel	schlecht	fanatisch	tot	rächen	hindern	spielen	schlau	loyal	lachen	fair	tolerant	strafen	schroff	lasch	leiden	faul	tyrannisch	1	blank2r.bmp	0	1	+	0	1	blank2r.bmp	500	3	B3r.bmp	500	1	blank2r.bmp	880	6	tolerant	880	1	FEHLER	1717	1	!	1313	1	!	1425	0	0	0
2024-06-10	12:17:47	12:25:59	491252	6.6.1	4_exp_EVA_AWA_CON	76	B	A	Rpleas_acq	Oppo	Rpleas	2pleas	acq_new_unple_nomask	acq2_nomask	2	30	480	0	300	300	0	0	399	50	0	0	ehrlich	schön	freundlich	treu	retten	helfen	eitel	schlecht	fanatisch	tot	rächen	hindern	spielen	schlau	loyal	lachen	fair	tolerant	strafen	schroff	lasch	leiden	faul	tyrannisch	1	blank2r.bmp	0	1	+	0	1	blank2r.bmp	500	7	C3r.bmp	500	1	blank2r.bmp	880	5	faul	880	1	FEHLER	1592	1	!	-1	1	!	-1	0	0	0
2024-06-10	12:17:47	12:26:01	493177	6.6.1	4_exp_EVA_AWA_CON	76	B	A	Rpleas_acq	Oppo	Rpleas	2pleas	acq_US_unple_nomask	acq2_nomask	2	31	480	0	300	300	0	0	355	46	1	0	ehrlich	schön	freundlich	treu	retten	helfen	eitel	schlecht	fanatisch	tot	rächen	hindern	spielen	schlau	loyal	lachen	fair	tolerant	strafen	schroff	lasch	leiden	faul	tyrannisch	1	blank2r.bmp	0	1	+	0	1	blank2r.bmp	500	1	BMVZ	500	1	blank2r.bmp	880	2	schlecht	880	1	!	-1	1	!	-1	0	0	0	0	0	0
2024-06-10	12:17:47	12:26:03	495442	6.6.1	4_exp_EVA_AWA_CON	76	B	A	Rpleas_acq	Oppo	Rpleas	2pleas	acq_US_pleas_nomask	acq2_nomask	2	32	480	1	300	300	0	0	487	50	1	0	ehrlich	schön	freundlich	treu	retten	helfen	eitel	schlecht	fanatisch	tot	rächen	hindern	spielen	schlau	loyal	lachen	fair	tolerant	strafen	schroff	lasch	leiden	faul	tyrannisch	1	blank2r.bmp	0	1	+	0	1	blank2r.bmp	500	1	GKQX	500	1	blank2r.bmp	880	2	schön	880	1	!	1312	1	!	1389	0	0	0	0	0	0
2024-06-10	12:17:47	12:26:05	497658	6.6.1	4_exp_EVA_AWA_CON	76	B	A	Rpleas_acq	Oppo	Rpleas	2pleas	acq_US_pleas_nomask	acq2_nomask	2	33	480	1	300	300	0	0	432	50	1	0	ehrlich	schön	freundlich	treu	retten	helfen	eitel	schlecht	fanatisch	tot	rächen	hindern	spielen	schlau	loyal	lachen	fair	tolerant	strafen	schroff	lasch	leiden	faul	tyrannisch	1	blank2r.bmp	0	1	+	0	1	blank2r.bmp	500	1	GKQX	500	1	blank2r.bmp	880	6	helfen	880	1	!	1312	1	!	1333	0	0	0	0	0	0
2024-06-10	12:17:47	12:26:08	499939	6.6.1	4_exp_EVA_AWA_CON	76	B	A	Rpleas_acq	Oppo	Rpleas	2pleas	acq_new_unple_nomask	acq2_nomask	2	34	480	1	300	300	0	0	500	46	1	0	ehrlich	schön	freundlich	treu	retten	helfen	eitel	schlecht	fanatisch	tot	rächen	hindern	spielen	schlau	loyal	lachen	fair	tolerant	strafen	schroff	lasch	leiden	faul	tyrannisch	1	blank2r.bmp	0	1	+	0	1	blank2r.bmp	500	5	C1r.bmp	500	1	blank2r.bmp	880	6	tyrannisch	880	1	!	1313	1	!	1402	0	0	0	0	0	0
2024-06-10	12:17:47	12:26:10	502073	6.6.1	4_exp_EVA_AWA_CON	76	B	A	Rpleas_acq	Oppo	Rpleas	2pleas	acq_new_pleas_nomask	acq2_nomask	2	35	480	0	300	300	0	0	355	50	1	0	ehrlich	schön	freundlich	treu	retten	helfen	eitel	schlecht	fanatisch	tot	rächen	hindern	spielen	schlau	loyal	lachen	fair	tolerant	strafen	schroff	lasch	leiden	faul	tyrannisch	1	blank2r.bmp	0	1	+	0	1	blank2r.bmp	500	4	B4r.bmp	500	1	blank2r.bmp	880	1	spielen	880	1	!	-1	1	!	-1	0	0	0	0	0	0
2024-06-10	12:17:47	12:26:12	504249	6.6.1	4_exp_EVA_AWA_CON	76	B	A	Rpleas_acq	Oppo	Rpleas	2pleas	acq_US_unple_nomask	acq2_nomask	2	36	480	0	300	300	0	0	400	46	1	0	ehrlich	schön	freundlich	treu	retten	helfen	eitel	schlecht	fanatisch	tot	rächen	hindern	spielen	schlau	loyal	lachen	fair	tolerant	strafen	schroff	lasch	leiden	faul	tyrannisch	1	blank2r.bmp	0	1	+	0	1	blank2r.bmp	500	1	BMVZ	500	1	blank2r.bmp	880	6	hindern	880	1	!	-1	1	!	-1	0	0	0	0	0	0
2024-06-10	12:17:47	12:26:37	529265	6.6.1	4_exp_EVA_AWA_CON	76	B	A	Rpleas_acq	Oppo	Rpleas	2pleas	acq_US_unple_nomask	acq3_nomask	3	1	453	1	300	300	0	0	399	46	1	0	ehrlich	schön	freundlich	treu	retten	helfen	eitel	schlecht	fanatisch	tot	rächen	hindern	spielen	schlau	loyal	lachen	fair	tolerant	strafen	schroff	lasch	leiden	faul	tyrannisch	1	blank2r.bmp	0	1	+	0	1	blank2r.bmp	500	1	BMVZ	500	1	blank2r.bmp	880	4	tot	880	1	!	1292	1	!	1299	0	0	0	0	0	0
2024-06-10	12:17:47	12:26:39	531588	6.6.1	4_exp_EVA_AWA_CON	76	B	A	Rpleas_acq	Oppo	Rpleas	2pleas	acq_US_pleas_nomask	acq3_nomask	3	2	453	0	300	300	0	0	348	46	0	0	ehrlich	schön	freundlich	treu	retten	helfen	eitel	schlecht	fanatisch	tot	rächen	hindern	spielen	schlau	loyal	lachen	fair	tolerant	strafen	schroff	lasch	leiden	faul	tyrannisch	1	blank2r.bmp	0	1	+	0	1	blank2r.bmp	500	1	GKQX	500	1	blank2r.bmp	880	4	treu	880	1	FEHLER	1542	1	!	-1	1	!	-1	0	0	0
2024-06-10	12:17:47	12:27:07	559017	6.6.1	4_exp_EVA_AWA_CON	76	B	A	Rpleas_acq	Oppo	Rpleas	2pleas	acq_US_pleas_nomask	acq3_nomask	3	3	453	0	300	300	0	0	25858	50	1	0	ehrlich	schön	freundlich	treu	retten	helfen	eitel	schlecht	fanatisch	tot	rächen	hindern	spielen	schlau	loyal	lachen	fair	tolerant	strafen	schroff	lasch	leiden	faul	tyrannisch	1	blank2r.bmp	0	1	+	0	1	blank2r.bmp	500	1	GKQX	500	1	blank2r.bmp	880	1	ehrlich	880	1	!	1292	1	!	-1	0	0	0	0	0	0
2024-06-10	12:17:47	12:27:09	561425	6.6.1	4_exp_EVA_AWA_CON	76	B	A	Rpleas_acq	Oppo	Rpleas	2pleas	acq_US_pleas_nomask	acq3_nomask	3	4	453	0	300	300	0	0	628	50	1	0	ehrlich	schön	freundlich	treu	retten	helfen	eitel	schlecht	fanatisch	tot	rächen	hindern	spielen	schlau	loyal	lachen	fair	tolerant	strafen	schroff	lasch	leiden	faul	tyrannisch	1	blank2r.bmp	0	1	+	0	1	blank2r.bmp	500	1	GKQX	500	1	blank2r.bmp	880	6	helfen	880	1	!	1292	1	!	-1	0	0	0	0	0	0
2024-06-10	12:17:47	12:27:11	563722	6.6.1	4_exp_EVA_AWA_CON	76	B	A	Rpleas_acq	Oppo	Rpleas	2pleas	acq_US_pleas_nomask	acq3_nomask	3	5	453	1	300	300	0	0	513	50	1	0	ehrlich	schön	freundlich	treu	retten	helfen	eitel	schlecht	fanatisch	tot	rächen	hindern	spielen	schlau	loyal	lachen	fair	tolerant	strafen	schroff	lasch	leiden	faul	tyrannisch	1	blank2r.bmp	0	1	+	0	1	blank2r.bmp	500	1	GKQX	500	1	blank2r.bmp	880	3	freundlich	880	1	!	1292	1	!	1414	0	0	0	0	0	0
2024-06-10	12:17:47	12:27:14	566076	6.6.1	4_exp_EVA_AWA_CON	76	B	A	Rpleas_acq	Oppo	Rpleas	2pleas	acq_US_unple_nomask	acq3_nomask	3	6	453	0	300	300	0	0	373	50	0	0	ehrlich	schön	freundlich	treu	retten	helfen	eitel	schlecht	fanatisch	tot	rächen	hindern	spielen	schlau	loyal	lachen	fair	tolerant	strafen	schroff	lasch	leiden	faul	tyrannisch	1	blank2r.bmp	0	1	+	0	1	blank2r.bmp	500	1	BMVZ	500	1	blank2r.bmp	880	3	fanatisch	880	1	FEHLER	1567	1	!	-1	1	!	-1	0	0	0
2024-06-10	12:17:47	12:27:16	568131	6.6.1	4_exp_EVA_AWA_CON	76	B	A	Rpleas_acq	Oppo	Rpleas	2pleas	acq_US_unple_nomask	acq3_nomask	3	7	453	1	300	300	0	0	478	46	1	0	ehrlich	schön	freundlich	treu	retten	helfen	eitel	schlecht	fanatisch	tot	rächen	hindern	spielen	schlau	loyal	lachen	fair	tolerant	strafen	schroff	lasch	leiden	faul	tyrannisch	1	blank2r.bmp	0	1	+	0	1	blank2r.bmp	500	1	BMVZ	500	1	blank2r.bmp	880	5	rächen	880	1	!	1293	1	!	1380	0	0	0	0	0	0
2024-06-10	12:17:47	12:27:18	570370	6.6.1	4_exp_EVA_AWA_CON	76	B	A	Rpleas_acq	Oppo	Rpleas	2pleas	acq_US_pleas_nomask	acq3_nomask	3	8	453	1	300	300	0	0	457	50	1	0	ehrlich	schön	freundlich	treu	retten	helfen	eitel	schlecht	fanatisch	tot	rächen	hindern	spielen	schlau	loyal	lachen	fair	tolerant	strafen	schroff	lasch	leiden	faul	tyrannisch	1	blank2r.bmp	0	1	+	0	1	blank2r.bmp	500	1	GKQX	500	1	blank2r.bmp	880	2	schön	880	1	!	1292	1	!	1358	0	0	0	0	0	0
2024-06-10	12:17:47	12:27:20	572570	6.6.1	4_exp_EVA_AWA_CON	76	B	A	Rpleas_acq	Oppo	Rpleas	2pleas	acq_US_pleas_nomask	acq3_nomask	3	9	453	1	300	300	0	0	425	50	1	0	ehrlich	schön	freundlich	treu	retten	helfen	eitel	schlecht	fanatisch	tot	rächen	hindern	spielen	schlau	loyal	lachen	fair	tolerant	strafen	schroff	lasch	leiden	faul	tyrannisch	1	blank2r.bmp	0	1	+	0	1	blank2r.bmp	500	1	GKQX	500	1	blank2r.bmp	880	5	retten	880	1	!	1293	1	!	1327	0	0	0	0	0	0
2024-06-10	12:17:47	12:27:22	574713	6.6.1	4_exp_EVA_AWA_CON	76	B	A	Rpleas_acq	Oppo	Rpleas	2pleas	acq_US_unple_nomask	acq3_nomask	3	10	453	0	300	300	0	0	368	46	1	0	ehrlich	schön	freundlich	treu	retten	helfen	eitel	schlecht	fanatisch	tot	rächen	hindern	spielen	schlau	loyal	lachen	fair	tolerant	strafen	schroff	lasch	leiden	faul	tyrannisch	1	blank2r.bmp	0	1	+	0	1	blank2r.bmp	500	1	BMVZ	500	1	blank2r.bmp	880	2	schlecht	880	1	!	-1	1	!	-1	0	0	0	0	0	0
2024-06-10	12:17:47	12:27:25	577052	6.6.1	4_exp_EVA_AWA_CON	76	B	A	Rpleas_acq	Oppo	Rpleas	2pleas	acq_US_unple_nomask	acq3_nomask	3	11	453	0	300	300	0	0	362	50	0	0	ehrlich	schön	freundlich	treu	retten	helfen	eitel	schlecht	fanatisch	tot	rächen	hindern	spielen	schlau	loyal	lachen	fair	tolerant	strafen	schroff	lasch	leiden	faul	tyrannisch	1	blank2r.bmp	0	1	+	0	1	blank2r.bmp	500	1	BMVZ	500	1	blank2r.bmp	880	6	hindern	880	1	FEHLER	1556	1	!	-1	1	!	-1	0	0	0
2024-06-10	12:17:47	12:27:27	579195	6.6.1	4_exp_EVA_AWA_CON	76	B	A	Rpleas_acq	Oppo	Rpleas	2pleas	acq_US_unple_nomask	acq3_nomask	3	12	453	0	300	300	0	0	365	50	0	0	ehrlich	schön	freundlich	treu	retten	helfen	eitel	schlecht	fanatisch	tot	rächen	hindern	spielen	schlau	loyal	lachen	fair	tolerant	strafen	schroff	lasch	leiden	faul	tyrannisch	1	blank2r.bmp	0	1	+	0	1	blank2r.bmp	500	1	BMVZ	500	1	blank2r.bmp	880	1	eitel	880	1	FEHLER	1558	1	!	-1	1	!	-1	0	0	0
2024-06-10	12:17:47	12:27:29	581363	6.6.1	4_exp_EVA_AWA_CON	76	B	A	Rpleas_acq	Oppo	Rpleas	2pleas	acq_US_pleas_nomask	acq3_nomask	3	13	453	1	300	300	0	0	394	46	0	0	ehrlich	schön	freundlich	treu	retten	helfen	eitel	schlecht	fanatisch	tot	rächen	hindern	spielen	schlau	loyal	lachen	fair	tolerant	strafen	schroff	lasch	leiden	faul	tyrannisch	1	blank2r.bmp	0	1	+	0	1	blank2r.bmp	500	1	GKQX	500	1	blank2r.bmp	880	4	treu	880	1	FEHLER	1585	1	!	1293	1	!	1293	0	0	0
2024-06-10	12:17:47	12:27:31	583288	6.6.1	4_exp_EVA_AWA_CON	76	B	A	Rpleas_acq	Oppo	Rpleas	2pleas	acq_US_pleas_nomask	acq3_nomask	3	14	453	0	300	300	0	0	348	50	1	0	ehrlich	schön	freundlich	treu	retten	helfen	eitel	schlecht	fanatisch	tot	rächen	hindern	spielen	schlau	loyal	lachen	fair	tolerant	strafen	schroff	lasch	leiden	faul	tyrannisch	1	blank2r.bmp	0	1	+	0	1	blank2r.bmp	500	1	GKQX	500	1	blank2r.bmp	880	2	schön	880	1	!	-1	1	!	-1	0	0	0	0	0	0
2024-06-10	12:17:47	12:27:33	585635	6.6.1	4_exp_EVA_AWA_CON	76	B	A	Rpleas_acq	Oppo	Rpleas	2pleas	acq_US_pleas_nomask	acq3_nomask	3	15	453	0	300	300	0	0	371	46	0	0	ehrlich	schön	freundlich	treu	retten	helfen	eitel	schlecht	fanatisch	tot	rächen	hindern	spielen	schlau	loyal	lachen	fair	tolerant	strafen	schroff	lasch	leiden	faul	tyrannisch	1	blank2r.bmp	0	1	+	0	1	blank2r.bmp	500	1	GKQX	500	1	blank2r.bmp	880	5	retten	880	1	FEHLER	1564	1	!	-1	1	!	-1	0	0	0
2024-06-10	12:17:47	12:27:35	587796	6.6.1	4_exp_EVA_AWA_CON	76	B	A	Rpleas_acq	Oppo	Rpleas	2pleas	acq_US_unple_nomask	acq3_nomask	3	16	453	0	300	300	0	0	379	50	0	0	ehrlich	schön	freundlich	treu	retten	helfen	eitel	schlecht	fanatisch	tot	rächen	hindern	spielen	schlau	loyal	lachen	fair	tolerant	strafen	schroff	lasch	leiden	faul	tyrannisch	1	blank2r.bmp	0	1	+	0	1	blank2r.bmp	500	1	BMVZ	500	1	blank2r.bmp	880	5	rächen	880	1	FEHLER	1573	1	!	-1	1	!	-1	0	0	0
2024-06-10	12:17:47	12:27:37	589769	6.6.1	4_exp_EVA_AWA_CON	76	B	A	Rpleas_acq	Oppo	Rpleas	2pleas	acq_US_pleas_nomask	acq3_nomask	3	17	453	1	300	300	0	0	394	50	1	0	ehrlich	schön	freundlich	treu	retten	helfen	eitel	schlecht	fanatisch	tot	rächen	hindern	spielen	schlau	loyal	lachen	fair	tolerant	strafen	schroff	lasch	leiden	faul	tyrannisch	1	blank2r.bmp	0	1	+	0	1	blank2r.bmp	500	1	GKQX	500	1	blank2r.bmp	880	3	freundlich	880	1	!	1293	1	!	1294	0	0	0	0	0	0
2024-06-10	12:17:47	12:27:40	591913	6.6.1	4_exp_EVA_AWA_CON	76	B	A	Rpleas_acq	Oppo	Rpleas	2pleas	acq_US_unple_nomask	acq3_nomask	3	18	453	0	300	300	0	0	366	46	1	0	ehrlich	schön	freundlich	treu	retten	helfen	eitel	schlecht	fanatisch	tot	rächen	hindern	spielen	schlau	loyal	lachen	fair	tolerant	strafen	schroff	lasch	leiden	faul	tyrannisch	1	blank2r.bmp	0	1	+	0	1	blank2r.bmp	500	1	BMVZ	500	1	blank2r.bmp	880	6	hindern	880	1	!	-1	1	!	-1	0	0	0	0	0	0
2024-06-10	12:17:47	12:27:42	594220	6.6.1	4_exp_EVA_AWA_CON	76	B	A	Rpleas_acq	Oppo	Rpleas	2pleas	acq_US_unple_nomask	acq3_nomask	3	19	453	0	300	300	0	0	329	50	0	0	ehrlich	schön	freundlich	treu	retten	helfen	eitel	schlecht	fanatisch	tot	rächen	hindern	spielen	schlau	loyal	lachen	fair	tolerant	strafen	schroff	lasch	leiden	faul	tyrannisch	1	blank2r.bmp	0	1	+	0	1	blank2r.bmp	500	1	BMVZ	500	1	blank2r.bmp	880	3	fanatisch	880	1	FEHLER	1523	1	!	-1	1	!	-1	0	0	0
2024-06-10	12:17:47	12:27:44	596211	6.6.1	4_exp_EVA_AWA_CON	76	B	A	Rpleas_acq	Oppo	Rpleas	2pleas	acq_US_unple_nomask	acq3_nomask	3	20	453	1	300	300	0	0	410	46	1	0	ehrlich	schön	freundlich	treu	retten	helfen	eitel	schlecht	fanatisch	tot	rächen	hindern	spielen	schlau	loyal	lachen	fair	tolerant	strafen	schroff	lasch	leiden	faul	tyrannisch	1	blank2r.bmp	0	1	+	0	1	blank2r.bmp	500	1	BMVZ	500	1	blank2r.bmp	880	2	schlecht	880	1	!	1292	1	!	1312	0	0	0	0	0	0
2024-06-10	12:17:47	12:27:46	598376	6.6.1	4_exp_EVA_AWA_CON	76	B	A	Rpleas_acq	Oppo	Rpleas	2pleas	acq_US_unple_nomask	acq3_nomask	3	21	453	0	300	300	0	0	386	46	1	0	ehrlich	schön	freundlich	treu	retten	helfen	eitel	schlecht	fanatisch	tot	rächen	hindern	spielen	schlau	loyal	lachen	fair	tolerant	strafen	schroff	lasch	leiden	faul	tyrannisch	1	blank2r.bmp	0	1	+	0	1	blank2r.bmp	500	1	BMVZ	500	1	blank2r.bmp	880	4	tot	880	1	!	-1	1	!	-1	0	0	0	0	0	0
2024-06-10	12:17:47	12:27:48	600570	6.6.1	4_exp_EVA_AWA_CON	76	B	A	Rpleas_acq	Oppo	Rpleas	2pleas	acq_US_pleas_nomask	acq3_nomask	3	22	453	1	300	300	0	0	417	50	1	0	ehrlich	schön	freundlich	treu	retten	helfen	eitel	schlecht	fanatisch	tot	rächen	hindern	spielen	schlau	loyal	lachen	fair	tolerant	strafen	schroff	lasch	leiden	faul	tyrannisch	1	blank2r.bmp	0	1	+	0	1	blank2r.bmp	500	1	GKQX	500	1	blank2r.bmp	880	1	ehrlich	880	1	!	1293	1	!	1318	0	0	0	0	0	0
2024-06-10	12:17:47	12:27:51	603059	6.6.1	4_exp_EVA_AWA_CON	76	B	A	Rpleas_acq	Oppo	Rpleas	2pleas	acq_US_unple_nomask	acq3_nomask	3	23	453	1	300	300	0	0	513	50	0	0	ehrlich	schön	freundlich	treu	retten	helfen	eitel	schlecht	fanatisch	tot	rächen	hindern	spielen	schlau	loyal	lachen	fair	tolerant	strafen	schroff	lasch	leiden	faul	tyrannisch	1	blank2r.bmp	0	1	+	0	1	blank2r.bmp	500	1	BMVZ	500	1	blank2r.bmp	880	1	eitel	880	1	FEHLER	1707	1	!	1293	1	!	1415	0	0	0
2024-06-10	12:17:47	12:27:53	605139	6.6.1	4_exp_EVA_AWA_CON	76	B	A	Rpleas_acq	Oppo	Rpleas	2pleas	acq_US_pleas_nomask	acq3_nomask	3	24	453	0	300	300	0	0	302	46	0	0	ehrlich	schön	freundlich	treu	retten	helfen	eitel	schlecht	fanatisch	tot	rächen	hindern	spielen	schlau	loyal	lachen	fair	tolerant	strafen	schroff	lasch	leiden	faul	tyrannisch	1	blank2r.bmp	0	1	+	0	1	blank2r.bmp	500	1	GKQX	500	1	blank2r.bmp	880	6	helfen	880	1	FEHLER	1495	1	!	-1	1	!	-1	0	0	0
2024-06-10	12:17:47	12:27:55	607395	6.6.1	4_exp_EVA_AWA_CON	76	B	A	Rpleas_acq	Oppo	Rpleas	2pleas	acq_US_unple_nomask	acq3_nomask	3	25	453	1	300	300	0	0	477	50	0	0	ehrlich	schön	freundlich	treu	retten	helfen	eitel	schlecht	fanatisch	tot	rächen	hindern	spielen	schlau	loyal	lachen	fair	tolerant	strafen	schroff	lasch	leiden	faul	tyrannisch	1	blank2r.bmp	0	1	+	0	1	blank2r.bmp	500	1	BMVZ	500	1	blank2r.bmp	880	4	tot	880	1	FEHLER	1670	1	!	1293	1	!	1378	0	0	0
2024-06-10	12:17:47	12:27:57	609434	6.6.1	4_exp_EVA_AWA_CON	76	B	A	Rpleas_acq	Oppo	Rpleas	2pleas	acq_US_unple_nomask	acq3_nomask	3	26	453	1	300	300	0	0	465	46	1	0	ehrlich	schön	freundlich	treu	retten	helfen	eitel	schlecht	fanatisch	tot	rächen	hindern	spielen	schlau	loyal	lachen	fair	tolerant	strafen	schroff	lasch	leiden	faul	tyrannisch	1	blank2r.bmp	0	1	+	0	1	blank2r.bmp	500	1	BMVZ	500	1	blank2r.bmp	880	5	rächen	880	1	!	1292	1	!	1367	0	0	0	0	0	0
2024-06-10	12:17:47	12:27:59	611731	6.6.1	4_exp_EVA_AWA_CON	76	B	A	Rpleas_acq	Oppo	Rpleas	2pleas	acq_US_pleas_nomask	acq3_nomask	3	27	453	1	300	300	0	0	520	50	1	0	ehrlich	schön	freundlich	treu	retten	helfen	eitel	schlecht	fanatisch	tot	rächen	hindern	spielen	schlau	loyal	lachen	fair	tolerant	strafen	schroff	lasch	leiden	faul	tyrannisch	1	blank2r.bmp	0	1	+	0	1	blank2r.bmp	500	1	GKQX	500	1	blank2r.bmp	880	4	treu	880	1	!	1292	1	!	1422	0	0	0	0	0	0
2024-06-10	12:17:47	12:28:01	613832	6.6.1	4_exp_EVA_AWA_CON	76	B	A	Rpleas_acq	Oppo	Rpleas	2pleas	acq_US_unple_nomask	acq3_nomask	3	28	453	0	300	300	0	0	322	46	1	0	ehrlich	schön	freundlich	treu	retten	helfen	eitel	schlecht	fanatisch	tot	rächen	hindern	spielen	schlau	loyal	lachen	fair	tolerant	strafen	schroff	lasch	leiden	faul	tyrannisch	1	blank2r.bmp	0	1	+	0	1	blank2r.bmp	500	1	BMVZ	500	1	blank2r.bmp	880	1	eitel	880	1	!	-1	1	!	-1	0	0	0	0	0	0
2024-06-10	12:17:47	12:28:04	616164	6.6.1	4_exp_EVA_AWA_CON	76	B	A	Rpleas_acq	Oppo	Rpleas	2pleas	acq_US_unple_nomask	acq3_nomask	3	29	453	0	300	300	0	0	349	50	0	0	ehrlich	schön	freundlich	treu	retten	helfen	eitel	schlecht	fanatisch	tot	rächen	hindern	spielen	schlau	loyal	lachen	fair	tolerant	strafen	schroff	lasch	leiden	faul	tyrannisch	1	blank2r.bmp	0	1	+	0	1	blank2r.bmp	500	1	BMVZ	500	1	blank2r.bmp	880	2	schlecht	880	1	FEHLER	1543	1	!	-1	1	!	-1	0	0	0
2024-06-10	12:17:47	12:28:06	618244	6.6.1	4_exp_EVA_AWA_CON	76	B	A	Rpleas_acq	Oppo	Rpleas	2pleas	acq_US_pleas_nomask	acq3_nomask	3	30	453	0	300	300	0	0	308	46	0	0	ehrlich	schön	freundlich	treu	retten	helfen	eitel	schlecht	fanatisch	tot	rächen	hindern	spielen	schlau	loyal	lachen	fair	tolerant	strafen	schroff	lasch	leiden	faul	tyrannisch	1	blank2r.bmp	0	1	+	0	1	blank2r.bmp	500	1	GKQX	500	1	blank2r.bmp	880	5	retten	880	1	FEHLER	1501	1	!	-1	1	!	-1	0	0	0
2024-06-10	12:17:47	12:28:08	620275	6.6.1	4_exp_EVA_AWA_CON	76	B	A	Rpleas_acq	Oppo	Rpleas	2pleas	acq_US_pleas_nomask	acq3_nomask	3	31	453	1	300	300	0	0	458	50	1	0	ehrlich	schön	freundlich	treu	retten	helfen	eitel	schlecht	fanatisch	tot	rächen	hindern	spielen	schlau	loyal	lachen	fair	tolerant	strafen	schroff	lasch	leiden	faul	tyrannisch	1	blank2r.bmp	0	1	+	0	1	blank2r.bmp	500	1	GKQX	500	1	blank2r.bmp	880	2	schön	880	1	!	1292	1	!	1359	0	0	0	0	0	0
2024-06-10	12:17:47	12:28:10	622297	6.6.1	4_exp_EVA_AWA_CON	76	B	A	Rpleas_acq	Oppo	Rpleas	2pleas	acq_US_unple_nomask	acq3_nomask	3	32	453	0	300	300	0	0	241	46	1	0	ehrlich	schön	freundlich	treu	retten	helfen	eitel	schlecht	fanatisch	tot	rächen	hindern	spielen	schlau	loyal	lachen	fair	tolerant	strafen	schroff	lasch	leiden	faul	tyrannisch	1	blank2r.bmp	0	1	+	0	1	blank2r.bmp	500	1	BMVZ	500	1	blank2r.bmp	880	6	hindern	880	1	!	-1	1	!	-1	0	0	0	0	0	0
2024-06-10	12:17:47	12:28:12	624660	6.6.1	4_exp_EVA_AWA_CON	76	B	A	Rpleas_acq	Oppo	Rpleas	2pleas	acq_US_unple_nomask	acq3_nomask	3	33	453	0	300	300	0	0	379	50	0	0	ehrlich	schön	freundlich	treu	retten	helfen	eitel	schlecht	fanatisch	tot	rächen	hindern	spielen	schlau	loyal	lachen	fair	tolerant	strafen	schroff	lasch	leiden	faul	tyrannisch	1	blank2r.bmp	0	1	+	0	1	blank2r.bmp	500	1	BMVZ	500	1	blank2r.bmp	880	3	fanatisch	880	1	FEHLER	1573	1	!	-1	1	!	-1	0	0	0
2024-06-10	12:17:47	12:28:14	626864	6.6.1	4_exp_EVA_AWA_CON	76	B	A	Rpleas_acq	Oppo	Rpleas	2pleas	acq_US_pleas_nomask	acq3_nomask	3	34	453	0	300	300	0	0	636	50	1	0	ehrlich	schön	freundlich	treu	retten	helfen	eitel	schlecht	fanatisch	tot	rächen	hindern	spielen	schlau	loyal	lachen	fair	tolerant	strafen	schroff	lasch	leiden	faul	tyrannisch	1	blank2r.bmp	0	1	+	0	1	blank2r.bmp	500	1	GKQX	500	1	blank2r.bmp	880	1	ehrlich	880	1	!	1293	1	!	-1	0	0	0	0	0	0
2024-06-10	12:17:47	12:28:17	629228	6.6.1	4_exp_EVA_AWA_CON	76	B	A	Rpleas_acq	Oppo	Rpleas	2pleas	acq_US_pleas_nomask	acq3_nomask	3	35	453	0	300	300	0	0	384	46	0	0	ehrlich	schön	freundlich	treu	retten	helfen	eitel	schlecht	fanatisch	tot	rächen	hindern	spielen	schlau	loyal	lachen	fair	tolerant	strafen	schroff	lasch	leiden	faul	tyrannisch	1	blank2r.bmp	0	1	+	0	1	blank2r.bmp	500	1	GKQX	500	1	blank2r.bmp	880	3	freundlich	880	1	FEHLER	1578	1	!	-1	1	!	-1	0	0	0
2024-06-10	12:17:47	12:28:19	631435	6.6.1	4_exp_EVA_AWA_CON	76	B	A	Rpleas_acq	Oppo	Rpleas	2pleas	acq_US_pleas_nomask	acq3_nomask	3	36	453	1	300	300	0	0	431	46	0	0	ehrlich	schön	freundlich	treu	retten	helfen	eitel	schlecht	fanatisch	tot	rächen	hindern	spielen	schlau	loyal	lachen	fair	tolerant	strafen	schroff	lasch	leiden	faul	tyrannisch	1	blank2r.bmp	0	1	+	0	1	blank2r.bmp	500	1	GKQX	500	1	blank2r.bmp	880	6	helfen	880	1	FEHLER	1624	1	!	1293	1	!	1333	0	0	0
2024-06-10	12:17:47	12:28:54	666010	6.6.1	4_exp_EVA_AWA_CON	76	B	A	Rpleas_acq	Oppo	Rpleas	2pleas	acq_US_unple_nomask	acq45_nomask	4	1	400	1	300	300	0	0	394	50	0	0	ehrlich	schön	freundlich	treu	retten	helfen	eitel	schlecht	fanatisch	tot	rächen	hindern	spielen	schlau	loyal	lachen	fair	tolerant	strafen	schroff	lasch	leiden	faul	tyrannisch	1	blank2r.bmp	0	1	+	0	1	blank2r.bmp	500	1	BMVZ	500	1	blank2r.bmp	880	2	schlecht	880	1	!	1232	1	!	1295	0	0	0	0	0	0
2024-06-10	12:17:47	12:28:56	668080	6.6.1	4_exp_EVA_AWA_CON	76	B	A	Rpleas_acq	Oppo	Rpleas	2pleas	acq_US_unple_nomask	acq45_nomask	4	2	400	0	300	300	0	0	295	46	1	0	ehrlich	schön	freundlich	treu	retten	helfen	eitel	schlecht	fanatisch	tot	rächen	hindern	spielen	schlau	loyal	lachen	fair	tolerant	strafen	schroff	lasch	leiden	faul	tyrannisch	1	blank2r.bmp	0	1	+	0	1	blank2r.bmp	500	1	BMVZ	500	1	blank2r.bmp	880	5	rächen	880	1	!	-1	1	!	-1	0	0	0	0	0	0
2024-06-10	12:17:47	12:28:58	670234	6.6.1	4_exp_EVA_AWA_CON	76	B	A	Rpleas_acq	Oppo	Rpleas	2pleas	acq_US_unple_nomask	acq45_nomask	4	3	400	1	300	300	0	0	375	50	0	0	ehrlich	schön	freundlich	treu	retten	helfen	eitel	schlecht	fanatisch	tot	rächen	hindern	spielen	schlau	loyal	lachen	fair	tolerant	strafen	schroff	lasch	leiden	faul	tyrannisch	1	blank2r.bmp	0	1	+	0	1	blank2r.bmp	500	1	BMVZ	500	1	blank2r.bmp	880	1	eitel	880	1	!	1232	1	!	1277	0	0	0	0	0	0
2024-06-10	12:17:47	12:29:00	672434	6.6.1	4_exp_EVA_AWA_CON	76	B	A	Rpleas_acq	Oppo	Rpleas	2pleas	acq_US_pleas_nomask	acq45_nomask	4	4	400	1	300	300	0	0	424	50	1	0	ehrlich	schön	freundlich	treu	retten	helfen	eitel	schlecht	fanatisch	tot	rächen	hindern	spielen	schlau	loyal	lachen	fair	tolerant	strafen	schroff	lasch	leiden	faul	tyrannisch	1	blank2r.bmp	0	1	+	0	1	blank2r.bmp	500	1	GKQX	500	1	blank2r.bmp	880	3	freundlich	880	1	!	1232	1	!	1325	0	0	0	0	0	0
2024-06-10	12:17:47	12:29:02	674456	6.6.1	4_exp_EVA_AWA_CON	76	B	A	Rpleas_acq	Oppo	Rpleas	2pleas	acq_US_pleas_nomask	acq45_nomask	4	5	400	0	300	300	0	0	247	46	0	0	ehrlich	schön	freundlich	treu	retten	helfen	eitel	schlecht	fanatisch	tot	rächen	hindern	spielen	schlau	loyal	lachen	fair	tolerant	strafen	schroff	lasch	leiden	faul	tyrannisch	1	blank2r.bmp	0	1	+	0	1	blank2r.bmp	500	1	GKQX	500	1	blank2r.bmp	880	6	helfen	880	1	!	-1	1	!	-1	0	0	0	0	0	0
2024-06-10	12:17:47	12:29:04	676488	6.6.1	4_exp_EVA_AWA_CON	76	B	A	Rpleas_acq	Oppo	Rpleas	2pleas	acq_US_pleas_nomask	acq45_nomask	4	6	400	0	300	300	0	0	257	50	1	0	ehrlich	schön	freundlich	treu	retten	helfen	eitel	schlecht	fanatisch	tot	rächen	hindern	spielen	schlau	loyal	lachen	fair	tolerant	strafen	schroff	lasch	leiden	faul	tyrannisch	1	blank2r.bmp	0	1	+	0	1	blank2r.bmp	500	1	GKQX	500	1	blank2r.bmp	880	5	retten	880	1	!	-1	1	!	-1	0	0	0	0	0	0
2024-06-10	12:17:47	12:29:06	678544	6.6.1	4_exp_EVA_AWA_CON	76	B	A	Rpleas_acq	Oppo	Rpleas	2pleas	acq_US_pleas_nomask	acq45_nomask	4	7	400	0	300	300	0	0	282	46	0	0	ehrlich	schön	freundlich	treu	retten	helfen	eitel	schlecht	fanatisch	tot	rächen	hindern	spielen	schlau	loyal	lachen	fair	tolerant	strafen	schroff	lasch	leiden	faul	tyrannisch	1	blank2r.bmp	0	1	+	0	1	blank2r.bmp	500	1	GKQX	500	1	blank2r.bmp	880	1	ehrlich	880	1	!	-1	1	!	-1	0	0	0	0	0	0
2024-06-10	12:17:47	12:29:08	680657	6.6.1	4_exp_EVA_AWA_CON	76	B	A	Rpleas_acq	Oppo	Rpleas	2pleas	acq_US_unple_nomask	acq45_nomask	4	8	400	1	300	300	0	0	334	50	0	0	ehrlich	schön	freundlich	treu	retten	helfen	eitel	schlecht	fanatisch	tot	rächen	hindern	spielen	schlau	loyal	lachen	fair	tolerant	strafen	schroff	lasch	leiden	faul	tyrannisch	1	blank2r.bmp	0	1	+	0	1	blank2r.bmp	500	1	BMVZ	500	1	blank2r.bmp	880	3	fanatisch	880	1	!	1232	1	!	1233	0	0	0	0	0	0
2024-06-10	12:17:47	12:29:10	682834	6.6.1	4_exp_EVA_AWA_CON	76	B	A	Rpleas_acq	Oppo	Rpleas	2pleas	acq_US_unple_nomask	acq45_nomask	4	9	400	1	300	300	0	0	397	46	1	0	ehrlich	schön	freundlich	treu	retten	helfen	eitel	schlecht	fanatisch	tot	rächen	hindern	spielen	schlau	loyal	lachen	fair	tolerant	strafen	schroff	lasch	leiden	faul	tyrannisch	1	blank2r.bmp	0	1	+	0	1	blank2r.bmp	500	1	BMVZ	500	1	blank2r.bmp	880	6	hindern	880	1	!	1232	1	!	1299	0	0	0	0	0	0
2024-06-10	12:17:47	12:29:13	684937	6.6.1	4_exp_EVA_AWA_CON	76	B	A	Rpleas_acq	Oppo	Rpleas	2pleas	acq_US_unple_nomask	acq45_nomask	4	10	400	0	300	300	0	0	330	50	0	0	ehrlich	schön	freundlich	treu	retten	helfen	eitel	schlecht	fanatisch	tot	rächen	hindern	spielen	schlau	loyal	lachen	fair	tolerant	strafen	schroff	lasch	leiden	faul	tyrannisch	1	blank2r.bmp	0	1	+	0	1	blank2r.bmp	500	1	BMVZ	500	1	blank2r.bmp	880	4	tot	880	1	!	-1	1	!	-1	0	0	0	0	0	0
2024-06-10	12:17:47	12:29:15	687066	6.6.1	4_exp_EVA_AWA_CON	76	B	A	Rpleas_acq	Oppo	Rpleas	2pleas	acq_US_unple_nomask	acq45_nomask	4	11	400	1	300	300	0	0	347	46	1	0	ehrlich	schön	freundlich	treu	retten	helfen	eitel	schlecht	fanatisch	tot	rächen	hindern	spielen	schlau	loyal	lachen	fair	tolerant	strafen	schroff	lasch	leiden	faul	tyrannisch	1	blank2r.bmp	0	1	+	0	1	blank2r.bmp	500	1	BMVZ	500	1	blank2r.bmp	880	1	eitel	880	1	!	1233	1	!	1248	0	0	0	0	0	0
2024-06-10	12:17:47	12:29:17	689186	6.6.1	4_exp_EVA_AWA_CON	76	B	A	Rpleas_acq	Oppo	Rpleas	2pleas	acq_US_pleas_nomask	acq45_nomask	4	12	400	1	300	300	0	0	345	50	1	0	ehrlich	schön	freundlich	treu	retten	helfen	eitel	schlecht	fanatisch	tot	rächen	hindern	spielen	schlau	loyal	lachen	fair	tolerant	strafen	schroff	lasch	leiden	faul	tyrannisch	1	blank2r.bmp	0	1	+	0	1	blank2r.bmp	500	1	GKQX	500	1	blank2r.bmp	880	4	treu	880	1	!	1232	1	!	1246	0	0	0	0	0	0
2024-06-10	12:17:47	12:29:19	691144	6.6.1	4_exp_EVA_AWA_CON	76	B	A	Rpleas_acq	Oppo	Rpleas	2pleas	acq_US_pleas_nomask	acq45_nomask	4	13	400	0	300	300	0	0	184	46	0	0	ehrlich	schön	freundlich	treu	retten	helfen	eitel	schlecht	fanatisch	tot	rächen	hindern	spielen	schlau	loyal	lachen	fair	tolerant	strafen	schroff	lasch	leiden	faul	tyrannisch	1	blank2r.bmp	0	1	+	0	1	blank2r.bmp	500	1	GKQX	500	1	blank2r.bmp	880	2	schön	880	1	!	-1	1	!	-1	0	0	0	0	0	0
2024-06-10	12:17:47	12:29:21	693128	6.6.1	4_exp_EVA_AWA_CON	76	B	A	Rpleas_acq	Oppo	Rpleas	2pleas	acq_US_unple_nomask	acq45_nomask	4	14	400	0	300	300	0	0	207	50	0	0	ehrlich	schön	freundlich	treu	retten	helfen	eitel	schlecht	fanatisch	tot	rächen	hindern	spielen	schlau	loyal	lachen	fair	tolerant	strafen	schroff	lasch	leiden	faul	tyrannisch	1	blank2r.bmp	0	1	+	0	1	blank2r.bmp	500	1	BMVZ	500	1	blank2r.bmp	880	4	tot	880	1	!	-1	1	!	-1	0	0	0	0	0	0
2024-06-10	12:17:47	12:29:23	695176	6.6.1	4_exp_EVA_AWA_CON	76	B	A	Rpleas_acq	Oppo	Rpleas	2pleas	acq_US_pleas_nomask	acq45_nomask	4	15	400	0	300	300	0	0	273	46	0	0	ehrlich	schön	freundlich	treu	retten	helfen	eitel	schlecht	fanatisch	tot	rächen	hindern	spielen	schlau	loyal	lachen	fair	tolerant	strafen	schroff	lasch	leiden	faul	tyrannisch	1	blank2r.bmp	0	1	+	0	1	blank2r.bmp	500	1	GKQX	500	1	blank2r.bmp	880	2	schön	880	1	!	-1	1	!	-1	0	0	0	0	0	0
2024-06-10	12:17:47	12:29:25	697176	6.6.1	4_exp_EVA_AWA_CON	76	B	A	Rpleas_acq	Oppo	Rpleas	2pleas	acq_US_pleas_nomask	acq45_nomask	4	16	400	0	300	300	0	0	222	46	0	0	ehrlich	schön	freundlich	treu	retten	helfen	eitel	schlecht	fanatisch	tot	rächen	hindern	spielen	schlau	loyal	lachen	fair	tolerant	strafen	schroff	lasch	leiden	faul	tyrannisch	1	blank2r.bmp	0	1	+	0	1	blank2r.bmp	500	1	GKQX	500	1	blank2r.bmp	880	3	freundlich	880	1	!	-1	1	!	-1	0	0	0	0	0	0
2024-06-10	12:17:47	12:29:27	699232	6.6.1	4_exp_EVA_AWA_CON	76	B	A	Rpleas_acq	Oppo	Rpleas	2pleas	acq_US_pleas_nomask	acq45_nomask	4	17	400	0	300	300	0	0	277	50	1	0	ehrlich	schön	freundlich	treu	retten	helfen	eitel	schlecht	fanatisch	tot	rächen	hindern	spielen	schlau	loyal	lachen	fair	tolerant	strafen	schroff	lasch	leiden	faul	tyrannisch	1	blank2r.bmp	0	1	+	0	1	blank2r.bmp	500	1	GKQX	500	1	blank2r.bmp	880	1	ehrlich	880	1	!	-1	1	!	-1	0	0	0	0	0	0
2024-06-10	12:17:47	12:29:29	701288	6.6.1	4_exp_EVA_AWA_CON	76	B	A	Rpleas_acq	Oppo	Rpleas	2pleas	acq_US_unple_nomask	acq45_nomask	4	18	400	0	300	300	0	0	281	46	1	0	ehrlich	schön	freundlich	treu	retten	helfen	eitel	schlecht	fanatisch	tot	rächen	hindern	spielen	schlau	loyal	lachen	fair	tolerant	strafen	schroff	lasch	leiden	faul	tyrannisch	1	blank2r.bmp	0	1	+	0	1	blank2r.bmp	500	1	BMVZ	500	1	blank2r.bmp	880	5	rächen	880	1	!	-1	1	!	-1	0	0	0	0	0	0
2024-06-10	12:17:47	12:29:31	703418	6.6.1	4_exp_EVA_AWA_CON	76	B	A	Rpleas_acq	Oppo	Rpleas	2pleas	acq_US_pleas_nomask	acq45_nomask	4	19	400	1	300	300	0	0	348	50	1	0	ehrlich	schön	freundlich	treu	retten	helfen	eitel	schlecht	fanatisch	tot	rächen	hindern	spielen	schlau	loyal	lachen	fair	tolerant	strafen	schroff	lasch	leiden	faul	tyrannisch	1	blank2r.bmp	0	1	+	0	1	blank2r.bmp	500	1	GKQX	500	1	blank2r.bmp	880	6	helfen	880	1	!	1232	1	!	1249	0	0	0	0	0	0
2024-06-10	12:17:47	12:29:33	705594	6.6.1	4_exp_EVA_AWA_CON	76	B	A	Rpleas_acq	Oppo	Rpleas	2pleas	acq_US_pleas_nomask	acq45_nomask	4	20	400	1	300	300	0	0	392	50	1	0	ehrlich	schön	freundlich	treu	retten	helfen	eitel	schlecht	fanatisch	tot	rächen	hindern	spielen	schlau	loyal	lachen	fair	tolerant	strafen	schroff	lasch	leiden	faul	tyrannisch	1	blank2r.bmp	0	1	+	0	1	blank2r.bmp	500	1	GKQX	500	1	blank2r.bmp	880	4	treu	880	1	!	1232	1	!	1294	0	0	0	0	0	0
2024-06-10	12:17:47	12:29:35	707672	6.6.1	4_exp_EVA_AWA_CON	76	B	A	Rpleas_acq	Oppo	Rpleas	2pleas	acq_US_pleas_nomask	acq45_nomask	4	21	400	0	300	300	0	0	301	46	0	0	ehrlich	schön	freundlich	treu	retten	helfen	eitel	schlecht	fanatisch	tot	rächen	hindern	spielen	schlau	loyal	lachen	fair	tolerant	strafen	schroff	lasch	leiden	faul	tyrannisch	1	blank2r.bmp	0	1	+	0	1	blank2r.bmp	500	1	GKQX	500	1	blank2r.bmp	880	5	retten	880	1	!	-1	1	!	-1	0	0	0	0	0	0
2024-06-10	12:17:47	12:29:37	709793	6.6.1	4_exp_EVA_AWA_CON	76	B	A	Rpleas_acq	Oppo	Rpleas	2pleas	acq_US_unple_nomask	acq45_nomask	4	22	400	1	300	300	0	0	340	50	0	0	ehrlich	schön	freundlich	treu	retten	helfen	eitel	schlecht	fanatisch	tot	rächen	hindern	spielen	schlau	loyal	lachen	fair	tolerant	strafen	schroff	lasch	leiden	faul	tyrannisch	1	blank2r.bmp	0	1	+	0	1	blank2r.bmp	500	1	BMVZ	500	1	blank2r.bmp	880	6	hindern	880	1	!	1232	1	!	1239	0	0	0	0	0	0
2024-06-10	12:17:47	12:29:40	711865	6.6.1	4_exp_EVA_AWA_CON	76	B	A	Rpleas_acq	Oppo	Rpleas	2pleas	acq_US_pleas_nomask	acq45_nomask	4	23	400	0	300	300	0	0	290	46	0	0	ehrlich	schön	freundlich	treu	retten	helfen	eitel	schlecht	fanatisch	tot	rächen	hindern	spielen	schlau	loyal	lachen	fair	tolerant	strafen	schroff	lasch	leiden	faul	tyrannisch	1	blank2r.bmp	0	1	+	0	1	blank2r.bmp	500	1	GKQX	500	1	blank2r.bmp	880	2	schön	880	1	!	-1	1	!	-1	0	0	0	0	0	0
2024-06-10	12:17:47	12:29:42	714050	6.6.1	4_exp_EVA_AWA_CON	76	B	A	Rpleas_acq	Oppo	Rpleas	2pleas	acq_US_pleas_nomask	acq45_nomask	4	24	400	1	300	300	0	0	403	50	1	0	ehrlich	schön	freundlich	treu	retten	helfen	eitel	schlecht	fanatisch	tot	rächen	hindern	spielen	schlau	loyal	lachen	fair	tolerant	strafen	schroff	lasch	leiden	faul	tyrannisch	1	blank2r.bmp	0	1	+	0	1	blank2r.bmp	500	1	GKQX	500	1	blank2r.bmp	880	4	treu	880	1	!	1232	1	!	1304	0	0	0	0	0	0
2024-06-10	12:17:47	12:29:44	716120	6.6.1	4_exp_EVA_AWA_CON	76	B	A	Rpleas_acq	Oppo	Rpleas	2pleas	acq_US_unple_nomask	acq45_nomask	4	25	400	0	300	300	0	0	294	50	0	0	ehrlich	schön	freundlich	treu	retten	helfen	eitel	schlecht	fanatisch	tot	rächen	hindern	spielen	schlau	loyal	lachen	fair	tolerant	strafen	schroff	lasch	leiden	faul	tyrannisch	1	blank2r.bmp	0	1	+	0	1	blank2r.bmp	500	1	BMVZ	500	1	blank2r.bmp	880	2	schlecht	880	1	!	-1	1	!	-1	0	0	0	0	0	0
2024-06-10	12:17:47	12:29:46	718169	6.6.1	4_exp_EVA_AWA_CON	76	B	A	Rpleas_acq	Oppo	Rpleas	2pleas	acq_US_unple_nomask	acq45_nomask	4	26	400	0	300	300	0	0	270	46	1	0	ehrlich	schön	freundlich	treu	retten	helfen	eitel	schlecht	fanatisch	tot	rächen	hindern	spielen	schlau	loyal	lachen	fair	tolerant	strafen	schroff	lasch	leiden	faul	tyrannisch	1	blank2r.bmp	0	1	+	0	1	blank2r.bmp	500	1	BMVZ	500	1	blank2r.bmp	880	3	fanatisch	880	1	!	-1	1	!	-1	0	0	0	0	0	0
2024-06-10	12:17:47	12:29:48	720288	6.6.1	4_exp_EVA_AWA_CON	76	B	A	Rpleas_acq	Oppo	Rpleas	2pleas	acq_US_unple_nomask	acq45_nomask	4	27	400	1	300	300	0	0	339	46	1	0	ehrlich	schön	freundlich	treu	retten	helfen	eitel	schlecht	fanatisch	tot	rächen	hindern	spielen	schlau	loyal	lachen	fair	tolerant	strafen	schroff	lasch	leiden	faul	tyrannisch	1	blank2r.bmp	0	1	+	0	1	blank2r.bmp	500	1	BMVZ	500	1	blank2r.bmp	880	2	schlecht	880	1	!	1232	1	!	1239	0	0	0	0	0	0
2024-06-10	12:17:47	12:29:50	722474	6.6.1	4_exp_EVA_AWA_CON	76	B	A	Rpleas_acq	Oppo	Rpleas	2pleas	acq_US_unple_nomask	acq45_nomask	4	28	400	1	300	300	0	0	412	50	0	0	ehrlich	schön	freundlich	treu	retten	helfen	eitel	schlecht	fanatisch	tot	rächen	hindern	spielen	schlau	loyal	lachen	fair	tolerant	strafen	schroff	lasch	leiden	faul	tyrannisch	1	blank2r.bmp	0	1	+	0	1	blank2r.bmp	500	1	BMVZ	500	1	blank2r.bmp	880	1	eitel	880	1	!	1232	1	!	1313	0	0	0	0	0	0
2024-06-10	12:17:47	12:29:52	724536	6.6.1	4_exp_EVA_AWA_CON	76	B	A	Rpleas_acq	Oppo	Rpleas	2pleas	acq_US_pleas_nomask	acq45_nomask	4	29	400	0	300	300	0	0	284	50	1	0	ehrlich	schön	freundlich	treu	retten	helfen	eitel	schlecht	fanatisch	tot	rächen	hindern	spielen	schlau	loyal	lachen	fair	tolerant	strafen	schroff	lasch	leiden	faul	tyrannisch	1	blank2r.bmp	0	1	+	0	1	blank2r.bmp	500	1	GKQX	500	1	blank2r.bmp	880	6	helfen	880	1	!	-1	1	!	-1	0	0	0	0	0	0
2024-06-10	12:17:47	12:29:54	726600	6.6.1	4_exp_EVA_AWA_CON	76	B	A	Rpleas_acq	Oppo	Rpleas	2pleas	acq_US_unple_nomask	acq45_nomask	4	30	400	0	300	300	0	0	287	46	1	0	ehrlich	schön	freundlich	treu	retten	helfen	eitel	schlecht	fanatisch	tot	rächen	hindern	spielen	schlau	loyal	lachen	fair	tolerant	strafen	schroff	lasch	leiden	faul	tyrannisch	1	blank2r.bmp	0	1	+	0	1	blank2r.bmp	500	1	BMVZ	500	1	blank2r.bmp	880	3	fanatisch	880	1	!	-1	1	!	-1	0	0	0	0	0	0
2024-06-10	12:17:47	12:29:56	728656	6.6.1	4_exp_EVA_AWA_CON	76	B	A	Rpleas_acq	Oppo	Rpleas	2pleas	acq_US_unple_nomask	acq45_nomask	4	31	400	0	300	300	0	0	282	46	1	0	ehrlich	schön	freundlich	treu	retten	helfen	eitel	schlecht	fanatisch	tot	rächen	hindern	spielen	schlau	loyal	lachen	fair	tolerant	strafen	schroff	lasch	leiden	faul	tyrannisch	1	blank2r.bmp	0	1	+	0	1	blank2r.bmp	500	1	BMVZ	500	1	blank2r.bmp	880	5	rächen	880	1	!	-1	1	!	-1	0	0	0	0	0	0
2024-06-10	12:17:47	12:29:58	730712	6.6.1	4_exp_EVA_AWA_CON	76	B	A	Rpleas_acq	Oppo	Rpleas	2pleas	acq_US_unple_nomask	acq45_nomask	4	32	400	0	300	300	0	0	276	46	1	0	ehrlich	schön	freundlich	treu	retten	helfen	eitel	schlecht	fanatisch	tot	rächen	hindern	spielen	schlau	loyal	lachen	fair	tolerant	strafen	schroff	lasch	leiden	faul	tyrannisch	1	blank2r.bmp	0	1	+	0	1	blank2r.bmp	500	1	BMVZ	500	1	blank2r.bmp	880	6	hindern	880	1	!	-1	1	!	-1	0	0	0	0	0	0
2024-06-10	12:17:47	12:30:00	732800	6.6.1	4_exp_EVA_AWA_CON	76	B	A	Rpleas_acq	Oppo	Rpleas	2pleas	acq_US_pleas_nomask	acq45_nomask	4	33	400	0	300	300	0	0	313	50	1	0	ehrlich	schön	freundlich	treu	retten	helfen	eitel	schlecht	fanatisch	tot	rächen	hindern	spielen	schlau	loyal	lachen	fair	tolerant	strafen	schroff	lasch	leiden	faul	tyrannisch	1	blank2r.bmp	0	1	+	0	1	blank2r.bmp	500	1	GKQX	500	1	blank2r.bmp	880	3	freundlich	880	1	!	-1	1	!	-1	0	0	0	0	0	0
2024-06-10	12:17:47	12:30:03	734864	6.6.1	4_exp_EVA_AWA_CON	76	B	A	Rpleas_acq	Oppo	Rpleas	2pleas	acq_US_pleas_nomask	acq45_nomask	4	34	400	0	300	300	0	0	285	50	1	0	ehrlich	schön	freundlich	treu	retten	helfen	eitel	schlecht	fanatisch	tot	rächen	hindern	spielen	schlau	loyal	lachen	fair	tolerant	strafen	schroff	lasch	leiden	faul	tyrannisch	1	blank2r.bmp	0	1	+	0	1	blank2r.bmp	500	1	GKQX	500	1	blank2r.bmp	880	5	retten	880	1	!	-1	1	!	-1	0	0	0	0	0	0
2024-06-10	12:17:47	12:30:05	736961	6.6.1	4_exp_EVA_AWA_CON	76	B	A	Rpleas_acq	Oppo	Rpleas	2pleas	acq_US_pleas_nomask	acq45_nomask	4	35	400	0	300	300	0	0	320	50	1	0	ehrlich	schön	freundlich	treu	retten	helfen	eitel	schlecht	fanatisch	tot	rächen	hindern	spielen	schlau	loyal	lachen	fair	tolerant	strafen	schroff	lasch	leiden	faul	tyrannisch	1	blank2r.bmp	0	1	+	0	1	blank2r.bmp	500	1	GKQX	500	1	blank2r.bmp	880	1	ehrlich	880	1	!	-1	1	!	-1	0	0	0	0	0	0
2024-06-10	12:17:47	12:30:07	738952	6.6.1	4_exp_EVA_AWA_CON	76	B	A	Rpleas_acq	Oppo	Rpleas	2pleas	acq_US_unple_nomask	acq45_nomask	4	36	400	0	300	300	0	0	211	50	0	0	ehrlich	schön	freundlich	treu	retten	helfen	eitel	schlecht	fanatisch	tot	rächen	hindern	spielen	schlau	loyal	lachen	fair	tolerant	strafen	schroff	lasch	leiden	faul	tyrannisch	1	blank2r.bmp	0	1	+	0	1	blank2r.bmp	500	1	BMVZ	500	1	blank2r.bmp	880	4	tot	880	1	!	-1	1	!	-1	0	0	0	0	0	0
2024-06-10	12:17:47	12:30:32	764651	6.6.1	4_exp_EVA_AWA_CON	76	B	A	Rpleas_acq	Oppo	Rpleas	2pleas	acq_US_unple_nomask	acq45_nomask	5	1	400	1	300	300	0	0	400	46	1	0	ehrlich	schön	freundlich	treu	retten	helfen	eitel	schlecht	fanatisch	tot	rächen	hindern	spielen	schlau	loyal	lachen	fair	tolerant	strafen	schroff	lasch	leiden	faul	tyrannisch	1	blank2r.bmp	0	1	+	0	1	blank2r.bmp	500	1	BMVZ	500	1	blank2r.bmp	880	1	eitel	880	1	!	1232	1	!	1302	0	0	0	0	0	0
2024-06-10	12:17:47	12:30:34	766728	6.6.1	4_exp_EVA_AWA_CON	76	B	A	Rpleas_acq	Oppo	Rpleas	2pleas	acq_US_pleas_nomask	acq45_nomask	5	2	400	0	300	300	0	0	299	50	1	0	ehrlich	schön	freundlich	treu	retten	helfen	eitel	schlecht	fanatisch	tot	rächen	hindern	spielen	schlau	loyal	lachen	fair	tolerant	strafen	schroff	lasch	leiden	faul	tyrannisch	1	blank2r.bmp	0	1	+	0	1	blank2r.bmp	500	1	GKQX	500	1	blank2r.bmp	880	1	ehrlich	880	1	!	-1	1	!	-1	0	0	0	0	0	0
2024-06-10	12:17:47	12:30:36	768768	6.6.1	4_exp_EVA_AWA_CON	76	B	A	Rpleas_acq	Oppo	Rpleas	2pleas	acq_US_unple_nomask	acq45_nomask	5	3	400	0	300	300	0	0	267	46	1	0	ehrlich	schön	freundlich	treu	retten	helfen	eitel	schlecht	fanatisch	tot	rächen	hindern	spielen	schlau	loyal	lachen	fair	tolerant	strafen	schroff	lasch	leiden	faul	tyrannisch	1	blank2r.bmp	0	1	+	0	1	blank2r.bmp	500	1	BMVZ	500	1	blank2r.bmp	880	3	fanatisch	880	1	!	-1	1	!	-1	0	0	0	0	0	0
2024-06-10	12:17:47	12:30:38	770816	6.6.1	4_exp_EVA_AWA_CON	76	B	A	Rpleas_acq	Oppo	Rpleas	2pleas	acq_US_pleas_nomask	acq45_nomask	5	4	400	0	300	300	0	0	274	50	1	0	ehrlich	schön	freundlich	treu	retten	helfen	eitel	schlecht	fanatisch	tot	rächen	hindern	spielen	schlau	loyal	lachen	fair	tolerant	strafen	schroff	lasch	leiden	faul	tyrannisch	1	blank2r.bmp	0	1	+	0	1	blank2r.bmp	500	1	GKQX	500	1	blank2r.bmp	880	2	schön	880	1	!	-1	1	!	-1	0	0	0	0	0	0
2024-06-10	12:17:47	12:30:41	772970	6.6.1	4_exp_EVA_AWA_CON	76	B	A	Rpleas_acq	Oppo	Rpleas	2pleas	acq_US_pleas_nomask	acq45_nomask	5	5	400	1	300	300	0	0	375	46	0	0	ehrlich	schön	freundlich	treu	retten	helfen	eitel	schlecht	fanatisch	tot	rächen	hindern	spielen	schlau	loyal	lachen	fair	tolerant	strafen	schroff	lasch	leiden	faul	tyrannisch	1	blank2r.bmp	0	1	+	0	1	blank2r.bmp	500	1	GKQX	500	1	blank2r.bmp	880	4	treu	880	1	!	1232	1	!	1276	0	0	0	0	0	0
2024-06-10	12:17:47	12:30:43	775080	6.6.1	4_exp_EVA_AWA_CON	76	B	A	Rpleas_acq	Oppo	Rpleas	2pleas	acq_US_pleas_nomask	acq45_nomask	5	6	400	1	300	300	0	0	335	50	1	0	ehrlich	schön	freundlich	treu	retten	helfen	eitel	schlecht	fanatisch	tot	rächen	hindern	spielen	schlau	loyal	lachen	fair	tolerant	strafen	schroff	lasch	leiden	faul	tyrannisch	1	blank2r.bmp	0	1	+	0	1	blank2r.bmp	500	1	GKQX	500	1	blank2r.bmp	880	5	retten	880	1	!	1232	1	!	1235	0	0	0	0	0	0
2024-06-10	12:17:47	12:30:45	777234	6.6.1	4_exp_EVA_AWA_CON	76	B	A	Rpleas_acq	Oppo	Rpleas	2pleas	acq_US_unple_nomask	acq45_nomask	5	7	400	1	300	300	0	0	376	46	1	0	ehrlich	schön	freundlich	treu	retten	helfen	eitel	schlecht	fanatisch	tot	rächen	hindern	spielen	schlau	loyal	lachen	fair	tolerant	strafen	schroff	lasch	leiden	faul	tyrannisch	1	blank2r.bmp	0	1	+	0	1	blank2r.bmp	500	1	BMVZ	500	1	blank2r.bmp	880	2	schlecht	880	1	!	1232	1	!	1277	0	0	0	0	0	0
2024-06-10	12:17:47	12:30:47	779296	6.6.1	4_exp_EVA_AWA_CON	76	B	A	Rpleas_acq	Oppo	Rpleas	2pleas	acq_US_unple_nomask	acq45_nomask	5	8	400	0	300	300	0	0	289	46	1	0	ehrlich	schön	freundlich	treu	retten	helfen	eitel	schlecht	fanatisch	tot	rächen	hindern	spielen	schlau	loyal	lachen	fair	tolerant	strafen	schroff	lasch	leiden	faul	tyrannisch	1	blank2r.bmp	0	1	+	0	1	blank2r.bmp	500	1	BMVZ	500	1	blank2r.bmp	880	6	hindern	880	1	!	-1	1	!	-1	0	0	0	0	0	0
2024-06-10	12:17:47	12:30:49	781312	6.6.1	4_exp_EVA_AWA_CON	76	B	A	Rpleas_acq	Oppo	Rpleas	2pleas	acq_US_unple_nomask	acq45_nomask	5	9	400	0	300	300	0	0	243	46	1	0	ehrlich	schön	freundlich	treu	retten	helfen	eitel	schlecht	fanatisch	tot	rächen	hindern	spielen	schlau	loyal	lachen	fair	tolerant	strafen	schroff	lasch	leiden	faul	tyrannisch	1	blank2r.bmp	0	1	+	0	1	blank2r.bmp	500	1	BMVZ	500	1	blank2r.bmp	880	5	rächen	880	1	!	-1	1	!	-1	0	0	0	0	0	0
2024-06-10	12:17:47	12:30:51	783328	6.6.1	4_exp_EVA_AWA_CON	76	B	A	Rpleas_acq	Oppo	Rpleas	2pleas	acq_US_unple_nomask	acq45_nomask	5	10	400	0	300	300	0	0	238	50	0	0	ehrlich	schön	freundlich	treu	retten	helfen	eitel	schlecht	fanatisch	tot	rächen	hindern	spielen	schlau	loyal	lachen	fair	tolerant	strafen	schroff	lasch	leiden	faul	tyrannisch	1	blank2r.bmp	0	1	+	0	1	blank2r.bmp	500	1	BMVZ	500	1	blank2r.bmp	880	4	tot	880	1	!	-1	1	!	-1	0	0	0	0	0	0
2024-06-10	12:17:47	12:30:53	785344	6.6.1	4_exp_EVA_AWA_CON	76	B	A	Rpleas_acq	Oppo	Rpleas	2pleas	acq_US_pleas_nomask	acq45_nomask	5	11	400	0	300	300	0	0	243	46	0	0	ehrlich	schön	freundlich	treu	retten	helfen	eitel	schlecht	fanatisch	tot	rächen	hindern	spielen	schlau	loyal	lachen	fair	tolerant	strafen	schroff	lasch	leiden	faul	tyrannisch	1	blank2r.bmp	0	1	+	0	1	blank2r.bmp	500	1	GKQX	500	1	blank2r.bmp	880	6	helfen	880	1	!	-1	1	!	-1	0	0	0	0	0	0
2024-06-10	12:17:47	12:30:55	787570	6.6.1	4_exp_EVA_AWA_CON	76	B	A	Rpleas_acq	Oppo	Rpleas	2pleas	acq_US_unple_nomask	acq45_nomask	5	12	400	1	300	300	0	0	445	46	1	0	ehrlich	schön	freundlich	treu	retten	helfen	eitel	schlecht	fanatisch	tot	rächen	hindern	spielen	schlau	loyal	lachen	fair	tolerant	strafen	schroff	lasch	leiden	faul	tyrannisch	1	blank2r.bmp	0	1	+	0	1	blank2r.bmp	500	1	BMVZ	500	1	blank2r.bmp	880	4	tot	880	1	!	1232	1	!	1346	0	0	0	0	0	0
2024-06-10	12:17:47	12:30:57	789665	6.6.1	4_exp_EVA_AWA_CON	76	B	A	Rpleas_acq	Oppo	Rpleas	2pleas	acq_US_pleas_nomask	acq45_nomask	5	13	400	0	300	300	0	0	320	50	1	0	ehrlich	schön	freundlich	treu	retten	helfen	eitel	schlecht	fanatisch	tot	rächen	hindern	spielen	schlau	loyal	lachen	fair	tolerant	strafen	schroff	lasch	leiden	faul	tyrannisch	1	blank2r.bmp	0	1	+	0	1	blank2r.bmp	500	1	GKQX	500	1	blank2r.bmp	880	3	freundlich	880	1	!	-1	1	!	-1	0	0	0	0	0	0
2024-06-10	12:17:47	12:30:59	791794	6.6.1	4_exp_EVA_AWA_CON	76	B	A	Rpleas_acq	Oppo	Rpleas	2pleas	acq_US_pleas_nomask	acq45_nomask	5	14	400	1	300	300	0	0	346	46	0	0	ehrlich	schön	freundlich	treu	retten	helfen	eitel	schlecht	fanatisch	tot	rächen	hindern	spielen	schlau	loyal	lachen	fair	tolerant	strafen	schroff	lasch	leiden	faul	tyrannisch	1	blank2r.bmp	0	1	+	0	1	blank2r.bmp	500	1	GKQX	500	1	blank2r.bmp	880	2	schön	880	1	!	1233	1	!	1248	0	0	0	0	0	0
2024-06-10	12:17:47	12:31:02	794056	6.6.1	4_exp_EVA_AWA_CON	76	B	A	Rpleas_acq	Oppo	Rpleas	2pleas	acq_US_pleas_nomask	acq45_nomask	5	15	400	0	300	300	0	0	489	50	1	0	ehrlich	schön	freundlich	treu	retten	helfen	eitel	schlecht	fanatisch	tot	rächen	hindern	spielen	schlau	loyal	lachen	fair	tolerant	strafen	schroff	lasch	leiden	faul	tyrannisch	1	blank2r.bmp	0	1	+	0	1	blank2r.bmp	500	1	GKQX	500	1	blank2r.bmp	880	6	helfen	880	1	!	1233	1	!	-1	0	0	0	0	0	0
2024-06-10	12:17:47	12:31:04	796162	6.6.1	4_exp_EVA_AWA_CON	76	B	A	Rpleas_acq	Oppo	Rpleas	2pleas	acq_US_unple_nomask	acq45_nomask	5	16	400	1	300	300	0	0	334	46	1	0	ehrlich	schön	freundlich	treu	retten	helfen	eitel	schlecht	fanatisch	tot	rächen	hindern	spielen	schlau	loyal	lachen	fair	tolerant	strafen	schroff	lasch	leiden	faul	tyrannisch	1	blank2r.bmp	0	1	+	0	1	blank2r.bmp	500	1	BMVZ	500	1	blank2r.bmp	880	5	rächen	880	1	!	1232	1	!	1233	0	0	0	0	0	0
2024-06-10	12:17:47	12:31:06	798536	6.6.1	4_exp_EVA_AWA_CON	76	B	A	Rpleas_acq	Oppo	Rpleas	2pleas	acq_US_pleas_nomask	acq45_nomask	5	17	400	0	300	300	0	0	596	50	1	0	ehrlich	schön	freundlich	treu	retten	helfen	eitel	schlecht	fanatisch	tot	rächen	hindern	spielen	schlau	loyal	lachen	fair	tolerant	strafen	schroff	lasch	leiden	faul	tyrannisch	1	blank2r.bmp	0	1	+	0	1	blank2r.bmp	500	1	GKQX	500	1	blank2r.bmp	880	4	treu	880	1	!	1232	1	!	-1	0	0	0	0	0	0
2024-06-10	12:17:47	12:31:08	800648	6.6.1	4_exp_EVA_AWA_CON	76	B	A	Rpleas_acq	Oppo	Rpleas	2pleas	acq_US_unple_nomask	acq45_nomask	5	18	400	1	300	300	0	0	337	46	1	0	ehrlich	schön	freundlich	treu	retten	helfen	eitel	schlecht	fanatisch	tot	rächen	hindern	spielen	schlau	loyal	lachen	fair	tolerant	strafen	schroff	lasch	leiden	faul	tyrannisch	1	blank2r.bmp	0	1	+	0	1	blank2r.bmp	500	1	BMVZ	500	1	blank2r.bmp	880	1	eitel	880	1	!	1232	1	!	1236	0	0	0	0	0	0
2024-06-10	12:17:47	12:31:11	803488	6.6.1	4_exp_EVA_AWA_CON	76	B	A	Rpleas_acq	Oppo	Rpleas	2pleas	acq_US_unple_nomask	acq45_nomask	5	19	400	0	300	300	0	0	1065	46	1	0	ehrlich	schön	freundlich	treu	retten	helfen	eitel	schlecht	fanatisch	tot	rächen	hindern	spielen	schlau	loyal	lachen	fair	tolerant	strafen	schroff	lasch	leiden	faul	tyrannisch	1	blank2r.bmp	0	1	+	0	1	blank2r.bmp	500	1	BMVZ	500	1	blank2r.bmp	880	3	fanatisch	880	1	!	1232	1	!	-1	0	0	0	0	0	0
2024-06-10	12:17:47	12:31:13	805714	6.6.1	4_exp_EVA_AWA_CON	76	B	A	Rpleas_acq	Oppo	Rpleas	2pleas	acq_US_pleas_nomask	acq45_nomask	5	20	400	1	300	300	0	0	447	50	1	0	ehrlich	schön	freundlich	treu	retten	helfen	eitel	schlecht	fanatisch	tot	rächen	hindern	spielen	schlau	loyal	lachen	fair	tolerant	strafen	schroff	lasch	leiden	faul	tyrannisch	1	blank2r.bmp	0	1	+	0	1	blank2r.bmp	500	1	GKQX	500	1	blank2r.bmp	880	1	ehrlich	880	1	!	1232	1	!	1348	0	0	0	0	0	0
2024-06-10	12:17:47	12:31:16	808097	6.6.1	4_exp_EVA_AWA_CON	76	B	A	Rpleas_acq	Oppo	Rpleas	2pleas	acq_US_unple_nomask	acq45_nomask	5	21	400	0	300	300	0	0	610	46	1	0	ehrlich	schön	freundlich	treu	retten	helfen	eitel	schlecht	fanatisch	tot	rächen	hindern	spielen	schlau	loyal	lachen	fair	tolerant	strafen	schroff	lasch	leiden	faul	tyrannisch	1	blank2r.bmp	0	1	+	0	1	blank2r.bmp	500	1	BMVZ	500	1	blank2r.bmp	880	6	hindern	880	1	!	1232	1	!	-1	0	0	0	0	0	0
2024-06-10	12:17:47	12:31:18	810168	6.6.1	4_exp_EVA_AWA_CON	76	B	A	Rpleas_acq	Oppo	Rpleas	2pleas	acq_US_pleas_nomask	acq45_nomask	5	22	400	0	300	300	0	0	290	46	0	0	ehrlich	schön	freundlich	treu	retten	helfen	eitel	schlecht	fanatisch	tot	rächen	hindern	spielen	schlau	loyal	lachen	fair	tolerant	strafen	schroff	lasch	leiden	faul	tyrannisch	1	blank2r.bmp	0	1	+	0	1	blank2r.bmp	500	1	GKQX	500	1	blank2r.bmp	880	5	retten	880	1	!	-1	1	!	-1	0	0	0	0	0	0
2024-06-10	12:17:47	12:31:20	812592	6.6.1	4_exp_EVA_AWA_CON	76	B	A	Rpleas_acq	Oppo	Rpleas	2pleas	acq_US_unple_nomask	acq45_nomask	5	23	400	0	300	300	0	0	643	46	1	0	ehrlich	schön	freundlich	treu	retten	helfen	eitel	schlecht	fanatisch	tot	rächen	hindern	spielen	schlau	loyal	lachen	fair	tolerant	strafen	schroff	lasch	leiden	faul	tyrannisch	1	blank2r.bmp	0	1	+	0	1	blank2r.bmp	500	1	BMVZ	500	1	blank2r.bmp	880	2	schlecht	880	1	!	1233	1	!	-1	0	0	0	0	0	0
2024-06-10	12:17:47	12:31:22	814712	6.6.1	4_exp_EVA_AWA_CON	76	B	A	Rpleas_acq	Oppo	Rpleas	2pleas	acq_US_unple_nomask	acq45_nomask	5	24	400	1	300	300	0	0	341	50	0	0	ehrlich	schön	freundlich	treu	retten	helfen	eitel	schlecht	fanatisch	tot	rächen	hindern	spielen	schlau	loyal	lachen	fair	tolerant	strafen	schroff	lasch	leiden	faul	tyrannisch	1	blank2r.bmp	0	1	+	0	1	blank2r.bmp	500	1	BMVZ	500	1	blank2r.bmp	880	4	tot	880	1	!	1232	1	!	1241	0	0	0	0	0	0
2024-06-10	12:17:47	12:31:24	816849	6.6.1	4_exp_EVA_AWA_CON	76	B	A	Rpleas_acq	Oppo	Rpleas	2pleas	acq_US_pleas_nomask	acq45_nomask	5	25	400	1	300	300	0	0	356	50	1	0	ehrlich	schön	freundlich	treu	retten	helfen	eitel	schlecht	fanatisch	tot	rächen	hindern	spielen	schlau	loyal	lachen	fair	tolerant	strafen	schroff	lasch	leiden	faul	tyrannisch	1	blank2r.bmp	0	1	+	0	1	blank2r.bmp	500	1	GKQX	500	1	blank2r.bmp	880	3	freundlich	880	1	!	1232	1	!	1257	0	0	0	0	0	0
2024-06-10	12:17:47	12:31:27	819034	6.6.1	4_exp_EVA_AWA_CON	76	B	A	Rpleas_acq	Oppo	Rpleas	2pleas	acq_US_pleas_nomask	acq45_nomask	5	26	400	1	300	300	0	0	409	50	1	0	ehrlich	schön	freundlich	treu	retten	helfen	eitel	schlecht	fanatisch	tot	rächen	hindern	spielen	schlau	loyal	lachen	fair	tolerant	strafen	schroff	lasch	leiden	faul	tyrannisch	1	blank2r.bmp	0	1	+	0	1	blank2r.bmp	500	1	GKQX	500	1	blank2r.bmp	880	1	ehrlich	880	1	!	1232	1	!	1310	0	0	0	0	0	0
2024-06-10	12:17:47	12:31:29	821376	6.6.1	4_exp_EVA_AWA_CON	76	B	A	Rpleas_acq	Oppo	Rpleas	2pleas	acq_US_pleas_nomask	acq45_nomask	5	27	400	0	300	300	0	0	561	46	0	0	ehrlich	schön	freundlich	treu	retten	helfen	eitel	schlecht	fanatisch	tot	rächen	hindern	spielen	schlau	loyal	lachen	fair	tolerant	strafen	schroff	lasch	leiden	faul	tyrannisch	1	blank2r.bmp	0	1	+	0	1	blank2r.bmp	500	1	GKQX	500	1	blank2r.bmp	880	5	retten	880	1	!	1232	1	!	-1	0	0	0	0	0	0
2024-06-10	12:17:47	12:31:31	823514	6.6.1	4_exp_EVA_AWA_CON	76	B	A	Rpleas_acq	Oppo	Rpleas	2pleas	acq_US_pleas_nomask	acq45_nomask	5	28	400	1	300	300	0	0	356	50	1	0	ehrlich	schön	freundlich	treu	retten	helfen	eitel	schlecht	fanatisch	tot	rächen	hindern	spielen	schlau	loyal	lachen	fair	tolerant	strafen	schroff	lasch	leiden	faul	tyrannisch	1	blank2r.bmp	0	1	+	0	1	blank2r.bmp	500	1	GKQX	500	1	blank2r.bmp	880	6	helfen	880	1	!	1232	1	!	1257	0	0	0	0	0	0
2024-06-10	12:17:47	12:31:33	825584	6.6.1	4_exp_EVA_AWA_CON	76	B	A	Rpleas_acq	Oppo	Rpleas	2pleas	acq_US_unple_nomask	acq45_nomask	5	29	400	0	300	300	0	0	296	46	1	0	ehrlich	schön	freundlich	treu	retten	helfen	eitel	schlecht	fanatisch	tot	rächen	hindern	spielen	schlau	loyal	lachen	fair	tolerant	strafen	schroff	lasch	leiden	faul	tyrannisch	1	blank2r.bmp	0	1	+	0	1	blank2r.bmp	500	1	BMVZ	500	1	blank2r.bmp	880	1	eitel	880	1	!	-1	1	!	-1	0	0	0	0	0	0
2024-06-10	12:17:47	12:31:35	827838	6.6.1	4_exp_EVA_AWA_CON	76	B	A	Rpleas_acq	Oppo	Rpleas	2pleas	acq_US_unple_nomask	acq45_nomask	5	30	400	0	300	300	0	0	481	46	1	0	ehrlich	schön	freundlich	treu	retten	helfen	eitel	schlecht	fanatisch	tot	rächen	hindern	spielen	schlau	loyal	lachen	fair	tolerant	strafen	schroff	lasch	leiden	faul	tyrannisch	1	blank2r.bmp	0	1	+	0	1	blank2r.bmp	500	1	BMVZ	500	1	blank2r.bmp	880	6	hindern	880	1	!	1232	1	!	-1	0	0	0	0	0	0
2024-06-10	12:17:47	12:31:37	829824	6.6.1	4_exp_EVA_AWA_CON	76	B	A	Rpleas_acq	Oppo	Rpleas	2pleas	acq_US_pleas_nomask	acq45_nomask	5	31	400	0	300	300	0	0	214	50	1	0	ehrlich	schön	freundlich	treu	retten	helfen	eitel	schlecht	fanatisch	tot	rächen	hindern	spielen	schlau	loyal	lachen	fair	tolerant	strafen	schroff	lasch	leiden	faul	tyrannisch	1	blank2r.bmp	0	1	+	0	1	blank2r.bmp	500	1	GKQX	500	1	blank2r.bmp	880	4	treu	880	1	!	-1	1	!	-1	0	0	0	0	0	0
2024-06-10	12:17:47	12:31:40	831913	6.6.1	4_exp_EVA_AWA_CON	76	B	A	Rpleas_acq	Oppo	Rpleas	2pleas	acq_US_unple_nomask	acq45_nomask	5	32	400	0	300	300	0	0	310	46	1	0	ehrlich	schön	freundlich	treu	retten	helfen	eitel	schlecht	fanatisch	tot	rächen	hindern	spielen	schlau	loyal	lachen	fair	tolerant	strafen	schroff	lasch	leiden	faul	tyrannisch	1	blank2r.bmp	0	1	+	0	1	blank2r.bmp	500	1	BMVZ	500	1	blank2r.bmp	880	2	schlecht	880	1	!	-1	1	!	-1	0	0	0	0	0	0
2024-06-10	12:17:47	12:31:42	834032	6.6.1	4_exp_EVA_AWA_CON	76	B	A	Rpleas_acq	Oppo	Rpleas	2pleas	acq_US_pleas_nomask	acq45_nomask	5	33	400	1	300	300	0	0	339	50	1	0	ehrlich	schön	freundlich	treu	retten	helfen	eitel	schlecht	fanatisch	tot	rächen	hindern	spielen	schlau	loyal	lachen	fair	tolerant	strafen	schroff	lasch	leiden	faul	tyrannisch	1	blank2r.bmp	0	1	+	0	1	blank2r.bmp	500	1	GKQX	500	1	blank2r.bmp	880	2	schön	880	1	!	1232	1	!	1238	0	0	0	0	0	0
2024-06-10	12:17:47	12:31:44	836162	6.6.1	4_exp_EVA_AWA_CON	76	B	A	Rpleas_acq	Oppo	Rpleas	2pleas	acq_US_unple_nomask	acq45_nomask	5	34	400	1	300	300	0	0	346	46	1	0	ehrlich	schön	freundlich	treu	retten	helfen	eitel	schlecht	fanatisch	tot	rächen	hindern	spielen	schlau	loyal	lachen	fair	tolerant	strafen	schroff	lasch	leiden	faul	tyrannisch	1	blank2r.bmp	0	1	+	0	1	blank2r.bmp	500	1	BMVZ	500	1	blank2r.bmp	880	5	rächen	880	1	!	1232	1	!	1247	0	0	0	0	0	0
2024-06-10	12:17:47	12:31:46	838584	6.6.1	4_exp_EVA_AWA_CON	76	B	A	Rpleas_acq	Oppo	Rpleas	2pleas	acq_US_unple_nomask	acq45_nomask	5	35	400	0	300	300	0	0	648	46	1	0	ehrlich	schön	freundlich	treu	retten	helfen	eitel	schlecht	fanatisch	tot	rächen	hindern	spielen	schlau	loyal	lachen	fair	tolerant	strafen	schroff	lasch	leiden	faul	tyrannisch	1	blank2r.bmp	0	1	+	0	1	blank2r.bmp	500	1	BMVZ	500	1	blank2r.bmp	880	3	fanatisch	880	1	!	1232	1	!	-1	0	0	0	0	0	0
2024-06-10	12:17:47	12:31:48	840706	6.6.1	4_exp_EVA_AWA_CON	76	B	A	Rpleas_acq	Oppo	Rpleas	2pleas	acq_US_pleas_nomask	acq45_nomask	5	36	400	1	300	300	0	0	347	50	1	0	ehrlich	schön	freundlich	treu	retten	helfen	eitel	schlecht	fanatisch	tot	rächen	hindern	spielen	schlau	loyal	lachen	fair	tolerant	strafen	schroff	lasch	leiden	faul	tyrannisch	1	blank2r.bmp	0	1	+	0	1	blank2r.bmp	500	1	GKQX	500	1	blank2r.bmp	880	3	freundlich	880	1	!	1232	1	!	1248	0	0	0	0	0	0
2024-06-10	12:17:47	12:32:27	879796	6.6.1	4_exp_EVA_AWA_CON	76	B	A	Rpleas_acq	Oppo	Lpleas	2pleas	EvalRating_firsttwo	EvalRating_firsttwo	6	1	0	0	300	300	0	0	5427	line	0	-73,3072916666666571928pct	ehrlich	schön	freundlich	treu	retten	helfen	eitel	schlecht	fanatisch	tot	rächen	hindern	spielen	schlau	loyal	lachen	fair	tolerant	strafen	schroff	lasch	leiden	faul	tyrannisch	1		-8	1	Wie angenehm oder unangenehm finden Sie die  Buchstabenkette ZGVK?	-8	1		-8	1		-8	1		-8	1	Unangenehm	-8	1	Angenehm	-8	0	0	0	0	0	0	0	0	0
2024-06-10	12:17:47	12:32:36	888157	6.6.1	4_exp_EVA_AWA_CON	76	B	A	Rpleas_acq	Oppo	Lpleas	2pleas	EvalRating_lastfour	EvalRating_lastfour	7	1	0	0	300	300	0	0	5983	line	0	14,5833333333333428072pct	ehrlich	schön	freundlich	treu	retten	helfen	eitel	schlecht	fanatisch	tot	rächen	hindern	spielen	schlau	loyal	lachen	fair	tolerant	strafen	schroff	lasch	leiden	faul	tyrannisch	1		-8	1	Wie angenehm oder unangenehm finden Sie die  Buchstabenkette BMVZ?	-8	1		-8	1		-8	1		-8	1	Unangenehm	-8	1	Angenehm	-8	0	0	0	0	0	0	0	0	0
2024-06-10	12:17:47	12:32:38	890522	6.6.1	4_exp_EVA_AWA_CON	76	B	A	Rpleas_acq	Oppo	Lpleas	2pleas	blank_screen	EvalRating_lastfour	7	3	0	0	300	300	0	0	0	0	0	14,5833333333333428072pct	ehrlich	schön	freundlich	treu	retten	helfen	eitel	schlecht	fanatisch	tot	rächen	hindern	spielen	schlau	loyal	lachen	fair	tolerant	strafen	schroff	lasch	leiden	faul	tyrannisch	1		-8	0	0	0	0	0	0	0	0	0	0	0	0	0	0	0	0	0	0	0	0	0	0	0	0	0	0	0
2024-06-10	12:17:47	12:32:42	894717	6.6.1	4_exp_EVA_AWA_CON	76	B	A	Rpleas_acq	Oppo	Lpleas	2pleas	EvalRating_lastfour	EvalRating_lastfour	7	4	0	0	300	300	0	0	3606	line	0	-61,9791666666666642982pct	ehrlich	schön	freundlich	treu	retten	helfen	eitel	schlecht	fanatisch	tot	rächen	hindern	spielen	schlau	loyal	lachen	fair	tolerant	strafen	schroff	lasch	leiden	faul	tyrannisch	1		-7	2	Wie angenehm oder unangenehm finden Sie die  Buchstabenkette GKQX?	-7	1		-7	1		-7	1		-7	1	Unangenehm	-7	1	Angenehm	-7	0	0	0	0	0	0	0	0	0
2024-06-10	12:17:47	12:32:45	897086	6.6.1	4_exp_EVA_AWA_CON	76	B	A	Rpleas_acq	Oppo	Lpleas	2pleas	blank_screen	EvalRating_lastfour	7	6	0	0	300	300	0	0	0	0	0	-61,9791666666666642982pct	ehrlich	schön	freundlich	treu	retten	helfen	eitel	schlecht	fanatisch	tot	rächen	hindern	spielen	schlau	loyal	lachen	fair	tolerant	strafen	schroff	lasch	leiden	faul	tyrannisch	1		-8	0	0	0	0	0	0	0	0	0	0	0	0	0	0	0	0	0	0	0	0	0	0	0	0	0	0	0
2024-06-10	12:17:47	12:32:47	899469	6.6.1	4_exp_EVA_AWA_CON	76	B	A	Rpleas_acq	Oppo	Lpleas	2pleas	EvalRating_lastfour	EvalRating_lastfour	7	7	0	0	300	300	0	0	1795	line	0	-77,6041666666666571928pct	ehrlich	schön	freundlich	treu	retten	helfen	eitel	schlecht	fanatisch	tot	rächen	hindern	spielen	schlau	loyal	lachen	fair	tolerant	strafen	schroff	lasch	leiden	faul	tyrannisch	1		-8	3	Wie angenehm oder unangenehm finden Sie die  Buchstabenkette XBQM?	-8	1		-8	1		-8	1		-8	1	Unangenehm	-8	1	Angenehm	-8	0	0	0	0	0	0	0	0	0
2024-06-10	12:17:47	12:33:46	958124	6.6.1	4_exp_EVA_AWA_CON	76	B	A	Rpleas_acq	Oppo	Lpleas	2pleas	conawa_CS1_US2	conawa1_nomask	8	1	0	0	300	300	0	0	17510	schön	1	-77,6041666666666571928pct	ehrlich	schön	freundlich	treu	retten	helfen	eitel	schlecht	fanatisch	tot	rächen	hindern	spielen	schlau	loyal	lachen	fair	tolerant	strafen	schroff	lasch	leiden	faul	tyrannisch	0	0	0	0	0	0	0	0	0	0	0	0	0	0	0	0	0	0	0	0	0	0	0	0	0	0	0	0	0	0
2024-06-10	12:17:47	12:33:46	958125	6.6.1	4_exp_EVA_AWA_CON	76	B	A	Rpleas_acq	Oppo	Lpleas	2pleas	conawa_CS1_US2_confidence	conawa1_nomask	8	1	0	0	300	300	0	0	17510	sure	1	-77,6041666666666571928pct	ehrlich	schön	freundlich	treu	retten	helfen	eitel	schlecht	fanatisch	tot	rächen	hindern	spielen	schlau	loyal	lachen	fair	tolerant	strafen	schroff	lasch	leiden	faul	tyrannisch	0	0	0	0	0	0	0	0	0	0	0	0	0	0	0	0	0	0	0	0	0	0	0	0	0	0	0	0	0	0
2024-06-10	12:17:47	12:33:54	966499	6.6.1	4_exp_EVA_AWA_CON	76	B	A	Rpleas_acq	Oppo	Lpleas	2pleas	conawa_CS2_US4	conawa1_nomask	8	2	0	0	300	300	0	0	7760	tot	1	-77,6041666666666571928pct	ehrlich	schön	freundlich	treu	retten	helfen	eitel	schlecht	fanatisch	tot	rächen	hindern	spielen	schlau	loyal	lachen	fair	tolerant	strafen	schroff	lasch	leiden	faul	tyrannisch	0	0	0	0	0	0	0	0	0	0	0	0	0	0	0	0	0	0	0	0	0	0	0	0	0	0	0	0	0	0
2024-06-10	12:17:47	12:33:54	966501	6.6.1	4_exp_EVA_AWA_CON	76	B	A	Rpleas_acq	Oppo	Lpleas	2pleas	conawa_CS2_US4_confidence	conawa1_nomask	8	2	0	0	300	300	0	0	7760	sure	1	-77,6041666666666571928pct	ehrlich	schön	freundlich	treu	retten	helfen	eitel	schlecht	fanatisch	tot	rächen	hindern	spielen	schlau	loyal	lachen	fair	tolerant	strafen	schroff	lasch	leiden	faul	tyrannisch	0	0	0	0	0	0	0	0	0	0	0	0	0	0	0	0	0	0	0	0	0	0	0	0	0	0	0	0	0	0
2024-06-10	12:17:47	12:34:20	992666	6.6.1	4_exp_EVA_AWA_CON	76	B	A	Rpleas_acq	Oppo	Lpleas	2pleas	conawa_CS1_US4	conawa1_nomask	8	3	0	0	300	300	0	0	25549	lachen	1	-77,6041666666666571928pct	ehrlich	schön	freundlich	treu	retten	helfen	eitel	schlecht	fanatisch	tot	rächen	hindern	spielen	schlau	loyal	lachen	fair	tolerant	strafen	schroff	lasch	leiden	faul	tyrannisch	0	0	0	0	0	0	0	0	0	0	0	0	0	0	0	0	0	0	0	0	0	0	0	0	0	0	0	0	0	0
2024-06-10	12:17:47	12:34:20	992668	6.6.1	4_exp_EVA_AWA_CON	76	B	A	Rpleas_acq	Oppo	Lpleas	2pleas	conawa_CS1_US4_confidence	conawa1_nomask	8	3	0	0	300	300	0	0	25549	guess	1	-77,6041666666666571928pct	ehrlich	schön	freundlich	treu	retten	helfen	eitel	schlecht	fanatisch	tot	rächen	hindern	spielen	schlau	loyal	lachen	fair	tolerant	strafen	schroff	lasch	leiden	faul	tyrannisch	0	0	0	0	0	0	0	0	0	0	0	0	0	0	0	0	0	0	0	0	0	0	0	0	0	0	0	0	0	0
2024-06-10	12:17:47	12:34:33	1005784	6.6.1	4_exp_EVA_AWA_CON	76	B	A	Rpleas_acq	Oppo	Lpleas	2pleas	conawa_CS2_US1	conawa1_nomask	8	4	0	0	300	300	0	0	12508	eitel	1	-77,6041666666666571928pct	ehrlich	schön	freundlich	treu	retten	helfen	eitel	schlecht	fanatisch	tot	rächen	hindern	spielen	schlau	loyal	lachen	fair	tolerant	strafen	schroff	lasch	leiden	faul	tyrannisch	0	0	0	0	0	0	0	0	0	0	0	0	0	0	0	0	0	0	0	0	0	0	0	0	0	0	0	0	0	0
2024-06-10	12:17:47	12:34:33	1005786	6.6.1	4_exp_EVA_AWA_CON	76	B	A	Rpleas_acq	Oppo	Lpleas	2pleas	conawa_CS2_US1_confidence	conawa1_nomask	8	4	0	0	300	300	0	0	12508	probably	1	-77,6041666666666571928pct	ehrlich	schön	freundlich	treu	retten	helfen	eitel	schlecht	fanatisch	tot	rächen	hindern	spielen	schlau	loyal	lachen	fair	tolerant	strafen	schroff	lasch	leiden	faul	tyrannisch	0	0	0	0	0	0	0	0	0	0	0	0	0	0	0	0	0	0	0	0	0	0	0	0	0	0	0	0	0	0
2024-06-10	12:17:47	12:34:48	1020524	6.6.1	4_exp_EVA_AWA_CON	76	B	A	Rpleas_acq	Oppo	Lpleas	2pleas	conawa_CS2_US6	conawa1_nomask	8	5	0	0	300	300	0	0	14125	hindern	1	-77,6041666666666571928pct	ehrlich	schön	freundlich	treu	retten	helfen	eitel	schlecht	fanatisch	tot	rächen	hindern	spielen	schlau	loyal	lachen	fair	tolerant	strafen	schroff	lasch	leiden	faul	tyrannisch	0	0	0	0	0	0	0	0	0	0	0	0	0	0	0	0	0	0	0	0	0	0	0	0	0	0	0	0	0	0
2024-06-10	12:17:47	12:34:48	1020526	6.6.1	4_exp_EVA_AWA_CON	76	B	A	Rpleas_acq	Oppo	Lpleas	2pleas	conawa_CS2_US6_confidence	conawa1_nomask	8	5	0	0	300	300	0	0	14125	sure	1	-77,6041666666666571928pct	ehrlich	schön	freundlich	treu	retten	helfen	eitel	schlecht	fanatisch	tot	rächen	hindern	spielen	schlau	loyal	lachen	fair	tolerant	strafen	schroff	lasch	leiden	faul	tyrannisch	0	0	0	0	0	0	0	0	0	0	0	0	0	0	0	0	0	0	0	0	0	0	0	0	0	0	0	0	0	0
2024-06-10	12:17:47	12:35:03	1035184	6.6.1	4_exp_EVA_AWA_CON	76	B	A	Rpleas_acq	Oppo	Lpleas	2pleas	conawa_CS1_US3	conawa1_nomask	8	6	0	0	300	300	0	0	14041	freundlich	1	-77,6041666666666571928pct	ehrlich	schön	freundlich	treu	retten	helfen	eitel	schlecht	fanatisch	tot	rächen	hindern	spielen	schlau	loyal	lachen	fair	tolerant	strafen	schroff	lasch	leiden	faul	tyrannisch	0	0	0	0	0	0	0	0	0	0	0	0	0	0	0	0	0	0	0	0	0	0	0	0	0	0	0	0	0	0
2024-06-10	12:17:47	12:35:03	1035186	6.6.1	4_exp_EVA_AWA_CON	76	B	A	Rpleas_acq	Oppo	Lpleas	2pleas	conawa_CS1_US3_confidence	conawa1_nomask	8	6	0	0	300	300	0	0	14041	guess	1	-77,6041666666666571928pct	ehrlich	schön	freundlich	treu	retten	helfen	eitel	schlecht	fanatisch	tot	rächen	hindern	spielen	schlau	loyal	lachen	fair	tolerant	strafen	schroff	lasch	leiden	faul	tyrannisch	0	0	0	0	0	0	0	0	0	0	0	0	0	0	0	0	0	0	0	0	0	0	0	0	0	0	0	0	0	0
2024-06-10	12:17:47	12:35:29	1061801	6.6.1	4_exp_EVA_AWA_CON	76	B	A	Rpleas_acq	Oppo	Lpleas	2pleas	conawa_CS1_US1	conawa1_nomask	8	7	0	0	300	300	0	0	26005	ehrlich	1	-77,6041666666666571928pct	ehrlich	schön	freundlich	treu	retten	helfen	eitel	schlecht	fanatisch	tot	rächen	hindern	spielen	schlau	loyal	lachen	fair	tolerant	strafen	schroff	lasch	leiden	faul	tyrannisch	0	0	0	0	0	0	0	0	0	0	0	0	0	0	0	0	0	0	0	0	0	0	0	0	0	0	0	0	0	0
2024-06-10	12:17:47	12:35:29	1061803	6.6.1	4_exp_EVA_AWA_CON	76	B	A	Rpleas_acq	Oppo	Lpleas	2pleas	conawa_CS1_US1_confidence	conawa1_nomask	8	7	0	0	300	300	0	0	26005	probably	1	-77,6041666666666571928pct	ehrlich	schön	freundlich	treu	retten	helfen	eitel	schlecht	fanatisch	tot	rächen	hindern	spielen	schlau	loyal	lachen	fair	tolerant	strafen	schroff	lasch	leiden	faul	tyrannisch	0	0	0	0	0	0	0	0	0	0	0	0	0	0	0	0	0	0	0	0	0	0	0	0	0	0	0	0	0	0
2024-06-10	12:17:47	12:35:42	1074250	6.6.1	4_exp_EVA_AWA_CON	76	B	A	Rpleas_acq	Oppo	Lpleas	2pleas	conawa_CS2_US5	conawa1_nomask	8	8	0	0	300	300	0	0	11827	tyrannisch	1	-77,6041666666666571928pct	ehrlich	schön	freundlich	treu	retten	helfen	eitel	schlecht	fanatisch	tot	rächen	hindern	spielen	schlau	loyal	lachen	fair	tolerant	strafen	schroff	lasch	leiden	faul	tyrannisch	0	0	0	0	0	0	0	0	0	0	0	0	0	0	0	0	0	0	0	0	0	0	0	0	0	0	0	0	0	0
2024-06-10	12:17:47	12:35:42	1074252	6.6.1	4_exp_EVA_AWA_CON	76	B	A	Rpleas_acq	Oppo	Lpleas	2pleas	conawa_CS2_US5_confidence	conawa1_nomask	8	8	0	0	300	300	0	0	11827	sure	1	-77,6041666666666571928pct	ehrlich	schön	freundlich	treu	retten	helfen	eitel	schlecht	fanatisch	tot	rächen	hindern	spielen	schlau	loyal	lachen	fair	tolerant	strafen	schroff	lasch	leiden	faul	tyrannisch	0	0	0	0	0	0	0	0	0	0	0	0	0	0	0	0	0	0	0	0	0	0	0	0	0	0	0	0	0	0
2024-06-10	12:17:47	12:35:59	1091060	6.6.1	4_exp_EVA_AWA_CON	76	B	A	Rpleas_acq	Oppo	Lpleas	2pleas	conawa_CS2_US2	conawa1_nomask	8	9	0	0	300	300	0	0	16196	schlecht	1	-77,6041666666666571928pct	ehrlich	schön	freundlich	treu	retten	helfen	eitel	schlecht	fanatisch	tot	rächen	hindern	spielen	schlau	loyal	lachen	fair	tolerant	strafen	schroff	lasch	leiden	faul	tyrannisch	0	0	0	0	0	0	0	0	0	0	0	0	0	0	0	0	0	0	0	0	0	0	0	0	0	0	0	0	0	0
2024-06-10	12:17:47	12:35:59	1091062	6.6.1	4_exp_EVA_AWA_CON	76	B	A	Rpleas_acq	Oppo	Lpleas	2pleas	conawa_CS2_US2_confidence	conawa1_nomask	8	9	0	0	300	300	0	0	16196	probably	1	-77,6041666666666571928pct	ehrlich	schön	freundlich	treu	retten	helfen	eitel	schlecht	fanatisch	tot	rächen	hindern	spielen	schlau	loyal	lachen	fair	tolerant	strafen	schroff	lasch	leiden	faul	tyrannisch	0	0	0	0	0	0	0	0	0	0	0	0	0	0	0	0	0	0	0	0	0	0	0	0	0	0	0	0	0	0
2024-06-10	12:17:47	12:36:06	1098305	6.6.1	4_exp_EVA_AWA_CON	76	B	A	Rpleas_acq	Oppo	Lpleas	2pleas	conawa_CS2_US3	conawa1_nomask	8	10	0	0	300	300	0	0	6624	fanatisch	1	-77,6041666666666571928pct	ehrlich	schön	freundlich	treu	retten	helfen	eitel	schlecht	fanatisch	tot	rächen	hindern	spielen	schlau	loyal	lachen	fair	tolerant	strafen	schroff	lasch	leiden	faul	tyrannisch	0	0	0	0	0	0	0	0	0	0	0	0	0	0	0	0	0	0	0	0	0	0	0	0	0	0	0	0	0	0
2024-06-10	12:17:47	12:36:06	1098307	6.6.1	4_exp_EVA_AWA_CON	76	B	A	Rpleas_acq	Oppo	Lpleas	2pleas	conawa_CS2_US3_confidence	conawa1_nomask	8	10	0	0	300	300	0	0	6624	sure	1	-77,6041666666666571928pct	ehrlich	schön	freundlich	treu	retten	helfen	eitel	schlecht	fanatisch	tot	rächen	hindern	spielen	schlau	loyal	lachen	fair	tolerant	strafen	schroff	lasch	leiden	faul	tyrannisch	0	0	0	0	0	0	0	0	0	0	0	0	0	0	0	0	0	0	0	0	0	0	0	0	0	0	0	0	0	0
2024-06-10	12:17:47	12:36:18	1110433	6.6.1	4_exp_EVA_AWA_CON	76	B	A	Rpleas_acq	Oppo	Lpleas	2pleas	conawa_CS1_US5	conawa1_nomask	8	11	0	0	300	300	0	0	11510	retten	1	-77,6041666666666571928pct	ehrlich	schön	freundlich	treu	retten	helfen	eitel	schlecht	fanatisch	tot	rächen	hindern	spielen	schlau	loyal	lachen	fair	tolerant	strafen	schroff	lasch	leiden	faul	tyrannisch	0	0	0	0	0	0	0	0	0	0	0	0	0	0	0	0	0	0	0	0	0	0	0	0	0	0	0	0	0	0
2024-06-10	12:17:47	12:36:18	1110434	6.6.1	4_exp_EVA_AWA_CON	76	B	A	Rpleas_acq	Oppo	Lpleas	2pleas	conawa_CS1_US5_confidence	conawa1_nomask	8	11	0	0	300	300	0	0	11510	probably	1	-77,6041666666666571928pct	ehrlich	schön	freundlich	treu	retten	helfen	eitel	schlecht	fanatisch	tot	rächen	hindern	spielen	schlau	loyal	lachen	fair	tolerant	strafen	schroff	lasch	leiden	faul	tyrannisch	0	0	0	0	0	0	0	0	0	0	0	0	0	0	0	0	0	0	0	0	0	0	0	0	0	0	0	0	0	0
2024-06-10	12:17:47	12:36:37	1129006	6.6.1	4_exp_EVA_AWA_CON	76	B	A	Rpleas_acq	Oppo	Lpleas	2pleas	conawa_CS1_US6	conawa1_nomask	8	12	0	0	300	300	0	0	17956	helfen	1	-77,6041666666666571928pct	ehrlich	schön	freundlich	treu	retten	helfen	eitel	schlecht	fanatisch	tot	rächen	hindern	spielen	schlau	loyal	lachen	fair	tolerant	strafen	schroff	lasch	leiden	faul	tyrannisch	0	0	0	0	0	0	0	0	0	0	0	0	0	0	0	0	0	0	0	0	0	0	0	0	0	0	0	0	0	0
2024-06-10	12:17:47	12:36:37	1129007	6.6.1	4_exp_EVA_AWA_CON	76	B	A	Rpleas_acq	Oppo	Lpleas	2pleas	conawa_CS1_US6_confidence	conawa1_nomask	8	12	0	0	300	300	0	0	17956	sure	1	-77,6041666666666571928pct	ehrlich	schön	freundlich	treu	retten	helfen	eitel	schlecht	fanatisch	tot	rächen	hindern	spielen	schlau	loyal	lachen	fair	tolerant	strafen	schroff	lasch	leiden	faul	tyrannisch	0	0	0	0	0	0	0	0	0	0	0	0	0	0	0	0	0	0	0	0	0	0	0	0	0	0	0	0	0	0
2024-06-10	12:17:47	12:38:33	1245277	6.6.1	4_exp_EVA_AWA_CON	76	B	A	Rpleas_acq	Oppo	Lpleas	2pleas	cond_US_pleas_123_nomask_CS2	condtest_nomask_1	11	1	400	0	300	300	0	0	479	46	1	-77,6041666666666571928pct	ehrlich	schön	freundlich	treu	retten	helfen	eitel	schlecht	fanatisch	tot	rächen	hindern	spielen	schlau	loyal	lachen	fair	tolerant	strafen	schroff	lasch	leiden	faul	tyrannisch	1	blank2r.bmp	0	1	+	0	1	blank2r.bmp	500	1	GKQX	500	1	blank2r.bmp	880	3	schön	880	1	!	1232	1	!	-1	0	0	0	0	0	0
2024-06-10	12:17:47	12:38:35	1247359	6.6.1	4_exp_EVA_AWA_CON	76	B	A	Rpleas_acq	Oppo	Lpleas	2pleas	cond_new_pleas_456_nomask_CS1	condtest_nomask_1	11	2	400	0	300	300	0	0	307	50	0	-77,6041666666666571928pct	ehrlich	schön	freundlich	treu	retten	helfen	eitel	schlecht	fanatisch	tot	rächen	hindern	spielen	schlau	loyal	lachen	fair	tolerant	strafen	schroff	lasch	leiden	faul	tyrannisch	1	blank2r.bmp	0	1	+	0	1	blank2r.bmp	500	1	BMVZ	500	1	blank2r.bmp	880	3	tolerant	880	1	!	-1	1	!	-1	0	0	0	0	0	0
2024-06-10	12:17:47	12:38:37	1249655	6.6.1	4_exp_EVA_AWA_CON	76	B	A	Rpleas_acq	Oppo	Lpleas	2pleas	cond_US_unple_123_nomask_CS2	condtest_nomask_1	11	3	400	0	300	300	0	0	522	46	0	-77,6041666666666571928pct	ehrlich	schön	freundlich	treu	retten	helfen	eitel	schlecht	fanatisch	tot	rächen	hindern	spielen	schlau	loyal	lachen	fair	tolerant	strafen	schroff	lasch	leiden	faul	tyrannisch	1	blank2r.bmp	0	1	+	0	1	blank2r.bmp	500	1	GKQX	500	1	blank2r.bmp	880	2	eitel	880	1	!	1232	1	!	-1	0	0	0	0	0	0
2024-06-10	12:17:47	12:38:39	1251679	6.6.1	4_exp_EVA_AWA_CON	76	B	A	Rpleas_acq	Oppo	Lpleas	2pleas	cond_new_unple_456_nomask_CS2	condtest_nomask_1	11	4	400	0	300	300	0	0	244	50	1	-77,6041666666666571928pct	ehrlich	schön	freundlich	treu	retten	helfen	eitel	schlecht	fanatisch	tot	rächen	hindern	spielen	schlau	loyal	lachen	fair	tolerant	strafen	schroff	lasch	leiden	faul	tyrannisch	1	blank2r.bmp	0	1	+	0	1	blank2r.bmp	500	1	GKQX	500	1	blank2r.bmp	880	2	leiden	880	1	!	-1	1	!	-1	0	0	0	0	0	0
2024-06-10	12:17:47	12:38:41	1253615	6.6.1	4_exp_EVA_AWA_CON	76	B	A	Rpleas_acq	Oppo	Lpleas	2pleas	cond_US_pleas_123_nomask_CS1	condtest_nomask_1	11	5	400	0	300	300	0	0	159	46	1	-77,6041666666666571928pct	ehrlich	schön	freundlich	treu	retten	helfen	eitel	schlecht	fanatisch	tot	rächen	hindern	spielen	schlau	loyal	lachen	fair	tolerant	strafen	schroff	lasch	leiden	faul	tyrannisch	1	blank2r.bmp	0	1	+	0	1	blank2r.bmp	500	1	BMVZ	500	1	blank2r.bmp	880	1	ehrlich	880	1	!	-1	1	!	-1	0	0	0	0	0	0
2024-06-10	12:17:47	12:38:43	1255463	6.6.1	4_exp_EVA_AWA_CON	76	B	A	Rpleas_acq	Oppo	Lpleas	2pleas	cond_new_unple_456_nomask_CS1	condtest_nomask_1	11	6	400	0	300	300	0	0	76	50	1	-77,6041666666666571928pct	ehrlich	schön	freundlich	treu	retten	helfen	eitel	schlecht	fanatisch	tot	rächen	hindern	spielen	schlau	loyal	lachen	fair	tolerant	strafen	schroff	lasch	leiden	faul	tyrannisch	1	blank2r.bmp	0	1	+	0	1	blank2r.bmp	500	1	BMVZ	500	1	blank2r.bmp	880	3	tyrannisch	880	1	!	-1	1	!	-1	0	0	0	0	0	0
2024-06-10	12:17:47	12:38:45	1257609	6.6.1	4_exp_EVA_AWA_CON	76	B	A	Rpleas_acq	Oppo	Lpleas	2pleas	cond_US_unple_123_nomask_CS1	condtest_nomask_1	11	7	400	1	300	300	0	0	369	46	0	-77,6041666666666571928pct	ehrlich	schön	freundlich	treu	retten	helfen	eitel	schlecht	fanatisch	tot	rächen	hindern	spielen	schlau	loyal	lachen	fair	tolerant	strafen	schroff	lasch	leiden	faul	tyrannisch	1	blank2r.bmp	0	1	+	0	1	blank2r.bmp	500	1	BMVZ	500	1	blank2r.bmp	880	3	fanatisch	880	1	!	1233	1	!	1269	0	0	0	0	0	0
2024-06-10	12:17:47	12:38:47	1259487	6.6.1	4_exp_EVA_AWA_CON	76	B	A	Rpleas_acq	Oppo	Lpleas	2pleas	cond_new_pleas_456_nomask_CS2	condtest_nomask_1	11	8	400	0	300	300	0	0	97	50	0	-77,6041666666666571928pct	ehrlich	schön	freundlich	treu	retten	helfen	eitel	schlecht	fanatisch	tot	rächen	hindern	spielen	schlau	loyal	lachen	fair	tolerant	strafen	schroff	lasch	leiden	faul	tyrannisch	1	blank2r.bmp	0	1	+	0	1	blank2r.bmp	500	1	GKQX	500	1	blank2r.bmp	880	3	fair	880	1	!	-1	1	!	-1	0	0	0	0	0	0
