date	time	currenttime	elapsedtime	build	currentexpt	subject	CS_AB	US_AB	LRpleas_acq	SameOppo	condition_Lpleas	condition_1pleas	trialcode	blockcode	blocknum	trialnum	windowcenter	inwindow	pretrialpause	posttrialpause	trialduration	trialtimeout	latency	response	correct	correctedscore	US_nomask_pleas1	US_nomask_pleas2	US_nomask_pleas3	US_nomask_pleas4	US_nomask_pleas5	US_nomask_pleas6	US_nomask_unple1	US_nomask_unple2	US_nomask_unple3	US_nomask_unple4	US_nomask_unple5	US_nomask_unple6	new_nomask_pleas1	new_nomask_pleas2	new_nomask_pleas3	new_nomask_pleas4	new_nomask_pleas5	new_nomask_pleas6	new_nomask_unple1	new_nomask_unple2	new_nomask_unple3	new_nomask_unple4	new_nomask_unple5	new_nomask_unple6	stimulusnumber1	stimulusitem1	stimulusonset1	stimulusnumber2	stimulusitem2	stimulusonset2	stimulusnumber3	stimulusitem3	stimulusonset3	stimulusnumber4	stimulusitem4	stimulusonset4	stimulusnumber5	stimulusitem5	stimulusonset5	stimulusnumber6	stimulusitem6	stimulusonset6	stimulusnumber7	stimulusitem7	stimulusonset7	stimulusnumber8	stimulusitem8	stimulusonset8	stimulusnumber9	stimulusitem9	stimulusonset9	stimulusnumber10	stimulusitem10	stimulusonset10
2024-05-08	15:01:23	15:02:52	88384	6.6.1	4_exp_EVA_AWA_CON	19	B	A	Rpleas_acq	Same	Rpleas	2pleas	acq_US_unple_nomask	acq1_nomask	1	1	0	0	300	300	0	0	1491	46	1	0	fair	helfen	schön	loyal	spielen	treu	faul	hindern	schlecht	lasch	strafen	tot	retten	ehrlich	tolerant	schlau	lachen	freundlich	rächen	eitel	tyrannisch	schroff	leiden	fanatisch	1	blank2r.bmp	0	1	+	0	1	blank2r.bmp	500	1	BMVZ	500	1	blank2r.bmp	880	6	tot	880	0	0	0	0	0	0	0	0	0	0	0	0
2024-05-08	15:01:23	15:02:54	90543	6.6.1	4_exp_EVA_AWA_CON	19	B	A	Rpleas_acq	Same	Rpleas	2pleas	acq_new_unple_nomask	acq1_nomask	1	2	0	0	300	300	0	0	679	46	1	0	fair	helfen	schön	loyal	spielen	treu	faul	hindern	schlecht	lasch	strafen	tot	retten	ehrlich	tolerant	schlau	lachen	freundlich	rächen	eitel	tyrannisch	schroff	leiden	fanatisch	1	blank2r.bmp	0	1	+	0	1	blank2r.bmp	500	4	B4r.bmp	500	1	blank2r.bmp	880	5	leiden	880	0	0	0	0	0	0	0	0	0	0	0	0
2024-05-08	15:01:23	15:02:56	92679	6.6.1	4_exp_EVA_AWA_CON	19	B	A	Rpleas_acq	Same	Rpleas	2pleas	acq_US_unple_nomask	acq1_nomask	1	3	0	0	300	300	0	0	654	46	1	0	fair	helfen	schön	loyal	spielen	treu	faul	hindern	schlecht	lasch	strafen	tot	retten	ehrlich	tolerant	schlau	lachen	freundlich	rächen	eitel	tyrannisch	schroff	leiden	fanatisch	1	blank2r.bmp	0	1	+	0	1	blank2r.bmp	500	1	BMVZ	500	1	blank2r.bmp	880	4	lasch	880	0	0	0	0	0	0	0	0	0	0	0	0
2024-05-08	15:01:23	15:02:59	94879	6.6.1	4_exp_EVA_AWA_CON	19	B	A	Rpleas_acq	Same	Rpleas	2pleas	acq_US_pleas_nomask	acq1_nomask	1	4	0	0	300	300	0	0	713	50	1	0	fair	helfen	schön	loyal	spielen	treu	faul	hindern	schlecht	lasch	strafen	tot	retten	ehrlich	tolerant	schlau	lachen	freundlich	rächen	eitel	tyrannisch	schroff	leiden	fanatisch	1	blank2r.bmp	0	1	+	0	1	blank2r.bmp	500	1	GKQX	500	1	blank2r.bmp	880	3	schön	880	0	0	0	0	0	0	0	0	0	0	0	0
2024-05-08	15:01:23	15:03:01	97047	6.6.1	4_exp_EVA_AWA_CON	19	B	A	Rpleas_acq	Same	Rpleas	2pleas	acq_new_pleas_nomask	acq1_nomask	1	5	0	0	300	300	0	0	679	50	1	0	fair	helfen	schön	loyal	spielen	treu	faul	hindern	schlecht	lasch	strafen	tot	retten	ehrlich	tolerant	schlau	lachen	freundlich	rächen	eitel	tyrannisch	schroff	leiden	fanatisch	1	blank2r.bmp	0	1	+	0	1	blank2r.bmp	500	6	C2r.bmp	500	1	blank2r.bmp	880	1	retten	880	0	0	0	0	0	0	0	0	0	0	0	0
2024-05-08	15:01:23	15:03:03	99383	6.6.1	4_exp_EVA_AWA_CON	19	B	A	Rpleas_acq	Same	Rpleas	2pleas	acq_new_unple_nomask	acq1_nomask	1	6	0	0	300	300	0	0	854	46	1	0	fair	helfen	schön	loyal	spielen	treu	faul	hindern	schlecht	lasch	strafen	tot	retten	ehrlich	tolerant	schlau	lachen	freundlich	rächen	eitel	tyrannisch	schroff	leiden	fanatisch	1	blank2r.bmp	0	1	+	0	1	blank2r.bmp	500	2	B2r.bmp	500	1	blank2r.bmp	880	3	tyrannisch	880	0	0	0	0	0	0	0	0	0	0	0	0
2024-05-08	15:01:23	15:03:05	101535	6.6.1	4_exp_EVA_AWA_CON	19	B	A	Rpleas_acq	Same	Rpleas	2pleas	acq_new_pleas_nomask	acq1_nomask	1	7	0	0	300	300	0	0	664	50	1	0	fair	helfen	schön	loyal	spielen	treu	faul	hindern	schlecht	lasch	strafen	tot	retten	ehrlich	tolerant	schlau	lachen	freundlich	rächen	eitel	tyrannisch	schroff	leiden	fanatisch	1	blank2r.bmp	0	1	+	0	1	blank2r.bmp	500	1	B1r.bmp	500	1	blank2r.bmp	880	6	freundlich	880	0	0	0	0	0	0	0	0	0	0	0	0
2024-05-08	15:01:23	15:03:07	103664	6.6.1	4_exp_EVA_AWA_CON	19	B	A	Rpleas_acq	Same	Rpleas	2pleas	acq_new_pleas_nomask	acq1_nomask	1	8	0	0	300	300	0	0	641	50	1	0	fair	helfen	schön	loyal	spielen	treu	faul	hindern	schlecht	lasch	strafen	tot	retten	ehrlich	tolerant	schlau	lachen	freundlich	rächen	eitel	tyrannisch	schroff	leiden	fanatisch	1	blank2r.bmp	0	1	+	0	1	blank2r.bmp	500	8	C4r.bmp	500	1	blank2r.bmp	880	3	tolerant	880	0	0	0	0	0	0	0	0	0	0	0	0
2024-05-08	15:01:23	15:03:10	105831	6.6.1	4_exp_EVA_AWA_CON	19	B	A	Rpleas_acq	Same	Rpleas	2pleas	acq_US_pleas_nomask	acq1_nomask	1	9	0	0	300	300	0	0	688	50	1	0	fair	helfen	schön	loyal	spielen	treu	faul	hindern	schlecht	lasch	strafen	tot	retten	ehrlich	tolerant	schlau	lachen	freundlich	rächen	eitel	tyrannisch	schroff	leiden	fanatisch	1	blank2r.bmp	0	1	+	0	1	blank2r.bmp	500	1	GKQX	500	1	blank2r.bmp	880	2	helfen	880	0	0	0	0	0	0	0	0	0	0	0	0
2024-05-08	15:01:23	15:03:12	107903	6.6.1	4_exp_EVA_AWA_CON	19	B	A	Rpleas_acq	Same	Rpleas	2pleas	acq_new_unple_nomask	acq1_nomask	1	10	0	0	300	300	0	0	588	46	1	0	fair	helfen	schön	loyal	spielen	treu	faul	hindern	schlecht	lasch	strafen	tot	retten	ehrlich	tolerant	schlau	lachen	freundlich	rächen	eitel	tyrannisch	schroff	leiden	fanatisch	1	blank2r.bmp	0	1	+	0	1	blank2r.bmp	500	3	B3r.bmp	500	1	blank2r.bmp	880	1	rächen	880	0	0	0	0	0	0	0	0	0	0	0	0
2024-05-08	15:01:23	15:03:14	110063	6.6.1	4_exp_EVA_AWA_CON	19	B	A	Rpleas_acq	Same	Rpleas	2pleas	acq_US_pleas_nomask	acq1_nomask	1	11	0	0	300	300	0	0	677	50	1	0	fair	helfen	schön	loyal	spielen	treu	faul	hindern	schlecht	lasch	strafen	tot	retten	ehrlich	tolerant	schlau	lachen	freundlich	rächen	eitel	tyrannisch	schroff	leiden	fanatisch	1	blank2r.bmp	0	1	+	0	1	blank2r.bmp	500	1	GKQX	500	1	blank2r.bmp	880	1	fair	880	0	0	0	0	0	0	0	0	0	0	0	0
2024-05-08	15:01:23	15:03:16	112111	6.6.1	4_exp_EVA_AWA_CON	19	B	A	Rpleas_acq	Same	Rpleas	2pleas	acq_US_unple_nomask	acq1_nomask	1	12	0	0	300	300	0	0	563	46	1	0	fair	helfen	schön	loyal	spielen	treu	faul	hindern	schlecht	lasch	strafen	tot	retten	ehrlich	tolerant	schlau	lachen	freundlich	rächen	eitel	tyrannisch	schroff	leiden	fanatisch	1	blank2r.bmp	0	1	+	0	1	blank2r.bmp	500	1	BMVZ	500	1	blank2r.bmp	880	3	schlecht	880	0	0	0	0	0	0	0	0	0	0	0	0
2024-05-08	15:01:23	15:03:18	114623	6.6.1	4_exp_EVA_AWA_CON	19	B	A	Rpleas_acq	Same	Rpleas	2pleas	acq_new_pleas_nomask	acq1_nomask	1	13	0	0	300	300	0	0	1024	50	1	0	fair	helfen	schön	loyal	spielen	treu	faul	hindern	schlecht	lasch	strafen	tot	retten	ehrlich	tolerant	schlau	lachen	freundlich	rächen	eitel	tyrannisch	schroff	leiden	fanatisch	1	blank2r.bmp	0	1	+	0	1	blank2r.bmp	500	7	C3r.bmp	500	1	blank2r.bmp	880	4	schlau	880	0	0	0	0	0	0	0	0	0	0	0	0
2024-05-08	15:01:23	15:03:21	117007	6.6.1	4_exp_EVA_AWA_CON	19	B	A	Rpleas_acq	Same	Rpleas	2pleas	acq_new_unple_nomask	acq1_nomask	1	14	0	0	300	300	0	0	896	46	1	0	fair	helfen	schön	loyal	spielen	treu	faul	hindern	schlecht	lasch	strafen	tot	retten	ehrlich	tolerant	schlau	lachen	freundlich	rächen	eitel	tyrannisch	schroff	leiden	fanatisch	1	blank2r.bmp	0	1	+	0	1	blank2r.bmp	500	5	C1r.bmp	500	1	blank2r.bmp	880	2	eitel	880	0	0	0	0	0	0	0	0	0	0	0	0
2024-05-08	15:01:23	15:03:23	119007	6.6.1	4_exp_EVA_AWA_CON	19	B	A	Rpleas_acq	Same	Rpleas	2pleas	acq_US_pleas_nomask	acq1_nomask	1	15	0	0	300	300	0	0	515	50	1	0	fair	helfen	schön	loyal	spielen	treu	faul	hindern	schlecht	lasch	strafen	tot	retten	ehrlich	tolerant	schlau	lachen	freundlich	rächen	eitel	tyrannisch	schroff	leiden	fanatisch	1	blank2r.bmp	0	1	+	0	1	blank2r.bmp	500	1	GKQX	500	1	blank2r.bmp	880	5	spielen	880	0	0	0	0	0	0	0	0	0	0	0	0
2024-05-08	15:01:23	15:03:25	121024	6.6.1	4_exp_EVA_AWA_CON	19	B	A	Rpleas_acq	Same	Rpleas	2pleas	acq_new_unple_nomask	acq1_nomask	1	16	0	0	300	300	0	0	530	46	1	0	fair	helfen	schön	loyal	spielen	treu	faul	hindern	schlecht	lasch	strafen	tot	retten	ehrlich	tolerant	schlau	lachen	freundlich	rächen	eitel	tyrannisch	schroff	leiden	fanatisch	1	blank2r.bmp	0	1	+	0	1	blank2r.bmp	500	2	B2r.bmp	500	1	blank2r.bmp	880	4	schroff	880	0	0	0	0	0	0	0	0	0	0	0	0
2024-05-08	15:01:23	15:03:27	123176	6.6.1	4_exp_EVA_AWA_CON	19	B	A	Rpleas_acq	Same	Rpleas	2pleas	acq_new_pleas_nomask	acq1_nomask	1	17	0	0	300	300	0	0	670	50	1	0	fair	helfen	schön	loyal	spielen	treu	faul	hindern	schlecht	lasch	strafen	tot	retten	ehrlich	tolerant	schlau	lachen	freundlich	rächen	eitel	tyrannisch	schroff	leiden	fanatisch	1	blank2r.bmp	0	1	+	0	1	blank2r.bmp	500	1	B1r.bmp	500	1	blank2r.bmp	880	5	lachen	880	0	0	0	0	0	0	0	0	0	0	0	0
2024-05-08	15:01:23	15:03:29	125473	6.6.1	4_exp_EVA_AWA_CON	19	B	A	Rpleas_acq	Same	Rpleas	2pleas	acq_new_pleas_nomask	acq1_nomask	1	18	0	0	300	300	0	0	615	46	0	0	fair	helfen	schön	loyal	spielen	treu	faul	hindern	schlecht	lasch	strafen	tot	retten	ehrlich	tolerant	schlau	lachen	freundlich	rächen	eitel	tyrannisch	schroff	leiden	fanatisch	1	blank2r.bmp	0	1	+	0	1	blank2r.bmp	500	8	C4r.bmp	500	1	blank2r.bmp	880	2	ehrlich	880	1	FEHLER	1517	0	0	0	0	0	0	0	0	0
2024-05-08	15:01:23	15:03:31	127551	6.6.1	4_exp_EVA_AWA_CON	19	B	A	Rpleas_acq	Same	Rpleas	2pleas	acq_new_unple_nomask	acq1_nomask	1	19	0	0	300	300	0	0	794	46	1	0	fair	helfen	schön	loyal	spielen	treu	faul	hindern	schlecht	lasch	strafen	tot	retten	ehrlich	tolerant	schlau	lachen	freundlich	rächen	eitel	tyrannisch	schroff	leiden	fanatisch	1	blank2r.bmp	0	1	+	0	1	blank2r.bmp	500	3	B3r.bmp	500	1	blank2r.bmp	880	6	fanatisch	880	0	0	0	0	0	0	0	0	0	0	0	0
2024-05-08	15:01:23	15:03:33	129680	6.6.1	4_exp_EVA_AWA_CON	19	B	A	Rpleas_acq	Same	Rpleas	2pleas	acq_US_pleas_nomask	acq1_nomask	1	20	0	0	300	300	0	0	640	50	1	0	fair	helfen	schön	loyal	spielen	treu	faul	hindern	schlecht	lasch	strafen	tot	retten	ehrlich	tolerant	schlau	lachen	freundlich	rächen	eitel	tyrannisch	schroff	leiden	fanatisch	1	blank2r.bmp	0	1	+	0	1	blank2r.bmp	500	1	GKQX	500	1	blank2r.bmp	880	4	loyal	880	0	0	0	0	0	0	0	0	0	0	0	0
2024-05-08	15:01:23	15:03:35	131727	6.6.1	4_exp_EVA_AWA_CON	19	B	A	Rpleas_acq	Same	Rpleas	2pleas	acq_US_unple_nomask	acq1_nomask	1	21	0	0	300	300	0	0	567	46	1	0	fair	helfen	schön	loyal	spielen	treu	faul	hindern	schlecht	lasch	strafen	tot	retten	ehrlich	tolerant	schlau	lachen	freundlich	rächen	eitel	tyrannisch	schroff	leiden	fanatisch	1	blank2r.bmp	0	1	+	0	1	blank2r.bmp	500	1	BMVZ	500	1	blank2r.bmp	880	1	faul	880	0	0	0	0	0	0	0	0	0	0	0	0
2024-05-08	15:01:23	15:03:38	133912	6.6.1	4_exp_EVA_AWA_CON	19	B	A	Rpleas_acq	Same	Rpleas	2pleas	acq_US_pleas_nomask	acq1_nomask	1	22	0	0	300	300	0	0	699	50	1	0	fair	helfen	schön	loyal	spielen	treu	faul	hindern	schlecht	lasch	strafen	tot	retten	ehrlich	tolerant	schlau	lachen	freundlich	rächen	eitel	tyrannisch	schroff	leiden	fanatisch	1	blank2r.bmp	0	1	+	0	1	blank2r.bmp	500	1	GKQX	500	1	blank2r.bmp	880	6	treu	880	0	0	0	0	0	0	0	0	0	0	0	0
2024-05-08	15:01:23	15:03:40	136455	6.6.1	4_exp_EVA_AWA_CON	19	B	A	Rpleas_acq	Same	Rpleas	2pleas	acq_US_unple_nomask	acq1_nomask	1	23	0	0	300	300	0	0	1062	46	1	0	fair	helfen	schön	loyal	spielen	treu	faul	hindern	schlecht	lasch	strafen	tot	retten	ehrlich	tolerant	schlau	lachen	freundlich	rächen	eitel	tyrannisch	schroff	leiden	fanatisch	1	blank2r.bmp	0	1	+	0	1	blank2r.bmp	500	1	BMVZ	500	1	blank2r.bmp	880	5	strafen	880	0	0	0	0	0	0	0	0	0	0	0	0
2024-05-08	15:01:23	15:03:43	138799	6.6.1	4_exp_EVA_AWA_CON	19	B	A	Rpleas_acq	Same	Rpleas	2pleas	acq_US_unple_nomask	acq1_nomask	1	24	0	0	300	300	0	0	854	46	1	0	fair	helfen	schön	loyal	spielen	treu	faul	hindern	schlecht	lasch	strafen	tot	retten	ehrlich	tolerant	schlau	lachen	freundlich	rächen	eitel	tyrannisch	schroff	leiden	fanatisch	1	blank2r.bmp	0	1	+	0	1	blank2r.bmp	500	1	BMVZ	500	1	blank2r.bmp	880	2	hindern	880	0	0	0	0	0	0	0	0	0	0	0	0
2024-05-08	15:01:23	15:03:45	140871	6.6.1	4_exp_EVA_AWA_CON	19	B	A	Rpleas_acq	Same	Rpleas	2pleas	acq_US_pleas_nomask	acq1_nomask	1	25	0	0	300	300	0	0	585	50	1	0	fair	helfen	schön	loyal	spielen	treu	faul	hindern	schlecht	lasch	strafen	tot	retten	ehrlich	tolerant	schlau	lachen	freundlich	rächen	eitel	tyrannisch	schroff	leiden	fanatisch	1	blank2r.bmp	0	1	+	0	1	blank2r.bmp	500	1	GKQX	500	1	blank2r.bmp	880	6	treu	880	0	0	0	0	0	0	0	0	0	0	0	0
2024-05-08	15:01:23	15:03:47	142944	6.6.1	4_exp_EVA_AWA_CON	19	B	A	Rpleas_acq	Same	Rpleas	2pleas	acq_US_pleas_nomask	acq1_nomask	1	26	0	0	300	300	0	0	586	50	1	0	fair	helfen	schön	loyal	spielen	treu	faul	hindern	schlecht	lasch	strafen	tot	retten	ehrlich	tolerant	schlau	lachen	freundlich	rächen	eitel	tyrannisch	schroff	leiden	fanatisch	1	blank2r.bmp	0	1	+	0	1	blank2r.bmp	500	1	GKQX	500	1	blank2r.bmp	880	2	helfen	880	0	0	0	0	0	0	0	0	0	0	0	0
2024-05-08	15:01:23	15:03:49	144951	6.6.1	4_exp_EVA_AWA_CON	19	B	A	Rpleas_acq	Same	Rpleas	2pleas	acq_US_pleas_nomask	acq1_nomask	1	27	0	0	300	300	0	0	522	50	1	0	fair	helfen	schön	loyal	spielen	treu	faul	hindern	schlecht	lasch	strafen	tot	retten	ehrlich	tolerant	schlau	lachen	freundlich	rächen	eitel	tyrannisch	schroff	leiden	fanatisch	1	blank2r.bmp	0	1	+	0	1	blank2r.bmp	500	1	GKQX	500	1	blank2r.bmp	880	1	fair	880	0	0	0	0	0	0	0	0	0	0	0	0
2024-05-08	15:01:23	15:03:51	147343	6.6.1	4_exp_EVA_AWA_CON	19	B	A	Rpleas_acq	Same	Rpleas	2pleas	acq_new_unple_nomask	acq1_nomask	1	28	0	0	300	300	0	0	903	46	1	0	fair	helfen	schön	loyal	spielen	treu	faul	hindern	schlecht	lasch	strafen	tot	retten	ehrlich	tolerant	schlau	lachen	freundlich	rächen	eitel	tyrannisch	schroff	leiden	fanatisch	1	blank2r.bmp	0	1	+	0	1	blank2r.bmp	500	7	C3r.bmp	500	1	blank2r.bmp	880	5	leiden	880	0	0	0	0	0	0	0	0	0	0	0	0
2024-05-08	15:01:23	15:03:53	149432	6.6.1	4_exp_EVA_AWA_CON	19	B	A	Rpleas_acq	Same	Rpleas	2pleas	acq_new_pleas_nomask	acq1_nomask	1	29	0	0	300	300	0	0	599	50	1	0	fair	helfen	schön	loyal	spielen	treu	faul	hindern	schlecht	lasch	strafen	tot	retten	ehrlich	tolerant	schlau	lachen	freundlich	rächen	eitel	tyrannisch	schroff	leiden	fanatisch	1	blank2r.bmp	0	1	+	0	1	blank2r.bmp	500	6	C2r.bmp	500	1	blank2r.bmp	880	2	ehrlich	880	0	0	0	0	0	0	0	0	0	0	0	0
2024-05-08	15:01:23	15:03:55	151407	6.6.1	4_exp_EVA_AWA_CON	19	B	A	Rpleas_acq	Same	Rpleas	2pleas	acq_US_unple_nomask	acq1_nomask	1	30	0	0	300	300	0	0	494	46	1	0	fair	helfen	schön	loyal	spielen	treu	faul	hindern	schlecht	lasch	strafen	tot	retten	ehrlich	tolerant	schlau	lachen	freundlich	rächen	eitel	tyrannisch	schroff	leiden	fanatisch	1	blank2r.bmp	0	1	+	0	1	blank2r.bmp	500	1	BMVZ	500	1	blank2r.bmp	880	4	lasch	880	0	0	0	0	0	0	0	0	0	0	0	0
2024-05-08	15:01:23	15:03:57	153536	6.6.1	4_exp_EVA_AWA_CON	19	B	A	Rpleas_acq	Same	Rpleas	2pleas	acq_new_unple_nomask	acq1_nomask	1	31	0	0	300	300	0	0	641	46	1	0	fair	helfen	schön	loyal	spielen	treu	faul	hindern	schlecht	lasch	strafen	tot	retten	ehrlich	tolerant	schlau	lachen	freundlich	rächen	eitel	tyrannisch	schroff	leiden	fanatisch	1	blank2r.bmp	0	1	+	0	1	blank2r.bmp	500	5	C1r.bmp	500	1	blank2r.bmp	880	1	rächen	880	0	0	0	0	0	0	0	0	0	0	0	0
2024-05-08	15:01:23	15:04:00	155791	6.6.1	4_exp_EVA_AWA_CON	19	B	A	Rpleas_acq	Same	Rpleas	2pleas	acq_new_pleas_nomask	acq1_nomask	1	32	0	0	300	300	0	0	775	50	1	0	fair	helfen	schön	loyal	spielen	treu	faul	hindern	schlecht	lasch	strafen	tot	retten	ehrlich	tolerant	schlau	lachen	freundlich	rächen	eitel	tyrannisch	schroff	leiden	fanatisch	1	blank2r.bmp	0	1	+	0	1	blank2r.bmp	500	4	B4r.bmp	500	1	blank2r.bmp	880	3	tolerant	880	0	0	0	0	0	0	0	0	0	0	0	0
2024-05-08	15:01:23	15:04:02	157848	6.6.1	4_exp_EVA_AWA_CON	19	B	A	Rpleas_acq	Same	Rpleas	2pleas	acq_US_unple_nomask	acq1_nomask	1	33	0	0	300	300	0	0	570	46	1	0	fair	helfen	schön	loyal	spielen	treu	faul	hindern	schlecht	lasch	strafen	tot	retten	ehrlich	tolerant	schlau	lachen	freundlich	rächen	eitel	tyrannisch	schroff	leiden	fanatisch	1	blank2r.bmp	0	1	+	0	1	blank2r.bmp	500	1	BMVZ	500	1	blank2r.bmp	880	1	faul	880	0	0	0	0	0	0	0	0	0	0	0	0
2024-05-08	15:01:23	15:04:04	159895	6.6.1	4_exp_EVA_AWA_CON	19	B	A	Rpleas_acq	Same	Rpleas	2pleas	acq_new_pleas_nomask	acq1_nomask	1	34	0	0	300	300	0	0	567	50	1	0	fair	helfen	schön	loyal	spielen	treu	faul	hindern	schlecht	lasch	strafen	tot	retten	ehrlich	tolerant	schlau	lachen	freundlich	rächen	eitel	tyrannisch	schroff	leiden	fanatisch	1	blank2r.bmp	0	1	+	0	1	blank2r.bmp	500	4	B4r.bmp	500	1	blank2r.bmp	880	5	lachen	880	0	0	0	0	0	0	0	0	0	0	0	0
2024-05-08	15:01:23	15:04:06	161975	6.6.1	4_exp_EVA_AWA_CON	19	B	A	Rpleas_acq	Same	Rpleas	2pleas	acq_US_unple_nomask	acq1_nomask	1	35	0	0	300	300	0	0	595	46	1	0	fair	helfen	schön	loyal	spielen	treu	faul	hindern	schlecht	lasch	strafen	tot	retten	ehrlich	tolerant	schlau	lachen	freundlich	rächen	eitel	tyrannisch	schroff	leiden	fanatisch	1	blank2r.bmp	0	1	+	0	1	blank2r.bmp	500	1	BMVZ	500	1	blank2r.bmp	880	2	hindern	880	0	0	0	0	0	0	0	0	0	0	0	0
2024-05-08	15:01:23	15:04:08	164287	6.6.1	4_exp_EVA_AWA_CON	19	B	A	Rpleas_acq	Same	Rpleas	2pleas	acq_new_unple_nomask	acq1_nomask	1	36	0	0	300	300	0	0	826	46	1	0	fair	helfen	schön	loyal	spielen	treu	faul	hindern	schlecht	lasch	strafen	tot	retten	ehrlich	tolerant	schlau	lachen	freundlich	rächen	eitel	tyrannisch	schroff	leiden	fanatisch	1	blank2r.bmp	0	1	+	0	1	blank2r.bmp	500	6	C2r.bmp	500	1	blank2r.bmp	880	6	fanatisch	880	0	0	0	0	0	0	0	0	0	0	0	0
2024-05-08	15:01:23	15:04:40	196193	6.6.1	4_exp_EVA_AWA_CON	19	B	A	Rpleas_acq	Same	Rpleas	2pleas	acq_new_unple_nomask	acq2_nomask	2	1	480	0	300	300	0	0	1022	46	1	0	fair	helfen	schön	loyal	spielen	treu	faul	hindern	schlecht	lasch	strafen	tot	retten	ehrlich	tolerant	schlau	lachen	freundlich	rächen	eitel	tyrannisch	schroff	leiden	fanatisch	1	blank2r.bmp	0	1	+	0	1	blank2r.bmp	500	3	B3r.bmp	500	1	blank2r.bmp	880	2	eitel	880	1	!	1313	1	!	-1	0	0	0	0	0	0
2024-05-08	15:01:23	15:04:42	198387	6.6.1	4_exp_EVA_AWA_CON	19	B	A	Rpleas_acq	Same	Rpleas	2pleas	acq_new_pleas_nomask	acq2_nomask	2	2	480	1	300	300	0	0	413	50	1	0	fair	helfen	schön	loyal	spielen	treu	faul	hindern	schlecht	lasch	strafen	tot	retten	ehrlich	tolerant	schlau	lachen	freundlich	rächen	eitel	tyrannisch	schroff	leiden	fanatisch	1	blank2r.bmp	0	1	+	0	1	blank2r.bmp	500	7	C3r.bmp	500	1	blank2r.bmp	880	1	retten	880	1	!	1312	1	!	1313	0	0	0	0	0	0
2024-05-08	15:01:23	15:04:45	200777	6.6.1	4_exp_EVA_AWA_CON	19	B	A	Rpleas_acq	Same	Rpleas	2pleas	acq_US_unple_nomask	acq2_nomask	2	3	480	0	300	300	0	0	613	46	1	0	fair	helfen	schön	loyal	spielen	treu	faul	hindern	schlecht	lasch	strafen	tot	retten	ehrlich	tolerant	schlau	lachen	freundlich	rächen	eitel	tyrannisch	schroff	leiden	fanatisch	1	blank2r.bmp	0	1	+	0	1	blank2r.bmp	500	1	BMVZ	500	1	blank2r.bmp	880	6	tot	880	1	!	1313	1	!	-1	0	0	0	0	0	0
2024-05-08	15:01:23	15:04:47	203091	6.6.1	4_exp_EVA_AWA_CON	19	B	A	Rpleas_acq	Same	Rpleas	2pleas	acq_new_pleas_nomask	acq2_nomask	2	4	480	1	300	300	0	0	533	50	1	0	fair	helfen	schön	loyal	spielen	treu	faul	hindern	schlecht	lasch	strafen	tot	retten	ehrlich	tolerant	schlau	lachen	freundlich	rächen	eitel	tyrannisch	schroff	leiden	fanatisch	1	blank2r.bmp	0	1	+	0	1	blank2r.bmp	500	1	B1r.bmp	500	1	blank2r.bmp	880	4	schlau	880	1	!	1312	1	!	1434	0	0	0	0	0	0
2024-05-08	15:01:23	15:04:49	205553	6.6.1	4_exp_EVA_AWA_CON	19	B	A	Rpleas_acq	Same	Rpleas	2pleas	acq_new_pleas_nomask	acq2_nomask	2	5	480	0	300	300	0	0	686	50	1	0	fair	helfen	schön	loyal	spielen	treu	faul	hindern	schlecht	lasch	strafen	tot	retten	ehrlich	tolerant	schlau	lachen	freundlich	rächen	eitel	tyrannisch	schroff	leiden	fanatisch	1	blank2r.bmp	0	1	+	0	1	blank2r.bmp	500	5	C1r.bmp	500	1	blank2r.bmp	880	6	freundlich	880	1	!	1312	1	!	-1	0	0	0	0	0	0
2024-05-08	15:01:23	15:04:52	207852	6.6.1	4_exp_EVA_AWA_CON	19	B	A	Rpleas_acq	Same	Rpleas	2pleas	acq_new_unple_nomask	acq2_nomask	2	6	480	1	300	300	0	0	520	46	1	0	fair	helfen	schön	loyal	spielen	treu	faul	hindern	schlecht	lasch	strafen	tot	retten	ehrlich	tolerant	schlau	lachen	freundlich	rächen	eitel	tyrannisch	schroff	leiden	fanatisch	1	blank2r.bmp	0	1	+	0	1	blank2r.bmp	500	2	B2r.bmp	500	1	blank2r.bmp	880	3	tyrannisch	880	1	!	1312	1	!	1422	0	0	0	0	0	0
2024-05-08	15:01:23	15:04:54	210115	6.6.1	4_exp_EVA_AWA_CON	19	B	A	Rpleas_acq	Same	Rpleas	2pleas	acq_US_pleas_nomask	acq2_nomask	2	7	480	1	300	300	0	0	483	50	1	0	fair	helfen	schön	loyal	spielen	treu	faul	hindern	schlecht	lasch	strafen	tot	retten	ehrlich	tolerant	schlau	lachen	freundlich	rächen	eitel	tyrannisch	schroff	leiden	fanatisch	1	blank2r.bmp	0	1	+	0	1	blank2r.bmp	500	1	GKQX	500	1	blank2r.bmp	880	5	spielen	880	1	!	1312	1	!	1384	0	0	0	0	0	0
2024-05-08	15:01:23	15:04:56	212569	6.6.1	4_exp_EVA_AWA_CON	19	B	A	Rpleas_acq	Same	Rpleas	2pleas	acq_US_pleas_nomask	acq2_nomask	2	8	480	0	300	300	0	0	677	50	1	0	fair	helfen	schön	loyal	spielen	treu	faul	hindern	schlecht	lasch	strafen	tot	retten	ehrlich	tolerant	schlau	lachen	freundlich	rächen	eitel	tyrannisch	schroff	leiden	fanatisch	1	blank2r.bmp	0	1	+	0	1	blank2r.bmp	500	1	GKQX	500	1	blank2r.bmp	880	3	schön	880	1	!	1312	1	!	-1	0	0	0	0	0	0
2024-05-08	15:01:23	15:04:59	214819	6.6.1	4_exp_EVA_AWA_CON	19	B	A	Rpleas_acq	Same	Rpleas	2pleas	acq_US_unple_nomask	acq2_nomask	2	9	480	1	300	300	0	0	474	46	1	0	fair	helfen	schön	loyal	spielen	treu	faul	hindern	schlecht	lasch	strafen	tot	retten	ehrlich	tolerant	schlau	lachen	freundlich	rächen	eitel	tyrannisch	schroff	leiden	fanatisch	1	blank2r.bmp	0	1	+	0	1	blank2r.bmp	500	1	BMVZ	500	1	blank2r.bmp	880	5	strafen	880	1	!	1312	1	!	1375	0	0	0	0	0	0
2024-05-08	15:01:23	15:05:01	217217	6.6.1	4_exp_EVA_AWA_CON	19	B	A	Rpleas_acq	Same	Rpleas	2pleas	acq_new_unple_nomask	acq2_nomask	2	10	480	0	300	300	0	0	622	46	1	0	fair	helfen	schön	loyal	spielen	treu	faul	hindern	schlecht	lasch	strafen	tot	retten	ehrlich	tolerant	schlau	lachen	freundlich	rächen	eitel	tyrannisch	schroff	leiden	fanatisch	1	blank2r.bmp	0	1	+	0	1	blank2r.bmp	500	8	C4r.bmp	500	1	blank2r.bmp	880	4	schroff	880	1	!	1313	1	!	-1	0	0	0	0	0	0
2024-05-08	15:01:23	15:05:03	219561	6.6.1	4_exp_EVA_AWA_CON	19	B	A	Rpleas_acq	Same	Rpleas	2pleas	acq_US_pleas_nomask	acq2_nomask	2	11	480	0	300	300	0	0	565	50	1	0	fair	helfen	schön	loyal	spielen	treu	faul	hindern	schlecht	lasch	strafen	tot	retten	ehrlich	tolerant	schlau	lachen	freundlich	rächen	eitel	tyrannisch	schroff	leiden	fanatisch	1	blank2r.bmp	0	1	+	0	1	blank2r.bmp	500	1	GKQX	500	1	blank2r.bmp	880	4	loyal	880	1	!	1313	1	!	-1	0	0	0	0	0	0
2024-05-08	15:01:23	15:05:06	221937	6.6.1	4_exp_EVA_AWA_CON	19	B	A	Rpleas_acq	Same	Rpleas	2pleas	acq_US_unple_nomask	acq2_nomask	2	12	480	0	300	300	0	0	599	46	1	0	fair	helfen	schön	loyal	spielen	treu	faul	hindern	schlecht	lasch	strafen	tot	retten	ehrlich	tolerant	schlau	lachen	freundlich	rächen	eitel	tyrannisch	schroff	leiden	fanatisch	1	blank2r.bmp	0	1	+	0	1	blank2r.bmp	500	1	BMVZ	500	1	blank2r.bmp	880	3	schlecht	880	1	!	1313	1	!	-1	0	0	0	0	0	0
2024-05-08	15:01:23	15:05:08	224050	6.6.1	4_exp_EVA_AWA_CON	19	B	A	Rpleas_acq	Same	Rpleas	2pleas	acq_US_pleas_nomask	acq2_nomask	2	13	480	0	300	300	0	0	340	50	1	0	fair	helfen	schön	loyal	spielen	treu	faul	hindern	schlecht	lasch	strafen	tot	retten	ehrlich	tolerant	schlau	lachen	freundlich	rächen	eitel	tyrannisch	schroff	leiden	fanatisch	1	blank2r.bmp	0	1	+	0	1	blank2r.bmp	500	1	GKQX	500	1	blank2r.bmp	880	4	loyal	880	1	!	-1	1	!	-1	0	0	0	0	0	0
2024-05-08	15:01:23	15:05:10	226371	6.6.1	4_exp_EVA_AWA_CON	19	B	A	Rpleas_acq	Same	Rpleas	2pleas	acq_US_unple_nomask	acq2_nomask	2	14	480	1	300	300	0	0	538	46	1	0	fair	helfen	schön	loyal	spielen	treu	faul	hindern	schlecht	lasch	strafen	tot	retten	ehrlich	tolerant	schlau	lachen	freundlich	rächen	eitel	tyrannisch	schroff	leiden	fanatisch	1	blank2r.bmp	0	1	+	0	1	blank2r.bmp	500	1	BMVZ	500	1	blank2r.bmp	880	6	tot	880	1	!	1312	1	!	1439	0	0	0	0	0	0
2024-05-08	15:01:23	15:05:12	228684	6.6.1	4_exp_EVA_AWA_CON	19	B	A	Rpleas_acq	Same	Rpleas	2pleas	acq_US_unple_nomask	acq2_nomask	2	15	480	1	300	300	0	0	529	46	1	0	fair	helfen	schön	loyal	spielen	treu	faul	hindern	schlecht	lasch	strafen	tot	retten	ehrlich	tolerant	schlau	lachen	freundlich	rächen	eitel	tyrannisch	schroff	leiden	fanatisch	1	blank2r.bmp	0	1	+	0	1	blank2r.bmp	500	1	BMVZ	500	1	blank2r.bmp	880	2	hindern	880	1	!	1312	1	!	1430	0	0	0	0	0	0
2024-05-08	15:01:23	15:05:15	230939	6.6.1	4_exp_EVA_AWA_CON	19	B	A	Rpleas_acq	Same	Rpleas	2pleas	acq_US_unple_nomask	acq2_nomask	2	16	480	1	300	300	0	0	473	46	1	0	fair	helfen	schön	loyal	spielen	treu	faul	hindern	schlecht	lasch	strafen	tot	retten	ehrlich	tolerant	schlau	lachen	freundlich	rächen	eitel	tyrannisch	schroff	leiden	fanatisch	1	blank2r.bmp	0	1	+	0	1	blank2r.bmp	500	1	BMVZ	500	1	blank2r.bmp	880	4	lasch	880	1	!	1312	1	!	1374	0	0	0	0	0	0
2024-05-08	15:01:23	15:05:17	233361	6.6.1	4_exp_EVA_AWA_CON	19	B	A	Rpleas_acq	Same	Rpleas	2pleas	acq_new_unple_nomask	acq2_nomask	2	17	480	0	300	300	0	0	646	46	1	0	fair	helfen	schön	loyal	spielen	treu	faul	hindern	schlecht	lasch	strafen	tot	retten	ehrlich	tolerant	schlau	lachen	freundlich	rächen	eitel	tyrannisch	schroff	leiden	fanatisch	1	blank2r.bmp	0	1	+	0	1	blank2r.bmp	500	8	C4r.bmp	500	1	blank2r.bmp	880	5	leiden	880	1	!	1313	1	!	-1	0	0	0	0	0	0
2024-05-08	15:01:23	15:05:19	235659	6.6.1	4_exp_EVA_AWA_CON	19	B	A	Rpleas_acq	Same	Rpleas	2pleas	acq_new_unple_nomask	acq2_nomask	2	18	480	1	300	300	0	0	520	46	1	0	fair	helfen	schön	loyal	spielen	treu	faul	hindern	schlecht	lasch	strafen	tot	retten	ehrlich	tolerant	schlau	lachen	freundlich	rächen	eitel	tyrannisch	schroff	leiden	fanatisch	1	blank2r.bmp	0	1	+	0	1	blank2r.bmp	500	1	B1r.bmp	500	1	blank2r.bmp	880	3	tyrannisch	880	1	!	1312	1	!	1422	0	0	0	0	0	0
2024-05-08	15:01:23	15:05:22	238010	6.6.1	4_exp_EVA_AWA_CON	19	B	A	Rpleas_acq	Same	Rpleas	2pleas	acq_US_pleas_nomask	acq2_nomask	2	19	480	0	300	300	0	0	571	50	1	0	fair	helfen	schön	loyal	spielen	treu	faul	hindern	schlecht	lasch	strafen	tot	retten	ehrlich	tolerant	schlau	lachen	freundlich	rächen	eitel	tyrannisch	schroff	leiden	fanatisch	1	blank2r.bmp	0	1	+	0	1	blank2r.bmp	500	1	GKQX	500	1	blank2r.bmp	880	6	treu	880	1	!	1312	1	!	-1	0	0	0	0	0	0
2024-05-08	15:01:23	15:05:24	240385	6.6.1	4_exp_EVA_AWA_CON	19	B	A	Rpleas_acq	Same	Rpleas	2pleas	acq_new_pleas_nomask	acq2_nomask	2	20	480	0	300	300	0	0	595	50	1	0	fair	helfen	schön	loyal	spielen	treu	faul	hindern	schlecht	lasch	strafen	tot	retten	ehrlich	tolerant	schlau	lachen	freundlich	rächen	eitel	tyrannisch	schroff	leiden	fanatisch	1	blank2r.bmp	0	1	+	0	1	blank2r.bmp	500	5	C1r.bmp	500	1	blank2r.bmp	880	3	tolerant	880	1	!	1312	1	!	-1	0	0	0	0	0	0
2024-05-08	15:01:23	15:05:26	242675	6.6.1	4_exp_EVA_AWA_CON	19	B	A	Rpleas_acq	Same	Rpleas	2pleas	acq_US_pleas_nomask	acq2_nomask	2	21	480	1	300	300	0	0	512	50	1	0	fair	helfen	schön	loyal	spielen	treu	faul	hindern	schlecht	lasch	strafen	tot	retten	ehrlich	tolerant	schlau	lachen	freundlich	rächen	eitel	tyrannisch	schroff	leiden	fanatisch	1	blank2r.bmp	0	1	+	0	1	blank2r.bmp	500	1	GKQX	500	1	blank2r.bmp	880	1	fair	880	1	!	1313	1	!	1413	0	0	0	0	0	0
2024-05-08	15:01:23	15:05:29	245081	6.6.1	4_exp_EVA_AWA_CON	19	B	A	Rpleas_acq	Same	Rpleas	2pleas	acq_new_unple_nomask	acq2_nomask	2	22	480	0	300	300	0	0	628	46	1	0	fair	helfen	schön	loyal	spielen	treu	faul	hindern	schlecht	lasch	strafen	tot	retten	ehrlich	tolerant	schlau	lachen	freundlich	rächen	eitel	tyrannisch	schroff	leiden	fanatisch	1	blank2r.bmp	0	1	+	0	1	blank2r.bmp	500	4	B4r.bmp	500	1	blank2r.bmp	880	4	schroff	880	1	!	1312	1	!	-1	0	0	0	0	0	0
2024-05-08	15:01:23	15:05:31	247426	6.6.1	4_exp_EVA_AWA_CON	19	B	A	Rpleas_acq	Same	Rpleas	2pleas	acq_new_pleas_nomask	acq2_nomask	2	23	480	0	300	300	0	0	571	50	1	0	fair	helfen	schön	loyal	spielen	treu	faul	hindern	schlecht	lasch	strafen	tot	retten	ehrlich	tolerant	schlau	lachen	freundlich	rächen	eitel	tyrannisch	schroff	leiden	fanatisch	1	blank2r.bmp	0	1	+	0	1	blank2r.bmp	500	3	B3r.bmp	500	1	blank2r.bmp	880	6	freundlich	880	1	!	1312	1	!	-1	0	0	0	0	0	0
2024-05-08	15:01:23	15:05:34	249841	6.6.1	4_exp_EVA_AWA_CON	19	B	A	Rpleas_acq	Same	Rpleas	2pleas	acq_new_pleas_nomask	acq2_nomask	2	24	480	0	300	300	0	0	635	50	1	0	fair	helfen	schön	loyal	spielen	treu	faul	hindern	schlecht	lasch	strafen	tot	retten	ehrlich	tolerant	schlau	lachen	freundlich	rächen	eitel	tyrannisch	schroff	leiden	fanatisch	1	blank2r.bmp	0	1	+	0	1	blank2r.bmp	500	2	B2r.bmp	500	1	blank2r.bmp	880	4	schlau	880	1	!	1312	1	!	-1	0	0	0	0	0	0
2024-05-08	15:01:23	15:05:36	252131	6.6.1	4_exp_EVA_AWA_CON	19	B	A	Rpleas_acq	Same	Rpleas	2pleas	acq_US_unple_nomask	acq2_nomask	2	25	480	1	300	300	0	0	512	46	1	0	fair	helfen	schön	loyal	spielen	treu	faul	hindern	schlecht	lasch	strafen	tot	retten	ehrlich	tolerant	schlau	lachen	freundlich	rächen	eitel	tyrannisch	schroff	leiden	fanatisch	1	blank2r.bmp	0	1	+	0	1	blank2r.bmp	500	1	BMVZ	500	1	blank2r.bmp	880	3	schlecht	880	1	!	1312	1	!	1413	0	0	0	0	0	0
2024-05-08	15:01:23	15:05:38	254419	6.6.1	4_exp_EVA_AWA_CON	19	B	A	Rpleas_acq	Same	Rpleas	2pleas	acq_new_pleas_nomask	acq2_nomask	2	26	480	1	300	300	0	0	508	50	1	0	fair	helfen	schön	loyal	spielen	treu	faul	hindern	schlecht	lasch	strafen	tot	retten	ehrlich	tolerant	schlau	lachen	freundlich	rächen	eitel	tyrannisch	schroff	leiden	fanatisch	1	blank2r.bmp	0	1	+	0	1	blank2r.bmp	500	6	C2r.bmp	500	1	blank2r.bmp	880	2	ehrlich	880	1	!	1312	1	!	1409	0	0	0	0	0	0
2024-05-08	15:01:23	15:05:41	256825	6.6.1	4_exp_EVA_AWA_CON	19	B	A	Rpleas_acq	Same	Rpleas	2pleas	acq_new_unple_nomask	acq2_nomask	2	27	480	0	300	300	0	0	625	46	1	0	fair	helfen	schön	loyal	spielen	treu	faul	hindern	schlecht	lasch	strafen	tot	retten	ehrlich	tolerant	schlau	lachen	freundlich	rächen	eitel	tyrannisch	schroff	leiden	fanatisch	1	blank2r.bmp	0	1	+	0	1	blank2r.bmp	500	7	C3r.bmp	500	1	blank2r.bmp	880	2	eitel	880	1	!	1312	1	!	-1	0	0	0	0	0	0
2024-05-08	15:01:23	15:05:43	259233	6.6.1	4_exp_EVA_AWA_CON	19	B	A	Rpleas_acq	Same	Rpleas	2pleas	acq_US_pleas_nomask	acq2_nomask	2	28	480	0	300	300	0	0	631	50	1	0	fair	helfen	schön	loyal	spielen	treu	faul	hindern	schlecht	lasch	strafen	tot	retten	ehrlich	tolerant	schlau	lachen	freundlich	rächen	eitel	tyrannisch	schroff	leiden	fanatisch	1	blank2r.bmp	0	1	+	0	1	blank2r.bmp	500	1	GKQX	500	1	blank2r.bmp	880	2	helfen	880	1	!	1312	1	!	-1	0	0	0	0	0	0
2024-05-08	15:01:23	15:05:45	261531	6.6.1	4_exp_EVA_AWA_CON	19	B	A	Rpleas_acq	Same	Rpleas	2pleas	acq_US_unple_nomask	acq2_nomask	2	29	480	1	300	300	0	0	516	46	1	0	fair	helfen	schön	loyal	spielen	treu	faul	hindern	schlecht	lasch	strafen	tot	retten	ehrlich	tolerant	schlau	lachen	freundlich	rächen	eitel	tyrannisch	schroff	leiden	fanatisch	1	blank2r.bmp	0	1	+	0	1	blank2r.bmp	500	1	BMVZ	500	1	blank2r.bmp	880	1	faul	880	1	!	1312	1	!	1417	0	0	0	0	0	0
2024-05-08	15:01:23	15:05:48	263864	6.6.1	4_exp_EVA_AWA_CON	19	B	A	Rpleas_acq	Same	Rpleas	2pleas	acq_US_unple_nomask	acq2_nomask	2	30	480	0	300	300	0	0	560	46	1	0	fair	helfen	schön	loyal	spielen	treu	faul	hindern	schlecht	lasch	strafen	tot	retten	ehrlich	tolerant	schlau	lachen	freundlich	rächen	eitel	tyrannisch	schroff	leiden	fanatisch	1	blank2r.bmp	0	1	+	0	1	blank2r.bmp	500	1	BMVZ	500	1	blank2r.bmp	880	5	strafen	880	1	!	1312	1	!	-1	0	0	0	0	0	0
2024-05-08	15:01:23	15:05:50	266249	6.6.1	4_exp_EVA_AWA_CON	19	B	A	Rpleas_acq	Same	Rpleas	2pleas	acq_new_unple_nomask	acq2_nomask	2	31	480	0	300	300	0	0	613	46	1	0	fair	helfen	schön	loyal	spielen	treu	faul	hindern	schlecht	lasch	strafen	tot	retten	ehrlich	tolerant	schlau	lachen	freundlich	rächen	eitel	tyrannisch	schroff	leiden	fanatisch	1	blank2r.bmp	0	1	+	0	1	blank2r.bmp	500	2	B2r.bmp	500	1	blank2r.bmp	880	6	fanatisch	880	1	!	1312	1	!	-1	0	0	0	0	0	0
2024-05-08	15:01:23	15:05:52	268601	6.6.1	4_exp_EVA_AWA_CON	19	B	A	Rpleas_acq	Same	Rpleas	2pleas	acq_US_pleas_nomask	acq2_nomask	2	32	480	0	300	300	0	0	573	50	1	0	fair	helfen	schön	loyal	spielen	treu	faul	hindern	schlecht	lasch	strafen	tot	retten	ehrlich	tolerant	schlau	lachen	freundlich	rächen	eitel	tyrannisch	schroff	leiden	fanatisch	1	blank2r.bmp	0	1	+	0	1	blank2r.bmp	500	1	GKQX	500	1	blank2r.bmp	880	5	spielen	880	1	!	1312	1	!	-1	0	0	0	0	0	0
2024-05-08	15:01:23	15:05:55	270908	6.6.1	4_exp_EVA_AWA_CON	19	B	A	Rpleas_acq	Same	Rpleas	2pleas	acq_new_pleas_nomask	acq2_nomask	2	33	480	0	300	300	0	0	326	46	0	0	fair	helfen	schön	loyal	spielen	treu	faul	hindern	schlecht	lasch	strafen	tot	retten	ehrlich	tolerant	schlau	lachen	freundlich	rächen	eitel	tyrannisch	schroff	leiden	fanatisch	1	blank2r.bmp	0	1	+	0	1	blank2r.bmp	500	1	B1r.bmp	500	1	blank2r.bmp	880	5	lachen	880	1	FEHLER	1519	1	!	-1	1	!	-1	0	0	0
2024-05-08	15:01:23	15:05:57	273082	6.6.1	4_exp_EVA_AWA_CON	19	B	A	Rpleas_acq	Same	Rpleas	2pleas	acq_new_pleas_nomask	acq2_nomask	2	34	480	0	300	300	0	0	600	50	1	0	fair	helfen	schön	loyal	spielen	treu	faul	hindern	schlecht	lasch	strafen	tot	retten	ehrlich	tolerant	schlau	lachen	freundlich	rächen	eitel	tyrannisch	schroff	leiden	fanatisch	1	blank2r.bmp	0	1	+	0	1	blank2r.bmp	500	6	C2r.bmp	500	1	blank2r.bmp	880	1	retten	880	1	!	1312	1	!	-1	0	0	0	0	0	0
2024-05-08	15:01:23	15:05:59	275483	6.6.1	4_exp_EVA_AWA_CON	19	B	A	Rpleas_acq	Same	Rpleas	2pleas	acq_US_pleas_nomask	acq2_nomask	2	35	480	1	300	300	0	0	419	46	0	0	fair	helfen	schön	loyal	spielen	treu	faul	hindern	schlecht	lasch	strafen	tot	retten	ehrlich	tolerant	schlau	lachen	freundlich	rächen	eitel	tyrannisch	schroff	leiden	fanatisch	1	blank2r.bmp	0	1	+	0	1	blank2r.bmp	500	1	GKQX	500	1	blank2r.bmp	880	3	schön	880	1	FEHLER	1610	1	!	1312	1	!	1318	0	0	0
2024-05-08	15:01:23	15:06:01	277649	6.6.1	4_exp_EVA_AWA_CON	19	B	A	Rpleas_acq	Same	Rpleas	2pleas	acq_new_unple_nomask	acq2_nomask	2	36	480	0	300	300	0	0	595	46	1	0	fair	helfen	schön	loyal	spielen	treu	faul	hindern	schlecht	lasch	strafen	tot	retten	ehrlich	tolerant	schlau	lachen	freundlich	rächen	eitel	tyrannisch	schroff	leiden	fanatisch	1	blank2r.bmp	0	1	+	0	1	blank2r.bmp	500	4	B4r.bmp	500	1	blank2r.bmp	880	1	rächen	880	1	!	1313	1	!	-1	0	0	0	0	0	0
2024-05-08	15:01:23	15:06:20	296265	6.6.1	4_exp_EVA_AWA_CON	19	B	A	Rpleas_acq	Same	Rpleas	2pleas	acq_US_unple_nomask	acq3_nomask	3	1	453	1	300	300	0	0	399	46	1	0	fair	helfen	schön	loyal	spielen	treu	faul	hindern	schlecht	lasch	strafen	tot	retten	ehrlich	tolerant	schlau	lachen	freundlich	rächen	eitel	tyrannisch	schroff	leiden	fanatisch	1	blank2r.bmp	0	1	+	0	1	blank2r.bmp	500	1	BMVZ	500	1	blank2r.bmp	880	3	schlecht	880	1	!	1292	1	!	1298	0	0	0	0	0	0
2024-05-08	15:01:23	15:06:22	298652	6.6.1	4_exp_EVA_AWA_CON	19	B	A	Rpleas_acq	Same	Rpleas	2pleas	acq_US_pleas_nomask	acq3_nomask	3	2	453	1	300	300	0	0	412	46	0	0	fair	helfen	schön	loyal	spielen	treu	faul	hindern	schlecht	lasch	strafen	tot	retten	ehrlich	tolerant	schlau	lachen	freundlich	rächen	eitel	tyrannisch	schroff	leiden	fanatisch	1	blank2r.bmp	0	1	+	0	1	blank2r.bmp	500	1	GKQX	500	1	blank2r.bmp	880	1	fair	880	1	FEHLER	1605	1	!	1292	1	!	1313	0	0	0
2024-05-08	15:01:23	15:06:25	300777	6.6.1	4_exp_EVA_AWA_CON	19	B	A	Rpleas_acq	Same	Rpleas	2pleas	acq_US_pleas_nomask	acq3_nomask	3	3	453	0	300	300	0	0	548	50	1	0	fair	helfen	schön	loyal	spielen	treu	faul	hindern	schlecht	lasch	strafen	tot	retten	ehrlich	tolerant	schlau	lachen	freundlich	rächen	eitel	tyrannisch	schroff	leiden	fanatisch	1	blank2r.bmp	0	1	+	0	1	blank2r.bmp	500	1	GKQX	500	1	blank2r.bmp	880	6	treu	880	1	!	1292	1	!	-1	0	0	0	0	0	0
2024-05-08	15:01:23	15:06:27	303051	6.6.1	4_exp_EVA_AWA_CON	19	B	A	Rpleas_acq	Same	Rpleas	2pleas	acq_US_unple_nomask	acq3_nomask	3	4	453	1	300	300	0	0	499	46	1	0	fair	helfen	schön	loyal	spielen	treu	faul	hindern	schlecht	lasch	strafen	tot	retten	ehrlich	tolerant	schlau	lachen	freundlich	rächen	eitel	tyrannisch	schroff	leiden	fanatisch	1	blank2r.bmp	0	1	+	0	1	blank2r.bmp	500	1	BMVZ	500	1	blank2r.bmp	880	2	hindern	880	1	!	1292	1	!	1400	0	0	0	0	0	0
2024-05-08	15:01:23	15:06:29	305377	6.6.1	4_exp_EVA_AWA_CON	19	B	A	Rpleas_acq	Same	Rpleas	2pleas	acq_US_pleas_nomask	acq3_nomask	3	5	453	0	300	300	0	0	545	50	1	0	fair	helfen	schön	loyal	spielen	treu	faul	hindern	schlecht	lasch	strafen	tot	retten	ehrlich	tolerant	schlau	lachen	freundlich	rächen	eitel	tyrannisch	schroff	leiden	fanatisch	1	blank2r.bmp	0	1	+	0	1	blank2r.bmp	500	1	GKQX	500	1	blank2r.bmp	880	2	helfen	880	1	!	1292	1	!	-1	0	0	0	0	0	0
2024-05-08	15:01:23	15:06:31	307643	6.6.1	4_exp_EVA_AWA_CON	19	B	A	Rpleas_acq	Same	Rpleas	2pleas	acq_US_unple_nomask	acq3_nomask	3	6	453	1	300	300	0	0	488	46	1	0	fair	helfen	schön	loyal	spielen	treu	faul	hindern	schlecht	lasch	strafen	tot	retten	ehrlich	tolerant	schlau	lachen	freundlich	rächen	eitel	tyrannisch	schroff	leiden	fanatisch	1	blank2r.bmp	0	1	+	0	1	blank2r.bmp	500	1	BMVZ	500	1	blank2r.bmp	880	1	faul	880	1	!	1293	1	!	1389	0	0	0	0	0	0
2024-05-08	15:01:23	15:06:34	309936	6.6.1	4_exp_EVA_AWA_CON	19	B	A	Rpleas_acq	Same	Rpleas	2pleas	acq_US_unple_nomask	acq3_nomask	3	7	453	0	300	300	0	0	524	46	1	0	fair	helfen	schön	loyal	spielen	treu	faul	hindern	schlecht	lasch	strafen	tot	retten	ehrlich	tolerant	schlau	lachen	freundlich	rächen	eitel	tyrannisch	schroff	leiden	fanatisch	1	blank2r.bmp	0	1	+	0	1	blank2r.bmp	500	1	BMVZ	500	1	blank2r.bmp	880	6	tot	880	1	!	1293	1	!	-1	0	0	0	0	0	0
2024-05-08	15:01:23	15:06:36	312155	6.6.1	4_exp_EVA_AWA_CON	19	B	A	Rpleas_acq	Same	Rpleas	2pleas	acq_US_pleas_nomask	acq3_nomask	3	8	453	1	300	300	0	0	437	50	1	0	fair	helfen	schön	loyal	spielen	treu	faul	hindern	schlecht	lasch	strafen	tot	retten	ehrlich	tolerant	schlau	lachen	freundlich	rächen	eitel	tyrannisch	schroff	leiden	fanatisch	1	blank2r.bmp	0	1	+	0	1	blank2r.bmp	500	1	GKQX	500	1	blank2r.bmp	880	3	schön	880	1	!	1292	1	!	1338	0	0	0	0	0	0
2024-05-08	15:01:23	15:06:38	314465	6.6.1	4_exp_EVA_AWA_CON	19	B	A	Rpleas_acq	Same	Rpleas	2pleas	acq_US_pleas_nomask	acq3_nomask	3	9	453	0	300	300	0	0	538	50	1	0	fair	helfen	schön	loyal	spielen	treu	faul	hindern	schlecht	lasch	strafen	tot	retten	ehrlich	tolerant	schlau	lachen	freundlich	rächen	eitel	tyrannisch	schroff	leiden	fanatisch	1	blank2r.bmp	0	1	+	0	1	blank2r.bmp	500	1	GKQX	500	1	blank2r.bmp	880	4	loyal	880	1	!	1292	1	!	-1	0	0	0	0	0	0
2024-05-08	15:01:23	15:06:40	316617	6.6.1	4_exp_EVA_AWA_CON	19	B	A	Rpleas_acq	Same	Rpleas	2pleas	acq_US_unple_nomask	acq3_nomask	3	10	453	0	300	300	0	0	378	46	1	0	fair	helfen	schön	loyal	spielen	treu	faul	hindern	schlecht	lasch	strafen	tot	retten	ehrlich	tolerant	schlau	lachen	freundlich	rächen	eitel	tyrannisch	schroff	leiden	fanatisch	1	blank2r.bmp	0	1	+	0	1	blank2r.bmp	500	1	BMVZ	500	1	blank2r.bmp	880	5	strafen	880	1	!	-1	1	!	-1	0	0	0	0	0	0
2024-05-08	15:01:23	15:06:43	318912	6.6.1	4_exp_EVA_AWA_CON	19	B	A	Rpleas_acq	Same	Rpleas	2pleas	acq_US_pleas_nomask	acq3_nomask	3	11	453	0	300	300	0	0	523	50	1	0	fair	helfen	schön	loyal	spielen	treu	faul	hindern	schlecht	lasch	strafen	tot	retten	ehrlich	tolerant	schlau	lachen	freundlich	rächen	eitel	tyrannisch	schroff	leiden	fanatisch	1	blank2r.bmp	0	1	+	0	1	blank2r.bmp	500	1	GKQX	500	1	blank2r.bmp	880	5	spielen	880	1	!	1292	1	!	-1	0	0	0	0	0	0
2024-05-08	15:01:23	15:06:45	321187	6.6.1	4_exp_EVA_AWA_CON	19	B	A	Rpleas_acq	Same	Rpleas	2pleas	acq_US_unple_nomask	acq3_nomask	3	12	453	1	300	300	0	0	493	46	1	0	fair	helfen	schön	loyal	spielen	treu	faul	hindern	schlecht	lasch	strafen	tot	retten	ehrlich	tolerant	schlau	lachen	freundlich	rächen	eitel	tyrannisch	schroff	leiden	fanatisch	1	blank2r.bmp	0	1	+	0	1	blank2r.bmp	500	1	BMVZ	500	1	blank2r.bmp	880	4	lasch	880	1	!	1292	1	!	1394	0	0	0	0	0	0
2024-05-08	15:01:23	15:06:47	323529	6.6.1	4_exp_EVA_AWA_CON	19	B	A	Rpleas_acq	Same	Rpleas	2pleas	acq_US_pleas_nomask	acq3_nomask	3	13	453	0	300	300	0	0	566	50	1	0	fair	helfen	schön	loyal	spielen	treu	faul	hindern	schlecht	lasch	strafen	tot	retten	ehrlich	tolerant	schlau	lachen	freundlich	rächen	eitel	tyrannisch	schroff	leiden	fanatisch	1	blank2r.bmp	0	1	+	0	1	blank2r.bmp	500	1	GKQX	500	1	blank2r.bmp	880	4	loyal	880	1	!	1292	1	!	-1	0	0	0	0	0	0
2024-05-08	15:01:23	15:06:49	325649	6.6.1	4_exp_EVA_AWA_CON	19	B	A	Rpleas_acq	Same	Rpleas	2pleas	acq_US_unple_nomask	acq3_nomask	3	14	453	0	300	300	0	0	344	46	1	0	fair	helfen	schön	loyal	spielen	treu	faul	hindern	schlecht	lasch	strafen	tot	retten	ehrlich	tolerant	schlau	lachen	freundlich	rächen	eitel	tyrannisch	schroff	leiden	fanatisch	1	blank2r.bmp	0	1	+	0	1	blank2r.bmp	500	1	BMVZ	500	1	blank2r.bmp	880	3	schlecht	880	1	!	-1	1	!	-1	0	0	0	0	0	0
2024-05-08	15:01:23	15:06:52	327923	6.6.1	4_exp_EVA_AWA_CON	19	B	A	Rpleas_acq	Same	Rpleas	2pleas	acq_US_unple_nomask	acq3_nomask	3	15	453	1	300	300	0	0	495	46	1	0	fair	helfen	schön	loyal	spielen	treu	faul	hindern	schlecht	lasch	strafen	tot	retten	ehrlich	tolerant	schlau	lachen	freundlich	rächen	eitel	tyrannisch	schroff	leiden	fanatisch	1	blank2r.bmp	0	1	+	0	1	blank2r.bmp	500	1	BMVZ	500	1	blank2r.bmp	880	5	strafen	880	1	!	1292	1	!	1396	0	0	0	0	0	0
2024-05-08	15:01:23	15:06:54	330211	6.6.1	4_exp_EVA_AWA_CON	19	B	A	Rpleas_acq	Same	Rpleas	2pleas	acq_US_unple_nomask	acq3_nomask	3	16	453	1	300	300	0	0	512	46	1	0	fair	helfen	schön	loyal	spielen	treu	faul	hindern	schlecht	lasch	strafen	tot	retten	ehrlich	tolerant	schlau	lachen	freundlich	rächen	eitel	tyrannisch	schroff	leiden	fanatisch	1	blank2r.bmp	0	1	+	0	1	blank2r.bmp	500	1	BMVZ	500	1	blank2r.bmp	880	2	hindern	880	1	!	1292	1	!	1413	0	0	0	0	0	0
2024-05-08	15:01:23	15:06:56	332701	6.6.1	4_exp_EVA_AWA_CON	19	B	A	Rpleas_acq	Same	Rpleas	2pleas	acq_US_unple_nomask	acq3_nomask	3	17	453	1	300	300	0	0	508	50	0	0	fair	helfen	schön	loyal	spielen	treu	faul	hindern	schlecht	lasch	strafen	tot	retten	ehrlich	tolerant	schlau	lachen	freundlich	rächen	eitel	tyrannisch	schroff	leiden	fanatisch	1	blank2r.bmp	0	1	+	0	1	blank2r.bmp	500	1	BMVZ	500	1	blank2r.bmp	880	1	faul	880	1	FEHLER	1701	1	!	1292	1	!	1409	0	0	0
2024-05-08	15:01:23	15:06:58	334724	6.6.1	4_exp_EVA_AWA_CON	19	B	A	Rpleas_acq	Same	Rpleas	2pleas	acq_US_unple_nomask	acq3_nomask	3	18	453	1	300	300	0	0	441	46	1	0	fair	helfen	schön	loyal	spielen	treu	faul	hindern	schlecht	lasch	strafen	tot	retten	ehrlich	tolerant	schlau	lachen	freundlich	rächen	eitel	tyrannisch	schroff	leiden	fanatisch	1	blank2r.bmp	0	1	+	0	1	blank2r.bmp	500	1	BMVZ	500	1	blank2r.bmp	880	4	lasch	880	1	!	1292	1	!	1342	0	0	0	0	0	0
2024-05-08	15:01:23	15:07:01	336905	6.6.1	4_exp_EVA_AWA_CON	19	B	A	Rpleas_acq	Same	Rpleas	2pleas	acq_US_unple_nomask	acq3_nomask	3	19	453	1	300	300	0	0	403	46	1	0	fair	helfen	schön	loyal	spielen	treu	faul	hindern	schlecht	lasch	strafen	tot	retten	ehrlich	tolerant	schlau	lachen	freundlich	rächen	eitel	tyrannisch	schroff	leiden	fanatisch	1	blank2r.bmp	0	1	+	0	1	blank2r.bmp	500	1	BMVZ	500	1	blank2r.bmp	880	6	tot	880	1	!	1293	1	!	1303	0	0	0	0	0	0
2024-05-08	15:01:23	15:07:03	339203	6.6.1	4_exp_EVA_AWA_CON	19	B	A	Rpleas_acq	Same	Rpleas	2pleas	acq_US_pleas_nomask	acq3_nomask	3	20	453	1	300	300	0	0	518	50	1	0	fair	helfen	schön	loyal	spielen	treu	faul	hindern	schlecht	lasch	strafen	tot	retten	ehrlich	tolerant	schlau	lachen	freundlich	rächen	eitel	tyrannisch	schroff	leiden	fanatisch	1	blank2r.bmp	0	1	+	0	1	blank2r.bmp	500	1	GKQX	500	1	blank2r.bmp	880	1	fair	880	1	!	1292	1	!	1419	0	0	0	0	0	0
2024-05-08	15:01:23	15:07:05	341561	6.6.1	4_exp_EVA_AWA_CON	19	B	A	Rpleas_acq	Same	Rpleas	2pleas	acq_US_pleas_nomask	acq3_nomask	3	21	453	0	300	300	0	0	576	50	1	0	fair	helfen	schön	loyal	spielen	treu	faul	hindern	schlecht	lasch	strafen	tot	retten	ehrlich	tolerant	schlau	lachen	freundlich	rächen	eitel	tyrannisch	schroff	leiden	fanatisch	1	blank2r.bmp	0	1	+	0	1	blank2r.bmp	500	1	GKQX	500	1	blank2r.bmp	880	6	treu	880	1	!	1292	1	!	-1	0	0	0	0	0	0
2024-05-08	15:01:23	15:07:08	343859	6.6.1	4_exp_EVA_AWA_CON	19	B	A	Rpleas_acq	Same	Rpleas	2pleas	acq_US_pleas_nomask	acq3_nomask	3	22	453	1	300	300	0	0	521	50	1	0	fair	helfen	schön	loyal	spielen	treu	faul	hindern	schlecht	lasch	strafen	tot	retten	ehrlich	tolerant	schlau	lachen	freundlich	rächen	eitel	tyrannisch	schroff	leiden	fanatisch	1	blank2r.bmp	0	1	+	0	1	blank2r.bmp	500	1	GKQX	500	1	blank2r.bmp	880	5	spielen	880	1	!	1292	1	!	1422	0	0	0	0	0	0
2024-05-08	15:01:23	15:07:10	346017	6.6.1	4_exp_EVA_AWA_CON	19	B	A	Rpleas_acq	Same	Rpleas	2pleas	acq_US_pleas_nomask	acq3_nomask	3	23	453	0	300	300	0	0	379	50	1	0	fair	helfen	schön	loyal	spielen	treu	faul	hindern	schlecht	lasch	strafen	tot	retten	ehrlich	tolerant	schlau	lachen	freundlich	rächen	eitel	tyrannisch	schroff	leiden	fanatisch	1	blank2r.bmp	0	1	+	0	1	blank2r.bmp	500	1	GKQX	500	1	blank2r.bmp	880	3	schön	880	1	!	-1	1	!	-1	0	0	0	0	0	0
2024-05-08	15:01:23	15:07:12	348337	6.6.1	4_exp_EVA_AWA_CON	19	B	A	Rpleas_acq	Same	Rpleas	2pleas	acq_US_pleas_nomask	acq3_nomask	3	24	453	0	300	300	0	0	548	50	1	0	fair	helfen	schön	loyal	spielen	treu	faul	hindern	schlecht	lasch	strafen	tot	retten	ehrlich	tolerant	schlau	lachen	freundlich	rächen	eitel	tyrannisch	schroff	leiden	fanatisch	1	blank2r.bmp	0	1	+	0	1	blank2r.bmp	500	1	GKQX	500	1	blank2r.bmp	880	2	helfen	880	1	!	1292	1	!	-1	0	0	0	0	0	0
2024-05-08	15:01:23	15:07:14	350547	6.6.1	4_exp_EVA_AWA_CON	19	B	A	Rpleas_acq	Same	Rpleas	2pleas	acq_US_pleas_nomask	acq3_nomask	3	25	453	1	300	300	0	0	434	50	1	0	fair	helfen	schön	loyal	spielen	treu	faul	hindern	schlecht	lasch	strafen	tot	retten	ehrlich	tolerant	schlau	lachen	freundlich	rächen	eitel	tyrannisch	schroff	leiden	fanatisch	1	blank2r.bmp	0	1	+	0	1	blank2r.bmp	500	1	GKQX	500	1	blank2r.bmp	880	1	fair	880	1	!	1292	1	!	1336	0	0	0	0	0	0
2024-05-08	15:01:23	15:07:16	352747	6.6.1	4_exp_EVA_AWA_CON	19	B	A	Rpleas_acq	Same	Rpleas	2pleas	acq_US_pleas_nomask	acq3_nomask	3	26	453	1	300	300	0	0	423	50	1	0	fair	helfen	schön	loyal	spielen	treu	faul	hindern	schlecht	lasch	strafen	tot	retten	ehrlich	tolerant	schlau	lachen	freundlich	rächen	eitel	tyrannisch	schroff	leiden	fanatisch	1	blank2r.bmp	0	1	+	0	1	blank2r.bmp	500	1	GKQX	500	1	blank2r.bmp	880	3	schön	880	1	!	1292	1	!	1324	0	0	0	0	0	0
2024-05-08	15:01:23	15:07:19	355172	6.6.1	4_exp_EVA_AWA_CON	19	B	A	Rpleas_acq	Same	Rpleas	2pleas	acq_US_pleas_nomask	acq3_nomask	3	27	453	1	300	300	0	0	446	46	0	0	fair	helfen	schön	loyal	spielen	treu	faul	hindern	schlecht	lasch	strafen	tot	retten	ehrlich	tolerant	schlau	lachen	freundlich	rächen	eitel	tyrannisch	schroff	leiden	fanatisch	1	blank2r.bmp	0	1	+	0	1	blank2r.bmp	500	1	GKQX	500	1	blank2r.bmp	880	4	loyal	880	1	FEHLER	1639	1	!	1292	1	!	1347	0	0	0
2024-05-08	15:01:23	15:07:21	357509	6.6.1	4_exp_EVA_AWA_CON	19	B	A	Rpleas_acq	Same	Rpleas	2pleas	acq_US_unple_nomask	acq3_nomask	3	28	453	0	300	300	0	0	560	50	0	0	fair	helfen	schön	loyal	spielen	treu	faul	hindern	schlecht	lasch	strafen	tot	retten	ehrlich	tolerant	schlau	lachen	freundlich	rächen	eitel	tyrannisch	schroff	leiden	fanatisch	1	blank2r.bmp	0	1	+	0	1	blank2r.bmp	500	1	BMVZ	500	1	blank2r.bmp	880	6	tot	880	1	FEHLER	1754	1	!	1292	1	!	-1	0	0	0
2024-05-08	15:01:23	15:07:23	359705	6.6.1	4_exp_EVA_AWA_CON	19	B	A	Rpleas_acq	Same	Rpleas	2pleas	acq_US_pleas_nomask	acq3_nomask	3	29	453	0	300	300	0	0	619	50	1	0	fair	helfen	schön	loyal	spielen	treu	faul	hindern	schlecht	lasch	strafen	tot	retten	ehrlich	tolerant	schlau	lachen	freundlich	rächen	eitel	tyrannisch	schroff	leiden	fanatisch	1	blank2r.bmp	0	1	+	0	1	blank2r.bmp	500	1	GKQX	500	1	blank2r.bmp	880	5	spielen	880	1	!	1292	1	!	-1	0	0	0	0	0	0
2024-05-08	15:01:23	15:07:26	361793	6.6.1	4_exp_EVA_AWA_CON	19	B	A	Rpleas_acq	Same	Rpleas	2pleas	acq_US_unple_nomask	acq3_nomask	3	30	453	0	300	300	0	0	315	46	1	0	fair	helfen	schön	loyal	spielen	treu	faul	hindern	schlecht	lasch	strafen	tot	retten	ehrlich	tolerant	schlau	lachen	freundlich	rächen	eitel	tyrannisch	schroff	leiden	fanatisch	1	blank2r.bmp	0	1	+	0	1	blank2r.bmp	500	1	BMVZ	500	1	blank2r.bmp	880	3	schlecht	880	1	!	-1	1	!	-1	0	0	0	0	0	0
2024-05-08	15:01:23	15:07:28	364113	6.6.1	4_exp_EVA_AWA_CON	19	B	A	Rpleas_acq	Same	Rpleas	2pleas	acq_US_pleas_nomask	acq3_nomask	3	31	453	0	300	300	0	0	544	50	1	0	fair	helfen	schön	loyal	spielen	treu	faul	hindern	schlecht	lasch	strafen	tot	retten	ehrlich	tolerant	schlau	lachen	freundlich	rächen	eitel	tyrannisch	schroff	leiden	fanatisch	1	blank2r.bmp	0	1	+	0	1	blank2r.bmp	500	1	GKQX	500	1	blank2r.bmp	880	6	treu	880	1	!	1292	1	!	-1	0	0	0	0	0	0
2024-05-08	15:01:23	15:07:30	366449	6.6.1	4_exp_EVA_AWA_CON	19	B	A	Rpleas_acq	Same	Rpleas	2pleas	acq_US_pleas_nomask	acq3_nomask	3	32	453	0	300	300	0	0	558	50	1	0	fair	helfen	schön	loyal	spielen	treu	faul	hindern	schlecht	lasch	strafen	tot	retten	ehrlich	tolerant	schlau	lachen	freundlich	rächen	eitel	tyrannisch	schroff	leiden	fanatisch	1	blank2r.bmp	0	1	+	0	1	blank2r.bmp	500	1	GKQX	500	1	blank2r.bmp	880	2	helfen	880	1	!	1293	1	!	-1	0	0	0	0	0	0
2024-05-08	15:01:23	15:07:32	368715	6.6.1	4_exp_EVA_AWA_CON	19	B	A	Rpleas_acq	Same	Rpleas	2pleas	acq_US_unple_nomask	acq3_nomask	3	33	453	1	300	300	0	0	491	46	1	0	fair	helfen	schön	loyal	spielen	treu	faul	hindern	schlecht	lasch	strafen	tot	retten	ehrlich	tolerant	schlau	lachen	freundlich	rächen	eitel	tyrannisch	schroff	leiden	fanatisch	1	blank2r.bmp	0	1	+	0	1	blank2r.bmp	500	1	BMVZ	500	1	blank2r.bmp	880	2	hindern	880	1	!	1292	1	!	1392	0	0	0	0	0	0
2024-05-08	15:01:23	15:07:35	371057	6.6.1	4_exp_EVA_AWA_CON	19	B	A	Rpleas_acq	Same	Rpleas	2pleas	acq_US_unple_nomask	acq3_nomask	3	34	453	0	300	300	0	0	563	46	1	0	fair	helfen	schön	loyal	spielen	treu	faul	hindern	schlecht	lasch	strafen	tot	retten	ehrlich	tolerant	schlau	lachen	freundlich	rächen	eitel	tyrannisch	schroff	leiden	fanatisch	1	blank2r.bmp	0	1	+	0	1	blank2r.bmp	500	1	BMVZ	500	1	blank2r.bmp	880	5	strafen	880	1	!	1292	1	!	-1	0	0	0	0	0	0
2024-05-08	15:01:23	15:07:37	373259	6.6.1	4_exp_EVA_AWA_CON	19	B	A	Rpleas_acq	Same	Rpleas	2pleas	acq_US_unple_nomask	acq3_nomask	3	35	453	1	300	300	0	0	422	46	1	0	fair	helfen	schön	loyal	spielen	treu	faul	hindern	schlecht	lasch	strafen	tot	retten	ehrlich	tolerant	schlau	lachen	freundlich	rächen	eitel	tyrannisch	schroff	leiden	fanatisch	1	blank2r.bmp	0	1	+	0	1	blank2r.bmp	500	1	BMVZ	500	1	blank2r.bmp	880	1	faul	880	1	!	1292	1	!	1323	0	0	0	0	0	0
2024-05-08	15:01:23	15:07:39	375459	6.6.1	4_exp_EVA_AWA_CON	19	B	A	Rpleas_acq	Same	Rpleas	2pleas	acq_US_unple_nomask	acq3_nomask	3	36	453	1	300	300	0	0	420	46	1	0	fair	helfen	schön	loyal	spielen	treu	faul	hindern	schlecht	lasch	strafen	tot	retten	ehrlich	tolerant	schlau	lachen	freundlich	rächen	eitel	tyrannisch	schroff	leiden	fanatisch	1	blank2r.bmp	0	1	+	0	1	blank2r.bmp	500	1	BMVZ	500	1	blank2r.bmp	880	4	lasch	880	1	!	1292	1	!	1322	0	0	0	0	0	0
2024-05-08	15:01:23	15:07:52	388066	6.6.1	4_exp_EVA_AWA_CON	19	B	A	Rpleas_acq	Same	Rpleas	2pleas	acq_US_unple_nomask	acq45_nomask	4	1	400	0	300	300	0	0	520	46	1	0	fair	helfen	schön	loyal	spielen	treu	faul	hindern	schlecht	lasch	strafen	tot	retten	ehrlich	tolerant	schlau	lachen	freundlich	rächen	eitel	tyrannisch	schroff	leiden	fanatisch	1	blank2r.bmp	0	1	+	0	1	blank2r.bmp	500	1	BMVZ	500	1	blank2r.bmp	880	1	faul	880	1	!	1232	1	!	-1	0	0	0	0	0	0
2024-05-08	15:01:23	15:07:54	390235	6.6.1	4_exp_EVA_AWA_CON	19	B	A	Rpleas_acq	Same	Rpleas	2pleas	acq_US_pleas_nomask	acq45_nomask	4	2	400	1	300	300	0	0	387	46	0	0	fair	helfen	schön	loyal	spielen	treu	faul	hindern	schlecht	lasch	strafen	tot	retten	ehrlich	tolerant	schlau	lachen	freundlich	rächen	eitel	tyrannisch	schroff	leiden	fanatisch	1	blank2r.bmp	0	1	+	0	1	blank2r.bmp	500	1	GKQX	500	1	blank2r.bmp	880	2	helfen	880	1	!	1232	1	!	1288	0	0	0	0	0	0
2024-05-08	15:01:23	15:07:56	392529	6.6.1	4_exp_EVA_AWA_CON	19	B	A	Rpleas_acq	Same	Rpleas	2pleas	acq_US_unple_nomask	acq45_nomask	4	3	400	0	300	300	0	0	521	46	1	0	fair	helfen	schön	loyal	spielen	treu	faul	hindern	schlecht	lasch	strafen	tot	retten	ehrlich	tolerant	schlau	lachen	freundlich	rächen	eitel	tyrannisch	schroff	leiden	fanatisch	1	blank2r.bmp	0	1	+	0	1	blank2r.bmp	500	1	BMVZ	500	1	blank2r.bmp	880	3	schlecht	880	1	!	1232	1	!	-1	0	0	0	0	0	0
2024-05-08	15:01:23	15:07:59	394825	6.6.1	4_exp_EVA_AWA_CON	19	B	A	Rpleas_acq	Same	Rpleas	2pleas	acq_US_pleas_nomask	acq45_nomask	4	4	400	0	300	300	0	0	516	50	1	0	fair	helfen	schön	loyal	spielen	treu	faul	hindern	schlecht	lasch	strafen	tot	retten	ehrlich	tolerant	schlau	lachen	freundlich	rächen	eitel	tyrannisch	schroff	leiden	fanatisch	1	blank2r.bmp	0	1	+	0	1	blank2r.bmp	500	1	GKQX	500	1	blank2r.bmp	880	1	fair	880	1	!	1232	1	!	-1	0	0	0	0	0	0
2024-05-08	15:01:23	15:08:01	396995	6.6.1	4_exp_EVA_AWA_CON	19	B	A	Rpleas_acq	Same	Rpleas	2pleas	acq_US_pleas_nomask	acq45_nomask	4	5	400	1	300	300	0	0	393	50	1	0	fair	helfen	schön	loyal	spielen	treu	faul	hindern	schlecht	lasch	strafen	tot	retten	ehrlich	tolerant	schlau	lachen	freundlich	rächen	eitel	tyrannisch	schroff	leiden	fanatisch	1	blank2r.bmp	0	1	+	0	1	blank2r.bmp	500	1	GKQX	500	1	blank2r.bmp	880	3	schön	880	1	!	1232	1	!	1294	0	0	0	0	0	0
2024-05-08	15:01:23	15:08:03	399417	6.6.1	4_exp_EVA_AWA_CON	19	B	A	Rpleas_acq	Same	Rpleas	2pleas	acq_US_pleas_nomask	acq45_nomask	4	6	400	0	300	300	0	0	645	50	1	0	fair	helfen	schön	loyal	spielen	treu	faul	hindern	schlecht	lasch	strafen	tot	retten	ehrlich	tolerant	schlau	lachen	freundlich	rächen	eitel	tyrannisch	schroff	leiden	fanatisch	1	blank2r.bmp	0	1	+	0	1	blank2r.bmp	500	1	GKQX	500	1	blank2r.bmp	880	4	loyal	880	1	!	1232	1	!	-1	0	0	0	0	0	0
2024-05-08	15:01:23	15:08:05	401627	6.6.1	4_exp_EVA_AWA_CON	19	B	A	Rpleas_acq	Same	Rpleas	2pleas	acq_US_unple_nomask	acq45_nomask	4	7	400	1	300	300	0	0	432	50	0	0	fair	helfen	schön	loyal	spielen	treu	faul	hindern	schlecht	lasch	strafen	tot	retten	ehrlich	tolerant	schlau	lachen	freundlich	rächen	eitel	tyrannisch	schroff	leiden	fanatisch	1	blank2r.bmp	0	1	+	0	1	blank2r.bmp	500	1	BMVZ	500	1	blank2r.bmp	880	5	strafen	880	1	!	1232	1	!	1333	0	0	0	0	0	0
2024-05-08	15:01:23	15:08:08	403969	6.6.1	4_exp_EVA_AWA_CON	19	B	A	Rpleas_acq	Same	Rpleas	2pleas	acq_US_unple_nomask	acq45_nomask	4	8	400	0	300	300	0	0	564	46	1	0	fair	helfen	schön	loyal	spielen	treu	faul	hindern	schlecht	lasch	strafen	tot	retten	ehrlich	tolerant	schlau	lachen	freundlich	rächen	eitel	tyrannisch	schroff	leiden	fanatisch	1	blank2r.bmp	0	1	+	0	1	blank2r.bmp	500	1	BMVZ	500	1	blank2r.bmp	880	6	tot	880	1	!	1232	1	!	-1	0	0	0	0	0	0
2024-05-08	15:01:23	15:08:10	406313	6.6.1	4_exp_EVA_AWA_CON	19	B	A	Rpleas_acq	Same	Rpleas	2pleas	acq_US_unple_nomask	acq45_nomask	4	9	400	0	300	300	0	0	567	46	1	0	fair	helfen	schön	loyal	spielen	treu	faul	hindern	schlecht	lasch	strafen	tot	retten	ehrlich	tolerant	schlau	lachen	freundlich	rächen	eitel	tyrannisch	schroff	leiden	fanatisch	1	blank2r.bmp	0	1	+	0	1	blank2r.bmp	500	1	BMVZ	500	1	blank2r.bmp	880	4	lasch	880	1	!	1232	1	!	-1	0	0	0	0	0	0
2024-05-08	15:01:23	15:08:12	408507	6.6.1	4_exp_EVA_AWA_CON	19	B	A	Rpleas_acq	Same	Rpleas	2pleas	acq_US_pleas_nomask	acq45_nomask	4	10	400	1	300	300	0	0	417	46	0	0	fair	helfen	schön	loyal	spielen	treu	faul	hindern	schlecht	lasch	strafen	tot	retten	ehrlich	tolerant	schlau	lachen	freundlich	rächen	eitel	tyrannisch	schroff	leiden	fanatisch	1	blank2r.bmp	0	1	+	0	1	blank2r.bmp	500	1	GKQX	500	1	blank2r.bmp	880	5	spielen	880	1	!	1232	1	!	1318	0	0	0	0	0	0
2024-05-08	15:01:23	15:08:15	410760	6.6.1	4_exp_EVA_AWA_CON	19	B	A	Rpleas_acq	Same	Rpleas	2pleas	acq_US_pleas_nomask	acq45_nomask	4	11	400	0	300	300	0	0	482	50	1	0	fair	helfen	schön	loyal	spielen	treu	faul	hindern	schlecht	lasch	strafen	tot	retten	ehrlich	tolerant	schlau	lachen	freundlich	rächen	eitel	tyrannisch	schroff	leiden	fanatisch	1	blank2r.bmp	0	1	+	0	1	blank2r.bmp	500	1	GKQX	500	1	blank2r.bmp	880	6	treu	880	1	!	1232	1	!	-1	0	0	0	0	0	0
2024-05-08	15:01:23	15:08:17	413033	6.6.1	4_exp_EVA_AWA_CON	19	B	A	Rpleas_acq	Same	Rpleas	2pleas	acq_US_unple_nomask	acq45_nomask	4	12	400	0	300	300	0	0	492	46	1	0	fair	helfen	schön	loyal	spielen	treu	faul	hindern	schlecht	lasch	strafen	tot	retten	ehrlich	tolerant	schlau	lachen	freundlich	rächen	eitel	tyrannisch	schroff	leiden	fanatisch	1	blank2r.bmp	0	1	+	0	1	blank2r.bmp	500	1	BMVZ	500	1	blank2r.bmp	880	2	hindern	880	1	!	1232	1	!	-1	0	0	0	0	0	0
2024-05-08	15:01:23	15:08:19	415179	6.6.1	4_exp_EVA_AWA_CON	19	B	A	Rpleas_acq	Same	Rpleas	2pleas	acq_US_unple_nomask	acq45_nomask	4	13	400	1	300	300	0	0	365	46	1	0	fair	helfen	schön	loyal	spielen	treu	faul	hindern	schlecht	lasch	strafen	tot	retten	ehrlich	tolerant	schlau	lachen	freundlich	rächen	eitel	tyrannisch	schroff	leiden	fanatisch	1	blank2r.bmp	0	1	+	0	1	blank2r.bmp	500	1	BMVZ	500	1	blank2r.bmp	880	3	schlecht	880	1	!	1232	1	!	1266	0	0	0	0	0	0
2024-05-08	15:01:23	15:08:21	417419	6.6.1	4_exp_EVA_AWA_CON	19	B	A	Rpleas_acq	Same	Rpleas	2pleas	acq_US_unple_nomask	acq45_nomask	4	14	400	1	300	300	0	0	463	46	1	0	fair	helfen	schön	loyal	spielen	treu	faul	hindern	schlecht	lasch	strafen	tot	retten	ehrlich	tolerant	schlau	lachen	freundlich	rächen	eitel	tyrannisch	schroff	leiden	fanatisch	1	blank2r.bmp	0	1	+	0	1	blank2r.bmp	500	1	BMVZ	500	1	blank2r.bmp	880	4	lasch	880	1	!	1232	1	!	1365	0	0	0	0	0	0
2024-05-08	15:01:23	15:08:23	419537	6.6.1	4_exp_EVA_AWA_CON	19	B	A	Rpleas_acq	Same	Rpleas	2pleas	acq_US_pleas_nomask	acq45_nomask	4	15	400	1	300	300	0	0	342	50	1	0	fair	helfen	schön	loyal	spielen	treu	faul	hindern	schlecht	lasch	strafen	tot	retten	ehrlich	tolerant	schlau	lachen	freundlich	rächen	eitel	tyrannisch	schroff	leiden	fanatisch	1	blank2r.bmp	0	1	+	0	1	blank2r.bmp	500	1	GKQX	500	1	blank2r.bmp	880	4	loyal	880	1	!	1232	1	!	1242	0	0	0	0	0	0
2024-05-08	15:01:23	15:08:25	421731	6.6.1	4_exp_EVA_AWA_CON	19	B	A	Rpleas_acq	Same	Rpleas	2pleas	acq_US_pleas_nomask	acq45_nomask	4	16	400	1	300	300	0	0	413	50	1	0	fair	helfen	schön	loyal	spielen	treu	faul	hindern	schlecht	lasch	strafen	tot	retten	ehrlich	tolerant	schlau	lachen	freundlich	rächen	eitel	tyrannisch	schroff	leiden	fanatisch	1	blank2r.bmp	0	1	+	0	1	blank2r.bmp	500	1	GKQX	500	1	blank2r.bmp	880	2	helfen	880	1	!	1232	1	!	1314	0	0	0	0	0	0
2024-05-08	15:01:23	15:08:28	423883	6.6.1	4_exp_EVA_AWA_CON	19	B	A	Rpleas_acq	Same	Rpleas	2pleas	acq_US_unple_nomask	acq45_nomask	4	17	400	1	300	300	0	0	373	50	0	0	fair	helfen	schön	loyal	spielen	treu	faul	hindern	schlecht	lasch	strafen	tot	retten	ehrlich	tolerant	schlau	lachen	freundlich	rächen	eitel	tyrannisch	schroff	leiden	fanatisch	1	blank2r.bmp	0	1	+	0	1	blank2r.bmp	500	1	BMVZ	500	1	blank2r.bmp	880	2	hindern	880	1	!	1232	1	!	1274	0	0	0	0	0	0
2024-05-08	15:01:23	15:08:30	426115	6.6.1	4_exp_EVA_AWA_CON	19	B	A	Rpleas_acq	Same	Rpleas	2pleas	acq_US_pleas_nomask	acq45_nomask	4	18	400	1	300	300	0	0	454	50	1	0	fair	helfen	schön	loyal	spielen	treu	faul	hindern	schlecht	lasch	strafen	tot	retten	ehrlich	tolerant	schlau	lachen	freundlich	rächen	eitel	tyrannisch	schroff	leiden	fanatisch	1	blank2r.bmp	0	1	+	0	1	blank2r.bmp	500	1	GKQX	500	1	blank2r.bmp	880	5	spielen	880	1	!	1232	1	!	1355	0	0	0	0	0	0
2024-05-08	15:01:23	15:08:32	428283	6.6.1	4_exp_EVA_AWA_CON	19	B	A	Rpleas_acq	Same	Rpleas	2pleas	acq_US_unple_nomask	acq45_nomask	4	19	400	1	300	300	0	0	390	46	1	0	fair	helfen	schön	loyal	spielen	treu	faul	hindern	schlecht	lasch	strafen	tot	retten	ehrlich	tolerant	schlau	lachen	freundlich	rächen	eitel	tyrannisch	schroff	leiden	fanatisch	1	blank2r.bmp	0	1	+	0	1	blank2r.bmp	500	1	BMVZ	500	1	blank2r.bmp	880	6	tot	880	1	!	1232	1	!	1292	0	0	0	0	0	0
2024-05-08	15:01:23	15:08:34	430491	6.6.1	4_exp_EVA_AWA_CON	19	B	A	Rpleas_acq	Same	Rpleas	2pleas	acq_US_unple_nomask	acq45_nomask	4	20	400	1	300	300	0	0	427	46	1	0	fair	helfen	schön	loyal	spielen	treu	faul	hindern	schlecht	lasch	strafen	tot	retten	ehrlich	tolerant	schlau	lachen	freundlich	rächen	eitel	tyrannisch	schroff	leiden	fanatisch	1	blank2r.bmp	0	1	+	0	1	blank2r.bmp	500	1	BMVZ	500	1	blank2r.bmp	880	1	faul	880	1	!	1232	1	!	1328	0	0	0	0	0	0
2024-05-08	15:01:23	15:08:37	432841	6.6.1	4_exp_EVA_AWA_CON	19	B	A	Rpleas_acq	Same	Rpleas	2pleas	acq_US_pleas_nomask	acq45_nomask	4	21	400	0	300	300	0	0	578	50	1	0	fair	helfen	schön	loyal	spielen	treu	faul	hindern	schlecht	lasch	strafen	tot	retten	ehrlich	tolerant	schlau	lachen	freundlich	rächen	eitel	tyrannisch	schroff	leiden	fanatisch	1	blank2r.bmp	0	1	+	0	1	blank2r.bmp	500	1	GKQX	500	1	blank2r.bmp	880	6	treu	880	1	!	1233	1	!	-1	0	0	0	0	0	0
2024-05-08	15:01:23	15:08:39	435068	6.6.1	4_exp_EVA_AWA_CON	19	B	A	Rpleas_acq	Same	Rpleas	2pleas	acq_US_pleas_nomask	acq45_nomask	4	22	400	1	300	300	0	0	450	50	1	0	fair	helfen	schön	loyal	spielen	treu	faul	hindern	schlecht	lasch	strafen	tot	retten	ehrlich	tolerant	schlau	lachen	freundlich	rächen	eitel	tyrannisch	schroff	leiden	fanatisch	1	blank2r.bmp	0	1	+	0	1	blank2r.bmp	500	1	GKQX	500	1	blank2r.bmp	880	1	fair	880	1	!	1232	1	!	1352	0	0	0	0	0	0
2024-05-08	15:01:23	15:08:41	437178	6.6.1	4_exp_EVA_AWA_CON	19	B	A	Rpleas_acq	Same	Rpleas	2pleas	acq_US_unple_nomask	acq45_nomask	4	23	400	0	300	300	0	0	331	46	1	0	fair	helfen	schön	loyal	spielen	treu	faul	hindern	schlecht	lasch	strafen	tot	retten	ehrlich	tolerant	schlau	lachen	freundlich	rächen	eitel	tyrannisch	schroff	leiden	fanatisch	1	blank2r.bmp	0	1	+	0	1	blank2r.bmp	500	1	BMVZ	500	1	blank2r.bmp	880	5	strafen	880	1	!	-1	1	!	-1	0	0	0	0	0	0
2024-05-08	15:01:23	15:08:43	439481	6.6.1	4_exp_EVA_AWA_CON	19	B	A	Rpleas_acq	Same	Rpleas	2pleas	acq_US_unple_nomask	acq45_nomask	4	24	400	0	300	300	0	0	523	46	1	0	fair	helfen	schön	loyal	spielen	treu	faul	hindern	schlecht	lasch	strafen	tot	retten	ehrlich	tolerant	schlau	lachen	freundlich	rächen	eitel	tyrannisch	schroff	leiden	fanatisch	1	blank2r.bmp	0	1	+	0	1	blank2r.bmp	500	1	BMVZ	500	1	blank2r.bmp	880	2	hindern	880	1	!	1232	1	!	-1	0	0	0	0	0	0
2024-05-08	15:01:23	15:08:45	441643	6.6.1	4_exp_EVA_AWA_CON	19	B	A	Rpleas_acq	Same	Rpleas	2pleas	acq_US_pleas_nomask	acq45_nomask	4	25	400	1	300	300	0	0	382	50	1	0	fair	helfen	schön	loyal	spielen	treu	faul	hindern	schlecht	lasch	strafen	tot	retten	ehrlich	tolerant	schlau	lachen	freundlich	rächen	eitel	tyrannisch	schroff	leiden	fanatisch	1	blank2r.bmp	0	1	+	0	1	blank2r.bmp	500	1	GKQX	500	1	blank2r.bmp	880	3	schön	880	1	!	1232	1	!	1283	0	0	0	0	0	0
2024-05-08	15:01:23	15:08:47	443697	6.6.1	4_exp_EVA_AWA_CON	19	B	A	Rpleas_acq	Same	Rpleas	2pleas	acq_US_unple_nomask	acq45_nomask	4	26	400	0	300	300	0	0	276	46	1	0	fair	helfen	schön	loyal	spielen	treu	faul	hindern	schlecht	lasch	strafen	tot	retten	ehrlich	tolerant	schlau	lachen	freundlich	rächen	eitel	tyrannisch	schroff	leiden	fanatisch	1	blank2r.bmp	0	1	+	0	1	blank2r.bmp	500	1	BMVZ	500	1	blank2r.bmp	880	6	tot	880	1	!	-1	1	!	-1	0	0	0	0	0	0
2024-05-08	15:01:23	15:08:50	446041	6.6.1	4_exp_EVA_AWA_CON	19	B	A	Rpleas_acq	Same	Rpleas	2pleas	acq_US_pleas_nomask	acq45_nomask	4	27	400	0	300	300	0	0	569	50	1	0	fair	helfen	schön	loyal	spielen	treu	faul	hindern	schlecht	lasch	strafen	tot	retten	ehrlich	tolerant	schlau	lachen	freundlich	rächen	eitel	tyrannisch	schroff	leiden	fanatisch	1	blank2r.bmp	0	1	+	0	1	blank2r.bmp	500	1	GKQX	500	1	blank2r.bmp	880	1	fair	880	1	!	1232	1	!	-1	0	0	0	0	0	0
2024-05-08	15:01:23	15:08:52	448187	6.6.1	4_exp_EVA_AWA_CON	19	B	A	Rpleas_acq	Same	Rpleas	2pleas	acq_US_unple_nomask	acq45_nomask	4	28	400	1	300	300	0	0	372	46	1	0	fair	helfen	schön	loyal	spielen	treu	faul	hindern	schlecht	lasch	strafen	tot	retten	ehrlich	tolerant	schlau	lachen	freundlich	rächen	eitel	tyrannisch	schroff	leiden	fanatisch	1	blank2r.bmp	0	1	+	0	1	blank2r.bmp	500	1	BMVZ	500	1	blank2r.bmp	880	1	faul	880	1	!	1232	1	!	1273	0	0	0	0	0	0
2024-05-08	15:01:23	15:08:54	450449	6.6.1	4_exp_EVA_AWA_CON	19	B	A	Rpleas_acq	Same	Rpleas	2pleas	acq_US_pleas_nomask	acq45_nomask	4	29	400	0	300	300	0	0	484	50	1	0	fair	helfen	schön	loyal	spielen	treu	faul	hindern	schlecht	lasch	strafen	tot	retten	ehrlich	tolerant	schlau	lachen	freundlich	rächen	eitel	tyrannisch	schroff	leiden	fanatisch	1	blank2r.bmp	0	1	+	0	1	blank2r.bmp	500	1	GKQX	500	1	blank2r.bmp	880	3	schön	880	1	!	1232	1	!	-1	0	0	0	0	0	0
2024-05-08	15:01:23	15:08:56	452713	6.6.1	4_exp_EVA_AWA_CON	19	B	A	Rpleas_acq	Same	Rpleas	2pleas	acq_US_pleas_nomask	acq45_nomask	4	30	400	0	300	300	0	0	487	50	1	0	fair	helfen	schön	loyal	spielen	treu	faul	hindern	schlecht	lasch	strafen	tot	retten	ehrlich	tolerant	schlau	lachen	freundlich	rächen	eitel	tyrannisch	schroff	leiden	fanatisch	1	blank2r.bmp	0	1	+	0	1	blank2r.bmp	500	1	GKQX	500	1	blank2r.bmp	880	2	helfen	880	1	!	1232	1	!	-1	0	0	0	0	0	0
2024-05-08	15:01:23	15:08:59	454915	6.6.1	4_exp_EVA_AWA_CON	19	B	A	Rpleas_acq	Same	Rpleas	2pleas	acq_US_unple_nomask	acq45_nomask	4	31	400	1	300	300	0	0	425	46	1	0	fair	helfen	schön	loyal	spielen	treu	faul	hindern	schlecht	lasch	strafen	tot	retten	ehrlich	tolerant	schlau	lachen	freundlich	rächen	eitel	tyrannisch	schroff	leiden	fanatisch	1	blank2r.bmp	0	1	+	0	1	blank2r.bmp	500	1	BMVZ	500	1	blank2r.bmp	880	3	schlecht	880	1	!	1232	1	!	1326	0	0	0	0	0	0
2024-05-08	15:01:23	15:09:01	457147	6.6.1	4_exp_EVA_AWA_CON	19	B	A	Rpleas_acq	Same	Rpleas	2pleas	acq_US_unple_nomask	acq45_nomask	4	32	400	1	300	300	0	0	456	46	1	0	fair	helfen	schön	loyal	spielen	treu	faul	hindern	schlecht	lasch	strafen	tot	retten	ehrlich	tolerant	schlau	lachen	freundlich	rächen	eitel	tyrannisch	schroff	leiden	fanatisch	1	blank2r.bmp	0	1	+	0	1	blank2r.bmp	500	1	BMVZ	500	1	blank2r.bmp	880	4	lasch	880	1	!	1232	1	!	1357	0	0	0	0	0	0
2024-05-08	15:01:23	15:09:03	459489	6.6.1	4_exp_EVA_AWA_CON	19	B	A	Rpleas_acq	Same	Rpleas	2pleas	acq_US_pleas_nomask	acq45_nomask	4	33	400	0	300	300	0	0	569	50	1	0	fair	helfen	schön	loyal	spielen	treu	faul	hindern	schlecht	lasch	strafen	tot	retten	ehrlich	tolerant	schlau	lachen	freundlich	rächen	eitel	tyrannisch	schroff	leiden	fanatisch	1	blank2r.bmp	0	1	+	0	1	blank2r.bmp	500	1	GKQX	500	1	blank2r.bmp	880	4	loyal	880	1	!	1232	1	!	-1	0	0	0	0	0	0
2024-05-08	15:01:23	15:09:05	461744	6.6.1	4_exp_EVA_AWA_CON	19	B	A	Rpleas_acq	Same	Rpleas	2pleas	acq_US_unple_nomask	acq45_nomask	4	34	400	0	300	300	0	0	483	46	1	0	fair	helfen	schön	loyal	spielen	treu	faul	hindern	schlecht	lasch	strafen	tot	retten	ehrlich	tolerant	schlau	lachen	freundlich	rächen	eitel	tyrannisch	schroff	leiden	fanatisch	1	blank2r.bmp	0	1	+	0	1	blank2r.bmp	500	1	BMVZ	500	1	blank2r.bmp	880	5	strafen	880	1	!	1232	1	!	-1	0	0	0	0	0	0
2024-05-08	15:01:23	15:09:08	463963	6.6.1	4_exp_EVA_AWA_CON	19	B	A	Rpleas_acq	Same	Rpleas	2pleas	acq_US_pleas_nomask	acq45_nomask	4	35	400	1	300	300	0	0	438	50	1	0	fair	helfen	schön	loyal	spielen	treu	faul	hindern	schlecht	lasch	strafen	tot	retten	ehrlich	tolerant	schlau	lachen	freundlich	rächen	eitel	tyrannisch	schroff	leiden	fanatisch	1	blank2r.bmp	0	1	+	0	1	blank2r.bmp	500	1	GKQX	500	1	blank2r.bmp	880	6	treu	880	1	!	1232	1	!	1339	0	0	0	0	0	0
2024-05-08	15:01:23	15:09:10	466001	6.6.1	4_exp_EVA_AWA_CON	19	B	A	Rpleas_acq	Same	Rpleas	2pleas	acq_US_pleas_nomask	acq45_nomask	4	36	400	0	300	300	0	0	266	46	0	0	fair	helfen	schön	loyal	spielen	treu	faul	hindern	schlecht	lasch	strafen	tot	retten	ehrlich	tolerant	schlau	lachen	freundlich	rächen	eitel	tyrannisch	schroff	leiden	fanatisch	1	blank2r.bmp	0	1	+	0	1	blank2r.bmp	500	1	GKQX	500	1	blank2r.bmp	880	5	spielen	880	1	!	-1	1	!	-1	0	0	0	0	0	0
2024-05-08	15:01:23	15:09:24	480275	6.6.1	4_exp_EVA_AWA_CON	19	B	A	Rpleas_acq	Same	Rpleas	2pleas	acq_US_unple_nomask	acq45_nomask	5	1	400	1	300	300	0	0	419	50	0	0	fair	helfen	schön	loyal	spielen	treu	faul	hindern	schlecht	lasch	strafen	tot	retten	ehrlich	tolerant	schlau	lachen	freundlich	rächen	eitel	tyrannisch	schroff	leiden	fanatisch	1	blank2r.bmp	0	1	+	0	1	blank2r.bmp	500	1	BMVZ	500	1	blank2r.bmp	880	4	lasch	880	1	!	1232	1	!	1320	0	0	0	0	0	0
2024-05-08	15:01:23	15:09:29	485185	6.6.1	4_exp_EVA_AWA_CON	19	B	A	Rpleas_acq	Same	Rpleas	2pleas	acq_US_pleas_nomask	acq45_nomask	5	2	400	0	300	300	0	0	3130	46	0	0	fair	helfen	schön	loyal	spielen	treu	faul	hindern	schlecht	lasch	strafen	tot	retten	ehrlich	tolerant	schlau	lachen	freundlich	rächen	eitel	tyrannisch	schroff	leiden	fanatisch	1	blank2r.bmp	0	1	+	0	1	blank2r.bmp	500	1	GKQX	500	1	blank2r.bmp	880	4	loyal	880	1	!	1232	1	!	-1	0	0	0	0	0	0
2024-05-08	15:01:23	15:09:31	487465	6.6.1	4_exp_EVA_AWA_CON	19	B	A	Rpleas_acq	Same	Rpleas	2pleas	acq_US_pleas_nomask	acq45_nomask	5	3	400	0	300	300	0	0	507	50	1	0	fair	helfen	schön	loyal	spielen	treu	faul	hindern	schlecht	lasch	strafen	tot	retten	ehrlich	tolerant	schlau	lachen	freundlich	rächen	eitel	tyrannisch	schroff	leiden	fanatisch	1	blank2r.bmp	0	1	+	0	1	blank2r.bmp	500	1	GKQX	500	1	blank2r.bmp	880	1	fair	880	1	!	1232	1	!	-1	0	0	0	0	0	0
2024-05-08	15:01:23	15:09:34	489825	6.6.1	4_exp_EVA_AWA_CON	19	B	A	Rpleas_acq	Same	Rpleas	2pleas	acq_US_pleas_nomask	acq45_nomask	5	4	400	0	300	300	0	0	585	50	1	0	fair	helfen	schön	loyal	spielen	treu	faul	hindern	schlecht	lasch	strafen	tot	retten	ehrlich	tolerant	schlau	lachen	freundlich	rächen	eitel	tyrannisch	schroff	leiden	fanatisch	1	blank2r.bmp	0	1	+	0	1	blank2r.bmp	500	1	GKQX	500	1	blank2r.bmp	880	3	schön	880	1	!	1232	1	!	-1	0	0	0	0	0	0
2024-05-08	15:01:23	15:09:36	492113	6.6.1	4_exp_EVA_AWA_CON	19	B	A	Rpleas_acq	Same	Rpleas	2pleas	acq_US_pleas_nomask	acq45_nomask	5	5	400	0	300	300	0	0	512	50	1	0	fair	helfen	schön	loyal	spielen	treu	faul	hindern	schlecht	lasch	strafen	tot	retten	ehrlich	tolerant	schlau	lachen	freundlich	rächen	eitel	tyrannisch	schroff	leiden	fanatisch	1	blank2r.bmp	0	1	+	0	1	blank2r.bmp	500	1	GKQX	500	1	blank2r.bmp	880	2	helfen	880	1	!	1232	1	!	-1	0	0	0	0	0	0
2024-05-08	15:01:23	15:09:38	494259	6.6.1	4_exp_EVA_AWA_CON	19	B	A	Rpleas_acq	Same	Rpleas	2pleas	acq_US_unple_nomask	acq45_nomask	5	6	400	1	300	300	0	0	364	46	1	0	fair	helfen	schön	loyal	spielen	treu	faul	hindern	schlecht	lasch	strafen	tot	retten	ehrlich	tolerant	schlau	lachen	freundlich	rächen	eitel	tyrannisch	schroff	leiden	fanatisch	1	blank2r.bmp	0	1	+	0	1	blank2r.bmp	500	1	BMVZ	500	1	blank2r.bmp	880	6	tot	880	1	!	1232	1	!	1265	0	0	0	0	0	0
2024-05-08	15:01:23	15:09:40	496403	6.6.1	4_exp_EVA_AWA_CON	19	B	A	Rpleas_acq	Same	Rpleas	2pleas	acq_US_pleas_nomask	acq45_nomask	5	7	400	1	300	300	0	0	367	50	1	0	fair	helfen	schön	loyal	spielen	treu	faul	hindern	schlecht	lasch	strafen	tot	retten	ehrlich	tolerant	schlau	lachen	freundlich	rächen	eitel	tyrannisch	schroff	leiden	fanatisch	1	blank2r.bmp	0	1	+	0	1	blank2r.bmp	500	1	GKQX	500	1	blank2r.bmp	880	6	treu	880	1	!	1232	1	!	1268	0	0	0	0	0	0
2024-05-08	15:01:23	15:09:42	498603	6.6.1	4_exp_EVA_AWA_CON	19	B	A	Rpleas_acq	Same	Rpleas	2pleas	acq_US_unple_nomask	acq45_nomask	5	8	400	1	300	300	0	0	425	46	1	0	fair	helfen	schön	loyal	spielen	treu	faul	hindern	schlecht	lasch	strafen	tot	retten	ehrlich	tolerant	schlau	lachen	freundlich	rächen	eitel	tyrannisch	schroff	leiden	fanatisch	1	blank2r.bmp	0	1	+	0	1	blank2r.bmp	500	1	BMVZ	500	1	blank2r.bmp	880	3	schlecht	880	1	!	1232	1	!	1326	0	0	0	0	0	0
2024-05-08	15:01:23	15:09:44	500723	6.6.1	4_exp_EVA_AWA_CON	19	B	A	Rpleas_acq	Same	Rpleas	2pleas	acq_US_unple_nomask	acq45_nomask	5	9	400	1	300	300	0	0	344	46	1	0	fair	helfen	schön	loyal	spielen	treu	faul	hindern	schlecht	lasch	strafen	tot	retten	ehrlich	tolerant	schlau	lachen	freundlich	rächen	eitel	tyrannisch	schroff	leiden	fanatisch	1	blank2r.bmp	0	1	+	0	1	blank2r.bmp	500	1	BMVZ	500	1	blank2r.bmp	880	1	faul	880	1	!	1232	1	!	1245	0	0	0	0	0	0
2024-05-08	15:01:23	15:09:47	502851	6.6.1	4_exp_EVA_AWA_CON	19	B	A	Rpleas_acq	Same	Rpleas	2pleas	acq_US_unple_nomask	acq45_nomask	5	10	400	1	300	300	0	0	351	50	0	0	fair	helfen	schön	loyal	spielen	treu	faul	hindern	schlecht	lasch	strafen	tot	retten	ehrlich	tolerant	schlau	lachen	freundlich	rächen	eitel	tyrannisch	schroff	leiden	fanatisch	1	blank2r.bmp	0	1	+	0	1	blank2r.bmp	500	1	BMVZ	500	1	blank2r.bmp	880	5	strafen	880	1	!	1233	1	!	1252	0	0	0	0	0	0
2024-05-08	15:01:23	15:09:49	505103	6.6.1	4_exp_EVA_AWA_CON	19	B	A	Rpleas_acq	Same	Rpleas	2pleas	acq_US_pleas_nomask	acq45_nomask	5	11	400	0	300	300	0	0	475	46	0	0	fair	helfen	schön	loyal	spielen	treu	faul	hindern	schlecht	lasch	strafen	tot	retten	ehrlich	tolerant	schlau	lachen	freundlich	rächen	eitel	tyrannisch	schroff	leiden	fanatisch	1	blank2r.bmp	0	1	+	0	1	blank2r.bmp	500	1	GKQX	500	1	blank2r.bmp	880	5	spielen	880	1	!	1232	1	!	-1	0	0	0	0	0	0
2024-05-08	15:01:23	15:09:51	507417	6.6.1	4_exp_EVA_AWA_CON	19	B	A	Rpleas_acq	Same	Rpleas	2pleas	acq_US_unple_nomask	acq45_nomask	5	12	400	0	300	300	0	0	536	46	1	0	fair	helfen	schön	loyal	spielen	treu	faul	hindern	schlecht	lasch	strafen	tot	retten	ehrlich	tolerant	schlau	lachen	freundlich	rächen	eitel	tyrannisch	schroff	leiden	fanatisch	1	blank2r.bmp	0	1	+	0	1	blank2r.bmp	500	1	BMVZ	500	1	blank2r.bmp	880	2	hindern	880	1	!	1232	1	!	-1	0	0	0	0	0	0
2024-05-08	15:01:23	15:09:53	509644	6.6.1	4_exp_EVA_AWA_CON	19	B	A	Rpleas_acq	Same	Rpleas	2pleas	acq_US_unple_nomask	acq45_nomask	5	13	400	1	300	300	0	0	448	46	1	0	fair	helfen	schön	loyal	spielen	treu	faul	hindern	schlecht	lasch	strafen	tot	retten	ehrlich	tolerant	schlau	lachen	freundlich	rächen	eitel	tyrannisch	schroff	leiden	fanatisch	1	blank2r.bmp	0	1	+	0	1	blank2r.bmp	500	1	BMVZ	500	1	blank2r.bmp	880	1	faul	880	1	!	1232	1	!	1349	0	0	0	0	0	0
2024-05-08	15:01:23	15:09:56	511937	6.6.1	4_exp_EVA_AWA_CON	19	B	A	Rpleas_acq	Same	Rpleas	2pleas	acq_US_unple_nomask	acq45_nomask	5	14	400	0	300	300	0	0	513	46	1	0	fair	helfen	schön	loyal	spielen	treu	faul	hindern	schlecht	lasch	strafen	tot	retten	ehrlich	tolerant	schlau	lachen	freundlich	rächen	eitel	tyrannisch	schroff	leiden	fanatisch	1	blank2r.bmp	0	1	+	0	1	blank2r.bmp	500	1	BMVZ	500	1	blank2r.bmp	880	6	tot	880	1	!	1232	1	!	-1	0	0	0	0	0	0
2024-05-08	15:01:23	15:09:58	514163	6.6.1	4_exp_EVA_AWA_CON	19	B	A	Rpleas_acq	Same	Rpleas	2pleas	acq_US_pleas_nomask	acq45_nomask	5	15	400	1	300	300	0	0	445	50	1	0	fair	helfen	schön	loyal	spielen	treu	faul	hindern	schlecht	lasch	strafen	tot	retten	ehrlich	tolerant	schlau	lachen	freundlich	rächen	eitel	tyrannisch	schroff	leiden	fanatisch	1	blank2r.bmp	0	1	+	0	1	blank2r.bmp	500	1	GKQX	500	1	blank2r.bmp	880	2	helfen	880	1	!	1232	1	!	1346	0	0	0	0	0	0
2024-05-08	15:01:23	15:10:00	516323	6.6.1	4_exp_EVA_AWA_CON	19	B	A	Rpleas_acq	Same	Rpleas	2pleas	acq_US_pleas_nomask	acq45_nomask	5	16	400	1	300	300	0	0	384	50	1	0	fair	helfen	schön	loyal	spielen	treu	faul	hindern	schlecht	lasch	strafen	tot	retten	ehrlich	tolerant	schlau	lachen	freundlich	rächen	eitel	tyrannisch	schroff	leiden	fanatisch	1	blank2r.bmp	0	1	+	0	1	blank2r.bmp	500	1	GKQX	500	1	blank2r.bmp	880	3	schön	880	1	!	1232	1	!	1285	0	0	0	0	0	0
2024-05-08	15:01:23	15:10:02	518500	6.6.1	4_exp_EVA_AWA_CON	19	B	A	Rpleas_acq	Same	Rpleas	2pleas	acq_US_pleas_nomask	acq45_nomask	5	17	400	1	300	300	0	0	399	50	1	0	fair	helfen	schön	loyal	spielen	treu	faul	hindern	schlecht	lasch	strafen	tot	retten	ehrlich	tolerant	schlau	lachen	freundlich	rächen	eitel	tyrannisch	schroff	leiden	fanatisch	1	blank2r.bmp	0	1	+	0	1	blank2r.bmp	500	1	GKQX	500	1	blank2r.bmp	880	1	fair	880	1	!	1232	1	!	1300	0	0	0	0	0	0
2024-05-08	15:01:23	15:10:04	520707	6.6.1	4_exp_EVA_AWA_CON	19	B	A	Rpleas_acq	Same	Rpleas	2pleas	acq_US_unple_nomask	acq45_nomask	5	18	400	1	300	300	0	0	425	46	1	0	fair	helfen	schön	loyal	spielen	treu	faul	hindern	schlecht	lasch	strafen	tot	retten	ehrlich	tolerant	schlau	lachen	freundlich	rächen	eitel	tyrannisch	schroff	leiden	fanatisch	1	blank2r.bmp	0	1	+	0	1	blank2r.bmp	500	1	BMVZ	500	1	blank2r.bmp	880	5	strafen	880	1	!	1232	1	!	1326	0	0	0	0	0	0
2024-05-08	15:01:23	15:10:07	522875	6.6.1	4_exp_EVA_AWA_CON	19	B	A	Rpleas_acq	Same	Rpleas	2pleas	acq_US_unple_nomask	acq45_nomask	5	19	400	1	300	300	0	0	392	46	1	0	fair	helfen	schön	loyal	spielen	treu	faul	hindern	schlecht	lasch	strafen	tot	retten	ehrlich	tolerant	schlau	lachen	freundlich	rächen	eitel	tyrannisch	schroff	leiden	fanatisch	1	blank2r.bmp	0	1	+	0	1	blank2r.bmp	500	1	BMVZ	500	1	blank2r.bmp	880	2	hindern	880	1	!	1232	1	!	1293	0	0	0	0	0	0
2024-05-08	15:01:23	15:10:09	525067	6.6.1	4_exp_EVA_AWA_CON	19	B	A	Rpleas_acq	Same	Rpleas	2pleas	acq_US_pleas_nomask	acq45_nomask	5	20	400	1	300	300	0	0	412	50	1	0	fair	helfen	schön	loyal	spielen	treu	faul	hindern	schlecht	lasch	strafen	tot	retten	ehrlich	tolerant	schlau	lachen	freundlich	rächen	eitel	tyrannisch	schroff	leiden	fanatisch	1	blank2r.bmp	0	1	+	0	1	blank2r.bmp	500	1	GKQX	500	1	blank2r.bmp	880	5	spielen	880	1	!	1233	1	!	1313	0	0	0	0	0	0
2024-05-08	15:01:23	15:10:11	527251	6.6.1	4_exp_EVA_AWA_CON	19	B	A	Rpleas_acq	Same	Rpleas	2pleas	acq_US_unple_nomask	acq45_nomask	5	21	400	1	300	300	0	0	405	46	1	0	fair	helfen	schön	loyal	spielen	treu	faul	hindern	schlecht	lasch	strafen	tot	retten	ehrlich	tolerant	schlau	lachen	freundlich	rächen	eitel	tyrannisch	schroff	leiden	fanatisch	1	blank2r.bmp	0	1	+	0	1	blank2r.bmp	500	1	BMVZ	500	1	blank2r.bmp	880	3	schlecht	880	1	!	1232	1	!	1306	0	0	0	0	0	0
2024-05-08	15:01:23	15:10:13	529483	6.6.1	4_exp_EVA_AWA_CON	19	B	A	Rpleas_acq	Same	Rpleas	2pleas	acq_US_unple_nomask	acq45_nomask	5	22	400	1	300	300	0	0	455	46	1	0	fair	helfen	schön	loyal	spielen	treu	faul	hindern	schlecht	lasch	strafen	tot	retten	ehrlich	tolerant	schlau	lachen	freundlich	rächen	eitel	tyrannisch	schroff	leiden	fanatisch	1	blank2r.bmp	0	1	+	0	1	blank2r.bmp	500	1	BMVZ	500	1	blank2r.bmp	880	4	lasch	880	1	!	1232	1	!	1357	0	0	0	0	0	0
2024-05-08	15:01:23	15:10:15	531675	6.6.1	4_exp_EVA_AWA_CON	19	B	A	Rpleas_acq	Same	Rpleas	2pleas	acq_US_pleas_nomask	acq45_nomask	5	23	400	1	300	300	0	0	416	50	1	0	fair	helfen	schön	loyal	spielen	treu	faul	hindern	schlecht	lasch	strafen	tot	retten	ehrlich	tolerant	schlau	lachen	freundlich	rächen	eitel	tyrannisch	schroff	leiden	fanatisch	1	blank2r.bmp	0	1	+	0	1	blank2r.bmp	500	1	GKQX	500	1	blank2r.bmp	880	4	loyal	880	1	!	1232	1	!	1317	0	0	0	0	0	0
2024-05-08	15:01:23	15:10:18	533891	6.6.1	4_exp_EVA_AWA_CON	19	B	A	Rpleas_acq	Same	Rpleas	2pleas	acq_US_pleas_nomask	acq45_nomask	5	24	400	1	300	300	0	0	441	50	1	0	fair	helfen	schön	loyal	spielen	treu	faul	hindern	schlecht	lasch	strafen	tot	retten	ehrlich	tolerant	schlau	lachen	freundlich	rächen	eitel	tyrannisch	schroff	leiden	fanatisch	1	blank2r.bmp	0	1	+	0	1	blank2r.bmp	500	1	GKQX	500	1	blank2r.bmp	880	6	treu	880	1	!	1232	1	!	1342	0	0	0	0	0	0
2024-05-08	15:01:23	15:10:20	536075	6.6.1	4_exp_EVA_AWA_CON	19	B	A	Rpleas_acq	Same	Rpleas	2pleas	acq_US_unple_nomask	acq45_nomask	5	25	400	1	300	300	0	0	403	46	1	0	fair	helfen	schön	loyal	spielen	treu	faul	hindern	schlecht	lasch	strafen	tot	retten	ehrlich	tolerant	schlau	lachen	freundlich	rächen	eitel	tyrannisch	schroff	leiden	fanatisch	1	blank2r.bmp	0	1	+	0	1	blank2r.bmp	500	1	BMVZ	500	1	blank2r.bmp	880	4	lasch	880	1	!	1232	1	!	1304	0	0	0	0	0	0
2024-05-08	15:01:23	15:10:22	538219	6.6.1	4_exp_EVA_AWA_CON	19	B	A	Rpleas_acq	Same	Rpleas	2pleas	acq_US_unple_nomask	acq45_nomask	5	26	400	1	300	300	0	0	366	46	1	0	fair	helfen	schön	loyal	spielen	treu	faul	hindern	schlecht	lasch	strafen	tot	retten	ehrlich	tolerant	schlau	lachen	freundlich	rächen	eitel	tyrannisch	schroff	leiden	fanatisch	1	blank2r.bmp	0	1	+	0	1	blank2r.bmp	500	1	BMVZ	500	1	blank2r.bmp	880	5	strafen	880	1	!	1232	1	!	1267	0	0	0	0	0	0
2024-05-08	15:01:23	15:10:24	540419	6.6.1	4_exp_EVA_AWA_CON	19	B	A	Rpleas_acq	Same	Rpleas	2pleas	acq_US_unple_nomask	acq45_nomask	5	27	400	1	300	300	0	0	424	46	1	0	fair	helfen	schön	loyal	spielen	treu	faul	hindern	schlecht	lasch	strafen	tot	retten	ehrlich	tolerant	schlau	lachen	freundlich	rächen	eitel	tyrannisch	schroff	leiden	fanatisch	1	blank2r.bmp	0	1	+	0	1	blank2r.bmp	500	1	BMVZ	500	1	blank2r.bmp	880	3	schlecht	880	1	!	1232	1	!	1326	0	0	0	0	0	0
2024-05-08	15:01:23	15:10:26	542537	6.6.1	4_exp_EVA_AWA_CON	19	B	A	Rpleas_acq	Same	Rpleas	2pleas	acq_US_pleas_nomask	acq45_nomask	5	28	400	1	300	300	0	0	343	50	1	0	fair	helfen	schön	loyal	spielen	treu	faul	hindern	schlecht	lasch	strafen	tot	retten	ehrlich	tolerant	schlau	lachen	freundlich	rächen	eitel	tyrannisch	schroff	leiden	fanatisch	1	blank2r.bmp	0	1	+	0	1	blank2r.bmp	500	1	GKQX	500	1	blank2r.bmp	880	2	helfen	880	1	!	1232	1	!	1243	0	0	0	0	0	0
2024-05-08	15:01:23	15:10:29	544763	6.6.1	4_exp_EVA_AWA_CON	19	B	A	Rpleas_acq	Same	Rpleas	2pleas	acq_US_pleas_nomask	acq45_nomask	5	29	400	1	300	300	0	0	446	50	1	0	fair	helfen	schön	loyal	spielen	treu	faul	hindern	schlecht	lasch	strafen	tot	retten	ehrlich	tolerant	schlau	lachen	freundlich	rächen	eitel	tyrannisch	schroff	leiden	fanatisch	1	blank2r.bmp	0	1	+	0	1	blank2r.bmp	500	1	GKQX	500	1	blank2r.bmp	880	5	spielen	880	1	!	1232	1	!	1347	0	0	0	0	0	0
2024-05-08	15:01:23	15:10:31	547003	6.6.1	4_exp_EVA_AWA_CON	19	B	A	Rpleas_acq	Same	Rpleas	2pleas	acq_US_pleas_nomask	acq45_nomask	5	30	400	1	300	300	0	0	464	50	1	0	fair	helfen	schön	loyal	spielen	treu	faul	hindern	schlecht	lasch	strafen	tot	retten	ehrlich	tolerant	schlau	lachen	freundlich	rächen	eitel	tyrannisch	schroff	leiden	fanatisch	1	blank2r.bmp	0	1	+	0	1	blank2r.bmp	500	1	GKQX	500	1	blank2r.bmp	880	4	loyal	880	1	!	1232	1	!	1365	0	0	0	0	0	0
2024-05-08	15:01:23	15:10:33	549195	6.6.1	4_exp_EVA_AWA_CON	19	B	A	Rpleas_acq	Same	Rpleas	2pleas	acq_US_unple_nomask	acq45_nomask	5	31	400	1	300	300	0	0	415	46	1	0	fair	helfen	schön	loyal	spielen	treu	faul	hindern	schlecht	lasch	strafen	tot	retten	ehrlich	tolerant	schlau	lachen	freundlich	rächen	eitel	tyrannisch	schroff	leiden	fanatisch	1	blank2r.bmp	0	1	+	0	1	blank2r.bmp	500	1	BMVZ	500	1	blank2r.bmp	880	2	hindern	880	1	!	1232	1	!	1316	0	0	0	0	0	0
2024-05-08	15:01:23	15:10:35	551395	6.6.1	4_exp_EVA_AWA_CON	19	B	A	Rpleas_acq	Same	Rpleas	2pleas	acq_US_pleas_nomask	acq45_nomask	5	32	400	1	300	300	0	0	423	50	1	0	fair	helfen	schön	loyal	spielen	treu	faul	hindern	schlecht	lasch	strafen	tot	retten	ehrlich	tolerant	schlau	lachen	freundlich	rächen	eitel	tyrannisch	schroff	leiden	fanatisch	1	blank2r.bmp	0	1	+	0	1	blank2r.bmp	500	1	GKQX	500	1	blank2r.bmp	880	1	fair	880	1	!	1232	1	!	1325	0	0	0	0	0	0
2024-05-08	15:01:23	15:10:37	553729	6.6.1	4_exp_EVA_AWA_CON	19	B	A	Rpleas_acq	Same	Rpleas	2pleas	acq_US_pleas_nomask	acq45_nomask	5	33	400	0	300	300	0	0	558	50	1	0	fair	helfen	schön	loyal	spielen	treu	faul	hindern	schlecht	lasch	strafen	tot	retten	ehrlich	tolerant	schlau	lachen	freundlich	rächen	eitel	tyrannisch	schroff	leiden	fanatisch	1	blank2r.bmp	0	1	+	0	1	blank2r.bmp	500	1	GKQX	500	1	blank2r.bmp	880	6	treu	880	1	!	1232	1	!	-1	0	0	0	0	0	0
2024-05-08	15:01:23	15:10:40	556017	6.6.1	4_exp_EVA_AWA_CON	19	B	A	Rpleas_acq	Same	Rpleas	2pleas	acq_US_unple_nomask	acq45_nomask	5	34	400	0	300	300	0	0	515	46	1	0	fair	helfen	schön	loyal	spielen	treu	faul	hindern	schlecht	lasch	strafen	tot	retten	ehrlich	tolerant	schlau	lachen	freundlich	rächen	eitel	tyrannisch	schroff	leiden	fanatisch	1	blank2r.bmp	0	1	+	0	1	blank2r.bmp	500	1	BMVZ	500	1	blank2r.bmp	880	1	faul	880	1	!	1232	1	!	-1	0	0	0	0	0	0
2024-05-08	15:01:23	15:10:42	558329	6.6.1	4_exp_EVA_AWA_CON	19	B	A	Rpleas_acq	Same	Rpleas	2pleas	acq_US_pleas_nomask	acq45_nomask	5	35	400	0	300	300	0	0	535	50	1	0	fair	helfen	schön	loyal	spielen	treu	faul	hindern	schlecht	lasch	strafen	tot	retten	ehrlich	tolerant	schlau	lachen	freundlich	rächen	eitel	tyrannisch	schroff	leiden	fanatisch	1	blank2r.bmp	0	1	+	0	1	blank2r.bmp	500	1	GKQX	500	1	blank2r.bmp	880	3	schön	880	1	!	1232	1	!	-1	0	0	0	0	0	0
2024-05-08	15:01:23	15:10:44	560641	6.6.1	4_exp_EVA_AWA_CON	19	B	A	Rpleas_acq	Same	Rpleas	2pleas	acq_US_unple_nomask	acq45_nomask	5	36	400	0	300	300	0	0	536	46	1	0	fair	helfen	schön	loyal	spielen	treu	faul	hindern	schlecht	lasch	strafen	tot	retten	ehrlich	tolerant	schlau	lachen	freundlich	rächen	eitel	tyrannisch	schroff	leiden	fanatisch	1	blank2r.bmp	0	1	+	0	1	blank2r.bmp	500	1	BMVZ	500	1	blank2r.bmp	880	6	tot	880	1	!	1232	1	!	-1	0	0	0	0	0	0
2024-05-08	15:01:23	15:11:14	590077	6.6.1	4_exp_EVA_AWA_CON	19	B	A	Rpleas_acq	Same	Rpleas	2pleas	EvalRating_firsttwo	EvalRating_firsttwo	6	1	0	0	300	300	0	0	5297	line	0	-35,9375pct	fair	helfen	schön	loyal	spielen	treu	faul	hindern	schlecht	lasch	strafen	tot	retten	ehrlich	tolerant	schlau	lachen	freundlich	rächen	eitel	tyrannisch	schroff	leiden	fanatisch	1		-7	1	Wie angenehm oder unangenehm finden Sie die  Buchstabenkette ZGVK?	-7	1		-7	1		-7	1		-7	1	Unangenehm	-7	1	Angenehm	-7	0	0	0	0	0	0	0	0	0
2024-05-08	15:01:23	15:11:19	595734	6.6.1	4_exp_EVA_AWA_CON	19	B	A	Rpleas_acq	Same	Rpleas	2pleas	EvalRating_lastfour	EvalRating_lastfour	7	1	0	0	300	300	0	0	3278	line	0	9,1145833333333428072pct	fair	helfen	schön	loyal	spielen	treu	faul	hindern	schlecht	lasch	strafen	tot	retten	ehrlich	tolerant	schlau	lachen	freundlich	rächen	eitel	tyrannisch	schroff	leiden	fanatisch	1		-8	3	Wie angenehm oder unangenehm finden Sie die  Buchstabenkette XBQM?	-8	1		-8	1		-8	1		-8	1	Unangenehm	-8	1	Angenehm	-8	0	0	0	0	0	0	0	0	0
2024-05-08	15:01:23	15:11:22	598102	6.6.1	4_exp_EVA_AWA_CON	19	B	A	Rpleas_acq	Same	Rpleas	2pleas	blank_screen	EvalRating_lastfour	7	3	0	0	300	300	0	0	0	0	0	9,1145833333333428072pct	fair	helfen	schön	loyal	spielen	treu	faul	hindern	schlecht	lasch	strafen	tot	retten	ehrlich	tolerant	schlau	lachen	freundlich	rächen	eitel	tyrannisch	schroff	leiden	fanatisch	1		-8	0	0	0	0	0	0	0	0	0	0	0	0	0	0	0	0	0	0	0	0	0	0	0	0	0	0	0
2024-05-08	15:01:23	15:11:26	602094	6.6.1	4_exp_EVA_AWA_CON	19	B	A	Rpleas_acq	Same	Rpleas	2pleas	EvalRating_lastfour	EvalRating_lastfour	7	4	0	0	300	300	0	0	3404	line	0	-2,4739583333333285964pct	fair	helfen	schön	loyal	spielen	treu	faul	hindern	schlecht	lasch	strafen	tot	retten	ehrlich	tolerant	schlau	lachen	freundlich	rächen	eitel	tyrannisch	schroff	leiden	fanatisch	1		-8	2	Wie angenehm oder unangenehm finden Sie die  Buchstabenkette GKQX?	-8	1		-8	1		-8	1		-8	1	Unangenehm	-8	1	Angenehm	-8	0	0	0	0	0	0	0	0	0
2024-05-08	15:01:23	15:11:28	604466	6.6.1	4_exp_EVA_AWA_CON	19	B	A	Rpleas_acq	Same	Rpleas	2pleas	blank_screen	EvalRating_lastfour	7	6	0	0	300	300	0	0	0	0	0	-2,4739583333333285964pct	fair	helfen	schön	loyal	spielen	treu	faul	hindern	schlecht	lasch	strafen	tot	retten	ehrlich	tolerant	schlau	lachen	freundlich	rächen	eitel	tyrannisch	schroff	leiden	fanatisch	1		-8	0	0	0	0	0	0	0	0	0	0	0	0	0	0	0	0	0	0	0	0	0	0	0	0	0	0	0
2024-05-08	15:01:23	15:11:33	609430	6.6.1	4_exp_EVA_AWA_CON	19	B	A	Rpleas_acq	Same	Rpleas	2pleas	EvalRating_lastfour	EvalRating_lastfour	7	7	0	0	300	300	0	0	4376	line	0	-17,0572916666666571928pct	fair	helfen	schön	loyal	spielen	treu	faul	hindern	schlecht	lasch	strafen	tot	retten	ehrlich	tolerant	schlau	lachen	freundlich	rächen	eitel	tyrannisch	schroff	leiden	fanatisch	1		-8	1	Wie angenehm oder unangenehm finden Sie die  Buchstabenkette BMVZ?	-8	1		-8	1		-8	1		-8	1	Unangenehm	-8	1	Angenehm	-8	0	0	0	0	0	0	0	0	0
2024-05-08	15:01:23	15:12:13	649673	6.6.1	4_exp_EVA_AWA_CON	19	B	A	Rpleas_acq	Same	Rpleas	2pleas	conawa_CS1_US5	conawa1_nomask	8	1	0	0	300	300	0	0	10084	lachen	1	-17,0572916666666571928pct	fair	helfen	schön	loyal	spielen	treu	faul	hindern	schlecht	lasch	strafen	tot	retten	ehrlich	tolerant	schlau	lachen	freundlich	rächen	eitel	tyrannisch	schroff	leiden	fanatisch	0	0	0	0	0	0	0	0	0	0	0	0	0	0	0	0	0	0	0	0	0	0	0	0	0	0	0	0	0	0
2024-05-08	15:01:23	15:12:13	649675	6.6.1	4_exp_EVA_AWA_CON	19	B	A	Rpleas_acq	Same	Rpleas	2pleas	conawa_CS1_US5_confidence	conawa1_nomask	8	1	0	0	300	300	0	0	10084	probably	1	-17,0572916666666571928pct	fair	helfen	schön	loyal	spielen	treu	faul	hindern	schlecht	lasch	strafen	tot	retten	ehrlich	tolerant	schlau	lachen	freundlich	rächen	eitel	tyrannisch	schroff	leiden	fanatisch	0	0	0	0	0	0	0	0	0	0	0	0	0	0	0	0	0	0	0	0	0	0	0	0	0	0	0	0	0	0
2024-05-08	15:01:23	15:12:21	657748	6.6.1	4_exp_EVA_AWA_CON	19	B	A	Rpleas_acq	Same	Rpleas	2pleas	conawa_CS2_US1	conawa1_nomask	8	2	0	0	300	300	0	0	7452	eitel	1	-17,0572916666666571928pct	fair	helfen	schön	loyal	spielen	treu	faul	hindern	schlecht	lasch	strafen	tot	retten	ehrlich	tolerant	schlau	lachen	freundlich	rächen	eitel	tyrannisch	schroff	leiden	fanatisch	0	0	0	0	0	0	0	0	0	0	0	0	0	0	0	0	0	0	0	0	0	0	0	0	0	0	0	0	0	0
2024-05-08	15:01:23	15:12:21	657755	6.6.1	4_exp_EVA_AWA_CON	19	B	A	Rpleas_acq	Same	Rpleas	2pleas	conawa_CS2_US1_confidence	conawa1_nomask	8	2	0	0	300	300	0	0	7452	probably	1	-17,0572916666666571928pct	fair	helfen	schön	loyal	spielen	treu	faul	hindern	schlecht	lasch	strafen	tot	retten	ehrlich	tolerant	schlau	lachen	freundlich	rächen	eitel	tyrannisch	schroff	leiden	fanatisch	0	0	0	0	0	0	0	0	0	0	0	0	0	0	0	0	0	0	0	0	0	0	0	0	0	0	0	0	0	0
2024-05-08	15:01:23	15:12:31	667024	6.6.1	4_exp_EVA_AWA_CON	19	B	A	Rpleas_acq	Same	Rpleas	2pleas	conawa_CS1_US6	conawa1_nomask	8	3	0	0	300	300	0	0	8659	freundlich	1	-17,0572916666666571928pct	fair	helfen	schön	loyal	spielen	treu	faul	hindern	schlecht	lasch	strafen	tot	retten	ehrlich	tolerant	schlau	lachen	freundlich	rächen	eitel	tyrannisch	schroff	leiden	fanatisch	0	0	0	0	0	0	0	0	0	0	0	0	0	0	0	0	0	0	0	0	0	0	0	0	0	0	0	0	0	0
2024-05-08	15:01:23	15:12:31	667026	6.6.1	4_exp_EVA_AWA_CON	19	B	A	Rpleas_acq	Same	Rpleas	2pleas	conawa_CS1_US6_confidence	conawa1_nomask	8	3	0	0	300	300	0	0	8659	probably	1	-17,0572916666666571928pct	fair	helfen	schön	loyal	spielen	treu	faul	hindern	schlecht	lasch	strafen	tot	retten	ehrlich	tolerant	schlau	lachen	freundlich	rächen	eitel	tyrannisch	schroff	leiden	fanatisch	0	0	0	0	0	0	0	0	0	0	0	0	0	0	0	0	0	0	0	0	0	0	0	0	0	0	0	0	0	0
2024-05-08	15:01:23	15:12:41	677551	6.6.1	4_exp_EVA_AWA_CON	19	B	A	Rpleas_acq	Same	Rpleas	2pleas	conawa_CS2_US2	conawa1_nomask	8	4	0	0	300	300	0	0	9910	tyrannisch	1	-17,0572916666666571928pct	fair	helfen	schön	loyal	spielen	treu	faul	hindern	schlecht	lasch	strafen	tot	retten	ehrlich	tolerant	schlau	lachen	freundlich	rächen	eitel	tyrannisch	schroff	leiden	fanatisch	0	0	0	0	0	0	0	0	0	0	0	0	0	0	0	0	0	0	0	0	0	0	0	0	0	0	0	0	0	0
2024-05-08	15:01:23	15:12:41	677553	6.6.1	4_exp_EVA_AWA_CON	19	B	A	Rpleas_acq	Same	Rpleas	2pleas	conawa_CS2_US2_confidence	conawa1_nomask	8	4	0	0	300	300	0	0	9910	probably	1	-17,0572916666666571928pct	fair	helfen	schön	loyal	spielen	treu	faul	hindern	schlecht	lasch	strafen	tot	retten	ehrlich	tolerant	schlau	lachen	freundlich	rächen	eitel	tyrannisch	schroff	leiden	fanatisch	0	0	0	0	0	0	0	0	0	0	0	0	0	0	0	0	0	0	0	0	0	0	0	0	0	0	0	0	0	0
2024-05-08	15:01:23	15:12:50	686657	6.6.1	4_exp_EVA_AWA_CON	19	B	A	Rpleas_acq	Same	Rpleas	2pleas	conawa_CS2_US5	conawa1_nomask	8	5	0	0	300	300	0	0	8488	spielen	1	-17,0572916666666571928pct	fair	helfen	schön	loyal	spielen	treu	faul	hindern	schlecht	lasch	strafen	tot	retten	ehrlich	tolerant	schlau	lachen	freundlich	rächen	eitel	tyrannisch	schroff	leiden	fanatisch	0	0	0	0	0	0	0	0	0	0	0	0	0	0	0	0	0	0	0	0	0	0	0	0	0	0	0	0	0	0
2024-05-08	15:01:23	15:12:50	686659	6.6.1	4_exp_EVA_AWA_CON	19	B	A	Rpleas_acq	Same	Rpleas	2pleas	conawa_CS2_US5_confidence	conawa1_nomask	8	5	0	0	300	300	0	0	8488	probably	1	-17,0572916666666571928pct	fair	helfen	schön	loyal	spielen	treu	faul	hindern	schlecht	lasch	strafen	tot	retten	ehrlich	tolerant	schlau	lachen	freundlich	rächen	eitel	tyrannisch	schroff	leiden	fanatisch	0	0	0	0	0	0	0	0	0	0	0	0	0	0	0	0	0	0	0	0	0	0	0	0	0	0	0	0	0	0
2024-05-08	15:01:23	15:12:59	694972	6.6.1	4_exp_EVA_AWA_CON	19	B	A	Rpleas_acq	Same	Rpleas	2pleas	conawa_CS1_US1	conawa1_nomask	8	6	0	0	300	300	0	0	7703	faul	1	-17,0572916666666571928pct	fair	helfen	schön	loyal	spielen	treu	faul	hindern	schlecht	lasch	strafen	tot	retten	ehrlich	tolerant	schlau	lachen	freundlich	rächen	eitel	tyrannisch	schroff	leiden	fanatisch	0	0	0	0	0	0	0	0	0	0	0	0	0	0	0	0	0	0	0	0	0	0	0	0	0	0	0	0	0	0
2024-05-08	15:01:23	15:12:59	694974	6.6.1	4_exp_EVA_AWA_CON	19	B	A	Rpleas_acq	Same	Rpleas	2pleas	conawa_CS1_US1_confidence	conawa1_nomask	8	6	0	0	300	300	0	0	7703	probably	1	-17,0572916666666571928pct	fair	helfen	schön	loyal	spielen	treu	faul	hindern	schlecht	lasch	strafen	tot	retten	ehrlich	tolerant	schlau	lachen	freundlich	rächen	eitel	tyrannisch	schroff	leiden	fanatisch	0	0	0	0	0	0	0	0	0	0	0	0	0	0	0	0	0	0	0	0	0	0	0	0	0	0	0	0	0	0
2024-05-08	15:01:23	15:13:04	700275	6.6.1	4_exp_EVA_AWA_CON	19	B	A	Rpleas_acq	Same	Rpleas	2pleas	conawa_CS2_US6	conawa1_nomask	8	7	0	0	300	300	0	0	4692	treu	1	-17,0572916666666571928pct	fair	helfen	schön	loyal	spielen	treu	faul	hindern	schlecht	lasch	strafen	tot	retten	ehrlich	tolerant	schlau	lachen	freundlich	rächen	eitel	tyrannisch	schroff	leiden	fanatisch	0	0	0	0	0	0	0	0	0	0	0	0	0	0	0	0	0	0	0	0	0	0	0	0	0	0	0	0	0	0
2024-05-08	15:01:23	15:13:04	700277	6.6.1	4_exp_EVA_AWA_CON	19	B	A	Rpleas_acq	Same	Rpleas	2pleas	conawa_CS2_US6_confidence	conawa1_nomask	8	7	0	0	300	300	0	0	4692	probably	1	-17,0572916666666571928pct	fair	helfen	schön	loyal	spielen	treu	faul	hindern	schlecht	lasch	strafen	tot	retten	ehrlich	tolerant	schlau	lachen	freundlich	rächen	eitel	tyrannisch	schroff	leiden	fanatisch	0	0	0	0	0	0	0	0	0	0	0	0	0	0	0	0	0	0	0	0	0	0	0	0	0	0	0	0	0	0
2024-05-08	15:01:23	15:13:10	706619	6.6.1	4_exp_EVA_AWA_CON	19	B	A	Rpleas_acq	Same	Rpleas	2pleas	conawa_CS2_US4	conawa1_nomask	8	8	0	0	300	300	0	0	5732	lasch	1	-17,0572916666666571928pct	fair	helfen	schön	loyal	spielen	treu	faul	hindern	schlecht	lasch	strafen	tot	retten	ehrlich	tolerant	schlau	lachen	freundlich	rächen	eitel	tyrannisch	schroff	leiden	fanatisch	0	0	0	0	0	0	0	0	0	0	0	0	0	0	0	0	0	0	0	0	0	0	0	0	0	0	0	0	0	0
2024-05-08	15:01:23	15:13:10	706621	6.6.1	4_exp_EVA_AWA_CON	19	B	A	Rpleas_acq	Same	Rpleas	2pleas	conawa_CS2_US4_confidence	conawa1_nomask	8	8	0	0	300	300	0	0	5732	probably	1	-17,0572916666666571928pct	fair	helfen	schön	loyal	spielen	treu	faul	hindern	schlecht	lasch	strafen	tot	retten	ehrlich	tolerant	schlau	lachen	freundlich	rächen	eitel	tyrannisch	schroff	leiden	fanatisch	0	0	0	0	0	0	0	0	0	0	0	0	0	0	0	0	0	0	0	0	0	0	0	0	0	0	0	0	0	0
2024-05-08	15:01:23	15:13:18	714134	6.6.1	4_exp_EVA_AWA_CON	19	B	A	Rpleas_acq	Same	Rpleas	2pleas	conawa_CS2_US3	conawa1_nomask	8	9	0	0	300	300	0	0	6900	schlau	1	-17,0572916666666571928pct	fair	helfen	schön	loyal	spielen	treu	faul	hindern	schlecht	lasch	strafen	tot	retten	ehrlich	tolerant	schlau	lachen	freundlich	rächen	eitel	tyrannisch	schroff	leiden	fanatisch	0	0	0	0	0	0	0	0	0	0	0	0	0	0	0	0	0	0	0	0	0	0	0	0	0	0	0	0	0	0
2024-05-08	15:01:23	15:13:18	714136	6.6.1	4_exp_EVA_AWA_CON	19	B	A	Rpleas_acq	Same	Rpleas	2pleas	conawa_CS2_US3_confidence	conawa1_nomask	8	9	0	0	300	300	0	0	6900	probably	1	-17,0572916666666571928pct	fair	helfen	schön	loyal	spielen	treu	faul	hindern	schlecht	lasch	strafen	tot	retten	ehrlich	tolerant	schlau	lachen	freundlich	rächen	eitel	tyrannisch	schroff	leiden	fanatisch	0	0	0	0	0	0	0	0	0	0	0	0	0	0	0	0	0	0	0	0	0	0	0	0	0	0	0	0	0	0
2024-05-08	15:01:23	15:13:23	719558	6.6.1	4_exp_EVA_AWA_CON	19	B	A	Rpleas_acq	Same	Rpleas	2pleas	conawa_CS1_US3	conawa1_nomask	8	10	0	0	300	300	0	0	4809	tolerant	1	-17,0572916666666571928pct	fair	helfen	schön	loyal	spielen	treu	faul	hindern	schlecht	lasch	strafen	tot	retten	ehrlich	tolerant	schlau	lachen	freundlich	rächen	eitel	tyrannisch	schroff	leiden	fanatisch	0	0	0	0	0	0	0	0	0	0	0	0	0	0	0	0	0	0	0	0	0	0	0	0	0	0	0	0	0	0
2024-05-08	15:01:23	15:13:23	719560	6.6.1	4_exp_EVA_AWA_CON	19	B	A	Rpleas_acq	Same	Rpleas	2pleas	conawa_CS1_US3_confidence	conawa1_nomask	8	10	0	0	300	300	0	0	4809	probably	1	-17,0572916666666571928pct	fair	helfen	schön	loyal	spielen	treu	faul	hindern	schlecht	lasch	strafen	tot	retten	ehrlich	tolerant	schlau	lachen	freundlich	rächen	eitel	tyrannisch	schroff	leiden	fanatisch	0	0	0	0	0	0	0	0	0	0	0	0	0	0	0	0	0	0	0	0	0	0	0	0	0	0	0	0	0	0
2024-05-08	15:01:23	15:13:28	723820	6.6.1	4_exp_EVA_AWA_CON	19	B	A	Rpleas_acq	Same	Rpleas	2pleas	conawa_CS1_US2	conawa1_nomask	8	11	0	0	300	300	0	0	3650	hindern	1	-17,0572916666666571928pct	fair	helfen	schön	loyal	spielen	treu	faul	hindern	schlecht	lasch	strafen	tot	retten	ehrlich	tolerant	schlau	lachen	freundlich	rächen	eitel	tyrannisch	schroff	leiden	fanatisch	0	0	0	0	0	0	0	0	0	0	0	0	0	0	0	0	0	0	0	0	0	0	0	0	0	0	0	0	0	0
2024-05-08	15:01:23	15:13:28	723823	6.6.1	4_exp_EVA_AWA_CON	19	B	A	Rpleas_acq	Same	Rpleas	2pleas	conawa_CS1_US2_confidence	conawa1_nomask	8	11	0	0	300	300	0	0	3650	probably	1	-17,0572916666666571928pct	fair	helfen	schön	loyal	spielen	treu	faul	hindern	schlecht	lasch	strafen	tot	retten	ehrlich	tolerant	schlau	lachen	freundlich	rächen	eitel	tyrannisch	schroff	leiden	fanatisch	0	0	0	0	0	0	0	0	0	0	0	0	0	0	0	0	0	0	0	0	0	0	0	0	0	0	0	0	0	0
2024-05-08	15:01:23	15:13:33	729094	6.6.1	4_exp_EVA_AWA_CON	19	B	A	Rpleas_acq	Same	Rpleas	2pleas	conawa_CS1_US4	conawa1_nomask	8	12	0	0	300	300	0	0	4659	loyal	1	-17,0572916666666571928pct	fair	helfen	schön	loyal	spielen	treu	faul	hindern	schlecht	lasch	strafen	tot	retten	ehrlich	tolerant	schlau	lachen	freundlich	rächen	eitel	tyrannisch	schroff	leiden	fanatisch	0	0	0	0	0	0	0	0	0	0	0	0	0	0	0	0	0	0	0	0	0	0	0	0	0	0	0	0	0	0
2024-05-08	15:01:23	15:13:33	729096	6.6.1	4_exp_EVA_AWA_CON	19	B	A	Rpleas_acq	Same	Rpleas	2pleas	conawa_CS1_US4_confidence	conawa1_nomask	8	12	0	0	300	300	0	0	4659	probably	1	-17,0572916666666571928pct	fair	helfen	schön	loyal	spielen	treu	faul	hindern	schlecht	lasch	strafen	tot	retten	ehrlich	tolerant	schlau	lachen	freundlich	rächen	eitel	tyrannisch	schroff	leiden	fanatisch	0	0	0	0	0	0	0	0	0	0	0	0	0	0	0	0	0	0	0	0	0	0	0	0	0	0	0	0	0	0
2024-05-08	15:01:23	15:14:49	805577	6.6.1	4_exp_EVA_AWA_CON	19	B	A	Rpleas_acq	Same	Rpleas	2pleas	cond_new_unple_456_nomask_CS2	condtest_nomask_1	11	1	400	0	300	300	0	0	544	46	1	-17,0572916666666571928pct	fair	helfen	schön	loyal	spielen	treu	faul	hindern	schlecht	lasch	strafen	tot	retten	ehrlich	tolerant	schlau	lachen	freundlich	rächen	eitel	tyrannisch	schroff	leiden	fanatisch	1	blank2r.bmp	0	1	+	0	1	blank2r.bmp	500	1	GKQX	500	1	blank2r.bmp	880	3	leiden	880	1	!	1232	1	!	-1	0	0	0	0	0	0
2024-05-08	15:01:23	15:14:52	807873	6.6.1	4_exp_EVA_AWA_CON	19	B	A	Rpleas_acq	Same	Rpleas	2pleas	cond_new_pleas_456_nomask_CS2	condtest_nomask_1	11	2	400	0	300	300	0	0	519	50	1	-17,0572916666666571928pct	fair	helfen	schön	loyal	spielen	treu	faul	hindern	schlecht	lasch	strafen	tot	retten	ehrlich	tolerant	schlau	lachen	freundlich	rächen	eitel	tyrannisch	schroff	leiden	fanatisch	1	blank2r.bmp	0	1	+	0	1	blank2r.bmp	500	1	GKQX	500	1	blank2r.bmp	880	2	schlau	880	1	!	1232	1	!	-1	0	0	0	0	0	0
2024-05-08	15:01:23	15:14:54	810035	6.6.1	4_exp_EVA_AWA_CON	19	B	A	Rpleas_acq	Same	Rpleas	2pleas	cond_US_pleas_123_nomask_CS2	condtest_nomask_1	11	3	400	1	300	300	0	0	387	46	0	-17,0572916666666571928pct	fair	helfen	schön	loyal	spielen	treu	faul	hindern	schlecht	lasch	strafen	tot	retten	ehrlich	tolerant	schlau	lachen	freundlich	rächen	eitel	tyrannisch	schroff	leiden	fanatisch	1	blank2r.bmp	0	1	+	0	1	blank2r.bmp	500	1	GKQX	500	1	blank2r.bmp	880	1	schön	880	1	!	1232	1	!	1288	0	0	0	0	0	0
2024-05-08	15:01:23	15:14:56	812298	6.6.1	4_exp_EVA_AWA_CON	19	B	A	Rpleas_acq	Same	Rpleas	2pleas	cond_US_pleas_123_nomask_CS1	condtest_nomask_1	11	4	400	0	300	300	0	0	490	50	1	-17,0572916666666571928pct	fair	helfen	schön	loyal	spielen	treu	faul	hindern	schlecht	lasch	strafen	tot	retten	ehrlich	tolerant	schlau	lachen	freundlich	rächen	eitel	tyrannisch	schroff	leiden	fanatisch	1	blank2r.bmp	0	1	+	0	1	blank2r.bmp	500	1	BMVZ	500	1	blank2r.bmp	880	3	schön	880	1	!	1232	1	!	-1	0	0	0	0	0	0
2024-05-08	15:01:23	15:14:58	814507	6.6.1	4_exp_EVA_AWA_CON	19	B	A	Rpleas_acq	Same	Rpleas	2pleas	cond_US_unple_123_nomask_CS2	condtest_nomask_1	11	5	400	1	300	300	0	0	427	46	1	-17,0572916666666571928pct	fair	helfen	schön	loyal	spielen	treu	faul	hindern	schlecht	lasch	strafen	tot	retten	ehrlich	tolerant	schlau	lachen	freundlich	rächen	eitel	tyrannisch	schroff	leiden	fanatisch	1	blank2r.bmp	0	1	+	0	1	blank2r.bmp	500	1	GKQX	500	1	blank2r.bmp	880	1	schlecht	880	1	!	1232	1	!	1328	0	0	0	0	0	0
2024-05-08	15:01:23	15:15:01	816921	6.6.1	4_exp_EVA_AWA_CON	19	B	A	Rpleas_acq	Same	Rpleas	2pleas	cond_new_unple_456_nomask_CS1	condtest_nomask_1	11	6	400	0	300	300	0	0	641	50	0	-17,0572916666666571928pct	fair	helfen	schön	loyal	spielen	treu	faul	hindern	schlecht	lasch	strafen	tot	retten	ehrlich	tolerant	schlau	lachen	freundlich	rächen	eitel	tyrannisch	schroff	leiden	fanatisch	1	blank2r.bmp	0	1	+	0	1	blank2r.bmp	500	1	BMVZ	500	1	blank2r.bmp	880	3	fanatisch	880	1	!	1232	1	!	-1	0	0	0	0	0	0
2024-05-08	15:01:23	15:15:03	819091	6.6.1	4_exp_EVA_AWA_CON	19	B	A	Rpleas_acq	Same	Rpleas	2pleas	cond_US_unple_123_nomask_CS1	condtest_nomask_1	11	7	400	1	300	300	0	0	388	46	1	-17,0572916666666571928pct	fair	helfen	schön	loyal	spielen	treu	faul	hindern	schlecht	lasch	strafen	tot	retten	ehrlich	tolerant	schlau	lachen	freundlich	rächen	eitel	tyrannisch	schroff	leiden	fanatisch	1	blank2r.bmp	0	1	+	0	1	blank2r.bmp	500	1	BMVZ	500	1	blank2r.bmp	880	2	hindern	880	1	!	1232	1	!	1289	0	0	0	0	0	0
2024-05-08	15:01:23	15:15:05	821177	6.6.1	4_exp_EVA_AWA_CON	19	B	A	Rpleas_acq	Same	Rpleas	2pleas	cond_new_pleas_456_nomask_CS1	condtest_nomask_1	11	8	400	0	300	300	0	0	314	50	1	-17,0572916666666571928pct	fair	helfen	schön	loyal	spielen	treu	faul	hindern	schlecht	lasch	strafen	tot	retten	ehrlich	tolerant	schlau	lachen	freundlich	rächen	eitel	tyrannisch	schroff	leiden	fanatisch	1	blank2r.bmp	0	1	+	0	1	blank2r.bmp	500	1	BMVZ	500	1	blank2r.bmp	880	1	schlau	880	1	!	-1	1	!	-1	0	0	0	0	0	0
2024-05-08	15:01:23	15:15:12	828243	6.6.1	4_exp_EVA_AWA_CON	19	B	A	Rpleas_acq	Same	Rpleas	2pleas	cond_new_unple_456_nomask_CS2	condtest_nomask_2	12	1	400	1	300	300	0	0	414	46	1	-17,0572916666666571928pct	fair	helfen	schön	loyal	spielen	treu	faul	hindern	schlecht	lasch	strafen	tot	retten	ehrlich	tolerant	schlau	lachen	freundlich	rächen	eitel	tyrannisch	schroff	leiden	fanatisch	1	blank2r.bmp	0	1	+	0	1	blank2r.bmp	500	1	GKQX	500	1	blank2r.bmp	880	2	schroff	880	1	!	1232	1	!	1315	0	0	0	0	0	0
