date	time	currenttime	elapsedtime	build	currentexpt	subject	CS_AB	US_AB	LRpleas_acq	SameOppo	condition_Lpleas	condition_1pleas	trialcode	blockcode	blocknum	trialnum	windowcenter	inwindow	pretrialpause	posttrialpause	trialduration	trialtimeout	latency	response	correct	correctedscore	US_nomask_pleas1	US_nomask_pleas2	US_nomask_pleas3	US_nomask_pleas4	US_nomask_pleas5	US_nomask_pleas6	US_nomask_unple1	US_nomask_unple2	US_nomask_unple3	US_nomask_unple4	US_nomask_unple5	US_nomask_unple6	new_nomask_pleas1	new_nomask_pleas2	new_nomask_pleas3	new_nomask_pleas4	new_nomask_pleas5	new_nomask_pleas6	new_nomask_unple1	new_nomask_unple2	new_nomask_unple3	new_nomask_unple4	new_nomask_unple5	new_nomask_unple6	stimulusnumber1	stimulusitem1	stimulusonset1	stimulusnumber2	stimulusitem2	stimulusonset2	stimulusnumber3	stimulusitem3	stimulusonset3	stimulusnumber4	stimulusitem4	stimulusonset4	stimulusnumber5	stimulusitem5	stimulusonset5	stimulusnumber6	stimulusitem6	stimulusonset6	stimulusnumber7	stimulusitem7	stimulusonset7	stimulusnumber8	stimulusitem8	stimulusonset8	stimulusnumber9	stimulusitem9	stimulusonset9	stimulusnumber10	stimulusitem10	stimulusonset10
2024-05-16	09:17:54	09:19:44	108415	6.6.1	4_exp_EVA_AWA_CON	39	A	B	Rpleas_acq	Same	Rpleas	2pleas	acq_US_unple_nomask	acq1_nomask	1	1	0	0	300	300	0	0	1110	46	1	0	kreativ	besonnen	gesittet	kuss	gütig	genießen	krank	bange	geizig	krise	gierig	gemein	träumen	engagiert	vertrauen	vergnügt	sonnig	anregung	töten	engstirnig	versagen	verbissen	sterben	ausrottung	1	blank2r.bmp	0	1	+	0	1	blank2r.bmp	500	1	CPLW	500	1	blank2r.bmp	880	1	krank	880	0	0	0	0	0	0	0	0	0	0	0	0
2024-05-16	09:17:54	09:19:46	110815	6.6.1	4_exp_EVA_AWA_CON	39	A	B	Rpleas_acq	Same	Rpleas	2pleas	acq_new_unple_nomask	acq1_nomask	1	2	0	0	300	300	0	0	909	46	1	0	kreativ	besonnen	gesittet	kuss	gütig	genießen	krank	bange	geizig	krise	gierig	gemein	träumen	engagiert	vertrauen	vergnügt	sonnig	anregung	töten	engstirnig	versagen	verbissen	sterben	ausrottung	1	blank2r.bmp	0	1	+	0	1	blank2r.bmp	500	7	C3r.bmp	500	1	blank2r.bmp	880	2	engstirnig	880	0	0	0	0	0	0	0	0	0	0	0	0
2024-05-16	09:17:54	09:19:48	112974	6.6.1	4_exp_EVA_AWA_CON	39	A	B	Rpleas_acq	Same	Rpleas	2pleas	acq_US_pleas_nomask	acq1_nomask	1	3	0	0	300	300	0	0	685	50	1	0	kreativ	besonnen	gesittet	kuss	gütig	genießen	krank	bange	geizig	krise	gierig	gemein	träumen	engagiert	vertrauen	vergnügt	sonnig	anregung	töten	engstirnig	versagen	verbissen	sterben	ausrottung	1	blank2r.bmp	14	1	+	14	1	blank2r.bmp	500	1	DHJF	500	1	blank2r.bmp	880	6	genießen	880	0	0	0	0	0	0	0	0	0	0	0	0
2024-05-16	09:17:54	09:19:50	115156	6.6.1	4_exp_EVA_AWA_CON	39	A	B	Rpleas_acq	Same	Rpleas	2pleas	acq_new_unple_nomask	acq1_nomask	1	4	0	0	300	300	0	0	697	46	1	0	kreativ	besonnen	gesittet	kuss	gütig	genießen	krank	bange	geizig	krise	gierig	gemein	träumen	engagiert	vertrauen	vergnügt	sonnig	anregung	töten	engstirnig	versagen	verbissen	sterben	ausrottung	1	blank2r.bmp	0	1	+	0	1	blank2r.bmp	500	1	B1r.bmp	500	1	blank2r.bmp	880	1	töten	880	0	0	0	0	0	0	0	0	0	0	0	0
2024-05-16	09:17:54	09:19:53	117439	6.6.1	4_exp_EVA_AWA_CON	39	A	B	Rpleas_acq	Same	Rpleas	2pleas	acq_new_pleas_nomask	acq1_nomask	1	5	0	0	300	300	0	0	796	50	1	0	kreativ	besonnen	gesittet	kuss	gütig	genießen	krank	bange	geizig	krise	gierig	gemein	träumen	engagiert	vertrauen	vergnügt	sonnig	anregung	töten	engstirnig	versagen	verbissen	sterben	ausrottung	1	blank2r.bmp	0	1	+	0	1	blank2r.bmp	504	2	B2r.bmp	504	1	blank2r.bmp	880	2	engagiert	880	0	0	0	0	0	0	0	0	0	0	0	0
2024-05-16	09:17:54	09:19:55	119627	6.6.1	4_exp_EVA_AWA_CON	39	A	B	Rpleas_acq	Same	Rpleas	2pleas	acq_new_pleas_nomask	acq1_nomask	1	6	0	0	300	300	0	0	707	50	1	0	kreativ	besonnen	gesittet	kuss	gütig	genießen	krank	bange	geizig	krise	gierig	gemein	träumen	engagiert	vertrauen	vergnügt	sonnig	anregung	töten	engstirnig	versagen	verbissen	sterben	ausrottung	1	blank2r.bmp	0	1	+	0	1	blank2r.bmp	500	4	B4r.bmp	500	1	blank2r.bmp	880	4	vergnügt	880	0	0	0	0	0	0	0	0	0	0	0	0
2024-05-16	09:17:54	09:19:57	121699	6.6.1	4_exp_EVA_AWA_CON	39	A	B	Rpleas_acq	Same	Rpleas	2pleas	acq_US_unple_nomask	acq1_nomask	1	7	0	0	300	300	0	0	588	46	1	0	kreativ	besonnen	gesittet	kuss	gütig	genießen	krank	bange	geizig	krise	gierig	gemein	träumen	engagiert	vertrauen	vergnügt	sonnig	anregung	töten	engstirnig	versagen	verbissen	sterben	ausrottung	1	blank2r.bmp	0	1	+	0	1	blank2r.bmp	500	1	CPLW	500	1	blank2r.bmp	880	2	bange	880	0	0	0	0	0	0	0	0	0	0	0	0
2024-05-16	09:17:54	09:19:59	123804	6.6.1	4_exp_EVA_AWA_CON	39	A	B	Rpleas_acq	Same	Rpleas	2pleas	acq_US_pleas_nomask	acq1_nomask	1	8	0	0	300	300	0	0	621	50	1	0	kreativ	besonnen	gesittet	kuss	gütig	genießen	krank	bange	geizig	krise	gierig	gemein	träumen	engagiert	vertrauen	vergnügt	sonnig	anregung	töten	engstirnig	versagen	verbissen	sterben	ausrottung	1	blank2r.bmp	0	1	+	0	1	blank2r.bmp	500	1	DHJF	500	1	blank2r.bmp	880	4	kuss	880	0	0	0	0	0	0	0	0	0	0	0	0
2024-05-16	09:17:54	09:20:01	125867	6.6.1	4_exp_EVA_AWA_CON	39	A	B	Rpleas_acq	Same	Rpleas	2pleas	acq_new_unple_nomask	acq1_nomask	1	9	0	0	300	300	0	0	583	46	1	0	kreativ	besonnen	gesittet	kuss	gütig	genießen	krank	bange	geizig	krise	gierig	gemein	träumen	engagiert	vertrauen	vergnügt	sonnig	anregung	töten	engstirnig	versagen	verbissen	sterben	ausrottung	1	blank2r.bmp	0	1	+	0	1	blank2r.bmp	500	5	C1r.bmp	500	1	blank2r.bmp	880	5	sterben	880	0	0	0	0	0	0	0	0	0	0	0	0
2024-05-16	09:17:54	09:20:03	127883	6.6.1	4_exp_EVA_AWA_CON	39	A	B	Rpleas_acq	Same	Rpleas	2pleas	acq_US_unple_nomask	acq1_nomask	1	10	0	0	300	300	0	0	528	46	1	0	kreativ	besonnen	gesittet	kuss	gütig	genießen	krank	bange	geizig	krise	gierig	gemein	träumen	engagiert	vertrauen	vergnügt	sonnig	anregung	töten	engstirnig	versagen	verbissen	sterben	ausrottung	1	blank2r.bmp	0	1	+	0	1	blank2r.bmp	500	1	CPLW	500	1	blank2r.bmp	880	4	krise	880	0	0	0	0	0	0	0	0	0	0	0	0
2024-05-16	09:17:54	09:20:05	130035	6.6.1	4_exp_EVA_AWA_CON	39	A	B	Rpleas_acq	Same	Rpleas	2pleas	acq_US_pleas_nomask	acq1_nomask	1	11	0	0	300	300	0	0	669	50	1	0	kreativ	besonnen	gesittet	kuss	gütig	genießen	krank	bange	geizig	krise	gierig	gemein	träumen	engagiert	vertrauen	vergnügt	sonnig	anregung	töten	engstirnig	versagen	verbissen	sterben	ausrottung	1	blank2r.bmp	0	1	+	0	1	blank2r.bmp	500	1	DHJF	500	1	blank2r.bmp	880	3	gesittet	880	0	0	0	0	0	0	0	0	0	0	0	0
2024-05-16	09:17:54	09:20:07	132163	6.6.1	4_exp_EVA_AWA_CON	39	A	B	Rpleas_acq	Same	Rpleas	2pleas	acq_new_pleas_nomask	acq1_nomask	1	12	0	0	300	300	0	0	645	50	1	0	kreativ	besonnen	gesittet	kuss	gütig	genießen	krank	bange	geizig	krise	gierig	gemein	träumen	engagiert	vertrauen	vergnügt	sonnig	anregung	töten	engstirnig	versagen	verbissen	sterben	ausrottung	1	blank2r.bmp	0	1	+	0	1	blank2r.bmp	500	3	B3r.bmp	500	1	blank2r.bmp	880	3	vertrauen	880	0	0	0	0	0	0	0	0	0	0	0	0
2024-05-16	09:17:54	09:20:09	134211	6.6.1	4_exp_EVA_AWA_CON	39	A	B	Rpleas_acq	Same	Rpleas	2pleas	acq_new_pleas_nomask	acq1_nomask	1	13	0	0	300	300	0	0	562	50	1	0	kreativ	besonnen	gesittet	kuss	gütig	genießen	krank	bange	geizig	krise	gierig	gemein	träumen	engagiert	vertrauen	vergnügt	sonnig	anregung	töten	engstirnig	versagen	verbissen	sterben	ausrottung	1	blank2r.bmp	0	1	+	0	1	blank2r.bmp	500	8	C4r.bmp	500	1	blank2r.bmp	880	1	träumen	880	0	0	0	0	0	0	0	0	0	0	0	0
2024-05-16	09:17:54	09:20:11	136259	6.6.1	4_exp_EVA_AWA_CON	39	A	B	Rpleas_acq	Same	Rpleas	2pleas	acq_new_pleas_nomask	acq1_nomask	1	14	0	0	300	300	0	0	559	50	1	0	kreativ	besonnen	gesittet	kuss	gütig	genießen	krank	bange	geizig	krise	gierig	gemein	träumen	engagiert	vertrauen	vergnügt	sonnig	anregung	töten	engstirnig	versagen	verbissen	sterben	ausrottung	1	blank2r.bmp	0	1	+	0	1	blank2r.bmp	500	6	C2r.bmp	500	1	blank2r.bmp	880	6	anregung	880	0	0	0	0	0	0	0	0	0	0	0	0
2024-05-16	09:17:54	09:20:13	138307	6.6.1	4_exp_EVA_AWA_CON	39	A	B	Rpleas_acq	Same	Rpleas	2pleas	acq_new_unple_nomask	acq1_nomask	1	15	0	0	300	300	0	0	565	46	1	0	kreativ	besonnen	gesittet	kuss	gütig	genießen	krank	bange	geizig	krise	gierig	gemein	träumen	engagiert	vertrauen	vergnügt	sonnig	anregung	töten	engstirnig	versagen	verbissen	sterben	ausrottung	1	blank2r.bmp	0	1	+	0	1	blank2r.bmp	500	6	C2r.bmp	500	1	blank2r.bmp	880	6	ausrottung	880	0	0	0	0	0	0	0	0	0	0	0	0
2024-05-16	09:17:54	09:20:15	140315	6.6.1	4_exp_EVA_AWA_CON	39	A	B	Rpleas_acq	Same	Rpleas	2pleas	acq_US_unple_nomask	acq1_nomask	1	16	0	0	300	300	0	0	522	46	1	0	kreativ	besonnen	gesittet	kuss	gütig	genießen	krank	bange	geizig	krise	gierig	gemein	träumen	engagiert	vertrauen	vergnügt	sonnig	anregung	töten	engstirnig	versagen	verbissen	sterben	ausrottung	1	blank2r.bmp	0	1	+	0	1	blank2r.bmp	500	1	CPLW	500	1	blank2r.bmp	880	6	gemein	880	0	0	0	0	0	0	0	0	0	0	0	0
2024-05-16	09:17:54	09:20:18	142379	6.6.1	4_exp_EVA_AWA_CON	39	A	B	Rpleas_acq	Same	Rpleas	2pleas	acq_US_pleas_nomask	acq1_nomask	1	17	0	0	300	300	0	0	575	50	1	0	kreativ	besonnen	gesittet	kuss	gütig	genießen	krank	bange	geizig	krise	gierig	gemein	träumen	engagiert	vertrauen	vergnügt	sonnig	anregung	töten	engstirnig	versagen	verbissen	sterben	ausrottung	1	blank2r.bmp	0	1	+	0	1	blank2r.bmp	500	1	DHJF	500	1	blank2r.bmp	880	5	gütig	880	0	0	0	0	0	0	0	0	0	0	0	0
2024-05-16	09:17:54	09:20:20	144411	6.6.1	4_exp_EVA_AWA_CON	39	A	B	Rpleas_acq	Same	Rpleas	2pleas	acq_US_pleas_nomask	acq1_nomask	1	18	0	0	300	300	0	0	545	50	1	0	kreativ	besonnen	gesittet	kuss	gütig	genießen	krank	bange	geizig	krise	gierig	gemein	träumen	engagiert	vertrauen	vergnügt	sonnig	anregung	töten	engstirnig	versagen	verbissen	sterben	ausrottung	1	blank2r.bmp	0	1	+	0	1	blank2r.bmp	500	1	DHJF	500	1	blank2r.bmp	880	2	besonnen	880	0	0	0	0	0	0	0	0	0	0	0	0
2024-05-16	09:17:54	09:20:22	146514	6.6.1	4_exp_EVA_AWA_CON	39	A	B	Rpleas_acq	Same	Rpleas	2pleas	acq_new_unple_nomask	acq1_nomask	1	19	0	0	300	300	0	0	618	46	1	0	kreativ	besonnen	gesittet	kuss	gütig	genießen	krank	bange	geizig	krise	gierig	gemein	träumen	engagiert	vertrauen	vergnügt	sonnig	anregung	töten	engstirnig	versagen	verbissen	sterben	ausrottung	1	blank2r.bmp	0	1	+	0	1	blank2r.bmp	500	2	B2r.bmp	500	1	blank2r.bmp	880	3	versagen	880	0	0	0	0	0	0	0	0	0	0	0	0
2024-05-16	09:17:54	09:20:24	148451	6.6.1	4_exp_EVA_AWA_CON	39	A	B	Rpleas_acq	Same	Rpleas	2pleas	acq_US_unple_nomask	acq1_nomask	1	20	0	0	300	300	0	0	452	46	1	0	kreativ	besonnen	gesittet	kuss	gütig	genießen	krank	bange	geizig	krise	gierig	gemein	träumen	engagiert	vertrauen	vergnügt	sonnig	anregung	töten	engstirnig	versagen	verbissen	sterben	ausrottung	1	blank2r.bmp	0	1	+	0	1	blank2r.bmp	500	1	CPLW	500	1	blank2r.bmp	880	3	geizig	880	0	0	0	0	0	0	0	0	0	0	0	0
2024-05-16	09:17:54	09:20:26	150426	6.6.1	4_exp_EVA_AWA_CON	39	A	B	Rpleas_acq	Same	Rpleas	2pleas	acq_new_pleas_nomask	acq1_nomask	1	21	0	0	300	300	0	0	488	50	1	0	kreativ	besonnen	gesittet	kuss	gütig	genießen	krank	bange	geizig	krise	gierig	gemein	träumen	engagiert	vertrauen	vergnügt	sonnig	anregung	töten	engstirnig	versagen	verbissen	sterben	ausrottung	1	blank2r.bmp	0	1	+	0	1	blank2r.bmp	500	8	C4r.bmp	500	1	blank2r.bmp	880	5	sonnig	880	0	0	0	0	0	0	0	0	0	0	0	0
2024-05-16	09:17:54	09:20:28	152676	6.6.1	4_exp_EVA_AWA_CON	39	A	B	Rpleas_acq	Same	Rpleas	2pleas	acq_US_unple_nomask	acq1_nomask	1	22	0	0	300	300	0	0	564	50	0	0	kreativ	besonnen	gesittet	kuss	gütig	genießen	krank	bange	geizig	krise	gierig	gemein	träumen	engagiert	vertrauen	vergnügt	sonnig	anregung	töten	engstirnig	versagen	verbissen	sterben	ausrottung	1	blank2r.bmp	0	1	+	0	1	blank2r.bmp	500	1	CPLW	500	1	blank2r.bmp	880	5	gierig	880	1	FEHLER	1465	0	0	0	0	0	0	0	0	0
2024-05-16	09:17:54	09:20:30	154499	6.6.1	4_exp_EVA_AWA_CON	39	A	B	Rpleas_acq	Same	Rpleas	2pleas	acq_US_pleas_nomask	acq1_nomask	1	23	0	0	300	300	0	0	537	50	1	0	kreativ	besonnen	gesittet	kuss	gütig	genießen	krank	bange	geizig	krise	gierig	gemein	träumen	engagiert	vertrauen	vergnügt	sonnig	anregung	töten	engstirnig	versagen	verbissen	sterben	ausrottung	1	blank2r.bmp	0	1	+	0	1	blank2r.bmp	500	1	DHJF	500	1	blank2r.bmp	880	1	kreativ	880	0	0	0	0	0	0	0	0	0	0	0	0
2024-05-16	09:17:54	09:20:32	156507	6.6.1	4_exp_EVA_AWA_CON	39	A	B	Rpleas_acq	Same	Rpleas	2pleas	acq_new_unple_nomask	acq1_nomask	1	24	0	0	300	300	0	0	524	46	1	0	kreativ	besonnen	gesittet	kuss	gütig	genießen	krank	bange	geizig	krise	gierig	gemein	träumen	engagiert	vertrauen	vergnügt	sonnig	anregung	töten	engstirnig	versagen	verbissen	sterben	ausrottung	1	blank2r.bmp	0	1	+	0	1	blank2r.bmp	500	7	C3r.bmp	500	1	blank2r.bmp	880	4	verbissen	880	0	0	0	0	0	0	0	0	0	0	0	0
2024-05-16	09:17:54	09:20:34	158467	6.6.1	4_exp_EVA_AWA_CON	39	A	B	Rpleas_acq	Same	Rpleas	2pleas	acq_US_unple_nomask	acq1_nomask	1	25	0	0	300	300	0	0	472	46	1	0	kreativ	besonnen	gesittet	kuss	gütig	genießen	krank	bange	geizig	krise	gierig	gemein	träumen	engagiert	vertrauen	vergnügt	sonnig	anregung	töten	engstirnig	versagen	verbissen	sterben	ausrottung	1	blank2r.bmp	0	1	+	0	1	blank2r.bmp	500	1	CPLW	500	1	blank2r.bmp	880	1	krank	880	0	0	0	0	0	0	0	0	0	0	0	0
2024-05-16	09:17:54	09:20:36	160499	6.6.1	4_exp_EVA_AWA_CON	39	A	B	Rpleas_acq	Same	Rpleas	2pleas	acq_new_pleas_nomask	acq1_nomask	1	26	0	0	300	300	0	0	543	50	1	0	kreativ	besonnen	gesittet	kuss	gütig	genießen	krank	bange	geizig	krise	gierig	gemein	träumen	engagiert	vertrauen	vergnügt	sonnig	anregung	töten	engstirnig	versagen	verbissen	sterben	ausrottung	1	blank2r.bmp	0	1	+	0	1	blank2r.bmp	500	1	B1r.bmp	500	1	blank2r.bmp	880	3	vertrauen	880	0	0	0	0	0	0	0	0	0	0	0	0
2024-05-16	09:17:54	09:20:38	162563	6.6.1	4_exp_EVA_AWA_CON	39	A	B	Rpleas_acq	Same	Rpleas	2pleas	acq_new_unple_nomask	acq1_nomask	1	27	0	0	300	300	0	0	576	46	1	0	kreativ	besonnen	gesittet	kuss	gütig	genießen	krank	bange	geizig	krise	gierig	gemein	träumen	engagiert	vertrauen	vergnügt	sonnig	anregung	töten	engstirnig	versagen	verbissen	sterben	ausrottung	1	blank2r.bmp	0	1	+	0	1	blank2r.bmp	500	3	B3r.bmp	500	1	blank2r.bmp	880	3	versagen	880	0	0	0	0	0	0	0	0	0	0	0	0
2024-05-16	09:17:54	09:20:40	164580	6.6.1	4_exp_EVA_AWA_CON	39	A	B	Rpleas_acq	Same	Rpleas	2pleas	acq_new_unple_nomask	acq1_nomask	1	28	0	0	300	300	0	0	530	46	1	0	kreativ	besonnen	gesittet	kuss	gütig	genießen	krank	bange	geizig	krise	gierig	gemein	träumen	engagiert	vertrauen	vergnügt	sonnig	anregung	töten	engstirnig	versagen	verbissen	sterben	ausrottung	1	blank2r.bmp	0	1	+	0	1	blank2r.bmp	500	4	B4r.bmp	500	1	blank2r.bmp	880	1	töten	880	0	0	0	0	0	0	0	0	0	0	0	0
2024-05-16	09:17:54	09:20:42	166563	6.6.1	4_exp_EVA_AWA_CON	39	A	B	Rpleas_acq	Same	Rpleas	2pleas	acq_US_pleas_nomask	acq1_nomask	1	29	0	0	300	300	0	0	503	50	1	0	kreativ	besonnen	gesittet	kuss	gütig	genießen	krank	bange	geizig	krise	gierig	gemein	träumen	engagiert	vertrauen	vergnügt	sonnig	anregung	töten	engstirnig	versagen	verbissen	sterben	ausrottung	1	blank2r.bmp	0	1	+	0	1	blank2r.bmp	500	1	DHJF	500	1	blank2r.bmp	880	1	kreativ	880	0	0	0	0	0	0	0	0	0	0	0	0
2024-05-16	09:17:54	09:20:44	168741	6.6.1	4_exp_EVA_AWA_CON	39	A	B	Rpleas_acq	Same	Rpleas	2pleas	acq_US_unple_nomask	acq1_nomask	1	30	0	0	300	300	0	0	488	50	0	0	kreativ	besonnen	gesittet	kuss	gütig	genießen	krank	bange	geizig	krise	gierig	gemein	träumen	engagiert	vertrauen	vergnügt	sonnig	anregung	töten	engstirnig	versagen	verbissen	sterben	ausrottung	1	blank2r.bmp	0	1	+	0	1	blank2r.bmp	500	1	CPLW	500	1	blank2r.bmp	880	3	geizig	880	1	FEHLER	1389	0	0	0	0	0	0	0	0	0
2024-05-16	09:17:54	09:20:46	170795	6.6.1	4_exp_EVA_AWA_CON	39	A	B	Rpleas_acq	Same	Rpleas	2pleas	acq_US_unple_nomask	acq1_nomask	1	31	0	0	300	300	0	0	773	46	1	0	kreativ	besonnen	gesittet	kuss	gütig	genießen	krank	bange	geizig	krise	gierig	gemein	träumen	engagiert	vertrauen	vergnügt	sonnig	anregung	töten	engstirnig	versagen	verbissen	sterben	ausrottung	1	blank2r.bmp	0	1	+	0	1	blank2r.bmp	500	1	CPLW	500	1	blank2r.bmp	880	2	bange	880	0	0	0	0	0	0	0	0	0	0	0	0
2024-05-16	09:17:54	09:20:48	172836	6.6.1	4_exp_EVA_AWA_CON	39	A	B	Rpleas_acq	Same	Rpleas	2pleas	acq_US_pleas_nomask	acq1_nomask	1	32	0	0	300	300	0	0	551	50	1	0	kreativ	besonnen	gesittet	kuss	gütig	genießen	krank	bange	geizig	krise	gierig	gemein	träumen	engagiert	vertrauen	vergnügt	sonnig	anregung	töten	engstirnig	versagen	verbissen	sterben	ausrottung	1	blank2r.bmp	0	1	+	0	1	blank2r.bmp	500	1	DHJF	500	1	blank2r.bmp	880	5	gütig	880	0	0	0	0	0	0	0	0	0	0	0	0
2024-05-16	09:17:54	09:20:50	174907	6.6.1	4_exp_EVA_AWA_CON	39	A	B	Rpleas_acq	Same	Rpleas	2pleas	acq_new_pleas_nomask	acq1_nomask	1	33	0	0	300	300	0	0	592	50	1	0	kreativ	besonnen	gesittet	kuss	gütig	genießen	krank	bange	geizig	krise	gierig	gemein	träumen	engagiert	vertrauen	vergnügt	sonnig	anregung	töten	engstirnig	versagen	verbissen	sterben	ausrottung	1	blank2r.bmp	0	1	+	0	1	blank2r.bmp	500	5	C1r.bmp	500	1	blank2r.bmp	880	4	vergnügt	880	0	0	0	0	0	0	0	0	0	0	0	0
2024-05-16	09:17:54	09:20:52	176908	6.6.1	4_exp_EVA_AWA_CON	39	A	B	Rpleas_acq	Same	Rpleas	2pleas	acq_new_unple_nomask	acq1_nomask	1	34	0	0	300	300	0	0	521	46	1	0	kreativ	besonnen	gesittet	kuss	gütig	genießen	krank	bange	geizig	krise	gierig	gemein	träumen	engagiert	vertrauen	vergnügt	sonnig	anregung	töten	engstirnig	versagen	verbissen	sterben	ausrottung	1	blank2r.bmp	0	1	+	0	1	blank2r.bmp	500	1	B1r.bmp	500	1	blank2r.bmp	880	5	sterben	880	0	0	0	0	0	0	0	0	0	0	0	0
2024-05-16	09:17:54	09:20:54	178931	6.6.1	4_exp_EVA_AWA_CON	39	A	B	Rpleas_acq	Same	Rpleas	2pleas	acq_new_pleas_nomask	acq1_nomask	1	35	0	0	300	300	0	0	543	50	1	0	kreativ	besonnen	gesittet	kuss	gütig	genießen	krank	bange	geizig	krise	gierig	gemein	träumen	engagiert	vertrauen	vergnügt	sonnig	anregung	töten	engstirnig	versagen	verbissen	sterben	ausrottung	1	blank2r.bmp	0	1	+	0	1	blank2r.bmp	500	6	C2r.bmp	500	1	blank2r.bmp	880	1	träumen	880	0	0	0	0	0	0	0	0	0	0	0	0
2024-05-16	09:17:54	09:20:56	180900	6.6.1	4_exp_EVA_AWA_CON	39	A	B	Rpleas_acq	Same	Rpleas	2pleas	acq_US_pleas_nomask	acq1_nomask	1	36	0	0	300	300	0	0	480	50	1	0	kreativ	besonnen	gesittet	kuss	gütig	genießen	krank	bange	geizig	krise	gierig	gemein	träumen	engagiert	vertrauen	vergnügt	sonnig	anregung	töten	engstirnig	versagen	verbissen	sterben	ausrottung	1	blank2r.bmp	0	1	+	0	1	blank2r.bmp	500	1	DHJF	500	1	blank2r.bmp	880	4	kuss	880	0	0	0	0	0	0	0	0	0	0	0	0
2024-05-16	09:17:54	09:21:30	214622	6.6.1	4_exp_EVA_AWA_CON	39	A	B	Rpleas_acq	Same	Rpleas	2pleas	acq_US_pleas_nomask	acq2_nomask	2	1	480	0	300	300	0	0	4963	50	1	0	kreativ	besonnen	gesittet	kuss	gütig	genießen	krank	bange	geizig	krise	gierig	gemein	träumen	engagiert	vertrauen	vergnügt	sonnig	anregung	töten	engstirnig	versagen	verbissen	sterben	ausrottung	1	blank2r.bmp	0	1	+	0	1	blank2r.bmp	500	1	DHJF	500	1	blank2r.bmp	880	3	gesittet	880	1	!	1313	1	!	-1	0	0	0	0	0	0
2024-05-16	09:17:54	09:21:32	216839	6.6.1	4_exp_EVA_AWA_CON	39	A	B	Rpleas_acq	Same	Rpleas	2pleas	acq_new_pleas_nomask	acq2_nomask	2	2	480	1	300	300	0	0	435	50	1	0	kreativ	besonnen	gesittet	kuss	gütig	genießen	krank	bange	geizig	krise	gierig	gemein	träumen	engagiert	vertrauen	vergnügt	sonnig	anregung	töten	engstirnig	versagen	verbissen	sterben	ausrottung	1	blank2r.bmp	0	1	+	0	1	blank2r.bmp	500	3	B3r.bmp	500	1	blank2r.bmp	880	5	sonnig	880	1	!	1313	1	!	1336	0	0	0	0	0	0
2024-05-16	09:17:54	09:21:34	219135	6.6.1	4_exp_EVA_AWA_CON	39	A	B	Rpleas_acq	Same	Rpleas	2pleas	acq_US_unple_nomask	acq2_nomask	2	3	480	1	300	300	0	0	520	46	1	0	kreativ	besonnen	gesittet	kuss	gütig	genießen	krank	bange	geizig	krise	gierig	gemein	träumen	engagiert	vertrauen	vergnügt	sonnig	anregung	töten	engstirnig	versagen	verbissen	sterben	ausrottung	1	blank2r.bmp	0	1	+	0	1	blank2r.bmp	500	1	CPLW	500	1	blank2r.bmp	880	6	gemein	880	1	!	1313	1	!	1421	0	0	0	0	0	0
2024-05-16	09:17:54	09:21:37	221383	6.6.1	4_exp_EVA_AWA_CON	39	A	B	Rpleas_acq	Same	Rpleas	2pleas	acq_US_unple_nomask	acq2_nomask	2	4	480	1	300	300	0	0	466	46	1	0	kreativ	besonnen	gesittet	kuss	gütig	genießen	krank	bange	geizig	krise	gierig	gemein	träumen	engagiert	vertrauen	vergnügt	sonnig	anregung	töten	engstirnig	versagen	verbissen	sterben	ausrottung	1	blank2r.bmp	0	1	+	0	1	blank2r.bmp	500	1	CPLW	500	1	blank2r.bmp	880	4	krise	880	1	!	1313	1	!	1367	0	0	0	0	0	0
2024-05-16	09:17:54	09:21:39	223600	6.6.1	4_exp_EVA_AWA_CON	39	A	B	Rpleas_acq	Same	Rpleas	2pleas	acq_new_unple_nomask	acq2_nomask	2	5	480	1	300	300	0	0	441	46	1	0	kreativ	besonnen	gesittet	kuss	gütig	genießen	krank	bange	geizig	krise	gierig	gemein	träumen	engagiert	vertrauen	vergnügt	sonnig	anregung	töten	engstirnig	versagen	verbissen	sterben	ausrottung	1	blank2r.bmp	0	1	+	0	1	blank2r.bmp	500	2	B2r.bmp	500	1	blank2r.bmp	880	4	verbissen	880	1	!	1313	1	!	1342	0	0	0	0	0	0
2024-05-16	09:17:54	09:21:41	225750	6.6.1	4_exp_EVA_AWA_CON	39	A	B	Rpleas_acq	Same	Rpleas	2pleas	acq_US_unple_nomask	acq2_nomask	2	6	480	0	300	300	0	0	371	46	1	0	kreativ	besonnen	gesittet	kuss	gütig	genießen	krank	bange	geizig	krise	gierig	gemein	träumen	engagiert	vertrauen	vergnügt	sonnig	anregung	töten	engstirnig	versagen	verbissen	sterben	ausrottung	1	blank2r.bmp	0	1	+	0	1	blank2r.bmp	500	1	CPLW	500	1	blank2r.bmp	880	5	gierig	880	1	!	-1	1	!	-1	0	0	0	0	0	0
2024-05-16	09:17:54	09:21:43	227933	6.6.1	4_exp_EVA_AWA_CON	39	A	B	Rpleas_acq	Same	Rpleas	2pleas	acq_new_pleas_nomask	acq2_nomask	2	7	480	0	300	300	0	0	404	50	1	0	kreativ	besonnen	gesittet	kuss	gütig	genießen	krank	bange	geizig	krise	gierig	gemein	träumen	engagiert	vertrauen	vergnügt	sonnig	anregung	töten	engstirnig	versagen	verbissen	sterben	ausrottung	1	blank2r.bmp	0	1	+	0	1	blank2r.bmp	500	4	B4r.bmp	500	1	blank2r.bmp	880	6	anregung	880	1	!	-1	1	!	-1	0	0	0	0	0	0
2024-05-16	09:17:54	09:21:46	230353	6.6.1	4_exp_EVA_AWA_CON	39	A	B	Rpleas_acq	Same	Rpleas	2pleas	acq_new_pleas_nomask	acq2_nomask	2	8	480	1	300	300	0	0	438	46	0	0	kreativ	besonnen	gesittet	kuss	gütig	genießen	krank	bange	geizig	krise	gierig	gemein	träumen	engagiert	vertrauen	vergnügt	sonnig	anregung	töten	engstirnig	versagen	verbissen	sterben	ausrottung	1	blank2r.bmp	0	1	+	0	1	blank2r.bmp	500	5	C1r.bmp	500	1	blank2r.bmp	880	2	engagiert	880	1	FEHLER	1632	1	!	1313	1	!	1339	0	0	0
2024-05-16	09:17:54	09:21:48	232431	6.6.1	4_exp_EVA_AWA_CON	39	A	B	Rpleas_acq	Same	Rpleas	2pleas	acq_new_unple_nomask	acq2_nomask	2	9	480	1	300	300	0	0	497	46	1	0	kreativ	besonnen	gesittet	kuss	gütig	genießen	krank	bange	geizig	krise	gierig	gemein	träumen	engagiert	vertrauen	vergnügt	sonnig	anregung	töten	engstirnig	versagen	verbissen	sterben	ausrottung	1	blank2r.bmp	0	1	+	0	1	blank2r.bmp	500	8	C4r.bmp	500	1	blank2r.bmp	880	6	ausrottung	880	1	!	1313	1	!	1398	0	0	0	0	0	0
2024-05-16	09:17:54	09:21:50	234589	6.6.1	4_exp_EVA_AWA_CON	39	A	B	Rpleas_acq	Same	Rpleas	2pleas	acq_new_unple_nomask	acq2_nomask	2	10	480	0	300	300	0	0	386	46	1	0	kreativ	besonnen	gesittet	kuss	gütig	genießen	krank	bange	geizig	krise	gierig	gemein	träumen	engagiert	vertrauen	vergnügt	sonnig	anregung	töten	engstirnig	versagen	verbissen	sterben	ausrottung	1	blank2r.bmp	0	1	+	0	1	blank2r.bmp	500	7	C3r.bmp	500	1	blank2r.bmp	880	2	engstirnig	880	1	!	-1	1	!	-1	0	0	0	0	0	0
2024-05-16	09:17:54	09:21:52	236831	6.6.1	4_exp_EVA_AWA_CON	39	A	B	Rpleas_acq	Same	Rpleas	2pleas	acq_US_pleas_nomask	acq2_nomask	2	11	480	1	300	300	0	0	464	50	1	0	kreativ	besonnen	gesittet	kuss	gütig	genießen	krank	bange	geizig	krise	gierig	gemein	träumen	engagiert	vertrauen	vergnügt	sonnig	anregung	töten	engstirnig	versagen	verbissen	sterben	ausrottung	1	blank2r.bmp	0	1	+	0	1	blank2r.bmp	500	1	DHJF	500	1	blank2r.bmp	880	2	besonnen	880	1	!	1312	1	!	1365	0	0	0	0	0	0
2024-05-16	09:17:54	09:21:54	239040	6.6.1	4_exp_EVA_AWA_CON	39	A	B	Rpleas_acq	Same	Rpleas	2pleas	acq_US_pleas_nomask	acq2_nomask	2	12	480	1	300	300	0	0	431	50	1	0	kreativ	besonnen	gesittet	kuss	gütig	genießen	krank	bange	geizig	krise	gierig	gemein	träumen	engagiert	vertrauen	vergnügt	sonnig	anregung	töten	engstirnig	versagen	verbissen	sterben	ausrottung	1	blank2r.bmp	0	1	+	0	1	blank2r.bmp	500	1	DHJF	500	1	blank2r.bmp	880	6	genießen	880	1	!	1312	1	!	1332	0	0	0	0	0	0
2024-05-16	09:17:54	09:21:56	241247	6.6.1	4_exp_EVA_AWA_CON	39	A	B	Rpleas_acq	Same	Rpleas	2pleas	acq_US_unple_nomask	acq2_nomask	2	13	480	1	300	300	0	0	427	46	1	0	kreativ	besonnen	gesittet	kuss	gütig	genießen	krank	bange	geizig	krise	gierig	gemein	träumen	engagiert	vertrauen	vergnügt	sonnig	anregung	töten	engstirnig	versagen	verbissen	sterben	ausrottung	1	blank2r.bmp	0	1	+	0	1	blank2r.bmp	500	1	CPLW	500	1	blank2r.bmp	880	4	krise	880	1	!	1313	1	!	1328	0	0	0	0	0	0
2024-05-16	09:17:54	09:21:59	243633	6.6.1	4_exp_EVA_AWA_CON	39	A	B	Rpleas_acq	Same	Rpleas	2pleas	acq_US_unple_nomask	acq2_nomask	2	14	480	0	300	300	0	0	410	50	0	0	kreativ	besonnen	gesittet	kuss	gütig	genießen	krank	bange	geizig	krise	gierig	gemein	träumen	engagiert	vertrauen	vergnügt	sonnig	anregung	töten	engstirnig	versagen	verbissen	sterben	ausrottung	1	blank2r.bmp	0	1	+	0	1	blank2r.bmp	500	1	CPLW	500	1	blank2r.bmp	880	2	bange	880	1	FEHLER	1604	1	!	-1	1	!	-1	0	0	0
2024-05-16	09:17:54	09:22:01	245808	6.6.1	4_exp_EVA_AWA_CON	39	A	B	Rpleas_acq	Same	Rpleas	2pleas	acq_new_pleas_nomask	acq2_nomask	2	15	480	0	300	300	0	0	395	46	0	0	kreativ	besonnen	gesittet	kuss	gütig	genießen	krank	bange	geizig	krise	gierig	gemein	träumen	engagiert	vertrauen	vergnügt	sonnig	anregung	töten	engstirnig	versagen	verbissen	sterben	ausrottung	1	blank2r.bmp	0	1	+	0	1	blank2r.bmp	500	5	C1r.bmp	500	1	blank2r.bmp	880	2	engagiert	880	1	FEHLER	1587	1	!	-1	1	!	-1	0	0	0
2024-05-16	09:17:54	09:22:03	247871	6.6.1	4_exp_EVA_AWA_CON	39	A	B	Rpleas_acq	Same	Rpleas	2pleas	acq_new_unple_nomask	acq2_nomask	2	16	480	1	300	300	0	0	487	46	1	0	kreativ	besonnen	gesittet	kuss	gütig	genießen	krank	bange	geizig	krise	gierig	gemein	träumen	engagiert	vertrauen	vergnügt	sonnig	anregung	töten	engstirnig	versagen	verbissen	sterben	ausrottung	1	blank2r.bmp	0	1	+	0	1	blank2r.bmp	500	6	C2r.bmp	500	1	blank2r.bmp	880	5	sterben	880	1	!	1312	1	!	1388	0	0	0	0	0	0
2024-05-16	09:17:54	09:22:05	250143	6.6.1	4_exp_EVA_AWA_CON	39	A	B	Rpleas_acq	Same	Rpleas	2pleas	acq_new_pleas_nomask	acq2_nomask	2	17	480	1	300	300	0	0	498	50	1	0	kreativ	besonnen	gesittet	kuss	gütig	genießen	krank	bange	geizig	krise	gierig	gemein	träumen	engagiert	vertrauen	vergnügt	sonnig	anregung	töten	engstirnig	versagen	verbissen	sterben	ausrottung	1	blank2r.bmp	0	1	+	0	1	blank2r.bmp	500	1	B1r.bmp	500	1	blank2r.bmp	880	3	vertrauen	880	1	!	1313	1	!	1399	0	0	0	0	0	0
2024-05-16	09:17:54	09:22:08	252351	6.6.1	4_exp_EVA_AWA_CON	39	A	B	Rpleas_acq	Same	Rpleas	2pleas	acq_new_pleas_nomask	acq2_nomask	2	18	480	1	300	300	0	0	434	50	1	0	kreativ	besonnen	gesittet	kuss	gütig	genießen	krank	bange	geizig	krise	gierig	gemein	träumen	engagiert	vertrauen	vergnügt	sonnig	anregung	töten	engstirnig	versagen	verbissen	sterben	ausrottung	1	blank2r.bmp	0	1	+	0	1	blank2r.bmp	500	7	C3r.bmp	500	1	blank2r.bmp	880	6	anregung	880	1	!	1313	1	!	1335	0	0	0	0	0	0
2024-05-16	09:17:54	09:22:10	254583	6.6.1	4_exp_EVA_AWA_CON	39	A	B	Rpleas_acq	Same	Rpleas	2pleas	acq_new_unple_nomask	acq2_nomask	2	19	480	1	300	300	0	0	455	46	1	0	kreativ	besonnen	gesittet	kuss	gütig	genießen	krank	bange	geizig	krise	gierig	gemein	träumen	engagiert	vertrauen	vergnügt	sonnig	anregung	töten	engstirnig	versagen	verbissen	sterben	ausrottung	1	blank2r.bmp	0	1	+	0	1	blank2r.bmp	500	8	C4r.bmp	500	1	blank2r.bmp	880	2	engstirnig	880	1	!	1313	1	!	1356	0	0	0	0	0	0
2024-05-16	09:17:54	09:22:12	256863	6.6.1	4_exp_EVA_AWA_CON	39	A	B	Rpleas_acq	Same	Rpleas	2pleas	acq_new_unple_nomask	acq2_nomask	2	20	480	1	300	300	0	0	503	46	1	0	kreativ	besonnen	gesittet	kuss	gütig	genießen	krank	bange	geizig	krise	gierig	gemein	träumen	engagiert	vertrauen	vergnügt	sonnig	anregung	töten	engstirnig	versagen	verbissen	sterben	ausrottung	1	blank2r.bmp	0	1	+	0	1	blank2r.bmp	500	3	B3r.bmp	500	1	blank2r.bmp	880	6	ausrottung	880	1	!	1313	1	!	1404	0	0	0	0	0	0
2024-05-16	09:17:54	09:22:14	259037	6.6.1	4_exp_EVA_AWA_CON	39	A	B	Rpleas_acq	Same	Rpleas	2pleas	acq_US_pleas_nomask	acq2_nomask	2	21	480	0	300	300	0	0	398	50	1	0	kreativ	besonnen	gesittet	kuss	gütig	genießen	krank	bange	geizig	krise	gierig	gemein	träumen	engagiert	vertrauen	vergnügt	sonnig	anregung	töten	engstirnig	versagen	verbissen	sterben	ausrottung	1	blank2r.bmp	0	1	+	0	1	blank2r.bmp	500	1	DHJF	500	1	blank2r.bmp	880	5	gütig	880	1	!	-1	1	!	-1	0	0	0	0	0	0
2024-05-16	09:17:54	09:22:16	261335	6.6.1	4_exp_EVA_AWA_CON	39	A	B	Rpleas_acq	Same	Rpleas	2pleas	acq_US_unple_nomask	acq2_nomask	2	22	480	1	300	300	0	0	522	46	1	0	kreativ	besonnen	gesittet	kuss	gütig	genießen	krank	bange	geizig	krise	gierig	gemein	träumen	engagiert	vertrauen	vergnügt	sonnig	anregung	töten	engstirnig	versagen	verbissen	sterben	ausrottung	1	blank2r.bmp	0	1	+	0	1	blank2r.bmp	500	1	CPLW	500	1	blank2r.bmp	880	1	krank	880	1	!	1312	1	!	1423	0	0	0	0	0	0
2024-05-16	09:17:54	09:22:19	263509	6.6.1	4_exp_EVA_AWA_CON	39	A	B	Rpleas_acq	Same	Rpleas	2pleas	acq_US_pleas_nomask	acq2_nomask	2	23	480	0	300	300	0	0	397	50	1	0	kreativ	besonnen	gesittet	kuss	gütig	genießen	krank	bange	geizig	krise	gierig	gemein	träumen	engagiert	vertrauen	vergnügt	sonnig	anregung	töten	engstirnig	versagen	verbissen	sterben	ausrottung	1	blank2r.bmp	0	1	+	0	1	blank2r.bmp	500	1	DHJF	500	1	blank2r.bmp	880	4	kuss	880	1	!	-1	1	!	-1	0	0	0	0	0	0
2024-05-16	09:17:54	09:22:21	265719	6.6.1	4_exp_EVA_AWA_CON	39	A	B	Rpleas_acq	Same	Rpleas	2pleas	acq_US_pleas_nomask	acq2_nomask	2	24	480	1	300	300	0	0	434	50	1	0	kreativ	besonnen	gesittet	kuss	gütig	genießen	krank	bange	geizig	krise	gierig	gemein	träumen	engagiert	vertrauen	vergnügt	sonnig	anregung	töten	engstirnig	versagen	verbissen	sterben	ausrottung	1	blank2r.bmp	0	1	+	0	1	blank2r.bmp	500	1	DHJF	500	1	blank2r.bmp	880	1	kreativ	880	1	!	1313	1	!	1334	0	0	0	0	0	0
2024-05-16	09:17:54	09:22:23	268152	6.6.1	4_exp_EVA_AWA_CON	39	A	B	Rpleas_acq	Same	Rpleas	2pleas	acq_US_pleas_nomask	acq2_nomask	2	25	480	1	300	300	0	0	454	46	0	0	kreativ	besonnen	gesittet	kuss	gütig	genießen	krank	bange	geizig	krise	gierig	gemein	träumen	engagiert	vertrauen	vergnügt	sonnig	anregung	töten	engstirnig	versagen	verbissen	sterben	ausrottung	1	blank2r.bmp	0	1	+	0	1	blank2r.bmp	500	1	DHJF	500	1	blank2r.bmp	880	3	gesittet	880	1	FEHLER	1647	1	!	1312	1	!	1355	0	0	0
2024-05-16	09:17:54	09:22:25	270231	6.6.1	4_exp_EVA_AWA_CON	39	A	B	Rpleas_acq	Same	Rpleas	2pleas	acq_new_pleas_nomask	acq2_nomask	2	26	480	1	300	300	0	0	503	50	1	0	kreativ	besonnen	gesittet	kuss	gütig	genießen	krank	bange	geizig	krise	gierig	gemein	träumen	engagiert	vertrauen	vergnügt	sonnig	anregung	töten	engstirnig	versagen	verbissen	sterben	ausrottung	1	blank2r.bmp	0	1	+	0	1	blank2r.bmp	500	2	B2r.bmp	500	1	blank2r.bmp	880	1	träumen	880	1	!	1312	1	!	1404	0	0	0	0	0	0
2024-05-16	09:17:54	09:22:28	272480	6.6.1	4_exp_EVA_AWA_CON	39	A	B	Rpleas_acq	Same	Rpleas	2pleas	acq_US_unple_nomask	acq2_nomask	2	27	480	1	300	300	0	0	469	46	1	0	kreativ	besonnen	gesittet	kuss	gütig	genießen	krank	bange	geizig	krise	gierig	gemein	träumen	engagiert	vertrauen	vergnügt	sonnig	anregung	töten	engstirnig	versagen	verbissen	sterben	ausrottung	1	blank2r.bmp	0	1	+	0	1	blank2r.bmp	500	1	CPLW	500	1	blank2r.bmp	880	6	gemein	880	1	!	1313	1	!	1370	0	0	0	0	0	0
2024-05-16	09:17:54	09:22:30	274969	6.6.1	4_exp_EVA_AWA_CON	39	A	B	Rpleas_acq	Same	Rpleas	2pleas	acq_US_unple_nomask	acq2_nomask	2	28	480	1	300	300	0	0	506	50	0	0	kreativ	besonnen	gesittet	kuss	gütig	genießen	krank	bange	geizig	krise	gierig	gemein	träumen	engagiert	vertrauen	vergnügt	sonnig	anregung	töten	engstirnig	versagen	verbissen	sterben	ausrottung	1	blank2r.bmp	0	1	+	0	1	blank2r.bmp	500	1	CPLW	500	1	blank2r.bmp	880	5	gierig	880	1	FEHLER	1699	1	!	1313	1	!	1407	0	0	0
2024-05-16	09:17:54	09:22:32	276999	6.6.1	4_exp_EVA_AWA_CON	39	A	B	Rpleas_acq	Same	Rpleas	2pleas	acq_US_pleas_nomask	acq2_nomask	2	29	480	1	300	300	0	0	456	50	1	0	kreativ	besonnen	gesittet	kuss	gütig	genießen	krank	bange	geizig	krise	gierig	gemein	träumen	engagiert	vertrauen	vergnügt	sonnig	anregung	töten	engstirnig	versagen	verbissen	sterben	ausrottung	1	blank2r.bmp	0	1	+	0	1	blank2r.bmp	500	1	DHJF	500	1	blank2r.bmp	880	2	besonnen	880	1	!	1312	1	!	1357	0	0	0	0	0	0
2024-05-16	09:17:54	09:22:35	279513	6.6.1	4_exp_EVA_AWA_CON	39	A	B	Rpleas_acq	Same	Rpleas	2pleas	acq_US_unple_nomask	acq2_nomask	2	30	480	1	300	300	0	0	537	50	0	0	kreativ	besonnen	gesittet	kuss	gütig	genießen	krank	bange	geizig	krise	gierig	gemein	träumen	engagiert	vertrauen	vergnügt	sonnig	anregung	töten	engstirnig	versagen	verbissen	sterben	ausrottung	1	blank2r.bmp	0	1	+	0	1	blank2r.bmp	500	1	CPLW	500	1	blank2r.bmp	880	3	geizig	880	1	FEHLER	1730	1	!	1313	1	!	1438	0	0	0
2024-05-16	09:17:54	09:22:37	281709	6.6.1	4_exp_EVA_AWA_CON	39	A	B	Rpleas_acq	Same	Rpleas	2pleas	acq_new_unple_nomask	acq2_nomask	2	31	480	0	300	300	0	0	625	46	1	0	kreativ	besonnen	gesittet	kuss	gütig	genießen	krank	bange	geizig	krise	gierig	gemein	träumen	engagiert	vertrauen	vergnügt	sonnig	anregung	töten	engstirnig	versagen	verbissen	sterben	ausrottung	1	blank2r.bmp	0	1	+	0	1	blank2r.bmp	500	4	B4r.bmp	500	1	blank2r.bmp	880	4	verbissen	880	1	!	1312	1	!	-1	0	0	0	0	0	0
2024-05-16	09:17:54	09:22:39	283935	6.6.1	4_exp_EVA_AWA_CON	39	A	B	Rpleas_acq	Same	Rpleas	2pleas	acq_new_pleas_nomask	acq2_nomask	2	32	480	1	300	300	0	0	448	50	1	0	kreativ	besonnen	gesittet	kuss	gütig	genießen	krank	bange	geizig	krise	gierig	gemein	träumen	engagiert	vertrauen	vergnügt	sonnig	anregung	töten	engstirnig	versagen	verbissen	sterben	ausrottung	1	blank2r.bmp	0	1	+	0	1	blank2r.bmp	500	1	B1r.bmp	500	1	blank2r.bmp	880	5	sonnig	880	1	!	1313	1	!	1349	0	0	0	0	0	0
2024-05-16	09:17:54	09:22:41	286134	6.6.1	4_exp_EVA_AWA_CON	39	A	B	Rpleas_acq	Same	Rpleas	2pleas	acq_new_unple_nomask	acq2_nomask	2	33	480	1	300	300	0	0	417	46	1	0	kreativ	besonnen	gesittet	kuss	gütig	genießen	krank	bange	geizig	krise	gierig	gemein	träumen	engagiert	vertrauen	vergnügt	sonnig	anregung	töten	engstirnig	versagen	verbissen	sterben	ausrottung	1	blank2r.bmp	0	1	+	0	1	blank2r.bmp	500	3	B3r.bmp	500	1	blank2r.bmp	880	1	töten	880	1	!	1313	1	!	1316	0	0	0	0	0	0
2024-05-16	09:17:54	09:22:44	288440	6.6.1	4_exp_EVA_AWA_CON	39	A	B	Rpleas_acq	Same	Rpleas	2pleas	acq_new_pleas_nomask	acq2_nomask	2	34	480	1	300	300	0	0	529	50	1	0	kreativ	besonnen	gesittet	kuss	gütig	genießen	krank	bange	geizig	krise	gierig	gemein	träumen	engagiert	vertrauen	vergnügt	sonnig	anregung	töten	engstirnig	versagen	verbissen	sterben	ausrottung	1	blank2r.bmp	0	1	+	0	1	blank2r.bmp	500	2	B2r.bmp	500	1	blank2r.bmp	880	4	vergnügt	880	1	!	1313	1	!	1430	0	0	0	0	0	0
2024-05-16	09:17:54	09:22:46	290613	6.6.1	4_exp_EVA_AWA_CON	39	A	B	Rpleas_acq	Same	Rpleas	2pleas	acq_new_unple_nomask	acq2_nomask	2	35	480	0	300	300	0	0	393	46	1	0	kreativ	besonnen	gesittet	kuss	gütig	genießen	krank	bange	geizig	krise	gierig	gemein	träumen	engagiert	vertrauen	vergnügt	sonnig	anregung	töten	engstirnig	versagen	verbissen	sterben	ausrottung	1	blank2r.bmp	0	1	+	0	1	blank2r.bmp	500	8	C4r.bmp	500	1	blank2r.bmp	880	3	versagen	880	1	!	-1	1	!	-1	0	0	0	0	0	0
2024-05-16	09:17:54	09:22:48	292839	6.6.1	4_exp_EVA_AWA_CON	39	A	B	Rpleas_acq	Same	Rpleas	2pleas	acq_US_pleas_nomask	acq2_nomask	2	36	480	1	300	300	0	0	446	50	1	0	kreativ	besonnen	gesittet	kuss	gütig	genießen	krank	bange	geizig	krise	gierig	gemein	träumen	engagiert	vertrauen	vergnügt	sonnig	anregung	töten	engstirnig	versagen	verbissen	sterben	ausrottung	1	blank2r.bmp	0	1	+	0	1	blank2r.bmp	500	1	DHJF	500	1	blank2r.bmp	880	6	genießen	880	1	!	1313	1	!	1347	0	0	0	0	0	0
2024-05-16	09:17:54	09:23:05	309768	6.6.1	4_exp_EVA_AWA_CON	39	A	B	Rpleas_acq	Same	Rpleas	2pleas	acq_US_unple_nomask	acq3_nomask	3	1	453	0	300	300	0	0	674	50	0	0	kreativ	besonnen	gesittet	kuss	gütig	genießen	krank	bange	geizig	krise	gierig	gemein	träumen	engagiert	vertrauen	vergnügt	sonnig	anregung	töten	engstirnig	versagen	verbissen	sterben	ausrottung	1	blank2r.bmp	0	1	+	0	1	blank2r.bmp	500	1	CPLW	500	1	blank2r.bmp	880	5	gierig	880	1	FEHLER	1866	1	!	1293	1	!	-1	0	0	0
2024-05-16	09:17:54	09:23:07	311917	6.6.1	4_exp_EVA_AWA_CON	39	A	B	Rpleas_acq	Same	Rpleas	2pleas	acq_US_pleas_nomask	acq3_nomask	3	2	453	0	300	300	0	0	574	50	1	0	kreativ	besonnen	gesittet	kuss	gütig	genießen	krank	bange	geizig	krise	gierig	gemein	träumen	engagiert	vertrauen	vergnügt	sonnig	anregung	töten	engstirnig	versagen	verbissen	sterben	ausrottung	1	blank2r.bmp	0	1	+	0	1	blank2r.bmp	500	1	DHJF	500	1	blank2r.bmp	880	6	genießen	880	1	!	1293	1	!	-1	0	0	0	0	0	0
2024-05-16	09:17:54	09:23:09	314159	6.6.1	4_exp_EVA_AWA_CON	39	A	B	Rpleas_acq	Same	Rpleas	2pleas	acq_US_unple_nomask	acq3_nomask	3	3	453	1	300	300	0	0	463	46	1	0	kreativ	besonnen	gesittet	kuss	gütig	genießen	krank	bange	geizig	krise	gierig	gemein	träumen	engagiert	vertrauen	vergnügt	sonnig	anregung	töten	engstirnig	versagen	verbissen	sterben	ausrottung	1	blank2r.bmp	0	1	+	0	1	blank2r.bmp	500	1	CPLW	500	1	blank2r.bmp	880	4	krise	880	1	!	1292	1	!	1363	0	0	0	0	0	0
2024-05-16	09:17:54	09:23:12	316688	6.6.1	4_exp_EVA_AWA_CON	39	A	B	Rpleas_acq	Same	Rpleas	2pleas	acq_US_unple_nomask	acq3_nomask	3	4	453	0	300	300	0	0	549	50	0	0	kreativ	besonnen	gesittet	kuss	gütig	genießen	krank	bange	geizig	krise	gierig	gemein	träumen	engagiert	vertrauen	vergnügt	sonnig	anregung	töten	engstirnig	versagen	verbissen	sterben	ausrottung	1	blank2r.bmp	0	1	+	0	1	blank2r.bmp	500	1	CPLW	500	1	blank2r.bmp	880	2	bange	880	1	FEHLER	1742	1	!	1292	1	!	-1	0	0	0
2024-05-16	09:17:54	09:23:14	318735	6.6.1	4_exp_EVA_AWA_CON	39	A	B	Rpleas_acq	Same	Rpleas	2pleas	acq_US_unple_nomask	acq3_nomask	3	5	453	1	300	300	0	0	475	46	1	0	kreativ	besonnen	gesittet	kuss	gütig	genießen	krank	bange	geizig	krise	gierig	gemein	träumen	engagiert	vertrauen	vergnügt	sonnig	anregung	töten	engstirnig	versagen	verbissen	sterben	ausrottung	1	blank2r.bmp	0	1	+	0	1	blank2r.bmp	500	1	CPLW	500	1	blank2r.bmp	880	1	krank	880	1	!	1292	1	!	1376	0	0	0	0	0	0
2024-05-16	09:17:54	09:23:16	320999	6.6.1	4_exp_EVA_AWA_CON	39	A	B	Rpleas_acq	Same	Rpleas	2pleas	acq_US_pleas_nomask	acq3_nomask	3	6	453	1	300	300	0	0	488	50	1	0	kreativ	besonnen	gesittet	kuss	gütig	genießen	krank	bange	geizig	krise	gierig	gemein	träumen	engagiert	vertrauen	vergnügt	sonnig	anregung	töten	engstirnig	versagen	verbissen	sterben	ausrottung	1	blank2r.bmp	0	1	+	0	1	blank2r.bmp	500	1	DHJF	500	1	blank2r.bmp	880	5	gütig	880	1	!	1292	1	!	1389	0	0	0	0	0	0
2024-05-16	09:17:54	09:23:18	323271	6.6.1	4_exp_EVA_AWA_CON	39	A	B	Rpleas_acq	Same	Rpleas	2pleas	acq_US_unple_nomask	acq3_nomask	3	7	453	1	300	300	0	0	489	46	1	0	kreativ	besonnen	gesittet	kuss	gütig	genießen	krank	bange	geizig	krise	gierig	gemein	träumen	engagiert	vertrauen	vergnügt	sonnig	anregung	töten	engstirnig	versagen	verbissen	sterben	ausrottung	1	blank2r.bmp	0	1	+	0	1	blank2r.bmp	500	1	CPLW	500	1	blank2r.bmp	880	6	gemein	880	1	!	1292	1	!	1390	0	0	0	0	0	0
2024-05-16	09:17:54	09:23:21	325575	6.6.1	4_exp_EVA_AWA_CON	39	A	B	Rpleas_acq	Same	Rpleas	2pleas	acq_US_pleas_nomask	acq3_nomask	3	8	453	1	300	300	0	0	520	50	1	0	kreativ	besonnen	gesittet	kuss	gütig	genießen	krank	bange	geizig	krise	gierig	gemein	träumen	engagiert	vertrauen	vergnügt	sonnig	anregung	töten	engstirnig	versagen	verbissen	sterben	ausrottung	1	blank2r.bmp	0	1	+	0	1	blank2r.bmp	500	1	DHJF	500	1	blank2r.bmp	880	1	kreativ	880	1	!	1292	1	!	1422	0	0	0	0	0	0
2024-05-16	09:17:54	09:23:23	327791	6.6.1	4_exp_EVA_AWA_CON	39	A	B	Rpleas_acq	Same	Rpleas	2pleas	acq_US_pleas_nomask	acq3_nomask	3	9	453	1	300	300	0	0	436	50	1	0	kreativ	besonnen	gesittet	kuss	gütig	genießen	krank	bange	geizig	krise	gierig	gemein	träumen	engagiert	vertrauen	vergnügt	sonnig	anregung	töten	engstirnig	versagen	verbissen	sterben	ausrottung	1	blank2r.bmp	0	1	+	0	1	blank2r.bmp	500	1	DHJF	500	1	blank2r.bmp	880	4	kuss	880	1	!	1292	1	!	1337	0	0	0	0	0	0
2024-05-16	09:17:54	09:23:25	330192	6.6.1	4_exp_EVA_AWA_CON	39	A	B	Rpleas_acq	Same	Rpleas	2pleas	acq_US_pleas_nomask	acq3_nomask	3	10	453	1	300	300	0	0	424	46	0	0	kreativ	besonnen	gesittet	kuss	gütig	genießen	krank	bange	geizig	krise	gierig	gemein	träumen	engagiert	vertrauen	vergnügt	sonnig	anregung	töten	engstirnig	versagen	verbissen	sterben	ausrottung	1	blank2r.bmp	0	1	+	0	1	blank2r.bmp	500	1	DHJF	500	1	blank2r.bmp	880	3	gesittet	880	1	FEHLER	1617	1	!	1292	1	!	1325	0	0	0
2024-05-16	09:17:54	09:23:28	332409	6.6.1	4_exp_EVA_AWA_CON	39	A	B	Rpleas_acq	Same	Rpleas	2pleas	acq_US_pleas_nomask	acq3_nomask	3	11	453	1	300	300	0	0	439	46	0	0	kreativ	besonnen	gesittet	kuss	gütig	genießen	krank	bange	geizig	krise	gierig	gemein	träumen	engagiert	vertrauen	vergnügt	sonnig	anregung	töten	engstirnig	versagen	verbissen	sterben	ausrottung	1	blank2r.bmp	0	1	+	0	1	blank2r.bmp	500	1	DHJF	500	1	blank2r.bmp	880	2	besonnen	880	1	FEHLER	1632	1	!	1293	1	!	1340	0	0	0
2024-05-16	09:17:54	09:23:30	334601	6.6.1	4_exp_EVA_AWA_CON	39	A	B	Rpleas_acq	Same	Rpleas	2pleas	acq_US_unple_nomask	acq3_nomask	3	12	453	1	300	300	0	0	410	50	0	0	kreativ	besonnen	gesittet	kuss	gütig	genießen	krank	bange	geizig	krise	gierig	gemein	träumen	engagiert	vertrauen	vergnügt	sonnig	anregung	töten	engstirnig	versagen	verbissen	sterben	ausrottung	1	blank2r.bmp	0	1	+	0	1	blank2r.bmp	500	1	CPLW	500	1	blank2r.bmp	880	3	geizig	880	1	FEHLER	1603	1	!	1293	1	!	1310	0	0	0
2024-05-16	09:17:54	09:23:32	336816	6.6.1	4_exp_EVA_AWA_CON	39	A	B	Rpleas_acq	Same	Rpleas	2pleas	acq_US_pleas_nomask	acq3_nomask	3	13	453	1	300	300	0	0	434	46	0	0	kreativ	besonnen	gesittet	kuss	gütig	genießen	krank	bange	geizig	krise	gierig	gemein	träumen	engagiert	vertrauen	vergnügt	sonnig	anregung	töten	engstirnig	versagen	verbissen	sterben	ausrottung	1	blank2r.bmp	0	1	+	0	1	blank2r.bmp	500	1	DHJF	500	1	blank2r.bmp	880	2	besonnen	880	1	FEHLER	1627	1	!	1293	1	!	1335	0	0	0
2024-05-16	09:17:54	09:23:34	338925	6.6.1	4_exp_EVA_AWA_CON	39	A	B	Rpleas_acq	Same	Rpleas	2pleas	acq_US_unple_nomask	acq3_nomask	3	14	453	0	300	300	0	0	535	46	1	0	kreativ	besonnen	gesittet	kuss	gütig	genießen	krank	bange	geizig	krise	gierig	gemein	träumen	engagiert	vertrauen	vergnügt	sonnig	anregung	töten	engstirnig	versagen	verbissen	sterben	ausrottung	1	blank2r.bmp	0	1	+	0	1	blank2r.bmp	500	1	CPLW	500	1	blank2r.bmp	880	1	krank	880	1	!	1292	1	!	-1	0	0	0	0	0	0
2024-05-16	09:17:54	09:23:36	341245	6.6.1	4_exp_EVA_AWA_CON	39	A	B	Rpleas_acq	Same	Rpleas	2pleas	acq_US_unple_nomask	acq3_nomask	3	15	453	0	300	300	0	0	543	46	1	0	kreativ	besonnen	gesittet	kuss	gütig	genießen	krank	bange	geizig	krise	gierig	gemein	träumen	engagiert	vertrauen	vergnügt	sonnig	anregung	töten	engstirnig	versagen	verbissen	sterben	ausrottung	1	blank2r.bmp	0	1	+	0	1	blank2r.bmp	500	1	CPLW	500	1	blank2r.bmp	880	3	geizig	880	1	!	1292	1	!	-1	0	0	0	0	0	0
2024-05-16	09:17:54	09:23:39	343535	6.6.1	4_exp_EVA_AWA_CON	39	A	B	Rpleas_acq	Same	Rpleas	2pleas	acq_US_unple_nomask	acq3_nomask	3	16	453	1	300	300	0	0	510	46	1	0	kreativ	besonnen	gesittet	kuss	gütig	genießen	krank	bange	geizig	krise	gierig	gemein	träumen	engagiert	vertrauen	vergnügt	sonnig	anregung	töten	engstirnig	versagen	verbissen	sterben	ausrottung	1	blank2r.bmp	0	1	+	0	1	blank2r.bmp	500	1	CPLW	500	1	blank2r.bmp	880	2	bange	880	1	!	1292	1	!	1410	0	0	0	0	0	0
2024-05-16	09:17:54	09:23:41	345735	6.6.1	4_exp_EVA_AWA_CON	39	A	B	Rpleas_acq	Same	Rpleas	2pleas	acq_US_pleas_nomask	acq3_nomask	3	17	453	1	300	300	0	0	418	50	1	0	kreativ	besonnen	gesittet	kuss	gütig	genießen	krank	bange	geizig	krise	gierig	gemein	träumen	engagiert	vertrauen	vergnügt	sonnig	anregung	töten	engstirnig	versagen	verbissen	sterben	ausrottung	1	blank2r.bmp	0	1	+	0	1	blank2r.bmp	500	1	DHJF	500	1	blank2r.bmp	880	4	kuss	880	1	!	1292	1	!	1319	0	0	0	0	0	0
2024-05-16	09:17:54	09:23:43	347928	6.6.1	4_exp_EVA_AWA_CON	39	A	B	Rpleas_acq	Same	Rpleas	2pleas	acq_US_pleas_nomask	acq3_nomask	3	18	453	1	300	300	0	0	409	50	1	0	kreativ	besonnen	gesittet	kuss	gütig	genießen	krank	bange	geizig	krise	gierig	gemein	träumen	engagiert	vertrauen	vergnügt	sonnig	anregung	töten	engstirnig	versagen	verbissen	sterben	ausrottung	1	blank2r.bmp	0	1	+	0	1	blank2r.bmp	500	1	DHJF	500	1	blank2r.bmp	880	1	kreativ	880	1	!	1293	1	!	1310	0	0	0	0	0	0
2024-05-16	09:17:54	09:23:45	350245	6.6.1	4_exp_EVA_AWA_CON	39	A	B	Rpleas_acq	Same	Rpleas	2pleas	acq_US_unple_nomask	acq3_nomask	3	19	453	0	300	300	0	0	536	46	1	0	kreativ	besonnen	gesittet	kuss	gütig	genießen	krank	bange	geizig	krise	gierig	gemein	träumen	engagiert	vertrauen	vergnügt	sonnig	anregung	töten	engstirnig	versagen	verbissen	sterben	ausrottung	1	blank2r.bmp	0	1	+	0	1	blank2r.bmp	500	1	CPLW	500	1	blank2r.bmp	880	5	gierig	880	1	!	1292	1	!	-1	0	0	0	0	0	0
2024-05-16	09:17:54	09:23:48	352511	6.6.1	4_exp_EVA_AWA_CON	39	A	B	Rpleas_acq	Same	Rpleas	2pleas	acq_US_unple_nomask	acq3_nomask	3	20	453	1	300	300	0	0	489	46	1	0	kreativ	besonnen	gesittet	kuss	gütig	genießen	krank	bange	geizig	krise	gierig	gemein	träumen	engagiert	vertrauen	vergnügt	sonnig	anregung	töten	engstirnig	versagen	verbissen	sterben	ausrottung	1	blank2r.bmp	0	1	+	0	1	blank2r.bmp	500	1	CPLW	500	1	blank2r.bmp	880	4	krise	880	1	!	1292	1	!	1391	0	0	0	0	0	0
2024-05-16	09:17:54	09:23:50	355033	6.6.1	4_exp_EVA_AWA_CON	39	A	B	Rpleas_acq	Same	Rpleas	2pleas	acq_US_pleas_nomask	acq3_nomask	3	21	453	0	300	300	0	0	538	46	0	0	kreativ	besonnen	gesittet	kuss	gütig	genießen	krank	bange	geizig	krise	gierig	gemein	träumen	engagiert	vertrauen	vergnügt	sonnig	anregung	töten	engstirnig	versagen	verbissen	sterben	ausrottung	1	blank2r.bmp	0	1	+	0	1	blank2r.bmp	500	1	DHJF	500	1	blank2r.bmp	880	5	gütig	880	1	FEHLER	1732	1	!	1292	1	!	-1	0	0	0
2024-05-16	09:17:54	09:23:52	357047	6.6.1	4_exp_EVA_AWA_CON	39	A	B	Rpleas_acq	Same	Rpleas	2pleas	acq_US_unple_nomask	acq3_nomask	3	22	453	1	300	300	0	0	443	46	1	0	kreativ	besonnen	gesittet	kuss	gütig	genießen	krank	bange	geizig	krise	gierig	gemein	träumen	engagiert	vertrauen	vergnügt	sonnig	anregung	töten	engstirnig	versagen	verbissen	sterben	ausrottung	1	blank2r.bmp	0	1	+	0	1	blank2r.bmp	500	1	CPLW	500	1	blank2r.bmp	880	6	gemein	880	1	!	1292	1	!	1344	0	0	0	0	0	0
2024-05-16	09:17:54	09:23:54	359287	6.6.1	4_exp_EVA_AWA_CON	39	A	B	Rpleas_acq	Same	Rpleas	2pleas	acq_US_pleas_nomask	acq3_nomask	3	23	453	1	300	300	0	0	462	50	1	0	kreativ	besonnen	gesittet	kuss	gütig	genießen	krank	bange	geizig	krise	gierig	gemein	träumen	engagiert	vertrauen	vergnügt	sonnig	anregung	töten	engstirnig	versagen	verbissen	sterben	ausrottung	1	blank2r.bmp	0	1	+	0	1	blank2r.bmp	500	1	DHJF	500	1	blank2r.bmp	880	6	genießen	880	1	!	1293	1	!	1363	0	0	0	0	0	0
2024-05-16	09:17:54	09:23:57	361768	6.6.1	4_exp_EVA_AWA_CON	39	A	B	Rpleas_acq	Same	Rpleas	2pleas	acq_US_pleas_nomask	acq3_nomask	3	24	453	1	300	300	0	0	499	46	0	0	kreativ	besonnen	gesittet	kuss	gütig	genießen	krank	bange	geizig	krise	gierig	gemein	träumen	engagiert	vertrauen	vergnügt	sonnig	anregung	töten	engstirnig	versagen	verbissen	sterben	ausrottung	1	blank2r.bmp	0	1	+	0	1	blank2r.bmp	500	1	DHJF	500	1	blank2r.bmp	880	3	gesittet	880	1	FEHLER	1693	1	!	1292	1	!	1402	0	0	0
2024-05-16	09:17:54	09:23:59	363808	6.6.1	4_exp_EVA_AWA_CON	39	A	B	Rpleas_acq	Same	Rpleas	2pleas	acq_US_pleas_nomask	acq3_nomask	3	25	453	1	300	300	0	0	459	50	1	0	kreativ	besonnen	gesittet	kuss	gütig	genießen	krank	bange	geizig	krise	gierig	gemein	träumen	engagiert	vertrauen	vergnügt	sonnig	anregung	töten	engstirnig	versagen	verbissen	sterben	ausrottung	1	blank2r.bmp	0	1	+	0	1	blank2r.bmp	500	1	DHJF	500	1	blank2r.bmp	880	4	kuss	880	1	!	1293	1	!	1360	0	0	0	0	0	0
2024-05-16	09:17:54	09:24:01	366031	6.6.1	4_exp_EVA_AWA_CON	39	A	B	Rpleas_acq	Same	Rpleas	2pleas	acq_US_unple_nomask	acq3_nomask	3	26	453	1	300	300	0	0	440	46	1	0	kreativ	besonnen	gesittet	kuss	gütig	genießen	krank	bange	geizig	krise	gierig	gemein	träumen	engagiert	vertrauen	vergnügt	sonnig	anregung	töten	engstirnig	versagen	verbissen	sterben	ausrottung	1	blank2r.bmp	0	1	+	0	1	blank2r.bmp	500	1	CPLW	500	1	blank2r.bmp	880	5	gierig	880	1	!	1292	1	!	1342	0	0	0	0	0	0
2024-05-16	09:17:54	09:24:03	368247	6.6.1	4_exp_EVA_AWA_CON	39	A	B	Rpleas_acq	Same	Rpleas	2pleas	acq_US_unple_nomask	acq3_nomask	3	27	453	1	300	300	0	0	436	46	1	0	kreativ	besonnen	gesittet	kuss	gütig	genießen	krank	bange	geizig	krise	gierig	gemein	träumen	engagiert	vertrauen	vergnügt	sonnig	anregung	töten	engstirnig	versagen	verbissen	sterben	ausrottung	1	blank2r.bmp	0	1	+	0	1	blank2r.bmp	500	1	CPLW	500	1	blank2r.bmp	880	6	gemein	880	1	!	1292	1	!	1337	0	0	0	0	0	0
2024-05-16	09:17:54	09:24:06	370511	6.6.1	4_exp_EVA_AWA_CON	39	A	B	Rpleas_acq	Same	Rpleas	2pleas	acq_US_pleas_nomask	acq3_nomask	3	28	453	1	300	300	0	0	488	50	1	0	kreativ	besonnen	gesittet	kuss	gütig	genießen	krank	bange	geizig	krise	gierig	gemein	träumen	engagiert	vertrauen	vergnügt	sonnig	anregung	töten	engstirnig	versagen	verbissen	sterben	ausrottung	1	blank2r.bmp	0	1	+	0	1	blank2r.bmp	500	1	DHJF	500	1	blank2r.bmp	880	3	gesittet	880	1	!	1292	1	!	1389	0	0	0	0	0	0
2024-05-16	09:17:54	09:24:08	372881	6.6.1	4_exp_EVA_AWA_CON	39	A	B	Rpleas_acq	Same	Rpleas	2pleas	acq_US_pleas_nomask	acq3_nomask	3	29	453	0	300	300	0	0	385	46	0	0	kreativ	besonnen	gesittet	kuss	gütig	genießen	krank	bange	geizig	krise	gierig	gemein	träumen	engagiert	vertrauen	vergnügt	sonnig	anregung	töten	engstirnig	versagen	verbissen	sterben	ausrottung	1	blank2r.bmp	0	1	+	0	1	blank2r.bmp	500	1	DHJF	500	1	blank2r.bmp	880	6	genießen	880	1	FEHLER	1578	1	!	-1	1	!	-1	0	0	0
2024-05-16	09:17:54	09:24:10	375317	6.6.1	4_exp_EVA_AWA_CON	39	A	B	Rpleas_acq	Same	Rpleas	2pleas	acq_US_unple_nomask	acq3_nomask	3	30	453	0	300	300	0	0	864	46	1	0	kreativ	besonnen	gesittet	kuss	gütig	genießen	krank	bange	geizig	krise	gierig	gemein	träumen	engagiert	vertrauen	vergnügt	sonnig	anregung	töten	engstirnig	versagen	verbissen	sterben	ausrottung	1	blank2r.bmp	0	1	+	0	1	blank2r.bmp	500	1	CPLW	500	1	blank2r.bmp	880	3	geizig	880	1	!	1293	1	!	-1	0	0	0	0	0	0
2024-05-16	09:17:54	09:24:13	377511	6.6.1	4_exp_EVA_AWA_CON	39	A	B	Rpleas_acq	Same	Rpleas	2pleas	acq_US_pleas_nomask	acq3_nomask	3	31	453	1	300	300	0	0	414	50	1	0	kreativ	besonnen	gesittet	kuss	gütig	genießen	krank	bange	geizig	krise	gierig	gemein	träumen	engagiert	vertrauen	vergnügt	sonnig	anregung	töten	engstirnig	versagen	verbissen	sterben	ausrottung	1	blank2r.bmp	0	1	+	0	1	blank2r.bmp	500	1	DHJF	500	1	blank2r.bmp	880	1	kreativ	880	1	!	1293	1	!	1315	0	0	0	0	0	0
2024-05-16	09:17:54	09:24:15	379760	6.6.1	4_exp_EVA_AWA_CON	39	A	B	Rpleas_acq	Same	Rpleas	2pleas	acq_US_unple_nomask	acq3_nomask	3	32	453	1	300	300	0	0	470	46	1	0	kreativ	besonnen	gesittet	kuss	gütig	genießen	krank	bange	geizig	krise	gierig	gemein	träumen	engagiert	vertrauen	vergnügt	sonnig	anregung	töten	engstirnig	versagen	verbissen	sterben	ausrottung	1	blank2r.bmp	0	1	+	0	1	blank2r.bmp	500	1	CPLW	500	1	blank2r.bmp	880	1	krank	880	1	!	1292	1	!	1372	0	0	0	0	0	0
2024-05-16	09:17:54	09:24:17	381967	6.6.1	4_exp_EVA_AWA_CON	39	A	B	Rpleas_acq	Same	Rpleas	2pleas	acq_US_pleas_nomask	acq3_nomask	3	33	453	1	300	300	0	0	427	50	1	0	kreativ	besonnen	gesittet	kuss	gütig	genießen	krank	bange	geizig	krise	gierig	gemein	träumen	engagiert	vertrauen	vergnügt	sonnig	anregung	töten	engstirnig	versagen	verbissen	sterben	ausrottung	1	blank2r.bmp	0	1	+	0	1	blank2r.bmp	500	1	DHJF	500	1	blank2r.bmp	880	2	besonnen	880	1	!	1292	1	!	1328	0	0	0	0	0	0
2024-05-16	09:17:54	09:24:19	384277	6.6.1	4_exp_EVA_AWA_CON	39	A	B	Rpleas_acq	Same	Rpleas	2pleas	acq_US_unple_nomask	acq3_nomask	3	34	453	0	300	300	0	0	537	46	1	0	kreativ	besonnen	gesittet	kuss	gütig	genießen	krank	bange	geizig	krise	gierig	gemein	träumen	engagiert	vertrauen	vergnügt	sonnig	anregung	töten	engstirnig	versagen	verbissen	sterben	ausrottung	1	blank2r.bmp	0	1	+	0	1	blank2r.bmp	500	1	CPLW	500	1	blank2r.bmp	880	2	bange	880	1	!	1292	1	!	-1	0	0	0	0	0	0
2024-05-16	09:17:54	09:24:22	386543	6.6.1	4_exp_EVA_AWA_CON	39	A	B	Rpleas_acq	Same	Rpleas	2pleas	acq_US_pleas_nomask	acq3_nomask	3	35	453	1	300	300	0	0	489	50	1	0	kreativ	besonnen	gesittet	kuss	gütig	genießen	krank	bange	geizig	krise	gierig	gemein	träumen	engagiert	vertrauen	vergnügt	sonnig	anregung	töten	engstirnig	versagen	verbissen	sterben	ausrottung	1	blank2r.bmp	0	1	+	0	1	blank2r.bmp	500	1	DHJF	500	1	blank2r.bmp	880	5	gütig	880	1	!	1293	1	!	1391	0	0	0	0	0	0
2024-05-16	09:17:54	09:24:24	389040	6.6.1	4_exp_EVA_AWA_CON	39	A	B	Rpleas_acq	Same	Rpleas	2pleas	acq_US_unple_nomask	acq3_nomask	3	36	453	1	300	300	0	0	514	50	0	0	kreativ	besonnen	gesittet	kuss	gütig	genießen	krank	bange	geizig	krise	gierig	gemein	träumen	engagiert	vertrauen	vergnügt	sonnig	anregung	töten	engstirnig	versagen	verbissen	sterben	ausrottung	1	blank2r.bmp	0	1	+	0	1	blank2r.bmp	500	1	CPLW	500	1	blank2r.bmp	880	4	krise	880	1	FEHLER	1707	1	!	1292	1	!	1415	0	0	0
2024-05-16	09:17:54	09:24:41	405391	6.6.1	4_exp_EVA_AWA_CON	39	A	B	Rpleas_acq	Same	Rpleas	2pleas	acq_US_unple_nomask	acq45_nomask	4	1	400	1	300	300	0	0	416	50	0	0	kreativ	besonnen	gesittet	kuss	gütig	genießen	krank	bange	geizig	krise	gierig	gemein	träumen	engagiert	vertrauen	vergnügt	sonnig	anregung	töten	engstirnig	versagen	verbissen	sterben	ausrottung	1	blank2r.bmp	0	1	+	0	1	blank2r.bmp	500	1	CPLW	500	1	blank2r.bmp	880	6	gemein	880	1	!	1233	1	!	1317	0	0	0	0	0	0
2024-05-16	09:17:54	09:24:43	407653	6.6.1	4_exp_EVA_AWA_CON	39	A	B	Rpleas_acq	Same	Rpleas	2pleas	acq_US_unple_nomask	acq45_nomask	4	2	400	0	300	300	0	0	488	46	1	0	kreativ	besonnen	gesittet	kuss	gütig	genießen	krank	bange	geizig	krise	gierig	gemein	träumen	engagiert	vertrauen	vergnügt	sonnig	anregung	töten	engstirnig	versagen	verbissen	sterben	ausrottung	1	blank2r.bmp	0	1	+	0	1	blank2r.bmp	500	1	CPLW	500	1	blank2r.bmp	880	4	krise	880	1	!	1232	1	!	-1	0	0	0	0	0	0
2024-05-16	09:17:54	09:24:45	409998	6.6.1	4_exp_EVA_AWA_CON	39	A	B	Rpleas_acq	Same	Rpleas	2pleas	acq_US_pleas_nomask	acq45_nomask	4	3	400	0	300	300	0	0	571	50	1	0	kreativ	besonnen	gesittet	kuss	gütig	genießen	krank	bange	geizig	krise	gierig	gemein	träumen	engagiert	vertrauen	vergnügt	sonnig	anregung	töten	engstirnig	versagen	verbissen	sterben	ausrottung	1	blank2r.bmp	0	1	+	0	1	blank2r.bmp	500	1	DHJF	500	1	blank2r.bmp	880	3	gesittet	880	1	!	1232	1	!	-1	0	0	0	0	0	0
2024-05-16	09:17:54	09:24:47	412247	6.6.1	4_exp_EVA_AWA_CON	39	A	B	Rpleas_acq	Same	Rpleas	2pleas	acq_US_unple_nomask	acq45_nomask	4	4	400	1	300	300	0	0	467	46	1	0	kreativ	besonnen	gesittet	kuss	gütig	genießen	krank	bange	geizig	krise	gierig	gemein	träumen	engagiert	vertrauen	vergnügt	sonnig	anregung	töten	engstirnig	versagen	verbissen	sterben	ausrottung	1	blank2r.bmp	0	1	+	0	1	blank2r.bmp	500	1	CPLW	500	1	blank2r.bmp	880	2	bange	880	1	!	1232	1	!	1368	0	0	0	0	0	0
2024-05-16	09:17:54	09:24:50	414415	6.6.1	4_exp_EVA_AWA_CON	39	A	B	Rpleas_acq	Same	Rpleas	2pleas	acq_US_pleas_nomask	acq45_nomask	4	5	400	1	300	300	0	0	393	50	1	0	kreativ	besonnen	gesittet	kuss	gütig	genießen	krank	bange	geizig	krise	gierig	gemein	träumen	engagiert	vertrauen	vergnügt	sonnig	anregung	töten	engstirnig	versagen	verbissen	sterben	ausrottung	1	blank2r.bmp	0	1	+	0	1	blank2r.bmp	500	1	DHJF	500	1	blank2r.bmp	880	6	genießen	880	1	!	1232	1	!	1295	0	0	0	0	0	0
2024-05-16	09:17:54	09:24:52	416663	6.6.1	4_exp_EVA_AWA_CON	39	A	B	Rpleas_acq	Same	Rpleas	2pleas	acq_US_pleas_nomask	acq45_nomask	4	6	400	1	300	300	0	0	470	50	1	0	kreativ	besonnen	gesittet	kuss	gütig	genießen	krank	bange	geizig	krise	gierig	gemein	träumen	engagiert	vertrauen	vergnügt	sonnig	anregung	töten	engstirnig	versagen	verbissen	sterben	ausrottung	1	blank2r.bmp	0	1	+	0	1	blank2r.bmp	500	1	DHJF	500	1	blank2r.bmp	880	5	gütig	880	1	!	1232	1	!	1372	0	0	0	0	0	0
2024-05-16	09:17:54	09:24:54	418839	6.6.1	4_exp_EVA_AWA_CON	39	A	B	Rpleas_acq	Same	Rpleas	2pleas	acq_US_pleas_nomask	acq45_nomask	4	7	400	1	300	300	0	0	394	50	1	0	kreativ	besonnen	gesittet	kuss	gütig	genießen	krank	bange	geizig	krise	gierig	gemein	träumen	engagiert	vertrauen	vergnügt	sonnig	anregung	töten	engstirnig	versagen	verbissen	sterben	ausrottung	1	blank2r.bmp	0	1	+	0	1	blank2r.bmp	500	1	DHJF	500	1	blank2r.bmp	880	4	kuss	880	1	!	1232	1	!	1296	0	0	0	0	0	0
2024-05-16	09:17:54	09:24:56	421039	6.6.1	4_exp_EVA_AWA_CON	39	A	B	Rpleas_acq	Same	Rpleas	2pleas	acq_US_unple_nomask	acq45_nomask	4	8	400	1	300	300	0	0	424	46	1	0	kreativ	besonnen	gesittet	kuss	gütig	genießen	krank	bange	geizig	krise	gierig	gemein	träumen	engagiert	vertrauen	vergnügt	sonnig	anregung	töten	engstirnig	versagen	verbissen	sterben	ausrottung	1	blank2r.bmp	0	1	+	0	1	blank2r.bmp	500	1	CPLW	500	1	blank2r.bmp	880	1	krank	880	1	!	1232	1	!	1325	0	0	0	0	0	0
2024-05-16	09:17:54	09:24:58	423191	6.6.1	4_exp_EVA_AWA_CON	39	A	B	Rpleas_acq	Same	Rpleas	2pleas	acq_US_pleas_nomask	acq45_nomask	4	9	400	1	300	300	0	0	374	50	1	0	kreativ	besonnen	gesittet	kuss	gütig	genießen	krank	bange	geizig	krise	gierig	gemein	träumen	engagiert	vertrauen	vergnügt	sonnig	anregung	töten	engstirnig	versagen	verbissen	sterben	ausrottung	1	blank2r.bmp	0	1	+	0	1	blank2r.bmp	500	1	DHJF	500	1	blank2r.bmp	880	1	kreativ	880	1	!	1232	1	!	1275	0	0	0	0	0	0
2024-05-16	09:17:54	09:25:00	425328	6.6.1	4_exp_EVA_AWA_CON	39	A	B	Rpleas_acq	Same	Rpleas	2pleas	acq_US_pleas_nomask	acq45_nomask	4	10	400	1	300	300	0	0	359	46	0	0	kreativ	besonnen	gesittet	kuss	gütig	genießen	krank	bange	geizig	krise	gierig	gemein	träumen	engagiert	vertrauen	vergnügt	sonnig	anregung	töten	engstirnig	versagen	verbissen	sterben	ausrottung	1	blank2r.bmp	0	1	+	0	1	blank2r.bmp	500	1	DHJF	500	1	blank2r.bmp	880	2	besonnen	880	1	!	1232	1	!	1260	0	0	0	0	0	0
2024-05-16	09:17:54	09:25:03	427511	6.6.1	4_exp_EVA_AWA_CON	39	A	B	Rpleas_acq	Same	Rpleas	2pleas	acq_US_pleas_nomask	acq45_nomask	4	11	400	1	300	300	0	0	402	50	1	0	kreativ	besonnen	gesittet	kuss	gütig	genießen	krank	bange	geizig	krise	gierig	gemein	träumen	engagiert	vertrauen	vergnügt	sonnig	anregung	töten	engstirnig	versagen	verbissen	sterben	ausrottung	1	blank2r.bmp	0	1	+	0	1	blank2r.bmp	500	1	DHJF	500	1	blank2r.bmp	880	5	gütig	880	1	!	1232	1	!	1303	0	0	0	0	0	0
2024-05-16	09:17:54	09:25:05	429605	6.6.1	4_exp_EVA_AWA_CON	39	A	B	Rpleas_acq	Same	Rpleas	2pleas	acq_US_unple_nomask	acq45_nomask	4	12	400	0	300	300	0	0	316	46	1	0	kreativ	besonnen	gesittet	kuss	gütig	genießen	krank	bange	geizig	krise	gierig	gemein	träumen	engagiert	vertrauen	vergnügt	sonnig	anregung	töten	engstirnig	versagen	verbissen	sterben	ausrottung	1	blank2r.bmp	0	1	+	0	1	blank2r.bmp	500	1	CPLW	500	1	blank2r.bmp	880	5	gierig	880	1	!	-1	1	!	-1	0	0	0	0	0	0
2024-05-16	09:17:54	09:25:07	431767	6.6.1	4_exp_EVA_AWA_CON	39	A	B	Rpleas_acq	Same	Rpleas	2pleas	acq_US_unple_nomask	acq45_nomask	4	13	400	1	300	300	0	0	384	50	0	0	kreativ	besonnen	gesittet	kuss	gütig	genießen	krank	bange	geizig	krise	gierig	gemein	träumen	engagiert	vertrauen	vergnügt	sonnig	anregung	töten	engstirnig	versagen	verbissen	sterben	ausrottung	1	blank2r.bmp	0	1	+	0	1	blank2r.bmp	500	1	CPLW	500	1	blank2r.bmp	880	3	geizig	880	1	!	1233	1	!	1286	0	0	0	0	0	0
2024-05-16	09:17:54	09:25:09	434101	6.6.1	4_exp_EVA_AWA_CON	39	A	B	Rpleas_acq	Same	Rpleas	2pleas	acq_US_unple_nomask	acq45_nomask	4	14	400	0	300	300	0	0	558	46	1	0	kreativ	besonnen	gesittet	kuss	gütig	genießen	krank	bange	geizig	krise	gierig	gemein	träumen	engagiert	vertrauen	vergnügt	sonnig	anregung	töten	engstirnig	versagen	verbissen	sterben	ausrottung	1	blank2r.bmp	0	1	+	0	1	blank2r.bmp	500	1	CPLW	500	1	blank2r.bmp	880	5	gierig	880	1	!	1232	1	!	-1	0	0	0	0	0	0
2024-05-16	09:17:54	09:25:12	436477	6.6.1	4_exp_EVA_AWA_CON	39	A	B	Rpleas_acq	Same	Rpleas	2pleas	acq_US_unple_nomask	acq45_nomask	4	15	400	0	300	300	0	0	603	46	1	0	kreativ	besonnen	gesittet	kuss	gütig	genießen	krank	bange	geizig	krise	gierig	gemein	träumen	engagiert	vertrauen	vergnügt	sonnig	anregung	töten	engstirnig	versagen	verbissen	sterben	ausrottung	1	blank2r.bmp	0	1	+	0	1	blank2r.bmp	500	1	CPLW	500	1	blank2r.bmp	880	3	geizig	880	1	!	1232	1	!	-1	0	0	0	0	0	0
2024-05-16	09:17:54	09:25:14	438696	6.6.1	4_exp_EVA_AWA_CON	39	A	B	Rpleas_acq	Same	Rpleas	2pleas	acq_US_pleas_nomask	acq45_nomask	4	16	400	1	300	300	0	0	437	50	1	0	kreativ	besonnen	gesittet	kuss	gütig	genießen	krank	bange	geizig	krise	gierig	gemein	träumen	engagiert	vertrauen	vergnügt	sonnig	anregung	töten	engstirnig	versagen	verbissen	sterben	ausrottung	1	blank2r.bmp	0	1	+	0	1	blank2r.bmp	500	1	DHJF	500	1	blank2r.bmp	880	3	gesittet	880	1	!	1232	1	!	1339	0	0	0	0	0	0
2024-05-16	09:17:54	09:25:16	440981	6.6.1	4_exp_EVA_AWA_CON	39	A	B	Rpleas_acq	Same	Rpleas	2pleas	acq_US_pleas_nomask	acq45_nomask	4	17	400	0	300	300	0	0	504	50	1	0	kreativ	besonnen	gesittet	kuss	gütig	genießen	krank	bange	geizig	krise	gierig	gemein	träumen	engagiert	vertrauen	vergnügt	sonnig	anregung	töten	engstirnig	versagen	verbissen	sterben	ausrottung	1	blank2r.bmp	0	1	+	0	1	blank2r.bmp	500	1	DHJF	500	1	blank2r.bmp	880	6	genießen	880	1	!	1232	1	!	-1	0	0	0	0	0	0
2024-05-16	09:17:54	09:25:18	443159	6.6.1	4_exp_EVA_AWA_CON	39	A	B	Rpleas_acq	Same	Rpleas	2pleas	acq_US_unple_nomask	acq45_nomask	4	18	400	1	300	300	0	0	399	46	1	0	kreativ	besonnen	gesittet	kuss	gütig	genießen	krank	bange	geizig	krise	gierig	gemein	träumen	engagiert	vertrauen	vergnügt	sonnig	anregung	töten	engstirnig	versagen	verbissen	sterben	ausrottung	1	blank2r.bmp	0	1	+	0	1	blank2r.bmp	500	1	CPLW	500	1	blank2r.bmp	880	4	krise	880	1	!	1233	1	!	1300	0	0	0	0	0	0
2024-05-16	09:17:54	09:25:20	445335	6.6.1	4_exp_EVA_AWA_CON	39	A	B	Rpleas_acq	Same	Rpleas	2pleas	acq_US_unple_nomask	acq45_nomask	4	19	400	1	300	300	0	0	394	50	0	0	kreativ	besonnen	gesittet	kuss	gütig	genießen	krank	bange	geizig	krise	gierig	gemein	träumen	engagiert	vertrauen	vergnügt	sonnig	anregung	töten	engstirnig	versagen	verbissen	sterben	ausrottung	1	blank2r.bmp	0	1	+	0	1	blank2r.bmp	500	1	CPLW	500	1	blank2r.bmp	880	2	bange	880	1	!	1232	1	!	1295	0	0	0	0	0	0
2024-05-16	09:17:54	09:25:23	447487	6.6.1	4_exp_EVA_AWA_CON	39	A	B	Rpleas_acq	Same	Rpleas	2pleas	acq_US_pleas_nomask	acq45_nomask	4	20	400	1	300	300	0	0	375	50	1	0	kreativ	besonnen	gesittet	kuss	gütig	genießen	krank	bange	geizig	krise	gierig	gemein	träumen	engagiert	vertrauen	vergnügt	sonnig	anregung	töten	engstirnig	versagen	verbissen	sterben	ausrottung	1	blank2r.bmp	0	1	+	0	1	blank2r.bmp	500	1	DHJF	500	1	blank2r.bmp	880	2	besonnen	880	1	!	1232	1	!	1276	0	0	0	0	0	0
2024-05-16	09:17:54	09:25:25	449655	6.6.1	4_exp_EVA_AWA_CON	39	A	B	Rpleas_acq	Same	Rpleas	2pleas	acq_US_pleas_nomask	acq45_nomask	4	21	400	1	300	300	0	0	390	50	1	0	kreativ	besonnen	gesittet	kuss	gütig	genießen	krank	bange	geizig	krise	gierig	gemein	träumen	engagiert	vertrauen	vergnügt	sonnig	anregung	töten	engstirnig	versagen	verbissen	sterben	ausrottung	1	blank2r.bmp	0	1	+	0	1	blank2r.bmp	500	1	DHJF	500	1	blank2r.bmp	880	4	kuss	880	1	!	1233	1	!	1293	0	0	0	0	0	0
2024-05-16	09:17:54	09:25:27	451957	6.6.1	4_exp_EVA_AWA_CON	39	A	B	Rpleas_acq	Same	Rpleas	2pleas	acq_US_unple_nomask	acq45_nomask	4	22	400	0	300	300	0	0	523	46	1	0	kreativ	besonnen	gesittet	kuss	gütig	genießen	krank	bange	geizig	krise	gierig	gemein	träumen	engagiert	vertrauen	vergnügt	sonnig	anregung	töten	engstirnig	versagen	verbissen	sterben	ausrottung	1	blank2r.bmp	0	1	+	0	1	blank2r.bmp	500	1	CPLW	500	1	blank2r.bmp	880	6	gemein	880	1	!	1233	1	!	-1	0	0	0	0	0	0
2024-05-16	09:17:54	09:25:29	454136	6.6.1	4_exp_EVA_AWA_CON	39	A	B	Rpleas_acq	Same	Rpleas	2pleas	acq_US_pleas_nomask	acq45_nomask	4	23	400	1	300	300	0	0	399	50	1	0	kreativ	besonnen	gesittet	kuss	gütig	genießen	krank	bange	geizig	krise	gierig	gemein	träumen	engagiert	vertrauen	vergnügt	sonnig	anregung	töten	engstirnig	versagen	verbissen	sterben	ausrottung	1	blank2r.bmp	0	1	+	0	1	blank2r.bmp	500	1	DHJF	500	1	blank2r.bmp	880	1	kreativ	880	1	!	1233	1	!	1300	0	0	0	0	0	0
2024-05-16	09:17:54	09:25:32	456405	6.6.1	4_exp_EVA_AWA_CON	39	A	B	Rpleas_acq	Same	Rpleas	2pleas	acq_US_unple_nomask	acq45_nomask	4	24	400	0	300	300	0	0	489	46	1	0	kreativ	besonnen	gesittet	kuss	gütig	genießen	krank	bange	geizig	krise	gierig	gemein	träumen	engagiert	vertrauen	vergnügt	sonnig	anregung	töten	engstirnig	versagen	verbissen	sterben	ausrottung	1	blank2r.bmp	0	1	+	0	1	blank2r.bmp	500	1	CPLW	500	1	blank2r.bmp	880	1	krank	880	1	!	1232	1	!	-1	0	0	0	0	0	0
2024-05-16	09:17:54	09:25:34	458559	6.6.1	4_exp_EVA_AWA_CON	39	A	B	Rpleas_acq	Same	Rpleas	2pleas	acq_US_unple_nomask	acq45_nomask	4	25	400	1	300	300	0	0	380	46	1	0	kreativ	besonnen	gesittet	kuss	gütig	genießen	krank	bange	geizig	krise	gierig	gemein	träumen	engagiert	vertrauen	vergnügt	sonnig	anregung	töten	engstirnig	versagen	verbissen	sterben	ausrottung	1	blank2r.bmp	0	1	+	0	1	blank2r.bmp	500	1	CPLW	500	1	blank2r.bmp	880	1	krank	880	1	!	1233	1	!	1281	0	0	0	0	0	0
2024-05-16	09:17:54	09:25:36	460783	6.6.1	4_exp_EVA_AWA_CON	39	A	B	Rpleas_acq	Same	Rpleas	2pleas	acq_US_pleas_nomask	acq45_nomask	4	26	400	1	300	300	0	0	442	50	1	0	kreativ	besonnen	gesittet	kuss	gütig	genießen	krank	bange	geizig	krise	gierig	gemein	träumen	engagiert	vertrauen	vergnügt	sonnig	anregung	töten	engstirnig	versagen	verbissen	sterben	ausrottung	1	blank2r.bmp	0	1	+	0	1	blank2r.bmp	500	1	DHJF	500	1	blank2r.bmp	880	2	besonnen	880	1	!	1233	1	!	1343	0	0	0	0	0	0
2024-05-16	09:17:54	09:25:38	463062	6.6.1	4_exp_EVA_AWA_CON	39	A	B	Rpleas_acq	Same	Rpleas	2pleas	acq_US_pleas_nomask	acq45_nomask	4	27	400	0	300	300	0	0	500	46	0	0	kreativ	besonnen	gesittet	kuss	gütig	genießen	krank	bange	geizig	krise	gierig	gemein	träumen	engagiert	vertrauen	vergnügt	sonnig	anregung	töten	engstirnig	versagen	verbissen	sterben	ausrottung	1	blank2r.bmp	0	1	+	0	1	blank2r.bmp	500	1	DHJF	500	1	blank2r.bmp	880	5	gütig	880	1	!	1232	1	!	-1	0	0	0	0	0	0
2024-05-16	09:17:54	09:25:40	465255	6.6.1	4_exp_EVA_AWA_CON	39	A	B	Rpleas_acq	Same	Rpleas	2pleas	acq_US_unple_nomask	acq45_nomask	4	28	400	1	300	300	0	0	410	50	0	0	kreativ	besonnen	gesittet	kuss	gütig	genießen	krank	bange	geizig	krise	gierig	gemein	träumen	engagiert	vertrauen	vergnügt	sonnig	anregung	töten	engstirnig	versagen	verbissen	sterben	ausrottung	1	blank2r.bmp	0	1	+	0	1	blank2r.bmp	500	1	CPLW	500	1	blank2r.bmp	880	3	geizig	880	1	!	1232	1	!	1312	0	0	0	0	0	0
2024-05-16	09:17:54	09:25:43	467447	6.6.1	4_exp_EVA_AWA_CON	39	A	B	Rpleas_acq	Same	Rpleas	2pleas	acq_US_pleas_nomask	acq45_nomask	4	29	400	1	300	300	0	0	412	50	1	0	kreativ	besonnen	gesittet	kuss	gütig	genießen	krank	bange	geizig	krise	gierig	gemein	träumen	engagiert	vertrauen	vergnügt	sonnig	anregung	töten	engstirnig	versagen	verbissen	sterben	ausrottung	1	blank2r.bmp	0	1	+	0	1	blank2r.bmp	500	1	DHJF	500	1	blank2r.bmp	880	1	kreativ	880	1	!	1232	1	!	1313	0	0	0	0	0	0
2024-05-16	09:17:54	09:25:45	469639	6.6.1	4_exp_EVA_AWA_CON	39	A	B	Rpleas_acq	Same	Rpleas	2pleas	acq_US_unple_nomask	acq45_nomask	4	30	400	1	300	300	0	0	413	46	1	0	kreativ	besonnen	gesittet	kuss	gütig	genießen	krank	bange	geizig	krise	gierig	gemein	träumen	engagiert	vertrauen	vergnügt	sonnig	anregung	töten	engstirnig	versagen	verbissen	sterben	ausrottung	1	blank2r.bmp	0	1	+	0	1	blank2r.bmp	500	1	CPLW	500	1	blank2r.bmp	880	5	gierig	880	1	!	1232	1	!	1313	0	0	0	0	0	0
2024-05-16	09:17:54	09:25:47	471823	6.6.1	4_exp_EVA_AWA_CON	39	A	B	Rpleas_acq	Same	Rpleas	2pleas	acq_US_pleas_nomask	acq45_nomask	4	31	400	1	300	300	0	0	405	50	1	0	kreativ	besonnen	gesittet	kuss	gütig	genießen	krank	bange	geizig	krise	gierig	gemein	träumen	engagiert	vertrauen	vergnügt	sonnig	anregung	töten	engstirnig	versagen	verbissen	sterben	ausrottung	1	blank2r.bmp	0	1	+	0	1	blank2r.bmp	500	1	DHJF	500	1	blank2r.bmp	880	6	genießen	880	1	!	1232	1	!	1306	0	0	0	0	0	0
2024-05-16	09:17:54	09:25:49	474063	6.6.1	4_exp_EVA_AWA_CON	39	A	B	Rpleas_acq	Same	Rpleas	2pleas	acq_US_unple_nomask	acq45_nomask	4	32	400	1	300	300	0	0	464	46	1	0	kreativ	besonnen	gesittet	kuss	gütig	genießen	krank	bange	geizig	krise	gierig	gemein	träumen	engagiert	vertrauen	vergnügt	sonnig	anregung	töten	engstirnig	versagen	verbissen	sterben	ausrottung	1	blank2r.bmp	0	1	+	0	1	blank2r.bmp	500	1	CPLW	500	1	blank2r.bmp	880	6	gemein	880	1	!	1232	1	!	1365	0	0	0	0	0	0
2024-05-16	09:17:54	09:25:51	476232	6.6.1	4_exp_EVA_AWA_CON	39	A	B	Rpleas_acq	Same	Rpleas	2pleas	acq_US_pleas_nomask	acq45_nomask	4	33	400	1	300	300	0	0	390	50	1	0	kreativ	besonnen	gesittet	kuss	gütig	genießen	krank	bange	geizig	krise	gierig	gemein	träumen	engagiert	vertrauen	vergnügt	sonnig	anregung	töten	engstirnig	versagen	verbissen	sterben	ausrottung	1	blank2r.bmp	0	1	+	0	1	blank2r.bmp	500	1	DHJF	500	1	blank2r.bmp	880	4	kuss	880	1	!	1232	1	!	1292	0	0	0	0	0	0
2024-05-16	09:17:54	09:25:54	478423	6.6.1	4_exp_EVA_AWA_CON	39	A	B	Rpleas_acq	Same	Rpleas	2pleas	acq_US_pleas_nomask	acq45_nomask	4	34	400	1	300	300	0	0	411	46	0	0	kreativ	besonnen	gesittet	kuss	gütig	genießen	krank	bange	geizig	krise	gierig	gemein	träumen	engagiert	vertrauen	vergnügt	sonnig	anregung	töten	engstirnig	versagen	verbissen	sterben	ausrottung	1	blank2r.bmp	0	1	+	0	1	blank2r.bmp	500	1	DHJF	500	1	blank2r.bmp	880	3	gesittet	880	1	!	1232	1	!	1312	0	0	0	0	0	0
2024-05-16	09:17:54	09:25:56	480671	6.6.1	4_exp_EVA_AWA_CON	39	A	B	Rpleas_acq	Same	Rpleas	2pleas	acq_US_unple_nomask	acq45_nomask	4	35	400	1	300	300	0	0	466	46	1	0	kreativ	besonnen	gesittet	kuss	gütig	genießen	krank	bange	geizig	krise	gierig	gemein	träumen	engagiert	vertrauen	vergnügt	sonnig	anregung	töten	engstirnig	versagen	verbissen	sterben	ausrottung	1	blank2r.bmp	0	1	+	0	1	blank2r.bmp	500	1	CPLW	500	1	blank2r.bmp	880	4	krise	880	1	!	1232	1	!	1368	0	0	0	0	0	0
2024-05-16	09:17:54	09:25:58	482871	6.6.1	4_exp_EVA_AWA_CON	39	A	B	Rpleas_acq	Same	Rpleas	2pleas	acq_US_unple_nomask	acq45_nomask	4	36	400	1	300	300	0	0	425	50	0	0	kreativ	besonnen	gesittet	kuss	gütig	genießen	krank	bange	geizig	krise	gierig	gemein	träumen	engagiert	vertrauen	vergnügt	sonnig	anregung	töten	engstirnig	versagen	verbissen	sterben	ausrottung	1	blank2r.bmp	0	1	+	0	1	blank2r.bmp	500	1	CPLW	500	1	blank2r.bmp	880	2	bange	880	1	!	1232	1	!	1327	0	0	0	0	0	0
2024-05-16	09:17:54	09:26:09	494197	6.6.1	4_exp_EVA_AWA_CON	39	A	B	Rpleas_acq	Same	Rpleas	2pleas	acq_US_pleas_nomask	acq45_nomask	5	1	400	0	300	300	0	0	516	50	1	0	kreativ	besonnen	gesittet	kuss	gütig	genießen	krank	bange	geizig	krise	gierig	gemein	träumen	engagiert	vertrauen	vergnügt	sonnig	anregung	töten	engstirnig	versagen	verbissen	sterben	ausrottung	1	blank2r.bmp	0	1	+	0	1	blank2r.bmp	500	1	DHJF	500	1	blank2r.bmp	880	6	genießen	880	1	!	1232	1	!	-1	0	0	0	0	0	0
2024-05-16	09:17:54	09:26:11	496301	6.6.1	4_exp_EVA_AWA_CON	39	A	B	Rpleas_acq	Same	Rpleas	2pleas	acq_US_pleas_nomask	acq45_nomask	5	2	400	0	300	300	0	0	329	50	1	0	kreativ	besonnen	gesittet	kuss	gütig	genießen	krank	bange	geizig	krise	gierig	gemein	träumen	engagiert	vertrauen	vergnügt	sonnig	anregung	töten	engstirnig	versagen	verbissen	sterben	ausrottung	1	blank2r.bmp	0	1	+	0	1	blank2r.bmp	500	1	DHJF	500	1	blank2r.bmp	880	4	kuss	880	1	!	-1	1	!	-1	0	0	0	0	0	0
2024-05-16	09:17:54	09:26:14	498565	6.6.1	4_exp_EVA_AWA_CON	39	A	B	Rpleas_acq	Same	Rpleas	2pleas	acq_US_unple_nomask	acq45_nomask	5	3	400	0	300	300	0	0	491	46	1	0	kreativ	besonnen	gesittet	kuss	gütig	genießen	krank	bange	geizig	krise	gierig	gemein	träumen	engagiert	vertrauen	vergnügt	sonnig	anregung	töten	engstirnig	versagen	verbissen	sterben	ausrottung	1	blank2r.bmp	0	1	+	0	1	blank2r.bmp	500	1	CPLW	500	1	blank2r.bmp	880	3	geizig	880	1	!	1233	1	!	-1	0	0	0	0	0	0
2024-05-16	09:17:54	09:26:16	500743	6.6.1	4_exp_EVA_AWA_CON	39	A	B	Rpleas_acq	Same	Rpleas	2pleas	acq_US_pleas_nomask	acq45_nomask	5	4	400	1	300	300	0	0	397	50	1	0	kreativ	besonnen	gesittet	kuss	gütig	genießen	krank	bange	geizig	krise	gierig	gemein	träumen	engagiert	vertrauen	vergnügt	sonnig	anregung	töten	engstirnig	versagen	verbissen	sterben	ausrottung	1	blank2r.bmp	0	1	+	0	1	blank2r.bmp	500	1	DHJF	500	1	blank2r.bmp	880	1	kreativ	880	1	!	1232	1	!	1298	0	0	0	0	0	0
2024-05-16	09:17:54	09:26:18	502895	6.6.1	4_exp_EVA_AWA_CON	39	A	B	Rpleas_acq	Same	Rpleas	2pleas	acq_US_unple_nomask	acq45_nomask	5	5	400	1	300	300	0	0	377	46	1	0	kreativ	besonnen	gesittet	kuss	gütig	genießen	krank	bange	geizig	krise	gierig	gemein	träumen	engagiert	vertrauen	vergnügt	sonnig	anregung	töten	engstirnig	versagen	verbissen	sterben	ausrottung	1	blank2r.bmp	0	1	+	0	1	blank2r.bmp	500	1	CPLW	500	1	blank2r.bmp	880	2	bange	880	1	!	1232	1	!	1278	0	0	0	0	0	0
2024-05-16	09:17:54	09:26:20	505111	6.6.1	4_exp_EVA_AWA_CON	39	A	B	Rpleas_acq	Same	Rpleas	2pleas	acq_US_unple_nomask	acq45_nomask	5	6	400	1	300	300	0	0	442	50	0	0	kreativ	besonnen	gesittet	kuss	gütig	genießen	krank	bange	geizig	krise	gierig	gemein	träumen	engagiert	vertrauen	vergnügt	sonnig	anregung	töten	engstirnig	versagen	verbissen	sterben	ausrottung	1	blank2r.bmp	0	1	+	0	1	blank2r.bmp	500	1	CPLW	500	1	blank2r.bmp	880	5	gierig	880	1	!	1233	1	!	1343	0	0	0	0	0	0
2024-05-16	09:17:54	09:26:22	507343	6.6.1	4_exp_EVA_AWA_CON	39	A	B	Rpleas_acq	Same	Rpleas	2pleas	acq_US_pleas_nomask	acq45_nomask	5	7	400	1	300	300	0	0	451	50	1	0	kreativ	besonnen	gesittet	kuss	gütig	genießen	krank	bange	geizig	krise	gierig	gemein	träumen	engagiert	vertrauen	vergnügt	sonnig	anregung	töten	engstirnig	versagen	verbissen	sterben	ausrottung	1	blank2r.bmp	0	1	+	0	1	blank2r.bmp	500	1	DHJF	500	1	blank2r.bmp	880	2	besonnen	880	1	!	1232	1	!	1353	0	0	0	0	0	0
2024-05-16	09:17:54	09:26:25	509543	6.6.1	4_exp_EVA_AWA_CON	39	A	B	Rpleas_acq	Same	Rpleas	2pleas	acq_US_unple_nomask	acq45_nomask	5	8	400	1	300	300	0	0	421	46	1	0	kreativ	besonnen	gesittet	kuss	gütig	genießen	krank	bange	geizig	krise	gierig	gemein	träumen	engagiert	vertrauen	vergnügt	sonnig	anregung	töten	engstirnig	versagen	verbissen	sterben	ausrottung	1	blank2r.bmp	0	1	+	0	1	blank2r.bmp	500	1	CPLW	500	1	blank2r.bmp	880	6	gemein	880	1	!	1232	1	!	1322	0	0	0	0	0	0
2024-05-16	09:17:54	09:26:27	511695	6.6.1	4_exp_EVA_AWA_CON	39	A	B	Rpleas_acq	Same	Rpleas	2pleas	acq_US_unple_nomask	acq45_nomask	5	9	400	1	300	300	0	0	371	46	1	0	kreativ	besonnen	gesittet	kuss	gütig	genießen	krank	bange	geizig	krise	gierig	gemein	träumen	engagiert	vertrauen	vergnügt	sonnig	anregung	töten	engstirnig	versagen	verbissen	sterben	ausrottung	1	blank2r.bmp	0	1	+	0	1	blank2r.bmp	500	1	CPLW	500	1	blank2r.bmp	880	4	krise	880	1	!	1232	1	!	1272	0	0	0	0	0	0
2024-05-16	09:17:54	09:26:29	513927	6.6.1	4_exp_EVA_AWA_CON	39	A	B	Rpleas_acq	Same	Rpleas	2pleas	acq_US_unple_nomask	acq45_nomask	5	10	400	1	300	300	0	0	451	50	0	0	kreativ	besonnen	gesittet	kuss	gütig	genießen	krank	bange	geizig	krise	gierig	gemein	träumen	engagiert	vertrauen	vergnügt	sonnig	anregung	töten	engstirnig	versagen	verbissen	sterben	ausrottung	1	blank2r.bmp	0	1	+	0	1	blank2r.bmp	500	1	CPLW	500	1	blank2r.bmp	880	1	krank	880	1	!	1232	1	!	1353	0	0	0	0	0	0
2024-05-16	09:17:54	09:26:31	516111	6.6.1	4_exp_EVA_AWA_CON	39	A	B	Rpleas_acq	Same	Rpleas	2pleas	acq_US_pleas_nomask	acq45_nomask	5	11	400	1	300	300	0	0	404	50	1	0	kreativ	besonnen	gesittet	kuss	gütig	genießen	krank	bange	geizig	krise	gierig	gemein	träumen	engagiert	vertrauen	vergnügt	sonnig	anregung	töten	engstirnig	versagen	verbissen	sterben	ausrottung	1	blank2r.bmp	0	1	+	0	1	blank2r.bmp	500	1	DHJF	500	1	blank2r.bmp	880	5	gütig	880	1	!	1232	1	!	1305	0	0	0	0	0	0
2024-05-16	09:17:54	09:26:33	518319	6.6.1	4_exp_EVA_AWA_CON	39	A	B	Rpleas_acq	Same	Rpleas	2pleas	acq_US_unple_nomask	acq45_nomask	5	12	400	1	300	300	0	0	430	46	1	0	kreativ	besonnen	gesittet	kuss	gütig	genießen	krank	bange	geizig	krise	gierig	gemein	träumen	engagiert	vertrauen	vergnügt	sonnig	anregung	töten	engstirnig	versagen	verbissen	sterben	ausrottung	1	blank2r.bmp	0	1	+	0	1	blank2r.bmp	500	1	CPLW	500	1	blank2r.bmp	880	6	gemein	880	1	!	1232	1	!	1332	0	0	0	0	0	0
2024-05-16	09:17:54	09:26:36	520495	6.6.1	4_exp_EVA_AWA_CON	39	A	B	Rpleas_acq	Same	Rpleas	2pleas	acq_US_pleas_nomask	acq45_nomask	5	13	400	1	300	300	0	0	396	46	0	0	kreativ	besonnen	gesittet	kuss	gütig	genießen	krank	bange	geizig	krise	gierig	gemein	träumen	engagiert	vertrauen	vergnügt	sonnig	anregung	töten	engstirnig	versagen	verbissen	sterben	ausrottung	1	blank2r.bmp	0	1	+	0	1	blank2r.bmp	500	1	DHJF	500	1	blank2r.bmp	880	3	gesittet	880	1	!	1232	1	!	1297	0	0	0	0	0	0
2024-05-16	09:17:54	09:26:38	522687	6.6.1	4_exp_EVA_AWA_CON	39	A	B	Rpleas_acq	Same	Rpleas	2pleas	acq_US_unple_nomask	acq45_nomask	5	14	400	1	300	300	0	0	416	46	1	0	kreativ	besonnen	gesittet	kuss	gütig	genießen	krank	bange	geizig	krise	gierig	gemein	träumen	engagiert	vertrauen	vergnügt	sonnig	anregung	töten	engstirnig	versagen	verbissen	sterben	ausrottung	1	blank2r.bmp	0	1	+	0	1	blank2r.bmp	500	1	CPLW	500	1	blank2r.bmp	880	2	bange	880	1	!	1232	1	!	1317	0	0	0	0	0	0
2024-05-16	09:17:54	09:26:40	525053	6.6.1	4_exp_EVA_AWA_CON	39	A	B	Rpleas_acq	Same	Rpleas	2pleas	acq_US_unple_nomask	acq45_nomask	5	15	400	0	300	300	0	0	592	46	1	0	kreativ	besonnen	gesittet	kuss	gütig	genießen	krank	bange	geizig	krise	gierig	gemein	träumen	engagiert	vertrauen	vergnügt	sonnig	anregung	töten	engstirnig	versagen	verbissen	sterben	ausrottung	1	blank2r.bmp	0	1	+	0	1	blank2r.bmp	500	1	CPLW	500	1	blank2r.bmp	880	1	krank	880	1	!	1232	1	!	-1	0	0	0	0	0	0
2024-05-16	09:17:54	09:26:42	527271	6.6.1	4_exp_EVA_AWA_CON	39	A	B	Rpleas_acq	Same	Rpleas	2pleas	acq_US_pleas_nomask	acq45_nomask	5	16	400	1	300	300	0	0	437	50	1	0	kreativ	besonnen	gesittet	kuss	gütig	genießen	krank	bange	geizig	krise	gierig	gemein	träumen	engagiert	vertrauen	vergnügt	sonnig	anregung	töten	engstirnig	versagen	verbissen	sterben	ausrottung	1	blank2r.bmp	0	1	+	0	1	blank2r.bmp	500	1	DHJF	500	1	blank2r.bmp	880	6	genießen	880	1	!	1232	1	!	1338	0	0	0	0	0	0
2024-05-16	09:17:54	09:26:45	529515	6.6.1	4_exp_EVA_AWA_CON	39	A	B	Rpleas_acq	Same	Rpleas	2pleas	acq_US_pleas_nomask	acq45_nomask	5	17	400	0	300	300	0	0	473	50	1	0	kreativ	besonnen	gesittet	kuss	gütig	genießen	krank	bange	geizig	krise	gierig	gemein	träumen	engagiert	vertrauen	vergnügt	sonnig	anregung	töten	engstirnig	versagen	verbissen	sterben	ausrottung	1	blank2r.bmp	0	1	+	0	1	blank2r.bmp	500	1	DHJF	500	1	blank2r.bmp	880	5	gütig	880	1	!	1232	1	!	-1	0	0	0	0	0	0
2024-05-16	09:17:54	09:26:47	531671	6.6.1	4_exp_EVA_AWA_CON	39	A	B	Rpleas_acq	Same	Rpleas	2pleas	acq_US_pleas_nomask	acq45_nomask	5	18	400	1	300	300	0	0	375	46	0	0	kreativ	besonnen	gesittet	kuss	gütig	genießen	krank	bange	geizig	krise	gierig	gemein	träumen	engagiert	vertrauen	vergnügt	sonnig	anregung	töten	engstirnig	versagen	verbissen	sterben	ausrottung	1	blank2r.bmp	0	1	+	0	1	blank2r.bmp	500	1	DHJF	500	1	blank2r.bmp	880	3	gesittet	880	1	!	1233	1	!	1276	0	0	0	0	0	0
2024-05-16	09:17:54	09:26:49	534013	6.6.1	4_exp_EVA_AWA_CON	39	A	B	Rpleas_acq	Same	Rpleas	2pleas	acq_US_unple_nomask	acq45_nomask	5	19	400	0	300	300	0	0	566	46	1	0	kreativ	besonnen	gesittet	kuss	gütig	genießen	krank	bange	geizig	krise	gierig	gemein	träumen	engagiert	vertrauen	vergnügt	sonnig	anregung	töten	engstirnig	versagen	verbissen	sterben	ausrottung	1	blank2r.bmp	0	1	+	0	1	blank2r.bmp	500	1	CPLW	500	1	blank2r.bmp	880	5	gierig	880	1	!	1232	1	!	-1	0	0	0	0	0	0
2024-05-16	09:17:54	09:26:51	536223	6.6.1	4_exp_EVA_AWA_CON	39	A	B	Rpleas_acq	Same	Rpleas	2pleas	acq_US_unple_nomask	acq45_nomask	5	20	400	1	300	300	0	0	433	46	1	0	kreativ	besonnen	gesittet	kuss	gütig	genießen	krank	bange	geizig	krise	gierig	gemein	träumen	engagiert	vertrauen	vergnügt	sonnig	anregung	töten	engstirnig	versagen	verbissen	sterben	ausrottung	1	blank2r.bmp	0	1	+	0	1	blank2r.bmp	500	1	CPLW	500	1	blank2r.bmp	880	3	geizig	880	1	!	1232	1	!	1335	0	0	0	0	0	0
2024-05-16	09:17:54	09:26:54	538407	6.6.1	4_exp_EVA_AWA_CON	39	A	B	Rpleas_acq	Same	Rpleas	2pleas	acq_US_pleas_nomask	acq45_nomask	5	21	400	1	300	300	0	0	406	50	1	0	kreativ	besonnen	gesittet	kuss	gütig	genießen	krank	bange	geizig	krise	gierig	gemein	träumen	engagiert	vertrauen	vergnügt	sonnig	anregung	töten	engstirnig	versagen	verbissen	sterben	ausrottung	1	blank2r.bmp	0	1	+	0	1	blank2r.bmp	500	1	DHJF	500	1	blank2r.bmp	880	2	besonnen	880	1	!	1232	1	!	1307	0	0	0	0	0	0
2024-05-16	09:17:54	09:26:56	540647	6.6.1	4_exp_EVA_AWA_CON	39	A	B	Rpleas_acq	Same	Rpleas	2pleas	acq_US_unple_nomask	acq45_nomask	5	22	400	1	300	300	0	0	465	46	1	0	kreativ	besonnen	gesittet	kuss	gütig	genießen	krank	bange	geizig	krise	gierig	gemein	träumen	engagiert	vertrauen	vergnügt	sonnig	anregung	töten	engstirnig	versagen	verbissen	sterben	ausrottung	1	blank2r.bmp	0	1	+	0	1	blank2r.bmp	500	1	CPLW	500	1	blank2r.bmp	880	4	krise	880	1	!	1232	1	!	1366	0	0	0	0	0	0
2024-05-16	09:17:54	09:26:58	542765	6.6.1	4_exp_EVA_AWA_CON	39	A	B	Rpleas_acq	Same	Rpleas	2pleas	acq_US_pleas_nomask	acq45_nomask	5	23	400	1	300	300	0	0	343	50	1	0	kreativ	besonnen	gesittet	kuss	gütig	genießen	krank	bange	geizig	krise	gierig	gemein	träumen	engagiert	vertrauen	vergnügt	sonnig	anregung	töten	engstirnig	versagen	verbissen	sterben	ausrottung	1	blank2r.bmp	0	1	+	0	1	blank2r.bmp	500	1	DHJF	500	1	blank2r.bmp	880	1	kreativ	880	1	!	1232	1	!	1243	0	0	0	0	0	0
2024-05-16	09:17:54	09:27:00	544861	6.6.1	4_exp_EVA_AWA_CON	39	A	B	Rpleas_acq	Same	Rpleas	2pleas	acq_US_unple_nomask	acq45_nomask	5	24	400	0	300	300	0	0	318	46	1	0	kreativ	besonnen	gesittet	kuss	gütig	genießen	krank	bange	geizig	krise	gierig	gemein	träumen	engagiert	vertrauen	vergnügt	sonnig	anregung	töten	engstirnig	versagen	verbissen	sterben	ausrottung	1	blank2r.bmp	0	1	+	0	1	blank2r.bmp	500	1	CPLW	500	1	blank2r.bmp	880	5	gierig	880	1	!	-1	1	!	-1	0	0	0	0	0	0
2024-05-16	09:17:54	09:27:02	547103	6.6.1	4_exp_EVA_AWA_CON	39	A	B	Rpleas_acq	Same	Rpleas	2pleas	acq_US_unple_nomask	acq45_nomask	5	25	400	1	300	300	0	0	466	46	1	0	kreativ	besonnen	gesittet	kuss	gütig	genießen	krank	bange	geizig	krise	gierig	gemein	träumen	engagiert	vertrauen	vergnügt	sonnig	anregung	töten	engstirnig	versagen	verbissen	sterben	ausrottung	1	blank2r.bmp	0	1	+	0	1	blank2r.bmp	500	1	CPLW	500	1	blank2r.bmp	880	4	krise	880	1	!	1232	1	!	1368	0	0	0	0	0	0
2024-05-16	09:17:54	09:27:04	549279	6.6.1	4_exp_EVA_AWA_CON	39	A	B	Rpleas_acq	Same	Rpleas	2pleas	acq_US_pleas_nomask	acq45_nomask	5	26	400	1	300	300	0	0	401	50	1	0	kreativ	besonnen	gesittet	kuss	gütig	genießen	krank	bange	geizig	krise	gierig	gemein	träumen	engagiert	vertrauen	vergnügt	sonnig	anregung	töten	engstirnig	versagen	verbissen	sterben	ausrottung	1	blank2r.bmp	0	1	+	0	1	blank2r.bmp	500	1	DHJF	500	1	blank2r.bmp	880	4	kuss	880	1	!	1232	1	!	1302	0	0	0	0	0	0
2024-05-16	09:17:54	09:27:07	551423	6.6.1	4_exp_EVA_AWA_CON	39	A	B	Rpleas_acq	Same	Rpleas	2pleas	acq_US_unple_nomask	acq45_nomask	5	27	400	1	300	300	0	0	363	46	1	0	kreativ	besonnen	gesittet	kuss	gütig	genießen	krank	bange	geizig	krise	gierig	gemein	träumen	engagiert	vertrauen	vergnügt	sonnig	anregung	töten	engstirnig	versagen	verbissen	sterben	ausrottung	1	blank2r.bmp	0	1	+	0	1	blank2r.bmp	500	1	CPLW	500	1	blank2r.bmp	880	3	geizig	880	1	!	1233	1	!	1265	0	0	0	0	0	0
2024-05-16	09:17:54	09:27:09	553640	6.6.1	4_exp_EVA_AWA_CON	39	A	B	Rpleas_acq	Same	Rpleas	2pleas	acq_US_pleas_nomask	acq45_nomask	5	28	400	1	300	300	0	0	439	50	1	0	kreativ	besonnen	gesittet	kuss	gütig	genießen	krank	bange	geizig	krise	gierig	gemein	träumen	engagiert	vertrauen	vergnügt	sonnig	anregung	töten	engstirnig	versagen	verbissen	sterben	ausrottung	1	blank2r.bmp	0	1	+	0	1	blank2r.bmp	500	1	DHJF	500	1	blank2r.bmp	880	5	gütig	880	1	!	1232	1	!	1340	0	0	0	0	0	0
2024-05-16	09:17:54	09:27:11	555815	6.6.1	4_exp_EVA_AWA_CON	39	A	B	Rpleas_acq	Same	Rpleas	2pleas	acq_US_pleas_nomask	acq45_nomask	5	29	400	1	300	300	0	0	392	46	0	0	kreativ	besonnen	gesittet	kuss	gütig	genießen	krank	bange	geizig	krise	gierig	gemein	träumen	engagiert	vertrauen	vergnügt	sonnig	anregung	töten	engstirnig	versagen	verbissen	sterben	ausrottung	1	blank2r.bmp	0	1	+	0	1	blank2r.bmp	500	1	DHJF	500	1	blank2r.bmp	880	4	kuss	880	1	!	1232	1	!	1294	0	0	0	0	0	0
2024-05-16	09:17:54	09:27:13	557999	6.6.1	4_exp_EVA_AWA_CON	39	A	B	Rpleas_acq	Same	Rpleas	2pleas	acq_US_unple_nomask	acq45_nomask	5	30	400	1	300	300	0	0	406	46	1	0	kreativ	besonnen	gesittet	kuss	gütig	genießen	krank	bange	geizig	krise	gierig	gemein	träumen	engagiert	vertrauen	vergnügt	sonnig	anregung	töten	engstirnig	versagen	verbissen	sterben	ausrottung	1	blank2r.bmp	0	1	+	0	1	blank2r.bmp	500	1	CPLW	500	1	blank2r.bmp	880	2	bange	880	1	!	1232	1	!	1307	0	0	0	0	0	0
2024-05-16	09:17:54	09:27:15	560191	6.6.1	4_exp_EVA_AWA_CON	39	A	B	Rpleas_acq	Same	Rpleas	2pleas	acq_US_pleas_nomask	acq45_nomask	5	31	400	1	300	300	0	0	415	46	0	0	kreativ	besonnen	gesittet	kuss	gütig	genießen	krank	bange	geizig	krise	gierig	gemein	träumen	engagiert	vertrauen	vergnügt	sonnig	anregung	töten	engstirnig	versagen	verbissen	sterben	ausrottung	1	blank2r.bmp	0	1	+	0	1	blank2r.bmp	500	1	DHJF	500	1	blank2r.bmp	880	3	gesittet	880	1	!	1232	1	!	1317	0	0	0	0	0	0
2024-05-16	09:17:54	09:27:18	562493	6.6.1	4_exp_EVA_AWA_CON	39	A	B	Rpleas_acq	Same	Rpleas	2pleas	acq_US_pleas_nomask	acq45_nomask	5	32	400	0	300	300	0	0	528	50	1	0	kreativ	besonnen	gesittet	kuss	gütig	genießen	krank	bange	geizig	krise	gierig	gemein	träumen	engagiert	vertrauen	vergnügt	sonnig	anregung	töten	engstirnig	versagen	verbissen	sterben	ausrottung	1	blank2r.bmp	0	1	+	0	1	blank2r.bmp	500	1	DHJF	500	1	blank2r.bmp	880	6	genießen	880	1	!	1233	1	!	-1	0	0	0	0	0	0
2024-05-16	09:17:54	09:27:20	564679	6.6.1	4_exp_EVA_AWA_CON	39	A	B	Rpleas_acq	Same	Rpleas	2pleas	acq_US_unple_nomask	acq45_nomask	5	33	400	1	300	300	0	0	412	46	1	0	kreativ	besonnen	gesittet	kuss	gütig	genießen	krank	bange	geizig	krise	gierig	gemein	träumen	engagiert	vertrauen	vergnügt	sonnig	anregung	töten	engstirnig	versagen	verbissen	sterben	ausrottung	1	blank2r.bmp	0	1	+	0	1	blank2r.bmp	500	1	CPLW	500	1	blank2r.bmp	880	1	krank	880	1	!	1232	1	!	1313	0	0	0	0	0	0
2024-05-16	09:17:54	09:27:22	566911	6.6.1	4_exp_EVA_AWA_CON	39	A	B	Rpleas_acq	Same	Rpleas	2pleas	acq_US_pleas_nomask	acq45_nomask	5	34	400	1	300	300	0	0	451	50	1	0	kreativ	besonnen	gesittet	kuss	gütig	genießen	krank	bange	geizig	krise	gierig	gemein	träumen	engagiert	vertrauen	vergnügt	sonnig	anregung	töten	engstirnig	versagen	verbissen	sterben	ausrottung	1	blank2r.bmp	0	1	+	0	1	blank2r.bmp	500	1	DHJF	500	1	blank2r.bmp	880	1	kreativ	880	1	!	1232	1	!	1353	0	0	0	0	0	0
2024-05-16	09:17:54	09:27:24	569103	6.6.1	4_exp_EVA_AWA_CON	39	A	B	Rpleas_acq	Same	Rpleas	2pleas	acq_US_unple_nomask	acq45_nomask	5	35	400	1	300	300	0	0	413	46	1	0	kreativ	besonnen	gesittet	kuss	gütig	genießen	krank	bange	geizig	krise	gierig	gemein	träumen	engagiert	vertrauen	vergnügt	sonnig	anregung	töten	engstirnig	versagen	verbissen	sterben	ausrottung	1	blank2r.bmp	0	1	+	0	1	blank2r.bmp	500	1	CPLW	500	1	blank2r.bmp	880	6	gemein	880	1	!	1232	1	!	1314	0	0	0	0	0	0
2024-05-16	09:17:54	09:27:26	571343	6.6.1	4_exp_EVA_AWA_CON	39	A	B	Rpleas_acq	Same	Rpleas	2pleas	acq_US_pleas_nomask	acq45_nomask	5	36	400	1	300	300	0	0	460	50	1	0	kreativ	besonnen	gesittet	kuss	gütig	genießen	krank	bange	geizig	krise	gierig	gemein	träumen	engagiert	vertrauen	vergnügt	sonnig	anregung	töten	engstirnig	versagen	verbissen	sterben	ausrottung	1	blank2r.bmp	0	1	+	0	1	blank2r.bmp	500	1	DHJF	500	1	blank2r.bmp	880	2	besonnen	880	1	!	1233	1	!	1362	0	0	0	0	0	0
2024-05-16	09:17:54	09:27:51	595577	6.6.1	4_exp_EVA_AWA_CON	39	A	B	Rpleas_acq	Same	Rpleas	2pleas	EvalRating_firsttwo	EvalRating_firsttwo	6	1	0	0	300	300	0	0	7316	line	0	-20,703125pct	kreativ	besonnen	gesittet	kuss	gütig	genießen	krank	bange	geizig	krise	gierig	gemein	träumen	engagiert	vertrauen	vergnügt	sonnig	anregung	töten	engstirnig	versagen	verbissen	sterben	ausrottung	1		-8	1	Wie angenehm oder unangenehm finden Sie die  Buchstabenkette WDLH?	-8	1		-8	1		-8	1		-8	1	Unangenehm	-8	1	Angenehm	-8	0	0	0	0	0	0	0	0	0
2024-05-16	09:17:54	09:27:56	600649	6.6.1	4_exp_EVA_AWA_CON	39	A	B	Rpleas_acq	Same	Rpleas	2pleas	EvalRating_lastfour	EvalRating_lastfour	7	1	0	0	300	300	0	0	2692	line	0	-57,03125pct	kreativ	besonnen	gesittet	kuss	gütig	genießen	krank	bange	geizig	krise	gierig	gemein	träumen	engagiert	vertrauen	vergnügt	sonnig	anregung	töten	engstirnig	versagen	verbissen	sterben	ausrottung	1		-8	1	Wie angenehm oder unangenehm finden Sie die  Buchstabenkette CPLW?	-8	1		-8	1		-8	1		-8	1	Unangenehm	-8	1	Angenehm	-8	0	0	0	0	0	0	0	0	0
2024-05-16	09:17:54	09:27:58	603022	6.6.1	4_exp_EVA_AWA_CON	39	A	B	Rpleas_acq	Same	Rpleas	2pleas	blank_screen	EvalRating_lastfour	7	3	0	0	300	300	0	0	0	0	0	-57,03125pct	kreativ	besonnen	gesittet	kuss	gütig	genießen	krank	bange	geizig	krise	gierig	gemein	träumen	engagiert	vertrauen	vergnügt	sonnig	anregung	töten	engstirnig	versagen	verbissen	sterben	ausrottung	1		-8	0	0	0	0	0	0	0	0	0	0	0	0	0	0	0	0	0	0	0	0	0	0	0	0	0	0	0
2024-05-16	09:17:54	09:28:01	605730	6.6.1	4_exp_EVA_AWA_CON	39	A	B	Rpleas_acq	Same	Rpleas	2pleas	EvalRating_lastfour	EvalRating_lastfour	7	4	0	0	300	300	0	0	2119	line	0	23,4375pct	kreativ	besonnen	gesittet	kuss	gütig	genießen	krank	bange	geizig	krise	gierig	gemein	träumen	engagiert	vertrauen	vergnügt	sonnig	anregung	töten	engstirnig	versagen	verbissen	sterben	ausrottung	1		-8	2	Wie angenehm oder unangenehm finden Sie die  Buchstabenkette DHJF?	-8	1		-8	1		-8	1		-8	1	Unangenehm	-8	1	Angenehm	-8	0	0	0	0	0	0	0	0	0
2024-05-16	09:17:54	09:28:03	608096	6.6.1	4_exp_EVA_AWA_CON	39	A	B	Rpleas_acq	Same	Rpleas	2pleas	blank_screen	EvalRating_lastfour	7	6	0	0	300	300	0	0	0	0	0	23,4375pct	kreativ	besonnen	gesittet	kuss	gütig	genießen	krank	bange	geizig	krise	gierig	gemein	träumen	engagiert	vertrauen	vergnügt	sonnig	anregung	töten	engstirnig	versagen	verbissen	sterben	ausrottung	1		-8	0	0	0	0	0	0	0	0	0	0	0	0	0	0	0	0	0	0	0	0	0	0	0	0	0	0	0
2024-05-16	09:17:54	09:28:10	614394	6.6.1	4_exp_EVA_AWA_CON	39	A	B	Rpleas_acq	Same	Rpleas	2pleas	EvalRating_lastfour	EvalRating_lastfour	7	7	0	0	300	300	0	0	5710	line	0	25,2604166666666714036pct	kreativ	besonnen	gesittet	kuss	gütig	genießen	krank	bange	geizig	krise	gierig	gemein	träumen	engagiert	vertrauen	vergnügt	sonnig	anregung	töten	engstirnig	versagen	verbissen	sterben	ausrottung	1		-8	3	Wie angenehm oder unangenehm finden Sie die  Buchstabenkette FCJP?	-8	1		-8	1		-8	1		-8	1	Unangenehm	-8	1	Angenehm	-8	0	0	0	0	0	0	0	0	0
2024-05-16	09:17:54	09:29:05	669663	6.6.1	4_exp_EVA_AWA_CON	39	A	B	Rpleas_acq	Same	Rpleas	2pleas	conawa_CS1_US6	conawa1_nomask	8	1	0	0	300	300	0	0	23239	gemein	1	25,2604166666666714036pct	kreativ	besonnen	gesittet	kuss	gütig	genießen	krank	bange	geizig	krise	gierig	gemein	träumen	engagiert	vertrauen	vergnügt	sonnig	anregung	töten	engstirnig	versagen	verbissen	sterben	ausrottung	0	0	0	0	0	0	0	0	0	0	0	0	0	0	0	0	0	0	0	0	0	0	0	0	0	0	0	0	0	0
2024-05-16	09:17:54	09:29:05	669665	6.6.1	4_exp_EVA_AWA_CON	39	A	B	Rpleas_acq	Same	Rpleas	2pleas	conawa_CS1_US6_confidence	conawa1_nomask	8	1	0	0	300	300	0	0	23239	guess	1	25,2604166666666714036pct	kreativ	besonnen	gesittet	kuss	gütig	genießen	krank	bange	geizig	krise	gierig	gemein	träumen	engagiert	vertrauen	vergnügt	sonnig	anregung	töten	engstirnig	versagen	verbissen	sterben	ausrottung	0	0	0	0	0	0	0	0	0	0	0	0	0	0	0	0	0	0	0	0	0	0	0	0	0	0	0	0	0	0
2024-05-16	09:17:54	09:29:11	675888	6.6.1	4_exp_EVA_AWA_CON	39	A	B	Rpleas_acq	Same	Rpleas	2pleas	conawa_CS2_US6	conawa1_nomask	8	2	0	0	300	300	0	0	5602	genießen	1	25,2604166666666714036pct	kreativ	besonnen	gesittet	kuss	gütig	genießen	krank	bange	geizig	krise	gierig	gemein	träumen	engagiert	vertrauen	vergnügt	sonnig	anregung	töten	engstirnig	versagen	verbissen	sterben	ausrottung	0	0	0	0	0	0	0	0	0	0	0	0	0	0	0	0	0	0	0	0	0	0	0	0	0	0	0	0	0	0
2024-05-16	09:17:54	09:29:11	675889	6.6.1	4_exp_EVA_AWA_CON	39	A	B	Rpleas_acq	Same	Rpleas	2pleas	conawa_CS2_US6_confidence	conawa1_nomask	8	2	0	0	300	300	0	0	5602	guess	1	25,2604166666666714036pct	kreativ	besonnen	gesittet	kuss	gütig	genießen	krank	bange	geizig	krise	gierig	gemein	träumen	engagiert	vertrauen	vergnügt	sonnig	anregung	töten	engstirnig	versagen	verbissen	sterben	ausrottung	0	0	0	0	0	0	0	0	0	0	0	0	0	0	0	0	0	0	0	0	0	0	0	0	0	0	0	0	0	0
2024-05-16	09:17:54	09:29:18	682622	6.6.1	4_exp_EVA_AWA_CON	39	A	B	Rpleas_acq	Same	Rpleas	2pleas	conawa_CS1_US1	conawa1_nomask	8	3	0	0	300	300	0	0	6115	krank	1	25,2604166666666714036pct	kreativ	besonnen	gesittet	kuss	gütig	genießen	krank	bange	geizig	krise	gierig	gemein	träumen	engagiert	vertrauen	vergnügt	sonnig	anregung	töten	engstirnig	versagen	verbissen	sterben	ausrottung	0	0	0	0	0	0	0	0	0	0	0	0	0	0	0	0	0	0	0	0	0	0	0	0	0	0	0	0	0	0
2024-05-16	09:17:54	09:29:18	682623	6.6.1	4_exp_EVA_AWA_CON	39	A	B	Rpleas_acq	Same	Rpleas	2pleas	conawa_CS1_US1_confidence	conawa1_nomask	8	3	0	0	300	300	0	0	6115	guess	1	25,2604166666666714036pct	kreativ	besonnen	gesittet	kuss	gütig	genießen	krank	bange	geizig	krise	gierig	gemein	träumen	engagiert	vertrauen	vergnügt	sonnig	anregung	töten	engstirnig	versagen	verbissen	sterben	ausrottung	0	0	0	0	0	0	0	0	0	0	0	0	0	0	0	0	0	0	0	0	0	0	0	0	0	0	0	0	0	0
2024-05-16	09:17:54	09:29:22	687135	6.6.1	4_exp_EVA_AWA_CON	39	A	B	Rpleas_acq	Same	Rpleas	2pleas	conawa_CS2_US3	conawa1_nomask	8	4	0	0	300	300	0	0	3894	gesittet	1	25,2604166666666714036pct	kreativ	besonnen	gesittet	kuss	gütig	genießen	krank	bange	geizig	krise	gierig	gemein	träumen	engagiert	vertrauen	vergnügt	sonnig	anregung	töten	engstirnig	versagen	verbissen	sterben	ausrottung	0	0	0	0	0	0	0	0	0	0	0	0	0	0	0	0	0	0	0	0	0	0	0	0	0	0	0	0	0	0
2024-05-16	09:17:54	09:29:22	687136	6.6.1	4_exp_EVA_AWA_CON	39	A	B	Rpleas_acq	Same	Rpleas	2pleas	conawa_CS2_US3_confidence	conawa1_nomask	8	4	0	0	300	300	0	0	3894	guess	1	25,2604166666666714036pct	kreativ	besonnen	gesittet	kuss	gütig	genießen	krank	bange	geizig	krise	gierig	gemein	träumen	engagiert	vertrauen	vergnügt	sonnig	anregung	töten	engstirnig	versagen	verbissen	sterben	ausrottung	0	0	0	0	0	0	0	0	0	0	0	0	0	0	0	0	0	0	0	0	0	0	0	0	0	0	0	0	0	0
2024-05-16	09:17:54	09:29:33	698032	6.6.1	4_exp_EVA_AWA_CON	39	A	B	Rpleas_acq	Same	Rpleas	2pleas	conawa_CS1_US5	conawa1_nomask	8	5	0	0	300	300	0	0	10286	gierig	1	25,2604166666666714036pct	kreativ	besonnen	gesittet	kuss	gütig	genießen	krank	bange	geizig	krise	gierig	gemein	träumen	engagiert	vertrauen	vergnügt	sonnig	anregung	töten	engstirnig	versagen	verbissen	sterben	ausrottung	0	0	0	0	0	0	0	0	0	0	0	0	0	0	0	0	0	0	0	0	0	0	0	0	0	0	0	0	0	0
2024-05-16	09:17:54	09:29:33	698033	6.6.1	4_exp_EVA_AWA_CON	39	A	B	Rpleas_acq	Same	Rpleas	2pleas	conawa_CS1_US5_confidence	conawa1_nomask	8	5	0	0	300	300	0	0	10286	guess	1	25,2604166666666714036pct	kreativ	besonnen	gesittet	kuss	gütig	genießen	krank	bange	geizig	krise	gierig	gemein	träumen	engagiert	vertrauen	vergnügt	sonnig	anregung	töten	engstirnig	versagen	verbissen	sterben	ausrottung	0	0	0	0	0	0	0	0	0	0	0	0	0	0	0	0	0	0	0	0	0	0	0	0	0	0	0	0	0	0
2024-05-16	09:17:54	09:29:38	703155	6.6.1	4_exp_EVA_AWA_CON	39	A	B	Rpleas_acq	Same	Rpleas	2pleas	conawa_CS1_US4	conawa1_nomask	8	6	0	0	300	300	0	0	4507	krise	1	25,2604166666666714036pct	kreativ	besonnen	gesittet	kuss	gütig	genießen	krank	bange	geizig	krise	gierig	gemein	träumen	engagiert	vertrauen	vergnügt	sonnig	anregung	töten	engstirnig	versagen	verbissen	sterben	ausrottung	0	0	0	0	0	0	0	0	0	0	0	0	0	0	0	0	0	0	0	0	0	0	0	0	0	0	0	0	0	0
2024-05-16	09:17:54	09:29:38	703157	6.6.1	4_exp_EVA_AWA_CON	39	A	B	Rpleas_acq	Same	Rpleas	2pleas	conawa_CS1_US4_confidence	conawa1_nomask	8	6	0	0	300	300	0	0	4507	guess	1	25,2604166666666714036pct	kreativ	besonnen	gesittet	kuss	gütig	genießen	krank	bange	geizig	krise	gierig	gemein	träumen	engagiert	vertrauen	vergnügt	sonnig	anregung	töten	engstirnig	versagen	verbissen	sterben	ausrottung	0	0	0	0	0	0	0	0	0	0	0	0	0	0	0	0	0	0	0	0	0	0	0	0	0	0	0	0	0	0
2024-05-16	09:17:54	09:29:43	707948	6.6.1	4_exp_EVA_AWA_CON	39	A	B	Rpleas_acq	Same	Rpleas	2pleas	conawa_CS1_US3	conawa1_nomask	8	7	0	0	300	300	0	0	4177	geizig	1	25,2604166666666714036pct	kreativ	besonnen	gesittet	kuss	gütig	genießen	krank	bange	geizig	krise	gierig	gemein	träumen	engagiert	vertrauen	vergnügt	sonnig	anregung	töten	engstirnig	versagen	verbissen	sterben	ausrottung	0	0	0	0	0	0	0	0	0	0	0	0	0	0	0	0	0	0	0	0	0	0	0	0	0	0	0	0	0	0
2024-05-16	09:17:54	09:29:43	707950	6.6.1	4_exp_EVA_AWA_CON	39	A	B	Rpleas_acq	Same	Rpleas	2pleas	conawa_CS1_US3_confidence	conawa1_nomask	8	7	0	0	300	300	0	0	4177	guess	1	25,2604166666666714036pct	kreativ	besonnen	gesittet	kuss	gütig	genießen	krank	bange	geizig	krise	gierig	gemein	träumen	engagiert	vertrauen	vergnügt	sonnig	anregung	töten	engstirnig	versagen	verbissen	sterben	ausrottung	0	0	0	0	0	0	0	0	0	0	0	0	0	0	0	0	0	0	0	0	0	0	0	0	0	0	0	0	0	0
2024-05-16	09:17:54	09:29:48	713271	6.6.1	4_exp_EVA_AWA_CON	39	A	B	Rpleas_acq	Same	Rpleas	2pleas	conawa_CS2_US2	conawa1_nomask	8	8	0	0	300	300	0	0	4705	bange	1	25,2604166666666714036pct	kreativ	besonnen	gesittet	kuss	gütig	genießen	krank	bange	geizig	krise	gierig	gemein	träumen	engagiert	vertrauen	vergnügt	sonnig	anregung	töten	engstirnig	versagen	verbissen	sterben	ausrottung	0	0	0	0	0	0	0	0	0	0	0	0	0	0	0	0	0	0	0	0	0	0	0	0	0	0	0	0	0	0
2024-05-16	09:17:54	09:29:48	713273	6.6.1	4_exp_EVA_AWA_CON	39	A	B	Rpleas_acq	Same	Rpleas	2pleas	conawa_CS2_US2_confidence	conawa1_nomask	8	8	0	0	300	300	0	0	4705	guess	1	25,2604166666666714036pct	kreativ	besonnen	gesittet	kuss	gütig	genießen	krank	bange	geizig	krise	gierig	gemein	träumen	engagiert	vertrauen	vergnügt	sonnig	anregung	töten	engstirnig	versagen	verbissen	sterben	ausrottung	0	0	0	0	0	0	0	0	0	0	0	0	0	0	0	0	0	0	0	0	0	0	0	0	0	0	0	0	0	0
2024-05-16	09:17:54	09:29:52	717314	6.6.1	4_exp_EVA_AWA_CON	39	A	B	Rpleas_acq	Same	Rpleas	2pleas	conawa_CS2_US5	conawa1_nomask	8	9	0	0	300	300	0	0	3429	gütig	1	25,2604166666666714036pct	kreativ	besonnen	gesittet	kuss	gütig	genießen	krank	bange	geizig	krise	gierig	gemein	träumen	engagiert	vertrauen	vergnügt	sonnig	anregung	töten	engstirnig	versagen	verbissen	sterben	ausrottung	0	0	0	0	0	0	0	0	0	0	0	0	0	0	0	0	0	0	0	0	0	0	0	0	0	0	0	0	0	0
2024-05-16	09:17:54	09:29:52	717316	6.6.1	4_exp_EVA_AWA_CON	39	A	B	Rpleas_acq	Same	Rpleas	2pleas	conawa_CS2_US5_confidence	conawa1_nomask	8	9	0	0	300	300	0	0	3429	guess	1	25,2604166666666714036pct	kreativ	besonnen	gesittet	kuss	gütig	genießen	krank	bange	geizig	krise	gierig	gemein	träumen	engagiert	vertrauen	vergnügt	sonnig	anregung	töten	engstirnig	versagen	verbissen	sterben	ausrottung	0	0	0	0	0	0	0	0	0	0	0	0	0	0	0	0	0	0	0	0	0	0	0	0	0	0	0	0	0	0
2024-05-16	09:17:54	09:29:57	721947	6.6.1	4_exp_EVA_AWA_CON	39	A	B	Rpleas_acq	Same	Rpleas	2pleas	conawa_CS1_US2	conawa1_nomask	8	10	0	0	300	300	0	0	4018	besonnen	1	25,2604166666666714036pct	kreativ	besonnen	gesittet	kuss	gütig	genießen	krank	bange	geizig	krise	gierig	gemein	träumen	engagiert	vertrauen	vergnügt	sonnig	anregung	töten	engstirnig	versagen	verbissen	sterben	ausrottung	0	0	0	0	0	0	0	0	0	0	0	0	0	0	0	0	0	0	0	0	0	0	0	0	0	0	0	0	0	0
2024-05-16	09:17:54	09:29:57	721949	6.6.1	4_exp_EVA_AWA_CON	39	A	B	Rpleas_acq	Same	Rpleas	2pleas	conawa_CS1_US2_confidence	conawa1_nomask	8	10	0	0	300	300	0	0	4018	guess	1	25,2604166666666714036pct	kreativ	besonnen	gesittet	kuss	gütig	genießen	krank	bange	geizig	krise	gierig	gemein	träumen	engagiert	vertrauen	vergnügt	sonnig	anregung	töten	engstirnig	versagen	verbissen	sterben	ausrottung	0	0	0	0	0	0	0	0	0	0	0	0	0	0	0	0	0	0	0	0	0	0	0	0	0	0	0	0	0	0
2024-05-16	09:17:54	09:30:01	726160	6.6.1	4_exp_EVA_AWA_CON	39	A	B	Rpleas_acq	Same	Rpleas	2pleas	conawa_CS2_US4	conawa1_nomask	8	11	0	0	300	300	0	0	3601	sonnig	1	25,2604166666666714036pct	kreativ	besonnen	gesittet	kuss	gütig	genießen	krank	bange	geizig	krise	gierig	gemein	träumen	engagiert	vertrauen	vergnügt	sonnig	anregung	töten	engstirnig	versagen	verbissen	sterben	ausrottung	0	0	0	0	0	0	0	0	0	0	0	0	0	0	0	0	0	0	0	0	0	0	0	0	0	0	0	0	0	0
2024-05-16	09:17:54	09:30:01	726162	6.6.1	4_exp_EVA_AWA_CON	39	A	B	Rpleas_acq	Same	Rpleas	2pleas	conawa_CS2_US4_confidence	conawa1_nomask	8	11	0	0	300	300	0	0	3601	guess	1	25,2604166666666714036pct	kreativ	besonnen	gesittet	kuss	gütig	genießen	krank	bange	geizig	krise	gierig	gemein	träumen	engagiert	vertrauen	vergnügt	sonnig	anregung	töten	engstirnig	versagen	verbissen	sterben	ausrottung	0	0	0	0	0	0	0	0	0	0	0	0	0	0	0	0	0	0	0	0	0	0	0	0	0	0	0	0	0	0
2024-05-16	09:17:54	09:30:06	731293	6.6.1	4_exp_EVA_AWA_CON	39	A	B	Rpleas_acq	Same	Rpleas	2pleas	conawa_CS2_US1	conawa1_nomask	8	12	0	0	300	300	0	0	4517	engagiert	1	25,2604166666666714036pct	kreativ	besonnen	gesittet	kuss	gütig	genießen	krank	bange	geizig	krise	gierig	gemein	träumen	engagiert	vertrauen	vergnügt	sonnig	anregung	töten	engstirnig	versagen	verbissen	sterben	ausrottung	0	0	0	0	0	0	0	0	0	0	0	0	0	0	0	0	0	0	0	0	0	0	0	0	0	0	0	0	0	0
2024-05-16	09:17:54	09:30:06	731295	6.6.1	4_exp_EVA_AWA_CON	39	A	B	Rpleas_acq	Same	Rpleas	2pleas	conawa_CS2_US1_confidence	conawa1_nomask	8	12	0	0	300	300	0	0	4517	guess	1	25,2604166666666714036pct	kreativ	besonnen	gesittet	kuss	gütig	genießen	krank	bange	geizig	krise	gierig	gemein	träumen	engagiert	vertrauen	vergnügt	sonnig	anregung	töten	engstirnig	versagen	verbissen	sterben	ausrottung	0	0	0	0	0	0	0	0	0	0	0	0	0	0	0	0	0	0	0	0	0	0	0	0	0	0	0	0	0	0
2024-05-16	09:17:54	09:30:53	778014	6.6.1	4_exp_EVA_AWA_CON	39	A	B	Rpleas_acq	Same	Rpleas	2pleas	cond_new_unple_456_nomask_CS2	condtest_nomask_1	11	1	400	0	300	300	0	0	610	50	0	25,2604166666666714036pct	kreativ	besonnen	gesittet	kuss	gütig	genießen	krank	bange	geizig	krise	gierig	gemein	träumen	engagiert	vertrauen	vergnügt	sonnig	anregung	töten	engstirnig	versagen	verbissen	sterben	ausrottung	1	blank2r.bmp	0	1	+	0	1	blank2r.bmp	500	1	DHJF	500	1	blank2r.bmp	880	3	sterben	880	1	!	1232	1	!	-1	0	0	0	0	0	0
