date	time	currenttime	elapsedtime	build	currentexpt	subject	CS_AB	US_AB	LRpleas_acq	SameOppo	condition_Lpleas	condition_1pleas	trialcode	blockcode	blocknum	trialnum	windowcenter	inwindow	pretrialpause	posttrialpause	trialduration	trialtimeout	latency	response	correct	correctedscore	US_nomask_pleas1	US_nomask_pleas2	US_nomask_pleas3	US_nomask_pleas4	US_nomask_pleas5	US_nomask_pleas6	US_nomask_unple1	US_nomask_unple2	US_nomask_unple3	US_nomask_unple4	US_nomask_unple5	US_nomask_unple6	new_nomask_pleas1	new_nomask_pleas2	new_nomask_pleas3	new_nomask_pleas4	new_nomask_pleas5	new_nomask_pleas6	new_nomask_unple1	new_nomask_unple2	new_nomask_unple3	new_nomask_unple4	new_nomask_unple5	new_nomask_unple6	stimulusnumber1	stimulusitem1	stimulusonset1	stimulusnumber2	stimulusitem2	stimulusonset2	stimulusnumber3	stimulusitem3	stimulusonset3	stimulusnumber4	stimulusitem4	stimulusonset4	stimulusnumber5	stimulusitem5	stimulusonset5	stimulusnumber6	stimulusitem6	stimulusonset6	stimulusnumber7	stimulusitem7	stimulusonset7	stimulusnumber8	stimulusitem8	stimulusonset8	stimulusnumber9	stimulusitem9	stimulusonset9	stimulusnumber10	stimulusitem10	stimulusonset10
2024-05-14	09:40:44	09:42:35	110445	6.6.1	4_exp_EVA_AWA_CON	27	B	A	Rpleas_acq	Same	Rpleas	2pleas	acq_US_pleas_nomask	acq1_nomask	1	1	0	0	300	300	0	0	1358	50	1	0	schlau	freundlich	spielen	retten	helfen	schön	schroff	fanatisch	strafen	rächen	hindern	schlecht	loyal	fair	ehrlich	tolerant	lachen	treu	lasch	faul	eitel	tyrannisch	leiden	tot	1	blank2r.bmp	0	1	+	0	1	blank2r.bmp	500	1	GKQX	500	1	blank2r.bmp	880	5	helfen	880	0	0	0	0	0	0	0	0	0	0	0	0
2024-05-14	09:40:44	09:42:38	113285	6.6.1	4_exp_EVA_AWA_CON	27	B	A	Rpleas_acq	Same	Rpleas	2pleas	acq_new_unple_nomask	acq1_nomask	1	2	0	0	300	300	0	0	1356	46	1	0	schlau	freundlich	spielen	retten	helfen	schön	schroff	fanatisch	strafen	rächen	hindern	schlecht	loyal	fair	ehrlich	tolerant	lachen	treu	lasch	faul	eitel	tyrannisch	leiden	tot	1	blank2r.bmp	0	1	+	0	1	blank2r.bmp	500	7	C3r.bmp	500	1	blank2r.bmp	880	3	eitel	880	0	0	0	0	0	0	0	0	0	0	0	0
2024-05-14	09:40:44	09:42:40	115597	6.6.1	4_exp_EVA_AWA_CON	27	B	A	Rpleas_acq	Same	Rpleas	2pleas	acq_US_unple_nomask	acq1_nomask	1	3	0	0	300	300	0	0	827	46	1	0	schlau	freundlich	spielen	retten	helfen	schön	schroff	fanatisch	strafen	rächen	hindern	schlecht	loyal	fair	ehrlich	tolerant	lachen	treu	lasch	faul	eitel	tyrannisch	leiden	tot	1	blank2r.bmp	0	1	+	0	1	blank2r.bmp	500	1	BMVZ	500	1	blank2r.bmp	880	3	strafen	880	0	0	0	0	0	0	0	0	0	0	0	0
2024-05-14	09:40:44	09:42:42	117685	6.6.1	4_exp_EVA_AWA_CON	27	B	A	Rpleas_acq	Same	Rpleas	2pleas	acq_US_pleas_nomask	acq1_nomask	1	4	0	0	300	300	0	0	603	50	1	0	schlau	freundlich	spielen	retten	helfen	schön	schroff	fanatisch	strafen	rächen	hindern	schlecht	loyal	fair	ehrlich	tolerant	lachen	treu	lasch	faul	eitel	tyrannisch	leiden	tot	1	blank2r.bmp	0	1	+	0	1	blank2r.bmp	500	1	GKQX	500	1	blank2r.bmp	880	3	spielen	880	0	0	0	0	0	0	0	0	0	0	0	0
2024-05-14	09:40:44	09:42:44	119877	6.6.1	4_exp_EVA_AWA_CON	27	B	A	Rpleas_acq	Same	Rpleas	2pleas	acq_new_unple_nomask	acq1_nomask	1	5	0	0	300	300	0	0	704	46	1	0	schlau	freundlich	spielen	retten	helfen	schön	schroff	fanatisch	strafen	rächen	hindern	schlecht	loyal	fair	ehrlich	tolerant	lachen	treu	lasch	faul	eitel	tyrannisch	leiden	tot	1	blank2r.bmp	0	1	+	0	1	blank2r.bmp	500	2	B2r.bmp	500	1	blank2r.bmp	880	6	tot	880	0	0	0	0	0	0	0	0	0	0	0	0
2024-05-14	09:40:44	09:42:46	122045	6.6.1	4_exp_EVA_AWA_CON	27	B	A	Rpleas_acq	Same	Rpleas	2pleas	acq_US_unple_nomask	acq1_nomask	1	6	0	0	300	300	0	0	680	46	1	0	schlau	freundlich	spielen	retten	helfen	schön	schroff	fanatisch	strafen	rächen	hindern	schlecht	loyal	fair	ehrlich	tolerant	lachen	treu	lasch	faul	eitel	tyrannisch	leiden	tot	1	blank2r.bmp	0	1	+	0	1	blank2r.bmp	500	1	BMVZ	500	1	blank2r.bmp	880	1	schroff	880	0	0	0	0	0	0	0	0	0	0	0	0
2024-05-14	09:40:44	09:42:48	124213	6.6.1	4_exp_EVA_AWA_CON	27	B	A	Rpleas_acq	Same	Rpleas	2pleas	acq_new_pleas_nomask	acq1_nomask	1	7	0	0	300	300	0	0	687	50	1	0	schlau	freundlich	spielen	retten	helfen	schön	schroff	fanatisch	strafen	rächen	hindern	schlecht	loyal	fair	ehrlich	tolerant	lachen	treu	lasch	faul	eitel	tyrannisch	leiden	tot	1	blank2r.bmp	0	1	+	0	1	blank2r.bmp	500	8	C4r.bmp	500	1	blank2r.bmp	880	5	lachen	880	0	0	0	0	0	0	0	0	0	0	0	0
2024-05-14	09:40:44	09:42:51	126413	6.6.1	4_exp_EVA_AWA_CON	27	B	A	Rpleas_acq	Same	Rpleas	2pleas	acq_new_pleas_nomask	acq1_nomask	1	8	0	0	300	300	0	0	716	50	1	0	schlau	freundlich	spielen	retten	helfen	schön	schroff	fanatisch	strafen	rächen	hindern	schlecht	loyal	fair	ehrlich	tolerant	lachen	treu	lasch	faul	eitel	tyrannisch	leiden	tot	1	blank2r.bmp	0	1	+	0	1	blank2r.bmp	500	6	C2r.bmp	500	1	blank2r.bmp	880	4	tolerant	880	0	0	0	0	0	0	0	0	0	0	0	0
2024-05-14	09:40:44	09:42:53	128613	6.6.1	4_exp_EVA_AWA_CON	27	B	A	Rpleas_acq	Same	Rpleas	2pleas	acq_new_pleas_nomask	acq1_nomask	1	9	0	0	300	300	0	0	714	50	1	0	schlau	freundlich	spielen	retten	helfen	schön	schroff	fanatisch	strafen	rächen	hindern	schlecht	loyal	fair	ehrlich	tolerant	lachen	treu	lasch	faul	eitel	tyrannisch	leiden	tot	1	blank2r.bmp	0	1	+	0	1	blank2r.bmp	500	4	B4r.bmp	500	1	blank2r.bmp	880	1	loyal	880	0	0	0	0	0	0	0	0	0	0	0	0
2024-05-14	09:40:44	09:42:55	131045	6.6.1	4_exp_EVA_AWA_CON	27	B	A	Rpleas_acq	Same	Rpleas	2pleas	acq_US_unple_nomask	acq1_nomask	1	10	0	0	300	300	0	0	945	46	1	0	schlau	freundlich	spielen	retten	helfen	schön	schroff	fanatisch	strafen	rächen	hindern	schlecht	loyal	fair	ehrlich	tolerant	lachen	treu	lasch	faul	eitel	tyrannisch	leiden	tot	1	blank2r.bmp	0	1	+	0	1	blank2r.bmp	500	1	BMVZ	500	1	blank2r.bmp	880	2	fanatisch	880	0	0	0	0	0	0	0	0	0	0	0	0
2024-05-14	09:40:44	09:42:58	133469	6.6.1	4_exp_EVA_AWA_CON	27	B	A	Rpleas_acq	Same	Rpleas	2pleas	acq_new_unple_nomask	acq1_nomask	1	11	0	0	300	300	0	0	937	46	1	0	schlau	freundlich	spielen	retten	helfen	schön	schroff	fanatisch	strafen	rächen	hindern	schlecht	loyal	fair	ehrlich	tolerant	lachen	treu	lasch	faul	eitel	tyrannisch	leiden	tot	1	blank2r.bmp	0	1	+	0	1	blank2r.bmp	500	1	B1r.bmp	500	1	blank2r.bmp	880	4	tyrannisch	880	0	0	0	0	0	0	0	0	0	0	0	0
2024-05-14	09:40:44	09:43:00	135813	6.6.1	4_exp_EVA_AWA_CON	27	B	A	Rpleas_acq	Same	Rpleas	2pleas	acq_US_pleas_nomask	acq1_nomask	1	12	0	0	300	300	0	0	860	50	1	0	schlau	freundlich	spielen	retten	helfen	schön	schroff	fanatisch	strafen	rächen	hindern	schlecht	loyal	fair	ehrlich	tolerant	lachen	treu	lasch	faul	eitel	tyrannisch	leiden	tot	1	blank2r.bmp	0	1	+	0	1	blank2r.bmp	500	1	GKQX	500	1	blank2r.bmp	880	2	freundlich	880	0	0	0	0	0	0	0	0	0	0	0	0
2024-05-14	09:40:44	09:43:02	137821	6.6.1	4_exp_EVA_AWA_CON	27	B	A	Rpleas_acq	Same	Rpleas	2pleas	acq_new_pleas_nomask	acq1_nomask	1	13	0	0	300	300	0	0	526	50	1	0	schlau	freundlich	spielen	retten	helfen	schön	schroff	fanatisch	strafen	rächen	hindern	schlecht	loyal	fair	ehrlich	tolerant	lachen	treu	lasch	faul	eitel	tyrannisch	leiden	tot	1	blank2r.bmp	0	1	+	0	1	blank2r.bmp	500	5	C1r.bmp	500	1	blank2r.bmp	880	3	ehrlich	880	0	0	0	0	0	0	0	0	0	0	0	0
2024-05-14	09:40:44	09:43:04	139805	6.6.1	4_exp_EVA_AWA_CON	27	B	A	Rpleas_acq	Same	Rpleas	2pleas	acq_new_unple_nomask	acq1_nomask	1	14	0	0	300	300	0	0	499	46	1	0	schlau	freundlich	spielen	retten	helfen	schön	schroff	fanatisch	strafen	rächen	hindern	schlecht	loyal	fair	ehrlich	tolerant	lachen	treu	lasch	faul	eitel	tyrannisch	leiden	tot	1	blank2r.bmp	0	1	+	0	1	blank2r.bmp	500	3	B3r.bmp	500	1	blank2r.bmp	880	2	faul	880	0	0	0	0	0	0	0	0	0	0	0	0
2024-05-14	09:40:44	09:43:06	141877	6.6.1	4_exp_EVA_AWA_CON	27	B	A	Rpleas_acq	Same	Rpleas	2pleas	acq_new_unple_nomask	acq1_nomask	1	15	0	0	300	300	0	0	589	46	1	0	schlau	freundlich	spielen	retten	helfen	schön	schroff	fanatisch	strafen	rächen	hindern	schlecht	loyal	fair	ehrlich	tolerant	lachen	treu	lasch	faul	eitel	tyrannisch	leiden	tot	1	blank2r.bmp	0	1	+	0	1	blank2r.bmp	500	6	C2r.bmp	500	1	blank2r.bmp	880	1	lasch	880	0	0	0	0	0	0	0	0	0	0	0	0
2024-05-14	09:40:44	09:43:08	143877	6.6.1	4_exp_EVA_AWA_CON	27	B	A	Rpleas_acq	Same	Rpleas	2pleas	acq_new_pleas_nomask	acq1_nomask	1	16	0	0	300	300	0	0	518	50	1	0	schlau	freundlich	spielen	retten	helfen	schön	schroff	fanatisch	strafen	rächen	hindern	schlecht	loyal	fair	ehrlich	tolerant	lachen	treu	lasch	faul	eitel	tyrannisch	leiden	tot	1	blank2r.bmp	0	1	+	0	1	blank2r.bmp	500	4	B4r.bmp	500	1	blank2r.bmp	880	6	treu	880	0	0	0	0	0	0	0	0	0	0	0	0
2024-05-14	09:40:44	09:43:10	145909	6.6.1	4_exp_EVA_AWA_CON	27	B	A	Rpleas_acq	Same	Rpleas	2pleas	acq_new_pleas_nomask	acq1_nomask	1	17	0	0	300	300	0	0	549	50	1	0	schlau	freundlich	spielen	retten	helfen	schön	schroff	fanatisch	strafen	rächen	hindern	schlecht	loyal	fair	ehrlich	tolerant	lachen	treu	lasch	faul	eitel	tyrannisch	leiden	tot	1	blank2r.bmp	0	1	+	0	1	blank2r.bmp	500	8	C4r.bmp	500	1	blank2r.bmp	880	2	fair	880	0	0	0	0	0	0	0	0	0	0	0	0
2024-05-14	09:40:44	09:43:12	147901	6.6.1	4_exp_EVA_AWA_CON	27	B	A	Rpleas_acq	Same	Rpleas	2pleas	acq_US_pleas_nomask	acq1_nomask	1	18	0	0	300	300	0	0	510	50	1	0	schlau	freundlich	spielen	retten	helfen	schön	schroff	fanatisch	strafen	rächen	hindern	schlecht	loyal	fair	ehrlich	tolerant	lachen	treu	lasch	faul	eitel	tyrannisch	leiden	tot	1	blank2r.bmp	0	1	+	0	1	blank2r.bmp	500	1	GKQX	500	1	blank2r.bmp	880	1	schlau	880	0	0	0	0	0	0	0	0	0	0	0	0
2024-05-14	09:40:44	09:43:14	150013	6.6.1	4_exp_EVA_AWA_CON	27	B	A	Rpleas_acq	Same	Rpleas	2pleas	acq_US_unple_nomask	acq1_nomask	1	19	0	0	300	300	0	0	630	46	1	0	schlau	freundlich	spielen	retten	helfen	schön	schroff	fanatisch	strafen	rächen	hindern	schlecht	loyal	fair	ehrlich	tolerant	lachen	treu	lasch	faul	eitel	tyrannisch	leiden	tot	1	blank2r.bmp	0	1	+	0	1	blank2r.bmp	500	1	BMVZ	500	1	blank2r.bmp	880	4	rächen	880	0	0	0	0	0	0	0	0	0	0	0	0
2024-05-14	09:40:44	09:43:16	151925	6.6.1	4_exp_EVA_AWA_CON	27	B	A	Rpleas_acq	Same	Rpleas	2pleas	acq_US_pleas_nomask	acq1_nomask	1	20	0	0	300	300	0	0	431	50	1	0	schlau	freundlich	spielen	retten	helfen	schön	schroff	fanatisch	strafen	rächen	hindern	schlecht	loyal	fair	ehrlich	tolerant	lachen	treu	lasch	faul	eitel	tyrannisch	leiden	tot	1	blank2r.bmp	0	1	+	0	1	blank2r.bmp	500	1	GKQX	500	1	blank2r.bmp	880	6	schön	880	0	0	0	0	0	0	0	0	0	0	0	0
2024-05-14	09:40:44	09:43:18	153868	6.6.1	4_exp_EVA_AWA_CON	27	B	A	Rpleas_acq	Same	Rpleas	2pleas	acq_US_unple_nomask	acq1_nomask	1	21	0	0	300	300	0	0	454	46	1	0	schlau	freundlich	spielen	retten	helfen	schön	schroff	fanatisch	strafen	rächen	hindern	schlecht	loyal	fair	ehrlich	tolerant	lachen	treu	lasch	faul	eitel	tyrannisch	leiden	tot	1	blank2r.bmp	0	1	+	0	1	blank2r.bmp	500	1	BMVZ	500	1	blank2r.bmp	880	6	schlecht	880	0	0	0	0	0	0	0	0	0	0	0	0
2024-05-14	09:40:44	09:43:20	155861	6.6.1	4_exp_EVA_AWA_CON	27	B	A	Rpleas_acq	Same	Rpleas	2pleas	acq_US_pleas_nomask	acq1_nomask	1	22	0	0	300	300	0	0	505	50	1	0	schlau	freundlich	spielen	retten	helfen	schön	schroff	fanatisch	strafen	rächen	hindern	schlecht	loyal	fair	ehrlich	tolerant	lachen	treu	lasch	faul	eitel	tyrannisch	leiden	tot	1	blank2r.bmp	0	1	+	0	1	blank2r.bmp	500	1	GKQX	500	1	blank2r.bmp	880	4	retten	880	0	0	0	0	0	0	0	0	0	0	0	0
2024-05-14	09:40:44	09:43:22	157973	6.6.1	4_exp_EVA_AWA_CON	27	B	A	Rpleas_acq	Same	Rpleas	2pleas	acq_new_unple_nomask	acq1_nomask	1	23	0	0	300	300	0	0	625	46	1	0	schlau	freundlich	spielen	retten	helfen	schön	schroff	fanatisch	strafen	rächen	hindern	schlecht	loyal	fair	ehrlich	tolerant	lachen	treu	lasch	faul	eitel	tyrannisch	leiden	tot	1	blank2r.bmp	0	1	+	0	1	blank2r.bmp	500	2	B2r.bmp	500	1	blank2r.bmp	880	5	leiden	880	0	0	0	0	0	0	0	0	0	0	0	0
2024-05-14	09:40:44	09:43:24	160165	6.6.1	4_exp_EVA_AWA_CON	27	B	A	Rpleas_acq	Same	Rpleas	2pleas	acq_US_unple_nomask	acq1_nomask	1	24	0	0	300	300	0	0	706	46	1	0	schlau	freundlich	spielen	retten	helfen	schön	schroff	fanatisch	strafen	rächen	hindern	schlecht	loyal	fair	ehrlich	tolerant	lachen	treu	lasch	faul	eitel	tyrannisch	leiden	tot	1	blank2r.bmp	0	1	+	0	1	blank2r.bmp	500	1	BMVZ	500	1	blank2r.bmp	880	5	hindern	880	0	0	0	0	0	0	0	0	0	0	0	0
2024-05-14	09:40:44	09:43:26	162205	6.6.1	4_exp_EVA_AWA_CON	27	B	A	Rpleas_acq	Same	Rpleas	2pleas	acq_US_pleas_nomask	acq1_nomask	1	25	0	0	300	300	0	0	554	50	1	0	schlau	freundlich	spielen	retten	helfen	schön	schroff	fanatisch	strafen	rächen	hindern	schlecht	loyal	fair	ehrlich	tolerant	lachen	treu	lasch	faul	eitel	tyrannisch	leiden	tot	1	blank2r.bmp	0	1	+	0	1	blank2r.bmp	500	1	GKQX	500	1	blank2r.bmp	880	1	schlau	880	0	0	0	0	0	0	0	0	0	0	0	0
2024-05-14	09:40:44	09:43:29	164301	6.6.1	4_exp_EVA_AWA_CON	27	B	A	Rpleas_acq	Same	Rpleas	2pleas	acq_new_unple_nomask	acq1_nomask	1	26	0	0	300	300	0	0	609	46	1	0	schlau	freundlich	spielen	retten	helfen	schön	schroff	fanatisch	strafen	rächen	hindern	schlecht	loyal	fair	ehrlich	tolerant	lachen	treu	lasch	faul	eitel	tyrannisch	leiden	tot	1	blank2r.bmp	0	1	+	0	1	blank2r.bmp	500	7	C3r.bmp	500	1	blank2r.bmp	880	1	lasch	880	0	0	0	0	0	0	0	0	0	0	0	0
2024-05-14	09:40:44	09:43:31	166429	6.6.1	4_exp_EVA_AWA_CON	27	B	A	Rpleas_acq	Same	Rpleas	2pleas	acq_new_unple_nomask	acq1_nomask	1	27	0	0	300	300	0	0	646	46	1	0	schlau	freundlich	spielen	retten	helfen	schön	schroff	fanatisch	strafen	rächen	hindern	schlecht	loyal	fair	ehrlich	tolerant	lachen	treu	lasch	faul	eitel	tyrannisch	leiden	tot	1	blank2r.bmp	0	1	+	0	1	blank2r.bmp	500	1	B1r.bmp	500	1	blank2r.bmp	880	5	leiden	880	0	0	0	0	0	0	0	0	0	0	0	0
2024-05-14	09:40:44	09:43:33	168405	6.6.1	4_exp_EVA_AWA_CON	27	B	A	Rpleas_acq	Same	Rpleas	2pleas	acq_US_unple_nomask	acq1_nomask	1	28	0	0	300	300	0	0	490	46	1	0	schlau	freundlich	spielen	retten	helfen	schön	schroff	fanatisch	strafen	rächen	hindern	schlecht	loyal	fair	ehrlich	tolerant	lachen	treu	lasch	faul	eitel	tyrannisch	leiden	tot	1	blank2r.bmp	0	1	+	0	1	blank2r.bmp	500	1	BMVZ	500	1	blank2r.bmp	880	5	hindern	880	0	0	0	0	0	0	0	0	0	0	0	0
2024-05-14	09:40:44	09:43:35	170437	6.6.1	4_exp_EVA_AWA_CON	27	B	A	Rpleas_acq	Same	Rpleas	2pleas	acq_US_pleas_nomask	acq1_nomask	1	29	0	0	300	300	0	0	541	50	1	0	schlau	freundlich	spielen	retten	helfen	schön	schroff	fanatisch	strafen	rächen	hindern	schlecht	loyal	fair	ehrlich	tolerant	lachen	treu	lasch	faul	eitel	tyrannisch	leiden	tot	1	blank2r.bmp	0	1	+	0	1	blank2r.bmp	500	1	GKQX	500	1	blank2r.bmp	880	4	retten	880	0	0	0	0	0	0	0	0	0	0	0	0
2024-05-14	09:40:44	09:43:37	172389	6.6.1	4_exp_EVA_AWA_CON	27	B	A	Rpleas_acq	Same	Rpleas	2pleas	acq_new_pleas_nomask	acq1_nomask	1	30	0	0	300	300	0	0	462	50	1	0	schlau	freundlich	spielen	retten	helfen	schön	schroff	fanatisch	strafen	rächen	hindern	schlecht	loyal	fair	ehrlich	tolerant	lachen	treu	lasch	faul	eitel	tyrannisch	leiden	tot	1	blank2r.bmp	0	1	+	0	1	blank2r.bmp	500	5	C1r.bmp	500	1	blank2r.bmp	880	6	treu	880	0	0	0	0	0	0	0	0	0	0	0	0
2024-05-14	09:40:44	09:43:39	174445	6.6.1	4_exp_EVA_AWA_CON	27	B	A	Rpleas_acq	Same	Rpleas	2pleas	acq_new_unple_nomask	acq1_nomask	1	31	0	0	300	300	0	0	567	46	1	0	schlau	freundlich	spielen	retten	helfen	schön	schroff	fanatisch	strafen	rächen	hindern	schlecht	loyal	fair	ehrlich	tolerant	lachen	treu	lasch	faul	eitel	tyrannisch	leiden	tot	1	blank2r.bmp	0	1	+	0	1	blank2r.bmp	500	3	B3r.bmp	500	1	blank2r.bmp	880	2	faul	880	0	0	0	0	0	0	0	0	0	0	0	0
2024-05-14	09:40:44	09:43:41	176428	6.6.1	4_exp_EVA_AWA_CON	27	B	A	Rpleas_acq	Same	Rpleas	2pleas	acq_new_pleas_nomask	acq1_nomask	1	32	0	0	300	300	0	0	499	50	1	0	schlau	freundlich	spielen	retten	helfen	schön	schroff	fanatisch	strafen	rächen	hindern	schlecht	loyal	fair	ehrlich	tolerant	lachen	treu	lasch	faul	eitel	tyrannisch	leiden	tot	1	blank2r.bmp	0	1	+	0	1	blank2r.bmp	500	7	C3r.bmp	500	1	blank2r.bmp	880	2	fair	880	0	0	0	0	0	0	0	0	0	0	0	0
2024-05-14	09:40:44	09:43:43	178373	6.6.1	4_exp_EVA_AWA_CON	27	B	A	Rpleas_acq	Same	Rpleas	2pleas	acq_US_pleas_nomask	acq1_nomask	1	33	0	0	300	300	0	0	462	50	1	0	schlau	freundlich	spielen	retten	helfen	schön	schroff	fanatisch	strafen	rächen	hindern	schlecht	loyal	fair	ehrlich	tolerant	lachen	treu	lasch	faul	eitel	tyrannisch	leiden	tot	1	blank2r.bmp	0	1	+	0	1	blank2r.bmp	500	1	GKQX	500	1	blank2r.bmp	880	2	freundlich	880	0	0	0	0	0	0	0	0	0	0	0	0
2024-05-14	09:40:44	09:43:45	180405	6.6.1	4_exp_EVA_AWA_CON	27	B	A	Rpleas_acq	Same	Rpleas	2pleas	acq_new_pleas_nomask	acq1_nomask	1	34	0	0	300	300	0	0	543	50	1	0	schlau	freundlich	spielen	retten	helfen	schön	schroff	fanatisch	strafen	rächen	hindern	schlecht	loyal	fair	ehrlich	tolerant	lachen	treu	lasch	faul	eitel	tyrannisch	leiden	tot	1	blank2r.bmp	0	1	+	0	1	blank2r.bmp	500	5	C1r.bmp	500	1	blank2r.bmp	880	4	tolerant	880	0	0	0	0	0	0	0	0	0	0	0	0
2024-05-14	09:40:44	09:43:47	182460	6.6.1	4_exp_EVA_AWA_CON	27	B	A	Rpleas_acq	Same	Rpleas	2pleas	acq_US_unple_nomask	acq1_nomask	1	35	0	0	300	300	0	0	567	46	1	0	schlau	freundlich	spielen	retten	helfen	schön	schroff	fanatisch	strafen	rächen	hindern	schlecht	loyal	fair	ehrlich	tolerant	lachen	treu	lasch	faul	eitel	tyrannisch	leiden	tot	1	blank2r.bmp	0	1	+	0	1	blank2r.bmp	500	1	BMVZ	500	1	blank2r.bmp	880	4	rächen	880	0	0	0	0	0	0	0	0	0	0	0	0
2024-05-14	09:40:44	09:43:49	184701	6.6.1	4_exp_EVA_AWA_CON	27	B	A	Rpleas_acq	Same	Rpleas	2pleas	acq_US_unple_nomask	acq1_nomask	1	36	0	0	300	300	0	0	756	46	1	0	schlau	freundlich	spielen	retten	helfen	schön	schroff	fanatisch	strafen	rächen	hindern	schlecht	loyal	fair	ehrlich	tolerant	lachen	treu	lasch	faul	eitel	tyrannisch	leiden	tot	1	blank2r.bmp	0	1	+	0	1	blank2r.bmp	500	1	BMVZ	500	1	blank2r.bmp	880	1	schroff	880	0	0	0	0	0	0	0	0	0	0	0	0
2024-05-14	09:40:44	09:44:18	214007	6.6.1	4_exp_EVA_AWA_CON	27	B	A	Rpleas_acq	Same	Rpleas	2pleas	acq_US_pleas_nomask	acq2_nomask	2	1	480	0	300	300	0	0	744	50	1	0	schlau	freundlich	spielen	retten	helfen	schön	schroff	fanatisch	strafen	rächen	hindern	schlecht	loyal	fair	ehrlich	tolerant	lachen	treu	lasch	faul	eitel	tyrannisch	leiden	tot	1	blank2r.bmp	0	1	+	0	1	blank2r.bmp	500	1	GKQX	500	1	blank2r.bmp	880	6	schön	880	1	!	1312	1	!	-1	0	0	0	0	0	0
2024-05-14	09:40:44	09:44:21	216378	6.6.1	4_exp_EVA_AWA_CON	27	B	A	Rpleas_acq	Same	Rpleas	2pleas	acq_new_pleas_nomask	acq2_nomask	2	2	480	0	300	300	0	0	390	46	0	0	schlau	freundlich	spielen	retten	helfen	schön	schroff	fanatisch	strafen	rächen	hindern	schlecht	loyal	fair	ehrlich	tolerant	lachen	treu	lasch	faul	eitel	tyrannisch	leiden	tot	1	blank2r.bmp	0	1	+	0	1	blank2r.bmp	500	6	C2r.bmp	500	1	blank2r.bmp	880	3	ehrlich	880	1	FEHLER	1584	1	!	-1	1	!	-1	0	0	0
2024-05-14	09:40:44	09:44:23	218392	6.6.1	4_exp_EVA_AWA_CON	27	B	A	Rpleas_acq	Same	Rpleas	2pleas	acq_US_unple_nomask	acq2_nomask	2	3	480	1	300	300	0	0	434	46	1	0	schlau	freundlich	spielen	retten	helfen	schön	schroff	fanatisch	strafen	rächen	hindern	schlecht	loyal	fair	ehrlich	tolerant	lachen	treu	lasch	faul	eitel	tyrannisch	leiden	tot	1	blank2r.bmp	0	1	+	0	1	blank2r.bmp	500	1	BMVZ	500	1	blank2r.bmp	880	3	strafen	880	1	!	1312	1	!	1336	0	0	0	0	0	0
2024-05-14	09:40:44	09:44:25	220738	6.6.1	4_exp_EVA_AWA_CON	27	B	A	Rpleas_acq	Same	Rpleas	2pleas	acq_US_unple_nomask	acq2_nomask	2	4	480	0	300	300	0	0	367	50	0	0	schlau	freundlich	spielen	retten	helfen	schön	schroff	fanatisch	strafen	rächen	hindern	schlecht	loyal	fair	ehrlich	tolerant	lachen	treu	lasch	faul	eitel	tyrannisch	leiden	tot	1	blank2r.bmp	0	1	+	0	1	blank2r.bmp	500	1	BMVZ	500	1	blank2r.bmp	880	2	fanatisch	880	1	FEHLER	1560	1	!	-1	1	!	-1	0	0	0
2024-05-14	09:40:44	09:44:27	222856	6.6.1	4_exp_EVA_AWA_CON	27	B	A	Rpleas_acq	Same	Rpleas	2pleas	acq_new_unple_nomask	acq2_nomask	2	5	480	1	300	300	0	0	546	46	1	0	schlau	freundlich	spielen	retten	helfen	schön	schroff	fanatisch	strafen	rächen	hindern	schlecht	loyal	fair	ehrlich	tolerant	lachen	treu	lasch	faul	eitel	tyrannisch	leiden	tot	1	blank2r.bmp	0	1	+	0	1	blank2r.bmp	500	1	B1r.bmp	500	1	blank2r.bmp	880	4	tyrannisch	880	1	!	1312	1	!	1447	0	0	0	0	0	0
2024-05-14	09:40:44	09:44:29	225014	6.6.1	4_exp_EVA_AWA_CON	27	B	A	Rpleas_acq	Same	Rpleas	2pleas	acq_US_pleas_nomask	acq2_nomask	2	6	480	0	300	300	0	0	384	50	1	0	schlau	freundlich	spielen	retten	helfen	schön	schroff	fanatisch	strafen	rächen	hindern	schlecht	loyal	fair	ehrlich	tolerant	lachen	treu	lasch	faul	eitel	tyrannisch	leiden	tot	1	blank2r.bmp	0	1	+	0	1	blank2r.bmp	500	1	GKQX	500	1	blank2r.bmp	880	5	helfen	880	1	!	-1	1	!	-1	0	0	0	0	0	0
2024-05-14	09:40:44	09:44:32	227336	6.6.1	4_exp_EVA_AWA_CON	27	B	A	Rpleas_acq	Same	Rpleas	2pleas	acq_new_unple_nomask	acq2_nomask	2	7	480	1	300	300	0	0	543	46	1	0	schlau	freundlich	spielen	retten	helfen	schön	schroff	fanatisch	strafen	rächen	hindern	schlecht	loyal	fair	ehrlich	tolerant	lachen	treu	lasch	faul	eitel	tyrannisch	leiden	tot	1	blank2r.bmp	0	1	+	0	1	blank2r.bmp	500	2	B2r.bmp	500	1	blank2r.bmp	880	6	tot	880	1	!	1313	1	!	1444	0	0	0	0	0	0
2024-05-14	09:40:44	09:44:34	229544	6.6.1	4_exp_EVA_AWA_CON	27	B	A	Rpleas_acq	Same	Rpleas	2pleas	acq_new_pleas_nomask	acq2_nomask	2	8	480	1	300	300	0	0	429	50	1	0	schlau	freundlich	spielen	retten	helfen	schön	schroff	fanatisch	strafen	rächen	hindern	schlecht	loyal	fair	ehrlich	tolerant	lachen	treu	lasch	faul	eitel	tyrannisch	leiden	tot	1	blank2r.bmp	0	1	+	0	1	blank2r.bmp	500	3	B3r.bmp	500	1	blank2r.bmp	880	1	loyal	880	1	!	1312	1	!	1330	0	0	0	0	0	0
2024-05-14	09:40:44	09:44:36	231848	6.6.1	4_exp_EVA_AWA_CON	27	B	A	Rpleas_acq	Same	Rpleas	2pleas	acq_US_unple_nomask	acq2_nomask	2	9	480	1	300	300	0	0	522	46	1	0	schlau	freundlich	spielen	retten	helfen	schön	schroff	fanatisch	strafen	rächen	hindern	schlecht	loyal	fair	ehrlich	tolerant	lachen	treu	lasch	faul	eitel	tyrannisch	leiden	tot	1	blank2r.bmp	0	1	+	0	1	blank2r.bmp	500	1	BMVZ	500	1	blank2r.bmp	880	6	schlecht	880	1	!	1312	1	!	1423	0	0	0	0	0	0
2024-05-14	09:40:44	09:44:38	234112	6.6.1	4_exp_EVA_AWA_CON	27	B	A	Rpleas_acq	Same	Rpleas	2pleas	acq_US_pleas_nomask	acq2_nomask	2	10	480	1	300	300	0	0	484	50	1	0	schlau	freundlich	spielen	retten	helfen	schön	schroff	fanatisch	strafen	rächen	hindern	schlecht	loyal	fair	ehrlich	tolerant	lachen	treu	lasch	faul	eitel	tyrannisch	leiden	tot	1	blank2r.bmp	0	1	+	0	1	blank2r.bmp	500	1	GKQX	500	1	blank2r.bmp	880	3	spielen	880	1	!	1312	1	!	1386	0	0	0	0	0	0
2024-05-14	09:40:44	09:44:41	236361	6.6.1	4_exp_EVA_AWA_CON	27	B	A	Rpleas_acq	Same	Rpleas	2pleas	acq_new_pleas_nomask	acq2_nomask	2	11	480	1	300	300	0	0	471	50	1	0	schlau	freundlich	spielen	retten	helfen	schön	schroff	fanatisch	strafen	rächen	hindern	schlecht	loyal	fair	ehrlich	tolerant	lachen	treu	lasch	faul	eitel	tyrannisch	leiden	tot	1	blank2r.bmp	0	1	+	0	1	blank2r.bmp	500	4	B4r.bmp	500	1	blank2r.bmp	880	5	lachen	880	1	!	1313	1	!	1373	0	0	0	0	0	0
2024-05-14	09:40:44	09:44:43	238873	6.6.1	4_exp_EVA_AWA_CON	27	B	A	Rpleas_acq	Same	Rpleas	2pleas	acq_new_unple_nomask	acq2_nomask	2	12	480	1	300	300	0	0	532	50	0	0	schlau	freundlich	spielen	retten	helfen	schön	schroff	fanatisch	strafen	rächen	hindern	schlecht	loyal	fair	ehrlich	tolerant	lachen	treu	lasch	faul	eitel	tyrannisch	leiden	tot	1	blank2r.bmp	0	1	+	0	1	blank2r.bmp	500	8	C4r.bmp	500	1	blank2r.bmp	880	3	eitel	880	1	FEHLER	1724	1	!	1312	1	!	1433	0	0	0
2024-05-14	09:40:44	09:44:45	241129	6.6.1	4_exp_EVA_AWA_CON	27	B	A	Rpleas_acq	Same	Rpleas	2pleas	acq_US_unple_nomask	acq2_nomask	2	13	480	1	300	300	0	0	476	50	0	0	schlau	freundlich	spielen	retten	helfen	schön	schroff	fanatisch	strafen	rächen	hindern	schlecht	loyal	fair	ehrlich	tolerant	lachen	treu	lasch	faul	eitel	tyrannisch	leiden	tot	1	blank2r.bmp	0	1	+	0	1	blank2r.bmp	500	1	BMVZ	500	1	blank2r.bmp	880	4	rächen	880	1	FEHLER	1669	1	!	1312	1	!	1377	0	0	0
2024-05-14	09:40:44	09:44:47	243071	6.6.1	4_exp_EVA_AWA_CON	27	B	A	Rpleas_acq	Same	Rpleas	2pleas	acq_US_pleas_nomask	acq2_nomask	2	14	480	0	300	300	0	0	369	50	1	0	schlau	freundlich	spielen	retten	helfen	schön	schroff	fanatisch	strafen	rächen	hindern	schlecht	loyal	fair	ehrlich	tolerant	lachen	treu	lasch	faul	eitel	tyrannisch	leiden	tot	1	blank2r.bmp	0	1	+	0	1	blank2r.bmp	500	1	GKQX	500	1	blank2r.bmp	880	3	spielen	880	1	!	-1	1	!	-1	0	0	0	0	0	0
2024-05-14	09:40:44	09:44:50	245463	6.6.1	4_exp_EVA_AWA_CON	27	B	A	Rpleas_acq	Same	Rpleas	2pleas	acq_new_unple_nomask	acq2_nomask	2	15	480	0	300	300	0	0	619	46	1	0	schlau	freundlich	spielen	retten	helfen	schön	schroff	fanatisch	strafen	rächen	hindern	schlecht	loyal	fair	ehrlich	tolerant	lachen	treu	lasch	faul	eitel	tyrannisch	leiden	tot	1	blank2r.bmp	0	1	+	0	1	blank2r.bmp	500	6	C2r.bmp	500	1	blank2r.bmp	880	5	leiden	880	1	!	1313	1	!	-1	0	0	0	0	0	0
2024-05-14	09:40:44	09:44:52	247914	6.6.1	4_exp_EVA_AWA_CON	27	B	A	Rpleas_acq	Same	Rpleas	2pleas	acq_new_unple_nomask	acq2_nomask	2	16	480	1	300	300	0	0	466	50	0	0	schlau	freundlich	spielen	retten	helfen	schön	schroff	fanatisch	strafen	rächen	hindern	schlecht	loyal	fair	ehrlich	tolerant	lachen	treu	lasch	faul	eitel	tyrannisch	leiden	tot	1	blank2r.bmp	0	1	+	0	1	blank2r.bmp	500	3	B3r.bmp	500	1	blank2r.bmp	880	1	lasch	880	1	FEHLER	1659	1	!	1312	1	!	1367	0	0	0
2024-05-14	09:40:44	09:44:55	250262	6.6.1	4_exp_EVA_AWA_CON	27	B	A	Rpleas_acq	Same	Rpleas	2pleas	acq_US_unple_nomask	acq2_nomask	2	17	480	0	300	300	0	0	776	46	1	0	schlau	freundlich	spielen	retten	helfen	schön	schroff	fanatisch	strafen	rächen	hindern	schlecht	loyal	fair	ehrlich	tolerant	lachen	treu	lasch	faul	eitel	tyrannisch	leiden	tot	1	blank2r.bmp	0	1	+	0	1	blank2r.bmp	500	1	BMVZ	500	1	blank2r.bmp	880	1	schroff	880	1	!	1313	1	!	-1	0	0	0	0	0	0
2024-05-14	09:40:44	09:44:57	252455	6.6.1	4_exp_EVA_AWA_CON	27	B	A	Rpleas_acq	Same	Rpleas	2pleas	acq_US_pleas_nomask	acq2_nomask	2	18	480	1	300	300	0	0	417	50	1	0	schlau	freundlich	spielen	retten	helfen	schön	schroff	fanatisch	strafen	rächen	hindern	schlecht	loyal	fair	ehrlich	tolerant	lachen	treu	lasch	faul	eitel	tyrannisch	leiden	tot	1	blank2r.bmp	0	1	+	0	1	blank2r.bmp	500	1	GKQX	500	1	blank2r.bmp	880	1	schlau	880	1	!	1313	1	!	1316	0	0	0	0	0	0
2024-05-14	09:40:44	09:44:59	254712	6.6.1	4_exp_EVA_AWA_CON	27	B	A	Rpleas_acq	Same	Rpleas	2pleas	acq_new_pleas_nomask	acq2_nomask	2	19	480	1	300	300	0	0	481	50	1	0	schlau	freundlich	spielen	retten	helfen	schön	schroff	fanatisch	strafen	rächen	hindern	schlecht	loyal	fair	ehrlich	tolerant	lachen	treu	lasch	faul	eitel	tyrannisch	leiden	tot	1	blank2r.bmp	0	1	+	0	1	blank2r.bmp	500	5	C1r.bmp	500	1	blank2r.bmp	880	4	tolerant	880	1	!	1313	1	!	1383	0	0	0	0	0	0
2024-05-14	09:40:44	09:45:01	257126	6.6.1	4_exp_EVA_AWA_CON	27	B	A	Rpleas_acq	Same	Rpleas	2pleas	acq_US_pleas_nomask	acq2_nomask	2	20	480	0	300	300	0	0	636	50	1	0	schlau	freundlich	spielen	retten	helfen	schön	schroff	fanatisch	strafen	rächen	hindern	schlecht	loyal	fair	ehrlich	tolerant	lachen	treu	lasch	faul	eitel	tyrannisch	leiden	tot	1	blank2r.bmp	0	1	+	0	1	blank2r.bmp	500	1	GKQX	500	1	blank2r.bmp	880	5	helfen	880	1	!	1312	1	!	-1	0	0	0	0	0	0
2024-05-14	09:40:44	09:45:04	259626	6.6.1	4_exp_EVA_AWA_CON	27	B	A	Rpleas_acq	Same	Rpleas	2pleas	acq_new_unple_nomask	acq2_nomask	2	21	480	1	300	300	0	0	520	50	0	0	schlau	freundlich	spielen	retten	helfen	schön	schroff	fanatisch	strafen	rächen	hindern	schlecht	loyal	fair	ehrlich	tolerant	lachen	treu	lasch	faul	eitel	tyrannisch	leiden	tot	1	blank2r.bmp	0	1	+	0	1	blank2r.bmp	500	4	B4r.bmp	500	1	blank2r.bmp	880	3	eitel	880	1	FEHLER	1714	1	!	1313	1	!	1422	0	0	0
2024-05-14	09:40:44	09:45:06	261583	6.6.1	4_exp_EVA_AWA_CON	27	B	A	Rpleas_acq	Same	Rpleas	2pleas	acq_new_pleas_nomask	acq2_nomask	2	22	480	0	300	300	0	0	379	50	1	0	schlau	freundlich	spielen	retten	helfen	schön	schroff	fanatisch	strafen	rächen	hindern	schlecht	loyal	fair	ehrlich	tolerant	lachen	treu	lasch	faul	eitel	tyrannisch	leiden	tot	1	blank2r.bmp	0	1	+	0	1	blank2r.bmp	500	2	B2r.bmp	500	1	blank2r.bmp	880	6	treu	880	1	!	-1	1	!	-1	0	0	0	0	0	0
2024-05-14	09:40:44	09:45:08	263832	6.6.1	4_exp_EVA_AWA_CON	27	B	A	Rpleas_acq	Same	Rpleas	2pleas	acq_new_pleas_nomask	acq2_nomask	2	23	480	1	300	300	0	0	475	50	1	0	schlau	freundlich	spielen	retten	helfen	schön	schroff	fanatisch	strafen	rächen	hindern	schlecht	loyal	fair	ehrlich	tolerant	lachen	treu	lasch	faul	eitel	tyrannisch	leiden	tot	1	blank2r.bmp	0	1	+	0	1	blank2r.bmp	500	7	C3r.bmp	500	1	blank2r.bmp	880	2	fair	880	1	!	1312	1	!	1376	0	0	0	0	0	0
2024-05-14	09:40:44	09:45:11	266298	6.6.1	4_exp_EVA_AWA_CON	27	B	A	Rpleas_acq	Same	Rpleas	2pleas	acq_US_unple_nomask	acq2_nomask	2	24	480	1	300	300	0	0	488	50	0	0	schlau	freundlich	spielen	retten	helfen	schön	schroff	fanatisch	strafen	rächen	hindern	schlecht	loyal	fair	ehrlich	tolerant	lachen	treu	lasch	faul	eitel	tyrannisch	leiden	tot	1	blank2r.bmp	0	1	+	0	1	blank2r.bmp	500	1	BMVZ	500	1	blank2r.bmp	880	3	strafen	880	1	FEHLER	1681	1	!	1312	1	!	1389	0	0	0
2024-05-14	09:40:44	09:45:13	268624	6.6.1	4_exp_EVA_AWA_CON	27	B	A	Rpleas_acq	Same	Rpleas	2pleas	acq_new_unple_nomask	acq2_nomask	2	25	480	0	300	300	0	0	555	50	0	0	schlau	freundlich	spielen	retten	helfen	schön	schroff	fanatisch	strafen	rächen	hindern	schlecht	loyal	fair	ehrlich	tolerant	lachen	treu	lasch	faul	eitel	tyrannisch	leiden	tot	1	blank2r.bmp	0	1	+	0	1	blank2r.bmp	500	8	C4r.bmp	500	1	blank2r.bmp	880	2	faul	880	1	FEHLER	1746	1	!	1313	1	!	-1	0	0	0
2024-05-14	09:40:44	09:45:15	270815	6.6.1	4_exp_EVA_AWA_CON	27	B	A	Rpleas_acq	Same	Rpleas	2pleas	acq_new_pleas_nomask	acq2_nomask	2	26	480	0	300	300	0	0	615	50	1	0	schlau	freundlich	spielen	retten	helfen	schön	schroff	fanatisch	strafen	rächen	hindern	schlecht	loyal	fair	ehrlich	tolerant	lachen	treu	lasch	faul	eitel	tyrannisch	leiden	tot	1	blank2r.bmp	0	1	+	0	1	blank2r.bmp	500	1	B1r.bmp	500	1	blank2r.bmp	880	3	ehrlich	880	1	!	1313	1	!	-1	0	0	0	0	0	0
2024-05-14	09:40:44	09:45:17	273024	6.6.1	4_exp_EVA_AWA_CON	27	B	A	Rpleas_acq	Same	Rpleas	2pleas	acq_US_pleas_nomask	acq2_nomask	2	27	480	1	300	300	0	0	431	50	1	0	schlau	freundlich	spielen	retten	helfen	schön	schroff	fanatisch	strafen	rächen	hindern	schlecht	loyal	fair	ehrlich	tolerant	lachen	treu	lasch	faul	eitel	tyrannisch	leiden	tot	1	blank2r.bmp	0	1	+	0	1	blank2r.bmp	500	1	GKQX	500	1	blank2r.bmp	880	6	schön	880	1	!	1312	1	!	1332	0	0	0	0	0	0
2024-05-14	09:40:44	09:45:19	275232	6.6.1	4_exp_EVA_AWA_CON	27	B	A	Rpleas_acq	Same	Rpleas	2pleas	acq_US_unple_nomask	acq2_nomask	2	28	480	1	300	300	0	0	428	46	1	0	schlau	freundlich	spielen	retten	helfen	schön	schroff	fanatisch	strafen	rächen	hindern	schlecht	loyal	fair	ehrlich	tolerant	lachen	treu	lasch	faul	eitel	tyrannisch	leiden	tot	1	blank2r.bmp	0	1	+	0	1	blank2r.bmp	500	1	BMVZ	500	1	blank2r.bmp	880	5	hindern	880	1	!	1313	1	!	1329	0	0	0	0	0	0
2024-05-14	09:40:44	09:45:22	277552	6.6.1	4_exp_EVA_AWA_CON	27	B	A	Rpleas_acq	Same	Rpleas	2pleas	acq_new_unple_nomask	acq2_nomask	2	29	480	1	300	300	0	0	547	46	1	0	schlau	freundlich	spielen	retten	helfen	schön	schroff	fanatisch	strafen	rächen	hindern	schlecht	loyal	fair	ehrlich	tolerant	lachen	treu	lasch	faul	eitel	tyrannisch	leiden	tot	1	blank2r.bmp	0	1	+	0	1	blank2r.bmp	500	7	C3r.bmp	500	1	blank2r.bmp	880	6	tot	880	1	!	1313	1	!	1448	0	0	0	0	0	0
2024-05-14	09:40:44	09:45:24	279906	6.6.1	4_exp_EVA_AWA_CON	27	B	A	Rpleas_acq	Same	Rpleas	2pleas	acq_US_unple_nomask	acq2_nomask	2	30	480	0	300	300	0	0	377	50	0	0	schlau	freundlich	spielen	retten	helfen	schön	schroff	fanatisch	strafen	rächen	hindern	schlecht	loyal	fair	ehrlich	tolerant	lachen	treu	lasch	faul	eitel	tyrannisch	leiden	tot	1	blank2r.bmp	0	1	+	0	1	blank2r.bmp	500	1	BMVZ	500	1	blank2r.bmp	880	2	fanatisch	880	1	FEHLER	1570	1	!	-1	1	!	-1	0	0	0
2024-05-14	09:40:44	09:45:26	281895	6.6.1	4_exp_EVA_AWA_CON	27	B	A	Rpleas_acq	Same	Rpleas	2pleas	acq_US_pleas_nomask	acq2_nomask	2	31	480	1	300	300	0	0	418	50	1	0	schlau	freundlich	spielen	retten	helfen	schön	schroff	fanatisch	strafen	rächen	hindern	schlecht	loyal	fair	ehrlich	tolerant	lachen	treu	lasch	faul	eitel	tyrannisch	leiden	tot	1	blank2r.bmp	0	1	+	0	1	blank2r.bmp	500	1	GKQX	500	1	blank2r.bmp	880	4	retten	880	1	!	1313	1	!	1317	0	0	0	0	0	0
2024-05-14	09:40:44	09:45:28	284176	6.6.1	4_exp_EVA_AWA_CON	27	B	A	Rpleas_acq	Same	Rpleas	2pleas	acq_new_unple_nomask	acq2_nomask	2	32	480	1	300	300	0	0	506	46	1	0	schlau	freundlich	spielen	retten	helfen	schön	schroff	fanatisch	strafen	rächen	hindern	schlecht	loyal	fair	ehrlich	tolerant	lachen	treu	lasch	faul	eitel	tyrannisch	leiden	tot	1	blank2r.bmp	0	1	+	0	1	blank2r.bmp	500	1	B1r.bmp	500	1	blank2r.bmp	880	4	tyrannisch	880	1	!	1312	1	!	1407	0	0	0	0	0	0
2024-05-14	09:40:44	09:45:31	286441	6.6.1	4_exp_EVA_AWA_CON	27	B	A	Rpleas_acq	Same	Rpleas	2pleas	acq_new_pleas_nomask	acq2_nomask	2	33	480	1	300	300	0	0	489	50	1	0	schlau	freundlich	spielen	retten	helfen	schön	schroff	fanatisch	strafen	rächen	hindern	schlecht	loyal	fair	ehrlich	tolerant	lachen	treu	lasch	faul	eitel	tyrannisch	leiden	tot	1	blank2r.bmp	0	1	+	0	1	blank2r.bmp	500	8	C4r.bmp	500	1	blank2r.bmp	880	1	loyal	880	1	!	1312	1	!	1390	0	0	0	0	0	0
2024-05-14	09:40:44	09:45:33	288712	6.6.1	4_exp_EVA_AWA_CON	27	B	A	Rpleas_acq	Same	Rpleas	2pleas	acq_new_pleas_nomask	acq2_nomask	2	34	480	1	300	300	0	0	489	50	1	0	schlau	freundlich	spielen	retten	helfen	schön	schroff	fanatisch	strafen	rächen	hindern	schlecht	loyal	fair	ehrlich	tolerant	lachen	treu	lasch	faul	eitel	tyrannisch	leiden	tot	1	blank2r.bmp	0	1	+	0	1	blank2r.bmp	500	2	B2r.bmp	500	1	blank2r.bmp	880	5	lachen	880	1	!	1313	1	!	1391	0	0	0	0	0	0
2024-05-14	09:40:44	09:45:35	291094	6.6.1	4_exp_EVA_AWA_CON	27	B	A	Rpleas_acq	Same	Rpleas	2pleas	acq_US_pleas_nomask	acq2_nomask	2	35	480	0	300	300	0	0	602	50	1	0	schlau	freundlich	spielen	retten	helfen	schön	schroff	fanatisch	strafen	rächen	hindern	schlecht	loyal	fair	ehrlich	tolerant	lachen	treu	lasch	faul	eitel	tyrannisch	leiden	tot	1	blank2r.bmp	0	1	+	0	1	blank2r.bmp	500	1	GKQX	500	1	blank2r.bmp	880	2	freundlich	880	1	!	1313	1	!	-1	0	0	0	0	0	0
2024-05-14	09:40:44	09:45:38	293360	6.6.1	4_exp_EVA_AWA_CON	27	B	A	Rpleas_acq	Same	Rpleas	2pleas	acq_US_unple_nomask	acq2_nomask	2	36	480	1	300	300	0	0	484	46	1	0	schlau	freundlich	spielen	retten	helfen	schön	schroff	fanatisch	strafen	rächen	hindern	schlecht	loyal	fair	ehrlich	tolerant	lachen	treu	lasch	faul	eitel	tyrannisch	leiden	tot	1	blank2r.bmp	0	1	+	0	1	blank2r.bmp	500	1	BMVZ	500	1	blank2r.bmp	880	6	schlecht	880	1	!	1312	1	!	1386	0	0	0	0	0	0
2024-05-14	09:40:44	09:46:00	316222	6.6.1	4_exp_EVA_AWA_CON	27	B	A	Rpleas_acq	Same	Rpleas	2pleas	acq_US_pleas_nomask	acq3_nomask	3	1	453	0	300	300	0	0	554	50	1	0	schlau	freundlich	spielen	retten	helfen	schön	schroff	fanatisch	strafen	rächen	hindern	schlecht	loyal	fair	ehrlich	tolerant	lachen	treu	lasch	faul	eitel	tyrannisch	leiden	tot	1	blank2r.bmp	0	1	+	0	1	blank2r.bmp	500	1	GKQX	500	1	blank2r.bmp	880	1	schlau	880	1	!	1293	1	!	-1	0	0	0	0	0	0
2024-05-14	09:40:44	09:46:03	318399	6.6.1	4_exp_EVA_AWA_CON	27	B	A	Rpleas_acq	Same	Rpleas	2pleas	acq_US_unple_nomask	acq3_nomask	3	2	453	1	300	300	0	0	398	46	1	0	schlau	freundlich	spielen	retten	helfen	schön	schroff	fanatisch	strafen	rächen	hindern	schlecht	loyal	fair	ehrlich	tolerant	lachen	treu	lasch	faul	eitel	tyrannisch	leiden	tot	1	blank2r.bmp	0	1	+	0	1	blank2r.bmp	500	1	BMVZ	500	1	blank2r.bmp	880	4	rächen	880	1	!	1293	1	!	1298	0	0	0	0	0	0
2024-05-14	09:40:44	09:46:05	320585	6.6.1	4_exp_EVA_AWA_CON	27	B	A	Rpleas_acq	Same	Rpleas	2pleas	acq_US_pleas_nomask	acq3_nomask	3	3	453	1	300	300	0	0	411	50	1	0	schlau	freundlich	spielen	retten	helfen	schön	schroff	fanatisch	strafen	rächen	hindern	schlecht	loyal	fair	ehrlich	tolerant	lachen	treu	lasch	faul	eitel	tyrannisch	leiden	tot	1	blank2r.bmp	0	1	+	0	1	blank2r.bmp	500	1	GKQX	500	1	blank2r.bmp	880	6	schön	880	1	!	1292	1	!	1312	0	0	0	0	0	0
2024-05-14	09:40:44	09:46:07	323074	6.6.1	4_exp_EVA_AWA_CON	27	B	A	Rpleas_acq	Same	Rpleas	2pleas	acq_US_unple_nomask	acq3_nomask	3	4	453	1	300	300	0	0	507	50	0	0	schlau	freundlich	spielen	retten	helfen	schön	schroff	fanatisch	strafen	rächen	hindern	schlecht	loyal	fair	ehrlich	tolerant	lachen	treu	lasch	faul	eitel	tyrannisch	leiden	tot	1	blank2r.bmp	0	1	+	0	1	blank2r.bmp	500	1	BMVZ	500	1	blank2r.bmp	880	2	fanatisch	880	1	FEHLER	1700	1	!	1293	1	!	1409	0	0	0
2024-05-14	09:40:44	09:46:09	325057	6.6.1	4_exp_EVA_AWA_CON	27	B	A	Rpleas_acq	Same	Rpleas	2pleas	acq_US_pleas_nomask	acq3_nomask	3	5	453	1	300	300	0	0	410	50	1	0	schlau	freundlich	spielen	retten	helfen	schön	schroff	fanatisch	strafen	rächen	hindern	schlecht	loyal	fair	ehrlich	tolerant	lachen	treu	lasch	faul	eitel	tyrannisch	leiden	tot	1	blank2r.bmp	0	1	+	0	1	blank2r.bmp	500	1	GKQX	500	1	blank2r.bmp	880	3	spielen	880	1	!	1292	1	!	1312	0	0	0	0	0	0
2024-05-14	09:40:44	09:46:12	327352	6.6.1	4_exp_EVA_AWA_CON	27	B	A	Rpleas_acq	Same	Rpleas	2pleas	acq_US_pleas_nomask	acq3_nomask	3	6	453	1	300	300	0	0	515	50	1	0	schlau	freundlich	spielen	retten	helfen	schön	schroff	fanatisch	strafen	rächen	hindern	schlecht	loyal	fair	ehrlich	tolerant	lachen	treu	lasch	faul	eitel	tyrannisch	leiden	tot	1	blank2r.bmp	0	1	+	0	1	blank2r.bmp	500	1	GKQX	500	1	blank2r.bmp	880	5	helfen	880	1	!	1293	1	!	1416	0	0	0	0	0	0
2024-05-14	09:40:44	09:46:14	329670	6.6.1	4_exp_EVA_AWA_CON	27	B	A	Rpleas_acq	Same	Rpleas	2pleas	acq_US_pleas_nomask	acq3_nomask	3	7	453	0	300	300	0	0	543	50	1	0	schlau	freundlich	spielen	retten	helfen	schön	schroff	fanatisch	strafen	rächen	hindern	schlecht	loyal	fair	ehrlich	tolerant	lachen	treu	lasch	faul	eitel	tyrannisch	leiden	tot	1	blank2r.bmp	0	1	+	0	1	blank2r.bmp	500	1	GKQX	500	1	blank2r.bmp	880	2	freundlich	880	1	!	1293	1	!	-1	0	0	0	0	0	0
2024-05-14	09:40:44	09:46:16	331912	6.6.1	4_exp_EVA_AWA_CON	27	B	A	Rpleas_acq	Same	Rpleas	2pleas	acq_US_unple_nomask	acq3_nomask	3	8	453	1	300	300	0	0	462	46	1	0	schlau	freundlich	spielen	retten	helfen	schön	schroff	fanatisch	strafen	rächen	hindern	schlecht	loyal	fair	ehrlich	tolerant	lachen	treu	lasch	faul	eitel	tyrannisch	leiden	tot	1	blank2r.bmp	0	1	+	0	1	blank2r.bmp	500	1	BMVZ	500	1	blank2r.bmp	880	6	schlecht	880	1	!	1292	1	!	1363	0	0	0	0	0	0
2024-05-14	09:40:44	09:46:18	334121	6.6.1	4_exp_EVA_AWA_CON	27	B	A	Rpleas_acq	Same	Rpleas	2pleas	acq_US_unple_nomask	acq3_nomask	3	9	453	1	300	300	0	0	428	46	1	0	schlau	freundlich	spielen	retten	helfen	schön	schroff	fanatisch	strafen	rächen	hindern	schlecht	loyal	fair	ehrlich	tolerant	lachen	treu	lasch	faul	eitel	tyrannisch	leiden	tot	1	blank2r.bmp	0	1	+	0	1	blank2r.bmp	500	1	BMVZ	500	1	blank2r.bmp	880	3	strafen	880	1	!	1292	1	!	1329	0	0	0	0	0	0
2024-05-14	09:40:44	09:46:21	336631	6.6.1	4_exp_EVA_AWA_CON	27	B	A	Rpleas_acq	Same	Rpleas	2pleas	acq_US_unple_nomask	acq3_nomask	3	10	453	0	300	300	0	0	529	50	0	0	schlau	freundlich	spielen	retten	helfen	schön	schroff	fanatisch	strafen	rächen	hindern	schlecht	loyal	fair	ehrlich	tolerant	lachen	treu	lasch	faul	eitel	tyrannisch	leiden	tot	1	blank2r.bmp	0	1	+	0	1	blank2r.bmp	500	1	BMVZ	500	1	blank2r.bmp	880	5	hindern	880	1	FEHLER	1720	1	!	1293	1	!	-1	0	0	0
2024-05-14	09:40:44	09:46:23	338640	6.6.1	4_exp_EVA_AWA_CON	27	B	A	Rpleas_acq	Same	Rpleas	2pleas	acq_US_unple_nomask	acq3_nomask	3	11	453	1	300	300	0	0	435	46	1	0	schlau	freundlich	spielen	retten	helfen	schön	schroff	fanatisch	strafen	rächen	hindern	schlecht	loyal	fair	ehrlich	tolerant	lachen	treu	lasch	faul	eitel	tyrannisch	leiden	tot	1	blank2r.bmp	0	1	+	0	1	blank2r.bmp	500	1	BMVZ	500	1	blank2r.bmp	880	1	schroff	880	1	!	1293	1	!	1336	0	0	0	0	0	0
2024-05-14	09:40:44	09:46:25	341059	6.6.1	4_exp_EVA_AWA_CON	27	B	A	Rpleas_acq	Same	Rpleas	2pleas	acq_US_pleas_nomask	acq3_nomask	3	12	453	1	300	300	0	0	440	46	0	0	schlau	freundlich	spielen	retten	helfen	schön	schroff	fanatisch	strafen	rächen	hindern	schlecht	loyal	fair	ehrlich	tolerant	lachen	treu	lasch	faul	eitel	tyrannisch	leiden	tot	1	blank2r.bmp	0	1	+	0	1	blank2r.bmp	500	1	GKQX	500	1	blank2r.bmp	880	4	retten	880	1	FEHLER	1634	1	!	1292	1	!	1342	0	0	0
2024-05-14	09:40:44	09:46:27	343089	6.6.1	4_exp_EVA_AWA_CON	27	B	A	Rpleas_acq	Same	Rpleas	2pleas	acq_US_pleas_nomask	acq3_nomask	3	13	453	1	300	300	0	0	450	50	1	0	schlau	freundlich	spielen	retten	helfen	schön	schroff	fanatisch	strafen	rächen	hindern	schlecht	loyal	fair	ehrlich	tolerant	lachen	treu	lasch	faul	eitel	tyrannisch	leiden	tot	1	blank2r.bmp	0	1	+	0	1	blank2r.bmp	500	1	GKQX	500	1	blank2r.bmp	880	2	freundlich	880	1	!	1292	1	!	1352	0	0	0	0	0	0
2024-05-14	09:40:44	09:46:30	345271	6.6.1	4_exp_EVA_AWA_CON	27	B	A	Rpleas_acq	Same	Rpleas	2pleas	acq_US_unple_nomask	acq3_nomask	3	14	453	1	300	300	0	0	403	46	1	0	schlau	freundlich	spielen	retten	helfen	schön	schroff	fanatisch	strafen	rächen	hindern	schlecht	loyal	fair	ehrlich	tolerant	lachen	treu	lasch	faul	eitel	tyrannisch	leiden	tot	1	blank2r.bmp	0	1	+	0	1	blank2r.bmp	500	1	BMVZ	500	1	blank2r.bmp	880	6	schlecht	880	1	!	1293	1	!	1303	0	0	0	0	0	0
2024-05-14	09:40:44	09:46:32	347626	6.6.1	4_exp_EVA_AWA_CON	27	B	A	Rpleas_acq	Same	Rpleas	2pleas	acq_US_pleas_nomask	acq3_nomask	3	15	453	0	300	300	0	0	373	46	0	0	schlau	freundlich	spielen	retten	helfen	schön	schroff	fanatisch	strafen	rächen	hindern	schlecht	loyal	fair	ehrlich	tolerant	lachen	treu	lasch	faul	eitel	tyrannisch	leiden	tot	1	blank2r.bmp	0	1	+	0	1	blank2r.bmp	500	1	GKQX	500	1	blank2r.bmp	880	6	schön	880	1	FEHLER	1567	1	!	-1	1	!	-1	0	0	0
2024-05-14	09:40:44	09:46:34	349624	6.6.1	4_exp_EVA_AWA_CON	27	B	A	Rpleas_acq	Same	Rpleas	2pleas	acq_US_pleas_nomask	acq3_nomask	3	16	453	1	300	300	0	0	422	50	1	0	schlau	freundlich	spielen	retten	helfen	schön	schroff	fanatisch	strafen	rächen	hindern	schlecht	loyal	fair	ehrlich	tolerant	lachen	treu	lasch	faul	eitel	tyrannisch	leiden	tot	1	blank2r.bmp	0	1	+	0	1	blank2r.bmp	500	1	GKQX	500	1	blank2r.bmp	880	1	schlau	880	1	!	1293	1	!	1323	0	0	0	0	0	0
2024-05-14	09:40:44	09:46:36	351913	6.6.1	4_exp_EVA_AWA_CON	27	B	A	Rpleas_acq	Same	Rpleas	2pleas	acq_US_unple_nomask	acq3_nomask	3	17	453	1	300	300	0	0	509	46	1	0	schlau	freundlich	spielen	retten	helfen	schön	schroff	fanatisch	strafen	rächen	hindern	schlecht	loyal	fair	ehrlich	tolerant	lachen	treu	lasch	faul	eitel	tyrannisch	leiden	tot	1	blank2r.bmp	0	1	+	0	1	blank2r.bmp	500	1	BMVZ	500	1	blank2r.bmp	880	5	hindern	880	1	!	1292	1	!	1410	0	0	0	0	0	0
2024-05-14	09:40:44	09:46:38	354120	6.6.1	4_exp_EVA_AWA_CON	27	B	A	Rpleas_acq	Same	Rpleas	2pleas	acq_US_unple_nomask	acq3_nomask	3	18	453	1	300	300	0	0	425	46	1	0	schlau	freundlich	spielen	retten	helfen	schön	schroff	fanatisch	strafen	rächen	hindern	schlecht	loyal	fair	ehrlich	tolerant	lachen	treu	lasch	faul	eitel	tyrannisch	leiden	tot	1	blank2r.bmp	0	1	+	0	1	blank2r.bmp	500	1	BMVZ	500	1	blank2r.bmp	880	3	strafen	880	1	!	1293	1	!	1327	0	0	0	0	0	0
2024-05-14	09:40:44	09:46:41	356352	6.6.1	4_exp_EVA_AWA_CON	27	B	A	Rpleas_acq	Same	Rpleas	2pleas	acq_US_unple_nomask	acq3_nomask	3	19	453	1	300	300	0	0	456	46	1	0	schlau	freundlich	spielen	retten	helfen	schön	schroff	fanatisch	strafen	rächen	hindern	schlecht	loyal	fair	ehrlich	tolerant	lachen	treu	lasch	faul	eitel	tyrannisch	leiden	tot	1	blank2r.bmp	0	1	+	0	1	blank2r.bmp	500	1	BMVZ	500	1	blank2r.bmp	880	1	schroff	880	1	!	1292	1	!	1357	0	0	0	0	0	0
2024-05-14	09:40:44	09:46:43	358537	6.6.1	4_exp_EVA_AWA_CON	27	B	A	Rpleas_acq	Same	Rpleas	2pleas	acq_US_pleas_nomask	acq3_nomask	3	20	453	1	300	300	0	0	408	50	1	0	schlau	freundlich	spielen	retten	helfen	schön	schroff	fanatisch	strafen	rächen	hindern	schlecht	loyal	fair	ehrlich	tolerant	lachen	treu	lasch	faul	eitel	tyrannisch	leiden	tot	1	blank2r.bmp	0	1	+	0	1	blank2r.bmp	500	1	GKQX	500	1	blank2r.bmp	880	3	spielen	880	1	!	1292	1	!	1310	0	0	0	0	0	0
2024-05-14	09:40:44	09:46:45	360945	6.6.1	4_exp_EVA_AWA_CON	27	B	A	Rpleas_acq	Same	Rpleas	2pleas	acq_US_unple_nomask	acq3_nomask	3	21	453	1	300	300	0	0	425	50	0	0	schlau	freundlich	spielen	retten	helfen	schön	schroff	fanatisch	strafen	rächen	hindern	schlecht	loyal	fair	ehrlich	tolerant	lachen	treu	lasch	faul	eitel	tyrannisch	leiden	tot	1	blank2r.bmp	0	1	+	0	1	blank2r.bmp	500	1	BMVZ	500	1	blank2r.bmp	880	2	fanatisch	880	1	FEHLER	1618	1	!	1293	1	!	1326	0	0	0
2024-05-14	09:40:44	09:46:47	362902	6.6.1	4_exp_EVA_AWA_CON	27	B	A	Rpleas_acq	Same	Rpleas	2pleas	acq_US_pleas_nomask	acq3_nomask	3	22	453	0	300	300	0	0	384	50	1	0	schlau	freundlich	spielen	retten	helfen	schön	schroff	fanatisch	strafen	rächen	hindern	schlecht	loyal	fair	ehrlich	tolerant	lachen	treu	lasch	faul	eitel	tyrannisch	leiden	tot	1	blank2r.bmp	0	1	+	0	1	blank2r.bmp	500	1	GKQX	500	1	blank2r.bmp	880	4	retten	880	1	!	-1	1	!	-1	0	0	0	0	0	0
2024-05-14	09:40:44	09:46:49	365096	6.6.1	4_exp_EVA_AWA_CON	27	B	A	Rpleas_acq	Same	Rpleas	2pleas	acq_US_pleas_nomask	acq3_nomask	3	23	453	1	300	300	0	0	414	50	1	0	schlau	freundlich	spielen	retten	helfen	schön	schroff	fanatisch	strafen	rächen	hindern	schlecht	loyal	fair	ehrlich	tolerant	lachen	treu	lasch	faul	eitel	tyrannisch	leiden	tot	1	blank2r.bmp	0	1	+	0	1	blank2r.bmp	500	1	GKQX	500	1	blank2r.bmp	880	5	helfen	880	1	!	1293	1	!	1315	0	0	0	0	0	0
2024-05-14	09:40:44	09:46:51	367198	6.6.1	4_exp_EVA_AWA_CON	27	B	A	Rpleas_acq	Same	Rpleas	2pleas	acq_US_unple_nomask	acq3_nomask	3	24	453	0	300	300	0	0	327	46	1	0	schlau	freundlich	spielen	retten	helfen	schön	schroff	fanatisch	strafen	rächen	hindern	schlecht	loyal	fair	ehrlich	tolerant	lachen	treu	lasch	faul	eitel	tyrannisch	leiden	tot	1	blank2r.bmp	0	1	+	0	1	blank2r.bmp	500	1	BMVZ	500	1	blank2r.bmp	880	4	rächen	880	1	!	-1	1	!	-1	0	0	0	0	0	0
2024-05-14	09:40:44	09:46:54	369400	6.6.1	4_exp_EVA_AWA_CON	27	B	A	Rpleas_acq	Same	Rpleas	2pleas	acq_US_unple_nomask	acq3_nomask	3	25	453	1	300	300	0	0	425	46	1	0	schlau	freundlich	spielen	retten	helfen	schön	schroff	fanatisch	strafen	rächen	hindern	schlecht	loyal	fair	ehrlich	tolerant	lachen	treu	lasch	faul	eitel	tyrannisch	leiden	tot	1	blank2r.bmp	0	1	+	0	1	blank2r.bmp	500	1	BMVZ	500	1	blank2r.bmp	880	5	hindern	880	1	!	1292	1	!	1327	0	0	0	0	0	0
2024-05-14	09:40:44	09:46:56	371542	6.6.1	4_exp_EVA_AWA_CON	27	B	A	Rpleas_acq	Same	Rpleas	2pleas	acq_US_pleas_nomask	acq3_nomask	3	26	453	0	300	300	0	0	368	50	1	0	schlau	freundlich	spielen	retten	helfen	schön	schroff	fanatisch	strafen	rächen	hindern	schlecht	loyal	fair	ehrlich	tolerant	lachen	treu	lasch	faul	eitel	tyrannisch	leiden	tot	1	blank2r.bmp	0	1	+	0	1	blank2r.bmp	500	1	GKQX	500	1	blank2r.bmp	880	2	freundlich	880	1	!	-1	1	!	-1	0	0	0	0	0	0
2024-05-14	09:40:44	09:46:58	373710	6.6.1	4_exp_EVA_AWA_CON	27	B	A	Rpleas_acq	Same	Rpleas	2pleas	acq_US_pleas_nomask	acq3_nomask	3	27	453	1	300	300	0	0	395	50	1	0	schlau	freundlich	spielen	retten	helfen	schön	schroff	fanatisch	strafen	rächen	hindern	schlecht	loyal	fair	ehrlich	tolerant	lachen	treu	lasch	faul	eitel	tyrannisch	leiden	tot	1	blank2r.bmp	0	1	+	0	1	blank2r.bmp	500	1	GKQX	500	1	blank2r.bmp	880	5	helfen	880	1	!	1293	1	!	1294	0	0	0	0	0	0
2024-05-14	09:40:44	09:47:00	376130	6.6.1	4_exp_EVA_AWA_CON	27	B	A	Rpleas_acq	Same	Rpleas	2pleas	acq_US_pleas_nomask	acq3_nomask	3	28	453	1	300	300	0	0	439	46	0	0	schlau	freundlich	spielen	retten	helfen	schön	schroff	fanatisch	strafen	rächen	hindern	schlecht	loyal	fair	ehrlich	tolerant	lachen	treu	lasch	faul	eitel	tyrannisch	leiden	tot	1	blank2r.bmp	0	1	+	0	1	blank2r.bmp	500	1	GKQX	500	1	blank2r.bmp	880	1	schlau	880	1	FEHLER	1633	1	!	1293	1	!	1341	0	0	0
2024-05-14	09:40:44	09:47:02	378087	6.6.1	4_exp_EVA_AWA_CON	27	B	A	Rpleas_acq	Same	Rpleas	2pleas	acq_US_unple_nomask	acq3_nomask	3	29	453	0	300	300	0	0	378	46	1	0	schlau	freundlich	spielen	retten	helfen	schön	schroff	fanatisch	strafen	rächen	hindern	schlecht	loyal	fair	ehrlich	tolerant	lachen	treu	lasch	faul	eitel	tyrannisch	leiden	tot	1	blank2r.bmp	0	1	+	0	1	blank2r.bmp	500	1	BMVZ	500	1	blank2r.bmp	880	6	schlecht	880	1	!	-1	1	!	-1	0	0	0	0	0	0
2024-05-14	09:40:44	09:47:05	380353	6.6.1	4_exp_EVA_AWA_CON	27	B	A	Rpleas_acq	Same	Rpleas	2pleas	acq_US_unple_nomask	acq3_nomask	3	30	453	1	300	300	0	0	490	46	1	0	schlau	freundlich	spielen	retten	helfen	schön	schroff	fanatisch	strafen	rächen	hindern	schlecht	loyal	fair	ehrlich	tolerant	lachen	treu	lasch	faul	eitel	tyrannisch	leiden	tot	1	blank2r.bmp	0	1	+	0	1	blank2r.bmp	500	1	BMVZ	500	1	blank2r.bmp	880	1	schroff	880	1	!	1292	1	!	1392	0	0	0	0	0	0
2024-05-14	09:40:44	09:47:07	382600	6.6.1	4_exp_EVA_AWA_CON	27	B	A	Rpleas_acq	Same	Rpleas	2pleas	acq_US_pleas_nomask	acq3_nomask	3	31	453	1	300	300	0	0	467	50	1	0	schlau	freundlich	spielen	retten	helfen	schön	schroff	fanatisch	strafen	rächen	hindern	schlecht	loyal	fair	ehrlich	tolerant	lachen	treu	lasch	faul	eitel	tyrannisch	leiden	tot	1	blank2r.bmp	0	1	+	0	1	blank2r.bmp	500	1	GKQX	500	1	blank2r.bmp	880	3	spielen	880	1	!	1293	1	!	1368	0	0	0	0	0	0
2024-05-14	09:40:44	09:47:09	384784	6.6.1	4_exp_EVA_AWA_CON	27	B	A	Rpleas_acq	Same	Rpleas	2pleas	acq_US_unple_nomask	acq3_nomask	3	32	453	1	300	300	0	0	410	46	1	0	schlau	freundlich	spielen	retten	helfen	schön	schroff	fanatisch	strafen	rächen	hindern	schlecht	loyal	fair	ehrlich	tolerant	lachen	treu	lasch	faul	eitel	tyrannisch	leiden	tot	1	blank2r.bmp	0	1	+	0	1	blank2r.bmp	500	1	BMVZ	500	1	blank2r.bmp	880	4	rächen	880	1	!	1292	1	!	1311	0	0	0	0	0	0
2024-05-14	09:40:44	09:47:11	387040	6.6.1	4_exp_EVA_AWA_CON	27	B	A	Rpleas_acq	Same	Rpleas	2pleas	acq_US_unple_nomask	acq3_nomask	3	33	453	1	300	300	0	0	474	46	1	0	schlau	freundlich	spielen	retten	helfen	schön	schroff	fanatisch	strafen	rächen	hindern	schlecht	loyal	fair	ehrlich	tolerant	lachen	treu	lasch	faul	eitel	tyrannisch	leiden	tot	1	blank2r.bmp	0	1	+	0	1	blank2r.bmp	500	1	BMVZ	500	1	blank2r.bmp	880	3	strafen	880	1	!	1292	1	!	1376	0	0	0	0	0	0
2024-05-14	09:40:44	09:47:14	389386	6.6.1	4_exp_EVA_AWA_CON	27	B	A	Rpleas_acq	Same	Rpleas	2pleas	acq_US_unple_nomask	acq3_nomask	3	34	453	0	300	300	0	0	367	50	0	0	schlau	freundlich	spielen	retten	helfen	schön	schroff	fanatisch	strafen	rächen	hindern	schlecht	loyal	fair	ehrlich	tolerant	lachen	treu	lasch	faul	eitel	tyrannisch	leiden	tot	1	blank2r.bmp	0	1	+	0	1	blank2r.bmp	500	1	BMVZ	500	1	blank2r.bmp	880	2	fanatisch	880	1	FEHLER	1560	1	!	-1	1	!	-1	0	0	0
2024-05-14	09:40:44	09:47:18	393950	6.6.1	4_exp_EVA_AWA_CON	27	B	A	Rpleas_acq	Same	Rpleas	2pleas	acq_US_pleas_nomask	acq3_nomask	3	35	453	0	300	300	0	0	2993	50	1	0	schlau	freundlich	spielen	retten	helfen	schön	schroff	fanatisch	strafen	rächen	hindern	schlecht	loyal	fair	ehrlich	tolerant	lachen	treu	lasch	faul	eitel	tyrannisch	leiden	tot	1	blank2r.bmp	0	1	+	0	1	blank2r.bmp	500	1	GKQX	500	1	blank2r.bmp	880	6	schön	880	1	!	1293	1	!	-1	0	0	0	0	0	0
2024-05-14	09:40:44	09:47:20	396161	6.6.1	4_exp_EVA_AWA_CON	27	B	A	Rpleas_acq	Same	Rpleas	2pleas	acq_US_pleas_nomask	acq3_nomask	3	36	453	1	300	300	0	0	428	50	1	0	schlau	freundlich	spielen	retten	helfen	schön	schroff	fanatisch	strafen	rächen	hindern	schlecht	loyal	fair	ehrlich	tolerant	lachen	treu	lasch	faul	eitel	tyrannisch	leiden	tot	1	blank2r.bmp	0	1	+	0	1	blank2r.bmp	500	1	GKQX	500	1	blank2r.bmp	880	4	retten	880	1	!	1292	1	!	1329	0	0	0	0	0	0
2024-05-14	09:40:44	09:47:39	414648	6.6.1	4_exp_EVA_AWA_CON	27	B	A	Rpleas_acq	Same	Rpleas	2pleas	acq_US_pleas_nomask	acq45_nomask	4	1	400	1	300	300	0	0	434	50	1	0	schlau	freundlich	spielen	retten	helfen	schön	schroff	fanatisch	strafen	rächen	hindern	schlecht	loyal	fair	ehrlich	tolerant	lachen	treu	lasch	faul	eitel	tyrannisch	leiden	tot	1	blank2r.bmp	0	1	+	0	1	blank2r.bmp	500	1	GKQX	500	1	blank2r.bmp	880	3	spielen	880	1	!	1232	1	!	1336	0	0	0	0	0	0
2024-05-14	09:40:44	09:47:41	416856	6.6.1	4_exp_EVA_AWA_CON	27	B	A	Rpleas_acq	Same	Rpleas	2pleas	acq_US_unple_nomask	acq45_nomask	4	2	400	1	300	300	0	0	431	46	1	0	schlau	freundlich	spielen	retten	helfen	schön	schroff	fanatisch	strafen	rächen	hindern	schlecht	loyal	fair	ehrlich	tolerant	lachen	treu	lasch	faul	eitel	tyrannisch	leiden	tot	1	blank2r.bmp	0	1	+	0	1	blank2r.bmp	500	1	BMVZ	500	1	blank2r.bmp	880	4	rächen	880	1	!	1232	1	!	1332	0	0	0	0	0	0
2024-05-14	09:40:44	09:47:43	418974	6.6.1	4_exp_EVA_AWA_CON	27	B	A	Rpleas_acq	Same	Rpleas	2pleas	acq_US_pleas_nomask	acq45_nomask	4	3	400	1	300	300	0	0	340	50	1	0	schlau	freundlich	spielen	retten	helfen	schön	schroff	fanatisch	strafen	rächen	hindern	schlecht	loyal	fair	ehrlich	tolerant	lachen	treu	lasch	faul	eitel	tyrannisch	leiden	tot	1	blank2r.bmp	0	1	+	0	1	blank2r.bmp	500	1	GKQX	500	1	blank2r.bmp	880	6	schön	880	1	!	1232	1	!	1239	0	0	0	0	0	0
2024-05-14	09:40:44	09:47:45	421144	6.6.1	4_exp_EVA_AWA_CON	27	B	A	Rpleas_acq	Same	Rpleas	2pleas	acq_US_pleas_nomask	acq45_nomask	4	4	400	1	300	300	0	0	386	50	1	0	schlau	freundlich	spielen	retten	helfen	schön	schroff	fanatisch	strafen	rächen	hindern	schlecht	loyal	fair	ehrlich	tolerant	lachen	treu	lasch	faul	eitel	tyrannisch	leiden	tot	1	blank2r.bmp	0	1	+	0	1	blank2r.bmp	500	1	GKQX	500	1	blank2r.bmp	880	1	schlau	880	1	!	1232	1	!	1287	0	0	0	0	0	0
2024-05-14	09:40:44	09:47:48	423312	6.6.1	4_exp_EVA_AWA_CON	27	B	A	Rpleas_acq	Same	Rpleas	2pleas	acq_US_pleas_nomask	acq45_nomask	4	5	400	1	300	300	0	0	393	50	1	0	schlau	freundlich	spielen	retten	helfen	schön	schroff	fanatisch	strafen	rächen	hindern	schlecht	loyal	fair	ehrlich	tolerant	lachen	treu	lasch	faul	eitel	tyrannisch	leiden	tot	1	blank2r.bmp	0	1	+	0	1	blank2r.bmp	500	1	GKQX	500	1	blank2r.bmp	880	2	freundlich	880	1	!	1232	1	!	1294	0	0	0	0	0	0
2024-05-14	09:40:44	09:47:50	425488	6.6.1	4_exp_EVA_AWA_CON	27	B	A	Rpleas_acq	Same	Rpleas	2pleas	acq_US_unple_nomask	acq45_nomask	4	6	400	1	300	300	0	0	397	50	0	0	schlau	freundlich	spielen	retten	helfen	schön	schroff	fanatisch	strafen	rächen	hindern	schlecht	loyal	fair	ehrlich	tolerant	lachen	treu	lasch	faul	eitel	tyrannisch	leiden	tot	1	blank2r.bmp	0	1	+	0	1	blank2r.bmp	500	1	BMVZ	500	1	blank2r.bmp	880	3	strafen	880	1	!	1232	1	!	1299	0	0	0	0	0	0
2024-05-14	09:40:44	09:47:52	427656	6.6.1	4_exp_EVA_AWA_CON	27	B	A	Rpleas_acq	Same	Rpleas	2pleas	acq_US_pleas_nomask	acq45_nomask	4	7	400	1	300	300	0	0	394	50	1	0	schlau	freundlich	spielen	retten	helfen	schön	schroff	fanatisch	strafen	rächen	hindern	schlecht	loyal	fair	ehrlich	tolerant	lachen	treu	lasch	faul	eitel	tyrannisch	leiden	tot	1	blank2r.bmp	0	1	+	0	1	blank2r.bmp	500	1	GKQX	500	1	blank2r.bmp	880	4	retten	880	1	!	1233	1	!	1295	0	0	0	0	0	0
2024-05-14	09:40:44	09:47:54	429808	6.6.1	4_exp_EVA_AWA_CON	27	B	A	Rpleas_acq	Same	Rpleas	2pleas	acq_US_pleas_nomask	acq45_nomask	4	8	400	1	300	300	0	0	375	50	1	0	schlau	freundlich	spielen	retten	helfen	schön	schroff	fanatisch	strafen	rächen	hindern	schlecht	loyal	fair	ehrlich	tolerant	lachen	treu	lasch	faul	eitel	tyrannisch	leiden	tot	1	blank2r.bmp	0	1	+	0	1	blank2r.bmp	500	1	GKQX	500	1	blank2r.bmp	880	5	helfen	880	1	!	1232	1	!	1276	0	0	0	0	0	0
2024-05-14	09:40:44	09:47:56	431976	6.6.1	4_exp_EVA_AWA_CON	27	B	A	Rpleas_acq	Same	Rpleas	2pleas	acq_US_unple_nomask	acq45_nomask	4	9	400	1	300	300	0	0	391	46	1	0	schlau	freundlich	spielen	retten	helfen	schön	schroff	fanatisch	strafen	rächen	hindern	schlecht	loyal	fair	ehrlich	tolerant	lachen	treu	lasch	faul	eitel	tyrannisch	leiden	tot	1	blank2r.bmp	0	1	+	0	1	blank2r.bmp	500	1	BMVZ	500	1	blank2r.bmp	880	1	schroff	880	1	!	1232	1	!	1293	0	0	0	0	0	0
2024-05-14	09:40:44	09:47:58	434200	6.6.1	4_exp_EVA_AWA_CON	27	B	A	Rpleas_acq	Same	Rpleas	2pleas	acq_US_pleas_nomask	acq45_nomask	4	10	400	1	300	300	0	0	444	50	1	0	schlau	freundlich	spielen	retten	helfen	schön	schroff	fanatisch	strafen	rächen	hindern	schlecht	loyal	fair	ehrlich	tolerant	lachen	treu	lasch	faul	eitel	tyrannisch	leiden	tot	1	blank2r.bmp	0	1	+	0	1	blank2r.bmp	500	1	GKQX	500	1	blank2r.bmp	880	6	schön	880	1	!	1232	1	!	1345	0	0	0	0	0	0
2024-05-14	09:40:44	09:48:01	436392	6.6.1	4_exp_EVA_AWA_CON	27	B	A	Rpleas_acq	Same	Rpleas	2pleas	acq_US_unple_nomask	acq45_nomask	4	11	400	1	300	300	0	0	414	46	1	0	schlau	freundlich	spielen	retten	helfen	schön	schroff	fanatisch	strafen	rächen	hindern	schlecht	loyal	fair	ehrlich	tolerant	lachen	treu	lasch	faul	eitel	tyrannisch	leiden	tot	1	blank2r.bmp	0	1	+	0	1	blank2r.bmp	500	1	BMVZ	500	1	blank2r.bmp	880	6	schlecht	880	1	!	1232	1	!	1316	0	0	0	0	0	0
2024-05-14	09:40:44	09:48:03	438686	6.6.1	4_exp_EVA_AWA_CON	27	B	A	Rpleas_acq	Same	Rpleas	2pleas	acq_US_unple_nomask	acq45_nomask	4	12	400	0	300	300	0	0	519	46	1	0	schlau	freundlich	spielen	retten	helfen	schön	schroff	fanatisch	strafen	rächen	hindern	schlecht	loyal	fair	ehrlich	tolerant	lachen	treu	lasch	faul	eitel	tyrannisch	leiden	tot	1	blank2r.bmp	0	1	+	0	1	blank2r.bmp	500	1	BMVZ	500	1	blank2r.bmp	880	2	fanatisch	880	1	!	1232	1	!	-1	0	0	0	0	0	0
2024-05-14	09:40:44	09:48:05	440864	6.6.1	4_exp_EVA_AWA_CON	27	B	A	Rpleas_acq	Same	Rpleas	2pleas	acq_US_pleas_nomask	acq45_nomask	4	13	400	1	300	300	0	0	403	50	1	0	schlau	freundlich	spielen	retten	helfen	schön	schroff	fanatisch	strafen	rächen	hindern	schlecht	loyal	fair	ehrlich	tolerant	lachen	treu	lasch	faul	eitel	tyrannisch	leiden	tot	1	blank2r.bmp	0	1	+	0	1	blank2r.bmp	500	1	GKQX	500	1	blank2r.bmp	880	2	freundlich	880	1	!	1232	1	!	1305	0	0	0	0	0	0
2024-05-14	09:40:44	09:48:07	443048	6.6.1	4_exp_EVA_AWA_CON	27	B	A	Rpleas_acq	Same	Rpleas	2pleas	acq_US_unple_nomask	acq45_nomask	4	14	400	1	300	300	0	0	406	46	1	0	schlau	freundlich	spielen	retten	helfen	schön	schroff	fanatisch	strafen	rächen	hindern	schlecht	loyal	fair	ehrlich	tolerant	lachen	treu	lasch	faul	eitel	tyrannisch	leiden	tot	1	blank2r.bmp	0	1	+	0	1	blank2r.bmp	500	1	BMVZ	500	1	blank2r.bmp	880	5	hindern	880	1	!	1232	1	!	1307	0	0	0	0	0	0
2024-05-14	09:40:44	09:48:10	445301	6.6.1	4_exp_EVA_AWA_CON	27	B	A	Rpleas_acq	Same	Rpleas	2pleas	acq_US_unple_nomask	acq45_nomask	4	15	400	0	300	300	0	0	481	46	1	0	schlau	freundlich	spielen	retten	helfen	schön	schroff	fanatisch	strafen	rächen	hindern	schlecht	loyal	fair	ehrlich	tolerant	lachen	treu	lasch	faul	eitel	tyrannisch	leiden	tot	1	blank2r.bmp	0	1	+	0	1	blank2r.bmp	500	1	BMVZ	500	1	blank2r.bmp	880	5	hindern	880	1	!	1232	1	!	-1	0	0	0	0	0	0
2024-05-14	09:40:44	09:48:12	447488	6.6.1	4_exp_EVA_AWA_CON	27	B	A	Rpleas_acq	Same	Rpleas	2pleas	acq_US_unple_nomask	acq45_nomask	4	16	400	1	300	300	0	0	403	50	0	0	schlau	freundlich	spielen	retten	helfen	schön	schroff	fanatisch	strafen	rächen	hindern	schlecht	loyal	fair	ehrlich	tolerant	lachen	treu	lasch	faul	eitel	tyrannisch	leiden	tot	1	blank2r.bmp	0	1	+	0	1	blank2r.bmp	500	1	BMVZ	500	1	blank2r.bmp	880	2	fanatisch	880	1	!	1232	1	!	1305	0	0	0	0	0	0
2024-05-14	09:40:44	09:48:14	449640	6.6.1	4_exp_EVA_AWA_CON	27	B	A	Rpleas_acq	Same	Rpleas	2pleas	acq_US_pleas_nomask	acq45_nomask	4	17	400	1	300	300	0	0	374	50	1	0	schlau	freundlich	spielen	retten	helfen	schön	schroff	fanatisch	strafen	rächen	hindern	schlecht	loyal	fair	ehrlich	tolerant	lachen	treu	lasch	faul	eitel	tyrannisch	leiden	tot	1	blank2r.bmp	0	1	+	0	1	blank2r.bmp	500	1	GKQX	500	1	blank2r.bmp	880	3	spielen	880	1	!	1232	1	!	1275	0	0	0	0	0	0
2024-05-14	09:40:44	09:48:16	451889	6.6.1	4_exp_EVA_AWA_CON	27	B	A	Rpleas_acq	Same	Rpleas	2pleas	acq_US_unple_nomask	acq45_nomask	4	18	400	1	300	300	0	0	471	46	1	0	schlau	freundlich	spielen	retten	helfen	schön	schroff	fanatisch	strafen	rächen	hindern	schlecht	loyal	fair	ehrlich	tolerant	lachen	treu	lasch	faul	eitel	tyrannisch	leiden	tot	1	blank2r.bmp	0	1	+	0	1	blank2r.bmp	500	1	BMVZ	500	1	blank2r.bmp	880	1	schroff	880	1	!	1232	1	!	1372	0	0	0	0	0	0
2024-05-14	09:40:44	09:48:18	454096	6.6.1	4_exp_EVA_AWA_CON	27	B	A	Rpleas_acq	Same	Rpleas	2pleas	acq_US_pleas_nomask	acq45_nomask	4	19	400	1	300	300	0	0	427	50	1	0	schlau	freundlich	spielen	retten	helfen	schön	schroff	fanatisch	strafen	rächen	hindern	schlecht	loyal	fair	ehrlich	tolerant	lachen	treu	lasch	faul	eitel	tyrannisch	leiden	tot	1	blank2r.bmp	0	1	+	0	1	blank2r.bmp	500	1	GKQX	500	1	blank2r.bmp	880	4	retten	880	1	!	1233	1	!	1328	0	0	0	0	0	0
2024-05-14	09:40:44	09:48:21	456248	6.6.1	4_exp_EVA_AWA_CON	27	B	A	Rpleas_acq	Same	Rpleas	2pleas	acq_US_unple_nomask	acq45_nomask	4	20	400	1	300	300	0	0	378	46	1	0	schlau	freundlich	spielen	retten	helfen	schön	schroff	fanatisch	strafen	rächen	hindern	schlecht	loyal	fair	ehrlich	tolerant	lachen	treu	lasch	faul	eitel	tyrannisch	leiden	tot	1	blank2r.bmp	0	1	+	0	1	blank2r.bmp	500	1	BMVZ	500	1	blank2r.bmp	880	4	rächen	880	1	!	1232	1	!	1279	0	0	0	0	0	0
2024-05-14	09:40:44	09:48:23	458448	6.6.1	4_exp_EVA_AWA_CON	27	B	A	Rpleas_acq	Same	Rpleas	2pleas	acq_US_pleas_nomask	acq45_nomask	4	21	400	1	300	300	0	0	416	50	1	0	schlau	freundlich	spielen	retten	helfen	schön	schroff	fanatisch	strafen	rächen	hindern	schlecht	loyal	fair	ehrlich	tolerant	lachen	treu	lasch	faul	eitel	tyrannisch	leiden	tot	1	blank2r.bmp	0	1	+	0	1	blank2r.bmp	500	1	GKQX	500	1	blank2r.bmp	880	5	helfen	880	1	!	1232	1	!	1318	0	0	0	0	0	0
2024-05-14	09:40:44	09:48:25	460688	6.6.1	4_exp_EVA_AWA_CON	27	B	A	Rpleas_acq	Same	Rpleas	2pleas	acq_US_pleas_nomask	acq45_nomask	4	22	400	1	300	300	0	0	465	50	1	0	schlau	freundlich	spielen	retten	helfen	schön	schroff	fanatisch	strafen	rächen	hindern	schlecht	loyal	fair	ehrlich	tolerant	lachen	treu	lasch	faul	eitel	tyrannisch	leiden	tot	1	blank2r.bmp	0	1	+	0	1	blank2r.bmp	500	1	GKQX	500	1	blank2r.bmp	880	1	schlau	880	1	!	1232	1	!	1366	0	0	0	0	0	0
2024-05-14	09:40:44	09:48:27	462806	6.6.1	4_exp_EVA_AWA_CON	27	B	A	Rpleas_acq	Same	Rpleas	2pleas	acq_US_pleas_nomask	acq45_nomask	4	23	400	1	300	300	0	0	343	46	0	0	schlau	freundlich	spielen	retten	helfen	schön	schroff	fanatisch	strafen	rächen	hindern	schlecht	loyal	fair	ehrlich	tolerant	lachen	treu	lasch	faul	eitel	tyrannisch	leiden	tot	1	blank2r.bmp	0	1	+	0	1	blank2r.bmp	500	1	GKQX	500	1	blank2r.bmp	880	5	helfen	880	1	!	1233	1	!	1243	0	0	0	0	0	0
2024-05-14	09:40:44	09:48:29	464984	6.6.1	4_exp_EVA_AWA_CON	27	B	A	Rpleas_acq	Same	Rpleas	2pleas	acq_US_unple_nomask	acq45_nomask	4	24	400	1	300	300	0	0	398	46	1	0	schlau	freundlich	spielen	retten	helfen	schön	schroff	fanatisch	strafen	rächen	hindern	schlecht	loyal	fair	ehrlich	tolerant	lachen	treu	lasch	faul	eitel	tyrannisch	leiden	tot	1	blank2r.bmp	0	1	+	0	1	blank2r.bmp	500	1	BMVZ	500	1	blank2r.bmp	880	6	schlecht	880	1	!	1232	1	!	1299	0	0	0	0	0	0
2024-05-14	09:40:44	09:48:31	467152	6.6.1	4_exp_EVA_AWA_CON	27	B	A	Rpleas_acq	Same	Rpleas	2pleas	acq_US_unple_nomask	acq45_nomask	4	25	400	1	300	300	0	0	385	46	1	0	schlau	freundlich	spielen	retten	helfen	schön	schroff	fanatisch	strafen	rächen	hindern	schlecht	loyal	fair	ehrlich	tolerant	lachen	treu	lasch	faul	eitel	tyrannisch	leiden	tot	1	blank2r.bmp	0	1	+	0	1	blank2r.bmp	500	1	BMVZ	500	1	blank2r.bmp	880	3	strafen	880	1	!	1232	1	!	1286	0	0	0	0	0	0
2024-05-14	09:40:44	09:48:34	469328	6.6.1	4_exp_EVA_AWA_CON	27	B	A	Rpleas_acq	Same	Rpleas	2pleas	acq_US_pleas_nomask	acq45_nomask	4	26	400	1	300	300	0	0	399	50	1	0	schlau	freundlich	spielen	retten	helfen	schön	schroff	fanatisch	strafen	rächen	hindern	schlecht	loyal	fair	ehrlich	tolerant	lachen	treu	lasch	faul	eitel	tyrannisch	leiden	tot	1	blank2r.bmp	0	1	+	0	1	blank2r.bmp	500	1	GKQX	500	1	blank2r.bmp	880	2	freundlich	880	1	!	1232	1	!	1300	0	0	0	0	0	0
2024-05-14	09:40:44	09:48:36	471552	6.6.1	4_exp_EVA_AWA_CON	27	B	A	Rpleas_acq	Same	Rpleas	2pleas	acq_US_unple_nomask	acq45_nomask	4	27	400	1	300	300	0	0	442	46	1	0	schlau	freundlich	spielen	retten	helfen	schön	schroff	fanatisch	strafen	rächen	hindern	schlecht	loyal	fair	ehrlich	tolerant	lachen	treu	lasch	faul	eitel	tyrannisch	leiden	tot	1	blank2r.bmp	0	1	+	0	1	blank2r.bmp	500	1	BMVZ	500	1	blank2r.bmp	880	4	rächen	880	1	!	1232	1	!	1343	0	0	0	0	0	0
2024-05-14	09:40:44	09:48:38	473854	6.6.1	4_exp_EVA_AWA_CON	27	B	A	Rpleas_acq	Same	Rpleas	2pleas	acq_US_pleas_nomask	acq45_nomask	4	28	400	0	300	300	0	0	524	50	1	0	schlau	freundlich	spielen	retten	helfen	schön	schroff	fanatisch	strafen	rächen	hindern	schlecht	loyal	fair	ehrlich	tolerant	lachen	treu	lasch	faul	eitel	tyrannisch	leiden	tot	1	blank2r.bmp	0	1	+	0	1	blank2r.bmp	500	1	GKQX	500	1	blank2r.bmp	880	3	spielen	880	1	!	1232	1	!	-1	0	0	0	0	0	0
2024-05-14	09:40:44	09:48:40	476206	6.6.1	4_exp_EVA_AWA_CON	27	B	A	Rpleas_acq	Same	Rpleas	2pleas	acq_US_unple_nomask	acq45_nomask	4	29	400	0	300	300	0	0	575	46	1	0	schlau	freundlich	spielen	retten	helfen	schön	schroff	fanatisch	strafen	rächen	hindern	schlecht	loyal	fair	ehrlich	tolerant	lachen	treu	lasch	faul	eitel	tyrannisch	leiden	tot	1	blank2r.bmp	0	1	+	0	1	blank2r.bmp	500	1	BMVZ	500	1	blank2r.bmp	880	5	hindern	880	1	!	1232	1	!	-1	0	0	0	0	0	0
2024-05-14	09:40:44	09:48:43	478368	6.6.1	4_exp_EVA_AWA_CON	27	B	A	Rpleas_acq	Same	Rpleas	2pleas	acq_US_pleas_nomask	acq45_nomask	4	30	400	1	300	300	0	0	383	50	1	0	schlau	freundlich	spielen	retten	helfen	schön	schroff	fanatisch	strafen	rächen	hindern	schlecht	loyal	fair	ehrlich	tolerant	lachen	treu	lasch	faul	eitel	tyrannisch	leiden	tot	1	blank2r.bmp	0	1	+	0	1	blank2r.bmp	500	1	GKQX	500	1	blank2r.bmp	880	1	schlau	880	1	!	1232	1	!	1285	0	0	0	0	0	0
2024-05-14	09:40:44	09:48:45	480512	6.6.1	4_exp_EVA_AWA_CON	27	B	A	Rpleas_acq	Same	Rpleas	2pleas	acq_US_unple_nomask	acq45_nomask	4	31	400	1	300	300	0	0	366	46	1	0	schlau	freundlich	spielen	retten	helfen	schön	schroff	fanatisch	strafen	rächen	hindern	schlecht	loyal	fair	ehrlich	tolerant	lachen	treu	lasch	faul	eitel	tyrannisch	leiden	tot	1	blank2r.bmp	0	1	+	0	1	blank2r.bmp	500	1	BMVZ	500	1	blank2r.bmp	880	3	strafen	880	1	!	1232	1	!	1267	0	0	0	0	0	0
2024-05-14	09:40:44	09:48:47	482622	6.6.1	4_exp_EVA_AWA_CON	27	B	A	Rpleas_acq	Same	Rpleas	2pleas	acq_US_pleas_nomask	acq45_nomask	4	32	400	1	300	300	0	0	337	50	1	0	schlau	freundlich	spielen	retten	helfen	schön	schroff	fanatisch	strafen	rächen	hindern	schlecht	loyal	fair	ehrlich	tolerant	lachen	treu	lasch	faul	eitel	tyrannisch	leiden	tot	1	blank2r.bmp	0	1	+	0	1	blank2r.bmp	500	1	GKQX	500	1	blank2r.bmp	880	4	retten	880	1	!	1232	1	!	1236	0	0	0	0	0	0
2024-05-14	09:40:44	09:48:49	484760	6.6.1	4_exp_EVA_AWA_CON	27	B	A	Rpleas_acq	Same	Rpleas	2pleas	acq_US_unple_nomask	acq45_nomask	4	33	400	1	300	300	0	0	361	46	1	0	schlau	freundlich	spielen	retten	helfen	schön	schroff	fanatisch	strafen	rächen	hindern	schlecht	loyal	fair	ehrlich	tolerant	lachen	treu	lasch	faul	eitel	tyrannisch	leiden	tot	1	blank2r.bmp	0	1	+	0	1	blank2r.bmp	500	1	BMVZ	500	1	blank2r.bmp	880	1	schroff	880	1	!	1232	1	!	1262	0	0	0	0	0	0
2024-05-14	09:40:44	09:48:51	486854	6.6.1	4_exp_EVA_AWA_CON	27	B	A	Rpleas_acq	Same	Rpleas	2pleas	acq_US_pleas_nomask	acq45_nomask	4	34	400	0	300	300	0	0	316	50	1	0	schlau	freundlich	spielen	retten	helfen	schön	schroff	fanatisch	strafen	rächen	hindern	schlecht	loyal	fair	ehrlich	tolerant	lachen	treu	lasch	faul	eitel	tyrannisch	leiden	tot	1	blank2r.bmp	0	1	+	0	1	blank2r.bmp	500	1	GKQX	500	1	blank2r.bmp	880	6	schön	880	1	!	-1	1	!	-1	0	0	0	0	0	0
2024-05-14	09:40:44	09:48:53	488966	6.6.1	4_exp_EVA_AWA_CON	27	B	A	Rpleas_acq	Same	Rpleas	2pleas	acq_US_unple_nomask	acq45_nomask	4	35	400	1	300	300	0	0	337	46	1	0	schlau	freundlich	spielen	retten	helfen	schön	schroff	fanatisch	strafen	rächen	hindern	schlecht	loyal	fair	ehrlich	tolerant	lachen	treu	lasch	faul	eitel	tyrannisch	leiden	tot	1	blank2r.bmp	0	1	+	0	1	blank2r.bmp	500	1	BMVZ	500	1	blank2r.bmp	880	6	schlecht	880	1	!	1232	1	!	1236	0	0	0	0	0	0
2024-05-14	09:40:44	09:48:55	491136	6.6.1	4_exp_EVA_AWA_CON	27	B	A	Rpleas_acq	Same	Rpleas	2pleas	acq_US_unple_nomask	acq45_nomask	4	36	400	1	300	300	0	0	393	46	1	0	schlau	freundlich	spielen	retten	helfen	schön	schroff	fanatisch	strafen	rächen	hindern	schlecht	loyal	fair	ehrlich	tolerant	lachen	treu	lasch	faul	eitel	tyrannisch	leiden	tot	1	blank2r.bmp	0	1	+	0	1	blank2r.bmp	500	1	BMVZ	500	1	blank2r.bmp	880	2	fanatisch	880	1	!	1232	1	!	1294	0	0	0	0	0	0
2024-05-14	09:40:44	09:49:11	506936	6.6.1	4_exp_EVA_AWA_CON	27	B	A	Rpleas_acq	Same	Rpleas	2pleas	acq_US_pleas_nomask	acq45_nomask	5	1	400	1	300	300	0	0	433	50	1	0	schlau	freundlich	spielen	retten	helfen	schön	schroff	fanatisch	strafen	rächen	hindern	schlecht	loyal	fair	ehrlich	tolerant	lachen	treu	lasch	faul	eitel	tyrannisch	leiden	tot	1	blank2r.bmp	0	1	+	0	1	blank2r.bmp	500	1	GKQX	500	1	blank2r.bmp	880	2	freundlich	880	1	!	1233	1	!	1334	0	0	0	0	0	0
2024-05-14	09:40:44	09:49:13	509112	6.6.1	4_exp_EVA_AWA_CON	27	B	A	Rpleas_acq	Same	Rpleas	2pleas	acq_US_pleas_nomask	acq45_nomask	5	2	400	1	300	300	0	0	398	50	1	0	schlau	freundlich	spielen	retten	helfen	schön	schroff	fanatisch	strafen	rächen	hindern	schlecht	loyal	fair	ehrlich	tolerant	lachen	treu	lasch	faul	eitel	tyrannisch	leiden	tot	1	blank2r.bmp	0	1	+	0	1	blank2r.bmp	500	1	GKQX	500	1	blank2r.bmp	880	4	retten	880	1	!	1233	1	!	1299	0	0	0	0	0	0
2024-05-14	09:40:44	09:49:15	511232	6.6.1	4_exp_EVA_AWA_CON	27	B	A	Rpleas_acq	Same	Rpleas	2pleas	acq_US_pleas_nomask	acq45_nomask	5	3	400	1	300	300	0	0	346	50	1	0	schlau	freundlich	spielen	retten	helfen	schön	schroff	fanatisch	strafen	rächen	hindern	schlecht	loyal	fair	ehrlich	tolerant	lachen	treu	lasch	faul	eitel	tyrannisch	leiden	tot	1	blank2r.bmp	0	1	+	0	1	blank2r.bmp	500	1	GKQX	500	1	blank2r.bmp	880	5	helfen	880	1	!	1232	1	!	1247	0	0	0	0	0	0
2024-05-14	09:40:44	09:49:18	513302	6.6.1	4_exp_EVA_AWA_CON	27	B	A	Rpleas_acq	Same	Rpleas	2pleas	acq_US_unple_nomask	acq45_nomask	5	4	400	0	300	300	0	0	297	46	1	0	schlau	freundlich	spielen	retten	helfen	schön	schroff	fanatisch	strafen	rächen	hindern	schlecht	loyal	fair	ehrlich	tolerant	lachen	treu	lasch	faul	eitel	tyrannisch	leiden	tot	1	blank2r.bmp	0	1	+	0	1	blank2r.bmp	500	1	BMVZ	500	1	blank2r.bmp	880	4	rächen	880	1	!	-1	1	!	-1	0	0	0	0	0	0
2024-05-14	09:40:44	09:49:20	515440	6.6.1	4_exp_EVA_AWA_CON	27	B	A	Rpleas_acq	Same	Rpleas	2pleas	acq_US_unple_nomask	acq45_nomask	5	5	400	1	300	300	0	0	362	46	1	0	schlau	freundlich	spielen	retten	helfen	schön	schroff	fanatisch	strafen	rächen	hindern	schlecht	loyal	fair	ehrlich	tolerant	lachen	treu	lasch	faul	eitel	tyrannisch	leiden	tot	1	blank2r.bmp	0	1	+	0	1	blank2r.bmp	500	1	BMVZ	500	1	blank2r.bmp	880	6	schlecht	880	1	!	1232	1	!	1263	0	0	0	0	0	0
2024-05-14	09:40:44	09:49:22	517702	6.6.1	4_exp_EVA_AWA_CON	27	B	A	Rpleas_acq	Same	Rpleas	2pleas	acq_US_pleas_nomask	acq45_nomask	5	6	400	0	300	300	0	0	484	50	1	0	schlau	freundlich	spielen	retten	helfen	schön	schroff	fanatisch	strafen	rächen	hindern	schlecht	loyal	fair	ehrlich	tolerant	lachen	treu	lasch	faul	eitel	tyrannisch	leiden	tot	1	blank2r.bmp	0	1	+	0	1	blank2r.bmp	500	1	GKQX	500	1	blank2r.bmp	880	1	schlau	880	1	!	1232	1	!	-1	0	0	0	0	0	0
2024-05-14	09:40:44	09:49:24	519896	6.6.1	4_exp_EVA_AWA_CON	27	B	A	Rpleas_acq	Same	Rpleas	2pleas	acq_US_pleas_nomask	acq45_nomask	5	7	400	1	300	300	0	0	415	50	1	0	schlau	freundlich	spielen	retten	helfen	schön	schroff	fanatisch	strafen	rächen	hindern	schlecht	loyal	fair	ehrlich	tolerant	lachen	treu	lasch	faul	eitel	tyrannisch	leiden	tot	1	blank2r.bmp	0	1	+	0	1	blank2r.bmp	500	1	GKQX	500	1	blank2r.bmp	880	3	spielen	880	1	!	1232	1	!	1316	0	0	0	0	0	0
2024-05-14	09:40:44	09:49:26	522040	6.6.1	4_exp_EVA_AWA_CON	27	B	A	Rpleas_acq	Same	Rpleas	2pleas	acq_US_unple_nomask	acq45_nomask	5	8	400	1	300	300	0	0	367	46	1	0	schlau	freundlich	spielen	retten	helfen	schön	schroff	fanatisch	strafen	rächen	hindern	schlecht	loyal	fair	ehrlich	tolerant	lachen	treu	lasch	faul	eitel	tyrannisch	leiden	tot	1	blank2r.bmp	0	1	+	0	1	blank2r.bmp	500	1	BMVZ	500	1	blank2r.bmp	880	1	schroff	880	1	!	1232	1	!	1269	0	0	0	0	0	0
2024-05-14	09:40:44	09:49:28	524168	6.6.1	4_exp_EVA_AWA_CON	27	B	A	Rpleas_acq	Same	Rpleas	2pleas	acq_US_pleas_nomask	acq45_nomask	5	9	400	1	300	300	0	0	354	50	1	0	schlau	freundlich	spielen	retten	helfen	schön	schroff	fanatisch	strafen	rächen	hindern	schlecht	loyal	fair	ehrlich	tolerant	lachen	treu	lasch	faul	eitel	tyrannisch	leiden	tot	1	blank2r.bmp	0	1	+	0	1	blank2r.bmp	500	1	GKQX	500	1	blank2r.bmp	880	6	schön	880	1	!	1233	1	!	1255	0	0	0	0	0	0
2024-05-14	09:40:44	09:49:31	526478	6.6.1	4_exp_EVA_AWA_CON	27	B	A	Rpleas_acq	Same	Rpleas	2pleas	acq_US_unple_nomask	acq45_nomask	5	10	400	0	300	300	0	0	535	46	1	0	schlau	freundlich	spielen	retten	helfen	schön	schroff	fanatisch	strafen	rächen	hindern	schlecht	loyal	fair	ehrlich	tolerant	lachen	treu	lasch	faul	eitel	tyrannisch	leiden	tot	1	blank2r.bmp	0	1	+	0	1	blank2r.bmp	500	1	BMVZ	500	1	blank2r.bmp	880	3	strafen	880	1	!	1232	1	!	-1	0	0	0	0	0	0
2024-05-14	09:40:44	09:49:33	528582	6.6.1	4_exp_EVA_AWA_CON	27	B	A	Rpleas_acq	Same	Rpleas	2pleas	acq_US_unple_nomask	acq45_nomask	5	11	400	0	300	300	0	0	327	50	0	0	schlau	freundlich	spielen	retten	helfen	schön	schroff	fanatisch	strafen	rächen	hindern	schlecht	loyal	fair	ehrlich	tolerant	lachen	treu	lasch	faul	eitel	tyrannisch	leiden	tot	1	blank2r.bmp	0	1	+	0	1	blank2r.bmp	500	1	BMVZ	500	1	blank2r.bmp	880	2	fanatisch	880	1	!	-1	1	!	-1	0	0	0	0	0	0
2024-05-14	09:40:44	09:49:35	530837	6.6.1	4_exp_EVA_AWA_CON	27	B	A	Rpleas_acq	Same	Rpleas	2pleas	acq_US_unple_nomask	acq45_nomask	5	12	400	0	300	300	0	0	482	46	1	0	schlau	freundlich	spielen	retten	helfen	schön	schroff	fanatisch	strafen	rächen	hindern	schlecht	loyal	fair	ehrlich	tolerant	lachen	treu	lasch	faul	eitel	tyrannisch	leiden	tot	1	blank2r.bmp	0	1	+	0	1	blank2r.bmp	500	1	BMVZ	500	1	blank2r.bmp	880	5	hindern	880	1	!	1232	1	!	-1	0	0	0	0	0	0
2024-05-14	09:40:44	09:49:37	533032	6.6.1	4_exp_EVA_AWA_CON	27	B	A	Rpleas_acq	Same	Rpleas	2pleas	acq_US_pleas_nomask	acq45_nomask	5	13	400	1	300	300	0	0	412	50	1	0	schlau	freundlich	spielen	retten	helfen	schön	schroff	fanatisch	strafen	rächen	hindern	schlecht	loyal	fair	ehrlich	tolerant	lachen	treu	lasch	faul	eitel	tyrannisch	leiden	tot	1	blank2r.bmp	0	1	+	0	1	blank2r.bmp	500	1	GKQX	500	1	blank2r.bmp	880	4	retten	880	1	!	1232	1	!	1314	0	0	0	0	0	0
2024-05-14	09:40:44	09:49:39	535160	6.6.1	4_exp_EVA_AWA_CON	27	B	A	Rpleas_acq	Same	Rpleas	2pleas	acq_US_pleas_nomask	acq45_nomask	5	14	400	1	300	300	0	0	349	50	1	0	schlau	freundlich	spielen	retten	helfen	schön	schroff	fanatisch	strafen	rächen	hindern	schlecht	loyal	fair	ehrlich	tolerant	lachen	treu	lasch	faul	eitel	tyrannisch	leiden	tot	1	blank2r.bmp	0	1	+	0	1	blank2r.bmp	500	1	GKQX	500	1	blank2r.bmp	880	3	spielen	880	1	!	1232	1	!	1250	0	0	0	0	0	0
2024-05-14	09:40:44	09:49:42	537368	6.6.1	4_exp_EVA_AWA_CON	27	B	A	Rpleas_acq	Same	Rpleas	2pleas	acq_US_unple_nomask	acq45_nomask	5	15	400	1	300	300	0	0	426	46	1	0	schlau	freundlich	spielen	retten	helfen	schön	schroff	fanatisch	strafen	rächen	hindern	schlecht	loyal	fair	ehrlich	tolerant	lachen	treu	lasch	faul	eitel	tyrannisch	leiden	tot	1	blank2r.bmp	0	1	+	0	1	blank2r.bmp	500	1	BMVZ	500	1	blank2r.bmp	880	2	fanatisch	880	1	!	1232	1	!	1327	0	0	0	0	0	0
2024-05-14	09:40:44	09:49:44	539520	6.6.1	4_exp_EVA_AWA_CON	27	B	A	Rpleas_acq	Same	Rpleas	2pleas	acq_US_pleas_nomask	acq45_nomask	5	16	400	1	300	300	0	0	376	50	1	0	schlau	freundlich	spielen	retten	helfen	schön	schroff	fanatisch	strafen	rächen	hindern	schlecht	loyal	fair	ehrlich	tolerant	lachen	treu	lasch	faul	eitel	tyrannisch	leiden	tot	1	blank2r.bmp	0	1	+	0	1	blank2r.bmp	500	1	GKQX	500	1	blank2r.bmp	880	6	schön	880	1	!	1232	1	!	1277	0	0	0	0	0	0
2024-05-14	09:40:44	09:49:46	541657	6.6.1	4_exp_EVA_AWA_CON	27	B	A	Rpleas_acq	Same	Rpleas	2pleas	acq_US_unple_nomask	acq45_nomask	5	17	400	1	300	300	0	0	361	46	1	0	schlau	freundlich	spielen	retten	helfen	schön	schroff	fanatisch	strafen	rächen	hindern	schlecht	loyal	fair	ehrlich	tolerant	lachen	treu	lasch	faul	eitel	tyrannisch	leiden	tot	1	blank2r.bmp	0	1	+	0	1	blank2r.bmp	500	1	BMVZ	500	1	blank2r.bmp	880	1	schroff	880	1	!	1232	1	!	1262	0	0	0	0	0	0
2024-05-14	09:40:44	09:49:48	543824	6.6.1	4_exp_EVA_AWA_CON	27	B	A	Rpleas_acq	Same	Rpleas	2pleas	acq_US_unple_nomask	acq45_nomask	5	18	400	1	300	300	0	0	387	46	1	0	schlau	freundlich	spielen	retten	helfen	schön	schroff	fanatisch	strafen	rächen	hindern	schlecht	loyal	fair	ehrlich	tolerant	lachen	treu	lasch	faul	eitel	tyrannisch	leiden	tot	1	blank2r.bmp	0	1	+	0	1	blank2r.bmp	500	1	BMVZ	500	1	blank2r.bmp	880	5	hindern	880	1	!	1232	1	!	1289	0	0	0	0	0	0
2024-05-14	09:40:44	09:49:50	545969	6.6.1	4_exp_EVA_AWA_CON	27	B	A	Rpleas_acq	Same	Rpleas	2pleas	acq_US_pleas_nomask	acq45_nomask	5	19	400	1	300	300	0	0	370	50	1	0	schlau	freundlich	spielen	retten	helfen	schön	schroff	fanatisch	strafen	rächen	hindern	schlecht	loyal	fair	ehrlich	tolerant	lachen	treu	lasch	faul	eitel	tyrannisch	leiden	tot	1	blank2r.bmp	0	1	+	0	1	blank2r.bmp	500	1	GKQX	500	1	blank2r.bmp	880	2	freundlich	880	1	!	1232	1	!	1272	0	0	0	0	0	0
2024-05-14	09:40:44	09:49:52	548086	6.6.1	4_exp_EVA_AWA_CON	27	B	A	Rpleas_acq	Same	Rpleas	2pleas	acq_US_pleas_nomask	acq45_nomask	5	20	400	1	300	300	0	0	339	50	1	0	schlau	freundlich	spielen	retten	helfen	schön	schroff	fanatisch	strafen	rächen	hindern	schlecht	loyal	fair	ehrlich	tolerant	lachen	treu	lasch	faul	eitel	tyrannisch	leiden	tot	1	blank2r.bmp	0	1	+	0	1	blank2r.bmp	500	1	GKQX	500	1	blank2r.bmp	880	5	helfen	880	1	!	1232	1	!	1238	0	0	0	0	0	0
2024-05-14	09:40:44	09:49:54	550198	6.6.1	4_exp_EVA_AWA_CON	27	B	A	Rpleas_acq	Same	Rpleas	2pleas	acq_US_unple_nomask	acq45_nomask	5	21	400	1	300	300	0	0	339	46	1	0	schlau	freundlich	spielen	retten	helfen	schön	schroff	fanatisch	strafen	rächen	hindern	schlecht	loyal	fair	ehrlich	tolerant	lachen	treu	lasch	faul	eitel	tyrannisch	leiden	tot	1	blank2r.bmp	0	1	+	0	1	blank2r.bmp	500	1	BMVZ	500	1	blank2r.bmp	880	3	strafen	880	1	!	1232	1	!	1239	0	0	0	0	0	0
2024-05-14	09:40:44	09:49:57	552400	6.6.1	4_exp_EVA_AWA_CON	27	B	A	Rpleas_acq	Same	Rpleas	2pleas	acq_US_pleas_nomask	acq45_nomask	5	22	400	1	300	300	0	0	428	50	1	0	schlau	freundlich	spielen	retten	helfen	schön	schroff	fanatisch	strafen	rächen	hindern	schlecht	loyal	fair	ehrlich	tolerant	lachen	treu	lasch	faul	eitel	tyrannisch	leiden	tot	1	blank2r.bmp	0	1	+	0	1	blank2r.bmp	500	1	GKQX	500	1	blank2r.bmp	880	1	schlau	880	1	!	1232	1	!	1329	0	0	0	0	0	0
2024-05-14	09:40:44	09:49:59	554520	6.6.1	4_exp_EVA_AWA_CON	27	B	A	Rpleas_acq	Same	Rpleas	2pleas	acq_US_pleas_nomask	acq45_nomask	5	23	400	1	300	300	0	0	347	46	0	0	schlau	freundlich	spielen	retten	helfen	schön	schroff	fanatisch	strafen	rächen	hindern	schlecht	loyal	fair	ehrlich	tolerant	lachen	treu	lasch	faul	eitel	tyrannisch	leiden	tot	1	blank2r.bmp	0	1	+	0	1	blank2r.bmp	500	1	GKQX	500	1	blank2r.bmp	880	5	helfen	880	1	!	1232	1	!	1248	0	0	0	0	0	0
2024-05-14	09:40:44	09:50:01	556640	6.6.1	4_exp_EVA_AWA_CON	27	B	A	Rpleas_acq	Same	Rpleas	2pleas	acq_US_unple_nomask	acq45_nomask	5	24	400	1	300	300	0	0	345	46	1	0	schlau	freundlich	spielen	retten	helfen	schön	schroff	fanatisch	strafen	rächen	hindern	schlecht	loyal	fair	ehrlich	tolerant	lachen	treu	lasch	faul	eitel	tyrannisch	leiden	tot	1	blank2r.bmp	0	1	+	0	1	blank2r.bmp	500	1	BMVZ	500	1	blank2r.bmp	880	4	rächen	880	1	!	1232	1	!	1246	0	0	0	0	0	0
2024-05-14	09:40:44	09:50:03	558808	6.6.1	4_exp_EVA_AWA_CON	27	B	A	Rpleas_acq	Same	Rpleas	2pleas	acq_US_unple_nomask	acq45_nomask	5	25	400	1	300	300	0	0	392	50	0	0	schlau	freundlich	spielen	retten	helfen	schön	schroff	fanatisch	strafen	rächen	hindern	schlecht	loyal	fair	ehrlich	tolerant	lachen	treu	lasch	faul	eitel	tyrannisch	leiden	tot	1	blank2r.bmp	0	1	+	0	1	blank2r.bmp	500	1	BMVZ	500	1	blank2r.bmp	880	6	schlecht	880	1	!	1232	1	!	1293	0	0	0	0	0	0
2024-05-14	09:40:44	09:50:05	560977	6.6.1	4_exp_EVA_AWA_CON	27	B	A	Rpleas_acq	Same	Rpleas	2pleas	acq_US_unple_nomask	acq45_nomask	5	26	400	1	300	300	0	0	388	50	0	0	schlau	freundlich	spielen	retten	helfen	schön	schroff	fanatisch	strafen	rächen	hindern	schlecht	loyal	fair	ehrlich	tolerant	lachen	treu	lasch	faul	eitel	tyrannisch	leiden	tot	1	blank2r.bmp	0	1	+	0	1	blank2r.bmp	500	1	BMVZ	500	1	blank2r.bmp	880	2	fanatisch	880	1	!	1232	1	!	1289	0	0	0	0	0	0
2024-05-14	09:40:44	09:50:07	563160	6.6.1	4_exp_EVA_AWA_CON	27	B	A	Rpleas_acq	Same	Rpleas	2pleas	acq_US_unple_nomask	acq45_nomask	5	27	400	1	300	300	0	0	401	46	1	0	schlau	freundlich	spielen	retten	helfen	schön	schroff	fanatisch	strafen	rächen	hindern	schlecht	loyal	fair	ehrlich	tolerant	lachen	treu	lasch	faul	eitel	tyrannisch	leiden	tot	1	blank2r.bmp	0	1	+	0	1	blank2r.bmp	500	1	BMVZ	500	1	blank2r.bmp	880	6	schlecht	880	1	!	1232	1	!	1302	0	0	0	0	0	0
2024-05-14	09:40:44	09:50:10	565328	6.6.1	4_exp_EVA_AWA_CON	27	B	A	Rpleas_acq	Same	Rpleas	2pleas	acq_US_unple_nomask	acq45_nomask	5	28	400	1	300	300	0	0	388	46	1	0	schlau	freundlich	spielen	retten	helfen	schön	schroff	fanatisch	strafen	rächen	hindern	schlecht	loyal	fair	ehrlich	tolerant	lachen	treu	lasch	faul	eitel	tyrannisch	leiden	tot	1	blank2r.bmp	0	1	+	0	1	blank2r.bmp	500	1	BMVZ	500	1	blank2r.bmp	880	5	hindern	880	1	!	1233	1	!	1289	0	0	0	0	0	0
2024-05-14	09:40:44	09:50:12	567456	6.6.1	4_exp_EVA_AWA_CON	27	B	A	Rpleas_acq	Same	Rpleas	2pleas	acq_US_pleas_nomask	acq45_nomask	5	29	400	1	300	300	0	0	354	50	1	0	schlau	freundlich	spielen	retten	helfen	schön	schroff	fanatisch	strafen	rächen	hindern	schlecht	loyal	fair	ehrlich	tolerant	lachen	treu	lasch	faul	eitel	tyrannisch	leiden	tot	1	blank2r.bmp	0	1	+	0	1	blank2r.bmp	500	1	GKQX	500	1	blank2r.bmp	880	6	schön	880	1	!	1232	1	!	1255	0	0	0	0	0	0
2024-05-14	09:40:44	09:50:14	569726	6.6.1	4_exp_EVA_AWA_CON	27	B	A	Rpleas_acq	Same	Rpleas	2pleas	acq_US_unple_nomask	acq45_nomask	5	30	400	0	300	300	0	0	495	46	1	0	schlau	freundlich	spielen	retten	helfen	schön	schroff	fanatisch	strafen	rächen	hindern	schlecht	loyal	fair	ehrlich	tolerant	lachen	treu	lasch	faul	eitel	tyrannisch	leiden	tot	1	blank2r.bmp	0	1	+	0	1	blank2r.bmp	500	1	BMVZ	500	1	blank2r.bmp	880	1	schroff	880	1	!	1232	1	!	-1	0	0	0	0	0	0
2024-05-14	09:40:44	09:50:16	571806	6.6.1	4_exp_EVA_AWA_CON	27	B	A	Rpleas_acq	Same	Rpleas	2pleas	acq_US_pleas_nomask	acq45_nomask	5	31	400	0	300	300	0	0	303	50	1	0	schlau	freundlich	spielen	retten	helfen	schön	schroff	fanatisch	strafen	rächen	hindern	schlecht	loyal	fair	ehrlich	tolerant	lachen	treu	lasch	faul	eitel	tyrannisch	leiden	tot	1	blank2r.bmp	0	1	+	0	1	blank2r.bmp	500	1	GKQX	500	1	blank2r.bmp	880	1	schlau	880	1	!	-1	1	!	-1	0	0	0	0	0	0
2024-05-14	09:40:44	09:50:18	573960	6.6.1	4_exp_EVA_AWA_CON	27	B	A	Rpleas_acq	Same	Rpleas	2pleas	acq_US_pleas_nomask	acq45_nomask	5	32	400	1	300	300	0	0	374	46	0	0	schlau	freundlich	spielen	retten	helfen	schön	schroff	fanatisch	strafen	rächen	hindern	schlecht	loyal	fair	ehrlich	tolerant	lachen	treu	lasch	faul	eitel	tyrannisch	leiden	tot	1	blank2r.bmp	0	1	+	0	1	blank2r.bmp	500	1	GKQX	500	1	blank2r.bmp	880	4	retten	880	1	!	1232	1	!	1275	0	0	0	0	0	0
2024-05-14	09:40:44	09:50:20	576120	6.6.1	4_exp_EVA_AWA_CON	27	B	A	Rpleas_acq	Same	Rpleas	2pleas	acq_US_unple_nomask	acq45_nomask	5	33	400	1	300	300	0	0	383	46	1	0	schlau	freundlich	spielen	retten	helfen	schön	schroff	fanatisch	strafen	rächen	hindern	schlecht	loyal	fair	ehrlich	tolerant	lachen	treu	lasch	faul	eitel	tyrannisch	leiden	tot	1	blank2r.bmp	0	1	+	0	1	blank2r.bmp	500	1	BMVZ	500	1	blank2r.bmp	880	3	strafen	880	1	!	1232	1	!	1284	0	0	0	0	0	0
2024-05-14	09:40:44	09:50:23	578280	6.6.1	4_exp_EVA_AWA_CON	27	B	A	Rpleas_acq	Same	Rpleas	2pleas	acq_US_pleas_nomask	acq45_nomask	5	34	400	1	300	300	0	0	381	50	1	0	schlau	freundlich	spielen	retten	helfen	schön	schroff	fanatisch	strafen	rächen	hindern	schlecht	loyal	fair	ehrlich	tolerant	lachen	treu	lasch	faul	eitel	tyrannisch	leiden	tot	1	blank2r.bmp	0	1	+	0	1	blank2r.bmp	500	1	GKQX	500	1	blank2r.bmp	880	3	spielen	880	1	!	1232	1	!	1282	0	0	0	0	0	0
2024-05-14	09:40:44	09:50:25	580448	6.6.1	4_exp_EVA_AWA_CON	27	B	A	Rpleas_acq	Same	Rpleas	2pleas	acq_US_unple_nomask	acq45_nomask	5	35	400	1	300	300	0	0	388	46	1	0	schlau	freundlich	spielen	retten	helfen	schön	schroff	fanatisch	strafen	rächen	hindern	schlecht	loyal	fair	ehrlich	tolerant	lachen	treu	lasch	faul	eitel	tyrannisch	leiden	tot	1	blank2r.bmp	0	1	+	0	1	blank2r.bmp	500	1	BMVZ	500	1	blank2r.bmp	880	4	rächen	880	1	!	1233	1	!	1289	0	0	0	0	0	0
2024-05-14	09:40:44	09:50:27	582584	6.6.1	4_exp_EVA_AWA_CON	27	B	A	Rpleas_acq	Same	Rpleas	2pleas	acq_US_pleas_nomask	acq45_nomask	5	36	400	1	300	300	0	0	363	50	1	0	schlau	freundlich	spielen	retten	helfen	schön	schroff	fanatisch	strafen	rächen	hindern	schlecht	loyal	fair	ehrlich	tolerant	lachen	treu	lasch	faul	eitel	tyrannisch	leiden	tot	1	blank2r.bmp	0	1	+	0	1	blank2r.bmp	500	1	GKQX	500	1	blank2r.bmp	880	2	freundlich	880	1	!	1233	1	!	1264	0	0	0	0	0	0
2024-05-14	09:40:44	09:50:47	602683	6.6.1	4_exp_EVA_AWA_CON	27	B	A	Rpleas_acq	Same	Rpleas	2pleas	EvalRating_firsttwo	EvalRating_firsttwo	6	1	0	0	300	300	0	0	5144	line	0	-59,375pct	schlau	freundlich	spielen	retten	helfen	schön	schroff	fanatisch	strafen	rächen	hindern	schlecht	loyal	fair	ehrlich	tolerant	lachen	treu	lasch	faul	eitel	tyrannisch	leiden	tot	1		-7	1	Wie angenehm oder unangenehm finden Sie die  Buchstabenkette ZGVK?	-7	1		-7	1		-7	1		-7	1	Unangenehm	-7	1	Angenehm	-7	0	0	0	0	0	0	0	0	0
2024-05-14	09:40:44	09:50:53	608882	6.6.1	4_exp_EVA_AWA_CON	27	B	A	Rpleas_acq	Same	Rpleas	2pleas	EvalRating_lastfour	EvalRating_lastfour	7	1	0	0	300	300	0	0	3819	line	0	-4,0364583333333285964pct	schlau	freundlich	spielen	retten	helfen	schön	schroff	fanatisch	strafen	rächen	hindern	schlecht	loyal	fair	ehrlich	tolerant	lachen	treu	lasch	faul	eitel	tyrannisch	leiden	tot	1		-7	1	Wie angenehm oder unangenehm finden Sie die  Buchstabenkette BMVZ?	-7	1		-7	1		-7	1		-7	1	Unangenehm	-7	1	Angenehm	-7	0	0	0	0	0	0	0	0	0
2024-05-14	09:40:44	09:50:56	611250	6.6.1	4_exp_EVA_AWA_CON	27	B	A	Rpleas_acq	Same	Rpleas	2pleas	blank_screen	EvalRating_lastfour	7	3	0	0	300	300	0	0	0	0	0	-4,0364583333333285964pct	schlau	freundlich	spielen	retten	helfen	schön	schroff	fanatisch	strafen	rächen	hindern	schlecht	loyal	fair	ehrlich	tolerant	lachen	treu	lasch	faul	eitel	tyrannisch	leiden	tot	1		-8	0	0	0	0	0	0	0	0	0	0	0	0	0	0	0	0	0	0	0	0	0	0	0	0	0	0	0
2024-05-14	09:40:44	09:51:00	615684	6.6.1	4_exp_EVA_AWA_CON	27	B	A	Rpleas_acq	Same	Rpleas	2pleas	EvalRating_lastfour	EvalRating_lastfour	7	4	0	0	300	300	0	0	3846	line	0	-36,71875pct	schlau	freundlich	spielen	retten	helfen	schön	schroff	fanatisch	strafen	rächen	hindern	schlecht	loyal	fair	ehrlich	tolerant	lachen	treu	lasch	faul	eitel	tyrannisch	leiden	tot	1		-8	2	Wie angenehm oder unangenehm finden Sie die  Buchstabenkette GKQX?	-8	1		-8	1		-8	1		-8	1	Unangenehm	-8	1	Angenehm	-8	0	0	0	0	0	0	0	0	0
2024-05-14	09:40:44	09:51:02	618054	6.6.1	4_exp_EVA_AWA_CON	27	B	A	Rpleas_acq	Same	Rpleas	2pleas	blank_screen	EvalRating_lastfour	7	6	0	0	300	300	0	0	0	0	0	-36,71875pct	schlau	freundlich	spielen	retten	helfen	schön	schroff	fanatisch	strafen	rächen	hindern	schlecht	loyal	fair	ehrlich	tolerant	lachen	treu	lasch	faul	eitel	tyrannisch	leiden	tot	1		-8	0	0	0	0	0	0	0	0	0	0	0	0	0	0	0	0	0	0	0	0	0	0	0	0	0	0	0
2024-05-14	09:40:44	09:51:06	621419	6.6.1	4_exp_EVA_AWA_CON	27	B	A	Rpleas_acq	Same	Rpleas	2pleas	EvalRating_lastfour	EvalRating_lastfour	7	7	0	0	300	300	0	0	2777	line	0	-16,015625pct	schlau	freundlich	spielen	retten	helfen	schön	schroff	fanatisch	strafen	rächen	hindern	schlecht	loyal	fair	ehrlich	tolerant	lachen	treu	lasch	faul	eitel	tyrannisch	leiden	tot	1		-7	3	Wie angenehm oder unangenehm finden Sie die  Buchstabenkette XBQM?	-7	1		-7	1		-7	1		-7	1	Unangenehm	-7	1	Angenehm	-7	0	0	0	0	0	0	0	0	0
2024-05-14	09:40:44	09:51:51	667164	6.6.1	4_exp_EVA_AWA_CON	27	B	A	Rpleas_acq	Same	Rpleas	2pleas	conawa_CS1_US3	conawa1_nomask	8	1	0	0	300	300	0	0	21980	ehrlich	1	-16,015625pct	schlau	freundlich	spielen	retten	helfen	schön	schroff	fanatisch	strafen	rächen	hindern	schlecht	loyal	fair	ehrlich	tolerant	lachen	treu	lasch	faul	eitel	tyrannisch	leiden	tot	0	0	0	0	0	0	0	0	0	0	0	0	0	0	0	0	0	0	0	0	0	0	0	0	0	0	0	0	0	0
2024-05-14	09:40:44	09:51:51	667166	6.6.1	4_exp_EVA_AWA_CON	27	B	A	Rpleas_acq	Same	Rpleas	2pleas	conawa_CS1_US3_confidence	conawa1_nomask	8	1	0	0	300	300	0	0	21980	probably	1	-16,015625pct	schlau	freundlich	spielen	retten	helfen	schön	schroff	fanatisch	strafen	rächen	hindern	schlecht	loyal	fair	ehrlich	tolerant	lachen	treu	lasch	faul	eitel	tyrannisch	leiden	tot	0	0	0	0	0	0	0	0	0	0	0	0	0	0	0	0	0	0	0	0	0	0	0	0	0	0	0	0	0	0
2024-05-14	09:40:44	09:52:02	677521	6.6.1	4_exp_EVA_AWA_CON	27	B	A	Rpleas_acq	Same	Rpleas	2pleas	conawa_CS1_US5	conawa1_nomask	8	2	0	0	300	300	0	0	9742	lachen	1	-16,015625pct	schlau	freundlich	spielen	retten	helfen	schön	schroff	fanatisch	strafen	rächen	hindern	schlecht	loyal	fair	ehrlich	tolerant	lachen	treu	lasch	faul	eitel	tyrannisch	leiden	tot	0	0	0	0	0	0	0	0	0	0	0	0	0	0	0	0	0	0	0	0	0	0	0	0	0	0	0	0	0	0
2024-05-14	09:40:44	09:52:02	677523	6.6.1	4_exp_EVA_AWA_CON	27	B	A	Rpleas_acq	Same	Rpleas	2pleas	conawa_CS1_US5_confidence	conawa1_nomask	8	2	0	0	300	300	0	0	9742	guess	1	-16,015625pct	schlau	freundlich	spielen	retten	helfen	schön	schroff	fanatisch	strafen	rächen	hindern	schlecht	loyal	fair	ehrlich	tolerant	lachen	treu	lasch	faul	eitel	tyrannisch	leiden	tot	0	0	0	0	0	0	0	0	0	0	0	0	0	0	0	0	0	0	0	0	0	0	0	0	0	0	0	0	0	0
2024-05-14	09:40:44	09:52:12	687707	6.6.1	4_exp_EVA_AWA_CON	27	B	A	Rpleas_acq	Same	Rpleas	2pleas	conawa_CS2_US6	conawa1_nomask	8	3	0	0	300	300	0	0	9569	lasch	1	-16,015625pct	schlau	freundlich	spielen	retten	helfen	schön	schroff	fanatisch	strafen	rächen	hindern	schlecht	loyal	fair	ehrlich	tolerant	lachen	treu	lasch	faul	eitel	tyrannisch	leiden	tot	0	0	0	0	0	0	0	0	0	0	0	0	0	0	0	0	0	0	0	0	0	0	0	0	0	0	0	0	0	0
2024-05-14	09:40:44	09:52:12	687709	6.6.1	4_exp_EVA_AWA_CON	27	B	A	Rpleas_acq	Same	Rpleas	2pleas	conawa_CS2_US6_confidence	conawa1_nomask	8	3	0	0	300	300	0	0	9569	guess	1	-16,015625pct	schlau	freundlich	spielen	retten	helfen	schön	schroff	fanatisch	strafen	rächen	hindern	schlecht	loyal	fair	ehrlich	tolerant	lachen	treu	lasch	faul	eitel	tyrannisch	leiden	tot	0	0	0	0	0	0	0	0	0	0	0	0	0	0	0	0	0	0	0	0	0	0	0	0	0	0	0	0	0	0
2024-05-14	09:40:44	09:52:19	694732	6.6.1	4_exp_EVA_AWA_CON	27	B	A	Rpleas_acq	Same	Rpleas	2pleas	conawa_CS1_US4	conawa1_nomask	8	4	0	0	300	300	0	0	6408	retten	1	-16,015625pct	schlau	freundlich	spielen	retten	helfen	schön	schroff	fanatisch	strafen	rächen	hindern	schlecht	loyal	fair	ehrlich	tolerant	lachen	treu	lasch	faul	eitel	tyrannisch	leiden	tot	0	0	0	0	0	0	0	0	0	0	0	0	0	0	0	0	0	0	0	0	0	0	0	0	0	0	0	0	0	0
2024-05-14	09:40:44	09:52:19	694734	6.6.1	4_exp_EVA_AWA_CON	27	B	A	Rpleas_acq	Same	Rpleas	2pleas	conawa_CS1_US4_confidence	conawa1_nomask	8	4	0	0	300	300	0	0	6408	guess	1	-16,015625pct	schlau	freundlich	spielen	retten	helfen	schön	schroff	fanatisch	strafen	rächen	hindern	schlecht	loyal	fair	ehrlich	tolerant	lachen	treu	lasch	faul	eitel	tyrannisch	leiden	tot	0	0	0	0	0	0	0	0	0	0	0	0	0	0	0	0	0	0	0	0	0	0	0	0	0	0	0	0	0	0
2024-05-14	09:40:44	09:52:28	703817	6.6.1	4_exp_EVA_AWA_CON	27	B	A	Rpleas_acq	Same	Rpleas	2pleas	conawa_CS2_US4	conawa1_nomask	8	5	0	0	300	300	0	0	8474	rächen	1	-16,015625pct	schlau	freundlich	spielen	retten	helfen	schön	schroff	fanatisch	strafen	rächen	hindern	schlecht	loyal	fair	ehrlich	tolerant	lachen	treu	lasch	faul	eitel	tyrannisch	leiden	tot	0	0	0	0	0	0	0	0	0	0	0	0	0	0	0	0	0	0	0	0	0	0	0	0	0	0	0	0	0	0
2024-05-14	09:40:44	09:52:28	703819	6.6.1	4_exp_EVA_AWA_CON	27	B	A	Rpleas_acq	Same	Rpleas	2pleas	conawa_CS2_US4_confidence	conawa1_nomask	8	5	0	0	300	300	0	0	8474	guess	1	-16,015625pct	schlau	freundlich	spielen	retten	helfen	schön	schroff	fanatisch	strafen	rächen	hindern	schlecht	loyal	fair	ehrlich	tolerant	lachen	treu	lasch	faul	eitel	tyrannisch	leiden	tot	0	0	0	0	0	0	0	0	0	0	0	0	0	0	0	0	0	0	0	0	0	0	0	0	0	0	0	0	0	0
2024-05-14	09:40:44	09:52:35	711122	6.6.1	4_exp_EVA_AWA_CON	27	B	A	Rpleas_acq	Same	Rpleas	2pleas	conawa_CS1_US2	conawa1_nomask	8	6	0	0	300	300	0	0	6690	fanatisch	1	-16,015625pct	schlau	freundlich	spielen	retten	helfen	schön	schroff	fanatisch	strafen	rächen	hindern	schlecht	loyal	fair	ehrlich	tolerant	lachen	treu	lasch	faul	eitel	tyrannisch	leiden	tot	0	0	0	0	0	0	0	0	0	0	0	0	0	0	0	0	0	0	0	0	0	0	0	0	0	0	0	0	0	0
2024-05-14	09:40:44	09:52:35	711124	6.6.1	4_exp_EVA_AWA_CON	27	B	A	Rpleas_acq	Same	Rpleas	2pleas	conawa_CS1_US2_confidence	conawa1_nomask	8	6	0	0	300	300	0	0	6690	probably	1	-16,015625pct	schlau	freundlich	spielen	retten	helfen	schön	schroff	fanatisch	strafen	rächen	hindern	schlecht	loyal	fair	ehrlich	tolerant	lachen	treu	lasch	faul	eitel	tyrannisch	leiden	tot	0	0	0	0	0	0	0	0	0	0	0	0	0	0	0	0	0	0	0	0	0	0	0	0	0	0	0	0	0	0
2024-05-14	09:40:44	09:52:42	717877	6.6.1	4_exp_EVA_AWA_CON	27	B	A	Rpleas_acq	Same	Rpleas	2pleas	conawa_CS1_US1	conawa1_nomask	8	7	0	0	300	300	0	0	6138	loyal	1	-16,015625pct	schlau	freundlich	spielen	retten	helfen	schön	schroff	fanatisch	strafen	rächen	hindern	schlecht	loyal	fair	ehrlich	tolerant	lachen	treu	lasch	faul	eitel	tyrannisch	leiden	tot	0	0	0	0	0	0	0	0	0	0	0	0	0	0	0	0	0	0	0	0	0	0	0	0	0	0	0	0	0	0
2024-05-14	09:40:44	09:52:42	717879	6.6.1	4_exp_EVA_AWA_CON	27	B	A	Rpleas_acq	Same	Rpleas	2pleas	conawa_CS1_US1_confidence	conawa1_nomask	8	7	0	0	300	300	0	0	6138	guess	1	-16,015625pct	schlau	freundlich	spielen	retten	helfen	schön	schroff	fanatisch	strafen	rächen	hindern	schlecht	loyal	fair	ehrlich	tolerant	lachen	treu	lasch	faul	eitel	tyrannisch	leiden	tot	0	0	0	0	0	0	0	0	0	0	0	0	0	0	0	0	0	0	0	0	0	0	0	0	0	0	0	0	0	0
2024-05-14	09:40:44	09:52:56	731325	6.6.1	4_exp_EVA_AWA_CON	27	B	A	Rpleas_acq	Same	Rpleas	2pleas	conawa_CS2_US2	conawa1_nomask	8	8	0	0	300	300	0	0	12832	fanatisch	1	-16,015625pct	schlau	freundlich	spielen	retten	helfen	schön	schroff	fanatisch	strafen	rächen	hindern	schlecht	loyal	fair	ehrlich	tolerant	lachen	treu	lasch	faul	eitel	tyrannisch	leiden	tot	0	0	0	0	0	0	0	0	0	0	0	0	0	0	0	0	0	0	0	0	0	0	0	0	0	0	0	0	0	0
2024-05-14	09:40:44	09:52:56	731327	6.6.1	4_exp_EVA_AWA_CON	27	B	A	Rpleas_acq	Same	Rpleas	2pleas	conawa_CS2_US2_confidence	conawa1_nomask	8	8	0	0	300	300	0	0	12832	guess	1	-16,015625pct	schlau	freundlich	spielen	retten	helfen	schön	schroff	fanatisch	strafen	rächen	hindern	schlecht	loyal	fair	ehrlich	tolerant	lachen	treu	lasch	faul	eitel	tyrannisch	leiden	tot	0	0	0	0	0	0	0	0	0	0	0	0	0	0	0	0	0	0	0	0	0	0	0	0	0	0	0	0	0	0
2024-05-14	09:40:44	09:53:04	740131	6.6.1	4_exp_EVA_AWA_CON	27	B	A	Rpleas_acq	Same	Rpleas	2pleas	conawa_CS1_US6	conawa1_nomask	8	9	0	0	300	300	0	0	8191	schlecht	1	-16,015625pct	schlau	freundlich	spielen	retten	helfen	schön	schroff	fanatisch	strafen	rächen	hindern	schlecht	loyal	fair	ehrlich	tolerant	lachen	treu	lasch	faul	eitel	tyrannisch	leiden	tot	0	0	0	0	0	0	0	0	0	0	0	0	0	0	0	0	0	0	0	0	0	0	0	0	0	0	0	0	0	0
2024-05-14	09:40:44	09:53:04	740133	6.6.1	4_exp_EVA_AWA_CON	27	B	A	Rpleas_acq	Same	Rpleas	2pleas	conawa_CS1_US6_confidence	conawa1_nomask	8	9	0	0	300	300	0	0	8191	guess	1	-16,015625pct	schlau	freundlich	spielen	retten	helfen	schön	schroff	fanatisch	strafen	rächen	hindern	schlecht	loyal	fair	ehrlich	tolerant	lachen	treu	lasch	faul	eitel	tyrannisch	leiden	tot	0	0	0	0	0	0	0	0	0	0	0	0	0	0	0	0	0	0	0	0	0	0	0	0	0	0	0	0	0	0
2024-05-14	09:40:44	09:53:13	748447	6.6.1	4_exp_EVA_AWA_CON	27	B	A	Rpleas_acq	Same	Rpleas	2pleas	conawa_CS2_US1	conawa1_nomask	8	10	0	0	300	300	0	0	7697	faul	1	-16,015625pct	schlau	freundlich	spielen	retten	helfen	schön	schroff	fanatisch	strafen	rächen	hindern	schlecht	loyal	fair	ehrlich	tolerant	lachen	treu	lasch	faul	eitel	tyrannisch	leiden	tot	0	0	0	0	0	0	0	0	0	0	0	0	0	0	0	0	0	0	0	0	0	0	0	0	0	0	0	0	0	0
2024-05-14	09:40:44	09:53:13	748448	6.6.1	4_exp_EVA_AWA_CON	27	B	A	Rpleas_acq	Same	Rpleas	2pleas	conawa_CS2_US1_confidence	conawa1_nomask	8	10	0	0	300	300	0	0	7697	guess	1	-16,015625pct	schlau	freundlich	spielen	retten	helfen	schön	schroff	fanatisch	strafen	rächen	hindern	schlecht	loyal	fair	ehrlich	tolerant	lachen	treu	lasch	faul	eitel	tyrannisch	leiden	tot	0	0	0	0	0	0	0	0	0	0	0	0	0	0	0	0	0	0	0	0	0	0	0	0	0	0	0	0	0	0
2024-05-14	09:40:44	09:53:22	757432	6.6.1	4_exp_EVA_AWA_CON	27	B	A	Rpleas_acq	Same	Rpleas	2pleas	conawa_CS2_US5	conawa1_nomask	8	11	0	0	300	300	0	0	8372	hindern	1	-16,015625pct	schlau	freundlich	spielen	retten	helfen	schön	schroff	fanatisch	strafen	rächen	hindern	schlecht	loyal	fair	ehrlich	tolerant	lachen	treu	lasch	faul	eitel	tyrannisch	leiden	tot	0	0	0	0	0	0	0	0	0	0	0	0	0	0	0	0	0	0	0	0	0	0	0	0	0	0	0	0	0	0
2024-05-14	09:40:44	09:53:22	757434	6.6.1	4_exp_EVA_AWA_CON	27	B	A	Rpleas_acq	Same	Rpleas	2pleas	conawa_CS2_US5_confidence	conawa1_nomask	8	11	0	0	300	300	0	0	8372	guess	1	-16,015625pct	schlau	freundlich	spielen	retten	helfen	schön	schroff	fanatisch	strafen	rächen	hindern	schlecht	loyal	fair	ehrlich	tolerant	lachen	treu	lasch	faul	eitel	tyrannisch	leiden	tot	0	0	0	0	0	0	0	0	0	0	0	0	0	0	0	0	0	0	0	0	0	0	0	0	0	0	0	0	0	0
2024-05-14	09:40:44	09:53:27	763166	6.6.1	4_exp_EVA_AWA_CON	27	B	A	Rpleas_acq	Same	Rpleas	2pleas	conawa_CS2_US3	conawa1_nomask	8	12	0	0	300	300	0	0	5115	strafen	1	-16,015625pct	schlau	freundlich	spielen	retten	helfen	schön	schroff	fanatisch	strafen	rächen	hindern	schlecht	loyal	fair	ehrlich	tolerant	lachen	treu	lasch	faul	eitel	tyrannisch	leiden	tot	0	0	0	0	0	0	0	0	0	0	0	0	0	0	0	0	0	0	0	0	0	0	0	0	0	0	0	0	0	0
2024-05-14	09:40:44	09:53:27	763167	6.6.1	4_exp_EVA_AWA_CON	27	B	A	Rpleas_acq	Same	Rpleas	2pleas	conawa_CS2_US3_confidence	conawa1_nomask	8	12	0	0	300	300	0	0	5115	guess	1	-16,015625pct	schlau	freundlich	spielen	retten	helfen	schön	schroff	fanatisch	strafen	rächen	hindern	schlecht	loyal	fair	ehrlich	tolerant	lachen	treu	lasch	faul	eitel	tyrannisch	leiden	tot	0	0	0	0	0	0	0	0	0	0	0	0	0	0	0	0	0	0	0	0	0	0	0	0	0	0	0	0	0	0
2024-05-14	09:40:44	09:54:33	829152	6.6.1	4_exp_EVA_AWA_CON	27	B	A	Rpleas_acq	Same	Rpleas	2pleas	cond_new_pleas_456_nomask_CS2	condtest_nomask_1	11	1	400	1	300	300	0	0	432	50	1	-16,015625pct	schlau	freundlich	spielen	retten	helfen	schön	schroff	fanatisch	strafen	rächen	hindern	schlecht	loyal	fair	ehrlich	tolerant	lachen	treu	lasch	faul	eitel	tyrannisch	leiden	tot	1	blank2r.bmp	0	1	+	0	1	blank2r.bmp	500	1	GKQX	500	1	blank2r.bmp	880	3	lachen	880	1	!	1232	1	!	1333	0	0	0	0	0	0
2024-05-14	09:40:44	09:54:36	831353	6.6.1	4_exp_EVA_AWA_CON	27	B	A	Rpleas_acq	Same	Rpleas	2pleas	cond_US_pleas_123_nomask_CS1	condtest_nomask_1	11	2	400	1	300	300	0	0	421	50	1	-16,015625pct	schlau	freundlich	spielen	retten	helfen	schön	schroff	fanatisch	strafen	rächen	hindern	schlecht	loyal	fair	ehrlich	tolerant	lachen	treu	lasch	faul	eitel	tyrannisch	leiden	tot	1	blank2r.bmp	0	1	+	0	1	blank2r.bmp	500	1	BMVZ	500	1	blank2r.bmp	880	2	freundlich	880	1	!	1232	1	!	1322	0	0	0	0	0	0
2024-05-14	09:40:44	09:54:38	833630	6.6.1	4_exp_EVA_AWA_CON	27	B	A	Rpleas_acq	Same	Rpleas	2pleas	cond_new_unple_456_nomask_CS1	condtest_nomask_1	11	3	400	0	300	300	0	0	499	46	1	-16,015625pct	schlau	freundlich	spielen	retten	helfen	schön	schroff	fanatisch	strafen	rächen	hindern	schlecht	loyal	fair	ehrlich	tolerant	lachen	treu	lasch	faul	eitel	tyrannisch	leiden	tot	1	blank2r.bmp	0	1	+	0	1	blank2r.bmp	500	1	BMVZ	500	1	blank2r.bmp	880	3	tot	880	1	!	1232	1	!	-1	0	0	0	0	0	0
2024-05-14	09:40:44	09:54:40	835776	6.6.1	4_exp_EVA_AWA_CON	27	B	A	Rpleas_acq	Same	Rpleas	2pleas	cond_US_unple_123_nomask_CS2	condtest_nomask_1	11	4	400	1	300	300	0	0	372	46	1	-16,015625pct	schlau	freundlich	spielen	retten	helfen	schön	schroff	fanatisch	strafen	rächen	hindern	schlecht	loyal	fair	ehrlich	tolerant	lachen	treu	lasch	faul	eitel	tyrannisch	leiden	tot	1	blank2r.bmp	0	1	+	0	1	blank2r.bmp	500	1	GKQX	500	1	blank2r.bmp	880	2	schroff	880	1	!	1233	1	!	1273	0	0	0	0	0	0
2024-05-14	09:40:44	09:54:42	837905	6.6.1	4_exp_EVA_AWA_CON	27	B	A	Rpleas_acq	Same	Rpleas	2pleas	cond_US_pleas_123_nomask_CS2	condtest_nomask_1	11	5	400	1	300	300	0	0	349	50	1	-16,015625pct	schlau	freundlich	spielen	retten	helfen	schön	schroff	fanatisch	strafen	rächen	hindern	schlecht	loyal	fair	ehrlich	tolerant	lachen	treu	lasch	faul	eitel	tyrannisch	leiden	tot	1	blank2r.bmp	0	1	+	0	1	blank2r.bmp	500	1	GKQX	500	1	blank2r.bmp	880	3	freundlich	880	1	!	1232	1	!	1250	0	0	0	0	0	0
2024-05-14	09:40:44	09:54:44	840006	6.6.1	4_exp_EVA_AWA_CON	27	B	A	Rpleas_acq	Same	Rpleas	2pleas	cond_US_unple_123_nomask_CS1	condtest_nomask_1	11	6	400	0	300	300	0	0	321	46	1	-16,015625pct	schlau	freundlich	spielen	retten	helfen	schön	schroff	fanatisch	strafen	rächen	hindern	schlecht	loyal	fair	ehrlich	tolerant	lachen	treu	lasch	faul	eitel	tyrannisch	leiden	tot	1	blank2r.bmp	0	1	+	0	1	blank2r.bmp	500	1	BMVZ	500	1	blank2r.bmp	880	2	fanatisch	880	1	!	-1	1	!	-1	0	0	0	0	0	0
2024-05-14	09:40:44	09:54:47	842318	6.6.1	4_exp_EVA_AWA_CON	27	B	A	Rpleas_acq	Same	Rpleas	2pleas	cond_new_unple_456_nomask_CS2	condtest_nomask_1	11	7	400	0	300	300	0	0	532	46	1	-16,015625pct	schlau	freundlich	spielen	retten	helfen	schön	schroff	fanatisch	strafen	rächen	hindern	schlecht	loyal	fair	ehrlich	tolerant	lachen	treu	lasch	faul	eitel	tyrannisch	leiden	tot	1	blank2r.bmp	0	1	+	0	1	blank2r.bmp	500	1	GKQX	500	1	blank2r.bmp	880	2	tyrannisch	880	1	!	1232	1	!	-1	0	0	0	0	0	0
2024-05-14	09:40:44	09:54:49	844599	6.6.1	4_exp_EVA_AWA_CON	27	B	A	Rpleas_acq	Same	Rpleas	2pleas	cond_new_pleas_456_nomask_CS1	condtest_nomask_1	11	8	400	0	300	300	0	0	500	46	0	-16,015625pct	schlau	freundlich	spielen	retten	helfen	schön	schroff	fanatisch	strafen	rächen	hindern	schlecht	loyal	fair	ehrlich	tolerant	lachen	treu	lasch	faul	eitel	tyrannisch	leiden	tot	1	blank2r.bmp	0	1	+	0	1	blank2r.bmp	500	1	BMVZ	500	1	blank2r.bmp	880	1	tolerant	880	1	!	1232	1	!	-1	0	0	0	0	0	0
2024-05-14	09:40:44	09:55:07	862536	6.6.1	4_exp_EVA_AWA_CON	27	B	A	Rpleas_acq	Same	Rpleas	2pleas	cond_new_pleas_456_nomask_CS2	condtest_nomask_2	12	1	400	1	300	300	0	0	385	46	0	-16,015625pct	schlau	freundlich	spielen	retten	helfen	schön	schroff	fanatisch	strafen	rächen	hindern	schlecht	loyal	fair	ehrlich	tolerant	lachen	treu	lasch	faul	eitel	tyrannisch	leiden	tot	1	blank2r.bmp	0	1	+	0	1	blank2r.bmp	500	1	GKQX	500	1	blank2r.bmp	880	2	tolerant	880	1	!	1232	1	!	1286	0	0	0	0	0	0
