date	time	currenttime	elapsedtime	build	currentexpt	subject	CS_AB	US_AB	LRpleas_acq	SameOppo	condition_Lpleas	condition_1pleas	trialcode	blockcode	blocknum	trialnum	windowcenter	inwindow	pretrialpause	posttrialpause	trialduration	trialtimeout	latency	response	correct	correctedscore	US_nomask_pleas1	US_nomask_pleas2	US_nomask_pleas3	US_nomask_pleas4	US_nomask_pleas5	US_nomask_pleas6	US_nomask_unple1	US_nomask_unple2	US_nomask_unple3	US_nomask_unple4	US_nomask_unple5	US_nomask_unple6	new_nomask_pleas1	new_nomask_pleas2	new_nomask_pleas3	new_nomask_pleas4	new_nomask_pleas5	new_nomask_pleas6	new_nomask_unple1	new_nomask_unple2	new_nomask_unple3	new_nomask_unple4	new_nomask_unple5	new_nomask_unple6	stimulusnumber1	stimulusitem1	stimulusonset1	stimulusnumber2	stimulusitem2	stimulusonset2	stimulusnumber3	stimulusitem3	stimulusonset3	stimulusnumber4	stimulusitem4	stimulusonset4	stimulusnumber5	stimulusitem5	stimulusonset5	stimulusnumber6	stimulusitem6	stimulusonset6	stimulusnumber7	stimulusitem7	stimulusonset7	stimulusnumber8	stimulusitem8	stimulusonset8	stimulusnumber9	stimulusitem9	stimulusonset9	stimulusnumber10	stimulusitem10	stimulusonset10
2024-05-02	09:54:28	09:56:09	100460	6.6.1	4_exp_EVA_AWA_CON	7	A	B	Rpleas_acq	Same	Rpleas	2pleas	acq_new_pleas_nomask	acq1_nomask	1	1	0	0	300	300	0	0	3680	50	1	0	kuss	gütig	träumen	vertrauen	anregung	sonnig	krise	gierig	töten	versagen	ausrottung	sterben	besonnen	genießen	vergnügt	gesittet	kreativ	engagiert	bange	gemein	verbissen	geizig	krank	engstirnig	1	blank2r.bmp	0	1	+	0	1	blank2r.bmp	500	7	C3r.bmp	500	1	blank2r.bmp	880	5	kreativ	880	0	0	0	0	0	0	0	0	0	0	0	0
2024-05-02	09:54:28	09:56:12	103005	6.6.1	4_exp_EVA_AWA_CON	7	A	B	Rpleas_acq	Same	Rpleas	2pleas	acq_US_unple_nomask	acq1_nomask	1	2	0	0	300	300	0	0	1061	46	1	0	kuss	gütig	träumen	vertrauen	anregung	sonnig	krise	gierig	töten	versagen	ausrottung	sterben	besonnen	genießen	vergnügt	gesittet	kreativ	engagiert	bange	gemein	verbissen	geizig	krank	engstirnig	1	blank2r.bmp	0	1	+	0	1	blank2r.bmp	500	1	CPLW	500	1	blank2r.bmp	880	3	töten	880	0	0	0	0	0	0	0	0	0	0	0	0
2024-05-02	09:54:28	09:56:14	105292	6.6.1	4_exp_EVA_AWA_CON	7	A	B	Rpleas_acq	Same	Rpleas	2pleas	acq_US_pleas_nomask	acq1_nomask	1	3	0	0	300	300	0	0	807	50	1	0	kuss	gütig	träumen	vertrauen	anregung	sonnig	krise	gierig	töten	versagen	ausrottung	sterben	besonnen	genießen	vergnügt	gesittet	kreativ	engagiert	bange	gemein	verbissen	geizig	krank	engstirnig	1	blank2r.bmp	0	1	+	0	1	blank2r.bmp	500	1	DHJF	500	1	blank2r.bmp	880	3	träumen	880	0	0	0	0	0	0	0	0	0	0	0	0
2024-05-02	09:54:28	09:56:16	107564	6.6.1	4_exp_EVA_AWA_CON	7	A	B	Rpleas_acq	Same	Rpleas	2pleas	acq_US_unple_nomask	acq1_nomask	1	4	0	0	300	300	0	0	788	46	1	0	kuss	gütig	träumen	vertrauen	anregung	sonnig	krise	gierig	töten	versagen	ausrottung	sterben	besonnen	genießen	vergnügt	gesittet	kreativ	engagiert	bange	gemein	verbissen	geizig	krank	engstirnig	1	blank2r.bmp	0	1	+	0	1	blank2r.bmp	500	1	CPLW	500	1	blank2r.bmp	880	1	krise	880	0	0	0	0	0	0	0	0	0	0	0	0
2024-05-02	09:54:28	09:56:18	109684	6.6.1	4_exp_EVA_AWA_CON	7	A	B	Rpleas_acq	Same	Rpleas	2pleas	acq_new_pleas_nomask	acq1_nomask	1	5	0	0	300	300	0	0	636	50	1	0	kuss	gütig	träumen	vertrauen	anregung	sonnig	krise	gierig	töten	versagen	ausrottung	sterben	besonnen	genießen	vergnügt	gesittet	kreativ	engagiert	bange	gemein	verbissen	geizig	krank	engstirnig	1	blank2r.bmp	0	1	+	0	1	blank2r.bmp	500	4	B4r.bmp	500	1	blank2r.bmp	880	2	genießen	880	0	0	0	0	0	0	0	0	0	0	0	0
2024-05-02	09:54:28	09:56:20	111884	6.6.1	4_exp_EVA_AWA_CON	7	A	B	Rpleas_acq	Same	Rpleas	2pleas	acq_new_unple_nomask	acq1_nomask	1	6	0	0	300	300	0	0	715	46	1	0	kuss	gütig	träumen	vertrauen	anregung	sonnig	krise	gierig	töten	versagen	ausrottung	sterben	besonnen	genießen	vergnügt	gesittet	kreativ	engagiert	bange	gemein	verbissen	geizig	krank	engstirnig	1	blank2r.bmp	0	1	+	0	1	blank2r.bmp	500	6	C2r.bmp	500	1	blank2r.bmp	880	5	krank	880	0	0	0	0	0	0	0	0	0	0	0	0
2024-05-02	09:54:28	09:56:22	113996	6.6.1	4_exp_EVA_AWA_CON	7	A	B	Rpleas_acq	Same	Rpleas	2pleas	acq_new_pleas_nomask	acq1_nomask	1	7	0	0	300	300	0	0	625	50	1	0	kuss	gütig	träumen	vertrauen	anregung	sonnig	krise	gierig	töten	versagen	ausrottung	sterben	besonnen	genießen	vergnügt	gesittet	kreativ	engagiert	bange	gemein	verbissen	geizig	krank	engstirnig	1	blank2r.bmp	0	1	+	0	1	blank2r.bmp	500	8	C4r.bmp	500	1	blank2r.bmp	880	6	engagiert	880	0	0	0	0	0	0	0	0	0	0	0	0
2024-05-02	09:54:28	09:56:26	117020	6.6.1	4_exp_EVA_AWA_CON	7	A	B	Rpleas_acq	Same	Rpleas	2pleas	acq_new_unple_nomask	acq1_nomask	1	8	0	0	300	300	0	0	1538	46	1	0	kuss	gütig	träumen	vertrauen	anregung	sonnig	krise	gierig	töten	versagen	ausrottung	sterben	besonnen	genießen	vergnügt	gesittet	kreativ	engagiert	bange	gemein	verbissen	geizig	krank	engstirnig	1	blank2r.bmp	0	1	+	0	1	blank2r.bmp	500	5	C1r.bmp	500	1	blank2r.bmp	880	6	engstirnig	880	0	0	0	0	0	0	0	0	0	0	0	0
2024-05-02	09:54:28	09:56:28	119500	6.6.1	4_exp_EVA_AWA_CON	7	A	B	Rpleas_acq	Same	Rpleas	2pleas	acq_new_unple_nomask	acq1_nomask	1	9	0	0	300	300	0	0	996	46	1	0	kuss	gütig	träumen	vertrauen	anregung	sonnig	krise	gierig	töten	versagen	ausrottung	sterben	besonnen	genießen	vergnügt	gesittet	kreativ	engagiert	bange	gemein	verbissen	geizig	krank	engstirnig	1	blank2r.bmp	0	1	+	0	1	blank2r.bmp	500	1	B1r.bmp	500	1	blank2r.bmp	880	3	verbissen	880	0	0	0	0	0	0	0	0	0	0	0	0
2024-05-02	09:54:28	09:56:30	121788	6.6.1	4_exp_EVA_AWA_CON	7	A	B	Rpleas_acq	Same	Rpleas	2pleas	acq_US_unple_nomask	acq1_nomask	1	10	0	0	300	300	0	0	802	46	1	0	kuss	gütig	träumen	vertrauen	anregung	sonnig	krise	gierig	töten	versagen	ausrottung	sterben	besonnen	genießen	vergnügt	gesittet	kreativ	engagiert	bange	gemein	verbissen	geizig	krank	engstirnig	1	blank2r.bmp	0	1	+	0	1	blank2r.bmp	500	1	CPLW	500	1	blank2r.bmp	880	4	versagen	880	0	0	0	0	0	0	0	0	0	0	0	0
2024-05-02	09:54:28	09:56:32	123868	6.6.1	4_exp_EVA_AWA_CON	7	A	B	Rpleas_acq	Same	Rpleas	2pleas	acq_US_pleas_nomask	acq1_nomask	1	11	0	0	300	300	0	0	591	50	1	0	kuss	gütig	träumen	vertrauen	anregung	sonnig	krise	gierig	töten	versagen	ausrottung	sterben	besonnen	genießen	vergnügt	gesittet	kreativ	engagiert	bange	gemein	verbissen	geizig	krank	engstirnig	1	blank2r.bmp	0	1	+	0	1	blank2r.bmp	500	1	DHJF	500	1	blank2r.bmp	880	1	kuss	880	0	0	0	0	0	0	0	0	0	0	0	0
2024-05-02	09:54:28	09:56:35	126020	6.6.1	4_exp_EVA_AWA_CON	7	A	B	Rpleas_acq	Same	Rpleas	2pleas	acq_US_pleas_nomask	acq1_nomask	1	12	0	0	300	300	0	0	672	50	1	0	kuss	gütig	träumen	vertrauen	anregung	sonnig	krise	gierig	töten	versagen	ausrottung	sterben	besonnen	genießen	vergnügt	gesittet	kreativ	engagiert	bange	gemein	verbissen	geizig	krank	engstirnig	1	blank2r.bmp	0	1	+	0	1	blank2r.bmp	500	1	DHJF	500	1	blank2r.bmp	880	4	vertrauen	880	0	0	0	0	0	0	0	0	0	0	0	0
2024-05-02	09:54:28	09:56:37	128116	6.6.1	4_exp_EVA_AWA_CON	7	A	B	Rpleas_acq	Same	Rpleas	2pleas	acq_US_pleas_nomask	acq1_nomask	1	13	0	0	300	300	0	0	606	50	1	0	kuss	gütig	träumen	vertrauen	anregung	sonnig	krise	gierig	töten	versagen	ausrottung	sterben	besonnen	genießen	vergnügt	gesittet	kreativ	engagiert	bange	gemein	verbissen	geizig	krank	engstirnig	1	blank2r.bmp	0	1	+	0	1	blank2r.bmp	500	1	DHJF	500	1	blank2r.bmp	880	2	gütig	880	0	0	0	0	0	0	0	0	0	0	0	0
2024-05-02	09:54:28	09:56:39	130300	6.6.1	4_exp_EVA_AWA_CON	7	A	B	Rpleas_acq	Same	Rpleas	2pleas	acq_new_pleas_nomask	acq1_nomask	1	14	0	0	300	300	0	0	699	50	1	0	kuss	gütig	träumen	vertrauen	anregung	sonnig	krise	gierig	töten	versagen	ausrottung	sterben	besonnen	genießen	vergnügt	gesittet	kreativ	engagiert	bange	gemein	verbissen	geizig	krank	engstirnig	1	blank2r.bmp	0	1	+	0	1	blank2r.bmp	500	2	B2r.bmp	500	1	blank2r.bmp	880	3	vergnügt	880	0	0	0	0	0	0	0	0	0	0	0	0
2024-05-02	09:54:28	09:56:41	132316	6.6.1	4_exp_EVA_AWA_CON	7	A	B	Rpleas_acq	Same	Rpleas	2pleas	acq_US_unple_nomask	acq1_nomask	1	15	0	0	300	300	0	0	533	46	1	0	kuss	gütig	träumen	vertrauen	anregung	sonnig	krise	gierig	töten	versagen	ausrottung	sterben	besonnen	genießen	vergnügt	gesittet	kreativ	engagiert	bange	gemein	verbissen	geizig	krank	engstirnig	1	blank2r.bmp	0	1	+	0	1	blank2r.bmp	500	1	CPLW	500	1	blank2r.bmp	880	6	sterben	880	0	0	0	0	0	0	0	0	0	0	0	0
2024-05-02	09:54:28	09:56:43	134845	6.6.1	4_exp_EVA_AWA_CON	7	A	B	Rpleas_acq	Same	Rpleas	2pleas	acq_US_pleas_nomask	acq1_nomask	1	16	0	0	300	300	0	0	1040	50	1	0	kuss	gütig	träumen	vertrauen	anregung	sonnig	krise	gierig	töten	versagen	ausrottung	sterben	besonnen	genießen	vergnügt	gesittet	kreativ	engagiert	bange	gemein	verbissen	geizig	krank	engstirnig	1	blank2r.bmp	0	1	+	0	1	blank2r.bmp	500	1	DHJF	500	1	blank2r.bmp	880	5	anregung	880	0	0	0	0	0	0	0	0	0	0	0	0
2024-05-02	09:54:28	09:56:47	138285	6.6.1	4_exp_EVA_AWA_CON	7	A	B	Rpleas_acq	Same	Rpleas	2pleas	acq_US_unple_nomask	acq1_nomask	1	17	0	0	300	300	0	0	1758	50	0	0	kuss	gütig	träumen	vertrauen	anregung	sonnig	krise	gierig	töten	versagen	ausrottung	sterben	besonnen	genießen	vergnügt	gesittet	kreativ	engagiert	bange	gemein	verbissen	geizig	krank	engstirnig	1	blank2r.bmp	0	1	+	0	1	blank2r.bmp	500	1	CPLW	500	1	blank2r.bmp	880	2	gierig	880	1	FEHLER	2660	0	0	0	0	0	0	0	0	0
2024-05-02	09:54:28	09:56:50	141814	6.6.1	4_exp_EVA_AWA_CON	7	A	B	Rpleas_acq	Same	Rpleas	2pleas	acq_new_unple_nomask	acq1_nomask	1	18	0	0	300	300	0	0	2044	50	0	0	kuss	gütig	träumen	vertrauen	anregung	sonnig	krise	gierig	töten	versagen	ausrottung	sterben	besonnen	genießen	vergnügt	gesittet	kreativ	engagiert	bange	gemein	verbissen	geizig	krank	engstirnig	1	blank2r.bmp	0	1	+	0	1	blank2r.bmp	500	3	B3r.bmp	500	1	blank2r.bmp	880	4	geizig	880	1	FEHLER	2946	0	0	0	0	0	0	0	0	0
2024-05-02	09:54:28	09:56:53	144292	6.6.1	4_exp_EVA_AWA_CON	7	A	B	Rpleas_acq	Same	Rpleas	2pleas	acq_US_unple_nomask	acq1_nomask	1	19	0	0	300	300	0	0	1192	46	1	0	kuss	gütig	träumen	vertrauen	anregung	sonnig	krise	gierig	töten	versagen	ausrottung	sterben	besonnen	genießen	vergnügt	gesittet	kreativ	engagiert	bange	gemein	verbissen	geizig	krank	engstirnig	1	blank2r.bmp	0	1	+	0	1	blank2r.bmp	500	1	CPLW	500	1	blank2r.bmp	880	5	ausrottung	880	0	0	0	0	0	0	0	0	0	0	0	0
2024-05-02	09:54:28	09:56:56	147148	6.6.1	4_exp_EVA_AWA_CON	7	A	B	Rpleas_acq	Same	Rpleas	2pleas	acq_new_unple_nomask	acq1_nomask	1	20	0	0	300	300	0	0	1366	46	1	0	kuss	gütig	träumen	vertrauen	anregung	sonnig	krise	gierig	töten	versagen	ausrottung	sterben	besonnen	genießen	vergnügt	gesittet	kreativ	engagiert	bange	gemein	verbissen	geizig	krank	engstirnig	1	blank2r.bmp	0	1	+	0	1	blank2r.bmp	500	5	C1r.bmp	500	1	blank2r.bmp	880	1	bange	880	0	0	0	0	0	0	0	0	0	0	0	0
2024-05-02	09:54:28	09:56:58	149492	6.6.1	4_exp_EVA_AWA_CON	7	A	B	Rpleas_acq	Same	Rpleas	2pleas	acq_US_pleas_nomask	acq1_nomask	1	21	0	0	300	300	0	0	858	50	1	0	kuss	gütig	träumen	vertrauen	anregung	sonnig	krise	gierig	töten	versagen	ausrottung	sterben	besonnen	genießen	vergnügt	gesittet	kreativ	engagiert	bange	gemein	verbissen	geizig	krank	engstirnig	1	blank2r.bmp	0	1	+	0	1	blank2r.bmp	500	1	DHJF	500	1	blank2r.bmp	880	6	sonnig	880	0	0	0	0	0	0	0	0	0	0	0	0
2024-05-02	09:54:28	09:57:01	152156	6.6.1	4_exp_EVA_AWA_CON	7	A	B	Rpleas_acq	Same	Rpleas	2pleas	acq_new_unple_nomask	acq1_nomask	1	22	0	0	300	300	0	0	1181	46	1	0	kuss	gütig	träumen	vertrauen	anregung	sonnig	krise	gierig	töten	versagen	ausrottung	sterben	besonnen	genießen	vergnügt	gesittet	kreativ	engagiert	bange	gemein	verbissen	geizig	krank	engstirnig	1	blank2r.bmp	0	1	+	0	1	blank2r.bmp	500	2	B2r.bmp	500	1	blank2r.bmp	880	2	gemein	880	0	0	0	0	0	0	0	0	0	0	0	0
2024-05-02	09:54:28	09:57:03	154556	6.6.1	4_exp_EVA_AWA_CON	7	A	B	Rpleas_acq	Same	Rpleas	2pleas	acq_new_pleas_nomask	acq1_nomask	1	23	0	0	300	300	0	0	919	50	1	0	kuss	gütig	träumen	vertrauen	anregung	sonnig	krise	gierig	töten	versagen	ausrottung	sterben	besonnen	genießen	vergnügt	gesittet	kreativ	engagiert	bange	gemein	verbissen	geizig	krank	engstirnig	1	blank2r.bmp	0	1	+	0	1	blank2r.bmp	500	4	B4r.bmp	500	1	blank2r.bmp	880	4	gesittet	880	0	0	0	0	0	0	0	0	0	0	0	0
2024-05-02	09:54:28	09:57:05	156772	6.6.1	4_exp_EVA_AWA_CON	7	A	B	Rpleas_acq	Same	Rpleas	2pleas	acq_new_pleas_nomask	acq1_nomask	1	24	0	0	300	300	0	0	733	50	1	0	kuss	gütig	träumen	vertrauen	anregung	sonnig	krise	gierig	töten	versagen	ausrottung	sterben	besonnen	genießen	vergnügt	gesittet	kreativ	engagiert	bange	gemein	verbissen	geizig	krank	engstirnig	1	blank2r.bmp	0	1	+	0	1	blank2r.bmp	500	8	C4r.bmp	500	1	blank2r.bmp	880	1	besonnen	880	0	0	0	0	0	0	0	0	0	0	0	0
2024-05-02	09:54:28	09:57:07	158941	6.6.1	4_exp_EVA_AWA_CON	7	A	B	Rpleas_acq	Same	Rpleas	2pleas	acq_US_unple_nomask	acq1_nomask	1	25	0	0	300	300	0	0	680	46	1	0	kuss	gütig	träumen	vertrauen	anregung	sonnig	krise	gierig	töten	versagen	ausrottung	sterben	besonnen	genießen	vergnügt	gesittet	kreativ	engagiert	bange	gemein	verbissen	geizig	krank	engstirnig	1	blank2r.bmp	0	1	+	0	1	blank2r.bmp	500	1	CPLW	500	1	blank2r.bmp	880	5	ausrottung	880	0	0	0	0	0	0	0	0	0	0	0	0
2024-05-02	09:54:28	09:57:09	160988	6.6.1	4_exp_EVA_AWA_CON	7	A	B	Rpleas_acq	Same	Rpleas	2pleas	acq_US_pleas_nomask	acq1_nomask	1	26	0	0	300	300	0	0	567	50	1	0	kuss	gütig	träumen	vertrauen	anregung	sonnig	krise	gierig	töten	versagen	ausrottung	sterben	besonnen	genießen	vergnügt	gesittet	kreativ	engagiert	bange	gemein	verbissen	geizig	krank	engstirnig	1	blank2r.bmp	0	1	+	0	1	blank2r.bmp	500	1	DHJF	500	1	blank2r.bmp	880	3	träumen	880	0	0	0	0	0	0	0	0	0	0	0	0
2024-05-02	09:54:28	09:57:12	163220	6.6.1	4_exp_EVA_AWA_CON	7	A	B	Rpleas_acq	Same	Rpleas	2pleas	acq_US_unple_nomask	acq1_nomask	1	27	0	0	300	300	0	0	747	46	1	0	kuss	gütig	träumen	vertrauen	anregung	sonnig	krise	gierig	töten	versagen	ausrottung	sterben	besonnen	genießen	vergnügt	gesittet	kreativ	engagiert	bange	gemein	verbissen	geizig	krank	engstirnig	1	blank2r.bmp	0	1	+	0	1	blank2r.bmp	500	1	CPLW	500	1	blank2r.bmp	880	4	versagen	880	0	0	0	0	0	0	0	0	0	0	0	0
2024-05-02	09:54:28	09:57:14	165852	6.6.1	4_exp_EVA_AWA_CON	7	A	B	Rpleas_acq	Same	Rpleas	2pleas	acq_US_pleas_nomask	acq1_nomask	1	28	0	0	300	300	0	0	1148	50	1	0	kuss	gütig	träumen	vertrauen	anregung	sonnig	krise	gierig	töten	versagen	ausrottung	sterben	besonnen	genießen	vergnügt	gesittet	kreativ	engagiert	bange	gemein	verbissen	geizig	krank	engstirnig	1	blank2r.bmp	0	1	+	0	1	blank2r.bmp	500	1	DHJF	500	1	blank2r.bmp	880	4	vertrauen	880	0	0	0	0	0	0	0	0	0	0	0	0
2024-05-02	09:54:28	09:57:17	168348	6.6.1	4_exp_EVA_AWA_CON	7	A	B	Rpleas_acq	Same	Rpleas	2pleas	acq_new_unple_nomask	acq1_nomask	1	29	0	0	300	300	0	0	1012	46	1	0	kuss	gütig	träumen	vertrauen	anregung	sonnig	krise	gierig	töten	versagen	ausrottung	sterben	besonnen	genießen	vergnügt	gesittet	kreativ	engagiert	bange	gemein	verbissen	geizig	krank	engstirnig	1	blank2r.bmp	0	1	+	0	1	blank2r.bmp	500	1	B1r.bmp	500	1	blank2r.bmp	880	2	gemein	880	0	0	0	0	0	0	0	0	0	0	0	0
2024-05-02	09:54:28	09:57:19	170589	6.6.1	4_exp_EVA_AWA_CON	7	A	B	Rpleas_acq	Same	Rpleas	2pleas	acq_new_unple_nomask	acq1_nomask	1	30	0	0	300	300	0	0	750	46	1	0	kuss	gütig	träumen	vertrauen	anregung	sonnig	krise	gierig	töten	versagen	ausrottung	sterben	besonnen	genießen	vergnügt	gesittet	kreativ	engagiert	bange	gemein	verbissen	geizig	krank	engstirnig	1	blank2r.bmp	0	1	+	0	1	blank2r.bmp	500	7	C3r.bmp	500	1	blank2r.bmp	880	5	krank	880	0	0	0	0	0	0	0	0	0	0	0	0
2024-05-02	09:54:28	09:57:21	172948	6.6.1	4_exp_EVA_AWA_CON	7	A	B	Rpleas_acq	Same	Rpleas	2pleas	acq_new_pleas_nomask	acq1_nomask	1	31	0	0	300	300	0	0	879	50	1	0	kuss	gütig	träumen	vertrauen	anregung	sonnig	krise	gierig	töten	versagen	ausrottung	sterben	besonnen	genießen	vergnügt	gesittet	kreativ	engagiert	bange	gemein	verbissen	geizig	krank	engstirnig	1	blank2r.bmp	0	1	+	0	1	blank2r.bmp	500	3	B3r.bmp	500	1	blank2r.bmp	880	6	engagiert	880	0	0	0	0	0	0	0	0	0	0	0	0
2024-05-02	09:54:28	09:57:24	175164	6.6.1	4_exp_EVA_AWA_CON	7	A	B	Rpleas_acq	Same	Rpleas	2pleas	acq_US_pleas_nomask	acq1_nomask	1	32	0	0	300	300	0	0	733	50	1	0	kuss	gütig	träumen	vertrauen	anregung	sonnig	krise	gierig	töten	versagen	ausrottung	sterben	besonnen	genießen	vergnügt	gesittet	kreativ	engagiert	bange	gemein	verbissen	geizig	krank	engstirnig	1	blank2r.bmp	0	1	+	0	1	blank2r.bmp	500	1	DHJF	500	1	blank2r.bmp	880	5	anregung	880	0	0	0	0	0	0	0	0	0	0	0	0
2024-05-02	09:54:28	09:57:26	177228	6.6.1	4_exp_EVA_AWA_CON	7	A	B	Rpleas_acq	Same	Rpleas	2pleas	acq_new_pleas_nomask	acq1_nomask	1	33	0	0	300	300	0	0	576	50	1	0	kuss	gütig	träumen	vertrauen	anregung	sonnig	krise	gierig	töten	versagen	ausrottung	sterben	besonnen	genießen	vergnügt	gesittet	kreativ	engagiert	bange	gemein	verbissen	geizig	krank	engstirnig	1	blank2r.bmp	0	1	+	0	1	blank2r.bmp	500	6	C2r.bmp	500	1	blank2r.bmp	880	2	genießen	880	0	0	0	0	0	0	0	0	0	0	0	0
2024-05-02	09:54:28	09:57:28	179245	6.6.1	4_exp_EVA_AWA_CON	7	A	B	Rpleas_acq	Same	Rpleas	2pleas	acq_US_unple_nomask	acq1_nomask	1	34	0	0	300	300	0	0	531	46	1	0	kuss	gütig	träumen	vertrauen	anregung	sonnig	krise	gierig	töten	versagen	ausrottung	sterben	besonnen	genießen	vergnügt	gesittet	kreativ	engagiert	bange	gemein	verbissen	geizig	krank	engstirnig	1	blank2r.bmp	0	1	+	0	1	blank2r.bmp	500	1	CPLW	500	1	blank2r.bmp	880	3	töten	880	0	0	0	0	0	0	0	0	0	0	0	0
2024-05-02	09:54:28	09:57:30	181580	6.6.1	4_exp_EVA_AWA_CON	7	A	B	Rpleas_acq	Same	Rpleas	2pleas	acq_new_unple_nomask	acq1_nomask	1	35	0	0	300	300	0	0	855	46	1	0	kuss	gütig	träumen	vertrauen	anregung	sonnig	krise	gierig	töten	versagen	ausrottung	sterben	besonnen	genießen	vergnügt	gesittet	kreativ	engagiert	bange	gemein	verbissen	geizig	krank	engstirnig	1	blank2r.bmp	0	1	+	0	1	blank2r.bmp	500	1	B1r.bmp	500	1	blank2r.bmp	880	6	engstirnig	880	0	0	0	0	0	0	0	0	0	0	0	0
2024-05-02	09:54:28	09:57:32	183740	6.6.1	4_exp_EVA_AWA_CON	7	A	B	Rpleas_acq	Same	Rpleas	2pleas	acq_new_pleas_nomask	acq1_nomask	1	36	0	0	300	300	0	0	674	50	1	0	kuss	gütig	träumen	vertrauen	anregung	sonnig	krise	gierig	töten	versagen	ausrottung	sterben	besonnen	genießen	vergnügt	gesittet	kreativ	engagiert	bange	gemein	verbissen	geizig	krank	engstirnig	1	blank2r.bmp	0	1	+	0	1	blank2r.bmp	500	5	C1r.bmp	500	1	blank2r.bmp	880	3	vergnügt	880	0	0	0	0	0	0	0	0	0	0	0	0
2024-05-02	09:54:28	09:58:06	217622	6.6.1	4_exp_EVA_AWA_CON	7	A	B	Rpleas_acq	Same	Rpleas	2pleas	acq_new_unple_nomask	acq2_nomask	2	1	480	0	300	300	0	0	5867	46	1	0	kuss	gütig	träumen	vertrauen	anregung	sonnig	krise	gierig	töten	versagen	ausrottung	sterben	besonnen	genießen	vergnügt	gesittet	kreativ	engagiert	bange	gemein	verbissen	geizig	krank	engstirnig	1	blank2r.bmp	0	1	+	0	1	blank2r.bmp	500	8	C4r.bmp	500	1	blank2r.bmp	880	3	verbissen	880	1	!	1313	1	!	-1	0	0	0	0	0	0
2024-05-02	09:54:28	09:58:09	220262	6.6.1	4_exp_EVA_AWA_CON	7	A	B	Rpleas_acq	Same	Rpleas	2pleas	acq_new_pleas_nomask	acq2_nomask	2	2	480	0	300	300	0	0	862	50	1	0	kuss	gütig	träumen	vertrauen	anregung	sonnig	krise	gierig	töten	versagen	ausrottung	sterben	besonnen	genießen	vergnügt	gesittet	kreativ	engagiert	bange	gemein	verbissen	geizig	krank	engstirnig	1	blank2r.bmp	0	1	+	0	1	blank2r.bmp	500	6	C2r.bmp	500	1	blank2r.bmp	880	5	kreativ	880	1	!	1313	1	!	-1	0	0	0	0	0	0
2024-05-02	09:54:28	09:58:12	223074	6.6.1	4_exp_EVA_AWA_CON	7	A	B	Rpleas_acq	Same	Rpleas	2pleas	acq_new_pleas_nomask	acq2_nomask	2	3	480	0	300	300	0	0	829	46	0	0	kuss	gütig	träumen	vertrauen	anregung	sonnig	krise	gierig	töten	versagen	ausrottung	sterben	besonnen	genießen	vergnügt	gesittet	kreativ	engagiert	bange	gemein	verbissen	geizig	krank	engstirnig	1	blank2r.bmp	0	1	+	0	1	blank2r.bmp	500	4	B4r.bmp	500	1	blank2r.bmp	880	4	gesittet	880	1	FEHLER	2023	1	!	1313	1	!	-1	0	0	0
2024-05-02	09:54:28	09:58:14	225215	6.6.1	4_exp_EVA_AWA_CON	7	A	B	Rpleas_acq	Same	Rpleas	2pleas	acq_new_unple_nomask	acq2_nomask	2	4	480	0	300	300	0	0	571	46	1	0	kuss	gütig	träumen	vertrauen	anregung	sonnig	krise	gierig	töten	versagen	ausrottung	sterben	besonnen	genießen	vergnügt	gesittet	kreativ	engagiert	bange	gemein	verbissen	geizig	krank	engstirnig	1	blank2r.bmp	0	1	+	0	1	blank2r.bmp	500	2	B2r.bmp	500	1	blank2r.bmp	880	4	geizig	880	1	!	1313	1	!	-1	0	0	0	0	0	0
2024-05-02	09:54:28	09:58:16	227593	6.6.1	4_exp_EVA_AWA_CON	7	A	B	Rpleas_acq	Same	Rpleas	2pleas	acq_US_unple_nomask	acq2_nomask	2	5	480	0	300	300	0	0	395	50	0	0	kuss	gütig	träumen	vertrauen	anregung	sonnig	krise	gierig	töten	versagen	ausrottung	sterben	besonnen	genießen	vergnügt	gesittet	kreativ	engagiert	bange	gemein	verbissen	geizig	krank	engstirnig	1	blank2r.bmp	0	1	+	0	1	blank2r.bmp	500	1	CPLW	500	1	blank2r.bmp	880	2	gierig	880	1	FEHLER	1588	1	!	-1	1	!	-1	0	0	0
2024-05-02	09:54:28	09:58:18	229672	6.6.1	4_exp_EVA_AWA_CON	7	A	B	Rpleas_acq	Same	Rpleas	2pleas	acq_US_unple_nomask	acq2_nomask	2	6	480	1	300	300	0	0	504	46	1	0	kuss	gütig	träumen	vertrauen	anregung	sonnig	krise	gierig	töten	versagen	ausrottung	sterben	besonnen	genießen	vergnügt	gesittet	kreativ	engagiert	bange	gemein	verbissen	geizig	krank	engstirnig	1	blank2r.bmp	0	1	+	0	1	blank2r.bmp	500	1	CPLW	500	1	blank2r.bmp	880	1	krise	880	1	!	1313	1	!	1405	0	0	0	0	0	0
2024-05-02	09:54:28	09:58:20	231880	6.6.1	4_exp_EVA_AWA_CON	7	A	B	Rpleas_acq	Same	Rpleas	2pleas	acq_US_pleas_nomask	acq2_nomask	2	7	480	1	300	300	0	0	430	50	1	0	kuss	gütig	träumen	vertrauen	anregung	sonnig	krise	gierig	töten	versagen	ausrottung	sterben	besonnen	genießen	vergnügt	gesittet	kreativ	engagiert	bange	gemein	verbissen	geizig	krank	engstirnig	1	blank2r.bmp	0	1	+	0	1	blank2r.bmp	500	1	DHJF	500	1	blank2r.bmp	880	1	kuss	880	1	!	1313	1	!	1332	0	0	0	0	0	0
2024-05-02	09:54:28	09:58:23	234136	6.6.1	4_exp_EVA_AWA_CON	7	A	B	Rpleas_acq	Same	Rpleas	2pleas	acq_new_unple_nomask	acq2_nomask	2	8	480	1	300	300	0	0	475	46	1	0	kuss	gütig	träumen	vertrauen	anregung	sonnig	krise	gierig	töten	versagen	ausrottung	sterben	besonnen	genießen	vergnügt	gesittet	kreativ	engagiert	bange	gemein	verbissen	geizig	krank	engstirnig	1	blank2r.bmp	0	1	+	0	1	blank2r.bmp	500	3	B3r.bmp	500	1	blank2r.bmp	880	1	bange	880	1	!	1313	1	!	1376	0	0	0	0	0	0
2024-05-02	09:54:28	09:58:25	236416	6.6.1	4_exp_EVA_AWA_CON	7	A	B	Rpleas_acq	Same	Rpleas	2pleas	acq_US_unple_nomask	acq2_nomask	2	9	480	1	300	300	0	0	503	46	1	0	kuss	gütig	träumen	vertrauen	anregung	sonnig	krise	gierig	töten	versagen	ausrottung	sterben	besonnen	genießen	vergnügt	gesittet	kreativ	engagiert	bange	gemein	verbissen	geizig	krank	engstirnig	1	blank2r.bmp	0	1	+	0	1	blank2r.bmp	500	1	CPLW	500	1	blank2r.bmp	880	6	sterben	880	1	!	1312	1	!	1405	0	0	0	0	0	0
2024-05-02	09:54:28	09:58:27	238606	6.6.1	4_exp_EVA_AWA_CON	7	A	B	Rpleas_acq	Same	Rpleas	2pleas	acq_US_pleas_nomask	acq2_nomask	2	10	480	1	300	300	0	0	414	50	1	0	kuss	gütig	träumen	vertrauen	anregung	sonnig	krise	gierig	töten	versagen	ausrottung	sterben	besonnen	genießen	vergnügt	gesittet	kreativ	engagiert	bange	gemein	verbissen	geizig	krank	engstirnig	1	blank2r.bmp	0	1	+	0	1	blank2r.bmp	500	1	DHJF	500	1	blank2r.bmp	880	2	gütig	880	1	!	1313	1	!	1314	0	0	0	0	0	0
2024-05-02	09:54:28	09:58:29	240766	6.6.1	4_exp_EVA_AWA_CON	7	A	B	Rpleas_acq	Same	Rpleas	2pleas	acq_US_pleas_nomask	acq2_nomask	2	11	480	0	300	300	0	0	383	50	1	0	kuss	gütig	träumen	vertrauen	anregung	sonnig	krise	gierig	töten	versagen	ausrottung	sterben	besonnen	genießen	vergnügt	gesittet	kreativ	engagiert	bange	gemein	verbissen	geizig	krank	engstirnig	1	blank2r.bmp	0	1	+	0	1	blank2r.bmp	500	1	DHJF	500	1	blank2r.bmp	880	6	sonnig	880	1	!	-1	1	!	-1	0	0	0	0	0	0
2024-05-02	09:54:28	09:58:32	243190	6.6.1	4_exp_EVA_AWA_CON	7	A	B	Rpleas_acq	Same	Rpleas	2pleas	acq_new_pleas_nomask	acq2_nomask	2	12	480	0	300	300	0	0	645	50	1	0	kuss	gütig	träumen	vertrauen	anregung	sonnig	krise	gierig	töten	versagen	ausrottung	sterben	besonnen	genießen	vergnügt	gesittet	kreativ	engagiert	bange	gemein	verbissen	geizig	krank	engstirnig	1	blank2r.bmp	0	1	+	0	1	blank2r.bmp	500	7	C3r.bmp	500	1	blank2r.bmp	880	1	besonnen	880	1	!	1313	1	!	-1	0	0	0	0	0	0
2024-05-02	09:54:28	09:58:34	245465	6.6.1	4_exp_EVA_AWA_CON	7	A	B	Rpleas_acq	Same	Rpleas	2pleas	acq_US_unple_nomask	acq2_nomask	2	13	480	0	300	300	0	0	296	50	0	0	kuss	gütig	träumen	vertrauen	anregung	sonnig	krise	gierig	töten	versagen	ausrottung	sterben	besonnen	genießen	vergnügt	gesittet	kreativ	engagiert	bange	gemein	verbissen	geizig	krank	engstirnig	1	blank2r.bmp	0	1	+	0	1	blank2r.bmp	500	1	CPLW	500	1	blank2r.bmp	880	6	sterben	880	1	FEHLER	1489	1	!	-1	1	!	-1	0	0	0
2024-05-02	09:54:28	09:58:36	247454	6.6.1	4_exp_EVA_AWA_CON	7	A	B	Rpleas_acq	Same	Rpleas	2pleas	acq_US_unple_nomask	acq2_nomask	2	14	480	1	300	300	0	0	416	46	1	0	kuss	gütig	träumen	vertrauen	anregung	sonnig	krise	gierig	töten	versagen	ausrottung	sterben	besonnen	genießen	vergnügt	gesittet	kreativ	engagiert	bange	gemein	verbissen	geizig	krank	engstirnig	1	blank2r.bmp	0	1	+	0	1	blank2r.bmp	500	1	CPLW	500	1	blank2r.bmp	880	3	töten	880	1	!	1313	1	!	1316	0	0	0	0	0	0
2024-05-02	09:54:28	09:58:38	249656	6.6.1	4_exp_EVA_AWA_CON	7	A	B	Rpleas_acq	Same	Rpleas	2pleas	acq_new_unple_nomask	acq2_nomask	2	15	480	1	300	300	0	0	425	46	1	0	kuss	gütig	träumen	vertrauen	anregung	sonnig	krise	gierig	töten	versagen	ausrottung	sterben	besonnen	genießen	vergnügt	gesittet	kreativ	engagiert	bange	gemein	verbissen	geizig	krank	engstirnig	1	blank2r.bmp	0	1	+	0	1	blank2r.bmp	500	3	B3r.bmp	500	1	blank2r.bmp	880	5	krank	880	1	!	1312	1	!	1326	0	0	0	0	0	0
2024-05-02	09:54:28	09:58:40	251831	6.6.1	4_exp_EVA_AWA_CON	7	A	B	Rpleas_acq	Same	Rpleas	2pleas	acq_US_pleas_nomask	acq2_nomask	2	16	480	0	300	300	0	0	399	50	1	0	kuss	gütig	träumen	vertrauen	anregung	sonnig	krise	gierig	töten	versagen	ausrottung	sterben	besonnen	genießen	vergnügt	gesittet	kreativ	engagiert	bange	gemein	verbissen	geizig	krank	engstirnig	1	blank2r.bmp	0	1	+	0	1	blank2r.bmp	500	1	DHJF	500	1	blank2r.bmp	880	2	gütig	880	1	!	-1	1	!	-1	0	0	0	0	0	0
2024-05-02	09:54:28	09:58:43	254286	6.6.1	4_exp_EVA_AWA_CON	7	A	B	Rpleas_acq	Same	Rpleas	2pleas	acq_new_pleas_nomask	acq2_nomask	2	17	480	0	300	300	0	0	674	50	1	0	kuss	gütig	träumen	vertrauen	anregung	sonnig	krise	gierig	töten	versagen	ausrottung	sterben	besonnen	genießen	vergnügt	gesittet	kreativ	engagiert	bange	gemein	verbissen	geizig	krank	engstirnig	1	blank2r.bmp	0	1	+	0	1	blank2r.bmp	500	2	B2r.bmp	500	1	blank2r.bmp	880	4	gesittet	880	1	!	1313	1	!	-1	0	0	0	0	0	0
2024-05-02	09:54:28	09:58:45	256592	6.6.1	4_exp_EVA_AWA_CON	7	A	B	Rpleas_acq	Same	Rpleas	2pleas	acq_new_pleas_nomask	acq2_nomask	2	18	480	1	300	300	0	0	526	50	1	0	kuss	gütig	träumen	vertrauen	anregung	sonnig	krise	gierig	töten	versagen	ausrottung	sterben	besonnen	genießen	vergnügt	gesittet	kreativ	engagiert	bange	gemein	verbissen	geizig	krank	engstirnig	1	blank2r.bmp	0	1	+	0	1	blank2r.bmp	500	6	C2r.bmp	500	1	blank2r.bmp	880	3	vergnügt	880	1	!	1313	1	!	1428	0	0	0	0	0	0
2024-05-02	09:54:28	09:58:47	258734	6.6.1	4_exp_EVA_AWA_CON	7	A	B	Rpleas_acq	Same	Rpleas	2pleas	acq_US_pleas_nomask	acq2_nomask	2	19	480	0	300	300	0	0	369	50	1	0	kuss	gütig	träumen	vertrauen	anregung	sonnig	krise	gierig	töten	versagen	ausrottung	sterben	besonnen	genießen	vergnügt	gesittet	kreativ	engagiert	bange	gemein	verbissen	geizig	krank	engstirnig	1	blank2r.bmp	0	1	+	0	1	blank2r.bmp	500	1	DHJF	500	1	blank2r.bmp	880	1	kuss	880	1	!	-1	1	!	-1	0	0	0	0	0	0
2024-05-02	09:54:28	09:58:50	261128	6.6.1	4_exp_EVA_AWA_CON	7	A	B	Rpleas_acq	Same	Rpleas	2pleas	acq_US_pleas_nomask	acq2_nomask	2	20	480	1	300	300	0	0	419	46	0	0	kuss	gütig	träumen	vertrauen	anregung	sonnig	krise	gierig	töten	versagen	ausrottung	sterben	besonnen	genießen	vergnügt	gesittet	kreativ	engagiert	bange	gemein	verbissen	geizig	krank	engstirnig	1	blank2r.bmp	0	1	+	0	1	blank2r.bmp	500	1	DHJF	500	1	blank2r.bmp	880	5	anregung	880	1	FEHLER	1611	1	!	1313	1	!	1319	0	0	0
2024-05-02	09:54:28	09:58:52	263248	6.6.1	4_exp_EVA_AWA_CON	7	A	B	Rpleas_acq	Same	Rpleas	2pleas	acq_new_pleas_nomask	acq2_nomask	2	21	480	1	300	300	0	0	548	50	1	0	kuss	gütig	träumen	vertrauen	anregung	sonnig	krise	gierig	töten	versagen	ausrottung	sterben	besonnen	genießen	vergnügt	gesittet	kreativ	engagiert	bange	gemein	verbissen	geizig	krank	engstirnig	1	blank2r.bmp	0	1	+	0	1	blank2r.bmp	500	4	B4r.bmp	500	1	blank2r.bmp	880	6	engagiert	880	1	!	1313	1	!	1449	0	0	0	0	0	0
2024-05-02	09:54:28	09:58:54	265913	6.6.1	4_exp_EVA_AWA_CON	7	A	B	Rpleas_acq	Same	Rpleas	2pleas	acq_new_unple_nomask	acq2_nomask	2	22	480	0	300	300	0	0	680	50	0	0	kuss	gütig	träumen	vertrauen	anregung	sonnig	krise	gierig	töten	versagen	ausrottung	sterben	besonnen	genießen	vergnügt	gesittet	kreativ	engagiert	bange	gemein	verbissen	geizig	krank	engstirnig	1	blank2r.bmp	0	1	+	0	1	blank2r.bmp	500	1	B1r.bmp	500	1	blank2r.bmp	880	3	verbissen	880	1	FEHLER	1874	1	!	1313	1	!	-1	0	0	0
2024-05-02	09:54:28	09:58:56	267944	6.6.1	4_exp_EVA_AWA_CON	7	A	B	Rpleas_acq	Same	Rpleas	2pleas	acq_US_unple_nomask	acq2_nomask	2	23	480	1	300	300	0	0	451	46	1	0	kuss	gütig	träumen	vertrauen	anregung	sonnig	krise	gierig	töten	versagen	ausrottung	sterben	besonnen	genießen	vergnügt	gesittet	kreativ	engagiert	bange	gemein	verbissen	geizig	krank	engstirnig	1	blank2r.bmp	0	1	+	0	1	blank2r.bmp	500	1	CPLW	500	1	blank2r.bmp	880	4	versagen	880	1	!	1313	1	!	1352	0	0	0	0	0	0
2024-05-02	09:54:28	09:58:59	270126	6.6.1	4_exp_EVA_AWA_CON	7	A	B	Rpleas_acq	Same	Rpleas	2pleas	acq_new_unple_nomask	acq2_nomask	2	24	480	0	300	300	0	0	403	46	1	0	kuss	gütig	träumen	vertrauen	anregung	sonnig	krise	gierig	töten	versagen	ausrottung	sterben	besonnen	genießen	vergnügt	gesittet	kreativ	engagiert	bange	gemein	verbissen	geizig	krank	engstirnig	1	blank2r.bmp	0	1	+	0	1	blank2r.bmp	500	5	C1r.bmp	500	1	blank2r.bmp	880	1	bange	880	1	!	-1	1	!	-1	0	0	0	0	0	0
2024-05-02	09:54:28	09:59:01	272542	6.6.1	4_exp_EVA_AWA_CON	7	A	B	Rpleas_acq	Same	Rpleas	2pleas	acq_US_unple_nomask	acq2_nomask	2	25	480	0	300	300	0	0	638	46	1	0	kuss	gütig	träumen	vertrauen	anregung	sonnig	krise	gierig	töten	versagen	ausrottung	sterben	besonnen	genießen	vergnügt	gesittet	kreativ	engagiert	bange	gemein	verbissen	geizig	krank	engstirnig	1	blank2r.bmp	0	1	+	0	1	blank2r.bmp	500	1	CPLW	500	1	blank2r.bmp	880	5	ausrottung	880	1	!	1313	1	!	-1	0	0	0	0	0	0
2024-05-02	09:54:28	09:59:03	274856	6.6.1	4_exp_EVA_AWA_CON	7	A	B	Rpleas_acq	Same	Rpleas	2pleas	acq_new_unple_nomask	acq2_nomask	2	26	480	1	300	300	0	0	538	46	1	0	kuss	gütig	träumen	vertrauen	anregung	sonnig	krise	gierig	töten	versagen	ausrottung	sterben	besonnen	genießen	vergnügt	gesittet	kreativ	engagiert	bange	gemein	verbissen	geizig	krank	engstirnig	1	blank2r.bmp	0	1	+	0	1	blank2r.bmp	500	7	C3r.bmp	500	1	blank2r.bmp	880	6	engstirnig	880	1	!	1312	1	!	1440	0	0	0	0	0	0
2024-05-02	09:54:28	09:59:06	277189	6.6.1	4_exp_EVA_AWA_CON	7	A	B	Rpleas_acq	Same	Rpleas	2pleas	acq_US_pleas_nomask	acq2_nomask	2	27	480	0	300	300	0	0	554	50	1	0	kuss	gütig	träumen	vertrauen	anregung	sonnig	krise	gierig	töten	versagen	ausrottung	sterben	besonnen	genießen	vergnügt	gesittet	kreativ	engagiert	bange	gemein	verbissen	geizig	krank	engstirnig	1	blank2r.bmp	0	1	+	0	1	blank2r.bmp	500	1	DHJF	500	1	blank2r.bmp	880	6	sonnig	880	1	!	1313	1	!	-1	0	0	0	0	0	0
2024-05-02	09:54:28	09:59:08	279550	6.6.1	4_exp_EVA_AWA_CON	7	A	B	Rpleas_acq	Same	Rpleas	2pleas	acq_US_unple_nomask	acq2_nomask	2	28	480	0	300	300	0	0	581	46	1	0	kuss	gütig	träumen	vertrauen	anregung	sonnig	krise	gierig	töten	versagen	ausrottung	sterben	besonnen	genießen	vergnügt	gesittet	kreativ	engagiert	bange	gemein	verbissen	geizig	krank	engstirnig	1	blank2r.bmp	0	1	+	0	1	blank2r.bmp	500	1	CPLW	500	1	blank2r.bmp	880	1	krise	880	1	!	1312	1	!	-1	0	0	0	0	0	0
2024-05-02	09:54:28	09:59:10	281808	6.6.1	4_exp_EVA_AWA_CON	7	A	B	Rpleas_acq	Same	Rpleas	2pleas	acq_US_pleas_nomask	acq2_nomask	2	29	480	1	300	300	0	0	476	50	1	0	kuss	gütig	träumen	vertrauen	anregung	sonnig	krise	gierig	töten	versagen	ausrottung	sterben	besonnen	genießen	vergnügt	gesittet	kreativ	engagiert	bange	gemein	verbissen	geizig	krank	engstirnig	1	blank2r.bmp	0	1	+	0	1	blank2r.bmp	500	1	DHJF	500	1	blank2r.bmp	880	3	träumen	880	1	!	1312	1	!	1377	0	0	0	0	0	0
2024-05-02	09:54:28	09:59:13	284104	6.6.1	4_exp_EVA_AWA_CON	7	A	B	Rpleas_acq	Same	Rpleas	2pleas	acq_new_pleas_nomask	acq2_nomask	2	30	480	1	300	300	0	0	520	50	1	0	kuss	gütig	träumen	vertrauen	anregung	sonnig	krise	gierig	töten	versagen	ausrottung	sterben	besonnen	genießen	vergnügt	gesittet	kreativ	engagiert	bange	gemein	verbissen	geizig	krank	engstirnig	1	blank2r.bmp	0	1	+	0	1	blank2r.bmp	500	8	C4r.bmp	500	1	blank2r.bmp	880	5	kreativ	880	1	!	1313	1	!	1422	0	0	0	0	0	0
2024-05-02	09:54:28	09:59:15	286392	6.6.1	4_exp_EVA_AWA_CON	7	A	B	Rpleas_acq	Same	Rpleas	2pleas	acq_US_unple_nomask	acq2_nomask	2	31	480	1	300	300	0	0	507	46	1	0	kuss	gütig	träumen	vertrauen	anregung	sonnig	krise	gierig	töten	versagen	ausrottung	sterben	besonnen	genießen	vergnügt	gesittet	kreativ	engagiert	bange	gemein	verbissen	geizig	krank	engstirnig	1	blank2r.bmp	0	1	+	0	1	blank2r.bmp	500	1	CPLW	500	1	blank2r.bmp	880	2	gierig	880	1	!	1312	1	!	1408	0	0	0	0	0	0
2024-05-02	09:54:28	09:59:17	288704	6.6.1	4_exp_EVA_AWA_CON	7	A	B	Rpleas_acq	Same	Rpleas	2pleas	acq_new_pleas_nomask	acq2_nomask	2	32	480	1	300	300	0	0	537	50	1	0	kuss	gütig	träumen	vertrauen	anregung	sonnig	krise	gierig	töten	versagen	ausrottung	sterben	besonnen	genießen	vergnügt	gesittet	kreativ	engagiert	bange	gemein	verbissen	geizig	krank	engstirnig	1	blank2r.bmp	0	1	+	0	1	blank2r.bmp	500	7	C3r.bmp	500	1	blank2r.bmp	880	2	genießen	880	1	!	1312	1	!	1439	0	0	0	0	0	0
2024-05-02	09:54:28	09:59:20	291130	6.6.1	4_exp_EVA_AWA_CON	7	A	B	Rpleas_acq	Same	Rpleas	2pleas	acq_new_unple_nomask	acq2_nomask	2	33	480	1	300	300	0	0	440	50	0	0	kuss	gütig	träumen	vertrauen	anregung	sonnig	krise	gierig	töten	versagen	ausrottung	sterben	besonnen	genießen	vergnügt	gesittet	kreativ	engagiert	bange	gemein	verbissen	geizig	krank	engstirnig	1	blank2r.bmp	0	1	+	0	1	blank2r.bmp	500	2	B2r.bmp	500	1	blank2r.bmp	880	2	gemein	880	1	FEHLER	1634	1	!	1313	1	!	1342	0	0	0
2024-05-02	09:54:28	09:59:22	293294	6.6.1	4_exp_EVA_AWA_CON	7	A	B	Rpleas_acq	Same	Rpleas	2pleas	acq_new_unple_nomask	acq2_nomask	2	34	480	0	300	300	0	0	586	46	1	0	kuss	gütig	träumen	vertrauen	anregung	sonnig	krise	gierig	töten	versagen	ausrottung	sterben	besonnen	genießen	vergnügt	gesittet	kreativ	engagiert	bange	gemein	verbissen	geizig	krank	engstirnig	1	blank2r.bmp	0	1	+	0	1	blank2r.bmp	500	3	B3r.bmp	500	1	blank2r.bmp	880	4	geizig	880	1	!	1313	1	!	-1	0	0	0	0	0	0
2024-05-02	09:54:28	09:59:24	295710	6.6.1	4_exp_EVA_AWA_CON	7	A	B	Rpleas_acq	Same	Rpleas	2pleas	acq_US_pleas_nomask	acq2_nomask	2	35	480	0	300	300	0	0	641	50	1	0	kuss	gütig	träumen	vertrauen	anregung	sonnig	krise	gierig	töten	versagen	ausrottung	sterben	besonnen	genießen	vergnügt	gesittet	kreativ	engagiert	bange	gemein	verbissen	geizig	krank	engstirnig	1	blank2r.bmp	0	1	+	0	1	blank2r.bmp	500	1	DHJF	500	1	blank2r.bmp	880	4	vertrauen	880	1	!	1313	1	!	-1	0	0	0	0	0	0
2024-05-02	09:54:28	09:59:27	298106	6.6.1	4_exp_EVA_AWA_CON	7	A	B	Rpleas_acq	Same	Rpleas	2pleas	acq_new_pleas_nomask	acq2_nomask	2	36	480	1	300	300	0	0	413	46	0	0	kuss	gütig	träumen	vertrauen	anregung	sonnig	krise	gierig	töten	versagen	ausrottung	sterben	besonnen	genießen	vergnügt	gesittet	kreativ	engagiert	bange	gemein	verbissen	geizig	krank	engstirnig	1	blank2r.bmp	0	1	+	0	1	blank2r.bmp	500	6	C2r.bmp	500	1	blank2r.bmp	880	1	besonnen	880	1	FEHLER	1605	1	!	1313	1	!	1313	0	0	0
2024-05-02	09:54:28	09:59:43	314040	6.6.1	4_exp_EVA_AWA_CON	7	A	B	Rpleas_acq	Same	Rpleas	2pleas	acq_US_unple_nomask	acq3_nomask	3	1	453	1	300	300	0	0	437	46	1	0	kuss	gütig	träumen	vertrauen	anregung	sonnig	krise	gierig	töten	versagen	ausrottung	sterben	besonnen	genießen	vergnügt	gesittet	kreativ	engagiert	bange	gemein	verbissen	geizig	krank	engstirnig	1	blank2r.bmp	0	1	+	0	1	blank2r.bmp	500	1	CPLW	500	1	blank2r.bmp	880	6	sterben	880	1	!	1293	1	!	1338	0	0	0	0	0	0
2024-05-02	09:54:28	09:59:45	316490	6.6.1	4_exp_EVA_AWA_CON	7	A	B	Rpleas_acq	Same	Rpleas	2pleas	acq_US_pleas_nomask	acq3_nomask	3	2	453	1	300	300	0	0	473	46	0	0	kuss	gütig	träumen	vertrauen	anregung	sonnig	krise	gierig	töten	versagen	ausrottung	sterben	besonnen	genießen	vergnügt	gesittet	kreativ	engagiert	bange	gemein	verbissen	geizig	krank	engstirnig	1	blank2r.bmp	0	1	+	0	1	blank2r.bmp	500	1	DHJF	500	1	blank2r.bmp	880	5	anregung	880	1	FEHLER	1667	1	!	1293	1	!	1375	0	0	0
2024-05-02	09:54:28	09:59:47	318455	6.6.1	4_exp_EVA_AWA_CON	7	A	B	Rpleas_acq	Same	Rpleas	2pleas	acq_US_pleas_nomask	acq3_nomask	3	3	453	0	300	300	0	0	390	50	1	0	kuss	gütig	träumen	vertrauen	anregung	sonnig	krise	gierig	töten	versagen	ausrottung	sterben	besonnen	genießen	vergnügt	gesittet	kreativ	engagiert	bange	gemein	verbissen	geizig	krank	engstirnig	1	blank2r.bmp	0	1	+	0	1	blank2r.bmp	500	1	DHJF	500	1	blank2r.bmp	880	6	sonnig	880	1	!	-1	1	!	-1	0	0	0	0	0	0
2024-05-02	09:54:28	09:59:49	320887	6.6.1	4_exp_EVA_AWA_CON	7	A	B	Rpleas_acq	Same	Rpleas	2pleas	acq_US_unple_nomask	acq3_nomask	3	4	453	0	300	300	0	0	650	46	1	0	kuss	gütig	träumen	vertrauen	anregung	sonnig	krise	gierig	töten	versagen	ausrottung	sterben	besonnen	genießen	vergnügt	gesittet	kreativ	engagiert	bange	gemein	verbissen	geizig	krank	engstirnig	1	blank2r.bmp	0	1	+	0	1	blank2r.bmp	500	1	CPLW	500	1	blank2r.bmp	880	5	ausrottung	880	1	!	1292	1	!	-1	0	0	0	0	0	0
2024-05-02	09:54:28	09:59:52	323271	6.6.1	4_exp_EVA_AWA_CON	7	A	B	Rpleas_acq	Same	Rpleas	2pleas	acq_US_unple_nomask	acq3_nomask	3	5	453	1	300	300	0	0	403	50	0	0	kuss	gütig	träumen	vertrauen	anregung	sonnig	krise	gierig	töten	versagen	ausrottung	sterben	besonnen	genießen	vergnügt	gesittet	kreativ	engagiert	bange	gemein	verbissen	geizig	krank	engstirnig	1	blank2r.bmp	0	1	+	0	1	blank2r.bmp	500	1	CPLW	500	1	blank2r.bmp	880	1	krise	880	1	FEHLER	1594	1	!	1292	1	!	1302	0	0	0
2024-05-02	09:54:28	09:59:54	325478	6.6.1	4_exp_EVA_AWA_CON	7	A	B	Rpleas_acq	Same	Rpleas	2pleas	acq_US_unple_nomask	acq3_nomask	3	6	453	0	300	300	0	0	629	46	1	0	kuss	gütig	träumen	vertrauen	anregung	sonnig	krise	gierig	töten	versagen	ausrottung	sterben	besonnen	genießen	vergnügt	gesittet	kreativ	engagiert	bange	gemein	verbissen	geizig	krank	engstirnig	1	blank2r.bmp	0	1	+	0	1	blank2r.bmp	500	1	CPLW	500	1	blank2r.bmp	880	2	gierig	880	1	!	1292	1	!	-1	0	0	0	0	0	0
2024-05-02	09:54:28	09:59:56	327574	6.6.1	4_exp_EVA_AWA_CON	7	A	B	Rpleas_acq	Same	Rpleas	2pleas	acq_US_pleas_nomask	acq3_nomask	3	7	453	0	300	300	0	0	324	50	1	0	kuss	gütig	träumen	vertrauen	anregung	sonnig	krise	gierig	töten	versagen	ausrottung	sterben	besonnen	genießen	vergnügt	gesittet	kreativ	engagiert	bange	gemein	verbissen	geizig	krank	engstirnig	1	blank2r.bmp	0	1	+	0	1	blank2r.bmp	500	1	DHJF	500	1	blank2r.bmp	880	1	kuss	880	1	!	-1	1	!	-1	0	0	0	0	0	0
2024-05-02	09:54:28	09:59:58	329833	6.6.1	4_exp_EVA_AWA_CON	7	A	B	Rpleas_acq	Same	Rpleas	2pleas	acq_US_pleas_nomask	acq3_nomask	3	8	453	1	300	300	0	0	478	50	1	0	kuss	gütig	träumen	vertrauen	anregung	sonnig	krise	gierig	töten	versagen	ausrottung	sterben	besonnen	genießen	vergnügt	gesittet	kreativ	engagiert	bange	gemein	verbissen	geizig	krank	engstirnig	1	blank2r.bmp	0	1	+	0	1	blank2r.bmp	500	1	DHJF	500	1	blank2r.bmp	880	2	gütig	880	1	!	1293	1	!	1380	0	0	0	0	0	0
2024-05-02	09:54:28	10:00:01	332064	6.6.1	4_exp_EVA_AWA_CON	7	A	B	Rpleas_acq	Same	Rpleas	2pleas	acq_US_unple_nomask	acq3_nomask	3	9	453	1	300	300	0	0	449	46	1	0	kuss	gütig	träumen	vertrauen	anregung	sonnig	krise	gierig	töten	versagen	ausrottung	sterben	besonnen	genießen	vergnügt	gesittet	kreativ	engagiert	bange	gemein	verbissen	geizig	krank	engstirnig	1	blank2r.bmp	0	1	+	0	1	blank2r.bmp	500	1	CPLW	500	1	blank2r.bmp	880	3	töten	880	1	!	1293	1	!	1350	0	0	0	0	0	0
2024-05-02	09:54:28	10:00:03	334264	6.6.1	4_exp_EVA_AWA_CON	7	A	B	Rpleas_acq	Same	Rpleas	2pleas	acq_US_pleas_nomask	acq3_nomask	3	10	453	1	300	300	0	0	418	50	1	0	kuss	gütig	träumen	vertrauen	anregung	sonnig	krise	gierig	töten	versagen	ausrottung	sterben	besonnen	genießen	vergnügt	gesittet	kreativ	engagiert	bange	gemein	verbissen	geizig	krank	engstirnig	1	blank2r.bmp	0	1	+	0	1	blank2r.bmp	500	1	DHJF	500	1	blank2r.bmp	880	4	vertrauen	880	1	!	1293	1	!	1319	0	0	0	0	0	0
2024-05-02	09:54:28	10:00:05	336537	6.6.1	4_exp_EVA_AWA_CON	7	A	B	Rpleas_acq	Same	Rpleas	2pleas	acq_US_unple_nomask	acq3_nomask	3	11	453	1	300	300	0	0	488	46	1	0	kuss	gütig	träumen	vertrauen	anregung	sonnig	krise	gierig	töten	versagen	ausrottung	sterben	besonnen	genießen	vergnügt	gesittet	kreativ	engagiert	bange	gemein	verbissen	geizig	krank	engstirnig	1	blank2r.bmp	0	1	+	0	1	blank2r.bmp	500	1	CPLW	500	1	blank2r.bmp	880	4	versagen	880	1	!	1293	1	!	1389	0	0	0	0	0	0
2024-05-02	09:54:28	10:00:07	338792	6.6.1	4_exp_EVA_AWA_CON	7	A	B	Rpleas_acq	Same	Rpleas	2pleas	acq_US_pleas_nomask	acq3_nomask	3	12	453	1	300	300	0	0	473	50	1	0	kuss	gütig	träumen	vertrauen	anregung	sonnig	krise	gierig	töten	versagen	ausrottung	sterben	besonnen	genießen	vergnügt	gesittet	kreativ	engagiert	bange	gemein	verbissen	geizig	krank	engstirnig	1	blank2r.bmp	0	1	+	0	1	blank2r.bmp	500	1	DHJF	500	1	blank2r.bmp	880	3	träumen	880	1	!	1293	1	!	1374	0	0	0	0	0	0
2024-05-02	09:54:28	10:00:10	341000	6.6.1	4_exp_EVA_AWA_CON	7	A	B	Rpleas_acq	Same	Rpleas	2pleas	acq_US_pleas_nomask	acq3_nomask	3	13	453	1	300	300	0	0	429	50	1	0	kuss	gütig	träumen	vertrauen	anregung	sonnig	krise	gierig	töten	versagen	ausrottung	sterben	besonnen	genießen	vergnügt	gesittet	kreativ	engagiert	bange	gemein	verbissen	geizig	krank	engstirnig	1	blank2r.bmp	0	1	+	0	1	blank2r.bmp	500	1	DHJF	500	1	blank2r.bmp	880	2	gütig	880	1	!	1292	1	!	1330	0	0	0	0	0	0
2024-05-02	09:54:28	10:00:12	343118	6.6.1	4_exp_EVA_AWA_CON	7	A	B	Rpleas_acq	Same	Rpleas	2pleas	acq_US_unple_nomask	acq3_nomask	3	14	453	0	300	300	0	0	338	46	1	0	kuss	gütig	träumen	vertrauen	anregung	sonnig	krise	gierig	töten	versagen	ausrottung	sterben	besonnen	genießen	vergnügt	gesittet	kreativ	engagiert	bange	gemein	verbissen	geizig	krank	engstirnig	1	blank2r.bmp	0	1	+	0	1	blank2r.bmp	500	1	CPLW	500	1	blank2r.bmp	880	3	töten	880	1	!	-1	1	!	-1	0	0	0	0	0	0
2024-05-02	09:54:28	10:00:14	345328	6.6.1	4_exp_EVA_AWA_CON	7	A	B	Rpleas_acq	Same	Rpleas	2pleas	acq_US_pleas_nomask	acq3_nomask	3	15	453	1	300	300	0	0	434	50	1	0	kuss	gütig	träumen	vertrauen	anregung	sonnig	krise	gierig	töten	versagen	ausrottung	sterben	besonnen	genießen	vergnügt	gesittet	kreativ	engagiert	bange	gemein	verbissen	geizig	krank	engstirnig	1	blank2r.bmp	0	1	+	0	1	blank2r.bmp	500	1	DHJF	500	1	blank2r.bmp	880	4	vertrauen	880	1	!	1293	1	!	1336	0	0	0	0	0	0
2024-05-02	09:54:28	10:00:16	347754	6.6.1	4_exp_EVA_AWA_CON	7	A	B	Rpleas_acq	Same	Rpleas	2pleas	acq_US_unple_nomask	acq3_nomask	3	16	453	1	300	300	0	0	447	50	0	0	kuss	gütig	träumen	vertrauen	anregung	sonnig	krise	gierig	töten	versagen	ausrottung	sterben	besonnen	genießen	vergnügt	gesittet	kreativ	engagiert	bange	gemein	verbissen	geizig	krank	engstirnig	1	blank2r.bmp	0	1	+	0	1	blank2r.bmp	500	1	CPLW	500	1	blank2r.bmp	880	4	versagen	880	1	FEHLER	1640	1	!	1293	1	!	1348	0	0	0
2024-05-02	09:54:28	10:00:18	349934	6.6.1	4_exp_EVA_AWA_CON	7	A	B	Rpleas_acq	Same	Rpleas	2pleas	acq_US_unple_nomask	acq3_nomask	3	17	453	0	300	300	0	0	609	46	1	0	kuss	gütig	träumen	vertrauen	anregung	sonnig	krise	gierig	töten	versagen	ausrottung	sterben	besonnen	genießen	vergnügt	gesittet	kreativ	engagiert	bange	gemein	verbissen	geizig	krank	engstirnig	1	blank2r.bmp	0	1	+	0	1	blank2r.bmp	500	1	CPLW	500	1	blank2r.bmp	880	2	gierig	880	1	!	1292	1	!	-1	0	0	0	0	0	0
2024-05-02	09:54:28	10:00:21	352200	6.6.1	4_exp_EVA_AWA_CON	7	A	B	Rpleas_acq	Same	Rpleas	2pleas	acq_US_pleas_nomask	acq3_nomask	3	18	453	1	300	300	0	0	482	50	1	0	kuss	gütig	träumen	vertrauen	anregung	sonnig	krise	gierig	töten	versagen	ausrottung	sterben	besonnen	genießen	vergnügt	gesittet	kreativ	engagiert	bange	gemein	verbissen	geizig	krank	engstirnig	1	blank2r.bmp	0	1	+	0	1	blank2r.bmp	500	1	DHJF	500	1	blank2r.bmp	880	6	sonnig	880	1	!	1293	1	!	1383	0	0	0	0	0	0
2024-05-02	09:54:28	10:00:23	354430	6.6.1	4_exp_EVA_AWA_CON	7	A	B	Rpleas_acq	Same	Rpleas	2pleas	acq_US_unple_nomask	acq3_nomask	3	19	453	1	300	300	0	0	452	46	1	0	kuss	gütig	träumen	vertrauen	anregung	sonnig	krise	gierig	töten	versagen	ausrottung	sterben	besonnen	genießen	vergnügt	gesittet	kreativ	engagiert	bange	gemein	verbissen	geizig	krank	engstirnig	1	blank2r.bmp	0	1	+	0	1	blank2r.bmp	500	1	CPLW	500	1	blank2r.bmp	880	5	ausrottung	880	1	!	1291	1	!	1353	0	0	0	0	0	0
2024-05-02	09:54:28	10:00:25	356710	6.6.1	4_exp_EVA_AWA_CON	7	A	B	Rpleas_acq	Same	Rpleas	2pleas	acq_US_pleas_nomask	acq3_nomask	3	20	453	1	300	300	0	0	501	50	1	0	kuss	gütig	träumen	vertrauen	anregung	sonnig	krise	gierig	töten	versagen	ausrottung	sterben	besonnen	genießen	vergnügt	gesittet	kreativ	engagiert	bange	gemein	verbissen	geizig	krank	engstirnig	1	blank2r.bmp	0	1	+	0	1	blank2r.bmp	500	1	DHJF	500	1	blank2r.bmp	880	3	träumen	880	1	!	1291	1	!	1401	0	0	0	0	0	0
2024-05-02	09:54:28	10:00:28	359209	6.6.1	4_exp_EVA_AWA_CON	7	A	B	Rpleas_acq	Same	Rpleas	2pleas	acq_US_pleas_nomask	acq3_nomask	3	21	453	1	300	300	0	0	515	46	0	0	kuss	gütig	träumen	vertrauen	anregung	sonnig	krise	gierig	töten	versagen	ausrottung	sterben	besonnen	genießen	vergnügt	gesittet	kreativ	engagiert	bange	gemein	verbissen	geizig	krank	engstirnig	1	blank2r.bmp	0	1	+	0	1	blank2r.bmp	500	1	DHJF	500	1	blank2r.bmp	880	5	anregung	880	1	FEHLER	1709	1	!	1293	1	!	1417	0	0	0
2024-05-02	09:54:28	10:00:30	361192	6.6.1	4_exp_EVA_AWA_CON	7	A	B	Rpleas_acq	Same	Rpleas	2pleas	acq_US_pleas_nomask	acq3_nomask	3	22	453	1	300	300	0	0	408	50	1	0	kuss	gütig	träumen	vertrauen	anregung	sonnig	krise	gierig	töten	versagen	ausrottung	sterben	besonnen	genießen	vergnügt	gesittet	kreativ	engagiert	bange	gemein	verbissen	geizig	krank	engstirnig	1	blank2r.bmp	0	1	+	0	1	blank2r.bmp	500	1	DHJF	500	1	blank2r.bmp	880	1	kuss	880	1	!	1292	1	!	1309	0	0	0	0	0	0
2024-05-02	09:54:28	10:00:32	363472	6.6.1	4_exp_EVA_AWA_CON	7	A	B	Rpleas_acq	Same	Rpleas	2pleas	acq_US_unple_nomask	acq3_nomask	3	23	453	1	300	300	0	0	496	46	1	0	kuss	gütig	träumen	vertrauen	anregung	sonnig	krise	gierig	töten	versagen	ausrottung	sterben	besonnen	genießen	vergnügt	gesittet	kreativ	engagiert	bange	gemein	verbissen	geizig	krank	engstirnig	1	blank2r.bmp	0	1	+	0	1	blank2r.bmp	500	1	CPLW	500	1	blank2r.bmp	880	1	krise	880	1	!	1292	1	!	1398	0	0	0	0	0	0
2024-05-02	09:54:28	10:00:34	365656	6.6.1	4_exp_EVA_AWA_CON	7	A	B	Rpleas_acq	Same	Rpleas	2pleas	acq_US_unple_nomask	acq3_nomask	3	24	453	1	300	300	0	0	409	46	1	0	kuss	gütig	träumen	vertrauen	anregung	sonnig	krise	gierig	töten	versagen	ausrottung	sterben	besonnen	genießen	vergnügt	gesittet	kreativ	engagiert	bange	gemein	verbissen	geizig	krank	engstirnig	1	blank2r.bmp	0	1	+	0	1	blank2r.bmp	500	1	CPLW	500	1	blank2r.bmp	880	6	sterben	880	1	!	1292	1	!	1310	0	0	0	0	0	0
2024-05-02	09:54:28	10:00:36	367856	6.6.1	4_exp_EVA_AWA_CON	7	A	B	Rpleas_acq	Same	Rpleas	2pleas	acq_US_unple_nomask	acq3_nomask	3	25	453	1	300	300	0	0	417	46	1	0	kuss	gütig	träumen	vertrauen	anregung	sonnig	krise	gierig	töten	versagen	ausrottung	sterben	besonnen	genießen	vergnügt	gesittet	kreativ	engagiert	bange	gemein	verbissen	geizig	krank	engstirnig	1	blank2r.bmp	0	1	+	0	1	blank2r.bmp	500	1	CPLW	500	1	blank2r.bmp	880	4	versagen	880	1	!	1293	1	!	1319	0	0	0	0	0	0
2024-05-02	09:54:28	10:00:39	370022	6.6.1	4_exp_EVA_AWA_CON	7	A	B	Rpleas_acq	Same	Rpleas	2pleas	acq_US_pleas_nomask	acq3_nomask	3	26	453	0	300	300	0	0	384	50	1	0	kuss	gütig	träumen	vertrauen	anregung	sonnig	krise	gierig	töten	versagen	ausrottung	sterben	besonnen	genießen	vergnügt	gesittet	kreativ	engagiert	bange	gemein	verbissen	geizig	krank	engstirnig	1	blank2r.bmp	0	1	+	0	1	blank2r.bmp	500	1	DHJF	500	1	blank2r.bmp	880	1	kuss	880	1	!	-1	1	!	-1	0	0	0	0	0	0
2024-05-02	09:54:28	10:00:41	372224	6.6.1	4_exp_EVA_AWA_CON	7	A	B	Rpleas_acq	Same	Rpleas	2pleas	acq_US_unple_nomask	acq3_nomask	3	27	453	1	300	300	0	0	423	46	1	0	kuss	gütig	träumen	vertrauen	anregung	sonnig	krise	gierig	töten	versagen	ausrottung	sterben	besonnen	genießen	vergnügt	gesittet	kreativ	engagiert	bange	gemein	verbissen	geizig	krank	engstirnig	1	blank2r.bmp	0	1	+	0	1	blank2r.bmp	500	1	CPLW	500	1	blank2r.bmp	880	6	sterben	880	1	!	1293	1	!	1324	0	0	0	0	0	0
2024-05-02	09:54:28	10:00:43	374496	6.6.1	4_exp_EVA_AWA_CON	7	A	B	Rpleas_acq	Same	Rpleas	2pleas	acq_US_unple_nomask	acq3_nomask	3	28	453	1	300	300	0	0	493	46	1	0	kuss	gütig	träumen	vertrauen	anregung	sonnig	krise	gierig	töten	versagen	ausrottung	sterben	besonnen	genießen	vergnügt	gesittet	kreativ	engagiert	bange	gemein	verbissen	geizig	krank	engstirnig	1	blank2r.bmp	0	1	+	0	1	blank2r.bmp	500	1	CPLW	500	1	blank2r.bmp	880	3	töten	880	1	!	1292	1	!	1395	0	0	0	0	0	0
2024-05-02	09:54:28	10:00:45	376768	6.6.1	4_exp_EVA_AWA_CON	7	A	B	Rpleas_acq	Same	Rpleas	2pleas	acq_US_unple_nomask	acq3_nomask	3	29	453	1	300	300	0	0	494	46	1	0	kuss	gütig	träumen	vertrauen	anregung	sonnig	krise	gierig	töten	versagen	ausrottung	sterben	besonnen	genießen	vergnügt	gesittet	kreativ	engagiert	bange	gemein	verbissen	geizig	krank	engstirnig	1	blank2r.bmp	0	1	+	0	1	blank2r.bmp	500	1	CPLW	500	1	blank2r.bmp	880	1	krise	880	1	!	1292	1	!	1395	0	0	0	0	0	0
2024-05-02	09:54:28	10:00:48	379016	6.6.1	4_exp_EVA_AWA_CON	7	A	B	Rpleas_acq	Same	Rpleas	2pleas	acq_US_pleas_nomask	acq3_nomask	3	30	453	1	300	300	0	0	470	50	1	0	kuss	gütig	träumen	vertrauen	anregung	sonnig	krise	gierig	töten	versagen	ausrottung	sterben	besonnen	genießen	vergnügt	gesittet	kreativ	engagiert	bange	gemein	verbissen	geizig	krank	engstirnig	1	blank2r.bmp	0	1	+	0	1	blank2r.bmp	500	1	DHJF	500	1	blank2r.bmp	880	2	gütig	880	1	!	1292	1	!	1372	0	0	0	0	0	0
2024-05-02	09:54:28	10:00:50	381317	6.6.1	4_exp_EVA_AWA_CON	7	A	B	Rpleas_acq	Same	Rpleas	2pleas	acq_US_pleas_nomask	acq3_nomask	3	31	453	0	300	300	0	0	524	50	1	0	kuss	gütig	träumen	vertrauen	anregung	sonnig	krise	gierig	töten	versagen	ausrottung	sterben	besonnen	genießen	vergnügt	gesittet	kreativ	engagiert	bange	gemein	verbissen	geizig	krank	engstirnig	1	blank2r.bmp	0	1	+	0	1	blank2r.bmp	500	1	DHJF	500	1	blank2r.bmp	880	5	anregung	880	1	!	1293	1	!	-1	0	0	0	0	0	0
2024-05-02	09:54:28	10:00:52	383528	6.6.1	4_exp_EVA_AWA_CON	7	A	B	Rpleas_acq	Same	Rpleas	2pleas	acq_US_pleas_nomask	acq3_nomask	3	32	453	1	300	300	0	0	429	50	1	0	kuss	gütig	träumen	vertrauen	anregung	sonnig	krise	gierig	töten	versagen	ausrottung	sterben	besonnen	genießen	vergnügt	gesittet	kreativ	engagiert	bange	gemein	verbissen	geizig	krank	engstirnig	1	blank2r.bmp	0	1	+	0	1	blank2r.bmp	500	1	DHJF	500	1	blank2r.bmp	880	6	sonnig	880	1	!	1292	1	!	1330	0	0	0	0	0	0
2024-05-02	09:54:28	10:00:54	385816	6.6.1	4_exp_EVA_AWA_CON	7	A	B	Rpleas_acq	Same	Rpleas	2pleas	acq_US_unple_nomask	acq3_nomask	3	33	453	1	300	300	0	0	506	46	1	0	kuss	gütig	träumen	vertrauen	anregung	sonnig	krise	gierig	töten	versagen	ausrottung	sterben	besonnen	genießen	vergnügt	gesittet	kreativ	engagiert	bange	gemein	verbissen	geizig	krank	engstirnig	1	blank2r.bmp	0	1	+	0	1	blank2r.bmp	500	1	CPLW	500	1	blank2r.bmp	880	2	gierig	880	1	!	1292	1	!	1407	0	0	0	0	0	0
2024-05-02	09:54:28	10:00:57	388193	6.6.1	4_exp_EVA_AWA_CON	7	A	B	Rpleas_acq	Same	Rpleas	2pleas	acq_US_pleas_nomask	acq3_nomask	3	34	453	1	300	300	0	0	400	46	0	0	kuss	gütig	träumen	vertrauen	anregung	sonnig	krise	gierig	töten	versagen	ausrottung	sterben	besonnen	genießen	vergnügt	gesittet	kreativ	engagiert	bange	gemein	verbissen	geizig	krank	engstirnig	1	blank2r.bmp	0	1	+	0	1	blank2r.bmp	500	1	DHJF	500	1	blank2r.bmp	880	3	träumen	880	1	FEHLER	1593	1	!	1293	1	!	1300	0	0	0
2024-05-02	09:54:28	10:00:59	390264	6.6.1	4_exp_EVA_AWA_CON	7	A	B	Rpleas_acq	Same	Rpleas	2pleas	acq_US_unple_nomask	acq3_nomask	3	35	453	1	300	300	0	0	491	46	1	0	kuss	gütig	träumen	vertrauen	anregung	sonnig	krise	gierig	töten	versagen	ausrottung	sterben	besonnen	genießen	vergnügt	gesittet	kreativ	engagiert	bange	gemein	verbissen	geizig	krank	engstirnig	1	blank2r.bmp	0	1	+	0	1	blank2r.bmp	500	1	CPLW	500	1	blank2r.bmp	880	5	ausrottung	880	1	!	1293	1	!	1393	0	0	0	0	0	0
2024-05-02	09:54:28	10:01:01	392528	6.6.1	4_exp_EVA_AWA_CON	7	A	B	Rpleas_acq	Same	Rpleas	2pleas	acq_US_pleas_nomask	acq3_nomask	3	36	453	1	300	300	0	0	483	50	1	0	kuss	gütig	träumen	vertrauen	anregung	sonnig	krise	gierig	töten	versagen	ausrottung	sterben	besonnen	genießen	vergnügt	gesittet	kreativ	engagiert	bange	gemein	verbissen	geizig	krank	engstirnig	1	blank2r.bmp	0	1	+	0	1	blank2r.bmp	500	1	DHJF	500	1	blank2r.bmp	880	4	vertrauen	880	1	!	1293	1	!	1385	0	0	0	0	0	0
2024-05-02	09:54:28	10:01:16	407494	6.6.1	4_exp_EVA_AWA_CON	7	A	B	Rpleas_acq	Same	Rpleas	2pleas	acq_US_pleas_nomask	acq45_nomask	4	1	400	0	300	300	0	0	612	50	1	0	kuss	gütig	träumen	vertrauen	anregung	sonnig	krise	gierig	töten	versagen	ausrottung	sterben	besonnen	genießen	vergnügt	gesittet	kreativ	engagiert	bange	gemein	verbissen	geizig	krank	engstirnig	1	blank2r.bmp	0	1	+	0	1	blank2r.bmp	500	1	DHJF	500	1	blank2r.bmp	880	2	gütig	880	1	!	1232	1	!	-1	0	0	0	0	0	0
2024-05-02	09:54:28	10:01:18	409766	6.6.1	4_exp_EVA_AWA_CON	7	A	B	Rpleas_acq	Same	Rpleas	2pleas	acq_US_pleas_nomask	acq45_nomask	4	2	400	0	300	300	0	0	492	50	1	0	kuss	gütig	träumen	vertrauen	anregung	sonnig	krise	gierig	töten	versagen	ausrottung	sterben	besonnen	genießen	vergnügt	gesittet	kreativ	engagiert	bange	gemein	verbissen	geizig	krank	engstirnig	1	blank2r.bmp	0	1	+	0	1	blank2r.bmp	500	1	DHJF	500	1	blank2r.bmp	880	3	träumen	880	1	!	1232	1	!	-1	0	0	0	0	0	0
2024-05-02	09:54:28	10:01:20	411862	6.6.1	4_exp_EVA_AWA_CON	7	A	B	Rpleas_acq	Same	Rpleas	2pleas	acq_US_unple_nomask	acq45_nomask	4	3	400	0	300	300	0	0	317	46	1	0	kuss	gütig	träumen	vertrauen	anregung	sonnig	krise	gierig	töten	versagen	ausrottung	sterben	besonnen	genießen	vergnügt	gesittet	kreativ	engagiert	bange	gemein	verbissen	geizig	krank	engstirnig	1	blank2r.bmp	0	1	+	0	1	blank2r.bmp	500	1	CPLW	500	1	blank2r.bmp	880	6	sterben	880	1	!	-1	1	!	-1	0	0	0	0	0	0
2024-05-02	09:54:28	10:01:22	413958	6.6.1	4_exp_EVA_AWA_CON	7	A	B	Rpleas_acq	Same	Rpleas	2pleas	acq_US_pleas_nomask	acq45_nomask	4	4	400	0	300	300	0	0	321	46	0	0	kuss	gütig	träumen	vertrauen	anregung	sonnig	krise	gierig	töten	versagen	ausrottung	sterben	besonnen	genießen	vergnügt	gesittet	kreativ	engagiert	bange	gemein	verbissen	geizig	krank	engstirnig	1	blank2r.bmp	0	1	+	0	1	blank2r.bmp	500	1	DHJF	500	1	blank2r.bmp	880	6	sonnig	880	1	!	-1	1	!	-1	0	0	0	0	0	0
2024-05-02	09:54:28	10:01:25	416112	6.6.1	4_exp_EVA_AWA_CON	7	A	B	Rpleas_acq	Same	Rpleas	2pleas	acq_US_unple_nomask	acq45_nomask	4	5	400	1	300	300	0	0	372	46	1	0	kuss	gütig	träumen	vertrauen	anregung	sonnig	krise	gierig	töten	versagen	ausrottung	sterben	besonnen	genießen	vergnügt	gesittet	kreativ	engagiert	bange	gemein	verbissen	geizig	krank	engstirnig	1	blank2r.bmp	0	1	+	0	1	blank2r.bmp	500	1	CPLW	500	1	blank2r.bmp	880	4	versagen	880	1	!	1233	1	!	1273	0	0	0	0	0	0
2024-05-02	09:54:28	10:01:27	418256	6.6.1	4_exp_EVA_AWA_CON	7	A	B	Rpleas_acq	Same	Rpleas	2pleas	acq_US_pleas_nomask	acq45_nomask	4	6	400	1	300	300	0	0	365	50	1	0	kuss	gütig	träumen	vertrauen	anregung	sonnig	krise	gierig	töten	versagen	ausrottung	sterben	besonnen	genießen	vergnügt	gesittet	kreativ	engagiert	bange	gemein	verbissen	geizig	krank	engstirnig	1	blank2r.bmp	0	1	+	0	1	blank2r.bmp	500	1	DHJF	500	1	blank2r.bmp	880	5	anregung	880	1	!	1233	1	!	1266	0	0	0	0	0	0
2024-05-02	09:54:28	10:01:29	420526	6.6.1	4_exp_EVA_AWA_CON	7	A	B	Rpleas_acq	Same	Rpleas	2pleas	acq_US_unple_nomask	acq45_nomask	4	7	400	0	300	300	0	0	495	46	1	0	kuss	gütig	träumen	vertrauen	anregung	sonnig	krise	gierig	töten	versagen	ausrottung	sterben	besonnen	genießen	vergnügt	gesittet	kreativ	engagiert	bange	gemein	verbissen	geizig	krank	engstirnig	1	blank2r.bmp	0	1	+	0	1	blank2r.bmp	500	1	CPLW	500	1	blank2r.bmp	880	1	krise	880	1	!	1232	1	!	-1	0	0	0	0	0	0
2024-05-02	09:54:28	10:01:31	422623	6.6.1	4_exp_EVA_AWA_CON	7	A	B	Rpleas_acq	Same	Rpleas	2pleas	acq_US_pleas_nomask	acq45_nomask	4	8	400	0	300	300	0	0	320	46	0	0	kuss	gütig	träumen	vertrauen	anregung	sonnig	krise	gierig	töten	versagen	ausrottung	sterben	besonnen	genießen	vergnügt	gesittet	kreativ	engagiert	bange	gemein	verbissen	geizig	krank	engstirnig	1	blank2r.bmp	0	1	+	0	1	blank2r.bmp	500	1	DHJF	500	1	blank2r.bmp	880	4	vertrauen	880	1	!	-1	1	!	-1	0	0	0	0	0	0
2024-05-02	09:54:28	10:01:33	424800	6.6.1	4_exp_EVA_AWA_CON	7	A	B	Rpleas_acq	Same	Rpleas	2pleas	acq_US_pleas_nomask	acq45_nomask	4	9	400	1	300	300	0	0	394	46	0	0	kuss	gütig	träumen	vertrauen	anregung	sonnig	krise	gierig	töten	versagen	ausrottung	sterben	besonnen	genießen	vergnügt	gesittet	kreativ	engagiert	bange	gemein	verbissen	geizig	krank	engstirnig	1	blank2r.bmp	0	1	+	0	1	blank2r.bmp	500	1	DHJF	500	1	blank2r.bmp	880	1	kuss	880	1	!	1232	1	!	1296	0	0	0	0	0	0
2024-05-02	09:54:28	10:01:36	427062	6.6.1	4_exp_EVA_AWA_CON	7	A	B	Rpleas_acq	Same	Rpleas	2pleas	acq_US_unple_nomask	acq45_nomask	4	10	400	0	300	300	0	0	487	46	1	0	kuss	gütig	träumen	vertrauen	anregung	sonnig	krise	gierig	töten	versagen	ausrottung	sterben	besonnen	genießen	vergnügt	gesittet	kreativ	engagiert	bange	gemein	verbissen	geizig	krank	engstirnig	1	blank2r.bmp	0	1	+	0	1	blank2r.bmp	500	1	CPLW	500	1	blank2r.bmp	880	5	ausrottung	880	1	!	1232	1	!	-1	0	0	0	0	0	0
2024-05-02	09:54:28	10:01:38	429296	6.6.1	4_exp_EVA_AWA_CON	7	A	B	Rpleas_acq	Same	Rpleas	2pleas	acq_US_pleas_nomask	acq45_nomask	4	11	400	1	300	300	0	0	457	50	1	0	kuss	gütig	träumen	vertrauen	anregung	sonnig	krise	gierig	töten	versagen	ausrottung	sterben	besonnen	genießen	vergnügt	gesittet	kreativ	engagiert	bange	gemein	verbissen	geizig	krank	engstirnig	1	blank2r.bmp	0	1	+	0	1	blank2r.bmp	500	1	DHJF	500	1	blank2r.bmp	880	6	sonnig	880	1	!	1233	1	!	1359	0	0	0	0	0	0
2024-05-02	09:54:28	10:01:40	431582	6.6.1	4_exp_EVA_AWA_CON	7	A	B	Rpleas_acq	Same	Rpleas	2pleas	acq_US_unple_nomask	acq45_nomask	4	12	400	0	300	300	0	0	504	46	1	0	kuss	gütig	träumen	vertrauen	anregung	sonnig	krise	gierig	töten	versagen	ausrottung	sterben	besonnen	genießen	vergnügt	gesittet	kreativ	engagiert	bange	gemein	verbissen	geizig	krank	engstirnig	1	blank2r.bmp	0	1	+	0	1	blank2r.bmp	500	1	CPLW	500	1	blank2r.bmp	880	3	töten	880	1	!	1232	1	!	-1	0	0	0	0	0	0
2024-05-02	09:54:28	10:01:42	433878	6.6.1	4_exp_EVA_AWA_CON	7	A	B	Rpleas_acq	Same	Rpleas	2pleas	acq_US_unple_nomask	acq45_nomask	4	13	400	0	300	300	0	0	518	50	0	0	kuss	gütig	träumen	vertrauen	anregung	sonnig	krise	gierig	töten	versagen	ausrottung	sterben	besonnen	genießen	vergnügt	gesittet	kreativ	engagiert	bange	gemein	verbissen	geizig	krank	engstirnig	1	blank2r.bmp	0	1	+	0	1	blank2r.bmp	500	1	CPLW	500	1	blank2r.bmp	880	2	gierig	880	1	!	1232	1	!	-1	0	0	0	0	0	0
2024-05-02	09:54:28	10:01:45	436056	6.6.1	4_exp_EVA_AWA_CON	7	A	B	Rpleas_acq	Same	Rpleas	2pleas	acq_US_unple_nomask	acq45_nomask	4	14	400	1	300	300	0	0	403	46	1	0	kuss	gütig	träumen	vertrauen	anregung	sonnig	krise	gierig	töten	versagen	ausrottung	sterben	besonnen	genießen	vergnügt	gesittet	kreativ	engagiert	bange	gemein	verbissen	geizig	krank	engstirnig	1	blank2r.bmp	0	1	+	0	1	blank2r.bmp	500	1	CPLW	500	1	blank2r.bmp	880	2	gierig	880	1	!	1232	1	!	1304	0	0	0	0	0	0
2024-05-02	09:54:28	10:01:47	438280	6.6.1	4_exp_EVA_AWA_CON	7	A	B	Rpleas_acq	Same	Rpleas	2pleas	acq_US_unple_nomask	acq45_nomask	4	15	400	1	300	300	0	0	445	46	1	0	kuss	gütig	träumen	vertrauen	anregung	sonnig	krise	gierig	töten	versagen	ausrottung	sterben	besonnen	genießen	vergnügt	gesittet	kreativ	engagiert	bange	gemein	verbissen	geizig	krank	engstirnig	1	blank2r.bmp	0	1	+	0	1	blank2r.bmp	500	1	CPLW	500	1	blank2r.bmp	880	6	sterben	880	1	!	1233	1	!	1347	0	0	0	0	0	0
2024-05-02	09:54:28	10:01:49	440488	6.6.1	4_exp_EVA_AWA_CON	7	A	B	Rpleas_acq	Same	Rpleas	2pleas	acq_US_pleas_nomask	acq45_nomask	4	16	400	1	300	300	0	0	432	46	0	0	kuss	gütig	träumen	vertrauen	anregung	sonnig	krise	gierig	töten	versagen	ausrottung	sterben	besonnen	genießen	vergnügt	gesittet	kreativ	engagiert	bange	gemein	verbissen	geizig	krank	engstirnig	1	blank2r.bmp	0	1	+	0	1	blank2r.bmp	500	1	DHJF	500	1	blank2r.bmp	880	4	vertrauen	880	1	!	1232	1	!	1333	0	0	0	0	0	0
2024-05-02	09:54:28	10:01:51	442696	6.6.1	4_exp_EVA_AWA_CON	7	A	B	Rpleas_acq	Same	Rpleas	2pleas	acq_US_unple_nomask	acq45_nomask	4	17	400	1	300	300	0	0	429	46	1	0	kuss	gütig	träumen	vertrauen	anregung	sonnig	krise	gierig	töten	versagen	ausrottung	sterben	besonnen	genießen	vergnügt	gesittet	kreativ	engagiert	bange	gemein	verbissen	geizig	krank	engstirnig	1	blank2r.bmp	0	1	+	0	1	blank2r.bmp	500	1	CPLW	500	1	blank2r.bmp	880	1	krise	880	1	!	1232	1	!	1330	0	0	0	0	0	0
2024-05-02	09:54:28	10:01:54	445126	6.6.1	4_exp_EVA_AWA_CON	7	A	B	Rpleas_acq	Same	Rpleas	2pleas	acq_US_pleas_nomask	acq45_nomask	4	18	400	0	300	300	0	0	649	50	1	0	kuss	gütig	träumen	vertrauen	anregung	sonnig	krise	gierig	töten	versagen	ausrottung	sterben	besonnen	genießen	vergnügt	gesittet	kreativ	engagiert	bange	gemein	verbissen	geizig	krank	engstirnig	1	blank2r.bmp	0	1	+	0	1	blank2r.bmp	500	1	DHJF	500	1	blank2r.bmp	880	5	anregung	880	1	!	1232	1	!	-1	0	0	0	0	0	0
2024-05-02	09:54:28	10:01:56	447264	6.6.1	4_exp_EVA_AWA_CON	7	A	B	Rpleas_acq	Same	Rpleas	2pleas	acq_US_unple_nomask	acq45_nomask	4	19	400	1	300	300	0	0	364	46	1	0	kuss	gütig	träumen	vertrauen	anregung	sonnig	krise	gierig	töten	versagen	ausrottung	sterben	besonnen	genießen	vergnügt	gesittet	kreativ	engagiert	bange	gemein	verbissen	geizig	krank	engstirnig	1	blank2r.bmp	0	1	+	0	1	blank2r.bmp	500	1	CPLW	500	1	blank2r.bmp	880	4	versagen	880	1	!	1233	1	!	1265	0	0	0	0	0	0
2024-05-02	09:54:28	10:01:58	449512	6.6.1	4_exp_EVA_AWA_CON	7	A	B	Rpleas_acq	Same	Rpleas	2pleas	acq_US_unple_nomask	acq45_nomask	4	20	400	1	300	300	0	0	470	46	1	0	kuss	gütig	träumen	vertrauen	anregung	sonnig	krise	gierig	töten	versagen	ausrottung	sterben	besonnen	genießen	vergnügt	gesittet	kreativ	engagiert	bange	gemein	verbissen	geizig	krank	engstirnig	1	blank2r.bmp	0	1	+	0	1	blank2r.bmp	500	1	CPLW	500	1	blank2r.bmp	880	5	ausrottung	880	1	!	1233	1	!	1372	0	0	0	0	0	0
2024-05-02	09:54:28	10:02:00	451622	6.6.1	4_exp_EVA_AWA_CON	7	A	B	Rpleas_acq	Same	Rpleas	2pleas	acq_US_pleas_nomask	acq45_nomask	4	21	400	0	300	300	0	0	331	50	1	0	kuss	gütig	träumen	vertrauen	anregung	sonnig	krise	gierig	töten	versagen	ausrottung	sterben	besonnen	genießen	vergnügt	gesittet	kreativ	engagiert	bange	gemein	verbissen	geizig	krank	engstirnig	1	blank2r.bmp	0	1	+	0	1	blank2r.bmp	500	1	DHJF	500	1	blank2r.bmp	880	1	kuss	880	1	!	-1	1	!	-1	0	0	0	0	0	0
2024-05-02	09:54:28	10:02:02	453824	6.6.1	4_exp_EVA_AWA_CON	7	A	B	Rpleas_acq	Same	Rpleas	2pleas	acq_US_pleas_nomask	acq45_nomask	4	22	400	1	300	300	0	0	419	50	1	0	kuss	gütig	träumen	vertrauen	anregung	sonnig	krise	gierig	töten	versagen	ausrottung	sterben	besonnen	genießen	vergnügt	gesittet	kreativ	engagiert	bange	gemein	verbissen	geizig	krank	engstirnig	1	blank2r.bmp	0	1	+	0	1	blank2r.bmp	500	1	DHJF	500	1	blank2r.bmp	880	3	träumen	880	1	!	1232	1	!	1321	0	0	0	0	0	0
2024-05-02	09:54:28	10:02:05	456110	6.6.1	4_exp_EVA_AWA_CON	7	A	B	Rpleas_acq	Same	Rpleas	2pleas	acq_US_unple_nomask	acq45_nomask	4	23	400	0	300	300	0	0	506	46	1	0	kuss	gütig	träumen	vertrauen	anregung	sonnig	krise	gierig	töten	versagen	ausrottung	sterben	besonnen	genießen	vergnügt	gesittet	kreativ	engagiert	bange	gemein	verbissen	geizig	krank	engstirnig	1	blank2r.bmp	0	1	+	0	1	blank2r.bmp	500	1	CPLW	500	1	blank2r.bmp	880	3	töten	880	1	!	1232	1	!	-1	0	0	0	0	0	0
2024-05-02	09:54:28	10:02:07	458296	6.6.1	4_exp_EVA_AWA_CON	7	A	B	Rpleas_acq	Same	Rpleas	2pleas	acq_US_pleas_nomask	acq45_nomask	4	24	400	1	300	300	0	0	408	46	0	0	kuss	gütig	träumen	vertrauen	anregung	sonnig	krise	gierig	töten	versagen	ausrottung	sterben	besonnen	genießen	vergnügt	gesittet	kreativ	engagiert	bange	gemein	verbissen	geizig	krank	engstirnig	1	blank2r.bmp	0	1	+	0	1	blank2r.bmp	500	1	DHJF	500	1	blank2r.bmp	880	2	gütig	880	1	!	1233	1	!	1310	0	0	0	0	0	0
2024-05-02	09:54:28	10:02:09	460536	6.6.1	4_exp_EVA_AWA_CON	7	A	B	Rpleas_acq	Same	Rpleas	2pleas	acq_US_pleas_nomask	acq45_nomask	4	25	400	1	300	300	0	0	457	46	0	0	kuss	gütig	träumen	vertrauen	anregung	sonnig	krise	gierig	töten	versagen	ausrottung	sterben	besonnen	genießen	vergnügt	gesittet	kreativ	engagiert	bange	gemein	verbissen	geizig	krank	engstirnig	1	blank2r.bmp	0	1	+	0	1	blank2r.bmp	500	1	DHJF	500	1	blank2r.bmp	880	2	gütig	880	1	!	1232	1	!	1358	0	0	0	0	0	0
2024-05-02	09:54:28	10:02:11	462788	6.6.1	4_exp_EVA_AWA_CON	7	A	B	Rpleas_acq	Same	Rpleas	2pleas	acq_US_unple_nomask	acq45_nomask	4	26	400	0	300	300	0	0	482	46	1	0	kuss	gütig	träumen	vertrauen	anregung	sonnig	krise	gierig	töten	versagen	ausrottung	sterben	besonnen	genießen	vergnügt	gesittet	kreativ	engagiert	bange	gemein	verbissen	geizig	krank	engstirnig	1	blank2r.bmp	0	1	+	0	1	blank2r.bmp	500	1	CPLW	500	1	blank2r.bmp	880	3	töten	880	1	!	1233	1	!	-1	0	0	0	0	0	0
2024-05-02	09:54:28	10:02:13	464936	6.6.1	4_exp_EVA_AWA_CON	7	A	B	Rpleas_acq	Same	Rpleas	2pleas	acq_US_pleas_nomask	acq45_nomask	4	27	400	1	300	300	0	0	374	50	1	0	kuss	gütig	träumen	vertrauen	anregung	sonnig	krise	gierig	töten	versagen	ausrottung	sterben	besonnen	genießen	vergnügt	gesittet	kreativ	engagiert	bange	gemein	verbissen	geizig	krank	engstirnig	1	blank2r.bmp	0	1	+	0	1	blank2r.bmp	500	1	DHJF	500	1	blank2r.bmp	880	6	sonnig	880	1	!	1233	1	!	1275	0	0	0	0	0	0
2024-05-02	09:54:28	10:02:16	467238	6.6.1	4_exp_EVA_AWA_CON	7	A	B	Rpleas_acq	Same	Rpleas	2pleas	acq_US_unple_nomask	acq45_nomask	4	28	400	0	300	300	0	0	527	46	1	0	kuss	gütig	träumen	vertrauen	anregung	sonnig	krise	gierig	töten	versagen	ausrottung	sterben	besonnen	genießen	vergnügt	gesittet	kreativ	engagiert	bange	gemein	verbissen	geizig	krank	engstirnig	1	blank2r.bmp	0	1	+	0	1	blank2r.bmp	500	1	CPLW	500	1	blank2r.bmp	880	5	ausrottung	880	1	!	1232	1	!	-1	0	0	0	0	0	0
2024-05-02	09:54:28	10:02:18	469502	6.6.1	4_exp_EVA_AWA_CON	7	A	B	Rpleas_acq	Same	Rpleas	2pleas	acq_US_unple_nomask	acq45_nomask	4	29	400	0	300	300	0	0	489	46	1	0	kuss	gütig	träumen	vertrauen	anregung	sonnig	krise	gierig	töten	versagen	ausrottung	sterben	besonnen	genießen	vergnügt	gesittet	kreativ	engagiert	bange	gemein	verbissen	geizig	krank	engstirnig	1	blank2r.bmp	0	1	+	0	1	blank2r.bmp	500	1	CPLW	500	1	blank2r.bmp	880	6	sterben	880	1	!	1232	1	!	-1	0	0	0	0	0	0
2024-05-02	09:54:28	10:02:20	471821	6.6.1	4_exp_EVA_AWA_CON	7	A	B	Rpleas_acq	Same	Rpleas	2pleas	acq_US_pleas_nomask	acq45_nomask	4	30	400	0	300	300	0	0	548	50	1	0	kuss	gütig	träumen	vertrauen	anregung	sonnig	krise	gierig	töten	versagen	ausrottung	sterben	besonnen	genießen	vergnügt	gesittet	kreativ	engagiert	bange	gemein	verbissen	geizig	krank	engstirnig	1	blank2r.bmp	0	1	+	0	1	blank2r.bmp	500	1	DHJF	500	1	blank2r.bmp	880	5	anregung	880	1	!	1231	1	!	-1	0	0	0	0	0	0
2024-05-02	09:54:28	10:02:23	474030	6.6.1	4_exp_EVA_AWA_CON	7	A	B	Rpleas_acq	Same	Rpleas	2pleas	acq_US_unple_nomask	acq45_nomask	4	31	400	1	300	300	0	0	434	46	1	0	kuss	gütig	träumen	vertrauen	anregung	sonnig	krise	gierig	töten	versagen	ausrottung	sterben	besonnen	genießen	vergnügt	gesittet	kreativ	engagiert	bange	gemein	verbissen	geizig	krank	engstirnig	1	blank2r.bmp	0	1	+	0	1	blank2r.bmp	500	1	CPLW	500	1	blank2r.bmp	880	2	gierig	880	1	!	1231	1	!	1334	0	0	0	0	0	0
2024-05-02	09:54:28	10:02:25	476198	6.6.1	4_exp_EVA_AWA_CON	7	A	B	Rpleas_acq	Same	Rpleas	2pleas	acq_US_unple_nomask	acq45_nomask	4	32	400	1	300	300	0	0	391	46	1	0	kuss	gütig	träumen	vertrauen	anregung	sonnig	krise	gierig	töten	versagen	ausrottung	sterben	besonnen	genießen	vergnügt	gesittet	kreativ	engagiert	bange	gemein	verbissen	geizig	krank	engstirnig	1	blank2r.bmp	0	1	+	0	1	blank2r.bmp	500	1	CPLW	500	1	blank2r.bmp	880	4	versagen	880	1	!	1231	1	!	1291	0	0	0	0	0	0
2024-05-02	09:54:28	10:02:27	478344	6.6.1	4_exp_EVA_AWA_CON	7	A	B	Rpleas_acq	Same	Rpleas	2pleas	acq_US_pleas_nomask	acq45_nomask	4	33	400	1	300	300	0	0	363	46	0	0	kuss	gütig	träumen	vertrauen	anregung	sonnig	krise	gierig	töten	versagen	ausrottung	sterben	besonnen	genießen	vergnügt	gesittet	kreativ	engagiert	bange	gemein	verbissen	geizig	krank	engstirnig	1	blank2r.bmp	0	1	+	0	1	blank2r.bmp	500	1	DHJF	500	1	blank2r.bmp	880	3	träumen	880	1	!	1232	1	!	1265	0	0	0	0	0	0
2024-05-02	09:54:28	10:02:29	480702	6.6.1	4_exp_EVA_AWA_CON	7	A	B	Rpleas_acq	Same	Rpleas	2pleas	acq_US_unple_nomask	acq45_nomask	4	34	400	0	300	300	0	0	582	46	1	0	kuss	gütig	träumen	vertrauen	anregung	sonnig	krise	gierig	töten	versagen	ausrottung	sterben	besonnen	genießen	vergnügt	gesittet	kreativ	engagiert	bange	gemein	verbissen	geizig	krank	engstirnig	1	blank2r.bmp	0	1	+	0	1	blank2r.bmp	500	1	CPLW	500	1	blank2r.bmp	880	1	krise	880	1	!	1232	1	!	-1	0	0	0	0	0	0
2024-05-02	09:54:28	10:02:32	483014	6.6.1	4_exp_EVA_AWA_CON	7	A	B	Rpleas_acq	Same	Rpleas	2pleas	acq_US_pleas_nomask	acq45_nomask	4	35	400	0	300	300	0	0	532	50	1	0	kuss	gütig	träumen	vertrauen	anregung	sonnig	krise	gierig	töten	versagen	ausrottung	sterben	besonnen	genießen	vergnügt	gesittet	kreativ	engagiert	bange	gemein	verbissen	geizig	krank	engstirnig	1	blank2r.bmp	0	1	+	0	1	blank2r.bmp	500	1	DHJF	500	1	blank2r.bmp	880	1	kuss	880	1	!	1232	1	!	-1	0	0	0	0	0	0
2024-05-02	09:54:28	10:02:34	485192	6.6.1	4_exp_EVA_AWA_CON	7	A	B	Rpleas_acq	Same	Rpleas	2pleas	acq_US_pleas_nomask	acq45_nomask	4	36	400	1	300	300	0	0	397	46	0	0	kuss	gütig	träumen	vertrauen	anregung	sonnig	krise	gierig	töten	versagen	ausrottung	sterben	besonnen	genießen	vergnügt	gesittet	kreativ	engagiert	bange	gemein	verbissen	geizig	krank	engstirnig	1	blank2r.bmp	0	1	+	0	1	blank2r.bmp	500	1	DHJF	500	1	blank2r.bmp	880	4	vertrauen	880	1	!	1233	1	!	1298	0	0	0	0	0	0
2024-05-02	09:54:28	10:02:48	499438	6.6.1	4_exp_EVA_AWA_CON	7	A	B	Rpleas_acq	Same	Rpleas	2pleas	acq_US_pleas_nomask	acq45_nomask	5	1	400	0	300	300	0	0	636	50	1	0	kuss	gütig	träumen	vertrauen	anregung	sonnig	krise	gierig	töten	versagen	ausrottung	sterben	besonnen	genießen	vergnügt	gesittet	kreativ	engagiert	bange	gemein	verbissen	geizig	krank	engstirnig	1	blank2r.bmp	0	1	+	0	1	blank2r.bmp	500	1	DHJF	500	1	blank2r.bmp	880	1	kuss	880	1	!	1233	1	!	-1	0	0	0	0	0	0
2024-05-02	09:54:28	10:02:50	501568	6.6.1	4_exp_EVA_AWA_CON	7	A	B	Rpleas_acq	Same	Rpleas	2pleas	acq_US_pleas_nomask	acq45_nomask	5	2	400	1	300	300	0	0	352	46	0	0	kuss	gütig	träumen	vertrauen	anregung	sonnig	krise	gierig	töten	versagen	ausrottung	sterben	besonnen	genießen	vergnügt	gesittet	kreativ	engagiert	bange	gemein	verbissen	geizig	krank	engstirnig	1	blank2r.bmp	0	1	+	0	1	blank2r.bmp	500	1	DHJF	500	1	blank2r.bmp	880	2	gütig	880	1	!	1232	1	!	1253	0	0	0	0	0	0
2024-05-02	09:54:28	10:02:52	503800	6.6.1	4_exp_EVA_AWA_CON	7	A	B	Rpleas_acq	Same	Rpleas	2pleas	acq_US_pleas_nomask	acq45_nomask	5	3	400	1	300	300	0	0	453	46	0	0	kuss	gütig	träumen	vertrauen	anregung	sonnig	krise	gierig	töten	versagen	ausrottung	sterben	besonnen	genießen	vergnügt	gesittet	kreativ	engagiert	bange	gemein	verbissen	geizig	krank	engstirnig	1	blank2r.bmp	0	1	+	0	1	blank2r.bmp	500	1	DHJF	500	1	blank2r.bmp	880	6	sonnig	880	1	!	1232	1	!	1354	0	0	0	0	0	0
2024-05-02	09:54:28	10:02:55	506016	6.6.1	4_exp_EVA_AWA_CON	7	A	B	Rpleas_acq	Same	Rpleas	2pleas	acq_US_unple_nomask	acq45_nomask	5	4	400	1	300	300	0	0	437	50	0	0	kuss	gütig	träumen	vertrauen	anregung	sonnig	krise	gierig	töten	versagen	ausrottung	sterben	besonnen	genießen	vergnügt	gesittet	kreativ	engagiert	bange	gemein	verbissen	geizig	krank	engstirnig	1	blank2r.bmp	0	1	+	0	1	blank2r.bmp	500	1	CPLW	500	1	blank2r.bmp	880	3	töten	880	1	!	1232	1	!	1339	0	0	0	0	0	0
2024-05-02	09:54:28	10:02:57	508374	6.6.1	4_exp_EVA_AWA_CON	7	A	B	Rpleas_acq	Same	Rpleas	2pleas	acq_US_unple_nomask	acq45_nomask	5	5	400	0	300	300	0	0	576	46	1	0	kuss	gütig	träumen	vertrauen	anregung	sonnig	krise	gierig	töten	versagen	ausrottung	sterben	besonnen	genießen	vergnügt	gesittet	kreativ	engagiert	bange	gemein	verbissen	geizig	krank	engstirnig	1	blank2r.bmp	0	1	+	0	1	blank2r.bmp	500	1	CPLW	500	1	blank2r.bmp	880	4	versagen	880	1	!	1232	1	!	-1	0	0	0	0	0	0
2024-05-02	09:54:28	10:02:59	510584	6.6.1	4_exp_EVA_AWA_CON	7	A	B	Rpleas_acq	Same	Rpleas	2pleas	acq_US_unple_nomask	acq45_nomask	5	6	400	1	300	300	0	0	432	46	1	0	kuss	gütig	träumen	vertrauen	anregung	sonnig	krise	gierig	töten	versagen	ausrottung	sterben	besonnen	genießen	vergnügt	gesittet	kreativ	engagiert	bange	gemein	verbissen	geizig	krank	engstirnig	1	blank2r.bmp	0	1	+	0	1	blank2r.bmp	500	1	CPLW	500	1	blank2r.bmp	880	5	ausrottung	880	1	!	1232	1	!	1333	0	0	0	0	0	0
2024-05-02	09:54:28	10:03:01	512744	6.6.1	4_exp_EVA_AWA_CON	7	A	B	Rpleas_acq	Same	Rpleas	2pleas	acq_US_pleas_nomask	acq45_nomask	5	7	400	1	300	300	0	0	381	46	0	0	kuss	gütig	träumen	vertrauen	anregung	sonnig	krise	gierig	töten	versagen	ausrottung	sterben	besonnen	genießen	vergnügt	gesittet	kreativ	engagiert	bange	gemein	verbissen	geizig	krank	engstirnig	1	blank2r.bmp	0	1	+	0	1	blank2r.bmp	500	1	DHJF	500	1	blank2r.bmp	880	4	vertrauen	880	1	!	1232	1	!	1282	0	0	0	0	0	0
2024-05-02	09:54:28	10:03:04	515004	6.6.1	4_exp_EVA_AWA_CON	7	A	B	Rpleas_acq	Same	Rpleas	2pleas	acq_US_unple_nomask	acq45_nomask	5	8	400	0	300	300	0	0	483	46	1	0	kuss	gütig	träumen	vertrauen	anregung	sonnig	krise	gierig	töten	versagen	ausrottung	sterben	besonnen	genießen	vergnügt	gesittet	kreativ	engagiert	bange	gemein	verbissen	geizig	krank	engstirnig	1	blank2r.bmp	0	1	+	0	1	blank2r.bmp	500	1	CPLW	500	1	blank2r.bmp	880	1	krise	880	1	!	1232	1	!	-1	0	0	0	0	0	0
2024-05-02	09:54:28	10:03:06	517302	6.6.1	4_exp_EVA_AWA_CON	7	A	B	Rpleas_acq	Same	Rpleas	2pleas	acq_US_pleas_nomask	acq45_nomask	5	9	400	0	300	300	0	0	518	50	1	0	kuss	gütig	träumen	vertrauen	anregung	sonnig	krise	gierig	töten	versagen	ausrottung	sterben	besonnen	genießen	vergnügt	gesittet	kreativ	engagiert	bange	gemein	verbissen	geizig	krank	engstirnig	1	blank2r.bmp	0	1	+	0	1	blank2r.bmp	500	1	DHJF	500	1	blank2r.bmp	880	3	träumen	880	1	!	1232	1	!	-1	0	0	0	0	0	0
2024-05-02	09:54:28	10:03:08	519448	6.6.1	4_exp_EVA_AWA_CON	7	A	B	Rpleas_acq	Same	Rpleas	2pleas	acq_US_unple_nomask	acq45_nomask	5	10	400	1	300	300	0	0	370	46	1	0	kuss	gütig	träumen	vertrauen	anregung	sonnig	krise	gierig	töten	versagen	ausrottung	sterben	besonnen	genießen	vergnügt	gesittet	kreativ	engagiert	bange	gemein	verbissen	geizig	krank	engstirnig	1	blank2r.bmp	0	1	+	0	1	blank2r.bmp	500	1	CPLW	500	1	blank2r.bmp	880	6	sterben	880	1	!	1232	1	!	1272	0	0	0	0	0	0
2024-05-02	09:54:28	10:03:10	521640	6.6.1	4_exp_EVA_AWA_CON	7	A	B	Rpleas_acq	Same	Rpleas	2pleas	acq_US_unple_nomask	acq45_nomask	5	11	400	1	300	300	0	0	411	46	1	0	kuss	gütig	träumen	vertrauen	anregung	sonnig	krise	gierig	töten	versagen	ausrottung	sterben	besonnen	genießen	vergnügt	gesittet	kreativ	engagiert	bange	gemein	verbissen	geizig	krank	engstirnig	1	blank2r.bmp	0	1	+	0	1	blank2r.bmp	500	1	CPLW	500	1	blank2r.bmp	880	2	gierig	880	1	!	1232	1	!	1312	0	0	0	0	0	0
2024-05-02	09:54:28	10:03:13	524030	6.6.1	4_exp_EVA_AWA_CON	7	A	B	Rpleas_acq	Same	Rpleas	2pleas	acq_US_pleas_nomask	acq45_nomask	5	12	400	0	300	300	0	0	612	50	1	0	kuss	gütig	träumen	vertrauen	anregung	sonnig	krise	gierig	töten	versagen	ausrottung	sterben	besonnen	genießen	vergnügt	gesittet	kreativ	engagiert	bange	gemein	verbissen	geizig	krank	engstirnig	1	blank2r.bmp	0	1	+	0	1	blank2r.bmp	500	1	DHJF	500	1	blank2r.bmp	880	5	anregung	880	1	!	1232	1	!	-1	0	0	0	0	0	0
2024-05-02	09:54:28	10:03:15	526216	6.6.1	4_exp_EVA_AWA_CON	7	A	B	Rpleas_acq	Same	Rpleas	2pleas	acq_US_pleas_nomask	acq45_nomask	5	13	400	1	300	300	0	0	404	50	1	0	kuss	gütig	träumen	vertrauen	anregung	sonnig	krise	gierig	töten	versagen	ausrottung	sterben	besonnen	genießen	vergnügt	gesittet	kreativ	engagiert	bange	gemein	verbissen	geizig	krank	engstirnig	1	blank2r.bmp	0	1	+	0	1	blank2r.bmp	500	1	DHJF	500	1	blank2r.bmp	880	3	träumen	880	1	!	1232	1	!	1305	0	0	0	0	0	0
2024-05-02	09:54:28	10:03:17	528384	6.6.1	4_exp_EVA_AWA_CON	7	A	B	Rpleas_acq	Same	Rpleas	2pleas	acq_US_unple_nomask	acq45_nomask	5	14	400	1	300	300	0	0	391	46	1	0	kuss	gütig	träumen	vertrauen	anregung	sonnig	krise	gierig	töten	versagen	ausrottung	sterben	besonnen	genießen	vergnügt	gesittet	kreativ	engagiert	bange	gemein	verbissen	geizig	krank	engstirnig	1	blank2r.bmp	0	1	+	0	1	blank2r.bmp	500	1	CPLW	500	1	blank2r.bmp	880	4	versagen	880	1	!	1232	1	!	1293	0	0	0	0	0	0
2024-05-02	09:54:28	10:03:19	530496	6.6.1	4_exp_EVA_AWA_CON	7	A	B	Rpleas_acq	Same	Rpleas	2pleas	acq_US_unple_nomask	acq45_nomask	5	15	400	1	300	300	0	0	333	46	1	0	kuss	gütig	träumen	vertrauen	anregung	sonnig	krise	gierig	töten	versagen	ausrottung	sterben	besonnen	genießen	vergnügt	gesittet	kreativ	engagiert	bange	gemein	verbissen	geizig	krank	engstirnig	1	blank2r.bmp	0	1	+	0	1	blank2r.bmp	500	1	CPLW	500	1	blank2r.bmp	880	2	gierig	880	1	!	1232	1	!	1233	0	0	0	0	0	0
2024-05-02	09:54:28	10:03:21	532704	6.6.1	4_exp_EVA_AWA_CON	7	A	B	Rpleas_acq	Same	Rpleas	2pleas	acq_US_unple_nomask	acq45_nomask	5	16	400	1	300	300	0	0	428	46	1	0	kuss	gütig	träumen	vertrauen	anregung	sonnig	krise	gierig	töten	versagen	ausrottung	sterben	besonnen	genießen	vergnügt	gesittet	kreativ	engagiert	bange	gemein	verbissen	geizig	krank	engstirnig	1	blank2r.bmp	0	1	+	0	1	blank2r.bmp	500	1	CPLW	500	1	blank2r.bmp	880	1	krise	880	1	!	1233	1	!	1329	0	0	0	0	0	0
2024-05-02	09:54:28	10:03:24	535014	6.6.1	4_exp_EVA_AWA_CON	7	A	B	Rpleas_acq	Same	Rpleas	2pleas	acq_US_pleas_nomask	acq45_nomask	5	17	400	0	300	300	0	0	528	50	1	0	kuss	gütig	träumen	vertrauen	anregung	sonnig	krise	gierig	töten	versagen	ausrottung	sterben	besonnen	genießen	vergnügt	gesittet	kreativ	engagiert	bange	gemein	verbissen	geizig	krank	engstirnig	1	blank2r.bmp	0	1	+	0	1	blank2r.bmp	500	1	DHJF	500	1	blank2r.bmp	880	5	anregung	880	1	!	1233	1	!	-1	0	0	0	0	0	0
2024-05-02	09:54:28	10:03:26	537216	6.6.1	4_exp_EVA_AWA_CON	7	A	B	Rpleas_acq	Same	Rpleas	2pleas	acq_US_pleas_nomask	acq45_nomask	5	18	400	1	300	300	0	0	427	50	1	0	kuss	gütig	träumen	vertrauen	anregung	sonnig	krise	gierig	töten	versagen	ausrottung	sterben	besonnen	genießen	vergnügt	gesittet	kreativ	engagiert	bange	gemein	verbissen	geizig	krank	engstirnig	1	blank2r.bmp	0	1	+	0	1	blank2r.bmp	500	1	DHJF	500	1	blank2r.bmp	880	2	gütig	880	1	!	1232	1	!	1328	0	0	0	0	0	0
2024-05-02	09:54:28	10:03:28	539361	6.6.1	4_exp_EVA_AWA_CON	7	A	B	Rpleas_acq	Same	Rpleas	2pleas	acq_US_pleas_nomask	acq45_nomask	5	19	400	1	300	300	0	0	369	50	1	0	kuss	gütig	träumen	vertrauen	anregung	sonnig	krise	gierig	töten	versagen	ausrottung	sterben	besonnen	genießen	vergnügt	gesittet	kreativ	engagiert	bange	gemein	verbissen	geizig	krank	engstirnig	1	blank2r.bmp	0	1	+	0	1	blank2r.bmp	500	1	DHJF	500	1	blank2r.bmp	880	6	sonnig	880	1	!	1233	1	!	1272	0	0	0	0	0	0
2024-05-02	09:54:28	10:03:30	541504	6.6.1	4_exp_EVA_AWA_CON	7	A	B	Rpleas_acq	Same	Rpleas	2pleas	acq_US_unple_nomask	acq45_nomask	5	20	400	1	300	300	0	0	362	50	0	0	kuss	gütig	träumen	vertrauen	anregung	sonnig	krise	gierig	töten	versagen	ausrottung	sterben	besonnen	genießen	vergnügt	gesittet	kreativ	engagiert	bange	gemein	verbissen	geizig	krank	engstirnig	1	blank2r.bmp	0	1	+	0	1	blank2r.bmp	500	1	CPLW	500	1	blank2r.bmp	880	3	töten	880	1	!	1232	1	!	1263	0	0	0	0	0	0
2024-05-02	09:54:28	10:03:32	543783	6.6.1	4_exp_EVA_AWA_CON	7	A	B	Rpleas_acq	Same	Rpleas	2pleas	acq_US_unple_nomask	acq45_nomask	5	21	400	0	300	300	0	0	501	46	1	0	kuss	gütig	träumen	vertrauen	anregung	sonnig	krise	gierig	töten	versagen	ausrottung	sterben	besonnen	genießen	vergnügt	gesittet	kreativ	engagiert	bange	gemein	verbissen	geizig	krank	engstirnig	1	blank2r.bmp	0	1	+	0	1	blank2r.bmp	500	1	CPLW	500	1	blank2r.bmp	880	6	sterben	880	1	!	1232	1	!	-1	0	0	0	0	0	0
2024-05-02	09:54:28	10:03:35	546024	6.6.1	4_exp_EVA_AWA_CON	7	A	B	Rpleas_acq	Same	Rpleas	2pleas	acq_US_pleas_nomask	acq45_nomask	5	22	400	1	300	300	0	0	459	46	0	0	kuss	gütig	träumen	vertrauen	anregung	sonnig	krise	gierig	töten	versagen	ausrottung	sterben	besonnen	genießen	vergnügt	gesittet	kreativ	engagiert	bange	gemein	verbissen	geizig	krank	engstirnig	1	blank2r.bmp	0	1	+	0	1	blank2r.bmp	500	1	DHJF	500	1	blank2r.bmp	880	4	vertrauen	880	1	!	1232	1	!	1360	0	0	0	0	0	0
2024-05-02	09:54:28	10:03:37	548350	6.6.1	4_exp_EVA_AWA_CON	7	A	B	Rpleas_acq	Same	Rpleas	2pleas	acq_US_unple_nomask	acq45_nomask	5	23	400	0	300	300	0	0	546	46	1	0	kuss	gütig	träumen	vertrauen	anregung	sonnig	krise	gierig	töten	versagen	ausrottung	sterben	besonnen	genießen	vergnügt	gesittet	kreativ	engagiert	bange	gemein	verbissen	geizig	krank	engstirnig	1	blank2r.bmp	0	1	+	0	1	blank2r.bmp	500	1	CPLW	500	1	blank2r.bmp	880	5	ausrottung	880	1	!	1232	1	!	-1	0	0	0	0	0	0
2024-05-02	09:54:28	10:03:39	550497	6.6.1	4_exp_EVA_AWA_CON	7	A	B	Rpleas_acq	Same	Rpleas	2pleas	acq_US_pleas_nomask	acq45_nomask	5	24	400	1	300	300	0	0	368	50	1	0	kuss	gütig	träumen	vertrauen	anregung	sonnig	krise	gierig	töten	versagen	ausrottung	sterben	besonnen	genießen	vergnügt	gesittet	kreativ	engagiert	bange	gemein	verbissen	geizig	krank	engstirnig	1	blank2r.bmp	0	1	+	0	1	blank2r.bmp	500	1	DHJF	500	1	blank2r.bmp	880	1	kuss	880	1	!	1232	1	!	1269	0	0	0	0	0	0
2024-05-02	09:54:28	10:03:41	552756	6.6.1	4_exp_EVA_AWA_CON	7	A	B	Rpleas_acq	Same	Rpleas	2pleas	acq_US_pleas_nomask	acq45_nomask	5	25	400	0	300	300	0	0	481	50	1	0	kuss	gütig	träumen	vertrauen	anregung	sonnig	krise	gierig	töten	versagen	ausrottung	sterben	besonnen	genießen	vergnügt	gesittet	kreativ	engagiert	bange	gemein	verbissen	geizig	krank	engstirnig	1	blank2r.bmp	0	1	+	0	1	blank2r.bmp	500	1	DHJF	500	1	blank2r.bmp	880	3	träumen	880	1	!	1232	1	!	-1	0	0	0	0	0	0
2024-05-02	09:54:28	10:03:44	555118	6.6.1	4_exp_EVA_AWA_CON	7	A	B	Rpleas_acq	Same	Rpleas	2pleas	acq_US_unple_nomask	acq45_nomask	5	26	400	0	300	300	0	0	589	46	1	0	kuss	gütig	träumen	vertrauen	anregung	sonnig	krise	gierig	töten	versagen	ausrottung	sterben	besonnen	genießen	vergnügt	gesittet	kreativ	engagiert	bange	gemein	verbissen	geizig	krank	engstirnig	1	blank2r.bmp	0	1	+	0	1	blank2r.bmp	500	1	CPLW	500	1	blank2r.bmp	880	5	ausrottung	880	1	!	1232	1	!	-1	0	0	0	0	0	0
2024-05-02	09:54:28	10:03:46	557296	6.6.1	4_exp_EVA_AWA_CON	7	A	B	Rpleas_acq	Same	Rpleas	2pleas	acq_US_unple_nomask	acq45_nomask	5	27	400	1	300	300	0	0	404	46	1	0	kuss	gütig	träumen	vertrauen	anregung	sonnig	krise	gierig	töten	versagen	ausrottung	sterben	besonnen	genießen	vergnügt	gesittet	kreativ	engagiert	bange	gemein	verbissen	geizig	krank	engstirnig	1	blank2r.bmp	0	1	+	0	1	blank2r.bmp	500	1	CPLW	500	1	blank2r.bmp	880	2	gierig	880	1	!	1232	1	!	1305	0	0	0	0	0	0
2024-05-02	09:54:28	10:03:48	559398	6.6.1	4_exp_EVA_AWA_CON	7	A	B	Rpleas_acq	Same	Rpleas	2pleas	acq_US_pleas_nomask	acq45_nomask	5	28	400	0	300	300	0	0	326	50	1	0	kuss	gütig	träumen	vertrauen	anregung	sonnig	krise	gierig	töten	versagen	ausrottung	sterben	besonnen	genießen	vergnügt	gesittet	kreativ	engagiert	bange	gemein	verbissen	geizig	krank	engstirnig	1	blank2r.bmp	0	1	+	0	1	blank2r.bmp	500	1	DHJF	500	1	blank2r.bmp	880	6	sonnig	880	1	!	-1	1	!	-1	0	0	0	0	0	0
2024-05-02	09:54:28	10:03:50	561726	6.6.1	4_exp_EVA_AWA_CON	7	A	B	Rpleas_acq	Same	Rpleas	2pleas	acq_US_unple_nomask	acq45_nomask	5	29	400	0	300	300	0	0	553	46	1	0	kuss	gütig	träumen	vertrauen	anregung	sonnig	krise	gierig	töten	versagen	ausrottung	sterben	besonnen	genießen	vergnügt	gesittet	kreativ	engagiert	bange	gemein	verbissen	geizig	krank	engstirnig	1	blank2r.bmp	0	1	+	0	1	blank2r.bmp	500	1	CPLW	500	1	blank2r.bmp	880	4	versagen	880	1	!	1232	1	!	-1	0	0	0	0	0	0
2024-05-02	09:54:28	10:03:52	563846	6.6.1	4_exp_EVA_AWA_CON	7	A	B	Rpleas_acq	Same	Rpleas	2pleas	acq_US_pleas_nomask	acq45_nomask	5	30	400	1	300	300	0	0	341	50	1	0	kuss	gütig	träumen	vertrauen	anregung	sonnig	krise	gierig	töten	versagen	ausrottung	sterben	besonnen	genießen	vergnügt	gesittet	kreativ	engagiert	bange	gemein	verbissen	geizig	krank	engstirnig	1	blank2r.bmp	0	1	+	0	1	blank2r.bmp	500	1	DHJF	500	1	blank2r.bmp	880	1	kuss	880	1	!	1232	1	!	1241	0	0	0	0	0	0
2024-05-02	09:54:28	10:03:55	566097	6.6.1	4_exp_EVA_AWA_CON	7	A	B	Rpleas_acq	Same	Rpleas	2pleas	acq_US_unple_nomask	acq45_nomask	5	31	400	1	300	300	0	0	468	46	1	0	kuss	gütig	träumen	vertrauen	anregung	sonnig	krise	gierig	töten	versagen	ausrottung	sterben	besonnen	genießen	vergnügt	gesittet	kreativ	engagiert	bange	gemein	verbissen	geizig	krank	engstirnig	1	blank2r.bmp	0	1	+	0	1	blank2r.bmp	500	1	CPLW	500	1	blank2r.bmp	880	6	sterben	880	1	!	1232	1	!	1369	0	0	0	0	0	0
2024-05-02	09:54:28	10:03:57	568382	6.6.1	4_exp_EVA_AWA_CON	7	A	B	Rpleas_acq	Same	Rpleas	2pleas	acq_US_pleas_nomask	acq45_nomask	5	32	400	0	300	300	0	0	505	50	1	0	kuss	gütig	träumen	vertrauen	anregung	sonnig	krise	gierig	töten	versagen	ausrottung	sterben	besonnen	genießen	vergnügt	gesittet	kreativ	engagiert	bange	gemein	verbissen	geizig	krank	engstirnig	1	blank2r.bmp	0	1	+	0	1	blank2r.bmp	500	1	DHJF	500	1	blank2r.bmp	880	2	gütig	880	1	!	1233	1	!	-1	0	0	0	0	0	0
2024-05-02	09:54:28	10:03:59	570584	6.6.1	4_exp_EVA_AWA_CON	7	A	B	Rpleas_acq	Same	Rpleas	2pleas	acq_US_unple_nomask	acq45_nomask	5	33	400	1	300	300	0	0	423	46	1	0	kuss	gütig	träumen	vertrauen	anregung	sonnig	krise	gierig	töten	versagen	ausrottung	sterben	besonnen	genießen	vergnügt	gesittet	kreativ	engagiert	bange	gemein	verbissen	geizig	krank	engstirnig	1	blank2r.bmp	0	1	+	0	1	blank2r.bmp	500	1	CPLW	500	1	blank2r.bmp	880	3	töten	880	1	!	1232	1	!	1324	0	0	0	0	0	0
2024-05-02	09:54:28	10:04:01	572654	6.6.1	4_exp_EVA_AWA_CON	7	A	B	Rpleas_acq	Same	Rpleas	2pleas	acq_US_unple_nomask	acq45_nomask	5	34	400	0	300	300	0	0	294	50	0	0	kuss	gütig	träumen	vertrauen	anregung	sonnig	krise	gierig	töten	versagen	ausrottung	sterben	besonnen	genießen	vergnügt	gesittet	kreativ	engagiert	bange	gemein	verbissen	geizig	krank	engstirnig	1	blank2r.bmp	0	1	+	0	1	blank2r.bmp	500	1	CPLW	500	1	blank2r.bmp	880	1	krise	880	1	!	-1	1	!	-1	0	0	0	0	0	0
2024-05-02	09:54:28	10:04:04	575063	6.6.1	4_exp_EVA_AWA_CON	7	A	B	Rpleas_acq	Same	Rpleas	2pleas	acq_US_pleas_nomask	acq45_nomask	5	35	400	0	300	300	0	0	630	50	1	0	kuss	gütig	träumen	vertrauen	anregung	sonnig	krise	gierig	töten	versagen	ausrottung	sterben	besonnen	genießen	vergnügt	gesittet	kreativ	engagiert	bange	gemein	verbissen	geizig	krank	engstirnig	1	blank2r.bmp	0	1	+	0	1	blank2r.bmp	500	1	DHJF	500	1	blank2r.bmp	880	4	vertrauen	880	1	!	1232	1	!	-1	0	0	0	0	0	0
2024-05-02	09:54:28	10:04:06	577446	6.6.1	4_exp_EVA_AWA_CON	7	A	B	Rpleas_acq	Same	Rpleas	2pleas	acq_US_pleas_nomask	acq45_nomask	5	36	400	0	300	300	0	0	603	50	1	0	kuss	gütig	träumen	vertrauen	anregung	sonnig	krise	gierig	töten	versagen	ausrottung	sterben	besonnen	genießen	vergnügt	gesittet	kreativ	engagiert	bange	gemein	verbissen	geizig	krank	engstirnig	1	blank2r.bmp	0	1	+	0	1	blank2r.bmp	500	1	DHJF	500	1	blank2r.bmp	880	5	anregung	880	1	!	1232	1	!	-1	0	0	0	0	0	0
2024-05-02	09:54:28	10:04:31	602498	6.6.1	4_exp_EVA_AWA_CON	7	A	B	Rpleas_acq	Same	Rpleas	2pleas	EvalRating_firsttwo	EvalRating_firsttwo	6	1	0	0	300	300	0	0	11286	line	0	89,453125pct	kuss	gütig	träumen	vertrauen	anregung	sonnig	krise	gierig	töten	versagen	ausrottung	sterben	besonnen	genießen	vergnügt	gesittet	kreativ	engagiert	bange	gemein	verbissen	geizig	krank	engstirnig	1		-7	1	Wie angenehm oder unangenehm finden Sie die  Buchstabenkette WDLH?	-7	1		-7	1		-7	1		-7	1	Unangenehm	-7	1	Angenehm	-7	0	0	0	0	0	0	0	0	0
2024-05-02	09:54:28	10:04:38	609763	6.6.1	4_exp_EVA_AWA_CON	7	A	B	Rpleas_acq	Same	Rpleas	2pleas	EvalRating_lastfour	EvalRating_lastfour	7	1	0	0	300	300	0	0	4891	line	0	-7,5520833333333285964pct	kuss	gütig	träumen	vertrauen	anregung	sonnig	krise	gierig	töten	versagen	ausrottung	sterben	besonnen	genießen	vergnügt	gesittet	kreativ	engagiert	bange	gemein	verbissen	geizig	krank	engstirnig	1		-8	3	Wie angenehm oder unangenehm finden Sie die  Buchstabenkette FCJP?	-8	1		-8	1		-8	1		-8	1	Unangenehm	-8	1	Angenehm	-8	0	0	0	0	0	0	0	0	0
2024-05-02	09:54:28	10:04:41	612128	6.6.1	4_exp_EVA_AWA_CON	7	A	B	Rpleas_acq	Same	Rpleas	2pleas	blank_screen	EvalRating_lastfour	7	3	0	0	300	300	0	0	0	0	0	-7,5520833333333285964pct	kuss	gütig	träumen	vertrauen	anregung	sonnig	krise	gierig	töten	versagen	ausrottung	sterben	besonnen	genießen	vergnügt	gesittet	kreativ	engagiert	bange	gemein	verbissen	geizig	krank	engstirnig	1		-8	0	0	0	0	0	0	0	0	0	0	0	0	0	0	0	0	0	0	0	0	0	0	0	0	0	0	0
2024-05-02	09:54:28	10:04:43	614186	6.6.1	4_exp_EVA_AWA_CON	7	A	B	Rpleas_acq	Same	Rpleas	2pleas	EvalRating_lastfour	EvalRating_lastfour	7	4	0	0	300	300	0	0	1471	line	0	40,3645833333333428072pct	kuss	gütig	träumen	vertrauen	anregung	sonnig	krise	gierig	töten	versagen	ausrottung	sterben	besonnen	genießen	vergnügt	gesittet	kreativ	engagiert	bange	gemein	verbissen	geizig	krank	engstirnig	1		-8	1	Wie angenehm oder unangenehm finden Sie die  Buchstabenkette CPLW?	-8	1		-8	1		-8	1		-8	1	Unangenehm	-8	1	Angenehm	-8	0	0	0	0	0	0	0	0	0
2024-05-02	09:54:28	10:04:45	616551	6.6.1	4_exp_EVA_AWA_CON	7	A	B	Rpleas_acq	Same	Rpleas	2pleas	blank_screen	EvalRating_lastfour	7	6	0	0	300	300	0	0	0	0	0	40,3645833333333428072pct	kuss	gütig	träumen	vertrauen	anregung	sonnig	krise	gierig	töten	versagen	ausrottung	sterben	besonnen	genießen	vergnügt	gesittet	kreativ	engagiert	bange	gemein	verbissen	geizig	krank	engstirnig	1		-8	0	0	0	0	0	0	0	0	0	0	0	0	0	0	0	0	0	0	0	0	0	0	0	0	0	0	0
2024-05-02	09:54:28	10:04:47	618354	6.6.1	4_exp_EVA_AWA_CON	7	A	B	Rpleas_acq	Same	Rpleas	2pleas	EvalRating_lastfour	EvalRating_lastfour	7	7	0	0	300	300	0	0	1216	line	0	39,84375pct	kuss	gütig	träumen	vertrauen	anregung	sonnig	krise	gierig	töten	versagen	ausrottung	sterben	besonnen	genießen	vergnügt	gesittet	kreativ	engagiert	bange	gemein	verbissen	geizig	krank	engstirnig	1		-8	2	Wie angenehm oder unangenehm finden Sie die  Buchstabenkette DHJF?	-8	1		-8	1		-8	1		-8	1	Unangenehm	-8	1	Angenehm	-8	0	0	0	0	0	0	0	0	0
2024-05-02	09:54:28	10:05:32	663550	6.6.1	4_exp_EVA_AWA_CON	7	A	B	Rpleas_acq	Same	Rpleas	2pleas	conawa_CS2_US3	conawa1_nomask	8	1	0	0	300	300	0	0	12445	töten	1	39,84375pct	kuss	gütig	träumen	vertrauen	anregung	sonnig	krise	gierig	töten	versagen	ausrottung	sterben	besonnen	genießen	vergnügt	gesittet	kreativ	engagiert	bange	gemein	verbissen	geizig	krank	engstirnig	0	0	0	0	0	0	0	0	0	0	0	0	0	0	0	0	0	0	0	0	0	0	0	0	0	0	0	0	0	0
2024-05-02	09:54:28	10:05:32	663551	6.6.1	4_exp_EVA_AWA_CON	7	A	B	Rpleas_acq	Same	Rpleas	2pleas	conawa_CS2_US3_confidence	conawa1_nomask	8	1	0	0	300	300	0	0	12445	guess	1	39,84375pct	kuss	gütig	träumen	vertrauen	anregung	sonnig	krise	gierig	töten	versagen	ausrottung	sterben	besonnen	genießen	vergnügt	gesittet	kreativ	engagiert	bange	gemein	verbissen	geizig	krank	engstirnig	0	0	0	0	0	0	0	0	0	0	0	0	0	0	0	0	0	0	0	0	0	0	0	0	0	0	0	0	0	0
2024-05-02	09:54:28	10:05:37	668483	6.6.1	4_exp_EVA_AWA_CON	7	A	B	Rpleas_acq	Same	Rpleas	2pleas	conawa_CS1_US5	conawa1_nomask	8	2	0	0	300	300	0	0	4319	krank	1	39,84375pct	kuss	gütig	träumen	vertrauen	anregung	sonnig	krise	gierig	töten	versagen	ausrottung	sterben	besonnen	genießen	vergnügt	gesittet	kreativ	engagiert	bange	gemein	verbissen	geizig	krank	engstirnig	0	0	0	0	0	0	0	0	0	0	0	0	0	0	0	0	0	0	0	0	0	0	0	0	0	0	0	0	0	0
2024-05-02	09:54:28	10:05:37	668484	6.6.1	4_exp_EVA_AWA_CON	7	A	B	Rpleas_acq	Same	Rpleas	2pleas	conawa_CS1_US5_confidence	conawa1_nomask	8	2	0	0	300	300	0	0	4319	sure	1	39,84375pct	kuss	gütig	träumen	vertrauen	anregung	sonnig	krise	gierig	töten	versagen	ausrottung	sterben	besonnen	genießen	vergnügt	gesittet	kreativ	engagiert	bange	gemein	verbissen	geizig	krank	engstirnig	0	0	0	0	0	0	0	0	0	0	0	0	0	0	0	0	0	0	0	0	0	0	0	0	0	0	0	0	0	0
2024-05-02	09:54:28	10:05:43	674587	6.6.1	4_exp_EVA_AWA_CON	7	A	B	Rpleas_acq	Same	Rpleas	2pleas	conawa_CS2_US5	conawa1_nomask	8	3	0	0	300	300	0	0	5491	ausrottung	1	39,84375pct	kuss	gütig	träumen	vertrauen	anregung	sonnig	krise	gierig	töten	versagen	ausrottung	sterben	besonnen	genießen	vergnügt	gesittet	kreativ	engagiert	bange	gemein	verbissen	geizig	krank	engstirnig	0	0	0	0	0	0	0	0	0	0	0	0	0	0	0	0	0	0	0	0	0	0	0	0	0	0	0	0	0	0
2024-05-02	09:54:28	10:05:43	674589	6.6.1	4_exp_EVA_AWA_CON	7	A	B	Rpleas_acq	Same	Rpleas	2pleas	conawa_CS2_US5_confidence	conawa1_nomask	8	3	0	0	300	300	0	0	5491	probably	1	39,84375pct	kuss	gütig	träumen	vertrauen	anregung	sonnig	krise	gierig	töten	versagen	ausrottung	sterben	besonnen	genießen	vergnügt	gesittet	kreativ	engagiert	bange	gemein	verbissen	geizig	krank	engstirnig	0	0	0	0	0	0	0	0	0	0	0	0	0	0	0	0	0	0	0	0	0	0	0	0	0	0	0	0	0	0
2024-05-02	09:54:28	10:05:50	681041	6.6.1	4_exp_EVA_AWA_CON	7	A	B	Rpleas_acq	Same	Rpleas	2pleas	conawa_CS2_US2	conawa1_nomask	8	4	0	0	300	300	0	0	5842	gierig	1	39,84375pct	kuss	gütig	träumen	vertrauen	anregung	sonnig	krise	gierig	töten	versagen	ausrottung	sterben	besonnen	genießen	vergnügt	gesittet	kreativ	engagiert	bange	gemein	verbissen	geizig	krank	engstirnig	0	0	0	0	0	0	0	0	0	0	0	0	0	0	0	0	0	0	0	0	0	0	0	0	0	0	0	0	0	0
2024-05-02	09:54:28	10:05:50	681042	6.6.1	4_exp_EVA_AWA_CON	7	A	B	Rpleas_acq	Same	Rpleas	2pleas	conawa_CS2_US2_confidence	conawa1_nomask	8	4	0	0	300	300	0	0	5842	probably	1	39,84375pct	kuss	gütig	träumen	vertrauen	anregung	sonnig	krise	gierig	töten	versagen	ausrottung	sterben	besonnen	genießen	vergnügt	gesittet	kreativ	engagiert	bange	gemein	verbissen	geizig	krank	engstirnig	0	0	0	0	0	0	0	0	0	0	0	0	0	0	0	0	0	0	0	0	0	0	0	0	0	0	0	0	0	0
2024-05-02	09:54:28	10:05:55	686305	6.6.1	4_exp_EVA_AWA_CON	7	A	B	Rpleas_acq	Same	Rpleas	2pleas	conawa_CS1_US6	conawa1_nomask	8	5	0	0	300	300	0	0	4653	engagiert	1	39,84375pct	kuss	gütig	träumen	vertrauen	anregung	sonnig	krise	gierig	töten	versagen	ausrottung	sterben	besonnen	genießen	vergnügt	gesittet	kreativ	engagiert	bange	gemein	verbissen	geizig	krank	engstirnig	0	0	0	0	0	0	0	0	0	0	0	0	0	0	0	0	0	0	0	0	0	0	0	0	0	0	0	0	0	0
2024-05-02	09:54:28	10:05:55	686306	6.6.1	4_exp_EVA_AWA_CON	7	A	B	Rpleas_acq	Same	Rpleas	2pleas	conawa_CS1_US6_confidence	conawa1_nomask	8	5	0	0	300	300	0	0	4653	sure	1	39,84375pct	kuss	gütig	träumen	vertrauen	anregung	sonnig	krise	gierig	töten	versagen	ausrottung	sterben	besonnen	genießen	vergnügt	gesittet	kreativ	engagiert	bange	gemein	verbissen	geizig	krank	engstirnig	0	0	0	0	0	0	0	0	0	0	0	0	0	0	0	0	0	0	0	0	0	0	0	0	0	0	0	0	0	0
2024-05-02	09:54:28	10:06:01	692098	6.6.1	4_exp_EVA_AWA_CON	7	A	B	Rpleas_acq	Same	Rpleas	2pleas	conawa_CS2_US6	conawa1_nomask	8	6	0	0	300	300	0	0	5183	sterben	1	39,84375pct	kuss	gütig	träumen	vertrauen	anregung	sonnig	krise	gierig	töten	versagen	ausrottung	sterben	besonnen	genießen	vergnügt	gesittet	kreativ	engagiert	bange	gemein	verbissen	geizig	krank	engstirnig	0	0	0	0	0	0	0	0	0	0	0	0	0	0	0	0	0	0	0	0	0	0	0	0	0	0	0	0	0	0
2024-05-02	09:54:28	10:06:01	692100	6.6.1	4_exp_EVA_AWA_CON	7	A	B	Rpleas_acq	Same	Rpleas	2pleas	conawa_CS2_US6_confidence	conawa1_nomask	8	6	0	0	300	300	0	0	5183	guess	1	39,84375pct	kuss	gütig	träumen	vertrauen	anregung	sonnig	krise	gierig	töten	versagen	ausrottung	sterben	besonnen	genießen	vergnügt	gesittet	kreativ	engagiert	bange	gemein	verbissen	geizig	krank	engstirnig	0	0	0	0	0	0	0	0	0	0	0	0	0	0	0	0	0	0	0	0	0	0	0	0	0	0	0	0	0	0
2024-05-02	09:54:28	10:06:05	696421	6.6.1	4_exp_EVA_AWA_CON	7	A	B	Rpleas_acq	Same	Rpleas	2pleas	conawa_CS2_US1	conawa1_nomask	8	7	0	0	300	300	0	0	3707	krise	1	39,84375pct	kuss	gütig	träumen	vertrauen	anregung	sonnig	krise	gierig	töten	versagen	ausrottung	sterben	besonnen	genießen	vergnügt	gesittet	kreativ	engagiert	bange	gemein	verbissen	geizig	krank	engstirnig	0	0	0	0	0	0	0	0	0	0	0	0	0	0	0	0	0	0	0	0	0	0	0	0	0	0	0	0	0	0
2024-05-02	09:54:28	10:06:05	696423	6.6.1	4_exp_EVA_AWA_CON	7	A	B	Rpleas_acq	Same	Rpleas	2pleas	conawa_CS2_US1_confidence	conawa1_nomask	8	7	0	0	300	300	0	0	3707	probably	1	39,84375pct	kuss	gütig	träumen	vertrauen	anregung	sonnig	krise	gierig	töten	versagen	ausrottung	sterben	besonnen	genießen	vergnügt	gesittet	kreativ	engagiert	bange	gemein	verbissen	geizig	krank	engstirnig	0	0	0	0	0	0	0	0	0	0	0	0	0	0	0	0	0	0	0	0	0	0	0	0	0	0	0	0	0	0
2024-05-02	09:54:28	10:06:12	703216	6.6.1	4_exp_EVA_AWA_CON	7	A	B	Rpleas_acq	Same	Rpleas	2pleas	conawa_CS1_US2	conawa1_nomask	8	8	0	0	300	300	0	0	6183	gütig	1	39,84375pct	kuss	gütig	träumen	vertrauen	anregung	sonnig	krise	gierig	töten	versagen	ausrottung	sterben	besonnen	genießen	vergnügt	gesittet	kreativ	engagiert	bange	gemein	verbissen	geizig	krank	engstirnig	0	0	0	0	0	0	0	0	0	0	0	0	0	0	0	0	0	0	0	0	0	0	0	0	0	0	0	0	0	0
2024-05-02	09:54:28	10:06:12	703217	6.6.1	4_exp_EVA_AWA_CON	7	A	B	Rpleas_acq	Same	Rpleas	2pleas	conawa_CS1_US2_confidence	conawa1_nomask	8	8	0	0	300	300	0	0	6183	sure	1	39,84375pct	kuss	gütig	träumen	vertrauen	anregung	sonnig	krise	gierig	töten	versagen	ausrottung	sterben	besonnen	genießen	vergnügt	gesittet	kreativ	engagiert	bange	gemein	verbissen	geizig	krank	engstirnig	0	0	0	0	0	0	0	0	0	0	0	0	0	0	0	0	0	0	0	0	0	0	0	0	0	0	0	0	0	0
2024-05-02	09:54:28	10:06:17	708359	6.6.1	4_exp_EVA_AWA_CON	7	A	B	Rpleas_acq	Same	Rpleas	2pleas	conawa_CS1_US1	conawa1_nomask	8	9	0	0	300	300	0	0	4527	kuss	1	39,84375pct	kuss	gütig	träumen	vertrauen	anregung	sonnig	krise	gierig	töten	versagen	ausrottung	sterben	besonnen	genießen	vergnügt	gesittet	kreativ	engagiert	bange	gemein	verbissen	geizig	krank	engstirnig	0	0	0	0	0	0	0	0	0	0	0	0	0	0	0	0	0	0	0	0	0	0	0	0	0	0	0	0	0	0
2024-05-02	09:54:28	10:06:17	708361	6.6.1	4_exp_EVA_AWA_CON	7	A	B	Rpleas_acq	Same	Rpleas	2pleas	conawa_CS1_US1_confidence	conawa1_nomask	8	9	0	0	300	300	0	0	4527	probably	1	39,84375pct	kuss	gütig	träumen	vertrauen	anregung	sonnig	krise	gierig	töten	versagen	ausrottung	sterben	besonnen	genießen	vergnügt	gesittet	kreativ	engagiert	bange	gemein	verbissen	geizig	krank	engstirnig	0	0	0	0	0	0	0	0	0	0	0	0	0	0	0	0	0	0	0	0	0	0	0	0	0	0	0	0	0	0
2024-05-02	09:54:28	10:06:22	713262	6.6.1	4_exp_EVA_AWA_CON	7	A	B	Rpleas_acq	Same	Rpleas	2pleas	conawa_CS2_US4	conawa1_nomask	8	10	0	0	300	300	0	0	4288	versagen	1	39,84375pct	kuss	gütig	träumen	vertrauen	anregung	sonnig	krise	gierig	töten	versagen	ausrottung	sterben	besonnen	genießen	vergnügt	gesittet	kreativ	engagiert	bange	gemein	verbissen	geizig	krank	engstirnig	0	0	0	0	0	0	0	0	0	0	0	0	0	0	0	0	0	0	0	0	0	0	0	0	0	0	0	0	0	0
2024-05-02	09:54:28	10:06:22	713264	6.6.1	4_exp_EVA_AWA_CON	7	A	B	Rpleas_acq	Same	Rpleas	2pleas	conawa_CS2_US4_confidence	conawa1_nomask	8	10	0	0	300	300	0	0	4288	probably	1	39,84375pct	kuss	gütig	träumen	vertrauen	anregung	sonnig	krise	gierig	töten	versagen	ausrottung	sterben	besonnen	genießen	vergnügt	gesittet	kreativ	engagiert	bange	gemein	verbissen	geizig	krank	engstirnig	0	0	0	0	0	0	0	0	0	0	0	0	0	0	0	0	0	0	0	0	0	0	0	0	0	0	0	0	0	0
2024-05-02	09:54:28	10:06:28	719056	6.6.1	4_exp_EVA_AWA_CON	7	A	B	Rpleas_acq	Same	Rpleas	2pleas	conawa_CS1_US4	conawa1_nomask	8	11	0	0	300	300	0	0	5186	vertrauen	1	39,84375pct	kuss	gütig	träumen	vertrauen	anregung	sonnig	krise	gierig	töten	versagen	ausrottung	sterben	besonnen	genießen	vergnügt	gesittet	kreativ	engagiert	bange	gemein	verbissen	geizig	krank	engstirnig	0	0	0	0	0	0	0	0	0	0	0	0	0	0	0	0	0	0	0	0	0	0	0	0	0	0	0	0	0	0
2024-05-02	09:54:28	10:06:28	719057	6.6.1	4_exp_EVA_AWA_CON	7	A	B	Rpleas_acq	Same	Rpleas	2pleas	conawa_CS1_US4_confidence	conawa1_nomask	8	11	0	0	300	300	0	0	5186	sure	1	39,84375pct	kuss	gütig	träumen	vertrauen	anregung	sonnig	krise	gierig	töten	versagen	ausrottung	sterben	besonnen	genießen	vergnügt	gesittet	kreativ	engagiert	bange	gemein	verbissen	geizig	krank	engstirnig	0	0	0	0	0	0	0	0	0	0	0	0	0	0	0	0	0	0	0	0	0	0	0	0	0	0	0	0	0	0
2024-05-02	09:54:28	10:06:32	723639	6.6.1	4_exp_EVA_AWA_CON	7	A	B	Rpleas_acq	Same	Rpleas	2pleas	conawa_CS1_US3	conawa1_nomask	8	12	0	0	300	300	0	0	3967	träumen	1	39,84375pct	kuss	gütig	träumen	vertrauen	anregung	sonnig	krise	gierig	töten	versagen	ausrottung	sterben	besonnen	genießen	vergnügt	gesittet	kreativ	engagiert	bange	gemein	verbissen	geizig	krank	engstirnig	0	0	0	0	0	0	0	0	0	0	0	0	0	0	0	0	0	0	0	0	0	0	0	0	0	0	0	0	0	0
2024-05-02	09:54:28	10:06:32	723640	6.6.1	4_exp_EVA_AWA_CON	7	A	B	Rpleas_acq	Same	Rpleas	2pleas	conawa_CS1_US3_confidence	conawa1_nomask	8	12	0	0	300	300	0	0	3967	sure	1	39,84375pct	kuss	gütig	träumen	vertrauen	anregung	sonnig	krise	gierig	töten	versagen	ausrottung	sterben	besonnen	genießen	vergnügt	gesittet	kreativ	engagiert	bange	gemein	verbissen	geizig	krank	engstirnig	0	0	0	0	0	0	0	0	0	0	0	0	0	0	0	0	0	0	0	0	0	0	0	0	0	0	0	0	0	0
2024-05-02	09:54:28	10:07:53	804640	6.6.1	4_exp_EVA_AWA_CON	7	A	B	Rpleas_acq	Same	Rpleas	2pleas	cond_US_unple_123_nomask_CS2	condtest_nomask_1	11	1	400	1	300	300	0	0	436	46	1	39,84375pct	kuss	gütig	träumen	vertrauen	anregung	sonnig	krise	gierig	töten	versagen	ausrottung	sterben	besonnen	genießen	vergnügt	gesittet	kreativ	engagiert	bange	gemein	verbissen	geizig	krank	engstirnig	1	blank2r.bmp	0	1	+	0	1	blank2r.bmp	500	1	DHJF	500	1	blank2r.bmp	880	3	gierig	880	1	!	1232	1	!	1338	0	0	0	0	0	0
2024-05-02	09:54:28	10:07:55	806902	6.6.1	4_exp_EVA_AWA_CON	7	A	B	Rpleas_acq	Same	Rpleas	2pleas	cond_new_pleas_456_nomask_CS1	condtest_nomask_1	11	2	400	0	300	300	0	0	489	50	1	39,84375pct	kuss	gütig	träumen	vertrauen	anregung	sonnig	krise	gierig	töten	versagen	ausrottung	sterben	besonnen	genießen	vergnügt	gesittet	kreativ	engagiert	bange	gemein	verbissen	geizig	krank	engstirnig	1	blank2r.bmp	0	1	+	0	1	blank2r.bmp	500	1	CPLW	500	1	blank2r.bmp	880	1	gesittet	880	1	!	1232	1	!	-1	0	0	0	0	0	0
