date	time	currenttime	elapsedtime	build	currentexpt	subject	CS_AB	US_AB	LRpleas_acq	SameOppo	condition_Lpleas	condition_1pleas	trialcode	blockcode	blocknum	trialnum	windowcenter	inwindow	pretrialpause	posttrialpause	trialduration	trialtimeout	latency	response	correct	correctedscore	US_nomask_pleas1	US_nomask_pleas2	US_nomask_pleas3	US_nomask_pleas4	US_nomask_pleas5	US_nomask_pleas6	US_nomask_unple1	US_nomask_unple2	US_nomask_unple3	US_nomask_unple4	US_nomask_unple5	US_nomask_unple6	new_nomask_pleas1	new_nomask_pleas2	new_nomask_pleas3	new_nomask_pleas4	new_nomask_pleas5	new_nomask_pleas6	new_nomask_unple1	new_nomask_unple2	new_nomask_unple3	new_nomask_unple4	new_nomask_unple5	new_nomask_unple6	stimulusnumber1	stimulusitem1	stimulusonset1	stimulusnumber2	stimulusitem2	stimulusonset2	stimulusnumber3	stimulusitem3	stimulusonset3	stimulusnumber4	stimulusitem4	stimulusonset4	stimulusnumber5	stimulusitem5	stimulusonset5	stimulusnumber6	stimulusitem6	stimulusonset6	stimulusnumber7	stimulusitem7	stimulusonset7	stimulusnumber8	stimulusitem8	stimulusonset8	stimulusnumber9	stimulusitem9	stimulusonset9	stimulusnumber10	stimulusitem10	stimulusonset10
2024-05-16	11:34:55	11:38:25	209584	6.6.1	4_exp_EVA_AWA_CON	41	A	B	Rpleas_acq	Same	Rpleas	1pleas	acq_new_unple_nomask	acq1_nomask	1	1	0	0	300	300	0	0	4794	46	1	0	kuss	träumen	genießen	vertrauen	gesittet	vergnügt	krise	töten	gemein	versagen	geizig	verbissen	sonnig	gütig	anregung	engagiert	besonnen	kreativ	sterben	gierig	ausrottung	engstirnig	bange	krank	1	blank2r.bmp	0	1	+	0	1	blank2r.bmp	500	2	B2r.bmp	500	1	blank2r.bmp	880	5	bange	880	0	0	0	0	0	0	0	0	0	0	0	0
2024-05-16	11:34:55	11:38:27	212465	6.6.1	4_exp_EVA_AWA_CON	41	A	B	Rpleas_acq	Same	Rpleas	1pleas	acq_new_pleas_nomask	acq1_nomask	1	2	0	0	300	300	0	0	1390	50	1	0	kuss	träumen	genießen	vertrauen	gesittet	vergnügt	krise	töten	gemein	versagen	geizig	verbissen	sonnig	gütig	anregung	engagiert	besonnen	kreativ	sterben	gierig	ausrottung	engstirnig	bange	krank	1	blank2r.bmp	0	1	+	0	1	blank2r.bmp	500	4	B4r.bmp	500	1	blank2r.bmp	880	1	sonnig	880	0	0	0	0	0	0	0	0	0	0	0	0
2024-05-16	11:34:55	11:38:31	216008	6.6.1	4_exp_EVA_AWA_CON	41	A	B	Rpleas_acq	Same	Rpleas	1pleas	acq_new_unple_nomask	acq1_nomask	1	3	0	0	300	300	0	0	2062	46	1	0	kuss	träumen	genießen	vertrauen	gesittet	vergnügt	krise	töten	gemein	versagen	geizig	verbissen	sonnig	gütig	anregung	engagiert	besonnen	kreativ	sterben	gierig	ausrottung	engstirnig	bange	krank	1	blank2r.bmp	0	1	+	0	1	blank2r.bmp	500	8	C4r.bmp	500	1	blank2r.bmp	880	3	ausrottung	880	0	0	0	0	0	0	0	0	0	0	0	0
2024-05-16	11:34:55	11:38:34	218618	6.6.1	4_exp_EVA_AWA_CON	41	A	B	Rpleas_acq	Same	Rpleas	1pleas	acq_US_unple_nomask	acq1_nomask	1	4	0	0	300	300	0	0	918	50	0	0	kuss	träumen	genießen	vertrauen	gesittet	vergnügt	krise	töten	gemein	versagen	geizig	verbissen	sonnig	gütig	anregung	engagiert	besonnen	kreativ	sterben	gierig	ausrottung	engstirnig	bange	krank	1	blank2r.bmp	0	1	+	0	1	blank2r.bmp	500	1	DHJF	500	1	blank2r.bmp	880	5	geizig	880	1	FEHLER	1820	0	0	0	0	0	0	0	0	0
2024-05-16	11:34:55	11:38:37	222161	6.6.1	4_exp_EVA_AWA_CON	41	A	B	Rpleas_acq	Same	Rpleas	1pleas	acq_US_unple_nomask	acq1_nomask	1	5	0	0	300	300	0	0	2260	46	1	0	kuss	träumen	genießen	vertrauen	gesittet	vergnügt	krise	töten	gemein	versagen	geizig	verbissen	sonnig	gütig	anregung	engagiert	besonnen	kreativ	sterben	gierig	ausrottung	engstirnig	bange	krank	1	blank2r.bmp	0	1	+	0	1	blank2r.bmp	500	1	DHJF	500	1	blank2r.bmp	880	3	gemein	880	0	0	0	0	0	0	0	0	0	0	0	0
2024-05-16	11:34:55	11:38:39	224473	6.6.1	4_exp_EVA_AWA_CON	41	A	B	Rpleas_acq	Same	Rpleas	1pleas	acq_US_pleas_nomask	acq1_nomask	1	6	0	0	300	300	0	0	830	50	1	0	kuss	träumen	genießen	vertrauen	gesittet	vergnügt	krise	töten	gemein	versagen	geizig	verbissen	sonnig	gütig	anregung	engagiert	besonnen	kreativ	sterben	gierig	ausrottung	engstirnig	bange	krank	1	blank2r.bmp	0	1	+	0	1	blank2r.bmp	500	1	CPLW	500	1	blank2r.bmp	880	3	genießen	880	0	0	0	0	0	0	0	0	0	0	0	0
2024-05-16	11:34:55	11:38:42	226960	6.6.1	4_exp_EVA_AWA_CON	41	A	B	Rpleas_acq	Same	Rpleas	1pleas	acq_new_pleas_nomask	acq1_nomask	1	7	0	0	300	300	0	0	1007	50	1	0	kuss	träumen	genießen	vertrauen	gesittet	vergnügt	krise	töten	gemein	versagen	geizig	verbissen	sonnig	gütig	anregung	engagiert	besonnen	kreativ	sterben	gierig	ausrottung	engstirnig	bange	krank	1	blank2r.bmp	0	1	+	0	1	blank2r.bmp	500	6	C2r.bmp	500	1	blank2r.bmp	880	2	gütig	880	0	0	0	0	0	0	0	0	0	0	0	0
2024-05-16	11:34:55	11:38:44	229176	6.6.1	4_exp_EVA_AWA_CON	41	A	B	Rpleas_acq	Same	Rpleas	1pleas	acq_new_pleas_nomask	acq1_nomask	1	8	0	0	300	300	0	0	731	50	1	0	kuss	träumen	genießen	vertrauen	gesittet	vergnügt	krise	töten	gemein	versagen	geizig	verbissen	sonnig	gütig	anregung	engagiert	besonnen	kreativ	sterben	gierig	ausrottung	engstirnig	bange	krank	1	blank2r.bmp	0	1	+	0	1	blank2r.bmp	500	7	C3r.bmp	500	1	blank2r.bmp	880	6	kreativ	880	0	0	0	0	0	0	0	0	0	0	0	0
2024-05-16	11:34:55	11:38:46	231328	6.6.1	4_exp_EVA_AWA_CON	41	A	B	Rpleas_acq	Same	Rpleas	1pleas	acq_new_unple_nomask	acq1_nomask	1	9	0	0	300	300	0	0	662	46	1	0	kuss	träumen	genießen	vertrauen	gesittet	vergnügt	krise	töten	gemein	versagen	geizig	verbissen	sonnig	gütig	anregung	engagiert	besonnen	kreativ	sterben	gierig	ausrottung	engstirnig	bange	krank	1	blank2r.bmp	0	1	+	0	1	blank2r.bmp	500	1	B1r.bmp	500	1	blank2r.bmp	880	6	krank	880	0	0	0	0	0	0	0	0	0	0	0	0
2024-05-16	11:34:55	11:38:49	234192	6.6.1	4_exp_EVA_AWA_CON	41	A	B	Rpleas_acq	Same	Rpleas	1pleas	acq_US_unple_nomask	acq1_nomask	1	10	0	0	300	300	0	0	1374	46	1	0	kuss	träumen	genießen	vertrauen	gesittet	vergnügt	krise	töten	gemein	versagen	geizig	verbissen	sonnig	gütig	anregung	engagiert	besonnen	kreativ	sterben	gierig	ausrottung	engstirnig	bange	krank	1	blank2r.bmp	0	1	+	0	1	blank2r.bmp	500	1	DHJF	500	1	blank2r.bmp	880	4	versagen	880	0	0	0	0	0	0	0	0	0	0	0	0
2024-05-16	11:34:55	11:38:51	236480	6.6.1	4_exp_EVA_AWA_CON	41	A	B	Rpleas_acq	Same	Rpleas	1pleas	acq_US_pleas_nomask	acq1_nomask	1	11	0	0	300	300	0	0	800	50	1	0	kuss	träumen	genießen	vertrauen	gesittet	vergnügt	krise	töten	gemein	versagen	geizig	verbissen	sonnig	gütig	anregung	engagiert	besonnen	kreativ	sterben	gierig	ausrottung	engstirnig	bange	krank	1	blank2r.bmp	0	1	+	0	1	blank2r.bmp	500	1	CPLW	500	1	blank2r.bmp	880	4	vertrauen	880	0	0	0	0	0	0	0	0	0	0	0	0
2024-05-16	11:34:55	11:38:53	238568	6.6.1	4_exp_EVA_AWA_CON	41	A	B	Rpleas_acq	Same	Rpleas	1pleas	acq_US_pleas_nomask	acq1_nomask	1	12	0	0	300	300	0	0	607	50	1	0	kuss	träumen	genießen	vertrauen	gesittet	vergnügt	krise	töten	gemein	versagen	geizig	verbissen	sonnig	gütig	anregung	engagiert	besonnen	kreativ	sterben	gierig	ausrottung	engstirnig	bange	krank	1	blank2r.bmp	0	1	+	0	1	blank2r.bmp	500	1	CPLW	500	1	blank2r.bmp	880	1	kuss	880	0	0	0	0	0	0	0	0	0	0	0	0
2024-05-16	11:34:55	11:38:56	240728	6.6.1	4_exp_EVA_AWA_CON	41	A	B	Rpleas_acq	Same	Rpleas	1pleas	acq_new_pleas_nomask	acq1_nomask	1	13	0	0	300	300	0	0	675	50	1	0	kuss	träumen	genießen	vertrauen	gesittet	vergnügt	krise	töten	gemein	versagen	geizig	verbissen	sonnig	gütig	anregung	engagiert	besonnen	kreativ	sterben	gierig	ausrottung	engstirnig	bange	krank	1	blank2r.bmp	0	1	+	0	1	blank2r.bmp	500	5	C1r.bmp	500	1	blank2r.bmp	880	5	besonnen	880	0	0	0	0	0	0	0	0	0	0	0	0
2024-05-16	11:34:55	11:38:58	242912	6.6.1	4_exp_EVA_AWA_CON	41	A	B	Rpleas_acq	Same	Rpleas	1pleas	acq_new_unple_nomask	acq1_nomask	1	14	0	0	300	300	0	0	698	46	1	0	kuss	träumen	genießen	vertrauen	gesittet	vergnügt	krise	töten	gemein	versagen	geizig	verbissen	sonnig	gütig	anregung	engagiert	besonnen	kreativ	sterben	gierig	ausrottung	engstirnig	bange	krank	1	blank2r.bmp	0	1	+	0	1	blank2r.bmp	500	3	B3r.bmp	500	1	blank2r.bmp	880	2	gierig	880	0	0	0	0	0	0	0	0	0	0	0	0
2024-05-16	11:34:55	11:39:00	244968	6.6.1	4_exp_EVA_AWA_CON	41	A	B	Rpleas_acq	Same	Rpleas	1pleas	acq_new_unple_nomask	acq1_nomask	1	15	0	0	300	300	0	0	573	46	1	0	kuss	träumen	genießen	vertrauen	gesittet	vergnügt	krise	töten	gemein	versagen	geizig	verbissen	sonnig	gütig	anregung	engagiert	besonnen	kreativ	sterben	gierig	ausrottung	engstirnig	bange	krank	1	blank2r.bmp	0	1	+	0	1	blank2r.bmp	500	4	B4r.bmp	500	1	blank2r.bmp	880	1	sterben	880	0	0	0	0	0	0	0	0	0	0	0	0
2024-05-16	11:34:55	11:39:02	247168	6.6.1	4_exp_EVA_AWA_CON	41	A	B	Rpleas_acq	Same	Rpleas	1pleas	acq_US_pleas_nomask	acq1_nomask	1	16	0	0	300	300	0	0	711	50	1	0	kuss	träumen	genießen	vertrauen	gesittet	vergnügt	krise	töten	gemein	versagen	geizig	verbissen	sonnig	gütig	anregung	engagiert	besonnen	kreativ	sterben	gierig	ausrottung	engstirnig	bange	krank	1	blank2r.bmp	0	1	+	0	1	blank2r.bmp	500	1	CPLW	500	1	blank2r.bmp	880	6	vergnügt	880	0	0	0	0	0	0	0	0	0	0	0	0
2024-05-16	11:34:55	11:39:04	249569	6.6.1	4_exp_EVA_AWA_CON	41	A	B	Rpleas_acq	Same	Rpleas	1pleas	acq_new_pleas_nomask	acq1_nomask	1	17	0	0	300	300	0	0	910	50	1	0	kuss	träumen	genießen	vertrauen	gesittet	vergnügt	krise	töten	gemein	versagen	geizig	verbissen	sonnig	gütig	anregung	engagiert	besonnen	kreativ	sterben	gierig	ausrottung	engstirnig	bange	krank	1	blank2r.bmp	0	1	+	0	1	blank2r.bmp	500	6	C2r.bmp	500	1	blank2r.bmp	880	3	anregung	880	0	0	0	0	0	0	0	0	0	0	0	0
2024-05-16	11:34:55	11:39:07	251736	6.6.1	4_exp_EVA_AWA_CON	41	A	B	Rpleas_acq	Same	Rpleas	1pleas	acq_new_pleas_nomask	acq1_nomask	1	18	0	0	300	300	0	0	686	50	1	0	kuss	träumen	genießen	vertrauen	gesittet	vergnügt	krise	töten	gemein	versagen	geizig	verbissen	sonnig	gütig	anregung	engagiert	besonnen	kreativ	sterben	gierig	ausrottung	engstirnig	bange	krank	1	blank2r.bmp	0	1	+	0	1	blank2r.bmp	500	7	C3r.bmp	500	1	blank2r.bmp	880	4	engagiert	880	0	0	0	0	0	0	0	0	0	0	0	0
2024-05-16	11:34:55	11:39:09	253832	6.6.1	4_exp_EVA_AWA_CON	41	A	B	Rpleas_acq	Same	Rpleas	1pleas	acq_US_unple_nomask	acq1_nomask	1	19	0	0	300	300	0	0	611	46	1	0	kuss	träumen	genießen	vertrauen	gesittet	vergnügt	krise	töten	gemein	versagen	geizig	verbissen	sonnig	gütig	anregung	engagiert	besonnen	kreativ	sterben	gierig	ausrottung	engstirnig	bange	krank	1	blank2r.bmp	0	1	+	0	1	blank2r.bmp	500	1	DHJF	500	1	blank2r.bmp	880	2	töten	880	0	0	0	0	0	0	0	0	0	0	0	0
2024-05-16	11:34:55	11:39:11	256544	6.6.1	4_exp_EVA_AWA_CON	41	A	B	Rpleas_acq	Same	Rpleas	1pleas	acq_US_pleas_nomask	acq1_nomask	1	20	0	0	300	300	0	0	1222	50	1	0	kuss	träumen	genießen	vertrauen	gesittet	vergnügt	krise	töten	gemein	versagen	geizig	verbissen	sonnig	gütig	anregung	engagiert	besonnen	kreativ	sterben	gierig	ausrottung	engstirnig	bange	krank	1	blank2r.bmp	0	1	+	0	1	blank2r.bmp	500	1	CPLW	500	1	blank2r.bmp	880	2	träumen	880	0	0	0	0	0	0	0	0	0	0	0	0
2024-05-16	11:34:55	11:39:14	258848	6.6.1	4_exp_EVA_AWA_CON	41	A	B	Rpleas_acq	Same	Rpleas	1pleas	acq_US_unple_nomask	acq1_nomask	1	21	0	0	300	300	0	0	814	46	1	0	kuss	träumen	genießen	vertrauen	gesittet	vergnügt	krise	töten	gemein	versagen	geizig	verbissen	sonnig	gütig	anregung	engagiert	besonnen	kreativ	sterben	gierig	ausrottung	engstirnig	bange	krank	1	blank2r.bmp	0	1	+	0	1	blank2r.bmp	500	1	DHJF	500	1	blank2r.bmp	880	1	krise	880	0	0	0	0	0	0	0	0	0	0	0	0
2024-05-16	11:34:55	11:39:16	261200	6.6.1	4_exp_EVA_AWA_CON	41	A	B	Rpleas_acq	Same	Rpleas	1pleas	acq_US_pleas_nomask	acq1_nomask	1	22	0	0	300	300	0	0	864	50	1	0	kuss	träumen	genießen	vertrauen	gesittet	vergnügt	krise	töten	gemein	versagen	geizig	verbissen	sonnig	gütig	anregung	engagiert	besonnen	kreativ	sterben	gierig	ausrottung	engstirnig	bange	krank	1	blank2r.bmp	0	1	+	0	1	blank2r.bmp	500	1	CPLW	500	1	blank2r.bmp	880	5	gesittet	880	0	0	0	0	0	0	0	0	0	0	0	0
2024-05-16	11:34:55	11:39:18	263280	6.6.1	4_exp_EVA_AWA_CON	41	A	B	Rpleas_acq	Same	Rpleas	1pleas	acq_US_unple_nomask	acq1_nomask	1	23	0	0	300	300	0	0	593	46	1	0	kuss	träumen	genießen	vertrauen	gesittet	vergnügt	krise	töten	gemein	versagen	geizig	verbissen	sonnig	gütig	anregung	engagiert	besonnen	kreativ	sterben	gierig	ausrottung	engstirnig	bange	krank	1	blank2r.bmp	0	1	+	0	1	blank2r.bmp	500	1	DHJF	500	1	blank2r.bmp	880	6	verbissen	880	0	0	0	0	0	0	0	0	0	0	0	0
2024-05-16	11:34:55	11:39:21	265696	6.6.1	4_exp_EVA_AWA_CON	41	A	B	Rpleas_acq	Same	Rpleas	1pleas	acq_new_unple_nomask	acq1_nomask	1	24	0	0	300	300	0	0	928	46	1	0	kuss	träumen	genießen	vertrauen	gesittet	vergnügt	krise	töten	gemein	versagen	geizig	verbissen	sonnig	gütig	anregung	engagiert	besonnen	kreativ	sterben	gierig	ausrottung	engstirnig	bange	krank	1	blank2r.bmp	0	1	+	0	1	blank2r.bmp	500	2	B2r.bmp	500	1	blank2r.bmp	880	4	engstirnig	880	0	0	0	0	0	0	0	0	0	0	0	0
2024-05-16	11:34:55	11:39:23	268296	6.6.1	4_exp_EVA_AWA_CON	41	A	B	Rpleas_acq	Same	Rpleas	1pleas	acq_US_pleas_nomask	acq1_nomask	1	25	0	0	300	300	0	0	1116	50	1	0	kuss	träumen	genießen	vertrauen	gesittet	vergnügt	krise	töten	gemein	versagen	geizig	verbissen	sonnig	gütig	anregung	engagiert	besonnen	kreativ	sterben	gierig	ausrottung	engstirnig	bange	krank	1	blank2r.bmp	0	1	+	0	1	blank2r.bmp	500	1	CPLW	500	1	blank2r.bmp	880	2	träumen	880	0	0	0	0	0	0	0	0	0	0	0	0
2024-05-16	11:34:55	11:39:25	270392	6.6.1	4_exp_EVA_AWA_CON	41	A	B	Rpleas_acq	Same	Rpleas	1pleas	acq_new_pleas_nomask	acq1_nomask	1	26	0	0	300	300	0	0	610	50	1	0	kuss	träumen	genießen	vertrauen	gesittet	vergnügt	krise	töten	gemein	versagen	geizig	verbissen	sonnig	gütig	anregung	engagiert	besonnen	kreativ	sterben	gierig	ausrottung	engstirnig	bange	krank	1	blank2r.bmp	0	1	+	0	1	blank2r.bmp	500	1	B1r.bmp	500	1	blank2r.bmp	880	1	sonnig	880	0	0	0	0	0	0	0	0	0	0	0	0
2024-05-16	11:34:55	11:39:27	272432	6.6.1	4_exp_EVA_AWA_CON	41	A	B	Rpleas_acq	Same	Rpleas	1pleas	acq_new_pleas_nomask	acq1_nomask	1	27	0	0	300	300	0	0	559	50	1	0	kuss	träumen	genießen	vertrauen	gesittet	vergnügt	krise	töten	gemein	versagen	geizig	verbissen	sonnig	gütig	anregung	engagiert	besonnen	kreativ	sterben	gierig	ausrottung	engstirnig	bange	krank	1	blank2r.bmp	0	1	+	0	1	blank2r.bmp	500	3	B3r.bmp	500	1	blank2r.bmp	880	6	kreativ	880	0	0	0	0	0	0	0	0	0	0	0	0
2024-05-16	11:34:55	11:39:29	274496	6.6.1	4_exp_EVA_AWA_CON	41	A	B	Rpleas_acq	Same	Rpleas	1pleas	acq_new_pleas_nomask	acq1_nomask	1	28	0	0	300	300	0	0	582	50	1	0	kuss	träumen	genießen	vertrauen	gesittet	vergnügt	krise	töten	gemein	versagen	geizig	verbissen	sonnig	gütig	anregung	engagiert	besonnen	kreativ	sterben	gierig	ausrottung	engstirnig	bange	krank	1	blank2r.bmp	0	1	+	0	1	blank2r.bmp	500	5	C1r.bmp	500	1	blank2r.bmp	880	4	engagiert	880	0	0	0	0	0	0	0	0	0	0	0	0
2024-05-16	11:34:55	11:39:31	276528	6.6.1	4_exp_EVA_AWA_CON	41	A	B	Rpleas_acq	Same	Rpleas	1pleas	acq_US_pleas_nomask	acq1_nomask	1	29	0	0	300	300	0	0	542	50	1	0	kuss	träumen	genießen	vertrauen	gesittet	vergnügt	krise	töten	gemein	versagen	geizig	verbissen	sonnig	gütig	anregung	engagiert	besonnen	kreativ	sterben	gierig	ausrottung	engstirnig	bange	krank	1	blank2r.bmp	0	1	+	0	1	blank2r.bmp	500	1	CPLW	500	1	blank2r.bmp	880	6	vergnügt	880	0	0	0	0	0	0	0	0	0	0	0	0
2024-05-16	11:34:55	11:39:33	278497	6.6.1	4_exp_EVA_AWA_CON	41	A	B	Rpleas_acq	Same	Rpleas	1pleas	acq_new_unple_nomask	acq1_nomask	1	30	0	0	300	300	0	0	479	46	1	0	kuss	träumen	genießen	vertrauen	gesittet	vergnügt	krise	töten	gemein	versagen	geizig	verbissen	sonnig	gütig	anregung	engagiert	besonnen	kreativ	sterben	gierig	ausrottung	engstirnig	bange	krank	1	blank2r.bmp	0	1	+	0	1	blank2r.bmp	500	8	C4r.bmp	500	1	blank2r.bmp	880	1	sterben	880	0	0	0	0	0	0	0	0	0	0	0	0
2024-05-16	11:34:55	11:39:36	280680	6.6.1	4_exp_EVA_AWA_CON	41	A	B	Rpleas_acq	Same	Rpleas	1pleas	acq_new_unple_nomask	acq1_nomask	1	31	0	0	300	300	0	0	702	46	1	0	kuss	träumen	genießen	vertrauen	gesittet	vergnügt	krise	töten	gemein	versagen	geizig	verbissen	sonnig	gütig	anregung	engagiert	besonnen	kreativ	sterben	gierig	ausrottung	engstirnig	bange	krank	1	blank2r.bmp	0	1	+	0	1	blank2r.bmp	500	6	C2r.bmp	500	1	blank2r.bmp	880	2	gierig	880	0	0	0	0	0	0	0	0	0	0	0	0
2024-05-16	11:34:55	11:39:38	282656	6.6.1	4_exp_EVA_AWA_CON	41	A	B	Rpleas_acq	Same	Rpleas	1pleas	acq_US_pleas_nomask	acq1_nomask	1	32	0	0	300	300	0	0	486	50	1	0	kuss	träumen	genießen	vertrauen	gesittet	vergnügt	krise	töten	gemein	versagen	geizig	verbissen	sonnig	gütig	anregung	engagiert	besonnen	kreativ	sterben	gierig	ausrottung	engstirnig	bange	krank	1	blank2r.bmp	0	1	+	0	1	blank2r.bmp	500	1	CPLW	500	1	blank2r.bmp	880	1	kuss	880	0	0	0	0	0	0	0	0	0	0	0	0
2024-05-16	11:34:55	11:39:40	284768	6.6.1	4_exp_EVA_AWA_CON	41	A	B	Rpleas_acq	Same	Rpleas	1pleas	acq_US_unple_nomask	acq1_nomask	1	33	0	0	300	300	0	0	627	46	1	0	kuss	träumen	genießen	vertrauen	gesittet	vergnügt	krise	töten	gemein	versagen	geizig	verbissen	sonnig	gütig	anregung	engagiert	besonnen	kreativ	sterben	gierig	ausrottung	engstirnig	bange	krank	1	blank2r.bmp	0	1	+	0	1	blank2r.bmp	500	1	DHJF	500	1	blank2r.bmp	880	2	töten	880	0	0	0	0	0	0	0	0	0	0	0	0
2024-05-16	11:34:55	11:39:42	287008	6.6.1	4_exp_EVA_AWA_CON	41	A	B	Rpleas_acq	Same	Rpleas	1pleas	acq_US_unple_nomask	acq1_nomask	1	34	0	0	300	300	0	0	756	46	1	0	kuss	träumen	genießen	vertrauen	gesittet	vergnügt	krise	töten	gemein	versagen	geizig	verbissen	sonnig	gütig	anregung	engagiert	besonnen	kreativ	sterben	gierig	ausrottung	engstirnig	bange	krank	1	blank2r.bmp	0	1	+	0	1	blank2r.bmp	500	1	DHJF	500	1	blank2r.bmp	880	5	geizig	880	0	0	0	0	0	0	0	0	0	0	0	0
2024-05-16	11:34:55	11:39:44	289072	6.6.1	4_exp_EVA_AWA_CON	41	A	B	Rpleas_acq	Same	Rpleas	1pleas	acq_US_unple_nomask	acq1_nomask	1	35	0	0	300	300	0	0	578	46	1	0	kuss	träumen	genießen	vertrauen	gesittet	vergnügt	krise	töten	gemein	versagen	geizig	verbissen	sonnig	gütig	anregung	engagiert	besonnen	kreativ	sterben	gierig	ausrottung	engstirnig	bange	krank	1	blank2r.bmp	0	1	+	0	1	blank2r.bmp	500	1	DHJF	500	1	blank2r.bmp	880	1	krise	880	0	0	0	0	0	0	0	0	0	0	0	0
2024-05-16	11:34:55	11:39:46	291224	6.6.1	4_exp_EVA_AWA_CON	41	A	B	Rpleas_acq	Same	Rpleas	1pleas	acq_new_unple_nomask	acq1_nomask	1	36	0	0	300	300	0	0	669	46	1	0	kuss	träumen	genießen	vertrauen	gesittet	vergnügt	krise	töten	gemein	versagen	geizig	verbissen	sonnig	gütig	anregung	engagiert	besonnen	kreativ	sterben	gierig	ausrottung	engstirnig	bange	krank	1	blank2r.bmp	0	1	+	0	1	blank2r.bmp	500	8	C4r.bmp	500	1	blank2r.bmp	880	4	engstirnig	880	0	0	0	0	0	0	0	0	0	0	0	0
2024-05-16	11:34:55	11:40:10	315498	6.6.1	4_exp_EVA_AWA_CON	41	A	B	Rpleas_acq	Same	Rpleas	1pleas	acq_new_unple_nomask	acq2_nomask	2	1	480	0	300	300	0	0	918	46	1	0	kuss	träumen	genießen	vertrauen	gesittet	vergnügt	krise	töten	gemein	versagen	geizig	verbissen	sonnig	gütig	anregung	engagiert	besonnen	kreativ	sterben	gierig	ausrottung	engstirnig	bange	krank	1	blank2r.bmp	0	1	+	0	1	blank2r.bmp	500	1	B1r.bmp	500	1	blank2r.bmp	880	3	ausrottung	880	1	!	1312	1	!	-1	0	0	0	0	0	0
2024-05-16	11:34:55	11:40:13	317804	6.6.1	4_exp_EVA_AWA_CON	41	A	B	Rpleas_acq	Same	Rpleas	1pleas	acq_new_unple_nomask	acq2_nomask	2	2	480	1	300	300	0	0	530	46	1	0	kuss	träumen	genießen	vertrauen	gesittet	vergnügt	krise	töten	gemein	versagen	geizig	verbissen	sonnig	gütig	anregung	engagiert	besonnen	kreativ	sterben	gierig	ausrottung	engstirnig	bange	krank	1	blank2r.bmp	0	1	+	0	1	blank2r.bmp	500	4	B4r.bmp	500	1	blank2r.bmp	880	5	bange	880	1	!	1313	1	!	1432	0	0	0	0	0	0
2024-05-16	11:34:55	11:40:15	320002	6.6.1	4_exp_EVA_AWA_CON	41	A	B	Rpleas_acq	Same	Rpleas	1pleas	acq_US_unple_nomask	acq2_nomask	2	3	480	1	300	300	0	0	419	46	1	0	kuss	träumen	genießen	vertrauen	gesittet	vergnügt	krise	töten	gemein	versagen	geizig	verbissen	sonnig	gütig	anregung	engagiert	besonnen	kreativ	sterben	gierig	ausrottung	engstirnig	bange	krank	1	blank2r.bmp	0	1	+	0	1	blank2r.bmp	500	1	DHJF	500	1	blank2r.bmp	880	6	verbissen	880	1	!	1313	1	!	1318	0	0	0	0	0	0
2024-05-16	11:34:55	11:40:17	322244	6.6.1	4_exp_EVA_AWA_CON	41	A	B	Rpleas_acq	Same	Rpleas	1pleas	acq_US_pleas_nomask	acq2_nomask	2	4	480	1	300	300	0	0	467	50	1	0	kuss	träumen	genießen	vertrauen	gesittet	vergnügt	krise	töten	gemein	versagen	geizig	verbissen	sonnig	gütig	anregung	engagiert	besonnen	kreativ	sterben	gierig	ausrottung	engstirnig	bange	krank	1	blank2r.bmp	0	1	+	0	1	blank2r.bmp	500	1	CPLW	500	1	blank2r.bmp	880	3	genießen	880	1	!	1313	1	!	1369	0	0	0	0	0	0
2024-05-16	11:34:55	11:40:19	324500	6.6.1	4_exp_EVA_AWA_CON	41	A	B	Rpleas_acq	Same	Rpleas	1pleas	acq_new_pleas_nomask	acq2_nomask	2	5	480	1	300	300	0	0	472	50	1	0	kuss	träumen	genießen	vertrauen	gesittet	vergnügt	krise	töten	gemein	versagen	geizig	verbissen	sonnig	gütig	anregung	engagiert	besonnen	kreativ	sterben	gierig	ausrottung	engstirnig	bange	krank	1	blank2r.bmp	0	1	+	0	1	blank2r.bmp	500	3	B3r.bmp	500	1	blank2r.bmp	880	5	besonnen	880	1	!	1313	1	!	1373	0	0	0	0	0	0
2024-05-16	11:34:55	11:40:22	326938	6.6.1	4_exp_EVA_AWA_CON	41	A	B	Rpleas_acq	Same	Rpleas	1pleas	acq_US_unple_nomask	acq2_nomask	2	6	480	0	300	300	0	0	660	46	1	0	kuss	träumen	genießen	vertrauen	gesittet	vergnügt	krise	töten	gemein	versagen	geizig	verbissen	sonnig	gütig	anregung	engagiert	besonnen	kreativ	sterben	gierig	ausrottung	engstirnig	bange	krank	1	blank2r.bmp	0	1	+	0	1	blank2r.bmp	500	1	DHJF	500	1	blank2r.bmp	880	4	versagen	880	1	!	1312	1	!	-1	0	0	0	0	0	0
2024-05-16	11:34:55	11:40:24	329172	6.6.1	4_exp_EVA_AWA_CON	41	A	B	Rpleas_acq	Same	Rpleas	1pleas	acq_US_unple_nomask	acq2_nomask	2	7	480	1	300	300	0	0	451	46	1	0	kuss	träumen	genießen	vertrauen	gesittet	vergnügt	krise	töten	gemein	versagen	geizig	verbissen	sonnig	gütig	anregung	engagiert	besonnen	kreativ	sterben	gierig	ausrottung	engstirnig	bange	krank	1	blank2r.bmp	0	1	+	0	1	blank2r.bmp	500	1	DHJF	500	1	blank2r.bmp	880	3	gemein	880	1	!	1312	1	!	1353	0	0	0	0	0	0
2024-05-16	11:34:55	11:40:26	331396	6.6.1	4_exp_EVA_AWA_CON	41	A	B	Rpleas_acq	Same	Rpleas	1pleas	acq_new_unple_nomask	acq2_nomask	2	8	480	1	300	300	0	0	443	46	1	0	kuss	träumen	genießen	vertrauen	gesittet	vergnügt	krise	töten	gemein	versagen	geizig	verbissen	sonnig	gütig	anregung	engagiert	besonnen	kreativ	sterben	gierig	ausrottung	engstirnig	bange	krank	1	blank2r.bmp	0	1	+	0	1	blank2r.bmp	500	7	C3r.bmp	500	1	blank2r.bmp	880	6	krank	880	1	!	1313	1	!	1345	0	0	0	0	0	0
2024-05-16	11:34:55	11:40:29	333668	6.6.1	4_exp_EVA_AWA_CON	41	A	B	Rpleas_acq	Same	Rpleas	1pleas	acq_new_pleas_nomask	acq2_nomask	2	9	480	1	300	300	0	0	494	50	1	0	kuss	träumen	genießen	vertrauen	gesittet	vergnügt	krise	töten	gemein	versagen	geizig	verbissen	sonnig	gütig	anregung	engagiert	besonnen	kreativ	sterben	gierig	ausrottung	engstirnig	bange	krank	1	blank2r.bmp	0	1	+	0	1	blank2r.bmp	500	5	C1r.bmp	500	1	blank2r.bmp	880	2	gütig	880	1	!	1313	1	!	1395	0	0	0	0	0	0
2024-05-16	11:34:55	11:40:31	336109	6.6.1	4_exp_EVA_AWA_CON	41	A	B	Rpleas_acq	Same	Rpleas	1pleas	acq_US_pleas_nomask	acq2_nomask	2	10	480	1	300	300	0	0	462	46	0	0	kuss	träumen	genießen	vertrauen	gesittet	vergnügt	krise	töten	gemein	versagen	geizig	verbissen	sonnig	gütig	anregung	engagiert	besonnen	kreativ	sterben	gierig	ausrottung	engstirnig	bange	krank	1	blank2r.bmp	0	1	+	0	1	blank2r.bmp	500	1	CPLW	500	1	blank2r.bmp	880	4	vertrauen	880	1	FEHLER	1656	1	!	1312	1	!	1364	0	0	0
2024-05-16	11:34:55	11:40:33	338290	6.6.1	4_exp_EVA_AWA_CON	41	A	B	Rpleas_acq	Same	Rpleas	1pleas	acq_new_pleas_nomask	acq2_nomask	2	11	480	0	300	300	0	0	605	50	1	0	kuss	träumen	genießen	vertrauen	gesittet	vergnügt	krise	töten	gemein	versagen	geizig	verbissen	sonnig	gütig	anregung	engagiert	besonnen	kreativ	sterben	gierig	ausrottung	engstirnig	bange	krank	1	blank2r.bmp	0	1	+	0	1	blank2r.bmp	500	2	B2r.bmp	500	1	blank2r.bmp	880	3	anregung	880	1	!	1312	1	!	-1	0	0	0	0	0	0
2024-05-16	11:34:55	11:40:35	340515	6.6.1	4_exp_EVA_AWA_CON	41	A	B	Rpleas_acq	Same	Rpleas	1pleas	acq_US_pleas_nomask	acq2_nomask	2	12	480	1	300	300	0	0	447	50	1	0	kuss	träumen	genießen	vertrauen	gesittet	vergnügt	krise	töten	gemein	versagen	geizig	verbissen	sonnig	gütig	anregung	engagiert	besonnen	kreativ	sterben	gierig	ausrottung	engstirnig	bange	krank	1	blank2r.bmp	0	1	+	0	1	blank2r.bmp	500	1	CPLW	500	1	blank2r.bmp	880	5	gesittet	880	1	!	1312	1	!	1349	0	0	0	0	0	0
2024-05-16	11:34:55	11:40:38	342764	6.6.1	4_exp_EVA_AWA_CON	41	A	B	Rpleas_acq	Same	Rpleas	1pleas	acq_US_unple_nomask	acq2_nomask	2	13	480	1	300	300	0	0	474	46	1	0	kuss	träumen	genießen	vertrauen	gesittet	vergnügt	krise	töten	gemein	versagen	geizig	verbissen	sonnig	gütig	anregung	engagiert	besonnen	kreativ	sterben	gierig	ausrottung	engstirnig	bange	krank	1	blank2r.bmp	0	1	+	0	1	blank2r.bmp	500	1	DHJF	500	1	blank2r.bmp	880	5	geizig	880	1	!	1313	1	!	1376	0	0	0	0	0	0
2024-05-16	11:34:55	11:40:40	345020	6.6.1	4_exp_EVA_AWA_CON	41	A	B	Rpleas_acq	Same	Rpleas	1pleas	acq_new_unple_nomask	acq2_nomask	2	14	480	1	300	300	0	0	478	46	1	0	kuss	träumen	genießen	vertrauen	gesittet	vergnügt	krise	töten	gemein	versagen	geizig	verbissen	sonnig	gütig	anregung	engagiert	besonnen	kreativ	sterben	gierig	ausrottung	engstirnig	bange	krank	1	blank2r.bmp	0	1	+	0	1	blank2r.bmp	500	8	C4r.bmp	500	1	blank2r.bmp	880	3	ausrottung	880	1	!	1312	1	!	1380	0	0	0	0	0	0
2024-05-16	11:34:55	11:40:42	347228	6.6.1	4_exp_EVA_AWA_CON	41	A	B	Rpleas_acq	Same	Rpleas	1pleas	acq_new_pleas_nomask	acq2_nomask	2	15	480	1	300	300	0	0	425	50	1	0	kuss	träumen	genießen	vertrauen	gesittet	vergnügt	krise	töten	gemein	versagen	geizig	verbissen	sonnig	gütig	anregung	engagiert	besonnen	kreativ	sterben	gierig	ausrottung	engstirnig	bange	krank	1	blank2r.bmp	0	1	+	0	1	blank2r.bmp	500	7	C3r.bmp	500	1	blank2r.bmp	880	6	kreativ	880	1	!	1312	1	!	1326	0	0	0	0	0	0
2024-05-16	11:34:55	11:40:44	349531	6.6.1	4_exp_EVA_AWA_CON	41	A	B	Rpleas_acq	Same	Rpleas	1pleas	acq_US_pleas_nomask	acq2_nomask	2	16	480	1	300	300	0	0	528	50	1	0	kuss	träumen	genießen	vertrauen	gesittet	vergnügt	krise	töten	gemein	versagen	geizig	verbissen	sonnig	gütig	anregung	engagiert	besonnen	kreativ	sterben	gierig	ausrottung	engstirnig	bange	krank	1	blank2r.bmp	0	1	+	0	1	blank2r.bmp	500	1	CPLW	500	1	blank2r.bmp	880	5	gesittet	880	1	!	1313	1	!	1429	0	0	0	0	0	0
2024-05-16	11:34:55	11:40:47	351730	6.6.1	4_exp_EVA_AWA_CON	41	A	B	Rpleas_acq	Same	Rpleas	1pleas	acq_US_unple_nomask	acq2_nomask	2	17	480	1	300	300	0	0	416	46	1	0	kuss	träumen	genießen	vertrauen	gesittet	vergnügt	krise	töten	gemein	versagen	geizig	verbissen	sonnig	gütig	anregung	engagiert	besonnen	kreativ	sterben	gierig	ausrottung	engstirnig	bange	krank	1	blank2r.bmp	0	1	+	0	1	blank2r.bmp	500	1	DHJF	500	1	blank2r.bmp	880	2	töten	880	1	!	1312	1	!	1316	0	0	0	0	0	0
2024-05-16	11:34:55	11:40:49	354173	6.6.1	4_exp_EVA_AWA_CON	41	A	B	Rpleas_acq	Same	Rpleas	1pleas	acq_US_pleas_nomask	acq2_nomask	2	18	480	1	300	300	0	0	465	46	0	0	kuss	träumen	genießen	vertrauen	gesittet	vergnügt	krise	töten	gemein	versagen	geizig	verbissen	sonnig	gütig	anregung	engagiert	besonnen	kreativ	sterben	gierig	ausrottung	engstirnig	bange	krank	1	blank2r.bmp	0	1	+	0	1	blank2r.bmp	500	1	CPLW	500	1	blank2r.bmp	880	4	vertrauen	880	1	FEHLER	1658	1	!	1312	1	!	1366	0	0	0
2024-05-16	11:34:55	11:40:51	356402	6.6.1	4_exp_EVA_AWA_CON	41	A	B	Rpleas_acq	Same	Rpleas	1pleas	acq_new_unple_nomask	acq2_nomask	2	19	480	0	300	300	0	0	655	46	1	0	kuss	träumen	genießen	vertrauen	gesittet	vergnügt	krise	töten	gemein	versagen	geizig	verbissen	sonnig	gütig	anregung	engagiert	besonnen	kreativ	sterben	gierig	ausrottung	engstirnig	bange	krank	1	blank2r.bmp	0	1	+	0	1	blank2r.bmp	500	6	C2r.bmp	500	1	blank2r.bmp	880	2	gierig	880	1	!	1313	1	!	-1	0	0	0	0	0	0
2024-05-16	11:34:55	11:40:54	358644	6.6.1	4_exp_EVA_AWA_CON	41	A	B	Rpleas_acq	Same	Rpleas	1pleas	acq_new_unple_nomask	acq2_nomask	2	20	480	1	300	300	0	0	464	46	1	0	kuss	träumen	genießen	vertrauen	gesittet	vergnügt	krise	töten	gemein	versagen	geizig	verbissen	sonnig	gütig	anregung	engagiert	besonnen	kreativ	sterben	gierig	ausrottung	engstirnig	bange	krank	1	blank2r.bmp	0	1	+	0	1	blank2r.bmp	500	1	B1r.bmp	500	1	blank2r.bmp	880	6	krank	880	1	!	1312	1	!	1365	0	0	0	0	0	0
2024-05-16	11:34:55	11:40:56	360924	6.6.1	4_exp_EVA_AWA_CON	41	A	B	Rpleas_acq	Same	Rpleas	1pleas	acq_US_unple_nomask	acq2_nomask	2	21	480	1	300	300	0	0	502	46	1	0	kuss	träumen	genießen	vertrauen	gesittet	vergnügt	krise	töten	gemein	versagen	geizig	verbissen	sonnig	gütig	anregung	engagiert	besonnen	kreativ	sterben	gierig	ausrottung	engstirnig	bange	krank	1	blank2r.bmp	0	1	+	0	1	blank2r.bmp	500	1	DHJF	500	1	blank2r.bmp	880	3	gemein	880	1	!	1313	1	!	1404	0	0	0	0	0	0
2024-05-16	11:34:55	11:40:58	363180	6.6.1	4_exp_EVA_AWA_CON	41	A	B	Rpleas_acq	Same	Rpleas	1pleas	acq_new_pleas_nomask	acq2_nomask	2	22	480	1	300	300	0	0	477	50	1	0	kuss	träumen	genießen	vertrauen	gesittet	vergnügt	krise	töten	gemein	versagen	geizig	verbissen	sonnig	gütig	anregung	engagiert	besonnen	kreativ	sterben	gierig	ausrottung	engstirnig	bange	krank	1	blank2r.bmp	0	1	+	0	1	blank2r.bmp	500	5	C1r.bmp	500	1	blank2r.bmp	880	1	sonnig	880	1	!	1312	1	!	1378	0	0	0	0	0	0
2024-05-16	11:34:55	11:41:00	365363	6.6.1	4_exp_EVA_AWA_CON	41	A	B	Rpleas_acq	Same	Rpleas	1pleas	acq_new_pleas_nomask	acq2_nomask	2	23	480	0	300	300	0	0	409	50	1	0	kuss	träumen	genießen	vertrauen	gesittet	vergnügt	krise	töten	gemein	versagen	geizig	verbissen	sonnig	gütig	anregung	engagiert	besonnen	kreativ	sterben	gierig	ausrottung	engstirnig	bange	krank	1	blank2r.bmp	0	1	+	0	1	blank2r.bmp	500	2	B2r.bmp	500	1	blank2r.bmp	880	5	besonnen	880	1	!	-1	1	!	-1	0	0	0	0	0	0
2024-05-16	11:34:55	11:41:02	367580	6.6.1	4_exp_EVA_AWA_CON	41	A	B	Rpleas_acq	Same	Rpleas	1pleas	acq_US_pleas_nomask	acq2_nomask	2	24	480	1	300	300	0	0	434	50	1	0	kuss	träumen	genießen	vertrauen	gesittet	vergnügt	krise	töten	gemein	versagen	geizig	verbissen	sonnig	gütig	anregung	engagiert	besonnen	kreativ	sterben	gierig	ausrottung	engstirnig	bange	krank	1	blank2r.bmp	0	1	+	0	1	blank2r.bmp	500	1	CPLW	500	1	blank2r.bmp	880	1	kuss	880	1	!	1312	1	!	1336	0	0	0	0	0	0
2024-05-16	11:34:55	11:41:05	369722	6.6.1	4_exp_EVA_AWA_CON	41	A	B	Rpleas_acq	Same	Rpleas	1pleas	acq_US_pleas_nomask	acq2_nomask	2	25	480	0	300	300	0	0	367	50	1	0	kuss	träumen	genießen	vertrauen	gesittet	vergnügt	krise	töten	gemein	versagen	geizig	verbissen	sonnig	gütig	anregung	engagiert	besonnen	kreativ	sterben	gierig	ausrottung	engstirnig	bange	krank	1	blank2r.bmp	0	1	+	0	1	blank2r.bmp	500	1	CPLW	500	1	blank2r.bmp	880	6	vergnügt	880	1	!	-1	1	!	-1	0	0	0	0	0	0
2024-05-16	11:34:55	11:41:07	372122	6.6.1	4_exp_EVA_AWA_CON	41	A	B	Rpleas_acq	Same	Rpleas	1pleas	acq_new_unple_nomask	acq2_nomask	2	26	480	0	300	300	0	0	625	46	1	0	kuss	träumen	genießen	vertrauen	gesittet	vergnügt	krise	töten	gemein	versagen	geizig	verbissen	sonnig	gütig	anregung	engagiert	besonnen	kreativ	sterben	gierig	ausrottung	engstirnig	bange	krank	1	blank2r.bmp	0	1	+	0	1	blank2r.bmp	500	4	B4r.bmp	500	1	blank2r.bmp	880	1	sterben	880	1	!	1313	1	!	-1	0	0	0	0	0	0
2024-05-16	11:34:55	11:41:09	374412	6.6.1	4_exp_EVA_AWA_CON	41	A	B	Rpleas_acq	Same	Rpleas	1pleas	acq_US_unple_nomask	acq2_nomask	2	27	480	1	300	300	0	0	512	46	1	0	kuss	träumen	genießen	vertrauen	gesittet	vergnügt	krise	töten	gemein	versagen	geizig	verbissen	sonnig	gütig	anregung	engagiert	besonnen	kreativ	sterben	gierig	ausrottung	engstirnig	bange	krank	1	blank2r.bmp	0	1	+	0	1	blank2r.bmp	500	1	DHJF	500	1	blank2r.bmp	880	4	versagen	880	1	!	1313	1	!	1413	0	0	0	0	0	0
2024-05-16	11:34:55	11:41:12	376628	6.6.1	4_exp_EVA_AWA_CON	41	A	B	Rpleas_acq	Same	Rpleas	1pleas	acq_new_pleas_nomask	acq2_nomask	2	28	480	1	300	300	0	0	436	50	1	0	kuss	träumen	genießen	vertrauen	gesittet	vergnügt	krise	töten	gemein	versagen	geizig	verbissen	sonnig	gütig	anregung	engagiert	besonnen	kreativ	sterben	gierig	ausrottung	engstirnig	bange	krank	1	blank2r.bmp	0	1	+	0	1	blank2r.bmp	500	3	B3r.bmp	500	1	blank2r.bmp	880	4	engagiert	880	1	!	1313	1	!	1338	0	0	0	0	0	0
2024-05-16	11:34:55	11:41:14	378852	6.6.1	4_exp_EVA_AWA_CON	41	A	B	Rpleas_acq	Same	Rpleas	1pleas	acq_US_unple_nomask	acq2_nomask	2	29	480	1	300	300	0	0	449	46	1	0	kuss	träumen	genießen	vertrauen	gesittet	vergnügt	krise	töten	gemein	versagen	geizig	verbissen	sonnig	gütig	anregung	engagiert	besonnen	kreativ	sterben	gierig	ausrottung	engstirnig	bange	krank	1	blank2r.bmp	0	1	+	0	1	blank2r.bmp	500	1	DHJF	500	1	blank2r.bmp	880	6	verbissen	880	1	!	1313	1	!	1351	0	0	0	0	0	0
2024-05-16	11:34:55	11:41:17	381597	6.6.1	4_exp_EVA_AWA_CON	41	A	B	Rpleas_acq	Same	Rpleas	1pleas	acq_new_unple_nomask	acq2_nomask	2	30	480	0	300	300	0	0	761	50	0	0	kuss	träumen	genießen	vertrauen	gesittet	vergnügt	krise	töten	gemein	versagen	geizig	verbissen	sonnig	gütig	anregung	engagiert	besonnen	kreativ	sterben	gierig	ausrottung	engstirnig	bange	krank	1	blank2r.bmp	0	1	+	0	1	blank2r.bmp	500	5	C1r.bmp	500	1	blank2r.bmp	880	5	bange	880	1	FEHLER	1955	1	!	1313	1	!	-1	0	0	0
2024-05-16	11:34:55	11:41:19	383861	6.6.1	4_exp_EVA_AWA_CON	41	A	B	Rpleas_acq	Same	Rpleas	1pleas	acq_new_unple_nomask	acq2_nomask	2	31	480	1	300	300	0	0	484	50	0	0	kuss	träumen	genießen	vertrauen	gesittet	vergnügt	krise	töten	gemein	versagen	geizig	verbissen	sonnig	gütig	anregung	engagiert	besonnen	kreativ	sterben	gierig	ausrottung	engstirnig	bange	krank	1	blank2r.bmp	0	1	+	0	1	blank2r.bmp	500	3	B3r.bmp	500	1	blank2r.bmp	880	4	engstirnig	880	1	FEHLER	1677	1	!	1313	1	!	1385	0	0	0
2024-05-16	11:34:55	11:41:21	386538	6.6.1	4_exp_EVA_AWA_CON	41	A	B	Rpleas_acq	Same	Rpleas	1pleas	acq_US_pleas_nomask	acq2_nomask	2	32	480	0	300	300	0	0	1102	50	1	0	kuss	träumen	genießen	vertrauen	gesittet	vergnügt	krise	töten	gemein	versagen	geizig	verbissen	sonnig	gütig	anregung	engagiert	besonnen	kreativ	sterben	gierig	ausrottung	engstirnig	bange	krank	1	blank2r.bmp	0	1	+	0	1	blank2r.bmp	500	1	CPLW	500	1	blank2r.bmp	880	3	genießen	880	1	!	1312	1	!	-1	0	0	0	0	0	0
2024-05-16	11:34:55	11:41:24	389026	6.6.1	4_exp_EVA_AWA_CON	41	A	B	Rpleas_acq	Same	Rpleas	1pleas	acq_US_pleas_nomask	acq2_nomask	2	33	480	0	300	300	0	0	708	50	1	0	kuss	träumen	genießen	vertrauen	gesittet	vergnügt	krise	töten	gemein	versagen	geizig	verbissen	sonnig	gütig	anregung	engagiert	besonnen	kreativ	sterben	gierig	ausrottung	engstirnig	bange	krank	1	blank2r.bmp	0	1	+	0	1	blank2r.bmp	500	1	CPLW	500	1	blank2r.bmp	880	2	träumen	880	1	!	1312	1	!	-1	0	0	0	0	0	0
2024-05-16	11:34:55	11:41:26	391244	6.6.1	4_exp_EVA_AWA_CON	41	A	B	Rpleas_acq	Same	Rpleas	1pleas	acq_US_unple_nomask	acq2_nomask	2	34	480	1	300	300	0	0	443	46	1	0	kuss	träumen	genießen	vertrauen	gesittet	vergnügt	krise	töten	gemein	versagen	geizig	verbissen	sonnig	gütig	anregung	engagiert	besonnen	kreativ	sterben	gierig	ausrottung	engstirnig	bange	krank	1	blank2r.bmp	0	1	+	0	1	blank2r.bmp	500	1	DHJF	500	1	blank2r.bmp	880	1	krise	880	1	!	1313	1	!	1344	0	0	0	0	0	0
2024-05-16	11:34:55	11:41:28	393402	6.6.1	4_exp_EVA_AWA_CON	41	A	B	Rpleas_acq	Same	Rpleas	1pleas	acq_new_pleas_nomask	acq2_nomask	2	35	480	0	300	300	0	0	381	50	1	0	kuss	träumen	genießen	vertrauen	gesittet	vergnügt	krise	töten	gemein	versagen	geizig	verbissen	sonnig	gütig	anregung	engagiert	besonnen	kreativ	sterben	gierig	ausrottung	engstirnig	bange	krank	1	blank2r.bmp	0	1	+	0	1	blank2r.bmp	500	2	B2r.bmp	500	1	blank2r.bmp	880	3	anregung	880	1	!	-1	1	!	-1	0	0	0	0	0	0
2024-05-16	11:34:55	11:41:31	395707	6.6.1	4_exp_EVA_AWA_CON	41	A	B	Rpleas_acq	Same	Rpleas	1pleas	acq_new_pleas_nomask	acq2_nomask	2	36	480	1	300	300	0	0	524	50	1	0	kuss	träumen	genießen	vertrauen	gesittet	vergnügt	krise	töten	gemein	versagen	geizig	verbissen	sonnig	gütig	anregung	engagiert	besonnen	kreativ	sterben	gierig	ausrottung	engstirnig	bange	krank	1	blank2r.bmp	0	1	+	0	1	blank2r.bmp	500	4	B4r.bmp	500	1	blank2r.bmp	880	2	gütig	880	1	!	1312	1	!	1425	0	0	0	0	0	0
2024-05-16	11:34:55	11:41:45	409674	6.6.1	4_exp_EVA_AWA_CON	41	A	B	Rpleas_acq	Same	Rpleas	1pleas	acq_US_pleas_nomask	acq3_nomask	3	1	453	0	300	300	0	0	653	50	1	0	kuss	träumen	genießen	vertrauen	gesittet	vergnügt	krise	töten	gemein	versagen	geizig	verbissen	sonnig	gütig	anregung	engagiert	besonnen	kreativ	sterben	gierig	ausrottung	engstirnig	bange	krank	1	blank2r.bmp	0	1	+	0	1	blank2r.bmp	500	1	CPLW	500	1	blank2r.bmp	880	5	gesittet	880	1	!	1293	1	!	-1	0	0	0	0	0	0
2024-05-16	11:34:55	11:41:47	411924	6.6.1	4_exp_EVA_AWA_CON	41	A	B	Rpleas_acq	Same	Rpleas	1pleas	acq_US_unple_nomask	acq3_nomask	3	2	453	1	300	300	0	0	470	46	1	0	kuss	träumen	genießen	vertrauen	gesittet	vergnügt	krise	töten	gemein	versagen	geizig	verbissen	sonnig	gütig	anregung	engagiert	besonnen	kreativ	sterben	gierig	ausrottung	engstirnig	bange	krank	1	blank2r.bmp	0	1	+	0	1	blank2r.bmp	500	1	DHJF	500	1	blank2r.bmp	880	2	töten	880	1	!	1292	1	!	1372	0	0	0	0	0	0
2024-05-16	11:34:55	11:41:49	414299	6.6.1	4_exp_EVA_AWA_CON	41	A	B	Rpleas_acq	Same	Rpleas	1pleas	acq_US_unple_nomask	acq3_nomask	3	3	453	1	300	300	0	0	394	50	0	0	kuss	träumen	genießen	vertrauen	gesittet	vergnügt	krise	töten	gemein	versagen	geizig	verbissen	sonnig	gütig	anregung	engagiert	besonnen	kreativ	sterben	gierig	ausrottung	engstirnig	bange	krank	1	blank2r.bmp	0	1	+	0	1	blank2r.bmp	500	1	DHJF	500	1	blank2r.bmp	880	3	gemein	880	1	FEHLER	1586	1	!	1292	1	!	1294	0	0	0
2024-05-16	11:34:55	11:41:51	416400	6.6.1	4_exp_EVA_AWA_CON	41	A	B	Rpleas_acq	Same	Rpleas	1pleas	acq_US_pleas_nomask	acq3_nomask	3	4	453	0	300	300	0	0	527	50	1	0	kuss	träumen	genießen	vertrauen	gesittet	vergnügt	krise	töten	gemein	versagen	geizig	verbissen	sonnig	gütig	anregung	engagiert	besonnen	kreativ	sterben	gierig	ausrottung	engstirnig	bange	krank	1	blank2r.bmp	0	1	+	0	1	blank2r.bmp	500	1	CPLW	500	1	blank2r.bmp	880	1	kuss	880	1	!	1292	1	!	-1	0	0	0	0	0	0
2024-05-16	11:34:55	11:41:54	418578	6.6.1	4_exp_EVA_AWA_CON	41	A	B	Rpleas_acq	Same	Rpleas	1pleas	acq_US_unple_nomask	acq3_nomask	3	5	453	1	300	300	0	0	401	46	1	0	kuss	träumen	genießen	vertrauen	gesittet	vergnügt	krise	töten	gemein	versagen	geizig	verbissen	sonnig	gütig	anregung	engagiert	besonnen	kreativ	sterben	gierig	ausrottung	engstirnig	bange	krank	1	blank2r.bmp	0	1	+	0	1	blank2r.bmp	500	1	DHJF	500	1	blank2r.bmp	880	6	verbissen	880	1	!	1292	1	!	1301	0	0	0	0	0	0
2024-05-16	11:34:55	11:41:56	420946	6.6.1	4_exp_EVA_AWA_CON	41	A	B	Rpleas_acq	Same	Rpleas	1pleas	acq_US_unple_nomask	acq3_nomask	3	6	453	0	300	300	0	0	588	46	1	0	kuss	träumen	genießen	vertrauen	gesittet	vergnügt	krise	töten	gemein	versagen	geizig	verbissen	sonnig	gütig	anregung	engagiert	besonnen	kreativ	sterben	gierig	ausrottung	engstirnig	bange	krank	1	blank2r.bmp	0	1	+	0	1	blank2r.bmp	500	1	DHJF	500	1	blank2r.bmp	880	5	geizig	880	1	!	1293	1	!	-1	0	0	0	0	0	0
2024-05-16	11:34:55	11:41:58	423106	6.6.1	4_exp_EVA_AWA_CON	41	A	B	Rpleas_acq	Same	Rpleas	1pleas	acq_US_pleas_nomask	acq3_nomask	3	7	453	0	300	300	0	0	386	50	1	0	kuss	träumen	genießen	vertrauen	gesittet	vergnügt	krise	töten	gemein	versagen	geizig	verbissen	sonnig	gütig	anregung	engagiert	besonnen	kreativ	sterben	gierig	ausrottung	engstirnig	bange	krank	1	blank2r.bmp	0	1	+	0	1	blank2r.bmp	500	1	CPLW	500	1	blank2r.bmp	880	4	vertrauen	880	1	!	-1	1	!	-1	0	0	0	0	0	0
2024-05-16	11:34:55	11:42:00	425418	6.6.1	4_exp_EVA_AWA_CON	41	A	B	Rpleas_acq	Same	Rpleas	1pleas	acq_US_unple_nomask	acq3_nomask	3	8	453	0	300	300	0	0	537	46	1	0	kuss	träumen	genießen	vertrauen	gesittet	vergnügt	krise	töten	gemein	versagen	geizig	verbissen	sonnig	gütig	anregung	engagiert	besonnen	kreativ	sterben	gierig	ausrottung	engstirnig	bange	krank	1	blank2r.bmp	0	1	+	0	1	blank2r.bmp	500	1	DHJF	500	1	blank2r.bmp	880	4	versagen	880	1	!	1292	1	!	-1	0	0	0	0	0	0
2024-05-16	11:34:55	11:42:03	427806	6.6.1	4_exp_EVA_AWA_CON	41	A	B	Rpleas_acq	Same	Rpleas	1pleas	acq_US_pleas_nomask	acq3_nomask	3	9	453	1	300	300	0	0	410	46	0	0	kuss	träumen	genießen	vertrauen	gesittet	vergnügt	krise	töten	gemein	versagen	geizig	verbissen	sonnig	gütig	anregung	engagiert	besonnen	kreativ	sterben	gierig	ausrottung	engstirnig	bange	krank	1	blank2r.bmp	0	1	+	0	1	blank2r.bmp	500	1	CPLW	500	1	blank2r.bmp	880	2	träumen	880	1	FEHLER	1604	1	!	1293	1	!	1312	0	0	0
2024-05-16	11:34:55	11:42:05	429978	6.6.1	4_exp_EVA_AWA_CON	41	A	B	Rpleas_acq	Same	Rpleas	1pleas	acq_US_pleas_nomask	acq3_nomask	3	10	453	0	300	300	0	0	594	50	1	0	kuss	träumen	genießen	vertrauen	gesittet	vergnügt	krise	töten	gemein	versagen	geizig	verbissen	sonnig	gütig	anregung	engagiert	besonnen	kreativ	sterben	gierig	ausrottung	engstirnig	bange	krank	1	blank2r.bmp	0	1	+	0	1	blank2r.bmp	500	1	CPLW	500	1	blank2r.bmp	880	6	vergnügt	880	1	!	1292	1	!	-1	0	0	0	0	0	0
2024-05-16	11:34:55	11:42:07	432260	6.6.1	4_exp_EVA_AWA_CON	41	A	B	Rpleas_acq	Same	Rpleas	1pleas	acq_US_pleas_nomask	acq3_nomask	3	11	453	1	300	300	0	0	502	50	1	0	kuss	träumen	genießen	vertrauen	gesittet	vergnügt	krise	töten	gemein	versagen	geizig	verbissen	sonnig	gütig	anregung	engagiert	besonnen	kreativ	sterben	gierig	ausrottung	engstirnig	bange	krank	1	blank2r.bmp	0	1	+	0	1	blank2r.bmp	500	1	CPLW	500	1	blank2r.bmp	880	3	genießen	880	1	!	1292	1	!	1404	0	0	0	0	0	0
2024-05-16	11:34:55	11:42:09	434476	6.6.1	4_exp_EVA_AWA_CON	41	A	B	Rpleas_acq	Same	Rpleas	1pleas	acq_US_unple_nomask	acq3_nomask	3	12	453	1	300	300	0	0	437	46	1	0	kuss	träumen	genießen	vertrauen	gesittet	vergnügt	krise	töten	gemein	versagen	geizig	verbissen	sonnig	gütig	anregung	engagiert	besonnen	kreativ	sterben	gierig	ausrottung	engstirnig	bange	krank	1	blank2r.bmp	0	1	+	0	1	blank2r.bmp	500	1	DHJF	500	1	blank2r.bmp	880	1	krise	880	1	!	1293	1	!	1339	0	0	0	0	0	0
2024-05-16	11:34:55	11:42:12	436893	6.6.1	4_exp_EVA_AWA_CON	41	A	B	Rpleas_acq	Same	Rpleas	1pleas	acq_US_pleas_nomask	acq3_nomask	3	13	453	1	300	300	0	0	432	46	0	0	kuss	träumen	genießen	vertrauen	gesittet	vergnügt	krise	töten	gemein	versagen	geizig	verbissen	sonnig	gütig	anregung	engagiert	besonnen	kreativ	sterben	gierig	ausrottung	engstirnig	bange	krank	1	blank2r.bmp	0	1	+	0	1	blank2r.bmp	500	1	CPLW	500	1	blank2r.bmp	880	2	träumen	880	1	FEHLER	1625	1	!	1293	1	!	1333	0	0	0
2024-05-16	11:34:55	11:42:14	439011	6.6.1	4_exp_EVA_AWA_CON	41	A	B	Rpleas_acq	Same	Rpleas	1pleas	acq_US_unple_nomask	acq3_nomask	3	14	453	0	300	300	0	0	540	46	1	0	kuss	träumen	genießen	vertrauen	gesittet	vergnügt	krise	töten	gemein	versagen	geizig	verbissen	sonnig	gütig	anregung	engagiert	besonnen	kreativ	sterben	gierig	ausrottung	engstirnig	bange	krank	1	blank2r.bmp	0	1	+	0	1	blank2r.bmp	500	1	DHJF	500	1	blank2r.bmp	880	5	geizig	880	1	!	1293	1	!	-1	0	0	0	0	0	0
2024-05-16	11:34:55	11:42:16	441357	6.6.1	4_exp_EVA_AWA_CON	41	A	B	Rpleas_acq	Same	Rpleas	1pleas	acq_US_unple_nomask	acq3_nomask	3	15	453	0	300	300	0	0	363	50	0	0	kuss	träumen	genießen	vertrauen	gesittet	vergnügt	krise	töten	gemein	versagen	geizig	verbissen	sonnig	gütig	anregung	engagiert	besonnen	kreativ	sterben	gierig	ausrottung	engstirnig	bange	krank	1	blank2r.bmp	0	1	+	0	1	blank2r.bmp	500	1	DHJF	500	1	blank2r.bmp	880	4	versagen	880	1	FEHLER	1556	1	!	-1	1	!	-1	0	0	0
2024-05-16	11:34:55	11:42:19	444181	6.6.1	4_exp_EVA_AWA_CON	41	A	B	Rpleas_acq	Same	Rpleas	1pleas	acq_US_unple_nomask	acq3_nomask	3	16	453	0	300	300	0	0	1045	50	0	0	kuss	träumen	genießen	vertrauen	gesittet	vergnügt	krise	töten	gemein	versagen	geizig	verbissen	sonnig	gütig	anregung	engagiert	besonnen	kreativ	sterben	gierig	ausrottung	engstirnig	bange	krank	1	blank2r.bmp	0	1	+	0	1	blank2r.bmp	500	1	DHJF	500	1	blank2r.bmp	880	3	gemein	880	1	FEHLER	2239	1	!	1292	1	!	-1	0	0	0
2024-05-16	11:34:55	11:42:21	446276	6.6.1	4_exp_EVA_AWA_CON	41	A	B	Rpleas_acq	Same	Rpleas	1pleas	acq_US_pleas_nomask	acq3_nomask	3	17	453	1	300	300	0	0	520	50	1	0	kuss	träumen	genießen	vertrauen	gesittet	vergnügt	krise	töten	gemein	versagen	geizig	verbissen	sonnig	gütig	anregung	engagiert	besonnen	kreativ	sterben	gierig	ausrottung	engstirnig	bange	krank	1	blank2r.bmp	0	1	+	0	1	blank2r.bmp	500	1	CPLW	500	1	blank2r.bmp	880	3	genießen	880	1	!	1292	1	!	1422	0	0	0	0	0	0
2024-05-16	11:34:55	11:42:24	448634	6.6.1	4_exp_EVA_AWA_CON	41	A	B	Rpleas_acq	Same	Rpleas	1pleas	acq_US_unple_nomask	acq3_nomask	3	18	453	0	300	300	0	0	578	46	1	0	kuss	träumen	genießen	vertrauen	gesittet	vergnügt	krise	töten	gemein	versagen	geizig	verbissen	sonnig	gütig	anregung	engagiert	besonnen	kreativ	sterben	gierig	ausrottung	engstirnig	bange	krank	1	blank2r.bmp	0	1	+	0	1	blank2r.bmp	500	1	DHJF	500	1	blank2r.bmp	880	1	krise	880	1	!	1292	1	!	-1	0	0	0	0	0	0
2024-05-16	11:34:55	11:42:26	450786	6.6.1	4_exp_EVA_AWA_CON	41	A	B	Rpleas_acq	Same	Rpleas	1pleas	acq_US_unple_nomask	acq3_nomask	3	19	453	0	300	300	0	0	379	46	1	0	kuss	träumen	genießen	vertrauen	gesittet	vergnügt	krise	töten	gemein	versagen	geizig	verbissen	sonnig	gütig	anregung	engagiert	besonnen	kreativ	sterben	gierig	ausrottung	engstirnig	bange	krank	1	blank2r.bmp	0	1	+	0	1	blank2r.bmp	500	1	DHJF	500	1	blank2r.bmp	880	2	töten	880	1	!	-1	1	!	-1	0	0	0	0	0	0
2024-05-16	11:34:55	11:42:28	453028	6.6.1	4_exp_EVA_AWA_CON	41	A	B	Rpleas_acq	Same	Rpleas	1pleas	acq_US_pleas_nomask	acq3_nomask	3	20	453	1	300	300	0	0	467	50	1	0	kuss	träumen	genießen	vertrauen	gesittet	vergnügt	krise	töten	gemein	versagen	geizig	verbissen	sonnig	gütig	anregung	engagiert	besonnen	kreativ	sterben	gierig	ausrottung	engstirnig	bange	krank	1	blank2r.bmp	0	1	+	0	1	blank2r.bmp	500	1	CPLW	500	1	blank2r.bmp	880	4	vertrauen	880	1	!	1292	1	!	1369	0	0	0	0	0	0
2024-05-16	11:34:55	11:42:30	455328	6.6.1	4_exp_EVA_AWA_CON	41	A	B	Rpleas_acq	Same	Rpleas	1pleas	acq_US_pleas_nomask	acq3_nomask	3	21	453	0	300	300	0	0	530	50	1	0	kuss	träumen	genießen	vertrauen	gesittet	vergnügt	krise	töten	gemein	versagen	geizig	verbissen	sonnig	gütig	anregung	engagiert	besonnen	kreativ	sterben	gierig	ausrottung	engstirnig	bange	krank	1	blank2r.bmp	0	1	+	0	1	blank2r.bmp	500	1	CPLW	500	1	blank2r.bmp	880	5	gesittet	880	1	!	1292	1	!	-1	0	0	0	0	0	0
2024-05-16	11:34:55	11:42:33	457733	6.6.1	4_exp_EVA_AWA_CON	41	A	B	Rpleas_acq	Same	Rpleas	1pleas	acq_US_pleas_nomask	acq3_nomask	3	22	453	1	300	300	0	0	428	46	0	0	kuss	träumen	genießen	vertrauen	gesittet	vergnügt	krise	töten	gemein	versagen	geizig	verbissen	sonnig	gütig	anregung	engagiert	besonnen	kreativ	sterben	gierig	ausrottung	engstirnig	bange	krank	1	blank2r.bmp	0	1	+	0	1	blank2r.bmp	500	1	CPLW	500	1	blank2r.bmp	880	6	vergnügt	880	1	FEHLER	1622	1	!	1292	1	!	1330	0	0	0
2024-05-16	11:34:55	11:42:35	459834	6.6.1	4_exp_EVA_AWA_CON	41	A	B	Rpleas_acq	Same	Rpleas	1pleas	acq_US_pleas_nomask	acq3_nomask	3	23	453	0	300	300	0	0	521	50	1	0	kuss	träumen	genießen	vertrauen	gesittet	vergnügt	krise	töten	gemein	versagen	geizig	verbissen	sonnig	gütig	anregung	engagiert	besonnen	kreativ	sterben	gierig	ausrottung	engstirnig	bange	krank	1	blank2r.bmp	0	1	+	0	1	blank2r.bmp	500	1	CPLW	500	1	blank2r.bmp	880	1	kuss	880	1	!	1292	1	!	-1	0	0	0	0	0	0
2024-05-16	11:34:55	11:42:37	462226	6.6.1	4_exp_EVA_AWA_CON	41	A	B	Rpleas_acq	Same	Rpleas	1pleas	acq_US_unple_nomask	acq3_nomask	3	24	453	0	300	300	0	0	611	46	1	0	kuss	träumen	genießen	vertrauen	gesittet	vergnügt	krise	töten	gemein	versagen	geizig	verbissen	sonnig	gütig	anregung	engagiert	besonnen	kreativ	sterben	gierig	ausrottung	engstirnig	bange	krank	1	blank2r.bmp	0	1	+	0	1	blank2r.bmp	500	1	DHJF	500	1	blank2r.bmp	880	6	verbissen	880	1	!	1292	1	!	-1	0	0	0	0	0	0
2024-05-16	11:34:55	11:42:39	464428	6.6.1	4_exp_EVA_AWA_CON	41	A	B	Rpleas_acq	Same	Rpleas	1pleas	acq_US_unple_nomask	acq3_nomask	3	25	453	1	300	300	0	0	420	46	1	0	kuss	träumen	genießen	vertrauen	gesittet	vergnügt	krise	töten	gemein	versagen	geizig	verbissen	sonnig	gütig	anregung	engagiert	besonnen	kreativ	sterben	gierig	ausrottung	engstirnig	bange	krank	1	blank2r.bmp	0	1	+	0	1	blank2r.bmp	500	1	DHJF	500	1	blank2r.bmp	880	3	gemein	880	1	!	1293	1	!	1322	0	0	0	0	0	0
2024-05-16	11:34:55	11:42:42	466594	6.6.1	4_exp_EVA_AWA_CON	41	A	B	Rpleas_acq	Same	Rpleas	1pleas	acq_US_unple_nomask	acq3_nomask	3	26	453	0	300	300	0	0	386	46	1	0	kuss	träumen	genießen	vertrauen	gesittet	vergnügt	krise	töten	gemein	versagen	geizig	verbissen	sonnig	gütig	anregung	engagiert	besonnen	kreativ	sterben	gierig	ausrottung	engstirnig	bange	krank	1	blank2r.bmp	0	1	+	0	1	blank2r.bmp	500	1	DHJF	500	1	blank2r.bmp	880	1	krise	880	1	!	-1	1	!	-1	0	0	0	0	0	0
2024-05-16	11:34:55	11:42:44	468770	6.6.1	4_exp_EVA_AWA_CON	41	A	B	Rpleas_acq	Same	Rpleas	1pleas	acq_US_pleas_nomask	acq3_nomask	3	27	453	1	300	300	0	0	401	50	1	0	kuss	träumen	genießen	vertrauen	gesittet	vergnügt	krise	töten	gemein	versagen	geizig	verbissen	sonnig	gütig	anregung	engagiert	besonnen	kreativ	sterben	gierig	ausrottung	engstirnig	bange	krank	1	blank2r.bmp	0	1	+	0	1	blank2r.bmp	500	1	CPLW	500	1	blank2r.bmp	880	4	vertrauen	880	1	!	1292	1	!	1301	0	0	0	0	0	0
2024-05-16	11:34:55	11:42:46	470972	6.6.1	4_exp_EVA_AWA_CON	41	A	B	Rpleas_acq	Same	Rpleas	1pleas	acq_US_pleas_nomask	acq3_nomask	3	28	453	1	300	300	0	0	420	50	1	0	kuss	träumen	genießen	vertrauen	gesittet	vergnügt	krise	töten	gemein	versagen	geizig	verbissen	sonnig	gütig	anregung	engagiert	besonnen	kreativ	sterben	gierig	ausrottung	engstirnig	bange	krank	1	blank2r.bmp	0	1	+	0	1	blank2r.bmp	500	1	CPLW	500	1	blank2r.bmp	880	2	träumen	880	1	!	1293	1	!	1322	0	0	0	0	0	0
2024-05-16	11:34:55	11:42:48	473219	6.6.1	4_exp_EVA_AWA_CON	41	A	B	Rpleas_acq	Same	Rpleas	1pleas	acq_US_unple_nomask	acq3_nomask	3	29	453	1	300	300	0	0	466	46	1	0	kuss	träumen	genießen	vertrauen	gesittet	vergnügt	krise	töten	gemein	versagen	geizig	verbissen	sonnig	gütig	anregung	engagiert	besonnen	kreativ	sterben	gierig	ausrottung	engstirnig	bange	krank	1	blank2r.bmp	0	1	+	0	1	blank2r.bmp	500	1	DHJF	500	1	blank2r.bmp	880	4	versagen	880	1	!	1293	1	!	1368	0	0	0	0	0	0
2024-05-16	11:34:55	11:42:50	475500	6.6.1	4_exp_EVA_AWA_CON	41	A	B	Rpleas_acq	Same	Rpleas	1pleas	acq_US_unple_nomask	acq3_nomask	3	30	453	1	300	300	0	0	505	46	1	0	kuss	träumen	genießen	vertrauen	gesittet	vergnügt	krise	töten	gemein	versagen	geizig	verbissen	sonnig	gütig	anregung	engagiert	besonnen	kreativ	sterben	gierig	ausrottung	engstirnig	bange	krank	1	blank2r.bmp	0	1	+	0	1	blank2r.bmp	500	1	DHJF	500	1	blank2r.bmp	880	5	geizig	880	1	!	1293	1	!	1406	0	0	0	0	0	0
2024-05-16	11:34:55	11:42:53	477756	6.6.1	4_exp_EVA_AWA_CON	41	A	B	Rpleas_acq	Same	Rpleas	1pleas	acq_US_pleas_nomask	acq3_nomask	3	31	453	1	300	300	0	0	479	50	1	0	kuss	träumen	genießen	vertrauen	gesittet	vergnügt	krise	töten	gemein	versagen	geizig	verbissen	sonnig	gütig	anregung	engagiert	besonnen	kreativ	sterben	gierig	ausrottung	engstirnig	bange	krank	1	blank2r.bmp	0	1	+	0	1	blank2r.bmp	500	1	CPLW	500	1	blank2r.bmp	880	3	genießen	880	1	!	1292	1	!	1381	0	0	0	0	0	0
2024-05-16	11:34:55	11:42:55	479988	6.6.1	4_exp_EVA_AWA_CON	41	A	B	Rpleas_acq	Same	Rpleas	1pleas	acq_US_unple_nomask	acq3_nomask	3	32	453	1	300	300	0	0	450	46	1	0	kuss	träumen	genießen	vertrauen	gesittet	vergnügt	krise	töten	gemein	versagen	geizig	verbissen	sonnig	gütig	anregung	engagiert	besonnen	kreativ	sterben	gierig	ausrottung	engstirnig	bange	krank	1	blank2r.bmp	0	1	+	0	1	blank2r.bmp	500	1	DHJF	500	1	blank2r.bmp	880	2	töten	880	1	!	1292	1	!	1352	0	0	0	0	0	0
2024-05-16	11:34:55	11:42:57	482341	6.6.1	4_exp_EVA_AWA_CON	41	A	B	Rpleas_acq	Same	Rpleas	1pleas	acq_US_unple_nomask	acq3_nomask	3	33	453	0	300	300	0	0	370	50	0	0	kuss	träumen	genießen	vertrauen	gesittet	vergnügt	krise	töten	gemein	versagen	geizig	verbissen	sonnig	gütig	anregung	engagiert	besonnen	kreativ	sterben	gierig	ausrottung	engstirnig	bange	krank	1	blank2r.bmp	0	1	+	0	1	blank2r.bmp	500	1	DHJF	500	1	blank2r.bmp	880	6	verbissen	880	1	FEHLER	1564	1	!	-1	1	!	-1	0	0	0
2024-05-16	11:34:55	11:42:59	484420	6.6.1	4_exp_EVA_AWA_CON	41	A	B	Rpleas_acq	Same	Rpleas	1pleas	acq_US_pleas_nomask	acq3_nomask	3	34	453	1	300	300	0	0	499	50	1	0	kuss	träumen	genießen	vertrauen	gesittet	vergnügt	krise	töten	gemein	versagen	geizig	verbissen	sonnig	gütig	anregung	engagiert	besonnen	kreativ	sterben	gierig	ausrottung	engstirnig	bange	krank	1	blank2r.bmp	0	1	+	0	1	blank2r.bmp	500	1	CPLW	500	1	blank2r.bmp	880	5	gesittet	880	1	!	1292	1	!	1401	0	0	0	0	0	0
2024-05-16	11:34:55	11:43:02	486707	6.6.1	4_exp_EVA_AWA_CON	41	A	B	Rpleas_acq	Same	Rpleas	1pleas	acq_US_pleas_nomask	acq3_nomask	3	35	453	1	300	300	0	0	506	50	1	0	kuss	träumen	genießen	vertrauen	gesittet	vergnügt	krise	töten	gemein	versagen	geizig	verbissen	sonnig	gütig	anregung	engagiert	besonnen	kreativ	sterben	gierig	ausrottung	engstirnig	bange	krank	1	blank2r.bmp	0	1	+	0	1	blank2r.bmp	500	1	CPLW	500	1	blank2r.bmp	880	6	vergnügt	880	1	!	1292	1	!	1407	0	0	0	0	0	0
2024-05-16	11:34:55	11:43:04	488916	6.6.1	4_exp_EVA_AWA_CON	41	A	B	Rpleas_acq	Same	Rpleas	1pleas	acq_US_pleas_nomask	acq3_nomask	3	36	453	1	300	300	0	0	432	50	1	0	kuss	träumen	genießen	vertrauen	gesittet	vergnügt	krise	töten	gemein	versagen	geizig	verbissen	sonnig	gütig	anregung	engagiert	besonnen	kreativ	sterben	gierig	ausrottung	engstirnig	bange	krank	1	blank2r.bmp	0	1	+	0	1	blank2r.bmp	500	1	CPLW	500	1	blank2r.bmp	880	1	kuss	880	1	!	1293	1	!	1334	0	0	0	0	0	0
2024-05-16	11:34:55	11:43:18	502724	6.6.1	4_exp_EVA_AWA_CON	41	A	B	Rpleas_acq	Same	Rpleas	1pleas	acq_US_pleas_nomask	acq45_nomask	4	1	400	1	300	300	0	0	451	50	1	0	kuss	träumen	genießen	vertrauen	gesittet	vergnügt	krise	töten	gemein	versagen	geizig	verbissen	sonnig	gütig	anregung	engagiert	besonnen	kreativ	sterben	gierig	ausrottung	engstirnig	bange	krank	1	blank2r.bmp	0	1	+	0	1	blank2r.bmp	500	1	CPLW	500	1	blank2r.bmp	880	6	vergnügt	880	1	!	1233	1	!	1353	0	0	0	0	0	0
2024-05-16	11:34:55	11:43:20	504947	6.6.1	4_exp_EVA_AWA_CON	41	A	B	Rpleas_acq	Same	Rpleas	1pleas	acq_US_unple_nomask	acq45_nomask	4	2	400	1	300	300	0	0	444	46	1	0	kuss	träumen	genießen	vertrauen	gesittet	vergnügt	krise	töten	gemein	versagen	geizig	verbissen	sonnig	gütig	anregung	engagiert	besonnen	kreativ	sterben	gierig	ausrottung	engstirnig	bange	krank	1	blank2r.bmp	0	1	+	0	1	blank2r.bmp	500	1	DHJF	500	1	blank2r.bmp	880	6	verbissen	880	1	!	1233	1	!	1345	0	0	0	0	0	0
2024-05-16	11:34:55	11:43:22	507282	6.6.1	4_exp_EVA_AWA_CON	41	A	B	Rpleas_acq	Same	Rpleas	1pleas	acq_US_unple_nomask	acq45_nomask	4	3	400	0	300	300	0	0	558	46	1	0	kuss	träumen	genießen	vertrauen	gesittet	vergnügt	krise	töten	gemein	versagen	geizig	verbissen	sonnig	gütig	anregung	engagiert	besonnen	kreativ	sterben	gierig	ausrottung	engstirnig	bange	krank	1	blank2r.bmp	0	1	+	0	1	blank2r.bmp	500	1	DHJF	500	1	blank2r.bmp	880	2	töten	880	1	!	1232	1	!	-1	0	0	0	0	0	0
2024-05-16	11:34:55	11:43:24	509492	6.6.1	4_exp_EVA_AWA_CON	41	A	B	Rpleas_acq	Same	Rpleas	1pleas	acq_US_unple_nomask	acq45_nomask	4	4	400	1	300	300	0	0	435	46	1	0	kuss	träumen	genießen	vertrauen	gesittet	vergnügt	krise	töten	gemein	versagen	geizig	verbissen	sonnig	gütig	anregung	engagiert	besonnen	kreativ	sterben	gierig	ausrottung	engstirnig	bange	krank	1	blank2r.bmp	0	1	+	0	1	blank2r.bmp	500	1	DHJF	500	1	blank2r.bmp	880	1	krise	880	1	!	1232	1	!	1337	0	0	0	0	0	0
2024-05-16	11:34:55	11:43:27	511660	6.6.1	4_exp_EVA_AWA_CON	41	A	B	Rpleas_acq	Same	Rpleas	1pleas	acq_US_pleas_nomask	acq45_nomask	4	5	400	1	300	300	0	0	392	50	1	0	kuss	träumen	genießen	vertrauen	gesittet	vergnügt	krise	töten	gemein	versagen	geizig	verbissen	sonnig	gütig	anregung	engagiert	besonnen	kreativ	sterben	gierig	ausrottung	engstirnig	bange	krank	1	blank2r.bmp	0	1	+	0	1	blank2r.bmp	500	1	CPLW	500	1	blank2r.bmp	880	2	träumen	880	1	!	1232	1	!	1293	0	0	0	0	0	0
2024-05-16	11:34:55	11:43:29	513868	6.6.1	4_exp_EVA_AWA_CON	41	A	B	Rpleas_acq	Same	Rpleas	1pleas	acq_US_unple_nomask	acq45_nomask	4	6	400	1	300	300	0	0	428	46	1	0	kuss	träumen	genießen	vertrauen	gesittet	vergnügt	krise	töten	gemein	versagen	geizig	verbissen	sonnig	gütig	anregung	engagiert	besonnen	kreativ	sterben	gierig	ausrottung	engstirnig	bange	krank	1	blank2r.bmp	0	1	+	0	1	blank2r.bmp	500	1	DHJF	500	1	blank2r.bmp	880	3	gemein	880	1	!	1233	1	!	1330	0	0	0	0	0	0
2024-05-16	11:34:55	11:43:31	516003	6.6.1	4_exp_EVA_AWA_CON	41	A	B	Rpleas_acq	Same	Rpleas	1pleas	acq_US_unple_nomask	acq45_nomask	4	7	400	1	300	300	0	0	353	50	0	0	kuss	träumen	genießen	vertrauen	gesittet	vergnügt	krise	töten	gemein	versagen	geizig	verbissen	sonnig	gütig	anregung	engagiert	besonnen	kreativ	sterben	gierig	ausrottung	engstirnig	bange	krank	1	blank2r.bmp	0	1	+	0	1	blank2r.bmp	500	1	DHJF	500	1	blank2r.bmp	880	5	geizig	880	1	!	1232	1	!	1254	0	0	0	0	0	0
2024-05-16	11:34:55	11:43:33	518243	6.6.1	4_exp_EVA_AWA_CON	41	A	B	Rpleas_acq	Same	Rpleas	1pleas	acq_US_unple_nomask	acq45_nomask	4	8	400	1	300	300	0	0	461	50	0	0	kuss	träumen	genießen	vertrauen	gesittet	vergnügt	krise	töten	gemein	versagen	geizig	verbissen	sonnig	gütig	anregung	engagiert	besonnen	kreativ	sterben	gierig	ausrottung	engstirnig	bange	krank	1	blank2r.bmp	0	1	+	0	1	blank2r.bmp	500	1	DHJF	500	1	blank2r.bmp	880	4	versagen	880	1	!	1232	1	!	1363	0	0	0	0	0	0
2024-05-16	11:34:55	11:43:35	520514	6.6.1	4_exp_EVA_AWA_CON	41	A	B	Rpleas_acq	Same	Rpleas	1pleas	acq_US_pleas_nomask	acq45_nomask	4	9	400	0	300	300	0	0	492	50	1	0	kuss	träumen	genießen	vertrauen	gesittet	vergnügt	krise	töten	gemein	versagen	geizig	verbissen	sonnig	gütig	anregung	engagiert	besonnen	kreativ	sterben	gierig	ausrottung	engstirnig	bange	krank	1	blank2r.bmp	0	1	+	0	1	blank2r.bmp	500	1	CPLW	500	1	blank2r.bmp	880	3	genießen	880	1	!	1232	1	!	-1	0	0	0	0	0	0
2024-05-16	11:34:55	11:43:38	522756	6.6.1	4_exp_EVA_AWA_CON	41	A	B	Rpleas_acq	Same	Rpleas	1pleas	acq_US_pleas_nomask	acq45_nomask	4	10	400	1	300	300	0	0	460	50	1	0	kuss	träumen	genießen	vertrauen	gesittet	vergnügt	krise	töten	gemein	versagen	geizig	verbissen	sonnig	gütig	anregung	engagiert	besonnen	kreativ	sterben	gierig	ausrottung	engstirnig	bange	krank	1	blank2r.bmp	0	1	+	0	1	blank2r.bmp	500	1	CPLW	500	1	blank2r.bmp	880	1	kuss	880	1	!	1233	1	!	1362	0	0	0	0	0	0
2024-05-16	11:34:55	11:43:40	525003	6.6.1	4_exp_EVA_AWA_CON	41	A	B	Rpleas_acq	Same	Rpleas	1pleas	acq_US_pleas_nomask	acq45_nomask	4	11	400	1	300	300	0	0	467	50	1	0	kuss	träumen	genießen	vertrauen	gesittet	vergnügt	krise	töten	gemein	versagen	geizig	verbissen	sonnig	gütig	anregung	engagiert	besonnen	kreativ	sterben	gierig	ausrottung	engstirnig	bange	krank	1	blank2r.bmp	0	1	+	0	1	blank2r.bmp	500	1	CPLW	500	1	blank2r.bmp	880	5	gesittet	880	1	!	1232	1	!	1368	0	0	0	0	0	0
2024-05-16	11:34:55	11:43:42	527171	6.6.1	4_exp_EVA_AWA_CON	41	A	B	Rpleas_acq	Same	Rpleas	1pleas	acq_US_unple_nomask	acq45_nomask	4	12	400	1	300	300	0	0	394	46	1	0	kuss	träumen	genießen	vertrauen	gesittet	vergnügt	krise	töten	gemein	versagen	geizig	verbissen	sonnig	gütig	anregung	engagiert	besonnen	kreativ	sterben	gierig	ausrottung	engstirnig	bange	krank	1	blank2r.bmp	0	1	+	0	1	blank2r.bmp	500	1	DHJF	500	1	blank2r.bmp	880	1	krise	880	1	!	1232	1	!	1295	0	0	0	0	0	0
2024-05-16	11:34:55	11:43:44	529424	6.6.1	4_exp_EVA_AWA_CON	41	A	B	Rpleas_acq	Same	Rpleas	1pleas	acq_US_pleas_nomask	acq45_nomask	4	13	400	0	300	300	0	0	478	50	1	0	kuss	träumen	genießen	vertrauen	gesittet	vergnügt	krise	töten	gemein	versagen	geizig	verbissen	sonnig	gütig	anregung	engagiert	besonnen	kreativ	sterben	gierig	ausrottung	engstirnig	bange	krank	1	blank2r.bmp	0	1	+	0	1	blank2r.bmp	500	1	CPLW	500	1	blank2r.bmp	880	4	vertrauen	880	1	!	1232	1	!	-1	0	0	0	0	0	0
2024-05-16	11:34:55	11:43:47	531596	6.6.1	4_exp_EVA_AWA_CON	41	A	B	Rpleas_acq	Same	Rpleas	1pleas	acq_US_unple_nomask	acq45_nomask	4	14	400	1	300	300	0	0	395	46	1	0	kuss	träumen	genießen	vertrauen	gesittet	vergnügt	krise	töten	gemein	versagen	geizig	verbissen	sonnig	gütig	anregung	engagiert	besonnen	kreativ	sterben	gierig	ausrottung	engstirnig	bange	krank	1	blank2r.bmp	0	1	+	0	1	blank2r.bmp	500	1	DHJF	500	1	blank2r.bmp	880	6	verbissen	880	1	!	1232	1	!	1296	0	0	0	0	0	0
2024-05-16	11:34:55	11:43:49	533812	6.6.1	4_exp_EVA_AWA_CON	41	A	B	Rpleas_acq	Same	Rpleas	1pleas	acq_US_pleas_nomask	acq45_nomask	4	15	400	1	300	300	0	0	439	50	1	0	kuss	träumen	genießen	vertrauen	gesittet	vergnügt	krise	töten	gemein	versagen	geizig	verbissen	sonnig	gütig	anregung	engagiert	besonnen	kreativ	sterben	gierig	ausrottung	engstirnig	bange	krank	1	blank2r.bmp	0	1	+	0	1	blank2r.bmp	500	1	CPLW	500	1	blank2r.bmp	880	4	vertrauen	880	1	!	1232	1	!	1342	0	0	0	0	0	0
2024-05-16	11:34:55	11:43:51	536154	6.6.1	4_exp_EVA_AWA_CON	41	A	B	Rpleas_acq	Same	Rpleas	1pleas	acq_US_pleas_nomask	acq45_nomask	4	16	400	0	300	300	0	0	562	50	1	0	kuss	träumen	genießen	vertrauen	gesittet	vergnügt	krise	töten	gemein	versagen	geizig	verbissen	sonnig	gütig	anregung	engagiert	besonnen	kreativ	sterben	gierig	ausrottung	engstirnig	bange	krank	1	blank2r.bmp	0	1	+	0	1	blank2r.bmp	500	1	CPLW	500	1	blank2r.bmp	880	6	vergnügt	880	1	!	1232	1	!	-1	0	0	0	0	0	0
2024-05-16	11:34:55	11:43:53	538404	6.6.1	4_exp_EVA_AWA_CON	41	A	B	Rpleas_acq	Same	Rpleas	1pleas	acq_US_pleas_nomask	acq45_nomask	4	17	400	1	300	300	0	0	468	46	0	0	kuss	träumen	genießen	vertrauen	gesittet	vergnügt	krise	töten	gemein	versagen	geizig	verbissen	sonnig	gütig	anregung	engagiert	besonnen	kreativ	sterben	gierig	ausrottung	engstirnig	bange	krank	1	blank2r.bmp	0	1	+	0	1	blank2r.bmp	500	1	CPLW	500	1	blank2r.bmp	880	2	träumen	880	1	!	1232	1	!	1370	0	0	0	0	0	0
2024-05-16	11:34:55	11:43:56	540620	6.6.1	4_exp_EVA_AWA_CON	41	A	B	Rpleas_acq	Same	Rpleas	1pleas	acq_US_unple_nomask	acq45_nomask	4	18	400	1	300	300	0	0	433	50	0	0	kuss	träumen	genießen	vertrauen	gesittet	vergnügt	krise	töten	gemein	versagen	geizig	verbissen	sonnig	gütig	anregung	engagiert	besonnen	kreativ	sterben	gierig	ausrottung	engstirnig	bange	krank	1	blank2r.bmp	0	1	+	0	1	blank2r.bmp	500	1	DHJF	500	1	blank2r.bmp	880	5	geizig	880	1	!	1232	1	!	1335	0	0	0	0	0	0
2024-05-16	11:34:55	11:43:58	542994	6.6.1	4_exp_EVA_AWA_CON	41	A	B	Rpleas_acq	Same	Rpleas	1pleas	acq_US_unple_nomask	acq45_nomask	4	19	400	0	300	300	0	0	598	46	1	0	kuss	träumen	genießen	vertrauen	gesittet	vergnügt	krise	töten	gemein	versagen	geizig	verbissen	sonnig	gütig	anregung	engagiert	besonnen	kreativ	sterben	gierig	ausrottung	engstirnig	bange	krank	1	blank2r.bmp	0	1	+	0	1	blank2r.bmp	500	1	DHJF	500	1	blank2r.bmp	880	4	versagen	880	1	!	1232	1	!	-1	0	0	0	0	0	0
2024-05-16	11:34:55	11:44:00	545195	6.6.1	4_exp_EVA_AWA_CON	41	A	B	Rpleas_acq	Same	Rpleas	1pleas	acq_US_pleas_nomask	acq45_nomask	4	20	400	1	300	300	0	0	426	50	1	0	kuss	träumen	genießen	vertrauen	gesittet	vergnügt	krise	töten	gemein	versagen	geizig	verbissen	sonnig	gütig	anregung	engagiert	besonnen	kreativ	sterben	gierig	ausrottung	engstirnig	bange	krank	1	blank2r.bmp	0	1	+	0	1	blank2r.bmp	500	1	CPLW	500	1	blank2r.bmp	880	3	genießen	880	1	!	1233	1	!	1328	0	0	0	0	0	0
2024-05-16	11:34:55	11:44:02	547395	6.6.1	4_exp_EVA_AWA_CON	41	A	B	Rpleas_acq	Same	Rpleas	1pleas	acq_US_unple_nomask	acq45_nomask	4	21	400	1	300	300	0	0	425	46	1	0	kuss	träumen	genießen	vertrauen	gesittet	vergnügt	krise	töten	gemein	versagen	geizig	verbissen	sonnig	gütig	anregung	engagiert	besonnen	kreativ	sterben	gierig	ausrottung	engstirnig	bange	krank	1	blank2r.bmp	0	1	+	0	1	blank2r.bmp	500	1	DHJF	500	1	blank2r.bmp	880	3	gemein	880	1	!	1232	1	!	1326	0	0	0	0	0	0
2024-05-16	11:34:55	11:44:04	549548	6.6.1	4_exp_EVA_AWA_CON	41	A	B	Rpleas_acq	Same	Rpleas	1pleas	acq_US_unple_nomask	acq45_nomask	4	22	400	1	300	300	0	0	375	46	1	0	kuss	träumen	genießen	vertrauen	gesittet	vergnügt	krise	töten	gemein	versagen	geizig	verbissen	sonnig	gütig	anregung	engagiert	besonnen	kreativ	sterben	gierig	ausrottung	engstirnig	bange	krank	1	blank2r.bmp	0	1	+	0	1	blank2r.bmp	500	1	DHJF	500	1	blank2r.bmp	880	2	töten	880	1	!	1233	1	!	1277	0	0	0	0	0	0
2024-05-16	11:34:55	11:44:07	551843	6.6.1	4_exp_EVA_AWA_CON	41	A	B	Rpleas_acq	Same	Rpleas	1pleas	acq_US_pleas_nomask	acq45_nomask	4	23	400	0	300	300	0	0	520	50	1	0	kuss	träumen	genießen	vertrauen	gesittet	vergnügt	krise	töten	gemein	versagen	geizig	verbissen	sonnig	gütig	anregung	engagiert	besonnen	kreativ	sterben	gierig	ausrottung	engstirnig	bange	krank	1	blank2r.bmp	0	1	+	0	1	blank2r.bmp	500	1	CPLW	500	1	blank2r.bmp	880	5	gesittet	880	1	!	1232	1	!	-1	0	0	0	0	0	0
2024-05-16	11:34:55	11:44:09	554067	6.6.1	4_exp_EVA_AWA_CON	41	A	B	Rpleas_acq	Same	Rpleas	1pleas	acq_US_unple_nomask	acq45_nomask	4	24	400	1	300	300	0	0	442	46	1	0	kuss	träumen	genießen	vertrauen	gesittet	vergnügt	krise	töten	gemein	versagen	geizig	verbissen	sonnig	gütig	anregung	engagiert	besonnen	kreativ	sterben	gierig	ausrottung	engstirnig	bange	krank	1	blank2r.bmp	0	1	+	0	1	blank2r.bmp	500	1	DHJF	500	1	blank2r.bmp	880	5	geizig	880	1	!	1232	1	!	1344	0	0	0	0	0	0
2024-05-16	11:34:55	11:44:11	556243	6.6.1	4_exp_EVA_AWA_CON	41	A	B	Rpleas_acq	Same	Rpleas	1pleas	acq_US_unple_nomask	acq45_nomask	4	25	400	1	300	300	0	0	397	46	1	0	kuss	träumen	genießen	vertrauen	gesittet	vergnügt	krise	töten	gemein	versagen	geizig	verbissen	sonnig	gütig	anregung	engagiert	besonnen	kreativ	sterben	gierig	ausrottung	engstirnig	bange	krank	1	blank2r.bmp	0	1	+	0	1	blank2r.bmp	500	1	DHJF	500	1	blank2r.bmp	880	6	verbissen	880	1	!	1232	1	!	1298	0	0	0	0	0	0
2024-05-16	11:34:55	11:44:13	558435	6.6.1	4_exp_EVA_AWA_CON	41	A	B	Rpleas_acq	Same	Rpleas	1pleas	acq_US_unple_nomask	acq45_nomask	4	26	400	1	300	300	0	0	418	46	1	0	kuss	träumen	genießen	vertrauen	gesittet	vergnügt	krise	töten	gemein	versagen	geizig	verbissen	sonnig	gütig	anregung	engagiert	besonnen	kreativ	sterben	gierig	ausrottung	engstirnig	bange	krank	1	blank2r.bmp	0	1	+	0	1	blank2r.bmp	500	1	DHJF	500	1	blank2r.bmp	880	1	krise	880	1	!	1232	1	!	1319	0	0	0	0	0	0
2024-05-16	11:34:55	11:44:16	560651	6.6.1	4_exp_EVA_AWA_CON	41	A	B	Rpleas_acq	Same	Rpleas	1pleas	acq_US_pleas_nomask	acq45_nomask	4	27	400	1	300	300	0	0	442	50	1	0	kuss	träumen	genießen	vertrauen	gesittet	vergnügt	krise	töten	gemein	versagen	geizig	verbissen	sonnig	gütig	anregung	engagiert	besonnen	kreativ	sterben	gierig	ausrottung	engstirnig	bange	krank	1	blank2r.bmp	0	1	+	0	1	blank2r.bmp	500	1	CPLW	500	1	blank2r.bmp	880	1	kuss	880	1	!	1232	1	!	1344	0	0	0	0	0	0
2024-05-16	11:34:55	11:44:18	562836	6.6.1	4_exp_EVA_AWA_CON	41	A	B	Rpleas_acq	Same	Rpleas	1pleas	acq_US_pleas_nomask	acq45_nomask	4	28	400	1	300	300	0	0	405	50	1	0	kuss	träumen	genießen	vertrauen	gesittet	vergnügt	krise	töten	gemein	versagen	geizig	verbissen	sonnig	gütig	anregung	engagiert	besonnen	kreativ	sterben	gierig	ausrottung	engstirnig	bange	krank	1	blank2r.bmp	0	1	+	0	1	blank2r.bmp	500	1	CPLW	500	1	blank2r.bmp	880	1	kuss	880	1	!	1232	1	!	1306	0	0	0	0	0	0
2024-05-16	11:34:55	11:44:20	565060	6.6.1	4_exp_EVA_AWA_CON	41	A	B	Rpleas_acq	Same	Rpleas	1pleas	acq_US_unple_nomask	acq45_nomask	4	29	400	1	300	300	0	0	447	46	1	0	kuss	träumen	genießen	vertrauen	gesittet	vergnügt	krise	töten	gemein	versagen	geizig	verbissen	sonnig	gütig	anregung	engagiert	besonnen	kreativ	sterben	gierig	ausrottung	engstirnig	bange	krank	1	blank2r.bmp	0	1	+	0	1	blank2r.bmp	500	1	DHJF	500	1	blank2r.bmp	880	2	töten	880	1	!	1232	1	!	1349	0	0	0	0	0	0
2024-05-16	11:34:55	11:44:22	567312	6.6.1	4_exp_EVA_AWA_CON	41	A	B	Rpleas_acq	Same	Rpleas	1pleas	acq_US_pleas_nomask	acq45_nomask	4	30	400	0	300	300	0	0	482	50	1	0	kuss	träumen	genießen	vertrauen	gesittet	vergnügt	krise	töten	gemein	versagen	geizig	verbissen	sonnig	gütig	anregung	engagiert	besonnen	kreativ	sterben	gierig	ausrottung	engstirnig	bange	krank	1	blank2r.bmp	0	1	+	0	1	blank2r.bmp	500	1	CPLW	500	1	blank2r.bmp	880	6	vergnügt	880	1	!	1232	1	!	-1	0	0	0	0	0	0
2024-05-16	11:34:55	11:44:25	569634	6.6.1	4_exp_EVA_AWA_CON	41	A	B	Rpleas_acq	Same	Rpleas	1pleas	acq_US_pleas_nomask	acq45_nomask	4	31	400	0	300	300	0	0	540	50	1	0	kuss	träumen	genießen	vertrauen	gesittet	vergnügt	krise	töten	gemein	versagen	geizig	verbissen	sonnig	gütig	anregung	engagiert	besonnen	kreativ	sterben	gierig	ausrottung	engstirnig	bange	krank	1	blank2r.bmp	0	1	+	0	1	blank2r.bmp	500	1	CPLW	500	1	blank2r.bmp	880	4	vertrauen	880	1	!	1232	1	!	-1	0	0	0	0	0	0
2024-05-16	11:34:55	11:44:27	571779	6.6.1	4_exp_EVA_AWA_CON	41	A	B	Rpleas_acq	Same	Rpleas	1pleas	acq_US_pleas_nomask	acq45_nomask	4	32	400	1	300	300	0	0	363	50	1	0	kuss	träumen	genießen	vertrauen	gesittet	vergnügt	krise	töten	gemein	versagen	geizig	verbissen	sonnig	gütig	anregung	engagiert	besonnen	kreativ	sterben	gierig	ausrottung	engstirnig	bange	krank	1	blank2r.bmp	0	1	+	0	1	blank2r.bmp	500	1	CPLW	500	1	blank2r.bmp	880	3	genießen	880	1	!	1232	1	!	1264	0	0	0	0	0	0
2024-05-16	11:34:55	11:44:29	574202	6.6.1	4_exp_EVA_AWA_CON	41	A	B	Rpleas_acq	Same	Rpleas	1pleas	acq_US_unple_nomask	acq45_nomask	4	33	400	0	300	300	0	0	646	46	1	0	kuss	träumen	genießen	vertrauen	gesittet	vergnügt	krise	töten	gemein	versagen	geizig	verbissen	sonnig	gütig	anregung	engagiert	besonnen	kreativ	sterben	gierig	ausrottung	engstirnig	bange	krank	1	blank2r.bmp	0	1	+	0	1	blank2r.bmp	500	1	DHJF	500	1	blank2r.bmp	880	3	gemein	880	1	!	1232	1	!	-1	0	0	0	0	0	0
2024-05-16	11:34:55	11:44:31	576314	6.6.1	4_exp_EVA_AWA_CON	41	A	B	Rpleas_acq	Same	Rpleas	1pleas	acq_US_unple_nomask	acq45_nomask	4	34	400	1	300	300	0	0	336	50	0	0	kuss	träumen	genießen	vertrauen	gesittet	vergnügt	krise	töten	gemein	versagen	geizig	verbissen	sonnig	gütig	anregung	engagiert	besonnen	kreativ	sterben	gierig	ausrottung	engstirnig	bange	krank	1	blank2r.bmp	0	1	+	0	1	blank2r.bmp	500	1	DHJF	500	1	blank2r.bmp	880	4	versagen	880	1	!	1232	1	!	1236	0	0	0	0	0	0
2024-05-16	11:34:55	11:44:34	578714	6.6.1	4_exp_EVA_AWA_CON	41	A	B	Rpleas_acq	Same	Rpleas	1pleas	acq_US_pleas_nomask	acq45_nomask	4	35	400	0	300	300	0	0	625	50	1	0	kuss	träumen	genießen	vertrauen	gesittet	vergnügt	krise	töten	gemein	versagen	geizig	verbissen	sonnig	gütig	anregung	engagiert	besonnen	kreativ	sterben	gierig	ausrottung	engstirnig	bange	krank	1	blank2r.bmp	0	1	+	0	1	blank2r.bmp	500	1	CPLW	500	1	blank2r.bmp	880	5	gesittet	880	1	!	1232	1	!	-1	0	0	0	0	0	0
2024-05-16	11:34:55	11:44:36	580876	6.6.1	4_exp_EVA_AWA_CON	41	A	B	Rpleas_acq	Same	Rpleas	1pleas	acq_US_pleas_nomask	acq45_nomask	4	36	400	1	300	300	0	0	383	46	0	0	kuss	träumen	genießen	vertrauen	gesittet	vergnügt	krise	töten	gemein	versagen	geizig	verbissen	sonnig	gütig	anregung	engagiert	besonnen	kreativ	sterben	gierig	ausrottung	engstirnig	bange	krank	1	blank2r.bmp	0	1	+	0	1	blank2r.bmp	500	1	CPLW	500	1	blank2r.bmp	880	2	träumen	880	1	!	1232	1	!	1285	0	0	0	0	0	0
2024-05-16	11:34:55	11:44:49	593826	6.6.1	4_exp_EVA_AWA_CON	41	A	B	Rpleas_acq	Same	Rpleas	1pleas	acq_US_pleas_nomask	acq45_nomask	5	1	400	0	300	300	0	0	657	50	1	0	kuss	träumen	genießen	vertrauen	gesittet	vergnügt	krise	töten	gemein	versagen	geizig	verbissen	sonnig	gütig	anregung	engagiert	besonnen	kreativ	sterben	gierig	ausrottung	engstirnig	bange	krank	1	blank2r.bmp	0	1	+	0	1	blank2r.bmp	500	1	CPLW	500	1	blank2r.bmp	880	4	vertrauen	880	1	!	1232	1	!	-1	0	0	0	0	0	0
2024-05-16	11:34:55	11:44:51	595972	6.6.1	4_exp_EVA_AWA_CON	41	A	B	Rpleas_acq	Same	Rpleas	1pleas	acq_US_unple_nomask	acq45_nomask	5	2	400	1	300	300	0	0	369	46	1	0	kuss	träumen	genießen	vertrauen	gesittet	vergnügt	krise	töten	gemein	versagen	geizig	verbissen	sonnig	gütig	anregung	engagiert	besonnen	kreativ	sterben	gierig	ausrottung	engstirnig	bange	krank	1	blank2r.bmp	0	1	+	0	1	blank2r.bmp	500	1	DHJF	500	1	blank2r.bmp	880	5	geizig	880	1	!	1232	1	!	1272	0	0	0	0	0	0
2024-05-16	11:34:55	11:44:53	598266	6.6.1	4_exp_EVA_AWA_CON	41	A	B	Rpleas_acq	Same	Rpleas	1pleas	acq_US_unple_nomask	acq45_nomask	5	3	400	0	300	300	0	0	514	46	1	0	kuss	träumen	genießen	vertrauen	gesittet	vergnügt	krise	töten	gemein	versagen	geizig	verbissen	sonnig	gütig	anregung	engagiert	besonnen	kreativ	sterben	gierig	ausrottung	engstirnig	bange	krank	1	blank2r.bmp	0	1	+	0	1	blank2r.bmp	500	1	DHJF	500	1	blank2r.bmp	880	1	krise	880	1	!	1232	1	!	-1	0	0	0	0	0	0
2024-05-16	11:34:55	11:44:55	600516	6.6.1	4_exp_EVA_AWA_CON	41	A	B	Rpleas_acq	Same	Rpleas	1pleas	acq_US_unple_nomask	acq45_nomask	5	4	400	1	300	300	0	0	471	50	0	0	kuss	träumen	genießen	vertrauen	gesittet	vergnügt	krise	töten	gemein	versagen	geizig	verbissen	sonnig	gütig	anregung	engagiert	besonnen	kreativ	sterben	gierig	ausrottung	engstirnig	bange	krank	1	blank2r.bmp	0	1	+	0	1	blank2r.bmp	500	1	DHJF	500	1	blank2r.bmp	880	6	verbissen	880	1	!	1232	1	!	1372	0	0	0	0	0	0
2024-05-16	11:34:55	11:44:58	602826	6.6.1	4_exp_EVA_AWA_CON	41	A	B	Rpleas_acq	Same	Rpleas	1pleas	acq_US_pleas_nomask	acq45_nomask	5	5	400	0	300	300	0	0	531	50	1	0	kuss	träumen	genießen	vertrauen	gesittet	vergnügt	krise	töten	gemein	versagen	geizig	verbissen	sonnig	gütig	anregung	engagiert	besonnen	kreativ	sterben	gierig	ausrottung	engstirnig	bange	krank	1	blank2r.bmp	0	1	+	0	1	blank2r.bmp	500	1	CPLW	500	1	blank2r.bmp	880	5	gesittet	880	1	!	1233	1	!	-1	0	0	0	0	0	0
2024-05-16	11:34:55	11:45:00	605098	6.6.1	4_exp_EVA_AWA_CON	41	A	B	Rpleas_acq	Same	Rpleas	1pleas	acq_US_pleas_nomask	acq45_nomask	5	6	400	0	300	300	0	0	492	50	1	0	kuss	träumen	genießen	vertrauen	gesittet	vergnügt	krise	töten	gemein	versagen	geizig	verbissen	sonnig	gütig	anregung	engagiert	besonnen	kreativ	sterben	gierig	ausrottung	engstirnig	bange	krank	1	blank2r.bmp	0	1	+	0	1	blank2r.bmp	500	1	CPLW	500	1	blank2r.bmp	880	2	träumen	880	1	!	1232	1	!	-1	0	0	0	0	0	0
2024-05-16	11:34:55	11:45:02	607362	6.6.1	4_exp_EVA_AWA_CON	41	A	B	Rpleas_acq	Same	Rpleas	1pleas	acq_US_unple_nomask	acq45_nomask	5	7	400	0	300	300	0	0	484	46	1	0	kuss	träumen	genießen	vertrauen	gesittet	vergnügt	krise	töten	gemein	versagen	geizig	verbissen	sonnig	gütig	anregung	engagiert	besonnen	kreativ	sterben	gierig	ausrottung	engstirnig	bange	krank	1	blank2r.bmp	0	1	+	0	1	blank2r.bmp	500	1	DHJF	500	1	blank2r.bmp	880	3	gemein	880	1	!	1232	1	!	-1	0	0	0	0	0	0
2024-05-16	11:34:55	11:45:04	609547	6.6.1	4_exp_EVA_AWA_CON	41	A	B	Rpleas_acq	Same	Rpleas	1pleas	acq_US_pleas_nomask	acq45_nomask	5	8	400	1	300	300	0	0	407	46	0	0	kuss	träumen	genießen	vertrauen	gesittet	vergnügt	krise	töten	gemein	versagen	geizig	verbissen	sonnig	gütig	anregung	engagiert	besonnen	kreativ	sterben	gierig	ausrottung	engstirnig	bange	krank	1	blank2r.bmp	0	1	+	0	1	blank2r.bmp	500	1	CPLW	500	1	blank2r.bmp	880	6	vergnügt	880	1	!	1233	1	!	1308	0	0	0	0	0	0
2024-05-16	11:34:55	11:45:07	612034	6.6.1	4_exp_EVA_AWA_CON	41	A	B	Rpleas_acq	Same	Rpleas	1pleas	acq_US_unple_nomask	acq45_nomask	5	9	400	0	300	300	0	0	713	46	1	0	kuss	träumen	genießen	vertrauen	gesittet	vergnügt	krise	töten	gemein	versagen	geizig	verbissen	sonnig	gütig	anregung	engagiert	besonnen	kreativ	sterben	gierig	ausrottung	engstirnig	bange	krank	1	blank2r.bmp	0	1	+	0	1	blank2r.bmp	500	1	DHJF	500	1	blank2r.bmp	880	2	töten	880	1	!	1232	1	!	-1	0	0	0	0	0	0
2024-05-16	11:34:55	11:45:09	614268	6.6.1	4_exp_EVA_AWA_CON	41	A	B	Rpleas_acq	Same	Rpleas	1pleas	acq_US_pleas_nomask	acq45_nomask	5	10	400	1	300	300	0	0	454	50	1	0	kuss	träumen	genießen	vertrauen	gesittet	vergnügt	krise	töten	gemein	versagen	geizig	verbissen	sonnig	gütig	anregung	engagiert	besonnen	kreativ	sterben	gierig	ausrottung	engstirnig	bange	krank	1	blank2r.bmp	0	1	+	0	1	blank2r.bmp	500	1	CPLW	500	1	blank2r.bmp	880	1	kuss	880	1	!	1233	1	!	1355	0	0	0	0	0	0
2024-05-16	11:34:55	11:45:11	616538	6.6.1	4_exp_EVA_AWA_CON	41	A	B	Rpleas_acq	Same	Rpleas	1pleas	acq_US_unple_nomask	acq45_nomask	5	11	400	0	300	300	0	0	494	50	0	0	kuss	träumen	genießen	vertrauen	gesittet	vergnügt	krise	töten	gemein	versagen	geizig	verbissen	sonnig	gütig	anregung	engagiert	besonnen	kreativ	sterben	gierig	ausrottung	engstirnig	bange	krank	1	blank2r.bmp	0	1	+	0	1	blank2r.bmp	500	1	DHJF	500	1	blank2r.bmp	880	4	versagen	880	1	!	1232	1	!	-1	0	0	0	0	0	0
2024-05-16	11:34:55	11:45:14	618842	6.6.1	4_exp_EVA_AWA_CON	41	A	B	Rpleas_acq	Same	Rpleas	1pleas	acq_US_unple_nomask	acq45_nomask	5	12	400	0	300	300	0	0	527	50	0	0	kuss	träumen	genießen	vertrauen	gesittet	vergnügt	krise	töten	gemein	versagen	geizig	verbissen	sonnig	gütig	anregung	engagiert	besonnen	kreativ	sterben	gierig	ausrottung	engstirnig	bange	krank	1	blank2r.bmp	0	1	+	0	1	blank2r.bmp	500	1	DHJF	500	1	blank2r.bmp	880	2	töten	880	1	!	1232	1	!	-1	0	0	0	0	0	0
2024-05-16	11:34:55	11:45:16	621051	6.6.1	4_exp_EVA_AWA_CON	41	A	B	Rpleas_acq	Same	Rpleas	1pleas	acq_US_pleas_nomask	acq45_nomask	5	13	400	1	300	300	0	0	433	50	1	0	kuss	träumen	genießen	vertrauen	gesittet	vergnügt	krise	töten	gemein	versagen	geizig	verbissen	sonnig	gütig	anregung	engagiert	besonnen	kreativ	sterben	gierig	ausrottung	engstirnig	bange	krank	1	blank2r.bmp	0	1	+	0	1	blank2r.bmp	500	1	CPLW	500	1	blank2r.bmp	880	3	genießen	880	1	!	1232	1	!	1335	0	0	0	0	0	0
2024-05-16	11:34:55	11:45:18	623538	6.6.1	4_exp_EVA_AWA_CON	41	A	B	Rpleas_acq	Same	Rpleas	1pleas	acq_US_pleas_nomask	acq45_nomask	5	14	400	0	300	300	0	0	710	50	1	0	kuss	träumen	genießen	vertrauen	gesittet	vergnügt	krise	töten	gemein	versagen	geizig	verbissen	sonnig	gütig	anregung	engagiert	besonnen	kreativ	sterben	gierig	ausrottung	engstirnig	bange	krank	1	blank2r.bmp	0	1	+	0	1	blank2r.bmp	500	1	CPLW	500	1	blank2r.bmp	880	4	vertrauen	880	1	!	1232	1	!	-1	0	0	0	0	0	0
2024-05-16	11:34:55	11:45:21	625810	6.6.1	4_exp_EVA_AWA_CON	41	A	B	Rpleas_acq	Same	Rpleas	1pleas	acq_US_pleas_nomask	acq45_nomask	5	15	400	0	300	300	0	0	490	50	1	0	kuss	träumen	genießen	vertrauen	gesittet	vergnügt	krise	töten	gemein	versagen	geizig	verbissen	sonnig	gütig	anregung	engagiert	besonnen	kreativ	sterben	gierig	ausrottung	engstirnig	bange	krank	1	blank2r.bmp	0	1	+	0	1	blank2r.bmp	500	1	CPLW	500	1	blank2r.bmp	880	3	genießen	880	1	!	1232	1	!	-1	0	0	0	0	0	0
2024-05-16	11:34:55	11:45:23	628012	6.6.1	4_exp_EVA_AWA_CON	41	A	B	Rpleas_acq	Same	Rpleas	1pleas	acq_US_pleas_nomask	acq45_nomask	5	16	400	1	300	300	0	0	419	50	1	0	kuss	träumen	genießen	vertrauen	gesittet	vergnügt	krise	töten	gemein	versagen	geizig	verbissen	sonnig	gütig	anregung	engagiert	besonnen	kreativ	sterben	gierig	ausrottung	engstirnig	bange	krank	1	blank2r.bmp	0	1	+	0	1	blank2r.bmp	500	1	CPLW	500	1	blank2r.bmp	880	6	vergnügt	880	1	!	1232	1	!	1320	0	0	0	0	0	0
2024-05-16	11:34:55	11:45:25	630155	6.6.1	4_exp_EVA_AWA_CON	41	A	B	Rpleas_acq	Same	Rpleas	1pleas	acq_US_unple_nomask	acq45_nomask	5	17	400	1	300	300	0	0	361	46	1	0	kuss	träumen	genießen	vertrauen	gesittet	vergnügt	krise	töten	gemein	versagen	geizig	verbissen	sonnig	gütig	anregung	engagiert	besonnen	kreativ	sterben	gierig	ausrottung	engstirnig	bange	krank	1	blank2r.bmp	0	1	+	0	1	blank2r.bmp	500	1	DHJF	500	1	blank2r.bmp	880	5	geizig	880	1	!	1232	1	!	1263	0	0	0	0	0	0
2024-05-16	11:34:55	11:45:27	632291	6.6.1	4_exp_EVA_AWA_CON	41	A	B	Rpleas_acq	Same	Rpleas	1pleas	acq_US_unple_nomask	acq45_nomask	5	18	400	1	300	300	0	0	356	46	1	0	kuss	träumen	genießen	vertrauen	gesittet	vergnügt	krise	töten	gemein	versagen	geizig	verbissen	sonnig	gütig	anregung	engagiert	besonnen	kreativ	sterben	gierig	ausrottung	engstirnig	bange	krank	1	blank2r.bmp	0	1	+	0	1	blank2r.bmp	500	1	DHJF	500	1	blank2r.bmp	880	6	verbissen	880	1	!	1232	1	!	1257	0	0	0	0	0	0
2024-05-16	11:34:55	11:45:29	634544	6.6.1	4_exp_EVA_AWA_CON	41	A	B	Rpleas_acq	Same	Rpleas	1pleas	acq_US_unple_nomask	acq45_nomask	5	19	400	0	300	300	0	0	481	50	0	0	kuss	träumen	genießen	vertrauen	gesittet	vergnügt	krise	töten	gemein	versagen	geizig	verbissen	sonnig	gütig	anregung	engagiert	besonnen	kreativ	sterben	gierig	ausrottung	engstirnig	bange	krank	1	blank2r.bmp	0	1	+	0	1	blank2r.bmp	500	1	DHJF	500	1	blank2r.bmp	880	3	gemein	880	1	!	1233	1	!	-1	0	0	0	0	0	0
2024-05-16	11:34:55	11:45:32	636684	6.6.1	4_exp_EVA_AWA_CON	41	A	B	Rpleas_acq	Same	Rpleas	1pleas	acq_US_pleas_nomask	acq45_nomask	5	20	400	1	300	300	0	0	365	50	1	0	kuss	träumen	genießen	vertrauen	gesittet	vergnügt	krise	töten	gemein	versagen	geizig	verbissen	sonnig	gütig	anregung	engagiert	besonnen	kreativ	sterben	gierig	ausrottung	engstirnig	bange	krank	1	blank2r.bmp	0	1	+	0	1	blank2r.bmp	500	1	CPLW	500	1	blank2r.bmp	880	1	kuss	880	1	!	1233	1	!	1267	0	0	0	0	0	0
2024-05-16	11:34:55	11:45:34	638852	6.6.1	4_exp_EVA_AWA_CON	41	A	B	Rpleas_acq	Same	Rpleas	1pleas	acq_US_unple_nomask	acq45_nomask	5	21	400	1	300	300	0	0	392	46	1	0	kuss	träumen	genießen	vertrauen	gesittet	vergnügt	krise	töten	gemein	versagen	geizig	verbissen	sonnig	gütig	anregung	engagiert	besonnen	kreativ	sterben	gierig	ausrottung	engstirnig	bange	krank	1	blank2r.bmp	0	1	+	0	1	blank2r.bmp	500	1	DHJF	500	1	blank2r.bmp	880	1	krise	880	1	!	1232	1	!	1293	0	0	0	0	0	0
2024-05-16	11:34:55	11:45:36	641170	6.6.1	4_exp_EVA_AWA_CON	41	A	B	Rpleas_acq	Same	Rpleas	1pleas	acq_US_pleas_nomask	acq45_nomask	5	22	400	0	300	300	0	0	540	50	1	0	kuss	träumen	genießen	vertrauen	gesittet	vergnügt	krise	töten	gemein	versagen	geizig	verbissen	sonnig	gütig	anregung	engagiert	besonnen	kreativ	sterben	gierig	ausrottung	engstirnig	bange	krank	1	blank2r.bmp	0	1	+	0	1	blank2r.bmp	500	1	CPLW	500	1	blank2r.bmp	880	2	träumen	880	1	!	1232	1	!	-1	0	0	0	0	0	0
2024-05-16	11:34:55	11:45:39	643770	6.6.1	4_exp_EVA_AWA_CON	41	A	B	Rpleas_acq	Same	Rpleas	1pleas	acq_US_unple_nomask	acq45_nomask	5	23	400	0	300	300	0	0	819	46	1	0	kuss	träumen	genießen	vertrauen	gesittet	vergnügt	krise	töten	gemein	versagen	geizig	verbissen	sonnig	gütig	anregung	engagiert	besonnen	kreativ	sterben	gierig	ausrottung	engstirnig	bange	krank	1	blank2r.bmp	0	1	+	0	1	blank2r.bmp	500	1	DHJF	500	1	blank2r.bmp	880	4	versagen	880	1	!	1232	1	!	-1	0	0	0	0	0	0
2024-05-16	11:34:55	11:45:41	646178	6.6.1	4_exp_EVA_AWA_CON	41	A	B	Rpleas_acq	Same	Rpleas	1pleas	acq_US_unple_nomask	acq45_nomask	5	24	400	0	300	300	0	0	635	46	1	0	kuss	träumen	genießen	vertrauen	gesittet	vergnügt	krise	töten	gemein	versagen	geizig	verbissen	sonnig	gütig	anregung	engagiert	besonnen	kreativ	sterben	gierig	ausrottung	engstirnig	bange	krank	1	blank2r.bmp	0	1	+	0	1	blank2r.bmp	500	1	DHJF	500	1	blank2r.bmp	880	5	geizig	880	1	!	1232	1	!	-1	0	0	0	0	0	0
2024-05-16	11:34:55	11:45:43	648425	6.6.1	4_exp_EVA_AWA_CON	41	A	B	Rpleas_acq	Same	Rpleas	1pleas	acq_US_pleas_nomask	acq45_nomask	5	25	400	0	300	300	0	0	473	50	1	0	kuss	träumen	genießen	vertrauen	gesittet	vergnügt	krise	töten	gemein	versagen	geizig	verbissen	sonnig	gütig	anregung	engagiert	besonnen	kreativ	sterben	gierig	ausrottung	engstirnig	bange	krank	1	blank2r.bmp	0	1	+	0	1	blank2r.bmp	500	1	CPLW	500	1	blank2r.bmp	880	5	gesittet	880	1	!	1233	1	!	-1	0	0	0	0	0	0
2024-05-16	11:34:55	11:45:45	650563	6.6.1	4_exp_EVA_AWA_CON	41	A	B	Rpleas_acq	Same	Rpleas	1pleas	acq_US_pleas_nomask	acq45_nomask	5	26	400	1	300	300	0	0	356	50	1	0	kuss	träumen	genießen	vertrauen	gesittet	vergnügt	krise	töten	gemein	versagen	geizig	verbissen	sonnig	gütig	anregung	engagiert	besonnen	kreativ	sterben	gierig	ausrottung	engstirnig	bange	krank	1	blank2r.bmp	0	1	+	0	1	blank2r.bmp	500	1	CPLW	500	1	blank2r.bmp	880	2	träumen	880	1	!	1232	1	!	1258	0	0	0	0	0	0
2024-05-16	11:34:55	11:45:48	652764	6.6.1	4_exp_EVA_AWA_CON	41	A	B	Rpleas_acq	Same	Rpleas	1pleas	acq_US_unple_nomask	acq45_nomask	5	27	400	1	300	300	0	0	425	46	1	0	kuss	träumen	genießen	vertrauen	gesittet	vergnügt	krise	töten	gemein	versagen	geizig	verbissen	sonnig	gütig	anregung	engagiert	besonnen	kreativ	sterben	gierig	ausrottung	engstirnig	bange	krank	1	blank2r.bmp	0	1	+	0	1	blank2r.bmp	500	1	DHJF	500	1	blank2r.bmp	880	1	krise	880	1	!	1232	1	!	1326	0	0	0	0	0	0
2024-05-16	11:34:55	11:45:50	654987	6.6.1	4_exp_EVA_AWA_CON	41	A	B	Rpleas_acq	Same	Rpleas	1pleas	acq_US_unple_nomask	acq45_nomask	5	28	400	1	300	300	0	0	448	46	1	0	kuss	träumen	genießen	vertrauen	gesittet	vergnügt	krise	töten	gemein	versagen	geizig	verbissen	sonnig	gütig	anregung	engagiert	besonnen	kreativ	sterben	gierig	ausrottung	engstirnig	bange	krank	1	blank2r.bmp	0	1	+	0	1	blank2r.bmp	500	1	DHJF	500	1	blank2r.bmp	880	6	verbissen	880	1	!	1232	1	!	1349	0	0	0	0	0	0
2024-05-16	11:34:55	11:45:52	657155	6.6.1	4_exp_EVA_AWA_CON	41	A	B	Rpleas_acq	Same	Rpleas	1pleas	acq_US_pleas_nomask	acq45_nomask	5	29	400	1	300	300	0	0	394	46	0	0	kuss	träumen	genießen	vertrauen	gesittet	vergnügt	krise	töten	gemein	versagen	geizig	verbissen	sonnig	gütig	anregung	engagiert	besonnen	kreativ	sterben	gierig	ausrottung	engstirnig	bange	krank	1	blank2r.bmp	0	1	+	0	1	blank2r.bmp	500	1	CPLW	500	1	blank2r.bmp	880	1	kuss	880	1	!	1232	1	!	1296	0	0	0	0	0	0
2024-05-16	11:34:55	11:45:54	659347	6.6.1	4_exp_EVA_AWA_CON	41	A	B	Rpleas_acq	Same	Rpleas	1pleas	acq_US_unple_nomask	acq45_nomask	5	30	400	1	300	300	0	0	415	46	1	0	kuss	träumen	genießen	vertrauen	gesittet	vergnügt	krise	töten	gemein	versagen	geizig	verbissen	sonnig	gütig	anregung	engagiert	besonnen	kreativ	sterben	gierig	ausrottung	engstirnig	bange	krank	1	blank2r.bmp	0	1	+	0	1	blank2r.bmp	500	1	DHJF	500	1	blank2r.bmp	880	4	versagen	880	1	!	1232	1	!	1316	0	0	0	0	0	0
2024-05-16	11:34:55	11:45:56	661499	6.6.1	4_exp_EVA_AWA_CON	41	A	B	Rpleas_acq	Same	Rpleas	1pleas	acq_US_unple_nomask	acq45_nomask	5	31	400	1	300	300	0	0	375	46	1	0	kuss	träumen	genießen	vertrauen	gesittet	vergnügt	krise	töten	gemein	versagen	geizig	verbissen	sonnig	gütig	anregung	engagiert	besonnen	kreativ	sterben	gierig	ausrottung	engstirnig	bange	krank	1	blank2r.bmp	0	1	+	0	1	blank2r.bmp	500	1	DHJF	500	1	blank2r.bmp	880	2	töten	880	1	!	1232	1	!	1277	0	0	0	0	0	0
2024-05-16	11:34:55	11:45:59	663731	6.6.1	4_exp_EVA_AWA_CON	41	A	B	Rpleas_acq	Same	Rpleas	1pleas	acq_US_pleas_nomask	acq45_nomask	5	32	400	1	300	300	0	0	456	50	1	0	kuss	träumen	genießen	vertrauen	gesittet	vergnügt	krise	töten	gemein	versagen	geizig	verbissen	sonnig	gütig	anregung	engagiert	besonnen	kreativ	sterben	gierig	ausrottung	engstirnig	bange	krank	1	blank2r.bmp	0	1	+	0	1	blank2r.bmp	500	1	CPLW	500	1	blank2r.bmp	880	4	vertrauen	880	1	!	1232	1	!	1357	0	0	0	0	0	0
2024-05-16	11:34:55	11:46:01	665940	6.6.1	4_exp_EVA_AWA_CON	41	A	B	Rpleas_acq	Same	Rpleas	1pleas	acq_US_pleas_nomask	acq45_nomask	5	33	400	1	300	300	0	0	433	50	1	0	kuss	träumen	genießen	vertrauen	gesittet	vergnügt	krise	töten	gemein	versagen	geizig	verbissen	sonnig	gütig	anregung	engagiert	besonnen	kreativ	sterben	gierig	ausrottung	engstirnig	bange	krank	1	blank2r.bmp	0	1	+	0	1	blank2r.bmp	500	1	CPLW	500	1	blank2r.bmp	880	3	genießen	880	1	!	1232	1	!	1334	0	0	0	0	0	0
2024-05-16	11:34:55	11:46:03	668083	6.6.1	4_exp_EVA_AWA_CON	41	A	B	Rpleas_acq	Same	Rpleas	1pleas	acq_US_unple_nomask	acq45_nomask	5	34	400	1	300	300	0	0	365	46	1	0	kuss	träumen	genießen	vertrauen	gesittet	vergnügt	krise	töten	gemein	versagen	geizig	verbissen	sonnig	gütig	anregung	engagiert	besonnen	kreativ	sterben	gierig	ausrottung	engstirnig	bange	krank	1	blank2r.bmp	0	1	+	0	1	blank2r.bmp	500	1	DHJF	500	1	blank2r.bmp	880	3	gemein	880	1	!	1232	1	!	1266	0	0	0	0	0	0
2024-05-16	11:34:55	11:46:05	670346	6.6.1	4_exp_EVA_AWA_CON	41	A	B	Rpleas_acq	Same	Rpleas	1pleas	acq_US_pleas_nomask	acq45_nomask	5	35	400	0	300	300	0	0	488	50	1	0	kuss	träumen	genießen	vertrauen	gesittet	vergnügt	krise	töten	gemein	versagen	geizig	verbissen	sonnig	gütig	anregung	engagiert	besonnen	kreativ	sterben	gierig	ausrottung	engstirnig	bange	krank	1	blank2r.bmp	0	1	+	0	1	blank2r.bmp	500	1	CPLW	500	1	blank2r.bmp	880	6	vergnügt	880	1	!	1233	1	!	-1	0	0	0	0	0	0
2024-05-16	11:34:55	11:46:08	672666	6.6.1	4_exp_EVA_AWA_CON	41	A	B	Rpleas_acq	Same	Rpleas	1pleas	acq_US_pleas_nomask	acq45_nomask	5	36	400	0	300	300	0	0	546	50	1	0	kuss	träumen	genießen	vertrauen	gesittet	vergnügt	krise	töten	gemein	versagen	geizig	verbissen	sonnig	gütig	anregung	engagiert	besonnen	kreativ	sterben	gierig	ausrottung	engstirnig	bange	krank	1	blank2r.bmp	0	1	+	0	1	blank2r.bmp	500	1	CPLW	500	1	blank2r.bmp	880	5	gesittet	880	1	!	1232	1	!	-1	0	0	0	0	0	0
2024-05-16	11:34:55	11:46:27	692110	6.6.1	4_exp_EVA_AWA_CON	41	A	B	Rpleas_acq	Same	Rpleas	1pleas	EvalRating_firsttwo	EvalRating_firsttwo	6	1	0	0	300	300	0	0	5322	line	0	-19,53125pct	kuss	träumen	genießen	vertrauen	gesittet	vergnügt	krise	töten	gemein	versagen	geizig	verbissen	sonnig	gütig	anregung	engagiert	besonnen	kreativ	sterben	gierig	ausrottung	engstirnig	bange	krank	1		-8	1	Wie angenehm oder unangenehm finden Sie die  Buchstabenkette WDLH?	-8	1		-8	1		-8	1		-8	1	Unangenehm	-8	1	Angenehm	-8	0	0	0	0	0	0	0	0	0
2024-05-16	11:34:55	11:46:33	697758	6.6.1	4_exp_EVA_AWA_CON	41	A	B	Rpleas_acq	Same	Rpleas	1pleas	EvalRating_lastfour	EvalRating_lastfour	7	1	0	0	300	300	0	0	3275	line	0	-30,859375pct	kuss	träumen	genießen	vertrauen	gesittet	vergnügt	krise	töten	gemein	versagen	geizig	verbissen	sonnig	gütig	anregung	engagiert	besonnen	kreativ	sterben	gierig	ausrottung	engstirnig	bange	krank	1		-8	1	Wie angenehm oder unangenehm finden Sie die  Buchstabenkette CPLW?	-8	1		-8	1		-8	1		-8	1	Unangenehm	-8	1	Angenehm	-8	0	0	0	0	0	0	0	0	0
2024-05-16	11:34:55	11:46:35	700129	6.6.1	4_exp_EVA_AWA_CON	41	A	B	Rpleas_acq	Same	Rpleas	1pleas	blank_screen	EvalRating_lastfour	7	3	0	0	300	300	0	0	0	0	0	-30,859375pct	kuss	träumen	genießen	vertrauen	gesittet	vergnügt	krise	töten	gemein	versagen	geizig	verbissen	sonnig	gütig	anregung	engagiert	besonnen	kreativ	sterben	gierig	ausrottung	engstirnig	bange	krank	1		-8	0	0	0	0	0	0	0	0	0	0	0	0	0	0	0	0	0	0	0	0	0	0	0	0	0	0	0
2024-05-16	11:34:55	11:46:38	703054	6.6.1	4_exp_EVA_AWA_CON	41	A	B	Rpleas_acq	Same	Rpleas	1pleas	EvalRating_lastfour	EvalRating_lastfour	7	4	0	0	300	300	0	0	2337	line	0	7,421875pct	kuss	träumen	genießen	vertrauen	gesittet	vergnügt	krise	töten	gemein	versagen	geizig	verbissen	sonnig	gütig	anregung	engagiert	besonnen	kreativ	sterben	gierig	ausrottung	engstirnig	bange	krank	1		-8	3	Wie angenehm oder unangenehm finden Sie die  Buchstabenkette FCJP?	-8	1		-8	1		-8	1		-8	1	Unangenehm	-8	1	Angenehm	-8	0	0	0	0	0	0	0	0	0
2024-05-16	11:34:55	11:46:40	705422	6.6.1	4_exp_EVA_AWA_CON	41	A	B	Rpleas_acq	Same	Rpleas	1pleas	blank_screen	EvalRating_lastfour	7	6	0	0	300	300	0	0	0	0	0	7,421875pct	kuss	träumen	genießen	vertrauen	gesittet	vergnügt	krise	töten	gemein	versagen	geizig	verbissen	sonnig	gütig	anregung	engagiert	besonnen	kreativ	sterben	gierig	ausrottung	engstirnig	bange	krank	1		-8	0	0	0	0	0	0	0	0	0	0	0	0	0	0	0	0	0	0	0	0	0	0	0	0	0	0	0
2024-05-16	11:34:55	11:46:46	711054	6.6.1	4_exp_EVA_AWA_CON	41	A	B	Rpleas_acq	Same	Rpleas	1pleas	EvalRating_lastfour	EvalRating_lastfour	7	7	0	0	300	300	0	0	5044	line	0	20,0520833333333428072pct	kuss	träumen	genießen	vertrauen	gesittet	vergnügt	krise	töten	gemein	versagen	geizig	verbissen	sonnig	gütig	anregung	engagiert	besonnen	kreativ	sterben	gierig	ausrottung	engstirnig	bange	krank	1		-8	2	Wie angenehm oder unangenehm finden Sie die  Buchstabenkette DHJF?	-8	1		-8	1		-8	1		-8	1	Unangenehm	-8	1	Angenehm	-8	0	0	0	0	0	0	0	0	0
2024-05-16	11:34:55	11:47:22	747538	6.6.1	4_exp_EVA_AWA_CON	41	A	B	Rpleas_acq	Same	Rpleas	1pleas	conawa_CS1_US4	conawa1_nomask	8	1	0	0	300	300	0	0	15056	vertrauen	1	20,0520833333333428072pct	kuss	träumen	genießen	vertrauen	gesittet	vergnügt	krise	töten	gemein	versagen	geizig	verbissen	sonnig	gütig	anregung	engagiert	besonnen	kreativ	sterben	gierig	ausrottung	engstirnig	bange	krank	0	0	0	0	0	0	0	0	0	0	0	0	0	0	0	0	0	0	0	0	0	0	0	0	0	0	0	0	0	0
2024-05-16	11:34:55	11:47:22	747539	6.6.1	4_exp_EVA_AWA_CON	41	A	B	Rpleas_acq	Same	Rpleas	1pleas	conawa_CS1_US4_confidence	conawa1_nomask	8	1	0	0	300	300	0	0	15056	probably	1	20,0520833333333428072pct	kuss	träumen	genießen	vertrauen	gesittet	vergnügt	krise	töten	gemein	versagen	geizig	verbissen	sonnig	gütig	anregung	engagiert	besonnen	kreativ	sterben	gierig	ausrottung	engstirnig	bange	krank	0	0	0	0	0	0	0	0	0	0	0	0	0	0	0	0	0	0	0	0	0	0	0	0	0	0	0	0	0	0
2024-05-16	11:34:55	11:47:31	755993	6.6.1	4_exp_EVA_AWA_CON	41	A	B	Rpleas_acq	Same	Rpleas	1pleas	conawa_CS1_US5	conawa1_nomask	8	2	0	0	300	300	0	0	7838	geizig	1	20,0520833333333428072pct	kuss	träumen	genießen	vertrauen	gesittet	vergnügt	krise	töten	gemein	versagen	geizig	verbissen	sonnig	gütig	anregung	engagiert	besonnen	kreativ	sterben	gierig	ausrottung	engstirnig	bange	krank	0	0	0	0	0	0	0	0	0	0	0	0	0	0	0	0	0	0	0	0	0	0	0	0	0	0	0	0	0	0
2024-05-16	11:34:55	11:47:31	755994	6.6.1	4_exp_EVA_AWA_CON	41	A	B	Rpleas_acq	Same	Rpleas	1pleas	conawa_CS1_US5_confidence	conawa1_nomask	8	2	0	0	300	300	0	0	7838	guess	1	20,0520833333333428072pct	kuss	träumen	genießen	vertrauen	gesittet	vergnügt	krise	töten	gemein	versagen	geizig	verbissen	sonnig	gütig	anregung	engagiert	besonnen	kreativ	sterben	gierig	ausrottung	engstirnig	bange	krank	0	0	0	0	0	0	0	0	0	0	0	0	0	0	0	0	0	0	0	0	0	0	0	0	0	0	0	0	0	0
2024-05-16	11:34:55	11:47:45	769932	6.6.1	4_exp_EVA_AWA_CON	41	A	B	Rpleas_acq	Same	Rpleas	1pleas	conawa_CS2_US4	conawa1_nomask	8	3	0	0	300	300	0	0	13325	versagen	1	20,0520833333333428072pct	kuss	träumen	genießen	vertrauen	gesittet	vergnügt	krise	töten	gemein	versagen	geizig	verbissen	sonnig	gütig	anregung	engagiert	besonnen	kreativ	sterben	gierig	ausrottung	engstirnig	bange	krank	0	0	0	0	0	0	0	0	0	0	0	0	0	0	0	0	0	0	0	0	0	0	0	0	0	0	0	0	0	0
2024-05-16	11:34:55	11:47:45	769933	6.6.1	4_exp_EVA_AWA_CON	41	A	B	Rpleas_acq	Same	Rpleas	1pleas	conawa_CS2_US4_confidence	conawa1_nomask	8	3	0	0	300	300	0	0	13325	sure	1	20,0520833333333428072pct	kuss	träumen	genießen	vertrauen	gesittet	vergnügt	krise	töten	gemein	versagen	geizig	verbissen	sonnig	gütig	anregung	engagiert	besonnen	kreativ	sterben	gierig	ausrottung	engstirnig	bange	krank	0	0	0	0	0	0	0	0	0	0	0	0	0	0	0	0	0	0	0	0	0	0	0	0	0	0	0	0	0	0
2024-05-16	11:34:55	11:47:52	777396	6.6.1	4_exp_EVA_AWA_CON	41	A	B	Rpleas_acq	Same	Rpleas	1pleas	conawa_CS2_US5	conawa1_nomask	8	4	0	0	300	300	0	0	6851	gesittet	1	20,0520833333333428072pct	kuss	träumen	genießen	vertrauen	gesittet	vergnügt	krise	töten	gemein	versagen	geizig	verbissen	sonnig	gütig	anregung	engagiert	besonnen	kreativ	sterben	gierig	ausrottung	engstirnig	bange	krank	0	0	0	0	0	0	0	0	0	0	0	0	0	0	0	0	0	0	0	0	0	0	0	0	0	0	0	0	0	0
2024-05-16	11:34:55	11:47:52	777398	6.6.1	4_exp_EVA_AWA_CON	41	A	B	Rpleas_acq	Same	Rpleas	1pleas	conawa_CS2_US5_confidence	conawa1_nomask	8	4	0	0	300	300	0	0	6851	sure	1	20,0520833333333428072pct	kuss	träumen	genießen	vertrauen	gesittet	vergnügt	krise	töten	gemein	versagen	geizig	verbissen	sonnig	gütig	anregung	engagiert	besonnen	kreativ	sterben	gierig	ausrottung	engstirnig	bange	krank	0	0	0	0	0	0	0	0	0	0	0	0	0	0	0	0	0	0	0	0	0	0	0	0	0	0	0	0	0	0
2024-05-16	11:34:55	11:48:00	784611	6.6.1	4_exp_EVA_AWA_CON	41	A	B	Rpleas_acq	Same	Rpleas	1pleas	conawa_CS1_US3	conawa1_nomask	8	5	0	0	300	300	0	0	6594	genießen	1	20,0520833333333428072pct	kuss	träumen	genießen	vertrauen	gesittet	vergnügt	krise	töten	gemein	versagen	geizig	verbissen	sonnig	gütig	anregung	engagiert	besonnen	kreativ	sterben	gierig	ausrottung	engstirnig	bange	krank	0	0	0	0	0	0	0	0	0	0	0	0	0	0	0	0	0	0	0	0	0	0	0	0	0	0	0	0	0	0
2024-05-16	11:34:55	11:48:00	784612	6.6.1	4_exp_EVA_AWA_CON	41	A	B	Rpleas_acq	Same	Rpleas	1pleas	conawa_CS1_US3_confidence	conawa1_nomask	8	5	0	0	300	300	0	0	6594	guess	1	20,0520833333333428072pct	kuss	träumen	genießen	vertrauen	gesittet	vergnügt	krise	töten	gemein	versagen	geizig	verbissen	sonnig	gütig	anregung	engagiert	besonnen	kreativ	sterben	gierig	ausrottung	engstirnig	bange	krank	0	0	0	0	0	0	0	0	0	0	0	0	0	0	0	0	0	0	0	0	0	0	0	0	0	0	0	0	0	0
2024-05-16	11:34:55	11:48:08	792877	6.6.1	4_exp_EVA_AWA_CON	41	A	B	Rpleas_acq	Same	Rpleas	1pleas	conawa_CS2_US2	conawa1_nomask	8	6	0	0	300	300	0	0	7651	träumen	1	20,0520833333333428072pct	kuss	träumen	genießen	vertrauen	gesittet	vergnügt	krise	töten	gemein	versagen	geizig	verbissen	sonnig	gütig	anregung	engagiert	besonnen	kreativ	sterben	gierig	ausrottung	engstirnig	bange	krank	0	0	0	0	0	0	0	0	0	0	0	0	0	0	0	0	0	0	0	0	0	0	0	0	0	0	0	0	0	0
2024-05-16	11:34:55	11:48:08	792877	6.6.1	4_exp_EVA_AWA_CON	41	A	B	Rpleas_acq	Same	Rpleas	1pleas	conawa_CS2_US2_confidence	conawa1_nomask	8	6	0	0	300	300	0	0	7651	probably	1	20,0520833333333428072pct	kuss	träumen	genießen	vertrauen	gesittet	vergnügt	krise	töten	gemein	versagen	geizig	verbissen	sonnig	gütig	anregung	engagiert	besonnen	kreativ	sterben	gierig	ausrottung	engstirnig	bange	krank	0	0	0	0	0	0	0	0	0	0	0	0	0	0	0	0	0	0	0	0	0	0	0	0	0	0	0	0	0	0
2024-05-16	11:34:55	11:48:18	803513	6.6.1	4_exp_EVA_AWA_CON	41	A	B	Rpleas_acq	Same	Rpleas	1pleas	conawa_CS2_US6	conawa1_nomask	8	7	0	0	300	300	0	0	10017	verbissen	1	20,0520833333333428072pct	kuss	träumen	genießen	vertrauen	gesittet	vergnügt	krise	töten	gemein	versagen	geizig	verbissen	sonnig	gütig	anregung	engagiert	besonnen	kreativ	sterben	gierig	ausrottung	engstirnig	bange	krank	0	0	0	0	0	0	0	0	0	0	0	0	0	0	0	0	0	0	0	0	0	0	0	0	0	0	0	0	0	0
2024-05-16	11:34:55	11:48:18	803514	6.6.1	4_exp_EVA_AWA_CON	41	A	B	Rpleas_acq	Same	Rpleas	1pleas	conawa_CS2_US6_confidence	conawa1_nomask	8	7	0	0	300	300	0	0	10017	sure	1	20,0520833333333428072pct	kuss	träumen	genießen	vertrauen	gesittet	vergnügt	krise	töten	gemein	versagen	geizig	verbissen	sonnig	gütig	anregung	engagiert	besonnen	kreativ	sterben	gierig	ausrottung	engstirnig	bange	krank	0	0	0	0	0	0	0	0	0	0	0	0	0	0	0	0	0	0	0	0	0	0	0	0	0	0	0	0	0	0
2024-05-16	11:34:55	11:48:24	808897	6.6.1	4_exp_EVA_AWA_CON	41	A	B	Rpleas_acq	Same	Rpleas	1pleas	conawa_CS1_US1	conawa1_nomask	8	8	0	0	300	300	0	0	4766	kuss	1	20,0520833333333428072pct	kuss	träumen	genießen	vertrauen	gesittet	vergnügt	krise	töten	gemein	versagen	geizig	verbissen	sonnig	gütig	anregung	engagiert	besonnen	kreativ	sterben	gierig	ausrottung	engstirnig	bange	krank	0	0	0	0	0	0	0	0	0	0	0	0	0	0	0	0	0	0	0	0	0	0	0	0	0	0	0	0	0	0
2024-05-16	11:34:55	11:48:24	808898	6.6.1	4_exp_EVA_AWA_CON	41	A	B	Rpleas_acq	Same	Rpleas	1pleas	conawa_CS1_US1_confidence	conawa1_nomask	8	8	0	0	300	300	0	0	4766	sure	1	20,0520833333333428072pct	kuss	träumen	genießen	vertrauen	gesittet	vergnügt	krise	töten	gemein	versagen	geizig	verbissen	sonnig	gütig	anregung	engagiert	besonnen	kreativ	sterben	gierig	ausrottung	engstirnig	bange	krank	0	0	0	0	0	0	0	0	0	0	0	0	0	0	0	0	0	0	0	0	0	0	0	0	0	0	0	0	0	0
2024-05-16	11:34:55	11:48:30	814691	6.6.1	4_exp_EVA_AWA_CON	41	A	B	Rpleas_acq	Same	Rpleas	1pleas	conawa_CS1_US6	conawa1_nomask	8	9	0	0	300	300	0	0	5174	kreativ	1	20,0520833333333428072pct	kuss	träumen	genießen	vertrauen	gesittet	vergnügt	krise	töten	gemein	versagen	geizig	verbissen	sonnig	gütig	anregung	engagiert	besonnen	kreativ	sterben	gierig	ausrottung	engstirnig	bange	krank	0	0	0	0	0	0	0	0	0	0	0	0	0	0	0	0	0	0	0	0	0	0	0	0	0	0	0	0	0	0
2024-05-16	11:34:55	11:48:30	814692	6.6.1	4_exp_EVA_AWA_CON	41	A	B	Rpleas_acq	Same	Rpleas	1pleas	conawa_CS1_US6_confidence	conawa1_nomask	8	9	0	0	300	300	0	0	5174	probably	1	20,0520833333333428072pct	kuss	träumen	genießen	vertrauen	gesittet	vergnügt	krise	töten	gemein	versagen	geizig	verbissen	sonnig	gütig	anregung	engagiert	besonnen	kreativ	sterben	gierig	ausrottung	engstirnig	bange	krank	0	0	0	0	0	0	0	0	0	0	0	0	0	0	0	0	0	0	0	0	0	0	0	0	0	0	0	0	0	0
2024-05-16	11:34:55	11:48:41	826418	6.6.1	4_exp_EVA_AWA_CON	41	A	B	Rpleas_acq	Same	Rpleas	1pleas	conawa_CS2_US3	conawa1_nomask	8	10	0	0	300	300	0	0	11111	gemein	1	20,0520833333333428072pct	kuss	träumen	genießen	vertrauen	gesittet	vergnügt	krise	töten	gemein	versagen	geizig	verbissen	sonnig	gütig	anregung	engagiert	besonnen	kreativ	sterben	gierig	ausrottung	engstirnig	bange	krank	0	0	0	0	0	0	0	0	0	0	0	0	0	0	0	0	0	0	0	0	0	0	0	0	0	0	0	0	0	0
2024-05-16	11:34:55	11:48:41	826419	6.6.1	4_exp_EVA_AWA_CON	41	A	B	Rpleas_acq	Same	Rpleas	1pleas	conawa_CS2_US3_confidence	conawa1_nomask	8	10	0	0	300	300	0	0	11111	sure	1	20,0520833333333428072pct	kuss	träumen	genießen	vertrauen	gesittet	vergnügt	krise	töten	gemein	versagen	geizig	verbissen	sonnig	gütig	anregung	engagiert	besonnen	kreativ	sterben	gierig	ausrottung	engstirnig	bange	krank	0	0	0	0	0	0	0	0	0	0	0	0	0	0	0	0	0	0	0	0	0	0	0	0	0	0	0	0	0	0
2024-05-16	11:34:55	11:48:47	831902	6.6.1	4_exp_EVA_AWA_CON	41	A	B	Rpleas_acq	Same	Rpleas	1pleas	conawa_CS2_US1	conawa1_nomask	8	11	0	0	300	300	0	0	4870	krise	1	20,0520833333333428072pct	kuss	träumen	genießen	vertrauen	gesittet	vergnügt	krise	töten	gemein	versagen	geizig	verbissen	sonnig	gütig	anregung	engagiert	besonnen	kreativ	sterben	gierig	ausrottung	engstirnig	bange	krank	0	0	0	0	0	0	0	0	0	0	0	0	0	0	0	0	0	0	0	0	0	0	0	0	0	0	0	0	0	0
2024-05-16	11:34:55	11:48:47	831903	6.6.1	4_exp_EVA_AWA_CON	41	A	B	Rpleas_acq	Same	Rpleas	1pleas	conawa_CS2_US1_confidence	conawa1_nomask	8	11	0	0	300	300	0	0	4870	probably	1	20,0520833333333428072pct	kuss	träumen	genießen	vertrauen	gesittet	vergnügt	krise	töten	gemein	versagen	geizig	verbissen	sonnig	gütig	anregung	engagiert	besonnen	kreativ	sterben	gierig	ausrottung	engstirnig	bange	krank	0	0	0	0	0	0	0	0	0	0	0	0	0	0	0	0	0	0	0	0	0	0	0	0	0	0	0	0	0	0
2024-05-16	11:34:55	11:48:53	837806	6.6.1	4_exp_EVA_AWA_CON	41	A	B	Rpleas_acq	Same	Rpleas	1pleas	conawa_CS1_US2	conawa1_nomask	8	12	0	0	300	300	0	0	5292	träumen	1	20,0520833333333428072pct	kuss	träumen	genießen	vertrauen	gesittet	vergnügt	krise	töten	gemein	versagen	geizig	verbissen	sonnig	gütig	anregung	engagiert	besonnen	kreativ	sterben	gierig	ausrottung	engstirnig	bange	krank	0	0	0	0	0	0	0	0	0	0	0	0	0	0	0	0	0	0	0	0	0	0	0	0	0	0	0	0	0	0
2024-05-16	11:34:55	11:48:53	837807	6.6.1	4_exp_EVA_AWA_CON	41	A	B	Rpleas_acq	Same	Rpleas	1pleas	conawa_CS1_US2_confidence	conawa1_nomask	8	12	0	0	300	300	0	0	5292	sure	1	20,0520833333333428072pct	kuss	träumen	genießen	vertrauen	gesittet	vergnügt	krise	töten	gemein	versagen	geizig	verbissen	sonnig	gütig	anregung	engagiert	besonnen	kreativ	sterben	gierig	ausrottung	engstirnig	bange	krank	0	0	0	0	0	0	0	0	0	0	0	0	0	0	0	0	0	0	0	0	0	0	0	0	0	0	0	0	0	0
2024-05-16	11:34:55	11:50:04	909146	6.6.1	4_exp_EVA_AWA_CON	41	A	B	Rpleas_acq	Same	Rpleas	1pleas	cond_US_unple_123_nomask_CS2	condtest_nomask_1	11	1	400	0	300	300	0	0	615	46	1	20,0520833333333428072pct	kuss	träumen	genießen	vertrauen	gesittet	vergnügt	krise	töten	gemein	versagen	geizig	verbissen	sonnig	gütig	anregung	engagiert	besonnen	kreativ	sterben	gierig	ausrottung	engstirnig	bange	krank	1	blank2r.bmp	0	1	+	0	1	blank2r.bmp	500	1	DHJF	500	1	blank2r.bmp	880	2	krise	880	1	!	1232	1	!	-1	0	0	0	0	0	0
