date	time	currenttime	elapsedtime	build	currentexpt	subject	CS_AB	US_AB	LRpleas_acq	SameOppo	condition_Lpleas	condition_1pleas	trialcode	blockcode	blocknum	trialnum	windowcenter	inwindow	pretrialpause	posttrialpause	trialduration	trialtimeout	latency	response	correct	correctedscore	US_nomask_pleas1	US_nomask_pleas2	US_nomask_pleas3	US_nomask_pleas4	US_nomask_pleas5	US_nomask_pleas6	US_nomask_unple1	US_nomask_unple2	US_nomask_unple3	US_nomask_unple4	US_nomask_unple5	US_nomask_unple6	new_nomask_pleas1	new_nomask_pleas2	new_nomask_pleas3	new_nomask_pleas4	new_nomask_pleas5	new_nomask_pleas6	new_nomask_unple1	new_nomask_unple2	new_nomask_unple3	new_nomask_unple4	new_nomask_unple5	new_nomask_unple6	stimulusnumber1	stimulusitem1	stimulusonset1	stimulusnumber2	stimulusitem2	stimulusonset2	stimulusnumber3	stimulusitem3	stimulusonset3	stimulusnumber4	stimulusitem4	stimulusonset4	stimulusnumber5	stimulusitem5	stimulusonset5	stimulusnumber6	stimulusitem6	stimulusonset6	stimulusnumber7	stimulusitem7	stimulusonset7	stimulusnumber8	stimulusitem8	stimulusonset8	stimulusnumber9	stimulusitem9	stimulusonset9	stimulusnumber10	stimulusitem10	stimulusonset10
2024-05-27	12:47:05	12:53:14	368246	6.6.1	4_exp_EVA_AWA_CON	52	B	A	Rpleas_acq	Oppo	Rpleas	2pleas	acq_new_unple_nomask	acq1_nomask	1	1	0	0	300	300	0	0	871	46	1	0	spielen	fair	freundlich	tolerant	schlau	schön	strafen	faul	fanatisch	tyrannisch	schroff	schlecht	ehrlich	helfen	loyal	lachen	treu	retten	eitel	hindern	lasch	leiden	tot	rächen	1	blank2r.bmp	0	1	+	0	1	blank2r.bmp	500	5	C1r.bmp	500	1	blank2r.bmp	880	5	tot	880	0	0	0	0	0	0	0	0	0	0	0	0
2024-05-27	12:47:05	12:53:16	370542	6.6.1	4_exp_EVA_AWA_CON	52	B	A	Rpleas_acq	Oppo	Rpleas	2pleas	acq_US_pleas_nomask	acq1_nomask	1	2	0	0	300	300	0	0	815	50	1	0	spielen	fair	freundlich	tolerant	schlau	schön	strafen	faul	fanatisch	tyrannisch	schroff	schlecht	ehrlich	helfen	loyal	lachen	treu	retten	eitel	hindern	lasch	leiden	tot	rächen	1	blank2r.bmp	0	1	+	0	1	blank2r.bmp	500	1	GKQX	500	1	blank2r.bmp	880	3	freundlich	880	0	0	0	0	0	0	0	0	0	0	0	0
2024-05-27	12:47:05	12:53:19	372710	6.6.1	4_exp_EVA_AWA_CON	52	B	A	Rpleas_acq	Oppo	Rpleas	2pleas	acq_new_pleas_nomask	acq1_nomask	1	3	0	0	300	300	0	0	682	50	1	0	spielen	fair	freundlich	tolerant	schlau	schön	strafen	faul	fanatisch	tyrannisch	schroff	schlecht	ehrlich	helfen	loyal	lachen	treu	retten	eitel	hindern	lasch	leiden	tot	rächen	1	blank2r.bmp	0	1	+	0	1	blank2r.bmp	500	6	C2r.bmp	500	1	blank2r.bmp	880	3	loyal	880	0	0	0	0	0	0	0	0	0	0	0	0
2024-05-27	12:47:05	12:53:21	374854	6.6.1	4_exp_EVA_AWA_CON	52	B	A	Rpleas_acq	Oppo	Rpleas	2pleas	acq_new_unple_nomask	acq1_nomask	1	4	0	0	300	300	0	0	654	46	1	0	spielen	fair	freundlich	tolerant	schlau	schön	strafen	faul	fanatisch	tyrannisch	schroff	schlecht	ehrlich	helfen	loyal	lachen	treu	retten	eitel	hindern	lasch	leiden	tot	rächen	1	blank2r.bmp	0	1	+	0	1	blank2r.bmp	500	2	B2r.bmp	500	1	blank2r.bmp	880	4	leiden	880	0	0	0	0	0	0	0	0	0	0	0	0
2024-05-27	12:47:05	12:53:23	377165	6.6.1	4_exp_EVA_AWA_CON	52	B	A	Rpleas_acq	Oppo	Rpleas	2pleas	acq_new_unple_nomask	acq1_nomask	1	5	0	0	300	300	0	0	825	46	1	0	spielen	fair	freundlich	tolerant	schlau	schön	strafen	faul	fanatisch	tyrannisch	schroff	schlecht	ehrlich	helfen	loyal	lachen	treu	retten	eitel	hindern	lasch	leiden	tot	rächen	1	blank2r.bmp	0	1	+	0	1	blank2r.bmp	500	8	C4r.bmp	500	1	blank2r.bmp	880	6	rächen	880	0	0	0	0	0	0	0	0	0	0	0	0
2024-05-27	12:47:05	12:53:25	379647	6.6.1	4_exp_EVA_AWA_CON	52	B	A	Rpleas_acq	Oppo	Rpleas	2pleas	acq_US_unple_nomask	acq1_nomask	1	6	0	0	300	300	0	0	794	50	0	0	spielen	fair	freundlich	tolerant	schlau	schön	strafen	faul	fanatisch	tyrannisch	schroff	schlecht	ehrlich	helfen	loyal	lachen	treu	retten	eitel	hindern	lasch	leiden	tot	rächen	1	blank2r.bmp	0	1	+	0	1	blank2r.bmp	500	1	BMVZ	500	1	blank2r.bmp	880	3	fanatisch	880	1	FEHLER	1695	0	0	0	0	0	0	0	0	0
2024-05-27	12:47:05	12:53:28	381845	6.6.1	4_exp_EVA_AWA_CON	52	B	A	Rpleas_acq	Oppo	Rpleas	2pleas	acq_new_pleas_nomask	acq1_nomask	1	7	0	0	300	300	0	0	912	50	1	0	spielen	fair	freundlich	tolerant	schlau	schön	strafen	faul	fanatisch	tyrannisch	schroff	schlecht	ehrlich	helfen	loyal	lachen	treu	retten	eitel	hindern	lasch	leiden	tot	rächen	1	blank2r.bmp	0	1	+	0	1	blank2r.bmp	500	1	B1r.bmp	500	1	blank2r.bmp	880	6	retten	880	0	0	0	0	0	0	0	0	0	0	0	0
2024-05-27	12:47:05	12:53:30	384077	6.6.1	4_exp_EVA_AWA_CON	52	B	A	Rpleas_acq	Oppo	Rpleas	2pleas	acq_new_pleas_nomask	acq1_nomask	1	8	0	0	300	300	0	0	752	50	1	0	spielen	fair	freundlich	tolerant	schlau	schön	strafen	faul	fanatisch	tyrannisch	schroff	schlecht	ehrlich	helfen	loyal	lachen	treu	retten	eitel	hindern	lasch	leiden	tot	rächen	1	blank2r.bmp	0	1	+	0	1	blank2r.bmp	500	3	B3r.bmp	500	1	blank2r.bmp	880	2	helfen	880	0	0	0	0	0	0	0	0	0	0	0	0
2024-05-27	12:47:05	12:53:32	386334	6.6.1	4_exp_EVA_AWA_CON	52	B	A	Rpleas_acq	Oppo	Rpleas	2pleas	acq_US_pleas_nomask	acq1_nomask	1	9	0	0	300	300	0	0	767	50	1	0	spielen	fair	freundlich	tolerant	schlau	schön	strafen	faul	fanatisch	tyrannisch	schroff	schlecht	ehrlich	helfen	loyal	lachen	treu	retten	eitel	hindern	lasch	leiden	tot	rächen	1	blank2r.bmp	2	1	+	2	1	blank2r.bmp	500	1	GKQX	500	1	blank2r.bmp	880	4	tolerant	880	0	0	0	0	0	0	0	0	0	0	0	0
2024-05-27	12:47:05	12:53:34	388598	6.6.1	4_exp_EVA_AWA_CON	52	B	A	Rpleas_acq	Oppo	Rpleas	2pleas	acq_US_unple_nomask	acq1_nomask	1	10	0	0	300	300	0	0	780	46	1	0	spielen	fair	freundlich	tolerant	schlau	schön	strafen	faul	fanatisch	tyrannisch	schroff	schlecht	ehrlich	helfen	loyal	lachen	treu	retten	eitel	hindern	lasch	leiden	tot	rächen	1	blank2r.bmp	0	1	+	0	1	blank2r.bmp	500	1	BMVZ	500	1	blank2r.bmp	880	4	tyrannisch	880	0	0	0	0	0	0	0	0	0	0	0	0
2024-05-27	12:47:05	12:53:37	390798	6.6.1	4_exp_EVA_AWA_CON	52	B	A	Rpleas_acq	Oppo	Rpleas	2pleas	acq_US_pleas_nomask	acq1_nomask	1	11	0	0	300	300	0	0	718	50	1	0	spielen	fair	freundlich	tolerant	schlau	schön	strafen	faul	fanatisch	tyrannisch	schroff	schlecht	ehrlich	helfen	loyal	lachen	treu	retten	eitel	hindern	lasch	leiden	tot	rächen	1	blank2r.bmp	0	1	+	0	1	blank2r.bmp	500	1	GKQX	500	1	blank2r.bmp	880	6	schön	880	0	0	0	0	0	0	0	0	0	0	0	0
2024-05-27	12:47:05	12:53:39	392925	6.6.1	4_exp_EVA_AWA_CON	52	B	A	Rpleas_acq	Oppo	Rpleas	2pleas	acq_US_unple_nomask	acq1_nomask	1	12	0	0	300	300	0	0	645	46	1	0	spielen	fair	freundlich	tolerant	schlau	schön	strafen	faul	fanatisch	tyrannisch	schroff	schlecht	ehrlich	helfen	loyal	lachen	treu	retten	eitel	hindern	lasch	leiden	tot	rächen	1	blank2r.bmp	0	1	+	0	1	blank2r.bmp	500	1	BMVZ	500	1	blank2r.bmp	880	2	faul	880	0	0	0	0	0	0	0	0	0	0	0	0
2024-05-27	12:47:05	12:53:41	395085	6.6.1	4_exp_EVA_AWA_CON	52	B	A	Rpleas_acq	Oppo	Rpleas	2pleas	acq_US_unple_nomask	acq1_nomask	1	13	0	0	300	300	0	0	673	46	1	0	spielen	fair	freundlich	tolerant	schlau	schön	strafen	faul	fanatisch	tyrannisch	schroff	schlecht	ehrlich	helfen	loyal	lachen	treu	retten	eitel	hindern	lasch	leiden	tot	rächen	1	blank2r.bmp	0	1	+	0	1	blank2r.bmp	500	1	BMVZ	500	1	blank2r.bmp	880	1	strafen	880	0	0	0	0	0	0	0	0	0	0	0	0
2024-05-27	12:47:05	12:53:43	397166	6.6.1	4_exp_EVA_AWA_CON	52	B	A	Rpleas_acq	Oppo	Rpleas	2pleas	acq_US_pleas_nomask	acq1_nomask	1	14	0	0	300	300	0	0	592	50	1	0	spielen	fair	freundlich	tolerant	schlau	schön	strafen	faul	fanatisch	tyrannisch	schroff	schlecht	ehrlich	helfen	loyal	lachen	treu	retten	eitel	hindern	lasch	leiden	tot	rächen	1	blank2r.bmp	0	1	+	0	1	blank2r.bmp	500	1	GKQX	500	1	blank2r.bmp	880	1	spielen	880	0	0	0	0	0	0	0	0	0	0	0	0
2024-05-27	12:47:05	12:53:45	399381	6.6.1	4_exp_EVA_AWA_CON	52	B	A	Rpleas_acq	Oppo	Rpleas	2pleas	acq_new_pleas_nomask	acq1_nomask	1	15	0	0	300	300	0	0	727	50	1	0	spielen	fair	freundlich	tolerant	schlau	schön	strafen	faul	fanatisch	tyrannisch	schroff	schlecht	ehrlich	helfen	loyal	lachen	treu	retten	eitel	hindern	lasch	leiden	tot	rächen	1	blank2r.bmp	0	1	+	0	1	blank2r.bmp	500	7	C3r.bmp	500	1	blank2r.bmp	880	4	lachen	880	0	0	0	0	0	0	0	0	0	0	0	0
2024-05-27	12:47:05	12:53:47	401646	6.6.1	4_exp_EVA_AWA_CON	52	B	A	Rpleas_acq	Oppo	Rpleas	2pleas	acq_new_unple_nomask	acq1_nomask	1	16	0	0	300	300	0	0	779	46	1	0	spielen	fair	freundlich	tolerant	schlau	schön	strafen	faul	fanatisch	tyrannisch	schroff	schlecht	ehrlich	helfen	loyal	lachen	treu	retten	eitel	hindern	lasch	leiden	tot	rächen	1	blank2r.bmp	0	1	+	0	1	blank2r.bmp	500	4	B4r.bmp	500	1	blank2r.bmp	880	2	hindern	880	0	0	0	0	0	0	0	0	0	0	0	0
2024-05-27	12:47:05	12:53:50	403765	6.6.1	4_exp_EVA_AWA_CON	52	B	A	Rpleas_acq	Oppo	Rpleas	2pleas	acq_US_pleas_nomask	acq1_nomask	1	17	0	0	300	300	0	0	638	50	1	0	spielen	fair	freundlich	tolerant	schlau	schön	strafen	faul	fanatisch	tyrannisch	schroff	schlecht	ehrlich	helfen	loyal	lachen	treu	retten	eitel	hindern	lasch	leiden	tot	rächen	1	blank2r.bmp	0	1	+	0	1	blank2r.bmp	500	1	GKQX	500	1	blank2r.bmp	880	5	schlau	880	0	0	0	0	0	0	0	0	0	0	0	0
2024-05-27	12:47:05	12:53:52	405910	6.6.1	4_exp_EVA_AWA_CON	52	B	A	Rpleas_acq	Oppo	Rpleas	2pleas	acq_new_pleas_nomask	acq1_nomask	1	18	0	0	300	300	0	0	660	50	1	0	spielen	fair	freundlich	tolerant	schlau	schön	strafen	faul	fanatisch	tyrannisch	schroff	schlecht	ehrlich	helfen	loyal	lachen	treu	retten	eitel	hindern	lasch	leiden	tot	rächen	1	blank2r.bmp	0	1	+	0	1	blank2r.bmp	500	6	C2r.bmp	500	1	blank2r.bmp	880	5	treu	880	0	0	0	0	0	0	0	0	0	0	0	0
2024-05-27	12:47:05	12:53:54	408038	6.6.1	4_exp_EVA_AWA_CON	52	B	A	Rpleas_acq	Oppo	Rpleas	2pleas	acq_new_pleas_nomask	acq1_nomask	1	19	0	0	300	300	0	0	647	50	1	0	spielen	fair	freundlich	tolerant	schlau	schön	strafen	faul	fanatisch	tyrannisch	schroff	schlecht	ehrlich	helfen	loyal	lachen	treu	retten	eitel	hindern	lasch	leiden	tot	rächen	1	blank2r.bmp	0	1	+	0	1	blank2r.bmp	500	5	C1r.bmp	500	1	blank2r.bmp	880	1	ehrlich	880	0	0	0	0	0	0	0	0	0	0	0	0
2024-05-27	12:47:05	12:53:56	410221	6.6.1	4_exp_EVA_AWA_CON	52	B	A	Rpleas_acq	Oppo	Rpleas	2pleas	acq_US_unple_nomask	acq1_nomask	1	20	0	0	300	300	0	0	699	46	1	0	spielen	fair	freundlich	tolerant	schlau	schön	strafen	faul	fanatisch	tyrannisch	schroff	schlecht	ehrlich	helfen	loyal	lachen	treu	retten	eitel	hindern	lasch	leiden	tot	rächen	1	blank2r.bmp	0	1	+	0	1	blank2r.bmp	500	1	BMVZ	500	1	blank2r.bmp	880	6	schlecht	880	0	0	0	0	0	0	0	0	0	0	0	0
2024-05-27	12:47:05	12:53:58	412318	6.6.1	4_exp_EVA_AWA_CON	52	B	A	Rpleas_acq	Oppo	Rpleas	2pleas	acq_new_unple_nomask	acq1_nomask	1	21	0	0	300	300	0	0	614	46	1	0	spielen	fair	freundlich	tolerant	schlau	schön	strafen	faul	fanatisch	tyrannisch	schroff	schlecht	ehrlich	helfen	loyal	lachen	treu	retten	eitel	hindern	lasch	leiden	tot	rächen	1	blank2r.bmp	0	1	+	0	1	blank2r.bmp	500	8	C4r.bmp	500	1	blank2r.bmp	880	1	eitel	880	0	0	0	0	0	0	0	0	0	0	0	0
2024-05-27	12:47:05	12:54:00	414438	6.6.1	4_exp_EVA_AWA_CON	52	B	A	Rpleas_acq	Oppo	Rpleas	2pleas	acq_US_unple_nomask	acq1_nomask	1	22	0	0	300	300	0	0	633	46	1	0	spielen	fair	freundlich	tolerant	schlau	schön	strafen	faul	fanatisch	tyrannisch	schroff	schlecht	ehrlich	helfen	loyal	lachen	treu	retten	eitel	hindern	lasch	leiden	tot	rächen	1	blank2r.bmp	0	1	+	0	1	blank2r.bmp	500	1	BMVZ	500	1	blank2r.bmp	880	5	schroff	880	0	0	0	0	0	0	0	0	0	0	0	0
2024-05-27	12:47:05	12:54:02	416574	6.6.1	4_exp_EVA_AWA_CON	52	B	A	Rpleas_acq	Oppo	Rpleas	2pleas	acq_US_pleas_nomask	acq1_nomask	1	23	0	0	300	300	0	0	647	50	1	0	spielen	fair	freundlich	tolerant	schlau	schön	strafen	faul	fanatisch	tyrannisch	schroff	schlecht	ehrlich	helfen	loyal	lachen	treu	retten	eitel	hindern	lasch	leiden	tot	rächen	1	blank2r.bmp	0	1	+	0	1	blank2r.bmp	500	1	GKQX	500	1	blank2r.bmp	880	2	fair	880	0	0	0	0	0	0	0	0	0	0	0	0
2024-05-27	12:47:05	12:54:05	418789	6.6.1	4_exp_EVA_AWA_CON	52	B	A	Rpleas_acq	Oppo	Rpleas	2pleas	acq_new_unple_nomask	acq1_nomask	1	24	0	0	300	300	0	0	732	46	1	0	spielen	fair	freundlich	tolerant	schlau	schön	strafen	faul	fanatisch	tyrannisch	schroff	schlecht	ehrlich	helfen	loyal	lachen	treu	retten	eitel	hindern	lasch	leiden	tot	rächen	1	blank2r.bmp	0	1	+	0	1	blank2r.bmp	500	2	B2r.bmp	500	1	blank2r.bmp	880	3	lasch	880	0	0	0	0	0	0	0	0	0	0	0	0
2024-05-27	12:47:05	12:54:07	420933	6.6.1	4_exp_EVA_AWA_CON	52	B	A	Rpleas_acq	Oppo	Rpleas	2pleas	acq_US_unple_nomask	acq1_nomask	1	25	0	0	300	300	0	0	665	46	1	0	spielen	fair	freundlich	tolerant	schlau	schön	strafen	faul	fanatisch	tyrannisch	schroff	schlecht	ehrlich	helfen	loyal	lachen	treu	retten	eitel	hindern	lasch	leiden	tot	rächen	1	blank2r.bmp	0	1	+	0	1	blank2r.bmp	500	1	BMVZ	500	1	blank2r.bmp	880	4	tyrannisch	880	0	0	0	0	0	0	0	0	0	0	0	0
2024-05-27	12:47:05	12:54:09	423062	6.6.1	4_exp_EVA_AWA_CON	52	B	A	Rpleas_acq	Oppo	Rpleas	2pleas	acq_new_pleas_nomask	acq1_nomask	1	26	0	0	300	300	0	0	641	50	1	0	spielen	fair	freundlich	tolerant	schlau	schön	strafen	faul	fanatisch	tyrannisch	schroff	schlecht	ehrlich	helfen	loyal	lachen	treu	retten	eitel	hindern	lasch	leiden	tot	rächen	1	blank2r.bmp	0	1	+	0	1	blank2r.bmp	500	7	C3r.bmp	500	1	blank2r.bmp	880	6	retten	880	0	0	0	0	0	0	0	0	0	0	0	0
2024-05-27	12:47:05	12:54:11	425238	6.6.1	4_exp_EVA_AWA_CON	52	B	A	Rpleas_acq	Oppo	Rpleas	2pleas	acq_new_pleas_nomask	acq1_nomask	1	27	0	0	300	300	0	0	686	50	1	0	spielen	fair	freundlich	tolerant	schlau	schön	strafen	faul	fanatisch	tyrannisch	schroff	schlecht	ehrlich	helfen	loyal	lachen	treu	retten	eitel	hindern	lasch	leiden	tot	rächen	1	blank2r.bmp	0	1	+	0	1	blank2r.bmp	500	1	B1r.bmp	500	1	blank2r.bmp	880	2	helfen	880	0	0	0	0	0	0	0	0	0	0	0	0
2024-05-27	12:47:05	12:54:13	427574	6.6.1	4_exp_EVA_AWA_CON	52	B	A	Rpleas_acq	Oppo	Rpleas	2pleas	acq_US_pleas_nomask	acq1_nomask	1	28	0	0	300	300	0	0	850	50	1	0	spielen	fair	freundlich	tolerant	schlau	schön	strafen	faul	fanatisch	tyrannisch	schroff	schlecht	ehrlich	helfen	loyal	lachen	treu	retten	eitel	hindern	lasch	leiden	tot	rächen	1	blank2r.bmp	0	1	+	0	1	blank2r.bmp	500	1	GKQX	500	1	blank2r.bmp	880	1	spielen	880	0	0	0	0	0	0	0	0	0	0	0	0
2024-05-27	12:47:05	12:54:16	429750	6.6.1	4_exp_EVA_AWA_CON	52	B	A	Rpleas_acq	Oppo	Rpleas	2pleas	acq_new_pleas_nomask	acq1_nomask	1	29	0	0	300	300	0	0	695	50	1	0	spielen	fair	freundlich	tolerant	schlau	schön	strafen	faul	fanatisch	tyrannisch	schroff	schlecht	ehrlich	helfen	loyal	lachen	treu	retten	eitel	hindern	lasch	leiden	tot	rächen	1	blank2r.bmp	0	1	+	0	1	blank2r.bmp	500	3	B3r.bmp	500	1	blank2r.bmp	880	5	treu	880	0	0	0	0	0	0	0	0	0	0	0	0
2024-05-27	12:47:05	12:54:18	431942	6.6.1	4_exp_EVA_AWA_CON	52	B	A	Rpleas_acq	Oppo	Rpleas	2pleas	acq_new_unple_nomask	acq1_nomask	1	30	0	0	300	300	0	0	705	46	1	0	spielen	fair	freundlich	tolerant	schlau	schön	strafen	faul	fanatisch	tyrannisch	schroff	schlecht	ehrlich	helfen	loyal	lachen	treu	retten	eitel	hindern	lasch	leiden	tot	rächen	1	blank2r.bmp	0	1	+	0	1	blank2r.bmp	500	4	B4r.bmp	500	1	blank2r.bmp	880	6	rächen	880	0	0	0	0	0	0	0	0	0	0	0	0
2024-05-27	12:47:05	12:54:20	434150	6.6.1	4_exp_EVA_AWA_CON	52	B	A	Rpleas_acq	Oppo	Rpleas	2pleas	acq_US_unple_nomask	acq1_nomask	1	31	0	0	300	300	0	0	722	46	1	0	spielen	fair	freundlich	tolerant	schlau	schön	strafen	faul	fanatisch	tyrannisch	schroff	schlecht	ehrlich	helfen	loyal	lachen	treu	retten	eitel	hindern	lasch	leiden	tot	rächen	1	blank2r.bmp	0	1	+	0	1	blank2r.bmp	500	1	BMVZ	500	1	blank2r.bmp	880	2	faul	880	0	0	0	0	0	0	0	0	0	0	0	0
2024-05-27	12:47:05	12:54:22	436325	6.6.1	4_exp_EVA_AWA_CON	52	B	A	Rpleas_acq	Oppo	Rpleas	2pleas	acq_US_pleas_nomask	acq1_nomask	1	32	0	0	300	300	0	0	686	50	1	0	spielen	fair	freundlich	tolerant	schlau	schön	strafen	faul	fanatisch	tyrannisch	schroff	schlecht	ehrlich	helfen	loyal	lachen	treu	retten	eitel	hindern	lasch	leiden	tot	rächen	1	blank2r.bmp	0	1	+	0	1	blank2r.bmp	500	1	GKQX	500	1	blank2r.bmp	880	3	freundlich	880	0	0	0	0	0	0	0	0	0	0	0	0
2024-05-27	12:47:05	12:54:25	438653	6.6.1	4_exp_EVA_AWA_CON	52	B	A	Rpleas_acq	Oppo	Rpleas	2pleas	acq_new_unple_nomask	acq1_nomask	1	33	0	0	300	300	0	0	843	46	1	0	spielen	fair	freundlich	tolerant	schlau	schön	strafen	faul	fanatisch	tyrannisch	schroff	schlecht	ehrlich	helfen	loyal	lachen	treu	retten	eitel	hindern	lasch	leiden	tot	rächen	1	blank2r.bmp	0	1	+	0	1	blank2r.bmp	500	8	C4r.bmp	500	1	blank2r.bmp	880	5	tot	880	0	0	0	0	0	0	0	0	0	0	0	0
2024-05-27	12:47:05	12:54:27	440806	6.6.1	4_exp_EVA_AWA_CON	52	B	A	Rpleas_acq	Oppo	Rpleas	2pleas	acq_US_pleas_nomask	acq1_nomask	1	34	0	0	300	300	0	0	664	50	1	0	spielen	fair	freundlich	tolerant	schlau	schön	strafen	faul	fanatisch	tyrannisch	schroff	schlecht	ehrlich	helfen	loyal	lachen	treu	retten	eitel	hindern	lasch	leiden	tot	rächen	1	blank2r.bmp	0	1	+	0	1	blank2r.bmp	500	1	GKQX	500	1	blank2r.bmp	880	2	fair	880	0	0	0	0	0	0	0	0	0	0	0	0
2024-05-27	12:47:05	12:54:29	442958	6.6.1	4_exp_EVA_AWA_CON	52	B	A	Rpleas_acq	Oppo	Rpleas	2pleas	acq_US_unple_nomask	acq1_nomask	1	35	0	0	300	300	0	0	664	46	1	0	spielen	fair	freundlich	tolerant	schlau	schön	strafen	faul	fanatisch	tyrannisch	schroff	schlecht	ehrlich	helfen	loyal	lachen	treu	retten	eitel	hindern	lasch	leiden	tot	rächen	1	blank2r.bmp	0	1	+	0	1	blank2r.bmp	500	1	BMVZ	500	1	blank2r.bmp	880	5	schroff	880	0	0	0	0	0	0	0	0	0	0	0	0
2024-05-27	12:47:05	12:54:31	445576	6.6.1	4_exp_EVA_AWA_CON	52	B	A	Rpleas_acq	Oppo	Rpleas	2pleas	acq_new_unple_nomask	acq1_nomask	1	36	0	0	300	300	0	0	929	50	0	0	spielen	fair	freundlich	tolerant	schlau	schön	strafen	faul	fanatisch	tyrannisch	schroff	schlecht	ehrlich	helfen	loyal	lachen	treu	retten	eitel	hindern	lasch	leiden	tot	rächen	1	blank2r.bmp	0	1	+	0	1	blank2r.bmp	500	3	B3r.bmp	500	1	blank2r.bmp	880	1	eitel	880	1	FEHLER	1830	0	0	0	0	0	0	0	0	0
2024-05-27	12:47:05	12:55:20	493744	6.6.1	4_exp_EVA_AWA_CON	52	B	A	Rpleas_acq	Oppo	Rpleas	2pleas	acq_new_unple_nomask	acq2_nomask	2	1	480	0	300	300	0	0	727	46	1	0	spielen	fair	freundlich	tolerant	schlau	schön	strafen	faul	fanatisch	tyrannisch	schroff	schlecht	ehrlich	helfen	loyal	lachen	treu	retten	eitel	hindern	lasch	leiden	tot	rächen	1	blank2r.bmp	0	1	+	0	1	blank2r.bmp	500	6	C2r.bmp	500	1	blank2r.bmp	880	4	leiden	880	1	!	1313	1	!	-1	0	0	0	0	0	0
2024-05-27	12:47:05	12:55:22	496296	6.6.1	4_exp_EVA_AWA_CON	52	B	A	Rpleas_acq	Oppo	Rpleas	2pleas	acq_US_pleas_nomask	acq2_nomask	2	2	480	0	300	300	0	0	778	50	1	0	spielen	fair	freundlich	tolerant	schlau	schön	strafen	faul	fanatisch	tyrannisch	schroff	schlecht	ehrlich	helfen	loyal	lachen	treu	retten	eitel	hindern	lasch	leiden	tot	rächen	1	blank2r.bmp	0	1	+	0	1	blank2r.bmp	500	1	GKQX	500	1	blank2r.bmp	880	6	schön	880	1	!	1313	1	!	-1	0	0	0	0	0	0
2024-05-27	12:47:05	12:55:25	498883	6.6.1	4_exp_EVA_AWA_CON	52	B	A	Rpleas_acq	Oppo	Rpleas	2pleas	acq_US_unple_nomask	acq2_nomask	2	3	480	0	300	300	0	0	610	50	0	0	spielen	fair	freundlich	tolerant	schlau	schön	strafen	faul	fanatisch	tyrannisch	schroff	schlecht	ehrlich	helfen	loyal	lachen	treu	retten	eitel	hindern	lasch	leiden	tot	rächen	1	blank2r.bmp	0	1	+	0	1	blank2r.bmp	500	1	BMVZ	500	1	blank2r.bmp	880	3	fanatisch	880	1	FEHLER	1804	1	!	1313	1	!	-1	0	0	0
2024-05-27	12:47:05	12:55:27	501040	6.6.1	4_exp_EVA_AWA_CON	52	B	A	Rpleas_acq	Oppo	Rpleas	2pleas	acq_US_pleas_nomask	acq2_nomask	2	4	480	0	300	300	0	0	578	50	1	0	spielen	fair	freundlich	tolerant	schlau	schön	strafen	faul	fanatisch	tyrannisch	schroff	schlecht	ehrlich	helfen	loyal	lachen	treu	retten	eitel	hindern	lasch	leiden	tot	rächen	1	blank2r.bmp	0	1	+	0	1	blank2r.bmp	500	1	GKQX	500	1	blank2r.bmp	880	5	schlau	880	1	!	1312	1	!	-1	0	0	0	0	0	0
2024-05-27	12:47:05	12:55:29	503354	6.6.1	4_exp_EVA_AWA_CON	52	B	A	Rpleas_acq	Oppo	Rpleas	2pleas	acq_new_unple_nomask	acq2_nomask	2	5	480	1	300	300	0	0	539	46	1	0	spielen	fair	freundlich	tolerant	schlau	schön	strafen	faul	fanatisch	tyrannisch	schroff	schlecht	ehrlich	helfen	loyal	lachen	treu	retten	eitel	hindern	lasch	leiden	tot	rächen	1	blank2r.bmp	0	1	+	0	1	blank2r.bmp	500	2	B2r.bmp	500	1	blank2r.bmp	880	2	hindern	880	1	!	1313	1	!	1440	0	0	0	0	0	0
2024-05-27	12:47:05	12:55:32	505776	6.6.1	4_exp_EVA_AWA_CON	52	B	A	Rpleas_acq	Oppo	Rpleas	2pleas	acq_new_unple_nomask	acq2_nomask	2	6	480	0	300	300	0	0	641	46	1	0	spielen	fair	freundlich	tolerant	schlau	schön	strafen	faul	fanatisch	tyrannisch	schroff	schlecht	ehrlich	helfen	loyal	lachen	treu	retten	eitel	hindern	lasch	leiden	tot	rächen	1	blank2r.bmp	0	1	+	0	1	blank2r.bmp	500	5	C1r.bmp	500	1	blank2r.bmp	880	3	lasch	880	1	!	1313	1	!	-1	0	0	0	0	0	0
2024-05-27	12:47:05	12:55:34	508220	6.6.1	4_exp_EVA_AWA_CON	52	B	A	Rpleas_acq	Oppo	Rpleas	2pleas	acq_US_unple_nomask	acq2_nomask	2	7	480	1	300	300	0	0	460	50	0	0	spielen	fair	freundlich	tolerant	schlau	schön	strafen	faul	fanatisch	tyrannisch	schroff	schlecht	ehrlich	helfen	loyal	lachen	treu	retten	eitel	hindern	lasch	leiden	tot	rächen	1	blank2r.bmp	0	1	+	0	1	blank2r.bmp	500	1	BMVZ	500	1	blank2r.bmp	880	1	strafen	880	1	FEHLER	1654	1	!	1313	1	!	1362	0	0	0
2024-05-27	12:47:05	12:55:36	510241	6.6.1	4_exp_EVA_AWA_CON	52	B	A	Rpleas_acq	Oppo	Rpleas	2pleas	acq_US_unple_nomask	acq2_nomask	2	8	480	1	300	300	0	0	442	46	1	0	spielen	fair	freundlich	tolerant	schlau	schön	strafen	faul	fanatisch	tyrannisch	schroff	schlecht	ehrlich	helfen	loyal	lachen	treu	retten	eitel	hindern	lasch	leiden	tot	rächen	1	blank2r.bmp	0	1	+	0	1	blank2r.bmp	500	1	BMVZ	500	1	blank2r.bmp	880	6	schlecht	880	1	!	1313	1	!	1344	0	0	0	0	0	0
2024-05-27	12:47:05	12:55:38	512583	6.6.1	4_exp_EVA_AWA_CON	52	B	A	Rpleas_acq	Oppo	Rpleas	2pleas	acq_new_pleas_nomask	acq2_nomask	2	9	480	0	300	300	0	0	565	50	1	0	spielen	fair	freundlich	tolerant	schlau	schön	strafen	faul	fanatisch	tyrannisch	schroff	schlecht	ehrlich	helfen	loyal	lachen	treu	retten	eitel	hindern	lasch	leiden	tot	rächen	1	blank2r.bmp	0	1	+	0	1	blank2r.bmp	500	4	B4r.bmp	500	1	blank2r.bmp	880	3	loyal	880	1	!	1313	1	!	-1	0	0	0	0	0	0
2024-05-27	12:47:05	12:55:41	514889	6.6.1	4_exp_EVA_AWA_CON	52	B	A	Rpleas_acq	Oppo	Rpleas	2pleas	acq_US_pleas_nomask	acq2_nomask	2	10	480	1	300	300	0	0	527	50	1	0	spielen	fair	freundlich	tolerant	schlau	schön	strafen	faul	fanatisch	tyrannisch	schroff	schlecht	ehrlich	helfen	loyal	lachen	treu	retten	eitel	hindern	lasch	leiden	tot	rächen	1	blank2r.bmp	0	1	+	0	1	blank2r.bmp	500	1	GKQX	500	1	blank2r.bmp	880	4	tolerant	880	1	!	1313	1	!	1428	0	0	0	0	0	0
2024-05-27	12:47:05	12:55:43	517348	6.6.1	4_exp_EVA_AWA_CON	52	B	A	Rpleas_acq	Oppo	Rpleas	2pleas	acq_new_pleas_nomask	acq2_nomask	2	11	480	1	300	300	0	0	482	46	0	0	spielen	fair	freundlich	tolerant	schlau	schön	strafen	faul	fanatisch	tyrannisch	schroff	schlecht	ehrlich	helfen	loyal	lachen	treu	retten	eitel	hindern	lasch	leiden	tot	rächen	1	blank2r.bmp	0	1	+	0	1	blank2r.bmp	500	7	C3r.bmp	500	1	blank2r.bmp	880	4	lachen	880	1	FEHLER	1676	1	!	1313	1	!	1383	0	0	0
2024-05-27	12:47:05	12:55:45	519418	6.6.1	4_exp_EVA_AWA_CON	52	B	A	Rpleas_acq	Oppo	Rpleas	2pleas	acq_new_pleas_nomask	acq2_nomask	2	12	480	1	300	300	0	0	493	50	1	0	spielen	fair	freundlich	tolerant	schlau	schön	strafen	faul	fanatisch	tyrannisch	schroff	schlecht	ehrlich	helfen	loyal	lachen	treu	retten	eitel	hindern	lasch	leiden	tot	rächen	1	blank2r.bmp	0	1	+	0	1	blank2r.bmp	500	1	B1r.bmp	500	1	blank2r.bmp	880	1	ehrlich	880	1	!	1313	1	!	1394	0	0	0	0	0	0
2024-05-27	12:47:05	12:55:48	521698	6.6.1	4_exp_EVA_AWA_CON	52	B	A	Rpleas_acq	Oppo	Rpleas	2pleas	acq_US_pleas_nomask	acq2_nomask	2	13	480	1	300	300	0	0	501	50	1	0	spielen	fair	freundlich	tolerant	schlau	schön	strafen	faul	fanatisch	tyrannisch	schroff	schlecht	ehrlich	helfen	loyal	lachen	treu	retten	eitel	hindern	lasch	leiden	tot	rächen	1	blank2r.bmp	0	1	+	0	1	blank2r.bmp	500	1	GKQX	500	1	blank2r.bmp	880	3	freundlich	880	1	!	1312	1	!	1403	0	0	0	0	0	0
2024-05-27	12:47:05	12:55:50	523913	6.6.1	4_exp_EVA_AWA_CON	52	B	A	Rpleas_acq	Oppo	Rpleas	2pleas	acq_new_unple_nomask	acq2_nomask	2	14	480	1	300	300	0	0	436	46	1	0	spielen	fair	freundlich	tolerant	schlau	schön	strafen	faul	fanatisch	tyrannisch	schroff	schlecht	ehrlich	helfen	loyal	lachen	treu	retten	eitel	hindern	lasch	leiden	tot	rächen	1	blank2r.bmp	0	1	+	0	1	blank2r.bmp	500	6	C2r.bmp	500	1	blank2r.bmp	880	2	hindern	880	1	!	1313	1	!	1337	0	0	0	0	0	0
2024-05-27	12:47:05	12:55:52	526193	6.6.1	4_exp_EVA_AWA_CON	52	B	A	Rpleas_acq	Oppo	Rpleas	2pleas	acq_US_pleas_nomask	acq2_nomask	2	15	480	1	300	300	0	0	504	50	1	0	spielen	fair	freundlich	tolerant	schlau	schön	strafen	faul	fanatisch	tyrannisch	schroff	schlecht	ehrlich	helfen	loyal	lachen	treu	retten	eitel	hindern	lasch	leiden	tot	rächen	1	blank2r.bmp	0	1	+	0	1	blank2r.bmp	500	1	GKQX	500	1	blank2r.bmp	880	6	schön	880	1	!	1313	1	!	1405	0	0	0	0	0	0
2024-05-27	12:47:05	12:55:54	528450	6.6.1	4_exp_EVA_AWA_CON	52	B	A	Rpleas_acq	Oppo	Rpleas	2pleas	acq_new_pleas_nomask	acq2_nomask	2	16	480	1	300	300	0	0	479	50	1	0	spielen	fair	freundlich	tolerant	schlau	schön	strafen	faul	fanatisch	tyrannisch	schroff	schlecht	ehrlich	helfen	loyal	lachen	treu	retten	eitel	hindern	lasch	leiden	tot	rächen	1	blank2r.bmp	0	1	+	0	1	blank2r.bmp	500	3	B3r.bmp	500	1	blank2r.bmp	880	4	lachen	880	1	!	1313	1	!	1380	0	0	0	0	0	0
2024-05-27	12:47:05	12:55:57	530754	6.6.1	4_exp_EVA_AWA_CON	52	B	A	Rpleas_acq	Oppo	Rpleas	2pleas	acq_US_pleas_nomask	acq2_nomask	2	17	480	1	300	300	0	0	521	50	1	0	spielen	fair	freundlich	tolerant	schlau	schön	strafen	faul	fanatisch	tyrannisch	schroff	schlecht	ehrlich	helfen	loyal	lachen	treu	retten	eitel	hindern	lasch	leiden	tot	rächen	1	blank2r.bmp	0	1	+	0	1	blank2r.bmp	500	1	GKQX	500	1	blank2r.bmp	880	5	schlau	880	1	!	1313	1	!	1423	0	0	0	0	0	0
2024-05-27	12:47:05	12:55:59	533081	6.6.1	4_exp_EVA_AWA_CON	52	B	A	Rpleas_acq	Oppo	Rpleas	2pleas	acq_new_unple_nomask	acq2_nomask	2	18	480	1	300	300	0	0	548	46	1	0	spielen	fair	freundlich	tolerant	schlau	schön	strafen	faul	fanatisch	tyrannisch	schroff	schlecht	ehrlich	helfen	loyal	lachen	treu	retten	eitel	hindern	lasch	leiden	tot	rächen	1	blank2r.bmp	0	1	+	0	1	blank2r.bmp	500	2	B2r.bmp	500	1	blank2r.bmp	880	4	leiden	880	1	!	1312	1	!	1449	0	0	0	0	0	0
2024-05-27	12:47:05	12:56:01	535354	6.6.1	4_exp_EVA_AWA_CON	52	B	A	Rpleas_acq	Oppo	Rpleas	2pleas	acq_US_unple_nomask	acq2_nomask	2	19	480	1	300	300	0	0	498	46	1	0	spielen	fair	freundlich	tolerant	schlau	schön	strafen	faul	fanatisch	tyrannisch	schroff	schlecht	ehrlich	helfen	loyal	lachen	treu	retten	eitel	hindern	lasch	leiden	tot	rächen	1	blank2r.bmp	0	1	+	0	1	blank2r.bmp	500	1	BMVZ	500	1	blank2r.bmp	880	3	fanatisch	880	1	!	1313	1	!	1399	0	0	0	0	0	0
2024-05-27	12:47:05	12:56:04	537708	6.6.1	4_exp_EVA_AWA_CON	52	B	A	Rpleas_acq	Oppo	Rpleas	2pleas	acq_US_unple_nomask	acq2_nomask	2	20	480	0	300	300	0	0	369	50	0	0	spielen	fair	freundlich	tolerant	schlau	schön	strafen	faul	fanatisch	tyrannisch	schroff	schlecht	ehrlich	helfen	loyal	lachen	treu	retten	eitel	hindern	lasch	leiden	tot	rächen	1	blank2r.bmp	0	1	+	0	1	blank2r.bmp	500	1	BMVZ	500	1	blank2r.bmp	880	1	strafen	880	1	FEHLER	1563	1	!	-1	1	!	-1	0	0	0
2024-05-27	12:47:05	12:56:06	539856	6.6.1	4_exp_EVA_AWA_CON	52	B	A	Rpleas_acq	Oppo	Rpleas	2pleas	acq_new_unple_nomask	acq2_nomask	2	21	480	0	300	300	0	0	579	46	1	0	spielen	fair	freundlich	tolerant	schlau	schön	strafen	faul	fanatisch	tyrannisch	schroff	schlecht	ehrlich	helfen	loyal	lachen	treu	retten	eitel	hindern	lasch	leiden	tot	rächen	1	blank2r.bmp	0	1	+	0	1	blank2r.bmp	500	1	B1r.bmp	500	1	blank2r.bmp	880	3	lasch	880	1	!	1312	1	!	-1	0	0	0	0	0	0
2024-05-27	12:47:05	12:56:08	542347	6.6.1	4_exp_EVA_AWA_CON	52	B	A	Rpleas_acq	Oppo	Rpleas	2pleas	acq_US_unple_nomask	acq2_nomask	2	22	480	1	300	300	0	0	506	50	0	0	spielen	fair	freundlich	tolerant	schlau	schön	strafen	faul	fanatisch	tyrannisch	schroff	schlecht	ehrlich	helfen	loyal	lachen	treu	retten	eitel	hindern	lasch	leiden	tot	rächen	1	blank2r.bmp	0	1	+	0	1	blank2r.bmp	500	1	BMVZ	500	1	blank2r.bmp	880	4	tyrannisch	880	1	FEHLER	1699	1	!	1312	1	!	1407	0	0	0
2024-05-27	12:47:05	12:56:10	544471	6.6.1	4_exp_EVA_AWA_CON	52	B	A	Rpleas_acq	Oppo	Rpleas	2pleas	acq_new_pleas_nomask	acq2_nomask	2	23	480	0	300	300	0	0	553	50	1	0	spielen	fair	freundlich	tolerant	schlau	schön	strafen	faul	fanatisch	tyrannisch	schroff	schlecht	ehrlich	helfen	loyal	lachen	treu	retten	eitel	hindern	lasch	leiden	tot	rächen	1	blank2r.bmp	0	1	+	0	1	blank2r.bmp	500	7	C3r.bmp	500	1	blank2r.bmp	880	6	retten	880	1	!	1313	1	!	-1	0	0	0	0	0	0
2024-05-27	12:47:05	12:56:13	546816	6.6.1	4_exp_EVA_AWA_CON	52	B	A	Rpleas_acq	Oppo	Rpleas	2pleas	acq_new_pleas_nomask	acq2_nomask	2	24	480	0	300	300	0	0	565	50	1	0	spielen	fair	freundlich	tolerant	schlau	schön	strafen	faul	fanatisch	tyrannisch	schroff	schlecht	ehrlich	helfen	loyal	lachen	treu	retten	eitel	hindern	lasch	leiden	tot	rächen	1	blank2r.bmp	0	1	+	0	1	blank2r.bmp	500	8	C4r.bmp	500	1	blank2r.bmp	880	2	helfen	880	1	!	1313	1	!	-1	0	0	0	0	0	0
2024-05-27	12:47:05	12:56:15	549250	6.6.1	4_exp_EVA_AWA_CON	52	B	A	Rpleas_acq	Oppo	Rpleas	2pleas	acq_US_pleas_nomask	acq2_nomask	2	25	480	1	300	300	0	0	455	46	0	0	spielen	fair	freundlich	tolerant	schlau	schön	strafen	faul	fanatisch	tyrannisch	schroff	schlecht	ehrlich	helfen	loyal	lachen	treu	retten	eitel	hindern	lasch	leiden	tot	rächen	1	blank2r.bmp	0	1	+	0	1	blank2r.bmp	500	1	GKQX	500	1	blank2r.bmp	880	2	fair	880	1	FEHLER	1648	1	!	1313	1	!	1356	0	0	0
2024-05-27	12:47:05	12:56:17	551313	6.6.1	4_exp_EVA_AWA_CON	52	B	A	Rpleas_acq	Oppo	Rpleas	2pleas	acq_new_pleas_nomask	acq2_nomask	2	26	480	1	300	300	0	0	488	50	1	0	spielen	fair	freundlich	tolerant	schlau	schön	strafen	faul	fanatisch	tyrannisch	schroff	schlecht	ehrlich	helfen	loyal	lachen	treu	retten	eitel	hindern	lasch	leiden	tot	rächen	1	blank2r.bmp	0	1	+	0	1	blank2r.bmp	500	5	C1r.bmp	500	1	blank2r.bmp	880	1	ehrlich	880	1	!	1312	1	!	1389	0	0	0	0	0	0
2024-05-27	12:47:05	12:56:19	553618	6.6.1	4_exp_EVA_AWA_CON	52	B	A	Rpleas_acq	Oppo	Rpleas	2pleas	acq_new_pleas_nomask	acq2_nomask	2	27	480	1	300	300	0	0	530	50	1	0	spielen	fair	freundlich	tolerant	schlau	schön	strafen	faul	fanatisch	tyrannisch	schroff	schlecht	ehrlich	helfen	loyal	lachen	treu	retten	eitel	hindern	lasch	leiden	tot	rächen	1	blank2r.bmp	0	1	+	0	1	blank2r.bmp	500	4	B4r.bmp	500	1	blank2r.bmp	880	3	loyal	880	1	!	1313	1	!	1432	0	0	0	0	0	0
2024-05-27	12:47:05	12:56:22	555881	6.6.1	4_exp_EVA_AWA_CON	52	B	A	Rpleas_acq	Oppo	Rpleas	2pleas	acq_US_unple_nomask	acq2_nomask	2	28	480	1	300	300	0	0	483	46	1	0	spielen	fair	freundlich	tolerant	schlau	schön	strafen	faul	fanatisch	tyrannisch	schroff	schlecht	ehrlich	helfen	loyal	lachen	treu	retten	eitel	hindern	lasch	leiden	tot	rächen	1	blank2r.bmp	0	1	+	0	1	blank2r.bmp	500	1	BMVZ	500	1	blank2r.bmp	880	2	faul	880	1	!	1313	1	!	1384	0	0	0	0	0	0
2024-05-27	12:47:05	12:56:24	558411	6.6.1	4_exp_EVA_AWA_CON	52	B	A	Rpleas_acq	Oppo	Rpleas	2pleas	acq_new_unple_nomask	acq2_nomask	2	29	480	1	300	300	0	0	549	50	0	0	spielen	fair	freundlich	tolerant	schlau	schön	strafen	faul	fanatisch	tyrannisch	schroff	schlecht	ehrlich	helfen	loyal	lachen	treu	retten	eitel	hindern	lasch	leiden	tot	rächen	1	blank2r.bmp	0	1	+	0	1	blank2r.bmp	500	4	B4r.bmp	500	1	blank2r.bmp	880	6	rächen	880	1	FEHLER	1743	1	!	1313	1	!	1450	0	0	0
2024-05-27	12:47:05	12:56:26	560560	6.6.1	4_exp_EVA_AWA_CON	52	B	A	Rpleas_acq	Oppo	Rpleas	2pleas	acq_new_unple_nomask	acq2_nomask	2	30	480	0	300	300	0	0	570	46	1	0	spielen	fair	freundlich	tolerant	schlau	schön	strafen	faul	fanatisch	tyrannisch	schroff	schlecht	ehrlich	helfen	loyal	lachen	treu	retten	eitel	hindern	lasch	leiden	tot	rächen	1	blank2r.bmp	0	1	+	0	1	blank2r.bmp	500	2	B2r.bmp	500	1	blank2r.bmp	880	1	eitel	880	1	!	1312	1	!	-1	0	0	0	0	0	0
2024-05-27	12:47:05	12:56:29	562960	6.6.1	4_exp_EVA_AWA_CON	52	B	A	Rpleas_acq	Oppo	Rpleas	2pleas	acq_US_unple_nomask	acq2_nomask	2	31	480	0	300	300	0	0	618	46	1	0	spielen	fair	freundlich	tolerant	schlau	schön	strafen	faul	fanatisch	tyrannisch	schroff	schlecht	ehrlich	helfen	loyal	lachen	treu	retten	eitel	hindern	lasch	leiden	tot	rächen	1	blank2r.bmp	0	1	+	0	1	blank2r.bmp	500	1	BMVZ	500	1	blank2r.bmp	880	6	schlecht	880	1	!	1313	1	!	-1	0	0	0	0	0	0
2024-05-27	12:47:05	12:56:31	565419	6.6.1	4_exp_EVA_AWA_CON	52	B	A	Rpleas_acq	Oppo	Rpleas	2pleas	acq_new_pleas_nomask	acq2_nomask	2	32	480	1	300	300	0	0	483	46	0	0	spielen	fair	freundlich	tolerant	schlau	schön	strafen	faul	fanatisch	tyrannisch	schroff	schlecht	ehrlich	helfen	loyal	lachen	treu	retten	eitel	hindern	lasch	leiden	tot	rächen	1	blank2r.bmp	0	1	+	0	1	blank2r.bmp	500	8	C4r.bmp	500	1	blank2r.bmp	880	5	treu	880	1	FEHLER	1676	1	!	1313	1	!	1384	0	0	0
2024-05-27	12:47:05	12:56:33	567368	6.6.1	4_exp_EVA_AWA_CON	52	B	A	Rpleas_acq	Oppo	Rpleas	2pleas	acq_US_pleas_nomask	acq2_nomask	2	33	480	0	300	300	0	0	373	50	1	0	spielen	fair	freundlich	tolerant	schlau	schön	strafen	faul	fanatisch	tyrannisch	schroff	schlecht	ehrlich	helfen	loyal	lachen	treu	retten	eitel	hindern	lasch	leiden	tot	rächen	1	blank2r.bmp	0	1	+	0	1	blank2r.bmp	500	1	GKQX	500	1	blank2r.bmp	880	1	spielen	880	1	!	-1	1	!	-1	0	0	0	0	0	0
2024-05-27	12:47:05	12:56:36	569673	6.6.1	4_exp_EVA_AWA_CON	52	B	A	Rpleas_acq	Oppo	Rpleas	2pleas	acq_US_unple_nomask	acq2_nomask	2	34	480	1	300	300	0	0	526	46	1	0	spielen	fair	freundlich	tolerant	schlau	schön	strafen	faul	fanatisch	tyrannisch	schroff	schlecht	ehrlich	helfen	loyal	lachen	treu	retten	eitel	hindern	lasch	leiden	tot	rächen	1	blank2r.bmp	0	1	+	0	1	blank2r.bmp	500	1	BMVZ	500	1	blank2r.bmp	880	5	schroff	880	1	!	1313	1	!	1427	0	0	0	0	0	0
2024-05-27	12:47:05	12:56:38	572179	6.6.1	4_exp_EVA_AWA_CON	52	B	A	Rpleas_acq	Oppo	Rpleas	2pleas	acq_new_unple_nomask	acq2_nomask	2	35	480	1	300	300	0	0	528	50	0	0	spielen	fair	freundlich	tolerant	schlau	schön	strafen	faul	fanatisch	tyrannisch	schroff	schlecht	ehrlich	helfen	loyal	lachen	treu	retten	eitel	hindern	lasch	leiden	tot	rächen	1	blank2r.bmp	0	1	+	0	1	blank2r.bmp	500	6	C2r.bmp	500	1	blank2r.bmp	880	5	tot	880	1	FEHLER	1722	1	!	1313	1	!	1429	0	0	0
2024-05-27	12:47:05	12:56:40	574368	6.6.1	4_exp_EVA_AWA_CON	52	B	A	Rpleas_acq	Oppo	Rpleas	2pleas	acq_US_pleas_nomask	acq2_nomask	2	36	480	0	300	300	0	0	609	50	1	0	spielen	fair	freundlich	tolerant	schlau	schön	strafen	faul	fanatisch	tyrannisch	schroff	schlecht	ehrlich	helfen	loyal	lachen	treu	retten	eitel	hindern	lasch	leiden	tot	rächen	1	blank2r.bmp	0	1	+	0	1	blank2r.bmp	500	1	GKQX	500	1	blank2r.bmp	880	4	tolerant	880	1	!	1313	1	!	-1	0	0	0	0	0	0
2024-05-27	12:47:05	12:57:10	603921	6.6.1	4_exp_EVA_AWA_CON	52	B	A	Rpleas_acq	Oppo	Rpleas	2pleas	acq_US_unple_nomask	acq3_nomask	3	1	453	1	300	300	0	0	482	46	1	0	spielen	fair	freundlich	tolerant	schlau	schön	strafen	faul	fanatisch	tyrannisch	schroff	schlecht	ehrlich	helfen	loyal	lachen	treu	retten	eitel	hindern	lasch	leiden	tot	rächen	1	blank2r.bmp	0	1	+	0	1	blank2r.bmp	500	1	BMVZ	500	1	blank2r.bmp	880	5	schroff	880	1	!	1293	1	!	1383	0	0	0	0	0	0
2024-05-27	12:47:05	12:57:12	606384	6.6.1	4_exp_EVA_AWA_CON	52	B	A	Rpleas_acq	Oppo	Rpleas	2pleas	acq_US_pleas_nomask	acq3_nomask	3	2	453	0	300	300	0	0	684	50	1	0	spielen	fair	freundlich	tolerant	schlau	schön	strafen	faul	fanatisch	tyrannisch	schroff	schlecht	ehrlich	helfen	loyal	lachen	treu	retten	eitel	hindern	lasch	leiden	tot	rächen	1	blank2r.bmp	0	1	+	0	1	blank2r.bmp	500	1	GKQX	500	1	blank2r.bmp	880	4	tolerant	880	1	!	1293	1	!	-1	0	0	0	0	0	0
2024-05-27	12:47:05	12:57:15	608923	6.6.1	4_exp_EVA_AWA_CON	52	B	A	Rpleas_acq	Oppo	Rpleas	2pleas	acq_US_pleas_nomask	acq3_nomask	3	3	453	0	300	300	0	0	558	46	0	0	spielen	fair	freundlich	tolerant	schlau	schön	strafen	faul	fanatisch	tyrannisch	schroff	schlecht	ehrlich	helfen	loyal	lachen	treu	retten	eitel	hindern	lasch	leiden	tot	rächen	1	blank2r.bmp	0	1	+	0	1	blank2r.bmp	500	1	GKQX	500	1	blank2r.bmp	880	2	fair	880	1	FEHLER	1752	1	!	1292	1	!	-1	0	0	0
2024-05-27	12:47:05	12:57:17	611203	6.6.1	4_exp_EVA_AWA_CON	52	B	A	Rpleas_acq	Oppo	Rpleas	2pleas	acq_US_unple_nomask	acq3_nomask	3	4	453	1	300	300	0	0	507	50	0	0	spielen	fair	freundlich	tolerant	schlau	schön	strafen	faul	fanatisch	tyrannisch	schroff	schlecht	ehrlich	helfen	loyal	lachen	treu	retten	eitel	hindern	lasch	leiden	tot	rächen	1	blank2r.bmp	0	1	+	0	1	blank2r.bmp	500	1	BMVZ	500	1	blank2r.bmp	880	3	fanatisch	880	1	FEHLER	1700	1	!	1293	1	!	1408	0	0	0
2024-05-27	12:47:05	12:57:19	613602	6.6.1	4_exp_EVA_AWA_CON	52	B	A	Rpleas_acq	Oppo	Rpleas	2pleas	acq_US_pleas_nomask	acq3_nomask	3	5	453	0	300	300	0	0	625	46	0	0	spielen	fair	freundlich	tolerant	schlau	schön	strafen	faul	fanatisch	tyrannisch	schroff	schlecht	ehrlich	helfen	loyal	lachen	treu	retten	eitel	hindern	lasch	leiden	tot	rächen	1	blank2r.bmp	0	1	+	0	1	blank2r.bmp	500	1	GKQX	500	1	blank2r.bmp	880	1	spielen	880	1	FEHLER	1818	1	!	1293	1	!	-1	0	0	0
2024-05-27	12:47:05	12:57:22	615971	6.6.1	4_exp_EVA_AWA_CON	52	B	A	Rpleas_acq	Oppo	Rpleas	2pleas	acq_US_unple_nomask	acq3_nomask	3	6	453	0	300	300	0	0	592	50	0	0	spielen	fair	freundlich	tolerant	schlau	schön	strafen	faul	fanatisch	tyrannisch	schroff	schlecht	ehrlich	helfen	loyal	lachen	treu	retten	eitel	hindern	lasch	leiden	tot	rächen	1	blank2r.bmp	0	1	+	0	1	blank2r.bmp	500	1	BMVZ	500	1	blank2r.bmp	880	4	tyrannisch	880	1	FEHLER	1785	1	!	1293	1	!	-1	0	0	0
2024-05-27	12:47:05	12:57:24	618273	6.6.1	4_exp_EVA_AWA_CON	52	B	A	Rpleas_acq	Oppo	Rpleas	2pleas	acq_US_pleas_nomask	acq3_nomask	3	7	453	0	300	300	0	0	524	46	0	0	spielen	fair	freundlich	tolerant	schlau	schön	strafen	faul	fanatisch	tyrannisch	schroff	schlecht	ehrlich	helfen	loyal	lachen	treu	retten	eitel	hindern	lasch	leiden	tot	rächen	1	blank2r.bmp	0	1	+	0	1	blank2r.bmp	500	1	GKQX	500	1	blank2r.bmp	880	6	schön	880	1	FEHLER	1716	1	!	1293	1	!	-1	0	0	0
2024-05-27	12:47:05	12:57:26	620282	6.6.1	4_exp_EVA_AWA_CON	52	B	A	Rpleas_acq	Oppo	Rpleas	2pleas	acq_US_pleas_nomask	acq3_nomask	3	8	453	1	300	300	0	0	431	50	1	0	spielen	fair	freundlich	tolerant	schlau	schön	strafen	faul	fanatisch	tyrannisch	schroff	schlecht	ehrlich	helfen	loyal	lachen	treu	retten	eitel	hindern	lasch	leiden	tot	rächen	1	blank2r.bmp	0	1	+	0	1	blank2r.bmp	500	1	GKQX	500	1	blank2r.bmp	880	3	freundlich	880	1	!	1293	1	!	1332	0	0	0	0	0	0
2024-05-27	12:47:05	12:57:29	622715	6.6.1	4_exp_EVA_AWA_CON	52	B	A	Rpleas_acq	Oppo	Rpleas	2pleas	acq_US_unple_nomask	acq3_nomask	3	9	453	1	300	300	0	0	451	50	0	0	spielen	fair	freundlich	tolerant	schlau	schön	strafen	faul	fanatisch	tyrannisch	schroff	schlecht	ehrlich	helfen	loyal	lachen	treu	retten	eitel	hindern	lasch	leiden	tot	rächen	1	blank2r.bmp	0	1	+	0	1	blank2r.bmp	500	1	BMVZ	500	1	blank2r.bmp	880	2	faul	880	1	FEHLER	1645	1	!	1293	1	!	1353	0	0	0
2024-05-27	12:47:05	12:57:31	624848	6.6.1	4_exp_EVA_AWA_CON	52	B	A	Rpleas_acq	Oppo	Rpleas	2pleas	acq_US_unple_nomask	acq3_nomask	3	10	453	0	300	300	0	0	556	46	1	0	spielen	fair	freundlich	tolerant	schlau	schön	strafen	faul	fanatisch	tyrannisch	schroff	schlecht	ehrlich	helfen	loyal	lachen	treu	retten	eitel	hindern	lasch	leiden	tot	rächen	1	blank2r.bmp	0	1	+	0	1	blank2r.bmp	500	1	BMVZ	500	1	blank2r.bmp	880	1	strafen	880	1	!	1293	1	!	-1	0	0	0	0	0	0
2024-05-27	12:47:05	12:57:33	627240	6.6.1	4_exp_EVA_AWA_CON	52	B	A	Rpleas_acq	Oppo	Rpleas	2pleas	acq_US_pleas_nomask	acq3_nomask	3	11	453	0	300	300	0	0	616	50	1	0	spielen	fair	freundlich	tolerant	schlau	schön	strafen	faul	fanatisch	tyrannisch	schroff	schlecht	ehrlich	helfen	loyal	lachen	treu	retten	eitel	hindern	lasch	leiden	tot	rächen	1	blank2r.bmp	0	1	+	0	1	blank2r.bmp	500	1	GKQX	500	1	blank2r.bmp	880	5	schlau	880	1	!	1293	1	!	-1	0	0	0	0	0	0
2024-05-27	12:47:05	12:57:36	629688	6.6.1	4_exp_EVA_AWA_CON	52	B	A	Rpleas_acq	Oppo	Rpleas	2pleas	acq_US_unple_nomask	acq3_nomask	3	12	453	0	300	300	0	0	673	46	1	0	spielen	fair	freundlich	tolerant	schlau	schön	strafen	faul	fanatisch	tyrannisch	schroff	schlecht	ehrlich	helfen	loyal	lachen	treu	retten	eitel	hindern	lasch	leiden	tot	rächen	1	blank2r.bmp	0	1	+	0	1	blank2r.bmp	500	1	BMVZ	500	1	blank2r.bmp	880	6	schlecht	880	1	!	1293	1	!	-1	0	0	0	0	0	0
2024-05-27	12:47:05	12:57:38	631986	6.6.1	4_exp_EVA_AWA_CON	52	B	A	Rpleas_acq	Oppo	Rpleas	2pleas	acq_US_pleas_nomask	acq3_nomask	3	13	453	1	300	300	0	0	517	50	1	0	spielen	fair	freundlich	tolerant	schlau	schön	strafen	faul	fanatisch	tyrannisch	schroff	schlecht	ehrlich	helfen	loyal	lachen	treu	retten	eitel	hindern	lasch	leiden	tot	rächen	1	blank2r.bmp	0	1	+	0	1	blank2r.bmp	500	1	GKQX	500	1	blank2r.bmp	880	3	freundlich	880	1	!	1293	1	!	1419	0	0	0	0	0	0
2024-05-27	12:47:05	12:57:40	634129	6.6.1	4_exp_EVA_AWA_CON	52	B	A	Rpleas_acq	Oppo	Rpleas	2pleas	acq_US_unple_nomask	acq3_nomask	3	14	453	0	300	300	0	0	370	46	1	0	spielen	fair	freundlich	tolerant	schlau	schön	strafen	faul	fanatisch	tyrannisch	schroff	schlecht	ehrlich	helfen	loyal	lachen	treu	retten	eitel	hindern	lasch	leiden	tot	rächen	1	blank2r.bmp	0	1	+	0	1	blank2r.bmp	500	1	BMVZ	500	1	blank2r.bmp	880	6	schlecht	880	1	!	-1	1	!	-1	0	0	0	0	0	0
2024-05-27	12:47:05	12:57:43	636672	6.6.1	4_exp_EVA_AWA_CON	52	B	A	Rpleas_acq	Oppo	Rpleas	2pleas	acq_US_unple_nomask	acq3_nomask	3	15	453	0	300	300	0	0	762	46	1	0	spielen	fair	freundlich	tolerant	schlau	schön	strafen	faul	fanatisch	tyrannisch	schroff	schlecht	ehrlich	helfen	loyal	lachen	treu	retten	eitel	hindern	lasch	leiden	tot	rächen	1	blank2r.bmp	0	1	+	0	1	blank2r.bmp	500	1	BMVZ	500	1	blank2r.bmp	880	1	strafen	880	1	!	1292	1	!	-1	0	0	0	0	0	0
2024-05-27	12:47:05	12:57:45	638905	6.6.1	4_exp_EVA_AWA_CON	52	B	A	Rpleas_acq	Oppo	Rpleas	2pleas	acq_US_pleas_nomask	acq3_nomask	3	16	453	1	300	300	0	0	453	50	1	0	spielen	fair	freundlich	tolerant	schlau	schön	strafen	faul	fanatisch	tyrannisch	schroff	schlecht	ehrlich	helfen	loyal	lachen	treu	retten	eitel	hindern	lasch	leiden	tot	rächen	1	blank2r.bmp	0	1	+	0	1	blank2r.bmp	500	1	GKQX	500	1	blank2r.bmp	880	6	schön	880	1	!	1293	1	!	1354	0	0	0	0	0	0
2024-05-27	12:47:05	12:57:47	641296	6.6.1	4_exp_EVA_AWA_CON	52	B	A	Rpleas_acq	Oppo	Rpleas	2pleas	acq_US_pleas_nomask	acq3_nomask	3	17	453	0	300	300	0	0	613	50	1	0	spielen	fair	freundlich	tolerant	schlau	schön	strafen	faul	fanatisch	tyrannisch	schroff	schlecht	ehrlich	helfen	loyal	lachen	treu	retten	eitel	hindern	lasch	leiden	tot	rächen	1	blank2r.bmp	0	1	+	0	1	blank2r.bmp	500	1	GKQX	500	1	blank2r.bmp	880	5	schlau	880	1	!	1292	1	!	-1	0	0	0	0	0	0
2024-05-27	12:47:05	12:57:49	643562	6.6.1	4_exp_EVA_AWA_CON	52	B	A	Rpleas_acq	Oppo	Rpleas	2pleas	acq_US_unple_nomask	acq3_nomask	3	18	453	1	300	300	0	0	486	46	1	0	spielen	fair	freundlich	tolerant	schlau	schön	strafen	faul	fanatisch	tyrannisch	schroff	schlecht	ehrlich	helfen	loyal	lachen	treu	retten	eitel	hindern	lasch	leiden	tot	rächen	1	blank2r.bmp	0	1	+	0	1	blank2r.bmp	500	1	BMVZ	500	1	blank2r.bmp	880	2	faul	880	1	!	1293	1	!	1387	0	0	0	0	0	0
2024-05-27	12:47:05	12:57:52	645920	6.6.1	4_exp_EVA_AWA_CON	52	B	A	Rpleas_acq	Oppo	Rpleas	2pleas	acq_US_pleas_nomask	acq3_nomask	3	19	453	0	300	300	0	0	584	50	1	0	spielen	fair	freundlich	tolerant	schlau	schön	strafen	faul	fanatisch	tyrannisch	schroff	schlecht	ehrlich	helfen	loyal	lachen	treu	retten	eitel	hindern	lasch	leiden	tot	rächen	1	blank2r.bmp	0	1	+	0	1	blank2r.bmp	500	1	GKQX	500	1	blank2r.bmp	880	1	spielen	880	1	!	1292	1	!	-1	0	0	0	0	0	0
2024-05-27	12:47:05	12:57:54	648154	6.6.1	4_exp_EVA_AWA_CON	52	B	A	Rpleas_acq	Oppo	Rpleas	2pleas	acq_US_pleas_nomask	acq3_nomask	3	20	453	1	300	300	0	0	455	50	1	0	spielen	fair	freundlich	tolerant	schlau	schön	strafen	faul	fanatisch	tyrannisch	schroff	schlecht	ehrlich	helfen	loyal	lachen	treu	retten	eitel	hindern	lasch	leiden	tot	rächen	1	blank2r.bmp	0	1	+	0	1	blank2r.bmp	500	1	GKQX	500	1	blank2r.bmp	880	2	fair	880	1	!	1293	1	!	1356	0	0	0	0	0	0
2024-05-27	12:47:05	12:57:56	650544	6.6.1	4_exp_EVA_AWA_CON	52	B	A	Rpleas_acq	Oppo	Rpleas	2pleas	acq_US_pleas_nomask	acq3_nomask	3	21	453	0	300	300	0	0	615	50	1	0	spielen	fair	freundlich	tolerant	schlau	schön	strafen	faul	fanatisch	tyrannisch	schroff	schlecht	ehrlich	helfen	loyal	lachen	treu	retten	eitel	hindern	lasch	leiden	tot	rächen	1	blank2r.bmp	0	1	+	0	1	blank2r.bmp	500	1	GKQX	500	1	blank2r.bmp	880	4	tolerant	880	1	!	1292	1	!	-1	0	0	0	0	0	0
2024-05-27	12:47:05	12:57:59	652920	6.6.1	4_exp_EVA_AWA_CON	52	B	A	Rpleas_acq	Oppo	Rpleas	2pleas	acq_US_unple_nomask	acq3_nomask	3	22	453	0	300	300	0	0	600	46	1	0	spielen	fair	freundlich	tolerant	schlau	schön	strafen	faul	fanatisch	tyrannisch	schroff	schlecht	ehrlich	helfen	loyal	lachen	treu	retten	eitel	hindern	lasch	leiden	tot	rächen	1	blank2r.bmp	0	1	+	0	1	blank2r.bmp	500	1	BMVZ	500	1	blank2r.bmp	880	5	schroff	880	1	!	1293	1	!	-1	0	0	0	0	0	0
2024-05-27	12:47:05	12:58:01	655378	6.6.1	4_exp_EVA_AWA_CON	52	B	A	Rpleas_acq	Oppo	Rpleas	2pleas	acq_US_unple_nomask	acq3_nomask	3	23	453	1	300	300	0	0	474	50	0	0	spielen	fair	freundlich	tolerant	schlau	schön	strafen	faul	fanatisch	tyrannisch	schroff	schlecht	ehrlich	helfen	loyal	lachen	treu	retten	eitel	hindern	lasch	leiden	tot	rächen	1	blank2r.bmp	0	1	+	0	1	blank2r.bmp	500	1	BMVZ	500	1	blank2r.bmp	880	3	fanatisch	880	1	FEHLER	1667	1	!	1293	1	!	1375	0	0	0
2024-05-27	12:47:05	12:58:04	657681	6.6.1	4_exp_EVA_AWA_CON	52	B	A	Rpleas_acq	Oppo	Rpleas	2pleas	acq_US_unple_nomask	acq3_nomask	3	24	453	0	300	300	0	0	527	50	0	0	spielen	fair	freundlich	tolerant	schlau	schön	strafen	faul	fanatisch	tyrannisch	schroff	schlecht	ehrlich	helfen	loyal	lachen	treu	retten	eitel	hindern	lasch	leiden	tot	rächen	1	blank2r.bmp	0	1	+	0	1	blank2r.bmp	500	1	BMVZ	500	1	blank2r.bmp	880	4	tyrannisch	880	1	FEHLER	1718	1	!	1293	1	!	-1	0	0	0
2024-05-27	12:47:05	12:58:06	660067	6.6.1	4_exp_EVA_AWA_CON	52	B	A	Rpleas_acq	Oppo	Rpleas	2pleas	acq_US_pleas_nomask	acq3_nomask	3	25	453	0	300	300	0	0	609	46	0	0	spielen	fair	freundlich	tolerant	schlau	schön	strafen	faul	fanatisch	tyrannisch	schroff	schlecht	ehrlich	helfen	loyal	lachen	treu	retten	eitel	hindern	lasch	leiden	tot	rächen	1	blank2r.bmp	0	1	+	0	1	blank2r.bmp	500	1	GKQX	500	1	blank2r.bmp	880	4	tolerant	880	1	FEHLER	1803	1	!	1292	1	!	-1	0	0	0
2024-05-27	12:47:05	12:58:08	662074	6.6.1	4_exp_EVA_AWA_CON	52	B	A	Rpleas_acq	Oppo	Rpleas	2pleas	acq_US_pleas_nomask	acq3_nomask	3	26	453	1	300	300	0	0	436	50	1	0	spielen	fair	freundlich	tolerant	schlau	schön	strafen	faul	fanatisch	tyrannisch	schroff	schlecht	ehrlich	helfen	loyal	lachen	treu	retten	eitel	hindern	lasch	leiden	tot	rächen	1	blank2r.bmp	0	1	+	0	1	blank2r.bmp	500	1	GKQX	500	1	blank2r.bmp	880	3	freundlich	880	1	!	1293	1	!	1337	0	0	0	0	0	0
2024-05-27	12:47:05	12:58:10	664305	6.6.1	4_exp_EVA_AWA_CON	52	B	A	Rpleas_acq	Oppo	Rpleas	2pleas	acq_US_unple_nomask	acq3_nomask	3	27	453	1	300	300	0	0	456	46	1	0	spielen	fair	freundlich	tolerant	schlau	schön	strafen	faul	fanatisch	tyrannisch	schroff	schlecht	ehrlich	helfen	loyal	lachen	treu	retten	eitel	hindern	lasch	leiden	tot	rächen	1	blank2r.bmp	0	1	+	0	1	blank2r.bmp	500	1	BMVZ	500	1	blank2r.bmp	880	2	faul	880	1	!	1292	1	!	1357	0	0	0	0	0	0
2024-05-27	12:47:05	12:58:13	666744	6.6.1	4_exp_EVA_AWA_CON	52	B	A	Rpleas_acq	Oppo	Rpleas	2pleas	acq_US_unple_nomask	acq3_nomask	3	28	453	0	300	300	0	0	665	46	1	0	spielen	fair	freundlich	tolerant	schlau	schön	strafen	faul	fanatisch	tyrannisch	schroff	schlecht	ehrlich	helfen	loyal	lachen	treu	retten	eitel	hindern	lasch	leiden	tot	rächen	1	blank2r.bmp	0	1	+	0	1	blank2r.bmp	500	1	BMVZ	500	1	blank2r.bmp	880	3	fanatisch	880	1	!	1293	1	!	-1	0	0	0	0	0	0
2024-05-27	12:47:05	12:58:15	669203	6.6.1	4_exp_EVA_AWA_CON	52	B	A	Rpleas_acq	Oppo	Rpleas	2pleas	acq_US_unple_nomask	acq3_nomask	3	29	453	1	300	300	0	0	479	50	0	0	spielen	fair	freundlich	tolerant	schlau	schön	strafen	faul	fanatisch	tyrannisch	schroff	schlecht	ehrlich	helfen	loyal	lachen	treu	retten	eitel	hindern	lasch	leiden	tot	rächen	1	blank2r.bmp	0	1	+	0	1	blank2r.bmp	500	1	BMVZ	500	1	blank2r.bmp	880	1	strafen	880	1	FEHLER	1673	1	!	1292	1	!	1381	0	0	0
2024-05-27	12:47:05	12:58:17	671258	6.6.1	4_exp_EVA_AWA_CON	52	B	A	Rpleas_acq	Oppo	Rpleas	2pleas	acq_US_pleas_nomask	acq3_nomask	3	30	453	1	300	300	0	0	474	50	1	0	spielen	fair	freundlich	tolerant	schlau	schön	strafen	faul	fanatisch	tyrannisch	schroff	schlecht	ehrlich	helfen	loyal	lachen	treu	retten	eitel	hindern	lasch	leiden	tot	rächen	1	blank2r.bmp	0	1	+	0	1	blank2r.bmp	500	1	GKQX	500	1	blank2r.bmp	880	2	fair	880	1	!	1292	1	!	1375	0	0	0	0	0	0
2024-05-27	12:47:05	12:58:20	673779	6.6.1	4_exp_EVA_AWA_CON	52	B	A	Rpleas_acq	Oppo	Rpleas	2pleas	acq_US_pleas_nomask	acq3_nomask	3	31	453	0	300	300	0	0	542	46	0	0	spielen	fair	freundlich	tolerant	schlau	schön	strafen	faul	fanatisch	tyrannisch	schroff	schlecht	ehrlich	helfen	loyal	lachen	treu	retten	eitel	hindern	lasch	leiden	tot	rächen	1	blank2r.bmp	0	1	+	0	1	blank2r.bmp	500	1	GKQX	500	1	blank2r.bmp	880	6	schön	880	1	FEHLER	1736	1	!	1293	1	!	-1	0	0	0
2024-05-27	12:47:05	12:58:22	675896	6.6.1	4_exp_EVA_AWA_CON	52	B	A	Rpleas_acq	Oppo	Rpleas	2pleas	acq_US_unple_nomask	acq3_nomask	3	32	453	0	300	300	0	0	541	46	1	0	spielen	fair	freundlich	tolerant	schlau	schön	strafen	faul	fanatisch	tyrannisch	schroff	schlecht	ehrlich	helfen	loyal	lachen	treu	retten	eitel	hindern	lasch	leiden	tot	rächen	1	blank2r.bmp	0	1	+	0	1	blank2r.bmp	500	1	BMVZ	500	1	blank2r.bmp	880	5	schroff	880	1	!	1293	1	!	-1	0	0	0	0	0	0
2024-05-27	12:47:05	12:58:24	678194	6.6.1	4_exp_EVA_AWA_CON	52	B	A	Rpleas_acq	Oppo	Rpleas	2pleas	acq_US_pleas_nomask	acq3_nomask	3	33	453	1	300	300	0	0	515	50	1	0	spielen	fair	freundlich	tolerant	schlau	schön	strafen	faul	fanatisch	tyrannisch	schroff	schlecht	ehrlich	helfen	loyal	lachen	treu	retten	eitel	hindern	lasch	leiden	tot	rächen	1	blank2r.bmp	0	1	+	0	1	blank2r.bmp	500	1	GKQX	500	1	blank2r.bmp	880	1	spielen	880	1	!	1293	1	!	1417	0	0	0	0	0	0
2024-05-27	12:47:05	12:58:27	680712	6.6.1	4_exp_EVA_AWA_CON	52	B	A	Rpleas_acq	Oppo	Rpleas	2pleas	acq_US_pleas_nomask	acq3_nomask	3	34	453	0	300	300	0	0	744	50	1	0	spielen	fair	freundlich	tolerant	schlau	schön	strafen	faul	fanatisch	tyrannisch	schroff	schlecht	ehrlich	helfen	loyal	lachen	treu	retten	eitel	hindern	lasch	leiden	tot	rächen	1	blank2r.bmp	0	1	+	0	1	blank2r.bmp	500	1	GKQX	500	1	blank2r.bmp	880	5	schlau	880	1	!	1293	1	!	-1	0	0	0	0	0	0
2024-05-27	12:47:05	12:58:29	683080	6.6.1	4_exp_EVA_AWA_CON	52	B	A	Rpleas_acq	Oppo	Rpleas	2pleas	acq_US_unple_nomask	acq3_nomask	3	35	453	0	300	300	0	0	590	46	1	0	spielen	fair	freundlich	tolerant	schlau	schön	strafen	faul	fanatisch	tyrannisch	schroff	schlecht	ehrlich	helfen	loyal	lachen	treu	retten	eitel	hindern	lasch	leiden	tot	rächen	1	blank2r.bmp	0	1	+	0	1	blank2r.bmp	500	1	BMVZ	500	1	blank2r.bmp	880	6	schlecht	880	1	!	1292	1	!	-1	0	0	0	0	0	0
2024-05-27	12:47:05	12:58:31	685594	6.6.1	4_exp_EVA_AWA_CON	52	B	A	Rpleas_acq	Oppo	Rpleas	2pleas	acq_US_unple_nomask	acq3_nomask	3	36	453	0	300	300	0	0	531	50	0	0	spielen	fair	freundlich	tolerant	schlau	schön	strafen	faul	fanatisch	tyrannisch	schroff	schlecht	ehrlich	helfen	loyal	lachen	treu	retten	eitel	hindern	lasch	leiden	tot	rächen	1	blank2r.bmp	0	1	+	0	1	blank2r.bmp	500	1	BMVZ	500	1	blank2r.bmp	880	4	tyrannisch	880	1	FEHLER	1723	1	!	1293	1	!	-1	0	0	0
2024-05-27	12:47:05	12:58:57	711456	6.6.1	4_exp_EVA_AWA_CON	52	B	A	Rpleas_acq	Oppo	Rpleas	2pleas	acq_US_pleas_nomask	acq45_nomask	4	1	400	0	300	300	0	0	498	50	1	0	spielen	fair	freundlich	tolerant	schlau	schön	strafen	faul	fanatisch	tyrannisch	schroff	schlecht	ehrlich	helfen	loyal	lachen	treu	retten	eitel	hindern	lasch	leiden	tot	rächen	1	blank2r.bmp	0	1	+	0	1	blank2r.bmp	500	1	GKQX	500	1	blank2r.bmp	880	3	freundlich	880	1	!	1233	1	!	-1	0	0	0	0	0	0
2024-05-27	12:47:05	12:59:00	713698	6.6.1	4_exp_EVA_AWA_CON	52	B	A	Rpleas_acq	Oppo	Rpleas	2pleas	acq_US_pleas_nomask	acq45_nomask	4	2	400	1	300	300	0	0	466	50	1	0	spielen	fair	freundlich	tolerant	schlau	schön	strafen	faul	fanatisch	tyrannisch	schroff	schlecht	ehrlich	helfen	loyal	lachen	treu	retten	eitel	hindern	lasch	leiden	tot	rächen	1	blank2r.bmp	0	1	+	0	1	blank2r.bmp	500	1	GKQX	500	1	blank2r.bmp	880	6	schön	880	1	!	1233	1	!	1368	0	0	0	0	0	0
2024-05-27	12:47:05	12:59:02	715922	6.6.1	4_exp_EVA_AWA_CON	52	B	A	Rpleas_acq	Oppo	Rpleas	2pleas	acq_US_unple_nomask	acq45_nomask	4	3	400	1	300	300	0	0	449	46	1	0	spielen	fair	freundlich	tolerant	schlau	schön	strafen	faul	fanatisch	tyrannisch	schroff	schlecht	ehrlich	helfen	loyal	lachen	treu	retten	eitel	hindern	lasch	leiden	tot	rächen	1	blank2r.bmp	0	1	+	0	1	blank2r.bmp	500	1	BMVZ	500	1	blank2r.bmp	880	6	schlecht	880	1	!	1233	1	!	1350	0	0	0	0	0	0
2024-05-27	12:47:05	12:59:04	718216	6.6.1	4_exp_EVA_AWA_CON	52	B	A	Rpleas_acq	Oppo	Rpleas	2pleas	acq_US_unple_nomask	acq45_nomask	4	4	400	0	300	300	0	0	513	46	1	0	spielen	fair	freundlich	tolerant	schlau	schön	strafen	faul	fanatisch	tyrannisch	schroff	schlecht	ehrlich	helfen	loyal	lachen	treu	retten	eitel	hindern	lasch	leiden	tot	rächen	1	blank2r.bmp	0	1	+	0	1	blank2r.bmp	500	1	BMVZ	500	1	blank2r.bmp	880	4	tyrannisch	880	1	!	1232	1	!	-1	0	0	0	0	0	0
2024-05-27	12:47:05	12:59:06	720512	6.6.1	4_exp_EVA_AWA_CON	52	B	A	Rpleas_acq	Oppo	Rpleas	2pleas	acq_US_unple_nomask	acq45_nomask	4	5	400	0	300	300	0	0	518	46	1	0	spielen	fair	freundlich	tolerant	schlau	schön	strafen	faul	fanatisch	tyrannisch	schroff	schlecht	ehrlich	helfen	loyal	lachen	treu	retten	eitel	hindern	lasch	leiden	tot	rächen	1	blank2r.bmp	0	1	+	0	1	blank2r.bmp	500	1	BMVZ	500	1	blank2r.bmp	880	1	strafen	880	1	!	1233	1	!	-1	0	0	0	0	0	0
2024-05-27	12:47:05	12:59:09	722832	6.6.1	4_exp_EVA_AWA_CON	52	B	A	Rpleas_acq	Oppo	Rpleas	2pleas	acq_US_unple_nomask	acq45_nomask	4	6	400	0	300	300	0	0	546	46	1	0	spielen	fair	freundlich	tolerant	schlau	schön	strafen	faul	fanatisch	tyrannisch	schroff	schlecht	ehrlich	helfen	loyal	lachen	treu	retten	eitel	hindern	lasch	leiden	tot	rächen	1	blank2r.bmp	0	1	+	0	1	blank2r.bmp	500	1	BMVZ	500	1	blank2r.bmp	880	2	faul	880	1	!	1233	1	!	-1	0	0	0	0	0	0
2024-05-27	12:47:05	12:59:11	725074	6.6.1	4_exp_EVA_AWA_CON	52	B	A	Rpleas_acq	Oppo	Rpleas	2pleas	acq_US_pleas_nomask	acq45_nomask	4	7	400	1	300	300	0	0	465	46	0	0	spielen	fair	freundlich	tolerant	schlau	schön	strafen	faul	fanatisch	tyrannisch	schroff	schlecht	ehrlich	helfen	loyal	lachen	treu	retten	eitel	hindern	lasch	leiden	tot	rächen	1	blank2r.bmp	0	1	+	0	1	blank2r.bmp	500	1	GKQX	500	1	blank2r.bmp	880	5	schlau	880	1	!	1233	1	!	1366	0	0	0	0	0	0
2024-05-27	12:47:05	12:59:13	727448	6.6.1	4_exp_EVA_AWA_CON	52	B	A	Rpleas_acq	Oppo	Rpleas	2pleas	acq_US_pleas_nomask	acq45_nomask	4	8	400	0	300	300	0	0	599	50	1	0	spielen	fair	freundlich	tolerant	schlau	schön	strafen	faul	fanatisch	tyrannisch	schroff	schlecht	ehrlich	helfen	loyal	lachen	treu	retten	eitel	hindern	lasch	leiden	tot	rächen	1	blank2r.bmp	0	1	+	0	1	blank2r.bmp	500	1	GKQX	500	1	blank2r.bmp	880	4	tolerant	880	1	!	1232	1	!	-1	0	0	0	0	0	0
2024-05-27	12:47:05	12:59:16	729736	6.6.1	4_exp_EVA_AWA_CON	52	B	A	Rpleas_acq	Oppo	Rpleas	2pleas	acq_US_unple_nomask	acq45_nomask	4	9	400	0	300	300	0	0	516	50	0	0	spielen	fair	freundlich	tolerant	schlau	schön	strafen	faul	fanatisch	tyrannisch	schroff	schlecht	ehrlich	helfen	loyal	lachen	treu	retten	eitel	hindern	lasch	leiden	tot	rächen	1	blank2r.bmp	0	1	+	0	1	blank2r.bmp	500	1	BMVZ	500	1	blank2r.bmp	880	5	schroff	880	1	!	1233	1	!	-1	0	0	0	0	0	0
2024-05-27	12:47:05	12:59:18	732104	6.6.1	4_exp_EVA_AWA_CON	52	B	A	Rpleas_acq	Oppo	Rpleas	2pleas	acq_US_unple_nomask	acq45_nomask	4	10	400	0	300	300	0	0	592	50	0	0	spielen	fair	freundlich	tolerant	schlau	schön	strafen	faul	fanatisch	tyrannisch	schroff	schlecht	ehrlich	helfen	loyal	lachen	treu	retten	eitel	hindern	lasch	leiden	tot	rächen	1	blank2r.bmp	0	1	+	0	1	blank2r.bmp	500	1	BMVZ	500	1	blank2r.bmp	880	3	fanatisch	880	1	!	1232	1	!	-1	0	0	0	0	0	0
2024-05-27	12:47:05	12:59:20	734392	6.6.1	4_exp_EVA_AWA_CON	52	B	A	Rpleas_acq	Oppo	Rpleas	2pleas	acq_US_unple_nomask	acq45_nomask	4	11	400	0	300	300	0	0	509	46	1	0	spielen	fair	freundlich	tolerant	schlau	schön	strafen	faul	fanatisch	tyrannisch	schroff	schlecht	ehrlich	helfen	loyal	lachen	treu	retten	eitel	hindern	lasch	leiden	tot	rächen	1	blank2r.bmp	0	1	+	0	1	blank2r.bmp	500	1	BMVZ	500	1	blank2r.bmp	880	6	schlecht	880	1	!	1233	1	!	-1	0	0	0	0	0	0
2024-05-27	12:47:05	12:59:23	736728	6.6.1	4_exp_EVA_AWA_CON	52	B	A	Rpleas_acq	Oppo	Rpleas	2pleas	acq_US_unple_nomask	acq45_nomask	4	12	400	0	300	300	0	0	553	50	0	0	spielen	fair	freundlich	tolerant	schlau	schön	strafen	faul	fanatisch	tyrannisch	schroff	schlecht	ehrlich	helfen	loyal	lachen	treu	retten	eitel	hindern	lasch	leiden	tot	rächen	1	blank2r.bmp	0	1	+	0	1	blank2r.bmp	500	1	BMVZ	500	1	blank2r.bmp	880	1	strafen	880	1	!	1232	1	!	-1	0	0	0	0	0	0
2024-05-27	12:47:05	12:59:25	738946	6.6.1	4_exp_EVA_AWA_CON	52	B	A	Rpleas_acq	Oppo	Rpleas	2pleas	acq_US_pleas_nomask	acq45_nomask	4	13	400	1	300	300	0	0	438	50	1	0	spielen	fair	freundlich	tolerant	schlau	schön	strafen	faul	fanatisch	tyrannisch	schroff	schlecht	ehrlich	helfen	loyal	lachen	treu	retten	eitel	hindern	lasch	leiden	tot	rächen	1	blank2r.bmp	0	1	+	0	1	blank2r.bmp	500	1	GKQX	500	1	blank2r.bmp	880	2	fair	880	1	!	1233	1	!	1339	0	0	0	0	0	0
2024-05-27	12:47:05	12:59:27	741216	6.6.1	4_exp_EVA_AWA_CON	52	B	A	Rpleas_acq	Oppo	Rpleas	2pleas	acq_US_unple_nomask	acq45_nomask	4	14	400	0	300	300	0	0	488	46	1	0	spielen	fair	freundlich	tolerant	schlau	schön	strafen	faul	fanatisch	tyrannisch	schroff	schlecht	ehrlich	helfen	loyal	lachen	treu	retten	eitel	hindern	lasch	leiden	tot	rächen	1	blank2r.bmp	0	1	+	0	1	blank2r.bmp	500	1	BMVZ	500	1	blank2r.bmp	880	2	faul	880	1	!	1233	1	!	-1	0	0	0	0	0	0
2024-05-27	12:47:05	12:59:29	743504	6.6.1	4_exp_EVA_AWA_CON	52	B	A	Rpleas_acq	Oppo	Rpleas	2pleas	acq_US_pleas_nomask	acq45_nomask	4	15	400	0	300	300	0	0	515	50	1	0	spielen	fair	freundlich	tolerant	schlau	schön	strafen	faul	fanatisch	tyrannisch	schroff	schlecht	ehrlich	helfen	loyal	lachen	treu	retten	eitel	hindern	lasch	leiden	tot	rächen	1	blank2r.bmp	0	1	+	0	1	blank2r.bmp	500	1	GKQX	500	1	blank2r.bmp	880	1	spielen	880	1	!	1233	1	!	-1	0	0	0	0	0	0
2024-05-27	12:47:05	12:59:32	745816	6.6.1	4_exp_EVA_AWA_CON	52	B	A	Rpleas_acq	Oppo	Rpleas	2pleas	acq_US_pleas_nomask	acq45_nomask	4	16	400	0	300	300	0	0	535	50	1	0	spielen	fair	freundlich	tolerant	schlau	schön	strafen	faul	fanatisch	tyrannisch	schroff	schlecht	ehrlich	helfen	loyal	lachen	treu	retten	eitel	hindern	lasch	leiden	tot	rächen	1	blank2r.bmp	0	1	+	0	1	blank2r.bmp	500	1	GKQX	500	1	blank2r.bmp	880	1	spielen	880	1	!	1232	1	!	-1	0	0	0	0	0	0
2024-05-27	12:47:05	12:59:34	748064	6.6.1	4_exp_EVA_AWA_CON	52	B	A	Rpleas_acq	Oppo	Rpleas	2pleas	acq_US_pleas_nomask	acq45_nomask	4	17	400	0	300	300	0	0	474	50	1	0	spielen	fair	freundlich	tolerant	schlau	schön	strafen	faul	fanatisch	tyrannisch	schroff	schlecht	ehrlich	helfen	loyal	lachen	treu	retten	eitel	hindern	lasch	leiden	tot	rächen	1	blank2r.bmp	0	1	+	0	1	blank2r.bmp	500	1	GKQX	500	1	blank2r.bmp	880	2	fair	880	1	!	1232	1	!	-1	0	0	0	0	0	0
2024-05-27	12:47:05	12:59:36	750298	6.6.1	4_exp_EVA_AWA_CON	52	B	A	Rpleas_acq	Oppo	Rpleas	2pleas	acq_US_pleas_nomask	acq45_nomask	4	18	400	1	300	300	0	0	452	50	1	0	spielen	fair	freundlich	tolerant	schlau	schön	strafen	faul	fanatisch	tyrannisch	schroff	schlecht	ehrlich	helfen	loyal	lachen	treu	retten	eitel	hindern	lasch	leiden	tot	rächen	1	blank2r.bmp	0	1	+	0	1	blank2r.bmp	500	1	GKQX	500	1	blank2r.bmp	880	3	freundlich	880	1	!	1232	1	!	1354	0	0	0	0	0	0
2024-05-27	12:47:05	12:59:38	752538	6.6.1	4_exp_EVA_AWA_CON	52	B	A	Rpleas_acq	Oppo	Rpleas	2pleas	acq_US_pleas_nomask	acq45_nomask	4	19	400	1	300	300	0	0	461	50	1	0	spielen	fair	freundlich	tolerant	schlau	schön	strafen	faul	fanatisch	tyrannisch	schroff	schlecht	ehrlich	helfen	loyal	lachen	treu	retten	eitel	hindern	lasch	leiden	tot	rächen	1	blank2r.bmp	0	1	+	0	1	blank2r.bmp	500	1	GKQX	500	1	blank2r.bmp	880	4	tolerant	880	1	!	1233	1	!	1363	0	0	0	0	0	0
2024-05-27	12:47:05	12:59:41	754754	6.6.1	4_exp_EVA_AWA_CON	52	B	A	Rpleas_acq	Oppo	Rpleas	2pleas	acq_US_unple_nomask	acq45_nomask	4	20	400	1	300	300	0	0	435	50	0	0	spielen	fair	freundlich	tolerant	schlau	schön	strafen	faul	fanatisch	tyrannisch	schroff	schlecht	ehrlich	helfen	loyal	lachen	treu	retten	eitel	hindern	lasch	leiden	tot	rächen	1	blank2r.bmp	0	1	+	0	1	blank2r.bmp	500	1	BMVZ	500	1	blank2r.bmp	880	3	fanatisch	880	1	!	1233	1	!	1337	0	0	0	0	0	0
2024-05-27	12:47:05	12:59:43	757006	6.6.1	4_exp_EVA_AWA_CON	52	B	A	Rpleas_acq	Oppo	Rpleas	2pleas	acq_US_unple_nomask	acq45_nomask	4	21	400	0	300	300	0	0	480	50	0	0	spielen	fair	freundlich	tolerant	schlau	schön	strafen	faul	fanatisch	tyrannisch	schroff	schlecht	ehrlich	helfen	loyal	lachen	treu	retten	eitel	hindern	lasch	leiden	tot	rächen	1	blank2r.bmp	0	1	+	0	1	blank2r.bmp	500	1	BMVZ	500	1	blank2r.bmp	880	5	schroff	880	1	!	1233	1	!	-1	0	0	0	0	0	0
2024-05-27	12:47:05	12:59:45	759280	6.6.1	4_exp_EVA_AWA_CON	52	B	A	Rpleas_acq	Oppo	Rpleas	2pleas	acq_US_unple_nomask	acq45_nomask	4	22	400	0	300	300	0	0	500	46	1	0	spielen	fair	freundlich	tolerant	schlau	schön	strafen	faul	fanatisch	tyrannisch	schroff	schlecht	ehrlich	helfen	loyal	lachen	treu	retten	eitel	hindern	lasch	leiden	tot	rächen	1	blank2r.bmp	0	1	+	0	1	blank2r.bmp	500	1	BMVZ	500	1	blank2r.bmp	880	4	tyrannisch	880	1	!	1233	1	!	-1	0	0	0	0	0	0
2024-05-27	12:47:05	12:59:48	761672	6.6.1	4_exp_EVA_AWA_CON	52	B	A	Rpleas_acq	Oppo	Rpleas	2pleas	acq_US_pleas_nomask	acq45_nomask	4	23	400	0	300	300	0	0	611	50	1	0	spielen	fair	freundlich	tolerant	schlau	schön	strafen	faul	fanatisch	tyrannisch	schroff	schlecht	ehrlich	helfen	loyal	lachen	treu	retten	eitel	hindern	lasch	leiden	tot	rächen	1	blank2r.bmp	0	1	+	0	1	blank2r.bmp	500	1	GKQX	500	1	blank2r.bmp	880	6	schön	880	1	!	1232	1	!	-1	0	0	0	0	0	0
2024-05-27	12:47:05	12:59:50	764056	6.6.1	4_exp_EVA_AWA_CON	52	B	A	Rpleas_acq	Oppo	Rpleas	2pleas	acq_US_pleas_nomask	acq45_nomask	4	24	400	0	300	300	0	0	603	46	0	0	spielen	fair	freundlich	tolerant	schlau	schön	strafen	faul	fanatisch	tyrannisch	schroff	schlecht	ehrlich	helfen	loyal	lachen	treu	retten	eitel	hindern	lasch	leiden	tot	rächen	1	blank2r.bmp	0	1	+	0	1	blank2r.bmp	500	1	GKQX	500	1	blank2r.bmp	880	5	schlau	880	1	!	1232	1	!	-1	0	0	0	0	0	0
2024-05-27	12:47:05	12:59:52	766488	6.6.1	4_exp_EVA_AWA_CON	52	B	A	Rpleas_acq	Oppo	Rpleas	2pleas	acq_US_unple_nomask	acq45_nomask	4	25	400	0	300	300	0	0	654	46	1	0	spielen	fair	freundlich	tolerant	schlau	schön	strafen	faul	fanatisch	tyrannisch	schroff	schlecht	ehrlich	helfen	loyal	lachen	treu	retten	eitel	hindern	lasch	leiden	tot	rächen	1	blank2r.bmp	0	1	+	0	1	blank2r.bmp	500	1	BMVZ	500	1	blank2r.bmp	880	5	schroff	880	1	!	1232	1	!	-1	0	0	0	0	0	0
2024-05-27	12:47:05	12:59:55	768760	6.6.1	4_exp_EVA_AWA_CON	52	B	A	Rpleas_acq	Oppo	Rpleas	2pleas	acq_US_unple_nomask	acq45_nomask	4	26	400	0	300	300	0	0	494	46	1	0	spielen	fair	freundlich	tolerant	schlau	schön	strafen	faul	fanatisch	tyrannisch	schroff	schlecht	ehrlich	helfen	loyal	lachen	treu	retten	eitel	hindern	lasch	leiden	tot	rächen	1	blank2r.bmp	0	1	+	0	1	blank2r.bmp	500	1	BMVZ	500	1	blank2r.bmp	880	2	faul	880	1	!	1233	1	!	-1	0	0	0	0	0	0
2024-05-27	12:47:05	12:59:57	771032	6.6.1	4_exp_EVA_AWA_CON	52	B	A	Rpleas_acq	Oppo	Rpleas	2pleas	acq_US_pleas_nomask	acq45_nomask	4	27	400	0	300	300	0	0	495	50	1	0	spielen	fair	freundlich	tolerant	schlau	schön	strafen	faul	fanatisch	tyrannisch	schroff	schlecht	ehrlich	helfen	loyal	lachen	treu	retten	eitel	hindern	lasch	leiden	tot	rächen	1	blank2r.bmp	0	1	+	0	1	blank2r.bmp	500	1	GKQX	500	1	blank2r.bmp	880	2	fair	880	1	!	1233	1	!	-1	0	0	0	0	0	0
2024-05-27	12:47:05	12:59:59	773296	6.6.1	4_exp_EVA_AWA_CON	52	B	A	Rpleas_acq	Oppo	Rpleas	2pleas	acq_US_unple_nomask	acq45_nomask	4	28	400	0	300	300	0	0	487	46	1	0	spielen	fair	freundlich	tolerant	schlau	schön	strafen	faul	fanatisch	tyrannisch	schroff	schlecht	ehrlich	helfen	loyal	lachen	treu	retten	eitel	hindern	lasch	leiden	tot	rächen	1	blank2r.bmp	0	1	+	0	1	blank2r.bmp	500	1	BMVZ	500	1	blank2r.bmp	880	1	strafen	880	1	!	1232	1	!	-1	0	0	0	0	0	0
2024-05-27	12:47:05	13:00:01	775522	6.6.1	4_exp_EVA_AWA_CON	52	B	A	Rpleas_acq	Oppo	Rpleas	2pleas	acq_US_pleas_nomask	acq45_nomask	4	29	400	1	300	300	0	0	450	50	1	0	spielen	fair	freundlich	tolerant	schlau	schön	strafen	faul	fanatisch	tyrannisch	schroff	schlecht	ehrlich	helfen	loyal	lachen	treu	retten	eitel	hindern	lasch	leiden	tot	rächen	1	blank2r.bmp	0	1	+	0	1	blank2r.bmp	500	1	GKQX	500	1	blank2r.bmp	880	4	tolerant	880	1	!	1233	1	!	1352	0	0	0	0	0	0
2024-05-27	12:47:05	13:00:04	777690	6.6.1	4_exp_EVA_AWA_CON	52	B	A	Rpleas_acq	Oppo	Rpleas	2pleas	acq_US_pleas_nomask	acq45_nomask	4	30	400	1	300	300	0	0	386	46	0	0	spielen	fair	freundlich	tolerant	schlau	schön	strafen	faul	fanatisch	tyrannisch	schroff	schlecht	ehrlich	helfen	loyal	lachen	treu	retten	eitel	hindern	lasch	leiden	tot	rächen	1	blank2r.bmp	0	1	+	0	1	blank2r.bmp	500	1	GKQX	500	1	blank2r.bmp	880	6	schön	880	1	!	1232	1	!	1288	0	0	0	0	0	0
2024-05-27	12:47:05	13:00:06	780080	6.6.1	4_exp_EVA_AWA_CON	52	B	A	Rpleas_acq	Oppo	Rpleas	2pleas	acq_US_pleas_nomask	acq45_nomask	4	31	400	0	300	300	0	0	617	50	1	0	spielen	fair	freundlich	tolerant	schlau	schön	strafen	faul	fanatisch	tyrannisch	schroff	schlecht	ehrlich	helfen	loyal	lachen	treu	retten	eitel	hindern	lasch	leiden	tot	rächen	1	blank2r.bmp	0	1	+	0	1	blank2r.bmp	500	1	GKQX	500	1	blank2r.bmp	880	1	spielen	880	1	!	1233	1	!	-1	0	0	0	0	0	0
2024-05-27	12:47:05	13:00:08	782528	6.6.1	4_exp_EVA_AWA_CON	52	B	A	Rpleas_acq	Oppo	Rpleas	2pleas	acq_US_pleas_nomask	acq45_nomask	4	32	400	0	300	300	0	0	673	46	0	0	spielen	fair	freundlich	tolerant	schlau	schön	strafen	faul	fanatisch	tyrannisch	schroff	schlecht	ehrlich	helfen	loyal	lachen	treu	retten	eitel	hindern	lasch	leiden	tot	rächen	1	blank2r.bmp	0	1	+	0	1	blank2r.bmp	500	1	GKQX	500	1	blank2r.bmp	880	5	schlau	880	1	!	1233	1	!	-1	0	0	0	0	0	0
2024-05-27	12:47:05	13:00:11	785097	6.6.1	4_exp_EVA_AWA_CON	52	B	A	Rpleas_acq	Oppo	Rpleas	2pleas	acq_US_unple_nomask	acq45_nomask	4	33	400	0	300	300	0	0	790	46	1	0	spielen	fair	freundlich	tolerant	schlau	schön	strafen	faul	fanatisch	tyrannisch	schroff	schlecht	ehrlich	helfen	loyal	lachen	treu	retten	eitel	hindern	lasch	leiden	tot	rächen	1	blank2r.bmp	0	1	+	0	1	blank2r.bmp	500	1	BMVZ	500	1	blank2r.bmp	880	4	tyrannisch	880	1	!	1233	1	!	-1	0	0	0	0	0	0
2024-05-27	12:47:05	13:00:13	787416	6.6.1	4_exp_EVA_AWA_CON	52	B	A	Rpleas_acq	Oppo	Rpleas	2pleas	acq_US_unple_nomask	acq45_nomask	4	34	400	0	300	300	0	0	538	46	1	0	spielen	fair	freundlich	tolerant	schlau	schön	strafen	faul	fanatisch	tyrannisch	schroff	schlecht	ehrlich	helfen	loyal	lachen	treu	retten	eitel	hindern	lasch	leiden	tot	rächen	1	blank2r.bmp	0	1	+	0	1	blank2r.bmp	500	1	BMVZ	500	1	blank2r.bmp	880	6	schlecht	880	1	!	1232	1	!	-1	0	0	0	0	0	0
2024-05-27	12:47:05	13:00:16	789800	6.6.1	4_exp_EVA_AWA_CON	52	B	A	Rpleas_acq	Oppo	Rpleas	2pleas	acq_US_unple_nomask	acq45_nomask	4	35	400	0	300	300	0	0	611	50	0	0	spielen	fair	freundlich	tolerant	schlau	schön	strafen	faul	fanatisch	tyrannisch	schroff	schlecht	ehrlich	helfen	loyal	lachen	treu	retten	eitel	hindern	lasch	leiden	tot	rächen	1	blank2r.bmp	0	1	+	0	1	blank2r.bmp	500	1	BMVZ	500	1	blank2r.bmp	880	3	fanatisch	880	1	!	1233	1	!	-1	0	0	0	0	0	0
2024-05-27	12:47:05	13:00:18	792328	6.6.1	4_exp_EVA_AWA_CON	52	B	A	Rpleas_acq	Oppo	Rpleas	2pleas	acq_US_pleas_nomask	acq45_nomask	4	36	400	0	300	300	0	0	747	50	1	0	spielen	fair	freundlich	tolerant	schlau	schön	strafen	faul	fanatisch	tyrannisch	schroff	schlecht	ehrlich	helfen	loyal	lachen	treu	retten	eitel	hindern	lasch	leiden	tot	rächen	1	blank2r.bmp	0	1	+	0	1	blank2r.bmp	500	1	GKQX	500	1	blank2r.bmp	880	3	freundlich	880	1	!	1232	1	!	-1	0	0	0	0	0	0
2024-05-27	12:47:05	13:00:59	832856	6.6.1	4_exp_EVA_AWA_CON	52	B	A	Rpleas_acq	Oppo	Rpleas	2pleas	acq_US_unple_nomask	acq45_nomask	5	1	400	0	300	300	0	0	529	50	0	0	spielen	fair	freundlich	tolerant	schlau	schön	strafen	faul	fanatisch	tyrannisch	schroff	schlecht	ehrlich	helfen	loyal	lachen	treu	retten	eitel	hindern	lasch	leiden	tot	rächen	1	blank2r.bmp	0	1	+	0	1	blank2r.bmp	500	1	BMVZ	500	1	blank2r.bmp	880	3	fanatisch	880	1	!	1232	1	!	-1	0	0	0	0	0	0
2024-05-27	12:47:05	13:01:01	835160	6.6.1	4_exp_EVA_AWA_CON	52	B	A	Rpleas_acq	Oppo	Rpleas	2pleas	acq_US_unple_nomask	acq45_nomask	5	2	400	0	300	300	0	0	531	46	1	0	spielen	fair	freundlich	tolerant	schlau	schön	strafen	faul	fanatisch	tyrannisch	schroff	schlecht	ehrlich	helfen	loyal	lachen	treu	retten	eitel	hindern	lasch	leiden	tot	rächen	1	blank2r.bmp	0	1	+	0	1	blank2r.bmp	500	1	BMVZ	500	1	blank2r.bmp	880	1	strafen	880	1	!	1233	1	!	-1	0	0	0	0	0	0
2024-05-27	12:47:05	13:01:03	837411	6.6.1	4_exp_EVA_AWA_CON	52	B	A	Rpleas_acq	Oppo	Rpleas	2pleas	acq_US_unple_nomask	acq45_nomask	5	3	400	1	300	300	0	0	468	46	1	0	spielen	fair	freundlich	tolerant	schlau	schön	strafen	faul	fanatisch	tyrannisch	schroff	schlecht	ehrlich	helfen	loyal	lachen	treu	retten	eitel	hindern	lasch	leiden	tot	rächen	1	blank2r.bmp	0	1	+	0	1	blank2r.bmp	500	1	BMVZ	500	1	blank2r.bmp	880	5	schroff	880	1	!	1233	1	!	1369	0	0	0	0	0	0
2024-05-27	12:47:05	13:01:06	839713	6.6.1	4_exp_EVA_AWA_CON	52	B	A	Rpleas_acq	Oppo	Rpleas	2pleas	acq_US_pleas_nomask	acq45_nomask	5	4	400	0	300	300	0	0	520	50	1	0	spielen	fair	freundlich	tolerant	schlau	schön	strafen	faul	fanatisch	tyrannisch	schroff	schlecht	ehrlich	helfen	loyal	lachen	treu	retten	eitel	hindern	lasch	leiden	tot	rächen	1	blank2r.bmp	0	1	+	0	1	blank2r.bmp	500	1	GKQX	500	1	blank2r.bmp	880	1	spielen	880	1	!	1232	1	!	-1	0	0	0	0	0	0
2024-05-27	12:47:05	13:01:08	842040	6.6.1	4_exp_EVA_AWA_CON	52	B	A	Rpleas_acq	Oppo	Rpleas	2pleas	acq_US_pleas_nomask	acq45_nomask	5	5	400	0	300	300	0	0	547	50	1	0	spielen	fair	freundlich	tolerant	schlau	schön	strafen	faul	fanatisch	tyrannisch	schroff	schlecht	ehrlich	helfen	loyal	lachen	treu	retten	eitel	hindern	lasch	leiden	tot	rächen	1	blank2r.bmp	0	1	+	0	1	blank2r.bmp	500	1	GKQX	500	1	blank2r.bmp	880	5	schlau	880	1	!	1232	1	!	-1	0	0	0	0	0	0
2024-05-27	12:47:05	13:01:10	844320	6.6.1	4_exp_EVA_AWA_CON	52	B	A	Rpleas_acq	Oppo	Rpleas	2pleas	acq_US_unple_nomask	acq45_nomask	5	6	400	0	300	300	0	0	505	50	0	0	spielen	fair	freundlich	tolerant	schlau	schön	strafen	faul	fanatisch	tyrannisch	schroff	schlecht	ehrlich	helfen	loyal	lachen	treu	retten	eitel	hindern	lasch	leiden	tot	rächen	1	blank2r.bmp	0	1	+	0	1	blank2r.bmp	500	1	BMVZ	500	1	blank2r.bmp	880	2	faul	880	1	!	1233	1	!	-1	0	0	0	0	0	0
2024-05-27	12:47:05	13:01:12	846584	6.6.1	4_exp_EVA_AWA_CON	52	B	A	Rpleas_acq	Oppo	Rpleas	2pleas	acq_US_pleas_nomask	acq45_nomask	5	7	400	0	300	300	0	0	488	50	1	0	spielen	fair	freundlich	tolerant	schlau	schön	strafen	faul	fanatisch	tyrannisch	schroff	schlecht	ehrlich	helfen	loyal	lachen	treu	retten	eitel	hindern	lasch	leiden	tot	rächen	1	blank2r.bmp	0	1	+	0	1	blank2r.bmp	500	1	GKQX	500	1	blank2r.bmp	880	6	schön	880	1	!	1232	1	!	-1	0	0	0	0	0	0
2024-05-27	12:47:05	13:01:15	848856	6.6.1	4_exp_EVA_AWA_CON	52	B	A	Rpleas_acq	Oppo	Rpleas	2pleas	acq_US_pleas_nomask	acq45_nomask	5	8	400	0	300	300	0	0	498	46	0	0	spielen	fair	freundlich	tolerant	schlau	schön	strafen	faul	fanatisch	tyrannisch	schroff	schlecht	ehrlich	helfen	loyal	lachen	treu	retten	eitel	hindern	lasch	leiden	tot	rächen	1	blank2r.bmp	0	1	+	0	1	blank2r.bmp	500	1	GKQX	500	1	blank2r.bmp	880	4	tolerant	880	1	!	1232	1	!	-1	0	0	0	0	0	0
2024-05-27	12:47:05	13:01:17	851128	6.6.1	4_exp_EVA_AWA_CON	52	B	A	Rpleas_acq	Oppo	Rpleas	2pleas	acq_US_pleas_nomask	acq45_nomask	5	9	400	0	300	300	0	0	499	50	1	0	spielen	fair	freundlich	tolerant	schlau	schön	strafen	faul	fanatisch	tyrannisch	schroff	schlecht	ehrlich	helfen	loyal	lachen	treu	retten	eitel	hindern	lasch	leiden	tot	rächen	1	blank2r.bmp	0	1	+	0	1	blank2r.bmp	500	1	GKQX	500	1	blank2r.bmp	880	2	fair	880	1	!	1232	1	!	-1	0	0	0	0	0	0
2024-05-27	12:47:05	13:01:19	853401	6.6.1	4_exp_EVA_AWA_CON	52	B	A	Rpleas_acq	Oppo	Rpleas	2pleas	acq_US_pleas_nomask	acq45_nomask	5	10	400	0	300	300	0	0	499	50	1	0	spielen	fair	freundlich	tolerant	schlau	schön	strafen	faul	fanatisch	tyrannisch	schroff	schlecht	ehrlich	helfen	loyal	lachen	treu	retten	eitel	hindern	lasch	leiden	tot	rächen	1	blank2r.bmp	0	1	+	0	1	blank2r.bmp	500	1	GKQX	500	1	blank2r.bmp	880	3	freundlich	880	1	!	1232	1	!	-1	0	0	0	0	0	0
2024-05-27	12:47:05	13:01:22	855736	6.6.1	4_exp_EVA_AWA_CON	52	B	A	Rpleas_acq	Oppo	Rpleas	2pleas	acq_US_pleas_nomask	acq45_nomask	5	11	400	0	300	300	0	0	554	46	0	0	spielen	fair	freundlich	tolerant	schlau	schön	strafen	faul	fanatisch	tyrannisch	schroff	schlecht	ehrlich	helfen	loyal	lachen	treu	retten	eitel	hindern	lasch	leiden	tot	rächen	1	blank2r.bmp	0	1	+	0	1	blank2r.bmp	500	1	GKQX	500	1	blank2r.bmp	880	1	spielen	880	1	!	1233	1	!	-1	0	0	0	0	0	0
2024-05-27	12:47:05	13:01:24	858000	6.6.1	4_exp_EVA_AWA_CON	52	B	A	Rpleas_acq	Oppo	Rpleas	2pleas	acq_US_unple_nomask	acq45_nomask	5	12	400	0	300	300	0	0	486	46	1	0	spielen	fair	freundlich	tolerant	schlau	schön	strafen	faul	fanatisch	tyrannisch	schroff	schlecht	ehrlich	helfen	loyal	lachen	treu	retten	eitel	hindern	lasch	leiden	tot	rächen	1	blank2r.bmp	0	1	+	0	1	blank2r.bmp	500	1	BMVZ	500	1	blank2r.bmp	880	6	schlecht	880	1	!	1232	1	!	-1	0	0	0	0	0	0
2024-05-27	12:47:05	13:01:26	860288	6.6.1	4_exp_EVA_AWA_CON	52	B	A	Rpleas_acq	Oppo	Rpleas	2pleas	acq_US_pleas_nomask	acq45_nomask	5	13	400	0	300	300	0	0	514	50	1	0	spielen	fair	freundlich	tolerant	schlau	schön	strafen	faul	fanatisch	tyrannisch	schroff	schlecht	ehrlich	helfen	loyal	lachen	treu	retten	eitel	hindern	lasch	leiden	tot	rächen	1	blank2r.bmp	0	1	+	0	1	blank2r.bmp	500	1	GKQX	500	1	blank2r.bmp	880	2	fair	880	1	!	1233	1	!	-1	0	0	0	0	0	0
2024-05-27	12:47:05	13:01:29	862912	6.6.1	4_exp_EVA_AWA_CON	52	B	A	Rpleas_acq	Oppo	Rpleas	2pleas	acq_US_unple_nomask	acq45_nomask	5	14	400	0	300	300	0	0	845	46	1	0	spielen	fair	freundlich	tolerant	schlau	schön	strafen	faul	fanatisch	tyrannisch	schroff	schlecht	ehrlich	helfen	loyal	lachen	treu	retten	eitel	hindern	lasch	leiden	tot	rächen	1	blank2r.bmp	0	1	+	0	1	blank2r.bmp	500	1	BMVZ	500	1	blank2r.bmp	880	4	tyrannisch	880	1	!	1233	1	!	-1	0	0	0	0	0	0
2024-05-27	12:47:05	13:01:31	865216	6.6.1	4_exp_EVA_AWA_CON	52	B	A	Rpleas_acq	Oppo	Rpleas	2pleas	acq_US_unple_nomask	acq45_nomask	5	15	400	0	300	300	0	0	527	50	0	0	spielen	fair	freundlich	tolerant	schlau	schön	strafen	faul	fanatisch	tyrannisch	schroff	schlecht	ehrlich	helfen	loyal	lachen	treu	retten	eitel	hindern	lasch	leiden	tot	rächen	1	blank2r.bmp	0	1	+	0	1	blank2r.bmp	500	1	BMVZ	500	1	blank2r.bmp	880	3	fanatisch	880	1	!	1232	1	!	-1	0	0	0	0	0	0
2024-05-27	12:47:05	13:01:33	867544	6.6.1	4_exp_EVA_AWA_CON	52	B	A	Rpleas_acq	Oppo	Rpleas	2pleas	acq_US_unple_nomask	acq45_nomask	5	16	400	0	300	300	0	0	554	46	1	0	spielen	fair	freundlich	tolerant	schlau	schön	strafen	faul	fanatisch	tyrannisch	schroff	schlecht	ehrlich	helfen	loyal	lachen	treu	retten	eitel	hindern	lasch	leiden	tot	rächen	1	blank2r.bmp	0	1	+	0	1	blank2r.bmp	500	1	BMVZ	500	1	blank2r.bmp	880	5	schroff	880	1	!	1233	1	!	-1	0	0	0	0	0	0
2024-05-27	12:47:05	13:01:36	869920	6.6.1	4_exp_EVA_AWA_CON	52	B	A	Rpleas_acq	Oppo	Rpleas	2pleas	acq_US_pleas_nomask	acq45_nomask	5	17	400	0	300	300	0	0	599	50	1	0	spielen	fair	freundlich	tolerant	schlau	schön	strafen	faul	fanatisch	tyrannisch	schroff	schlecht	ehrlich	helfen	loyal	lachen	treu	retten	eitel	hindern	lasch	leiden	tot	rächen	1	blank2r.bmp	0	1	+	0	1	blank2r.bmp	500	1	GKQX	500	1	blank2r.bmp	880	5	schlau	880	1	!	1232	1	!	-1	0	0	0	0	0	0
2024-05-27	12:47:05	13:01:38	872304	6.6.1	4_exp_EVA_AWA_CON	52	B	A	Rpleas_acq	Oppo	Rpleas	2pleas	acq_US_unple_nomask	acq45_nomask	5	18	400	0	300	300	0	0	611	46	1	0	spielen	fair	freundlich	tolerant	schlau	schön	strafen	faul	fanatisch	tyrannisch	schroff	schlecht	ehrlich	helfen	loyal	lachen	treu	retten	eitel	hindern	lasch	leiden	tot	rächen	1	blank2r.bmp	0	1	+	0	1	blank2r.bmp	500	1	BMVZ	500	1	blank2r.bmp	880	1	strafen	880	1	!	1233	1	!	-1	0	0	0	0	0	0
2024-05-27	12:47:05	13:01:40	874625	6.6.1	4_exp_EVA_AWA_CON	52	B	A	Rpleas_acq	Oppo	Rpleas	2pleas	acq_US_unple_nomask	acq45_nomask	5	19	400	0	300	300	0	0	540	50	0	0	spielen	fair	freundlich	tolerant	schlau	schön	strafen	faul	fanatisch	tyrannisch	schroff	schlecht	ehrlich	helfen	loyal	lachen	treu	retten	eitel	hindern	lasch	leiden	tot	rächen	1	blank2r.bmp	0	1	+	0	1	blank2r.bmp	500	1	BMVZ	500	1	blank2r.bmp	880	4	tyrannisch	880	1	!	1233	1	!	-1	0	0	0	0	0	0
2024-05-27	12:47:05	13:01:43	877144	6.6.1	4_exp_EVA_AWA_CON	52	B	A	Rpleas_acq	Oppo	Rpleas	2pleas	acq_US_pleas_nomask	acq45_nomask	5	20	400	0	300	300	0	0	738	50	1	0	spielen	fair	freundlich	tolerant	schlau	schön	strafen	faul	fanatisch	tyrannisch	schroff	schlecht	ehrlich	helfen	loyal	lachen	treu	retten	eitel	hindern	lasch	leiden	tot	rächen	1	blank2r.bmp	0	1	+	0	1	blank2r.bmp	500	1	GKQX	500	1	blank2r.bmp	880	6	schön	880	1	!	1233	1	!	-1	0	0	0	0	0	0
2024-05-27	12:47:05	13:01:45	879370	6.6.1	4_exp_EVA_AWA_CON	52	B	A	Rpleas_acq	Oppo	Rpleas	2pleas	acq_US_unple_nomask	acq45_nomask	5	21	400	1	300	300	0	0	450	46	1	0	spielen	fair	freundlich	tolerant	schlau	schön	strafen	faul	fanatisch	tyrannisch	schroff	schlecht	ehrlich	helfen	loyal	lachen	treu	retten	eitel	hindern	lasch	leiden	tot	rächen	1	blank2r.bmp	0	1	+	0	1	blank2r.bmp	500	1	BMVZ	500	1	blank2r.bmp	880	6	schlecht	880	1	!	1232	1	!	1352	0	0	0	0	0	0
2024-05-27	12:47:05	13:01:47	881640	6.6.1	4_exp_EVA_AWA_CON	52	B	A	Rpleas_acq	Oppo	Rpleas	2pleas	acq_US_pleas_nomask	acq45_nomask	5	22	400	0	300	300	0	0	491	50	1	0	spielen	fair	freundlich	tolerant	schlau	schön	strafen	faul	fanatisch	tyrannisch	schroff	schlecht	ehrlich	helfen	loyal	lachen	treu	retten	eitel	hindern	lasch	leiden	tot	rächen	1	blank2r.bmp	0	1	+	0	1	blank2r.bmp	500	1	GKQX	500	1	blank2r.bmp	880	3	freundlich	880	1	!	1232	1	!	-1	0	0	0	0	0	0
2024-05-27	12:47:05	13:01:50	884024	6.6.1	4_exp_EVA_AWA_CON	52	B	A	Rpleas_acq	Oppo	Rpleas	2pleas	acq_US_pleas_nomask	acq45_nomask	5	23	400	0	300	300	0	0	603	50	1	0	spielen	fair	freundlich	tolerant	schlau	schön	strafen	faul	fanatisch	tyrannisch	schroff	schlecht	ehrlich	helfen	loyal	lachen	treu	retten	eitel	hindern	lasch	leiden	tot	rächen	1	blank2r.bmp	0	1	+	0	1	blank2r.bmp	500	1	GKQX	500	1	blank2r.bmp	880	4	tolerant	880	1	!	1232	1	!	-1	0	0	0	0	0	0
2024-05-27	12:47:05	13:01:52	886313	6.6.1	4_exp_EVA_AWA_CON	52	B	A	Rpleas_acq	Oppo	Rpleas	2pleas	acq_US_unple_nomask	acq45_nomask	5	24	400	0	300	300	0	0	510	46	1	0	spielen	fair	freundlich	tolerant	schlau	schön	strafen	faul	fanatisch	tyrannisch	schroff	schlecht	ehrlich	helfen	loyal	lachen	treu	retten	eitel	hindern	lasch	leiden	tot	rächen	1	blank2r.bmp	0	1	+	0	1	blank2r.bmp	500	1	BMVZ	500	1	blank2r.bmp	880	2	faul	880	1	!	1232	1	!	-1	0	0	0	0	0	0
2024-05-27	12:47:05	13:01:54	888648	6.6.1	4_exp_EVA_AWA_CON	52	B	A	Rpleas_acq	Oppo	Rpleas	2pleas	acq_US_pleas_nomask	acq45_nomask	5	25	400	0	300	300	0	0	554	50	1	0	spielen	fair	freundlich	tolerant	schlau	schön	strafen	faul	fanatisch	tyrannisch	schroff	schlecht	ehrlich	helfen	loyal	lachen	treu	retten	eitel	hindern	lasch	leiden	tot	rächen	1	blank2r.bmp	0	1	+	0	1	blank2r.bmp	500	1	GKQX	500	1	blank2r.bmp	880	2	fair	880	1	!	1232	1	!	-1	0	0	0	0	0	0
2024-05-27	12:47:05	13:01:57	890912	6.6.1	4_exp_EVA_AWA_CON	52	B	A	Rpleas_acq	Oppo	Rpleas	2pleas	acq_US_pleas_nomask	acq45_nomask	5	26	400	0	300	300	0	0	487	46	0	0	spielen	fair	freundlich	tolerant	schlau	schön	strafen	faul	fanatisch	tyrannisch	schroff	schlecht	ehrlich	helfen	loyal	lachen	treu	retten	eitel	hindern	lasch	leiden	tot	rächen	1	blank2r.bmp	0	1	+	0	1	blank2r.bmp	500	1	GKQX	500	1	blank2r.bmp	880	1	spielen	880	1	!	1233	1	!	-1	0	0	0	0	0	0
2024-05-27	12:47:05	13:01:59	893154	6.6.1	4_exp_EVA_AWA_CON	52	B	A	Rpleas_acq	Oppo	Rpleas	2pleas	acq_US_unple_nomask	acq45_nomask	5	27	400	1	300	300	0	0	465	46	1	0	spielen	fair	freundlich	tolerant	schlau	schön	strafen	faul	fanatisch	tyrannisch	schroff	schlecht	ehrlich	helfen	loyal	lachen	treu	retten	eitel	hindern	lasch	leiden	tot	rächen	1	blank2r.bmp	0	1	+	0	1	blank2r.bmp	500	1	BMVZ	500	1	blank2r.bmp	880	4	tyrannisch	880	1	!	1232	1	!	1367	0	0	0	0	0	0
2024-05-27	12:47:05	13:02:01	895489	6.6.1	4_exp_EVA_AWA_CON	52	B	A	Rpleas_acq	Oppo	Rpleas	2pleas	acq_US_pleas_nomask	acq45_nomask	5	28	400	0	300	300	0	0	560	50	1	0	spielen	fair	freundlich	tolerant	schlau	schön	strafen	faul	fanatisch	tyrannisch	schroff	schlecht	ehrlich	helfen	loyal	lachen	treu	retten	eitel	hindern	lasch	leiden	tot	rächen	1	blank2r.bmp	0	1	+	0	1	blank2r.bmp	500	1	GKQX	500	1	blank2r.bmp	880	3	freundlich	880	1	!	1232	1	!	-1	0	0	0	0	0	0
2024-05-27	12:47:05	13:02:04	897816	6.6.1	4_exp_EVA_AWA_CON	52	B	A	Rpleas_acq	Oppo	Rpleas	2pleas	acq_US_unple_nomask	acq45_nomask	5	29	400	0	300	300	0	0	546	46	1	0	spielen	fair	freundlich	tolerant	schlau	schön	strafen	faul	fanatisch	tyrannisch	schroff	schlecht	ehrlich	helfen	loyal	lachen	treu	retten	eitel	hindern	lasch	leiden	tot	rächen	1	blank2r.bmp	0	1	+	0	1	blank2r.bmp	500	1	BMVZ	500	1	blank2r.bmp	880	5	schroff	880	1	!	1232	1	!	-1	0	0	0	0	0	0
2024-05-27	12:47:05	13:02:06	900096	6.6.1	4_exp_EVA_AWA_CON	52	B	A	Rpleas_acq	Oppo	Rpleas	2pleas	acq_US_unple_nomask	acq45_nomask	5	30	400	0	300	300	0	0	505	50	0	0	spielen	fair	freundlich	tolerant	schlau	schön	strafen	faul	fanatisch	tyrannisch	schroff	schlecht	ehrlich	helfen	loyal	lachen	treu	retten	eitel	hindern	lasch	leiden	tot	rächen	1	blank2r.bmp	0	1	+	0	1	blank2r.bmp	500	1	BMVZ	500	1	blank2r.bmp	880	1	strafen	880	1	!	1232	1	!	-1	0	0	0	0	0	0
2024-05-27	12:47:05	13:02:08	902290	6.6.1	4_exp_EVA_AWA_CON	52	B	A	Rpleas_acq	Oppo	Rpleas	2pleas	acq_US_unple_nomask	acq45_nomask	5	31	400	1	300	300	0	0	415	50	0	0	spielen	fair	freundlich	tolerant	schlau	schön	strafen	faul	fanatisch	tyrannisch	schroff	schlecht	ehrlich	helfen	loyal	lachen	treu	retten	eitel	hindern	lasch	leiden	tot	rächen	1	blank2r.bmp	0	1	+	0	1	blank2r.bmp	500	1	BMVZ	500	1	blank2r.bmp	880	3	fanatisch	880	1	!	1233	1	!	1317	0	0	0	0	0	0
2024-05-27	12:47:05	13:02:11	904656	6.6.1	4_exp_EVA_AWA_CON	52	B	A	Rpleas_acq	Oppo	Rpleas	2pleas	acq_US_unple_nomask	acq45_nomask	5	32	400	0	300	300	0	0	593	46	1	0	spielen	fair	freundlich	tolerant	schlau	schön	strafen	faul	fanatisch	tyrannisch	schroff	schlecht	ehrlich	helfen	loyal	lachen	treu	retten	eitel	hindern	lasch	leiden	tot	rächen	1	blank2r.bmp	0	1	+	0	1	blank2r.bmp	500	1	BMVZ	500	1	blank2r.bmp	880	2	faul	880	1	!	1233	1	!	-1	0	0	0	0	0	0
2024-05-27	12:47:05	13:02:13	906866	6.6.1	4_exp_EVA_AWA_CON	52	B	A	Rpleas_acq	Oppo	Rpleas	2pleas	acq_US_pleas_nomask	acq45_nomask	5	33	400	1	300	300	0	0	428	50	1	0	spielen	fair	freundlich	tolerant	schlau	schön	strafen	faul	fanatisch	tyrannisch	schroff	schlecht	ehrlich	helfen	loyal	lachen	treu	retten	eitel	hindern	lasch	leiden	tot	rächen	1	blank2r.bmp	0	1	+	0	1	blank2r.bmp	500	1	GKQX	500	1	blank2r.bmp	880	6	schön	880	1	!	1232	1	!	1330	0	0	0	0	0	0
2024-05-27	12:47:05	13:02:15	909248	6.6.1	4_exp_EVA_AWA_CON	52	B	A	Rpleas_acq	Oppo	Rpleas	2pleas	acq_US_pleas_nomask	acq45_nomask	5	34	400	0	300	300	0	0	601	50	1	0	spielen	fair	freundlich	tolerant	schlau	schön	strafen	faul	fanatisch	tyrannisch	schroff	schlecht	ehrlich	helfen	loyal	lachen	treu	retten	eitel	hindern	lasch	leiden	tot	rächen	1	blank2r.bmp	0	1	+	0	1	blank2r.bmp	500	1	GKQX	500	1	blank2r.bmp	880	4	tolerant	880	1	!	1232	1	!	-1	0	0	0	0	0	0
2024-05-27	12:47:05	13:02:17	911584	6.6.1	4_exp_EVA_AWA_CON	52	B	A	Rpleas_acq	Oppo	Rpleas	2pleas	acq_US_pleas_nomask	acq45_nomask	5	35	400	0	300	300	0	0	555	50	1	0	spielen	fair	freundlich	tolerant	schlau	schön	strafen	faul	fanatisch	tyrannisch	schroff	schlecht	ehrlich	helfen	loyal	lachen	treu	retten	eitel	hindern	lasch	leiden	tot	rächen	1	blank2r.bmp	0	1	+	0	1	blank2r.bmp	500	1	GKQX	500	1	blank2r.bmp	880	5	schlau	880	1	!	1232	1	!	-1	0	0	0	0	0	0
2024-05-27	12:47:05	13:02:20	913838	6.6.1	4_exp_EVA_AWA_CON	52	B	A	Rpleas_acq	Oppo	Rpleas	2pleas	acq_US_unple_nomask	acq45_nomask	5	36	400	0	300	300	0	0	480	46	1	0	spielen	fair	freundlich	tolerant	schlau	schön	strafen	faul	fanatisch	tyrannisch	schroff	schlecht	ehrlich	helfen	loyal	lachen	treu	retten	eitel	hindern	lasch	leiden	tot	rächen	1	blank2r.bmp	0	1	+	0	1	blank2r.bmp	500	1	BMVZ	500	1	blank2r.bmp	880	6	schlecht	880	1	!	1233	1	!	-1	0	0	0	0	0	0
2024-05-27	12:47:05	13:03:01	955396	6.6.1	4_exp_EVA_AWA_CON	52	B	A	Rpleas_acq	Oppo	Lpleas	2pleas	EvalRating_firsttwo	EvalRating_firsttwo	6	1	0	0	300	300	0	0	11327	line	0	-7,2916666666666571928pct	spielen	fair	freundlich	tolerant	schlau	schön	strafen	faul	fanatisch	tyrannisch	schroff	schlecht	ehrlich	helfen	loyal	lachen	treu	retten	eitel	hindern	lasch	leiden	tot	rächen	1		-7	1	Wie angenehm oder unangenehm finden Sie die  Buchstabenkette ZGVK?	-7	1		-7	1		-7	1		-7	1	Unangenehm	-7	1	Angenehm	-7	0	0	0	0	0	0	0	0	0
2024-05-27	12:47:05	13:03:08	962517	6.6.1	4_exp_EVA_AWA_CON	52	B	A	Rpleas_acq	Oppo	Lpleas	2pleas	EvalRating_lastfour	EvalRating_lastfour	7	1	0	0	300	300	0	0	4738	line	0	19,6614583333333428072pct	spielen	fair	freundlich	tolerant	schlau	schön	strafen	faul	fanatisch	tyrannisch	schroff	schlecht	ehrlich	helfen	loyal	lachen	treu	retten	eitel	hindern	lasch	leiden	tot	rächen	1		-8	3	Wie angenehm oder unangenehm finden Sie die  Buchstabenkette XBQM?	-8	1		-8	1		-8	1		-8	1	Unangenehm	-8	1	Angenehm	-8	0	0	0	0	0	0	0	0	0
2024-05-27	12:47:05	13:03:11	964885	6.6.1	4_exp_EVA_AWA_CON	52	B	A	Rpleas_acq	Oppo	Lpleas	2pleas	blank_screen	EvalRating_lastfour	7	3	0	0	300	300	0	0	0	0	0	19,6614583333333428072pct	spielen	fair	freundlich	tolerant	schlau	schön	strafen	faul	fanatisch	tyrannisch	schroff	schlecht	ehrlich	helfen	loyal	lachen	treu	retten	eitel	hindern	lasch	leiden	tot	rächen	1		-8	0	0	0	0	0	0	0	0	0	0	0	0	0	0	0	0	0	0	0	0	0	0	0	0	0	0	0
2024-05-27	12:47:05	13:03:15	969340	6.6.1	4_exp_EVA_AWA_CON	52	B	A	Rpleas_acq	Oppo	Lpleas	2pleas	EvalRating_lastfour	EvalRating_lastfour	7	4	0	0	300	300	0	0	3867	line	0	-59,6354166666666642982pct	spielen	fair	freundlich	tolerant	schlau	schön	strafen	faul	fanatisch	tyrannisch	schroff	schlecht	ehrlich	helfen	loyal	lachen	treu	retten	eitel	hindern	lasch	leiden	tot	rächen	1		-8	1	Wie angenehm oder unangenehm finden Sie die  Buchstabenkette BMVZ?	-8	1		-8	1		-8	1		-8	1	Unangenehm	-8	1	Angenehm	-8	0	0	0	0	0	0	0	0	0
2024-05-27	12:47:05	13:03:18	971709	6.6.1	4_exp_EVA_AWA_CON	52	B	A	Rpleas_acq	Oppo	Lpleas	2pleas	blank_screen	EvalRating_lastfour	7	6	0	0	300	300	0	0	0	0	0	-59,6354166666666642982pct	spielen	fair	freundlich	tolerant	schlau	schön	strafen	faul	fanatisch	tyrannisch	schroff	schlecht	ehrlich	helfen	loyal	lachen	treu	retten	eitel	hindern	lasch	leiden	tot	rächen	1		-8	0	0	0	0	0	0	0	0	0	0	0	0	0	0	0	0	0	0	0	0	0	0	0	0	0	0	0
2024-05-27	12:47:05	13:03:23	976860	6.6.1	4_exp_EVA_AWA_CON	52	B	A	Rpleas_acq	Oppo	Lpleas	2pleas	EvalRating_lastfour	EvalRating_lastfour	7	7	0	0	300	300	0	0	4563	line	0	0,1302083333333428072pct	spielen	fair	freundlich	tolerant	schlau	schön	strafen	faul	fanatisch	tyrannisch	schroff	schlecht	ehrlich	helfen	loyal	lachen	treu	retten	eitel	hindern	lasch	leiden	tot	rächen	1		-8	2	Wie angenehm oder unangenehm finden Sie die  Buchstabenkette GKQX?	-8	1		-8	1		-8	1		-8	1	Unangenehm	-8	1	Angenehm	-8	0	0	0	0	0	0	0	0	0
2024-05-27	12:47:05	13:04:20	1034098	6.6.1	4_exp_EVA_AWA_CON	52	B	A	Rpleas_acq	Oppo	Lpleas	2pleas	conawa_CS2_US2	conawa1_nomask	8	1	0	0	300	300	0	0	12662	lasch	1	0,1302083333333428072pct	spielen	fair	freundlich	tolerant	schlau	schön	strafen	faul	fanatisch	tyrannisch	schroff	schlecht	ehrlich	helfen	loyal	lachen	treu	retten	eitel	hindern	lasch	leiden	tot	rächen	0	0	0	0	0	0	0	0	0	0	0	0	0	0	0	0	0	0	0	0	0	0	0	0	0	0	0	0	0	0
2024-05-27	12:47:05	13:04:20	1034100	6.6.1	4_exp_EVA_AWA_CON	52	B	A	Rpleas_acq	Oppo	Lpleas	2pleas	conawa_CS2_US2_confidence	conawa1_nomask	8	1	0	0	300	300	0	0	12662	guess	1	0,1302083333333428072pct	spielen	fair	freundlich	tolerant	schlau	schön	strafen	faul	fanatisch	tyrannisch	schroff	schlecht	ehrlich	helfen	loyal	lachen	treu	retten	eitel	hindern	lasch	leiden	tot	rächen	0	0	0	0	0	0	0	0	0	0	0	0	0	0	0	0	0	0	0	0	0	0	0	0	0	0	0	0	0	0
2024-05-27	12:47:05	13:04:29	1042784	6.6.1	4_exp_EVA_AWA_CON	52	B	A	Rpleas_acq	Oppo	Lpleas	2pleas	conawa_CS2_US5	conawa1_nomask	8	2	0	0	300	300	0	0	8068	schroff	1	0,1302083333333428072pct	spielen	fair	freundlich	tolerant	schlau	schön	strafen	faul	fanatisch	tyrannisch	schroff	schlecht	ehrlich	helfen	loyal	lachen	treu	retten	eitel	hindern	lasch	leiden	tot	rächen	0	0	0	0	0	0	0	0	0	0	0	0	0	0	0	0	0	0	0	0	0	0	0	0	0	0	0	0	0	0
2024-05-27	12:47:05	13:04:29	1042785	6.6.1	4_exp_EVA_AWA_CON	52	B	A	Rpleas_acq	Oppo	Lpleas	2pleas	conawa_CS2_US5_confidence	conawa1_nomask	8	2	0	0	300	300	0	0	8068	guess	1	0,1302083333333428072pct	spielen	fair	freundlich	tolerant	schlau	schön	strafen	faul	fanatisch	tyrannisch	schroff	schlecht	ehrlich	helfen	loyal	lachen	treu	retten	eitel	hindern	lasch	leiden	tot	rächen	0	0	0	0	0	0	0	0	0	0	0	0	0	0	0	0	0	0	0	0	0	0	0	0	0	0	0	0	0	0
2024-05-27	12:47:05	13:04:50	1064168	6.6.1	4_exp_EVA_AWA_CON	52	B	A	Rpleas_acq	Oppo	Lpleas	2pleas	conawa_CS1_US2	conawa1_nomask	8	3	0	0	300	300	0	0	20766	faul	1	0,1302083333333428072pct	spielen	fair	freundlich	tolerant	schlau	schön	strafen	faul	fanatisch	tyrannisch	schroff	schlecht	ehrlich	helfen	loyal	lachen	treu	retten	eitel	hindern	lasch	leiden	tot	rächen	0	0	0	0	0	0	0	0	0	0	0	0	0	0	0	0	0	0	0	0	0	0	0	0	0	0	0	0	0	0
2024-05-27	12:47:05	13:04:50	1064169	6.6.1	4_exp_EVA_AWA_CON	52	B	A	Rpleas_acq	Oppo	Lpleas	2pleas	conawa_CS1_US2_confidence	conawa1_nomask	8	3	0	0	300	300	0	0	20766	guess	1	0,1302083333333428072pct	spielen	fair	freundlich	tolerant	schlau	schön	strafen	faul	fanatisch	tyrannisch	schroff	schlecht	ehrlich	helfen	loyal	lachen	treu	retten	eitel	hindern	lasch	leiden	tot	rächen	0	0	0	0	0	0	0	0	0	0	0	0	0	0	0	0	0	0	0	0	0	0	0	0	0	0	0	0	0	0
2024-05-27	12:47:05	13:04:59	1073423	6.6.1	4_exp_EVA_AWA_CON	52	B	A	Rpleas_acq	Oppo	Lpleas	2pleas	conawa_CS2_US1	conawa1_nomask	8	4	0	0	300	300	0	0	8638	spielen	1	0,1302083333333428072pct	spielen	fair	freundlich	tolerant	schlau	schön	strafen	faul	fanatisch	tyrannisch	schroff	schlecht	ehrlich	helfen	loyal	lachen	treu	retten	eitel	hindern	lasch	leiden	tot	rächen	0	0	0	0	0	0	0	0	0	0	0	0	0	0	0	0	0	0	0	0	0	0	0	0	0	0	0	0	0	0
2024-05-27	12:47:05	13:04:59	1073425	6.6.1	4_exp_EVA_AWA_CON	52	B	A	Rpleas_acq	Oppo	Lpleas	2pleas	conawa_CS2_US1_confidence	conawa1_nomask	8	4	0	0	300	300	0	0	8638	guess	1	0,1302083333333428072pct	spielen	fair	freundlich	tolerant	schlau	schön	strafen	faul	fanatisch	tyrannisch	schroff	schlecht	ehrlich	helfen	loyal	lachen	treu	retten	eitel	hindern	lasch	leiden	tot	rächen	0	0	0	0	0	0	0	0	0	0	0	0	0	0	0	0	0	0	0	0	0	0	0	0	0	0	0	0	0	0
2024-05-27	12:47:05	13:05:11	1085562	6.6.1	4_exp_EVA_AWA_CON	52	B	A	Rpleas_acq	Oppo	Lpleas	2pleas	conawa_CS2_US6	conawa1_nomask	8	5	0	0	300	300	0	0	11526	schlecht	1	0,1302083333333428072pct	spielen	fair	freundlich	tolerant	schlau	schön	strafen	faul	fanatisch	tyrannisch	schroff	schlecht	ehrlich	helfen	loyal	lachen	treu	retten	eitel	hindern	lasch	leiden	tot	rächen	0	0	0	0	0	0	0	0	0	0	0	0	0	0	0	0	0	0	0	0	0	0	0	0	0	0	0	0	0	0
2024-05-27	12:47:05	13:05:11	1085563	6.6.1	4_exp_EVA_AWA_CON	52	B	A	Rpleas_acq	Oppo	Lpleas	2pleas	conawa_CS2_US6_confidence	conawa1_nomask	8	5	0	0	300	300	0	0	11526	guess	1	0,1302083333333428072pct	spielen	fair	freundlich	tolerant	schlau	schön	strafen	faul	fanatisch	tyrannisch	schroff	schlecht	ehrlich	helfen	loyal	lachen	treu	retten	eitel	hindern	lasch	leiden	tot	rächen	0	0	0	0	0	0	0	0	0	0	0	0	0	0	0	0	0	0	0	0	0	0	0	0	0	0	0	0	0	0
2024-05-27	12:47:05	13:05:26	1099851	6.6.1	4_exp_EVA_AWA_CON	52	B	A	Rpleas_acq	Oppo	Lpleas	2pleas	conawa_CS1_US4	conawa1_nomask	8	6	0	0	300	300	0	0	13679	tyrannisch	1	0,1302083333333428072pct	spielen	fair	freundlich	tolerant	schlau	schön	strafen	faul	fanatisch	tyrannisch	schroff	schlecht	ehrlich	helfen	loyal	lachen	treu	retten	eitel	hindern	lasch	leiden	tot	rächen	0	0	0	0	0	0	0	0	0	0	0	0	0	0	0	0	0	0	0	0	0	0	0	0	0	0	0	0	0	0
2024-05-27	12:47:05	13:05:26	1099852	6.6.1	4_exp_EVA_AWA_CON	52	B	A	Rpleas_acq	Oppo	Lpleas	2pleas	conawa_CS1_US4_confidence	conawa1_nomask	8	6	0	0	300	300	0	0	13679	guess	1	0,1302083333333428072pct	spielen	fair	freundlich	tolerant	schlau	schön	strafen	faul	fanatisch	tyrannisch	schroff	schlecht	ehrlich	helfen	loyal	lachen	treu	retten	eitel	hindern	lasch	leiden	tot	rächen	0	0	0	0	0	0	0	0	0	0	0	0	0	0	0	0	0	0	0	0	0	0	0	0	0	0	0	0	0	0
2024-05-27	12:47:05	13:05:36	1110137	6.6.1	4_exp_EVA_AWA_CON	52	B	A	Rpleas_acq	Oppo	Lpleas	2pleas	conawa_CS1_US6	conawa1_nomask	8	7	0	0	300	300	0	0	9667	schön	1	0,1302083333333428072pct	spielen	fair	freundlich	tolerant	schlau	schön	strafen	faul	fanatisch	tyrannisch	schroff	schlecht	ehrlich	helfen	loyal	lachen	treu	retten	eitel	hindern	lasch	leiden	tot	rächen	0	0	0	0	0	0	0	0	0	0	0	0	0	0	0	0	0	0	0	0	0	0	0	0	0	0	0	0	0	0
2024-05-27	12:47:05	13:05:36	1110139	6.6.1	4_exp_EVA_AWA_CON	52	B	A	Rpleas_acq	Oppo	Lpleas	2pleas	conawa_CS1_US6_confidence	conawa1_nomask	8	7	0	0	300	300	0	0	9667	guess	1	0,1302083333333428072pct	spielen	fair	freundlich	tolerant	schlau	schön	strafen	faul	fanatisch	tyrannisch	schroff	schlecht	ehrlich	helfen	loyal	lachen	treu	retten	eitel	hindern	lasch	leiden	tot	rächen	0	0	0	0	0	0	0	0	0	0	0	0	0	0	0	0	0	0	0	0	0	0	0	0	0	0	0	0	0	0
2024-05-27	12:47:05	13:05:45	1118923	6.6.1	4_exp_EVA_AWA_CON	52	B	A	Rpleas_acq	Oppo	Lpleas	2pleas	conawa_CS1_US1	conawa1_nomask	8	8	0	0	300	300	0	0	8165	spielen	1	0,1302083333333428072pct	spielen	fair	freundlich	tolerant	schlau	schön	strafen	faul	fanatisch	tyrannisch	schroff	schlecht	ehrlich	helfen	loyal	lachen	treu	retten	eitel	hindern	lasch	leiden	tot	rächen	0	0	0	0	0	0	0	0	0	0	0	0	0	0	0	0	0	0	0	0	0	0	0	0	0	0	0	0	0	0
2024-05-27	12:47:05	13:05:45	1118925	6.6.1	4_exp_EVA_AWA_CON	52	B	A	Rpleas_acq	Oppo	Lpleas	2pleas	conawa_CS1_US1_confidence	conawa1_nomask	8	8	0	0	300	300	0	0	8165	guess	1	0,1302083333333428072pct	spielen	fair	freundlich	tolerant	schlau	schön	strafen	faul	fanatisch	tyrannisch	schroff	schlecht	ehrlich	helfen	loyal	lachen	treu	retten	eitel	hindern	lasch	leiden	tot	rächen	0	0	0	0	0	0	0	0	0	0	0	0	0	0	0	0	0	0	0	0	0	0	0	0	0	0	0	0	0	0
2024-05-27	12:47:05	13:05:53	1127599	6.6.1	4_exp_EVA_AWA_CON	52	B	A	Rpleas_acq	Oppo	Lpleas	2pleas	conawa_CS1_US5	conawa1_nomask	8	9	0	0	300	300	0	0	8060	schroff	1	0,1302083333333428072pct	spielen	fair	freundlich	tolerant	schlau	schön	strafen	faul	fanatisch	tyrannisch	schroff	schlecht	ehrlich	helfen	loyal	lachen	treu	retten	eitel	hindern	lasch	leiden	tot	rächen	0	0	0	0	0	0	0	0	0	0	0	0	0	0	0	0	0	0	0	0	0	0	0	0	0	0	0	0	0	0
2024-05-27	12:47:05	13:05:53	1127601	6.6.1	4_exp_EVA_AWA_CON	52	B	A	Rpleas_acq	Oppo	Lpleas	2pleas	conawa_CS1_US5_confidence	conawa1_nomask	8	9	0	0	300	300	0	0	8060	guess	1	0,1302083333333428072pct	spielen	fair	freundlich	tolerant	schlau	schön	strafen	faul	fanatisch	tyrannisch	schroff	schlecht	ehrlich	helfen	loyal	lachen	treu	retten	eitel	hindern	lasch	leiden	tot	rächen	0	0	0	0	0	0	0	0	0	0	0	0	0	0	0	0	0	0	0	0	0	0	0	0	0	0	0	0	0	0
2024-05-27	12:47:05	13:06:02	1136255	6.6.1	4_exp_EVA_AWA_CON	52	B	A	Rpleas_acq	Oppo	Lpleas	2pleas	conawa_CS2_US4	conawa1_nomask	8	10	0	0	300	300	0	0	8042	tyrannisch	1	0,1302083333333428072pct	spielen	fair	freundlich	tolerant	schlau	schön	strafen	faul	fanatisch	tyrannisch	schroff	schlecht	ehrlich	helfen	loyal	lachen	treu	retten	eitel	hindern	lasch	leiden	tot	rächen	0	0	0	0	0	0	0	0	0	0	0	0	0	0	0	0	0	0	0	0	0	0	0	0	0	0	0	0	0	0
2024-05-27	12:47:05	13:06:02	1136256	6.6.1	4_exp_EVA_AWA_CON	52	B	A	Rpleas_acq	Oppo	Lpleas	2pleas	conawa_CS2_US4_confidence	conawa1_nomask	8	10	0	0	300	300	0	0	8042	guess	1	0,1302083333333428072pct	spielen	fair	freundlich	tolerant	schlau	schön	strafen	faul	fanatisch	tyrannisch	schroff	schlecht	ehrlich	helfen	loyal	lachen	treu	retten	eitel	hindern	lasch	leiden	tot	rächen	0	0	0	0	0	0	0	0	0	0	0	0	0	0	0	0	0	0	0	0	0	0	0	0	0	0	0	0	0	0
2024-05-27	12:47:05	13:06:09	1142689	6.6.1	4_exp_EVA_AWA_CON	52	B	A	Rpleas_acq	Oppo	Lpleas	2pleas	conawa_CS2_US3	conawa1_nomask	8	11	0	0	300	300	0	0	5817	fanatisch	1	0,1302083333333428072pct	spielen	fair	freundlich	tolerant	schlau	schön	strafen	faul	fanatisch	tyrannisch	schroff	schlecht	ehrlich	helfen	loyal	lachen	treu	retten	eitel	hindern	lasch	leiden	tot	rächen	0	0	0	0	0	0	0	0	0	0	0	0	0	0	0	0	0	0	0	0	0	0	0	0	0	0	0	0	0	0
2024-05-27	12:47:05	13:06:09	1142690	6.6.1	4_exp_EVA_AWA_CON	52	B	A	Rpleas_acq	Oppo	Lpleas	2pleas	conawa_CS2_US3_confidence	conawa1_nomask	8	11	0	0	300	300	0	0	5817	guess	1	0,1302083333333428072pct	spielen	fair	freundlich	tolerant	schlau	schön	strafen	faul	fanatisch	tyrannisch	schroff	schlecht	ehrlich	helfen	loyal	lachen	treu	retten	eitel	hindern	lasch	leiden	tot	rächen	0	0	0	0	0	0	0	0	0	0	0	0	0	0	0	0	0	0	0	0	0	0	0	0	0	0	0	0	0	0
2024-05-27	12:47:05	13:06:14	1148242	6.6.1	4_exp_EVA_AWA_CON	52	B	A	Rpleas_acq	Oppo	Lpleas	2pleas	conawa_CS1_US3	conawa1_nomask	8	12	0	0	300	300	0	0	4943	fanatisch	1	0,1302083333333428072pct	spielen	fair	freundlich	tolerant	schlau	schön	strafen	faul	fanatisch	tyrannisch	schroff	schlecht	ehrlich	helfen	loyal	lachen	treu	retten	eitel	hindern	lasch	leiden	tot	rächen	0	0	0	0	0	0	0	0	0	0	0	0	0	0	0	0	0	0	0	0	0	0	0	0	0	0	0	0	0	0
2024-05-27	12:47:05	13:06:14	1148244	6.6.1	4_exp_EVA_AWA_CON	52	B	A	Rpleas_acq	Oppo	Lpleas	2pleas	conawa_CS1_US3_confidence	conawa1_nomask	8	12	0	0	300	300	0	0	4943	guess	1	0,1302083333333428072pct	spielen	fair	freundlich	tolerant	schlau	schön	strafen	faul	fanatisch	tyrannisch	schroff	schlecht	ehrlich	helfen	loyal	lachen	treu	retten	eitel	hindern	lasch	leiden	tot	rächen	0	0	0	0	0	0	0	0	0	0	0	0	0	0	0	0	0	0	0	0	0	0	0	0	0	0	0	0	0	0
2024-05-27	12:47:05	13:08:29	1282657	6.6.1	4_exp_EVA_AWA_CON	52	B	A	Rpleas_acq	Oppo	Lpleas	2pleas	cond_new_unple_456_nomask_CS2	condtest_nomask_1	11	1	400	0	300	300	0	0	607	46	0	0,1302083333333428072pct	spielen	fair	freundlich	tolerant	schlau	schön	strafen	faul	fanatisch	tyrannisch	schroff	schlecht	ehrlich	helfen	loyal	lachen	treu	retten	eitel	hindern	lasch	leiden	tot	rächen	1	blank2r.bmp	0	1	+	0	1	blank2r.bmp	500	1	GKQX	500	1	blank2r.bmp	880	1	rächen	880	1	!	1233	1	!	-1	0	0	0	0	0	0
2024-05-27	12:47:05	13:08:31	1285009	6.6.1	4_exp_EVA_AWA_CON	52	B	A	Rpleas_acq	Oppo	Lpleas	2pleas	cond_US_pleas_123_nomask_CS2	condtest_nomask_1	11	2	400	0	300	300	0	0	578	46	1	0,1302083333333428072pct	spielen	fair	freundlich	tolerant	schlau	schön	strafen	faul	fanatisch	tyrannisch	schroff	schlecht	ehrlich	helfen	loyal	lachen	treu	retten	eitel	hindern	lasch	leiden	tot	rächen	1	blank2r.bmp	0	1	+	0	1	blank2r.bmp	500	1	GKQX	500	1	blank2r.bmp	880	1	freundlich	880	1	!	1233	1	!	-1	0	0	0	0	0	0
2024-05-27	12:47:05	13:08:33	1287263	6.6.1	4_exp_EVA_AWA_CON	52	B	A	Rpleas_acq	Oppo	Lpleas	2pleas	cond_new_pleas_456_nomask_CS2	condtest_nomask_1	11	3	400	0	300	300	0	0	482	46	1	0,1302083333333428072pct	spielen	fair	freundlich	tolerant	schlau	schön	strafen	faul	fanatisch	tyrannisch	schroff	schlecht	ehrlich	helfen	loyal	lachen	treu	retten	eitel	hindern	lasch	leiden	tot	rächen	1	blank2r.bmp	0	1	+	0	1	blank2r.bmp	500	1	GKQX	500	1	blank2r.bmp	880	2	lachen	880	1	!	1232	1	!	-1	0	0	0	0	0	0
2024-05-27	12:47:05	13:08:35	1289649	6.6.1	4_exp_EVA_AWA_CON	52	B	A	Rpleas_acq	Oppo	Lpleas	2pleas	cond_US_pleas_123_nomask_CS1	condtest_nomask_1	11	4	400	0	300	300	0	0	604	46	1	0,1302083333333428072pct	spielen	fair	freundlich	tolerant	schlau	schön	strafen	faul	fanatisch	tyrannisch	schroff	schlecht	ehrlich	helfen	loyal	lachen	treu	retten	eitel	hindern	lasch	leiden	tot	rächen	1	blank2r.bmp	0	1	+	0	1	blank2r.bmp	500	1	BMVZ	500	1	blank2r.bmp	880	1	spielen	880	1	!	1232	1	!	-1	0	0	0	0	0	0
2024-05-27	12:47:05	13:08:38	1291977	6.6.1	4_exp_EVA_AWA_CON	52	B	A	Rpleas_acq	Oppo	Lpleas	2pleas	cond_new_unple_456_nomask_CS1	condtest_nomask_1	11	5	400	0	300	300	0	0	551	46	0	0,1302083333333428072pct	spielen	fair	freundlich	tolerant	schlau	schön	strafen	faul	fanatisch	tyrannisch	schroff	schlecht	ehrlich	helfen	loyal	lachen	treu	retten	eitel	hindern	lasch	leiden	tot	rächen	1	blank2r.bmp	0	1	+	0	1	blank2r.bmp	500	1	BMVZ	500	1	blank2r.bmp	880	1	leiden	880	1	!	1233	1	!	-1	0	0	0	0	0	0
2024-05-27	12:47:05	13:08:40	1294305	6.6.1	4_exp_EVA_AWA_CON	52	B	A	Rpleas_acq	Oppo	Lpleas	2pleas	cond_US_unple_123_nomask_CS1	condtest_nomask_1	11	6	400	0	300	300	0	0	547	50	1	0,1302083333333428072pct	spielen	fair	freundlich	tolerant	schlau	schön	strafen	faul	fanatisch	tyrannisch	schroff	schlecht	ehrlich	helfen	loyal	lachen	treu	retten	eitel	hindern	lasch	leiden	tot	rächen	1	blank2r.bmp	0	1	+	0	1	blank2r.bmp	500	1	BMVZ	500	1	blank2r.bmp	880	3	fanatisch	880	1	!	1232	1	!	-1	0	0	0	0	0	0
2024-05-27	12:47:05	13:08:43	1296713	6.6.1	4_exp_EVA_AWA_CON	52	B	A	Rpleas_acq	Oppo	Lpleas	2pleas	cond_US_unple_123_nomask_CS2	condtest_nomask_1	11	7	400	0	300	300	0	0	634	50	1	0,1302083333333428072pct	spielen	fair	freundlich	tolerant	schlau	schön	strafen	faul	fanatisch	tyrannisch	schroff	schlecht	ehrlich	helfen	loyal	lachen	treu	retten	eitel	hindern	lasch	leiden	tot	rächen	1	blank2r.bmp	0	1	+	0	1	blank2r.bmp	500	1	GKQX	500	1	blank2r.bmp	880	1	fanatisch	880	1	!	1232	1	!	-1	0	0	0	0	0	0
2024-05-27	12:47:05	13:08:45	1299105	6.6.1	4_exp_EVA_AWA_CON	52	B	A	Rpleas_acq	Oppo	Lpleas	2pleas	cond_new_pleas_456_nomask_CS1	condtest_nomask_1	11	8	400	0	300	300	0	0	614	46	1	0,1302083333333428072pct	spielen	fair	freundlich	tolerant	schlau	schön	strafen	faul	fanatisch	tyrannisch	schroff	schlecht	ehrlich	helfen	loyal	lachen	treu	retten	eitel	hindern	lasch	leiden	tot	rächen	1	blank2r.bmp	0	1	+	0	1	blank2r.bmp	500	1	BMVZ	500	1	blank2r.bmp	880	2	treu	880	1	!	1233	1	!	-1	0	0	0	0	0	0
2024-05-27	12:47:05	13:09:06	1320009	6.6.1	4_exp_EVA_AWA_CON	52	B	A	Rpleas_acq	Oppo	Lpleas	2pleas	cond_US_pleas_123_nomask_CS2	condtest_nomask_2	12	1	400	0	300	300	0	0	535	46	1	0,1302083333333428072pct	spielen	fair	freundlich	tolerant	schlau	schön	strafen	faul	fanatisch	tyrannisch	schroff	schlecht	ehrlich	helfen	loyal	lachen	treu	retten	eitel	hindern	lasch	leiden	tot	rächen	1	blank2r.bmp	0	1	+	0	1	blank2r.bmp	500	1	GKQX	500	1	blank2r.bmp	880	2	spielen	880	1	!	1232	1	!	-1	0	0	0	0	0	0
