date	time	currenttime	elapsedtime	build	currentexpt	subject	CS_AB	US_AB	LRpleas_acq	SameOppo	condition_Lpleas	condition_1pleas	trialcode	blockcode	blocknum	trialnum	windowcenter	inwindow	pretrialpause	posttrialpause	trialduration	trialtimeout	latency	response	correct	correctedscore	US_nomask_pleas1	US_nomask_pleas2	US_nomask_pleas3	US_nomask_pleas4	US_nomask_pleas5	US_nomask_pleas6	US_nomask_unple1	US_nomask_unple2	US_nomask_unple3	US_nomask_unple4	US_nomask_unple5	US_nomask_unple6	new_nomask_pleas1	new_nomask_pleas2	new_nomask_pleas3	new_nomask_pleas4	new_nomask_pleas5	new_nomask_pleas6	new_nomask_unple1	new_nomask_unple2	new_nomask_unple3	new_nomask_unple4	new_nomask_unple5	new_nomask_unple6	stimulusnumber1	stimulusitem1	stimulusonset1	stimulusnumber2	stimulusitem2	stimulusonset2	stimulusnumber3	stimulusitem3	stimulusonset3	stimulusnumber4	stimulusitem4	stimulusonset4	stimulusnumber5	stimulusitem5	stimulusonset5	stimulusnumber6	stimulusitem6	stimulusonset6	stimulusnumber7	stimulusitem7	stimulusonset7	stimulusnumber8	stimulusitem8	stimulusonset8	stimulusnumber9	stimulusitem9	stimulusonset9	stimulusnumber10	stimulusitem10	stimulusonset10
2024-06-05	11:37:24	11:39:31	126814	6.6.1	4_exp_EVA_AWA_CON	68	B	A	Rpleas_acq	Oppo	Rpleas	2pleas	acq_US_unple_nomask	acq1_nomask	1	1	0	0	300	300	0	0	1438	46	1	0	schlau	lachen	schön	loyal	spielen	retten	schroff	leiden	schlecht	lasch	strafen	rächen	helfen	treu	ehrlich	fair	tolerant	freundlich	hindern	tot	eitel	faul	tyrannisch	fanatisch	1	blank2r.bmp	0	1	+	0	1	blank2r.bmp	500	1	BMVZ	500	1	blank2r.bmp	880	6	rächen	880	0	0	0	0	0	0	0	0	0	0	0	0
2024-06-05	11:37:24	11:39:34	129334	6.6.1	4_exp_EVA_AWA_CON	68	B	A	Rpleas_acq	Oppo	Rpleas	2pleas	acq_US_unple_nomask	acq1_nomask	1	2	0	0	300	300	0	0	1036	46	1	0	schlau	lachen	schön	loyal	spielen	retten	schroff	leiden	schlecht	lasch	strafen	rächen	helfen	treu	ehrlich	fair	tolerant	freundlich	hindern	tot	eitel	faul	tyrannisch	fanatisch	1	blank2r.bmp	0	1	+	0	1	blank2r.bmp	500	1	BMVZ	500	1	blank2r.bmp	880	1	schroff	880	0	0	0	0	0	0	0	0	0	0	0	0
2024-06-05	11:37:24	11:39:36	131926	6.6.1	4_exp_EVA_AWA_CON	68	B	A	Rpleas_acq	Oppo	Rpleas	2pleas	acq_new_pleas_nomask	acq1_nomask	1	3	0	0	300	300	0	0	1106	50	1	0	schlau	lachen	schön	loyal	spielen	retten	schroff	leiden	schlecht	lasch	strafen	rächen	helfen	treu	ehrlich	fair	tolerant	freundlich	hindern	tot	eitel	faul	tyrannisch	fanatisch	1	blank2r.bmp	0	1	+	0	1	blank2r.bmp	500	2	B2r.bmp	500	1	blank2r.bmp	880	5	tolerant	880	0	0	0	0	0	0	0	0	0	0	0	0
2024-06-05	11:37:24	11:39:39	134270	6.6.1	4_exp_EVA_AWA_CON	68	B	A	Rpleas_acq	Oppo	Rpleas	2pleas	acq_US_pleas_nomask	acq1_nomask	1	4	0	0	300	300	0	0	859	50	1	0	schlau	lachen	schön	loyal	spielen	retten	schroff	leiden	schlecht	lasch	strafen	rächen	helfen	treu	ehrlich	fair	tolerant	freundlich	hindern	tot	eitel	faul	tyrannisch	fanatisch	1	blank2r.bmp	0	1	+	0	1	blank2r.bmp	500	1	GKQX	500	1	blank2r.bmp	880	4	loyal	880	0	0	0	0	0	0	0	0	0	0	0	0
2024-06-05	11:37:24	11:39:41	136654	6.6.1	4_exp_EVA_AWA_CON	68	B	A	Rpleas_acq	Oppo	Rpleas	2pleas	acq_new_unple_nomask	acq1_nomask	1	5	0	0	300	300	0	0	901	46	1	0	schlau	lachen	schön	loyal	spielen	retten	schroff	leiden	schlecht	lasch	strafen	rächen	helfen	treu	ehrlich	fair	tolerant	freundlich	hindern	tot	eitel	faul	tyrannisch	fanatisch	1	blank2r.bmp	0	1	+	0	1	blank2r.bmp	500	1	B1r.bmp	500	1	blank2r.bmp	880	4	faul	880	0	0	0	0	0	0	0	0	0	0	0	0
2024-06-05	11:37:24	11:39:43	139038	6.6.1	4_exp_EVA_AWA_CON	68	B	A	Rpleas_acq	Oppo	Rpleas	2pleas	acq_US_pleas_nomask	acq1_nomask	1	6	0	0	300	300	0	0	904	50	1	0	schlau	lachen	schön	loyal	spielen	retten	schroff	leiden	schlecht	lasch	strafen	rächen	helfen	treu	ehrlich	fair	tolerant	freundlich	hindern	tot	eitel	faul	tyrannisch	fanatisch	1	blank2r.bmp	0	1	+	0	1	blank2r.bmp	500	1	GKQX	500	1	blank2r.bmp	880	2	lachen	880	0	0	0	0	0	0	0	0	0	0	0	0
2024-06-05	11:37:24	11:39:46	141277	6.6.1	4_exp_EVA_AWA_CON	68	B	A	Rpleas_acq	Oppo	Rpleas	2pleas	acq_US_unple_nomask	acq1_nomask	1	7	0	0	300	300	0	0	752	46	1	0	schlau	lachen	schön	loyal	spielen	retten	schroff	leiden	schlecht	lasch	strafen	rächen	helfen	treu	ehrlich	fair	tolerant	freundlich	hindern	tot	eitel	faul	tyrannisch	fanatisch	1	blank2r.bmp	0	1	+	0	1	blank2r.bmp	500	1	BMVZ	500	1	blank2r.bmp	880	4	lasch	880	0	0	0	0	0	0	0	0	0	0	0	0
2024-06-05	11:37:24	11:39:48	143278	6.6.1	4_exp_EVA_AWA_CON	68	B	A	Rpleas_acq	Oppo	Rpleas	2pleas	acq_new_pleas_nomask	acq1_nomask	1	8	0	0	300	300	0	0	511	50	1	0	schlau	lachen	schön	loyal	spielen	retten	schroff	leiden	schlecht	lasch	strafen	rächen	helfen	treu	ehrlich	fair	tolerant	freundlich	hindern	tot	eitel	faul	tyrannisch	fanatisch	1	blank2r.bmp	0	1	+	0	1	blank2r.bmp	500	8	C4r.bmp	500	1	blank2r.bmp	880	2	treu	880	0	0	0	0	0	0	0	0	0	0	0	0
2024-06-05	11:37:24	11:39:51	146478	6.6.1	4_exp_EVA_AWA_CON	68	B	A	Rpleas_acq	Oppo	Rpleas	2pleas	acq_new_unple_nomask	acq1_nomask	1	9	0	0	300	300	0	0	1719	46	1	0	schlau	lachen	schön	loyal	spielen	retten	schroff	leiden	schlecht	lasch	strafen	rächen	helfen	treu	ehrlich	fair	tolerant	freundlich	hindern	tot	eitel	faul	tyrannisch	fanatisch	1	blank2r.bmp	0	1	+	0	1	blank2r.bmp	500	6	C2r.bmp	500	1	blank2r.bmp	880	3	eitel	880	0	0	0	0	0	0	0	0	0	0	0	0
2024-06-05	11:37:24	11:39:53	149158	6.6.1	4_exp_EVA_AWA_CON	68	B	A	Rpleas_acq	Oppo	Rpleas	2pleas	acq_new_unple_nomask	acq1_nomask	1	10	0	0	300	300	0	0	1197	46	1	0	schlau	lachen	schön	loyal	spielen	retten	schroff	leiden	schlecht	lasch	strafen	rächen	helfen	treu	ehrlich	fair	tolerant	freundlich	hindern	tot	eitel	faul	tyrannisch	fanatisch	1	blank2r.bmp	0	1	+	0	1	blank2r.bmp	500	7	C3r.bmp	500	1	blank2r.bmp	880	6	fanatisch	880	0	0	0	0	0	0	0	0	0	0	0	0
2024-06-05	11:37:24	11:39:55	151174	6.6.1	4_exp_EVA_AWA_CON	68	B	A	Rpleas_acq	Oppo	Rpleas	2pleas	acq_new_pleas_nomask	acq1_nomask	1	11	0	0	300	300	0	0	531	50	1	0	schlau	lachen	schön	loyal	spielen	retten	schroff	leiden	schlecht	lasch	strafen	rächen	helfen	treu	ehrlich	fair	tolerant	freundlich	hindern	tot	eitel	faul	tyrannisch	fanatisch	1	blank2r.bmp	0	1	+	0	1	blank2r.bmp	500	5	C1r.bmp	500	1	blank2r.bmp	880	6	freundlich	880	0	0	0	0	0	0	0	0	0	0	0	0
2024-06-05	11:37:24	11:39:58	153421	6.6.1	4_exp_EVA_AWA_CON	68	B	A	Rpleas_acq	Oppo	Rpleas	2pleas	acq_US_pleas_nomask	acq1_nomask	1	12	0	0	300	300	0	0	758	50	1	0	schlau	lachen	schön	loyal	spielen	retten	schroff	leiden	schlecht	lasch	strafen	rächen	helfen	treu	ehrlich	fair	tolerant	freundlich	hindern	tot	eitel	faul	tyrannisch	fanatisch	1	blank2r.bmp	0	1	+	0	1	blank2r.bmp	500	1	GKQX	500	1	blank2r.bmp	880	3	schön	880	0	0	0	0	0	0	0	0	0	0	0	0
2024-06-05	11:37:24	11:40:00	155526	6.6.1	4_exp_EVA_AWA_CON	68	B	A	Rpleas_acq	Oppo	Rpleas	2pleas	acq_new_unple_nomask	acq1_nomask	1	13	0	0	300	300	0	0	621	46	1	0	schlau	lachen	schön	loyal	spielen	retten	schroff	leiden	schlecht	lasch	strafen	rächen	helfen	treu	ehrlich	fair	tolerant	freundlich	hindern	tot	eitel	faul	tyrannisch	fanatisch	1	blank2r.bmp	0	1	+	0	1	blank2r.bmp	500	4	B4r.bmp	500	1	blank2r.bmp	880	5	tyrannisch	880	0	0	0	0	0	0	0	0	0	0	0	0
2024-06-05	11:37:24	11:40:02	157582	6.6.1	4_exp_EVA_AWA_CON	68	B	A	Rpleas_acq	Oppo	Rpleas	2pleas	acq_US_unple_nomask	acq1_nomask	1	14	0	0	300	300	0	0	575	46	1	0	schlau	lachen	schön	loyal	spielen	retten	schroff	leiden	schlecht	lasch	strafen	rächen	helfen	treu	ehrlich	fair	tolerant	freundlich	hindern	tot	eitel	faul	tyrannisch	fanatisch	1	blank2r.bmp	0	1	+	0	1	blank2r.bmp	500	1	BMVZ	500	1	blank2r.bmp	880	5	strafen	880	0	0	0	0	0	0	0	0	0	0	0	0
2024-06-05	11:37:24	11:40:04	159670	6.6.1	4_exp_EVA_AWA_CON	68	B	A	Rpleas_acq	Oppo	Rpleas	2pleas	acq_US_unple_nomask	acq1_nomask	1	15	0	0	300	300	0	0	602	46	1	0	schlau	lachen	schön	loyal	spielen	retten	schroff	leiden	schlecht	lasch	strafen	rächen	helfen	treu	ehrlich	fair	tolerant	freundlich	hindern	tot	eitel	faul	tyrannisch	fanatisch	1	blank2r.bmp	0	1	+	0	1	blank2r.bmp	500	1	BMVZ	500	1	blank2r.bmp	880	2	leiden	880	0	0	0	0	0	0	0	0	0	0	0	0
2024-06-05	11:37:24	11:40:06	161782	6.6.1	4_exp_EVA_AWA_CON	68	B	A	Rpleas_acq	Oppo	Rpleas	2pleas	acq_new_unple_nomask	acq1_nomask	1	16	0	0	300	300	0	0	623	46	1	0	schlau	lachen	schön	loyal	spielen	retten	schroff	leiden	schlecht	lasch	strafen	rächen	helfen	treu	ehrlich	fair	tolerant	freundlich	hindern	tot	eitel	faul	tyrannisch	fanatisch	1	blank2r.bmp	0	1	+	0	1	blank2r.bmp	500	3	B3r.bmp	500	1	blank2r.bmp	880	1	hindern	880	0	0	0	0	0	0	0	0	0	0	0	0
2024-06-05	11:37:24	11:40:08	163838	6.6.1	4_exp_EVA_AWA_CON	68	B	A	Rpleas_acq	Oppo	Rpleas	2pleas	acq_new_unple_nomask	acq1_nomask	1	17	0	0	300	300	0	0	567	46	1	0	schlau	lachen	schön	loyal	spielen	retten	schroff	leiden	schlecht	lasch	strafen	rächen	helfen	treu	ehrlich	fair	tolerant	freundlich	hindern	tot	eitel	faul	tyrannisch	fanatisch	1	blank2r.bmp	0	1	+	0	1	blank2r.bmp	500	5	C1r.bmp	500	1	blank2r.bmp	880	2	tot	880	0	0	0	0	0	0	0	0	0	0	0	0
2024-06-05	11:37:24	11:40:10	166134	6.6.1	4_exp_EVA_AWA_CON	68	B	A	Rpleas_acq	Oppo	Rpleas	2pleas	acq_US_pleas_nomask	acq1_nomask	1	18	0	0	300	300	0	0	812	50	1	0	schlau	lachen	schön	loyal	spielen	retten	schroff	leiden	schlecht	lasch	strafen	rächen	helfen	treu	ehrlich	fair	tolerant	freundlich	hindern	tot	eitel	faul	tyrannisch	fanatisch	1	blank2r.bmp	0	1	+	0	1	blank2r.bmp	500	1	GKQX	500	1	blank2r.bmp	880	6	retten	880	0	0	0	0	0	0	0	0	0	0	0	0
2024-06-05	11:37:24	11:40:13	168278	6.6.1	4_exp_EVA_AWA_CON	68	B	A	Rpleas_acq	Oppo	Rpleas	2pleas	acq_US_pleas_nomask	acq1_nomask	1	19	0	0	300	300	0	0	655	50	1	0	schlau	lachen	schön	loyal	spielen	retten	schroff	leiden	schlecht	lasch	strafen	rächen	helfen	treu	ehrlich	fair	tolerant	freundlich	hindern	tot	eitel	faul	tyrannisch	fanatisch	1	blank2r.bmp	0	1	+	0	1	blank2r.bmp	500	1	GKQX	500	1	blank2r.bmp	880	5	spielen	880	0	0	0	0	0	0	0	0	0	0	0	0
2024-06-05	11:37:24	11:40:15	170358	6.6.1	4_exp_EVA_AWA_CON	68	B	A	Rpleas_acq	Oppo	Rpleas	2pleas	acq_US_unple_nomask	acq1_nomask	1	20	0	0	300	300	0	0	593	46	1	0	schlau	lachen	schön	loyal	spielen	retten	schroff	leiden	schlecht	lasch	strafen	rächen	helfen	treu	ehrlich	fair	tolerant	freundlich	hindern	tot	eitel	faul	tyrannisch	fanatisch	1	blank2r.bmp	0	1	+	0	1	blank2r.bmp	500	1	BMVZ	500	1	blank2r.bmp	880	3	schlecht	880	0	0	0	0	0	0	0	0	0	0	0	0
2024-06-05	11:37:24	11:40:17	172486	6.6.1	4_exp_EVA_AWA_CON	68	B	A	Rpleas_acq	Oppo	Rpleas	2pleas	acq_US_pleas_nomask	acq1_nomask	1	21	0	0	300	300	0	0	640	50	1	0	schlau	lachen	schön	loyal	spielen	retten	schroff	leiden	schlecht	lasch	strafen	rächen	helfen	treu	ehrlich	fair	tolerant	freundlich	hindern	tot	eitel	faul	tyrannisch	fanatisch	1	blank2r.bmp	0	1	+	0	1	blank2r.bmp	500	1	GKQX	500	1	blank2r.bmp	880	1	schlau	880	0	0	0	0	0	0	0	0	0	0	0	0
2024-06-05	11:37:24	11:40:19	174598	6.6.1	4_exp_EVA_AWA_CON	68	B	A	Rpleas_acq	Oppo	Rpleas	2pleas	acq_new_pleas_nomask	acq1_nomask	1	22	0	0	300	300	0	0	630	50	1	0	schlau	lachen	schön	loyal	spielen	retten	schroff	leiden	schlecht	lasch	strafen	rächen	helfen	treu	ehrlich	fair	tolerant	freundlich	hindern	tot	eitel	faul	tyrannisch	fanatisch	1	blank2r.bmp	0	1	+	0	1	blank2r.bmp	500	3	B3r.bmp	500	1	blank2r.bmp	880	1	helfen	880	0	0	0	0	0	0	0	0	0	0	0	0
2024-06-05	11:37:24	11:40:21	176798	6.6.1	4_exp_EVA_AWA_CON	68	B	A	Rpleas_acq	Oppo	Rpleas	2pleas	acq_new_pleas_nomask	acq1_nomask	1	23	0	0	300	300	0	0	719	50	1	0	schlau	lachen	schön	loyal	spielen	retten	schroff	leiden	schlecht	lasch	strafen	rächen	helfen	treu	ehrlich	fair	tolerant	freundlich	hindern	tot	eitel	faul	tyrannisch	fanatisch	1	blank2r.bmp	0	1	+	0	1	blank2r.bmp	500	8	C4r.bmp	500	1	blank2r.bmp	880	3	ehrlich	880	0	0	0	0	0	0	0	0	0	0	0	0
2024-06-05	11:37:24	11:40:23	178990	6.6.1	4_exp_EVA_AWA_CON	68	B	A	Rpleas_acq	Oppo	Rpleas	2pleas	acq_new_pleas_nomask	acq1_nomask	1	24	0	0	300	300	0	0	710	50	1	0	schlau	lachen	schön	loyal	spielen	retten	schroff	leiden	schlecht	lasch	strafen	rächen	helfen	treu	ehrlich	fair	tolerant	freundlich	hindern	tot	eitel	faul	tyrannisch	fanatisch	1	blank2r.bmp	0	1	+	0	1	blank2r.bmp	500	2	B2r.bmp	500	1	blank2r.bmp	880	4	fair	880	0	0	0	0	0	0	0	0	0	0	0	0
2024-06-05	11:37:24	11:40:25	181045	6.6.1	4_exp_EVA_AWA_CON	68	B	A	Rpleas_acq	Oppo	Rpleas	2pleas	acq_US_pleas_nomask	acq1_nomask	1	25	0	0	300	300	0	0	574	50	1	0	schlau	lachen	schön	loyal	spielen	retten	schroff	leiden	schlecht	lasch	strafen	rächen	helfen	treu	ehrlich	fair	tolerant	freundlich	hindern	tot	eitel	faul	tyrannisch	fanatisch	1	blank2r.bmp	0	1	+	0	1	blank2r.bmp	500	1	GKQX	500	1	blank2r.bmp	880	2	lachen	880	0	0	0	0	0	0	0	0	0	0	0	0
2024-06-05	11:37:24	11:40:28	183374	6.6.1	4_exp_EVA_AWA_CON	68	B	A	Rpleas_acq	Oppo	Rpleas	2pleas	acq_new_unple_nomask	acq1_nomask	1	26	0	0	300	300	0	0	841	46	1	0	schlau	lachen	schön	loyal	spielen	retten	schroff	leiden	schlecht	lasch	strafen	rächen	helfen	treu	ehrlich	fair	tolerant	freundlich	hindern	tot	eitel	faul	tyrannisch	fanatisch	1	blank2r.bmp	0	1	+	0	1	blank2r.bmp	500	1	B1r.bmp	500	1	blank2r.bmp	880	3	eitel	880	0	0	0	0	0	0	0	0	0	0	0	0
2024-06-05	11:37:24	11:40:30	185718	6.6.1	4_exp_EVA_AWA_CON	68	B	A	Rpleas_acq	Oppo	Rpleas	2pleas	acq_new_pleas_nomask	acq1_nomask	1	27	0	0	300	300	0	0	863	50	1	0	schlau	lachen	schön	loyal	spielen	retten	schroff	leiden	schlecht	lasch	strafen	rächen	helfen	treu	ehrlich	fair	tolerant	freundlich	hindern	tot	eitel	faul	tyrannisch	fanatisch	1	blank2r.bmp	0	1	+	0	1	blank2r.bmp	500	4	B4r.bmp	500	1	blank2r.bmp	880	5	tolerant	880	0	0	0	0	0	0	0	0	0	0	0	0
2024-06-05	11:37:24	11:40:32	187757	6.6.1	4_exp_EVA_AWA_CON	68	B	A	Rpleas_acq	Oppo	Rpleas	2pleas	acq_US_pleas_nomask	acq1_nomask	1	28	0	0	300	300	0	0	552	50	1	0	schlau	lachen	schön	loyal	spielen	retten	schroff	leiden	schlecht	lasch	strafen	rächen	helfen	treu	ehrlich	fair	tolerant	freundlich	hindern	tot	eitel	faul	tyrannisch	fanatisch	1	blank2r.bmp	0	1	+	0	1	blank2r.bmp	500	1	GKQX	500	1	blank2r.bmp	880	4	loyal	880	0	0	0	0	0	0	0	0	0	0	0	0
2024-06-05	11:37:24	11:40:34	189838	6.6.1	4_exp_EVA_AWA_CON	68	B	A	Rpleas_acq	Oppo	Rpleas	2pleas	acq_new_pleas_nomask	acq1_nomask	1	29	0	0	300	300	0	0	591	50	1	0	schlau	lachen	schön	loyal	spielen	retten	schroff	leiden	schlecht	lasch	strafen	rächen	helfen	treu	ehrlich	fair	tolerant	freundlich	hindern	tot	eitel	faul	tyrannisch	fanatisch	1	blank2r.bmp	0	1	+	0	1	blank2r.bmp	500	7	C3r.bmp	500	1	blank2r.bmp	880	2	treu	880	0	0	0	0	0	0	0	0	0	0	0	0
2024-06-05	11:37:24	11:40:36	191950	6.6.1	4_exp_EVA_AWA_CON	68	B	A	Rpleas_acq	Oppo	Rpleas	2pleas	acq_US_unple_nomask	acq1_nomask	1	30	0	0	300	300	0	0	631	46	1	0	schlau	lachen	schön	loyal	spielen	retten	schroff	leiden	schlecht	lasch	strafen	rächen	helfen	treu	ehrlich	fair	tolerant	freundlich	hindern	tot	eitel	faul	tyrannisch	fanatisch	1	blank2r.bmp	0	1	+	0	1	blank2r.bmp	500	1	BMVZ	500	1	blank2r.bmp	880	4	lasch	880	0	0	0	0	0	0	0	0	0	0	0	0
2024-06-05	11:37:24	11:40:38	193990	6.6.1	4_exp_EVA_AWA_CON	68	B	A	Rpleas_acq	Oppo	Rpleas	2pleas	acq_new_unple_nomask	acq1_nomask	1	31	0	0	300	300	0	0	550	46	1	0	schlau	lachen	schön	loyal	spielen	retten	schroff	leiden	schlecht	lasch	strafen	rächen	helfen	treu	ehrlich	fair	tolerant	freundlich	hindern	tot	eitel	faul	tyrannisch	fanatisch	1	blank2r.bmp	0	1	+	0	1	blank2r.bmp	500	6	C2r.bmp	500	1	blank2r.bmp	880	2	tot	880	0	0	0	0	0	0	0	0	0	0	0	0
2024-06-05	11:37:24	11:40:40	195990	6.6.1	4_exp_EVA_AWA_CON	68	B	A	Rpleas_acq	Oppo	Rpleas	2pleas	acq_new_unple_nomask	acq1_nomask	1	32	0	0	300	300	0	0	518	46	1	0	schlau	lachen	schön	loyal	spielen	retten	schroff	leiden	schlecht	lasch	strafen	rächen	helfen	treu	ehrlich	fair	tolerant	freundlich	hindern	tot	eitel	faul	tyrannisch	fanatisch	1	blank2r.bmp	0	1	+	0	1	blank2r.bmp	500	4	B4r.bmp	500	1	blank2r.bmp	880	1	hindern	880	0	0	0	0	0	0	0	0	0	0	0	0
2024-06-05	11:37:24	11:40:42	198150	6.6.1	4_exp_EVA_AWA_CON	68	B	A	Rpleas_acq	Oppo	Rpleas	2pleas	acq_US_pleas_nomask	acq1_nomask	1	33	0	0	300	300	0	0	677	50	1	0	schlau	lachen	schön	loyal	spielen	retten	schroff	leiden	schlecht	lasch	strafen	rächen	helfen	treu	ehrlich	fair	tolerant	freundlich	hindern	tot	eitel	faul	tyrannisch	fanatisch	1	blank2r.bmp	0	1	+	0	1	blank2r.bmp	500	1	GKQX	500	1	blank2r.bmp	880	6	retten	880	0	0	0	0	0	0	0	0	0	0	0	0
2024-06-05	11:37:24	11:40:44	200238	6.6.1	4_exp_EVA_AWA_CON	68	B	A	Rpleas_acq	Oppo	Rpleas	2pleas	acq_US_unple_nomask	acq1_nomask	1	34	0	0	300	300	0	0	604	46	1	0	schlau	lachen	schön	loyal	spielen	retten	schroff	leiden	schlecht	lasch	strafen	rächen	helfen	treu	ehrlich	fair	tolerant	freundlich	hindern	tot	eitel	faul	tyrannisch	fanatisch	1	blank2r.bmp	0	1	+	0	1	blank2r.bmp	500	1	BMVZ	500	1	blank2r.bmp	880	1	schroff	880	0	0	0	0	0	0	0	0	0	0	0	0
2024-06-05	11:37:24	11:40:47	202447	6.6.1	4_exp_EVA_AWA_CON	68	B	A	Rpleas_acq	Oppo	Rpleas	2pleas	acq_US_unple_nomask	acq1_nomask	1	35	0	0	300	300	0	0	520	50	0	0	schlau	lachen	schön	loyal	spielen	retten	schroff	leiden	schlecht	lasch	strafen	rächen	helfen	treu	ehrlich	fair	tolerant	freundlich	hindern	tot	eitel	faul	tyrannisch	fanatisch	1	blank2r.bmp	0	1	+	0	1	blank2r.bmp	500	1	BMVZ	500	1	blank2r.bmp	880	6	rächen	880	1	FEHLER	1422	0	0	0	0	0	0	0	0	0
2024-06-05	11:37:24	11:40:49	204318	6.6.1	4_exp_EVA_AWA_CON	68	B	A	Rpleas_acq	Oppo	Rpleas	2pleas	acq_new_pleas_nomask	acq1_nomask	1	36	0	0	300	300	0	0	591	50	1	0	schlau	lachen	schön	loyal	spielen	retten	schroff	leiden	schlecht	lasch	strafen	rächen	helfen	treu	ehrlich	fair	tolerant	freundlich	hindern	tot	eitel	faul	tyrannisch	fanatisch	1	blank2r.bmp	0	1	+	0	1	blank2r.bmp	500	5	C1r.bmp	500	1	blank2r.bmp	880	3	ehrlich	880	0	0	0	0	0	0	0	0	0	0	0	0
2024-06-05	11:37:24	11:41:14	229736	6.6.1	4_exp_EVA_AWA_CON	68	B	A	Rpleas_acq	Oppo	Rpleas	2pleas	acq_US_pleas_nomask	acq2_nomask	2	1	480	0	300	300	0	0	883	50	1	0	schlau	lachen	schön	loyal	spielen	retten	schroff	leiden	schlecht	lasch	strafen	rächen	helfen	treu	ehrlich	fair	tolerant	freundlich	hindern	tot	eitel	faul	tyrannisch	fanatisch	1	blank2r.bmp	0	1	+	0	1	blank2r.bmp	500	1	GKQX	500	1	blank2r.bmp	880	5	spielen	880	1	!	1313	1	!	-1	0	0	0	0	0	0
2024-06-05	11:37:24	11:41:16	232143	6.6.1	4_exp_EVA_AWA_CON	68	B	A	Rpleas_acq	Oppo	Rpleas	2pleas	acq_US_unple_nomask	acq2_nomask	2	2	480	0	300	300	0	0	628	46	1	0	schlau	lachen	schön	loyal	spielen	retten	schroff	leiden	schlecht	lasch	strafen	rächen	helfen	treu	ehrlich	fair	tolerant	freundlich	hindern	tot	eitel	faul	tyrannisch	fanatisch	1	blank2r.bmp	0	1	+	0	1	blank2r.bmp	500	1	BMVZ	500	1	blank2r.bmp	880	5	strafen	880	1	!	1312	1	!	-1	0	0	0	0	0	0
2024-06-05	11:37:24	11:41:19	234361	6.6.1	4_exp_EVA_AWA_CON	68	B	A	Rpleas_acq	Oppo	Rpleas	2pleas	acq_US_pleas_nomask	acq2_nomask	2	3	480	1	300	300	0	0	443	50	1	0	schlau	lachen	schön	loyal	spielen	retten	schroff	leiden	schlecht	lasch	strafen	rächen	helfen	treu	ehrlich	fair	tolerant	freundlich	hindern	tot	eitel	faul	tyrannisch	fanatisch	1	blank2r.bmp	0	1	+	0	1	blank2r.bmp	500	1	GKQX	500	1	blank2r.bmp	880	3	schön	880	1	!	1312	1	!	1344	0	0	0	0	0	0
2024-06-05	11:37:24	11:41:21	236768	6.6.1	4_exp_EVA_AWA_CON	68	B	A	Rpleas_acq	Oppo	Rpleas	2pleas	acq_US_unple_nomask	acq2_nomask	2	4	480	0	300	300	0	0	630	46	1	0	schlau	lachen	schön	loyal	spielen	retten	schroff	leiden	schlecht	lasch	strafen	rächen	helfen	treu	ehrlich	fair	tolerant	freundlich	hindern	tot	eitel	faul	tyrannisch	fanatisch	1	blank2r.bmp	0	1	+	0	1	blank2r.bmp	500	1	BMVZ	500	1	blank2r.bmp	880	3	schlecht	880	1	!	1313	1	!	-1	0	0	0	0	0	0
2024-06-05	11:37:24	11:41:23	239010	6.6.1	4_exp_EVA_AWA_CON	68	B	A	Rpleas_acq	Oppo	Rpleas	2pleas	acq_new_pleas_nomask	acq2_nomask	2	5	480	1	300	300	0	0	458	50	1	0	schlau	lachen	schön	loyal	spielen	retten	schroff	leiden	schlecht	lasch	strafen	rächen	helfen	treu	ehrlich	fair	tolerant	freundlich	hindern	tot	eitel	faul	tyrannisch	fanatisch	1	blank2r.bmp	0	1	+	0	1	blank2r.bmp	500	2	B2r.bmp	500	1	blank2r.bmp	880	4	fair	880	1	!	1313	1	!	1359	0	0	0	0	0	0
2024-06-05	11:37:24	11:41:25	241242	6.6.1	4_exp_EVA_AWA_CON	68	B	A	Rpleas_acq	Oppo	Rpleas	2pleas	acq_new_unple_nomask	acq2_nomask	2	6	480	1	300	300	0	0	448	46	1	0	schlau	lachen	schön	loyal	spielen	retten	schroff	leiden	schlecht	lasch	strafen	rächen	helfen	treu	ehrlich	fair	tolerant	freundlich	hindern	tot	eitel	faul	tyrannisch	fanatisch	1	blank2r.bmp	0	1	+	0	1	blank2r.bmp	500	3	B3r.bmp	500	1	blank2r.bmp	880	5	tyrannisch	880	1	!	1313	1	!	1350	0	0	0	0	0	0
2024-06-05	11:37:24	11:41:28	243690	6.6.1	4_exp_EVA_AWA_CON	68	B	A	Rpleas_acq	Oppo	Rpleas	2pleas	acq_new_unple_nomask	acq2_nomask	2	7	480	1	300	300	0	0	466	50	0	0	schlau	lachen	schön	loyal	spielen	retten	schroff	leiden	schlecht	lasch	strafen	rächen	helfen	treu	ehrlich	fair	tolerant	freundlich	hindern	tot	eitel	faul	tyrannisch	fanatisch	1	blank2r.bmp	0	1	+	0	1	blank2r.bmp	500	7	C3r.bmp	500	1	blank2r.bmp	880	6	fanatisch	880	1	FEHLER	1658	1	!	1312	1	!	1367	0	0	0
2024-06-05	11:37:24	11:41:30	245655	6.6.1	4_exp_EVA_AWA_CON	68	B	A	Rpleas_acq	Oppo	Rpleas	2pleas	acq_new_pleas_nomask	acq2_nomask	2	8	480	0	300	300	0	0	391	50	1	0	schlau	lachen	schön	loyal	spielen	retten	schroff	leiden	schlecht	lasch	strafen	rächen	helfen	treu	ehrlich	fair	tolerant	freundlich	hindern	tot	eitel	faul	tyrannisch	fanatisch	1	blank2r.bmp	0	1	+	0	1	blank2r.bmp	500	6	C2r.bmp	500	1	blank2r.bmp	880	6	freundlich	880	1	!	-1	1	!	-1	0	0	0	0	0	0
2024-06-05	11:37:24	11:41:32	247856	6.6.1	4_exp_EVA_AWA_CON	68	B	A	Rpleas_acq	Oppo	Rpleas	2pleas	acq_US_unple_nomask	acq2_nomask	2	9	480	1	300	300	0	0	420	46	1	0	schlau	lachen	schön	loyal	spielen	retten	schroff	leiden	schlecht	lasch	strafen	rächen	helfen	treu	ehrlich	fair	tolerant	freundlich	hindern	tot	eitel	faul	tyrannisch	fanatisch	1	blank2r.bmp	0	1	+	0	1	blank2r.bmp	500	1	BMVZ	500	1	blank2r.bmp	880	2	leiden	880	1	!	1313	1	!	1320	0	0	0	0	0	0
2024-06-05	11:37:24	11:41:35	250267	6.6.1	4_exp_EVA_AWA_CON	68	B	A	Rpleas_acq	Oppo	Rpleas	2pleas	acq_US_pleas_nomask	acq2_nomask	2	10	480	1	300	300	0	0	426	46	0	0	schlau	lachen	schön	loyal	spielen	retten	schroff	leiden	schlecht	lasch	strafen	rächen	helfen	treu	ehrlich	fair	tolerant	freundlich	hindern	tot	eitel	faul	tyrannisch	fanatisch	1	blank2r.bmp	0	1	+	0	1	blank2r.bmp	500	1	GKQX	500	1	blank2r.bmp	880	1	schlau	880	1	FEHLER	1620	1	!	1312	1	!	1328	0	0	0
2024-06-05	11:37:24	11:41:37	252281	6.6.1	4_exp_EVA_AWA_CON	68	B	A	Rpleas_acq	Oppo	Rpleas	2pleas	acq_new_unple_nomask	acq2_nomask	2	11	480	1	300	300	0	0	442	46	1	0	schlau	lachen	schön	loyal	spielen	retten	schroff	leiden	schlecht	lasch	strafen	rächen	helfen	treu	ehrlich	fair	tolerant	freundlich	hindern	tot	eitel	faul	tyrannisch	fanatisch	1	blank2r.bmp	0	1	+	0	1	blank2r.bmp	500	8	C4r.bmp	500	1	blank2r.bmp	880	4	faul	880	1	!	1313	1	!	1343	0	0	0	0	0	0
2024-06-05	11:37:24	11:41:39	254771	6.6.1	4_exp_EVA_AWA_CON	68	B	A	Rpleas_acq	Oppo	Rpleas	2pleas	acq_new_pleas_nomask	acq2_nomask	2	12	480	1	300	300	0	0	508	46	0	0	schlau	lachen	schön	loyal	spielen	retten	schroff	leiden	schlecht	lasch	strafen	rächen	helfen	treu	ehrlich	fair	tolerant	freundlich	hindern	tot	eitel	faul	tyrannisch	fanatisch	1	blank2r.bmp	0	1	+	0	1	blank2r.bmp	500	1	B1r.bmp	500	1	blank2r.bmp	880	1	helfen	880	1	FEHLER	1702	1	!	1313	1	!	1409	0	0	0
2024-06-05	11:37:24	11:41:41	256842	6.6.1	4_exp_EVA_AWA_CON	68	B	A	Rpleas_acq	Oppo	Rpleas	2pleas	acq_US_unple_nomask	acq2_nomask	2	13	480	1	300	300	0	0	488	46	1	0	schlau	lachen	schön	loyal	spielen	retten	schroff	leiden	schlecht	lasch	strafen	rächen	helfen	treu	ehrlich	fair	tolerant	freundlich	hindern	tot	eitel	faul	tyrannisch	fanatisch	1	blank2r.bmp	0	1	+	0	1	blank2r.bmp	500	1	BMVZ	500	1	blank2r.bmp	880	2	leiden	880	1	!	1313	1	!	1390	0	0	0	0	0	0
2024-06-05	11:37:24	11:41:43	259113	6.6.1	4_exp_EVA_AWA_CON	68	B	A	Rpleas_acq	Oppo	Rpleas	2pleas	acq_US_pleas_nomask	acq2_nomask	2	14	480	1	300	300	0	0	489	50	1	0	schlau	lachen	schön	loyal	spielen	retten	schroff	leiden	schlecht	lasch	strafen	rächen	helfen	treu	ehrlich	fair	tolerant	freundlich	hindern	tot	eitel	faul	tyrannisch	fanatisch	1	blank2r.bmp	0	1	+	0	1	blank2r.bmp	500	1	GKQX	500	1	blank2r.bmp	880	4	loyal	880	1	!	1312	1	!	1390	0	0	0	0	0	0
2024-06-05	11:37:24	11:41:46	261311	6.6.1	4_exp_EVA_AWA_CON	68	B	A	Rpleas_acq	Oppo	Rpleas	2pleas	acq_new_pleas_nomask	acq2_nomask	2	15	480	1	300	300	0	0	417	50	1	0	schlau	lachen	schön	loyal	spielen	retten	schroff	leiden	schlecht	lasch	strafen	rächen	helfen	treu	ehrlich	fair	tolerant	freundlich	hindern	tot	eitel	faul	tyrannisch	fanatisch	1	blank2r.bmp	0	1	+	0	1	blank2r.bmp	500	3	B3r.bmp	500	1	blank2r.bmp	880	6	freundlich	880	1	!	1312	1	!	1317	0	0	0	0	0	0
2024-06-05	11:37:24	11:41:48	263727	6.6.1	4_exp_EVA_AWA_CON	68	B	A	Rpleas_acq	Oppo	Rpleas	2pleas	acq_US_unple_nomask	acq2_nomask	2	16	480	0	300	300	0	0	642	46	1	0	schlau	lachen	schön	loyal	spielen	retten	schroff	leiden	schlecht	lasch	strafen	rächen	helfen	treu	ehrlich	fair	tolerant	freundlich	hindern	tot	eitel	faul	tyrannisch	fanatisch	1	blank2r.bmp	0	1	+	0	1	blank2r.bmp	500	1	BMVZ	500	1	blank2r.bmp	880	3	schlecht	880	1	!	1313	1	!	-1	0	0	0	0	0	0
2024-06-05	11:37:24	11:41:50	266058	6.6.1	4_exp_EVA_AWA_CON	68	B	A	Rpleas_acq	Oppo	Rpleas	2pleas	acq_US_pleas_nomask	acq2_nomask	2	17	480	1	300	300	0	0	549	50	1	0	schlau	lachen	schön	loyal	spielen	retten	schroff	leiden	schlecht	lasch	strafen	rächen	helfen	treu	ehrlich	fair	tolerant	freundlich	hindern	tot	eitel	faul	tyrannisch	fanatisch	1	blank2r.bmp	0	1	+	0	1	blank2r.bmp	500	1	GKQX	500	1	blank2r.bmp	880	3	schön	880	1	!	1312	1	!	1450	0	0	0	0	0	0
2024-06-05	11:37:24	11:41:53	268337	6.6.1	4_exp_EVA_AWA_CON	68	B	A	Rpleas_acq	Oppo	Rpleas	2pleas	acq_US_pleas_nomask	acq2_nomask	2	18	480	1	300	300	0	0	497	50	1	0	schlau	lachen	schön	loyal	spielen	retten	schroff	leiden	schlecht	lasch	strafen	rächen	helfen	treu	ehrlich	fair	tolerant	freundlich	hindern	tot	eitel	faul	tyrannisch	fanatisch	1	blank2r.bmp	0	1	+	0	1	blank2r.bmp	500	1	GKQX	500	1	blank2r.bmp	880	6	retten	880	1	!	1313	1	!	1399	0	0	0	0	0	0
2024-06-05	11:37:24	11:41:55	270617	6.6.1	4_exp_EVA_AWA_CON	68	B	A	Rpleas_acq	Oppo	Rpleas	2pleas	acq_new_unple_nomask	acq2_nomask	2	19	480	1	300	300	0	0	505	46	1	0	schlau	lachen	schön	loyal	spielen	retten	schroff	leiden	schlecht	lasch	strafen	rächen	helfen	treu	ehrlich	fair	tolerant	freundlich	hindern	tot	eitel	faul	tyrannisch	fanatisch	1	blank2r.bmp	0	1	+	0	1	blank2r.bmp	500	1	B1r.bmp	500	1	blank2r.bmp	880	2	tot	880	1	!	1313	1	!	1407	0	0	0	0	0	0
2024-06-05	11:37:24	11:41:57	273123	6.6.1	4_exp_EVA_AWA_CON	68	B	A	Rpleas_acq	Oppo	Rpleas	2pleas	acq_new_unple_nomask	acq2_nomask	2	20	480	1	300	300	0	0	528	50	0	0	schlau	lachen	schön	loyal	spielen	retten	schroff	leiden	schlecht	lasch	strafen	rächen	helfen	treu	ehrlich	fair	tolerant	freundlich	hindern	tot	eitel	faul	tyrannisch	fanatisch	1	blank2r.bmp	0	1	+	0	1	blank2r.bmp	500	4	B4r.bmp	500	1	blank2r.bmp	880	6	fanatisch	880	1	FEHLER	1722	1	!	1313	1	!	1430	0	0	0
2024-06-05	11:37:24	11:41:59	275177	6.6.1	4_exp_EVA_AWA_CON	68	B	A	Rpleas_acq	Oppo	Rpleas	2pleas	acq_US_unple_nomask	acq2_nomask	2	21	480	1	300	300	0	0	472	46	1	0	schlau	lachen	schön	loyal	spielen	retten	schroff	leiden	schlecht	lasch	strafen	rächen	helfen	treu	ehrlich	fair	tolerant	freundlich	hindern	tot	eitel	faul	tyrannisch	fanatisch	1	blank2r.bmp	0	1	+	0	1	blank2r.bmp	500	1	BMVZ	500	1	blank2r.bmp	880	4	lasch	880	1	!	1312	1	!	1374	0	0	0	0	0	0
2024-06-05	11:37:24	11:42:02	277569	6.6.1	4_exp_EVA_AWA_CON	68	B	A	Rpleas_acq	Oppo	Rpleas	2pleas	acq_new_pleas_nomask	acq2_nomask	2	22	480	1	300	300	0	0	414	46	0	0	schlau	lachen	schön	loyal	spielen	retten	schroff	leiden	schlecht	lasch	strafen	rächen	helfen	treu	ehrlich	fair	tolerant	freundlich	hindern	tot	eitel	faul	tyrannisch	fanatisch	1	blank2r.bmp	0	1	+	0	1	blank2r.bmp	500	2	B2r.bmp	500	1	blank2r.bmp	880	5	tolerant	880	1	FEHLER	1605	1	!	1313	1	!	1313	0	0	0
2024-06-05	11:37:24	11:42:04	279681	6.6.1	4_exp_EVA_AWA_CON	68	B	A	Rpleas_acq	Oppo	Rpleas	2pleas	acq_new_pleas_nomask	acq2_nomask	2	23	480	1	300	300	0	0	533	50	1	0	schlau	lachen	schön	loyal	spielen	retten	schroff	leiden	schlecht	lasch	strafen	rächen	helfen	treu	ehrlich	fair	tolerant	freundlich	hindern	tot	eitel	faul	tyrannisch	fanatisch	1	blank2r.bmp	0	1	+	0	1	blank2r.bmp	500	8	C4r.bmp	500	1	blank2r.bmp	880	4	fair	880	1	!	1312	1	!	1435	0	0	0	0	0	0
2024-06-05	11:37:24	11:42:06	281993	6.6.1	4_exp_EVA_AWA_CON	68	B	A	Rpleas_acq	Oppo	Rpleas	2pleas	acq_new_unple_nomask	acq2_nomask	2	24	480	1	300	300	0	0	534	46	1	0	schlau	lachen	schön	loyal	spielen	retten	schroff	leiden	schlecht	lasch	strafen	rächen	helfen	treu	ehrlich	fair	tolerant	freundlich	hindern	tot	eitel	faul	tyrannisch	fanatisch	1	blank2r.bmp	0	1	+	0	1	blank2r.bmp	500	5	C1r.bmp	500	1	blank2r.bmp	880	1	hindern	880	1	!	1313	1	!	1436	0	0	0	0	0	0
2024-06-05	11:37:24	11:42:08	284250	6.6.1	4_exp_EVA_AWA_CON	68	B	A	Rpleas_acq	Oppo	Rpleas	2pleas	acq_US_pleas_nomask	acq2_nomask	2	25	480	1	300	300	0	0	478	50	1	0	schlau	lachen	schön	loyal	spielen	retten	schroff	leiden	schlecht	lasch	strafen	rächen	helfen	treu	ehrlich	fair	tolerant	freundlich	hindern	tot	eitel	faul	tyrannisch	fanatisch	1	blank2r.bmp	0	1	+	0	1	blank2r.bmp	500	1	GKQX	500	1	blank2r.bmp	880	5	spielen	880	1	!	1313	1	!	1380	0	0	0	0	0	0
2024-06-05	11:37:24	11:42:11	286564	6.6.1	4_exp_EVA_AWA_CON	68	B	A	Rpleas_acq	Oppo	Rpleas	2pleas	acq_new_pleas_nomask	acq2_nomask	2	26	480	0	300	300	0	0	330	46	0	0	schlau	lachen	schön	loyal	spielen	retten	schroff	leiden	schlecht	lasch	strafen	rächen	helfen	treu	ehrlich	fair	tolerant	freundlich	hindern	tot	eitel	faul	tyrannisch	fanatisch	1	blank2r.bmp	0	1	+	0	1	blank2r.bmp	500	6	C2r.bmp	500	1	blank2r.bmp	880	1	helfen	880	1	FEHLER	1524	1	!	-1	1	!	-1	0	0	0
2024-06-05	11:37:24	11:42:13	288735	6.6.1	4_exp_EVA_AWA_CON	68	B	A	Rpleas_acq	Oppo	Rpleas	2pleas	acq_new_pleas_nomask	acq2_nomask	2	27	480	0	300	300	0	0	594	50	1	0	schlau	lachen	schön	loyal	spielen	retten	schroff	leiden	schlecht	lasch	strafen	rächen	helfen	treu	ehrlich	fair	tolerant	freundlich	hindern	tot	eitel	faul	tyrannisch	fanatisch	1	blank2r.bmp	0	1	+	0	1	blank2r.bmp	500	7	C3r.bmp	500	1	blank2r.bmp	880	2	treu	880	1	!	1313	1	!	-1	0	0	0	0	0	0
2024-06-05	11:37:24	11:42:16	291291	6.6.1	4_exp_EVA_AWA_CON	68	B	A	Rpleas_acq	Oppo	Rpleas	2pleas	acq_US_unple_nomask	acq2_nomask	2	28	480	0	300	300	0	0	574	50	0	0	schlau	lachen	schön	loyal	spielen	retten	schroff	leiden	schlecht	lasch	strafen	rächen	helfen	treu	ehrlich	fair	tolerant	freundlich	hindern	tot	eitel	faul	tyrannisch	fanatisch	1	blank2r.bmp	0	1	+	0	1	blank2r.bmp	500	1	BMVZ	500	1	blank2r.bmp	880	1	schroff	880	1	FEHLER	1768	1	!	1312	1	!	-1	0	0	0
2024-06-05	11:37:24	11:42:18	293386	6.6.1	4_exp_EVA_AWA_CON	68	B	A	Rpleas_acq	Oppo	Rpleas	2pleas	acq_new_unple_nomask	acq2_nomask	2	29	480	1	300	300	0	0	519	46	1	0	schlau	lachen	schön	loyal	spielen	retten	schroff	leiden	schlecht	lasch	strafen	rächen	helfen	treu	ehrlich	fair	tolerant	freundlich	hindern	tot	eitel	faul	tyrannisch	fanatisch	1	blank2r.bmp	0	1	+	0	1	blank2r.bmp	500	6	C2r.bmp	500	1	blank2r.bmp	880	5	tyrannisch	880	1	!	1312	1	!	1420	0	0	0	0	0	0
2024-06-05	11:37:24	11:42:20	295649	6.6.1	4_exp_EVA_AWA_CON	68	B	A	Rpleas_acq	Oppo	Rpleas	2pleas	acq_US_unple_nomask	acq2_nomask	2	30	480	1	300	300	0	0	481	46	1	0	schlau	lachen	schön	loyal	spielen	retten	schroff	leiden	schlecht	lasch	strafen	rächen	helfen	treu	ehrlich	fair	tolerant	freundlich	hindern	tot	eitel	faul	tyrannisch	fanatisch	1	blank2r.bmp	0	1	+	0	1	blank2r.bmp	500	1	BMVZ	500	1	blank2r.bmp	880	5	strafen	880	1	!	1313	1	!	1383	0	0	0	0	0	0
2024-06-05	11:37:24	11:42:22	297954	6.6.1	4_exp_EVA_AWA_CON	68	B	A	Rpleas_acq	Oppo	Rpleas	2pleas	acq_new_unple_nomask	acq2_nomask	2	31	480	0	300	300	0	0	324	50	0	0	schlau	lachen	schön	loyal	spielen	retten	schroff	leiden	schlecht	lasch	strafen	rächen	helfen	treu	ehrlich	fair	tolerant	freundlich	hindern	tot	eitel	faul	tyrannisch	fanatisch	1	blank2r.bmp	0	1	+	0	1	blank2r.bmp	500	8	C4r.bmp	500	1	blank2r.bmp	880	4	faul	880	1	FEHLER	1517	1	!	-1	1	!	-1	0	0	0
2024-06-05	11:37:24	11:42:24	299977	6.6.1	4_exp_EVA_AWA_CON	68	B	A	Rpleas_acq	Oppo	Rpleas	2pleas	acq_new_pleas_nomask	acq2_nomask	2	32	480	1	300	300	0	0	446	50	1	0	schlau	lachen	schön	loyal	spielen	retten	schroff	leiden	schlecht	lasch	strafen	rächen	helfen	treu	ehrlich	fair	tolerant	freundlich	hindern	tot	eitel	faul	tyrannisch	fanatisch	1	blank2r.bmp	0	1	+	0	1	blank2r.bmp	500	4	B4r.bmp	500	1	blank2r.bmp	880	3	ehrlich	880	1	!	1313	1	!	1348	0	0	0	0	0	0
2024-06-05	11:37:24	11:42:27	302411	6.6.1	4_exp_EVA_AWA_CON	68	B	A	Rpleas_acq	Oppo	Rpleas	2pleas	acq_US_pleas_nomask	acq2_nomask	2	33	480	1	300	300	0	0	457	46	0	0	schlau	lachen	schön	loyal	spielen	retten	schroff	leiden	schlecht	lasch	strafen	rächen	helfen	treu	ehrlich	fair	tolerant	freundlich	hindern	tot	eitel	faul	tyrannisch	fanatisch	1	blank2r.bmp	0	1	+	0	1	blank2r.bmp	500	1	GKQX	500	1	blank2r.bmp	880	1	schlau	880	1	FEHLER	1650	1	!	1313	1	!	1358	0	0	0
2024-06-05	11:37:24	11:42:33	309167	6.6.1	4_exp_EVA_AWA_CON	68	B	A	Rpleas_acq	Oppo	Rpleas	2pleas	acq_new_unple_nomask	acq2_nomask	2	34	480	0	300	300	0	0	5175	46	1	0	schlau	lachen	schön	loyal	spielen	retten	schroff	leiden	schlecht	lasch	strafen	rächen	helfen	treu	ehrlich	fair	tolerant	freundlich	hindern	tot	eitel	faul	tyrannisch	fanatisch	1	blank2r.bmp	0	1	+	0	1	blank2r.bmp	500	7	C3r.bmp	500	1	blank2r.bmp	880	3	eitel	880	1	!	1313	1	!	-1	0	0	0	0	0	0
2024-06-05	11:37:24	11:42:36	311425	6.6.1	4_exp_EVA_AWA_CON	68	B	A	Rpleas_acq	Oppo	Rpleas	2pleas	acq_US_unple_nomask	acq2_nomask	2	35	480	1	300	300	0	0	477	46	1	0	schlau	lachen	schön	loyal	spielen	retten	schroff	leiden	schlecht	lasch	strafen	rächen	helfen	treu	ehrlich	fair	tolerant	freundlich	hindern	tot	eitel	faul	tyrannisch	fanatisch	1	blank2r.bmp	0	1	+	0	1	blank2r.bmp	500	1	BMVZ	500	1	blank2r.bmp	880	6	rächen	880	1	!	1313	1	!	1379	0	0	0	0	0	0
2024-06-05	11:37:24	11:42:38	313745	6.6.1	4_exp_EVA_AWA_CON	68	B	A	Rpleas_acq	Oppo	Rpleas	2pleas	acq_US_pleas_nomask	acq2_nomask	2	36	480	1	300	300	0	0	546	50	1	0	schlau	lachen	schön	loyal	spielen	retten	schroff	leiden	schlecht	lasch	strafen	rächen	helfen	treu	ehrlich	fair	tolerant	freundlich	hindern	tot	eitel	faul	tyrannisch	fanatisch	1	blank2r.bmp	0	1	+	0	1	blank2r.bmp	500	1	GKQX	500	1	blank2r.bmp	880	2	lachen	880	1	!	1313	1	!	1447	0	0	0	0	0	0
2024-06-05	11:37:24	11:42:57	333065	6.6.1	4_exp_EVA_AWA_CON	68	B	A	Rpleas_acq	Oppo	Rpleas	2pleas	acq_US_unple_nomask	acq3_nomask	3	1	453	1	300	300	0	0	483	46	1	0	schlau	lachen	schön	loyal	spielen	retten	schroff	leiden	schlecht	lasch	strafen	rächen	helfen	treu	ehrlich	fair	tolerant	freundlich	hindern	tot	eitel	faul	tyrannisch	fanatisch	1	blank2r.bmp	0	1	+	0	1	blank2r.bmp	500	1	BMVZ	500	1	blank2r.bmp	880	6	rächen	880	1	!	1293	1	!	1384	0	0	0	0	0	0
2024-06-05	11:37:24	11:43:00	335407	6.6.1	4_exp_EVA_AWA_CON	68	B	A	Rpleas_acq	Oppo	Rpleas	2pleas	acq_US_unple_nomask	acq3_nomask	3	2	453	0	300	300	0	0	565	46	1	0	schlau	lachen	schön	loyal	spielen	retten	schroff	leiden	schlecht	lasch	strafen	rächen	helfen	treu	ehrlich	fair	tolerant	freundlich	hindern	tot	eitel	faul	tyrannisch	fanatisch	1	blank2r.bmp	0	1	+	0	1	blank2r.bmp	500	1	BMVZ	500	1	blank2r.bmp	880	1	schroff	880	1	!	1293	1	!	-1	0	0	0	0	0	0
2024-06-05	11:37:24	11:43:02	337649	6.6.1	4_exp_EVA_AWA_CON	68	B	A	Rpleas_acq	Oppo	Rpleas	2pleas	acq_US_pleas_nomask	acq3_nomask	3	3	453	1	300	300	0	0	464	50	1	0	schlau	lachen	schön	loyal	spielen	retten	schroff	leiden	schlecht	lasch	strafen	rächen	helfen	treu	ehrlich	fair	tolerant	freundlich	hindern	tot	eitel	faul	tyrannisch	fanatisch	1	blank2r.bmp	0	1	+	0	1	blank2r.bmp	500	1	GKQX	500	1	blank2r.bmp	880	4	loyal	880	1	!	1292	1	!	1365	0	0	0	0	0	0
2024-06-05	11:37:24	11:43:04	339873	6.6.1	4_exp_EVA_AWA_CON	68	B	A	Rpleas_acq	Oppo	Rpleas	2pleas	acq_US_unple_nomask	acq3_nomask	3	4	453	1	300	300	0	0	446	46	1	0	schlau	lachen	schön	loyal	spielen	retten	schroff	leiden	schlecht	lasch	strafen	rächen	helfen	treu	ehrlich	fair	tolerant	freundlich	hindern	tot	eitel	faul	tyrannisch	fanatisch	1	blank2r.bmp	0	1	+	0	1	blank2r.bmp	500	1	BMVZ	500	1	blank2r.bmp	880	4	lasch	880	1	!	1293	1	!	1348	0	0	0	0	0	0
2024-06-05	11:37:24	11:43:06	342047	6.6.1	4_exp_EVA_AWA_CON	68	B	A	Rpleas_acq	Oppo	Rpleas	2pleas	acq_US_pleas_nomask	acq3_nomask	3	5	453	1	300	300	0	0	401	50	1	0	schlau	lachen	schön	loyal	spielen	retten	schroff	leiden	schlecht	lasch	strafen	rächen	helfen	treu	ehrlich	fair	tolerant	freundlich	hindern	tot	eitel	faul	tyrannisch	fanatisch	1	blank2r.bmp	0	1	+	0	1	blank2r.bmp	500	1	GKQX	500	1	blank2r.bmp	880	5	spielen	880	1	!	1292	1	!	1301	0	0	0	0	0	0
2024-06-05	11:37:24	11:43:09	344281	6.6.1	4_exp_EVA_AWA_CON	68	B	A	Rpleas_acq	Oppo	Rpleas	2pleas	acq_US_unple_nomask	acq3_nomask	3	6	453	1	300	300	0	0	452	46	1	0	schlau	lachen	schön	loyal	spielen	retten	schroff	leiden	schlecht	lasch	strafen	rächen	helfen	treu	ehrlich	fair	tolerant	freundlich	hindern	tot	eitel	faul	tyrannisch	fanatisch	1	blank2r.bmp	0	1	+	0	1	blank2r.bmp	500	1	BMVZ	500	1	blank2r.bmp	880	5	strafen	880	1	!	1292	1	!	1353	0	0	0	0	0	0
2024-06-05	11:37:24	11:43:11	346490	6.6.1	4_exp_EVA_AWA_CON	68	B	A	Rpleas_acq	Oppo	Rpleas	2pleas	acq_US_pleas_nomask	acq3_nomask	3	7	453	1	300	300	0	0	428	50	1	0	schlau	lachen	schön	loyal	spielen	retten	schroff	leiden	schlecht	lasch	strafen	rächen	helfen	treu	ehrlich	fair	tolerant	freundlich	hindern	tot	eitel	faul	tyrannisch	fanatisch	1	blank2r.bmp	0	1	+	0	1	blank2r.bmp	500	1	GKQX	500	1	blank2r.bmp	880	6	retten	880	1	!	1293	1	!	1330	0	0	0	0	0	0
2024-06-05	11:37:24	11:43:13	348689	6.6.1	4_exp_EVA_AWA_CON	68	B	A	Rpleas_acq	Oppo	Rpleas	2pleas	acq_US_pleas_nomask	acq3_nomask	3	8	453	1	300	300	0	0	417	50	1	0	schlau	lachen	schön	loyal	spielen	retten	schroff	leiden	schlecht	lasch	strafen	rächen	helfen	treu	ehrlich	fair	tolerant	freundlich	hindern	tot	eitel	faul	tyrannisch	fanatisch	1	blank2r.bmp	0	1	+	0	1	blank2r.bmp	500	1	GKQX	500	1	blank2r.bmp	880	3	schön	880	1	!	1292	1	!	1318	0	0	0	0	0	0
2024-06-05	11:37:24	11:43:15	350881	6.6.1	4_exp_EVA_AWA_CON	68	B	A	Rpleas_acq	Oppo	Rpleas	2pleas	acq_US_unple_nomask	acq3_nomask	3	9	453	1	300	300	0	0	417	46	1	0	schlau	lachen	schön	loyal	spielen	retten	schroff	leiden	schlecht	lasch	strafen	rächen	helfen	treu	ehrlich	fair	tolerant	freundlich	hindern	tot	eitel	faul	tyrannisch	fanatisch	1	blank2r.bmp	0	1	+	0	1	blank2r.bmp	500	1	BMVZ	500	1	blank2r.bmp	880	3	schlecht	880	1	!	1293	1	!	1319	0	0	0	0	0	0
2024-06-05	11:37:24	11:43:17	353231	6.6.1	4_exp_EVA_AWA_CON	68	B	A	Rpleas_acq	Oppo	Rpleas	2pleas	acq_US_pleas_nomask	acq3_nomask	3	10	453	0	300	300	0	0	578	50	1	0	schlau	lachen	schön	loyal	spielen	retten	schroff	leiden	schlecht	lasch	strafen	rächen	helfen	treu	ehrlich	fair	tolerant	freundlich	hindern	tot	eitel	faul	tyrannisch	fanatisch	1	blank2r.bmp	0	1	+	0	1	blank2r.bmp	500	1	GKQX	500	1	blank2r.bmp	880	1	schlau	880	1	!	1293	1	!	-1	0	0	0	0	0	0
2024-06-05	11:37:24	11:43:20	355506	6.6.1	4_exp_EVA_AWA_CON	68	B	A	Rpleas_acq	Oppo	Rpleas	2pleas	acq_US_unple_nomask	acq3_nomask	3	11	453	1	300	300	0	0	498	46	1	0	schlau	lachen	schön	loyal	spielen	retten	schroff	leiden	schlecht	lasch	strafen	rächen	helfen	treu	ehrlich	fair	tolerant	freundlich	hindern	tot	eitel	faul	tyrannisch	fanatisch	1	blank2r.bmp	0	1	+	0	1	blank2r.bmp	500	1	BMVZ	500	1	blank2r.bmp	880	2	leiden	880	1	!	1293	1	!	1400	0	0	0	0	0	0
2024-06-05	11:37:24	11:43:22	357737	6.6.1	4_exp_EVA_AWA_CON	68	B	A	Rpleas_acq	Oppo	Rpleas	2pleas	acq_US_pleas_nomask	acq3_nomask	3	12	453	1	300	300	0	0	449	50	1	0	schlau	lachen	schön	loyal	spielen	retten	schroff	leiden	schlecht	lasch	strafen	rächen	helfen	treu	ehrlich	fair	tolerant	freundlich	hindern	tot	eitel	faul	tyrannisch	fanatisch	1	blank2r.bmp	0	1	+	0	1	blank2r.bmp	500	1	GKQX	500	1	blank2r.bmp	880	2	lachen	880	1	!	1293	1	!	1351	0	0	0	0	0	0
2024-06-05	11:37:24	11:43:24	359961	6.6.1	4_exp_EVA_AWA_CON	68	B	A	Rpleas_acq	Oppo	Rpleas	2pleas	acq_US_pleas_nomask	acq3_nomask	3	13	453	1	300	300	0	0	441	50	1	0	schlau	lachen	schön	loyal	spielen	retten	schroff	leiden	schlecht	lasch	strafen	rächen	helfen	treu	ehrlich	fair	tolerant	freundlich	hindern	tot	eitel	faul	tyrannisch	fanatisch	1	blank2r.bmp	0	1	+	0	1	blank2r.bmp	500	1	GKQX	500	1	blank2r.bmp	880	3	schön	880	1	!	1293	1	!	1343	0	0	0	0	0	0
2024-06-05	11:37:24	11:43:26	362233	6.6.1	4_exp_EVA_AWA_CON	68	B	A	Rpleas_acq	Oppo	Rpleas	2pleas	acq_US_unple_nomask	acq3_nomask	3	14	453	1	300	300	0	0	492	46	1	0	schlau	lachen	schön	loyal	spielen	retten	schroff	leiden	schlecht	lasch	strafen	rächen	helfen	treu	ehrlich	fair	tolerant	freundlich	hindern	tot	eitel	faul	tyrannisch	fanatisch	1	blank2r.bmp	0	1	+	0	1	blank2r.bmp	500	1	BMVZ	500	1	blank2r.bmp	880	6	rächen	880	1	!	1292	1	!	1393	0	0	0	0	0	0
2024-06-05	11:37:24	11:43:29	364607	6.6.1	4_exp_EVA_AWA_CON	68	B	A	Rpleas_acq	Oppo	Rpleas	2pleas	acq_US_pleas_nomask	acq3_nomask	3	15	453	0	300	300	0	0	596	50	1	0	schlau	lachen	schön	loyal	spielen	retten	schroff	leiden	schlecht	lasch	strafen	rächen	helfen	treu	ehrlich	fair	tolerant	freundlich	hindern	tot	eitel	faul	tyrannisch	fanatisch	1	blank2r.bmp	0	1	+	0	1	blank2r.bmp	500	1	GKQX	500	1	blank2r.bmp	880	6	retten	880	1	!	1293	1	!	-1	0	0	0	0	0	0
2024-06-05	11:37:24	11:43:31	366727	6.6.1	4_exp_EVA_AWA_CON	68	B	A	Rpleas_acq	Oppo	Rpleas	2pleas	acq_US_unple_nomask	acq3_nomask	3	16	453	0	300	300	0	0	345	46	1	0	schlau	lachen	schön	loyal	spielen	retten	schroff	leiden	schlecht	lasch	strafen	rächen	helfen	treu	ehrlich	fair	tolerant	freundlich	hindern	tot	eitel	faul	tyrannisch	fanatisch	1	blank2r.bmp	0	1	+	0	1	blank2r.bmp	500	1	BMVZ	500	1	blank2r.bmp	880	5	strafen	880	1	!	-1	1	!	-1	0	0	0	0	0	0
2024-06-05	11:37:24	11:43:33	368977	6.6.1	4_exp_EVA_AWA_CON	68	B	A	Rpleas_acq	Oppo	Rpleas	2pleas	acq_US_unple_nomask	acq3_nomask	3	17	453	1	300	300	0	0	471	46	1	0	schlau	lachen	schön	loyal	spielen	retten	schroff	leiden	schlecht	lasch	strafen	rächen	helfen	treu	ehrlich	fair	tolerant	freundlich	hindern	tot	eitel	faul	tyrannisch	fanatisch	1	blank2r.bmp	0	1	+	0	1	blank2r.bmp	500	1	BMVZ	500	1	blank2r.bmp	880	3	schlecht	880	1	!	1292	1	!	1373	0	0	0	0	0	0
2024-06-05	11:37:24	11:43:35	371178	6.6.1	4_exp_EVA_AWA_CON	68	B	A	Rpleas_acq	Oppo	Rpleas	2pleas	acq_US_unple_nomask	acq3_nomask	3	18	453	1	300	300	0	0	420	46	1	0	schlau	lachen	schön	loyal	spielen	retten	schroff	leiden	schlecht	lasch	strafen	rächen	helfen	treu	ehrlich	fair	tolerant	freundlich	hindern	tot	eitel	faul	tyrannisch	fanatisch	1	blank2r.bmp	0	1	+	0	1	blank2r.bmp	500	1	BMVZ	500	1	blank2r.bmp	880	2	leiden	880	1	!	1292	1	!	1322	0	0	0	0	0	0
2024-06-05	11:37:24	11:43:38	373602	6.6.1	4_exp_EVA_AWA_CON	68	B	A	Rpleas_acq	Oppo	Rpleas	2pleas	acq_US_pleas_nomask	acq3_nomask	3	19	453	1	300	300	0	0	443	46	0	0	schlau	lachen	schön	loyal	spielen	retten	schroff	leiden	schlecht	lasch	strafen	rächen	helfen	treu	ehrlich	fair	tolerant	freundlich	hindern	tot	eitel	faul	tyrannisch	fanatisch	1	blank2r.bmp	0	1	+	0	1	blank2r.bmp	500	1	GKQX	500	1	blank2r.bmp	880	1	schlau	880	1	FEHLER	1636	1	!	1293	1	!	1344	0	0	0
2024-06-05	11:37:24	11:43:41	376239	6.6.1	4_exp_EVA_AWA_CON	68	B	A	Rpleas_acq	Oppo	Rpleas	2pleas	acq_US_unple_nomask	acq3_nomask	3	20	453	0	300	300	0	0	1062	46	1	0	schlau	lachen	schön	loyal	spielen	retten	schroff	leiden	schlecht	lasch	strafen	rächen	helfen	treu	ehrlich	fair	tolerant	freundlich	hindern	tot	eitel	faul	tyrannisch	fanatisch	1	blank2r.bmp	0	1	+	0	1	blank2r.bmp	500	1	BMVZ	500	1	blank2r.bmp	880	4	lasch	880	1	!	1293	1	!	-1	0	0	0	0	0	0
2024-06-05	11:37:24	11:43:43	378383	6.6.1	4_exp_EVA_AWA_CON	68	B	A	Rpleas_acq	Oppo	Rpleas	2pleas	acq_US_pleas_nomask	acq3_nomask	3	21	453	0	300	300	0	0	363	50	1	0	schlau	lachen	schön	loyal	spielen	retten	schroff	leiden	schlecht	lasch	strafen	rächen	helfen	treu	ehrlich	fair	tolerant	freundlich	hindern	tot	eitel	faul	tyrannisch	fanatisch	1	blank2r.bmp	0	1	+	0	1	blank2r.bmp	500	1	GKQX	500	1	blank2r.bmp	880	4	loyal	880	1	!	-1	1	!	-1	0	0	0	0	0	0
2024-06-05	11:37:24	11:43:45	380707	6.6.1	4_exp_EVA_AWA_CON	68	B	A	Rpleas_acq	Oppo	Rpleas	2pleas	acq_US_pleas_nomask	acq3_nomask	3	22	453	0	300	300	0	0	342	46	0	0	schlau	lachen	schön	loyal	spielen	retten	schroff	leiden	schlecht	lasch	strafen	rächen	helfen	treu	ehrlich	fair	tolerant	freundlich	hindern	tot	eitel	faul	tyrannisch	fanatisch	1	blank2r.bmp	0	1	+	0	1	blank2r.bmp	500	1	GKQX	500	1	blank2r.bmp	880	5	spielen	880	1	FEHLER	1536	1	!	-1	1	!	-1	0	0	0
2024-06-05	11:37:24	11:43:47	382754	6.6.1	4_exp_EVA_AWA_CON	68	B	A	Rpleas_acq	Oppo	Rpleas	2pleas	acq_US_pleas_nomask	acq3_nomask	3	23	453	1	300	300	0	0	469	50	1	0	schlau	lachen	schön	loyal	spielen	retten	schroff	leiden	schlecht	lasch	strafen	rächen	helfen	treu	ehrlich	fair	tolerant	freundlich	hindern	tot	eitel	faul	tyrannisch	fanatisch	1	blank2r.bmp	0	1	+	0	1	blank2r.bmp	500	1	GKQX	500	1	blank2r.bmp	880	2	lachen	880	1	!	1293	1	!	1370	0	0	0	0	0	0
2024-06-05	11:37:24	11:43:49	385001	6.6.1	4_exp_EVA_AWA_CON	68	B	A	Rpleas_acq	Oppo	Rpleas	2pleas	acq_US_unple_nomask	acq3_nomask	3	24	453	1	300	300	0	0	465	46	1	0	schlau	lachen	schön	loyal	spielen	retten	schroff	leiden	schlecht	lasch	strafen	rächen	helfen	treu	ehrlich	fair	tolerant	freundlich	hindern	tot	eitel	faul	tyrannisch	fanatisch	1	blank2r.bmp	0	1	+	0	1	blank2r.bmp	500	1	BMVZ	500	1	blank2r.bmp	880	1	schroff	880	1	!	1293	1	!	1367	0	0	0	0	0	0
2024-06-05	11:37:24	11:43:52	387249	6.6.1	4_exp_EVA_AWA_CON	68	B	A	Rpleas_acq	Oppo	Rpleas	2pleas	acq_US_pleas_nomask	acq3_nomask	3	25	453	1	300	300	0	0	472	50	1	0	schlau	lachen	schön	loyal	spielen	retten	schroff	leiden	schlecht	lasch	strafen	rächen	helfen	treu	ehrlich	fair	tolerant	freundlich	hindern	tot	eitel	faul	tyrannisch	fanatisch	1	blank2r.bmp	0	1	+	0	1	blank2r.bmp	500	1	GKQX	500	1	blank2r.bmp	880	1	schlau	880	1	!	1292	1	!	1373	0	0	0	0	0	0
2024-06-05	11:37:24	11:43:54	389538	6.6.1	4_exp_EVA_AWA_CON	68	B	A	Rpleas_acq	Oppo	Rpleas	2pleas	acq_US_unple_nomask	acq3_nomask	3	26	453	1	300	300	0	0	508	46	1	0	schlau	lachen	schön	loyal	spielen	retten	schroff	leiden	schlecht	lasch	strafen	rächen	helfen	treu	ehrlich	fair	tolerant	freundlich	hindern	tot	eitel	faul	tyrannisch	fanatisch	1	blank2r.bmp	0	1	+	0	1	blank2r.bmp	500	1	BMVZ	500	1	blank2r.bmp	880	5	strafen	880	1	!	1292	1	!	1410	0	0	0	0	0	0
2024-06-05	11:37:24	11:43:56	391663	6.6.1	4_exp_EVA_AWA_CON	68	B	A	Rpleas_acq	Oppo	Rpleas	2pleas	acq_US_pleas_nomask	acq3_nomask	3	27	453	0	300	300	0	0	345	50	1	0	schlau	lachen	schön	loyal	spielen	retten	schroff	leiden	schlecht	lasch	strafen	rächen	helfen	treu	ehrlich	fair	tolerant	freundlich	hindern	tot	eitel	faul	tyrannisch	fanatisch	1	blank2r.bmp	0	1	+	0	1	blank2r.bmp	500	1	GKQX	500	1	blank2r.bmp	880	2	lachen	880	1	!	-1	1	!	-1	0	0	0	0	0	0
2024-06-05	11:37:24	11:43:58	394215	6.6.1	4_exp_EVA_AWA_CON	68	B	A	Rpleas_acq	Oppo	Rpleas	2pleas	acq_US_unple_nomask	acq3_nomask	3	28	453	0	300	300	0	0	775	46	1	0	schlau	lachen	schön	loyal	spielen	retten	schroff	leiden	schlecht	lasch	strafen	rächen	helfen	treu	ehrlich	fair	tolerant	freundlich	hindern	tot	eitel	faul	tyrannisch	fanatisch	1	blank2r.bmp	0	1	+	0	1	blank2r.bmp	500	1	BMVZ	500	1	blank2r.bmp	880	2	leiden	880	1	!	1293	1	!	-1	0	0	0	0	0	0
2024-06-05	11:37:24	11:44:01	396505	6.6.1	4_exp_EVA_AWA_CON	68	B	A	Rpleas_acq	Oppo	Rpleas	2pleas	acq_US_unple_nomask	acq3_nomask	3	29	453	1	300	300	0	0	512	46	1	0	schlau	lachen	schön	loyal	spielen	retten	schroff	leiden	schlecht	lasch	strafen	rächen	helfen	treu	ehrlich	fair	tolerant	freundlich	hindern	tot	eitel	faul	tyrannisch	fanatisch	1	blank2r.bmp	0	1	+	0	1	blank2r.bmp	500	1	BMVZ	500	1	blank2r.bmp	880	1	schroff	880	1	!	1293	1	!	1413	0	0	0	0	0	0
2024-06-05	11:37:24	11:44:03	398839	6.6.1	4_exp_EVA_AWA_CON	68	B	A	Rpleas_acq	Oppo	Rpleas	2pleas	acq_US_unple_nomask	acq3_nomask	3	30	453	0	300	300	0	0	556	46	1	0	schlau	lachen	schön	loyal	spielen	retten	schroff	leiden	schlecht	lasch	strafen	rächen	helfen	treu	ehrlich	fair	tolerant	freundlich	hindern	tot	eitel	faul	tyrannisch	fanatisch	1	blank2r.bmp	0	1	+	0	1	blank2r.bmp	500	1	BMVZ	500	1	blank2r.bmp	880	6	rächen	880	1	!	1293	1	!	-1	0	0	0	0	0	0
2024-06-05	11:37:24	11:44:05	400967	6.6.1	4_exp_EVA_AWA_CON	68	B	A	Rpleas_acq	Oppo	Rpleas	2pleas	acq_US_pleas_nomask	acq3_nomask	3	31	453	0	300	300	0	0	353	50	1	0	schlau	lachen	schön	loyal	spielen	retten	schroff	leiden	schlecht	lasch	strafen	rächen	helfen	treu	ehrlich	fair	tolerant	freundlich	hindern	tot	eitel	faul	tyrannisch	fanatisch	1	blank2r.bmp	0	1	+	0	1	blank2r.bmp	500	1	GKQX	500	1	blank2r.bmp	880	5	spielen	880	1	!	-1	1	!	-1	0	0	0	0	0	0
2024-06-05	11:37:24	11:44:07	403177	6.6.1	4_exp_EVA_AWA_CON	68	B	A	Rpleas_acq	Oppo	Rpleas	2pleas	acq_US_pleas_nomask	acq3_nomask	3	32	453	1	300	300	0	0	429	50	1	0	schlau	lachen	schön	loyal	spielen	retten	schroff	leiden	schlecht	lasch	strafen	rächen	helfen	treu	ehrlich	fair	tolerant	freundlich	hindern	tot	eitel	faul	tyrannisch	fanatisch	1	blank2r.bmp	0	1	+	0	1	blank2r.bmp	500	1	GKQX	500	1	blank2r.bmp	880	4	loyal	880	1	!	1292	1	!	1331	0	0	0	0	0	0
2024-06-05	11:37:24	11:44:10	405450	6.6.1	4_exp_EVA_AWA_CON	68	B	A	Rpleas_acq	Oppo	Rpleas	2pleas	acq_US_pleas_nomask	acq3_nomask	3	33	453	1	300	300	0	0	490	50	1	0	schlau	lachen	schön	loyal	spielen	retten	schroff	leiden	schlecht	lasch	strafen	rächen	helfen	treu	ehrlich	fair	tolerant	freundlich	hindern	tot	eitel	faul	tyrannisch	fanatisch	1	blank2r.bmp	0	1	+	0	1	blank2r.bmp	500	1	GKQX	500	1	blank2r.bmp	880	6	retten	880	1	!	1293	1	!	1392	0	0	0	0	0	0
2024-06-05	11:37:24	11:44:12	407689	6.6.1	4_exp_EVA_AWA_CON	68	B	A	Rpleas_acq	Oppo	Rpleas	2pleas	acq_US_pleas_nomask	acq3_nomask	3	34	453	1	300	300	0	0	458	50	1	0	schlau	lachen	schön	loyal	spielen	retten	schroff	leiden	schlecht	lasch	strafen	rächen	helfen	treu	ehrlich	fair	tolerant	freundlich	hindern	tot	eitel	faul	tyrannisch	fanatisch	1	blank2r.bmp	0	1	+	0	1	blank2r.bmp	500	1	GKQX	500	1	blank2r.bmp	880	3	schön	880	1	!	1292	1	!	1360	0	0	0	0	0	0
2024-06-05	11:37:24	11:44:15	410391	6.6.1	4_exp_EVA_AWA_CON	68	B	A	Rpleas_acq	Oppo	Rpleas	2pleas	acq_US_unple_nomask	acq3_nomask	3	35	453	0	300	300	0	0	921	46	1	0	schlau	lachen	schön	loyal	spielen	retten	schroff	leiden	schlecht	lasch	strafen	rächen	helfen	treu	ehrlich	fair	tolerant	freundlich	hindern	tot	eitel	faul	tyrannisch	fanatisch	1	blank2r.bmp	0	1	+	0	1	blank2r.bmp	500	1	BMVZ	500	1	blank2r.bmp	880	4	lasch	880	1	!	1292	1	!	-1	0	0	0	0	0	0
2024-06-05	11:37:24	11:44:17	412810	6.6.1	4_exp_EVA_AWA_CON	68	B	A	Rpleas_acq	Oppo	Rpleas	2pleas	acq_US_unple_nomask	acq3_nomask	3	36	453	1	300	300	0	0	435	50	0	0	schlau	lachen	schön	loyal	spielen	retten	schroff	leiden	schlecht	lasch	strafen	rächen	helfen	treu	ehrlich	fair	tolerant	freundlich	hindern	tot	eitel	faul	tyrannisch	fanatisch	1	blank2r.bmp	0	1	+	0	1	blank2r.bmp	500	1	BMVZ	500	1	blank2r.bmp	880	3	schlecht	880	1	FEHLER	1629	1	!	1293	1	!	1337	0	0	0
2024-06-05	11:37:24	11:44:31	426593	6.6.1	4_exp_EVA_AWA_CON	68	B	A	Rpleas_acq	Oppo	Rpleas	2pleas	acq_US_unple_nomask	acq45_nomask	4	1	400	1	300	300	0	0	450	46	1	0	schlau	lachen	schön	loyal	spielen	retten	schroff	leiden	schlecht	lasch	strafen	rächen	helfen	treu	ehrlich	fair	tolerant	freundlich	hindern	tot	eitel	faul	tyrannisch	fanatisch	1	blank2r.bmp	0	1	+	0	1	blank2r.bmp	500	1	BMVZ	500	1	blank2r.bmp	880	4	lasch	880	1	!	1232	1	!	1352	0	0	0	0	0	0
2024-06-05	11:37:24	11:44:33	428845	6.6.1	4_exp_EVA_AWA_CON	68	B	A	Rpleas_acq	Oppo	Rpleas	2pleas	acq_US_unple_nomask	acq45_nomask	4	2	400	0	300	300	0	0	475	46	1	0	schlau	lachen	schön	loyal	spielen	retten	schroff	leiden	schlecht	lasch	strafen	rächen	helfen	treu	ehrlich	fair	tolerant	freundlich	hindern	tot	eitel	faul	tyrannisch	fanatisch	1	blank2r.bmp	0	1	+	0	1	blank2r.bmp	500	1	BMVZ	500	1	blank2r.bmp	880	5	strafen	880	1	!	1232	1	!	-1	0	0	0	0	0	0
2024-06-05	11:37:24	11:44:35	431167	6.6.1	4_exp_EVA_AWA_CON	68	B	A	Rpleas_acq	Oppo	Rpleas	2pleas	acq_US_pleas_nomask	acq45_nomask	4	3	400	0	300	300	0	0	543	50	1	0	schlau	lachen	schön	loyal	spielen	retten	schroff	leiden	schlecht	lasch	strafen	rächen	helfen	treu	ehrlich	fair	tolerant	freundlich	hindern	tot	eitel	faul	tyrannisch	fanatisch	1	blank2r.bmp	0	1	+	0	1	blank2r.bmp	500	1	GKQX	500	1	blank2r.bmp	880	6	retten	880	1	!	1232	1	!	-1	0	0	0	0	0	0
2024-06-05	11:37:24	11:44:38	433487	6.6.1	4_exp_EVA_AWA_CON	68	B	A	Rpleas_acq	Oppo	Rpleas	2pleas	acq_US_unple_nomask	acq45_nomask	4	4	400	0	300	300	0	0	542	50	0	0	schlau	lachen	schön	loyal	spielen	retten	schroff	leiden	schlecht	lasch	strafen	rächen	helfen	treu	ehrlich	fair	tolerant	freundlich	hindern	tot	eitel	faul	tyrannisch	fanatisch	1	blank2r.bmp	0	1	+	0	1	blank2r.bmp	500	1	BMVZ	500	1	blank2r.bmp	880	6	rächen	880	1	!	1233	1	!	-1	0	0	0	0	0	0
2024-06-05	11:37:24	11:44:40	435705	6.6.1	4_exp_EVA_AWA_CON	68	B	A	Rpleas_acq	Oppo	Rpleas	2pleas	acq_US_pleas_nomask	acq45_nomask	4	5	400	1	300	300	0	0	436	50	1	0	schlau	lachen	schön	loyal	spielen	retten	schroff	leiden	schlecht	lasch	strafen	rächen	helfen	treu	ehrlich	fair	tolerant	freundlich	hindern	tot	eitel	faul	tyrannisch	fanatisch	1	blank2r.bmp	0	1	+	0	1	blank2r.bmp	500	1	GKQX	500	1	blank2r.bmp	880	5	spielen	880	1	!	1233	1	!	1338	0	0	0	0	0	0
2024-06-05	11:37:24	11:44:42	438047	6.6.1	4_exp_EVA_AWA_CON	68	B	A	Rpleas_acq	Oppo	Rpleas	2pleas	acq_US_pleas_nomask	acq45_nomask	4	6	400	0	300	300	0	0	569	50	1	0	schlau	lachen	schön	loyal	spielen	retten	schroff	leiden	schlecht	lasch	strafen	rächen	helfen	treu	ehrlich	fair	tolerant	freundlich	hindern	tot	eitel	faul	tyrannisch	fanatisch	1	blank2r.bmp	0	1	+	0	1	blank2r.bmp	500	1	GKQX	500	1	blank2r.bmp	880	3	schön	880	1	!	1232	1	!	-1	0	0	0	0	0	0
2024-06-05	11:37:24	11:44:44	440233	6.6.1	4_exp_EVA_AWA_CON	68	B	A	Rpleas_acq	Oppo	Rpleas	2pleas	acq_US_unple_nomask	acq45_nomask	4	7	400	1	300	300	0	0	411	46	1	0	schlau	lachen	schön	loyal	spielen	retten	schroff	leiden	schlecht	lasch	strafen	rächen	helfen	treu	ehrlich	fair	tolerant	freundlich	hindern	tot	eitel	faul	tyrannisch	fanatisch	1	blank2r.bmp	0	1	+	0	1	blank2r.bmp	500	1	BMVZ	500	1	blank2r.bmp	880	2	leiden	880	1	!	1233	1	!	1313	0	0	0	0	0	0
2024-06-05	11:37:24	11:44:47	442512	6.6.1	4_exp_EVA_AWA_CON	68	B	A	Rpleas_acq	Oppo	Rpleas	2pleas	acq_US_unple_nomask	acq45_nomask	4	8	400	0	300	300	0	0	500	46	1	0	schlau	lachen	schön	loyal	spielen	retten	schroff	leiden	schlecht	lasch	strafen	rächen	helfen	treu	ehrlich	fair	tolerant	freundlich	hindern	tot	eitel	faul	tyrannisch	fanatisch	1	blank2r.bmp	0	1	+	0	1	blank2r.bmp	500	1	BMVZ	500	1	blank2r.bmp	880	3	schlecht	880	1	!	1233	1	!	-1	0	0	0	0	0	0
2024-06-05	11:37:24	11:44:49	444705	6.6.1	4_exp_EVA_AWA_CON	68	B	A	Rpleas_acq	Oppo	Rpleas	2pleas	acq_US_unple_nomask	acq45_nomask	4	9	400	1	300	300	0	0	410	46	1	0	schlau	lachen	schön	loyal	spielen	retten	schroff	leiden	schlecht	lasch	strafen	rächen	helfen	treu	ehrlich	fair	tolerant	freundlich	hindern	tot	eitel	faul	tyrannisch	fanatisch	1	blank2r.bmp	0	1	+	0	1	blank2r.bmp	500	1	BMVZ	500	1	blank2r.bmp	880	1	schroff	880	1	!	1232	1	!	1312	0	0	0	0	0	0
2024-06-05	11:37:24	11:44:51	446983	6.6.1	4_exp_EVA_AWA_CON	68	B	A	Rpleas_acq	Oppo	Rpleas	2pleas	acq_US_pleas_nomask	acq45_nomask	4	10	400	0	300	300	0	0	499	50	1	0	schlau	lachen	schön	loyal	spielen	retten	schroff	leiden	schlecht	lasch	strafen	rächen	helfen	treu	ehrlich	fair	tolerant	freundlich	hindern	tot	eitel	faul	tyrannisch	fanatisch	1	blank2r.bmp	0	1	+	0	1	blank2r.bmp	500	1	GKQX	500	1	blank2r.bmp	880	2	lachen	880	1	!	1233	1	!	-1	0	0	0	0	0	0
2024-06-05	11:37:24	11:44:53	449185	6.6.1	4_exp_EVA_AWA_CON	68	B	A	Rpleas_acq	Oppo	Rpleas	2pleas	acq_US_pleas_nomask	acq45_nomask	4	11	400	1	300	300	0	0	428	50	1	0	schlau	lachen	schön	loyal	spielen	retten	schroff	leiden	schlecht	lasch	strafen	rächen	helfen	treu	ehrlich	fair	tolerant	freundlich	hindern	tot	eitel	faul	tyrannisch	fanatisch	1	blank2r.bmp	0	1	+	0	1	blank2r.bmp	500	1	GKQX	500	1	blank2r.bmp	880	4	loyal	880	1	!	1232	1	!	1329	0	0	0	0	0	0
2024-06-05	11:37:24	11:44:56	451401	6.6.1	4_exp_EVA_AWA_CON	68	B	A	Rpleas_acq	Oppo	Rpleas	2pleas	acq_US_pleas_nomask	acq45_nomask	4	12	400	1	300	300	0	0	432	46	0	0	schlau	lachen	schön	loyal	spielen	retten	schroff	leiden	schlecht	lasch	strafen	rächen	helfen	treu	ehrlich	fair	tolerant	freundlich	hindern	tot	eitel	faul	tyrannisch	fanatisch	1	blank2r.bmp	0	1	+	0	1	blank2r.bmp	500	1	GKQX	500	1	blank2r.bmp	880	1	schlau	880	1	!	1232	1	!	1334	0	0	0	0	0	0
2024-06-05	11:37:24	11:44:58	453601	6.6.1	4_exp_EVA_AWA_CON	68	B	A	Rpleas_acq	Oppo	Rpleas	2pleas	acq_US_unple_nomask	acq45_nomask	4	13	400	1	300	300	0	0	421	46	1	0	schlau	lachen	schön	loyal	spielen	retten	schroff	leiden	schlecht	lasch	strafen	rächen	helfen	treu	ehrlich	fair	tolerant	freundlich	hindern	tot	eitel	faul	tyrannisch	fanatisch	1	blank2r.bmp	0	1	+	0	1	blank2r.bmp	500	1	BMVZ	500	1	blank2r.bmp	880	5	strafen	880	1	!	1232	1	!	1322	0	0	0	0	0	0
2024-06-05	11:37:24	11:45:00	455793	6.6.1	4_exp_EVA_AWA_CON	68	B	A	Rpleas_acq	Oppo	Rpleas	2pleas	acq_US_unple_nomask	acq45_nomask	4	14	400	1	300	300	0	0	411	46	1	0	schlau	lachen	schön	loyal	spielen	retten	schroff	leiden	schlecht	lasch	strafen	rächen	helfen	treu	ehrlich	fair	tolerant	freundlich	hindern	tot	eitel	faul	tyrannisch	fanatisch	1	blank2r.bmp	0	1	+	0	1	blank2r.bmp	500	1	BMVZ	500	1	blank2r.bmp	880	2	leiden	880	1	!	1233	1	!	1313	0	0	0	0	0	0
2024-06-05	11:37:24	11:45:02	457912	6.6.1	4_exp_EVA_AWA_CON	68	B	A	Rpleas_acq	Oppo	Rpleas	2pleas	acq_US_pleas_nomask	acq45_nomask	4	15	400	1	300	300	0	0	340	50	1	0	schlau	lachen	schön	loyal	spielen	retten	schroff	leiden	schlecht	lasch	strafen	rächen	helfen	treu	ehrlich	fair	tolerant	freundlich	hindern	tot	eitel	faul	tyrannisch	fanatisch	1	blank2r.bmp	0	1	+	0	1	blank2r.bmp	500	1	GKQX	500	1	blank2r.bmp	880	3	schön	880	1	!	1232	1	!	1240	0	0	0	0	0	0
2024-06-05	11:37:24	11:45:04	460173	6.6.1	4_exp_EVA_AWA_CON	68	B	A	Rpleas_acq	Oppo	Rpleas	2pleas	acq_US_pleas_nomask	acq45_nomask	4	16	400	0	300	300	0	0	482	50	1	0	schlau	lachen	schön	loyal	spielen	retten	schroff	leiden	schlecht	lasch	strafen	rächen	helfen	treu	ehrlich	fair	tolerant	freundlich	hindern	tot	eitel	faul	tyrannisch	fanatisch	1	blank2r.bmp	0	1	+	0	1	blank2r.bmp	500	1	GKQX	500	1	blank2r.bmp	880	4	loyal	880	1	!	1233	1	!	-1	0	0	0	0	0	0
2024-06-05	11:37:24	11:45:07	462385	6.6.1	4_exp_EVA_AWA_CON	68	B	A	Rpleas_acq	Oppo	Rpleas	2pleas	acq_US_unple_nomask	acq45_nomask	4	17	400	1	300	300	0	0	429	46	1	0	schlau	lachen	schön	loyal	spielen	retten	schroff	leiden	schlecht	lasch	strafen	rächen	helfen	treu	ehrlich	fair	tolerant	freundlich	hindern	tot	eitel	faul	tyrannisch	fanatisch	1	blank2r.bmp	0	1	+	0	1	blank2r.bmp	500	1	BMVZ	500	1	blank2r.bmp	880	3	schlecht	880	1	!	1233	1	!	1331	0	0	0	0	0	0
2024-06-05	11:37:24	11:45:09	464831	6.6.1	4_exp_EVA_AWA_CON	68	B	A	Rpleas_acq	Oppo	Rpleas	2pleas	acq_US_pleas_nomask	acq45_nomask	4	18	400	0	300	300	0	0	666	50	1	0	schlau	lachen	schön	loyal	spielen	retten	schroff	leiden	schlecht	lasch	strafen	rächen	helfen	treu	ehrlich	fair	tolerant	freundlich	hindern	tot	eitel	faul	tyrannisch	fanatisch	1	blank2r.bmp	0	1	+	0	1	blank2r.bmp	500	1	GKQX	500	1	blank2r.bmp	880	2	lachen	880	1	!	1232	1	!	-1	0	0	0	0	0	0
2024-06-05	11:37:24	11:45:11	467009	6.6.1	4_exp_EVA_AWA_CON	68	B	A	Rpleas_acq	Oppo	Rpleas	2pleas	acq_US_pleas_nomask	acq45_nomask	4	19	400	1	300	300	0	0	400	50	1	0	schlau	lachen	schön	loyal	spielen	retten	schroff	leiden	schlecht	lasch	strafen	rächen	helfen	treu	ehrlich	fair	tolerant	freundlich	hindern	tot	eitel	faul	tyrannisch	fanatisch	1	blank2r.bmp	0	1	+	0	1	blank2r.bmp	500	1	GKQX	500	1	blank2r.bmp	880	5	spielen	880	1	!	1233	1	!	1302	0	0	0	0	0	0
2024-06-05	11:37:24	11:45:14	469280	6.6.1	4_exp_EVA_AWA_CON	68	B	A	Rpleas_acq	Oppo	Rpleas	2pleas	acq_US_unple_nomask	acq45_nomask	4	20	400	0	300	300	0	0	491	50	0	0	schlau	lachen	schön	loyal	spielen	retten	schroff	leiden	schlecht	lasch	strafen	rächen	helfen	treu	ehrlich	fair	tolerant	freundlich	hindern	tot	eitel	faul	tyrannisch	fanatisch	1	blank2r.bmp	0	1	+	0	1	blank2r.bmp	500	1	BMVZ	500	1	blank2r.bmp	880	6	rächen	880	1	!	1233	1	!	-1	0	0	0	0	0	0
2024-06-05	11:37:24	11:45:16	471533	6.6.1	4_exp_EVA_AWA_CON	68	B	A	Rpleas_acq	Oppo	Rpleas	2pleas	acq_US_pleas_nomask	acq45_nomask	4	21	400	0	300	300	0	0	475	46	0	0	schlau	lachen	schön	loyal	spielen	retten	schroff	leiden	schlecht	lasch	strafen	rächen	helfen	treu	ehrlich	fair	tolerant	freundlich	hindern	tot	eitel	faul	tyrannisch	fanatisch	1	blank2r.bmp	0	1	+	0	1	blank2r.bmp	500	1	GKQX	500	1	blank2r.bmp	880	6	retten	880	1	!	1233	1	!	-1	0	0	0	0	0	0
2024-06-05	11:37:24	11:45:18	473713	6.6.1	4_exp_EVA_AWA_CON	68	B	A	Rpleas_acq	Oppo	Rpleas	2pleas	acq_US_unple_nomask	acq45_nomask	4	22	400	1	300	300	0	0	400	46	1	0	schlau	lachen	schön	loyal	spielen	retten	schroff	leiden	schlecht	lasch	strafen	rächen	helfen	treu	ehrlich	fair	tolerant	freundlich	hindern	tot	eitel	faul	tyrannisch	fanatisch	1	blank2r.bmp	0	1	+	0	1	blank2r.bmp	500	1	BMVZ	500	1	blank2r.bmp	880	1	schroff	880	1	!	1233	1	!	1302	0	0	0	0	0	0
2024-06-05	11:37:24	11:45:20	476087	6.6.1	4_exp_EVA_AWA_CON	68	B	A	Rpleas_acq	Oppo	Rpleas	2pleas	acq_US_unple_nomask	acq45_nomask	4	23	400	0	300	300	0	0	594	50	0	0	schlau	lachen	schön	loyal	spielen	retten	schroff	leiden	schlecht	lasch	strafen	rächen	helfen	treu	ehrlich	fair	tolerant	freundlich	hindern	tot	eitel	faul	tyrannisch	fanatisch	1	blank2r.bmp	0	1	+	0	1	blank2r.bmp	500	1	BMVZ	500	1	blank2r.bmp	880	4	lasch	880	1	!	1233	1	!	-1	0	0	0	0	0	0
2024-06-05	11:37:24	11:45:23	478391	6.6.1	4_exp_EVA_AWA_CON	68	B	A	Rpleas_acq	Oppo	Rpleas	2pleas	acq_US_unple_nomask	acq45_nomask	4	24	400	0	300	300	0	0	527	46	1	0	schlau	lachen	schön	loyal	spielen	retten	schroff	leiden	schlecht	lasch	strafen	rächen	helfen	treu	ehrlich	fair	tolerant	freundlich	hindern	tot	eitel	faul	tyrannisch	fanatisch	1	blank2r.bmp	0	1	+	0	1	blank2r.bmp	500	1	BMVZ	500	1	blank2r.bmp	880	5	strafen	880	1	!	1232	1	!	-1	0	0	0	0	0	0
2024-06-05	11:37:24	11:45:25	480625	6.6.1	4_exp_EVA_AWA_CON	68	B	A	Rpleas_acq	Oppo	Rpleas	2pleas	acq_US_unple_nomask	acq45_nomask	4	25	400	1	300	300	0	0	457	46	1	0	schlau	lachen	schön	loyal	spielen	retten	schroff	leiden	schlecht	lasch	strafen	rächen	helfen	treu	ehrlich	fair	tolerant	freundlich	hindern	tot	eitel	faul	tyrannisch	fanatisch	1	blank2r.bmp	0	1	+	0	1	blank2r.bmp	500	1	BMVZ	500	1	blank2r.bmp	880	3	schlecht	880	1	!	1232	1	!	1359	0	0	0	0	0	0
2024-06-05	11:37:24	11:45:27	482911	6.6.1	4_exp_EVA_AWA_CON	68	B	A	Rpleas_acq	Oppo	Rpleas	2pleas	acq_US_pleas_nomask	acq45_nomask	4	26	400	0	300	300	0	0	514	50	1	0	schlau	lachen	schön	loyal	spielen	retten	schroff	leiden	schlecht	lasch	strafen	rächen	helfen	treu	ehrlich	fair	tolerant	freundlich	hindern	tot	eitel	faul	tyrannisch	fanatisch	1	blank2r.bmp	0	1	+	0	1	blank2r.bmp	500	1	GKQX	500	1	blank2r.bmp	880	1	schlau	880	1	!	1232	1	!	-1	0	0	0	0	0	0
2024-06-05	11:37:24	11:45:30	485295	6.6.1	4_exp_EVA_AWA_CON	68	B	A	Rpleas_acq	Oppo	Rpleas	2pleas	acq_US_unple_nomask	acq45_nomask	4	27	400	0	300	300	0	0	606	46	1	0	schlau	lachen	schön	loyal	spielen	retten	schroff	leiden	schlecht	lasch	strafen	rächen	helfen	treu	ehrlich	fair	tolerant	freundlich	hindern	tot	eitel	faul	tyrannisch	fanatisch	1	blank2r.bmp	0	1	+	0	1	blank2r.bmp	500	1	BMVZ	500	1	blank2r.bmp	880	6	rächen	880	1	!	1232	1	!	-1	0	0	0	0	0	0
2024-06-05	11:37:24	11:45:32	487575	6.6.1	4_exp_EVA_AWA_CON	68	B	A	Rpleas_acq	Oppo	Rpleas	2pleas	acq_US_pleas_nomask	acq45_nomask	4	28	400	0	300	300	0	0	505	50	1	0	schlau	lachen	schön	loyal	spielen	retten	schroff	leiden	schlecht	lasch	strafen	rächen	helfen	treu	ehrlich	fair	tolerant	freundlich	hindern	tot	eitel	faul	tyrannisch	fanatisch	1	blank2r.bmp	0	1	+	0	1	blank2r.bmp	500	1	GKQX	500	1	blank2r.bmp	880	2	lachen	880	1	!	1232	1	!	-1	0	0	0	0	0	0
2024-06-05	11:37:24	11:45:34	489999	6.6.1	4_exp_EVA_AWA_CON	68	B	A	Rpleas_acq	Oppo	Rpleas	2pleas	acq_US_unple_nomask	acq45_nomask	4	29	400	0	300	300	0	0	647	46	1	0	schlau	lachen	schön	loyal	spielen	retten	schroff	leiden	schlecht	lasch	strafen	rächen	helfen	treu	ehrlich	fair	tolerant	freundlich	hindern	tot	eitel	faul	tyrannisch	fanatisch	1	blank2r.bmp	0	1	+	0	1	blank2r.bmp	500	1	BMVZ	500	1	blank2r.bmp	880	4	lasch	880	1	!	1232	1	!	-1	0	0	0	0	0	0
2024-06-05	11:37:24	11:45:36	492111	6.6.1	4_exp_EVA_AWA_CON	68	B	A	Rpleas_acq	Oppo	Rpleas	2pleas	acq_US_pleas_nomask	acq45_nomask	4	30	400	1	300	300	0	0	338	50	1	0	schlau	lachen	schön	loyal	spielen	retten	schroff	leiden	schlecht	lasch	strafen	rächen	helfen	treu	ehrlich	fair	tolerant	freundlich	hindern	tot	eitel	faul	tyrannisch	fanatisch	1	blank2r.bmp	0	1	+	0	1	blank2r.bmp	500	1	GKQX	500	1	blank2r.bmp	880	6	retten	880	1	!	1233	1	!	1238	0	0	0	0	0	0
2024-06-05	11:37:24	11:45:39	494298	6.6.1	4_exp_EVA_AWA_CON	68	B	A	Rpleas_acq	Oppo	Rpleas	2pleas	acq_US_pleas_nomask	acq45_nomask	4	31	400	1	300	300	0	0	410	50	1	0	schlau	lachen	schön	loyal	spielen	retten	schroff	leiden	schlecht	lasch	strafen	rächen	helfen	treu	ehrlich	fair	tolerant	freundlich	hindern	tot	eitel	faul	tyrannisch	fanatisch	1	blank2r.bmp	0	1	+	0	1	blank2r.bmp	500	1	GKQX	500	1	blank2r.bmp	880	1	schlau	880	1	!	1233	1	!	1312	0	0	0	0	0	0
2024-06-05	11:37:24	11:45:41	496481	6.6.1	4_exp_EVA_AWA_CON	68	B	A	Rpleas_acq	Oppo	Rpleas	2pleas	acq_US_pleas_nomask	acq45_nomask	4	32	400	1	300	300	0	0	403	50	1	0	schlau	lachen	schön	loyal	spielen	retten	schroff	leiden	schlecht	lasch	strafen	rächen	helfen	treu	ehrlich	fair	tolerant	freundlich	hindern	tot	eitel	faul	tyrannisch	fanatisch	1	blank2r.bmp	0	1	+	0	1	blank2r.bmp	500	1	GKQX	500	1	blank2r.bmp	880	4	loyal	880	1	!	1232	1	!	1304	0	0	0	0	0	0
2024-06-05	11:37:24	11:45:43	498633	6.6.1	4_exp_EVA_AWA_CON	68	B	A	Rpleas_acq	Oppo	Rpleas	2pleas	acq_US_pleas_nomask	acq45_nomask	4	33	400	1	300	300	0	0	373	50	1	0	schlau	lachen	schön	loyal	spielen	retten	schroff	leiden	schlecht	lasch	strafen	rächen	helfen	treu	ehrlich	fair	tolerant	freundlich	hindern	tot	eitel	faul	tyrannisch	fanatisch	1	blank2r.bmp	0	1	+	0	1	blank2r.bmp	500	1	GKQX	500	1	blank2r.bmp	880	5	spielen	880	1	!	1233	1	!	1275	0	0	0	0	0	0
2024-06-05	11:37:24	11:45:45	500751	6.6.1	4_exp_EVA_AWA_CON	68	B	A	Rpleas_acq	Oppo	Rpleas	2pleas	acq_US_pleas_nomask	acq45_nomask	4	34	400	1	300	300	0	0	342	50	1	0	schlau	lachen	schön	loyal	spielen	retten	schroff	leiden	schlecht	lasch	strafen	rächen	helfen	treu	ehrlich	fair	tolerant	freundlich	hindern	tot	eitel	faul	tyrannisch	fanatisch	1	blank2r.bmp	0	1	+	0	1	blank2r.bmp	500	1	GKQX	500	1	blank2r.bmp	880	3	schön	880	1	!	1233	1	!	1242	0	0	0	0	0	0
2024-06-05	11:37:24	11:45:48	503367	6.6.1	4_exp_EVA_AWA_CON	68	B	A	Rpleas_acq	Oppo	Rpleas	2pleas	acq_US_unple_nomask	acq45_nomask	4	35	400	0	300	300	0	0	837	50	0	0	schlau	lachen	schön	loyal	spielen	retten	schroff	leiden	schlecht	lasch	strafen	rächen	helfen	treu	ehrlich	fair	tolerant	freundlich	hindern	tot	eitel	faul	tyrannisch	fanatisch	1	blank2r.bmp	0	1	+	0	1	blank2r.bmp	500	1	BMVZ	500	1	blank2r.bmp	880	2	leiden	880	1	!	1233	1	!	-1	0	0	0	0	0	0
2024-06-05	11:37:24	11:45:50	505609	6.6.1	4_exp_EVA_AWA_CON	68	B	A	Rpleas_acq	Oppo	Rpleas	2pleas	acq_US_unple_nomask	acq45_nomask	4	36	400	1	300	300	0	0	465	46	1	0	schlau	lachen	schön	loyal	spielen	retten	schroff	leiden	schlecht	lasch	strafen	rächen	helfen	treu	ehrlich	fair	tolerant	freundlich	hindern	tot	eitel	faul	tyrannisch	fanatisch	1	blank2r.bmp	0	1	+	0	1	blank2r.bmp	500	1	BMVZ	500	1	blank2r.bmp	880	1	schroff	880	1	!	1232	1	!	1366	0	0	0	0	0	0
2024-06-05	11:37:24	11:46:01	516265	6.6.1	4_exp_EVA_AWA_CON	68	B	A	Rpleas_acq	Oppo	Rpleas	2pleas	acq_US_unple_nomask	acq45_nomask	5	1	400	1	300	300	0	0	434	46	1	0	schlau	lachen	schön	loyal	spielen	retten	schroff	leiden	schlecht	lasch	strafen	rächen	helfen	treu	ehrlich	fair	tolerant	freundlich	hindern	tot	eitel	faul	tyrannisch	fanatisch	1	blank2r.bmp	0	1	+	0	1	blank2r.bmp	500	1	BMVZ	500	1	blank2r.bmp	880	5	strafen	880	1	!	1232	1	!	1336	0	0	0	0	0	0
2024-06-05	11:37:24	11:46:03	518505	6.6.1	4_exp_EVA_AWA_CON	68	B	A	Rpleas_acq	Oppo	Rpleas	2pleas	acq_US_pleas_nomask	acq45_nomask	5	2	400	1	300	300	0	0	463	50	1	0	schlau	lachen	schön	loyal	spielen	retten	schroff	leiden	schlecht	lasch	strafen	rächen	helfen	treu	ehrlich	fair	tolerant	freundlich	hindern	tot	eitel	faul	tyrannisch	fanatisch	1	blank2r.bmp	0	1	+	0	1	blank2r.bmp	500	1	GKQX	500	1	blank2r.bmp	880	3	schön	880	1	!	1233	1	!	1364	0	0	0	0	0	0
2024-06-05	11:37:24	11:46:05	520943	6.6.1	4_exp_EVA_AWA_CON	68	B	A	Rpleas_acq	Oppo	Rpleas	2pleas	acq_US_pleas_nomask	acq45_nomask	5	3	400	0	300	300	0	0	661	50	1	0	schlau	lachen	schön	loyal	spielen	retten	schroff	leiden	schlecht	lasch	strafen	rächen	helfen	treu	ehrlich	fair	tolerant	freundlich	hindern	tot	eitel	faul	tyrannisch	fanatisch	1	blank2r.bmp	0	1	+	0	1	blank2r.bmp	500	1	GKQX	500	1	blank2r.bmp	880	4	loyal	880	1	!	1232	1	!	-1	0	0	0	0	0	0
2024-06-05	11:37:24	11:46:08	523424	6.6.1	4_exp_EVA_AWA_CON	68	B	A	Rpleas_acq	Oppo	Rpleas	2pleas	acq_US_unple_nomask	acq45_nomask	5	4	400	0	300	300	0	0	700	46	1	0	schlau	lachen	schön	loyal	spielen	retten	schroff	leiden	schlecht	lasch	strafen	rächen	helfen	treu	ehrlich	fair	tolerant	freundlich	hindern	tot	eitel	faul	tyrannisch	fanatisch	1	blank2r.bmp	0	1	+	0	1	blank2r.bmp	500	1	BMVZ	500	1	blank2r.bmp	880	1	schroff	880	1	!	1232	1	!	-1	0	0	0	0	0	0
2024-06-05	11:37:24	11:46:10	525759	6.6.1	4_exp_EVA_AWA_CON	68	B	A	Rpleas_acq	Oppo	Rpleas	2pleas	acq_US_unple_nomask	acq45_nomask	5	5	400	0	300	300	0	0	554	46	1	0	schlau	lachen	schön	loyal	spielen	retten	schroff	leiden	schlecht	lasch	strafen	rächen	helfen	treu	ehrlich	fair	tolerant	freundlich	hindern	tot	eitel	faul	tyrannisch	fanatisch	1	blank2r.bmp	0	1	+	0	1	blank2r.bmp	500	1	BMVZ	500	1	blank2r.bmp	880	4	lasch	880	1	!	1232	1	!	-1	0	0	0	0	0	0
2024-06-05	11:37:24	11:46:12	528013	6.6.1	4_exp_EVA_AWA_CON	68	B	A	Rpleas_acq	Oppo	Rpleas	2pleas	acq_US_pleas_nomask	acq45_nomask	5	6	400	0	300	300	0	0	479	50	1	0	schlau	lachen	schön	loyal	spielen	retten	schroff	leiden	schlecht	lasch	strafen	rächen	helfen	treu	ehrlich	fair	tolerant	freundlich	hindern	tot	eitel	faul	tyrannisch	fanatisch	1	blank2r.bmp	0	1	+	0	1	blank2r.bmp	500	1	GKQX	500	1	blank2r.bmp	880	2	lachen	880	1	!	1232	1	!	-1	0	0	0	0	0	0
2024-06-05	11:37:24	11:46:15	530241	6.6.1	4_exp_EVA_AWA_CON	68	B	A	Rpleas_acq	Oppo	Rpleas	2pleas	acq_US_unple_nomask	acq45_nomask	5	7	400	1	300	300	0	0	451	46	1	0	schlau	lachen	schön	loyal	spielen	retten	schroff	leiden	schlecht	lasch	strafen	rächen	helfen	treu	ehrlich	fair	tolerant	freundlich	hindern	tot	eitel	faul	tyrannisch	fanatisch	1	blank2r.bmp	0	1	+	0	1	blank2r.bmp	500	1	BMVZ	500	1	blank2r.bmp	880	3	schlecht	880	1	!	1232	1	!	1352	0	0	0	0	0	0
2024-06-05	11:37:24	11:46:17	532527	6.6.1	4_exp_EVA_AWA_CON	68	B	A	Rpleas_acq	Oppo	Rpleas	2pleas	acq_US_unple_nomask	acq45_nomask	5	8	400	0	300	300	0	0	507	50	0	0	schlau	lachen	schön	loyal	spielen	retten	schroff	leiden	schlecht	lasch	strafen	rächen	helfen	treu	ehrlich	fair	tolerant	freundlich	hindern	tot	eitel	faul	tyrannisch	fanatisch	1	blank2r.bmp	0	1	+	0	1	blank2r.bmp	500	1	BMVZ	500	1	blank2r.bmp	880	6	rächen	880	1	!	1232	1	!	-1	0	0	0	0	0	0
2024-06-05	11:37:24	11:46:19	534761	6.6.1	4_exp_EVA_AWA_CON	68	B	A	Rpleas_acq	Oppo	Rpleas	2pleas	acq_US_pleas_nomask	acq45_nomask	5	9	400	1	300	300	0	0	458	50	1	0	schlau	lachen	schön	loyal	spielen	retten	schroff	leiden	schlecht	lasch	strafen	rächen	helfen	treu	ehrlich	fair	tolerant	freundlich	hindern	tot	eitel	faul	tyrannisch	fanatisch	1	blank2r.bmp	0	1	+	0	1	blank2r.bmp	500	1	GKQX	500	1	blank2r.bmp	880	6	retten	880	1	!	1232	1	!	1359	0	0	0	0	0	0
2024-06-05	11:37:24	11:46:21	536905	6.6.1	4_exp_EVA_AWA_CON	68	B	A	Rpleas_acq	Oppo	Rpleas	2pleas	acq_US_unple_nomask	acq45_nomask	5	10	400	1	300	300	0	0	361	46	1	0	schlau	lachen	schön	loyal	spielen	retten	schroff	leiden	schlecht	lasch	strafen	rächen	helfen	treu	ehrlich	fair	tolerant	freundlich	hindern	tot	eitel	faul	tyrannisch	fanatisch	1	blank2r.bmp	0	1	+	0	1	blank2r.bmp	500	1	BMVZ	500	1	blank2r.bmp	880	2	leiden	880	1	!	1232	1	!	1262	0	0	0	0	0	0
2024-06-05	11:37:24	11:46:23	539191	6.6.1	4_exp_EVA_AWA_CON	68	B	A	Rpleas_acq	Oppo	Rpleas	2pleas	acq_US_pleas_nomask	acq45_nomask	5	11	400	0	300	300	0	0	507	46	0	0	schlau	lachen	schön	loyal	spielen	retten	schroff	leiden	schlecht	lasch	strafen	rächen	helfen	treu	ehrlich	fair	tolerant	freundlich	hindern	tot	eitel	faul	tyrannisch	fanatisch	1	blank2r.bmp	0	1	+	0	1	blank2r.bmp	500	1	GKQX	500	1	blank2r.bmp	880	1	schlau	880	1	!	1232	1	!	-1	0	0	0	0	0	0
2024-06-05	11:37:24	11:46:26	541511	6.6.1	4_exp_EVA_AWA_CON	68	B	A	Rpleas_acq	Oppo	Rpleas	2pleas	acq_US_pleas_nomask	acq45_nomask	5	12	400	0	300	300	0	0	546	46	0	0	schlau	lachen	schön	loyal	spielen	retten	schroff	leiden	schlecht	lasch	strafen	rächen	helfen	treu	ehrlich	fair	tolerant	freundlich	hindern	tot	eitel	faul	tyrannisch	fanatisch	1	blank2r.bmp	0	1	+	0	1	blank2r.bmp	500	1	GKQX	500	1	blank2r.bmp	880	5	spielen	880	1	!	1232	1	!	-1	0	0	0	0	0	0
2024-06-05	11:37:24	11:46:28	543823	6.6.1	4_exp_EVA_AWA_CON	68	B	A	Rpleas_acq	Oppo	Rpleas	2pleas	acq_US_unple_nomask	acq45_nomask	5	13	400	0	300	300	0	0	536	46	1	0	schlau	lachen	schön	loyal	spielen	retten	schroff	leiden	schlecht	lasch	strafen	rächen	helfen	treu	ehrlich	fair	tolerant	freundlich	hindern	tot	eitel	faul	tyrannisch	fanatisch	1	blank2r.bmp	0	1	+	0	1	blank2r.bmp	500	1	BMVZ	500	1	blank2r.bmp	880	6	rächen	880	1	!	1233	1	!	-1	0	0	0	0	0	0
2024-06-05	11:37:24	11:46:30	546231	6.6.1	4_exp_EVA_AWA_CON	68	B	A	Rpleas_acq	Oppo	Rpleas	2pleas	acq_US_unple_nomask	acq45_nomask	5	14	400	0	300	300	0	0	633	46	1	0	schlau	lachen	schön	loyal	spielen	retten	schroff	leiden	schlecht	lasch	strafen	rächen	helfen	treu	ehrlich	fair	tolerant	freundlich	hindern	tot	eitel	faul	tyrannisch	fanatisch	1	blank2r.bmp	0	1	+	0	1	blank2r.bmp	500	1	BMVZ	500	1	blank2r.bmp	880	5	strafen	880	1	!	1232	1	!	-1	0	0	0	0	0	0
2024-06-05	11:37:24	11:46:33	548433	6.6.1	4_exp_EVA_AWA_CON	68	B	A	Rpleas_acq	Oppo	Rpleas	2pleas	acq_US_pleas_nomask	acq45_nomask	5	15	400	1	300	300	0	0	421	50	1	0	schlau	lachen	schön	loyal	spielen	retten	schroff	leiden	schlecht	lasch	strafen	rächen	helfen	treu	ehrlich	fair	tolerant	freundlich	hindern	tot	eitel	faul	tyrannisch	fanatisch	1	blank2r.bmp	0	1	+	0	1	blank2r.bmp	500	1	GKQX	500	1	blank2r.bmp	880	6	retten	880	1	!	1232	1	!	1322	0	0	0	0	0	0
2024-06-05	11:37:24	11:46:35	550695	6.6.1	4_exp_EVA_AWA_CON	68	B	A	Rpleas_acq	Oppo	Rpleas	2pleas	acq_US_pleas_nomask	acq45_nomask	5	16	400	0	300	300	0	0	484	50	1	0	schlau	lachen	schön	loyal	spielen	retten	schroff	leiden	schlecht	lasch	strafen	rächen	helfen	treu	ehrlich	fair	tolerant	freundlich	hindern	tot	eitel	faul	tyrannisch	fanatisch	1	blank2r.bmp	0	1	+	0	1	blank2r.bmp	500	1	GKQX	500	1	blank2r.bmp	880	2	lachen	880	1	!	1232	1	!	-1	0	0	0	0	0	0
2024-06-05	11:37:24	11:46:37	552865	6.6.1	4_exp_EVA_AWA_CON	68	B	A	Rpleas_acq	Oppo	Rpleas	2pleas	acq_US_pleas_nomask	acq45_nomask	5	17	400	1	300	300	0	0	390	50	1	0	schlau	lachen	schön	loyal	spielen	retten	schroff	leiden	schlecht	lasch	strafen	rächen	helfen	treu	ehrlich	fair	tolerant	freundlich	hindern	tot	eitel	faul	tyrannisch	fanatisch	1	blank2r.bmp	0	1	+	0	1	blank2r.bmp	500	1	GKQX	500	1	blank2r.bmp	880	3	schön	880	1	!	1233	1	!	1292	0	0	0	0	0	0
2024-06-05	11:37:24	11:46:39	555143	6.6.1	4_exp_EVA_AWA_CON	68	B	A	Rpleas_acq	Oppo	Rpleas	2pleas	acq_US_unple_nomask	acq45_nomask	5	18	400	0	300	300	0	0	499	46	1	0	schlau	lachen	schön	loyal	spielen	retten	schroff	leiden	schlecht	lasch	strafen	rächen	helfen	treu	ehrlich	fair	tolerant	freundlich	hindern	tot	eitel	faul	tyrannisch	fanatisch	1	blank2r.bmp	0	1	+	0	1	blank2r.bmp	500	1	BMVZ	500	1	blank2r.bmp	880	4	lasch	880	1	!	1233	1	!	-1	0	0	0	0	0	0
2024-06-05	11:37:24	11:46:42	557519	6.6.1	4_exp_EVA_AWA_CON	68	B	A	Rpleas_acq	Oppo	Rpleas	2pleas	acq_US_unple_nomask	acq45_nomask	5	19	400	0	300	300	0	0	603	46	1	0	schlau	lachen	schön	loyal	spielen	retten	schroff	leiden	schlecht	lasch	strafen	rächen	helfen	treu	ehrlich	fair	tolerant	freundlich	hindern	tot	eitel	faul	tyrannisch	fanatisch	1	blank2r.bmp	0	1	+	0	1	blank2r.bmp	500	1	BMVZ	500	1	blank2r.bmp	880	3	schlecht	880	1	!	1232	1	!	-1	0	0	0	0	0	0
2024-06-05	11:37:24	11:46:44	559753	6.6.1	4_exp_EVA_AWA_CON	68	B	A	Rpleas_acq	Oppo	Rpleas	2pleas	acq_US_pleas_nomask	acq45_nomask	5	20	400	1	300	300	0	0	454	50	1	0	schlau	lachen	schön	loyal	spielen	retten	schroff	leiden	schlecht	lasch	strafen	rächen	helfen	treu	ehrlich	fair	tolerant	freundlich	hindern	tot	eitel	faul	tyrannisch	fanatisch	1	blank2r.bmp	0	1	+	0	1	blank2r.bmp	500	1	GKQX	500	1	blank2r.bmp	880	5	spielen	880	1	!	1232	1	!	1355	0	0	0	0	0	0
2024-06-05	11:37:24	11:46:46	561847	6.6.1	4_exp_EVA_AWA_CON	68	B	A	Rpleas_acq	Oppo	Rpleas	2pleas	acq_US_pleas_nomask	acq45_nomask	5	21	400	0	300	300	0	0	318	46	0	0	schlau	lachen	schön	loyal	spielen	retten	schroff	leiden	schlecht	lasch	strafen	rächen	helfen	treu	ehrlich	fair	tolerant	freundlich	hindern	tot	eitel	faul	tyrannisch	fanatisch	1	blank2r.bmp	0	1	+	0	1	blank2r.bmp	500	1	GKQX	500	1	blank2r.bmp	880	1	schlau	880	1	!	-1	1	!	-1	0	0	0	0	0	0
2024-06-05	11:37:24	11:46:48	564143	6.6.1	4_exp_EVA_AWA_CON	68	B	A	Rpleas_acq	Oppo	Rpleas	2pleas	acq_US_pleas_nomask	acq45_nomask	5	22	400	0	300	300	0	0	523	50	1	0	schlau	lachen	schön	loyal	spielen	retten	schroff	leiden	schlecht	lasch	strafen	rächen	helfen	treu	ehrlich	fair	tolerant	freundlich	hindern	tot	eitel	faul	tyrannisch	fanatisch	1	blank2r.bmp	0	1	+	0	1	blank2r.bmp	500	1	GKQX	500	1	blank2r.bmp	880	4	loyal	880	1	!	1233	1	!	-1	0	0	0	0	0	0
2024-06-05	11:37:24	11:46:51	566353	6.6.1	4_exp_EVA_AWA_CON	68	B	A	Rpleas_acq	Oppo	Rpleas	2pleas	acq_US_pleas_nomask	acq45_nomask	5	23	400	1	300	300	0	0	430	50	1	0	schlau	lachen	schön	loyal	spielen	retten	schroff	leiden	schlecht	lasch	strafen	rächen	helfen	treu	ehrlich	fair	tolerant	freundlich	hindern	tot	eitel	faul	tyrannisch	fanatisch	1	blank2r.bmp	0	1	+	0	1	blank2r.bmp	500	1	GKQX	500	1	blank2r.bmp	880	2	lachen	880	1	!	1232	1	!	1332	0	0	0	0	0	0
2024-06-05	11:37:24	11:46:53	568585	6.6.1	4_exp_EVA_AWA_CON	68	B	A	Rpleas_acq	Oppo	Rpleas	2pleas	acq_US_unple_nomask	acq45_nomask	5	24	400	1	300	300	0	0	450	46	1	0	schlau	lachen	schön	loyal	spielen	retten	schroff	leiden	schlecht	lasch	strafen	rächen	helfen	treu	ehrlich	fair	tolerant	freundlich	hindern	tot	eitel	faul	tyrannisch	fanatisch	1	blank2r.bmp	0	1	+	0	1	blank2r.bmp	500	1	BMVZ	500	1	blank2r.bmp	880	1	schroff	880	1	!	1232	1	!	1352	0	0	0	0	0	0
2024-06-05	11:37:24	11:46:55	571047	6.6.1	4_exp_EVA_AWA_CON	68	B	A	Rpleas_acq	Oppo	Rpleas	2pleas	acq_US_unple_nomask	acq45_nomask	5	25	400	0	300	300	0	0	683	46	1	0	schlau	lachen	schön	loyal	spielen	retten	schroff	leiden	schlecht	lasch	strafen	rächen	helfen	treu	ehrlich	fair	tolerant	freundlich	hindern	tot	eitel	faul	tyrannisch	fanatisch	1	blank2r.bmp	0	1	+	0	1	blank2r.bmp	500	1	BMVZ	500	1	blank2r.bmp	880	2	leiden	880	1	!	1232	1	!	-1	0	0	0	0	0	0
2024-06-05	11:37:24	11:46:57	573143	6.6.1	4_exp_EVA_AWA_CON	68	B	A	Rpleas_acq	Oppo	Rpleas	2pleas	acq_US_pleas_nomask	acq45_nomask	5	26	400	0	300	300	0	0	317	50	1	0	schlau	lachen	schön	loyal	spielen	retten	schroff	leiden	schlecht	lasch	strafen	rächen	helfen	treu	ehrlich	fair	tolerant	freundlich	hindern	tot	eitel	faul	tyrannisch	fanatisch	1	blank2r.bmp	0	1	+	0	1	blank2r.bmp	500	1	GKQX	500	1	blank2r.bmp	880	4	loyal	880	1	!	-1	1	!	-1	0	0	0	0	0	0
2024-06-05	11:37:24	11:47:00	575463	6.6.1	4_exp_EVA_AWA_CON	68	B	A	Rpleas_acq	Oppo	Rpleas	2pleas	acq_US_pleas_nomask	acq45_nomask	5	27	400	0	300	300	0	0	546	50	1	0	schlau	lachen	schön	loyal	spielen	retten	schroff	leiden	schlecht	lasch	strafen	rächen	helfen	treu	ehrlich	fair	tolerant	freundlich	hindern	tot	eitel	faul	tyrannisch	fanatisch	1	blank2r.bmp	0	1	+	0	1	blank2r.bmp	500	1	GKQX	500	1	blank2r.bmp	880	3	schön	880	1	!	1233	1	!	-1	0	0	0	0	0	0
2024-06-05	11:37:24	11:47:02	577681	6.6.1	4_exp_EVA_AWA_CON	68	B	A	Rpleas_acq	Oppo	Rpleas	2pleas	acq_US_unple_nomask	acq45_nomask	5	28	400	1	300	300	0	0	440	50	0	0	schlau	lachen	schön	loyal	spielen	retten	schroff	leiden	schlecht	lasch	strafen	rächen	helfen	treu	ehrlich	fair	tolerant	freundlich	hindern	tot	eitel	faul	tyrannisch	fanatisch	1	blank2r.bmp	0	1	+	0	1	blank2r.bmp	500	1	BMVZ	500	1	blank2r.bmp	880	4	lasch	880	1	!	1232	1	!	1342	0	0	0	0	0	0
2024-06-05	11:37:24	11:47:04	579951	6.6.1	4_exp_EVA_AWA_CON	68	B	A	Rpleas_acq	Oppo	Rpleas	2pleas	acq_US_pleas_nomask	acq45_nomask	5	29	400	0	300	300	0	0	491	50	1	0	schlau	lachen	schön	loyal	spielen	retten	schroff	leiden	schlecht	lasch	strafen	rächen	helfen	treu	ehrlich	fair	tolerant	freundlich	hindern	tot	eitel	faul	tyrannisch	fanatisch	1	blank2r.bmp	0	1	+	0	1	blank2r.bmp	500	1	GKQX	500	1	blank2r.bmp	880	1	schlau	880	1	!	1232	1	!	-1	0	0	0	0	0	0
2024-06-05	11:37:24	11:47:07	582399	6.6.1	4_exp_EVA_AWA_CON	68	B	A	Rpleas_acq	Oppo	Rpleas	2pleas	acq_US_unple_nomask	acq45_nomask	5	30	400	0	300	300	0	0	667	46	1	0	schlau	lachen	schön	loyal	spielen	retten	schroff	leiden	schlecht	lasch	strafen	rächen	helfen	treu	ehrlich	fair	tolerant	freundlich	hindern	tot	eitel	faul	tyrannisch	fanatisch	1	blank2r.bmp	0	1	+	0	1	blank2r.bmp	500	1	BMVZ	500	1	blank2r.bmp	880	6	rächen	880	1	!	1232	1	!	-1	0	0	0	0	0	0
2024-06-05	11:37:24	11:47:09	584537	6.6.1	4_exp_EVA_AWA_CON	68	B	A	Rpleas_acq	Oppo	Rpleas	2pleas	acq_US_pleas_nomask	acq45_nomask	5	31	400	1	300	300	0	0	362	50	1	0	schlau	lachen	schön	loyal	spielen	retten	schroff	leiden	schlecht	lasch	strafen	rächen	helfen	treu	ehrlich	fair	tolerant	freundlich	hindern	tot	eitel	faul	tyrannisch	fanatisch	1	blank2r.bmp	0	1	+	0	1	blank2r.bmp	500	1	GKQX	500	1	blank2r.bmp	880	6	retten	880	1	!	1233	1	!	1263	0	0	0	0	0	0
2024-06-05	11:37:24	11:47:11	586839	6.6.1	4_exp_EVA_AWA_CON	68	B	A	Rpleas_acq	Oppo	Rpleas	2pleas	acq_US_pleas_nomask	acq45_nomask	5	32	400	0	300	300	0	0	524	50	1	0	schlau	lachen	schön	loyal	spielen	retten	schroff	leiden	schlecht	lasch	strafen	rächen	helfen	treu	ehrlich	fair	tolerant	freundlich	hindern	tot	eitel	faul	tyrannisch	fanatisch	1	blank2r.bmp	0	1	+	0	1	blank2r.bmp	500	1	GKQX	500	1	blank2r.bmp	880	5	spielen	880	1	!	1233	1	!	-1	0	0	0	0	0	0
2024-06-05	11:37:24	11:47:13	589065	6.6.1	4_exp_EVA_AWA_CON	68	B	A	Rpleas_acq	Oppo	Rpleas	2pleas	acq_US_unple_nomask	acq45_nomask	5	33	400	1	300	300	0	0	447	46	1	0	schlau	lachen	schön	loyal	spielen	retten	schroff	leiden	schlecht	lasch	strafen	rächen	helfen	treu	ehrlich	fair	tolerant	freundlich	hindern	tot	eitel	faul	tyrannisch	fanatisch	1	blank2r.bmp	0	1	+	0	1	blank2r.bmp	500	1	BMVZ	500	1	blank2r.bmp	880	5	strafen	880	1	!	1233	1	!	1348	0	0	0	0	0	0
2024-06-05	11:37:24	11:47:16	591391	6.6.1	4_exp_EVA_AWA_CON	68	B	A	Rpleas_acq	Oppo	Rpleas	2pleas	acq_US_unple_nomask	acq45_nomask	5	34	400	0	300	300	0	0	553	46	1	0	schlau	lachen	schön	loyal	spielen	retten	schroff	leiden	schlecht	lasch	strafen	rächen	helfen	treu	ehrlich	fair	tolerant	freundlich	hindern	tot	eitel	faul	tyrannisch	fanatisch	1	blank2r.bmp	0	1	+	0	1	blank2r.bmp	500	1	BMVZ	500	1	blank2r.bmp	880	2	leiden	880	1	!	1232	1	!	-1	0	0	0	0	0	0
2024-06-05	11:37:24	11:47:18	593783	6.6.1	4_exp_EVA_AWA_CON	68	B	A	Rpleas_acq	Oppo	Rpleas	2pleas	acq_US_unple_nomask	acq45_nomask	5	35	400	0	300	300	0	0	614	46	1	0	schlau	lachen	schön	loyal	spielen	retten	schroff	leiden	schlecht	lasch	strafen	rächen	helfen	treu	ehrlich	fair	tolerant	freundlich	hindern	tot	eitel	faul	tyrannisch	fanatisch	1	blank2r.bmp	0	1	+	0	1	blank2r.bmp	500	1	BMVZ	500	1	blank2r.bmp	880	1	schroff	880	1	!	1232	1	!	-1	0	0	0	0	0	0
2024-06-05	11:37:24	11:47:20	596183	6.6.1	4_exp_EVA_AWA_CON	68	B	A	Rpleas_acq	Oppo	Rpleas	2pleas	acq_US_unple_nomask	acq45_nomask	5	36	400	0	300	300	0	0	622	46	1	0	schlau	lachen	schön	loyal	spielen	retten	schroff	leiden	schlecht	lasch	strafen	rächen	helfen	treu	ehrlich	fair	tolerant	freundlich	hindern	tot	eitel	faul	tyrannisch	fanatisch	1	blank2r.bmp	0	1	+	0	1	blank2r.bmp	500	1	BMVZ	500	1	blank2r.bmp	880	3	schlecht	880	1	!	1232	1	!	-1	0	0	0	0	0	0
2024-06-05	11:37:24	11:47:44	619715	6.6.1	4_exp_EVA_AWA_CON	68	B	A	Rpleas_acq	Oppo	Lpleas	2pleas	EvalRating_firsttwo	EvalRating_firsttwo	6	1	0	0	300	300	0	0	8696	line	0	35,0260416666666856145pct	schlau	lachen	schön	loyal	spielen	retten	schroff	leiden	schlecht	lasch	strafen	rächen	helfen	treu	ehrlich	fair	tolerant	freundlich	hindern	tot	eitel	faul	tyrannisch	fanatisch	1		-8	1	Wie angenehm oder unangenehm finden Sie die  Buchstabenkette ZGVK?	-8	1		-8	1		-8	1		-8	1	Unangenehm	-8	1	Angenehm	-8	0	0	0	0	0	0	0	0	0
2024-06-05	11:37:24	11:47:50	625691	6.6.1	4_exp_EVA_AWA_CON	68	B	A	Rpleas_acq	Oppo	Lpleas	2pleas	EvalRating_lastfour	EvalRating_lastfour	7	1	0	0	300	300	0	0	3604	line	0	-37,890625pct	schlau	lachen	schön	loyal	spielen	retten	schroff	leiden	schlecht	lasch	strafen	rächen	helfen	treu	ehrlich	fair	tolerant	freundlich	hindern	tot	eitel	faul	tyrannisch	fanatisch	1		-8	3	Wie angenehm oder unangenehm finden Sie die  Buchstabenkette XBQM?	-8	1		-8	1		-8	1		-8	1	Unangenehm	-8	1	Angenehm	-8	0	0	0	0	0	0	0	0	0
2024-06-05	11:37:24	11:47:52	628063	6.6.1	4_exp_EVA_AWA_CON	68	B	A	Rpleas_acq	Oppo	Lpleas	2pleas	blank_screen	EvalRating_lastfour	7	3	0	0	300	300	0	0	0	0	0	-37,890625pct	schlau	lachen	schön	loyal	spielen	retten	schroff	leiden	schlecht	lasch	strafen	rächen	helfen	treu	ehrlich	fair	tolerant	freundlich	hindern	tot	eitel	faul	tyrannisch	fanatisch	1		-8	0	0	0	0	0	0	0	0	0	0	0	0	0	0	0	0	0	0	0	0	0	0	0	0	0	0	0
2024-06-05	11:37:24	11:47:55	631220	6.6.1	4_exp_EVA_AWA_CON	68	B	A	Rpleas_acq	Oppo	Lpleas	2pleas	EvalRating_lastfour	EvalRating_lastfour	7	4	0	0	300	300	0	0	2569	line	0	45,8333333333333428072pct	schlau	lachen	schön	loyal	spielen	retten	schroff	leiden	schlecht	lasch	strafen	rächen	helfen	treu	ehrlich	fair	tolerant	freundlich	hindern	tot	eitel	faul	tyrannisch	fanatisch	1		-8	1	Wie angenehm oder unangenehm finden Sie die  Buchstabenkette BMVZ?	-8	1		-8	1		-8	1		-8	1	Unangenehm	-8	1	Angenehm	-8	0	0	0	0	0	0	0	0	0
2024-06-05	11:37:24	11:47:58	633587	6.6.1	4_exp_EVA_AWA_CON	68	B	A	Rpleas_acq	Oppo	Lpleas	2pleas	blank_screen	EvalRating_lastfour	7	6	0	0	300	300	0	0	0	0	0	45,8333333333333428072pct	schlau	lachen	schön	loyal	spielen	retten	schroff	leiden	schlecht	lasch	strafen	rächen	helfen	treu	ehrlich	fair	tolerant	freundlich	hindern	tot	eitel	faul	tyrannisch	fanatisch	1		-8	0	0	0	0	0	0	0	0	0	0	0	0	0	0	0	0	0	0	0	0	0	0	0	0	0	0	0
2024-06-05	11:37:24	11:48:00	635907	6.6.1	4_exp_EVA_AWA_CON	68	B	A	Rpleas_acq	Oppo	Lpleas	2pleas	EvalRating_lastfour	EvalRating_lastfour	7	7	0	0	300	300	0	0	1733	line	0	-42,3177083333333285964pct	schlau	lachen	schön	loyal	spielen	retten	schroff	leiden	schlecht	lasch	strafen	rächen	helfen	treu	ehrlich	fair	tolerant	freundlich	hindern	tot	eitel	faul	tyrannisch	fanatisch	1		-7	2	Wie angenehm oder unangenehm finden Sie die  Buchstabenkette GKQX?	-7	1		-7	1		-7	1		-7	1	Unangenehm	-7	1	Angenehm	-7	0	0	0	0	0	0	0	0	0
2024-06-05	11:37:24	11:48:52	687940	6.6.1	4_exp_EVA_AWA_CON	68	B	A	Rpleas_acq	Oppo	Lpleas	2pleas	conawa_CS2_US3	conawa1_nomask	8	1	0	0	300	300	0	0	14037	schlecht	1	-42,3177083333333285964pct	schlau	lachen	schön	loyal	spielen	retten	schroff	leiden	schlecht	lasch	strafen	rächen	helfen	treu	ehrlich	fair	tolerant	freundlich	hindern	tot	eitel	faul	tyrannisch	fanatisch	0	0	0	0	0	0	0	0	0	0	0	0	0	0	0	0	0	0	0	0	0	0	0	0	0	0	0	0	0	0
2024-06-05	11:37:24	11:48:52	687942	6.6.1	4_exp_EVA_AWA_CON	68	B	A	Rpleas_acq	Oppo	Lpleas	2pleas	conawa_CS2_US3_confidence	conawa1_nomask	8	1	0	0	300	300	0	0	14037	probably	1	-42,3177083333333285964pct	schlau	lachen	schön	loyal	spielen	retten	schroff	leiden	schlecht	lasch	strafen	rächen	helfen	treu	ehrlich	fair	tolerant	freundlich	hindern	tot	eitel	faul	tyrannisch	fanatisch	0	0	0	0	0	0	0	0	0	0	0	0	0	0	0	0	0	0	0	0	0	0	0	0	0	0	0	0	0	0
2024-06-05	11:37:24	11:49:04	699948	6.6.1	4_exp_EVA_AWA_CON	68	B	A	Rpleas_acq	Oppo	Lpleas	2pleas	conawa_CS2_US6	conawa1_nomask	8	2	0	0	300	300	0	0	11394	helfen	1	-42,3177083333333285964pct	schlau	lachen	schön	loyal	spielen	retten	schroff	leiden	schlecht	lasch	strafen	rächen	helfen	treu	ehrlich	fair	tolerant	freundlich	hindern	tot	eitel	faul	tyrannisch	fanatisch	0	0	0	0	0	0	0	0	0	0	0	0	0	0	0	0	0	0	0	0	0	0	0	0	0	0	0	0	0	0
2024-06-05	11:37:24	11:49:04	699950	6.6.1	4_exp_EVA_AWA_CON	68	B	A	Rpleas_acq	Oppo	Lpleas	2pleas	conawa_CS2_US6_confidence	conawa1_nomask	8	2	0	0	300	300	0	0	11394	probably	1	-42,3177083333333285964pct	schlau	lachen	schön	loyal	spielen	retten	schroff	leiden	schlecht	lasch	strafen	rächen	helfen	treu	ehrlich	fair	tolerant	freundlich	hindern	tot	eitel	faul	tyrannisch	fanatisch	0	0	0	0	0	0	0	0	0	0	0	0	0	0	0	0	0	0	0	0	0	0	0	0	0	0	0	0	0	0
2024-06-05	11:37:24	11:49:14	709274	6.6.1	4_exp_EVA_AWA_CON	68	B	A	Rpleas_acq	Oppo	Lpleas	2pleas	conawa_CS2_US4	conawa1_nomask	8	3	0	0	300	300	0	0	8705	loyal	1	-42,3177083333333285964pct	schlau	lachen	schön	loyal	spielen	retten	schroff	leiden	schlecht	lasch	strafen	rächen	helfen	treu	ehrlich	fair	tolerant	freundlich	hindern	tot	eitel	faul	tyrannisch	fanatisch	0	0	0	0	0	0	0	0	0	0	0	0	0	0	0	0	0	0	0	0	0	0	0	0	0	0	0	0	0	0
2024-06-05	11:37:24	11:49:14	709276	6.6.1	4_exp_EVA_AWA_CON	68	B	A	Rpleas_acq	Oppo	Lpleas	2pleas	conawa_CS2_US4_confidence	conawa1_nomask	8	3	0	0	300	300	0	0	8705	probably	1	-42,3177083333333285964pct	schlau	lachen	schön	loyal	spielen	retten	schroff	leiden	schlecht	lasch	strafen	rächen	helfen	treu	ehrlich	fair	tolerant	freundlich	hindern	tot	eitel	faul	tyrannisch	fanatisch	0	0	0	0	0	0	0	0	0	0	0	0	0	0	0	0	0	0	0	0	0	0	0	0	0	0	0	0	0	0
2024-06-05	11:37:24	11:49:25	720501	6.6.1	4_exp_EVA_AWA_CON	68	B	A	Rpleas_acq	Oppo	Lpleas	2pleas	conawa_CS2_US5	conawa1_nomask	8	4	0	0	300	300	0	0	10610	strafen	1	-42,3177083333333285964pct	schlau	lachen	schön	loyal	spielen	retten	schroff	leiden	schlecht	lasch	strafen	rächen	helfen	treu	ehrlich	fair	tolerant	freundlich	hindern	tot	eitel	faul	tyrannisch	fanatisch	0	0	0	0	0	0	0	0	0	0	0	0	0	0	0	0	0	0	0	0	0	0	0	0	0	0	0	0	0	0
2024-06-05	11:37:24	11:49:25	720503	6.6.1	4_exp_EVA_AWA_CON	68	B	A	Rpleas_acq	Oppo	Lpleas	2pleas	conawa_CS2_US5_confidence	conawa1_nomask	8	4	0	0	300	300	0	0	10610	probably	1	-42,3177083333333285964pct	schlau	lachen	schön	loyal	spielen	retten	schroff	leiden	schlecht	lasch	strafen	rächen	helfen	treu	ehrlich	fair	tolerant	freundlich	hindern	tot	eitel	faul	tyrannisch	fanatisch	0	0	0	0	0	0	0	0	0	0	0	0	0	0	0	0	0	0	0	0	0	0	0	0	0	0	0	0	0	0
2024-06-05	11:37:24	11:49:32	727426	6.6.1	4_exp_EVA_AWA_CON	68	B	A	Rpleas_acq	Oppo	Lpleas	2pleas	conawa_CS1_US3	conawa1_nomask	8	5	0	0	300	300	0	0	6310	schön	1	-42,3177083333333285964pct	schlau	lachen	schön	loyal	spielen	retten	schroff	leiden	schlecht	lasch	strafen	rächen	helfen	treu	ehrlich	fair	tolerant	freundlich	hindern	tot	eitel	faul	tyrannisch	fanatisch	0	0	0	0	0	0	0	0	0	0	0	0	0	0	0	0	0	0	0	0	0	0	0	0	0	0	0	0	0	0
2024-06-05	11:37:24	11:49:32	727428	6.6.1	4_exp_EVA_AWA_CON	68	B	A	Rpleas_acq	Oppo	Lpleas	2pleas	conawa_CS1_US3_confidence	conawa1_nomask	8	5	0	0	300	300	0	0	6310	probably	1	-42,3177083333333285964pct	schlau	lachen	schön	loyal	spielen	retten	schroff	leiden	schlecht	lasch	strafen	rächen	helfen	treu	ehrlich	fair	tolerant	freundlich	hindern	tot	eitel	faul	tyrannisch	fanatisch	0	0	0	0	0	0	0	0	0	0	0	0	0	0	0	0	0	0	0	0	0	0	0	0	0	0	0	0	0	0
2024-06-05	11:37:24	11:49:38	733750	6.6.1	4_exp_EVA_AWA_CON	68	B	A	Rpleas_acq	Oppo	Lpleas	2pleas	conawa_CS1_US6	conawa1_nomask	8	6	0	0	300	300	0	0	5709	fanatisch	1	-42,3177083333333285964pct	schlau	lachen	schön	loyal	spielen	retten	schroff	leiden	schlecht	lasch	strafen	rächen	helfen	treu	ehrlich	fair	tolerant	freundlich	hindern	tot	eitel	faul	tyrannisch	fanatisch	0	0	0	0	0	0	0	0	0	0	0	0	0	0	0	0	0	0	0	0	0	0	0	0	0	0	0	0	0	0
2024-06-05	11:37:24	11:49:38	733752	6.6.1	4_exp_EVA_AWA_CON	68	B	A	Rpleas_acq	Oppo	Lpleas	2pleas	conawa_CS1_US6_confidence	conawa1_nomask	8	6	0	0	300	300	0	0	5709	guess	1	-42,3177083333333285964pct	schlau	lachen	schön	loyal	spielen	retten	schroff	leiden	schlecht	lasch	strafen	rächen	helfen	treu	ehrlich	fair	tolerant	freundlich	hindern	tot	eitel	faul	tyrannisch	fanatisch	0	0	0	0	0	0	0	0	0	0	0	0	0	0	0	0	0	0	0	0	0	0	0	0	0	0	0	0	0	0
2024-06-05	11:37:24	11:49:47	742736	6.6.1	4_exp_EVA_AWA_CON	68	B	A	Rpleas_acq	Oppo	Lpleas	2pleas	conawa_CS1_US4	conawa1_nomask	8	7	0	0	300	300	0	0	8369	faul	1	-42,3177083333333285964pct	schlau	lachen	schön	loyal	spielen	retten	schroff	leiden	schlecht	lasch	strafen	rächen	helfen	treu	ehrlich	fair	tolerant	freundlich	hindern	tot	eitel	faul	tyrannisch	fanatisch	0	0	0	0	0	0	0	0	0	0	0	0	0	0	0	0	0	0	0	0	0	0	0	0	0	0	0	0	0	0
2024-06-05	11:37:24	11:49:47	742737	6.6.1	4_exp_EVA_AWA_CON	68	B	A	Rpleas_acq	Oppo	Lpleas	2pleas	conawa_CS1_US4_confidence	conawa1_nomask	8	7	0	0	300	300	0	0	8369	guess	1	-42,3177083333333285964pct	schlau	lachen	schön	loyal	spielen	retten	schroff	leiden	schlecht	lasch	strafen	rächen	helfen	treu	ehrlich	fair	tolerant	freundlich	hindern	tot	eitel	faul	tyrannisch	fanatisch	0	0	0	0	0	0	0	0	0	0	0	0	0	0	0	0	0	0	0	0	0	0	0	0	0	0	0	0	0	0
2024-06-05	11:37:24	11:49:53	748860	6.6.1	4_exp_EVA_AWA_CON	68	B	A	Rpleas_acq	Oppo	Lpleas	2pleas	conawa_CS2_US2	conawa1_nomask	8	8	0	0	300	300	0	0	5511	eitel	1	-42,3177083333333285964pct	schlau	lachen	schön	loyal	spielen	retten	schroff	leiden	schlecht	lasch	strafen	rächen	helfen	treu	ehrlich	fair	tolerant	freundlich	hindern	tot	eitel	faul	tyrannisch	fanatisch	0	0	0	0	0	0	0	0	0	0	0	0	0	0	0	0	0	0	0	0	0	0	0	0	0	0	0	0	0	0
2024-06-05	11:37:24	11:49:53	748861	6.6.1	4_exp_EVA_AWA_CON	68	B	A	Rpleas_acq	Oppo	Lpleas	2pleas	conawa_CS2_US2_confidence	conawa1_nomask	8	8	0	0	300	300	0	0	5511	probably	1	-42,3177083333333285964pct	schlau	lachen	schön	loyal	spielen	retten	schroff	leiden	schlecht	lasch	strafen	rächen	helfen	treu	ehrlich	fair	tolerant	freundlich	hindern	tot	eitel	faul	tyrannisch	fanatisch	0	0	0	0	0	0	0	0	0	0	0	0	0	0	0	0	0	0	0	0	0	0	0	0	0	0	0	0	0	0
2024-06-05	11:37:24	11:50:00	755594	6.6.1	4_exp_EVA_AWA_CON	68	B	A	Rpleas_acq	Oppo	Lpleas	2pleas	conawa_CS2_US1	conawa1_nomask	8	9	0	0	300	300	0	0	6116	schroff	1	-42,3177083333333285964pct	schlau	lachen	schön	loyal	spielen	retten	schroff	leiden	schlecht	lasch	strafen	rächen	helfen	treu	ehrlich	fair	tolerant	freundlich	hindern	tot	eitel	faul	tyrannisch	fanatisch	0	0	0	0	0	0	0	0	0	0	0	0	0	0	0	0	0	0	0	0	0	0	0	0	0	0	0	0	0	0
2024-06-05	11:37:24	11:50:00	755596	6.6.1	4_exp_EVA_AWA_CON	68	B	A	Rpleas_acq	Oppo	Lpleas	2pleas	conawa_CS2_US1_confidence	conawa1_nomask	8	9	0	0	300	300	0	0	6116	probably	1	-42,3177083333333285964pct	schlau	lachen	schön	loyal	spielen	retten	schroff	leiden	schlecht	lasch	strafen	rächen	helfen	treu	ehrlich	fair	tolerant	freundlich	hindern	tot	eitel	faul	tyrannisch	fanatisch	0	0	0	0	0	0	0	0	0	0	0	0	0	0	0	0	0	0	0	0	0	0	0	0	0	0	0	0	0	0
2024-06-05	11:37:24	11:50:07	762729	6.6.1	4_exp_EVA_AWA_CON	68	B	A	Rpleas_acq	Oppo	Lpleas	2pleas	conawa_CS1_US2	conawa1_nomask	8	10	0	0	300	300	0	0	6523	treu	1	-42,3177083333333285964pct	schlau	lachen	schön	loyal	spielen	retten	schroff	leiden	schlecht	lasch	strafen	rächen	helfen	treu	ehrlich	fair	tolerant	freundlich	hindern	tot	eitel	faul	tyrannisch	fanatisch	0	0	0	0	0	0	0	0	0	0	0	0	0	0	0	0	0	0	0	0	0	0	0	0	0	0	0	0	0	0
2024-06-05	11:37:24	11:50:07	762731	6.6.1	4_exp_EVA_AWA_CON	68	B	A	Rpleas_acq	Oppo	Lpleas	2pleas	conawa_CS1_US2_confidence	conawa1_nomask	8	10	0	0	300	300	0	0	6523	probably	1	-42,3177083333333285964pct	schlau	lachen	schön	loyal	spielen	retten	schroff	leiden	schlecht	lasch	strafen	rächen	helfen	treu	ehrlich	fair	tolerant	freundlich	hindern	tot	eitel	faul	tyrannisch	fanatisch	0	0	0	0	0	0	0	0	0	0	0	0	0	0	0	0	0	0	0	0	0	0	0	0	0	0	0	0	0	0
2024-06-05	11:37:24	11:50:13	769153	6.6.1	4_exp_EVA_AWA_CON	68	B	A	Rpleas_acq	Oppo	Lpleas	2pleas	conawa_CS1_US1	conawa1_nomask	8	11	0	0	300	300	0	0	5806	helfen	1	-42,3177083333333285964pct	schlau	lachen	schön	loyal	spielen	retten	schroff	leiden	schlecht	lasch	strafen	rächen	helfen	treu	ehrlich	fair	tolerant	freundlich	hindern	tot	eitel	faul	tyrannisch	fanatisch	0	0	0	0	0	0	0	0	0	0	0	0	0	0	0	0	0	0	0	0	0	0	0	0	0	0	0	0	0	0
2024-06-05	11:37:24	11:50:13	769155	6.6.1	4_exp_EVA_AWA_CON	68	B	A	Rpleas_acq	Oppo	Lpleas	2pleas	conawa_CS1_US1_confidence	conawa1_nomask	8	11	0	0	300	300	0	0	5806	probably	1	-42,3177083333333285964pct	schlau	lachen	schön	loyal	spielen	retten	schroff	leiden	schlecht	lasch	strafen	rächen	helfen	treu	ehrlich	fair	tolerant	freundlich	hindern	tot	eitel	faul	tyrannisch	fanatisch	0	0	0	0	0	0	0	0	0	0	0	0	0	0	0	0	0	0	0	0	0	0	0	0	0	0	0	0	0	0
2024-06-05	11:37:24	11:50:18	774006	6.6.1	4_exp_EVA_AWA_CON	68	B	A	Rpleas_acq	Oppo	Lpleas	2pleas	conawa_CS1_US5	conawa1_nomask	8	12	0	0	300	300	0	0	4236	strafen	1	-42,3177083333333285964pct	schlau	lachen	schön	loyal	spielen	retten	schroff	leiden	schlecht	lasch	strafen	rächen	helfen	treu	ehrlich	fair	tolerant	freundlich	hindern	tot	eitel	faul	tyrannisch	fanatisch	0	0	0	0	0	0	0	0	0	0	0	0	0	0	0	0	0	0	0	0	0	0	0	0	0	0	0	0	0	0
2024-06-05	11:37:24	11:50:18	774007	6.6.1	4_exp_EVA_AWA_CON	68	B	A	Rpleas_acq	Oppo	Lpleas	2pleas	conawa_CS1_US5_confidence	conawa1_nomask	8	12	0	0	300	300	0	0	4236	probably	1	-42,3177083333333285964pct	schlau	lachen	schön	loyal	spielen	retten	schroff	leiden	schlecht	lasch	strafen	rächen	helfen	treu	ehrlich	fair	tolerant	freundlich	hindern	tot	eitel	faul	tyrannisch	fanatisch	0	0	0	0	0	0	0	0	0	0	0	0	0	0	0	0	0	0	0	0	0	0	0	0	0	0	0	0	0	0
2024-06-05	11:37:24	11:51:44	859343	6.6.1	4_exp_EVA_AWA_CON	68	B	A	Rpleas_acq	Oppo	Lpleas	2pleas	cond_new_unple_456_nomask_CS1	condtest_nomask_1	11	1	400	0	300	300	0	0	642	50	1	-42,3177083333333285964pct	schlau	lachen	schön	loyal	spielen	retten	schroff	leiden	schlecht	lasch	strafen	rächen	helfen	treu	ehrlich	fair	tolerant	freundlich	hindern	tot	eitel	faul	tyrannisch	fanatisch	1	blank2r.bmp	0	1	+	0	1	blank2r.bmp	500	1	BMVZ	500	1	blank2r.bmp	880	1	faul	880	1	!	1232	1	!	-1	0	0	0	0	0	0
2024-06-05	11:37:24	11:51:46	861623	6.6.1	4_exp_EVA_AWA_CON	68	B	A	Rpleas_acq	Oppo	Lpleas	2pleas	cond_new_pleas_456_nomask_CS2	condtest_nomask_1	11	2	400	0	300	300	0	0	500	46	1	-42,3177083333333285964pct	schlau	lachen	schön	loyal	spielen	retten	schroff	leiden	schlecht	lasch	strafen	rächen	helfen	treu	ehrlich	fair	tolerant	freundlich	hindern	tot	eitel	faul	tyrannisch	fanatisch	1	blank2r.bmp	0	1	+	0	1	blank2r.bmp	500	1	GKQX	500	1	blank2r.bmp	880	1	freundlich	880	1	!	1232	1	!	-1	0	0	0	0	0	0
2024-06-05	11:37:24	11:51:48	863903	6.6.1	4_exp_EVA_AWA_CON	68	B	A	Rpleas_acq	Oppo	Lpleas	2pleas	cond_new_unple_456_nomask_CS2	condtest_nomask_1	11	3	400	0	300	300	0	0	499	46	0	-42,3177083333333285964pct	schlau	lachen	schön	loyal	spielen	retten	schroff	leiden	schlecht	lasch	strafen	rächen	helfen	treu	ehrlich	fair	tolerant	freundlich	hindern	tot	eitel	faul	tyrannisch	fanatisch	1	blank2r.bmp	0	1	+	0	1	blank2r.bmp	500	1	GKQX	500	1	blank2r.bmp	880	1	fanatisch	880	1	!	1232	1	!	-1	0	0	0	0	0	0
2024-06-05	11:37:24	11:51:51	866223	6.6.1	4_exp_EVA_AWA_CON	68	B	A	Rpleas_acq	Oppo	Lpleas	2pleas	cond_US_unple_123_nomask_CS2	condtest_nomask_1	11	4	400	0	300	300	0	0	547	50	1	-42,3177083333333285964pct	schlau	lachen	schön	loyal	spielen	retten	schroff	leiden	schlecht	lasch	strafen	rächen	helfen	treu	ehrlich	fair	tolerant	freundlich	hindern	tot	eitel	faul	tyrannisch	fanatisch	1	blank2r.bmp	0	1	+	0	1	blank2r.bmp	500	1	GKQX	500	1	blank2r.bmp	880	2	schroff	880	1	!	1233	1	!	-1	0	0	0	0	0	0
2024-06-05	11:37:24	11:51:53	868440	6.6.1	4_exp_EVA_AWA_CON	68	B	A	Rpleas_acq	Oppo	Lpleas	2pleas	cond_US_pleas_123_nomask_CS1	condtest_nomask_1	11	5	400	1	300	300	0	0	442	46	1	-42,3177083333333285964pct	schlau	lachen	schön	loyal	spielen	retten	schroff	leiden	schlecht	lasch	strafen	rächen	helfen	treu	ehrlich	fair	tolerant	freundlich	hindern	tot	eitel	faul	tyrannisch	fanatisch	1	blank2r.bmp	0	1	+	0	1	blank2r.bmp	500	1	BMVZ	500	1	blank2r.bmp	880	3	schön	880	1	!	1233	1	!	1343	0	0	0	0	0	0
2024-06-05	11:37:24	11:51:55	870592	6.6.1	4_exp_EVA_AWA_CON	68	B	A	Rpleas_acq	Oppo	Lpleas	2pleas	cond_US_pleas_123_nomask_CS2	condtest_nomask_1	11	6	400	1	300	300	0	0	372	46	1	-42,3177083333333285964pct	schlau	lachen	schön	loyal	spielen	retten	schroff	leiden	schlecht	lasch	strafen	rächen	helfen	treu	ehrlich	fair	tolerant	freundlich	hindern	tot	eitel	faul	tyrannisch	fanatisch	1	blank2r.bmp	0	1	+	0	1	blank2r.bmp	500	1	GKQX	500	1	blank2r.bmp	880	1	schön	880	1	!	1232	1	!	1273	0	0	0	0	0	0
2024-06-05	11:37:24	11:51:57	872728	6.6.1	4_exp_EVA_AWA_CON	68	B	A	Rpleas_acq	Oppo	Lpleas	2pleas	cond_new_pleas_456_nomask_CS1	condtest_nomask_1	11	7	400	1	300	300	0	0	357	50	0	-42,3177083333333285964pct	schlau	lachen	schön	loyal	spielen	retten	schroff	leiden	schlecht	lasch	strafen	rächen	helfen	treu	ehrlich	fair	tolerant	freundlich	hindern	tot	eitel	faul	tyrannisch	fanatisch	1	blank2r.bmp	0	1	+	0	1	blank2r.bmp	500	1	BMVZ	500	1	blank2r.bmp	880	3	freundlich	880	1	!	1232	1	!	1258	0	0	0	0	0	0
2024-06-05	11:37:24	11:51:59	874928	6.6.1	4_exp_EVA_AWA_CON	68	B	A	Rpleas_acq	Oppo	Lpleas	2pleas	cond_US_unple_123_nomask_CS1	condtest_nomask_1	11	8	400	1	300	300	0	0	426	50	1	-42,3177083333333285964pct	schlau	lachen	schön	loyal	spielen	retten	schroff	leiden	schlecht	lasch	strafen	rächen	helfen	treu	ehrlich	fair	tolerant	freundlich	hindern	tot	eitel	faul	tyrannisch	fanatisch	1	blank2r.bmp	0	1	+	0	1	blank2r.bmp	500	1	BMVZ	500	1	blank2r.bmp	880	1	schroff	880	1	!	1232	1	!	1327	0	0	0	0	0	0
2024-06-05	11:37:24	11:52:05	880525	6.6.1	4_exp_EVA_AWA_CON	68	B	A	Rpleas_acq	Oppo	Lpleas	2pleas	cond_US_pleas_123_nomask_CS2	condtest_nomask_2	12	1	400	0	300	300	0	0	482	46	1	-42,3177083333333285964pct	schlau	lachen	schön	loyal	spielen	retten	schroff	leiden	schlecht	lasch	strafen	rächen	helfen	treu	ehrlich	fair	tolerant	freundlich	hindern	tot	eitel	faul	tyrannisch	fanatisch	1	blank2r.bmp	0	1	+	0	1	blank2r.bmp	500	1	GKQX	500	1	blank2r.bmp	880	3	lachen	880	1	!	1233	1	!	-1	0	0	0	0	0	0
