date	time	currenttime	elapsedtime	build	currentexpt	subject	CS_AB	US_AB	LRpleas_acq	SameOppo	condition_Lpleas	condition_1pleas	trialcode	blockcode	blocknum	trialnum	windowcenter	inwindow	pretrialpause	posttrialpause	trialduration	trialtimeout	latency	response	correct	correctedscore	US_nomask_pleas1	US_nomask_pleas2	US_nomask_pleas3	US_nomask_pleas4	US_nomask_pleas5	US_nomask_pleas6	US_nomask_unple1	US_nomask_unple2	US_nomask_unple3	US_nomask_unple4	US_nomask_unple5	US_nomask_unple6	new_nomask_pleas1	new_nomask_pleas2	new_nomask_pleas3	new_nomask_pleas4	new_nomask_pleas5	new_nomask_pleas6	new_nomask_unple1	new_nomask_unple2	new_nomask_unple3	new_nomask_unple4	new_nomask_unple5	new_nomask_unple6	stimulusnumber1	stimulusitem1	stimulusonset1	stimulusnumber2	stimulusitem2	stimulusonset2	stimulusnumber3	stimulusitem3	stimulusonset3	stimulusnumber4	stimulusitem4	stimulusonset4	stimulusnumber5	stimulusitem5	stimulusonset5	stimulusnumber6	stimulusitem6	stimulusonset6	stimulusnumber7	stimulusitem7	stimulusonset7	stimulusnumber8	stimulusitem8	stimulusonset8	stimulusnumber9	stimulusitem9	stimulusonset9	stimulusnumber10	stimulusitem10	stimulusonset10
2024-06-11	12:07:17	12:09:06	108238	6.6.1	4_exp_EVA_AWA_CON	80	A	B	Rpleas_acq	Oppo	Rpleas	2pleas	acq_new_pleas_nomask	acq1_nomask	1	1	0	0	300	300	0	0	3004	50	1	0	sonnig	vertrauen	träumen	besonnen	kreativ	genießen	sterben	versagen	töten	bange	krank	gemein	vergnügt	kuss	gesittet	anregung	gütig	engagiert	verbissen	krise	geizig	ausrottung	gierig	engstirnig	1	blank2r.bmp	0	1	+	0	1	blank2r.bmp	500	8	C4r.bmp	500	1	blank2r.bmp	880	6	engagiert	880	0	0	0	0	0	0	0	0	0	0	0	0
2024-06-11	12:07:17	12:09:10	112142	6.6.1	4_exp_EVA_AWA_CON	80	A	B	Rpleas_acq	Oppo	Rpleas	2pleas	acq_US_unple_nomask	acq1_nomask	1	2	0	0	300	300	0	0	2415	46	1	0	sonnig	vertrauen	träumen	besonnen	kreativ	genießen	sterben	versagen	töten	bange	krank	gemein	vergnügt	kuss	gesittet	anregung	gütig	engagiert	verbissen	krise	geizig	ausrottung	gierig	engstirnig	1	blank2r.bmp	0	1	+	0	1	blank2r.bmp	500	1	CPLW	500	1	blank2r.bmp	880	4	bange	880	0	0	0	0	0	0	0	0	0	0	0	0
2024-06-11	12:07:17	12:09:13	114854	6.6.1	4_exp_EVA_AWA_CON	80	A	B	Rpleas_acq	Oppo	Rpleas	2pleas	acq_US_pleas_nomask	acq1_nomask	1	3	0	0	300	300	0	0	1225	50	1	0	sonnig	vertrauen	träumen	besonnen	kreativ	genießen	sterben	versagen	töten	bange	krank	gemein	vergnügt	kuss	gesittet	anregung	gütig	engagiert	verbissen	krise	geizig	ausrottung	gierig	engstirnig	1	blank2r.bmp	0	1	+	0	1	blank2r.bmp	500	1	DHJF	500	1	blank2r.bmp	880	3	träumen	880	0	0	0	0	0	0	0	0	0	0	0	0
2024-06-11	12:07:17	12:09:15	117246	6.6.1	4_exp_EVA_AWA_CON	80	A	B	Rpleas_acq	Oppo	Rpleas	2pleas	acq_new_pleas_nomask	acq1_nomask	1	4	0	0	300	300	0	0	905	50	1	0	sonnig	vertrauen	träumen	besonnen	kreativ	genießen	sterben	versagen	töten	bange	krank	gemein	vergnügt	kuss	gesittet	anregung	gütig	engagiert	verbissen	krise	geizig	ausrottung	gierig	engstirnig	1	blank2r.bmp	0	1	+	0	1	blank2r.bmp	500	1	B1r.bmp	500	1	blank2r.bmp	880	2	kuss	880	0	0	0	0	0	0	0	0	0	0	0	0
2024-06-11	12:07:17	12:09:17	119822	6.6.1	4_exp_EVA_AWA_CON	80	A	B	Rpleas_acq	Oppo	Rpleas	2pleas	acq_new_unple_nomask	acq1_nomask	1	5	0	0	300	300	0	0	1090	46	1	0	sonnig	vertrauen	träumen	besonnen	kreativ	genießen	sterben	versagen	töten	bange	krank	gemein	vergnügt	kuss	gesittet	anregung	gütig	engagiert	verbissen	krise	geizig	ausrottung	gierig	engstirnig	1	blank2r.bmp	0	1	+	0	1	blank2r.bmp	500	3	B3r.bmp	500	1	blank2r.bmp	880	4	ausrottung	880	0	0	0	0	0	0	0	0	0	0	0	0
2024-06-11	12:07:17	12:09:20	122095	6.6.1	4_exp_EVA_AWA_CON	80	A	B	Rpleas_acq	Oppo	Rpleas	2pleas	acq_US_pleas_nomask	acq1_nomask	1	6	0	0	300	300	0	0	790	50	1	0	sonnig	vertrauen	träumen	besonnen	kreativ	genießen	sterben	versagen	töten	bange	krank	gemein	vergnügt	kuss	gesittet	anregung	gütig	engagiert	verbissen	krise	geizig	ausrottung	gierig	engstirnig	1	blank2r.bmp	0	1	+	0	1	blank2r.bmp	500	1	DHJF	500	1	blank2r.bmp	880	6	genießen	880	0	0	0	0	0	0	0	0	0	0	0	0
2024-06-11	12:07:17	12:09:23	125318	6.6.1	4_exp_EVA_AWA_CON	80	A	B	Rpleas_acq	Oppo	Rpleas	2pleas	acq_new_unple_nomask	acq1_nomask	1	7	0	0	300	300	0	0	1742	46	1	0	sonnig	vertrauen	träumen	besonnen	kreativ	genießen	sterben	versagen	töten	bange	krank	gemein	vergnügt	kuss	gesittet	anregung	gütig	engagiert	verbissen	krise	geizig	ausrottung	gierig	engstirnig	1	blank2r.bmp	0	1	+	0	1	blank2r.bmp	500	5	C1r.bmp	500	1	blank2r.bmp	880	6	engstirnig	880	0	0	0	0	0	0	0	0	0	0	0	0
2024-06-11	12:07:17	12:09:28	130006	6.6.1	4_exp_EVA_AWA_CON	80	A	B	Rpleas_acq	Oppo	Rpleas	2pleas	acq_US_unple_nomask	acq1_nomask	1	8	0	0	300	300	0	0	3198	46	1	0	sonnig	vertrauen	träumen	besonnen	kreativ	genießen	sterben	versagen	töten	bange	krank	gemein	vergnügt	kuss	gesittet	anregung	gütig	engagiert	verbissen	krise	geizig	ausrottung	gierig	engstirnig	1	blank2r.bmp	0	1	+	0	1	blank2r.bmp	500	1	CPLW	500	1	blank2r.bmp	880	2	versagen	880	0	0	0	0	0	0	0	0	0	0	0	0
2024-06-11	12:07:17	12:09:30	132294	6.6.1	4_exp_EVA_AWA_CON	80	A	B	Rpleas_acq	Oppo	Rpleas	2pleas	acq_new_unple_nomask	acq1_nomask	1	9	0	0	300	300	0	0	803	46	1	0	sonnig	vertrauen	träumen	besonnen	kreativ	genießen	sterben	versagen	töten	bange	krank	gemein	vergnügt	kuss	gesittet	anregung	gütig	engagiert	verbissen	krise	geizig	ausrottung	gierig	engstirnig	1	blank2r.bmp	0	1	+	0	1	blank2r.bmp	500	6	C2r.bmp	500	1	blank2r.bmp	880	3	geizig	880	0	0	0	0	0	0	0	0	0	0	0	0
2024-06-11	12:07:17	12:09:32	134678	6.6.1	4_exp_EVA_AWA_CON	80	A	B	Rpleas_acq	Oppo	Rpleas	2pleas	acq_US_pleas_nomask	acq1_nomask	1	10	0	0	300	300	0	0	896	50	1	0	sonnig	vertrauen	träumen	besonnen	kreativ	genießen	sterben	versagen	töten	bange	krank	gemein	vergnügt	kuss	gesittet	anregung	gütig	engagiert	verbissen	krise	geizig	ausrottung	gierig	engstirnig	1	blank2r.bmp	0	1	+	0	1	blank2r.bmp	500	1	DHJF	500	1	blank2r.bmp	880	5	kreativ	880	0	0	0	0	0	0	0	0	0	0	0	0
2024-06-11	12:07:17	12:09:35	136935	6.6.1	4_exp_EVA_AWA_CON	80	A	B	Rpleas_acq	Oppo	Rpleas	2pleas	acq_US_unple_nomask	acq1_nomask	1	11	0	0	300	300	0	0	770	46	1	0	sonnig	vertrauen	träumen	besonnen	kreativ	genießen	sterben	versagen	töten	bange	krank	gemein	vergnügt	kuss	gesittet	anregung	gütig	engagiert	verbissen	krise	geizig	ausrottung	gierig	engstirnig	1	blank2r.bmp	0	1	+	0	1	blank2r.bmp	500	1	CPLW	500	1	blank2r.bmp	880	3	töten	880	0	0	0	0	0	0	0	0	0	0	0	0
2024-06-11	12:07:17	12:09:38	140583	6.6.1	4_exp_EVA_AWA_CON	80	A	B	Rpleas_acq	Oppo	Rpleas	2pleas	acq_new_pleas_nomask	acq1_nomask	1	12	0	0	300	300	0	0	1967	46	0	0	sonnig	vertrauen	träumen	besonnen	kreativ	genießen	sterben	versagen	töten	bange	krank	gemein	vergnügt	kuss	gesittet	anregung	gütig	engagiert	verbissen	krise	geizig	ausrottung	gierig	engstirnig	1	blank2r.bmp	0	1	+	0	1	blank2r.bmp	500	4	B4r.bmp	500	1	blank2r.bmp	880	5	gütig	880	1	FEHLER	2868	0	0	0	0	0	0	0	0	0
2024-06-11	12:07:17	12:09:41	142999	6.6.1	4_exp_EVA_AWA_CON	80	A	B	Rpleas_acq	Oppo	Rpleas	2pleas	acq_US_pleas_nomask	acq1_nomask	1	13	0	0	300	300	0	0	1131	50	1	0	sonnig	vertrauen	träumen	besonnen	kreativ	genießen	sterben	versagen	töten	bange	krank	gemein	vergnügt	kuss	gesittet	anregung	gütig	engagiert	verbissen	krise	geizig	ausrottung	gierig	engstirnig	1	blank2r.bmp	0	1	+	0	1	blank2r.bmp	500	1	DHJF	500	1	blank2r.bmp	880	1	sonnig	880	0	0	0	0	0	0	0	0	0	0	0	0
2024-06-11	12:07:17	12:09:44	145886	6.6.1	4_exp_EVA_AWA_CON	80	A	B	Rpleas_acq	Oppo	Rpleas	2pleas	acq_US_unple_nomask	acq1_nomask	1	14	0	0	300	300	0	0	1407	46	1	0	sonnig	vertrauen	träumen	besonnen	kreativ	genießen	sterben	versagen	töten	bange	krank	gemein	vergnügt	kuss	gesittet	anregung	gütig	engagiert	verbissen	krise	geizig	ausrottung	gierig	engstirnig	1	blank2r.bmp	0	1	+	0	1	blank2r.bmp	500	1	CPLW	500	1	blank2r.bmp	880	6	gemein	880	0	0	0	0	0	0	0	0	0	0	0	0
2024-06-11	12:07:17	12:09:46	148686	6.6.1	4_exp_EVA_AWA_CON	80	A	B	Rpleas_acq	Oppo	Rpleas	2pleas	acq_new_unple_nomask	acq1_nomask	1	15	0	0	300	300	0	0	1315	46	1	0	sonnig	vertrauen	träumen	besonnen	kreativ	genießen	sterben	versagen	töten	bange	krank	gemein	vergnügt	kuss	gesittet	anregung	gütig	engagiert	verbissen	krise	geizig	ausrottung	gierig	engstirnig	1	blank2r.bmp	0	1	+	0	1	blank2r.bmp	500	2	B2r.bmp	500	1	blank2r.bmp	880	1	verbissen	880	0	0	0	0	0	0	0	0	0	0	0	0
2024-06-11	12:07:17	12:09:49	150902	6.6.1	4_exp_EVA_AWA_CON	80	A	B	Rpleas_acq	Oppo	Rpleas	2pleas	acq_US_unple_nomask	acq1_nomask	1	16	0	0	300	300	0	0	729	46	1	0	sonnig	vertrauen	träumen	besonnen	kreativ	genießen	sterben	versagen	töten	bange	krank	gemein	vergnügt	kuss	gesittet	anregung	gütig	engagiert	verbissen	krise	geizig	ausrottung	gierig	engstirnig	1	blank2r.bmp	0	1	+	0	1	blank2r.bmp	500	1	CPLW	500	1	blank2r.bmp	880	5	krank	880	0	0	0	0	0	0	0	0	0	0	0	0
2024-06-11	12:07:17	12:09:51	153318	6.6.1	4_exp_EVA_AWA_CON	80	A	B	Rpleas_acq	Oppo	Rpleas	2pleas	acq_new_unple_nomask	acq1_nomask	1	17	0	0	300	300	0	0	934	46	1	0	sonnig	vertrauen	träumen	besonnen	kreativ	genießen	sterben	versagen	töten	bange	krank	gemein	vergnügt	kuss	gesittet	anregung	gütig	engagiert	verbissen	krise	geizig	ausrottung	gierig	engstirnig	1	blank2r.bmp	0	1	+	0	1	blank2r.bmp	500	7	C3r.bmp	500	1	blank2r.bmp	880	5	gierig	880	0	0	0	0	0	0	0	0	0	0	0	0
2024-06-11	12:07:17	12:09:53	155798	6.6.1	4_exp_EVA_AWA_CON	80	A	B	Rpleas_acq	Oppo	Rpleas	2pleas	acq_US_pleas_nomask	acq1_nomask	1	18	0	0	300	300	0	0	992	50	1	0	sonnig	vertrauen	träumen	besonnen	kreativ	genießen	sterben	versagen	töten	bange	krank	gemein	vergnügt	kuss	gesittet	anregung	gütig	engagiert	verbissen	krise	geizig	ausrottung	gierig	engstirnig	1	blank2r.bmp	0	1	+	0	1	blank2r.bmp	500	1	DHJF	500	1	blank2r.bmp	880	2	vertrauen	880	0	0	0	0	0	0	0	0	0	0	0	0
2024-06-11	12:07:17	12:09:59	161599	6.6.1	4_exp_EVA_AWA_CON	80	A	B	Rpleas_acq	Oppo	Rpleas	2pleas	acq_new_pleas_nomask	acq1_nomask	1	19	0	0	300	300	0	0	4111	46	0	0	sonnig	vertrauen	träumen	besonnen	kreativ	genießen	sterben	versagen	töten	bange	krank	gemein	vergnügt	kuss	gesittet	anregung	gütig	engagiert	verbissen	krise	geizig	ausrottung	gierig	engstirnig	1	blank2r.bmp	0	1	+	0	1	blank2r.bmp	500	8	C4r.bmp	500	1	blank2r.bmp	880	4	anregung	880	1	FEHLER	5012	0	0	0	0	0	0	0	0	0
2024-06-11	12:07:17	12:10:02	164223	6.6.1	4_exp_EVA_AWA_CON	80	A	B	Rpleas_acq	Oppo	Rpleas	2pleas	acq_new_unple_nomask	acq1_nomask	1	20	0	0	300	300	0	0	1341	46	1	0	sonnig	vertrauen	träumen	besonnen	kreativ	genießen	sterben	versagen	töten	bange	krank	gemein	vergnügt	kuss	gesittet	anregung	gütig	engagiert	verbissen	krise	geizig	ausrottung	gierig	engstirnig	1	blank2r.bmp	0	1	+	0	1	blank2r.bmp	500	3	B3r.bmp	500	1	blank2r.bmp	880	2	krise	880	0	0	0	0	0	0	0	0	0	0	0	0
2024-06-11	12:07:17	12:10:05	166894	6.6.1	4_exp_EVA_AWA_CON	80	A	B	Rpleas_acq	Oppo	Rpleas	2pleas	acq_new_pleas_nomask	acq1_nomask	1	21	0	0	300	300	0	0	1191	50	1	0	sonnig	vertrauen	träumen	besonnen	kreativ	genießen	sterben	versagen	töten	bange	krank	gemein	vergnügt	kuss	gesittet	anregung	gütig	engagiert	verbissen	krise	geizig	ausrottung	gierig	engstirnig	1	blank2r.bmp	0	1	+	0	1	blank2r.bmp	500	7	C3r.bmp	500	1	blank2r.bmp	880	1	vergnügt	880	0	0	0	0	0	0	0	0	0	0	0	0
2024-06-11	12:07:17	12:10:07	169614	6.6.1	4_exp_EVA_AWA_CON	80	A	B	Rpleas_acq	Oppo	Rpleas	2pleas	acq_US_pleas_nomask	acq1_nomask	1	22	0	0	300	300	0	0	1230	50	1	0	sonnig	vertrauen	träumen	besonnen	kreativ	genießen	sterben	versagen	töten	bange	krank	gemein	vergnügt	kuss	gesittet	anregung	gütig	engagiert	verbissen	krise	geizig	ausrottung	gierig	engstirnig	1	blank2r.bmp	0	1	+	0	1	blank2r.bmp	500	1	DHJF	500	1	blank2r.bmp	880	4	besonnen	880	0	0	0	0	0	0	0	0	0	0	0	0
2024-06-11	12:07:17	12:10:09	171782	6.6.1	4_exp_EVA_AWA_CON	80	A	B	Rpleas_acq	Oppo	Rpleas	2pleas	acq_US_unple_nomask	acq1_nomask	1	23	0	0	300	300	0	0	686	46	1	0	sonnig	vertrauen	träumen	besonnen	kreativ	genießen	sterben	versagen	töten	bange	krank	gemein	vergnügt	kuss	gesittet	anregung	gütig	engagiert	verbissen	krise	geizig	ausrottung	gierig	engstirnig	1	blank2r.bmp	0	1	+	0	1	blank2r.bmp	500	1	CPLW	500	1	blank2r.bmp	880	1	sterben	880	0	0	0	0	0	0	0	0	0	0	0	0
2024-06-11	12:07:17	12:10:13	175768	6.6.1	4_exp_EVA_AWA_CON	80	A	B	Rpleas_acq	Oppo	Rpleas	2pleas	acq_new_pleas_nomask	acq1_nomask	1	24	0	0	300	300	0	0	2299	46	0	0	sonnig	vertrauen	träumen	besonnen	kreativ	genießen	sterben	versagen	töten	bange	krank	gemein	vergnügt	kuss	gesittet	anregung	gütig	engagiert	verbissen	krise	geizig	ausrottung	gierig	engstirnig	1	blank2r.bmp	0	1	+	0	1	blank2r.bmp	500	5	C1r.bmp	500	1	blank2r.bmp	880	3	gesittet	880	1	FEHLER	3200	0	0	0	0	0	0	0	0	0
2024-06-11	12:07:17	12:10:17	179768	6.6.1	4_exp_EVA_AWA_CON	80	A	B	Rpleas_acq	Oppo	Rpleas	2pleas	acq_new_pleas_nomask	acq1_nomask	1	25	0	0	300	300	0	0	2516	46	0	0	sonnig	vertrauen	träumen	besonnen	kreativ	genießen	sterben	versagen	töten	bange	krank	gemein	vergnügt	kuss	gesittet	anregung	gütig	engagiert	verbissen	krise	geizig	ausrottung	gierig	engstirnig	1	blank2r.bmp	0	1	+	0	1	blank2r.bmp	500	4	B4r.bmp	500	1	blank2r.bmp	880	4	anregung	880	1	FEHLER	3418	0	0	0	0	0	0	0	0	0
2024-06-11	12:07:17	12:10:20	182030	6.6.1	4_exp_EVA_AWA_CON	80	A	B	Rpleas_acq	Oppo	Rpleas	2pleas	acq_US_unple_nomask	acq1_nomask	1	26	0	0	300	300	0	0	978	46	1	0	sonnig	vertrauen	träumen	besonnen	kreativ	genießen	sterben	versagen	töten	bange	krank	gemein	vergnügt	kuss	gesittet	anregung	gütig	engagiert	verbissen	krise	geizig	ausrottung	gierig	engstirnig	1	blank2r.bmp	0	1	+	0	1	blank2r.bmp	500	1	CPLW	500	1	blank2r.bmp	880	6	gemein	880	0	0	0	0	0	0	0	0	0	0	0	0
2024-06-11	12:07:17	12:10:22	184215	6.6.1	4_exp_EVA_AWA_CON	80	A	B	Rpleas_acq	Oppo	Rpleas	2pleas	acq_US_unple_nomask	acq1_nomask	1	27	0	0	300	300	0	0	700	46	1	0	sonnig	vertrauen	träumen	besonnen	kreativ	genießen	sterben	versagen	töten	bange	krank	gemein	vergnügt	kuss	gesittet	anregung	gütig	engagiert	verbissen	krise	geizig	ausrottung	gierig	engstirnig	1	blank2r.bmp	0	1	+	0	1	blank2r.bmp	500	1	CPLW	500	1	blank2r.bmp	880	3	töten	880	0	0	0	0	0	0	0	0	0	0	0	0
2024-06-11	12:07:17	12:10:25	186902	6.6.1	4_exp_EVA_AWA_CON	80	A	B	Rpleas_acq	Oppo	Rpleas	2pleas	acq_new_unple_nomask	acq1_nomask	1	28	0	0	300	300	0	0	1207	46	1	0	sonnig	vertrauen	träumen	besonnen	kreativ	genießen	sterben	versagen	töten	bange	krank	gemein	vergnügt	kuss	gesittet	anregung	gütig	engagiert	verbissen	krise	geizig	ausrottung	gierig	engstirnig	1	blank2r.bmp	0	1	+	0	1	blank2r.bmp	500	2	B2r.bmp	500	1	blank2r.bmp	880	6	engstirnig	880	0	0	0	0	0	0	0	0	0	0	0	0
2024-06-11	12:07:17	12:10:27	189190	6.6.1	4_exp_EVA_AWA_CON	80	A	B	Rpleas_acq	Oppo	Rpleas	2pleas	acq_new_pleas_nomask	acq1_nomask	1	29	0	0	300	300	0	0	803	50	1	0	sonnig	vertrauen	träumen	besonnen	kreativ	genießen	sterben	versagen	töten	bange	krank	gemein	vergnügt	kuss	gesittet	anregung	gütig	engagiert	verbissen	krise	geizig	ausrottung	gierig	engstirnig	1	blank2r.bmp	0	1	+	0	1	blank2r.bmp	500	1	B1r.bmp	500	1	blank2r.bmp	880	2	kuss	880	0	0	0	0	0	0	0	0	0	0	0	0
2024-06-11	12:07:17	12:10:29	191542	6.6.1	4_exp_EVA_AWA_CON	80	A	B	Rpleas_acq	Oppo	Rpleas	2pleas	acq_new_unple_nomask	acq1_nomask	1	30	0	0	300	300	0	0	863	46	1	0	sonnig	vertrauen	träumen	besonnen	kreativ	genießen	sterben	versagen	töten	bange	krank	gemein	vergnügt	kuss	gesittet	anregung	gütig	engagiert	verbissen	krise	geizig	ausrottung	gierig	engstirnig	1	blank2r.bmp	0	1	+	0	1	blank2r.bmp	500	6	C2r.bmp	500	1	blank2r.bmp	880	5	gierig	880	0	0	0	0	0	0	0	0	0	0	0	0
2024-06-11	12:07:17	12:10:32	194214	6.6.1	4_exp_EVA_AWA_CON	80	A	B	Rpleas_acq	Oppo	Rpleas	2pleas	acq_new_unple_nomask	acq1_nomask	1	31	0	0	300	300	0	0	1184	46	1	0	sonnig	vertrauen	träumen	besonnen	kreativ	genießen	sterben	versagen	töten	bange	krank	gemein	vergnügt	kuss	gesittet	anregung	gütig	engagiert	verbissen	krise	geizig	ausrottung	gierig	engstirnig	1	blank2r.bmp	0	1	+	0	1	blank2r.bmp	500	2	B2r.bmp	500	1	blank2r.bmp	880	4	ausrottung	880	0	0	0	0	0	0	0	0	0	0	0	0
2024-06-11	12:07:17	12:10:35	197408	6.6.1	4_exp_EVA_AWA_CON	80	A	B	Rpleas_acq	Oppo	Rpleas	2pleas	acq_US_unple_nomask	acq1_nomask	1	32	0	0	300	300	0	0	1504	50	0	0	sonnig	vertrauen	träumen	besonnen	kreativ	genießen	sterben	versagen	töten	bange	krank	gemein	vergnügt	kuss	gesittet	anregung	gütig	engagiert	verbissen	krise	geizig	ausrottung	gierig	engstirnig	1	blank2r.bmp	0	1	+	0	1	blank2r.bmp	500	1	CPLW	500	1	blank2r.bmp	880	2	versagen	880	1	FEHLER	2406	0	0	0	0	0	0	0	0	0
2024-06-11	12:07:17	12:10:38	199975	6.6.1	4_exp_EVA_AWA_CON	80	A	B	Rpleas_acq	Oppo	Rpleas	2pleas	acq_US_pleas_nomask	acq1_nomask	1	33	0	0	300	300	0	0	1280	50	1	0	sonnig	vertrauen	träumen	besonnen	kreativ	genießen	sterben	versagen	töten	bange	krank	gemein	vergnügt	kuss	gesittet	anregung	gütig	engagiert	verbissen	krise	geizig	ausrottung	gierig	engstirnig	1	blank2r.bmp	0	1	+	0	1	blank2r.bmp	500	1	DHJF	500	1	blank2r.bmp	880	1	sonnig	880	0	0	0	0	0	0	0	0	0	0	0	0
2024-06-11	12:07:17	12:10:40	202358	6.6.1	4_exp_EVA_AWA_CON	80	A	B	Rpleas_acq	Oppo	Rpleas	2pleas	acq_US_pleas_nomask	acq1_nomask	1	34	0	0	300	300	0	0	902	50	1	0	sonnig	vertrauen	träumen	besonnen	kreativ	genießen	sterben	versagen	töten	bange	krank	gemein	vergnügt	kuss	gesittet	anregung	gütig	engagiert	verbissen	krise	geizig	ausrottung	gierig	engstirnig	1	blank2r.bmp	0	1	+	0	1	blank2r.bmp	500	1	DHJF	500	1	blank2r.bmp	880	5	kreativ	880	0	0	0	0	0	0	0	0	0	0	0	0
2024-06-11	12:07:17	12:10:44	206775	6.6.1	4_exp_EVA_AWA_CON	80	A	B	Rpleas_acq	Oppo	Rpleas	2pleas	acq_new_pleas_nomask	acq1_nomask	1	35	0	0	300	300	0	0	2727	46	0	0	sonnig	vertrauen	träumen	besonnen	kreativ	genießen	sterben	versagen	töten	bange	krank	gemein	vergnügt	kuss	gesittet	anregung	gütig	engagiert	verbissen	krise	geizig	ausrottung	gierig	engstirnig	1	blank2r.bmp	0	1	+	0	1	blank2r.bmp	500	6	C2r.bmp	500	1	blank2r.bmp	880	3	gesittet	880	1	FEHLER	3628	0	0	0	0	0	0	0	0	0
2024-06-11	12:07:17	12:10:47	209422	6.6.1	4_exp_EVA_AWA_CON	80	A	B	Rpleas_acq	Oppo	Rpleas	2pleas	acq_US_pleas_nomask	acq1_nomask	1	36	0	0	300	300	0	0	1362	50	1	0	sonnig	vertrauen	träumen	besonnen	kreativ	genießen	sterben	versagen	töten	bange	krank	gemein	vergnügt	kuss	gesittet	anregung	gütig	engagiert	verbissen	krise	geizig	ausrottung	gierig	engstirnig	1	blank2r.bmp	0	1	+	0	1	blank2r.bmp	500	1	DHJF	500	1	blank2r.bmp	880	4	besonnen	880	0	0	0	0	0	0	0	0	0	0	0	0
2024-06-11	12:07:17	12:11:29	251520	6.6.1	4_exp_EVA_AWA_CON	80	A	B	Rpleas_acq	Oppo	Rpleas	2pleas	acq_US_unple_nomask	acq2_nomask	2	1	480	0	300	300	0	0	1684	46	1	0	sonnig	vertrauen	träumen	besonnen	kreativ	genießen	sterben	versagen	töten	bange	krank	gemein	vergnügt	kuss	gesittet	anregung	gütig	engagiert	verbissen	krise	geizig	ausrottung	gierig	engstirnig	1	blank2r.bmp	0	1	+	0	1	blank2r.bmp	500	1	CPLW	500	1	blank2r.bmp	880	5	krank	880	1	!	1312	1	!	-1	0	0	0	0	0	0
2024-06-11	12:07:17	12:11:32	253976	6.6.1	4_exp_EVA_AWA_CON	80	A	B	Rpleas_acq	Oppo	Rpleas	2pleas	acq_US_pleas_nomask	acq2_nomask	2	2	480	0	300	300	0	0	677	50	1	0	sonnig	vertrauen	träumen	besonnen	kreativ	genießen	sterben	versagen	töten	bange	krank	gemein	vergnügt	kuss	gesittet	anregung	gütig	engagiert	verbissen	krise	geizig	ausrottung	gierig	engstirnig	1	blank2r.bmp	0	1	+	0	1	blank2r.bmp	500	1	DHJF	500	1	blank2r.bmp	880	2	vertrauen	880	1	!	1312	1	!	-1	0	0	0	0	0	0
2024-06-11	12:07:17	12:11:38	259976	6.6.1	4_exp_EVA_AWA_CON	80	A	B	Rpleas_acq	Oppo	Rpleas	2pleas	acq_new_pleas_nomask	acq2_nomask	2	3	480	0	300	300	0	0	4226	50	1	0	sonnig	vertrauen	träumen	besonnen	kreativ	genießen	sterben	versagen	töten	bange	krank	gemein	vergnügt	kuss	gesittet	anregung	gütig	engagiert	verbissen	krise	geizig	ausrottung	gierig	engstirnig	1	blank2r.bmp	0	1	+	0	1	blank2r.bmp	500	4	B4r.bmp	500	1	blank2r.bmp	880	1	vergnügt	880	1	!	1312	1	!	-1	0	0	0	0	0	0
2024-06-11	12:07:17	12:11:40	262128	6.6.1	4_exp_EVA_AWA_CON	80	A	B	Rpleas_acq	Oppo	Rpleas	2pleas	acq_US_unple_nomask	acq2_nomask	2	4	480	0	300	300	0	0	374	46	1	0	sonnig	vertrauen	träumen	besonnen	kreativ	genießen	sterben	versagen	töten	bange	krank	gemein	vergnügt	kuss	gesittet	anregung	gütig	engagiert	verbissen	krise	geizig	ausrottung	gierig	engstirnig	1	blank2r.bmp	0	1	+	0	1	blank2r.bmp	500	1	CPLW	500	1	blank2r.bmp	880	1	sterben	880	1	!	-1	1	!	-1	0	0	0	0	0	0
2024-06-11	12:07:17	12:11:42	264627	6.6.1	4_exp_EVA_AWA_CON	80	A	B	Rpleas_acq	Oppo	Rpleas	2pleas	acq_US_unple_nomask	acq2_nomask	2	5	480	1	300	300	0	0	519	50	0	0	sonnig	vertrauen	träumen	besonnen	kreativ	genießen	sterben	versagen	töten	bange	krank	gemein	vergnügt	kuss	gesittet	anregung	gütig	engagiert	verbissen	krise	geizig	ausrottung	gierig	engstirnig	1	blank2r.bmp	0	1	+	0	1	blank2r.bmp	500	1	CPLW	500	1	blank2r.bmp	880	4	bange	880	1	FEHLER	1712	1	!	1312	1	!	1420	0	0	0
2024-06-11	12:07:17	12:11:44	266568	6.6.1	4_exp_EVA_AWA_CON	80	A	B	Rpleas_acq	Oppo	Rpleas	2pleas	acq_new_unple_nomask	acq2_nomask	2	6	480	0	300	300	0	0	361	46	1	0	sonnig	vertrauen	träumen	besonnen	kreativ	genießen	sterben	versagen	töten	bange	krank	gemein	vergnügt	kuss	gesittet	anregung	gütig	engagiert	verbissen	krise	geizig	ausrottung	gierig	engstirnig	1	blank2r.bmp	0	1	+	0	1	blank2r.bmp	500	7	C3r.bmp	500	1	blank2r.bmp	880	3	geizig	880	1	!	-1	1	!	-1	0	0	0	0	0	0
2024-06-11	12:07:17	12:11:46	268744	6.6.1	4_exp_EVA_AWA_CON	80	A	B	Rpleas_acq	Oppo	Rpleas	2pleas	acq_new_unple_nomask	acq2_nomask	2	7	480	0	300	300	0	0	396	46	1	0	sonnig	vertrauen	träumen	besonnen	kreativ	genießen	sterben	versagen	töten	bange	krank	gemein	vergnügt	kuss	gesittet	anregung	gütig	engagiert	verbissen	krise	geizig	ausrottung	gierig	engstirnig	1	blank2r.bmp	0	1	+	0	1	blank2r.bmp	500	1	B1r.bmp	500	1	blank2r.bmp	880	2	krise	880	1	!	-1	1	!	-1	0	0	0	0	0	0
2024-06-11	12:07:17	12:11:51	273400	6.6.1	4_exp_EVA_AWA_CON	80	A	B	Rpleas_acq	Oppo	Rpleas	2pleas	acq_US_pleas_nomask	acq2_nomask	2	8	480	0	300	300	0	0	2880	50	1	0	sonnig	vertrauen	träumen	besonnen	kreativ	genießen	sterben	versagen	töten	bange	krank	gemein	vergnügt	kuss	gesittet	anregung	gütig	engagiert	verbissen	krise	geizig	ausrottung	gierig	engstirnig	1	blank2r.bmp	0	1	+	0	1	blank2r.bmp	500	1	DHJF	500	1	blank2r.bmp	880	6	genießen	880	1	!	1313	1	!	-1	0	0	0	0	0	0
2024-06-11	12:07:17	12:11:54	275912	6.6.1	4_exp_EVA_AWA_CON	80	A	B	Rpleas_acq	Oppo	Rpleas	2pleas	acq_new_pleas_nomask	acq2_nomask	2	9	480	0	300	300	0	0	739	50	1	0	sonnig	vertrauen	träumen	besonnen	kreativ	genießen	sterben	versagen	töten	bange	krank	gemein	vergnügt	kuss	gesittet	anregung	gütig	engagiert	verbissen	krise	geizig	ausrottung	gierig	engstirnig	1	blank2r.bmp	0	1	+	0	1	blank2r.bmp	500	3	B3r.bmp	500	1	blank2r.bmp	880	6	engagiert	880	1	!	1312	1	!	-1	0	0	0	0	0	0
2024-06-11	12:07:17	12:11:56	278048	6.6.1	4_exp_EVA_AWA_CON	80	A	B	Rpleas_acq	Oppo	Rpleas	2pleas	acq_new_pleas_nomask	acq2_nomask	2	10	480	0	300	300	0	0	354	50	1	0	sonnig	vertrauen	träumen	besonnen	kreativ	genießen	sterben	versagen	töten	bange	krank	gemein	vergnügt	kuss	gesittet	anregung	gütig	engagiert	verbissen	krise	geizig	ausrottung	gierig	engstirnig	1	blank2r.bmp	0	1	+	0	1	blank2r.bmp	500	8	C4r.bmp	500	1	blank2r.bmp	880	5	gütig	880	1	!	-1	1	!	-1	0	0	0	0	0	0
2024-06-11	12:07:17	12:11:58	280460	6.6.1	4_exp_EVA_AWA_CON	80	A	B	Rpleas_acq	Oppo	Rpleas	2pleas	acq_US_pleas_nomask	acq2_nomask	2	11	480	1	300	300	0	0	430	46	0	0	sonnig	vertrauen	träumen	besonnen	kreativ	genießen	sterben	versagen	töten	bange	krank	gemein	vergnügt	kuss	gesittet	anregung	gütig	engagiert	verbissen	krise	geizig	ausrottung	gierig	engstirnig	1	blank2r.bmp	0	1	+	0	1	blank2r.bmp	500	1	DHJF	500	1	blank2r.bmp	880	3	träumen	880	1	FEHLER	1624	1	!	1313	1	!	1332	0	0	0
2024-06-11	12:07:17	12:12:00	282411	6.6.1	4_exp_EVA_AWA_CON	80	A	B	Rpleas_acq	Oppo	Rpleas	2pleas	acq_new_unple_nomask	acq2_nomask	2	12	480	0	300	300	0	0	171	50	0	0	sonnig	vertrauen	träumen	besonnen	kreativ	genießen	sterben	versagen	töten	bange	krank	gemein	vergnügt	kuss	gesittet	anregung	gütig	engagiert	verbissen	krise	geizig	ausrottung	gierig	engstirnig	1	blank2r.bmp	0	1	+	0	1	blank2r.bmp	500	5	C1r.bmp	500	1	blank2r.bmp	880	1	verbissen	880	1	FEHLER	1364	1	!	-1	1	!	-1	0	0	0
2024-06-11	12:07:17	12:12:02	284344	6.6.1	4_exp_EVA_AWA_CON	80	A	B	Rpleas_acq	Oppo	Rpleas	2pleas	acq_new_pleas_nomask	acq2_nomask	2	13	480	0	300	300	0	0	356	50	1	0	sonnig	vertrauen	träumen	besonnen	kreativ	genießen	sterben	versagen	töten	bange	krank	gemein	vergnügt	kuss	gesittet	anregung	gütig	engagiert	verbissen	krise	geizig	ausrottung	gierig	engstirnig	1	blank2r.bmp	0	1	+	0	1	blank2r.bmp	500	1	B1r.bmp	500	1	blank2r.bmp	880	3	gesittet	880	1	!	-1	1	!	-1	0	0	0	0	0	0
2024-06-11	12:07:17	12:12:04	286507	6.6.1	4_exp_EVA_AWA_CON	80	A	B	Rpleas_acq	Oppo	Rpleas	2pleas	acq_US_pleas_nomask	acq2_nomask	2	14	480	0	300	300	0	0	184	46	0	0	sonnig	vertrauen	träumen	besonnen	kreativ	genießen	sterben	versagen	töten	bange	krank	gemein	vergnügt	kuss	gesittet	anregung	gütig	engagiert	verbissen	krise	geizig	ausrottung	gierig	engstirnig	1	blank2r.bmp	0	1	+	0	1	blank2r.bmp	500	1	DHJF	500	1	blank2r.bmp	880	3	träumen	880	1	FEHLER	1377	1	!	-1	1	!	-1	0	0	0
2024-06-11	12:07:17	12:12:06	288448	6.6.1	4_exp_EVA_AWA_CON	80	A	B	Rpleas_acq	Oppo	Rpleas	2pleas	acq_new_pleas_nomask	acq2_nomask	2	15	480	0	300	300	0	0	367	50	1	0	sonnig	vertrauen	träumen	besonnen	kreativ	genießen	sterben	versagen	töten	bange	krank	gemein	vergnügt	kuss	gesittet	anregung	gütig	engagiert	verbissen	krise	geizig	ausrottung	gierig	engstirnig	1	blank2r.bmp	0	1	+	0	1	blank2r.bmp	500	5	C1r.bmp	500	1	blank2r.bmp	880	1	vergnügt	880	1	!	-1	1	!	-1	0	0	0	0	0	0
2024-06-11	12:07:17	12:12:08	290658	6.6.1	4_exp_EVA_AWA_CON	80	A	B	Rpleas_acq	Oppo	Rpleas	2pleas	acq_US_pleas_nomask	acq2_nomask	2	16	480	1	300	300	0	0	434	50	1	0	sonnig	vertrauen	träumen	besonnen	kreativ	genießen	sterben	versagen	töten	bange	krank	gemein	vergnügt	kuss	gesittet	anregung	gütig	engagiert	verbissen	krise	geizig	ausrottung	gierig	engstirnig	1	blank2r.bmp	0	1	+	0	1	blank2r.bmp	500	1	DHJF	500	1	blank2r.bmp	880	4	besonnen	880	1	!	1312	1	!	1335	0	0	0	0	0	0
2024-06-11	12:07:17	12:12:10	292792	6.6.1	4_exp_EVA_AWA_CON	80	A	B	Rpleas_acq	Oppo	Rpleas	2pleas	acq_US_pleas_nomask	acq2_nomask	2	17	480	0	300	300	0	0	358	50	1	0	sonnig	vertrauen	träumen	besonnen	kreativ	genießen	sterben	versagen	töten	bange	krank	gemein	vergnügt	kuss	gesittet	anregung	gütig	engagiert	verbissen	krise	geizig	ausrottung	gierig	engstirnig	1	blank2r.bmp	0	1	+	0	1	blank2r.bmp	500	1	DHJF	500	1	blank2r.bmp	880	5	kreativ	880	1	!	-1	1	!	-1	0	0	0	0	0	0
2024-06-11	12:07:17	12:12:13	295116	6.6.1	4_exp_EVA_AWA_CON	80	A	B	Rpleas_acq	Oppo	Rpleas	2pleas	acq_US_unple_nomask	acq2_nomask	2	18	480	0	300	300	0	0	347	50	0	0	sonnig	vertrauen	träumen	besonnen	kreativ	genießen	sterben	versagen	töten	bange	krank	gemein	vergnügt	kuss	gesittet	anregung	gütig	engagiert	verbissen	krise	geizig	ausrottung	gierig	engstirnig	1	blank2r.bmp	0	1	+	0	1	blank2r.bmp	500	1	CPLW	500	1	blank2r.bmp	880	2	versagen	880	1	FEHLER	1540	1	!	-1	1	!	-1	0	0	0
2024-06-11	12:07:17	12:12:16	298400	6.6.1	4_exp_EVA_AWA_CON	80	A	B	Rpleas_acq	Oppo	Rpleas	2pleas	acq_US_unple_nomask	acq2_nomask	2	19	480	0	300	300	0	0	1714	46	1	0	sonnig	vertrauen	träumen	besonnen	kreativ	genießen	sterben	versagen	töten	bange	krank	gemein	vergnügt	kuss	gesittet	anregung	gütig	engagiert	verbissen	krise	geizig	ausrottung	gierig	engstirnig	1	blank2r.bmp	0	1	+	0	1	blank2r.bmp	500	1	CPLW	500	1	blank2r.bmp	880	3	töten	880	1	!	1313	1	!	-1	0	0	0	0	0	0
2024-06-11	12:07:17	12:12:18	300504	6.6.1	4_exp_EVA_AWA_CON	80	A	B	Rpleas_acq	Oppo	Rpleas	2pleas	acq_new_pleas_nomask	acq2_nomask	2	20	480	0	300	300	0	0	325	50	1	0	sonnig	vertrauen	träumen	besonnen	kreativ	genießen	sterben	versagen	töten	bange	krank	gemein	vergnügt	kuss	gesittet	anregung	gütig	engagiert	verbissen	krise	geizig	ausrottung	gierig	engstirnig	1	blank2r.bmp	0	1	+	0	1	blank2r.bmp	500	7	C3r.bmp	500	1	blank2r.bmp	880	4	anregung	880	1	!	-1	1	!	-1	0	0	0	0	0	0
2024-06-11	12:07:17	12:12:20	302504	6.6.1	4_exp_EVA_AWA_CON	80	A	B	Rpleas_acq	Oppo	Rpleas	2pleas	acq_US_unple_nomask	acq2_nomask	2	21	480	0	300	300	0	0	224	46	1	0	sonnig	vertrauen	träumen	besonnen	kreativ	genießen	sterben	versagen	töten	bange	krank	gemein	vergnügt	kuss	gesittet	anregung	gütig	engagiert	verbissen	krise	geizig	ausrottung	gierig	engstirnig	1	blank2r.bmp	0	1	+	0	1	blank2r.bmp	500	1	CPLW	500	1	blank2r.bmp	880	6	gemein	880	1	!	-1	1	!	-1	0	0	0	0	0	0
2024-06-11	12:07:17	12:12:22	304786	6.6.1	4_exp_EVA_AWA_CON	80	A	B	Rpleas_acq	Oppo	Rpleas	2pleas	acq_new_unple_nomask	acq2_nomask	2	22	480	1	300	300	0	0	503	46	1	0	sonnig	vertrauen	träumen	besonnen	kreativ	genießen	sterben	versagen	töten	bange	krank	gemein	vergnügt	kuss	gesittet	anregung	gütig	engagiert	verbissen	krise	geizig	ausrottung	gierig	engstirnig	1	blank2r.bmp	0	1	+	0	1	blank2r.bmp	500	2	B2r.bmp	500	1	blank2r.bmp	880	1	verbissen	880	1	!	1313	1	!	1404	0	0	0	0	0	0
2024-06-11	12:07:17	12:12:25	307107	6.6.1	4_exp_EVA_AWA_CON	80	A	B	Rpleas_acq	Oppo	Rpleas	2pleas	acq_new_unple_nomask	acq2_nomask	2	23	480	0	300	300	0	0	341	50	0	0	sonnig	vertrauen	träumen	besonnen	kreativ	genießen	sterben	versagen	töten	bange	krank	gemein	vergnügt	kuss	gesittet	anregung	gütig	engagiert	verbissen	krise	geizig	ausrottung	gierig	engstirnig	1	blank2r.bmp	0	1	+	0	1	blank2r.bmp	500	6	C2r.bmp	500	1	blank2r.bmp	880	6	engstirnig	880	1	FEHLER	1534	1	!	-1	1	!	-1	0	0	0
2024-06-11	12:07:17	12:12:27	309496	6.6.1	4_exp_EVA_AWA_CON	80	A	B	Rpleas_acq	Oppo	Rpleas	2pleas	acq_new_unple_nomask	acq2_nomask	2	24	480	0	300	300	0	0	812	46	1	0	sonnig	vertrauen	träumen	besonnen	kreativ	genießen	sterben	versagen	töten	bange	krank	gemein	vergnügt	kuss	gesittet	anregung	gütig	engagiert	verbissen	krise	geizig	ausrottung	gierig	engstirnig	1	blank2r.bmp	0	1	+	0	1	blank2r.bmp	500	3	B3r.bmp	500	1	blank2r.bmp	880	4	ausrottung	880	1	!	1313	1	!	-1	0	0	0	0	0	0
2024-06-11	12:07:17	12:12:30	311984	6.6.1	4_exp_EVA_AWA_CON	80	A	B	Rpleas_acq	Oppo	Rpleas	2pleas	acq_US_unple_nomask	acq2_nomask	2	25	480	0	300	300	0	0	708	46	1	0	sonnig	vertrauen	träumen	besonnen	kreativ	genießen	sterben	versagen	töten	bange	krank	gemein	vergnügt	kuss	gesittet	anregung	gütig	engagiert	verbissen	krise	geizig	ausrottung	gierig	engstirnig	1	blank2r.bmp	0	1	+	0	1	blank2r.bmp	500	1	CPLW	500	1	blank2r.bmp	880	1	sterben	880	1	!	1312	1	!	-1	0	0	0	0	0	0
2024-06-11	12:07:17	12:12:32	314291	6.6.1	4_exp_EVA_AWA_CON	80	A	B	Rpleas_acq	Oppo	Rpleas	2pleas	acq_US_pleas_nomask	acq2_nomask	2	26	480	0	300	300	0	0	331	46	0	0	sonnig	vertrauen	träumen	besonnen	kreativ	genießen	sterben	versagen	töten	bange	krank	gemein	vergnügt	kuss	gesittet	anregung	gütig	engagiert	verbissen	krise	geizig	ausrottung	gierig	engstirnig	1	blank2r.bmp	0	1	+	0	1	blank2r.bmp	500	1	DHJF	500	1	blank2r.bmp	880	2	vertrauen	880	1	FEHLER	1524	1	!	-1	1	!	-1	0	0	0
2024-06-11	12:07:17	12:12:34	316395	6.6.1	4_exp_EVA_AWA_CON	80	A	B	Rpleas_acq	Oppo	Rpleas	2pleas	acq_new_unple_nomask	acq2_nomask	2	27	480	0	300	300	0	0	323	50	0	0	sonnig	vertrauen	träumen	besonnen	kreativ	genießen	sterben	versagen	töten	bange	krank	gemein	vergnügt	kuss	gesittet	anregung	gütig	engagiert	verbissen	krise	geizig	ausrottung	gierig	engstirnig	1	blank2r.bmp	0	1	+	0	1	blank2r.bmp	500	8	C4r.bmp	500	1	blank2r.bmp	880	2	krise	880	1	FEHLER	1516	1	!	-1	1	!	-1	0	0	0
2024-06-11	12:07:17	12:12:36	318304	6.6.1	4_exp_EVA_AWA_CON	80	A	B	Rpleas_acq	Oppo	Rpleas	2pleas	acq_US_pleas_nomask	acq2_nomask	2	28	480	0	300	300	0	0	334	50	1	0	sonnig	vertrauen	träumen	besonnen	kreativ	genießen	sterben	versagen	töten	bange	krank	gemein	vergnügt	kuss	gesittet	anregung	gütig	engagiert	verbissen	krise	geizig	ausrottung	gierig	engstirnig	1	blank2r.bmp	0	1	+	0	1	blank2r.bmp	500	1	DHJF	500	1	blank2r.bmp	880	6	genießen	880	1	!	-1	1	!	-1	0	0	0	0	0	0
2024-06-11	12:07:17	12:12:38	320684	6.6.1	4_exp_EVA_AWA_CON	80	A	B	Rpleas_acq	Oppo	Rpleas	2pleas	acq_new_pleas_nomask	acq2_nomask	2	29	480	0	300	300	0	0	398	46	0	0	sonnig	vertrauen	träumen	besonnen	kreativ	genießen	sterben	versagen	töten	bange	krank	gemein	vergnügt	kuss	gesittet	anregung	gütig	engagiert	verbissen	krise	geizig	ausrottung	gierig	engstirnig	1	blank2r.bmp	0	1	+	0	1	blank2r.bmp	500	4	B4r.bmp	500	1	blank2r.bmp	880	5	gütig	880	1	FEHLER	1592	1	!	-1	1	!	-1	0	0	0
2024-06-11	12:07:17	12:12:40	322739	6.6.1	4_exp_EVA_AWA_CON	80	A	B	Rpleas_acq	Oppo	Rpleas	2pleas	acq_US_unple_nomask	acq2_nomask	2	30	480	0	300	300	0	0	283	50	0	0	sonnig	vertrauen	träumen	besonnen	kreativ	genießen	sterben	versagen	töten	bange	krank	gemein	vergnügt	kuss	gesittet	anregung	gütig	engagiert	verbissen	krise	geizig	ausrottung	gierig	engstirnig	1	blank2r.bmp	0	1	+	0	1	blank2r.bmp	500	1	CPLW	500	1	blank2r.bmp	880	4	bange	880	1	FEHLER	1476	1	!	-1	1	!	-1	0	0	0
2024-06-11	12:07:17	12:12:43	324859	6.6.1	4_exp_EVA_AWA_CON	80	A	B	Rpleas_acq	Oppo	Rpleas	2pleas	acq_new_pleas_nomask	acq2_nomask	2	31	480	0	300	300	0	0	342	46	0	0	sonnig	vertrauen	träumen	besonnen	kreativ	genießen	sterben	versagen	töten	bange	krank	gemein	vergnügt	kuss	gesittet	anregung	gütig	engagiert	verbissen	krise	geizig	ausrottung	gierig	engstirnig	1	blank2r.bmp	0	1	+	0	1	blank2r.bmp	500	6	C2r.bmp	500	1	blank2r.bmp	880	2	kuss	880	1	FEHLER	1535	1	!	-1	1	!	-1	0	0	0
2024-06-11	12:07:17	12:12:45	326857	6.6.1	4_exp_EVA_AWA_CON	80	A	B	Rpleas_acq	Oppo	Rpleas	2pleas	acq_US_unple_nomask	acq2_nomask	2	32	480	1	300	300	0	0	420	46	1	0	sonnig	vertrauen	träumen	besonnen	kreativ	genießen	sterben	versagen	töten	bange	krank	gemein	vergnügt	kuss	gesittet	anregung	gütig	engagiert	verbissen	krise	geizig	ausrottung	gierig	engstirnig	1	blank2r.bmp	0	1	+	0	1	blank2r.bmp	500	1	CPLW	500	1	blank2r.bmp	880	5	krank	880	1	!	1313	1	!	1320	0	0	0	0	0	0
2024-06-11	12:07:17	12:12:47	329347	6.6.1	4_exp_EVA_AWA_CON	80	A	B	Rpleas_acq	Oppo	Rpleas	2pleas	acq_new_unple_nomask	acq2_nomask	2	33	480	1	300	300	0	0	507	50	0	0	sonnig	vertrauen	träumen	besonnen	kreativ	genießen	sterben	versagen	töten	bange	krank	gemein	vergnügt	kuss	gesittet	anregung	gütig	engagiert	verbissen	krise	geizig	ausrottung	gierig	engstirnig	1	blank2r.bmp	0	1	+	0	1	blank2r.bmp	500	2	B2r.bmp	500	1	blank2r.bmp	880	3	geizig	880	1	FEHLER	1700	1	!	1313	1	!	1408	0	0	0
2024-06-11	12:07:17	12:12:49	331443	6.6.1	4_exp_EVA_AWA_CON	80	A	B	Rpleas_acq	Oppo	Rpleas	2pleas	acq_US_pleas_nomask	acq2_nomask	2	34	480	0	300	300	0	0	322	46	0	0	sonnig	vertrauen	träumen	besonnen	kreativ	genießen	sterben	versagen	töten	bange	krank	gemein	vergnügt	kuss	gesittet	anregung	gütig	engagiert	verbissen	krise	geizig	ausrottung	gierig	engstirnig	1	blank2r.bmp	0	1	+	0	1	blank2r.bmp	500	1	DHJF	500	1	blank2r.bmp	880	1	sonnig	880	1	FEHLER	1515	1	!	-1	1	!	-1	0	0	0
2024-06-11	12:07:17	12:12:51	333572	6.6.1	4_exp_EVA_AWA_CON	80	A	B	Rpleas_acq	Oppo	Rpleas	2pleas	acq_new_unple_nomask	acq2_nomask	2	35	480	0	300	300	0	0	348	50	0	0	sonnig	vertrauen	träumen	besonnen	kreativ	genießen	sterben	versagen	töten	bange	krank	gemein	vergnügt	kuss	gesittet	anregung	gütig	engagiert	verbissen	krise	geizig	ausrottung	gierig	engstirnig	1	blank2r.bmp	0	1	+	0	1	blank2r.bmp	500	4	B4r.bmp	500	1	blank2r.bmp	880	5	gierig	880	1	FEHLER	1542	1	!	-1	1	!	-1	0	0	0
2024-06-11	12:07:17	12:12:53	335728	6.6.1	4_exp_EVA_AWA_CON	80	A	B	Rpleas_acq	Oppo	Rpleas	2pleas	acq_new_pleas_nomask	acq2_nomask	2	36	480	0	300	300	0	0	587	50	1	0	sonnig	vertrauen	träumen	besonnen	kreativ	genießen	sterben	versagen	töten	bange	krank	gemein	vergnügt	kuss	gesittet	anregung	gütig	engagiert	verbissen	krise	geizig	ausrottung	gierig	engstirnig	1	blank2r.bmp	0	1	+	0	1	blank2r.bmp	500	1	B1r.bmp	500	1	blank2r.bmp	880	6	engagiert	880	1	!	1313	1	!	-1	0	0	0	0	0	0
2024-06-11	12:07:17	12:13:14	356096	6.6.1	4_exp_EVA_AWA_CON	80	A	B	Rpleas_acq	Oppo	Rpleas	2pleas	acq_US_pleas_nomask	acq3_nomask	3	1	453	0	300	300	0	0	742	50	1	0	sonnig	vertrauen	träumen	besonnen	kreativ	genießen	sterben	versagen	töten	bange	krank	gemein	vergnügt	kuss	gesittet	anregung	gütig	engagiert	verbissen	krise	geizig	ausrottung	gierig	engstirnig	1	blank2r.bmp	0	1	+	0	1	blank2r.bmp	500	1	DHJF	500	1	blank2r.bmp	880	6	genießen	880	1	!	1292	1	!	-1	0	0	0	0	0	0
2024-06-11	12:07:17	12:13:16	358468	6.6.1	4_exp_EVA_AWA_CON	80	A	B	Rpleas_acq	Oppo	Rpleas	2pleas	acq_US_pleas_nomask	acq3_nomask	3	2	453	0	300	300	0	0	388	46	0	0	sonnig	vertrauen	träumen	besonnen	kreativ	genießen	sterben	versagen	töten	bange	krank	gemein	vergnügt	kuss	gesittet	anregung	gütig	engagiert	verbissen	krise	geizig	ausrottung	gierig	engstirnig	1	blank2r.bmp	0	1	+	0	1	blank2r.bmp	500	1	DHJF	500	1	blank2r.bmp	880	1	sonnig	880	1	FEHLER	1582	1	!	-1	1	!	-1	0	0	0
2024-06-11	12:07:17	12:13:19	360883	6.6.1	4_exp_EVA_AWA_CON	80	A	B	Rpleas_acq	Oppo	Rpleas	2pleas	acq_US_unple_nomask	acq3_nomask	3	3	453	0	300	300	0	0	643	50	0	0	sonnig	vertrauen	träumen	besonnen	kreativ	genießen	sterben	versagen	töten	bange	krank	gemein	vergnügt	kuss	gesittet	anregung	gütig	engagiert	verbissen	krise	geizig	ausrottung	gierig	engstirnig	1	blank2r.bmp	0	1	+	0	1	blank2r.bmp	500	1	CPLW	500	1	blank2r.bmp	880	2	versagen	880	1	FEHLER	1836	1	!	1292	1	!	-1	0	0	0
2024-06-11	12:07:17	12:13:21	363052	6.6.1	4_exp_EVA_AWA_CON	80	A	B	Rpleas_acq	Oppo	Rpleas	2pleas	acq_US_unple_nomask	acq3_nomask	3	4	453	0	300	300	0	0	389	50	0	0	sonnig	vertrauen	träumen	besonnen	kreativ	genießen	sterben	versagen	töten	bange	krank	gemein	vergnügt	kuss	gesittet	anregung	gütig	engagiert	verbissen	krise	geizig	ausrottung	gierig	engstirnig	1	blank2r.bmp	0	1	+	0	1	blank2r.bmp	500	1	CPLW	500	1	blank2r.bmp	880	1	sterben	880	1	FEHLER	1583	1	!	-1	1	!	-1	0	0	0
2024-06-11	12:07:17	12:13:23	365355	6.6.1	4_exp_EVA_AWA_CON	80	A	B	Rpleas_acq	Oppo	Rpleas	2pleas	acq_US_unple_nomask	acq3_nomask	3	5	453	0	300	300	0	0	523	50	0	0	sonnig	vertrauen	träumen	besonnen	kreativ	genießen	sterben	versagen	töten	bange	krank	gemein	vergnügt	kuss	gesittet	anregung	gütig	engagiert	verbissen	krise	geizig	ausrottung	gierig	engstirnig	1	blank2r.bmp	0	1	+	0	1	blank2r.bmp	500	1	CPLW	500	1	blank2r.bmp	880	6	gemein	880	1	FEHLER	1715	1	!	1292	1	!	-1	0	0	0
2024-06-11	12:07:17	12:13:25	367648	6.6.1	4_exp_EVA_AWA_CON	80	A	B	Rpleas_acq	Oppo	Rpleas	2pleas	acq_US_pleas_nomask	acq3_nomask	3	6	453	0	300	300	0	0	716	50	1	0	sonnig	vertrauen	träumen	besonnen	kreativ	genießen	sterben	versagen	töten	bange	krank	gemein	vergnügt	kuss	gesittet	anregung	gütig	engagiert	verbissen	krise	geizig	ausrottung	gierig	engstirnig	1	blank2r.bmp	0	1	+	0	1	blank2r.bmp	500	1	DHJF	500	1	blank2r.bmp	880	4	besonnen	880	1	!	1293	1	!	-1	0	0	0	0	0	0
2024-06-11	12:07:17	12:13:28	370056	6.6.1	4_exp_EVA_AWA_CON	80	A	B	Rpleas_acq	Oppo	Rpleas	2pleas	acq_US_unple_nomask	acq3_nomask	3	7	453	0	300	300	0	0	633	46	1	0	sonnig	vertrauen	träumen	besonnen	kreativ	genießen	sterben	versagen	töten	bange	krank	gemein	vergnügt	kuss	gesittet	anregung	gütig	engagiert	verbissen	krise	geizig	ausrottung	gierig	engstirnig	1	blank2r.bmp	0	1	+	0	1	blank2r.bmp	500	1	CPLW	500	1	blank2r.bmp	880	3	töten	880	1	!	1292	1	!	-1	0	0	0	0	0	0
2024-06-11	12:07:17	12:13:30	372432	6.6.1	4_exp_EVA_AWA_CON	80	A	B	Rpleas_acq	Oppo	Rpleas	2pleas	acq_US_pleas_nomask	acq3_nomask	3	8	453	0	300	300	0	0	597	50	1	0	sonnig	vertrauen	träumen	besonnen	kreativ	genießen	sterben	versagen	töten	bange	krank	gemein	vergnügt	kuss	gesittet	anregung	gütig	engagiert	verbissen	krise	geizig	ausrottung	gierig	engstirnig	1	blank2r.bmp	0	1	+	0	1	blank2r.bmp	500	1	DHJF	500	1	blank2r.bmp	880	5	kreativ	880	1	!	1292	1	!	-1	0	0	0	0	0	0
2024-06-11	12:07:17	12:13:32	374824	6.6.1	4_exp_EVA_AWA_CON	80	A	B	Rpleas_acq	Oppo	Rpleas	2pleas	acq_US_pleas_nomask	acq3_nomask	3	9	453	0	300	300	0	0	618	50	1	0	sonnig	vertrauen	träumen	besonnen	kreativ	genießen	sterben	versagen	töten	bange	krank	gemein	vergnügt	kuss	gesittet	anregung	gütig	engagiert	verbissen	krise	geizig	ausrottung	gierig	engstirnig	1	blank2r.bmp	0	1	+	0	1	blank2r.bmp	500	1	DHJF	500	1	blank2r.bmp	880	2	vertrauen	880	1	!	1293	1	!	-1	0	0	0	0	0	0
2024-06-11	12:07:17	12:13:35	377026	6.6.1	4_exp_EVA_AWA_CON	80	A	B	Rpleas_acq	Oppo	Rpleas	2pleas	acq_US_unple_nomask	acq3_nomask	3	10	453	1	300	300	0	0	426	46	1	0	sonnig	vertrauen	träumen	besonnen	kreativ	genießen	sterben	versagen	töten	bange	krank	gemein	vergnügt	kuss	gesittet	anregung	gütig	engagiert	verbissen	krise	geizig	ausrottung	gierig	engstirnig	1	blank2r.bmp	0	1	+	0	1	blank2r.bmp	500	1	CPLW	500	1	blank2r.bmp	880	4	bange	880	1	!	1292	1	!	1327	0	0	0	0	0	0
2024-06-11	12:07:17	12:13:37	379088	6.6.1	4_exp_EVA_AWA_CON	80	A	B	Rpleas_acq	Oppo	Rpleas	2pleas	acq_US_unple_nomask	acq3_nomask	3	11	453	0	300	300	0	0	289	46	1	0	sonnig	vertrauen	träumen	besonnen	kreativ	genießen	sterben	versagen	töten	bange	krank	gemein	vergnügt	kuss	gesittet	anregung	gütig	engagiert	verbissen	krise	geizig	ausrottung	gierig	engstirnig	1	blank2r.bmp	0	1	+	0	1	blank2r.bmp	500	1	CPLW	500	1	blank2r.bmp	880	5	krank	880	1	!	-1	1	!	-1	0	0	0	0	0	0
2024-06-11	12:07:17	12:13:39	381488	6.6.1	4_exp_EVA_AWA_CON	80	A	B	Rpleas_acq	Oppo	Rpleas	2pleas	acq_US_pleas_nomask	acq3_nomask	3	12	453	0	300	300	0	0	627	50	1	0	sonnig	vertrauen	träumen	besonnen	kreativ	genießen	sterben	versagen	töten	bange	krank	gemein	vergnügt	kuss	gesittet	anregung	gütig	engagiert	verbissen	krise	geizig	ausrottung	gierig	engstirnig	1	blank2r.bmp	0	1	+	0	1	blank2r.bmp	500	1	DHJF	500	1	blank2r.bmp	880	3	träumen	880	1	!	1292	1	!	-1	0	0	0	0	0	0
2024-06-11	12:07:17	12:13:41	383816	6.6.1	4_exp_EVA_AWA_CON	80	A	B	Rpleas_acq	Oppo	Rpleas	2pleas	acq_US_unple_nomask	acq3_nomask	3	13	453	0	300	300	0	0	554	46	1	0	sonnig	vertrauen	träumen	besonnen	kreativ	genießen	sterben	versagen	töten	bange	krank	gemein	vergnügt	kuss	gesittet	anregung	gütig	engagiert	verbissen	krise	geizig	ausrottung	gierig	engstirnig	1	blank2r.bmp	0	1	+	0	1	blank2r.bmp	500	1	CPLW	500	1	blank2r.bmp	880	2	versagen	880	1	!	1292	1	!	-1	0	0	0	0	0	0
2024-06-11	12:07:17	12:13:44	385912	6.6.1	4_exp_EVA_AWA_CON	80	A	B	Rpleas_acq	Oppo	Rpleas	2pleas	acq_US_unple_nomask	acq3_nomask	3	14	453	0	300	300	0	0	318	46	1	0	sonnig	vertrauen	träumen	besonnen	kreativ	genießen	sterben	versagen	töten	bange	krank	gemein	vergnügt	kuss	gesittet	anregung	gütig	engagiert	verbissen	krise	geizig	ausrottung	gierig	engstirnig	1	blank2r.bmp	0	1	+	0	1	blank2r.bmp	500	1	CPLW	500	1	blank2r.bmp	880	6	gemein	880	1	!	-1	1	!	-1	0	0	0	0	0	0
2024-06-11	12:07:17	12:13:46	388395	6.6.1	4_exp_EVA_AWA_CON	80	A	B	Rpleas_acq	Oppo	Rpleas	2pleas	acq_US_unple_nomask	acq3_nomask	3	15	453	1	300	300	0	0	507	50	0	0	sonnig	vertrauen	träumen	besonnen	kreativ	genießen	sterben	versagen	töten	bange	krank	gemein	vergnügt	kuss	gesittet	anregung	gütig	engagiert	verbissen	krise	geizig	ausrottung	gierig	engstirnig	1	blank2r.bmp	0	1	+	0	1	blank2r.bmp	500	1	CPLW	500	1	blank2r.bmp	880	1	sterben	880	1	FEHLER	1700	1	!	1293	1	!	1408	0	0	0
2024-06-11	12:07:17	12:13:48	390475	6.6.1	4_exp_EVA_AWA_CON	80	A	B	Rpleas_acq	Oppo	Rpleas	2pleas	acq_US_pleas_nomask	acq3_nomask	3	16	453	0	300	300	0	0	306	46	0	0	sonnig	vertrauen	träumen	besonnen	kreativ	genießen	sterben	versagen	töten	bange	krank	gemein	vergnügt	kuss	gesittet	anregung	gütig	engagiert	verbissen	krise	geizig	ausrottung	gierig	engstirnig	1	blank2r.bmp	0	1	+	0	1	blank2r.bmp	500	1	DHJF	500	1	blank2r.bmp	880	3	träumen	880	1	FEHLER	1499	1	!	-1	1	!	-1	0	0	0
2024-06-11	12:07:17	12:13:50	392736	6.6.1	4_exp_EVA_AWA_CON	80	A	B	Rpleas_acq	Oppo	Rpleas	2pleas	acq_US_pleas_nomask	acq3_nomask	3	17	453	0	300	300	0	0	688	50	1	0	sonnig	vertrauen	träumen	besonnen	kreativ	genießen	sterben	versagen	töten	bange	krank	gemein	vergnügt	kuss	gesittet	anregung	gütig	engagiert	verbissen	krise	geizig	ausrottung	gierig	engstirnig	1	blank2r.bmp	0	1	+	0	1	blank2r.bmp	500	1	DHJF	500	1	blank2r.bmp	880	6	genießen	880	1	!	1292	1	!	-1	0	0	0	0	0	0
2024-06-11	12:07:17	12:13:53	395064	6.6.1	4_exp_EVA_AWA_CON	80	A	B	Rpleas_acq	Oppo	Rpleas	2pleas	acq_US_pleas_nomask	acq3_nomask	3	18	453	0	300	300	0	0	555	50	1	0	sonnig	vertrauen	träumen	besonnen	kreativ	genießen	sterben	versagen	töten	bange	krank	gemein	vergnügt	kuss	gesittet	anregung	gütig	engagiert	verbissen	krise	geizig	ausrottung	gierig	engstirnig	1	blank2r.bmp	0	1	+	0	1	blank2r.bmp	500	1	DHJF	500	1	blank2r.bmp	880	5	kreativ	880	1	!	1292	1	!	-1	0	0	0	0	0	0
2024-06-11	12:07:17	12:13:55	397436	6.6.1	4_exp_EVA_AWA_CON	80	A	B	Rpleas_acq	Oppo	Rpleas	2pleas	acq_US_unple_nomask	acq3_nomask	3	19	453	1	300	300	0	0	391	50	0	0	sonnig	vertrauen	träumen	besonnen	kreativ	genießen	sterben	versagen	töten	bange	krank	gemein	vergnügt	kuss	gesittet	anregung	gütig	engagiert	verbissen	krise	geizig	ausrottung	gierig	engstirnig	1	blank2r.bmp	0	1	+	0	1	blank2r.bmp	500	1	CPLW	500	1	blank2r.bmp	880	4	bange	880	1	FEHLER	1585	1	!	1293	1	!	1293	0	0	0
2024-06-11	12:07:17	12:13:57	399542	6.6.1	4_exp_EVA_AWA_CON	80	A	B	Rpleas_acq	Oppo	Rpleas	2pleas	acq_US_pleas_nomask	acq3_nomask	3	20	453	0	300	300	0	0	532	50	1	0	sonnig	vertrauen	träumen	besonnen	kreativ	genießen	sterben	versagen	töten	bange	krank	gemein	vergnügt	kuss	gesittet	anregung	gütig	engagiert	verbissen	krise	geizig	ausrottung	gierig	engstirnig	1	blank2r.bmp	0	1	+	0	1	blank2r.bmp	500	1	DHJF	500	1	blank2r.bmp	880	2	vertrauen	880	1	!	1292	1	!	-1	0	0	0	0	0	0
2024-06-11	12:07:17	12:13:59	401625	6.6.1	4_exp_EVA_AWA_CON	80	A	B	Rpleas_acq	Oppo	Rpleas	2pleas	acq_US_unple_nomask	acq3_nomask	3	21	453	0	300	300	0	0	300	46	1	0	sonnig	vertrauen	träumen	besonnen	kreativ	genießen	sterben	versagen	töten	bange	krank	gemein	vergnügt	kuss	gesittet	anregung	gütig	engagiert	verbissen	krise	geizig	ausrottung	gierig	engstirnig	1	blank2r.bmp	0	1	+	0	1	blank2r.bmp	500	1	CPLW	500	1	blank2r.bmp	880	5	krank	880	1	!	-1	1	!	-1	0	0	0	0	0	0
2024-06-11	12:07:17	12:14:02	403882	6.6.1	4_exp_EVA_AWA_CON	80	A	B	Rpleas_acq	Oppo	Rpleas	2pleas	acq_US_unple_nomask	acq3_nomask	3	22	453	1	300	300	0	0	475	46	1	0	sonnig	vertrauen	träumen	besonnen	kreativ	genießen	sterben	versagen	töten	bange	krank	gemein	vergnügt	kuss	gesittet	anregung	gütig	engagiert	verbissen	krise	geizig	ausrottung	gierig	engstirnig	1	blank2r.bmp	0	1	+	0	1	blank2r.bmp	500	1	CPLW	500	1	blank2r.bmp	880	3	töten	880	1	!	1293	1	!	1376	0	0	0	0	0	0
2024-06-11	12:07:17	12:14:04	406320	6.6.1	4_exp_EVA_AWA_CON	80	A	B	Rpleas_acq	Oppo	Rpleas	2pleas	acq_US_pleas_nomask	acq3_nomask	3	23	453	0	300	300	0	0	663	50	1	0	sonnig	vertrauen	träumen	besonnen	kreativ	genießen	sterben	versagen	töten	bange	krank	gemein	vergnügt	kuss	gesittet	anregung	gütig	engagiert	verbissen	krise	geizig	ausrottung	gierig	engstirnig	1	blank2r.bmp	0	1	+	0	1	blank2r.bmp	500	1	DHJF	500	1	blank2r.bmp	880	1	sonnig	880	1	!	1292	1	!	-1	0	0	0	0	0	0
2024-06-11	12:07:17	12:14:07	409020	6.6.1	4_exp_EVA_AWA_CON	80	A	B	Rpleas_acq	Oppo	Rpleas	2pleas	acq_US_pleas_nomask	acq3_nomask	3	24	453	0	300	300	0	0	718	46	0	0	sonnig	vertrauen	träumen	besonnen	kreativ	genießen	sterben	versagen	töten	bange	krank	gemein	vergnügt	kuss	gesittet	anregung	gütig	engagiert	verbissen	krise	geizig	ausrottung	gierig	engstirnig	1	blank2r.bmp	0	1	+	0	1	blank2r.bmp	500	1	DHJF	500	1	blank2r.bmp	880	4	besonnen	880	1	FEHLER	1911	1	!	1292	1	!	-1	0	0	0
2024-06-11	12:07:17	12:14:09	410952	6.6.1	4_exp_EVA_AWA_CON	80	A	B	Rpleas_acq	Oppo	Rpleas	2pleas	acq_US_pleas_nomask	acq3_nomask	3	25	453	0	300	300	0	0	362	50	1	0	sonnig	vertrauen	träumen	besonnen	kreativ	genießen	sterben	versagen	töten	bange	krank	gemein	vergnügt	kuss	gesittet	anregung	gütig	engagiert	verbissen	krise	geizig	ausrottung	gierig	engstirnig	1	blank2r.bmp	0	1	+	0	1	blank2r.bmp	500	1	DHJF	500	1	blank2r.bmp	880	6	genießen	880	1	!	-1	1	!	-1	0	0	0	0	0	0
2024-06-11	12:07:17	12:14:11	413475	6.6.1	4_exp_EVA_AWA_CON	80	A	B	Rpleas_acq	Oppo	Rpleas	2pleas	acq_US_unple_nomask	acq3_nomask	3	26	453	0	300	300	0	0	541	50	0	0	sonnig	vertrauen	träumen	besonnen	kreativ	genießen	sterben	versagen	töten	bange	krank	gemein	vergnügt	kuss	gesittet	anregung	gütig	engagiert	verbissen	krise	geizig	ausrottung	gierig	engstirnig	1	blank2r.bmp	0	1	+	0	1	blank2r.bmp	500	1	CPLW	500	1	blank2r.bmp	880	5	krank	880	1	FEHLER	1734	1	!	1292	1	!	-1	0	0	0
2024-06-11	12:07:17	12:14:13	415744	6.6.1	4_exp_EVA_AWA_CON	80	A	B	Rpleas_acq	Oppo	Rpleas	2pleas	acq_US_unple_nomask	acq3_nomask	3	27	453	0	300	300	0	0	692	46	1	0	sonnig	vertrauen	träumen	besonnen	kreativ	genießen	sterben	versagen	töten	bange	krank	gemein	vergnügt	kuss	gesittet	anregung	gütig	engagiert	verbissen	krise	geizig	ausrottung	gierig	engstirnig	1	blank2r.bmp	0	1	+	0	1	blank2r.bmp	500	1	CPLW	500	1	blank2r.bmp	880	2	versagen	880	1	!	1293	1	!	-1	0	0	0	0	0	0
2024-06-11	12:07:17	12:14:16	418120	6.6.1	4_exp_EVA_AWA_CON	80	A	B	Rpleas_acq	Oppo	Rpleas	2pleas	acq_US_unple_nomask	acq3_nomask	3	28	453	0	300	300	0	0	596	46	1	0	sonnig	vertrauen	träumen	besonnen	kreativ	genießen	sterben	versagen	töten	bange	krank	gemein	vergnügt	kuss	gesittet	anregung	gütig	engagiert	verbissen	krise	geizig	ausrottung	gierig	engstirnig	1	blank2r.bmp	0	1	+	0	1	blank2r.bmp	500	1	CPLW	500	1	blank2r.bmp	880	4	bange	880	1	!	1293	1	!	-1	0	0	0	0	0	0
2024-06-11	12:07:17	12:14:18	420512	6.6.1	4_exp_EVA_AWA_CON	80	A	B	Rpleas_acq	Oppo	Rpleas	2pleas	acq_US_pleas_nomask	acq3_nomask	3	29	453	0	300	300	0	0	616	50	1	0	sonnig	vertrauen	träumen	besonnen	kreativ	genießen	sterben	versagen	töten	bange	krank	gemein	vergnügt	kuss	gesittet	anregung	gütig	engagiert	verbissen	krise	geizig	ausrottung	gierig	engstirnig	1	blank2r.bmp	0	1	+	0	1	blank2r.bmp	500	1	DHJF	500	1	blank2r.bmp	880	4	besonnen	880	1	!	1292	1	!	-1	0	0	0	0	0	0
2024-06-11	12:07:17	12:14:21	422952	6.6.1	4_exp_EVA_AWA_CON	80	A	B	Rpleas_acq	Oppo	Rpleas	2pleas	acq_US_pleas_nomask	acq3_nomask	3	30	453	0	300	300	0	0	665	50	1	0	sonnig	vertrauen	träumen	besonnen	kreativ	genießen	sterben	versagen	töten	bange	krank	gemein	vergnügt	kuss	gesittet	anregung	gütig	engagiert	verbissen	krise	geizig	ausrottung	gierig	engstirnig	1	blank2r.bmp	0	1	+	0	1	blank2r.bmp	500	1	DHJF	500	1	blank2r.bmp	880	1	sonnig	880	1	!	1292	1	!	-1	0	0	0	0	0	0
2024-06-11	12:07:17	12:14:23	425072	6.6.1	4_exp_EVA_AWA_CON	80	A	B	Rpleas_acq	Oppo	Rpleas	2pleas	acq_US_pleas_nomask	acq3_nomask	3	31	453	0	300	300	0	0	343	50	1	0	sonnig	vertrauen	träumen	besonnen	kreativ	genießen	sterben	versagen	töten	bange	krank	gemein	vergnügt	kuss	gesittet	anregung	gütig	engagiert	verbissen	krise	geizig	ausrottung	gierig	engstirnig	1	blank2r.bmp	0	1	+	0	1	blank2r.bmp	500	1	DHJF	500	1	blank2r.bmp	880	3	träumen	880	1	!	-1	1	!	-1	0	0	0	0	0	0
2024-06-11	12:07:17	12:14:25	427449	6.6.1	4_exp_EVA_AWA_CON	80	A	B	Rpleas_acq	Oppo	Rpleas	2pleas	acq_US_unple_nomask	acq3_nomask	3	32	453	1	300	300	0	0	398	50	0	0	sonnig	vertrauen	träumen	besonnen	kreativ	genießen	sterben	versagen	töten	bange	krank	gemein	vergnügt	kuss	gesittet	anregung	gütig	engagiert	verbissen	krise	geizig	ausrottung	gierig	engstirnig	1	blank2r.bmp	0	1	+	0	1	blank2r.bmp	500	1	CPLW	500	1	blank2r.bmp	880	3	töten	880	1	FEHLER	1589	1	!	1293	1	!	1297	0	0	0
2024-06-11	12:07:17	12:14:27	429667	6.6.1	4_exp_EVA_AWA_CON	80	A	B	Rpleas_acq	Oppo	Rpleas	2pleas	acq_US_pleas_nomask	acq3_nomask	3	33	453	1	300	300	0	0	442	46	0	0	sonnig	vertrauen	träumen	besonnen	kreativ	genießen	sterben	versagen	töten	bange	krank	gemein	vergnügt	kuss	gesittet	anregung	gütig	engagiert	verbissen	krise	geizig	ausrottung	gierig	engstirnig	1	blank2r.bmp	0	1	+	0	1	blank2r.bmp	500	1	DHJF	500	1	blank2r.bmp	880	2	vertrauen	880	1	FEHLER	1635	1	!	1292	1	!	1344	0	0	0
2024-06-11	12:07:17	12:14:30	431836	6.6.1	4_exp_EVA_AWA_CON	80	A	B	Rpleas_acq	Oppo	Rpleas	2pleas	acq_US_unple_nomask	acq3_nomask	3	34	453	0	300	300	0	0	389	50	0	0	sonnig	vertrauen	träumen	besonnen	kreativ	genießen	sterben	versagen	töten	bange	krank	gemein	vergnügt	kuss	gesittet	anregung	gütig	engagiert	verbissen	krise	geizig	ausrottung	gierig	engstirnig	1	blank2r.bmp	0	1	+	0	1	blank2r.bmp	500	1	CPLW	500	1	blank2r.bmp	880	6	gemein	880	1	FEHLER	1583	1	!	-1	1	!	-1	0	0	0
2024-06-11	12:07:17	12:14:32	433934	6.6.1	4_exp_EVA_AWA_CON	80	A	B	Rpleas_acq	Oppo	Rpleas	2pleas	acq_US_unple_nomask	acq3_nomask	3	35	453	0	300	300	0	0	532	46	1	0	sonnig	vertrauen	träumen	besonnen	kreativ	genießen	sterben	versagen	töten	bange	krank	gemein	vergnügt	kuss	gesittet	anregung	gütig	engagiert	verbissen	krise	geizig	ausrottung	gierig	engstirnig	1	blank2r.bmp	0	1	+	0	1	blank2r.bmp	500	1	CPLW	500	1	blank2r.bmp	880	1	sterben	880	1	!	1293	1	!	-1	0	0	0	0	0	0
2024-06-11	12:07:17	12:14:34	436218	6.6.1	4_exp_EVA_AWA_CON	80	A	B	Rpleas_acq	Oppo	Rpleas	2pleas	acq_US_pleas_nomask	acq3_nomask	3	36	453	1	300	300	0	0	500	50	1	0	sonnig	vertrauen	träumen	besonnen	kreativ	genießen	sterben	versagen	töten	bange	krank	gemein	vergnügt	kuss	gesittet	anregung	gütig	engagiert	verbissen	krise	geizig	ausrottung	gierig	engstirnig	1	blank2r.bmp	0	1	+	0	1	blank2r.bmp	500	1	DHJF	500	1	blank2r.bmp	880	5	kreativ	880	1	!	1292	1	!	1402	0	0	0	0	0	0
2024-06-11	12:07:17	12:14:49	451697	6.6.1	4_exp_EVA_AWA_CON	80	A	B	Rpleas_acq	Oppo	Rpleas	2pleas	acq_US_pleas_nomask	acq45_nomask	4	1	400	0	300	300	0	0	640	50	1	0	sonnig	vertrauen	träumen	besonnen	kreativ	genießen	sterben	versagen	töten	bange	krank	gemein	vergnügt	kuss	gesittet	anregung	gütig	engagiert	verbissen	krise	geizig	ausrottung	gierig	engstirnig	1	blank2r.bmp	0	1	+	0	1	blank2r.bmp	500	1	DHJF	500	1	blank2r.bmp	880	5	kreativ	880	1	!	1232	1	!	-1	0	0	0	0	0	0
2024-06-11	12:07:17	12:14:52	454280	6.6.1	4_exp_EVA_AWA_CON	80	A	B	Rpleas_acq	Oppo	Rpleas	2pleas	acq_US_unple_nomask	acq45_nomask	4	2	400	0	300	300	0	0	803	46	1	0	sonnig	vertrauen	träumen	besonnen	kreativ	genießen	sterben	versagen	töten	bange	krank	gemein	vergnügt	kuss	gesittet	anregung	gütig	engagiert	verbissen	krise	geizig	ausrottung	gierig	engstirnig	1	blank2r.bmp	0	1	+	0	1	blank2r.bmp	500	1	CPLW	500	1	blank2r.bmp	880	2	versagen	880	1	!	1232	1	!	-1	0	0	0	0	0	0
2024-06-11	12:07:17	12:14:54	456672	6.6.1	4_exp_EVA_AWA_CON	80	A	B	Rpleas_acq	Oppo	Rpleas	2pleas	acq_US_unple_nomask	acq45_nomask	4	3	400	0	300	300	0	0	613	46	1	0	sonnig	vertrauen	träumen	besonnen	kreativ	genießen	sterben	versagen	töten	bange	krank	gemein	vergnügt	kuss	gesittet	anregung	gütig	engagiert	verbissen	krise	geizig	ausrottung	gierig	engstirnig	1	blank2r.bmp	0	1	+	0	1	blank2r.bmp	500	1	CPLW	500	1	blank2r.bmp	880	1	sterben	880	1	!	1232	1	!	-1	0	0	0	0	0	0
2024-06-11	12:07:17	12:14:57	458874	6.6.1	4_exp_EVA_AWA_CON	80	A	B	Rpleas_acq	Oppo	Rpleas	2pleas	acq_US_unple_nomask	acq45_nomask	4	4	400	1	300	300	0	0	422	50	0	0	sonnig	vertrauen	träumen	besonnen	kreativ	genießen	sterben	versagen	töten	bange	krank	gemein	vergnügt	kuss	gesittet	anregung	gütig	engagiert	verbissen	krise	geizig	ausrottung	gierig	engstirnig	1	blank2r.bmp	0	1	+	0	1	blank2r.bmp	500	1	CPLW	500	1	blank2r.bmp	880	5	krank	880	1	!	1232	1	!	1323	0	0	0	0	0	0
2024-06-11	12:07:17	12:14:59	461058	6.6.1	4_exp_EVA_AWA_CON	80	A	B	Rpleas_acq	Oppo	Rpleas	2pleas	acq_US_unple_nomask	acq45_nomask	4	5	400	1	300	300	0	0	404	50	0	0	sonnig	vertrauen	träumen	besonnen	kreativ	genießen	sterben	versagen	töten	bange	krank	gemein	vergnügt	kuss	gesittet	anregung	gütig	engagiert	verbissen	krise	geizig	ausrottung	gierig	engstirnig	1	blank2r.bmp	0	1	+	0	1	blank2r.bmp	500	1	CPLW	500	1	blank2r.bmp	880	4	bange	880	1	!	1232	1	!	1305	0	0	0	0	0	0
2024-06-11	12:07:17	12:15:01	463336	6.6.1	4_exp_EVA_AWA_CON	80	A	B	Rpleas_acq	Oppo	Rpleas	2pleas	acq_US_unple_nomask	acq45_nomask	4	6	400	0	300	300	0	0	503	50	0	0	sonnig	vertrauen	träumen	besonnen	kreativ	genießen	sterben	versagen	töten	bange	krank	gemein	vergnügt	kuss	gesittet	anregung	gütig	engagiert	verbissen	krise	geizig	ausrottung	gierig	engstirnig	1	blank2r.bmp	0	1	+	0	1	blank2r.bmp	500	1	CPLW	500	1	blank2r.bmp	880	6	gemein	880	1	!	1233	1	!	-1	0	0	0	0	0	0
2024-06-11	12:07:17	12:15:03	465664	6.6.1	4_exp_EVA_AWA_CON	80	A	B	Rpleas_acq	Oppo	Rpleas	2pleas	acq_US_pleas_nomask	acq45_nomask	4	7	400	0	300	300	0	0	549	50	1	0	sonnig	vertrauen	träumen	besonnen	kreativ	genießen	sterben	versagen	töten	bange	krank	gemein	vergnügt	kuss	gesittet	anregung	gütig	engagiert	verbissen	krise	geizig	ausrottung	gierig	engstirnig	1	blank2r.bmp	0	1	+	0	1	blank2r.bmp	500	1	DHJF	500	1	blank2r.bmp	880	6	genießen	880	1	!	1232	1	!	-1	0	0	0	0	0	0
2024-06-11	12:07:17	12:15:06	467890	6.6.1	4_exp_EVA_AWA_CON	80	A	B	Rpleas_acq	Oppo	Rpleas	2pleas	acq_US_pleas_nomask	acq45_nomask	4	8	400	1	300	300	0	0	452	46	0	0	sonnig	vertrauen	träumen	besonnen	kreativ	genießen	sterben	versagen	töten	bange	krank	gemein	vergnügt	kuss	gesittet	anregung	gütig	engagiert	verbissen	krise	geizig	ausrottung	gierig	engstirnig	1	blank2r.bmp	0	1	+	0	1	blank2r.bmp	500	1	DHJF	500	1	blank2r.bmp	880	3	träumen	880	1	!	1232	1	!	1353	0	0	0	0	0	0
2024-06-11	12:07:17	12:15:08	470329	6.6.1	4_exp_EVA_AWA_CON	80	A	B	Rpleas_acq	Oppo	Rpleas	2pleas	acq_US_pleas_nomask	acq45_nomask	4	9	400	0	300	300	0	0	661	50	1	0	sonnig	vertrauen	träumen	besonnen	kreativ	genießen	sterben	versagen	töten	bange	krank	gemein	vergnügt	kuss	gesittet	anregung	gütig	engagiert	verbissen	krise	geizig	ausrottung	gierig	engstirnig	1	blank2r.bmp	0	1	+	0	1	blank2r.bmp	500	1	DHJF	500	1	blank2r.bmp	880	1	sonnig	880	1	!	1232	1	!	-1	0	0	0	0	0	0
2024-06-11	12:07:17	12:15:11	472896	6.6.1	4_exp_EVA_AWA_CON	80	A	B	Rpleas_acq	Oppo	Rpleas	2pleas	acq_US_unple_nomask	acq45_nomask	4	10	400	0	300	300	0	0	787	46	1	0	sonnig	vertrauen	träumen	besonnen	kreativ	genießen	sterben	versagen	töten	bange	krank	gemein	vergnügt	kuss	gesittet	anregung	gütig	engagiert	verbissen	krise	geizig	ausrottung	gierig	engstirnig	1	blank2r.bmp	0	1	+	0	1	blank2r.bmp	500	1	CPLW	500	1	blank2r.bmp	880	3	töten	880	1	!	1232	1	!	-1	0	0	0	0	0	0
2024-06-11	12:07:17	12:15:13	475344	6.6.1	4_exp_EVA_AWA_CON	80	A	B	Rpleas_acq	Oppo	Rpleas	2pleas	acq_US_pleas_nomask	acq45_nomask	4	11	400	0	300	300	0	0	673	50	1	0	sonnig	vertrauen	träumen	besonnen	kreativ	genießen	sterben	versagen	töten	bange	krank	gemein	vergnügt	kuss	gesittet	anregung	gütig	engagiert	verbissen	krise	geizig	ausrottung	gierig	engstirnig	1	blank2r.bmp	0	1	+	0	1	blank2r.bmp	500	1	DHJF	500	1	blank2r.bmp	880	2	vertrauen	880	1	!	1232	1	!	-1	0	0	0	0	0	0
2024-06-11	12:07:17	12:15:15	477704	6.6.1	4_exp_EVA_AWA_CON	80	A	B	Rpleas_acq	Oppo	Rpleas	2pleas	acq_US_pleas_nomask	acq45_nomask	4	12	400	0	300	300	0	0	582	50	1	0	sonnig	vertrauen	träumen	besonnen	kreativ	genießen	sterben	versagen	töten	bange	krank	gemein	vergnügt	kuss	gesittet	anregung	gütig	engagiert	verbissen	krise	geizig	ausrottung	gierig	engstirnig	1	blank2r.bmp	0	1	+	0	1	blank2r.bmp	500	1	DHJF	500	1	blank2r.bmp	880	4	besonnen	880	1	!	1232	1	!	-1	0	0	0	0	0	0
2024-06-11	12:07:17	12:15:18	479882	6.6.1	4_exp_EVA_AWA_CON	80	A	B	Rpleas_acq	Oppo	Rpleas	2pleas	acq_US_unple_nomask	acq45_nomask	4	13	400	1	300	300	0	0	396	50	0	0	sonnig	vertrauen	träumen	besonnen	kreativ	genießen	sterben	versagen	töten	bange	krank	gemein	vergnügt	kuss	gesittet	anregung	gütig	engagiert	verbissen	krise	geizig	ausrottung	gierig	engstirnig	1	blank2r.bmp	0	1	+	0	1	blank2r.bmp	500	1	CPLW	500	1	blank2r.bmp	880	2	versagen	880	1	!	1233	1	!	1297	0	0	0	0	0	0
2024-06-11	12:07:17	12:15:20	482098	6.6.1	4_exp_EVA_AWA_CON	80	A	B	Rpleas_acq	Oppo	Rpleas	2pleas	acq_US_unple_nomask	acq45_nomask	4	14	400	1	300	300	0	0	441	50	0	0	sonnig	vertrauen	träumen	besonnen	kreativ	genießen	sterben	versagen	töten	bange	krank	gemein	vergnügt	kuss	gesittet	anregung	gütig	engagiert	verbissen	krise	geizig	ausrottung	gierig	engstirnig	1	blank2r.bmp	0	1	+	0	1	blank2r.bmp	500	1	CPLW	500	1	blank2r.bmp	880	5	krank	880	1	!	1232	1	!	1342	0	0	0	0	0	0
2024-06-11	12:07:17	12:15:22	484346	6.6.1	4_exp_EVA_AWA_CON	80	A	B	Rpleas_acq	Oppo	Rpleas	2pleas	acq_US_pleas_nomask	acq45_nomask	4	15	400	1	300	300	0	0	467	46	0	0	sonnig	vertrauen	träumen	besonnen	kreativ	genießen	sterben	versagen	töten	bange	krank	gemein	vergnügt	kuss	gesittet	anregung	gütig	engagiert	verbissen	krise	geizig	ausrottung	gierig	engstirnig	1	blank2r.bmp	0	1	+	0	1	blank2r.bmp	500	1	DHJF	500	1	blank2r.bmp	880	2	vertrauen	880	1	!	1232	1	!	1368	0	0	0	0	0	0
2024-06-11	12:07:17	12:15:24	486656	6.6.1	4_exp_EVA_AWA_CON	80	A	B	Rpleas_acq	Oppo	Rpleas	2pleas	acq_US_pleas_nomask	acq45_nomask	4	16	400	0	300	300	0	0	538	50	1	0	sonnig	vertrauen	träumen	besonnen	kreativ	genießen	sterben	versagen	töten	bange	krank	gemein	vergnügt	kuss	gesittet	anregung	gütig	engagiert	verbissen	krise	geizig	ausrottung	gierig	engstirnig	1	blank2r.bmp	0	1	+	0	1	blank2r.bmp	500	1	DHJF	500	1	blank2r.bmp	880	6	genießen	880	1	!	1232	1	!	-1	0	0	0	0	0	0
2024-06-11	12:07:17	12:15:27	488944	6.6.1	4_exp_EVA_AWA_CON	80	A	B	Rpleas_acq	Oppo	Rpleas	2pleas	acq_US_pleas_nomask	acq45_nomask	4	17	400	0	300	300	0	0	514	50	1	0	sonnig	vertrauen	träumen	besonnen	kreativ	genießen	sterben	versagen	töten	bange	krank	gemein	vergnügt	kuss	gesittet	anregung	gütig	engagiert	verbissen	krise	geizig	ausrottung	gierig	engstirnig	1	blank2r.bmp	0	1	+	0	1	blank2r.bmp	500	1	DHJF	500	1	blank2r.bmp	880	4	besonnen	880	1	!	1232	1	!	-1	0	0	0	0	0	0
2024-06-11	12:07:17	12:15:29	491170	6.6.1	4_exp_EVA_AWA_CON	80	A	B	Rpleas_acq	Oppo	Rpleas	2pleas	acq_US_unple_nomask	acq45_nomask	4	18	400	1	300	300	0	0	447	50	0	0	sonnig	vertrauen	träumen	besonnen	kreativ	genießen	sterben	versagen	töten	bange	krank	gemein	vergnügt	kuss	gesittet	anregung	gütig	engagiert	verbissen	krise	geizig	ausrottung	gierig	engstirnig	1	blank2r.bmp	0	1	+	0	1	blank2r.bmp	500	1	CPLW	500	1	blank2r.bmp	880	6	gemein	880	1	!	1232	1	!	1348	0	0	0	0	0	0
2024-06-11	12:07:17	12:15:31	493394	6.6.1	4_exp_EVA_AWA_CON	80	A	B	Rpleas_acq	Oppo	Rpleas	2pleas	acq_US_pleas_nomask	acq45_nomask	4	19	400	1	300	300	0	0	449	50	1	0	sonnig	vertrauen	träumen	besonnen	kreativ	genießen	sterben	versagen	töten	bange	krank	gemein	vergnügt	kuss	gesittet	anregung	gütig	engagiert	verbissen	krise	geizig	ausrottung	gierig	engstirnig	1	blank2r.bmp	0	1	+	0	1	blank2r.bmp	500	1	DHJF	500	1	blank2r.bmp	880	1	sonnig	880	1	!	1232	1	!	1350	0	0	0	0	0	0
2024-06-11	12:07:17	12:15:33	495634	6.6.1	4_exp_EVA_AWA_CON	80	A	B	Rpleas_acq	Oppo	Rpleas	2pleas	acq_US_pleas_nomask	acq45_nomask	4	20	400	1	300	300	0	0	458	46	0	0	sonnig	vertrauen	träumen	besonnen	kreativ	genießen	sterben	versagen	töten	bange	krank	gemein	vergnügt	kuss	gesittet	anregung	gütig	engagiert	verbissen	krise	geizig	ausrottung	gierig	engstirnig	1	blank2r.bmp	0	1	+	0	1	blank2r.bmp	500	1	DHJF	500	1	blank2r.bmp	880	3	träumen	880	1	!	1232	1	!	1359	0	0	0	0	0	0
2024-06-11	12:07:17	12:15:35	497762	6.6.1	4_exp_EVA_AWA_CON	80	A	B	Rpleas_acq	Oppo	Rpleas	2pleas	acq_US_pleas_nomask	acq45_nomask	4	21	400	1	300	300	0	0	345	50	1	0	sonnig	vertrauen	träumen	besonnen	kreativ	genießen	sterben	versagen	töten	bange	krank	gemein	vergnügt	kuss	gesittet	anregung	gütig	engagiert	verbissen	krise	geizig	ausrottung	gierig	engstirnig	1	blank2r.bmp	0	1	+	0	1	blank2r.bmp	500	1	DHJF	500	1	blank2r.bmp	880	5	kreativ	880	1	!	1233	1	!	1246	0	0	0	0	0	0
2024-06-11	12:07:17	12:15:38	500152	6.6.1	4_exp_EVA_AWA_CON	80	A	B	Rpleas_acq	Oppo	Rpleas	2pleas	acq_US_unple_nomask	acq45_nomask	4	22	400	0	300	300	0	0	615	46	1	0	sonnig	vertrauen	träumen	besonnen	kreativ	genießen	sterben	versagen	töten	bange	krank	gemein	vergnügt	kuss	gesittet	anregung	gütig	engagiert	verbissen	krise	geizig	ausrottung	gierig	engstirnig	1	blank2r.bmp	0	1	+	0	1	blank2r.bmp	500	1	CPLW	500	1	blank2r.bmp	880	3	töten	880	1	!	1232	1	!	-1	0	0	0	0	0	0
2024-06-11	12:07:17	12:15:40	502769	6.6.1	4_exp_EVA_AWA_CON	80	A	B	Rpleas_acq	Oppo	Rpleas	2pleas	acq_US_unple_nomask	acq45_nomask	4	23	400	0	300	300	0	0	840	46	1	0	sonnig	vertrauen	träumen	besonnen	kreativ	genießen	sterben	versagen	töten	bange	krank	gemein	vergnügt	kuss	gesittet	anregung	gütig	engagiert	verbissen	krise	geizig	ausrottung	gierig	engstirnig	1	blank2r.bmp	0	1	+	0	1	blank2r.bmp	500	1	CPLW	500	1	blank2r.bmp	880	1	sterben	880	1	!	1232	1	!	-1	0	0	0	0	0	0
2024-06-11	12:07:17	12:15:43	505176	6.6.1	4_exp_EVA_AWA_CON	80	A	B	Rpleas_acq	Oppo	Rpleas	2pleas	acq_US_unple_nomask	acq45_nomask	4	24	400	0	300	300	0	0	626	50	0	0	sonnig	vertrauen	träumen	besonnen	kreativ	genießen	sterben	versagen	töten	bange	krank	gemein	vergnügt	kuss	gesittet	anregung	gütig	engagiert	verbissen	krise	geizig	ausrottung	gierig	engstirnig	1	blank2r.bmp	0	1	+	0	1	blank2r.bmp	500	1	CPLW	500	1	blank2r.bmp	880	4	bange	880	1	!	1232	1	!	-1	0	0	0	0	0	0
2024-06-11	12:07:17	12:15:45	507473	6.6.1	4_exp_EVA_AWA_CON	80	A	B	Rpleas_acq	Oppo	Rpleas	2pleas	acq_US_pleas_nomask	acq45_nomask	4	25	400	0	300	300	0	0	521	50	1	0	sonnig	vertrauen	träumen	besonnen	kreativ	genießen	sterben	versagen	töten	bange	krank	gemein	vergnügt	kuss	gesittet	anregung	gütig	engagiert	verbissen	krise	geizig	ausrottung	gierig	engstirnig	1	blank2r.bmp	0	1	+	0	1	blank2r.bmp	500	1	DHJF	500	1	blank2r.bmp	880	4	besonnen	880	1	!	1232	1	!	-1	0	0	0	0	0	0
2024-06-11	12:07:17	12:15:47	509682	6.6.1	4_exp_EVA_AWA_CON	80	A	B	Rpleas_acq	Oppo	Rpleas	2pleas	acq_US_pleas_nomask	acq45_nomask	4	26	400	1	300	300	0	0	427	50	1	0	sonnig	vertrauen	träumen	besonnen	kreativ	genießen	sterben	versagen	töten	bange	krank	gemein	vergnügt	kuss	gesittet	anregung	gütig	engagiert	verbissen	krise	geizig	ausrottung	gierig	engstirnig	1	blank2r.bmp	0	1	+	0	1	blank2r.bmp	500	1	DHJF	500	1	blank2r.bmp	880	5	kreativ	880	1	!	1232	1	!	1328	0	0	0	0	0	0
2024-06-11	12:07:17	12:15:50	511914	6.6.1	4_exp_EVA_AWA_CON	80	A	B	Rpleas_acq	Oppo	Rpleas	2pleas	acq_US_pleas_nomask	acq45_nomask	4	27	400	1	300	300	0	0	458	50	1	0	sonnig	vertrauen	träumen	besonnen	kreativ	genießen	sterben	versagen	töten	bange	krank	gemein	vergnügt	kuss	gesittet	anregung	gütig	engagiert	verbissen	krise	geizig	ausrottung	gierig	engstirnig	1	blank2r.bmp	0	1	+	0	1	blank2r.bmp	500	1	DHJF	500	1	blank2r.bmp	880	1	sonnig	880	1	!	1232	1	!	1359	0	0	0	0	0	0
2024-06-11	12:07:17	12:15:52	514208	6.6.1	4_exp_EVA_AWA_CON	80	A	B	Rpleas_acq	Oppo	Rpleas	2pleas	acq_US_unple_nomask	acq45_nomask	4	28	400	0	300	300	0	0	512	50	0	0	sonnig	vertrauen	träumen	besonnen	kreativ	genießen	sterben	versagen	töten	bange	krank	gemein	vergnügt	kuss	gesittet	anregung	gütig	engagiert	verbissen	krise	geizig	ausrottung	gierig	engstirnig	1	blank2r.bmp	0	1	+	0	1	blank2r.bmp	500	1	CPLW	500	1	blank2r.bmp	880	6	gemein	880	1	!	1233	1	!	-1	0	0	0	0	0	0
2024-06-11	12:07:17	12:15:54	516462	6.6.1	4_exp_EVA_AWA_CON	80	A	B	Rpleas_acq	Oppo	Rpleas	2pleas	acq_US_pleas_nomask	acq45_nomask	4	29	400	0	300	300	0	0	477	50	1	0	sonnig	vertrauen	träumen	besonnen	kreativ	genießen	sterben	versagen	töten	bange	krank	gemein	vergnügt	kuss	gesittet	anregung	gütig	engagiert	verbissen	krise	geizig	ausrottung	gierig	engstirnig	1	blank2r.bmp	0	1	+	0	1	blank2r.bmp	500	1	DHJF	500	1	blank2r.bmp	880	3	träumen	880	1	!	1232	1	!	-1	0	0	0	0	0	0
2024-06-11	12:07:17	12:15:56	518816	6.6.1	4_exp_EVA_AWA_CON	80	A	B	Rpleas_acq	Oppo	Rpleas	2pleas	acq_US_pleas_nomask	acq45_nomask	4	30	400	0	300	300	0	0	577	50	1	0	sonnig	vertrauen	träumen	besonnen	kreativ	genießen	sterben	versagen	töten	bange	krank	gemein	vergnügt	kuss	gesittet	anregung	gütig	engagiert	verbissen	krise	geizig	ausrottung	gierig	engstirnig	1	blank2r.bmp	0	1	+	0	1	blank2r.bmp	500	1	DHJF	500	1	blank2r.bmp	880	6	genießen	880	1	!	1232	1	!	-1	0	0	0	0	0	0
2024-06-11	12:07:17	12:15:59	521184	6.6.1	4_exp_EVA_AWA_CON	80	A	B	Rpleas_acq	Oppo	Rpleas	2pleas	acq_US_unple_nomask	acq45_nomask	4	31	400	0	300	300	0	0	594	46	1	0	sonnig	vertrauen	träumen	besonnen	kreativ	genießen	sterben	versagen	töten	bange	krank	gemein	vergnügt	kuss	gesittet	anregung	gütig	engagiert	verbissen	krise	geizig	ausrottung	gierig	engstirnig	1	blank2r.bmp	0	1	+	0	1	blank2r.bmp	500	1	CPLW	500	1	blank2r.bmp	880	1	sterben	880	1	!	1232	1	!	-1	0	0	0	0	0	0
2024-06-11	12:07:17	12:16:01	523544	6.6.1	4_exp_EVA_AWA_CON	80	A	B	Rpleas_acq	Oppo	Rpleas	2pleas	acq_US_pleas_nomask	acq45_nomask	4	32	400	0	300	300	0	0	582	50	1	0	sonnig	vertrauen	träumen	besonnen	kreativ	genießen	sterben	versagen	töten	bange	krank	gemein	vergnügt	kuss	gesittet	anregung	gütig	engagiert	verbissen	krise	geizig	ausrottung	gierig	engstirnig	1	blank2r.bmp	0	1	+	0	1	blank2r.bmp	500	1	DHJF	500	1	blank2r.bmp	880	2	vertrauen	880	1	!	1232	1	!	-1	0	0	0	0	0	0
2024-06-11	12:07:17	12:16:04	526000	6.6.1	4_exp_EVA_AWA_CON	80	A	B	Rpleas_acq	Oppo	Rpleas	2pleas	acq_US_unple_nomask	acq45_nomask	4	33	400	0	300	300	0	0	677	46	1	0	sonnig	vertrauen	träumen	besonnen	kreativ	genießen	sterben	versagen	töten	bange	krank	gemein	vergnügt	kuss	gesittet	anregung	gütig	engagiert	verbissen	krise	geizig	ausrottung	gierig	engstirnig	1	blank2r.bmp	0	1	+	0	1	blank2r.bmp	500	1	CPLW	500	1	blank2r.bmp	880	5	krank	880	1	!	1232	1	!	-1	0	0	0	0	0	0
2024-06-11	12:07:17	12:16:06	528328	6.6.1	4_exp_EVA_AWA_CON	80	A	B	Rpleas_acq	Oppo	Rpleas	2pleas	acq_US_unple_nomask	acq45_nomask	4	34	400	0	300	300	0	0	553	46	1	0	sonnig	vertrauen	träumen	besonnen	kreativ	genießen	sterben	versagen	töten	bange	krank	gemein	vergnügt	kuss	gesittet	anregung	gütig	engagiert	verbissen	krise	geizig	ausrottung	gierig	engstirnig	1	blank2r.bmp	0	1	+	0	1	blank2r.bmp	500	1	CPLW	500	1	blank2r.bmp	880	3	töten	880	1	!	1232	1	!	-1	0	0	0	0	0	0
2024-06-11	12:07:17	12:16:08	530688	6.6.1	4_exp_EVA_AWA_CON	80	A	B	Rpleas_acq	Oppo	Rpleas	2pleas	acq_US_unple_nomask	acq45_nomask	4	35	400	0	300	300	0	0	582	50	0	0	sonnig	vertrauen	träumen	besonnen	kreativ	genießen	sterben	versagen	töten	bange	krank	gemein	vergnügt	kuss	gesittet	anregung	gütig	engagiert	verbissen	krise	geizig	ausrottung	gierig	engstirnig	1	blank2r.bmp	0	1	+	0	1	blank2r.bmp	500	1	CPLW	500	1	blank2r.bmp	880	2	versagen	880	1	!	1232	1	!	-1	0	0	0	0	0	0
2024-06-11	12:07:17	12:16:11	532881	6.6.1	4_exp_EVA_AWA_CON	80	A	B	Rpleas_acq	Oppo	Rpleas	2pleas	acq_US_unple_nomask	acq45_nomask	4	36	400	1	300	300	0	0	412	50	0	0	sonnig	vertrauen	träumen	besonnen	kreativ	genießen	sterben	versagen	töten	bange	krank	gemein	vergnügt	kuss	gesittet	anregung	gütig	engagiert	verbissen	krise	geizig	ausrottung	gierig	engstirnig	1	blank2r.bmp	0	1	+	0	1	blank2r.bmp	500	1	CPLW	500	1	blank2r.bmp	880	4	bange	880	1	!	1233	1	!	1313	0	0	0	0	0	0
2024-06-11	12:07:17	12:16:28	550352	6.6.1	4_exp_EVA_AWA_CON	80	A	B	Rpleas_acq	Oppo	Rpleas	2pleas	acq_US_pleas_nomask	acq45_nomask	5	1	400	0	300	300	0	0	683	50	1	0	sonnig	vertrauen	träumen	besonnen	kreativ	genießen	sterben	versagen	töten	bange	krank	gemein	vergnügt	kuss	gesittet	anregung	gütig	engagiert	verbissen	krise	geizig	ausrottung	gierig	engstirnig	1	blank2r.bmp	0	1	+	0	1	blank2r.bmp	500	1	DHJF	500	1	blank2r.bmp	880	6	genießen	880	1	!	1232	1	!	-1	0	0	0	0	0	0
2024-06-11	12:07:17	12:16:30	552594	6.6.1	4_exp_EVA_AWA_CON	80	A	B	Rpleas_acq	Oppo	Rpleas	2pleas	acq_US_unple_nomask	acq45_nomask	5	2	400	1	300	300	0	0	461	46	1	0	sonnig	vertrauen	träumen	besonnen	kreativ	genießen	sterben	versagen	töten	bange	krank	gemein	vergnügt	kuss	gesittet	anregung	gütig	engagiert	verbissen	krise	geizig	ausrottung	gierig	engstirnig	1	blank2r.bmp	0	1	+	0	1	blank2r.bmp	500	1	CPLW	500	1	blank2r.bmp	880	4	bange	880	1	!	1232	1	!	1363	0	0	0	0	0	0
2024-06-11	12:07:17	12:16:32	554730	6.6.1	4_exp_EVA_AWA_CON	80	A	B	Rpleas_acq	Oppo	Rpleas	2pleas	acq_US_pleas_nomask	acq45_nomask	5	3	400	1	300	300	0	0	356	50	1	0	sonnig	vertrauen	träumen	besonnen	kreativ	genießen	sterben	versagen	töten	bange	krank	gemein	vergnügt	kuss	gesittet	anregung	gütig	engagiert	verbissen	krise	geizig	ausrottung	gierig	engstirnig	1	blank2r.bmp	0	1	+	0	1	blank2r.bmp	500	1	DHJF	500	1	blank2r.bmp	880	3	träumen	880	1	!	1233	1	!	1257	0	0	0	0	0	0
2024-06-11	12:07:17	12:16:35	557025	6.6.1	4_exp_EVA_AWA_CON	80	A	B	Rpleas_acq	Oppo	Rpleas	2pleas	acq_US_unple_nomask	acq45_nomask	5	4	400	0	300	300	0	0	521	50	0	0	sonnig	vertrauen	träumen	besonnen	kreativ	genießen	sterben	versagen	töten	bange	krank	gemein	vergnügt	kuss	gesittet	anregung	gütig	engagiert	verbissen	krise	geizig	ausrottung	gierig	engstirnig	1	blank2r.bmp	0	1	+	0	1	blank2r.bmp	500	1	CPLW	500	1	blank2r.bmp	880	1	sterben	880	1	!	1232	1	!	-1	0	0	0	0	0	0
2024-06-11	12:07:17	12:16:37	559456	6.6.1	4_exp_EVA_AWA_CON	80	A	B	Rpleas_acq	Oppo	Rpleas	2pleas	acq_US_unple_nomask	acq45_nomask	5	5	400	0	300	300	0	0	651	50	0	0	sonnig	vertrauen	träumen	besonnen	kreativ	genießen	sterben	versagen	töten	bange	krank	gemein	vergnügt	kuss	gesittet	anregung	gütig	engagiert	verbissen	krise	geizig	ausrottung	gierig	engstirnig	1	blank2r.bmp	0	1	+	0	1	blank2r.bmp	500	1	CPLW	500	1	blank2r.bmp	880	2	versagen	880	1	!	1232	1	!	-1	0	0	0	0	0	0
2024-06-11	12:07:17	12:16:39	561744	6.6.1	4_exp_EVA_AWA_CON	80	A	B	Rpleas_acq	Oppo	Rpleas	2pleas	acq_US_pleas_nomask	acq45_nomask	5	6	400	0	300	300	0	0	508	50	1	0	sonnig	vertrauen	träumen	besonnen	kreativ	genießen	sterben	versagen	töten	bange	krank	gemein	vergnügt	kuss	gesittet	anregung	gütig	engagiert	verbissen	krise	geizig	ausrottung	gierig	engstirnig	1	blank2r.bmp	0	1	+	0	1	blank2r.bmp	500	1	DHJF	500	1	blank2r.bmp	880	5	kreativ	880	1	!	1232	1	!	-1	0	0	0	0	0	0
2024-06-11	12:07:17	12:16:42	564209	6.6.1	4_exp_EVA_AWA_CON	80	A	B	Rpleas_acq	Oppo	Rpleas	2pleas	acq_US_pleas_nomask	acq45_nomask	5	7	400	0	300	300	0	0	690	50	1	0	sonnig	vertrauen	träumen	besonnen	kreativ	genießen	sterben	versagen	töten	bange	krank	gemein	vergnügt	kuss	gesittet	anregung	gütig	engagiert	verbissen	krise	geizig	ausrottung	gierig	engstirnig	1	blank2r.bmp	0	1	+	0	1	blank2r.bmp	500	1	DHJF	500	1	blank2r.bmp	880	2	vertrauen	880	1	!	1233	1	!	-1	0	0	0	0	0	0
2024-06-11	12:07:17	12:16:44	566426	6.6.1	4_exp_EVA_AWA_CON	80	A	B	Rpleas_acq	Oppo	Rpleas	2pleas	acq_US_pleas_nomask	acq45_nomask	5	8	400	1	300	300	0	0	435	50	1	0	sonnig	vertrauen	träumen	besonnen	kreativ	genießen	sterben	versagen	töten	bange	krank	gemein	vergnügt	kuss	gesittet	anregung	gütig	engagiert	verbissen	krise	geizig	ausrottung	gierig	engstirnig	1	blank2r.bmp	0	1	+	0	1	blank2r.bmp	500	1	DHJF	500	1	blank2r.bmp	880	1	sonnig	880	1	!	1232	1	!	1336	0	0	0	0	0	0
2024-06-11	12:07:17	12:16:46	568626	6.6.1	4_exp_EVA_AWA_CON	80	A	B	Rpleas_acq	Oppo	Rpleas	2pleas	acq_US_pleas_nomask	acq45_nomask	5	9	400	1	300	300	0	0	423	50	1	0	sonnig	vertrauen	träumen	besonnen	kreativ	genießen	sterben	versagen	töten	bange	krank	gemein	vergnügt	kuss	gesittet	anregung	gütig	engagiert	verbissen	krise	geizig	ausrottung	gierig	engstirnig	1	blank2r.bmp	0	1	+	0	1	blank2r.bmp	500	1	DHJF	500	1	blank2r.bmp	880	4	besonnen	880	1	!	1233	1	!	1324	0	0	0	0	0	0
2024-06-11	12:07:17	12:16:48	570810	6.6.1	4_exp_EVA_AWA_CON	80	A	B	Rpleas_acq	Oppo	Rpleas	2pleas	acq_US_unple_nomask	acq45_nomask	5	10	400	1	300	300	0	0	406	46	1	0	sonnig	vertrauen	träumen	besonnen	kreativ	genießen	sterben	versagen	töten	bange	krank	gemein	vergnügt	kuss	gesittet	anregung	gütig	engagiert	verbissen	krise	geizig	ausrottung	gierig	engstirnig	1	blank2r.bmp	0	1	+	0	1	blank2r.bmp	500	1	CPLW	500	1	blank2r.bmp	880	6	gemein	880	1	!	1233	1	!	1307	0	0	0	0	0	0
2024-06-11	12:07:17	12:16:51	572896	6.6.1	4_exp_EVA_AWA_CON	80	A	B	Rpleas_acq	Oppo	Rpleas	2pleas	acq_US_unple_nomask	acq45_nomask	5	11	400	0	300	300	0	0	312	50	0	0	sonnig	vertrauen	träumen	besonnen	kreativ	genießen	sterben	versagen	töten	bange	krank	gemein	vergnügt	kuss	gesittet	anregung	gütig	engagiert	verbissen	krise	geizig	ausrottung	gierig	engstirnig	1	blank2r.bmp	0	1	+	0	1	blank2r.bmp	500	1	CPLW	500	1	blank2r.bmp	880	5	krank	880	1	!	-1	1	!	-1	0	0	0	0	0	0
2024-06-11	12:07:17	12:16:53	574960	6.6.1	4_exp_EVA_AWA_CON	80	A	B	Rpleas_acq	Oppo	Rpleas	2pleas	acq_US_unple_nomask	acq45_nomask	5	12	400	0	300	300	0	0	285	50	0	0	sonnig	vertrauen	träumen	besonnen	kreativ	genießen	sterben	versagen	töten	bange	krank	gemein	vergnügt	kuss	gesittet	anregung	gütig	engagiert	verbissen	krise	geizig	ausrottung	gierig	engstirnig	1	blank2r.bmp	0	1	+	0	1	blank2r.bmp	500	1	CPLW	500	1	blank2r.bmp	880	3	töten	880	1	!	-1	1	!	-1	0	0	0	0	0	0
2024-06-11	12:07:17	12:16:55	577130	6.6.1	4_exp_EVA_AWA_CON	80	A	B	Rpleas_acq	Oppo	Rpleas	2pleas	acq_US_unple_nomask	acq45_nomask	5	13	400	1	300	300	0	0	392	46	1	0	sonnig	vertrauen	träumen	besonnen	kreativ	genießen	sterben	versagen	töten	bange	krank	gemein	vergnügt	kuss	gesittet	anregung	gütig	engagiert	verbissen	krise	geizig	ausrottung	gierig	engstirnig	1	blank2r.bmp	0	1	+	0	1	blank2r.bmp	500	1	CPLW	500	1	blank2r.bmp	880	3	töten	880	1	!	1232	1	!	1293	0	0	0	0	0	0
2024-06-11	12:07:17	12:16:57	579529	6.6.1	4_exp_EVA_AWA_CON	80	A	B	Rpleas_acq	Oppo	Rpleas	2pleas	acq_US_pleas_nomask	acq45_nomask	5	14	400	0	300	300	0	0	620	50	1	0	sonnig	vertrauen	träumen	besonnen	kreativ	genießen	sterben	versagen	töten	bange	krank	gemein	vergnügt	kuss	gesittet	anregung	gütig	engagiert	verbissen	krise	geizig	ausrottung	gierig	engstirnig	1	blank2r.bmp	0	1	+	0	1	blank2r.bmp	500	1	DHJF	500	1	blank2r.bmp	880	3	träumen	880	1	!	1232	1	!	-1	0	0	0	0	0	0
2024-06-11	12:07:17	12:17:01	583128	6.6.1	4_exp_EVA_AWA_CON	80	A	B	Rpleas_acq	Oppo	Rpleas	2pleas	acq_US_unple_nomask	acq45_nomask	5	15	400	0	300	300	0	0	1819	46	1	0	sonnig	vertrauen	träumen	besonnen	kreativ	genießen	sterben	versagen	töten	bange	krank	gemein	vergnügt	kuss	gesittet	anregung	gütig	engagiert	verbissen	krise	geizig	ausrottung	gierig	engstirnig	1	blank2r.bmp	0	1	+	0	1	blank2r.bmp	500	1	CPLW	500	1	blank2r.bmp	880	6	gemein	880	1	!	1232	1	!	-1	0	0	0	0	0	0
2024-06-11	12:07:17	12:17:03	585338	6.6.1	4_exp_EVA_AWA_CON	80	A	B	Rpleas_acq	Oppo	Rpleas	2pleas	acq_US_unple_nomask	acq45_nomask	5	16	400	1	300	300	0	0	435	50	0	0	sonnig	vertrauen	träumen	besonnen	kreativ	genießen	sterben	versagen	töten	bange	krank	gemein	vergnügt	kuss	gesittet	anregung	gütig	engagiert	verbissen	krise	geizig	ausrottung	gierig	engstirnig	1	blank2r.bmp	0	1	+	0	1	blank2r.bmp	500	1	CPLW	500	1	blank2r.bmp	880	5	krank	880	1	!	1232	1	!	1336	0	0	0	0	0	0
2024-06-11	12:07:17	12:17:05	587352	6.6.1	4_exp_EVA_AWA_CON	80	A	B	Rpleas_acq	Oppo	Rpleas	2pleas	acq_US_pleas_nomask	acq45_nomask	5	17	400	0	300	300	0	0	239	50	1	0	sonnig	vertrauen	träumen	besonnen	kreativ	genießen	sterben	versagen	töten	bange	krank	gemein	vergnügt	kuss	gesittet	anregung	gütig	engagiert	verbissen	krise	geizig	ausrottung	gierig	engstirnig	1	blank2r.bmp	0	1	+	0	1	blank2r.bmp	500	1	DHJF	500	1	blank2r.bmp	880	1	sonnig	880	1	!	-1	1	!	-1	0	0	0	0	0	0
2024-06-11	12:07:17	12:17:08	590168	6.6.1	4_exp_EVA_AWA_CON	80	A	B	Rpleas_acq	Oppo	Rpleas	2pleas	acq_US_pleas_nomask	acq45_nomask	5	18	400	0	300	300	0	0	1034	50	1	0	sonnig	vertrauen	träumen	besonnen	kreativ	genießen	sterben	versagen	töten	bange	krank	gemein	vergnügt	kuss	gesittet	anregung	gütig	engagiert	verbissen	krise	geizig	ausrottung	gierig	engstirnig	1	blank2r.bmp	0	1	+	0	1	blank2r.bmp	500	1	DHJF	500	1	blank2r.bmp	880	6	genießen	880	1	!	1233	1	!	-1	0	0	0	0	0	0
2024-06-11	12:07:17	12:17:11	593704	6.6.1	4_exp_EVA_AWA_CON	80	A	B	Rpleas_acq	Oppo	Rpleas	2pleas	acq_US_pleas_nomask	acq45_nomask	5	19	400	0	300	300	0	0	1758	50	1	0	sonnig	vertrauen	träumen	besonnen	kreativ	genießen	sterben	versagen	töten	bange	krank	gemein	vergnügt	kuss	gesittet	anregung	gütig	engagiert	verbissen	krise	geizig	ausrottung	gierig	engstirnig	1	blank2r.bmp	0	1	+	0	1	blank2r.bmp	500	1	DHJF	500	1	blank2r.bmp	880	4	besonnen	880	1	!	1232	1	!	-1	0	0	0	0	0	0
2024-06-11	12:07:17	12:17:14	596088	6.6.1	4_exp_EVA_AWA_CON	80	A	B	Rpleas_acq	Oppo	Rpleas	2pleas	acq_US_pleas_nomask	acq45_nomask	5	20	400	0	300	300	0	0	610	50	1	0	sonnig	vertrauen	träumen	besonnen	kreativ	genießen	sterben	versagen	töten	bange	krank	gemein	vergnügt	kuss	gesittet	anregung	gütig	engagiert	verbissen	krise	geizig	ausrottung	gierig	engstirnig	1	blank2r.bmp	0	1	+	0	1	blank2r.bmp	500	1	DHJF	500	1	blank2r.bmp	880	2	vertrauen	880	1	!	1232	1	!	-1	0	0	0	0	0	0
2024-06-11	12:07:17	12:17:16	598441	6.6.1	4_exp_EVA_AWA_CON	80	A	B	Rpleas_acq	Oppo	Rpleas	2pleas	acq_US_pleas_nomask	acq45_nomask	5	21	400	0	300	300	0	0	570	50	1	0	sonnig	vertrauen	träumen	besonnen	kreativ	genießen	sterben	versagen	töten	bange	krank	gemein	vergnügt	kuss	gesittet	anregung	gütig	engagiert	verbissen	krise	geizig	ausrottung	gierig	engstirnig	1	blank2r.bmp	0	1	+	0	1	blank2r.bmp	500	1	DHJF	500	1	blank2r.bmp	880	5	kreativ	880	1	!	1232	1	!	-1	0	0	0	0	0	0
2024-06-11	12:07:17	12:17:18	600753	6.6.1	4_exp_EVA_AWA_CON	80	A	B	Rpleas_acq	Oppo	Rpleas	2pleas	acq_US_unple_nomask	acq45_nomask	5	22	400	0	300	300	0	0	531	46	1	0	sonnig	vertrauen	träumen	besonnen	kreativ	genießen	sterben	versagen	töten	bange	krank	gemein	vergnügt	kuss	gesittet	anregung	gütig	engagiert	verbissen	krise	geizig	ausrottung	gierig	engstirnig	1	blank2r.bmp	0	1	+	0	1	blank2r.bmp	500	1	CPLW	500	1	blank2r.bmp	880	4	bange	880	1	!	1232	1	!	-1	0	0	0	0	0	0
2024-06-11	12:07:17	12:17:21	602946	6.6.1	4_exp_EVA_AWA_CON	80	A	B	Rpleas_acq	Oppo	Rpleas	2pleas	acq_US_unple_nomask	acq45_nomask	5	23	400	1	300	300	0	0	411	50	0	0	sonnig	vertrauen	träumen	besonnen	kreativ	genießen	sterben	versagen	töten	bange	krank	gemein	vergnügt	kuss	gesittet	anregung	gütig	engagiert	verbissen	krise	geizig	ausrottung	gierig	engstirnig	1	blank2r.bmp	0	1	+	0	1	blank2r.bmp	500	1	CPLW	500	1	blank2r.bmp	880	1	sterben	880	1	!	1232	1	!	1312	0	0	0	0	0	0
2024-06-11	12:07:17	12:17:23	605058	6.6.1	4_exp_EVA_AWA_CON	80	A	B	Rpleas_acq	Oppo	Rpleas	2pleas	acq_US_unple_nomask	acq45_nomask	5	24	400	1	300	300	0	0	333	50	0	0	sonnig	vertrauen	träumen	besonnen	kreativ	genießen	sterben	versagen	töten	bange	krank	gemein	vergnügt	kuss	gesittet	anregung	gütig	engagiert	verbissen	krise	geizig	ausrottung	gierig	engstirnig	1	blank2r.bmp	0	1	+	0	1	blank2r.bmp	500	1	CPLW	500	1	blank2r.bmp	880	2	versagen	880	1	!	1232	1	!	1233	0	0	0	0	0	0
2024-06-11	12:07:17	12:17:25	607544	6.6.1	4_exp_EVA_AWA_CON	80	A	B	Rpleas_acq	Oppo	Rpleas	2pleas	acq_US_unple_nomask	acq45_nomask	5	25	400	0	300	300	0	0	708	46	1	0	sonnig	vertrauen	träumen	besonnen	kreativ	genießen	sterben	versagen	töten	bange	krank	gemein	vergnügt	kuss	gesittet	anregung	gütig	engagiert	verbissen	krise	geizig	ausrottung	gierig	engstirnig	1	blank2r.bmp	0	1	+	0	1	blank2r.bmp	500	1	CPLW	500	1	blank2r.bmp	880	5	krank	880	1	!	1232	1	!	-1	0	0	0	0	0	0
2024-06-11	12:07:17	12:17:27	609778	6.6.1	4_exp_EVA_AWA_CON	80	A	B	Rpleas_acq	Oppo	Rpleas	2pleas	acq_US_pleas_nomask	acq45_nomask	5	26	400	1	300	300	0	0	459	50	1	0	sonnig	vertrauen	träumen	besonnen	kreativ	genießen	sterben	versagen	töten	bange	krank	gemein	vergnügt	kuss	gesittet	anregung	gütig	engagiert	verbissen	krise	geizig	ausrottung	gierig	engstirnig	1	blank2r.bmp	0	1	+	0	1	blank2r.bmp	500	1	DHJF	500	1	blank2r.bmp	880	1	sonnig	880	1	!	1232	1	!	1360	0	0	0	0	0	0
2024-06-11	12:07:17	12:17:30	612616	6.6.1	4_exp_EVA_AWA_CON	80	A	B	Rpleas_acq	Oppo	Rpleas	2pleas	acq_US_pleas_nomask	acq45_nomask	5	27	400	0	300	300	0	0	1057	50	1	0	sonnig	vertrauen	träumen	besonnen	kreativ	genießen	sterben	versagen	töten	bange	krank	gemein	vergnügt	kuss	gesittet	anregung	gütig	engagiert	verbissen	krise	geizig	ausrottung	gierig	engstirnig	1	blank2r.bmp	0	1	+	0	1	blank2r.bmp	500	1	DHJF	500	1	blank2r.bmp	880	4	besonnen	880	1	!	1232	1	!	-1	0	0	0	0	0	0
2024-06-11	12:07:17	12:17:32	614769	6.6.1	4_exp_EVA_AWA_CON	80	A	B	Rpleas_acq	Oppo	Rpleas	2pleas	acq_US_unple_nomask	acq45_nomask	5	28	400	1	300	300	0	0	378	50	0	0	sonnig	vertrauen	träumen	besonnen	kreativ	genießen	sterben	versagen	töten	bange	krank	gemein	vergnügt	kuss	gesittet	anregung	gütig	engagiert	verbissen	krise	geizig	ausrottung	gierig	engstirnig	1	blank2r.bmp	0	1	+	0	1	blank2r.bmp	500	1	CPLW	500	1	blank2r.bmp	880	3	töten	880	1	!	1232	1	!	1278	0	0	0	0	0	0
2024-06-11	12:07:17	12:17:35	616970	6.6.1	4_exp_EVA_AWA_CON	80	A	B	Rpleas_acq	Oppo	Rpleas	2pleas	acq_US_pleas_nomask	acq45_nomask	5	29	400	1	300	300	0	0	426	46	0	0	sonnig	vertrauen	träumen	besonnen	kreativ	genießen	sterben	versagen	töten	bange	krank	gemein	vergnügt	kuss	gesittet	anregung	gütig	engagiert	verbissen	krise	geizig	ausrottung	gierig	engstirnig	1	blank2r.bmp	0	1	+	0	1	blank2r.bmp	500	1	DHJF	500	1	blank2r.bmp	880	3	träumen	880	1	!	1232	1	!	1327	0	0	0	0	0	0
2024-06-11	12:07:17	12:17:37	619056	6.6.1	4_exp_EVA_AWA_CON	80	A	B	Rpleas_acq	Oppo	Rpleas	2pleas	acq_US_unple_nomask	acq45_nomask	5	30	400	0	300	300	0	0	313	50	0	0	sonnig	vertrauen	träumen	besonnen	kreativ	genießen	sterben	versagen	töten	bange	krank	gemein	vergnügt	kuss	gesittet	anregung	gütig	engagiert	verbissen	krise	geizig	ausrottung	gierig	engstirnig	1	blank2r.bmp	0	1	+	0	1	blank2r.bmp	500	1	CPLW	500	1	blank2r.bmp	880	1	sterben	880	1	!	-1	1	!	-1	0	0	0	0	0	0
2024-06-11	12:07:17	12:17:39	621226	6.6.1	4_exp_EVA_AWA_CON	80	A	B	Rpleas_acq	Oppo	Rpleas	2pleas	acq_US_unple_nomask	acq45_nomask	5	31	400	1	300	300	0	0	390	50	0	0	sonnig	vertrauen	träumen	besonnen	kreativ	genießen	sterben	versagen	töten	bange	krank	gemein	vergnügt	kuss	gesittet	anregung	gütig	engagiert	verbissen	krise	geizig	ausrottung	gierig	engstirnig	1	blank2r.bmp	0	1	+	0	1	blank2r.bmp	500	1	CPLW	500	1	blank2r.bmp	880	6	gemein	880	1	!	1232	1	!	1290	0	0	0	0	0	0
2024-06-11	12:07:17	12:17:41	623520	6.6.1	4_exp_EVA_AWA_CON	80	A	B	Rpleas_acq	Oppo	Rpleas	2pleas	acq_US_pleas_nomask	acq45_nomask	5	32	400	0	300	300	0	0	514	50	1	0	sonnig	vertrauen	träumen	besonnen	kreativ	genießen	sterben	versagen	töten	bange	krank	gemein	vergnügt	kuss	gesittet	anregung	gütig	engagiert	verbissen	krise	geizig	ausrottung	gierig	engstirnig	1	blank2r.bmp	0	1	+	0	1	blank2r.bmp	500	1	DHJF	500	1	blank2r.bmp	880	6	genießen	880	1	!	1232	1	!	-1	0	0	0	0	0	0
2024-06-11	12:07:17	12:17:43	625722	6.6.1	4_exp_EVA_AWA_CON	80	A	B	Rpleas_acq	Oppo	Rpleas	2pleas	acq_US_pleas_nomask	acq45_nomask	5	33	400	1	300	300	0	0	423	50	1	0	sonnig	vertrauen	träumen	besonnen	kreativ	genießen	sterben	versagen	töten	bange	krank	gemein	vergnügt	kuss	gesittet	anregung	gütig	engagiert	verbissen	krise	geizig	ausrottung	gierig	engstirnig	1	blank2r.bmp	0	1	+	0	1	blank2r.bmp	500	1	DHJF	500	1	blank2r.bmp	880	5	kreativ	880	1	!	1232	1	!	1323	0	0	0	0	0	0
2024-06-11	12:07:17	12:17:45	627808	6.6.1	4_exp_EVA_AWA_CON	80	A	B	Rpleas_acq	Oppo	Rpleas	2pleas	acq_US_unple_nomask	acq45_nomask	5	34	400	0	300	300	0	0	309	50	0	0	sonnig	vertrauen	träumen	besonnen	kreativ	genießen	sterben	versagen	töten	bange	krank	gemein	vergnügt	kuss	gesittet	anregung	gütig	engagiert	verbissen	krise	geizig	ausrottung	gierig	engstirnig	1	blank2r.bmp	0	1	+	0	1	blank2r.bmp	500	1	CPLW	500	1	blank2r.bmp	880	2	versagen	880	1	!	-1	1	!	-1	0	0	0	0	0	0
2024-06-11	12:07:17	12:17:48	629888	6.6.1	4_exp_EVA_AWA_CON	80	A	B	Rpleas_acq	Oppo	Rpleas	2pleas	acq_US_pleas_nomask	acq45_nomask	5	35	400	0	300	300	0	0	308	50	1	0	sonnig	vertrauen	träumen	besonnen	kreativ	genießen	sterben	versagen	töten	bange	krank	gemein	vergnügt	kuss	gesittet	anregung	gütig	engagiert	verbissen	krise	geizig	ausrottung	gierig	engstirnig	1	blank2r.bmp	0	1	+	0	1	blank2r.bmp	500	1	DHJF	500	1	blank2r.bmp	880	2	vertrauen	880	1	!	-1	1	!	-1	0	0	0	0	0	0
2024-06-11	12:07:17	12:17:50	632074	6.6.1	4_exp_EVA_AWA_CON	80	A	B	Rpleas_acq	Oppo	Rpleas	2pleas	acq_US_unple_nomask	acq45_nomask	5	36	400	1	300	300	0	0	411	50	0	0	sonnig	vertrauen	träumen	besonnen	kreativ	genießen	sterben	versagen	töten	bange	krank	gemein	vergnügt	kuss	gesittet	anregung	gütig	engagiert	verbissen	krise	geizig	ausrottung	gierig	engstirnig	1	blank2r.bmp	0	1	+	0	1	blank2r.bmp	500	1	CPLW	500	1	blank2r.bmp	880	4	bange	880	1	!	1232	1	!	1312	0	0	0	0	0	0
2024-06-11	12:07:17	12:18:16	658708	6.6.1	4_exp_EVA_AWA_CON	80	A	B	Rpleas_acq	Oppo	Lpleas	2pleas	EvalRating_firsttwo	EvalRating_firsttwo	6	1	0	0	300	300	0	0	4743	line	0	-35,2864583333333285964pct	sonnig	vertrauen	träumen	besonnen	kreativ	genießen	sterben	versagen	töten	bange	krank	gemein	vergnügt	kuss	gesittet	anregung	gütig	engagiert	verbissen	krise	geizig	ausrottung	gierig	engstirnig	1		-7	1	Wie angenehm oder unangenehm finden Sie die  Buchstabenkette WDLH?	-7	1		-7	1		-7	1		-7	1	Unangenehm	-7	1	Angenehm	-7	0	0	0	0	0	0	0	0	0
2024-06-11	12:07:17	12:18:20	662381	6.6.1	4_exp_EVA_AWA_CON	80	A	B	Rpleas_acq	Oppo	Lpleas	2pleas	EvalRating_lastfour	EvalRating_lastfour	7	1	0	0	300	300	0	0	1301	line	0	14,5833333333333428072pct	sonnig	vertrauen	träumen	besonnen	kreativ	genießen	sterben	versagen	töten	bange	krank	gemein	vergnügt	kuss	gesittet	anregung	gütig	engagiert	verbissen	krise	geizig	ausrottung	gierig	engstirnig	1		-8	1	Wie angenehm oder unangenehm finden Sie die  Buchstabenkette CPLW?	-8	1		-8	1		-8	1		-8	1	Unangenehm	-8	1	Angenehm	-8	0	0	0	0	0	0	0	0	0
2024-06-11	12:07:17	12:18:22	664755	6.6.1	4_exp_EVA_AWA_CON	80	A	B	Rpleas_acq	Oppo	Lpleas	2pleas	blank_screen	EvalRating_lastfour	7	3	0	0	300	300	0	0	0	0	0	14,5833333333333428072pct	sonnig	vertrauen	träumen	besonnen	kreativ	genießen	sterben	versagen	töten	bange	krank	gemein	vergnügt	kuss	gesittet	anregung	gütig	engagiert	verbissen	krise	geizig	ausrottung	gierig	engstirnig	1		-8	0	0	0	0	0	0	0	0	0	0	0	0	0	0	0	0	0	0	0	0	0	0	0	0	0	0	0
2024-06-11	12:07:17	12:18:25	667613	6.6.1	4_exp_EVA_AWA_CON	80	A	B	Rpleas_acq	Oppo	Lpleas	2pleas	EvalRating_lastfour	EvalRating_lastfour	7	4	0	0	300	300	0	0	2270	line	0	-80,078125pct	sonnig	vertrauen	träumen	besonnen	kreativ	genießen	sterben	versagen	töten	bange	krank	gemein	vergnügt	kuss	gesittet	anregung	gütig	engagiert	verbissen	krise	geizig	ausrottung	gierig	engstirnig	1		-8	3	Wie angenehm oder unangenehm finden Sie die  Buchstabenkette FCJP?	-8	1		-8	1		-8	1		-8	1	Unangenehm	-8	1	Angenehm	-8	0	0	0	0	0	0	0	0	0
2024-06-11	12:07:17	12:18:28	669978	6.6.1	4_exp_EVA_AWA_CON	80	A	B	Rpleas_acq	Oppo	Lpleas	2pleas	blank_screen	EvalRating_lastfour	7	6	0	0	300	300	0	0	0	0	0	-80,078125pct	sonnig	vertrauen	träumen	besonnen	kreativ	genießen	sterben	versagen	töten	bange	krank	gemein	vergnügt	kuss	gesittet	anregung	gütig	engagiert	verbissen	krise	geizig	ausrottung	gierig	engstirnig	1		-8	0	0	0	0	0	0	0	0	0	0	0	0	0	0	0	0	0	0	0	0	0	0	0	0	0	0	0
2024-06-11	12:07:17	12:18:29	671789	6.6.1	4_exp_EVA_AWA_CON	80	A	B	Rpleas_acq	Oppo	Lpleas	2pleas	EvalRating_lastfour	EvalRating_lastfour	7	7	0	0	300	300	0	0	1223	line	0	-51,6927083333333285964pct	sonnig	vertrauen	träumen	besonnen	kreativ	genießen	sterben	versagen	töten	bange	krank	gemein	vergnügt	kuss	gesittet	anregung	gütig	engagiert	verbissen	krise	geizig	ausrottung	gierig	engstirnig	1		-8	2	Wie angenehm oder unangenehm finden Sie die  Buchstabenkette DHJF?	-8	1		-8	1		-8	1		-8	1	Unangenehm	-8	1	Angenehm	-8	0	0	0	0	0	0	0	0	0
2024-06-11	12:07:17	12:19:00	702197	6.6.1	4_exp_EVA_AWA_CON	80	A	B	Rpleas_acq	Oppo	Lpleas	2pleas	conawa_CS1_US1	conawa1_nomask	8	1	0	0	300	300	0	0	16317	sonnig	1	-51,6927083333333285964pct	sonnig	vertrauen	träumen	besonnen	kreativ	genießen	sterben	versagen	töten	bange	krank	gemein	vergnügt	kuss	gesittet	anregung	gütig	engagiert	verbissen	krise	geizig	ausrottung	gierig	engstirnig	0	0	0	0	0	0	0	0	0	0	0	0	0	0	0	0	0	0	0	0	0	0	0	0	0	0	0	0	0	0
2024-06-11	12:07:17	12:19:00	702199	6.6.1	4_exp_EVA_AWA_CON	80	A	B	Rpleas_acq	Oppo	Lpleas	2pleas	conawa_CS1_US1_confidence	conawa1_nomask	8	1	0	0	300	300	0	0	16317	probably	1	-51,6927083333333285964pct	sonnig	vertrauen	träumen	besonnen	kreativ	genießen	sterben	versagen	töten	bange	krank	gemein	vergnügt	kuss	gesittet	anregung	gütig	engagiert	verbissen	krise	geizig	ausrottung	gierig	engstirnig	0	0	0	0	0	0	0	0	0	0	0	0	0	0	0	0	0	0	0	0	0	0	0	0	0	0	0	0	0	0
2024-06-11	12:07:17	12:19:11	713094	6.6.1	4_exp_EVA_AWA_CON	80	A	B	Rpleas_acq	Oppo	Lpleas	2pleas	conawa_CS1_US6	conawa1_nomask	8	2	0	0	300	300	0	0	10279	genießen	1	-51,6927083333333285964pct	sonnig	vertrauen	träumen	besonnen	kreativ	genießen	sterben	versagen	töten	bange	krank	gemein	vergnügt	kuss	gesittet	anregung	gütig	engagiert	verbissen	krise	geizig	ausrottung	gierig	engstirnig	0	0	0	0	0	0	0	0	0	0	0	0	0	0	0	0	0	0	0	0	0	0	0	0	0	0	0	0	0	0
2024-06-11	12:07:17	12:19:11	713095	6.6.1	4_exp_EVA_AWA_CON	80	A	B	Rpleas_acq	Oppo	Lpleas	2pleas	conawa_CS1_US6_confidence	conawa1_nomask	8	2	0	0	300	300	0	0	10279	guess	1	-51,6927083333333285964pct	sonnig	vertrauen	träumen	besonnen	kreativ	genießen	sterben	versagen	töten	bange	krank	gemein	vergnügt	kuss	gesittet	anregung	gütig	engagiert	verbissen	krise	geizig	ausrottung	gierig	engstirnig	0	0	0	0	0	0	0	0	0	0	0	0	0	0	0	0	0	0	0	0	0	0	0	0	0	0	0	0	0	0
2024-06-11	12:07:17	12:19:17	719378	6.6.1	4_exp_EVA_AWA_CON	80	A	B	Rpleas_acq	Oppo	Lpleas	2pleas	conawa_CS2_US4	conawa1_nomask	8	3	0	0	300	300	0	0	5669	gierig	1	-51,6927083333333285964pct	sonnig	vertrauen	träumen	besonnen	kreativ	genießen	sterben	versagen	töten	bange	krank	gemein	vergnügt	kuss	gesittet	anregung	gütig	engagiert	verbissen	krise	geizig	ausrottung	gierig	engstirnig	0	0	0	0	0	0	0	0	0	0	0	0	0	0	0	0	0	0	0	0	0	0	0	0	0	0	0	0	0	0
2024-06-11	12:07:17	12:19:17	719379	6.6.1	4_exp_EVA_AWA_CON	80	A	B	Rpleas_acq	Oppo	Lpleas	2pleas	conawa_CS2_US4_confidence	conawa1_nomask	8	3	0	0	300	300	0	0	5669	probably	1	-51,6927083333333285964pct	sonnig	vertrauen	träumen	besonnen	kreativ	genießen	sterben	versagen	töten	bange	krank	gemein	vergnügt	kuss	gesittet	anregung	gütig	engagiert	verbissen	krise	geizig	ausrottung	gierig	engstirnig	0	0	0	0	0	0	0	0	0	0	0	0	0	0	0	0	0	0	0	0	0	0	0	0	0	0	0	0	0	0
2024-06-11	12:07:17	12:19:26	727843	6.6.1	4_exp_EVA_AWA_CON	80	A	B	Rpleas_acq	Oppo	Lpleas	2pleas	conawa_CS1_US2	conawa1_nomask	8	4	0	0	300	300	0	0	7846	vertrauen	1	-51,6927083333333285964pct	sonnig	vertrauen	träumen	besonnen	kreativ	genießen	sterben	versagen	töten	bange	krank	gemein	vergnügt	kuss	gesittet	anregung	gütig	engagiert	verbissen	krise	geizig	ausrottung	gierig	engstirnig	0	0	0	0	0	0	0	0	0	0	0	0	0	0	0	0	0	0	0	0	0	0	0	0	0	0	0	0	0	0
2024-06-11	12:07:17	12:19:26	727845	6.6.1	4_exp_EVA_AWA_CON	80	A	B	Rpleas_acq	Oppo	Lpleas	2pleas	conawa_CS1_US2_confidence	conawa1_nomask	8	4	0	0	300	300	0	0	7846	probably	1	-51,6927083333333285964pct	sonnig	vertrauen	träumen	besonnen	kreativ	genießen	sterben	versagen	töten	bange	krank	gemein	vergnügt	kuss	gesittet	anregung	gütig	engagiert	verbissen	krise	geizig	ausrottung	gierig	engstirnig	0	0	0	0	0	0	0	0	0	0	0	0	0	0	0	0	0	0	0	0	0	0	0	0	0	0	0	0	0	0
2024-06-11	12:07:17	12:19:33	734878	6.6.1	4_exp_EVA_AWA_CON	80	A	B	Rpleas_acq	Oppo	Lpleas	2pleas	conawa_CS1_US5	conawa1_nomask	8	5	0	0	300	300	0	0	6420	kreativ	1	-51,6927083333333285964pct	sonnig	vertrauen	träumen	besonnen	kreativ	genießen	sterben	versagen	töten	bange	krank	gemein	vergnügt	kuss	gesittet	anregung	gütig	engagiert	verbissen	krise	geizig	ausrottung	gierig	engstirnig	0	0	0	0	0	0	0	0	0	0	0	0	0	0	0	0	0	0	0	0	0	0	0	0	0	0	0	0	0	0
2024-06-11	12:07:17	12:19:33	734880	6.6.1	4_exp_EVA_AWA_CON	80	A	B	Rpleas_acq	Oppo	Lpleas	2pleas	conawa_CS1_US5_confidence	conawa1_nomask	8	5	0	0	300	300	0	0	6420	sure	1	-51,6927083333333285964pct	sonnig	vertrauen	träumen	besonnen	kreativ	genießen	sterben	versagen	töten	bange	krank	gemein	vergnügt	kuss	gesittet	anregung	gütig	engagiert	verbissen	krise	geizig	ausrottung	gierig	engstirnig	0	0	0	0	0	0	0	0	0	0	0	0	0	0	0	0	0	0	0	0	0	0	0	0	0	0	0	0	0	0
2024-06-11	12:07:17	12:19:38	740071	6.6.1	4_exp_EVA_AWA_CON	80	A	B	Rpleas_acq	Oppo	Lpleas	2pleas	conawa_CS2_US2	conawa1_nomask	8	6	0	0	300	300	0	0	4578	gesittet	1	-51,6927083333333285964pct	sonnig	vertrauen	träumen	besonnen	kreativ	genießen	sterben	versagen	töten	bange	krank	gemein	vergnügt	kuss	gesittet	anregung	gütig	engagiert	verbissen	krise	geizig	ausrottung	gierig	engstirnig	0	0	0	0	0	0	0	0	0	0	0	0	0	0	0	0	0	0	0	0	0	0	0	0	0	0	0	0	0	0
2024-06-11	12:07:17	12:19:38	740073	6.6.1	4_exp_EVA_AWA_CON	80	A	B	Rpleas_acq	Oppo	Lpleas	2pleas	conawa_CS2_US2_confidence	conawa1_nomask	8	6	0	0	300	300	0	0	4578	probably	1	-51,6927083333333285964pct	sonnig	vertrauen	träumen	besonnen	kreativ	genießen	sterben	versagen	töten	bange	krank	gemein	vergnügt	kuss	gesittet	anregung	gütig	engagiert	verbissen	krise	geizig	ausrottung	gierig	engstirnig	0	0	0	0	0	0	0	0	0	0	0	0	0	0	0	0	0	0	0	0	0	0	0	0	0	0	0	0	0	0
2024-06-11	12:07:17	12:19:43	745395	6.6.1	4_exp_EVA_AWA_CON	80	A	B	Rpleas_acq	Oppo	Lpleas	2pleas	conawa_CS2_US6	conawa1_nomask	8	7	0	0	300	300	0	0	4712	gemein	1	-51,6927083333333285964pct	sonnig	vertrauen	träumen	besonnen	kreativ	genießen	sterben	versagen	töten	bange	krank	gemein	vergnügt	kuss	gesittet	anregung	gütig	engagiert	verbissen	krise	geizig	ausrottung	gierig	engstirnig	0	0	0	0	0	0	0	0	0	0	0	0	0	0	0	0	0	0	0	0	0	0	0	0	0	0	0	0	0	0
2024-06-11	12:07:17	12:19:43	745396	6.6.1	4_exp_EVA_AWA_CON	80	A	B	Rpleas_acq	Oppo	Lpleas	2pleas	conawa_CS2_US6_confidence	conawa1_nomask	8	7	0	0	300	300	0	0	4712	probably	1	-51,6927083333333285964pct	sonnig	vertrauen	träumen	besonnen	kreativ	genießen	sterben	versagen	töten	bange	krank	gemein	vergnügt	kuss	gesittet	anregung	gütig	engagiert	verbissen	krise	geizig	ausrottung	gierig	engstirnig	0	0	0	0	0	0	0	0	0	0	0	0	0	0	0	0	0	0	0	0	0	0	0	0	0	0	0	0	0	0
2024-06-11	12:07:17	12:19:48	750107	6.6.1	4_exp_EVA_AWA_CON	80	A	B	Rpleas_acq	Oppo	Lpleas	2pleas	conawa_CS1_US4	conawa1_nomask	8	8	0	0	300	300	0	0	4099	besonnen	1	-51,6927083333333285964pct	sonnig	vertrauen	träumen	besonnen	kreativ	genießen	sterben	versagen	töten	bange	krank	gemein	vergnügt	kuss	gesittet	anregung	gütig	engagiert	verbissen	krise	geizig	ausrottung	gierig	engstirnig	0	0	0	0	0	0	0	0	0	0	0	0	0	0	0	0	0	0	0	0	0	0	0	0	0	0	0	0	0	0
2024-06-11	12:07:17	12:19:48	750110	6.6.1	4_exp_EVA_AWA_CON	80	A	B	Rpleas_acq	Oppo	Lpleas	2pleas	conawa_CS1_US4_confidence	conawa1_nomask	8	8	0	0	300	300	0	0	4099	probably	1	-51,6927083333333285964pct	sonnig	vertrauen	träumen	besonnen	kreativ	genießen	sterben	versagen	töten	bange	krank	gemein	vergnügt	kuss	gesittet	anregung	gütig	engagiert	verbissen	krise	geizig	ausrottung	gierig	engstirnig	0	0	0	0	0	0	0	0	0	0	0	0	0	0	0	0	0	0	0	0	0	0	0	0	0	0	0	0	0	0
2024-06-11	12:07:17	12:19:52	754500	6.6.1	4_exp_EVA_AWA_CON	80	A	B	Rpleas_acq	Oppo	Lpleas	2pleas	conawa_CS1_US3	conawa1_nomask	8	9	0	0	300	300	0	0	3777	träumen	1	-51,6927083333333285964pct	sonnig	vertrauen	träumen	besonnen	kreativ	genießen	sterben	versagen	töten	bange	krank	gemein	vergnügt	kuss	gesittet	anregung	gütig	engagiert	verbissen	krise	geizig	ausrottung	gierig	engstirnig	0	0	0	0	0	0	0	0	0	0	0	0	0	0	0	0	0	0	0	0	0	0	0	0	0	0	0	0	0	0
2024-06-11	12:07:17	12:19:52	754502	6.6.1	4_exp_EVA_AWA_CON	80	A	B	Rpleas_acq	Oppo	Lpleas	2pleas	conawa_CS1_US3_confidence	conawa1_nomask	8	9	0	0	300	300	0	0	3777	probably	1	-51,6927083333333285964pct	sonnig	vertrauen	träumen	besonnen	kreativ	genießen	sterben	versagen	töten	bange	krank	gemein	vergnügt	kuss	gesittet	anregung	gütig	engagiert	verbissen	krise	geizig	ausrottung	gierig	engstirnig	0	0	0	0	0	0	0	0	0	0	0	0	0	0	0	0	0	0	0	0	0	0	0	0	0	0	0	0	0	0
2024-06-11	12:07:17	12:19:57	759534	6.6.1	4_exp_EVA_AWA_CON	80	A	B	Rpleas_acq	Oppo	Lpleas	2pleas	conawa_CS2_US1	conawa1_nomask	8	10	0	0	300	300	0	0	4419	krise	1	-51,6927083333333285964pct	sonnig	vertrauen	träumen	besonnen	kreativ	genießen	sterben	versagen	töten	bange	krank	gemein	vergnügt	kuss	gesittet	anregung	gütig	engagiert	verbissen	krise	geizig	ausrottung	gierig	engstirnig	0	0	0	0	0	0	0	0	0	0	0	0	0	0	0	0	0	0	0	0	0	0	0	0	0	0	0	0	0	0
2024-06-11	12:07:17	12:19:57	759535	6.6.1	4_exp_EVA_AWA_CON	80	A	B	Rpleas_acq	Oppo	Lpleas	2pleas	conawa_CS2_US1_confidence	conawa1_nomask	8	10	0	0	300	300	0	0	4419	sure	1	-51,6927083333333285964pct	sonnig	vertrauen	träumen	besonnen	kreativ	genießen	sterben	versagen	töten	bange	krank	gemein	vergnügt	kuss	gesittet	anregung	gütig	engagiert	verbissen	krise	geizig	ausrottung	gierig	engstirnig	0	0	0	0	0	0	0	0	0	0	0	0	0	0	0	0	0	0	0	0	0	0	0	0	0	0	0	0	0	0
2024-06-11	12:07:17	12:20:12	774163	6.6.1	4_exp_EVA_AWA_CON	80	A	B	Rpleas_acq	Oppo	Lpleas	2pleas	conawa_CS2_US5	conawa1_nomask	8	11	0	0	300	300	0	0	14009	engstirnig	1	-51,6927083333333285964pct	sonnig	vertrauen	träumen	besonnen	kreativ	genießen	sterben	versagen	töten	bange	krank	gemein	vergnügt	kuss	gesittet	anregung	gütig	engagiert	verbissen	krise	geizig	ausrottung	gierig	engstirnig	0	0	0	0	0	0	0	0	0	0	0	0	0	0	0	0	0	0	0	0	0	0	0	0	0	0	0	0	0	0
2024-06-11	12:07:17	12:20:12	774165	6.6.1	4_exp_EVA_AWA_CON	80	A	B	Rpleas_acq	Oppo	Lpleas	2pleas	conawa_CS2_US5_confidence	conawa1_nomask	8	11	0	0	300	300	0	0	14009	probably	1	-51,6927083333333285964pct	sonnig	vertrauen	träumen	besonnen	kreativ	genießen	sterben	versagen	töten	bange	krank	gemein	vergnügt	kuss	gesittet	anregung	gütig	engagiert	verbissen	krise	geizig	ausrottung	gierig	engstirnig	0	0	0	0	0	0	0	0	0	0	0	0	0	0	0	0	0	0	0	0	0	0	0	0	0	0	0	0	0	0
2024-06-11	12:07:17	12:20:16	778586	6.6.1	4_exp_EVA_AWA_CON	80	A	B	Rpleas_acq	Oppo	Lpleas	2pleas	conawa_CS2_US3	conawa1_nomask	8	12	0	0	300	300	0	0	3810	töten	1	-51,6927083333333285964pct	sonnig	vertrauen	träumen	besonnen	kreativ	genießen	sterben	versagen	töten	bange	krank	gemein	vergnügt	kuss	gesittet	anregung	gütig	engagiert	verbissen	krise	geizig	ausrottung	gierig	engstirnig	0	0	0	0	0	0	0	0	0	0	0	0	0	0	0	0	0	0	0	0	0	0	0	0	0	0	0	0	0	0
2024-06-11	12:07:17	12:20:16	778588	6.6.1	4_exp_EVA_AWA_CON	80	A	B	Rpleas_acq	Oppo	Lpleas	2pleas	conawa_CS2_US3_confidence	conawa1_nomask	8	12	0	0	300	300	0	0	3810	probably	1	-51,6927083333333285964pct	sonnig	vertrauen	träumen	besonnen	kreativ	genießen	sterben	versagen	töten	bange	krank	gemein	vergnügt	kuss	gesittet	anregung	gütig	engagiert	verbissen	krise	geizig	ausrottung	gierig	engstirnig	0	0	0	0	0	0	0	0	0	0	0	0	0	0	0	0	0	0	0	0	0	0	0	0	0	0	0	0	0	0
2024-06-11	12:07:17	12:21:01	823088	6.6.1	4_exp_EVA_AWA_CON	80	A	B	Rpleas_acq	Oppo	Lpleas	2pleas	cond_new_unple_456_nomask_CS1	condtest_nomask_1	11	1	400	0	300	300	0	0	694	46	0	-51,6927083333333285964pct	sonnig	vertrauen	träumen	besonnen	kreativ	genießen	sterben	versagen	töten	bange	krank	gemein	vergnügt	kuss	gesittet	anregung	gütig	engagiert	verbissen	krise	geizig	ausrottung	gierig	engstirnig	1	blank2r.bmp	0	1	+	0	1	blank2r.bmp	500	1	CPLW	500	1	blank2r.bmp	880	2	gierig	880	1	!	1232	1	!	-1	0	0	0	0	0	0
