date	time	currenttime	elapsedtime	build	currentexpt	subject	CS_AB	US_AB	LRpleas_acq	SameOppo	condition_Lpleas	condition_1pleas	trialcode	blockcode	blocknum	trialnum	windowcenter	inwindow	pretrialpause	posttrialpause	trialduration	trialtimeout	latency	response	correct	correctedscore	US_nomask_pleas1	US_nomask_pleas2	US_nomask_pleas3	US_nomask_pleas4	US_nomask_pleas5	US_nomask_pleas6	US_nomask_unple1	US_nomask_unple2	US_nomask_unple3	US_nomask_unple4	US_nomask_unple5	US_nomask_unple6	new_nomask_pleas1	new_nomask_pleas2	new_nomask_pleas3	new_nomask_pleas4	new_nomask_pleas5	new_nomask_pleas6	new_nomask_unple1	new_nomask_unple2	new_nomask_unple3	new_nomask_unple4	new_nomask_unple5	new_nomask_unple6	stimulusnumber1	stimulusitem1	stimulusonset1	stimulusnumber2	stimulusitem2	stimulusonset2	stimulusnumber3	stimulusitem3	stimulusonset3	stimulusnumber4	stimulusitem4	stimulusonset4	stimulusnumber5	stimulusitem5	stimulusonset5	stimulusnumber6	stimulusitem6	stimulusonset6	stimulusnumber7	stimulusitem7	stimulusonset7	stimulusnumber8	stimulusitem8	stimulusonset8	stimulusnumber9	stimulusitem9	stimulusonset9	stimulusnumber10	stimulusitem10	stimulusonset10
2024-05-17	14:33:06	14:35:06	120096	6.6.1	4_exp_EVA_AWA_CON	43	B	A	Rpleas_acq	Same	Rpleas	2pleas	acq_new_unple_nomask	acq1_nomask	1	1	0	0	300	300	0	0	3175	46	1	0	loyal	ehrlich	retten	lachen	helfen	schön	lasch	eitel	rächen	leiden	hindern	schlecht	schlau	tolerant	spielen	fair	treu	freundlich	schroff	tyrannisch	strafen	faul	tot	fanatisch	1	blank2r.bmp	0	1	+	0	1	blank2r.bmp	500	5	C1r.bmp	500	1	blank2r.bmp	880	3	strafen	880	0	0	0	0	0	0	0	0	0	0	0	0
2024-05-17	14:33:06	14:35:10	123568	6.6.1	4_exp_EVA_AWA_CON	43	B	A	Rpleas_acq	Same	Rpleas	2pleas	acq_new_pleas_nomask	acq1_nomask	1	2	0	0	300	300	0	0	1984	50	1	0	loyal	ehrlich	retten	lachen	helfen	schön	lasch	eitel	rächen	leiden	hindern	schlecht	schlau	tolerant	spielen	fair	treu	freundlich	schroff	tyrannisch	strafen	faul	tot	fanatisch	1	blank2r.bmp	0	1	+	0	1	blank2r.bmp	500	2	B2r.bmp	500	1	blank2r.bmp	880	2	tolerant	880	0	0	0	0	0	0	0	0	0	0	0	0
2024-05-17	14:33:06	14:35:12	125968	6.6.1	4_exp_EVA_AWA_CON	43	B	A	Rpleas_acq	Same	Rpleas	2pleas	acq_new_unple_nomask	acq1_nomask	1	3	0	0	300	300	0	0	912	46	1	0	loyal	ehrlich	retten	lachen	helfen	schön	lasch	eitel	rächen	leiden	hindern	schlecht	schlau	tolerant	spielen	fair	treu	freundlich	schroff	tyrannisch	strafen	faul	tot	fanatisch	1	blank2r.bmp	0	1	+	0	1	blank2r.bmp	500	3	B3r.bmp	500	1	blank2r.bmp	880	1	schroff	880	0	0	0	0	0	0	0	0	0	0	0	0
2024-05-17	14:33:06	14:35:15	129232	6.6.1	4_exp_EVA_AWA_CON	43	B	A	Rpleas_acq	Same	Rpleas	2pleas	acq_US_pleas_nomask	acq1_nomask	1	4	0	0	300	300	0	0	1775	50	1	0	loyal	ehrlich	retten	lachen	helfen	schön	lasch	eitel	rächen	leiden	hindern	schlecht	schlau	tolerant	spielen	fair	treu	freundlich	schroff	tyrannisch	strafen	faul	tot	fanatisch	1	blank2r.bmp	0	1	+	0	1	blank2r.bmp	500	1	GKQX	500	1	blank2r.bmp	880	1	loyal	880	0	0	0	0	0	0	0	0	0	0	0	0
2024-05-17	14:33:06	14:35:20	133544	6.6.1	4_exp_EVA_AWA_CON	43	B	A	Rpleas_acq	Same	Rpleas	2pleas	acq_US_unple_nomask	acq1_nomask	1	5	0	0	300	300	0	0	2825	46	1	0	loyal	ehrlich	retten	lachen	helfen	schön	lasch	eitel	rächen	leiden	hindern	schlecht	schlau	tolerant	spielen	fair	treu	freundlich	schroff	tyrannisch	strafen	faul	tot	fanatisch	1	blank2r.bmp	0	1	+	0	1	blank2r.bmp	500	1	BMVZ	500	1	blank2r.bmp	880	6	schlecht	880	0	0	0	0	0	0	0	0	0	0	0	0
2024-05-17	14:33:06	14:35:22	136384	6.6.1	4_exp_EVA_AWA_CON	43	B	A	Rpleas_acq	Same	Rpleas	2pleas	acq_new_unple_nomask	acq1_nomask	1	6	0	0	300	300	0	0	1352	46	1	0	loyal	ehrlich	retten	lachen	helfen	schön	lasch	eitel	rächen	leiden	hindern	schlecht	schlau	tolerant	spielen	fair	treu	freundlich	schroff	tyrannisch	strafen	faul	tot	fanatisch	1	blank2r.bmp	0	1	+	0	1	blank2r.bmp	500	8	C4r.bmp	500	1	blank2r.bmp	880	4	faul	880	0	0	0	0	0	0	0	0	0	0	0	0
2024-05-17	14:33:06	14:35:25	138512	6.6.1	4_exp_EVA_AWA_CON	43	B	A	Rpleas_acq	Same	Rpleas	2pleas	acq_new_pleas_nomask	acq1_nomask	1	7	0	0	300	300	0	0	638	50	1	0	loyal	ehrlich	retten	lachen	helfen	schön	lasch	eitel	rächen	leiden	hindern	schlecht	schlau	tolerant	spielen	fair	treu	freundlich	schroff	tyrannisch	strafen	faul	tot	fanatisch	1	blank2r.bmp	0	1	+	0	1	blank2r.bmp	500	1	B1r.bmp	500	1	blank2r.bmp	880	6	freundlich	880	0	0	0	0	0	0	0	0	0	0	0	0
2024-05-17	14:33:06	14:35:27	141144	6.6.1	4_exp_EVA_AWA_CON	43	B	A	Rpleas_acq	Same	Rpleas	2pleas	acq_US_pleas_nomask	acq1_nomask	1	8	0	0	300	300	0	0	1149	50	1	0	loyal	ehrlich	retten	lachen	helfen	schön	lasch	eitel	rächen	leiden	hindern	schlecht	schlau	tolerant	spielen	fair	treu	freundlich	schroff	tyrannisch	strafen	faul	tot	fanatisch	1	blank2r.bmp	0	1	+	0	1	blank2r.bmp	500	1	GKQX	500	1	blank2r.bmp	880	4	lachen	880	0	0	0	0	0	0	0	0	0	0	0	0
2024-05-17	14:33:06	14:35:29	143296	6.6.1	4_exp_EVA_AWA_CON	43	B	A	Rpleas_acq	Same	Rpleas	2pleas	acq_US_pleas_nomask	acq1_nomask	1	9	0	0	300	300	0	0	669	50	1	0	loyal	ehrlich	retten	lachen	helfen	schön	lasch	eitel	rächen	leiden	hindern	schlecht	schlau	tolerant	spielen	fair	treu	freundlich	schroff	tyrannisch	strafen	faul	tot	fanatisch	1	blank2r.bmp	0	1	+	0	1	blank2r.bmp	500	1	GKQX	500	1	blank2r.bmp	880	2	ehrlich	880	0	0	0	0	0	0	0	0	0	0	0	0
2024-05-17	14:33:06	14:35:31	145336	6.6.1	4_exp_EVA_AWA_CON	43	B	A	Rpleas_acq	Same	Rpleas	2pleas	acq_new_pleas_nomask	acq1_nomask	1	10	0	0	300	300	0	0	558	50	1	0	loyal	ehrlich	retten	lachen	helfen	schön	lasch	eitel	rächen	leiden	hindern	schlecht	schlau	tolerant	spielen	fair	treu	freundlich	schroff	tyrannisch	strafen	faul	tot	fanatisch	1	blank2r.bmp	0	1	+	0	1	blank2r.bmp	500	6	C2r.bmp	500	1	blank2r.bmp	880	4	fair	880	0	0	0	0	0	0	0	0	0	0	0	0
2024-05-17	14:33:06	14:35:35	148664	6.6.1	4_exp_EVA_AWA_CON	43	B	A	Rpleas_acq	Same	Rpleas	2pleas	acq_US_unple_nomask	acq1_nomask	1	11	0	0	300	300	0	0	1844	46	1	0	loyal	ehrlich	retten	lachen	helfen	schön	lasch	eitel	rächen	leiden	hindern	schlecht	schlau	tolerant	spielen	fair	treu	freundlich	schroff	tyrannisch	strafen	faul	tot	fanatisch	1	blank2r.bmp	0	1	+	0	1	blank2r.bmp	500	1	BMVZ	500	1	blank2r.bmp	880	5	hindern	880	0	0	0	0	0	0	0	0	0	0	0	0
2024-05-17	14:33:06	14:35:37	150800	6.6.1	4_exp_EVA_AWA_CON	43	B	A	Rpleas_acq	Same	Rpleas	2pleas	acq_US_unple_nomask	acq1_nomask	1	12	0	0	300	300	0	0	648	46	1	0	loyal	ehrlich	retten	lachen	helfen	schön	lasch	eitel	rächen	leiden	hindern	schlecht	schlau	tolerant	spielen	fair	treu	freundlich	schroff	tyrannisch	strafen	faul	tot	fanatisch	1	blank2r.bmp	0	1	+	0	1	blank2r.bmp	500	1	BMVZ	500	1	blank2r.bmp	880	4	leiden	880	0	0	0	0	0	0	0	0	0	0	0	0
2024-05-17	14:33:06	14:35:39	152872	6.6.1	4_exp_EVA_AWA_CON	43	B	A	Rpleas_acq	Same	Rpleas	2pleas	acq_US_unple_nomask	acq1_nomask	1	13	0	0	300	300	0	0	589	46	1	0	loyal	ehrlich	retten	lachen	helfen	schön	lasch	eitel	rächen	leiden	hindern	schlecht	schlau	tolerant	spielen	fair	treu	freundlich	schroff	tyrannisch	strafen	faul	tot	fanatisch	1	blank2r.bmp	0	1	+	0	1	blank2r.bmp	500	1	BMVZ	500	1	blank2r.bmp	880	3	rächen	880	0	0	0	0	0	0	0	0	0	0	0	0
2024-05-17	14:33:06	14:35:41	155185	6.6.1	4_exp_EVA_AWA_CON	43	B	A	Rpleas_acq	Same	Rpleas	2pleas	acq_US_pleas_nomask	acq1_nomask	1	14	0	0	300	300	0	0	829	50	1	0	loyal	ehrlich	retten	lachen	helfen	schön	lasch	eitel	rächen	leiden	hindern	schlecht	schlau	tolerant	spielen	fair	treu	freundlich	schroff	tyrannisch	strafen	faul	tot	fanatisch	1	blank2r.bmp	0	1	+	0	1	blank2r.bmp	500	1	GKQX	500	1	blank2r.bmp	880	3	retten	880	0	0	0	0	0	0	0	0	0	0	0	0
2024-05-17	14:33:06	14:35:44	157512	6.6.1	4_exp_EVA_AWA_CON	43	B	A	Rpleas_acq	Same	Rpleas	2pleas	acq_US_unple_nomask	acq1_nomask	1	15	0	0	300	300	0	0	846	46	1	0	loyal	ehrlich	retten	lachen	helfen	schön	lasch	eitel	rächen	leiden	hindern	schlecht	schlau	tolerant	spielen	fair	treu	freundlich	schroff	tyrannisch	strafen	faul	tot	fanatisch	1	blank2r.bmp	0	1	+	0	1	blank2r.bmp	500	1	BMVZ	500	1	blank2r.bmp	880	2	eitel	880	0	0	0	0	0	0	0	0	0	0	0	0
2024-05-17	14:33:06	14:35:46	159920	6.6.1	4_exp_EVA_AWA_CON	43	B	A	Rpleas_acq	Same	Rpleas	2pleas	acq_new_unple_nomask	acq1_nomask	1	16	0	0	300	300	0	0	922	46	1	0	loyal	ehrlich	retten	lachen	helfen	schön	lasch	eitel	rächen	leiden	hindern	schlecht	schlau	tolerant	spielen	fair	treu	freundlich	schroff	tyrannisch	strafen	faul	tot	fanatisch	1	blank2r.bmp	0	1	+	0	1	blank2r.bmp	500	4	B4r.bmp	500	1	blank2r.bmp	880	2	tyrannisch	880	0	0	0	0	0	0	0	0	0	0	0	0
2024-05-17	14:33:06	14:35:48	162056	6.6.1	4_exp_EVA_AWA_CON	43	B	A	Rpleas_acq	Same	Rpleas	2pleas	acq_US_pleas_nomask	acq1_nomask	1	17	0	0	300	300	0	0	647	50	1	0	loyal	ehrlich	retten	lachen	helfen	schön	lasch	eitel	rächen	leiden	hindern	schlecht	schlau	tolerant	spielen	fair	treu	freundlich	schroff	tyrannisch	strafen	faul	tot	fanatisch	1	blank2r.bmp	0	1	+	0	1	blank2r.bmp	500	1	GKQX	500	1	blank2r.bmp	880	6	schön	880	0	0	0	0	0	0	0	0	0	0	0	0
2024-05-17	14:33:06	14:35:50	164184	6.6.1	4_exp_EVA_AWA_CON	43	B	A	Rpleas_acq	Same	Rpleas	2pleas	acq_new_pleas_nomask	acq1_nomask	1	18	0	0	300	300	0	0	643	50	1	0	loyal	ehrlich	retten	lachen	helfen	schön	lasch	eitel	rächen	leiden	hindern	schlecht	schlau	tolerant	spielen	fair	treu	freundlich	schroff	tyrannisch	strafen	faul	tot	fanatisch	1	blank2r.bmp	0	1	+	0	1	blank2r.bmp	500	7	C3r.bmp	500	1	blank2r.bmp	880	5	treu	880	0	0	0	0	0	0	0	0	0	0	0	0
2024-05-17	14:33:06	14:35:52	166128	6.6.1	4_exp_EVA_AWA_CON	43	B	A	Rpleas_acq	Same	Rpleas	2pleas	acq_US_pleas_nomask	acq1_nomask	1	19	0	0	300	300	0	0	456	50	1	0	loyal	ehrlich	retten	lachen	helfen	schön	lasch	eitel	rächen	leiden	hindern	schlecht	schlau	tolerant	spielen	fair	treu	freundlich	schroff	tyrannisch	strafen	faul	tot	fanatisch	1	blank2r.bmp	0	1	+	0	1	blank2r.bmp	500	1	GKQX	500	1	blank2r.bmp	880	5	helfen	880	0	0	0	0	0	0	0	0	0	0	0	0
2024-05-17	14:33:06	14:35:55	168576	6.6.1	4_exp_EVA_AWA_CON	43	B	A	Rpleas_acq	Same	Rpleas	2pleas	acq_new_pleas_nomask	acq1_nomask	1	20	0	0	300	300	0	0	963	50	1	0	loyal	ehrlich	retten	lachen	helfen	schön	lasch	eitel	rächen	leiden	hindern	schlecht	schlau	tolerant	spielen	fair	treu	freundlich	schroff	tyrannisch	strafen	faul	tot	fanatisch	1	blank2r.bmp	0	1	+	0	1	blank2r.bmp	500	6	C2r.bmp	500	1	blank2r.bmp	880	3	spielen	880	0	0	0	0	0	0	0	0	0	0	0	0
2024-05-17	14:33:06	14:35:57	171200	6.6.1	4_exp_EVA_AWA_CON	43	B	A	Rpleas_acq	Same	Rpleas	2pleas	acq_new_unple_nomask	acq1_nomask	1	21	0	0	300	300	0	0	1135	46	1	0	loyal	ehrlich	retten	lachen	helfen	schön	lasch	eitel	rächen	leiden	hindern	schlecht	schlau	tolerant	spielen	fair	treu	freundlich	schroff	tyrannisch	strafen	faul	tot	fanatisch	1	blank2r.bmp	0	1	+	0	1	blank2r.bmp	500	1	B1r.bmp	500	1	blank2r.bmp	880	6	fanatisch	880	0	0	0	0	0	0	0	0	0	0	0	0
2024-05-17	14:33:06	14:36:00	173632	6.6.1	4_exp_EVA_AWA_CON	43	B	A	Rpleas_acq	Same	Rpleas	2pleas	acq_US_unple_nomask	acq1_nomask	1	22	0	0	300	300	0	0	946	46	1	0	loyal	ehrlich	retten	lachen	helfen	schön	lasch	eitel	rächen	leiden	hindern	schlecht	schlau	tolerant	spielen	fair	treu	freundlich	schroff	tyrannisch	strafen	faul	tot	fanatisch	1	blank2r.bmp	0	1	+	0	1	blank2r.bmp	500	1	BMVZ	500	1	blank2r.bmp	880	1	lasch	880	0	0	0	0	0	0	0	0	0	0	0	0
2024-05-17	14:33:06	14:36:02	175729	6.6.1	4_exp_EVA_AWA_CON	43	B	A	Rpleas_acq	Same	Rpleas	2pleas	acq_new_pleas_nomask	acq1_nomask	1	23	0	0	300	300	0	0	610	50	1	0	loyal	ehrlich	retten	lachen	helfen	schön	lasch	eitel	rächen	leiden	hindern	schlecht	schlau	tolerant	spielen	fair	treu	freundlich	schroff	tyrannisch	strafen	faul	tot	fanatisch	1	blank2r.bmp	0	1	+	0	1	blank2r.bmp	500	7	C3r.bmp	500	1	blank2r.bmp	880	1	schlau	880	0	0	0	0	0	0	0	0	0	0	0	0
2024-05-17	14:33:06	14:36:04	178344	6.6.1	4_exp_EVA_AWA_CON	43	B	A	Rpleas_acq	Same	Rpleas	2pleas	acq_new_unple_nomask	acq1_nomask	1	24	0	0	300	300	0	0	1135	46	1	0	loyal	ehrlich	retten	lachen	helfen	schön	lasch	eitel	rächen	leiden	hindern	schlecht	schlau	tolerant	spielen	fair	treu	freundlich	schroff	tyrannisch	strafen	faul	tot	fanatisch	1	blank2r.bmp	0	1	+	0	1	blank2r.bmp	500	2	B2r.bmp	500	1	blank2r.bmp	880	5	tot	880	0	0	0	0	0	0	0	0	0	0	0	0
2024-05-17	14:33:06	14:36:07	180488	6.6.1	4_exp_EVA_AWA_CON	43	B	A	Rpleas_acq	Same	Rpleas	2pleas	acq_US_pleas_nomask	acq1_nomask	1	25	0	0	300	300	0	0	657	50	1	0	loyal	ehrlich	retten	lachen	helfen	schön	lasch	eitel	rächen	leiden	hindern	schlecht	schlau	tolerant	spielen	fair	treu	freundlich	schroff	tyrannisch	strafen	faul	tot	fanatisch	1	blank2r.bmp	0	1	+	0	1	blank2r.bmp	500	1	GKQX	500	1	blank2r.bmp	880	1	loyal	880	0	0	0	0	0	0	0	0	0	0	0	0
2024-05-17	14:33:06	14:36:09	183048	6.6.1	4_exp_EVA_AWA_CON	43	B	A	Rpleas_acq	Same	Rpleas	2pleas	acq_US_pleas_nomask	acq1_nomask	1	26	0	0	300	300	0	0	1076	50	1	0	loyal	ehrlich	retten	lachen	helfen	schön	lasch	eitel	rächen	leiden	hindern	schlecht	schlau	tolerant	spielen	fair	treu	freundlich	schroff	tyrannisch	strafen	faul	tot	fanatisch	1	blank2r.bmp	0	1	+	0	1	blank2r.bmp	500	1	GKQX	500	1	blank2r.bmp	880	6	schön	880	0	0	0	0	0	0	0	0	0	0	0	0
2024-05-17	14:33:06	14:36:11	185032	6.6.1	4_exp_EVA_AWA_CON	43	B	A	Rpleas_acq	Same	Rpleas	2pleas	acq_new_unple_nomask	acq1_nomask	1	27	0	0	300	300	0	0	498	46	1	0	loyal	ehrlich	retten	lachen	helfen	schön	lasch	eitel	rächen	leiden	hindern	schlecht	schlau	tolerant	spielen	fair	treu	freundlich	schroff	tyrannisch	strafen	faul	tot	fanatisch	1	blank2r.bmp	0	1	+	0	1	blank2r.bmp	500	3	B3r.bmp	500	1	blank2r.bmp	880	1	schroff	880	0	0	0	0	0	0	0	0	0	0	0	0
2024-05-17	14:33:06	14:36:14	187688	6.6.1	4_exp_EVA_AWA_CON	43	B	A	Rpleas_acq	Same	Rpleas	2pleas	acq_US_unple_nomask	acq1_nomask	1	28	0	0	300	300	0	0	1173	46	1	0	loyal	ehrlich	retten	lachen	helfen	schön	lasch	eitel	rächen	leiden	hindern	schlecht	schlau	tolerant	spielen	fair	treu	freundlich	schroff	tyrannisch	strafen	faul	tot	fanatisch	1	blank2r.bmp	0	1	+	0	1	blank2r.bmp	500	1	BMVZ	500	1	blank2r.bmp	880	2	eitel	880	0	0	0	0	0	0	0	0	0	0	0	0
2024-05-17	14:33:06	14:36:16	189864	6.6.1	4_exp_EVA_AWA_CON	43	B	A	Rpleas_acq	Same	Rpleas	2pleas	acq_new_pleas_nomask	acq1_nomask	1	29	0	0	300	300	0	0	687	50	1	0	loyal	ehrlich	retten	lachen	helfen	schön	lasch	eitel	rächen	leiden	hindern	schlecht	schlau	tolerant	spielen	fair	treu	freundlich	schroff	tyrannisch	strafen	faul	tot	fanatisch	1	blank2r.bmp	0	1	+	0	1	blank2r.bmp	500	4	B4r.bmp	500	1	blank2r.bmp	880	4	fair	880	0	0	0	0	0	0	0	0	0	0	0	0
2024-05-17	14:33:06	14:36:18	192352	6.6.1	4_exp_EVA_AWA_CON	43	B	A	Rpleas_acq	Same	Rpleas	2pleas	acq_US_unple_nomask	acq1_nomask	1	30	0	0	300	300	0	0	1004	46	1	0	loyal	ehrlich	retten	lachen	helfen	schön	lasch	eitel	rächen	leiden	hindern	schlecht	schlau	tolerant	spielen	fair	treu	freundlich	schroff	tyrannisch	strafen	faul	tot	fanatisch	1	blank2r.bmp	0	1	+	0	1	blank2r.bmp	500	1	BMVZ	500	1	blank2r.bmp	880	3	rächen	880	0	0	0	0	0	0	0	0	0	0	0	0
2024-05-17	14:33:06	14:36:20	194464	6.6.1	4_exp_EVA_AWA_CON	43	B	A	Rpleas_acq	Same	Rpleas	2pleas	acq_new_unple_nomask	acq1_nomask	1	31	0	0	300	300	0	0	624	46	1	0	loyal	ehrlich	retten	lachen	helfen	schön	lasch	eitel	rächen	leiden	hindern	schlecht	schlau	tolerant	spielen	fair	treu	freundlich	schroff	tyrannisch	strafen	faul	tot	fanatisch	1	blank2r.bmp	0	1	+	0	1	blank2r.bmp	500	5	C1r.bmp	500	1	blank2r.bmp	880	2	tyrannisch	880	0	0	0	0	0	0	0	0	0	0	0	0
2024-05-17	14:33:06	14:36:23	196608	6.6.1	4_exp_EVA_AWA_CON	43	B	A	Rpleas_acq	Same	Rpleas	2pleas	acq_new_pleas_nomask	acq1_nomask	1	32	0	0	300	300	0	0	657	50	1	0	loyal	ehrlich	retten	lachen	helfen	schön	lasch	eitel	rächen	leiden	hindern	schlecht	schlau	tolerant	spielen	fair	treu	freundlich	schroff	tyrannisch	strafen	faul	tot	fanatisch	1	blank2r.bmp	0	1	+	0	1	blank2r.bmp	500	8	C4r.bmp	500	1	blank2r.bmp	880	2	tolerant	880	0	0	0	0	0	0	0	0	0	0	0	0
2024-05-17	14:33:06	14:36:25	198640	6.6.1	4_exp_EVA_AWA_CON	43	B	A	Rpleas_acq	Same	Rpleas	2pleas	acq_US_pleas_nomask	acq1_nomask	1	33	0	0	300	300	0	0	547	50	1	0	loyal	ehrlich	retten	lachen	helfen	schön	lasch	eitel	rächen	leiden	hindern	schlecht	schlau	tolerant	spielen	fair	treu	freundlich	schroff	tyrannisch	strafen	faul	tot	fanatisch	1	blank2r.bmp	0	1	+	0	1	blank2r.bmp	500	1	GKQX	500	1	blank2r.bmp	880	5	helfen	880	0	0	0	0	0	0	0	0	0	0	0	0
2024-05-17	14:33:06	14:36:27	201080	6.6.1	4_exp_EVA_AWA_CON	43	B	A	Rpleas_acq	Same	Rpleas	2pleas	acq_US_unple_nomask	acq1_nomask	1	34	0	0	300	300	0	0	956	46	1	0	loyal	ehrlich	retten	lachen	helfen	schön	lasch	eitel	rächen	leiden	hindern	schlecht	schlau	tolerant	spielen	fair	treu	freundlich	schroff	tyrannisch	strafen	faul	tot	fanatisch	1	blank2r.bmp	0	1	+	0	1	blank2r.bmp	500	1	BMVZ	500	1	blank2r.bmp	880	5	hindern	880	0	0	0	0	0	0	0	0	0	0	0	0
2024-05-17	14:33:06	14:36:30	204432	6.6.1	4_exp_EVA_AWA_CON	43	B	A	Rpleas_acq	Same	Rpleas	2pleas	acq_new_unple_nomask	acq1_nomask	1	35	0	0	300	300	0	0	1866	46	1	0	loyal	ehrlich	retten	lachen	helfen	schön	lasch	eitel	rächen	leiden	hindern	schlecht	schlau	tolerant	spielen	fair	treu	freundlich	schroff	tyrannisch	strafen	faul	tot	fanatisch	1	blank2r.bmp	0	1	+	0	1	blank2r.bmp	500	1	B1r.bmp	500	1	blank2r.bmp	880	6	fanatisch	880	0	0	0	0	0	0	0	0	0	0	0	0
2024-05-17	14:33:06	14:36:33	207009	6.6.1	4_exp_EVA_AWA_CON	43	B	A	Rpleas_acq	Same	Rpleas	2pleas	acq_new_pleas_nomask	acq1_nomask	1	36	0	0	300	300	0	0	1090	50	1	0	loyal	ehrlich	retten	lachen	helfen	schön	lasch	eitel	rächen	leiden	hindern	schlecht	schlau	tolerant	spielen	fair	treu	freundlich	schroff	tyrannisch	strafen	faul	tot	fanatisch	1	blank2r.bmp	0	1	+	0	1	blank2r.bmp	500	2	B2r.bmp	500	1	blank2r.bmp	880	3	spielen	880	0	0	0	0	0	0	0	0	0	0	0	0
2024-05-17	14:33:06	14:37:11	245325	6.6.1	4_exp_EVA_AWA_CON	43	B	A	Rpleas_acq	Same	Rpleas	2pleas	acq_US_pleas_nomask	acq2_nomask	2	1	480	1	300	300	0	0	540	50	1	0	loyal	ehrlich	retten	lachen	helfen	schön	lasch	eitel	rächen	leiden	hindern	schlecht	schlau	tolerant	spielen	fair	treu	freundlich	schroff	tyrannisch	strafen	faul	tot	fanatisch	1	blank2r.bmp	0	1	+	0	1	blank2r.bmp	500	1	GKQX	500	1	blank2r.bmp	880	4	lachen	880	1	!	1313	1	!	1442	0	0	0	0	0	0
2024-05-17	14:33:06	14:37:14	247938	6.6.1	4_exp_EVA_AWA_CON	43	B	A	Rpleas_acq	Same	Rpleas	2pleas	acq_new_unple_nomask	acq2_nomask	2	2	480	0	300	300	0	0	834	46	1	0	loyal	ehrlich	retten	lachen	helfen	schön	lasch	eitel	rächen	leiden	hindern	schlecht	schlau	tolerant	spielen	fair	treu	freundlich	schroff	tyrannisch	strafen	faul	tot	fanatisch	1	blank2r.bmp	0	1	+	0	1	blank2r.bmp	500	5	C1r.bmp	500	1	blank2r.bmp	880	4	faul	880	1	!	1313	1	!	-1	0	0	0	0	0	0
2024-05-17	14:33:06	14:37:16	250188	6.6.1	4_exp_EVA_AWA_CON	43	B	A	Rpleas_acq	Same	Rpleas	2pleas	acq_new_unple_nomask	acq2_nomask	2	3	480	1	300	300	0	0	470	46	1	0	loyal	ehrlich	retten	lachen	helfen	schön	lasch	eitel	rächen	leiden	hindern	schlecht	schlau	tolerant	spielen	fair	treu	freundlich	schroff	tyrannisch	strafen	faul	tot	fanatisch	1	blank2r.bmp	0	1	+	0	1	blank2r.bmp	500	4	B4r.bmp	500	1	blank2r.bmp	880	3	strafen	880	1	!	1312	1	!	1372	0	0	0	0	0	0
2024-05-17	14:33:06	14:37:18	252322	6.6.1	4_exp_EVA_AWA_CON	43	B	A	Rpleas_acq	Same	Rpleas	2pleas	acq_new_pleas_nomask	acq2_nomask	2	4	480	0	300	300	0	0	355	50	1	0	loyal	ehrlich	retten	lachen	helfen	schön	lasch	eitel	rächen	leiden	hindern	schlecht	schlau	tolerant	spielen	fair	treu	freundlich	schroff	tyrannisch	strafen	faul	tot	fanatisch	1	blank2r.bmp	0	1	+	0	1	blank2r.bmp	500	7	C3r.bmp	500	1	blank2r.bmp	880	5	treu	880	1	!	-1	1	!	-1	0	0	0	0	0	0
2024-05-17	14:33:06	14:37:21	254837	6.6.1	4_exp_EVA_AWA_CON	43	B	A	Rpleas_acq	Same	Rpleas	2pleas	acq_new_pleas_nomask	acq2_nomask	2	5	480	1	300	300	0	0	536	46	0	0	loyal	ehrlich	retten	lachen	helfen	schön	lasch	eitel	rächen	leiden	hindern	schlecht	schlau	tolerant	spielen	fair	treu	freundlich	schroff	tyrannisch	strafen	faul	tot	fanatisch	1	blank2r.bmp	0	1	+	0	1	blank2r.bmp	500	8	C4r.bmp	500	1	blank2r.bmp	880	1	schlau	880	1	FEHLER	1729	1	!	1312	1	!	1437	0	0	0
2024-05-17	14:33:06	14:37:23	257011	6.6.1	4_exp_EVA_AWA_CON	43	B	A	Rpleas_acq	Same	Rpleas	2pleas	acq_US_pleas_nomask	acq2_nomask	2	6	480	0	300	300	0	0	600	50	1	0	loyal	ehrlich	retten	lachen	helfen	schön	lasch	eitel	rächen	leiden	hindern	schlecht	schlau	tolerant	spielen	fair	treu	freundlich	schroff	tyrannisch	strafen	faul	tot	fanatisch	1	blank2r.bmp	0	1	+	0	1	blank2r.bmp	500	1	GKQX	500	1	blank2r.bmp	880	3	retten	880	1	!	1313	1	!	-1	0	0	0	0	0	0
2024-05-17	14:33:06	14:37:25	259244	6.6.1	4_exp_EVA_AWA_CON	43	B	A	Rpleas_acq	Same	Rpleas	2pleas	acq_new_unple_nomask	acq2_nomask	2	7	480	1	300	300	0	0	450	46	1	0	loyal	ehrlich	retten	lachen	helfen	schön	lasch	eitel	rächen	leiden	hindern	schlecht	schlau	tolerant	spielen	fair	treu	freundlich	schroff	tyrannisch	strafen	faul	tot	fanatisch	1	blank2r.bmp	0	1	+	0	1	blank2r.bmp	500	6	C2r.bmp	500	1	blank2r.bmp	880	5	tot	880	1	!	1312	1	!	1352	0	0	0	0	0	0
2024-05-17	14:33:06	14:37:28	261682	6.6.1	4_exp_EVA_AWA_CON	43	B	A	Rpleas_acq	Same	Rpleas	2pleas	acq_US_unple_nomask	acq2_nomask	2	8	480	0	300	300	0	0	659	46	1	0	loyal	ehrlich	retten	lachen	helfen	schön	lasch	eitel	rächen	leiden	hindern	schlecht	schlau	tolerant	spielen	fair	treu	freundlich	schroff	tyrannisch	strafen	faul	tot	fanatisch	1	blank2r.bmp	0	1	+	0	1	blank2r.bmp	500	1	BMVZ	500	1	blank2r.bmp	880	6	schlecht	880	1	!	1313	1	!	-1	0	0	0	0	0	0
2024-05-17	14:33:06	14:37:30	263875	6.6.1	4_exp_EVA_AWA_CON	43	B	A	Rpleas_acq	Same	Rpleas	2pleas	acq_US_unple_nomask	acq2_nomask	2	9	480	1	300	300	0	0	420	46	1	0	loyal	ehrlich	retten	lachen	helfen	schön	lasch	eitel	rächen	leiden	hindern	schlecht	schlau	tolerant	spielen	fair	treu	freundlich	schroff	tyrannisch	strafen	faul	tot	fanatisch	1	blank2r.bmp	0	1	+	0	1	blank2r.bmp	500	1	BMVZ	500	1	blank2r.bmp	880	4	leiden	880	1	!	1313	1	!	1320	0	0	0	0	0	0
2024-05-17	14:33:06	14:37:32	266180	6.6.1	4_exp_EVA_AWA_CON	43	B	A	Rpleas_acq	Same	Rpleas	2pleas	acq_US_pleas_nomask	acq2_nomask	2	10	480	1	300	300	0	0	522	50	1	0	loyal	ehrlich	retten	lachen	helfen	schön	lasch	eitel	rächen	leiden	hindern	schlecht	schlau	tolerant	spielen	fair	treu	freundlich	schroff	tyrannisch	strafen	faul	tot	fanatisch	1	blank2r.bmp	0	1	+	0	1	blank2r.bmp	500	1	GKQX	500	1	blank2r.bmp	880	2	ehrlich	880	1	!	1312	1	!	1424	0	0	0	0	0	0
2024-05-17	14:33:06	14:37:35	268674	6.6.1	4_exp_EVA_AWA_CON	43	B	A	Rpleas_acq	Same	Rpleas	2pleas	acq_US_unple_nomask	acq2_nomask	2	11	480	0	300	300	0	0	717	46	1	0	loyal	ehrlich	retten	lachen	helfen	schön	lasch	eitel	rächen	leiden	hindern	schlecht	schlau	tolerant	spielen	fair	treu	freundlich	schroff	tyrannisch	strafen	faul	tot	fanatisch	1	blank2r.bmp	0	1	+	0	1	blank2r.bmp	500	1	BMVZ	500	1	blank2r.bmp	880	1	lasch	880	1	!	1312	1	!	-1	0	0	0	0	0	0
2024-05-17	14:33:06	14:37:37	271114	6.6.1	4_exp_EVA_AWA_CON	43	B	A	Rpleas_acq	Same	Rpleas	2pleas	acq_new_pleas_nomask	acq2_nomask	2	12	480	0	300	300	0	0	665	50	1	0	loyal	ehrlich	retten	lachen	helfen	schön	lasch	eitel	rächen	leiden	hindern	schlecht	schlau	tolerant	spielen	fair	treu	freundlich	schroff	tyrannisch	strafen	faul	tot	fanatisch	1	blank2r.bmp	0	1	+	0	1	blank2r.bmp	500	3	B3r.bmp	500	1	blank2r.bmp	880	6	freundlich	880	1	!	1313	1	!	-1	0	0	0	0	0	0
2024-05-17	14:33:06	14:37:39	273324	6.6.1	4_exp_EVA_AWA_CON	43	B	A	Rpleas_acq	Same	Rpleas	2pleas	acq_US_unple_nomask	acq2_nomask	2	13	480	1	300	300	0	0	431	46	1	0	loyal	ehrlich	retten	lachen	helfen	schön	lasch	eitel	rächen	leiden	hindern	schlecht	schlau	tolerant	spielen	fair	treu	freundlich	schroff	tyrannisch	strafen	faul	tot	fanatisch	1	blank2r.bmp	0	1	+	0	1	blank2r.bmp	500	1	BMVZ	500	1	blank2r.bmp	880	6	schlecht	880	1	!	1312	1	!	1333	0	0	0	0	0	0
2024-05-17	14:33:06	14:37:42	275674	6.6.1	4_exp_EVA_AWA_CON	43	B	A	Rpleas_acq	Same	Rpleas	2pleas	acq_US_pleas_nomask	acq2_nomask	2	14	480	0	300	300	0	0	572	50	1	0	loyal	ehrlich	retten	lachen	helfen	schön	lasch	eitel	rächen	leiden	hindern	schlecht	schlau	tolerant	spielen	fair	treu	freundlich	schroff	tyrannisch	strafen	faul	tot	fanatisch	1	blank2r.bmp	0	1	+	0	1	blank2r.bmp	500	1	GKQX	500	1	blank2r.bmp	880	5	helfen	880	1	!	1312	1	!	-1	0	0	0	0	0	0
2024-05-17	14:33:06	14:37:44	278211	6.6.1	4_exp_EVA_AWA_CON	43	B	A	Rpleas_acq	Same	Rpleas	2pleas	acq_new_pleas_nomask	acq2_nomask	2	15	480	0	300	300	0	0	557	46	0	0	loyal	ehrlich	retten	lachen	helfen	schön	lasch	eitel	rächen	leiden	hindern	schlecht	schlau	tolerant	spielen	fair	treu	freundlich	schroff	tyrannisch	strafen	faul	tot	fanatisch	1	blank2r.bmp	0	1	+	0	1	blank2r.bmp	500	4	B4r.bmp	500	1	blank2r.bmp	880	6	freundlich	880	1	FEHLER	1748	1	!	1313	1	!	-1	0	0	0
2024-05-17	14:33:06	14:37:46	280390	6.6.1	4_exp_EVA_AWA_CON	43	B	A	Rpleas_acq	Same	Rpleas	2pleas	acq_US_unple_nomask	acq2_nomask	2	16	480	0	300	300	0	0	401	50	0	0	loyal	ehrlich	retten	lachen	helfen	schön	lasch	eitel	rächen	leiden	hindern	schlecht	schlau	tolerant	spielen	fair	treu	freundlich	schroff	tyrannisch	strafen	faul	tot	fanatisch	1	blank2r.bmp	0	1	+	0	1	blank2r.bmp	500	1	BMVZ	500	1	blank2r.bmp	880	5	hindern	880	1	FEHLER	1595	1	!	-1	1	!	-1	0	0	0
2024-05-17	14:33:06	14:37:49	282661	6.6.1	4_exp_EVA_AWA_CON	43	B	A	Rpleas_acq	Same	Rpleas	2pleas	acq_new_pleas_nomask	acq2_nomask	2	17	480	1	300	300	0	0	492	46	0	0	loyal	ehrlich	retten	lachen	helfen	schön	lasch	eitel	rächen	leiden	hindern	schlecht	schlau	tolerant	spielen	fair	treu	freundlich	schroff	tyrannisch	strafen	faul	tot	fanatisch	1	blank2r.bmp	0	1	+	0	1	blank2r.bmp	500	3	B3r.bmp	500	1	blank2r.bmp	880	5	treu	880	1	FEHLER	1685	1	!	1312	1	!	1393	0	0	0
2024-05-17	14:33:06	14:37:51	284522	6.6.1	4_exp_EVA_AWA_CON	43	B	A	Rpleas_acq	Same	Rpleas	2pleas	acq_new_unple_nomask	acq2_nomask	2	18	480	0	300	300	0	0	284	46	1	0	loyal	ehrlich	retten	lachen	helfen	schön	lasch	eitel	rächen	leiden	hindern	schlecht	schlau	tolerant	spielen	fair	treu	freundlich	schroff	tyrannisch	strafen	faul	tot	fanatisch	1	blank2r.bmp	0	1	+	0	1	blank2r.bmp	500	6	C2r.bmp	500	1	blank2r.bmp	880	4	faul	880	1	!	-1	1	!	-1	0	0	0	0	0	0
2024-05-17	14:33:06	14:37:53	286748	6.6.1	4_exp_EVA_AWA_CON	43	B	A	Rpleas_acq	Same	Rpleas	2pleas	acq_US_pleas_nomask	acq2_nomask	2	19	480	1	300	300	0	0	447	50	1	0	loyal	ehrlich	retten	lachen	helfen	schön	lasch	eitel	rächen	leiden	hindern	schlecht	schlau	tolerant	spielen	fair	treu	freundlich	schroff	tyrannisch	strafen	faul	tot	fanatisch	1	blank2r.bmp	0	1	+	0	1	blank2r.bmp	500	1	GKQX	500	1	blank2r.bmp	880	2	ehrlich	880	1	!	1312	1	!	1348	0	0	0	0	0	0
2024-05-17	14:33:06	14:37:55	289338	6.6.1	4_exp_EVA_AWA_CON	43	B	A	Rpleas_acq	Same	Rpleas	2pleas	acq_US_unple_nomask	acq2_nomask	2	20	480	0	300	300	0	0	807	46	1	0	loyal	ehrlich	retten	lachen	helfen	schön	lasch	eitel	rächen	leiden	hindern	schlecht	schlau	tolerant	spielen	fair	treu	freundlich	schroff	tyrannisch	strafen	faul	tot	fanatisch	1	blank2r.bmp	0	1	+	0	1	blank2r.bmp	500	1	BMVZ	500	1	blank2r.bmp	880	2	eitel	880	1	!	1312	1	!	-1	0	0	0	0	0	0
2024-05-17	14:33:06	14:37:58	291803	6.6.1	4_exp_EVA_AWA_CON	43	B	A	Rpleas_acq	Same	Rpleas	2pleas	acq_new_unple_nomask	acq2_nomask	2	21	480	0	300	300	0	0	690	46	1	0	loyal	ehrlich	retten	lachen	helfen	schön	lasch	eitel	rächen	leiden	hindern	schlecht	schlau	tolerant	spielen	fair	treu	freundlich	schroff	tyrannisch	strafen	faul	tot	fanatisch	1	blank2r.bmp	0	1	+	0	1	blank2r.bmp	500	7	C3r.bmp	500	1	blank2r.bmp	880	3	strafen	880	1	!	1312	1	!	-1	0	0	0	0	0	0
2024-05-17	14:33:06	14:38:00	293915	6.6.1	4_exp_EVA_AWA_CON	43	B	A	Rpleas_acq	Same	Rpleas	2pleas	acq_US_pleas_nomask	acq2_nomask	2	22	480	0	300	300	0	0	330	50	1	0	loyal	ehrlich	retten	lachen	helfen	schön	lasch	eitel	rächen	leiden	hindern	schlecht	schlau	tolerant	spielen	fair	treu	freundlich	schroff	tyrannisch	strafen	faul	tot	fanatisch	1	blank2r.bmp	0	1	+	0	1	blank2r.bmp	500	1	GKQX	500	1	blank2r.bmp	880	3	retten	880	1	!	-1	1	!	-1	0	0	0	0	0	0
2024-05-17	14:33:06	14:38:02	296405	6.6.1	4_exp_EVA_AWA_CON	43	B	A	Rpleas_acq	Same	Rpleas	2pleas	acq_new_unple_nomask	acq2_nomask	2	23	480	1	300	300	0	0	507	50	0	0	loyal	ehrlich	retten	lachen	helfen	schön	lasch	eitel	rächen	leiden	hindern	schlecht	schlau	tolerant	spielen	fair	treu	freundlich	schroff	tyrannisch	strafen	faul	tot	fanatisch	1	blank2r.bmp	0	1	+	0	1	blank2r.bmp	500	5	C1r.bmp	500	1	blank2r.bmp	880	5	tot	880	1	FEHLER	1700	1	!	1313	1	!	1408	0	0	0
2024-05-17	14:33:06	14:38:05	298710	6.6.1	4_exp_EVA_AWA_CON	43	B	A	Rpleas_acq	Same	Rpleas	2pleas	acq_new_pleas_nomask	acq2_nomask	2	24	480	1	300	300	0	0	530	46	0	0	loyal	ehrlich	retten	lachen	helfen	schön	lasch	eitel	rächen	leiden	hindern	schlecht	schlau	tolerant	spielen	fair	treu	freundlich	schroff	tyrannisch	strafen	faul	tot	fanatisch	1	blank2r.bmp	0	1	+	0	1	blank2r.bmp	500	8	C4r.bmp	500	1	blank2r.bmp	880	4	fair	880	1	FEHLER	1724	1	!	1313	1	!	1432	0	0	0
2024-05-17	14:33:06	14:38:07	300674	6.6.1	4_exp_EVA_AWA_CON	43	B	A	Rpleas_acq	Same	Rpleas	2pleas	acq_new_pleas_nomask	acq2_nomask	2	25	480	0	300	300	0	0	386	50	1	0	loyal	ehrlich	retten	lachen	helfen	schön	lasch	eitel	rächen	leiden	hindern	schlecht	schlau	tolerant	spielen	fair	treu	freundlich	schroff	tyrannisch	strafen	faul	tot	fanatisch	1	blank2r.bmp	0	1	+	0	1	blank2r.bmp	500	2	B2r.bmp	500	1	blank2r.bmp	880	3	spielen	880	1	!	-1	1	!	-1	0	0	0	0	0	0
2024-05-17	14:33:06	14:38:09	302818	6.6.1	4_exp_EVA_AWA_CON	43	B	A	Rpleas_acq	Same	Rpleas	2pleas	acq_US_pleas_nomask	acq2_nomask	2	26	480	0	300	300	0	0	369	50	1	0	loyal	ehrlich	retten	lachen	helfen	schön	lasch	eitel	rächen	leiden	hindern	schlecht	schlau	tolerant	spielen	fair	treu	freundlich	schroff	tyrannisch	strafen	faul	tot	fanatisch	1	blank2r.bmp	0	1	+	0	1	blank2r.bmp	500	1	GKQX	500	1	blank2r.bmp	880	4	lachen	880	1	!	-1	1	!	-1	0	0	0	0	0	0
2024-05-17	14:33:06	14:38:11	305028	6.6.1	4_exp_EVA_AWA_CON	43	B	A	Rpleas_acq	Same	Rpleas	2pleas	acq_US_pleas_nomask	acq2_nomask	2	27	480	1	300	300	0	0	435	50	1	0	loyal	ehrlich	retten	lachen	helfen	schön	lasch	eitel	rächen	leiden	hindern	schlecht	schlau	tolerant	spielen	fair	treu	freundlich	schroff	tyrannisch	strafen	faul	tot	fanatisch	1	blank2r.bmp	0	1	+	0	1	blank2r.bmp	500	1	GKQX	500	1	blank2r.bmp	880	6	schön	880	1	!	1312	1	!	1337	0	0	0	0	0	0
2024-05-17	14:33:06	14:38:13	307317	6.6.1	4_exp_EVA_AWA_CON	43	B	A	Rpleas_acq	Same	Rpleas	2pleas	acq_new_pleas_nomask	acq2_nomask	2	28	480	0	300	300	0	0	312	46	0	0	loyal	ehrlich	retten	lachen	helfen	schön	lasch	eitel	rächen	leiden	hindern	schlecht	schlau	tolerant	spielen	fair	treu	freundlich	schroff	tyrannisch	strafen	faul	tot	fanatisch	1	blank2r.bmp	0	1	+	0	1	blank2r.bmp	500	1	B1r.bmp	500	1	blank2r.bmp	880	1	schlau	880	1	FEHLER	1505	1	!	-1	1	!	-1	0	0	0
2024-05-17	14:33:06	14:38:20	313933	6.6.1	4_exp_EVA_AWA_CON	43	B	A	Rpleas_acq	Same	Rpleas	2pleas	acq_new_unple_nomask	acq2_nomask	2	29	480	0	300	300	0	0	4836	50	0	0	loyal	ehrlich	retten	lachen	helfen	schön	lasch	eitel	rächen	leiden	hindern	schlecht	schlau	tolerant	spielen	fair	treu	freundlich	schroff	tyrannisch	strafen	faul	tot	fanatisch	1	blank2r.bmp	0	1	+	0	1	blank2r.bmp	500	4	B4r.bmp	500	1	blank2r.bmp	880	1	schroff	880	1	FEHLER	6030	1	!	1313	1	!	-1	0	0	0
2024-05-17	14:33:06	14:38:22	315972	6.6.1	4_exp_EVA_AWA_CON	43	B	A	Rpleas_acq	Same	Rpleas	2pleas	acq_US_unple_nomask	acq2_nomask	2	30	480	1	300	300	0	0	462	46	1	0	loyal	ehrlich	retten	lachen	helfen	schön	lasch	eitel	rächen	leiden	hindern	schlecht	schlau	tolerant	spielen	fair	treu	freundlich	schroff	tyrannisch	strafen	faul	tot	fanatisch	1	blank2r.bmp	0	1	+	0	1	blank2r.bmp	500	1	BMVZ	500	1	blank2r.bmp	880	1	lasch	880	1	!	1312	1	!	1364	0	0	0	0	0	0
2024-05-17	14:33:06	14:38:24	318445	6.6.1	4_exp_EVA_AWA_CON	43	B	A	Rpleas_acq	Same	Rpleas	2pleas	acq_new_unple_nomask	acq2_nomask	2	31	480	1	300	300	0	0	493	50	0	0	loyal	ehrlich	retten	lachen	helfen	schön	lasch	eitel	rächen	leiden	hindern	schlecht	schlau	tolerant	spielen	fair	treu	freundlich	schroff	tyrannisch	strafen	faul	tot	fanatisch	1	blank2r.bmp	0	1	+	0	1	blank2r.bmp	500	6	C2r.bmp	500	1	blank2r.bmp	880	6	fanatisch	880	1	FEHLER	1686	1	!	1312	1	!	1394	0	0	0
2024-05-17	14:33:06	14:38:27	320669	6.6.1	4_exp_EVA_AWA_CON	43	B	A	Rpleas_acq	Same	Rpleas	2pleas	acq_US_pleas_nomask	acq2_nomask	2	32	480	1	300	300	0	0	445	46	0	0	loyal	ehrlich	retten	lachen	helfen	schön	lasch	eitel	rächen	leiden	hindern	schlecht	schlau	tolerant	spielen	fair	treu	freundlich	schroff	tyrannisch	strafen	faul	tot	fanatisch	1	blank2r.bmp	0	1	+	0	1	blank2r.bmp	500	1	GKQX	500	1	blank2r.bmp	880	1	loyal	880	1	FEHLER	1639	1	!	1312	1	!	1347	0	0	0
2024-05-17	14:33:06	14:38:29	322941	6.6.1	4_exp_EVA_AWA_CON	43	B	A	Rpleas_acq	Same	Rpleas	2pleas	acq_US_unple_nomask	acq2_nomask	2	33	480	1	300	300	0	0	496	50	0	0	loyal	ehrlich	retten	lachen	helfen	schön	lasch	eitel	rächen	leiden	hindern	schlecht	schlau	tolerant	spielen	fair	treu	freundlich	schroff	tyrannisch	strafen	faul	tot	fanatisch	1	blank2r.bmp	0	1	+	0	1	blank2r.bmp	500	1	BMVZ	500	1	blank2r.bmp	880	4	leiden	880	1	FEHLER	1689	1	!	1313	1	!	1397	0	0	0
2024-05-17	14:33:06	14:38:31	324940	6.6.1	4_exp_EVA_AWA_CON	43	B	A	Rpleas_acq	Same	Rpleas	2pleas	acq_US_unple_nomask	acq2_nomask	2	34	480	1	300	300	0	0	424	46	1	0	loyal	ehrlich	retten	lachen	helfen	schön	lasch	eitel	rächen	leiden	hindern	schlecht	schlau	tolerant	spielen	fair	treu	freundlich	schroff	tyrannisch	strafen	faul	tot	fanatisch	1	blank2r.bmp	0	1	+	0	1	blank2r.bmp	500	1	BMVZ	500	1	blank2r.bmp	880	3	rächen	880	1	!	1312	1	!	1326	0	0	0	0	0	0
2024-05-17	14:33:06	14:38:33	327354	6.6.1	4_exp_EVA_AWA_CON	43	B	A	Rpleas_acq	Same	Rpleas	2pleas	acq_new_unple_nomask	acq2_nomask	2	35	480	0	300	300	0	0	639	46	1	0	loyal	ehrlich	retten	lachen	helfen	schön	lasch	eitel	rächen	leiden	hindern	schlecht	schlau	tolerant	spielen	fair	treu	freundlich	schroff	tyrannisch	strafen	faul	tot	fanatisch	1	blank2r.bmp	0	1	+	0	1	blank2r.bmp	500	1	B1r.bmp	500	1	blank2r.bmp	880	2	tyrannisch	880	1	!	1312	1	!	-1	0	0	0	0	0	0
2024-05-17	14:33:06	14:38:36	329638	6.6.1	4_exp_EVA_AWA_CON	43	B	A	Rpleas_acq	Same	Rpleas	2pleas	acq_new_pleas_nomask	acq2_nomask	2	36	480	0	300	300	0	0	307	46	0	0	loyal	ehrlich	retten	lachen	helfen	schön	lasch	eitel	rächen	leiden	hindern	schlecht	schlau	tolerant	spielen	fair	treu	freundlich	schroff	tyrannisch	strafen	faul	tot	fanatisch	1	blank2r.bmp	0	1	+	0	1	blank2r.bmp	500	5	C1r.bmp	500	1	blank2r.bmp	880	2	tolerant	880	1	FEHLER	1501	1	!	-1	1	!	-1	0	0	0
2024-05-17	14:33:06	14:38:55	349074	6.6.1	4_exp_EVA_AWA_CON	43	B	A	Rpleas_acq	Same	Rpleas	2pleas	acq_US_unple_nomask	acq3_nomask	3	1	453	0	300	300	0	0	2947	46	1	0	loyal	ehrlich	retten	lachen	helfen	schön	lasch	eitel	rächen	leiden	hindern	schlecht	schlau	tolerant	spielen	fair	treu	freundlich	schroff	tyrannisch	strafen	faul	tot	fanatisch	1	blank2r.bmp	0	1	+	0	1	blank2r.bmp	500	1	BMVZ	500	1	blank2r.bmp	880	4	leiden	880	1	!	1293	1	!	-1	0	0	0	0	0	0
2024-05-17	14:33:06	14:38:57	351284	6.6.1	4_exp_EVA_AWA_CON	43	B	A	Rpleas_acq	Same	Rpleas	2pleas	acq_US_pleas_nomask	acq3_nomask	3	2	453	1	300	300	0	0	431	50	1	0	loyal	ehrlich	retten	lachen	helfen	schön	lasch	eitel	rächen	leiden	hindern	schlecht	schlau	tolerant	spielen	fair	treu	freundlich	schroff	tyrannisch	strafen	faul	tot	fanatisch	1	blank2r.bmp	0	1	+	0	1	blank2r.bmp	500	1	GKQX	500	1	blank2r.bmp	880	2	ehrlich	880	1	!	1292	1	!	1333	0	0	0	0	0	0
2024-05-17	14:33:06	14:38:59	353378	6.6.1	4_exp_EVA_AWA_CON	43	B	A	Rpleas_acq	Same	Rpleas	2pleas	acq_US_unple_nomask	acq3_nomask	3	3	453	0	300	300	0	0	316	46	1	0	loyal	ehrlich	retten	lachen	helfen	schön	lasch	eitel	rächen	leiden	hindern	schlecht	schlau	tolerant	spielen	fair	treu	freundlich	schroff	tyrannisch	strafen	faul	tot	fanatisch	1	blank2r.bmp	0	1	+	0	1	blank2r.bmp	500	1	BMVZ	500	1	blank2r.bmp	880	1	lasch	880	1	!	-1	1	!	-1	0	0	0	0	0	0
2024-05-17	14:33:06	14:39:02	355818	6.6.1	4_exp_EVA_AWA_CON	43	B	A	Rpleas_acq	Same	Rpleas	2pleas	acq_US_unple_nomask	acq3_nomask	3	4	453	0	300	300	0	0	665	46	1	0	loyal	ehrlich	retten	lachen	helfen	schön	lasch	eitel	rächen	leiden	hindern	schlecht	schlau	tolerant	spielen	fair	treu	freundlich	schroff	tyrannisch	strafen	faul	tot	fanatisch	1	blank2r.bmp	0	1	+	0	1	blank2r.bmp	500	1	BMVZ	500	1	blank2r.bmp	880	5	hindern	880	1	!	1292	1	!	-1	0	0	0	0	0	0
2024-05-17	14:33:06	14:39:04	358120	6.6.1	4_exp_EVA_AWA_CON	43	B	A	Rpleas_acq	Same	Rpleas	2pleas	acq_US_pleas_nomask	acq3_nomask	3	5	453	0	300	300	0	0	527	50	1	0	loyal	ehrlich	retten	lachen	helfen	schön	lasch	eitel	rächen	leiden	hindern	schlecht	schlau	tolerant	spielen	fair	treu	freundlich	schroff	tyrannisch	strafen	faul	tot	fanatisch	1	blank2r.bmp	0	1	+	0	1	blank2r.bmp	500	1	GKQX	500	1	blank2r.bmp	880	1	loyal	880	1	!	1293	1	!	-1	0	0	0	0	0	0
2024-05-17	14:33:06	14:39:06	360424	6.6.1	4_exp_EVA_AWA_CON	43	B	A	Rpleas_acq	Same	Rpleas	2pleas	acq_US_pleas_nomask	acq3_nomask	3	6	453	0	300	300	0	0	530	50	1	0	loyal	ehrlich	retten	lachen	helfen	schön	lasch	eitel	rächen	leiden	hindern	schlecht	schlau	tolerant	spielen	fair	treu	freundlich	schroff	tyrannisch	strafen	faul	tot	fanatisch	1	blank2r.bmp	0	1	+	0	1	blank2r.bmp	500	1	GKQX	500	1	blank2r.bmp	880	4	lachen	880	1	!	1292	1	!	-1	0	0	0	0	0	0
2024-05-17	14:33:06	14:39:09	362668	6.6.1	4_exp_EVA_AWA_CON	43	B	A	Rpleas_acq	Same	Rpleas	2pleas	acq_US_pleas_nomask	acq3_nomask	3	7	453	1	300	300	0	0	468	50	1	0	loyal	ehrlich	retten	lachen	helfen	schön	lasch	eitel	rächen	leiden	hindern	schlecht	schlau	tolerant	spielen	fair	treu	freundlich	schroff	tyrannisch	strafen	faul	tot	fanatisch	1	blank2r.bmp	0	1	+	0	1	blank2r.bmp	500	1	GKQX	500	1	blank2r.bmp	880	3	retten	880	1	!	1293	1	!	1370	0	0	0	0	0	0
2024-05-17	14:33:06	14:39:11	364997	6.6.1	4_exp_EVA_AWA_CON	43	B	A	Rpleas_acq	Same	Rpleas	2pleas	acq_US_unple_nomask	acq3_nomask	3	8	453	0	300	300	0	0	345	50	0	0	loyal	ehrlich	retten	lachen	helfen	schön	lasch	eitel	rächen	leiden	hindern	schlecht	schlau	tolerant	spielen	fair	treu	freundlich	schroff	tyrannisch	strafen	faul	tot	fanatisch	1	blank2r.bmp	0	1	+	0	1	blank2r.bmp	500	1	BMVZ	500	1	blank2r.bmp	880	6	schlecht	880	1	FEHLER	1538	1	!	-1	1	!	-1	0	0	0
2024-05-17	14:33:06	14:39:13	367052	6.6.1	4_exp_EVA_AWA_CON	43	B	A	Rpleas_acq	Same	Rpleas	2pleas	acq_US_pleas_nomask	acq3_nomask	3	9	453	1	300	300	0	0	479	50	1	0	loyal	ehrlich	retten	lachen	helfen	schön	lasch	eitel	rächen	leiden	hindern	schlecht	schlau	tolerant	spielen	fair	treu	freundlich	schroff	tyrannisch	strafen	faul	tot	fanatisch	1	blank2r.bmp	0	1	+	0	1	blank2r.bmp	500	1	GKQX	500	1	blank2r.bmp	880	6	schön	880	1	!	1292	1	!	1382	0	0	0	0	0	0
2024-05-17	14:33:06	14:39:15	369234	6.6.1	4_exp_EVA_AWA_CON	43	B	A	Rpleas_acq	Same	Rpleas	2pleas	acq_US_unple_nomask	acq3_nomask	3	10	453	1	300	300	0	0	402	46	1	0	loyal	ehrlich	retten	lachen	helfen	schön	lasch	eitel	rächen	leiden	hindern	schlecht	schlau	tolerant	spielen	fair	treu	freundlich	schroff	tyrannisch	strafen	faul	tot	fanatisch	1	blank2r.bmp	0	1	+	0	1	blank2r.bmp	500	1	BMVZ	500	1	blank2r.bmp	880	2	eitel	880	1	!	1292	1	!	1302	0	0	0	0	0	0
2024-05-17	14:33:06	14:39:18	371544	6.6.1	4_exp_EVA_AWA_CON	43	B	A	Rpleas_acq	Same	Rpleas	2pleas	acq_US_unple_nomask	acq3_nomask	3	11	453	0	300	300	0	0	533	46	1	0	loyal	ehrlich	retten	lachen	helfen	schön	lasch	eitel	rächen	leiden	hindern	schlecht	schlau	tolerant	spielen	fair	treu	freundlich	schroff	tyrannisch	strafen	faul	tot	fanatisch	1	blank2r.bmp	0	1	+	0	1	blank2r.bmp	500	1	BMVZ	500	1	blank2r.bmp	880	3	rächen	880	1	!	1292	1	!	-1	0	0	0	0	0	0
2024-05-17	14:33:06	14:39:20	373914	6.6.1	4_exp_EVA_AWA_CON	43	B	A	Rpleas_acq	Same	Rpleas	2pleas	acq_US_pleas_nomask	acq3_nomask	3	12	453	0	300	300	0	0	589	50	1	0	loyal	ehrlich	retten	lachen	helfen	schön	lasch	eitel	rächen	leiden	hindern	schlecht	schlau	tolerant	spielen	fair	treu	freundlich	schroff	tyrannisch	strafen	faul	tot	fanatisch	1	blank2r.bmp	0	1	+	0	1	blank2r.bmp	500	1	GKQX	500	1	blank2r.bmp	880	5	helfen	880	1	!	1292	1	!	-1	0	0	0	0	0	0
2024-05-17	14:33:06	14:39:22	376216	6.6.1	4_exp_EVA_AWA_CON	43	B	A	Rpleas_acq	Same	Rpleas	2pleas	acq_US_pleas_nomask	acq3_nomask	3	13	453	0	300	300	0	0	532	50	1	0	loyal	ehrlich	retten	lachen	helfen	schön	lasch	eitel	rächen	leiden	hindern	schlecht	schlau	tolerant	spielen	fair	treu	freundlich	schroff	tyrannisch	strafen	faul	tot	fanatisch	1	blank2r.bmp	0	1	+	0	1	blank2r.bmp	500	1	GKQX	500	1	blank2r.bmp	880	6	schön	880	1	!	1292	1	!	-1	0	0	0	0	0	0
2024-05-17	14:33:06	14:39:25	378570	6.6.1	4_exp_EVA_AWA_CON	43	B	A	Rpleas_acq	Same	Rpleas	2pleas	acq_US_unple_nomask	acq3_nomask	3	14	453	0	300	300	0	0	572	46	1	0	loyal	ehrlich	retten	lachen	helfen	schön	lasch	eitel	rächen	leiden	hindern	schlecht	schlau	tolerant	spielen	fair	treu	freundlich	schroff	tyrannisch	strafen	faul	tot	fanatisch	1	blank2r.bmp	0	1	+	0	1	blank2r.bmp	500	1	BMVZ	500	1	blank2r.bmp	880	3	rächen	880	1	!	1292	1	!	-1	0	0	0	0	0	0
2024-05-17	14:33:06	14:39:27	380836	6.6.1	4_exp_EVA_AWA_CON	43	B	A	Rpleas_acq	Same	Rpleas	2pleas	acq_US_unple_nomask	acq3_nomask	3	15	453	1	300	300	0	0	485	46	1	0	loyal	ehrlich	retten	lachen	helfen	schön	lasch	eitel	rächen	leiden	hindern	schlecht	schlau	tolerant	spielen	fair	treu	freundlich	schroff	tyrannisch	strafen	faul	tot	fanatisch	1	blank2r.bmp	0	1	+	0	1	blank2r.bmp	500	1	BMVZ	500	1	blank2r.bmp	880	4	leiden	880	1	!	1293	1	!	1386	0	0	0	0	0	0
2024-05-17	14:33:06	14:39:29	383222	6.6.1	4_exp_EVA_AWA_CON	43	B	A	Rpleas_acq	Same	Rpleas	2pleas	acq_US_pleas_nomask	acq3_nomask	3	16	453	1	300	300	0	0	407	46	0	0	loyal	ehrlich	retten	lachen	helfen	schön	lasch	eitel	rächen	leiden	hindern	schlecht	schlau	tolerant	spielen	fair	treu	freundlich	schroff	tyrannisch	strafen	faul	tot	fanatisch	1	blank2r.bmp	0	1	+	0	1	blank2r.bmp	500	1	GKQX	500	1	blank2r.bmp	880	4	lachen	880	1	FEHLER	1601	1	!	1293	1	!	1309	0	0	0
2024-05-17	14:33:06	14:39:31	385205	6.6.1	4_exp_EVA_AWA_CON	43	B	A	Rpleas_acq	Same	Rpleas	2pleas	acq_US_pleas_nomask	acq3_nomask	3	17	453	1	300	300	0	0	410	50	1	0	loyal	ehrlich	retten	lachen	helfen	schön	lasch	eitel	rächen	leiden	hindern	schlecht	schlau	tolerant	spielen	fair	treu	freundlich	schroff	tyrannisch	strafen	faul	tot	fanatisch	1	blank2r.bmp	0	1	+	0	1	blank2r.bmp	500	1	GKQX	500	1	blank2r.bmp	880	2	ehrlich	880	1	!	1292	1	!	1312	0	0	0	0	0	0
2024-05-17	14:33:06	14:39:33	387338	6.6.1	4_exp_EVA_AWA_CON	43	B	A	Rpleas_acq	Same	Rpleas	2pleas	acq_US_pleas_nomask	acq3_nomask	3	18	453	0	300	300	0	0	354	50	1	0	loyal	ehrlich	retten	lachen	helfen	schön	lasch	eitel	rächen	leiden	hindern	schlecht	schlau	tolerant	spielen	fair	treu	freundlich	schroff	tyrannisch	strafen	faul	tot	fanatisch	1	blank2r.bmp	0	1	+	0	1	blank2r.bmp	500	1	GKQX	500	1	blank2r.bmp	880	5	helfen	880	1	!	-1	1	!	-1	0	0	0	0	0	0
2024-05-17	14:33:06	14:39:36	389690	6.6.1	4_exp_EVA_AWA_CON	43	B	A	Rpleas_acq	Same	Rpleas	2pleas	acq_US_unple_nomask	acq3_nomask	3	19	453	0	300	300	0	0	575	46	1	0	loyal	ehrlich	retten	lachen	helfen	schön	lasch	eitel	rächen	leiden	hindern	schlecht	schlau	tolerant	spielen	fair	treu	freundlich	schroff	tyrannisch	strafen	faul	tot	fanatisch	1	blank2r.bmp	0	1	+	0	1	blank2r.bmp	500	1	BMVZ	500	1	blank2r.bmp	880	2	eitel	880	1	!	1292	1	!	-1	0	0	0	0	0	0
2024-05-17	14:33:06	14:39:38	392147	6.6.1	4_exp_EVA_AWA_CON	43	B	A	Rpleas_acq	Same	Rpleas	2pleas	acq_US_unple_nomask	acq3_nomask	3	20	453	0	300	300	0	0	679	46	1	0	loyal	ehrlich	retten	lachen	helfen	schön	lasch	eitel	rächen	leiden	hindern	schlecht	schlau	tolerant	spielen	fair	treu	freundlich	schroff	tyrannisch	strafen	faul	tot	fanatisch	1	blank2r.bmp	0	1	+	0	1	blank2r.bmp	500	1	BMVZ	500	1	blank2r.bmp	880	1	lasch	880	1	!	1292	1	!	-1	0	0	0	0	0	0
2024-05-17	14:33:06	14:39:40	394422	6.6.1	4_exp_EVA_AWA_CON	43	B	A	Rpleas_acq	Same	Rpleas	2pleas	acq_US_unple_nomask	acq3_nomask	3	21	453	0	300	300	0	0	290	50	0	0	loyal	ehrlich	retten	lachen	helfen	schön	lasch	eitel	rächen	leiden	hindern	schlecht	schlau	tolerant	spielen	fair	treu	freundlich	schroff	tyrannisch	strafen	faul	tot	fanatisch	1	blank2r.bmp	0	1	+	0	1	blank2r.bmp	500	1	BMVZ	500	1	blank2r.bmp	880	6	schlecht	880	1	FEHLER	1484	1	!	-1	1	!	-1	0	0	0
2024-05-17	14:33:06	14:39:43	396565	6.6.1	4_exp_EVA_AWA_CON	43	B	A	Rpleas_acq	Same	Rpleas	2pleas	acq_US_pleas_nomask	acq3_nomask	3	22	453	0	300	300	0	0	362	46	0	0	loyal	ehrlich	retten	lachen	helfen	schön	lasch	eitel	rächen	leiden	hindern	schlecht	schlau	tolerant	spielen	fair	treu	freundlich	schroff	tyrannisch	strafen	faul	tot	fanatisch	1	blank2r.bmp	0	1	+	0	1	blank2r.bmp	500	1	GKQX	500	1	blank2r.bmp	880	1	loyal	880	1	FEHLER	1556	1	!	-1	1	!	-1	0	0	0
2024-05-17	14:33:06	14:39:45	398596	6.6.1	4_exp_EVA_AWA_CON	43	B	A	Rpleas_acq	Same	Rpleas	2pleas	acq_US_unple_nomask	acq3_nomask	3	23	453	1	300	300	0	0	453	46	1	0	loyal	ehrlich	retten	lachen	helfen	schön	lasch	eitel	rächen	leiden	hindern	schlecht	schlau	tolerant	spielen	fair	treu	freundlich	schroff	tyrannisch	strafen	faul	tot	fanatisch	1	blank2r.bmp	0	1	+	0	1	blank2r.bmp	500	1	BMVZ	500	1	blank2r.bmp	880	5	hindern	880	1	!	1292	1	!	1355	0	0	0	0	0	0
2024-05-17	14:33:06	14:39:47	400860	6.6.1	4_exp_EVA_AWA_CON	43	B	A	Rpleas_acq	Same	Rpleas	2pleas	acq_US_pleas_nomask	acq3_nomask	3	24	453	1	300	300	0	0	486	50	1	0	loyal	ehrlich	retten	lachen	helfen	schön	lasch	eitel	rächen	leiden	hindern	schlecht	schlau	tolerant	spielen	fair	treu	freundlich	schroff	tyrannisch	strafen	faul	tot	fanatisch	1	blank2r.bmp	0	1	+	0	1	blank2r.bmp	500	1	GKQX	500	1	blank2r.bmp	880	3	retten	880	1	!	1292	1	!	1387	0	0	0	0	0	0
2024-05-17	14:33:06	14:39:49	403250	6.6.1	4_exp_EVA_AWA_CON	43	B	A	Rpleas_acq	Same	Rpleas	2pleas	acq_US_pleas_nomask	acq3_nomask	3	25	453	0	300	300	0	0	616	50	1	0	loyal	ehrlich	retten	lachen	helfen	schön	lasch	eitel	rächen	leiden	hindern	schlecht	schlau	tolerant	spielen	fair	treu	freundlich	schroff	tyrannisch	strafen	faul	tot	fanatisch	1	blank2r.bmp	0	1	+	0	1	blank2r.bmp	500	1	GKQX	500	1	blank2r.bmp	880	2	ehrlich	880	1	!	1293	1	!	-1	0	0	0	0	0	0
2024-05-17	14:33:06	14:39:52	405726	6.6.1	4_exp_EVA_AWA_CON	43	B	A	Rpleas_acq	Same	Rpleas	2pleas	acq_US_pleas_nomask	acq3_nomask	3	26	453	1	300	300	0	0	497	46	0	0	loyal	ehrlich	retten	lachen	helfen	schön	lasch	eitel	rächen	leiden	hindern	schlecht	schlau	tolerant	spielen	fair	treu	freundlich	schroff	tyrannisch	strafen	faul	tot	fanatisch	1	blank2r.bmp	0	1	+	0	1	blank2r.bmp	500	1	GKQX	500	1	blank2r.bmp	880	5	helfen	880	1	FEHLER	1690	1	!	1292	1	!	1398	0	0	0
2024-05-17	14:33:06	14:39:54	407772	6.6.1	4_exp_EVA_AWA_CON	43	B	A	Rpleas_acq	Same	Rpleas	2pleas	acq_US_pleas_nomask	acq3_nomask	3	27	453	1	300	300	0	0	473	50	1	0	loyal	ehrlich	retten	lachen	helfen	schön	lasch	eitel	rächen	leiden	hindern	schlecht	schlau	tolerant	spielen	fair	treu	freundlich	schroff	tyrannisch	strafen	faul	tot	fanatisch	1	blank2r.bmp	0	1	+	0	1	blank2r.bmp	500	1	GKQX	500	1	blank2r.bmp	880	1	loyal	880	1	!	1292	1	!	1375	0	0	0	0	0	0
2024-05-17	14:33:06	14:39:56	410082	6.6.1	4_exp_EVA_AWA_CON	43	B	A	Rpleas_acq	Same	Rpleas	2pleas	acq_US_pleas_nomask	acq3_nomask	3	28	453	0	300	300	0	0	534	50	1	0	loyal	ehrlich	retten	lachen	helfen	schön	lasch	eitel	rächen	leiden	hindern	schlecht	schlau	tolerant	spielen	fair	treu	freundlich	schroff	tyrannisch	strafen	faul	tot	fanatisch	1	blank2r.bmp	0	1	+	0	1	blank2r.bmp	500	1	GKQX	500	1	blank2r.bmp	880	6	schön	880	1	!	1293	1	!	-1	0	0	0	0	0	0
2024-05-17	14:33:06	14:39:58	412411	6.6.1	4_exp_EVA_AWA_CON	43	B	A	Rpleas_acq	Same	Rpleas	2pleas	acq_US_unple_nomask	acq3_nomask	3	29	453	0	300	300	0	0	550	46	1	0	loyal	ehrlich	retten	lachen	helfen	schön	lasch	eitel	rächen	leiden	hindern	schlecht	schlau	tolerant	spielen	fair	treu	freundlich	schroff	tyrannisch	strafen	faul	tot	fanatisch	1	blank2r.bmp	0	1	+	0	1	blank2r.bmp	500	1	BMVZ	500	1	blank2r.bmp	880	1	lasch	880	1	!	1292	1	!	-1	0	0	0	0	0	0
2024-05-17	14:33:06	14:40:01	414770	6.6.1	4_exp_EVA_AWA_CON	43	B	A	Rpleas_acq	Same	Rpleas	2pleas	acq_US_unple_nomask	acq3_nomask	3	30	453	0	300	300	0	0	579	46	1	0	loyal	ehrlich	retten	lachen	helfen	schön	lasch	eitel	rächen	leiden	hindern	schlecht	schlau	tolerant	spielen	fair	treu	freundlich	schroff	tyrannisch	strafen	faul	tot	fanatisch	1	blank2r.bmp	0	1	+	0	1	blank2r.bmp	500	1	BMVZ	500	1	blank2r.bmp	880	3	rächen	880	1	!	1293	1	!	-1	0	0	0	0	0	0
2024-05-17	14:33:06	14:40:03	417090	6.6.1	4_exp_EVA_AWA_CON	43	B	A	Rpleas_acq	Same	Rpleas	2pleas	acq_US_pleas_nomask	acq3_nomask	3	31	453	0	300	300	0	0	547	50	1	0	loyal	ehrlich	retten	lachen	helfen	schön	lasch	eitel	rächen	leiden	hindern	schlecht	schlau	tolerant	spielen	fair	treu	freundlich	schroff	tyrannisch	strafen	faul	tot	fanatisch	1	blank2r.bmp	0	1	+	0	1	blank2r.bmp	500	1	GKQX	500	1	blank2r.bmp	880	3	retten	880	1	!	1293	1	!	-1	0	0	0	0	0	0
2024-05-17	14:33:06	14:40:05	419442	6.6.1	4_exp_EVA_AWA_CON	43	B	A	Rpleas_acq	Same	Rpleas	2pleas	acq_US_unple_nomask	acq3_nomask	3	32	453	0	300	300	0	0	578	46	1	0	loyal	ehrlich	retten	lachen	helfen	schön	lasch	eitel	rächen	leiden	hindern	schlecht	schlau	tolerant	spielen	fair	treu	freundlich	schroff	tyrannisch	strafen	faul	tot	fanatisch	1	blank2r.bmp	0	1	+	0	1	blank2r.bmp	500	1	BMVZ	500	1	blank2r.bmp	880	5	hindern	880	1	!	1292	1	!	-1	0	0	0	0	0	0
2024-05-17	14:33:06	14:40:08	421668	6.6.1	4_exp_EVA_AWA_CON	43	B	A	Rpleas_acq	Same	Rpleas	2pleas	acq_US_unple_nomask	acq3_nomask	3	33	453	1	300	300	0	0	450	46	1	0	loyal	ehrlich	retten	lachen	helfen	schön	lasch	eitel	rächen	leiden	hindern	schlecht	schlau	tolerant	spielen	fair	treu	freundlich	schroff	tyrannisch	strafen	faul	tot	fanatisch	1	blank2r.bmp	0	1	+	0	1	blank2r.bmp	500	1	BMVZ	500	1	blank2r.bmp	880	2	eitel	880	1	!	1293	1	!	1352	0	0	0	0	0	0
2024-05-17	14:33:06	14:40:12	425619	6.6.1	4_exp_EVA_AWA_CON	43	B	A	Rpleas_acq	Same	Rpleas	2pleas	acq_US_unple_nomask	acq3_nomask	3	34	453	0	300	300	0	0	2171	46	1	0	loyal	ehrlich	retten	lachen	helfen	schön	lasch	eitel	rächen	leiden	hindern	schlecht	schlau	tolerant	spielen	fair	treu	freundlich	schroff	tyrannisch	strafen	faul	tot	fanatisch	1	blank2r.bmp	0	1	+	0	1	blank2r.bmp	500	1	BMVZ	500	1	blank2r.bmp	880	4	leiden	880	1	!	1293	1	!	-1	0	0	0	0	0	0
2024-05-17	14:33:06	14:40:14	427938	6.6.1	4_exp_EVA_AWA_CON	43	B	A	Rpleas_acq	Same	Rpleas	2pleas	acq_US_unple_nomask	acq3_nomask	3	35	453	0	300	300	0	0	538	46	1	0	loyal	ehrlich	retten	lachen	helfen	schön	lasch	eitel	rächen	leiden	hindern	schlecht	schlau	tolerant	spielen	fair	treu	freundlich	schroff	tyrannisch	strafen	faul	tot	fanatisch	1	blank2r.bmp	0	1	+	0	1	blank2r.bmp	500	1	BMVZ	500	1	blank2r.bmp	880	6	schlecht	880	1	!	1292	1	!	-1	0	0	0	0	0	0
2024-05-17	14:33:06	14:40:16	430354	6.6.1	4_exp_EVA_AWA_CON	43	B	A	Rpleas_acq	Same	Rpleas	2pleas	acq_US_pleas_nomask	acq3_nomask	3	36	453	0	300	300	0	0	643	50	1	0	loyal	ehrlich	retten	lachen	helfen	schön	lasch	eitel	rächen	leiden	hindern	schlecht	schlau	tolerant	spielen	fair	treu	freundlich	schroff	tyrannisch	strafen	faul	tot	fanatisch	1	blank2r.bmp	0	1	+	0	1	blank2r.bmp	500	1	GKQX	500	1	blank2r.bmp	880	4	lachen	880	1	!	1293	1	!	-1	0	0	0	0	0	0
2024-05-17	14:33:06	14:40:33	447164	6.6.1	4_exp_EVA_AWA_CON	43	B	A	Rpleas_acq	Same	Rpleas	2pleas	acq_US_unple_nomask	acq45_nomask	4	1	400	1	300	300	0	0	409	46	1	0	loyal	ehrlich	retten	lachen	helfen	schön	lasch	eitel	rächen	leiden	hindern	schlecht	schlau	tolerant	spielen	fair	treu	freundlich	schroff	tyrannisch	strafen	faul	tot	fanatisch	1	blank2r.bmp	0	1	+	0	1	blank2r.bmp	500	1	BMVZ	500	1	blank2r.bmp	880	6	schlecht	880	1	!	1232	1	!	1312	0	0	0	0	0	0
2024-05-17	14:33:06	14:40:35	449266	6.6.1	4_exp_EVA_AWA_CON	43	B	A	Rpleas_acq	Same	Rpleas	2pleas	acq_US_unple_nomask	acq45_nomask	4	2	400	0	300	300	0	0	322	46	1	0	loyal	ehrlich	retten	lachen	helfen	schön	lasch	eitel	rächen	leiden	hindern	schlecht	schlau	tolerant	spielen	fair	treu	freundlich	schroff	tyrannisch	strafen	faul	tot	fanatisch	1	blank2r.bmp	0	1	+	0	1	blank2r.bmp	500	1	BMVZ	500	1	blank2r.bmp	880	4	leiden	880	1	!	-1	1	!	-1	0	0	0	0	0	0
2024-05-17	14:33:06	14:40:38	451666	6.6.1	4_exp_EVA_AWA_CON	43	B	A	Rpleas_acq	Same	Rpleas	2pleas	acq_US_pleas_nomask	acq45_nomask	4	3	400	0	300	300	0	0	621	50	1	0	loyal	ehrlich	retten	lachen	helfen	schön	lasch	eitel	rächen	leiden	hindern	schlecht	schlau	tolerant	spielen	fair	treu	freundlich	schroff	tyrannisch	strafen	faul	tot	fanatisch	1	blank2r.bmp	0	1	+	0	1	blank2r.bmp	500	1	GKQX	500	1	blank2r.bmp	880	1	loyal	880	1	!	1233	1	!	-1	0	0	0	0	0	0
2024-05-17	14:33:06	14:40:40	453954	6.6.1	4_exp_EVA_AWA_CON	43	B	A	Rpleas_acq	Same	Rpleas	2pleas	acq_US_pleas_nomask	acq45_nomask	4	4	400	0	300	300	0	0	508	50	1	0	loyal	ehrlich	retten	lachen	helfen	schön	lasch	eitel	rächen	leiden	hindern	schlecht	schlau	tolerant	spielen	fair	treu	freundlich	schroff	tyrannisch	strafen	faul	tot	fanatisch	1	blank2r.bmp	0	1	+	0	1	blank2r.bmp	500	1	GKQX	500	1	blank2r.bmp	880	4	lachen	880	1	!	1232	1	!	-1	0	0	0	0	0	0
2024-05-17	14:33:06	14:40:42	456234	6.6.1	4_exp_EVA_AWA_CON	43	B	A	Rpleas_acq	Same	Rpleas	2pleas	acq_US_unple_nomask	acq45_nomask	4	5	400	0	300	300	0	0	506	46	1	0	loyal	ehrlich	retten	lachen	helfen	schön	lasch	eitel	rächen	leiden	hindern	schlecht	schlau	tolerant	spielen	fair	treu	freundlich	schroff	tyrannisch	strafen	faul	tot	fanatisch	1	blank2r.bmp	0	1	+	0	1	blank2r.bmp	500	1	BMVZ	500	1	blank2r.bmp	880	1	lasch	880	1	!	1232	1	!	-1	0	0	0	0	0	0
2024-05-17	14:33:06	14:40:44	458488	6.6.1	4_exp_EVA_AWA_CON	43	B	A	Rpleas_acq	Same	Rpleas	2pleas	acq_US_pleas_nomask	acq45_nomask	4	6	400	0	300	300	0	0	481	50	1	0	loyal	ehrlich	retten	lachen	helfen	schön	lasch	eitel	rächen	leiden	hindern	schlecht	schlau	tolerant	spielen	fair	treu	freundlich	schroff	tyrannisch	strafen	faul	tot	fanatisch	1	blank2r.bmp	0	1	+	0	1	blank2r.bmp	500	1	GKQX	500	1	blank2r.bmp	880	3	retten	880	1	!	1232	1	!	-1	0	0	0	0	0	0
2024-05-17	14:33:06	14:40:47	460716	6.6.1	4_exp_EVA_AWA_CON	43	B	A	Rpleas_acq	Same	Rpleas	2pleas	acq_US_unple_nomask	acq45_nomask	4	7	400	1	300	300	0	0	453	46	1	0	loyal	ehrlich	retten	lachen	helfen	schön	lasch	eitel	rächen	leiden	hindern	schlecht	schlau	tolerant	spielen	fair	treu	freundlich	schroff	tyrannisch	strafen	faul	tot	fanatisch	1	blank2r.bmp	0	1	+	0	1	blank2r.bmp	500	1	BMVZ	500	1	blank2r.bmp	880	5	hindern	880	1	!	1232	1	!	1355	0	0	0	0	0	0
2024-05-17	14:33:06	14:40:49	462932	6.6.1	4_exp_EVA_AWA_CON	43	B	A	Rpleas_acq	Same	Rpleas	2pleas	acq_US_unple_nomask	acq45_nomask	4	8	400	1	300	300	0	0	438	46	1	0	loyal	ehrlich	retten	lachen	helfen	schön	lasch	eitel	rächen	leiden	hindern	schlecht	schlau	tolerant	spielen	fair	treu	freundlich	schroff	tyrannisch	strafen	faul	tot	fanatisch	1	blank2r.bmp	0	1	+	0	1	blank2r.bmp	500	1	BMVZ	500	1	blank2r.bmp	880	2	eitel	880	1	!	1232	1	!	1339	0	0	0	0	0	0
2024-05-17	14:33:06	14:40:51	465210	6.6.1	4_exp_EVA_AWA_CON	43	B	A	Rpleas_acq	Same	Rpleas	2pleas	acq_US_unple_nomask	acq45_nomask	4	9	400	0	300	300	0	0	496	46	1	0	loyal	ehrlich	retten	lachen	helfen	schön	lasch	eitel	rächen	leiden	hindern	schlecht	schlau	tolerant	spielen	fair	treu	freundlich	schroff	tyrannisch	strafen	faul	tot	fanatisch	1	blank2r.bmp	0	1	+	0	1	blank2r.bmp	500	1	BMVZ	500	1	blank2r.bmp	880	3	rächen	880	1	!	1233	1	!	-1	0	0	0	0	0	0
2024-05-17	14:33:06	14:40:53	467364	6.6.1	4_exp_EVA_AWA_CON	43	B	A	Rpleas_acq	Same	Rpleas	2pleas	acq_US_pleas_nomask	acq45_nomask	4	10	400	1	300	300	0	0	377	46	0	0	loyal	ehrlich	retten	lachen	helfen	schön	lasch	eitel	rächen	leiden	hindern	schlecht	schlau	tolerant	spielen	fair	treu	freundlich	schroff	tyrannisch	strafen	faul	tot	fanatisch	1	blank2r.bmp	0	1	+	0	1	blank2r.bmp	500	1	GKQX	500	1	blank2r.bmp	880	5	helfen	880	1	!	1232	1	!	1278	0	0	0	0	0	0
2024-05-17	14:33:06	14:40:55	469492	6.6.1	4_exp_EVA_AWA_CON	43	B	A	Rpleas_acq	Same	Rpleas	2pleas	acq_US_unple_nomask	acq45_nomask	4	11	400	1	300	300	0	0	354	46	1	0	loyal	ehrlich	retten	lachen	helfen	schön	lasch	eitel	rächen	leiden	hindern	schlecht	schlau	tolerant	spielen	fair	treu	freundlich	schroff	tyrannisch	strafen	faul	tot	fanatisch	1	blank2r.bmp	0	1	+	0	1	blank2r.bmp	500	1	BMVZ	500	1	blank2r.bmp	880	2	eitel	880	1	!	1233	1	!	1255	0	0	0	0	0	0
2024-05-17	14:33:06	14:40:58	471676	6.6.1	4_exp_EVA_AWA_CON	43	B	A	Rpleas_acq	Same	Rpleas	2pleas	acq_US_pleas_nomask	acq45_nomask	4	12	400	1	300	300	0	0	406	50	1	0	loyal	ehrlich	retten	lachen	helfen	schön	lasch	eitel	rächen	leiden	hindern	schlecht	schlau	tolerant	spielen	fair	treu	freundlich	schroff	tyrannisch	strafen	faul	tot	fanatisch	1	blank2r.bmp	0	1	+	0	1	blank2r.bmp	500	1	GKQX	500	1	blank2r.bmp	880	6	schön	880	1	!	1232	1	!	1308	0	0	0	0	0	0
2024-05-17	14:33:06	14:41:00	473876	6.6.1	4_exp_EVA_AWA_CON	43	B	A	Rpleas_acq	Same	Rpleas	2pleas	acq_US_unple_nomask	acq45_nomask	4	13	400	1	300	300	0	0	425	50	0	0	loyal	ehrlich	retten	lachen	helfen	schön	lasch	eitel	rächen	leiden	hindern	schlecht	schlau	tolerant	spielen	fair	treu	freundlich	schroff	tyrannisch	strafen	faul	tot	fanatisch	1	blank2r.bmp	0	1	+	0	1	blank2r.bmp	500	1	BMVZ	500	1	blank2r.bmp	880	5	hindern	880	1	!	1232	1	!	1326	0	0	0	0	0	0
2024-05-17	14:33:06	14:41:02	476028	6.6.1	4_exp_EVA_AWA_CON	43	B	A	Rpleas_acq	Same	Rpleas	2pleas	acq_US_pleas_nomask	acq45_nomask	4	14	400	1	300	300	0	0	375	50	1	0	loyal	ehrlich	retten	lachen	helfen	schön	lasch	eitel	rächen	leiden	hindern	schlecht	schlau	tolerant	spielen	fair	treu	freundlich	schroff	tyrannisch	strafen	faul	tot	fanatisch	1	blank2r.bmp	0	1	+	0	1	blank2r.bmp	500	1	GKQX	500	1	blank2r.bmp	880	2	ehrlich	880	1	!	1232	1	!	1277	0	0	0	0	0	0
2024-05-17	14:33:06	14:41:04	478098	6.6.1	4_exp_EVA_AWA_CON	43	B	A	Rpleas_acq	Same	Rpleas	2pleas	acq_US_pleas_nomask	acq45_nomask	4	15	400	0	300	300	0	0	296	46	0	0	loyal	ehrlich	retten	lachen	helfen	schön	lasch	eitel	rächen	leiden	hindern	schlecht	schlau	tolerant	spielen	fair	treu	freundlich	schroff	tyrannisch	strafen	faul	tot	fanatisch	1	blank2r.bmp	0	1	+	0	1	blank2r.bmp	500	1	GKQX	500	1	blank2r.bmp	880	5	helfen	880	1	!	-1	1	!	-1	0	0	0	0	0	0
2024-05-17	14:33:06	14:41:06	480386	6.6.1	4_exp_EVA_AWA_CON	43	B	A	Rpleas_acq	Same	Rpleas	2pleas	acq_US_unple_nomask	acq45_nomask	4	16	400	0	300	300	0	0	513	46	1	0	loyal	ehrlich	retten	lachen	helfen	schön	lasch	eitel	rächen	leiden	hindern	schlecht	schlau	tolerant	spielen	fair	treu	freundlich	schroff	tyrannisch	strafen	faul	tot	fanatisch	1	blank2r.bmp	0	1	+	0	1	blank2r.bmp	500	1	BMVZ	500	1	blank2r.bmp	880	6	schlecht	880	1	!	1232	1	!	-1	0	0	0	0	0	0
2024-05-17	14:33:06	14:41:09	482698	6.6.1	4_exp_EVA_AWA_CON	43	B	A	Rpleas_acq	Same	Rpleas	2pleas	acq_US_pleas_nomask	acq45_nomask	4	17	400	0	300	300	0	0	533	46	0	0	loyal	ehrlich	retten	lachen	helfen	schön	lasch	eitel	rächen	leiden	hindern	schlecht	schlau	tolerant	spielen	fair	treu	freundlich	schroff	tyrannisch	strafen	faul	tot	fanatisch	1	blank2r.bmp	0	1	+	0	1	blank2r.bmp	500	1	GKQX	500	1	blank2r.bmp	880	3	retten	880	1	!	1233	1	!	-1	0	0	0	0	0	0
2024-05-17	14:33:06	14:41:11	484844	6.6.1	4_exp_EVA_AWA_CON	43	B	A	Rpleas_acq	Same	Rpleas	2pleas	acq_US_pleas_nomask	acq45_nomask	4	18	400	1	300	300	0	0	366	50	1	0	loyal	ehrlich	retten	lachen	helfen	schön	lasch	eitel	rächen	leiden	hindern	schlecht	schlau	tolerant	spielen	fair	treu	freundlich	schroff	tyrannisch	strafen	faul	tot	fanatisch	1	blank2r.bmp	0	1	+	0	1	blank2r.bmp	500	1	GKQX	500	1	blank2r.bmp	880	2	ehrlich	880	1	!	1232	1	!	1267	0	0	0	0	0	0
2024-05-17	14:33:06	14:41:13	487076	6.6.1	4_exp_EVA_AWA_CON	43	B	A	Rpleas_acq	Same	Rpleas	2pleas	acq_US_unple_nomask	acq45_nomask	4	19	400	1	300	300	0	0	456	46	1	0	loyal	ehrlich	retten	lachen	helfen	schön	lasch	eitel	rächen	leiden	hindern	schlecht	schlau	tolerant	spielen	fair	treu	freundlich	schroff	tyrannisch	strafen	faul	tot	fanatisch	1	blank2r.bmp	0	1	+	0	1	blank2r.bmp	500	1	BMVZ	500	1	blank2r.bmp	880	3	rächen	880	1	!	1232	1	!	1358	0	0	0	0	0	0
2024-05-17	14:33:06	14:41:15	489204	6.6.1	4_exp_EVA_AWA_CON	43	B	A	Rpleas_acq	Same	Rpleas	2pleas	acq_US_pleas_nomask	acq45_nomask	4	20	400	1	300	300	0	0	353	46	0	0	loyal	ehrlich	retten	lachen	helfen	schön	lasch	eitel	rächen	leiden	hindern	schlecht	schlau	tolerant	spielen	fair	treu	freundlich	schroff	tyrannisch	strafen	faul	tot	fanatisch	1	blank2r.bmp	0	1	+	0	1	blank2r.bmp	500	1	GKQX	500	1	blank2r.bmp	880	6	schön	880	1	!	1232	1	!	1254	0	0	0	0	0	0
2024-05-17	14:33:06	14:41:17	491356	6.6.1	4_exp_EVA_AWA_CON	43	B	A	Rpleas_acq	Same	Rpleas	2pleas	acq_US_pleas_nomask	acq45_nomask	4	21	400	1	300	300	0	0	373	50	1	0	loyal	ehrlich	retten	lachen	helfen	schön	lasch	eitel	rächen	leiden	hindern	schlecht	schlau	tolerant	spielen	fair	treu	freundlich	schroff	tyrannisch	strafen	faul	tot	fanatisch	1	blank2r.bmp	0	1	+	0	1	blank2r.bmp	500	1	GKQX	500	1	blank2r.bmp	880	4	lachen	880	1	!	1232	1	!	1275	0	0	0	0	0	0
2024-05-17	14:33:06	14:41:20	493548	6.6.1	4_exp_EVA_AWA_CON	43	B	A	Rpleas_acq	Same	Rpleas	2pleas	acq_US_pleas_nomask	acq45_nomask	4	22	400	1	300	300	0	0	414	46	0	0	loyal	ehrlich	retten	lachen	helfen	schön	lasch	eitel	rächen	leiden	hindern	schlecht	schlau	tolerant	spielen	fair	treu	freundlich	schroff	tyrannisch	strafen	faul	tot	fanatisch	1	blank2r.bmp	0	1	+	0	1	blank2r.bmp	500	1	GKQX	500	1	blank2r.bmp	880	1	loyal	880	1	!	1232	1	!	1315	0	0	0	0	0	0
2024-05-17	14:33:06	14:41:22	495618	6.6.1	4_exp_EVA_AWA_CON	43	B	A	Rpleas_acq	Same	Rpleas	2pleas	acq_US_pleas_nomask	acq45_nomask	4	23	400	0	300	300	0	0	295	50	1	0	loyal	ehrlich	retten	lachen	helfen	schön	lasch	eitel	rächen	leiden	hindern	schlecht	schlau	tolerant	spielen	fair	treu	freundlich	schroff	tyrannisch	strafen	faul	tot	fanatisch	1	blank2r.bmp	0	1	+	0	1	blank2r.bmp	500	1	GKQX	500	1	blank2r.bmp	880	1	loyal	880	1	!	-1	1	!	-1	0	0	0	0	0	0
2024-05-17	14:33:06	14:41:24	497852	6.6.1	4_exp_EVA_AWA_CON	43	B	A	Rpleas_acq	Same	Rpleas	2pleas	acq_US_unple_nomask	acq45_nomask	4	24	400	1	300	300	0	0	455	46	1	0	loyal	ehrlich	retten	lachen	helfen	schön	lasch	eitel	rächen	leiden	hindern	schlecht	schlau	tolerant	spielen	fair	treu	freundlich	schroff	tyrannisch	strafen	faul	tot	fanatisch	1	blank2r.bmp	0	1	+	0	1	blank2r.bmp	500	1	BMVZ	500	1	blank2r.bmp	880	4	leiden	880	1	!	1232	1	!	1357	0	0	0	0	0	0
2024-05-17	14:33:06	14:41:26	500044	6.6.1	4_exp_EVA_AWA_CON	43	B	A	Rpleas_acq	Same	Rpleas	2pleas	acq_US_unple_nomask	acq45_nomask	4	25	400	1	300	300	0	0	416	46	1	0	loyal	ehrlich	retten	lachen	helfen	schön	lasch	eitel	rächen	leiden	hindern	schlecht	schlau	tolerant	spielen	fair	treu	freundlich	schroff	tyrannisch	strafen	faul	tot	fanatisch	1	blank2r.bmp	0	1	+	0	1	blank2r.bmp	500	1	BMVZ	500	1	blank2r.bmp	880	1	lasch	880	1	!	1232	1	!	1317	0	0	0	0	0	0
2024-05-17	14:33:06	14:41:28	502244	6.6.1	4_exp_EVA_AWA_CON	43	B	A	Rpleas_acq	Same	Rpleas	2pleas	acq_US_unple_nomask	acq45_nomask	4	26	400	1	300	300	0	0	426	46	1	0	loyal	ehrlich	retten	lachen	helfen	schön	lasch	eitel	rächen	leiden	hindern	schlecht	schlau	tolerant	spielen	fair	treu	freundlich	schroff	tyrannisch	strafen	faul	tot	fanatisch	1	blank2r.bmp	0	1	+	0	1	blank2r.bmp	500	1	BMVZ	500	1	blank2r.bmp	880	5	hindern	880	1	!	1233	1	!	1327	0	0	0	0	0	0
2024-05-17	14:33:06	14:41:30	504290	6.6.1	4_exp_EVA_AWA_CON	43	B	A	Rpleas_acq	Same	Rpleas	2pleas	acq_US_unple_nomask	acq45_nomask	4	27	400	0	300	300	0	0	271	46	1	0	loyal	ehrlich	retten	lachen	helfen	schön	lasch	eitel	rächen	leiden	hindern	schlecht	schlau	tolerant	spielen	fair	treu	freundlich	schroff	tyrannisch	strafen	faul	tot	fanatisch	1	blank2r.bmp	0	1	+	0	1	blank2r.bmp	500	1	BMVZ	500	1	blank2r.bmp	880	2	eitel	880	1	!	-1	1	!	-1	0	0	0	0	0	0
2024-05-17	14:33:06	14:41:32	506484	6.6.1	4_exp_EVA_AWA_CON	43	B	A	Rpleas_acq	Same	Rpleas	2pleas	acq_US_unple_nomask	acq45_nomask	4	28	400	1	300	300	0	0	412	46	1	0	loyal	ehrlich	retten	lachen	helfen	schön	lasch	eitel	rächen	leiden	hindern	schlecht	schlau	tolerant	spielen	fair	treu	freundlich	schroff	tyrannisch	strafen	faul	tot	fanatisch	1	blank2r.bmp	0	1	+	0	1	blank2r.bmp	500	1	BMVZ	500	1	blank2r.bmp	880	1	lasch	880	1	!	1232	1	!	1313	0	0	0	0	0	0
2024-05-17	14:33:06	14:41:35	508882	6.6.1	4_exp_EVA_AWA_CON	43	B	A	Rpleas_acq	Same	Rpleas	2pleas	acq_US_pleas_nomask	acq45_nomask	4	29	400	0	300	300	0	0	620	50	1	0	loyal	ehrlich	retten	lachen	helfen	schön	lasch	eitel	rächen	leiden	hindern	schlecht	schlau	tolerant	spielen	fair	treu	freundlich	schroff	tyrannisch	strafen	faul	tot	fanatisch	1	blank2r.bmp	0	1	+	0	1	blank2r.bmp	500	1	GKQX	500	1	blank2r.bmp	880	6	schön	880	1	!	1232	1	!	-1	0	0	0	0	0	0
2024-05-17	14:33:06	14:41:37	511002	6.6.1	4_exp_EVA_AWA_CON	43	B	A	Rpleas_acq	Same	Rpleas	2pleas	acq_US_unple_nomask	acq45_nomask	4	30	400	1	300	300	0	0	339	46	1	0	loyal	ehrlich	retten	lachen	helfen	schön	lasch	eitel	rächen	leiden	hindern	schlecht	schlau	tolerant	spielen	fair	treu	freundlich	schroff	tyrannisch	strafen	faul	tot	fanatisch	1	blank2r.bmp	0	1	+	0	1	blank2r.bmp	500	1	BMVZ	500	1	blank2r.bmp	880	3	rächen	880	1	!	1232	1	!	1239	0	0	0	0	0	0
2024-05-17	14:33:06	14:41:39	513164	6.6.1	4_exp_EVA_AWA_CON	43	B	A	Rpleas_acq	Same	Rpleas	2pleas	acq_US_pleas_nomask	acq45_nomask	4	31	400	1	300	300	0	0	377	46	0	0	loyal	ehrlich	retten	lachen	helfen	schön	lasch	eitel	rächen	leiden	hindern	schlecht	schlau	tolerant	spielen	fair	treu	freundlich	schroff	tyrannisch	strafen	faul	tot	fanatisch	1	blank2r.bmp	0	1	+	0	1	blank2r.bmp	500	1	GKQX	500	1	blank2r.bmp	880	4	lachen	880	1	!	1232	1	!	1279	0	0	0	0	0	0
2024-05-17	14:33:06	14:41:41	515458	6.6.1	4_exp_EVA_AWA_CON	43	B	A	Rpleas_acq	Same	Rpleas	2pleas	acq_US_pleas_nomask	acq45_nomask	4	32	400	0	300	300	0	0	522	50	1	0	loyal	ehrlich	retten	lachen	helfen	schön	lasch	eitel	rächen	leiden	hindern	schlecht	schlau	tolerant	spielen	fair	treu	freundlich	schroff	tyrannisch	strafen	faul	tot	fanatisch	1	blank2r.bmp	0	1	+	0	1	blank2r.bmp	500	1	GKQX	500	1	blank2r.bmp	880	5	helfen	880	1	!	1232	1	!	-1	0	0	0	0	0	0
2024-05-17	14:33:06	14:41:44	517676	6.6.1	4_exp_EVA_AWA_CON	43	B	A	Rpleas_acq	Same	Rpleas	2pleas	acq_US_pleas_nomask	acq45_nomask	4	33	400	1	300	300	0	0	437	50	1	0	loyal	ehrlich	retten	lachen	helfen	schön	lasch	eitel	rächen	leiden	hindern	schlecht	schlau	tolerant	spielen	fair	treu	freundlich	schroff	tyrannisch	strafen	faul	tot	fanatisch	1	blank2r.bmp	0	1	+	0	1	blank2r.bmp	500	1	GKQX	500	1	blank2r.bmp	880	3	retten	880	1	!	1232	1	!	1338	0	0	0	0	0	0
2024-05-17	14:33:06	14:41:46	520042	6.6.1	4_exp_EVA_AWA_CON	43	B	A	Rpleas_acq	Same	Rpleas	2pleas	acq_US_pleas_nomask	acq45_nomask	4	34	400	0	300	300	0	0	593	50	1	0	loyal	ehrlich	retten	lachen	helfen	schön	lasch	eitel	rächen	leiden	hindern	schlecht	schlau	tolerant	spielen	fair	treu	freundlich	schroff	tyrannisch	strafen	faul	tot	fanatisch	1	blank2r.bmp	0	1	+	0	1	blank2r.bmp	500	1	GKQX	500	1	blank2r.bmp	880	2	ehrlich	880	1	!	1232	1	!	-1	0	0	0	0	0	0
2024-05-17	14:33:06	14:41:48	522276	6.6.1	4_exp_EVA_AWA_CON	43	B	A	Rpleas_acq	Same	Rpleas	2pleas	acq_US_unple_nomask	acq45_nomask	4	35	400	1	300	300	0	0	454	46	1	0	loyal	ehrlich	retten	lachen	helfen	schön	lasch	eitel	rächen	leiden	hindern	schlecht	schlau	tolerant	spielen	fair	treu	freundlich	schroff	tyrannisch	strafen	faul	tot	fanatisch	1	blank2r.bmp	0	1	+	0	1	blank2r.bmp	500	1	BMVZ	500	1	blank2r.bmp	880	4	leiden	880	1	!	1232	1	!	1355	0	0	0	0	0	0
2024-05-17	14:33:06	14:41:50	524404	6.6.1	4_exp_EVA_AWA_CON	43	B	A	Rpleas_acq	Same	Rpleas	2pleas	acq_US_unple_nomask	acq45_nomask	4	36	400	1	300	300	0	0	350	46	1	0	loyal	ehrlich	retten	lachen	helfen	schön	lasch	eitel	rächen	leiden	hindern	schlecht	schlau	tolerant	spielen	fair	treu	freundlich	schroff	tyrannisch	strafen	faul	tot	fanatisch	1	blank2r.bmp	0	1	+	0	1	blank2r.bmp	500	1	BMVZ	500	1	blank2r.bmp	880	6	schlecht	880	1	!	1233	1	!	1252	0	0	0	0	0	0
2024-05-17	14:33:06	14:42:01	534882	6.6.1	4_exp_EVA_AWA_CON	43	B	A	Rpleas_acq	Same	Rpleas	2pleas	acq_US_unple_nomask	acq45_nomask	5	1	400	0	300	300	0	0	323	46	1	0	loyal	ehrlich	retten	lachen	helfen	schön	lasch	eitel	rächen	leiden	hindern	schlecht	schlau	tolerant	spielen	fair	treu	freundlich	schroff	tyrannisch	strafen	faul	tot	fanatisch	1	blank2r.bmp	0	1	+	0	1	blank2r.bmp	500	1	BMVZ	500	1	blank2r.bmp	880	2	eitel	880	1	!	-1	1	!	-1	0	0	0	0	0	0
2024-05-17	14:33:06	14:42:03	536930	6.6.1	4_exp_EVA_AWA_CON	43	B	A	Rpleas_acq	Same	Rpleas	2pleas	acq_US_pleas_nomask	acq45_nomask	5	2	400	0	300	300	0	0	270	50	1	0	loyal	ehrlich	retten	lachen	helfen	schön	lasch	eitel	rächen	leiden	hindern	schlecht	schlau	tolerant	spielen	fair	treu	freundlich	schroff	tyrannisch	strafen	faul	tot	fanatisch	1	blank2r.bmp	0	1	+	0	1	blank2r.bmp	500	1	GKQX	500	1	blank2r.bmp	880	6	schön	880	1	!	-1	1	!	-1	0	0	0	0	0	0
2024-05-17	14:33:06	14:42:05	539068	6.6.1	4_exp_EVA_AWA_CON	43	B	A	Rpleas_acq	Same	Rpleas	2pleas	acq_US_unple_nomask	acq45_nomask	5	3	400	1	300	300	0	0	355	46	1	0	loyal	ehrlich	retten	lachen	helfen	schön	lasch	eitel	rächen	leiden	hindern	schlecht	schlau	tolerant	spielen	fair	treu	freundlich	schroff	tyrannisch	strafen	faul	tot	fanatisch	1	blank2r.bmp	0	1	+	0	1	blank2r.bmp	500	1	BMVZ	500	1	blank2r.bmp	880	1	lasch	880	1	!	1233	1	!	1256	0	0	0	0	0	0
2024-05-17	14:33:06	14:42:07	541163	6.6.1	4_exp_EVA_AWA_CON	43	B	A	Rpleas_acq	Same	Rpleas	2pleas	acq_US_unple_nomask	acq45_nomask	5	4	400	0	300	300	0	0	319	46	1	0	loyal	ehrlich	retten	lachen	helfen	schön	lasch	eitel	rächen	leiden	hindern	schlecht	schlau	tolerant	spielen	fair	treu	freundlich	schroff	tyrannisch	strafen	faul	tot	fanatisch	1	blank2r.bmp	0	1	+	0	1	blank2r.bmp	500	1	BMVZ	500	1	blank2r.bmp	880	5	hindern	880	1	!	-1	1	!	-1	0	0	0	0	0	0
2024-05-17	14:33:06	14:42:09	543316	6.6.1	4_exp_EVA_AWA_CON	43	B	A	Rpleas_acq	Same	Rpleas	2pleas	acq_US_pleas_nomask	acq45_nomask	5	5	400	1	300	300	0	0	370	50	1	0	loyal	ehrlich	retten	lachen	helfen	schön	lasch	eitel	rächen	leiden	hindern	schlecht	schlau	tolerant	spielen	fair	treu	freundlich	schroff	tyrannisch	strafen	faul	tot	fanatisch	1	blank2r.bmp	0	1	+	0	1	blank2r.bmp	500	1	GKQX	500	1	blank2r.bmp	880	4	lachen	880	1	!	1232	1	!	1272	0	0	0	0	0	0
2024-05-17	14:33:06	14:42:12	545564	6.6.1	4_exp_EVA_AWA_CON	43	B	A	Rpleas_acq	Same	Rpleas	2pleas	acq_US_unple_nomask	acq45_nomask	5	6	400	1	300	300	0	0	467	46	1	0	loyal	ehrlich	retten	lachen	helfen	schön	lasch	eitel	rächen	leiden	hindern	schlecht	schlau	tolerant	spielen	fair	treu	freundlich	schroff	tyrannisch	strafen	faul	tot	fanatisch	1	blank2r.bmp	0	1	+	0	1	blank2r.bmp	500	1	BMVZ	500	1	blank2r.bmp	880	6	schlecht	880	1	!	1232	1	!	1368	0	0	0	0	0	0
2024-05-17	14:33:06	14:42:14	547834	6.6.1	4_exp_EVA_AWA_CON	43	B	A	Rpleas_acq	Same	Rpleas	2pleas	acq_US_unple_nomask	acq45_nomask	5	7	400	0	300	300	0	0	497	46	1	0	loyal	ehrlich	retten	lachen	helfen	schön	lasch	eitel	rächen	leiden	hindern	schlecht	schlau	tolerant	spielen	fair	treu	freundlich	schroff	tyrannisch	strafen	faul	tot	fanatisch	1	blank2r.bmp	0	1	+	0	1	blank2r.bmp	500	1	BMVZ	500	1	blank2r.bmp	880	3	rächen	880	1	!	1232	1	!	-1	0	0	0	0	0	0
2024-05-17	14:33:06	14:42:16	550139	6.6.1	4_exp_EVA_AWA_CON	43	B	A	Rpleas_acq	Same	Rpleas	2pleas	acq_US_pleas_nomask	acq45_nomask	5	8	400	0	300	300	0	0	530	46	0	0	loyal	ehrlich	retten	lachen	helfen	schön	lasch	eitel	rächen	leiden	hindern	schlecht	schlau	tolerant	spielen	fair	treu	freundlich	schroff	tyrannisch	strafen	faul	tot	fanatisch	1	blank2r.bmp	0	1	+	0	1	blank2r.bmp	500	1	GKQX	500	1	blank2r.bmp	880	3	retten	880	1	!	1232	1	!	-1	0	0	0	0	0	0
2024-05-17	14:33:06	14:42:18	552450	6.6.1	4_exp_EVA_AWA_CON	43	B	A	Rpleas_acq	Same	Rpleas	2pleas	acq_US_unple_nomask	acq45_nomask	5	9	400	0	300	300	0	0	530	46	1	0	loyal	ehrlich	retten	lachen	helfen	schön	lasch	eitel	rächen	leiden	hindern	schlecht	schlau	tolerant	spielen	fair	treu	freundlich	schroff	tyrannisch	strafen	faul	tot	fanatisch	1	blank2r.bmp	0	1	+	0	1	blank2r.bmp	500	1	BMVZ	500	1	blank2r.bmp	880	4	leiden	880	1	!	1232	1	!	-1	0	0	0	0	0	0
2024-05-17	14:33:06	14:42:21	554612	6.6.1	4_exp_EVA_AWA_CON	43	B	A	Rpleas_acq	Same	Rpleas	2pleas	acq_US_pleas_nomask	acq45_nomask	5	10	400	1	300	300	0	0	379	50	1	0	loyal	ehrlich	retten	lachen	helfen	schön	lasch	eitel	rächen	leiden	hindern	schlecht	schlau	tolerant	spielen	fair	treu	freundlich	schroff	tyrannisch	strafen	faul	tot	fanatisch	1	blank2r.bmp	0	1	+	0	1	blank2r.bmp	500	1	GKQX	500	1	blank2r.bmp	880	5	helfen	880	1	!	1232	1	!	1280	0	0	0	0	0	0
2024-05-17	14:33:06	14:42:23	556796	6.6.1	4_exp_EVA_AWA_CON	43	B	A	Rpleas_acq	Same	Rpleas	2pleas	acq_US_pleas_nomask	acq45_nomask	5	11	400	1	300	300	0	0	401	46	0	0	loyal	ehrlich	retten	lachen	helfen	schön	lasch	eitel	rächen	leiden	hindern	schlecht	schlau	tolerant	spielen	fair	treu	freundlich	schroff	tyrannisch	strafen	faul	tot	fanatisch	1	blank2r.bmp	0	1	+	0	1	blank2r.bmp	500	1	GKQX	500	1	blank2r.bmp	880	1	loyal	880	1	!	1232	1	!	1303	0	0	0	0	0	0
2024-05-17	14:33:06	14:42:25	559020	6.6.1	4_exp_EVA_AWA_CON	43	B	A	Rpleas_acq	Same	Rpleas	2pleas	acq_US_pleas_nomask	acq45_nomask	5	12	400	1	300	300	0	0	444	50	1	0	loyal	ehrlich	retten	lachen	helfen	schön	lasch	eitel	rächen	leiden	hindern	schlecht	schlau	tolerant	spielen	fair	treu	freundlich	schroff	tyrannisch	strafen	faul	tot	fanatisch	1	blank2r.bmp	0	1	+	0	1	blank2r.bmp	500	1	GKQX	500	1	blank2r.bmp	880	2	ehrlich	880	1	!	1232	1	!	1345	0	0	0	0	0	0
2024-05-17	14:33:06	14:42:27	561298	6.6.1	4_exp_EVA_AWA_CON	43	B	A	Rpleas_acq	Same	Rpleas	2pleas	acq_US_pleas_nomask	acq45_nomask	5	13	400	0	300	300	0	0	503	50	1	0	loyal	ehrlich	retten	lachen	helfen	schön	lasch	eitel	rächen	leiden	hindern	schlecht	schlau	tolerant	spielen	fair	treu	freundlich	schroff	tyrannisch	strafen	faul	tot	fanatisch	1	blank2r.bmp	0	1	+	0	1	blank2r.bmp	500	1	GKQX	500	1	blank2r.bmp	880	2	ehrlich	880	1	!	1232	1	!	-1	0	0	0	0	0	0
2024-05-17	14:33:06	14:42:29	563476	6.6.1	4_exp_EVA_AWA_CON	43	B	A	Rpleas_acq	Same	Rpleas	2pleas	acq_US_unple_nomask	acq45_nomask	5	14	400	1	300	300	0	0	397	50	0	0	loyal	ehrlich	retten	lachen	helfen	schön	lasch	eitel	rächen	leiden	hindern	schlecht	schlau	tolerant	spielen	fair	treu	freundlich	schroff	tyrannisch	strafen	faul	tot	fanatisch	1	blank2r.bmp	0	1	+	0	1	blank2r.bmp	500	1	BMVZ	500	1	blank2r.bmp	880	5	hindern	880	1	!	1232	1	!	1299	0	0	0	0	0	0
2024-05-17	14:33:06	14:42:32	565676	6.6.1	4_exp_EVA_AWA_CON	43	B	A	Rpleas_acq	Same	Rpleas	2pleas	acq_US_unple_nomask	acq45_nomask	5	15	400	1	300	300	0	0	426	46	1	0	loyal	ehrlich	retten	lachen	helfen	schön	lasch	eitel	rächen	leiden	hindern	schlecht	schlau	tolerant	spielen	fair	treu	freundlich	schroff	tyrannisch	strafen	faul	tot	fanatisch	1	blank2r.bmp	0	1	+	0	1	blank2r.bmp	500	1	BMVZ	500	1	blank2r.bmp	880	2	eitel	880	1	!	1232	1	!	1327	0	0	0	0	0	0
2024-05-17	14:33:06	14:42:34	567954	6.6.1	4_exp_EVA_AWA_CON	43	B	A	Rpleas_acq	Same	Rpleas	2pleas	acq_US_pleas_nomask	acq45_nomask	5	16	400	0	300	300	0	0	504	50	1	0	loyal	ehrlich	retten	lachen	helfen	schön	lasch	eitel	rächen	leiden	hindern	schlecht	schlau	tolerant	spielen	fair	treu	freundlich	schroff	tyrannisch	strafen	faul	tot	fanatisch	1	blank2r.bmp	0	1	+	0	1	blank2r.bmp	500	1	GKQX	500	1	blank2r.bmp	880	4	lachen	880	1	!	1232	1	!	-1	0	0	0	0	0	0
2024-05-17	14:33:06	14:42:36	570108	6.6.1	4_exp_EVA_AWA_CON	43	B	A	Rpleas_acq	Same	Rpleas	2pleas	acq_US_pleas_nomask	acq45_nomask	5	17	400	1	300	300	0	0	375	50	1	0	loyal	ehrlich	retten	lachen	helfen	schön	lasch	eitel	rächen	leiden	hindern	schlecht	schlau	tolerant	spielen	fair	treu	freundlich	schroff	tyrannisch	strafen	faul	tot	fanatisch	1	blank2r.bmp	0	1	+	0	1	blank2r.bmp	500	1	GKQX	500	1	blank2r.bmp	880	5	helfen	880	1	!	1232	1	!	1276	0	0	0	0	0	0
2024-05-17	14:33:06	14:42:38	572316	6.6.1	4_exp_EVA_AWA_CON	43	B	A	Rpleas_acq	Same	Rpleas	2pleas	acq_US_unple_nomask	acq45_nomask	5	18	400	1	300	300	0	0	431	46	1	0	loyal	ehrlich	retten	lachen	helfen	schön	lasch	eitel	rächen	leiden	hindern	schlecht	schlau	tolerant	spielen	fair	treu	freundlich	schroff	tyrannisch	strafen	faul	tot	fanatisch	1	blank2r.bmp	0	1	+	0	1	blank2r.bmp	500	1	BMVZ	500	1	blank2r.bmp	880	3	rächen	880	1	!	1232	1	!	1333	0	0	0	0	0	0
2024-05-17	14:33:06	14:42:41	574666	6.6.1	4_exp_EVA_AWA_CON	43	B	A	Rpleas_acq	Same	Rpleas	2pleas	acq_US_pleas_nomask	acq45_nomask	5	19	400	0	300	300	0	0	572	50	1	0	loyal	ehrlich	retten	lachen	helfen	schön	lasch	eitel	rächen	leiden	hindern	schlecht	schlau	tolerant	spielen	fair	treu	freundlich	schroff	tyrannisch	strafen	faul	tot	fanatisch	1	blank2r.bmp	0	1	+	0	1	blank2r.bmp	500	1	GKQX	500	1	blank2r.bmp	880	1	loyal	880	1	!	1232	1	!	-1	0	0	0	0	0	0
2024-05-17	14:33:06	14:42:43	577034	6.6.1	4_exp_EVA_AWA_CON	43	B	A	Rpleas_acq	Same	Rpleas	2pleas	acq_US_unple_nomask	acq45_nomask	5	20	400	0	300	300	0	0	589	46	1	0	loyal	ehrlich	retten	lachen	helfen	schön	lasch	eitel	rächen	leiden	hindern	schlecht	schlau	tolerant	spielen	fair	treu	freundlich	schroff	tyrannisch	strafen	faul	tot	fanatisch	1	blank2r.bmp	0	1	+	0	1	blank2r.bmp	500	1	BMVZ	500	1	blank2r.bmp	880	1	lasch	880	1	!	1232	1	!	-1	0	0	0	0	0	0
2024-05-17	14:33:06	14:42:45	579228	6.6.1	4_exp_EVA_AWA_CON	43	B	A	Rpleas_acq	Same	Rpleas	2pleas	acq_US_pleas_nomask	acq45_nomask	5	21	400	1	300	300	0	0	419	50	1	0	loyal	ehrlich	retten	lachen	helfen	schön	lasch	eitel	rächen	leiden	hindern	schlecht	schlau	tolerant	spielen	fair	treu	freundlich	schroff	tyrannisch	strafen	faul	tot	fanatisch	1	blank2r.bmp	0	1	+	0	1	blank2r.bmp	500	1	GKQX	500	1	blank2r.bmp	880	6	schön	880	1	!	1232	1	!	1321	0	0	0	0	0	0
2024-05-17	14:33:06	14:42:47	581476	6.6.1	4_exp_EVA_AWA_CON	43	B	A	Rpleas_acq	Same	Rpleas	2pleas	acq_US_unple_nomask	acq45_nomask	5	22	400	1	300	300	0	0	466	50	0	0	loyal	ehrlich	retten	lachen	helfen	schön	lasch	eitel	rächen	leiden	hindern	schlecht	schlau	tolerant	spielen	fair	treu	freundlich	schroff	tyrannisch	strafen	faul	tot	fanatisch	1	blank2r.bmp	0	1	+	0	1	blank2r.bmp	500	1	BMVZ	500	1	blank2r.bmp	880	4	leiden	880	1	!	1232	1	!	1367	0	0	0	0	0	0
2024-05-17	14:33:06	14:42:50	583660	6.6.1	4_exp_EVA_AWA_CON	43	B	A	Rpleas_acq	Same	Rpleas	2pleas	acq_US_pleas_nomask	acq45_nomask	5	23	400	1	300	300	0	0	408	50	1	0	loyal	ehrlich	retten	lachen	helfen	schön	lasch	eitel	rächen	leiden	hindern	schlecht	schlau	tolerant	spielen	fair	treu	freundlich	schroff	tyrannisch	strafen	faul	tot	fanatisch	1	blank2r.bmp	0	1	+	0	1	blank2r.bmp	500	1	GKQX	500	1	blank2r.bmp	880	3	retten	880	1	!	1232	1	!	1310	0	0	0	0	0	0
2024-05-17	14:33:06	14:42:52	585908	6.6.1	4_exp_EVA_AWA_CON	43	B	A	Rpleas_acq	Same	Rpleas	2pleas	acq_US_unple_nomask	acq45_nomask	5	24	400	1	300	300	0	0	465	46	1	0	loyal	ehrlich	retten	lachen	helfen	schön	lasch	eitel	rächen	leiden	hindern	schlecht	schlau	tolerant	spielen	fair	treu	freundlich	schroff	tyrannisch	strafen	faul	tot	fanatisch	1	blank2r.bmp	0	1	+	0	1	blank2r.bmp	500	1	BMVZ	500	1	blank2r.bmp	880	6	schlecht	880	1	!	1232	1	!	1366	0	0	0	0	0	0
2024-05-17	14:33:06	14:42:54	588052	6.6.1	4_exp_EVA_AWA_CON	43	B	A	Rpleas_acq	Same	Rpleas	2pleas	acq_US_pleas_nomask	acq45_nomask	5	25	400	1	300	300	0	0	367	46	0	0	loyal	ehrlich	retten	lachen	helfen	schön	lasch	eitel	rächen	leiden	hindern	schlecht	schlau	tolerant	spielen	fair	treu	freundlich	schroff	tyrannisch	strafen	faul	tot	fanatisch	1	blank2r.bmp	0	1	+	0	1	blank2r.bmp	500	1	GKQX	500	1	blank2r.bmp	880	3	retten	880	1	!	1232	1	!	1269	0	0	0	0	0	0
2024-05-17	14:33:06	14:42:56	590220	6.6.1	4_exp_EVA_AWA_CON	43	B	A	Rpleas_acq	Same	Rpleas	2pleas	acq_US_unple_nomask	acq45_nomask	5	26	400	1	300	300	0	0	384	50	0	0	loyal	ehrlich	retten	lachen	helfen	schön	lasch	eitel	rächen	leiden	hindern	schlecht	schlau	tolerant	spielen	fair	treu	freundlich	schroff	tyrannisch	strafen	faul	tot	fanatisch	1	blank2r.bmp	0	1	+	0	1	blank2r.bmp	500	1	BMVZ	500	1	blank2r.bmp	880	1	lasch	880	1	!	1232	1	!	1285	0	0	0	0	0	0
2024-05-17	14:33:06	14:42:59	592514	6.6.1	4_exp_EVA_AWA_CON	43	B	A	Rpleas_acq	Same	Rpleas	2pleas	acq_US_unple_nomask	acq45_nomask	5	27	400	0	300	300	0	0	519	46	1	0	loyal	ehrlich	retten	lachen	helfen	schön	lasch	eitel	rächen	leiden	hindern	schlecht	schlau	tolerant	spielen	fair	treu	freundlich	schroff	tyrannisch	strafen	faul	tot	fanatisch	1	blank2r.bmp	0	1	+	0	1	blank2r.bmp	500	1	BMVZ	500	1	blank2r.bmp	880	5	hindern	880	1	!	1232	1	!	-1	0	0	0	0	0	0
2024-05-17	14:33:06	14:43:01	594740	6.6.1	4_exp_EVA_AWA_CON	43	B	A	Rpleas_acq	Same	Rpleas	2pleas	acq_US_pleas_nomask	acq45_nomask	5	28	400	1	300	300	0	0	451	50	1	0	loyal	ehrlich	retten	lachen	helfen	schön	lasch	eitel	rächen	leiden	hindern	schlecht	schlau	tolerant	spielen	fair	treu	freundlich	schroff	tyrannisch	strafen	faul	tot	fanatisch	1	blank2r.bmp	0	1	+	0	1	blank2r.bmp	500	1	GKQX	500	1	blank2r.bmp	880	2	ehrlich	880	1	!	1232	1	!	1352	0	0	0	0	0	0
2024-05-17	14:33:06	14:43:03	596859	6.6.1	4_exp_EVA_AWA_CON	43	B	A	Rpleas_acq	Same	Rpleas	2pleas	acq_US_unple_nomask	acq45_nomask	5	29	400	1	300	300	0	0	340	46	1	0	loyal	ehrlich	retten	lachen	helfen	schön	lasch	eitel	rächen	leiden	hindern	schlecht	schlau	tolerant	spielen	fair	treu	freundlich	schroff	tyrannisch	strafen	faul	tot	fanatisch	1	blank2r.bmp	0	1	+	0	1	blank2r.bmp	500	1	BMVZ	500	1	blank2r.bmp	880	2	eitel	880	1	!	1232	1	!	1239	0	0	0	0	0	0
2024-05-17	14:33:06	14:43:05	598866	6.6.1	4_exp_EVA_AWA_CON	43	B	A	Rpleas_acq	Same	Rpleas	2pleas	acq_US_unple_nomask	acq45_nomask	5	30	400	0	300	300	0	0	226	50	0	0	loyal	ehrlich	retten	lachen	helfen	schön	lasch	eitel	rächen	leiden	hindern	schlecht	schlau	tolerant	spielen	fair	treu	freundlich	schroff	tyrannisch	strafen	faul	tot	fanatisch	1	blank2r.bmp	0	1	+	0	1	blank2r.bmp	500	1	BMVZ	500	1	blank2r.bmp	880	3	rächen	880	1	!	-1	1	!	-1	0	0	0	0	0	0
2024-05-17	14:33:06	14:43:07	601019	6.6.1	4_exp_EVA_AWA_CON	43	B	A	Rpleas_acq	Same	Rpleas	2pleas	acq_US_pleas_nomask	acq45_nomask	5	31	400	1	300	300	0	0	377	46	0	0	loyal	ehrlich	retten	lachen	helfen	schön	lasch	eitel	rächen	leiden	hindern	schlecht	schlau	tolerant	spielen	fair	treu	freundlich	schroff	tyrannisch	strafen	faul	tot	fanatisch	1	blank2r.bmp	0	1	+	0	1	blank2r.bmp	500	1	GKQX	500	1	blank2r.bmp	880	1	loyal	880	1	!	1232	1	!	1278	0	0	0	0	0	0
2024-05-17	14:33:06	14:43:09	603180	6.6.1	4_exp_EVA_AWA_CON	43	B	A	Rpleas_acq	Same	Rpleas	2pleas	acq_US_unple_nomask	acq45_nomask	5	32	400	1	300	300	0	0	386	50	0	0	loyal	ehrlich	retten	lachen	helfen	schön	lasch	eitel	rächen	leiden	hindern	schlecht	schlau	tolerant	spielen	fair	treu	freundlich	schroff	tyrannisch	strafen	faul	tot	fanatisch	1	blank2r.bmp	0	1	+	0	1	blank2r.bmp	500	1	BMVZ	500	1	blank2r.bmp	880	4	leiden	880	1	!	1232	1	!	1287	0	0	0	0	0	0
2024-05-17	14:33:06	14:43:11	605300	6.6.1	4_exp_EVA_AWA_CON	43	B	A	Rpleas_acq	Same	Rpleas	2pleas	acq_US_pleas_nomask	acq45_nomask	5	33	400	1	300	300	0	0	344	46	0	0	loyal	ehrlich	retten	lachen	helfen	schön	lasch	eitel	rächen	leiden	hindern	schlecht	schlau	tolerant	spielen	fair	treu	freundlich	schroff	tyrannisch	strafen	faul	tot	fanatisch	1	blank2r.bmp	0	1	+	0	1	blank2r.bmp	500	1	GKQX	500	1	blank2r.bmp	880	6	schön	880	1	!	1232	1	!	1246	0	0	0	0	0	0
2024-05-17	14:33:06	14:43:14	607524	6.6.1	4_exp_EVA_AWA_CON	43	B	A	Rpleas_acq	Same	Rpleas	2pleas	acq_US_unple_nomask	acq45_nomask	5	34	400	1	300	300	0	0	447	50	0	0	loyal	ehrlich	retten	lachen	helfen	schön	lasch	eitel	rächen	leiden	hindern	schlecht	schlau	tolerant	spielen	fair	treu	freundlich	schroff	tyrannisch	strafen	faul	tot	fanatisch	1	blank2r.bmp	0	1	+	0	1	blank2r.bmp	500	1	BMVZ	500	1	blank2r.bmp	880	6	schlecht	880	1	!	1232	1	!	1348	0	0	0	0	0	0
2024-05-17	14:33:06	14:43:16	609602	6.6.1	4_exp_EVA_AWA_CON	43	B	A	Rpleas_acq	Same	Rpleas	2pleas	acq_US_pleas_nomask	acq45_nomask	5	35	400	0	300	300	0	0	306	46	0	0	loyal	ehrlich	retten	lachen	helfen	schön	lasch	eitel	rächen	leiden	hindern	schlecht	schlau	tolerant	spielen	fair	treu	freundlich	schroff	tyrannisch	strafen	faul	tot	fanatisch	1	blank2r.bmp	0	1	+	0	1	blank2r.bmp	500	1	GKQX	500	1	blank2r.bmp	880	5	helfen	880	1	!	-1	1	!	-1	0	0	0	0	0	0
2024-05-17	14:33:06	14:43:18	611836	6.6.1	4_exp_EVA_AWA_CON	43	B	A	Rpleas_acq	Same	Rpleas	2pleas	acq_US_pleas_nomask	acq45_nomask	5	36	400	1	300	300	0	0	456	46	0	0	loyal	ehrlich	retten	lachen	helfen	schön	lasch	eitel	rächen	leiden	hindern	schlecht	schlau	tolerant	spielen	fair	treu	freundlich	schroff	tyrannisch	strafen	faul	tot	fanatisch	1	blank2r.bmp	0	1	+	0	1	blank2r.bmp	500	1	GKQX	500	1	blank2r.bmp	880	4	lachen	880	1	!	1232	1	!	1357	0	0	0	0	0	0
2024-05-17	14:33:06	14:43:33	627366	6.6.1	4_exp_EVA_AWA_CON	43	B	A	Rpleas_acq	Same	Rpleas	2pleas	EvalRating_firsttwo	EvalRating_firsttwo	6	1	0	0	300	300	0	0	2411	line	0	-63,8020833333333285964pct	loyal	ehrlich	retten	lachen	helfen	schön	lasch	eitel	rächen	leiden	hindern	schlecht	schlau	tolerant	spielen	fair	treu	freundlich	schroff	tyrannisch	strafen	faul	tot	fanatisch	1		-7	1	Wie angenehm oder unangenehm finden Sie die  Buchstabenkette ZGVK?	-7	1		-7	1		-7	1		-7	1	Unangenehm	-7	1	Angenehm	-7	0	0	0	0	0	0	0	0	0
2024-05-17	14:33:06	14:43:39	632966	6.6.1	4_exp_EVA_AWA_CON	43	B	A	Rpleas_acq	Same	Rpleas	2pleas	EvalRating_lastfour	EvalRating_lastfour	7	1	0	0	300	300	0	0	3227	line	0	-69,0104166666666571928pct	loyal	ehrlich	retten	lachen	helfen	schön	lasch	eitel	rächen	leiden	hindern	schlecht	schlau	tolerant	spielen	fair	treu	freundlich	schroff	tyrannisch	strafen	faul	tot	fanatisch	1		-7	1	Wie angenehm oder unangenehm finden Sie die  Buchstabenkette BMVZ?	-7	1		-7	1		-7	1		-7	1	Unangenehm	-7	1	Angenehm	-7	0	0	0	0	0	0	0	0	0
2024-05-17	14:33:06	14:43:41	635334	6.6.1	4_exp_EVA_AWA_CON	43	B	A	Rpleas_acq	Same	Rpleas	2pleas	blank_screen	EvalRating_lastfour	7	3	0	0	300	300	0	0	0	0	0	-69,0104166666666571928pct	loyal	ehrlich	retten	lachen	helfen	schön	lasch	eitel	rächen	leiden	hindern	schlecht	schlau	tolerant	spielen	fair	treu	freundlich	schroff	tyrannisch	strafen	faul	tot	fanatisch	1		-8	0	0	0	0	0	0	0	0	0	0	0	0	0	0	0	0	0	0	0	0	0	0	0	0	0	0	0
2024-05-17	14:33:06	14:43:45	638774	6.6.1	4_exp_EVA_AWA_CON	43	B	A	Rpleas_acq	Same	Rpleas	2pleas	EvalRating_lastfour	EvalRating_lastfour	7	4	0	0	300	300	0	0	2852	line	0	-99,8697916666666714036pct	loyal	ehrlich	retten	lachen	helfen	schön	lasch	eitel	rächen	leiden	hindern	schlecht	schlau	tolerant	spielen	fair	treu	freundlich	schroff	tyrannisch	strafen	faul	tot	fanatisch	1		-8	3	Wie angenehm oder unangenehm finden Sie die  Buchstabenkette XBQM?	-8	1		-8	1		-8	1		-8	1	Unangenehm	-8	1	Angenehm	-8	0	0	0	0	0	0	0	0	0
2024-05-17	14:33:06	14:43:47	641138	6.6.1	4_exp_EVA_AWA_CON	43	B	A	Rpleas_acq	Same	Rpleas	2pleas	blank_screen	EvalRating_lastfour	7	6	0	0	300	300	0	0	0	0	0	-99,8697916666666714036pct	loyal	ehrlich	retten	lachen	helfen	schön	lasch	eitel	rächen	leiden	hindern	schlecht	schlau	tolerant	spielen	fair	treu	freundlich	schroff	tyrannisch	strafen	faul	tot	fanatisch	1		-8	0	0	0	0	0	0	0	0	0	0	0	0	0	0	0	0	0	0	0	0	0	0	0	0	0	0	0
2024-05-17	14:33:06	14:43:49	643327	6.6.1	4_exp_EVA_AWA_CON	43	B	A	Rpleas_acq	Same	Rpleas	2pleas	EvalRating_lastfour	EvalRating_lastfour	7	7	0	0	300	300	0	0	1601	line	0	-60,8072916666666642982pct	loyal	ehrlich	retten	lachen	helfen	schön	lasch	eitel	rächen	leiden	hindern	schlecht	schlau	tolerant	spielen	fair	treu	freundlich	schroff	tyrannisch	strafen	faul	tot	fanatisch	1		-8	2	Wie angenehm oder unangenehm finden Sie die  Buchstabenkette GKQX?	-8	1		-8	1		-8	1		-8	1	Unangenehm	-8	1	Angenehm	-8	0	0	0	0	0	0	0	0	0
2024-05-17	14:33:06	14:44:38	692089	6.6.1	4_exp_EVA_AWA_CON	43	B	A	Rpleas_acq	Same	Rpleas	2pleas	conawa_CS2_US2	conawa1_nomask	8	1	0	0	300	300	0	0	11324	strafen	1	-60,8072916666666642982pct	loyal	ehrlich	retten	lachen	helfen	schön	lasch	eitel	rächen	leiden	hindern	schlecht	schlau	tolerant	spielen	fair	treu	freundlich	schroff	tyrannisch	strafen	faul	tot	fanatisch	0	0	0	0	0	0	0	0	0	0	0	0	0	0	0	0	0	0	0	0	0	0	0	0	0	0	0	0	0	0
2024-05-17	14:33:06	14:44:38	692091	6.6.1	4_exp_EVA_AWA_CON	43	B	A	Rpleas_acq	Same	Rpleas	2pleas	conawa_CS2_US2_confidence	conawa1_nomask	8	1	0	0	300	300	0	0	11324	guess	1	-60,8072916666666642982pct	loyal	ehrlich	retten	lachen	helfen	schön	lasch	eitel	rächen	leiden	hindern	schlecht	schlau	tolerant	spielen	fair	treu	freundlich	schroff	tyrannisch	strafen	faul	tot	fanatisch	0	0	0	0	0	0	0	0	0	0	0	0	0	0	0	0	0	0	0	0	0	0	0	0	0	0	0	0	0	0
2024-05-17	14:33:06	14:44:44	697543	6.6.1	4_exp_EVA_AWA_CON	43	B	A	Rpleas_acq	Same	Rpleas	2pleas	conawa_CS2_US1	conawa1_nomask	8	2	0	0	300	300	0	0	4840	tyrannisch	1	-60,8072916666666642982pct	loyal	ehrlich	retten	lachen	helfen	schön	lasch	eitel	rächen	leiden	hindern	schlecht	schlau	tolerant	spielen	fair	treu	freundlich	schroff	tyrannisch	strafen	faul	tot	fanatisch	0	0	0	0	0	0	0	0	0	0	0	0	0	0	0	0	0	0	0	0	0	0	0	0	0	0	0	0	0	0
2024-05-17	14:33:06	14:44:44	697545	6.6.1	4_exp_EVA_AWA_CON	43	B	A	Rpleas_acq	Same	Rpleas	2pleas	conawa_CS2_US1_confidence	conawa1_nomask	8	2	0	0	300	300	0	0	4840	guess	1	-60,8072916666666642982pct	loyal	ehrlich	retten	lachen	helfen	schön	lasch	eitel	rächen	leiden	hindern	schlecht	schlau	tolerant	spielen	fair	treu	freundlich	schroff	tyrannisch	strafen	faul	tot	fanatisch	0	0	0	0	0	0	0	0	0	0	0	0	0	0	0	0	0	0	0	0	0	0	0	0	0	0	0	0	0	0
2024-05-17	14:33:06	14:44:56	709911	6.6.1	4_exp_EVA_AWA_CON	43	B	A	Rpleas_acq	Same	Rpleas	2pleas	conawa_CS1_US6	conawa1_nomask	8	3	0	0	300	300	0	0	11752	schlecht	1	-60,8072916666666642982pct	loyal	ehrlich	retten	lachen	helfen	schön	lasch	eitel	rächen	leiden	hindern	schlecht	schlau	tolerant	spielen	fair	treu	freundlich	schroff	tyrannisch	strafen	faul	tot	fanatisch	0	0	0	0	0	0	0	0	0	0	0	0	0	0	0	0	0	0	0	0	0	0	0	0	0	0	0	0	0	0
2024-05-17	14:33:06	14:44:56	709912	6.6.1	4_exp_EVA_AWA_CON	43	B	A	Rpleas_acq	Same	Rpleas	2pleas	conawa_CS1_US6_confidence	conawa1_nomask	8	3	0	0	300	300	0	0	11752	probably	1	-60,8072916666666642982pct	loyal	ehrlich	retten	lachen	helfen	schön	lasch	eitel	rächen	leiden	hindern	schlecht	schlau	tolerant	spielen	fair	treu	freundlich	schroff	tyrannisch	strafen	faul	tot	fanatisch	0	0	0	0	0	0	0	0	0	0	0	0	0	0	0	0	0	0	0	0	0	0	0	0	0	0	0	0	0	0
2024-05-17	14:33:06	14:45:04	718356	6.6.1	4_exp_EVA_AWA_CON	43	B	A	Rpleas_acq	Same	Rpleas	2pleas	conawa_CS1_US1	conawa1_nomask	8	4	0	0	300	300	0	0	7824	lasch	1	-60,8072916666666642982pct	loyal	ehrlich	retten	lachen	helfen	schön	lasch	eitel	rächen	leiden	hindern	schlecht	schlau	tolerant	spielen	fair	treu	freundlich	schroff	tyrannisch	strafen	faul	tot	fanatisch	0	0	0	0	0	0	0	0	0	0	0	0	0	0	0	0	0	0	0	0	0	0	0	0	0	0	0	0	0	0
2024-05-17	14:33:06	14:45:04	718358	6.6.1	4_exp_EVA_AWA_CON	43	B	A	Rpleas_acq	Same	Rpleas	2pleas	conawa_CS1_US1_confidence	conawa1_nomask	8	4	0	0	300	300	0	0	7824	probably	1	-60,8072916666666642982pct	loyal	ehrlich	retten	lachen	helfen	schön	lasch	eitel	rächen	leiden	hindern	schlecht	schlau	tolerant	spielen	fair	treu	freundlich	schroff	tyrannisch	strafen	faul	tot	fanatisch	0	0	0	0	0	0	0	0	0	0	0	0	0	0	0	0	0	0	0	0	0	0	0	0	0	0	0	0	0	0
2024-05-17	14:33:06	14:45:13	726721	6.6.1	4_exp_EVA_AWA_CON	43	B	A	Rpleas_acq	Same	Rpleas	2pleas	conawa_CS1_US2	conawa1_nomask	8	5	0	0	300	300	0	0	7748	tyrannisch	1	-60,8072916666666642982pct	loyal	ehrlich	retten	lachen	helfen	schön	lasch	eitel	rächen	leiden	hindern	schlecht	schlau	tolerant	spielen	fair	treu	freundlich	schroff	tyrannisch	strafen	faul	tot	fanatisch	0	0	0	0	0	0	0	0	0	0	0	0	0	0	0	0	0	0	0	0	0	0	0	0	0	0	0	0	0	0
2024-05-17	14:33:06	14:45:13	726723	6.6.1	4_exp_EVA_AWA_CON	43	B	A	Rpleas_acq	Same	Rpleas	2pleas	conawa_CS1_US2_confidence	conawa1_nomask	8	5	0	0	300	300	0	0	7748	probably	1	-60,8072916666666642982pct	loyal	ehrlich	retten	lachen	helfen	schön	lasch	eitel	rächen	leiden	hindern	schlecht	schlau	tolerant	spielen	fair	treu	freundlich	schroff	tyrannisch	strafen	faul	tot	fanatisch	0	0	0	0	0	0	0	0	0	0	0	0	0	0	0	0	0	0	0	0	0	0	0	0	0	0	0	0	0	0
2024-05-17	14:33:06	14:45:22	735717	6.6.1	4_exp_EVA_AWA_CON	43	B	A	Rpleas_acq	Same	Rpleas	2pleas	conawa_CS1_US5	conawa1_nomask	8	6	0	0	300	300	0	0	8383	hindern	1	-60,8072916666666642982pct	loyal	ehrlich	retten	lachen	helfen	schön	lasch	eitel	rächen	leiden	hindern	schlecht	schlau	tolerant	spielen	fair	treu	freundlich	schroff	tyrannisch	strafen	faul	tot	fanatisch	0	0	0	0	0	0	0	0	0	0	0	0	0	0	0	0	0	0	0	0	0	0	0	0	0	0	0	0	0	0
2024-05-17	14:33:06	14:45:22	735718	6.6.1	4_exp_EVA_AWA_CON	43	B	A	Rpleas_acq	Same	Rpleas	2pleas	conawa_CS1_US5_confidence	conawa1_nomask	8	6	0	0	300	300	0	0	8383	probably	1	-60,8072916666666642982pct	loyal	ehrlich	retten	lachen	helfen	schön	lasch	eitel	rächen	leiden	hindern	schlecht	schlau	tolerant	spielen	fair	treu	freundlich	schroff	tyrannisch	strafen	faul	tot	fanatisch	0	0	0	0	0	0	0	0	0	0	0	0	0	0	0	0	0	0	0	0	0	0	0	0	0	0	0	0	0	0
2024-05-17	14:33:06	14:45:26	739660	6.6.1	4_exp_EVA_AWA_CON	43	B	A	Rpleas_acq	Same	Rpleas	2pleas	conawa_CS1_US4	conawa1_nomask	8	7	0	0	300	300	0	0	3330	lachen	1	-60,8072916666666642982pct	loyal	ehrlich	retten	lachen	helfen	schön	lasch	eitel	rächen	leiden	hindern	schlecht	schlau	tolerant	spielen	fair	treu	freundlich	schroff	tyrannisch	strafen	faul	tot	fanatisch	0	0	0	0	0	0	0	0	0	0	0	0	0	0	0	0	0	0	0	0	0	0	0	0	0	0	0	0	0	0
2024-05-17	14:33:06	14:45:26	739661	6.6.1	4_exp_EVA_AWA_CON	43	B	A	Rpleas_acq	Same	Rpleas	2pleas	conawa_CS1_US4_confidence	conawa1_nomask	8	7	0	0	300	300	0	0	3330	guess	1	-60,8072916666666642982pct	loyal	ehrlich	retten	lachen	helfen	schön	lasch	eitel	rächen	leiden	hindern	schlecht	schlau	tolerant	spielen	fair	treu	freundlich	schroff	tyrannisch	strafen	faul	tot	fanatisch	0	0	0	0	0	0	0	0	0	0	0	0	0	0	0	0	0	0	0	0	0	0	0	0	0	0	0	0	0	0
2024-05-17	14:33:06	14:45:35	749306	6.6.1	4_exp_EVA_AWA_CON	43	B	A	Rpleas_acq	Same	Rpleas	2pleas	conawa_CS2_US6	conawa1_nomask	8	8	0	0	300	300	0	0	9029	schroff	1	-60,8072916666666642982pct	loyal	ehrlich	retten	lachen	helfen	schön	lasch	eitel	rächen	leiden	hindern	schlecht	schlau	tolerant	spielen	fair	treu	freundlich	schroff	tyrannisch	strafen	faul	tot	fanatisch	0	0	0	0	0	0	0	0	0	0	0	0	0	0	0	0	0	0	0	0	0	0	0	0	0	0	0	0	0	0
2024-05-17	14:33:06	14:45:35	749308	6.6.1	4_exp_EVA_AWA_CON	43	B	A	Rpleas_acq	Same	Rpleas	2pleas	conawa_CS2_US6_confidence	conawa1_nomask	8	8	0	0	300	300	0	0	9029	probably	1	-60,8072916666666642982pct	loyal	ehrlich	retten	lachen	helfen	schön	lasch	eitel	rächen	leiden	hindern	schlecht	schlau	tolerant	spielen	fair	treu	freundlich	schroff	tyrannisch	strafen	faul	tot	fanatisch	0	0	0	0	0	0	0	0	0	0	0	0	0	0	0	0	0	0	0	0	0	0	0	0	0	0	0	0	0	0
2024-05-17	14:33:06	14:45:42	756211	6.6.1	4_exp_EVA_AWA_CON	43	B	A	Rpleas_acq	Same	Rpleas	2pleas	conawa_CS2_US5	conawa1_nomask	8	9	0	0	300	300	0	0	6287	fanatisch	1	-60,8072916666666642982pct	loyal	ehrlich	retten	lachen	helfen	schön	lasch	eitel	rächen	leiden	hindern	schlecht	schlau	tolerant	spielen	fair	treu	freundlich	schroff	tyrannisch	strafen	faul	tot	fanatisch	0	0	0	0	0	0	0	0	0	0	0	0	0	0	0	0	0	0	0	0	0	0	0	0	0	0	0	0	0	0
2024-05-17	14:33:06	14:45:42	756212	6.6.1	4_exp_EVA_AWA_CON	43	B	A	Rpleas_acq	Same	Rpleas	2pleas	conawa_CS2_US5_confidence	conawa1_nomask	8	9	0	0	300	300	0	0	6287	sure	1	-60,8072916666666642982pct	loyal	ehrlich	retten	lachen	helfen	schön	lasch	eitel	rächen	leiden	hindern	schlecht	schlau	tolerant	spielen	fair	treu	freundlich	schroff	tyrannisch	strafen	faul	tot	fanatisch	0	0	0	0	0	0	0	0	0	0	0	0	0	0	0	0	0	0	0	0	0	0	0	0	0	0	0	0	0	0
2024-05-17	14:33:06	14:45:56	770269	6.6.1	4_exp_EVA_AWA_CON	43	B	A	Rpleas_acq	Same	Rpleas	2pleas	conawa_CS2_US4	conawa1_nomask	8	10	0	0	300	300	0	0	13446	lachen	1	-60,8072916666666642982pct	loyal	ehrlich	retten	lachen	helfen	schön	lasch	eitel	rächen	leiden	hindern	schlecht	schlau	tolerant	spielen	fair	treu	freundlich	schroff	tyrannisch	strafen	faul	tot	fanatisch	0	0	0	0	0	0	0	0	0	0	0	0	0	0	0	0	0	0	0	0	0	0	0	0	0	0	0	0	0	0
2024-05-17	14:33:06	14:45:56	770271	6.6.1	4_exp_EVA_AWA_CON	43	B	A	Rpleas_acq	Same	Rpleas	2pleas	conawa_CS2_US4_confidence	conawa1_nomask	8	10	0	0	300	300	0	0	13446	sure	1	-60,8072916666666642982pct	loyal	ehrlich	retten	lachen	helfen	schön	lasch	eitel	rächen	leiden	hindern	schlecht	schlau	tolerant	spielen	fair	treu	freundlich	schroff	tyrannisch	strafen	faul	tot	fanatisch	0	0	0	0	0	0	0	0	0	0	0	0	0	0	0	0	0	0	0	0	0	0	0	0	0	0	0	0	0	0
2024-05-17	14:33:06	14:46:00	774372	6.6.1	4_exp_EVA_AWA_CON	43	B	A	Rpleas_acq	Same	Rpleas	2pleas	conawa_CS2_US3	conawa1_nomask	8	11	0	0	300	300	0	0	3484	retten	1	-60,8072916666666642982pct	loyal	ehrlich	retten	lachen	helfen	schön	lasch	eitel	rächen	leiden	hindern	schlecht	schlau	tolerant	spielen	fair	treu	freundlich	schroff	tyrannisch	strafen	faul	tot	fanatisch	0	0	0	0	0	0	0	0	0	0	0	0	0	0	0	0	0	0	0	0	0	0	0	0	0	0	0	0	0	0
2024-05-17	14:33:06	14:46:00	774374	6.6.1	4_exp_EVA_AWA_CON	43	B	A	Rpleas_acq	Same	Rpleas	2pleas	conawa_CS2_US3_confidence	conawa1_nomask	8	11	0	0	300	300	0	0	3484	probably	1	-60,8072916666666642982pct	loyal	ehrlich	retten	lachen	helfen	schön	lasch	eitel	rächen	leiden	hindern	schlecht	schlau	tolerant	spielen	fair	treu	freundlich	schroff	tyrannisch	strafen	faul	tot	fanatisch	0	0	0	0	0	0	0	0	0	0	0	0	0	0	0	0	0	0	0	0	0	0	0	0	0	0	0	0	0	0
2024-05-17	14:33:06	14:46:06	780046	6.6.1	4_exp_EVA_AWA_CON	43	B	A	Rpleas_acq	Same	Rpleas	2pleas	conawa_CS1_US3	conawa1_nomask	8	12	0	0	300	300	0	0	5068	spielen	1	-60,8072916666666642982pct	loyal	ehrlich	retten	lachen	helfen	schön	lasch	eitel	rächen	leiden	hindern	schlecht	schlau	tolerant	spielen	fair	treu	freundlich	schroff	tyrannisch	strafen	faul	tot	fanatisch	0	0	0	0	0	0	0	0	0	0	0	0	0	0	0	0	0	0	0	0	0	0	0	0	0	0	0	0	0	0
2024-05-17	14:33:06	14:46:06	780048	6.6.1	4_exp_EVA_AWA_CON	43	B	A	Rpleas_acq	Same	Rpleas	2pleas	conawa_CS1_US3_confidence	conawa1_nomask	8	12	0	0	300	300	0	0	5068	probably	1	-60,8072916666666642982pct	loyal	ehrlich	retten	lachen	helfen	schön	lasch	eitel	rächen	leiden	hindern	schlecht	schlau	tolerant	spielen	fair	treu	freundlich	schroff	tyrannisch	strafen	faul	tot	fanatisch	0	0	0	0	0	0	0	0	0	0	0	0	0	0	0	0	0	0	0	0	0	0	0	0	0	0	0	0	0	0
2024-05-17	14:33:06	14:47:11	844962	6.6.1	4_exp_EVA_AWA_CON	43	B	A	Rpleas_acq	Same	Rpleas	2pleas	cond_new_pleas_456_nomask_CS2	condtest_nomask_1	11	1	400	0	300	300	0	0	3646	50	1	-60,8072916666666642982pct	loyal	ehrlich	retten	lachen	helfen	schön	lasch	eitel	rächen	leiden	hindern	schlecht	schlau	tolerant	spielen	fair	treu	freundlich	schroff	tyrannisch	strafen	faul	tot	fanatisch	1	blank2r.bmp	0	1	+	0	1	blank2r.bmp	500	1	GKQX	500	1	blank2r.bmp	880	1	freundlich	880	1	!	1232	1	!	-1	0	0	0	0	0	0
2024-05-17	14:33:06	14:47:14	847602	6.6.1	4_exp_EVA_AWA_CON	43	B	A	Rpleas_acq	Same	Rpleas	2pleas	cond_new_pleas_456_nomask_CS1	condtest_nomask_1	11	2	400	0	300	300	0	0	863	50	1	-60,8072916666666642982pct	loyal	ehrlich	retten	lachen	helfen	schön	lasch	eitel	rächen	leiden	hindern	schlecht	schlau	tolerant	spielen	fair	treu	freundlich	schroff	tyrannisch	strafen	faul	tot	fanatisch	1	blank2r.bmp	0	1	+	0	1	blank2r.bmp	500	1	BMVZ	500	1	blank2r.bmp	880	1	fair	880	1	!	1232	1	!	-1	0	0	0	0	0	0
2024-05-17	14:33:06	14:47:16	849844	6.6.1	4_exp_EVA_AWA_CON	43	B	A	Rpleas_acq	Same	Rpleas	2pleas	cond_US_pleas_123_nomask_CS2	condtest_nomask_1	11	3	400	1	300	300	0	0	461	46	0	-60,8072916666666642982pct	loyal	ehrlich	retten	lachen	helfen	schön	lasch	eitel	rächen	leiden	hindern	schlecht	schlau	tolerant	spielen	fair	treu	freundlich	schroff	tyrannisch	strafen	faul	tot	fanatisch	1	blank2r.bmp	0	1	+	0	1	blank2r.bmp	500	1	GKQX	500	1	blank2r.bmp	880	2	loyal	880	1	!	1232	1	!	1363	0	0	0	0	0	0
2024-05-17	14:33:06	14:47:18	852028	6.6.1	4_exp_EVA_AWA_CON	43	B	A	Rpleas_acq	Same	Rpleas	2pleas	cond_new_unple_456_nomask_CS1	condtest_nomask_1	11	4	400	1	300	300	0	0	404	46	1	-60,8072916666666642982pct	loyal	ehrlich	retten	lachen	helfen	schön	lasch	eitel	rächen	leiden	hindern	schlecht	schlau	tolerant	spielen	fair	treu	freundlich	schroff	tyrannisch	strafen	faul	tot	fanatisch	1	blank2r.bmp	0	1	+	0	1	blank2r.bmp	500	1	BMVZ	500	1	blank2r.bmp	880	1	faul	880	1	!	1232	1	!	1305	0	0	0	0	0	0
2024-05-17	14:33:06	14:47:20	854114	6.6.1	4_exp_EVA_AWA_CON	43	B	A	Rpleas_acq	Same	Rpleas	2pleas	cond_US_unple_123_nomask_CS2	condtest_nomask_1	11	5	400	0	300	300	0	0	311	46	1	-60,8072916666666642982pct	loyal	ehrlich	retten	lachen	helfen	schön	lasch	eitel	rächen	leiden	hindern	schlecht	schlau	tolerant	spielen	fair	treu	freundlich	schroff	tyrannisch	strafen	faul	tot	fanatisch	1	blank2r.bmp	0	1	+	0	1	blank2r.bmp	500	1	GKQX	500	1	blank2r.bmp	880	1	rächen	880	1	!	-1	1	!	-1	0	0	0	0	0	0
2024-05-17	14:33:06	14:47:22	856348	6.6.1	4_exp_EVA_AWA_CON	43	B	A	Rpleas_acq	Same	Rpleas	2pleas	cond_new_unple_456_nomask_CS2	condtest_nomask_1	11	6	400	1	300	300	0	0	451	50	0	-60,8072916666666642982pct	loyal	ehrlich	retten	lachen	helfen	schön	lasch	eitel	rächen	leiden	hindern	schlecht	schlau	tolerant	spielen	fair	treu	freundlich	schroff	tyrannisch	strafen	faul	tot	fanatisch	1	blank2r.bmp	0	1	+	0	1	blank2r.bmp	500	1	GKQX	500	1	blank2r.bmp	880	1	fanatisch	880	1	!	1232	1	!	1352	0	0	0	0	0	0
2024-05-17	14:33:06	14:47:25	858555	6.6.1	4_exp_EVA_AWA_CON	43	B	A	Rpleas_acq	Same	Rpleas	2pleas	cond_US_unple_123_nomask_CS1	condtest_nomask_1	11	7	400	1	300	300	0	0	428	46	1	-60,8072916666666642982pct	loyal	ehrlich	retten	lachen	helfen	schön	lasch	eitel	rächen	leiden	hindern	schlecht	schlau	tolerant	spielen	fair	treu	freundlich	schroff	tyrannisch	strafen	faul	tot	fanatisch	1	blank2r.bmp	0	1	+	0	1	blank2r.bmp	500	1	BMVZ	500	1	blank2r.bmp	880	3	rächen	880	1	!	1232	1	!	1329	0	0	0	0	0	0
2024-05-17	14:33:06	14:47:27	860788	6.6.1	4_exp_EVA_AWA_CON	43	B	A	Rpleas_acq	Same	Rpleas	2pleas	cond_US_pleas_123_nomask_CS1	condtest_nomask_1	11	8	400	1	300	300	0	0	458	50	1	-60,8072916666666642982pct	loyal	ehrlich	retten	lachen	helfen	schön	lasch	eitel	rächen	leiden	hindern	schlecht	schlau	tolerant	spielen	fair	treu	freundlich	schroff	tyrannisch	strafen	faul	tot	fanatisch	1	blank2r.bmp	0	1	+	0	1	blank2r.bmp	500	1	BMVZ	500	1	blank2r.bmp	880	2	ehrlich	880	1	!	1232	1	!	1360	0	0	0	0	0	0
2024-05-17	14:33:06	14:47:32	866066	6.6.1	4_exp_EVA_AWA_CON	43	B	A	Rpleas_acq	Same	Rpleas	2pleas	cond_US_unple_123_nomask_CS2	condtest_nomask_2	12	1	400	0	300	300	0	0	285	46	1	-60,8072916666666642982pct	loyal	ehrlich	retten	lachen	helfen	schön	lasch	eitel	rächen	leiden	hindern	schlecht	schlau	tolerant	spielen	fair	treu	freundlich	schroff	tyrannisch	strafen	faul	tot	fanatisch	1	blank2r.bmp	0	1	+	0	1	blank2r.bmp	500	1	GKQX	500	1	blank2r.bmp	880	3	eitel	880	1	!	-1	1	!	-1	0	0	0	0	0	0
