date	time	currenttime	elapsedtime	build	currentexpt	subject	CS_AB	US_AB	LRpleas_acq	SameOppo	condition_Lpleas	condition_1pleas	trialcode	blockcode	blocknum	trialnum	windowcenter	inwindow	pretrialpause	posttrialpause	trialduration	trialtimeout	latency	response	correct	correctedscore	US_nomask_pleas1	US_nomask_pleas2	US_nomask_pleas3	US_nomask_pleas4	US_nomask_pleas5	US_nomask_pleas6	US_nomask_unple1	US_nomask_unple2	US_nomask_unple3	US_nomask_unple4	US_nomask_unple5	US_nomask_unple6	new_nomask_pleas1	new_nomask_pleas2	new_nomask_pleas3	new_nomask_pleas4	new_nomask_pleas5	new_nomask_pleas6	new_nomask_unple1	new_nomask_unple2	new_nomask_unple3	new_nomask_unple4	new_nomask_unple5	new_nomask_unple6	stimulusnumber1	stimulusitem1	stimulusonset1	stimulusnumber2	stimulusitem2	stimulusonset2	stimulusnumber3	stimulusitem3	stimulusonset3	stimulusnumber4	stimulusitem4	stimulusonset4	stimulusnumber5	stimulusitem5	stimulusonset5	stimulusnumber6	stimulusitem6	stimulusonset6	stimulusnumber7	stimulusitem7	stimulusonset7	stimulusnumber8	stimulusitem8	stimulusonset8	stimulusnumber9	stimulusitem9	stimulusonset9	stimulusnumber10	stimulusitem10	stimulusonset10
2024-05-28	11:28:48	11:30:47	117738	6.6.1	4_exp_EVA_AWA_CON	55	A	B	Rpleas_acq	Same	Rpleas	2pleas	acq_US_unple_nomask	acq1_nomask	1	1	0	0	300	300	0	0	1029	46	1	0	sonnig	genießen	gütig	vergnügt	vertrauen	engagiert	sterben	gemein	gierig	verbissen	versagen	engstirnig	träumen	kuss	kreativ	anregung	gesittet	besonnen	töten	krise	krank	ausrottung	geizig	bange	1	blank2r.bmp	0	1	+	0	1	blank2r.bmp	500	1	CPLW	500	1	blank2r.bmp	880	2	gemein	880	0	0	0	0	0	0	0	0	0	0	0	0
2024-05-28	11:28:48	11:30:49	120338	6.6.1	4_exp_EVA_AWA_CON	55	A	B	Rpleas_acq	Same	Rpleas	2pleas	acq_US_pleas_nomask	acq1_nomask	1	2	0	0	300	300	0	0	1117	50	1	0	sonnig	genießen	gütig	vergnügt	vertrauen	engagiert	sterben	gemein	gierig	verbissen	versagen	engstirnig	träumen	kuss	kreativ	anregung	gesittet	besonnen	töten	krise	krank	ausrottung	geizig	bange	1	blank2r.bmp	0	1	+	0	1	blank2r.bmp	500	1	DHJF	500	1	blank2r.bmp	880	3	gütig	880	0	0	0	0	0	0	0	0	0	0	0	0
2024-05-28	11:28:48	11:30:51	122610	6.6.1	4_exp_EVA_AWA_CON	55	A	B	Rpleas_acq	Same	Rpleas	2pleas	acq_US_unple_nomask	acq1_nomask	1	3	0	0	300	300	0	0	788	46	1	0	sonnig	genießen	gütig	vergnügt	vertrauen	engagiert	sterben	gemein	gierig	verbissen	versagen	engstirnig	träumen	kuss	kreativ	anregung	gesittet	besonnen	töten	krise	krank	ausrottung	geizig	bange	1	blank2r.bmp	0	1	+	0	1	blank2r.bmp	500	1	CPLW	500	1	blank2r.bmp	880	1	sterben	880	0	0	0	0	0	0	0	0	0	0	0	0
2024-05-28	11:28:48	11:30:54	125034	6.6.1	4_exp_EVA_AWA_CON	55	A	B	Rpleas_acq	Same	Rpleas	2pleas	acq_new_unple_nomask	acq1_nomask	1	4	0	0	300	300	0	0	940	46	1	0	sonnig	genießen	gütig	vergnügt	vertrauen	engagiert	sterben	gemein	gierig	verbissen	versagen	engstirnig	träumen	kuss	kreativ	anregung	gesittet	besonnen	töten	krise	krank	ausrottung	geizig	bange	1	blank2r.bmp	0	1	+	0	1	blank2r.bmp	500	7	C3r.bmp	500	1	blank2r.bmp	880	6	bange	880	0	0	0	0	0	0	0	0	0	0	0	0
2024-05-28	11:28:48	11:30:56	127257	6.6.1	4_exp_EVA_AWA_CON	55	A	B	Rpleas_acq	Same	Rpleas	2pleas	acq_US_pleas_nomask	acq1_nomask	1	5	0	0	300	300	0	0	743	50	1	0	sonnig	genießen	gütig	vergnügt	vertrauen	engagiert	sterben	gemein	gierig	verbissen	versagen	engstirnig	träumen	kuss	kreativ	anregung	gesittet	besonnen	töten	krise	krank	ausrottung	geizig	bange	1	blank2r.bmp	0	1	+	0	1	blank2r.bmp	500	1	DHJF	500	1	blank2r.bmp	880	4	vergnügt	880	0	0	0	0	0	0	0	0	0	0	0	0
2024-05-28	11:28:48	11:30:58	129458	6.6.1	4_exp_EVA_AWA_CON	55	A	B	Rpleas_acq	Same	Rpleas	2pleas	acq_new_unple_nomask	acq1_nomask	1	6	0	0	300	300	0	0	711	46	1	0	sonnig	genießen	gütig	vergnügt	vertrauen	engagiert	sterben	gemein	gierig	verbissen	versagen	engstirnig	träumen	kuss	kreativ	anregung	gesittet	besonnen	töten	krise	krank	ausrottung	geizig	bange	1	blank2r.bmp	0	1	+	0	1	blank2r.bmp	500	8	C4r.bmp	500	1	blank2r.bmp	880	2	krise	880	0	0	0	0	0	0	0	0	0	0	0	0
2024-05-28	11:28:48	11:31:01	131666	6.6.1	4_exp_EVA_AWA_CON	55	A	B	Rpleas_acq	Same	Rpleas	2pleas	acq_new_pleas_nomask	acq1_nomask	1	7	0	0	300	300	0	0	718	50	1	0	sonnig	genießen	gütig	vergnügt	vertrauen	engagiert	sterben	gemein	gierig	verbissen	versagen	engstirnig	träumen	kuss	kreativ	anregung	gesittet	besonnen	töten	krise	krank	ausrottung	geizig	bange	1	blank2r.bmp	0	1	+	0	1	blank2r.bmp	500	2	B2r.bmp	500	1	blank2r.bmp	880	3	kreativ	880	0	0	0	0	0	0	0	0	0	0	0	0
2024-05-28	11:28:48	11:31:03	133706	6.6.1	4_exp_EVA_AWA_CON	55	A	B	Rpleas_acq	Same	Rpleas	2pleas	acq_new_unple_nomask	acq1_nomask	1	8	0	0	300	300	0	0	556	46	1	0	sonnig	genießen	gütig	vergnügt	vertrauen	engagiert	sterben	gemein	gierig	verbissen	versagen	engstirnig	träumen	kuss	kreativ	anregung	gesittet	besonnen	töten	krise	krank	ausrottung	geizig	bange	1	blank2r.bmp	0	1	+	0	1	blank2r.bmp	500	5	C1r.bmp	500	1	blank2r.bmp	880	3	krank	880	0	0	0	0	0	0	0	0	0	0	0	0
2024-05-28	11:28:48	11:31:05	135874	6.6.1	4_exp_EVA_AWA_CON	55	A	B	Rpleas_acq	Same	Rpleas	2pleas	acq_new_pleas_nomask	acq1_nomask	1	9	0	0	300	300	0	0	683	50	1	0	sonnig	genießen	gütig	vergnügt	vertrauen	engagiert	sterben	gemein	gierig	verbissen	versagen	engstirnig	träumen	kuss	kreativ	anregung	gesittet	besonnen	töten	krise	krank	ausrottung	geizig	bange	1	blank2r.bmp	0	1	+	0	1	blank2r.bmp	500	1	B1r.bmp	500	1	blank2r.bmp	880	4	anregung	880	0	0	0	0	0	0	0	0	0	0	0	0
2024-05-28	11:28:48	11:31:07	138002	6.6.1	4_exp_EVA_AWA_CON	55	A	B	Rpleas_acq	Same	Rpleas	2pleas	acq_new_pleas_nomask	acq1_nomask	1	10	0	0	300	300	0	0	640	50	1	0	sonnig	genießen	gütig	vergnügt	vertrauen	engagiert	sterben	gemein	gierig	verbissen	versagen	engstirnig	träumen	kuss	kreativ	anregung	gesittet	besonnen	töten	krise	krank	ausrottung	geizig	bange	1	blank2r.bmp	0	1	+	0	1	blank2r.bmp	500	3	B3r.bmp	500	1	blank2r.bmp	880	1	träumen	880	0	0	0	0	0	0	0	0	0	0	0	0
2024-05-28	11:28:48	11:31:09	140314	6.6.1	4_exp_EVA_AWA_CON	55	A	B	Rpleas_acq	Same	Rpleas	2pleas	acq_US_unple_nomask	acq1_nomask	1	11	0	0	300	300	0	0	830	46	1	0	sonnig	genießen	gütig	vergnügt	vertrauen	engagiert	sterben	gemein	gierig	verbissen	versagen	engstirnig	träumen	kuss	kreativ	anregung	gesittet	besonnen	töten	krise	krank	ausrottung	geizig	bange	1	blank2r.bmp	0	1	+	0	1	blank2r.bmp	500	1	CPLW	500	1	blank2r.bmp	880	5	versagen	880	0	0	0	0	0	0	0	0	0	0	0	0
2024-05-28	11:28:48	11:31:12	142737	6.6.1	4_exp_EVA_AWA_CON	55	A	B	Rpleas_acq	Same	Rpleas	2pleas	acq_US_pleas_nomask	acq1_nomask	1	12	0	0	300	300	0	0	943	50	1	0	sonnig	genießen	gütig	vergnügt	vertrauen	engagiert	sterben	gemein	gierig	verbissen	versagen	engstirnig	träumen	kuss	kreativ	anregung	gesittet	besonnen	töten	krise	krank	ausrottung	geizig	bange	1	blank2r.bmp	0	1	+	0	1	blank2r.bmp	500	1	DHJF	500	1	blank2r.bmp	880	1	sonnig	880	0	0	0	0	0	0	0	0	0	0	0	0
2024-05-28	11:28:48	11:31:14	144978	6.6.1	4_exp_EVA_AWA_CON	55	A	B	Rpleas_acq	Same	Rpleas	2pleas	acq_new_unple_nomask	acq1_nomask	1	13	0	0	300	300	0	0	751	46	1	0	sonnig	genießen	gütig	vergnügt	vertrauen	engagiert	sterben	gemein	gierig	verbissen	versagen	engstirnig	träumen	kuss	kreativ	anregung	gesittet	besonnen	töten	krise	krank	ausrottung	geizig	bange	1	blank2r.bmp	0	1	+	0	1	blank2r.bmp	500	4	B4r.bmp	500	1	blank2r.bmp	880	5	geizig	880	0	0	0	0	0	0	0	0	0	0	0	0
2024-05-28	11:28:48	11:31:17	147817	6.6.1	4_exp_EVA_AWA_CON	55	A	B	Rpleas_acq	Same	Rpleas	2pleas	acq_US_unple_nomask	acq1_nomask	1	14	0	0	300	300	0	0	1350	46	1	0	sonnig	genießen	gütig	vergnügt	vertrauen	engagiert	sterben	gemein	gierig	verbissen	versagen	engstirnig	träumen	kuss	kreativ	anregung	gesittet	besonnen	töten	krise	krank	ausrottung	geizig	bange	1	blank2r.bmp	0	1	+	0	1	blank2r.bmp	500	1	CPLW	500	1	blank2r.bmp	880	4	verbissen	880	0	0	0	0	0	0	0	0	0	0	0	0
2024-05-28	11:28:48	11:31:19	150218	6.6.1	4_exp_EVA_AWA_CON	55	A	B	Rpleas_acq	Same	Rpleas	2pleas	acq_US_unple_nomask	acq1_nomask	1	15	0	0	300	300	0	0	918	46	1	0	sonnig	genießen	gütig	vergnügt	vertrauen	engagiert	sterben	gemein	gierig	verbissen	versagen	engstirnig	träumen	kuss	kreativ	anregung	gesittet	besonnen	töten	krise	krank	ausrottung	geizig	bange	1	blank2r.bmp	0	1	+	0	1	blank2r.bmp	500	1	CPLW	500	1	blank2r.bmp	880	3	gierig	880	0	0	0	0	0	0	0	0	0	0	0	0
2024-05-28	11:28:48	11:31:21	152402	6.6.1	4_exp_EVA_AWA_CON	55	A	B	Rpleas_acq	Same	Rpleas	2pleas	acq_US_unple_nomask	acq1_nomask	1	16	0	0	300	300	0	0	700	46	1	0	sonnig	genießen	gütig	vergnügt	vertrauen	engagiert	sterben	gemein	gierig	verbissen	versagen	engstirnig	träumen	kuss	kreativ	anregung	gesittet	besonnen	töten	krise	krank	ausrottung	geizig	bange	1	blank2r.bmp	0	1	+	0	1	blank2r.bmp	500	1	CPLW	500	1	blank2r.bmp	880	6	engstirnig	880	0	0	0	0	0	0	0	0	0	0	0	0
2024-05-28	11:28:48	11:31:24	154810	6.6.1	4_exp_EVA_AWA_CON	55	A	B	Rpleas_acq	Same	Rpleas	2pleas	acq_US_pleas_nomask	acq1_nomask	1	17	0	0	300	300	0	0	927	50	1	0	sonnig	genießen	gütig	vergnügt	vertrauen	engagiert	sterben	gemein	gierig	verbissen	versagen	engstirnig	träumen	kuss	kreativ	anregung	gesittet	besonnen	töten	krise	krank	ausrottung	geizig	bange	1	blank2r.bmp	0	1	+	0	1	blank2r.bmp	500	1	DHJF	500	1	blank2r.bmp	880	2	genießen	880	0	0	0	0	0	0	0	0	0	0	0	0
2024-05-28	11:28:48	11:31:26	157186	6.6.1	4_exp_EVA_AWA_CON	55	A	B	Rpleas_acq	Same	Rpleas	2pleas	acq_new_unple_nomask	acq1_nomask	1	18	0	0	300	300	0	0	891	46	1	0	sonnig	genießen	gütig	vergnügt	vertrauen	engagiert	sterben	gemein	gierig	verbissen	versagen	engstirnig	träumen	kuss	kreativ	anregung	gesittet	besonnen	töten	krise	krank	ausrottung	geizig	bange	1	blank2r.bmp	0	1	+	0	1	blank2r.bmp	500	6	C2r.bmp	500	1	blank2r.bmp	880	4	ausrottung	880	0	0	0	0	0	0	0	0	0	0	0	0
2024-05-28	11:28:48	11:31:28	159521	6.6.1	4_exp_EVA_AWA_CON	55	A	B	Rpleas_acq	Same	Rpleas	2pleas	acq_US_pleas_nomask	acq1_nomask	1	19	0	0	300	300	0	0	846	50	1	0	sonnig	genießen	gütig	vergnügt	vertrauen	engagiert	sterben	gemein	gierig	verbissen	versagen	engstirnig	träumen	kuss	kreativ	anregung	gesittet	besonnen	töten	krise	krank	ausrottung	geizig	bange	1	blank2r.bmp	0	1	+	0	1	blank2r.bmp	500	1	DHJF	500	1	blank2r.bmp	880	5	vertrauen	880	0	0	0	0	0	0	0	0	0	0	0	0
2024-05-28	11:28:48	11:31:30	161569	6.6.1	4_exp_EVA_AWA_CON	55	A	B	Rpleas_acq	Same	Rpleas	2pleas	acq_new_pleas_nomask	acq1_nomask	1	20	0	0	300	300	0	0	562	50	1	0	sonnig	genießen	gütig	vergnügt	vertrauen	engagiert	sterben	gemein	gierig	verbissen	versagen	engstirnig	träumen	kuss	kreativ	anregung	gesittet	besonnen	töten	krise	krank	ausrottung	geizig	bange	1	blank2r.bmp	0	1	+	0	1	blank2r.bmp	500	6	C2r.bmp	500	1	blank2r.bmp	880	2	kuss	880	0	0	0	0	0	0	0	0	0	0	0	0
2024-05-28	11:28:48	11:31:32	163610	6.6.1	4_exp_EVA_AWA_CON	55	A	B	Rpleas_acq	Same	Rpleas	2pleas	acq_new_pleas_nomask	acq1_nomask	1	21	0	0	300	300	0	0	551	50	1	0	sonnig	genießen	gütig	vergnügt	vertrauen	engagiert	sterben	gemein	gierig	verbissen	versagen	engstirnig	träumen	kuss	kreativ	anregung	gesittet	besonnen	töten	krise	krank	ausrottung	geizig	bange	1	blank2r.bmp	0	1	+	0	1	blank2r.bmp	500	1	B1r.bmp	500	1	blank2r.bmp	880	5	gesittet	880	0	0	0	0	0	0	0	0	0	0	0	0
2024-05-28	11:28:48	11:31:35	165946	6.6.1	4_exp_EVA_AWA_CON	55	A	B	Rpleas_acq	Same	Rpleas	2pleas	acq_US_pleas_nomask	acq1_nomask	1	22	0	0	300	300	0	0	856	50	1	0	sonnig	genießen	gütig	vergnügt	vertrauen	engagiert	sterben	gemein	gierig	verbissen	versagen	engstirnig	träumen	kuss	kreativ	anregung	gesittet	besonnen	töten	krise	krank	ausrottung	geizig	bange	1	blank2r.bmp	0	1	+	0	1	blank2r.bmp	500	1	DHJF	500	1	blank2r.bmp	880	6	engagiert	880	0	0	0	0	0	0	0	0	0	0	0	0
2024-05-28	11:28:48	11:31:37	167954	6.6.1	4_exp_EVA_AWA_CON	55	A	B	Rpleas_acq	Same	Rpleas	2pleas	acq_new_unple_nomask	acq1_nomask	1	23	0	0	300	300	0	0	522	46	1	0	sonnig	genießen	gütig	vergnügt	vertrauen	engagiert	sterben	gemein	gierig	verbissen	versagen	engstirnig	träumen	kuss	kreativ	anregung	gesittet	besonnen	töten	krise	krank	ausrottung	geizig	bange	1	blank2r.bmp	0	1	+	0	1	blank2r.bmp	500	2	B2r.bmp	500	1	blank2r.bmp	880	1	töten	880	0	0	0	0	0	0	0	0	0	0	0	0
2024-05-28	11:28:48	11:31:39	170050	6.6.1	4_exp_EVA_AWA_CON	55	A	B	Rpleas_acq	Same	Rpleas	2pleas	acq_new_pleas_nomask	acq1_nomask	1	24	0	0	300	300	0	0	607	50	1	0	sonnig	genießen	gütig	vergnügt	vertrauen	engagiert	sterben	gemein	gierig	verbissen	versagen	engstirnig	träumen	kuss	kreativ	anregung	gesittet	besonnen	töten	krise	krank	ausrottung	geizig	bange	1	blank2r.bmp	0	1	+	0	1	blank2r.bmp	500	8	C4r.bmp	500	1	blank2r.bmp	880	6	besonnen	880	0	0	0	0	0	0	0	0	0	0	0	0
2024-05-28	11:28:48	11:31:41	172337	6.6.1	4_exp_EVA_AWA_CON	55	A	B	Rpleas_acq	Same	Rpleas	2pleas	acq_US_pleas_nomask	acq1_nomask	1	25	0	0	300	300	0	0	803	50	1	0	sonnig	genießen	gütig	vergnügt	vertrauen	engagiert	sterben	gemein	gierig	verbissen	versagen	engstirnig	träumen	kuss	kreativ	anregung	gesittet	besonnen	töten	krise	krank	ausrottung	geizig	bange	1	blank2r.bmp	0	1	+	0	1	blank2r.bmp	500	1	DHJF	500	1	blank2r.bmp	880	5	vertrauen	880	0	0	0	0	0	0	0	0	0	0	0	0
2024-05-28	11:28:48	11:31:43	174473	6.6.1	4_exp_EVA_AWA_CON	55	A	B	Rpleas_acq	Same	Rpleas	2pleas	acq_new_pleas_nomask	acq1_nomask	1	26	0	0	300	300	0	0	648	50	1	0	sonnig	genießen	gütig	vergnügt	vertrauen	engagiert	sterben	gemein	gierig	verbissen	versagen	engstirnig	träumen	kuss	kreativ	anregung	gesittet	besonnen	töten	krise	krank	ausrottung	geizig	bange	1	blank2r.bmp	0	1	+	0	1	blank2r.bmp	500	5	C1r.bmp	500	1	blank2r.bmp	880	5	gesittet	880	0	0	0	0	0	0	0	0	0	0	0	0
2024-05-28	11:28:48	11:31:45	176601	6.6.1	4_exp_EVA_AWA_CON	55	A	B	Rpleas_acq	Same	Rpleas	2pleas	acq_new_pleas_nomask	acq1_nomask	1	27	0	0	300	300	0	0	645	50	1	0	sonnig	genießen	gütig	vergnügt	vertrauen	engagiert	sterben	gemein	gierig	verbissen	versagen	engstirnig	träumen	kuss	kreativ	anregung	gesittet	besonnen	töten	krise	krank	ausrottung	geizig	bange	1	blank2r.bmp	0	1	+	0	1	blank2r.bmp	500	3	B3r.bmp	500	1	blank2r.bmp	880	6	besonnen	880	0	0	0	0	0	0	0	0	0	0	0	0
2024-05-28	11:28:48	11:31:48	179225	6.6.1	4_exp_EVA_AWA_CON	55	A	B	Rpleas_acq	Same	Rpleas	2pleas	acq_new_unple_nomask	acq1_nomask	1	28	0	0	300	300	0	0	1137	46	1	0	sonnig	genießen	gütig	vergnügt	vertrauen	engagiert	sterben	gemein	gierig	verbissen	versagen	engstirnig	träumen	kuss	kreativ	anregung	gesittet	besonnen	töten	krise	krank	ausrottung	geizig	bange	1	blank2r.bmp	0	1	+	0	1	blank2r.bmp	500	7	C3r.bmp	500	1	blank2r.bmp	880	6	bange	880	0	0	0	0	0	0	0	0	0	0	0	0
2024-05-28	11:28:48	11:31:50	181353	6.6.1	4_exp_EVA_AWA_CON	55	A	B	Rpleas_acq	Same	Rpleas	2pleas	acq_US_unple_nomask	acq1_nomask	1	29	0	0	300	300	0	0	644	46	1	0	sonnig	genießen	gütig	vergnügt	vertrauen	engagiert	sterben	gemein	gierig	verbissen	versagen	engstirnig	träumen	kuss	kreativ	anregung	gesittet	besonnen	töten	krise	krank	ausrottung	geizig	bange	1	blank2r.bmp	0	1	+	0	1	blank2r.bmp	500	1	CPLW	500	1	blank2r.bmp	880	5	versagen	880	0	0	0	0	0	0	0	0	0	0	0	0
2024-05-28	11:28:48	11:31:53	183665	6.6.1	4_exp_EVA_AWA_CON	55	A	B	Rpleas_acq	Same	Rpleas	2pleas	acq_US_pleas_nomask	acq1_nomask	1	30	0	0	300	300	0	0	824	50	1	0	sonnig	genießen	gütig	vergnügt	vertrauen	engagiert	sterben	gemein	gierig	verbissen	versagen	engstirnig	träumen	kuss	kreativ	anregung	gesittet	besonnen	töten	krise	krank	ausrottung	geizig	bange	1	blank2r.bmp	0	1	+	0	1	blank2r.bmp	500	1	DHJF	500	1	blank2r.bmp	880	6	engagiert	880	0	0	0	0	0	0	0	0	0	0	0	0
2024-05-28	11:28:48	11:31:55	185754	6.6.1	4_exp_EVA_AWA_CON	55	A	B	Rpleas_acq	Same	Rpleas	2pleas	acq_US_unple_nomask	acq1_nomask	1	31	0	0	300	300	0	0	601	46	1	0	sonnig	genießen	gütig	vergnügt	vertrauen	engagiert	sterben	gemein	gierig	verbissen	versagen	engstirnig	träumen	kuss	kreativ	anregung	gesittet	besonnen	töten	krise	krank	ausrottung	geizig	bange	1	blank2r.bmp	0	1	+	0	1	blank2r.bmp	500	1	CPLW	500	1	blank2r.bmp	880	1	sterben	880	0	0	0	0	0	0	0	0	0	0	0	0
2024-05-28	11:28:48	11:31:57	187770	6.6.1	4_exp_EVA_AWA_CON	55	A	B	Rpleas_acq	Same	Rpleas	2pleas	acq_US_unple_nomask	acq1_nomask	1	32	0	0	300	300	0	0	535	46	1	0	sonnig	genießen	gütig	vergnügt	vertrauen	engagiert	sterben	gemein	gierig	verbissen	versagen	engstirnig	träumen	kuss	kreativ	anregung	gesittet	besonnen	töten	krise	krank	ausrottung	geizig	bange	1	blank2r.bmp	0	1	+	0	1	blank2r.bmp	500	1	CPLW	500	1	blank2r.bmp	880	2	gemein	880	0	0	0	0	0	0	0	0	0	0	0	0
2024-05-28	11:28:48	11:31:59	189897	6.6.1	4_exp_EVA_AWA_CON	55	A	B	Rpleas_acq	Same	Rpleas	2pleas	acq_new_pleas_nomask	acq1_nomask	1	33	0	0	300	300	0	0	642	50	1	0	sonnig	genießen	gütig	vergnügt	vertrauen	engagiert	sterben	gemein	gierig	verbissen	versagen	engstirnig	träumen	kuss	kreativ	anregung	gesittet	besonnen	töten	krise	krank	ausrottung	geizig	bange	1	blank2r.bmp	0	1	+	0	1	blank2r.bmp	500	4	B4r.bmp	500	1	blank2r.bmp	880	2	kuss	880	0	0	0	0	0	0	0	0	0	0	0	0
2024-05-28	11:28:48	11:32:01	192201	6.6.1	4_exp_EVA_AWA_CON	55	A	B	Rpleas_acq	Same	Rpleas	2pleas	acq_US_pleas_nomask	acq1_nomask	1	34	0	0	300	300	0	0	815	50	1	0	sonnig	genießen	gütig	vergnügt	vertrauen	engagiert	sterben	gemein	gierig	verbissen	versagen	engstirnig	träumen	kuss	kreativ	anregung	gesittet	besonnen	töten	krise	krank	ausrottung	geizig	bange	1	blank2r.bmp	0	1	+	0	1	blank2r.bmp	500	1	DHJF	500	1	blank2r.bmp	880	2	genießen	880	0	0	0	0	0	0	0	0	0	0	0	0
2024-05-28	11:28:48	11:32:03	194553	6.6.1	4_exp_EVA_AWA_CON	55	A	B	Rpleas_acq	Same	Rpleas	2pleas	acq_new_unple_nomask	acq1_nomask	1	35	0	0	300	300	0	0	865	46	1	0	sonnig	genießen	gütig	vergnügt	vertrauen	engagiert	sterben	gemein	gierig	verbissen	versagen	engstirnig	träumen	kuss	kreativ	anregung	gesittet	besonnen	töten	krise	krank	ausrottung	geizig	bange	1	blank2r.bmp	0	1	+	0	1	blank2r.bmp	500	3	B3r.bmp	500	1	blank2r.bmp	880	3	krank	880	0	0	0	0	0	0	0	0	0	0	0	0
2024-05-28	11:28:48	11:32:06	196841	6.6.1	4_exp_EVA_AWA_CON	55	A	B	Rpleas_acq	Same	Rpleas	2pleas	acq_new_unple_nomask	acq1_nomask	1	36	0	0	300	300	0	0	802	46	1	0	sonnig	genießen	gütig	vergnügt	vertrauen	engagiert	sterben	gemein	gierig	verbissen	versagen	engstirnig	träumen	kuss	kreativ	anregung	gesittet	besonnen	töten	krise	krank	ausrottung	geizig	bange	1	blank2r.bmp	0	1	+	0	1	blank2r.bmp	500	2	B2r.bmp	500	1	blank2r.bmp	880	1	töten	880	0	0	0	0	0	0	0	0	0	0	0	0
2024-05-28	11:28:48	11:32:51	242580	6.6.1	4_exp_EVA_AWA_CON	55	A	B	Rpleas_acq	Same	Rpleas	2pleas	acq_US_pleas_nomask	acq2_nomask	2	1	480	0	300	300	0	0	3522	50	1	0	sonnig	genießen	gütig	vergnügt	vertrauen	engagiert	sterben	gemein	gierig	verbissen	versagen	engstirnig	träumen	kuss	kreativ	anregung	gesittet	besonnen	töten	krise	krank	ausrottung	geizig	bange	1	blank2r.bmp	0	1	+	0	1	blank2r.bmp	500	1	DHJF	500	1	blank2r.bmp	880	4	vergnügt	880	1	!	1313	1	!	-1	0	0	0	0	0	0
2024-05-28	11:28:48	11:32:54	245236	6.6.1	4_exp_EVA_AWA_CON	55	A	B	Rpleas_acq	Same	Rpleas	2pleas	acq_new_unple_nomask	acq2_nomask	2	2	480	0	300	300	0	0	875	46	1	0	sonnig	genießen	gütig	vergnügt	vertrauen	engagiert	sterben	gemein	gierig	verbissen	versagen	engstirnig	träumen	kuss	kreativ	anregung	gesittet	besonnen	töten	krise	krank	ausrottung	geizig	bange	1	blank2r.bmp	0	1	+	0	1	blank2r.bmp	500	5	C1r.bmp	500	1	blank2r.bmp	880	4	ausrottung	880	1	!	1313	1	!	-1	0	0	0	0	0	0
2024-05-28	11:28:48	11:32:56	247566	6.6.1	4_exp_EVA_AWA_CON	55	A	B	Rpleas_acq	Same	Rpleas	2pleas	acq_US_unple_nomask	acq2_nomask	2	3	480	1	300	300	0	0	551	46	1	0	sonnig	genießen	gütig	vergnügt	vertrauen	engagiert	sterben	gemein	gierig	verbissen	versagen	engstirnig	träumen	kuss	kreativ	anregung	gesittet	besonnen	töten	krise	krank	ausrottung	geizig	bange	1	blank2r.bmp	0	1	+	0	1	blank2r.bmp	500	1	CPLW	500	1	blank2r.bmp	880	3	gierig	880	1	!	1313	1	!	1452	0	0	0	0	0	0
2024-05-28	11:28:48	11:32:59	250007	6.6.1	4_exp_EVA_AWA_CON	55	A	B	Rpleas_acq	Same	Rpleas	2pleas	acq_US_pleas_nomask	acq2_nomask	2	4	480	1	300	300	0	0	459	46	0	0	sonnig	genießen	gütig	vergnügt	vertrauen	engagiert	sterben	gemein	gierig	verbissen	versagen	engstirnig	träumen	kuss	kreativ	anregung	gesittet	besonnen	töten	krise	krank	ausrottung	geizig	bange	1	blank2r.bmp	0	1	+	0	1	blank2r.bmp	500	1	DHJF	500	1	blank2r.bmp	880	3	gütig	880	1	FEHLER	1653	1	!	1312	1	!	1361	0	0	0
2024-05-28	11:28:48	11:33:01	252163	6.6.1	4_exp_EVA_AWA_CON	55	A	B	Rpleas_acq	Same	Rpleas	2pleas	acq_US_unple_nomask	acq2_nomask	2	5	480	0	300	300	0	0	578	46	1	0	sonnig	genießen	gütig	vergnügt	vertrauen	engagiert	sterben	gemein	gierig	verbissen	versagen	engstirnig	träumen	kuss	kreativ	anregung	gesittet	besonnen	töten	krise	krank	ausrottung	geizig	bange	1	blank2r.bmp	0	1	+	0	1	blank2r.bmp	500	1	CPLW	500	1	blank2r.bmp	880	4	verbissen	880	1	!	1313	1	!	-1	0	0	0	0	0	0
2024-05-28	11:28:48	11:33:04	254719	6.6.1	4_exp_EVA_AWA_CON	55	A	B	Rpleas_acq	Same	Rpleas	2pleas	acq_new_unple_nomask	acq2_nomask	2	6	480	0	300	300	0	0	578	50	0	0	sonnig	genießen	gütig	vergnügt	vertrauen	engagiert	sterben	gemein	gierig	verbissen	versagen	engstirnig	träumen	kuss	kreativ	anregung	gesittet	besonnen	töten	krise	krank	ausrottung	geizig	bange	1	blank2r.bmp	0	1	+	0	1	blank2r.bmp	500	4	B4r.bmp	500	1	blank2r.bmp	880	2	krise	880	1	FEHLER	1772	1	!	1313	1	!	-1	0	0	0
2024-05-28	11:28:48	11:33:06	256765	6.6.1	4_exp_EVA_AWA_CON	55	A	B	Rpleas_acq	Same	Rpleas	2pleas	acq_US_unple_nomask	acq2_nomask	2	7	480	1	300	300	0	0	475	46	1	0	sonnig	genießen	gütig	vergnügt	vertrauen	engagiert	sterben	gemein	gierig	verbissen	versagen	engstirnig	träumen	kuss	kreativ	anregung	gesittet	besonnen	töten	krise	krank	ausrottung	geizig	bange	1	blank2r.bmp	0	1	+	0	1	blank2r.bmp	500	1	CPLW	500	1	blank2r.bmp	880	6	engstirnig	880	1	!	1312	1	!	1376	0	0	0	0	0	0
2024-05-28	11:28:48	11:33:08	258981	6.6.1	4_exp_EVA_AWA_CON	55	A	B	Rpleas_acq	Same	Rpleas	2pleas	acq_new_unple_nomask	acq2_nomask	2	8	480	1	300	300	0	0	439	46	1	0	sonnig	genießen	gütig	vergnügt	vertrauen	engagiert	sterben	gemein	gierig	verbissen	versagen	engstirnig	träumen	kuss	kreativ	anregung	gesittet	besonnen	töten	krise	krank	ausrottung	geizig	bange	1	blank2r.bmp	0	1	+	0	1	blank2r.bmp	500	1	B1r.bmp	500	1	blank2r.bmp	880	5	geizig	880	1	!	1313	1	!	1341	0	0	0	0	0	0
2024-05-28	11:28:48	11:33:10	261407	6.6.1	4_exp_EVA_AWA_CON	55	A	B	Rpleas_acq	Same	Rpleas	2pleas	acq_new_pleas_nomask	acq2_nomask	2	9	480	1	300	300	0	0	442	46	0	0	sonnig	genießen	gütig	vergnügt	vertrauen	engagiert	sterben	gemein	gierig	verbissen	versagen	engstirnig	träumen	kuss	kreativ	anregung	gesittet	besonnen	töten	krise	krank	ausrottung	geizig	bange	1	blank2r.bmp	0	1	+	0	1	blank2r.bmp	500	6	C2r.bmp	500	1	blank2r.bmp	880	3	kreativ	880	1	FEHLER	1635	1	!	1312	1	!	1343	0	0	0
2024-05-28	11:28:48	11:33:14	265211	6.6.1	4_exp_EVA_AWA_CON	55	A	B	Rpleas_acq	Same	Rpleas	2pleas	acq_new_pleas_nomask	acq2_nomask	2	10	480	0	300	300	0	0	2228	50	1	0	sonnig	genießen	gütig	vergnügt	vertrauen	engagiert	sterben	gemein	gierig	verbissen	versagen	engstirnig	träumen	kuss	kreativ	anregung	gesittet	besonnen	töten	krise	krank	ausrottung	geizig	bange	1	blank2r.bmp	0	1	+	0	1	blank2r.bmp	500	7	C3r.bmp	500	1	blank2r.bmp	880	4	anregung	880	1	!	1313	1	!	-1	0	0	0	0	0	0
2024-05-28	11:28:48	11:33:16	267563	6.6.1	4_exp_EVA_AWA_CON	55	A	B	Rpleas_acq	Same	Rpleas	2pleas	acq_US_pleas_nomask	acq2_nomask	2	11	480	0	300	300	0	0	578	50	1	0	sonnig	genießen	gütig	vergnügt	vertrauen	engagiert	sterben	gemein	gierig	verbissen	versagen	engstirnig	träumen	kuss	kreativ	anregung	gesittet	besonnen	töten	krise	krank	ausrottung	geizig	bange	1	blank2r.bmp	0	1	+	0	1	blank2r.bmp	500	1	DHJF	500	1	blank2r.bmp	880	1	sonnig	880	1	!	1313	1	!	-1	0	0	0	0	0	0
2024-05-28	11:28:48	11:33:19	269813	6.6.1	4_exp_EVA_AWA_CON	55	A	B	Rpleas_acq	Same	Rpleas	2pleas	acq_new_pleas_nomask	acq2_nomask	2	12	480	1	300	300	0	0	474	50	1	0	sonnig	genießen	gütig	vergnügt	vertrauen	engagiert	sterben	gemein	gierig	verbissen	versagen	engstirnig	träumen	kuss	kreativ	anregung	gesittet	besonnen	töten	krise	krank	ausrottung	geizig	bange	1	blank2r.bmp	0	1	+	0	1	blank2r.bmp	500	8	C4r.bmp	500	1	blank2r.bmp	880	1	träumen	880	1	!	1312	1	!	1375	0	0	0	0	0	0
2024-05-28	11:28:48	11:33:21	272220	6.6.1	4_exp_EVA_AWA_CON	55	A	B	Rpleas_acq	Same	Rpleas	2pleas	acq_US_pleas_nomask	acq2_nomask	2	13	480	0	300	300	0	0	631	50	1	0	sonnig	genießen	gütig	vergnügt	vertrauen	engagiert	sterben	gemein	gierig	verbissen	versagen	engstirnig	träumen	kuss	kreativ	anregung	gesittet	besonnen	töten	krise	krank	ausrottung	geizig	bange	1	blank2r.bmp	0	1	+	0	1	blank2r.bmp	500	1	DHJF	500	1	blank2r.bmp	880	2	genießen	880	1	!	1313	1	!	-1	0	0	0	0	0	0
2024-05-28	11:28:48	11:33:23	274461	6.6.1	4_exp_EVA_AWA_CON	55	A	B	Rpleas_acq	Same	Rpleas	2pleas	acq_new_unple_nomask	acq2_nomask	2	14	480	1	300	300	0	0	459	46	1	0	sonnig	genießen	gütig	vergnügt	vertrauen	engagiert	sterben	gemein	gierig	verbissen	versagen	engstirnig	träumen	kuss	kreativ	anregung	gesittet	besonnen	töten	krise	krank	ausrottung	geizig	bange	1	blank2r.bmp	0	1	+	0	1	blank2r.bmp	500	7	C3r.bmp	500	1	blank2r.bmp	880	4	ausrottung	880	1	!	1313	1	!	1360	0	0	0	0	0	0
2024-05-28	11:28:48	11:33:26	276883	6.6.1	4_exp_EVA_AWA_CON	55	A	B	Rpleas_acq	Same	Rpleas	2pleas	acq_US_unple_nomask	acq2_nomask	2	15	480	0	300	300	0	0	642	46	1	0	sonnig	genießen	gütig	vergnügt	vertrauen	engagiert	sterben	gemein	gierig	verbissen	versagen	engstirnig	träumen	kuss	kreativ	anregung	gesittet	besonnen	töten	krise	krank	ausrottung	geizig	bange	1	blank2r.bmp	0	1	+	0	1	blank2r.bmp	500	1	CPLW	500	1	blank2r.bmp	880	6	engstirnig	880	1	!	1312	1	!	-1	0	0	0	0	0	0
2024-05-28	11:28:48	11:33:28	279275	6.6.1	4_exp_EVA_AWA_CON	55	A	B	Rpleas_acq	Same	Rpleas	2pleas	acq_US_unple_nomask	acq2_nomask	2	16	480	0	300	300	0	0	612	46	1	0	sonnig	genießen	gütig	vergnügt	vertrauen	engagiert	sterben	gemein	gierig	verbissen	versagen	engstirnig	träumen	kuss	kreativ	anregung	gesittet	besonnen	töten	krise	krank	ausrottung	geizig	bange	1	blank2r.bmp	0	1	+	0	1	blank2r.bmp	500	1	CPLW	500	1	blank2r.bmp	880	5	versagen	880	1	!	1313	1	!	-1	0	0	0	0	0	0
2024-05-28	11:28:48	11:33:31	281663	6.6.1	4_exp_EVA_AWA_CON	55	A	B	Rpleas_acq	Same	Rpleas	2pleas	acq_US_pleas_nomask	acq2_nomask	2	17	480	0	300	300	0	0	405	46	0	0	sonnig	genießen	gütig	vergnügt	vertrauen	engagiert	sterben	gemein	gierig	verbissen	versagen	engstirnig	träumen	kuss	kreativ	anregung	gesittet	besonnen	töten	krise	krank	ausrottung	geizig	bange	1	blank2r.bmp	0	1	+	0	1	blank2r.bmp	500	1	DHJF	500	1	blank2r.bmp	880	6	engagiert	880	1	FEHLER	1598	1	!	-1	1	!	-1	0	0	0
2024-05-28	11:28:48	11:33:33	283819	6.6.1	4_exp_EVA_AWA_CON	55	A	B	Rpleas_acq	Same	Rpleas	2pleas	acq_new_unple_nomask	acq2_nomask	2	18	480	0	300	300	0	0	583	46	1	0	sonnig	genießen	gütig	vergnügt	vertrauen	engagiert	sterben	gemein	gierig	verbissen	versagen	engstirnig	träumen	kuss	kreativ	anregung	gesittet	besonnen	töten	krise	krank	ausrottung	geizig	bange	1	blank2r.bmp	0	1	+	0	1	blank2r.bmp	500	6	C2r.bmp	500	1	blank2r.bmp	880	6	bange	880	1	!	1313	1	!	-1	0	0	0	0	0	0
2024-05-28	11:28:48	11:33:35	286154	6.6.1	4_exp_EVA_AWA_CON	55	A	B	Rpleas_acq	Same	Rpleas	2pleas	acq_US_unple_nomask	acq2_nomask	2	19	480	0	300	300	0	0	558	46	1	0	sonnig	genießen	gütig	vergnügt	vertrauen	engagiert	sterben	gemein	gierig	verbissen	versagen	engstirnig	träumen	kuss	kreativ	anregung	gesittet	besonnen	töten	krise	krank	ausrottung	geizig	bange	1	blank2r.bmp	0	1	+	0	1	blank2r.bmp	500	1	CPLW	500	1	blank2r.bmp	880	1	sterben	880	1	!	1312	1	!	-1	0	0	0	0	0	0
2024-05-28	11:28:48	11:33:38	288718	6.6.1	4_exp_EVA_AWA_CON	55	A	B	Rpleas_acq	Same	Rpleas	2pleas	acq_new_pleas_nomask	acq2_nomask	2	20	480	0	300	300	0	0	586	46	0	0	sonnig	genießen	gütig	vergnügt	vertrauen	engagiert	sterben	gemein	gierig	verbissen	versagen	engstirnig	träumen	kuss	kreativ	anregung	gesittet	besonnen	töten	krise	krank	ausrottung	geizig	bange	1	blank2r.bmp	0	1	+	0	1	blank2r.bmp	500	4	B4r.bmp	500	1	blank2r.bmp	880	5	gesittet	880	1	FEHLER	1779	1	!	1313	1	!	-1	0	0	0
2024-05-28	11:28:48	11:33:40	290899	6.6.1	4_exp_EVA_AWA_CON	55	A	B	Rpleas_acq	Same	Rpleas	2pleas	acq_new_pleas_nomask	acq2_nomask	2	21	480	0	300	300	0	0	609	50	1	0	sonnig	genießen	gütig	vergnügt	vertrauen	engagiert	sterben	gemein	gierig	verbissen	versagen	engstirnig	träumen	kuss	kreativ	anregung	gesittet	besonnen	töten	krise	krank	ausrottung	geizig	bange	1	blank2r.bmp	0	1	+	0	1	blank2r.bmp	500	3	B3r.bmp	500	1	blank2r.bmp	880	1	träumen	880	1	!	1313	1	!	-1	0	0	0	0	0	0
2024-05-28	11:28:48	11:33:42	293598	6.6.1	4_exp_EVA_AWA_CON	55	A	B	Rpleas_acq	Same	Rpleas	2pleas	acq_US_pleas_nomask	acq2_nomask	2	22	480	0	300	300	0	0	723	46	0	0	sonnig	genießen	gütig	vergnügt	vertrauen	engagiert	sterben	gemein	gierig	verbissen	versagen	engstirnig	träumen	kuss	kreativ	anregung	gesittet	besonnen	töten	krise	krank	ausrottung	geizig	bange	1	blank2r.bmp	0	1	+	0	1	blank2r.bmp	500	1	DHJF	500	1	blank2r.bmp	880	3	gütig	880	1	FEHLER	1916	1	!	1313	1	!	-1	0	0	0
2024-05-28	11:28:48	11:33:45	295747	6.6.1	4_exp_EVA_AWA_CON	55	A	B	Rpleas_acq	Same	Rpleas	2pleas	acq_new_unple_nomask	acq2_nomask	2	23	480	0	300	300	0	0	574	46	1	0	sonnig	genießen	gütig	vergnügt	vertrauen	engagiert	sterben	gemein	gierig	verbissen	versagen	engstirnig	träumen	kuss	kreativ	anregung	gesittet	besonnen	töten	krise	krank	ausrottung	geizig	bange	1	blank2r.bmp	0	1	+	0	1	blank2r.bmp	500	1	B1r.bmp	500	1	blank2r.bmp	880	1	töten	880	1	!	1313	1	!	-1	0	0	0	0	0	0
2024-05-28	11:28:48	11:33:47	298222	6.6.1	4_exp_EVA_AWA_CON	55	A	B	Rpleas_acq	Same	Rpleas	2pleas	acq_new_pleas_nomask	acq2_nomask	2	24	480	1	300	300	0	0	494	46	0	0	sonnig	genießen	gütig	vergnügt	vertrauen	engagiert	sterben	gemein	gierig	verbissen	versagen	engstirnig	träumen	kuss	kreativ	anregung	gesittet	besonnen	töten	krise	krank	ausrottung	geizig	bange	1	blank2r.bmp	0	1	+	0	1	blank2r.bmp	500	2	B2r.bmp	500	1	blank2r.bmp	880	2	kuss	880	1	FEHLER	1687	1	!	1313	1	!	1395	0	0	0
2024-05-28	11:28:48	11:33:49	300428	6.6.1	4_exp_EVA_AWA_CON	55	A	B	Rpleas_acq	Same	Rpleas	2pleas	acq_new_pleas_nomask	acq2_nomask	2	25	480	0	300	300	0	0	631	50	1	0	sonnig	genießen	gütig	vergnügt	vertrauen	engagiert	sterben	gemein	gierig	verbissen	versagen	engstirnig	träumen	kuss	kreativ	anregung	gesittet	besonnen	töten	krise	krank	ausrottung	geizig	bange	1	blank2r.bmp	0	1	+	0	1	blank2r.bmp	500	5	C1r.bmp	500	1	blank2r.bmp	880	4	anregung	880	1	!	1313	1	!	-1	0	0	0	0	0	0
2024-05-28	11:28:48	11:33:52	302762	6.6.1	4_exp_EVA_AWA_CON	55	A	B	Rpleas_acq	Same	Rpleas	2pleas	acq_new_pleas_nomask	acq2_nomask	2	26	480	0	300	300	0	0	555	50	1	0	sonnig	genießen	gütig	vergnügt	vertrauen	engagiert	sterben	gemein	gierig	verbissen	versagen	engstirnig	träumen	kuss	kreativ	anregung	gesittet	besonnen	töten	krise	krank	ausrottung	geizig	bange	1	blank2r.bmp	0	1	+	0	1	blank2r.bmp	500	8	C4r.bmp	500	1	blank2r.bmp	880	3	kreativ	880	1	!	1313	1	!	-1	0	0	0	0	0	0
2024-05-28	11:28:48	11:33:54	304973	6.6.1	4_exp_EVA_AWA_CON	55	A	B	Rpleas_acq	Same	Rpleas	2pleas	acq_US_unple_nomask	acq2_nomask	2	27	480	1	300	300	0	0	432	46	1	0	sonnig	genießen	gütig	vergnügt	vertrauen	engagiert	sterben	gemein	gierig	verbissen	versagen	engstirnig	träumen	kuss	kreativ	anregung	gesittet	besonnen	töten	krise	krank	ausrottung	geizig	bange	1	blank2r.bmp	0	1	+	0	1	blank2r.bmp	500	1	CPLW	500	1	blank2r.bmp	880	3	gierig	880	1	!	1313	1	!	1333	0	0	0	0	0	0
2024-05-28	11:28:48	11:33:56	307254	6.6.1	4_exp_EVA_AWA_CON	55	A	B	Rpleas_acq	Same	Rpleas	2pleas	acq_US_pleas_nomask	acq2_nomask	2	28	480	1	300	300	0	0	500	50	1	0	sonnig	genießen	gütig	vergnügt	vertrauen	engagiert	sterben	gemein	gierig	verbissen	versagen	engstirnig	träumen	kuss	kreativ	anregung	gesittet	besonnen	töten	krise	krank	ausrottung	geizig	bange	1	blank2r.bmp	0	1	+	0	1	blank2r.bmp	500	1	DHJF	500	1	blank2r.bmp	880	4	vergnügt	880	1	!	1313	1	!	1402	0	0	0	0	0	0
2024-05-28	11:28:48	11:33:59	309839	6.6.1	4_exp_EVA_AWA_CON	55	A	B	Rpleas_acq	Same	Rpleas	2pleas	acq_US_pleas_nomask	acq2_nomask	2	29	480	0	300	300	0	0	603	46	0	0	sonnig	genießen	gütig	vergnügt	vertrauen	engagiert	sterben	gemein	gierig	verbissen	versagen	engstirnig	träumen	kuss	kreativ	anregung	gesittet	besonnen	töten	krise	krank	ausrottung	geizig	bange	1	blank2r.bmp	0	1	+	0	1	blank2r.bmp	500	1	DHJF	500	1	blank2r.bmp	880	5	vertrauen	880	1	FEHLER	1796	1	!	1312	1	!	-1	0	0	0
2024-05-28	11:28:48	11:34:01	312135	6.6.1	4_exp_EVA_AWA_CON	55	A	B	Rpleas_acq	Same	Rpleas	2pleas	acq_US_unple_nomask	acq2_nomask	2	30	480	1	300	300	0	0	517	50	0	0	sonnig	genießen	gütig	vergnügt	vertrauen	engagiert	sterben	gemein	gierig	verbissen	versagen	engstirnig	träumen	kuss	kreativ	anregung	gesittet	besonnen	töten	krise	krank	ausrottung	geizig	bange	1	blank2r.bmp	0	1	+	0	1	blank2r.bmp	500	1	CPLW	500	1	blank2r.bmp	880	4	verbissen	880	1	FEHLER	1710	1	!	1313	1	!	1418	0	0	0
2024-05-28	11:28:48	11:34:03	314291	6.6.1	4_exp_EVA_AWA_CON	55	A	B	Rpleas_acq	Same	Rpleas	2pleas	acq_US_unple_nomask	acq2_nomask	2	31	480	0	300	300	0	0	586	46	1	0	sonnig	genießen	gütig	vergnügt	vertrauen	engagiert	sterben	gemein	gierig	verbissen	versagen	engstirnig	träumen	kuss	kreativ	anregung	gesittet	besonnen	töten	krise	krank	ausrottung	geizig	bange	1	blank2r.bmp	0	1	+	0	1	blank2r.bmp	500	1	CPLW	500	1	blank2r.bmp	880	2	gemein	880	1	!	1313	1	!	-1	0	0	0	0	0	0
2024-05-28	11:28:48	11:34:05	316533	6.6.1	4_exp_EVA_AWA_CON	55	A	B	Rpleas_acq	Same	Rpleas	2pleas	acq_US_pleas_nomask	acq2_nomask	2	32	480	1	300	300	0	0	464	50	1	0	sonnig	genießen	gütig	vergnügt	vertrauen	engagiert	sterben	gemein	gierig	verbissen	versagen	engstirnig	träumen	kuss	kreativ	anregung	gesittet	besonnen	töten	krise	krank	ausrottung	geizig	bange	1	blank2r.bmp	0	1	+	0	1	blank2r.bmp	500	1	DHJF	500	1	blank2r.bmp	880	1	sonnig	880	1	!	1313	1	!	1365	0	0	0	0	0	0
2024-05-28	11:28:48	11:34:08	319103	6.6.1	4_exp_EVA_AWA_CON	55	A	B	Rpleas_acq	Same	Rpleas	2pleas	acq_new_unple_nomask	acq2_nomask	2	33	480	0	300	300	0	0	591	50	0	0	sonnig	genießen	gütig	vergnügt	vertrauen	engagiert	sterben	gemein	gierig	verbissen	versagen	engstirnig	träumen	kuss	kreativ	anregung	gesittet	besonnen	töten	krise	krank	ausrottung	geizig	bange	1	blank2r.bmp	0	1	+	0	1	blank2r.bmp	500	1	B1r.bmp	500	1	blank2r.bmp	880	5	geizig	880	1	FEHLER	1784	1	!	1312	1	!	-1	0	0	0
2024-05-28	11:28:48	11:34:10	321229	6.6.1	4_exp_EVA_AWA_CON	55	A	B	Rpleas_acq	Same	Rpleas	2pleas	acq_new_unple_nomask	acq2_nomask	2	34	480	1	300	300	0	0	547	46	1	0	sonnig	genießen	gütig	vergnügt	vertrauen	engagiert	sterben	gemein	gierig	verbissen	versagen	engstirnig	träumen	kuss	kreativ	anregung	gesittet	besonnen	töten	krise	krank	ausrottung	geizig	bange	1	blank2r.bmp	0	1	+	0	1	blank2r.bmp	500	2	B2r.bmp	500	1	blank2r.bmp	880	3	krank	880	1	!	1312	1	!	1448	0	0	0	0	0	0
2024-05-28	11:28:48	11:34:13	323710	6.6.1	4_exp_EVA_AWA_CON	55	A	B	Rpleas_acq	Same	Rpleas	2pleas	acq_new_pleas_nomask	acq2_nomask	2	35	480	1	300	300	0	0	506	46	0	0	sonnig	genießen	gütig	vergnügt	vertrauen	engagiert	sterben	gemein	gierig	verbissen	versagen	engstirnig	träumen	kuss	kreativ	anregung	gesittet	besonnen	töten	krise	krank	ausrottung	geizig	bange	1	blank2r.bmp	0	1	+	0	1	blank2r.bmp	500	4	B4r.bmp	500	1	blank2r.bmp	880	6	besonnen	880	1	FEHLER	1698	1	!	1312	1	!	1407	0	0	0
2024-05-28	11:28:48	11:34:15	326095	6.6.1	4_exp_EVA_AWA_CON	55	A	B	Rpleas_acq	Same	Rpleas	2pleas	acq_new_unple_nomask	acq2_nomask	2	36	480	0	300	300	0	0	608	50	0	0	sonnig	genießen	gütig	vergnügt	vertrauen	engagiert	sterben	gemein	gierig	verbissen	versagen	engstirnig	träumen	kuss	kreativ	anregung	gesittet	besonnen	töten	krise	krank	ausrottung	geizig	bange	1	blank2r.bmp	0	1	+	0	1	blank2r.bmp	500	8	C4r.bmp	500	1	blank2r.bmp	880	2	krise	880	1	FEHLER	1801	1	!	1312	1	!	-1	0	0	0
2024-05-28	11:28:48	11:34:34	345132	6.6.1	4_exp_EVA_AWA_CON	55	A	B	Rpleas_acq	Same	Rpleas	2pleas	acq_US_pleas_nomask	acq3_nomask	3	1	453	0	300	300	0	0	3738	50	1	0	sonnig	genießen	gütig	vergnügt	vertrauen	engagiert	sterben	gemein	gierig	verbissen	versagen	engstirnig	träumen	kuss	kreativ	anregung	gesittet	besonnen	töten	krise	krank	ausrottung	geizig	bange	1	blank2r.bmp	0	1	+	0	1	blank2r.bmp	500	1	DHJF	500	1	blank2r.bmp	880	3	gütig	880	1	!	1292	1	!	-1	0	0	0	0	0	0
2024-05-28	11:28:48	11:34:37	347679	6.6.1	4_exp_EVA_AWA_CON	55	A	B	Rpleas_acq	Same	Rpleas	2pleas	acq_US_pleas_nomask	acq3_nomask	3	2	453	0	300	300	0	0	568	46	0	0	sonnig	genießen	gütig	vergnügt	vertrauen	engagiert	sterben	gemein	gierig	verbissen	versagen	engstirnig	träumen	kuss	kreativ	anregung	gesittet	besonnen	töten	krise	krank	ausrottung	geizig	bange	1	blank2r.bmp	0	1	+	0	1	blank2r.bmp	500	1	DHJF	500	1	blank2r.bmp	880	6	engagiert	880	1	FEHLER	1761	1	!	1293	1	!	-1	0	0	0
2024-05-28	11:28:48	11:34:39	349907	6.6.1	4_exp_EVA_AWA_CON	55	A	B	Rpleas_acq	Same	Rpleas	2pleas	acq_US_unple_nomask	acq3_nomask	3	3	453	0	300	300	0	0	659	46	1	0	sonnig	genießen	gütig	vergnügt	vertrauen	engagiert	sterben	gemein	gierig	verbissen	versagen	engstirnig	träumen	kuss	kreativ	anregung	gesittet	besonnen	töten	krise	krank	ausrottung	geizig	bange	1	blank2r.bmp	0	1	+	0	1	blank2r.bmp	500	1	CPLW	500	1	blank2r.bmp	880	2	gemein	880	1	!	1292	1	!	-1	0	0	0	0	0	0
2024-05-28	11:28:48	11:34:41	352405	6.6.1	4_exp_EVA_AWA_CON	55	A	B	Rpleas_acq	Same	Rpleas	2pleas	acq_US_unple_nomask	acq3_nomask	3	4	453	0	300	300	0	0	523	50	0	0	sonnig	genießen	gütig	vergnügt	vertrauen	engagiert	sterben	gemein	gierig	verbissen	versagen	engstirnig	träumen	kuss	kreativ	anregung	gesittet	besonnen	töten	krise	krank	ausrottung	geizig	bange	1	blank2r.bmp	0	1	+	0	1	blank2r.bmp	500	1	CPLW	500	1	blank2r.bmp	880	6	engstirnig	880	1	FEHLER	1715	1	!	1293	1	!	-1	0	0	0
2024-05-28	11:28:48	11:34:43	354505	6.6.1	4_exp_EVA_AWA_CON	55	A	B	Rpleas_acq	Same	Rpleas	2pleas	acq_US_unple_nomask	acq3_nomask	3	5	453	0	300	300	0	0	526	46	1	0	sonnig	genießen	gütig	vergnügt	vertrauen	engagiert	sterben	gemein	gierig	verbissen	versagen	engstirnig	träumen	kuss	kreativ	anregung	gesittet	besonnen	töten	krise	krank	ausrottung	geizig	bange	1	blank2r.bmp	0	1	+	0	1	blank2r.bmp	500	1	CPLW	500	1	blank2r.bmp	880	5	versagen	880	1	!	1293	1	!	-1	0	0	0	0	0	0
2024-05-28	11:28:48	11:34:46	356733	6.6.1	4_exp_EVA_AWA_CON	55	A	B	Rpleas_acq	Same	Rpleas	2pleas	acq_US_pleas_nomask	acq3_nomask	3	6	453	1	300	300	0	0	448	50	1	0	sonnig	genießen	gütig	vergnügt	vertrauen	engagiert	sterben	gemein	gierig	verbissen	versagen	engstirnig	träumen	kuss	kreativ	anregung	gesittet	besonnen	töten	krise	krank	ausrottung	geizig	bange	1	blank2r.bmp	0	1	+	0	1	blank2r.bmp	500	1	DHJF	500	1	blank2r.bmp	880	5	vertrauen	880	1	!	1293	1	!	1349	0	0	0	0	0	0
2024-05-28	11:28:48	11:34:48	358941	6.6.1	4_exp_EVA_AWA_CON	55	A	B	Rpleas_acq	Same	Rpleas	2pleas	acq_US_unple_nomask	acq3_nomask	3	7	453	1	300	300	0	0	435	46	1	0	sonnig	genießen	gütig	vergnügt	vertrauen	engagiert	sterben	gemein	gierig	verbissen	versagen	engstirnig	träumen	kuss	kreativ	anregung	gesittet	besonnen	töten	krise	krank	ausrottung	geizig	bange	1	blank2r.bmp	0	1	+	0	1	blank2r.bmp	500	1	CPLW	500	1	blank2r.bmp	880	1	sterben	880	1	!	1293	1	!	1336	0	0	0	0	0	0
2024-05-28	11:28:48	11:34:50	361315	6.6.1	4_exp_EVA_AWA_CON	55	A	B	Rpleas_acq	Same	Rpleas	2pleas	acq_US_pleas_nomask	acq3_nomask	3	8	453	0	300	300	0	0	599	50	1	0	sonnig	genießen	gütig	vergnügt	vertrauen	engagiert	sterben	gemein	gierig	verbissen	versagen	engstirnig	träumen	kuss	kreativ	anregung	gesittet	besonnen	töten	krise	krank	ausrottung	geizig	bange	1	blank2r.bmp	0	1	+	0	1	blank2r.bmp	500	1	DHJF	500	1	blank2r.bmp	880	4	vergnügt	880	1	!	1293	1	!	-1	0	0	0	0	0	0
2024-05-28	11:28:48	11:34:53	363799	6.6.1	4_exp_EVA_AWA_CON	55	A	B	Rpleas_acq	Same	Rpleas	2pleas	acq_US_pleas_nomask	acq3_nomask	3	9	453	1	300	300	0	0	508	46	0	0	sonnig	genießen	gütig	vergnügt	vertrauen	engagiert	sterben	gemein	gierig	verbissen	versagen	engstirnig	träumen	kuss	kreativ	anregung	gesittet	besonnen	töten	krise	krank	ausrottung	geizig	bange	1	blank2r.bmp	0	1	+	0	1	blank2r.bmp	500	1	DHJF	500	1	blank2r.bmp	880	2	genießen	880	1	FEHLER	1701	1	!	1292	1	!	1409	0	0	0
2024-05-28	11:28:48	11:34:55	365838	6.6.1	4_exp_EVA_AWA_CON	55	A	B	Rpleas_acq	Same	Rpleas	2pleas	acq_US_unple_nomask	acq3_nomask	3	10	453	0	300	300	0	0	256	50	0	0	sonnig	genießen	gütig	vergnügt	vertrauen	engagiert	sterben	gemein	gierig	verbissen	versagen	engstirnig	träumen	kuss	kreativ	anregung	gesittet	besonnen	töten	krise	krank	ausrottung	geizig	bange	1	blank2r.bmp	0	1	+	0	1	blank2r.bmp	500	1	CPLW	500	1	blank2r.bmp	880	4	verbissen	880	1	FEHLER	1449	1	!	-1	1	!	-1	0	0	0
2024-05-28	11:28:48	11:34:57	368147	6.6.1	4_exp_EVA_AWA_CON	55	A	B	Rpleas_acq	Same	Rpleas	2pleas	acq_US_unple_nomask	acq3_nomask	3	11	453	0	300	300	0	0	737	46	1	0	sonnig	genießen	gütig	vergnügt	vertrauen	engagiert	sterben	gemein	gierig	verbissen	versagen	engstirnig	träumen	kuss	kreativ	anregung	gesittet	besonnen	töten	krise	krank	ausrottung	geizig	bange	1	blank2r.bmp	0	1	+	0	1	blank2r.bmp	500	1	CPLW	500	1	blank2r.bmp	880	3	gierig	880	1	!	1293	1	!	-1	0	0	0	0	0	0
2024-05-28	11:28:48	11:34:59	370413	6.6.1	4_exp_EVA_AWA_CON	55	A	B	Rpleas_acq	Same	Rpleas	2pleas	acq_US_pleas_nomask	acq3_nomask	3	12	453	1	300	300	0	0	489	50	1	0	sonnig	genießen	gütig	vergnügt	vertrauen	engagiert	sterben	gemein	gierig	verbissen	versagen	engstirnig	träumen	kuss	kreativ	anregung	gesittet	besonnen	töten	krise	krank	ausrottung	geizig	bange	1	blank2r.bmp	0	1	+	0	1	blank2r.bmp	500	1	DHJF	500	1	blank2r.bmp	880	1	sonnig	880	1	!	1293	1	!	1390	0	0	0	0	0	0
2024-05-28	11:28:48	11:35:02	372771	6.6.1	4_exp_EVA_AWA_CON	55	A	B	Rpleas_acq	Same	Rpleas	2pleas	acq_US_pleas_nomask	acq3_nomask	3	13	453	0	300	300	0	0	578	50	1	0	sonnig	genießen	gütig	vergnügt	vertrauen	engagiert	sterben	gemein	gierig	verbissen	versagen	engstirnig	träumen	kuss	kreativ	anregung	gesittet	besonnen	töten	krise	krank	ausrottung	geizig	bange	1	blank2r.bmp	0	1	+	0	1	blank2r.bmp	500	1	DHJF	500	1	blank2r.bmp	880	6	engagiert	880	1	!	1293	1	!	-1	0	0	0	0	0	0
2024-05-28	11:28:48	11:35:04	375167	6.6.1	4_exp_EVA_AWA_CON	55	A	B	Rpleas_acq	Same	Rpleas	2pleas	acq_US_unple_nomask	acq3_nomask	3	14	453	1	300	300	0	0	418	50	0	0	sonnig	genießen	gütig	vergnügt	vertrauen	engagiert	sterben	gemein	gierig	verbissen	versagen	engstirnig	träumen	kuss	kreativ	anregung	gesittet	besonnen	töten	krise	krank	ausrottung	geizig	bange	1	blank2r.bmp	0	1	+	0	1	blank2r.bmp	500	1	CPLW	500	1	blank2r.bmp	880	6	engstirnig	880	1	FEHLER	1611	1	!	1293	1	!	1319	0	0	0
2024-05-28	11:28:48	11:35:06	377205	6.6.1	4_exp_EVA_AWA_CON	55	A	B	Rpleas_acq	Same	Rpleas	2pleas	acq_US_unple_nomask	acq3_nomask	3	15	453	1	300	300	0	0	457	46	1	0	sonnig	genießen	gütig	vergnügt	vertrauen	engagiert	sterben	gemein	gierig	verbissen	versagen	engstirnig	träumen	kuss	kreativ	anregung	gesittet	besonnen	töten	krise	krank	ausrottung	geizig	bange	1	blank2r.bmp	0	1	+	0	1	blank2r.bmp	500	1	CPLW	500	1	blank2r.bmp	880	3	gierig	880	1	!	1292	1	!	1358	0	0	0	0	0	0
2024-05-28	11:28:48	11:35:08	379485	6.6.1	4_exp_EVA_AWA_CON	55	A	B	Rpleas_acq	Same	Rpleas	2pleas	acq_US_pleas_nomask	acq3_nomask	3	16	453	1	300	300	0	0	505	50	1	0	sonnig	genießen	gütig	vergnügt	vertrauen	engagiert	sterben	gemein	gierig	verbissen	versagen	engstirnig	träumen	kuss	kreativ	anregung	gesittet	besonnen	töten	krise	krank	ausrottung	geizig	bange	1	blank2r.bmp	0	1	+	0	1	blank2r.bmp	500	1	DHJF	500	1	blank2r.bmp	880	4	vergnügt	880	1	!	1292	1	!	1406	0	0	0	0	0	0
2024-05-28	11:28:48	11:35:11	381749	6.6.1	4_exp_EVA_AWA_CON	55	A	B	Rpleas_acq	Same	Rpleas	2pleas	acq_US_unple_nomask	acq3_nomask	3	17	453	1	300	300	0	0	488	46	1	0	sonnig	genießen	gütig	vergnügt	vertrauen	engagiert	sterben	gemein	gierig	verbissen	versagen	engstirnig	träumen	kuss	kreativ	anregung	gesittet	besonnen	töten	krise	krank	ausrottung	geizig	bange	1	blank2r.bmp	0	1	+	0	1	blank2r.bmp	500	1	CPLW	500	1	blank2r.bmp	880	4	verbissen	880	1	!	1292	1	!	1389	0	0	0	0	0	0
2024-05-28	11:28:48	11:35:13	383997	6.6.1	4_exp_EVA_AWA_CON	55	A	B	Rpleas_acq	Same	Rpleas	2pleas	acq_US_pleas_nomask	acq3_nomask	3	18	453	1	300	300	0	0	474	50	1	0	sonnig	genießen	gütig	vergnügt	vertrauen	engagiert	sterben	gemein	gierig	verbissen	versagen	engstirnig	träumen	kuss	kreativ	anregung	gesittet	besonnen	töten	krise	krank	ausrottung	geizig	bange	1	blank2r.bmp	0	1	+	0	1	blank2r.bmp	500	1	DHJF	500	1	blank2r.bmp	880	2	genießen	880	1	!	1292	1	!	1375	0	0	0	0	0	0
2024-05-28	11:28:48	11:35:15	386246	6.6.1	4_exp_EVA_AWA_CON	55	A	B	Rpleas_acq	Same	Rpleas	2pleas	acq_US_pleas_nomask	acq3_nomask	3	19	453	1	300	300	0	0	471	50	1	0	sonnig	genießen	gütig	vergnügt	vertrauen	engagiert	sterben	gemein	gierig	verbissen	versagen	engstirnig	träumen	kuss	kreativ	anregung	gesittet	besonnen	töten	krise	krank	ausrottung	geizig	bange	1	blank2r.bmp	0	1	+	0	1	blank2r.bmp	500	1	DHJF	500	1	blank2r.bmp	880	1	sonnig	880	1	!	1292	1	!	1372	0	0	0	0	0	0
2024-05-28	11:28:48	11:35:17	388525	6.6.1	4_exp_EVA_AWA_CON	55	A	B	Rpleas_acq	Same	Rpleas	2pleas	acq_US_unple_nomask	acq3_nomask	3	20	453	1	300	300	0	0	499	46	1	0	sonnig	genießen	gütig	vergnügt	vertrauen	engagiert	sterben	gemein	gierig	verbissen	versagen	engstirnig	träumen	kuss	kreativ	anregung	gesittet	besonnen	töten	krise	krank	ausrottung	geizig	bange	1	blank2r.bmp	0	1	+	0	1	blank2r.bmp	500	1	CPLW	500	1	blank2r.bmp	880	2	gemein	880	1	!	1293	1	!	1400	0	0	0	0	0	0
2024-05-28	11:28:48	11:35:20	390781	6.6.1	4_exp_EVA_AWA_CON	55	A	B	Rpleas_acq	Same	Rpleas	2pleas	acq_US_pleas_nomask	acq3_nomask	3	21	453	1	300	300	0	0	474	50	1	0	sonnig	genießen	gütig	vergnügt	vertrauen	engagiert	sterben	gemein	gierig	verbissen	versagen	engstirnig	träumen	kuss	kreativ	anregung	gesittet	besonnen	töten	krise	krank	ausrottung	geizig	bange	1	blank2r.bmp	0	1	+	0	1	blank2r.bmp	500	1	DHJF	500	1	blank2r.bmp	880	3	gütig	880	1	!	1292	1	!	1375	0	0	0	0	0	0
2024-05-28	11:28:48	11:35:22	393285	6.6.1	4_exp_EVA_AWA_CON	55	A	B	Rpleas_acq	Same	Rpleas	2pleas	acq_US_pleas_nomask	acq3_nomask	3	22	453	0	300	300	0	0	526	46	0	0	sonnig	genießen	gütig	vergnügt	vertrauen	engagiert	sterben	gemein	gierig	verbissen	versagen	engstirnig	träumen	kuss	kreativ	anregung	gesittet	besonnen	töten	krise	krank	ausrottung	geizig	bange	1	blank2r.bmp	0	1	+	0	1	blank2r.bmp	500	1	DHJF	500	1	blank2r.bmp	880	5	vertrauen	880	1	FEHLER	1718	1	!	1292	1	!	-1	0	0	0
2024-05-28	11:28:48	11:35:24	395411	6.6.1	4_exp_EVA_AWA_CON	55	A	B	Rpleas_acq	Same	Rpleas	2pleas	acq_US_unple_nomask	acq3_nomask	3	23	453	0	300	300	0	0	553	46	1	0	sonnig	genießen	gütig	vergnügt	vertrauen	engagiert	sterben	gemein	gierig	verbissen	versagen	engstirnig	träumen	kuss	kreativ	anregung	gesittet	besonnen	töten	krise	krank	ausrottung	geizig	bange	1	blank2r.bmp	0	1	+	0	1	blank2r.bmp	500	1	CPLW	500	1	blank2r.bmp	880	1	sterben	880	1	!	1292	1	!	-1	0	0	0	0	0	0
2024-05-28	11:28:48	11:35:27	397886	6.6.1	4_exp_EVA_AWA_CON	55	A	B	Rpleas_acq	Same	Rpleas	2pleas	acq_US_unple_nomask	acq3_nomask	3	24	453	1	300	300	0	0	494	50	0	0	sonnig	genießen	gütig	vergnügt	vertrauen	engagiert	sterben	gemein	gierig	verbissen	versagen	engstirnig	träumen	kuss	kreativ	anregung	gesittet	besonnen	töten	krise	krank	ausrottung	geizig	bange	1	blank2r.bmp	0	1	+	0	1	blank2r.bmp	500	1	CPLW	500	1	blank2r.bmp	880	5	versagen	880	1	FEHLER	1686	1	!	1292	1	!	1394	0	0	0
2024-05-28	11:28:48	11:35:29	400012	6.6.1	4_exp_EVA_AWA_CON	55	A	B	Rpleas_acq	Same	Rpleas	2pleas	acq_US_unple_nomask	acq3_nomask	3	25	453	0	300	300	0	0	550	46	1	0	sonnig	genießen	gütig	vergnügt	vertrauen	engagiert	sterben	gemein	gierig	verbissen	versagen	engstirnig	träumen	kuss	kreativ	anregung	gesittet	besonnen	töten	krise	krank	ausrottung	geizig	bange	1	blank2r.bmp	0	1	+	0	1	blank2r.bmp	500	1	CPLW	500	1	blank2r.bmp	880	3	gierig	880	1	!	1293	1	!	-1	0	0	0	0	0	0
2024-05-28	11:28:48	11:35:31	402286	6.6.1	4_exp_EVA_AWA_CON	55	A	B	Rpleas_acq	Same	Rpleas	2pleas	acq_US_pleas_nomask	acq3_nomask	3	26	453	1	300	300	0	0	491	50	1	0	sonnig	genießen	gütig	vergnügt	vertrauen	engagiert	sterben	gemein	gierig	verbissen	versagen	engstirnig	träumen	kuss	kreativ	anregung	gesittet	besonnen	töten	krise	krank	ausrottung	geizig	bange	1	blank2r.bmp	0	1	+	0	1	blank2r.bmp	500	1	DHJF	500	1	blank2r.bmp	880	6	engagiert	880	1	!	1293	1	!	1392	0	0	0	0	0	0
2024-05-28	11:28:48	11:35:33	404611	6.6.1	4_exp_EVA_AWA_CON	55	A	B	Rpleas_acq	Same	Rpleas	2pleas	acq_US_unple_nomask	acq3_nomask	3	27	453	0	300	300	0	0	547	46	1	0	sonnig	genießen	gütig	vergnügt	vertrauen	engagiert	sterben	gemein	gierig	verbissen	versagen	engstirnig	träumen	kuss	kreativ	anregung	gesittet	besonnen	töten	krise	krank	ausrottung	geizig	bange	1	blank2r.bmp	0	1	+	0	1	blank2r.bmp	500	1	CPLW	500	1	blank2r.bmp	880	5	versagen	880	1	!	1293	1	!	-1	0	0	0	0	0	0
2024-05-28	11:28:48	11:35:36	407091	6.6.1	4_exp_EVA_AWA_CON	55	A	B	Rpleas_acq	Same	Rpleas	2pleas	acq_US_pleas_nomask	acq3_nomask	3	28	453	0	300	300	0	0	706	50	1	0	sonnig	genießen	gütig	vergnügt	vertrauen	engagiert	sterben	gemein	gierig	verbissen	versagen	engstirnig	träumen	kuss	kreativ	anregung	gesittet	besonnen	töten	krise	krank	ausrottung	geizig	bange	1	blank2r.bmp	0	1	+	0	1	blank2r.bmp	500	1	DHJF	500	1	blank2r.bmp	880	1	sonnig	880	1	!	1293	1	!	-1	0	0	0	0	0	0
2024-05-28	11:28:48	11:35:38	409325	6.6.1	4_exp_EVA_AWA_CON	55	A	B	Rpleas_acq	Same	Rpleas	2pleas	acq_US_unple_nomask	acq3_nomask	3	29	453	1	300	300	0	0	456	46	1	0	sonnig	genießen	gütig	vergnügt	vertrauen	engagiert	sterben	gemein	gierig	verbissen	versagen	engstirnig	träumen	kuss	kreativ	anregung	gesittet	besonnen	töten	krise	krank	ausrottung	geizig	bange	1	blank2r.bmp	0	1	+	0	1	blank2r.bmp	500	1	CPLW	500	1	blank2r.bmp	880	2	gemein	880	1	!	1292	1	!	1357	0	0	0	0	0	0
2024-05-28	11:28:48	11:35:41	411718	6.6.1	4_exp_EVA_AWA_CON	55	A	B	Rpleas_acq	Same	Rpleas	2pleas	acq_US_unple_nomask	acq3_nomask	3	30	453	1	300	300	0	0	417	50	0	0	sonnig	genießen	gütig	vergnügt	vertrauen	engagiert	sterben	gemein	gierig	verbissen	versagen	engstirnig	träumen	kuss	kreativ	anregung	gesittet	besonnen	töten	krise	krank	ausrottung	geizig	bange	1	blank2r.bmp	0	1	+	0	1	blank2r.bmp	500	1	CPLW	500	1	blank2r.bmp	880	1	sterben	880	1	FEHLER	1609	1	!	1293	1	!	1317	0	0	0
2024-05-28	11:28:48	11:35:43	413675	6.6.1	4_exp_EVA_AWA_CON	55	A	B	Rpleas_acq	Same	Rpleas	2pleas	acq_US_unple_nomask	acq3_nomask	3	31	453	0	300	300	0	0	385	46	1	0	sonnig	genießen	gütig	vergnügt	vertrauen	engagiert	sterben	gemein	gierig	verbissen	versagen	engstirnig	träumen	kuss	kreativ	anregung	gesittet	besonnen	töten	krise	krank	ausrottung	geizig	bange	1	blank2r.bmp	0	1	+	0	1	blank2r.bmp	500	1	CPLW	500	1	blank2r.bmp	880	4	verbissen	880	1	!	-1	1	!	-1	0	0	0	0	0	0
2024-05-28	11:28:48	11:35:45	416102	6.6.1	4_exp_EVA_AWA_CON	55	A	B	Rpleas_acq	Same	Rpleas	2pleas	acq_US_pleas_nomask	acq3_nomask	3	32	453	1	300	300	0	0	448	46	0	0	sonnig	genießen	gütig	vergnügt	vertrauen	engagiert	sterben	gemein	gierig	verbissen	versagen	engstirnig	träumen	kuss	kreativ	anregung	gesittet	besonnen	töten	krise	krank	ausrottung	geizig	bange	1	blank2r.bmp	0	1	+	0	1	blank2r.bmp	500	1	DHJF	500	1	blank2r.bmp	880	2	genießen	880	1	FEHLER	1640	1	!	1292	1	!	1349	0	0	0
2024-05-28	11:28:48	11:35:47	418495	6.6.1	4_exp_EVA_AWA_CON	55	A	B	Rpleas_acq	Same	Rpleas	2pleas	acq_US_pleas_nomask	acq3_nomask	3	33	453	0	300	300	0	0	608	46	0	0	sonnig	genießen	gütig	vergnügt	vertrauen	engagiert	sterben	gemein	gierig	verbissen	versagen	engstirnig	träumen	kuss	kreativ	anregung	gesittet	besonnen	töten	krise	krank	ausrottung	geizig	bange	1	blank2r.bmp	0	1	+	0	1	blank2r.bmp	500	1	DHJF	500	1	blank2r.bmp	880	5	vertrauen	880	1	FEHLER	1801	1	!	1292	1	!	-1	0	0	0
2024-05-28	11:28:48	11:35:50	420735	6.6.1	4_exp_EVA_AWA_CON	55	A	B	Rpleas_acq	Same	Rpleas	2pleas	acq_US_unple_nomask	acq3_nomask	3	34	453	1	300	300	0	0	467	50	0	0	sonnig	genießen	gütig	vergnügt	vertrauen	engagiert	sterben	gemein	gierig	verbissen	versagen	engstirnig	träumen	kuss	kreativ	anregung	gesittet	besonnen	töten	krise	krank	ausrottung	geizig	bange	1	blank2r.bmp	0	1	+	0	1	blank2r.bmp	500	1	CPLW	500	1	blank2r.bmp	880	6	engstirnig	880	1	FEHLER	1660	1	!	1293	1	!	1368	0	0	0
2024-05-28	11:28:48	11:35:52	422950	6.6.1	4_exp_EVA_AWA_CON	55	A	B	Rpleas_acq	Same	Rpleas	2pleas	acq_US_pleas_nomask	acq3_nomask	3	35	453	1	300	300	0	0	441	46	0	0	sonnig	genießen	gütig	vergnügt	vertrauen	engagiert	sterben	gemein	gierig	verbissen	versagen	engstirnig	träumen	kuss	kreativ	anregung	gesittet	besonnen	töten	krise	krank	ausrottung	geizig	bange	1	blank2r.bmp	0	1	+	0	1	blank2r.bmp	500	1	DHJF	500	1	blank2r.bmp	880	4	vergnügt	880	1	FEHLER	1634	1	!	1292	1	!	1342	0	0	0
2024-05-28	11:28:48	11:35:54	425446	6.6.1	4_exp_EVA_AWA_CON	55	A	B	Rpleas_acq	Same	Rpleas	2pleas	acq_US_pleas_nomask	acq3_nomask	3	36	453	0	300	300	0	0	716	46	0	0	sonnig	genießen	gütig	vergnügt	vertrauen	engagiert	sterben	gemein	gierig	verbissen	versagen	engstirnig	träumen	kuss	kreativ	anregung	gesittet	besonnen	töten	krise	krank	ausrottung	geizig	bange	1	blank2r.bmp	0	1	+	0	1	blank2r.bmp	500	1	DHJF	500	1	blank2r.bmp	880	3	gütig	880	1	FEHLER	1909	1	!	1293	1	!	-1	0	0	0
2024-05-28	11:28:48	11:36:22	453035	6.6.1	4_exp_EVA_AWA_CON	55	A	B	Rpleas_acq	Same	Rpleas	2pleas	acq_US_pleas_nomask	acq45_nomask	4	1	400	0	300	300	0	0	560	50	1	0	sonnig	genießen	gütig	vergnügt	vertrauen	engagiert	sterben	gemein	gierig	verbissen	versagen	engstirnig	träumen	kuss	kreativ	anregung	gesittet	besonnen	töten	krise	krank	ausrottung	geizig	bange	1	blank2r.bmp	0	1	+	0	1	blank2r.bmp	500	1	DHJF	500	1	blank2r.bmp	880	6	engagiert	880	1	!	1233	1	!	-1	0	0	0	0	0	0
2024-05-28	11:28:48	11:36:24	455315	6.6.1	4_exp_EVA_AWA_CON	55	A	B	Rpleas_acq	Same	Rpleas	2pleas	acq_US_unple_nomask	acq45_nomask	4	2	400	0	300	300	0	0	498	46	1	0	sonnig	genießen	gütig	vergnügt	vertrauen	engagiert	sterben	gemein	gierig	verbissen	versagen	engstirnig	träumen	kuss	kreativ	anregung	gesittet	besonnen	töten	krise	krank	ausrottung	geizig	bange	1	blank2r.bmp	0	1	+	0	1	blank2r.bmp	500	1	CPLW	500	1	blank2r.bmp	880	2	gemein	880	1	!	1232	1	!	-1	0	0	0	0	0	0
2024-05-28	11:28:48	11:36:27	457651	6.6.1	4_exp_EVA_AWA_CON	55	A	B	Rpleas_acq	Same	Rpleas	2pleas	acq_US_unple_nomask	acq45_nomask	4	3	400	0	300	300	0	0	562	46	1	0	sonnig	genießen	gütig	vergnügt	vertrauen	engagiert	sterben	gemein	gierig	verbissen	versagen	engstirnig	träumen	kuss	kreativ	anregung	gesittet	besonnen	töten	krise	krank	ausrottung	geizig	bange	1	blank2r.bmp	0	1	+	0	1	blank2r.bmp	500	1	CPLW	500	1	blank2r.bmp	880	3	gierig	880	1	!	1232	1	!	-1	0	0	0	0	0	0
2024-05-28	11:28:48	11:36:29	459931	6.6.1	4_exp_EVA_AWA_CON	55	A	B	Rpleas_acq	Same	Rpleas	2pleas	acq_US_unple_nomask	acq45_nomask	4	4	400	0	300	300	0	0	500	46	1	0	sonnig	genießen	gütig	vergnügt	vertrauen	engagiert	sterben	gemein	gierig	verbissen	versagen	engstirnig	träumen	kuss	kreativ	anregung	gesittet	besonnen	töten	krise	krank	ausrottung	geizig	bange	1	blank2r.bmp	0	1	+	0	1	blank2r.bmp	500	1	CPLW	500	1	blank2r.bmp	880	1	sterben	880	1	!	1232	1	!	-1	0	0	0	0	0	0
2024-05-28	11:28:48	11:36:31	462203	6.6.1	4_exp_EVA_AWA_CON	55	A	B	Rpleas_acq	Same	Rpleas	2pleas	acq_US_unple_nomask	acq45_nomask	4	5	400	0	300	300	0	0	491	46	1	0	sonnig	genießen	gütig	vergnügt	vertrauen	engagiert	sterben	gemein	gierig	verbissen	versagen	engstirnig	träumen	kuss	kreativ	anregung	gesittet	besonnen	töten	krise	krank	ausrottung	geizig	bange	1	blank2r.bmp	0	1	+	0	1	blank2r.bmp	500	1	CPLW	500	1	blank2r.bmp	880	6	engstirnig	880	1	!	1233	1	!	-1	0	0	0	0	0	0
2024-05-28	11:28:48	11:36:33	464259	6.6.1	4_exp_EVA_AWA_CON	55	A	B	Rpleas_acq	Same	Rpleas	2pleas	acq_US_pleas_nomask	acq45_nomask	4	6	400	0	300	300	0	0	276	46	0	0	sonnig	genießen	gütig	vergnügt	vertrauen	engagiert	sterben	gemein	gierig	verbissen	versagen	engstirnig	träumen	kuss	kreativ	anregung	gesittet	besonnen	töten	krise	krank	ausrottung	geizig	bange	1	blank2r.bmp	0	1	+	0	1	blank2r.bmp	500	1	DHJF	500	1	blank2r.bmp	880	3	gütig	880	1	!	-1	1	!	-1	0	0	0	0	0	0
2024-05-28	11:28:48	11:36:37	467876	6.6.1	4_exp_EVA_AWA_CON	55	A	B	Rpleas_acq	Same	Rpleas	2pleas	acq_US_unple_nomask	acq45_nomask	4	7	400	0	300	300	0	0	1840	46	1	0	sonnig	genießen	gütig	vergnügt	vertrauen	engagiert	sterben	gemein	gierig	verbissen	versagen	engstirnig	träumen	kuss	kreativ	anregung	gesittet	besonnen	töten	krise	krank	ausrottung	geizig	bange	1	blank2r.bmp	0	1	+	0	1	blank2r.bmp	500	1	CPLW	500	1	blank2r.bmp	880	4	verbissen	880	1	!	1233	1	!	-1	0	0	0	0	0	0
2024-05-28	11:28:48	11:36:39	470125	6.6.1	4_exp_EVA_AWA_CON	55	A	B	Rpleas_acq	Same	Rpleas	2pleas	acq_US_unple_nomask	acq45_nomask	4	8	400	1	300	300	0	0	466	50	0	0	sonnig	genießen	gütig	vergnügt	vertrauen	engagiert	sterben	gemein	gierig	verbissen	versagen	engstirnig	träumen	kuss	kreativ	anregung	gesittet	besonnen	töten	krise	krank	ausrottung	geizig	bange	1	blank2r.bmp	0	1	+	0	1	blank2r.bmp	500	1	CPLW	500	1	blank2r.bmp	880	5	versagen	880	1	!	1232	1	!	1367	0	0	0	0	0	0
2024-05-28	11:28:48	11:36:41	472419	6.6.1	4_exp_EVA_AWA_CON	55	A	B	Rpleas_acq	Same	Rpleas	2pleas	acq_US_unple_nomask	acq45_nomask	4	9	400	0	300	300	0	0	521	46	1	0	sonnig	genießen	gütig	vergnügt	vertrauen	engagiert	sterben	gemein	gierig	verbissen	versagen	engstirnig	träumen	kuss	kreativ	anregung	gesittet	besonnen	töten	krise	krank	ausrottung	geizig	bange	1	blank2r.bmp	0	1	+	0	1	blank2r.bmp	500	1	CPLW	500	1	blank2r.bmp	880	6	engstirnig	880	1	!	1232	1	!	-1	0	0	0	0	0	0
2024-05-28	11:28:48	11:36:44	474739	6.6.1	4_exp_EVA_AWA_CON	55	A	B	Rpleas_acq	Same	Rpleas	2pleas	acq_US_pleas_nomask	acq45_nomask	4	10	400	0	300	300	0	0	539	50	1	0	sonnig	genießen	gütig	vergnügt	vertrauen	engagiert	sterben	gemein	gierig	verbissen	versagen	engstirnig	träumen	kuss	kreativ	anregung	gesittet	besonnen	töten	krise	krank	ausrottung	geizig	bange	1	blank2r.bmp	0	1	+	0	1	blank2r.bmp	500	1	DHJF	500	1	blank2r.bmp	880	1	sonnig	880	1	!	1233	1	!	-1	0	0	0	0	0	0
2024-05-28	11:28:48	11:36:46	477012	6.6.1	4_exp_EVA_AWA_CON	55	A	B	Rpleas_acq	Same	Rpleas	2pleas	acq_US_pleas_nomask	acq45_nomask	4	11	400	0	300	300	0	0	499	46	0	0	sonnig	genießen	gütig	vergnügt	vertrauen	engagiert	sterben	gemein	gierig	verbissen	versagen	engstirnig	träumen	kuss	kreativ	anregung	gesittet	besonnen	töten	krise	krank	ausrottung	geizig	bange	1	blank2r.bmp	0	1	+	0	1	blank2r.bmp	500	1	DHJF	500	1	blank2r.bmp	880	4	vergnügt	880	1	!	1232	1	!	-1	0	0	0	0	0	0
2024-05-28	11:28:48	11:36:48	479324	6.6.1	4_exp_EVA_AWA_CON	55	A	B	Rpleas_acq	Same	Rpleas	2pleas	acq_US_unple_nomask	acq45_nomask	4	12	400	0	300	300	0	0	531	50	0	0	sonnig	genießen	gütig	vergnügt	vertrauen	engagiert	sterben	gemein	gierig	verbissen	versagen	engstirnig	träumen	kuss	kreativ	anregung	gesittet	besonnen	töten	krise	krank	ausrottung	geizig	bange	1	blank2r.bmp	0	1	+	0	1	blank2r.bmp	500	1	CPLW	500	1	blank2r.bmp	880	1	sterben	880	1	!	1232	1	!	-1	0	0	0	0	0	0
2024-05-28	11:28:48	11:36:51	482283	6.6.1	4_exp_EVA_AWA_CON	55	A	B	Rpleas_acq	Same	Rpleas	2pleas	acq_US_unple_nomask	acq45_nomask	4	13	400	0	300	300	0	0	1178	46	1	0	sonnig	genießen	gütig	vergnügt	vertrauen	engagiert	sterben	gemein	gierig	verbissen	versagen	engstirnig	träumen	kuss	kreativ	anregung	gesittet	besonnen	töten	krise	krank	ausrottung	geizig	bange	1	blank2r.bmp	0	1	+	0	1	blank2r.bmp	500	1	CPLW	500	1	blank2r.bmp	880	5	versagen	880	1	!	1232	1	!	-1	0	0	0	0	0	0
2024-05-28	11:28:48	11:36:53	484445	6.6.1	4_exp_EVA_AWA_CON	55	A	B	Rpleas_acq	Same	Rpleas	2pleas	acq_US_pleas_nomask	acq45_nomask	4	14	400	1	300	300	0	0	386	46	0	0	sonnig	genießen	gütig	vergnügt	vertrauen	engagiert	sterben	gemein	gierig	verbissen	versagen	engstirnig	träumen	kuss	kreativ	anregung	gesittet	besonnen	töten	krise	krank	ausrottung	geizig	bange	1	blank2r.bmp	0	1	+	0	1	blank2r.bmp	500	1	DHJF	500	1	blank2r.bmp	880	5	vertrauen	880	1	!	1232	1	!	1288	0	0	0	0	0	0
2024-05-28	11:28:48	11:36:55	486531	6.6.1	4_exp_EVA_AWA_CON	55	A	B	Rpleas_acq	Same	Rpleas	2pleas	acq_US_pleas_nomask	acq45_nomask	4	15	400	0	300	300	0	0	313	50	1	0	sonnig	genießen	gütig	vergnügt	vertrauen	engagiert	sterben	gemein	gierig	verbissen	versagen	engstirnig	träumen	kuss	kreativ	anregung	gesittet	besonnen	töten	krise	krank	ausrottung	geizig	bange	1	blank2r.bmp	0	1	+	0	1	blank2r.bmp	500	1	DHJF	500	1	blank2r.bmp	880	2	genießen	880	1	!	-1	1	!	-1	0	0	0	0	0	0
2024-05-28	11:28:48	11:36:58	488781	6.6.1	4_exp_EVA_AWA_CON	55	A	B	Rpleas_acq	Same	Rpleas	2pleas	acq_US_pleas_nomask	acq45_nomask	4	16	400	1	300	300	0	0	469	46	0	0	sonnig	genießen	gütig	vergnügt	vertrauen	engagiert	sterben	gemein	gierig	verbissen	versagen	engstirnig	träumen	kuss	kreativ	anregung	gesittet	besonnen	töten	krise	krank	ausrottung	geizig	bange	1	blank2r.bmp	0	1	+	0	1	blank2r.bmp	500	1	DHJF	500	1	blank2r.bmp	880	6	engagiert	880	1	!	1232	1	!	1372	0	0	0	0	0	0
2024-05-28	11:28:48	11:37:00	491075	6.6.1	4_exp_EVA_AWA_CON	55	A	B	Rpleas_acq	Same	Rpleas	2pleas	acq_US_pleas_nomask	acq45_nomask	4	17	400	0	300	300	0	0	515	50	1	0	sonnig	genießen	gütig	vergnügt	vertrauen	engagiert	sterben	gemein	gierig	verbissen	versagen	engstirnig	träumen	kuss	kreativ	anregung	gesittet	besonnen	töten	krise	krank	ausrottung	geizig	bange	1	blank2r.bmp	0	1	+	0	1	blank2r.bmp	500	1	DHJF	500	1	blank2r.bmp	880	1	sonnig	880	1	!	1232	1	!	-1	0	0	0	0	0	0
2024-05-28	11:28:48	11:37:02	493427	6.6.1	4_exp_EVA_AWA_CON	55	A	B	Rpleas_acq	Same	Rpleas	2pleas	acq_US_pleas_nomask	acq45_nomask	4	18	400	0	300	300	0	0	576	46	0	0	sonnig	genießen	gütig	vergnügt	vertrauen	engagiert	sterben	gemein	gierig	verbissen	versagen	engstirnig	träumen	kuss	kreativ	anregung	gesittet	besonnen	töten	krise	krank	ausrottung	geizig	bange	1	blank2r.bmp	0	1	+	0	1	blank2r.bmp	500	1	DHJF	500	1	blank2r.bmp	880	3	gütig	880	1	!	1232	1	!	-1	0	0	0	0	0	0
2024-05-28	11:28:48	11:37:05	495707	6.6.1	4_exp_EVA_AWA_CON	55	A	B	Rpleas_acq	Same	Rpleas	2pleas	acq_US_pleas_nomask	acq45_nomask	4	19	400	0	300	300	0	0	504	50	1	0	sonnig	genießen	gütig	vergnügt	vertrauen	engagiert	sterben	gemein	gierig	verbissen	versagen	engstirnig	träumen	kuss	kreativ	anregung	gesittet	besonnen	töten	krise	krank	ausrottung	geizig	bange	1	blank2r.bmp	0	1	+	0	1	blank2r.bmp	500	1	DHJF	500	1	blank2r.bmp	880	5	vertrauen	880	1	!	1233	1	!	-1	0	0	0	0	0	0
2024-05-28	11:28:48	11:37:07	497901	6.6.1	4_exp_EVA_AWA_CON	55	A	B	Rpleas_acq	Same	Rpleas	2pleas	acq_US_unple_nomask	acq45_nomask	4	20	400	1	300	300	0	0	414	46	1	0	sonnig	genießen	gütig	vergnügt	vertrauen	engagiert	sterben	gemein	gierig	verbissen	versagen	engstirnig	träumen	kuss	kreativ	anregung	gesittet	besonnen	töten	krise	krank	ausrottung	geizig	bange	1	blank2r.bmp	0	1	+	0	1	blank2r.bmp	500	1	CPLW	500	1	blank2r.bmp	880	2	gemein	880	1	!	1232	1	!	1315	0	0	0	0	0	0
2024-05-28	11:28:48	11:37:09	500171	6.6.1	4_exp_EVA_AWA_CON	55	A	B	Rpleas_acq	Same	Rpleas	2pleas	acq_US_unple_nomask	acq45_nomask	4	21	400	0	300	300	0	0	495	50	0	0	sonnig	genießen	gütig	vergnügt	vertrauen	engagiert	sterben	gemein	gierig	verbissen	versagen	engstirnig	träumen	kuss	kreativ	anregung	gesittet	besonnen	töten	krise	krank	ausrottung	geizig	bange	1	blank2r.bmp	0	1	+	0	1	blank2r.bmp	500	1	CPLW	500	1	blank2r.bmp	880	4	verbissen	880	1	!	1232	1	!	-1	0	0	0	0	0	0
2024-05-28	11:28:48	11:37:11	502611	6.6.1	4_exp_EVA_AWA_CON	55	A	B	Rpleas_acq	Same	Rpleas	2pleas	acq_US_pleas_nomask	acq45_nomask	4	22	400	0	300	300	0	0	664	50	1	0	sonnig	genießen	gütig	vergnügt	vertrauen	engagiert	sterben	gemein	gierig	verbissen	versagen	engstirnig	träumen	kuss	kreativ	anregung	gesittet	besonnen	töten	krise	krank	ausrottung	geizig	bange	1	blank2r.bmp	0	1	+	0	1	blank2r.bmp	500	1	DHJF	500	1	blank2r.bmp	880	4	vergnügt	880	1	!	1232	1	!	-1	0	0	0	0	0	0
2024-05-28	11:28:48	11:37:14	504940	6.6.1	4_exp_EVA_AWA_CON	55	A	B	Rpleas_acq	Same	Rpleas	2pleas	acq_US_unple_nomask	acq45_nomask	4	23	400	0	300	300	0	0	549	46	1	0	sonnig	genießen	gütig	vergnügt	vertrauen	engagiert	sterben	gemein	gierig	verbissen	versagen	engstirnig	träumen	kuss	kreativ	anregung	gesittet	besonnen	töten	krise	krank	ausrottung	geizig	bange	1	blank2r.bmp	0	1	+	0	1	blank2r.bmp	500	1	CPLW	500	1	blank2r.bmp	880	3	gierig	880	1	!	1233	1	!	-1	0	0	0	0	0	0
2024-05-28	11:28:48	11:37:17	507699	6.6.1	4_exp_EVA_AWA_CON	55	A	B	Rpleas_acq	Same	Rpleas	2pleas	acq_US_pleas_nomask	acq45_nomask	4	24	400	0	300	300	0	0	979	50	1	0	sonnig	genießen	gütig	vergnügt	vertrauen	engagiert	sterben	gemein	gierig	verbissen	versagen	engstirnig	träumen	kuss	kreativ	anregung	gesittet	besonnen	töten	krise	krank	ausrottung	geizig	bange	1	blank2r.bmp	0	1	+	0	1	blank2r.bmp	500	1	DHJF	500	1	blank2r.bmp	880	2	genießen	880	1	!	1232	1	!	-1	0	0	0	0	0	0
2024-05-28	11:28:48	11:37:19	509917	6.6.1	4_exp_EVA_AWA_CON	55	A	B	Rpleas_acq	Same	Rpleas	2pleas	acq_US_pleas_nomask	acq45_nomask	4	25	400	1	300	300	0	0	443	50	1	0	sonnig	genießen	gütig	vergnügt	vertrauen	engagiert	sterben	gemein	gierig	verbissen	versagen	engstirnig	träumen	kuss	kreativ	anregung	gesittet	besonnen	töten	krise	krank	ausrottung	geizig	bange	1	blank2r.bmp	0	1	+	0	1	blank2r.bmp	500	1	DHJF	500	1	blank2r.bmp	880	1	sonnig	880	1	!	1232	1	!	1344	0	0	0	0	0	0
2024-05-28	11:28:48	11:37:21	512085	6.6.1	4_exp_EVA_AWA_CON	55	A	B	Rpleas_acq	Same	Rpleas	2pleas	acq_US_unple_nomask	acq45_nomask	4	26	400	1	300	300	0	0	389	50	0	0	sonnig	genießen	gütig	vergnügt	vertrauen	engagiert	sterben	gemein	gierig	verbissen	versagen	engstirnig	träumen	kuss	kreativ	anregung	gesittet	besonnen	töten	krise	krank	ausrottung	geizig	bange	1	blank2r.bmp	0	1	+	0	1	blank2r.bmp	500	1	CPLW	500	1	blank2r.bmp	880	4	verbissen	880	1	!	1232	1	!	1290	0	0	0	0	0	0
2024-05-28	11:28:48	11:37:24	515291	6.6.1	4_exp_EVA_AWA_CON	55	A	B	Rpleas_acq	Same	Rpleas	2pleas	acq_US_unple_nomask	acq45_nomask	4	27	400	0	300	300	0	0	1425	46	1	0	sonnig	genießen	gütig	vergnügt	vertrauen	engagiert	sterben	gemein	gierig	verbissen	versagen	engstirnig	träumen	kuss	kreativ	anregung	gesittet	besonnen	töten	krise	krank	ausrottung	geizig	bange	1	blank2r.bmp	0	1	+	0	1	blank2r.bmp	500	1	CPLW	500	1	blank2r.bmp	880	6	engstirnig	880	1	!	1232	1	!	-1	0	0	0	0	0	0
2024-05-28	11:28:48	11:37:26	517477	6.6.1	4_exp_EVA_AWA_CON	55	A	B	Rpleas_acq	Same	Rpleas	2pleas	acq_US_pleas_nomask	acq45_nomask	4	28	400	1	300	300	0	0	407	50	1	0	sonnig	genießen	gütig	vergnügt	vertrauen	engagiert	sterben	gemein	gierig	verbissen	versagen	engstirnig	träumen	kuss	kreativ	anregung	gesittet	besonnen	töten	krise	krank	ausrottung	geizig	bange	1	blank2r.bmp	0	1	+	0	1	blank2r.bmp	500	1	DHJF	500	1	blank2r.bmp	880	3	gütig	880	1	!	1232	1	!	1309	0	0	0	0	0	0
2024-05-28	11:28:48	11:37:29	520147	6.6.1	4_exp_EVA_AWA_CON	55	A	B	Rpleas_acq	Same	Rpleas	2pleas	acq_US_pleas_nomask	acq45_nomask	4	29	400	0	300	300	0	0	899	50	1	0	sonnig	genießen	gütig	vergnügt	vertrauen	engagiert	sterben	gemein	gierig	verbissen	versagen	engstirnig	träumen	kuss	kreativ	anregung	gesittet	besonnen	töten	krise	krank	ausrottung	geizig	bange	1	blank2r.bmp	0	1	+	0	1	blank2r.bmp	500	1	DHJF	500	1	blank2r.bmp	880	2	genießen	880	1	!	1233	1	!	-1	0	0	0	0	0	0
2024-05-28	11:28:48	11:37:32	522683	6.6.1	4_exp_EVA_AWA_CON	55	A	B	Rpleas_acq	Same	Rpleas	2pleas	acq_US_unple_nomask	acq45_nomask	4	30	400	0	300	300	0	0	762	46	1	0	sonnig	genießen	gütig	vergnügt	vertrauen	engagiert	sterben	gemein	gierig	verbissen	versagen	engstirnig	träumen	kuss	kreativ	anregung	gesittet	besonnen	töten	krise	krank	ausrottung	geizig	bange	1	blank2r.bmp	0	1	+	0	1	blank2r.bmp	500	1	CPLW	500	1	blank2r.bmp	880	5	versagen	880	1	!	1232	1	!	-1	0	0	0	0	0	0
2024-05-28	11:28:48	11:37:34	524933	6.6.1	4_exp_EVA_AWA_CON	55	A	B	Rpleas_acq	Same	Rpleas	2pleas	acq_US_pleas_nomask	acq45_nomask	4	31	400	1	300	300	0	0	469	50	1	0	sonnig	genießen	gütig	vergnügt	vertrauen	engagiert	sterben	gemein	gierig	verbissen	versagen	engstirnig	träumen	kuss	kreativ	anregung	gesittet	besonnen	töten	krise	krank	ausrottung	geizig	bange	1	blank2r.bmp	0	1	+	0	1	blank2r.bmp	500	1	DHJF	500	1	blank2r.bmp	880	5	vertrauen	880	1	!	1233	1	!	1370	0	0	0	0	0	0
2024-05-28	11:28:48	11:37:36	527157	6.6.1	4_exp_EVA_AWA_CON	55	A	B	Rpleas_acq	Same	Rpleas	2pleas	acq_US_unple_nomask	acq45_nomask	4	32	400	1	300	300	0	0	441	46	1	0	sonnig	genießen	gütig	vergnügt	vertrauen	engagiert	sterben	gemein	gierig	verbissen	versagen	engstirnig	träumen	kuss	kreativ	anregung	gesittet	besonnen	töten	krise	krank	ausrottung	geizig	bange	1	blank2r.bmp	0	1	+	0	1	blank2r.bmp	500	1	CPLW	500	1	blank2r.bmp	880	3	gierig	880	1	!	1232	1	!	1342	0	0	0	0	0	0
2024-05-28	11:28:48	11:37:38	529571	6.6.1	4_exp_EVA_AWA_CON	55	A	B	Rpleas_acq	Same	Rpleas	2pleas	acq_US_pleas_nomask	acq45_nomask	4	33	400	0	300	300	0	0	635	50	1	0	sonnig	genießen	gütig	vergnügt	vertrauen	engagiert	sterben	gemein	gierig	verbissen	versagen	engstirnig	träumen	kuss	kreativ	anregung	gesittet	besonnen	töten	krise	krank	ausrottung	geizig	bange	1	blank2r.bmp	0	1	+	0	1	blank2r.bmp	500	1	DHJF	500	1	blank2r.bmp	880	6	engagiert	880	1	!	1232	1	!	-1	0	0	0	0	0	0
2024-05-28	11:28:48	11:37:41	532011	6.6.1	4_exp_EVA_AWA_CON	55	A	B	Rpleas_acq	Same	Rpleas	2pleas	acq_US_unple_nomask	acq45_nomask	4	34	400	0	300	300	0	0	665	46	1	0	sonnig	genießen	gütig	vergnügt	vertrauen	engagiert	sterben	gemein	gierig	verbissen	versagen	engstirnig	träumen	kuss	kreativ	anregung	gesittet	besonnen	töten	krise	krank	ausrottung	geizig	bange	1	blank2r.bmp	0	1	+	0	1	blank2r.bmp	500	1	CPLW	500	1	blank2r.bmp	880	2	gemein	880	1	!	1232	1	!	-1	0	0	0	0	0	0
2024-05-28	11:28:48	11:37:43	534291	6.6.1	4_exp_EVA_AWA_CON	55	A	B	Rpleas_acq	Same	Rpleas	2pleas	acq_US_pleas_nomask	acq45_nomask	4	35	400	0	300	300	0	0	502	50	1	0	sonnig	genießen	gütig	vergnügt	vertrauen	engagiert	sterben	gemein	gierig	verbissen	versagen	engstirnig	träumen	kuss	kreativ	anregung	gesittet	besonnen	töten	krise	krank	ausrottung	geizig	bange	1	blank2r.bmp	0	1	+	0	1	blank2r.bmp	500	1	DHJF	500	1	blank2r.bmp	880	4	vergnügt	880	1	!	1232	1	!	-1	0	0	0	0	0	0
2024-05-28	11:28:48	11:37:45	536611	6.6.1	4_exp_EVA_AWA_CON	55	A	B	Rpleas_acq	Same	Rpleas	2pleas	acq_US_unple_nomask	acq45_nomask	4	36	400	0	300	300	0	0	541	46	1	0	sonnig	genießen	gütig	vergnügt	vertrauen	engagiert	sterben	gemein	gierig	verbissen	versagen	engstirnig	träumen	kuss	kreativ	anregung	gesittet	besonnen	töten	krise	krank	ausrottung	geizig	bange	1	blank2r.bmp	0	1	+	0	1	blank2r.bmp	500	1	CPLW	500	1	blank2r.bmp	880	1	sterben	880	1	!	1233	1	!	-1	0	0	0	0	0	0
2024-05-28	11:28:48	11:38:13	564515	6.6.1	4_exp_EVA_AWA_CON	55	A	B	Rpleas_acq	Same	Rpleas	2pleas	acq_US_unple_nomask	acq45_nomask	5	1	400	0	300	300	0	0	486	46	1	0	sonnig	genießen	gütig	vergnügt	vertrauen	engagiert	sterben	gemein	gierig	verbissen	versagen	engstirnig	träumen	kuss	kreativ	anregung	gesittet	besonnen	töten	krise	krank	ausrottung	geizig	bange	1	blank2r.bmp	0	1	+	0	1	blank2r.bmp	500	1	CPLW	500	1	blank2r.bmp	880	3	gierig	880	1	!	1232	1	!	-1	0	0	0	0	0	0
2024-05-28	11:28:48	11:38:16	566819	6.6.1	4_exp_EVA_AWA_CON	55	A	B	Rpleas_acq	Same	Rpleas	2pleas	acq_US_pleas_nomask	acq45_nomask	5	2	400	0	300	300	0	0	529	46	0	0	sonnig	genießen	gütig	vergnügt	vertrauen	engagiert	sterben	gemein	gierig	verbissen	versagen	engstirnig	träumen	kuss	kreativ	anregung	gesittet	besonnen	töten	krise	krank	ausrottung	geizig	bange	1	blank2r.bmp	0	1	+	0	1	blank2r.bmp	500	1	DHJF	500	1	blank2r.bmp	880	4	vergnügt	880	1	!	1232	1	!	-1	0	0	0	0	0	0
2024-05-28	11:28:48	11:38:18	569203	6.6.1	4_exp_EVA_AWA_CON	55	A	B	Rpleas_acq	Same	Rpleas	2pleas	acq_US_unple_nomask	acq45_nomask	5	3	400	0	300	300	0	0	602	46	1	0	sonnig	genießen	gütig	vergnügt	vertrauen	engagiert	sterben	gemein	gierig	verbissen	versagen	engstirnig	träumen	kuss	kreativ	anregung	gesittet	besonnen	töten	krise	krank	ausrottung	geizig	bange	1	blank2r.bmp	0	1	+	0	1	blank2r.bmp	500	1	CPLW	500	1	blank2r.bmp	880	4	verbissen	880	1	!	1233	1	!	-1	0	0	0	0	0	0
2024-05-28	11:28:48	11:38:20	571475	6.6.1	4_exp_EVA_AWA_CON	55	A	B	Rpleas_acq	Same	Rpleas	2pleas	acq_US_pleas_nomask	acq45_nomask	5	4	400	0	300	300	0	0	492	46	0	0	sonnig	genießen	gütig	vergnügt	vertrauen	engagiert	sterben	gemein	gierig	verbissen	versagen	engstirnig	träumen	kuss	kreativ	anregung	gesittet	besonnen	töten	krise	krank	ausrottung	geizig	bange	1	blank2r.bmp	0	1	+	0	1	blank2r.bmp	500	1	DHJF	500	1	blank2r.bmp	880	2	genießen	880	1	!	1233	1	!	-1	0	0	0	0	0	0
2024-05-28	11:28:48	11:38:23	573819	6.6.1	4_exp_EVA_AWA_CON	55	A	B	Rpleas_acq	Same	Rpleas	2pleas	acq_US_pleas_nomask	acq45_nomask	5	5	400	0	300	300	0	0	565	50	1	0	sonnig	genießen	gütig	vergnügt	vertrauen	engagiert	sterben	gemein	gierig	verbissen	versagen	engstirnig	träumen	kuss	kreativ	anregung	gesittet	besonnen	töten	krise	krank	ausrottung	geizig	bange	1	blank2r.bmp	0	1	+	0	1	blank2r.bmp	500	1	DHJF	500	1	blank2r.bmp	880	3	gütig	880	1	!	1232	1	!	-1	0	0	0	0	0	0
2024-05-28	11:28:48	11:38:25	576251	6.6.1	4_exp_EVA_AWA_CON	55	A	B	Rpleas_acq	Same	Rpleas	2pleas	acq_US_unple_nomask	acq45_nomask	5	6	400	0	300	300	0	0	655	46	1	0	sonnig	genießen	gütig	vergnügt	vertrauen	engagiert	sterben	gemein	gierig	verbissen	versagen	engstirnig	träumen	kuss	kreativ	anregung	gesittet	besonnen	töten	krise	krank	ausrottung	geizig	bange	1	blank2r.bmp	0	1	+	0	1	blank2r.bmp	500	1	CPLW	500	1	blank2r.bmp	880	5	versagen	880	1	!	1233	1	!	-1	0	0	0	0	0	0
2024-05-28	11:28:48	11:38:27	578493	6.6.1	4_exp_EVA_AWA_CON	55	A	B	Rpleas_acq	Same	Rpleas	2pleas	acq_US_pleas_nomask	acq45_nomask	5	7	400	1	300	300	0	0	463	50	1	0	sonnig	genießen	gütig	vergnügt	vertrauen	engagiert	sterben	gemein	gierig	verbissen	versagen	engstirnig	träumen	kuss	kreativ	anregung	gesittet	besonnen	töten	krise	krank	ausrottung	geizig	bange	1	blank2r.bmp	0	1	+	0	1	blank2r.bmp	500	1	DHJF	500	1	blank2r.bmp	880	5	vertrauen	880	1	!	1232	1	!	1365	0	0	0	0	0	0
2024-05-28	11:28:48	11:38:30	580771	6.6.1	4_exp_EVA_AWA_CON	55	A	B	Rpleas_acq	Same	Rpleas	2pleas	acq_US_pleas_nomask	acq45_nomask	5	8	400	0	300	300	0	0	502	46	0	0	sonnig	genießen	gütig	vergnügt	vertrauen	engagiert	sterben	gemein	gierig	verbissen	versagen	engstirnig	träumen	kuss	kreativ	anregung	gesittet	besonnen	töten	krise	krank	ausrottung	geizig	bange	1	blank2r.bmp	0	1	+	0	1	blank2r.bmp	500	1	DHJF	500	1	blank2r.bmp	880	6	engagiert	880	1	!	1232	1	!	-1	0	0	0	0	0	0
2024-05-28	11:28:48	11:38:32	583099	6.6.1	4_exp_EVA_AWA_CON	55	A	B	Rpleas_acq	Same	Rpleas	2pleas	acq_US_unple_nomask	acq45_nomask	5	9	400	0	300	300	0	0	549	46	1	0	sonnig	genießen	gütig	vergnügt	vertrauen	engagiert	sterben	gemein	gierig	verbissen	versagen	engstirnig	träumen	kuss	kreativ	anregung	gesittet	besonnen	töten	krise	krank	ausrottung	geizig	bange	1	blank2r.bmp	0	1	+	0	1	blank2r.bmp	500	1	CPLW	500	1	blank2r.bmp	880	1	sterben	880	1	!	1232	1	!	-1	0	0	0	0	0	0
2024-05-28	11:28:48	11:38:34	585379	6.6.1	4_exp_EVA_AWA_CON	55	A	B	Rpleas_acq	Same	Rpleas	2pleas	acq_US_pleas_nomask	acq45_nomask	5	10	400	0	300	300	0	0	507	50	1	0	sonnig	genießen	gütig	vergnügt	vertrauen	engagiert	sterben	gemein	gierig	verbissen	versagen	engstirnig	träumen	kuss	kreativ	anregung	gesittet	besonnen	töten	krise	krank	ausrottung	geizig	bange	1	blank2r.bmp	0	1	+	0	1	blank2r.bmp	500	1	DHJF	500	1	blank2r.bmp	880	1	sonnig	880	1	!	1232	1	!	-1	0	0	0	0	0	0
2024-05-28	11:28:48	11:38:36	587597	6.6.1	4_exp_EVA_AWA_CON	55	A	B	Rpleas_acq	Same	Rpleas	2pleas	acq_US_pleas_nomask	acq45_nomask	5	11	400	1	300	300	0	0	442	46	0	0	sonnig	genießen	gütig	vergnügt	vertrauen	engagiert	sterben	gemein	gierig	verbissen	versagen	engstirnig	träumen	kuss	kreativ	anregung	gesittet	besonnen	töten	krise	krank	ausrottung	geizig	bange	1	blank2r.bmp	0	1	+	0	1	blank2r.bmp	500	1	DHJF	500	1	blank2r.bmp	880	3	gütig	880	1	!	1233	1	!	1343	0	0	0	0	0	0
2024-05-28	11:28:48	11:38:38	589467	6.6.1	4_exp_EVA_AWA_CON	55	A	B	Rpleas_acq	Same	Rpleas	2pleas	acq_US_pleas_nomask	acq45_nomask	5	12	400	0	300	300	0	0	92	50	1	0	sonnig	genießen	gütig	vergnügt	vertrauen	engagiert	sterben	gemein	gierig	verbissen	versagen	engstirnig	träumen	kuss	kreativ	anregung	gesittet	besonnen	töten	krise	krank	ausrottung	geizig	bange	1	blank2r.bmp	0	1	+	0	1	blank2r.bmp	500	1	DHJF	500	1	blank2r.bmp	880	2	genießen	880	1	!	-1	1	!	-1	0	0	0	0	0	0
2024-05-28	11:28:48	11:38:41	591661	6.6.1	4_exp_EVA_AWA_CON	55	A	B	Rpleas_acq	Same	Rpleas	2pleas	acq_US_unple_nomask	acq45_nomask	5	13	400	1	300	300	0	0	413	50	0	0	sonnig	genießen	gütig	vergnügt	vertrauen	engagiert	sterben	gemein	gierig	verbissen	versagen	engstirnig	träumen	kuss	kreativ	anregung	gesittet	besonnen	töten	krise	krank	ausrottung	geizig	bange	1	blank2r.bmp	0	1	+	0	1	blank2r.bmp	500	1	CPLW	500	1	blank2r.bmp	880	2	gemein	880	1	!	1232	1	!	1314	0	0	0	0	0	0
2024-05-28	11:28:48	11:38:43	593910	6.6.1	4_exp_EVA_AWA_CON	55	A	B	Rpleas_acq	Same	Rpleas	2pleas	acq_US_unple_nomask	acq45_nomask	5	14	400	1	300	300	0	0	469	46	1	0	sonnig	genießen	gütig	vergnügt	vertrauen	engagiert	sterben	gemein	gierig	verbissen	versagen	engstirnig	träumen	kuss	kreativ	anregung	gesittet	besonnen	töten	krise	krank	ausrottung	geizig	bange	1	blank2r.bmp	0	1	+	0	1	blank2r.bmp	500	1	CPLW	500	1	blank2r.bmp	880	6	engstirnig	880	1	!	1232	1	!	1372	0	0	0	0	0	0
2024-05-28	11:28:48	11:38:46	597347	6.6.1	4_exp_EVA_AWA_CON	55	A	B	Rpleas_acq	Same	Rpleas	2pleas	acq_US_pleas_nomask	acq45_nomask	5	15	400	0	300	300	0	0	1658	50	1	0	sonnig	genießen	gütig	vergnügt	vertrauen	engagiert	sterben	gemein	gierig	verbissen	versagen	engstirnig	träumen	kuss	kreativ	anregung	gesittet	besonnen	töten	krise	krank	ausrottung	geizig	bange	1	blank2r.bmp	0	1	+	0	1	blank2r.bmp	500	1	DHJF	500	1	blank2r.bmp	880	4	vergnügt	880	1	!	1233	1	!	-1	0	0	0	0	0	0
2024-05-28	11:28:48	11:38:49	599675	6.6.1	4_exp_EVA_AWA_CON	55	A	B	Rpleas_acq	Same	Rpleas	2pleas	acq_US_unple_nomask	acq45_nomask	5	16	400	0	300	300	0	0	554	46	1	0	sonnig	genießen	gütig	vergnügt	vertrauen	engagiert	sterben	gemein	gierig	verbissen	versagen	engstirnig	träumen	kuss	kreativ	anregung	gesittet	besonnen	töten	krise	krank	ausrottung	geizig	bange	1	blank2r.bmp	0	1	+	0	1	blank2r.bmp	500	1	CPLW	500	1	blank2r.bmp	880	6	engstirnig	880	1	!	1232	1	!	-1	0	0	0	0	0	0
2024-05-28	11:28:48	11:38:51	602067	6.6.1	4_exp_EVA_AWA_CON	55	A	B	Rpleas_acq	Same	Rpleas	2pleas	acq_US_unple_nomask	acq45_nomask	5	17	400	0	300	300	0	0	614	46	1	0	sonnig	genießen	gütig	vergnügt	vertrauen	engagiert	sterben	gemein	gierig	verbissen	versagen	engstirnig	träumen	kuss	kreativ	anregung	gesittet	besonnen	töten	krise	krank	ausrottung	geizig	bange	1	blank2r.bmp	0	1	+	0	1	blank2r.bmp	500	1	CPLW	500	1	blank2r.bmp	880	3	gierig	880	1	!	1232	1	!	-1	0	0	0	0	0	0
2024-05-28	11:28:48	11:38:53	604315	6.6.1	4_exp_EVA_AWA_CON	55	A	B	Rpleas_acq	Same	Rpleas	2pleas	acq_US_unple_nomask	acq45_nomask	5	18	400	0	300	300	0	0	471	50	0	0	sonnig	genießen	gütig	vergnügt	vertrauen	engagiert	sterben	gemein	gierig	verbissen	versagen	engstirnig	träumen	kuss	kreativ	anregung	gesittet	besonnen	töten	krise	krank	ausrottung	geizig	bange	1	blank2r.bmp	0	1	+	0	1	blank2r.bmp	500	1	CPLW	500	1	blank2r.bmp	880	5	versagen	880	1	!	1232	1	!	-1	0	0	0	0	0	0
2024-05-28	11:28:48	11:38:55	606548	6.6.1	4_exp_EVA_AWA_CON	55	A	B	Rpleas_acq	Same	Rpleas	2pleas	acq_US_pleas_nomask	acq45_nomask	5	19	400	1	300	300	0	0	451	50	1	0	sonnig	genießen	gütig	vergnügt	vertrauen	engagiert	sterben	gemein	gierig	verbissen	versagen	engstirnig	träumen	kuss	kreativ	anregung	gesittet	besonnen	töten	krise	krank	ausrottung	geizig	bange	1	blank2r.bmp	0	1	+	0	1	blank2r.bmp	500	1	DHJF	500	1	blank2r.bmp	880	1	sonnig	880	1	!	1232	1	!	1353	0	0	0	0	0	0
2024-05-28	11:28:48	11:38:58	608789	6.6.1	4_exp_EVA_AWA_CON	55	A	B	Rpleas_acq	Same	Rpleas	2pleas	acq_US_unple_nomask	acq45_nomask	5	20	400	1	300	300	0	0	460	46	1	0	sonnig	genießen	gütig	vergnügt	vertrauen	engagiert	sterben	gemein	gierig	verbissen	versagen	engstirnig	träumen	kuss	kreativ	anregung	gesittet	besonnen	töten	krise	krank	ausrottung	geizig	bange	1	blank2r.bmp	0	1	+	0	1	blank2r.bmp	500	1	CPLW	500	1	blank2r.bmp	880	1	sterben	880	1	!	1232	1	!	1362	0	0	0	0	0	0
2024-05-28	11:28:48	11:39:00	611195	6.6.1	4_exp_EVA_AWA_CON	55	A	B	Rpleas_acq	Same	Rpleas	2pleas	acq_US_pleas_nomask	acq45_nomask	5	21	400	0	300	300	0	0	626	50	1	0	sonnig	genießen	gütig	vergnügt	vertrauen	engagiert	sterben	gemein	gierig	verbissen	versagen	engstirnig	träumen	kuss	kreativ	anregung	gesittet	besonnen	töten	krise	krank	ausrottung	geizig	bange	1	blank2r.bmp	0	1	+	0	1	blank2r.bmp	500	1	DHJF	500	1	blank2r.bmp	880	5	vertrauen	880	1	!	1233	1	!	-1	0	0	0	0	0	0
2024-05-28	11:28:48	11:39:02	613611	6.6.1	4_exp_EVA_AWA_CON	55	A	B	Rpleas_acq	Same	Rpleas	2pleas	acq_US_unple_nomask	acq45_nomask	5	22	400	0	300	300	0	0	641	46	1	0	sonnig	genießen	gütig	vergnügt	vertrauen	engagiert	sterben	gemein	gierig	verbissen	versagen	engstirnig	träumen	kuss	kreativ	anregung	gesittet	besonnen	töten	krise	krank	ausrottung	geizig	bange	1	blank2r.bmp	0	1	+	0	1	blank2r.bmp	500	1	CPLW	500	1	blank2r.bmp	880	4	verbissen	880	1	!	1233	1	!	-1	0	0	0	0	0	0
2024-05-28	11:28:48	11:39:05	615627	6.6.1	4_exp_EVA_AWA_CON	55	A	B	Rpleas_acq	Same	Rpleas	2pleas	acq_US_unple_nomask	acq45_nomask	5	23	400	0	300	300	0	0	235	50	0	0	sonnig	genießen	gütig	vergnügt	vertrauen	engagiert	sterben	gemein	gierig	verbissen	versagen	engstirnig	träumen	kuss	kreativ	anregung	gesittet	besonnen	töten	krise	krank	ausrottung	geizig	bange	1	blank2r.bmp	0	1	+	0	1	blank2r.bmp	500	1	CPLW	500	1	blank2r.bmp	880	2	gemein	880	1	!	-1	1	!	-1	0	0	0	0	0	0
2024-05-28	11:28:48	11:39:06	617523	6.6.1	4_exp_EVA_AWA_CON	55	A	B	Rpleas_acq	Same	Rpleas	2pleas	acq_US_pleas_nomask	acq45_nomask	5	24	400	0	300	300	0	0	120	46	0	0	sonnig	genießen	gütig	vergnügt	vertrauen	engagiert	sterben	gemein	gierig	verbissen	versagen	engstirnig	träumen	kuss	kreativ	anregung	gesittet	besonnen	töten	krise	krank	ausrottung	geizig	bange	1	blank2r.bmp	0	1	+	0	1	blank2r.bmp	500	1	DHJF	500	1	blank2r.bmp	880	6	engagiert	880	1	!	-1	1	!	-1	0	0	0	0	0	0
2024-05-28	11:28:48	11:39:09	619907	6.6.1	4_exp_EVA_AWA_CON	55	A	B	Rpleas_acq	Same	Rpleas	2pleas	acq_US_unple_nomask	acq45_nomask	5	25	400	0	300	300	0	0	603	46	1	0	sonnig	genießen	gütig	vergnügt	vertrauen	engagiert	sterben	gemein	gierig	verbissen	versagen	engstirnig	träumen	kuss	kreativ	anregung	gesittet	besonnen	töten	krise	krank	ausrottung	geizig	bange	1	blank2r.bmp	0	1	+	0	1	blank2r.bmp	500	1	CPLW	500	1	blank2r.bmp	880	5	versagen	880	1	!	1232	1	!	-1	0	0	0	0	0	0
2024-05-28	11:28:48	11:39:11	622235	6.6.1	4_exp_EVA_AWA_CON	55	A	B	Rpleas_acq	Same	Rpleas	2pleas	acq_US_pleas_nomask	acq45_nomask	5	26	400	0	300	300	0	0	549	50	1	0	sonnig	genießen	gütig	vergnügt	vertrauen	engagiert	sterben	gemein	gierig	verbissen	versagen	engstirnig	träumen	kuss	kreativ	anregung	gesittet	besonnen	töten	krise	krank	ausrottung	geizig	bange	1	blank2r.bmp	0	1	+	0	1	blank2r.bmp	500	1	DHJF	500	1	blank2r.bmp	880	5	vertrauen	880	1	!	1232	1	!	-1	0	0	0	0	0	0
2024-05-28	11:28:48	11:39:14	624691	6.6.1	4_exp_EVA_AWA_CON	55	A	B	Rpleas_acq	Same	Rpleas	2pleas	acq_US_pleas_nomask	acq45_nomask	5	27	400	0	300	300	0	0	674	50	1	0	sonnig	genießen	gütig	vergnügt	vertrauen	engagiert	sterben	gemein	gierig	verbissen	versagen	engstirnig	träumen	kuss	kreativ	anregung	gesittet	besonnen	töten	krise	krank	ausrottung	geizig	bange	1	blank2r.bmp	0	1	+	0	1	blank2r.bmp	500	1	DHJF	500	1	blank2r.bmp	880	6	engagiert	880	1	!	1232	1	!	-1	0	0	0	0	0	0
2024-05-28	11:28:48	11:39:16	626901	6.6.1	4_exp_EVA_AWA_CON	55	A	B	Rpleas_acq	Same	Rpleas	2pleas	acq_US_pleas_nomask	acq45_nomask	5	28	400	1	300	300	0	0	430	50	1	0	sonnig	genießen	gütig	vergnügt	vertrauen	engagiert	sterben	gemein	gierig	verbissen	versagen	engstirnig	träumen	kuss	kreativ	anregung	gesittet	besonnen	töten	krise	krank	ausrottung	geizig	bange	1	blank2r.bmp	0	1	+	0	1	blank2r.bmp	500	1	DHJF	500	1	blank2r.bmp	880	4	vergnügt	880	1	!	1232	1	!	1332	0	0	0	0	0	0
2024-05-28	11:28:48	11:39:18	629291	6.6.1	4_exp_EVA_AWA_CON	55	A	B	Rpleas_acq	Same	Rpleas	2pleas	acq_US_unple_nomask	acq45_nomask	5	29	400	0	300	300	0	0	611	50	0	0	sonnig	genießen	gütig	vergnügt	vertrauen	engagiert	sterben	gemein	gierig	verbissen	versagen	engstirnig	träumen	kuss	kreativ	anregung	gesittet	besonnen	töten	krise	krank	ausrottung	geizig	bange	1	blank2r.bmp	0	1	+	0	1	blank2r.bmp	500	1	CPLW	500	1	blank2r.bmp	880	1	sterben	880	1	!	1233	1	!	-1	0	0	0	0	0	0
2024-05-28	11:28:48	11:39:20	631611	6.6.1	4_exp_EVA_AWA_CON	55	A	B	Rpleas_acq	Same	Rpleas	2pleas	acq_US_pleas_nomask	acq45_nomask	5	30	400	0	300	300	0	0	539	50	1	0	sonnig	genießen	gütig	vergnügt	vertrauen	engagiert	sterben	gemein	gierig	verbissen	versagen	engstirnig	träumen	kuss	kreativ	anregung	gesittet	besonnen	töten	krise	krank	ausrottung	geizig	bange	1	blank2r.bmp	0	1	+	0	1	blank2r.bmp	500	1	DHJF	500	1	blank2r.bmp	880	3	gütig	880	1	!	1232	1	!	-1	0	0	0	0	0	0
2024-05-28	11:28:48	11:39:23	633899	6.6.1	4_exp_EVA_AWA_CON	55	A	B	Rpleas_acq	Same	Rpleas	2pleas	acq_US_pleas_nomask	acq45_nomask	5	31	400	0	300	300	0	0	506	50	1	0	sonnig	genießen	gütig	vergnügt	vertrauen	engagiert	sterben	gemein	gierig	verbissen	versagen	engstirnig	träumen	kuss	kreativ	anregung	gesittet	besonnen	töten	krise	krank	ausrottung	geizig	bange	1	blank2r.bmp	0	1	+	0	1	blank2r.bmp	500	1	DHJF	500	1	blank2r.bmp	880	1	sonnig	880	1	!	1232	1	!	-1	0	0	0	0	0	0
2024-05-28	11:28:48	11:39:25	636219	6.6.1	4_exp_EVA_AWA_CON	55	A	B	Rpleas_acq	Same	Rpleas	2pleas	acq_US_pleas_nomask	acq45_nomask	5	32	400	0	300	300	0	0	544	50	1	0	sonnig	genießen	gütig	vergnügt	vertrauen	engagiert	sterben	gemein	gierig	verbissen	versagen	engstirnig	träumen	kuss	kreativ	anregung	gesittet	besonnen	töten	krise	krank	ausrottung	geizig	bange	1	blank2r.bmp	0	1	+	0	1	blank2r.bmp	500	1	DHJF	500	1	blank2r.bmp	880	2	genießen	880	1	!	1232	1	!	-1	0	0	0	0	0	0
2024-05-28	11:28:48	11:39:27	638397	6.6.1	4_exp_EVA_AWA_CON	55	A	B	Rpleas_acq	Same	Rpleas	2pleas	acq_US_unple_nomask	acq45_nomask	5	33	400	1	300	300	0	0	399	50	0	0	sonnig	genießen	gütig	vergnügt	vertrauen	engagiert	sterben	gemein	gierig	verbissen	versagen	engstirnig	träumen	kuss	kreativ	anregung	gesittet	besonnen	töten	krise	krank	ausrottung	geizig	bange	1	blank2r.bmp	0	1	+	0	1	blank2r.bmp	500	1	CPLW	500	1	blank2r.bmp	880	4	verbissen	880	1	!	1232	1	!	1300	0	0	0	0	0	0
2024-05-28	11:28:48	11:39:29	640596	6.6.1	4_exp_EVA_AWA_CON	55	A	B	Rpleas_acq	Same	Rpleas	2pleas	acq_US_unple_nomask	acq45_nomask	5	34	400	1	300	300	0	0	417	46	1	0	sonnig	genießen	gütig	vergnügt	vertrauen	engagiert	sterben	gemein	gierig	verbissen	versagen	engstirnig	träumen	kuss	kreativ	anregung	gesittet	besonnen	töten	krise	krank	ausrottung	geizig	bange	1	blank2r.bmp	0	1	+	0	1	blank2r.bmp	500	1	CPLW	500	1	blank2r.bmp	880	2	gemein	880	1	!	1232	1	!	1319	0	0	0	0	0	0
2024-05-28	11:28:48	11:39:32	642907	6.6.1	4_exp_EVA_AWA_CON	55	A	B	Rpleas_acq	Same	Rpleas	2pleas	acq_US_unple_nomask	acq45_nomask	5	35	400	0	300	300	0	0	538	46	1	0	sonnig	genießen	gütig	vergnügt	vertrauen	engagiert	sterben	gemein	gierig	verbissen	versagen	engstirnig	träumen	kuss	kreativ	anregung	gesittet	besonnen	töten	krise	krank	ausrottung	geizig	bange	1	blank2r.bmp	0	1	+	0	1	blank2r.bmp	500	1	CPLW	500	1	blank2r.bmp	880	6	engstirnig	880	1	!	1232	1	!	-1	0	0	0	0	0	0
2024-05-28	11:28:48	11:39:34	645037	6.6.1	4_exp_EVA_AWA_CON	55	A	B	Rpleas_acq	Same	Rpleas	2pleas	acq_US_unple_nomask	acq45_nomask	5	36	400	1	300	300	0	0	354	46	1	0	sonnig	genießen	gütig	vergnügt	vertrauen	engagiert	sterben	gemein	gierig	verbissen	versagen	engstirnig	träumen	kuss	kreativ	anregung	gesittet	besonnen	töten	krise	krank	ausrottung	geizig	bange	1	blank2r.bmp	0	1	+	0	1	blank2r.bmp	500	1	CPLW	500	1	blank2r.bmp	880	3	gierig	880	1	!	1233	1	!	1256	0	0	0	0	0	0
2024-05-28	11:28:48	11:40:09	679895	6.6.1	4_exp_EVA_AWA_CON	55	A	B	Rpleas_acq	Same	Rpleas	2pleas	EvalRating_firsttwo	EvalRating_firsttwo	6	1	0	0	300	300	0	0	9098	line	0	23,6979166666666714036pct	sonnig	genießen	gütig	vergnügt	vertrauen	engagiert	sterben	gemein	gierig	verbissen	versagen	engstirnig	träumen	kuss	kreativ	anregung	gesittet	besonnen	töten	krise	krank	ausrottung	geizig	bange	1		-7	1	Wie angenehm oder unangenehm finden Sie die  Buchstabenkette WDLH?	-7	1		-7	1		-7	1		-7	1	Unangenehm	-7	1	Angenehm	-7	0	0	0	0	0	0	0	0	0
2024-05-28	11:28:48	11:40:15	686015	6.6.1	4_exp_EVA_AWA_CON	55	A	B	Rpleas_acq	Same	Rpleas	2pleas	EvalRating_lastfour	EvalRating_lastfour	7	1	0	0	300	300	0	0	3741	line	0	-58,7239583333333285964pct	sonnig	genießen	gütig	vergnügt	vertrauen	engagiert	sterben	gemein	gierig	verbissen	versagen	engstirnig	träumen	kuss	kreativ	anregung	gesittet	besonnen	töten	krise	krank	ausrottung	geizig	bange	1		-7	3	Wie angenehm oder unangenehm finden Sie die  Buchstabenkette FCJP?	-7	1		-7	1		-7	1		-7	1	Unangenehm	-7	1	Angenehm	-7	0	0	0	0	0	0	0	0	0
2024-05-28	11:28:48	11:40:17	688380	6.6.1	4_exp_EVA_AWA_CON	55	A	B	Rpleas_acq	Same	Rpleas	2pleas	blank_screen	EvalRating_lastfour	7	3	0	0	300	300	0	0	0	0	0	-58,7239583333333285964pct	sonnig	genießen	gütig	vergnügt	vertrauen	engagiert	sterben	gemein	gierig	verbissen	versagen	engstirnig	träumen	kuss	kreativ	anregung	gesittet	besonnen	töten	krise	krank	ausrottung	geizig	bange	1		-8	0	0	0	0	0	0	0	0	0	0	0	0	0	0	0	0	0	0	0	0	0	0	0	0	0	0	0
2024-05-28	11:28:48	11:40:21	692343	6.6.1	4_exp_EVA_AWA_CON	55	A	B	Rpleas_acq	Same	Rpleas	2pleas	EvalRating_lastfour	EvalRating_lastfour	7	4	0	0	300	300	0	0	3375	line	0	-22,3958333333333285964pct	sonnig	genießen	gütig	vergnügt	vertrauen	engagiert	sterben	gemein	gierig	verbissen	versagen	engstirnig	träumen	kuss	kreativ	anregung	gesittet	besonnen	töten	krise	krank	ausrottung	geizig	bange	1		-7	2	Wie angenehm oder unangenehm finden Sie die  Buchstabenkette DHJF?	-7	1		-7	1		-7	1		-7	1	Unangenehm	-7	1	Angenehm	-7	0	0	0	0	0	0	0	0	0
2024-05-28	11:28:48	11:40:24	694714	6.6.1	4_exp_EVA_AWA_CON	55	A	B	Rpleas_acq	Same	Rpleas	2pleas	blank_screen	EvalRating_lastfour	7	6	0	0	300	300	0	0	0	0	0	-22,3958333333333285964pct	sonnig	genießen	gütig	vergnügt	vertrauen	engagiert	sterben	gemein	gierig	verbissen	versagen	engstirnig	träumen	kuss	kreativ	anregung	gesittet	besonnen	töten	krise	krank	ausrottung	geizig	bange	1		-8	0	0	0	0	0	0	0	0	0	0	0	0	0	0	0	0	0	0	0	0	0	0	0	0	0	0	0
2024-05-28	11:28:48	11:40:27	698368	6.6.1	4_exp_EVA_AWA_CON	55	A	B	Rpleas_acq	Same	Rpleas	2pleas	EvalRating_lastfour	EvalRating_lastfour	7	7	0	0	300	300	0	0	3065	line	0	43,0989583333333428072pct	sonnig	genießen	gütig	vergnügt	vertrauen	engagiert	sterben	gemein	gierig	verbissen	versagen	engstirnig	träumen	kuss	kreativ	anregung	gesittet	besonnen	töten	krise	krank	ausrottung	geizig	bange	1		-8	1	Wie angenehm oder unangenehm finden Sie die  Buchstabenkette CPLW?	-8	1		-8	1		-8	1		-8	1	Unangenehm	-8	1	Angenehm	-8	0	0	0	0	0	0	0	0	0
2024-05-28	11:28:48	11:42:07	798020	6.6.1	4_exp_EVA_AWA_CON	55	A	B	Rpleas_acq	Same	Rpleas	2pleas	conawa_CS1_US4	conawa1_nomask	8	1	0	0	300	300	0	0	26062	verbissen	1	43,0989583333333428072pct	sonnig	genießen	gütig	vergnügt	vertrauen	engagiert	sterben	gemein	gierig	verbissen	versagen	engstirnig	träumen	kuss	kreativ	anregung	gesittet	besonnen	töten	krise	krank	ausrottung	geizig	bange	0	0	0	0	0	0	0	0	0	0	0	0	0	0	0	0	0	0	0	0	0	0	0	0	0	0	0	0	0	0
2024-05-28	11:28:48	11:42:07	798021	6.6.1	4_exp_EVA_AWA_CON	55	A	B	Rpleas_acq	Same	Rpleas	2pleas	conawa_CS1_US4_confidence	conawa1_nomask	8	1	0	0	300	300	0	0	26062	guess	1	43,0989583333333428072pct	sonnig	genießen	gütig	vergnügt	vertrauen	engagiert	sterben	gemein	gierig	verbissen	versagen	engstirnig	träumen	kuss	kreativ	anregung	gesittet	besonnen	töten	krise	krank	ausrottung	geizig	bange	0	0	0	0	0	0	0	0	0	0	0	0	0	0	0	0	0	0	0	0	0	0	0	0	0	0	0	0	0	0
2024-05-28	11:28:48	11:42:37	827949	6.6.1	4_exp_EVA_AWA_CON	55	A	B	Rpleas_acq	Same	Rpleas	2pleas	conawa_CS1_US3	conawa1_nomask	8	2	0	0	300	300	0	0	29316	gütig	1	43,0989583333333428072pct	sonnig	genießen	gütig	vergnügt	vertrauen	engagiert	sterben	gemein	gierig	verbissen	versagen	engstirnig	träumen	kuss	kreativ	anregung	gesittet	besonnen	töten	krise	krank	ausrottung	geizig	bange	0	0	0	0	0	0	0	0	0	0	0	0	0	0	0	0	0	0	0	0	0	0	0	0	0	0	0	0	0	0
2024-05-28	11:28:48	11:42:37	827951	6.6.1	4_exp_EVA_AWA_CON	55	A	B	Rpleas_acq	Same	Rpleas	2pleas	conawa_CS1_US3_confidence	conawa1_nomask	8	2	0	0	300	300	0	0	29316	guess	1	43,0989583333333428072pct	sonnig	genießen	gütig	vergnügt	vertrauen	engagiert	sterben	gemein	gierig	verbissen	versagen	engstirnig	träumen	kuss	kreativ	anregung	gesittet	besonnen	töten	krise	krank	ausrottung	geizig	bange	0	0	0	0	0	0	0	0	0	0	0	0	0	0	0	0	0	0	0	0	0	0	0	0	0	0	0	0	0	0
2024-05-28	11:28:48	11:42:46	837385	6.6.1	4_exp_EVA_AWA_CON	55	A	B	Rpleas_acq	Same	Rpleas	2pleas	conawa_CS2_US1	conawa1_nomask	8	3	0	0	300	300	0	0	8818	kuss	1	43,0989583333333428072pct	sonnig	genießen	gütig	vergnügt	vertrauen	engagiert	sterben	gemein	gierig	verbissen	versagen	engstirnig	träumen	kuss	kreativ	anregung	gesittet	besonnen	töten	krise	krank	ausrottung	geizig	bange	0	0	0	0	0	0	0	0	0	0	0	0	0	0	0	0	0	0	0	0	0	0	0	0	0	0	0	0	0	0
2024-05-28	11:28:48	11:42:46	837387	6.6.1	4_exp_EVA_AWA_CON	55	A	B	Rpleas_acq	Same	Rpleas	2pleas	conawa_CS2_US1_confidence	conawa1_nomask	8	3	0	0	300	300	0	0	8818	probably	1	43,0989583333333428072pct	sonnig	genießen	gütig	vergnügt	vertrauen	engagiert	sterben	gemein	gierig	verbissen	versagen	engstirnig	träumen	kuss	kreativ	anregung	gesittet	besonnen	töten	krise	krank	ausrottung	geizig	bange	0	0	0	0	0	0	0	0	0	0	0	0	0	0	0	0	0	0	0	0	0	0	0	0	0	0	0	0	0	0
2024-05-28	11:28:48	11:43:04	855347	6.6.1	4_exp_EVA_AWA_CON	55	A	B	Rpleas_acq	Same	Rpleas	2pleas	conawa_CS2_US5	conawa1_nomask	8	4	0	0	300	300	0	0	17345	bange	1	43,0989583333333428072pct	sonnig	genießen	gütig	vergnügt	vertrauen	engagiert	sterben	gemein	gierig	verbissen	versagen	engstirnig	träumen	kuss	kreativ	anregung	gesittet	besonnen	töten	krise	krank	ausrottung	geizig	bange	0	0	0	0	0	0	0	0	0	0	0	0	0	0	0	0	0	0	0	0	0	0	0	0	0	0	0	0	0	0
2024-05-28	11:28:48	11:43:04	855348	6.6.1	4_exp_EVA_AWA_CON	55	A	B	Rpleas_acq	Same	Rpleas	2pleas	conawa_CS2_US5_confidence	conawa1_nomask	8	4	0	0	300	300	0	0	17345	guess	1	43,0989583333333428072pct	sonnig	genießen	gütig	vergnügt	vertrauen	engagiert	sterben	gemein	gierig	verbissen	versagen	engstirnig	träumen	kuss	kreativ	anregung	gesittet	besonnen	töten	krise	krank	ausrottung	geizig	bange	0	0	0	0	0	0	0	0	0	0	0	0	0	0	0	0	0	0	0	0	0	0	0	0	0	0	0	0	0	0
2024-05-28	11:28:48	11:43:44	894762	6.6.1	4_exp_EVA_AWA_CON	55	A	B	Rpleas_acq	Same	Rpleas	2pleas	conawa_CS2_US3	conawa1_nomask	8	5	0	0	300	300	0	0	38798	ausrottung	1	43,0989583333333428072pct	sonnig	genießen	gütig	vergnügt	vertrauen	engagiert	sterben	gemein	gierig	verbissen	versagen	engstirnig	träumen	kuss	kreativ	anregung	gesittet	besonnen	töten	krise	krank	ausrottung	geizig	bange	0	0	0	0	0	0	0	0	0	0	0	0	0	0	0	0	0	0	0	0	0	0	0	0	0	0	0	0	0	0
2024-05-28	11:28:48	11:43:44	894764	6.6.1	4_exp_EVA_AWA_CON	55	A	B	Rpleas_acq	Same	Rpleas	2pleas	conawa_CS2_US3_confidence	conawa1_nomask	8	5	0	0	300	300	0	0	38798	probably	1	43,0989583333333428072pct	sonnig	genießen	gütig	vergnügt	vertrauen	engagiert	sterben	gemein	gierig	verbissen	versagen	engstirnig	träumen	kuss	kreativ	anregung	gesittet	besonnen	töten	krise	krank	ausrottung	geizig	bange	0	0	0	0	0	0	0	0	0	0	0	0	0	0	0	0	0	0	0	0	0	0	0	0	0	0	0	0	0	0
2024-05-28	11:28:48	11:44:08	919217	6.6.1	4_exp_EVA_AWA_CON	55	A	B	Rpleas_acq	Same	Rpleas	2pleas	conawa_CS1_US6	conawa1_nomask	8	6	0	0	300	300	0	0	23839	engagiert	1	43,0989583333333428072pct	sonnig	genießen	gütig	vergnügt	vertrauen	engagiert	sterben	gemein	gierig	verbissen	versagen	engstirnig	träumen	kuss	kreativ	anregung	gesittet	besonnen	töten	krise	krank	ausrottung	geizig	bange	0	0	0	0	0	0	0	0	0	0	0	0	0	0	0	0	0	0	0	0	0	0	0	0	0	0	0	0	0	0
2024-05-28	11:28:48	11:44:08	919219	6.6.1	4_exp_EVA_AWA_CON	55	A	B	Rpleas_acq	Same	Rpleas	2pleas	conawa_CS1_US6_confidence	conawa1_nomask	8	6	0	0	300	300	0	0	23839	guess	1	43,0989583333333428072pct	sonnig	genießen	gütig	vergnügt	vertrauen	engagiert	sterben	gemein	gierig	verbissen	versagen	engstirnig	träumen	kuss	kreativ	anregung	gesittet	besonnen	töten	krise	krank	ausrottung	geizig	bange	0	0	0	0	0	0	0	0	0	0	0	0	0	0	0	0	0	0	0	0	0	0	0	0	0	0	0	0	0	0
2024-05-28	11:28:48	11:44:23	934097	6.6.1	4_exp_EVA_AWA_CON	55	A	B	Rpleas_acq	Same	Rpleas	2pleas	conawa_CS2_US4	conawa1_nomask	8	7	0	0	300	300	0	0	14263	verbissen	1	43,0989583333333428072pct	sonnig	genießen	gütig	vergnügt	vertrauen	engagiert	sterben	gemein	gierig	verbissen	versagen	engstirnig	träumen	kuss	kreativ	anregung	gesittet	besonnen	töten	krise	krank	ausrottung	geizig	bange	0	0	0	0	0	0	0	0	0	0	0	0	0	0	0	0	0	0	0	0	0	0	0	0	0	0	0	0	0	0
2024-05-28	11:28:48	11:44:23	934099	6.6.1	4_exp_EVA_AWA_CON	55	A	B	Rpleas_acq	Same	Rpleas	2pleas	conawa_CS2_US4_confidence	conawa1_nomask	8	7	0	0	300	300	0	0	14263	guess	1	43,0989583333333428072pct	sonnig	genießen	gütig	vergnügt	vertrauen	engagiert	sterben	gemein	gierig	verbissen	versagen	engstirnig	träumen	kuss	kreativ	anregung	gesittet	besonnen	töten	krise	krank	ausrottung	geizig	bange	0	0	0	0	0	0	0	0	0	0	0	0	0	0	0	0	0	0	0	0	0	0	0	0	0	0	0	0	0	0
2024-05-28	11:28:48	11:44:53	964387	6.6.1	4_exp_EVA_AWA_CON	55	A	B	Rpleas_acq	Same	Rpleas	2pleas	conawa_CS2_US6	conawa1_nomask	8	8	0	0	300	300	0	0	29668	engstirnig	1	43,0989583333333428072pct	sonnig	genießen	gütig	vergnügt	vertrauen	engagiert	sterben	gemein	gierig	verbissen	versagen	engstirnig	träumen	kuss	kreativ	anregung	gesittet	besonnen	töten	krise	krank	ausrottung	geizig	bange	0	0	0	0	0	0	0	0	0	0	0	0	0	0	0	0	0	0	0	0	0	0	0	0	0	0	0	0	0	0
2024-05-28	11:28:48	11:44:53	964389	6.6.1	4_exp_EVA_AWA_CON	55	A	B	Rpleas_acq	Same	Rpleas	2pleas	conawa_CS2_US6_confidence	conawa1_nomask	8	8	0	0	300	300	0	0	29668	probably	1	43,0989583333333428072pct	sonnig	genießen	gütig	vergnügt	vertrauen	engagiert	sterben	gemein	gierig	verbissen	versagen	engstirnig	träumen	kuss	kreativ	anregung	gesittet	besonnen	töten	krise	krank	ausrottung	geizig	bange	0	0	0	0	0	0	0	0	0	0	0	0	0	0	0	0	0	0	0	0	0	0	0	0	0	0	0	0	0	0
2024-05-28	11:28:48	11:45:01	971922	6.6.1	4_exp_EVA_AWA_CON	55	A	B	Rpleas_acq	Same	Rpleas	2pleas	conawa_CS1_US5	conawa1_nomask	8	9	0	0	300	300	0	0	6917	vertrauen	1	43,0989583333333428072pct	sonnig	genießen	gütig	vergnügt	vertrauen	engagiert	sterben	gemein	gierig	verbissen	versagen	engstirnig	träumen	kuss	kreativ	anregung	gesittet	besonnen	töten	krise	krank	ausrottung	geizig	bange	0	0	0	0	0	0	0	0	0	0	0	0	0	0	0	0	0	0	0	0	0	0	0	0	0	0	0	0	0	0
2024-05-28	11:28:48	11:45:01	971924	6.6.1	4_exp_EVA_AWA_CON	55	A	B	Rpleas_acq	Same	Rpleas	2pleas	conawa_CS1_US5_confidence	conawa1_nomask	8	9	0	0	300	300	0	0	6917	guess	1	43,0989583333333428072pct	sonnig	genießen	gütig	vergnügt	vertrauen	engagiert	sterben	gemein	gierig	verbissen	versagen	engstirnig	träumen	kuss	kreativ	anregung	gesittet	besonnen	töten	krise	krank	ausrottung	geizig	bange	0	0	0	0	0	0	0	0	0	0	0	0	0	0	0	0	0	0	0	0	0	0	0	0	0	0	0	0	0	0
2024-05-28	11:28:48	11:45:08	978997	6.6.1	4_exp_EVA_AWA_CON	55	A	B	Rpleas_acq	Same	Rpleas	2pleas	conawa_CS2_US2	conawa1_nomask	8	10	0	0	300	300	0	0	6461	gemein	1	43,0989583333333428072pct	sonnig	genießen	gütig	vergnügt	vertrauen	engagiert	sterben	gemein	gierig	verbissen	versagen	engstirnig	träumen	kuss	kreativ	anregung	gesittet	besonnen	töten	krise	krank	ausrottung	geizig	bange	0	0	0	0	0	0	0	0	0	0	0	0	0	0	0	0	0	0	0	0	0	0	0	0	0	0	0	0	0	0
2024-05-28	11:28:48	11:45:08	978998	6.6.1	4_exp_EVA_AWA_CON	55	A	B	Rpleas_acq	Same	Rpleas	2pleas	conawa_CS2_US2_confidence	conawa1_nomask	8	10	0	0	300	300	0	0	6461	guess	1	43,0989583333333428072pct	sonnig	genießen	gütig	vergnügt	vertrauen	engagiert	sterben	gemein	gierig	verbissen	versagen	engstirnig	träumen	kuss	kreativ	anregung	gesittet	besonnen	töten	krise	krank	ausrottung	geizig	bange	0	0	0	0	0	0	0	0	0	0	0	0	0	0	0	0	0	0	0	0	0	0	0	0	0	0	0	0	0	0
2024-05-28	11:28:48	11:45:16	987142	6.6.1	4_exp_EVA_AWA_CON	55	A	B	Rpleas_acq	Same	Rpleas	2pleas	conawa_CS1_US1	conawa1_nomask	8	11	0	0	300	300	0	0	7533	sonnig	1	43,0989583333333428072pct	sonnig	genießen	gütig	vergnügt	vertrauen	engagiert	sterben	gemein	gierig	verbissen	versagen	engstirnig	träumen	kuss	kreativ	anregung	gesittet	besonnen	töten	krise	krank	ausrottung	geizig	bange	0	0	0	0	0	0	0	0	0	0	0	0	0	0	0	0	0	0	0	0	0	0	0	0	0	0	0	0	0	0
2024-05-28	11:28:48	11:45:16	987143	6.6.1	4_exp_EVA_AWA_CON	55	A	B	Rpleas_acq	Same	Rpleas	2pleas	conawa_CS1_US1_confidence	conawa1_nomask	8	11	0	0	300	300	0	0	7533	guess	1	43,0989583333333428072pct	sonnig	genießen	gütig	vergnügt	vertrauen	engagiert	sterben	gemein	gierig	verbissen	versagen	engstirnig	träumen	kuss	kreativ	anregung	gesittet	besonnen	töten	krise	krank	ausrottung	geizig	bange	0	0	0	0	0	0	0	0	0	0	0	0	0	0	0	0	0	0	0	0	0	0	0	0	0	0	0	0	0	0
2024-05-28	11:28:48	11:45:33	1004343	6.6.1	4_exp_EVA_AWA_CON	55	A	B	Rpleas_acq	Same	Rpleas	2pleas	conawa_CS1_US2	conawa1_nomask	8	12	0	0	300	300	0	0	16589	gemein	1	43,0989583333333428072pct	sonnig	genießen	gütig	vergnügt	vertrauen	engagiert	sterben	gemein	gierig	verbissen	versagen	engstirnig	träumen	kuss	kreativ	anregung	gesittet	besonnen	töten	krise	krank	ausrottung	geizig	bange	0	0	0	0	0	0	0	0	0	0	0	0	0	0	0	0	0	0	0	0	0	0	0	0	0	0	0	0	0	0
2024-05-28	11:28:48	11:45:33	1004345	6.6.1	4_exp_EVA_AWA_CON	55	A	B	Rpleas_acq	Same	Rpleas	2pleas	conawa_CS1_US2_confidence	conawa1_nomask	8	12	0	0	300	300	0	0	16589	probably	1	43,0989583333333428072pct	sonnig	genießen	gütig	vergnügt	vertrauen	engagiert	sterben	gemein	gierig	verbissen	versagen	engstirnig	träumen	kuss	kreativ	anregung	gesittet	besonnen	töten	krise	krank	ausrottung	geizig	bange	0	0	0	0	0	0	0	0	0	0	0	0	0	0	0	0	0	0	0	0	0	0	0	0	0	0	0	0	0	0
2024-05-28	11:28:48	11:46:56	1087219	6.6.1	4_exp_EVA_AWA_CON	55	A	B	Rpleas_acq	Same	Rpleas	2pleas	cond_US_pleas_123_nomask_CS1	condtest_nomask_1	11	1	400	0	300	300	0	0	2663	50	1	43,0989583333333428072pct	sonnig	genießen	gütig	vergnügt	vertrauen	engagiert	sterben	gemein	gierig	verbissen	versagen	engstirnig	träumen	kuss	kreativ	anregung	gesittet	besonnen	töten	krise	krank	ausrottung	geizig	bange	1	blank2r.bmp	0	1	+	0	1	blank2r.bmp	500	1	CPLW	500	1	blank2r.bmp	880	3	gütig	880	1	!	1232	1	!	-1	0	0	0	0	0	0
