date	time	currenttime	elapsedtime	build	currentexpt	subject	CS_AB	US_AB	LRpleas_acq	SameOppo	condition_Lpleas	condition_1pleas	trialcode	blockcode	blocknum	trialnum	windowcenter	inwindow	pretrialpause	posttrialpause	trialduration	trialtimeout	latency	response	correct	correctedscore	US_nomask_pleas1	US_nomask_pleas2	US_nomask_pleas3	US_nomask_pleas4	US_nomask_pleas5	US_nomask_pleas6	US_nomask_unple1	US_nomask_unple2	US_nomask_unple3	US_nomask_unple4	US_nomask_unple5	US_nomask_unple6	new_nomask_pleas1	new_nomask_pleas2	new_nomask_pleas3	new_nomask_pleas4	new_nomask_pleas5	new_nomask_pleas6	new_nomask_unple1	new_nomask_unple2	new_nomask_unple3	new_nomask_unple4	new_nomask_unple5	new_nomask_unple6	stimulusnumber1	stimulusitem1	stimulusonset1	stimulusnumber2	stimulusitem2	stimulusonset2	stimulusnumber3	stimulusitem3	stimulusonset3	stimulusnumber4	stimulusitem4	stimulusonset4	stimulusnumber5	stimulusitem5	stimulusonset5	stimulusnumber6	stimulusitem6	stimulusonset6	stimulusnumber7	stimulusitem7	stimulusonset7	stimulusnumber8	stimulusitem8	stimulusonset8	stimulusnumber9	stimulusitem9	stimulusonset9	stimulusnumber10	stimulusitem10	stimulusonset10
2024-05-02	10:30:36	10:35:59	323329	6.6.1	4_exp_EVA_AWA_CON	8	A	B	Rpleas_acq	Oppo	Rpleas	2pleas	acq_US_pleas_nomask	acq1_nomask	1	1	0	0	300	300	0	0	1446	46	0	0	engagiert	anregung	träumen	kreativ	gesittet	sonnig	engstirnig	ausrottung	töten	krank	geizig	sterben	gütig	kuss	besonnen	vergnügt	genießen	vertrauen	gierig	krise	bange	verbissen	gemein	versagen	1	blank2r.bmp	0	1	+	0	1	blank2r.bmp	500	1	DHJF	500	1	blank2r.bmp	880	1	engagiert	880	1	FEHLER	2348	0	0	0	0	0	0	0	0	0
2024-05-02	10:30:36	10:36:02	326136	6.6.1	4_exp_EVA_AWA_CON	8	A	B	Rpleas_acq	Oppo	Rpleas	2pleas	acq_US_unple_nomask	acq1_nomask	1	2	0	0	300	300	0	0	1322	50	0	0	engagiert	anregung	träumen	kreativ	gesittet	sonnig	engstirnig	ausrottung	töten	krank	geizig	sterben	gütig	kuss	besonnen	vergnügt	genießen	vertrauen	gierig	krise	bange	verbissen	gemein	versagen	1	blank2r.bmp	0	1	+	0	1	blank2r.bmp	500	1	CPLW	500	1	blank2r.bmp	880	5	geizig	880	1	FEHLER	2223	0	0	0	0	0	0	0	0	0
2024-05-02	10:30:36	10:36:06	329431	6.6.1	4_exp_EVA_AWA_CON	8	A	B	Rpleas_acq	Oppo	Rpleas	2pleas	acq_US_unple_nomask	acq1_nomask	1	3	0	0	300	300	0	0	2006	46	1	0	engagiert	anregung	träumen	kreativ	gesittet	sonnig	engstirnig	ausrottung	töten	krank	geizig	sterben	gütig	kuss	besonnen	vergnügt	genießen	vertrauen	gierig	krise	bange	verbissen	gemein	versagen	1	blank2r.bmp	0	1	+	0	1	blank2r.bmp	500	1	CPLW	500	1	blank2r.bmp	880	1	engstirnig	880	0	0	0	0	0	0	0	0	0	0	0	0
2024-05-02	10:30:36	10:36:08	331679	6.6.1	4_exp_EVA_AWA_CON	8	A	B	Rpleas_acq	Oppo	Rpleas	2pleas	acq_US_unple_nomask	acq1_nomask	1	4	0	0	300	300	0	0	762	46	1	0	engagiert	anregung	träumen	kreativ	gesittet	sonnig	engstirnig	ausrottung	töten	krank	geizig	sterben	gütig	kuss	besonnen	vergnügt	genießen	vertrauen	gierig	krise	bange	verbissen	gemein	versagen	1	blank2r.bmp	0	1	+	0	1	blank2r.bmp	500	1	CPLW	500	1	blank2r.bmp	880	2	ausrottung	880	0	0	0	0	0	0	0	0	0	0	0	0
2024-05-02	10:30:36	10:36:10	333831	6.6.1	4_exp_EVA_AWA_CON	8	A	B	Rpleas_acq	Oppo	Rpleas	2pleas	acq_new_unple_nomask	acq1_nomask	1	5	0	0	300	300	0	0	662	46	1	0	engagiert	anregung	träumen	kreativ	gesittet	sonnig	engstirnig	ausrottung	töten	krank	geizig	sterben	gütig	kuss	besonnen	vergnügt	genießen	vertrauen	gierig	krise	bange	verbissen	gemein	versagen	1	blank2r.bmp	0	1	+	0	1	blank2r.bmp	500	7	C3r.bmp	500	1	blank2r.bmp	880	6	versagen	880	0	0	0	0	0	0	0	0	0	0	0	0
2024-05-02	10:30:36	10:36:12	335911	6.6.1	4_exp_EVA_AWA_CON	8	A	B	Rpleas_acq	Oppo	Rpleas	2pleas	acq_new_unple_nomask	acq1_nomask	1	6	0	0	300	300	0	0	591	46	1	0	engagiert	anregung	träumen	kreativ	gesittet	sonnig	engstirnig	ausrottung	töten	krank	geizig	sterben	gütig	kuss	besonnen	vergnügt	genießen	vertrauen	gierig	krise	bange	verbissen	gemein	versagen	1	blank2r.bmp	0	1	+	0	1	blank2r.bmp	500	4	B4r.bmp	500	1	blank2r.bmp	880	4	verbissen	880	0	0	0	0	0	0	0	0	0	0	0	0
2024-05-02	10:30:36	10:36:14	337832	6.6.1	4_exp_EVA_AWA_CON	8	A	B	Rpleas_acq	Oppo	Rpleas	2pleas	acq_new_pleas_nomask	acq1_nomask	1	7	0	0	300	300	0	0	440	50	1	0	engagiert	anregung	träumen	kreativ	gesittet	sonnig	engstirnig	ausrottung	töten	krank	geizig	sterben	gütig	kuss	besonnen	vergnügt	genießen	vertrauen	gierig	krise	bange	verbissen	gemein	versagen	1	blank2r.bmp	0	1	+	0	1	blank2r.bmp	500	8	C4r.bmp	500	1	blank2r.bmp	880	1	gütig	880	0	0	0	0	0	0	0	0	0	0	0	0
2024-05-02	10:30:36	10:36:16	340272	6.6.1	4_exp_EVA_AWA_CON	8	A	B	Rpleas_acq	Oppo	Rpleas	2pleas	acq_US_pleas_nomask	acq1_nomask	1	8	0	0	300	300	0	0	758	46	0	0	engagiert	anregung	träumen	kreativ	gesittet	sonnig	engstirnig	ausrottung	töten	krank	geizig	sterben	gütig	kuss	besonnen	vergnügt	genießen	vertrauen	gierig	krise	bange	verbissen	gemein	versagen	1	blank2r.bmp	0	1	+	0	1	blank2r.bmp	500	1	DHJF	500	1	blank2r.bmp	880	6	sonnig	880	1	FEHLER	1660	0	0	0	0	0	0	0	0	0
2024-05-02	10:30:36	10:36:19	342415	6.6.1	4_exp_EVA_AWA_CON	8	A	B	Rpleas_acq	Oppo	Rpleas	2pleas	acq_new_pleas_nomask	acq1_nomask	1	9	0	0	300	300	0	0	861	50	1	0	engagiert	anregung	träumen	kreativ	gesittet	sonnig	engstirnig	ausrottung	töten	krank	geizig	sterben	gütig	kuss	besonnen	vergnügt	genießen	vertrauen	gierig	krise	bange	verbissen	gemein	versagen	1	blank2r.bmp	0	1	+	0	1	blank2r.bmp	500	6	C2r.bmp	500	1	blank2r.bmp	880	3	besonnen	880	0	0	0	0	0	0	0	0	0	0	0	0
2024-05-02	10:30:36	10:36:21	344560	6.6.1	4_exp_EVA_AWA_CON	8	A	B	Rpleas_acq	Oppo	Rpleas	2pleas	acq_US_pleas_nomask	acq1_nomask	1	10	0	0	300	300	0	0	463	46	0	0	engagiert	anregung	träumen	kreativ	gesittet	sonnig	engstirnig	ausrottung	töten	krank	geizig	sterben	gütig	kuss	besonnen	vergnügt	genießen	vertrauen	gierig	krise	bange	verbissen	gemein	versagen	1	blank2r.bmp	0	1	+	0	1	blank2r.bmp	500	1	DHJF	500	1	blank2r.bmp	880	5	gesittet	880	1	FEHLER	1365	0	0	0	0	0	0	0	0	0
2024-05-02	10:30:36	10:36:23	346519	6.6.1	4_exp_EVA_AWA_CON	8	A	B	Rpleas_acq	Oppo	Rpleas	2pleas	acq_new_pleas_nomask	acq1_nomask	1	11	0	0	300	300	0	0	672	50	1	0	engagiert	anregung	träumen	kreativ	gesittet	sonnig	engstirnig	ausrottung	töten	krank	geizig	sterben	gütig	kuss	besonnen	vergnügt	genießen	vertrauen	gierig	krise	bange	verbissen	gemein	versagen	1	blank2r.bmp	0	1	+	0	1	blank2r.bmp	500	3	B3r.bmp	500	1	blank2r.bmp	880	6	vertrauen	880	0	0	0	0	0	0	0	0	0	0	0	0
2024-05-02	10:30:36	10:36:25	348879	6.6.1	4_exp_EVA_AWA_CON	8	A	B	Rpleas_acq	Oppo	Rpleas	2pleas	acq_new_unple_nomask	acq1_nomask	1	12	0	0	300	300	0	0	871	46	1	0	engagiert	anregung	träumen	kreativ	gesittet	sonnig	engstirnig	ausrottung	töten	krank	geizig	sterben	gütig	kuss	besonnen	vergnügt	genießen	vertrauen	gierig	krise	bange	verbissen	gemein	versagen	1	blank2r.bmp	0	1	+	0	1	blank2r.bmp	500	5	C1r.bmp	500	1	blank2r.bmp	880	1	gierig	880	0	0	0	0	0	0	0	0	0	0	0	0
2024-05-02	10:30:36	10:36:27	350911	6.6.1	4_exp_EVA_AWA_CON	8	A	B	Rpleas_acq	Oppo	Rpleas	2pleas	acq_new_pleas_nomask	acq1_nomask	1	13	0	0	300	300	0	0	541	50	1	0	engagiert	anregung	träumen	kreativ	gesittet	sonnig	engstirnig	ausrottung	töten	krank	geizig	sterben	gütig	kuss	besonnen	vergnügt	genießen	vertrauen	gierig	krise	bange	verbissen	gemein	versagen	1	blank2r.bmp	0	1	+	0	1	blank2r.bmp	500	1	B1r.bmp	500	1	blank2r.bmp	880	4	vergnügt	880	0	0	0	0	0	0	0	0	0	0	0	0
2024-05-02	10:30:36	10:36:29	353023	6.6.1	4_exp_EVA_AWA_CON	8	A	B	Rpleas_acq	Oppo	Rpleas	2pleas	acq_new_unple_nomask	acq1_nomask	1	14	0	0	300	300	0	0	622	46	1	0	engagiert	anregung	träumen	kreativ	gesittet	sonnig	engstirnig	ausrottung	töten	krank	geizig	sterben	gütig	kuss	besonnen	vergnügt	genießen	vertrauen	gierig	krise	bange	verbissen	gemein	versagen	1	blank2r.bmp	0	1	+	0	1	blank2r.bmp	500	2	B2r.bmp	500	1	blank2r.bmp	880	3	bange	880	0	0	0	0	0	0	0	0	0	0	0	0
2024-05-02	10:30:36	10:36:31	355151	6.6.1	4_exp_EVA_AWA_CON	8	A	B	Rpleas_acq	Oppo	Rpleas	2pleas	acq_new_unple_nomask	acq1_nomask	1	15	0	0	300	300	0	0	639	46	1	0	engagiert	anregung	träumen	kreativ	gesittet	sonnig	engstirnig	ausrottung	töten	krank	geizig	sterben	gütig	kuss	besonnen	vergnügt	genießen	vertrauen	gierig	krise	bange	verbissen	gemein	versagen	1	blank2r.bmp	0	1	+	0	1	blank2r.bmp	500	2	B2r.bmp	500	1	blank2r.bmp	880	5	gemein	880	0	0	0	0	0	0	0	0	0	0	0	0
2024-05-02	10:30:36	10:36:33	357071	6.6.1	4_exp_EVA_AWA_CON	8	A	B	Rpleas_acq	Oppo	Rpleas	2pleas	acq_new_pleas_nomask	acq1_nomask	1	16	0	0	300	300	0	0	437	50	1	0	engagiert	anregung	träumen	kreativ	gesittet	sonnig	engstirnig	ausrottung	töten	krank	geizig	sterben	gütig	kuss	besonnen	vergnügt	genießen	vertrauen	gierig	krise	bange	verbissen	gemein	versagen	1	blank2r.bmp	0	1	+	0	1	blank2r.bmp	500	8	C4r.bmp	500	1	blank2r.bmp	880	2	kuss	880	0	0	0	0	0	0	0	0	0	0	0	0
2024-05-02	10:30:36	10:36:35	359056	6.6.1	4_exp_EVA_AWA_CON	8	A	B	Rpleas_acq	Oppo	Rpleas	2pleas	acq_US_unple_nomask	acq1_nomask	1	17	0	0	300	300	0	0	500	46	1	0	engagiert	anregung	träumen	kreativ	gesittet	sonnig	engstirnig	ausrottung	töten	krank	geizig	sterben	gütig	kuss	besonnen	vergnügt	genießen	vertrauen	gierig	krise	bange	verbissen	gemein	versagen	1	blank2r.bmp	0	1	+	0	1	blank2r.bmp	500	1	CPLW	500	1	blank2r.bmp	880	3	töten	880	0	0	0	0	0	0	0	0	0	0	0	0
2024-05-02	10:30:36	10:36:37	361255	6.6.1	4_exp_EVA_AWA_CON	8	A	B	Rpleas_acq	Oppo	Rpleas	2pleas	acq_US_unple_nomask	acq1_nomask	1	18	0	0	300	300	0	0	719	46	1	0	engagiert	anregung	träumen	kreativ	gesittet	sonnig	engstirnig	ausrottung	töten	krank	geizig	sterben	gütig	kuss	besonnen	vergnügt	genießen	vertrauen	gierig	krise	bange	verbissen	gemein	versagen	1	blank2r.bmp	0	1	+	0	1	blank2r.bmp	500	1	CPLW	500	1	blank2r.bmp	880	4	krank	880	0	0	0	0	0	0	0	0	0	0	0	0
2024-05-02	10:30:36	10:36:39	363223	6.6.1	4_exp_EVA_AWA_CON	8	A	B	Rpleas_acq	Oppo	Rpleas	2pleas	acq_US_pleas_nomask	acq1_nomask	1	19	0	0	300	300	0	0	485	50	1	0	engagiert	anregung	träumen	kreativ	gesittet	sonnig	engstirnig	ausrottung	töten	krank	geizig	sterben	gütig	kuss	besonnen	vergnügt	genießen	vertrauen	gierig	krise	bange	verbissen	gemein	versagen	1	blank2r.bmp	0	1	+	0	1	blank2r.bmp	500	1	DHJF	500	1	blank2r.bmp	880	3	träumen	880	0	0	0	0	0	0	0	0	0	0	0	0
2024-05-02	10:30:36	10:36:41	365223	6.6.1	4_exp_EVA_AWA_CON	8	A	B	Rpleas_acq	Oppo	Rpleas	2pleas	acq_US_pleas_nomask	acq1_nomask	1	20	0	0	300	300	0	0	514	50	1	0	engagiert	anregung	träumen	kreativ	gesittet	sonnig	engstirnig	ausrottung	töten	krank	geizig	sterben	gütig	kuss	besonnen	vergnügt	genießen	vertrauen	gierig	krise	bange	verbissen	gemein	versagen	1	blank2r.bmp	0	1	+	0	1	blank2r.bmp	500	1	DHJF	500	1	blank2r.bmp	880	4	kreativ	880	0	0	0	0	0	0	0	0	0	0	0	0
2024-05-02	10:30:36	10:36:44	367415	6.6.1	4_exp_EVA_AWA_CON	8	A	B	Rpleas_acq	Oppo	Rpleas	2pleas	acq_new_pleas_nomask	acq1_nomask	1	21	0	0	300	300	0	0	705	50	1	0	engagiert	anregung	träumen	kreativ	gesittet	sonnig	engstirnig	ausrottung	töten	krank	geizig	sterben	gütig	kuss	besonnen	vergnügt	genießen	vertrauen	gierig	krise	bange	verbissen	gemein	versagen	1	blank2r.bmp	0	1	+	0	1	blank2r.bmp	500	4	B4r.bmp	500	1	blank2r.bmp	880	5	genießen	880	0	0	0	0	0	0	0	0	0	0	0	0
2024-05-02	10:30:36	10:36:45	369327	6.6.1	4_exp_EVA_AWA_CON	8	A	B	Rpleas_acq	Oppo	Rpleas	2pleas	acq_US_unple_nomask	acq1_nomask	1	22	0	0	300	300	0	0	425	46	1	0	engagiert	anregung	träumen	kreativ	gesittet	sonnig	engstirnig	ausrottung	töten	krank	geizig	sterben	gütig	kuss	besonnen	vergnügt	genießen	vertrauen	gierig	krise	bange	verbissen	gemein	versagen	1	blank2r.bmp	0	1	+	0	1	blank2r.bmp	500	1	CPLW	500	1	blank2r.bmp	880	6	sterben	880	0	0	0	0	0	0	0	0	0	0	0	0
2024-05-02	10:30:36	10:36:47	371351	6.6.1	4_exp_EVA_AWA_CON	8	A	B	Rpleas_acq	Oppo	Rpleas	2pleas	acq_US_pleas_nomask	acq1_nomask	1	23	0	0	300	300	0	0	538	50	1	0	engagiert	anregung	träumen	kreativ	gesittet	sonnig	engstirnig	ausrottung	töten	krank	geizig	sterben	gütig	kuss	besonnen	vergnügt	genießen	vertrauen	gierig	krise	bange	verbissen	gemein	versagen	1	blank2r.bmp	0	1	+	0	1	blank2r.bmp	500	1	DHJF	500	1	blank2r.bmp	880	2	anregung	880	0	0	0	0	0	0	0	0	0	0	0	0
2024-05-02	10:30:36	10:36:50	373471	6.6.1	4_exp_EVA_AWA_CON	8	A	B	Rpleas_acq	Oppo	Rpleas	2pleas	acq_new_unple_nomask	acq1_nomask	1	24	0	0	300	300	0	0	637	46	1	0	engagiert	anregung	träumen	kreativ	gesittet	sonnig	engstirnig	ausrottung	töten	krank	geizig	sterben	gütig	kuss	besonnen	vergnügt	genießen	vertrauen	gierig	krise	bange	verbissen	gemein	versagen	1	blank2r.bmp	0	1	+	0	1	blank2r.bmp	500	1	B1r.bmp	500	1	blank2r.bmp	880	2	krise	880	0	0	0	0	0	0	0	0	0	0	0	0
2024-05-02	10:30:36	10:36:52	375431	6.6.1	4_exp_EVA_AWA_CON	8	A	B	Rpleas_acq	Oppo	Rpleas	2pleas	acq_US_pleas_nomask	acq1_nomask	1	25	0	0	300	300	0	0	476	50	1	0	engagiert	anregung	träumen	kreativ	gesittet	sonnig	engstirnig	ausrottung	töten	krank	geizig	sterben	gütig	kuss	besonnen	vergnügt	genießen	vertrauen	gierig	krise	bange	verbissen	gemein	versagen	1	blank2r.bmp	0	1	+	0	1	blank2r.bmp	500	1	DHJF	500	1	blank2r.bmp	880	4	kreativ	880	0	0	0	0	0	0	0	0	0	0	0	0
2024-05-02	10:30:36	10:36:54	377431	6.6.1	4_exp_EVA_AWA_CON	8	A	B	Rpleas_acq	Oppo	Rpleas	2pleas	acq_US_pleas_nomask	acq1_nomask	1	26	0	0	300	300	0	0	514	50	1	0	engagiert	anregung	träumen	kreativ	gesittet	sonnig	engstirnig	ausrottung	töten	krank	geizig	sterben	gütig	kuss	besonnen	vergnügt	genießen	vertrauen	gierig	krise	bange	verbissen	gemein	versagen	1	blank2r.bmp	0	1	+	0	1	blank2r.bmp	500	1	DHJF	500	1	blank2r.bmp	880	2	anregung	880	0	0	0	0	0	0	0	0	0	0	0	0
2024-05-02	10:30:36	10:36:56	379455	6.6.1	4_exp_EVA_AWA_CON	8	A	B	Rpleas_acq	Oppo	Rpleas	2pleas	acq_new_unple_nomask	acq1_nomask	1	27	0	0	300	300	0	0	537	46	1	0	engagiert	anregung	träumen	kreativ	gesittet	sonnig	engstirnig	ausrottung	töten	krank	geizig	sterben	gütig	kuss	besonnen	vergnügt	genießen	vertrauen	gierig	krise	bange	verbissen	gemein	versagen	1	blank2r.bmp	0	1	+	0	1	blank2r.bmp	500	6	C2r.bmp	500	1	blank2r.bmp	880	5	gemein	880	0	0	0	0	0	0	0	0	0	0	0	0
2024-05-02	10:30:36	10:36:58	381447	6.6.1	4_exp_EVA_AWA_CON	8	A	B	Rpleas_acq	Oppo	Rpleas	2pleas	acq_new_pleas_nomask	acq1_nomask	1	28	0	0	300	300	0	0	508	50	1	0	engagiert	anregung	träumen	kreativ	gesittet	sonnig	engstirnig	ausrottung	töten	krank	geizig	sterben	gütig	kuss	besonnen	vergnügt	genießen	vertrauen	gierig	krise	bange	verbissen	gemein	versagen	1	blank2r.bmp	0	1	+	0	1	blank2r.bmp	500	7	C3r.bmp	500	1	blank2r.bmp	880	2	kuss	880	0	0	0	0	0	0	0	0	0	0	0	0
2024-05-02	10:30:36	10:37:00	383415	6.6.1	4_exp_EVA_AWA_CON	8	A	B	Rpleas_acq	Oppo	Rpleas	2pleas	acq_new_unple_nomask	acq1_nomask	1	29	0	0	300	300	0	0	484	46	1	0	engagiert	anregung	träumen	kreativ	gesittet	sonnig	engstirnig	ausrottung	töten	krank	geizig	sterben	gütig	kuss	besonnen	vergnügt	genießen	vertrauen	gierig	krise	bange	verbissen	gemein	versagen	1	blank2r.bmp	0	1	+	0	1	blank2r.bmp	500	3	B3r.bmp	500	1	blank2r.bmp	880	3	bange	880	0	0	0	0	0	0	0	0	0	0	0	0
2024-05-02	10:30:36	10:37:02	385511	6.6.1	4_exp_EVA_AWA_CON	8	A	B	Rpleas_acq	Oppo	Rpleas	2pleas	acq_US_unple_nomask	acq1_nomask	1	30	0	0	300	300	0	0	609	46	1	0	engagiert	anregung	träumen	kreativ	gesittet	sonnig	engstirnig	ausrottung	töten	krank	geizig	sterben	gütig	kuss	besonnen	vergnügt	genießen	vertrauen	gierig	krise	bange	verbissen	gemein	versagen	1	blank2r.bmp	0	1	+	0	1	blank2r.bmp	500	1	CPLW	500	1	blank2r.bmp	880	2	ausrottung	880	0	0	0	0	0	0	0	0	0	0	0	0
2024-05-02	10:30:36	10:37:04	387447	6.6.1	4_exp_EVA_AWA_CON	8	A	B	Rpleas_acq	Oppo	Rpleas	2pleas	acq_new_pleas_nomask	acq1_nomask	1	31	0	0	300	300	0	0	454	50	1	0	engagiert	anregung	träumen	kreativ	gesittet	sonnig	engstirnig	ausrottung	töten	krank	geizig	sterben	gütig	kuss	besonnen	vergnügt	genießen	vertrauen	gierig	krise	bange	verbissen	gemein	versagen	1	blank2r.bmp	0	1	+	0	1	blank2r.bmp	500	5	C1r.bmp	500	1	blank2r.bmp	880	6	vertrauen	880	0	0	0	0	0	0	0	0	0	0	0	0
2024-05-02	10:30:36	10:37:06	389527	6.6.1	4_exp_EVA_AWA_CON	8	A	B	Rpleas_acq	Oppo	Rpleas	2pleas	acq_US_unple_nomask	acq1_nomask	1	32	0	0	300	300	0	0	593	46	1	0	engagiert	anregung	träumen	kreativ	gesittet	sonnig	engstirnig	ausrottung	töten	krank	geizig	sterben	gütig	kuss	besonnen	vergnügt	genießen	vertrauen	gierig	krise	bange	verbissen	gemein	versagen	1	blank2r.bmp	0	1	+	0	1	blank2r.bmp	500	1	CPLW	500	1	blank2r.bmp	880	6	sterben	880	0	0	0	0	0	0	0	0	0	0	0	0
2024-05-02	10:30:36	10:37:08	391423	6.6.1	4_exp_EVA_AWA_CON	8	A	B	Rpleas_acq	Oppo	Rpleas	2pleas	acq_new_pleas_nomask	acq1_nomask	1	33	0	0	300	300	0	0	407	50	1	0	engagiert	anregung	träumen	kreativ	gesittet	sonnig	engstirnig	ausrottung	töten	krank	geizig	sterben	gütig	kuss	besonnen	vergnügt	genießen	vertrauen	gierig	krise	bange	verbissen	gemein	versagen	1	blank2r.bmp	0	1	+	0	1	blank2r.bmp	500	1	B1r.bmp	500	1	blank2r.bmp	880	1	gütig	880	0	0	0	0	0	0	0	0	0	0	0	0
2024-05-02	10:30:36	10:37:09	393311	6.6.1	4_exp_EVA_AWA_CON	8	A	B	Rpleas_acq	Oppo	Rpleas	2pleas	acq_US_unple_nomask	acq1_nomask	1	34	0	0	300	300	0	0	404	46	1	0	engagiert	anregung	träumen	kreativ	gesittet	sonnig	engstirnig	ausrottung	töten	krank	geizig	sterben	gütig	kuss	besonnen	vergnügt	genießen	vertrauen	gierig	krise	bange	verbissen	gemein	versagen	1	blank2r.bmp	0	1	+	0	1	blank2r.bmp	500	1	CPLW	500	1	blank2r.bmp	880	3	töten	880	0	0	0	0	0	0	0	0	0	0	0	0
2024-05-02	10:30:36	10:37:11	395383	6.6.1	4_exp_EVA_AWA_CON	8	A	B	Rpleas_acq	Oppo	Rpleas	2pleas	acq_new_unple_nomask	acq1_nomask	1	35	0	0	300	300	0	0	585	46	1	0	engagiert	anregung	träumen	kreativ	gesittet	sonnig	engstirnig	ausrottung	töten	krank	geizig	sterben	gütig	kuss	besonnen	vergnügt	genießen	vertrauen	gierig	krise	bange	verbissen	gemein	versagen	1	blank2r.bmp	0	1	+	0	1	blank2r.bmp	500	6	C2r.bmp	500	1	blank2r.bmp	880	4	verbissen	880	0	0	0	0	0	0	0	0	0	0	0	0
2024-05-02	10:30:36	10:37:14	397487	6.6.1	4_exp_EVA_AWA_CON	8	A	B	Rpleas_acq	Oppo	Rpleas	2pleas	acq_US_pleas_nomask	acq1_nomask	1	36	0	0	300	300	0	0	617	50	1	0	engagiert	anregung	träumen	kreativ	gesittet	sonnig	engstirnig	ausrottung	töten	krank	geizig	sterben	gütig	kuss	besonnen	vergnügt	genießen	vertrauen	gierig	krise	bange	verbissen	gemein	versagen	1	blank2r.bmp	0	1	+	0	1	blank2r.bmp	500	1	DHJF	500	1	blank2r.bmp	880	5	gesittet	880	0	0	0	0	0	0	0	0	0	0	0	0
2024-05-02	10:30:36	10:37:57	440603	6.6.1	4_exp_EVA_AWA_CON	8	A	B	Rpleas_acq	Oppo	Rpleas	2pleas	acq_new_unple_nomask	acq2_nomask	2	1	480	1	300	300	0	0	514	46	1	0	engagiert	anregung	träumen	kreativ	gesittet	sonnig	engstirnig	ausrottung	töten	krank	geizig	sterben	gütig	kuss	besonnen	vergnügt	genießen	vertrauen	gierig	krise	bange	verbissen	gemein	versagen	1	blank2r.bmp	0	1	+	0	1	blank2r.bmp	500	8	C4r.bmp	500	1	blank2r.bmp	880	2	krise	880	1	!	1313	1	!	1415	0	0	0	0	0	0
2024-05-02	10:30:36	10:37:59	442931	6.6.1	4_exp_EVA_AWA_CON	8	A	B	Rpleas_acq	Oppo	Rpleas	2pleas	acq_new_pleas_nomask	acq2_nomask	2	2	480	1	300	300	0	0	550	50	1	0	engagiert	anregung	träumen	kreativ	gesittet	sonnig	engstirnig	ausrottung	töten	krank	geizig	sterben	gütig	kuss	besonnen	vergnügt	genießen	vertrauen	gierig	krise	bange	verbissen	gemein	versagen	1	blank2r.bmp	0	1	+	0	1	blank2r.bmp	500	4	B4r.bmp	500	1	blank2r.bmp	880	5	genießen	880	1	!	1312	1	!	1452	0	0	0	0	0	0
2024-05-02	10:30:36	10:38:01	445329	6.6.1	4_exp_EVA_AWA_CON	8	A	B	Rpleas_acq	Oppo	Rpleas	2pleas	acq_US_unple_nomask	acq2_nomask	2	3	480	0	300	300	0	0	619	46	1	0	engagiert	anregung	träumen	kreativ	gesittet	sonnig	engstirnig	ausrottung	töten	krank	geizig	sterben	gütig	kuss	besonnen	vergnügt	genießen	vertrauen	gierig	krise	bange	verbissen	gemein	versagen	1	blank2r.bmp	0	1	+	0	1	blank2r.bmp	500	1	CPLW	500	1	blank2r.bmp	880	1	engstirnig	880	1	!	1312	1	!	-1	0	0	0	0	0	0
2024-05-02	10:30:36	10:38:04	447873	6.6.1	4_exp_EVA_AWA_CON	8	A	B	Rpleas_acq	Oppo	Rpleas	2pleas	acq_US_pleas_nomask	acq2_nomask	2	4	480	0	300	300	0	0	771	50	1	0	engagiert	anregung	träumen	kreativ	gesittet	sonnig	engstirnig	ausrottung	töten	krank	geizig	sterben	gütig	kuss	besonnen	vergnügt	genießen	vertrauen	gierig	krise	bange	verbissen	gemein	versagen	1	blank2r.bmp	0	1	+	0	1	blank2r.bmp	500	1	DHJF	500	1	blank2r.bmp	880	1	engagiert	880	1	!	1313	1	!	-1	0	0	0	0	0	0
2024-05-02	10:30:36	10:38:07	450834	6.6.1	4_exp_EVA_AWA_CON	8	A	B	Rpleas_acq	Oppo	Rpleas	2pleas	acq_US_unple_nomask	acq2_nomask	2	5	480	0	300	300	0	0	1180	46	1	0	engagiert	anregung	träumen	kreativ	gesittet	sonnig	engstirnig	ausrottung	töten	krank	geizig	sterben	gütig	kuss	besonnen	vergnügt	genießen	vertrauen	gierig	krise	bange	verbissen	gemein	versagen	1	blank2r.bmp	0	1	+	0	1	blank2r.bmp	500	1	CPLW	500	1	blank2r.bmp	880	4	krank	880	1	!	1313	1	!	-1	0	0	0	0	0	0
2024-05-02	10:30:36	10:38:10	453417	6.6.1	4_exp_EVA_AWA_CON	8	A	B	Rpleas_acq	Oppo	Rpleas	2pleas	acq_new_unple_nomask	acq2_nomask	2	6	480	0	300	300	0	0	802	46	1	0	engagiert	anregung	träumen	kreativ	gesittet	sonnig	engstirnig	ausrottung	töten	krank	geizig	sterben	gütig	kuss	besonnen	vergnügt	genießen	vertrauen	gierig	krise	bange	verbissen	gemein	versagen	1	blank2r.bmp	0	1	+	0	1	blank2r.bmp	500	5	C1r.bmp	500	1	blank2r.bmp	880	1	gierig	880	1	!	1313	1	!	-1	0	0	0	0	0	0
2024-05-02	10:30:36	10:38:12	456121	6.6.1	4_exp_EVA_AWA_CON	8	A	B	Rpleas_acq	Oppo	Rpleas	2pleas	acq_US_pleas_nomask	acq2_nomask	2	7	480	0	300	300	0	0	924	50	1	0	engagiert	anregung	träumen	kreativ	gesittet	sonnig	engstirnig	ausrottung	töten	krank	geizig	sterben	gütig	kuss	besonnen	vergnügt	genießen	vertrauen	gierig	krise	bange	verbissen	gemein	versagen	1	blank2r.bmp	0	1	+	0	1	blank2r.bmp	500	1	DHJF	500	1	blank2r.bmp	880	3	träumen	880	1	!	1312	1	!	-1	0	0	0	0	0	0
2024-05-02	10:30:36	10:38:15	458530	6.6.1	4_exp_EVA_AWA_CON	8	A	B	Rpleas_acq	Oppo	Rpleas	2pleas	acq_US_unple_nomask	acq2_nomask	2	8	480	0	300	300	0	0	630	46	1	0	engagiert	anregung	träumen	kreativ	gesittet	sonnig	engstirnig	ausrottung	töten	krank	geizig	sterben	gütig	kuss	besonnen	vergnügt	genießen	vertrauen	gierig	krise	bange	verbissen	gemein	versagen	1	blank2r.bmp	0	1	+	0	1	blank2r.bmp	500	1	CPLW	500	1	blank2r.bmp	880	5	geizig	880	1	!	1312	1	!	-1	0	0	0	0	0	0
2024-05-02	10:30:36	10:38:17	460884	6.6.1	4_exp_EVA_AWA_CON	8	A	B	Rpleas_acq	Oppo	Rpleas	2pleas	acq_new_unple_nomask	acq2_nomask	2	9	480	0	300	300	0	0	371	50	0	0	engagiert	anregung	träumen	kreativ	gesittet	sonnig	engstirnig	ausrottung	töten	krank	geizig	sterben	gütig	kuss	besonnen	vergnügt	genießen	vertrauen	gierig	krise	bange	verbissen	gemein	versagen	1	blank2r.bmp	0	1	+	0	1	blank2r.bmp	500	2	B2r.bmp	500	1	blank2r.bmp	880	6	versagen	880	1	FEHLER	1564	1	!	-1	1	!	-1	0	0	0
2024-05-02	10:30:36	10:38:19	463202	6.6.1	4_exp_EVA_AWA_CON	8	A	B	Rpleas_acq	Oppo	Rpleas	2pleas	acq_new_pleas_nomask	acq2_nomask	2	10	480	0	300	300	0	0	740	50	1	0	engagiert	anregung	träumen	kreativ	gesittet	sonnig	engstirnig	ausrottung	töten	krank	geizig	sterben	gütig	kuss	besonnen	vergnügt	genießen	vertrauen	gierig	krise	bange	verbissen	gemein	versagen	1	blank2r.bmp	0	1	+	0	1	blank2r.bmp	500	3	B3r.bmp	500	1	blank2r.bmp	880	4	vergnügt	880	1	!	1312	1	!	-1	0	0	0	0	0	0
2024-05-02	10:30:36	10:38:22	465561	6.6.1	4_exp_EVA_AWA_CON	8	A	B	Rpleas_acq	Oppo	Rpleas	2pleas	acq_new_pleas_nomask	acq2_nomask	2	11	480	0	300	300	0	0	578	50	1	0	engagiert	anregung	träumen	kreativ	gesittet	sonnig	engstirnig	ausrottung	töten	krank	geizig	sterben	gütig	kuss	besonnen	vergnügt	genießen	vertrauen	gierig	krise	bange	verbissen	gemein	versagen	1	blank2r.bmp	0	1	+	0	1	blank2r.bmp	500	7	C3r.bmp	500	1	blank2r.bmp	880	3	besonnen	880	1	!	1313	1	!	-1	0	0	0	0	0	0
2024-05-02	10:30:36	10:38:24	468017	6.6.1	4_exp_EVA_AWA_CON	8	A	B	Rpleas_acq	Oppo	Rpleas	2pleas	acq_US_pleas_nomask	acq2_nomask	2	12	480	0	300	300	0	0	682	50	1	0	engagiert	anregung	träumen	kreativ	gesittet	sonnig	engstirnig	ausrottung	töten	krank	geizig	sterben	gütig	kuss	besonnen	vergnügt	genießen	vertrauen	gierig	krise	bange	verbissen	gemein	versagen	1	blank2r.bmp	0	1	+	0	1	blank2r.bmp	500	1	DHJF	500	1	blank2r.bmp	880	6	sonnig	880	1	!	1313	1	!	-1	0	0	0	0	0	0
2024-05-02	10:30:36	10:38:26	470235	6.6.1	4_exp_EVA_AWA_CON	8	A	B	Rpleas_acq	Oppo	Rpleas	2pleas	acq_new_unple_nomask	acq2_nomask	2	13	480	1	300	300	0	0	437	46	1	0	engagiert	anregung	träumen	kreativ	gesittet	sonnig	engstirnig	ausrottung	töten	krank	geizig	sterben	gütig	kuss	besonnen	vergnügt	genießen	vertrauen	gierig	krise	bange	verbissen	gemein	versagen	1	blank2r.bmp	0	1	+	0	1	blank2r.bmp	500	6	C2r.bmp	500	1	blank2r.bmp	880	6	versagen	880	1	!	1312	1	!	1338	0	0	0	0	0	0
2024-05-02	10:30:36	10:38:29	473177	6.6.1	4_exp_EVA_AWA_CON	8	A	B	Rpleas_acq	Oppo	Rpleas	2pleas	acq_new_pleas_nomask	acq2_nomask	2	14	480	0	300	300	0	0	1169	50	1	0	engagiert	anregung	träumen	kreativ	gesittet	sonnig	engstirnig	ausrottung	töten	krank	geizig	sterben	gütig	kuss	besonnen	vergnügt	genießen	vertrauen	gierig	krise	bange	verbissen	gemein	versagen	1	blank2r.bmp	0	1	+	0	1	blank2r.bmp	500	7	C3r.bmp	500	1	blank2r.bmp	880	2	kuss	880	1	!	1313	1	!	-1	0	0	0	0	0	0
2024-05-02	10:30:36	10:38:33	477369	6.6.1	4_exp_EVA_AWA_CON	8	A	B	Rpleas_acq	Oppo	Rpleas	2pleas	acq_new_pleas_nomask	acq2_nomask	2	15	480	0	300	300	0	0	2410	50	1	0	engagiert	anregung	träumen	kreativ	gesittet	sonnig	engstirnig	ausrottung	töten	krank	geizig	sterben	gütig	kuss	besonnen	vergnügt	genießen	vertrauen	gierig	krise	bange	verbissen	gemein	versagen	1	blank2r.bmp	0	1	+	0	1	blank2r.bmp	500	4	B4r.bmp	500	1	blank2r.bmp	880	5	genießen	880	1	!	1313	1	!	-1	0	0	0	0	0	0
2024-05-02	10:30:36	10:38:36	479683	6.6.1	4_exp_EVA_AWA_CON	8	A	B	Rpleas_acq	Oppo	Rpleas	2pleas	acq_US_pleas_nomask	acq2_nomask	2	16	480	1	300	300	0	0	539	50	1	0	engagiert	anregung	träumen	kreativ	gesittet	sonnig	engstirnig	ausrottung	töten	krank	geizig	sterben	gütig	kuss	besonnen	vergnügt	genießen	vertrauen	gierig	krise	bange	verbissen	gemein	versagen	1	blank2r.bmp	0	1	+	0	1	blank2r.bmp	500	1	DHJF	500	1	blank2r.bmp	880	4	kreativ	880	1	!	1313	1	!	1440	0	0	0	0	0	0
2024-05-02	10:30:36	10:38:40	483405	6.6.1	4_exp_EVA_AWA_CON	8	A	B	Rpleas_acq	Oppo	Rpleas	2pleas	acq_US_pleas_nomask	acq2_nomask	2	17	480	0	300	300	0	0	1737	46	0	0	engagiert	anregung	träumen	kreativ	gesittet	sonnig	engstirnig	ausrottung	töten	krank	geizig	sterben	gütig	kuss	besonnen	vergnügt	genießen	vertrauen	gierig	krise	bange	verbissen	gemein	versagen	1	blank2r.bmp	0	1	+	0	1	blank2r.bmp	500	1	DHJF	500	1	blank2r.bmp	880	2	anregung	880	1	FEHLER	2931	1	!	1312	1	!	-1	0	0	0
2024-05-02	10:30:36	10:38:42	486017	6.6.1	4_exp_EVA_AWA_CON	8	A	B	Rpleas_acq	Oppo	Rpleas	2pleas	acq_new_unple_nomask	acq2_nomask	2	18	480	0	300	300	0	0	1041	46	1	0	engagiert	anregung	träumen	kreativ	gesittet	sonnig	engstirnig	ausrottung	töten	krank	geizig	sterben	gütig	kuss	besonnen	vergnügt	genießen	vertrauen	gierig	krise	bange	verbissen	gemein	versagen	1	blank2r.bmp	0	1	+	0	1	blank2r.bmp	500	5	C1r.bmp	500	1	blank2r.bmp	880	3	bange	880	1	!	1312	1	!	-1	0	0	0	0	0	0
2024-05-02	10:30:36	10:38:44	488351	6.6.1	4_exp_EVA_AWA_CON	8	A	B	Rpleas_acq	Oppo	Rpleas	2pleas	acq_US_unple_nomask	acq2_nomask	2	19	480	0	300	300	0	0	555	46	1	0	engagiert	anregung	träumen	kreativ	gesittet	sonnig	engstirnig	ausrottung	töten	krank	geizig	sterben	gütig	kuss	besonnen	vergnügt	genießen	vertrauen	gierig	krise	bange	verbissen	gemein	versagen	1	blank2r.bmp	0	1	+	0	1	blank2r.bmp	500	1	CPLW	500	1	blank2r.bmp	880	3	töten	880	1	!	1313	1	!	-1	0	0	0	0	0	0
2024-05-02	10:30:36	10:38:47	490652	6.6.1	4_exp_EVA_AWA_CON	8	A	B	Rpleas_acq	Oppo	Rpleas	2pleas	acq_US_unple_nomask	acq2_nomask	2	20	480	1	300	300	0	0	520	46	1	0	engagiert	anregung	träumen	kreativ	gesittet	sonnig	engstirnig	ausrottung	töten	krank	geizig	sterben	gütig	kuss	besonnen	vergnügt	genießen	vertrauen	gierig	krise	bange	verbissen	gemein	versagen	1	blank2r.bmp	0	1	+	0	1	blank2r.bmp	500	1	CPLW	500	1	blank2r.bmp	880	4	krank	880	1	!	1313	1	!	1422	0	0	0	0	0	0
2024-05-02	10:30:36	10:38:49	493241	6.6.1	4_exp_EVA_AWA_CON	8	A	B	Rpleas_acq	Oppo	Rpleas	2pleas	acq_new_pleas_nomask	acq2_nomask	2	21	480	0	300	300	0	0	810	50	1	0	engagiert	anregung	träumen	kreativ	gesittet	sonnig	engstirnig	ausrottung	töten	krank	geizig	sterben	gütig	kuss	besonnen	vergnügt	genießen	vertrauen	gierig	krise	bange	verbissen	gemein	versagen	1	blank2r.bmp	0	1	+	0	1	blank2r.bmp	500	8	C4r.bmp	500	1	blank2r.bmp	880	3	besonnen	880	1	!	1312	1	!	-1	0	0	0	0	0	0
2024-05-02	10:30:36	10:38:52	496012	6.6.1	4_exp_EVA_AWA_CON	8	A	B	Rpleas_acq	Oppo	Rpleas	2pleas	acq_US_pleas_nomask	acq2_nomask	2	22	480	0	300	300	0	0	787	46	0	0	engagiert	anregung	träumen	kreativ	gesittet	sonnig	engstirnig	ausrottung	töten	krank	geizig	sterben	gütig	kuss	besonnen	vergnügt	genießen	vertrauen	gierig	krise	bange	verbissen	gemein	versagen	1	blank2r.bmp	0	1	+	0	1	blank2r.bmp	500	1	DHJF	500	1	blank2r.bmp	880	1	engagiert	880	1	FEHLER	1980	1	!	1313	1	!	-1	0	0	0
2024-05-02	10:30:36	10:38:55	498689	6.6.1	4_exp_EVA_AWA_CON	8	A	B	Rpleas_acq	Oppo	Rpleas	2pleas	acq_new_unple_nomask	acq2_nomask	2	23	480	0	300	300	0	0	1105	46	1	0	engagiert	anregung	träumen	kreativ	gesittet	sonnig	engstirnig	ausrottung	töten	krank	geizig	sterben	gütig	kuss	besonnen	vergnügt	genießen	vertrauen	gierig	krise	bange	verbissen	gemein	versagen	1	blank2r.bmp	0	1	+	0	1	blank2r.bmp	500	2	B2r.bmp	500	1	blank2r.bmp	880	4	verbissen	880	1	!	1312	1	!	-1	0	0	0	0	0	0
2024-05-02	10:30:36	10:38:57	501113	6.6.1	4_exp_EVA_AWA_CON	8	A	B	Rpleas_acq	Oppo	Rpleas	2pleas	acq_US_unple_nomask	acq2_nomask	2	24	480	0	300	300	0	0	647	46	1	0	engagiert	anregung	träumen	kreativ	gesittet	sonnig	engstirnig	ausrottung	töten	krank	geizig	sterben	gütig	kuss	besonnen	vergnügt	genießen	vertrauen	gierig	krise	bange	verbissen	gemein	versagen	1	blank2r.bmp	0	1	+	0	1	blank2r.bmp	500	1	CPLW	500	1	blank2r.bmp	880	1	engstirnig	880	1	!	1312	1	!	-1	0	0	0	0	0	0
2024-05-02	10:30:36	10:39:00	503435	6.6.1	4_exp_EVA_AWA_CON	8	A	B	Rpleas_acq	Oppo	Rpleas	2pleas	acq_new_pleas_nomask	acq2_nomask	2	25	480	1	300	300	0	0	546	50	1	0	engagiert	anregung	träumen	kreativ	gesittet	sonnig	engstirnig	ausrottung	töten	krank	geizig	sterben	gütig	kuss	besonnen	vergnügt	genießen	vertrauen	gierig	krise	bange	verbissen	gemein	versagen	1	blank2r.bmp	0	1	+	0	1	blank2r.bmp	500	1	B1r.bmp	500	1	blank2r.bmp	880	6	vertrauen	880	1	!	1313	1	!	1447	0	0	0	0	0	0
2024-05-02	10:30:36	10:39:02	505970	6.6.1	4_exp_EVA_AWA_CON	8	A	B	Rpleas_acq	Oppo	Rpleas	2pleas	acq_US_unple_nomask	acq2_nomask	2	26	480	0	300	300	0	0	760	46	1	0	engagiert	anregung	träumen	kreativ	gesittet	sonnig	engstirnig	ausrottung	töten	krank	geizig	sterben	gütig	kuss	besonnen	vergnügt	genießen	vertrauen	gierig	krise	bange	verbissen	gemein	versagen	1	blank2r.bmp	0	1	+	0	1	blank2r.bmp	500	1	CPLW	500	1	blank2r.bmp	880	6	sterben	880	1	!	1313	1	!	-1	0	0	0	0	0	0
2024-05-02	10:30:36	10:39:05	508529	6.6.1	4_exp_EVA_AWA_CON	8	A	B	Rpleas_acq	Oppo	Rpleas	2pleas	acq_US_unple_nomask	acq2_nomask	2	27	480	0	300	300	0	0	778	46	1	0	engagiert	anregung	träumen	kreativ	gesittet	sonnig	engstirnig	ausrottung	töten	krank	geizig	sterben	gütig	kuss	besonnen	vergnügt	genießen	vertrauen	gierig	krise	bange	verbissen	gemein	versagen	1	blank2r.bmp	0	1	+	0	1	blank2r.bmp	500	1	CPLW	500	1	blank2r.bmp	880	5	geizig	880	1	!	1312	1	!	-1	0	0	0	0	0	0
2024-05-02	10:30:36	10:39:07	510818	6.6.1	4_exp_EVA_AWA_CON	8	A	B	Rpleas_acq	Oppo	Rpleas	2pleas	acq_US_pleas_nomask	acq2_nomask	2	28	480	1	300	300	0	0	515	50	1	0	engagiert	anregung	träumen	kreativ	gesittet	sonnig	engstirnig	ausrottung	töten	krank	geizig	sterben	gütig	kuss	besonnen	vergnügt	genießen	vertrauen	gierig	krise	bange	verbissen	gemein	versagen	1	blank2r.bmp	0	1	+	0	1	blank2r.bmp	500	1	DHJF	500	1	blank2r.bmp	880	5	gesittet	880	1	!	1312	1	!	1416	0	0	0	0	0	0
2024-05-02	10:30:36	10:39:09	513083	6.6.1	4_exp_EVA_AWA_CON	8	A	B	Rpleas_acq	Oppo	Rpleas	2pleas	acq_US_unple_nomask	acq2_nomask	2	29	480	1	300	300	0	0	487	46	1	0	engagiert	anregung	träumen	kreativ	gesittet	sonnig	engstirnig	ausrottung	töten	krank	geizig	sterben	gütig	kuss	besonnen	vergnügt	genießen	vertrauen	gierig	krise	bange	verbissen	gemein	versagen	1	blank2r.bmp	0	1	+	0	1	blank2r.bmp	500	1	CPLW	500	1	blank2r.bmp	880	2	ausrottung	880	1	!	1313	1	!	1389	0	0	0	0	0	0
2024-05-02	10:30:36	10:39:11	515363	6.6.1	4_exp_EVA_AWA_CON	8	A	B	Rpleas_acq	Oppo	Rpleas	2pleas	acq_new_pleas_nomask	acq2_nomask	2	30	480	1	300	300	0	0	496	50	1	0	engagiert	anregung	träumen	kreativ	gesittet	sonnig	engstirnig	ausrottung	töten	krank	geizig	sterben	gütig	kuss	besonnen	vergnügt	genießen	vertrauen	gierig	krise	bange	verbissen	gemein	versagen	1	blank2r.bmp	0	1	+	0	1	blank2r.bmp	500	3	B3r.bmp	500	1	blank2r.bmp	880	1	gütig	880	1	!	1313	1	!	1397	0	0	0	0	0	0
2024-05-02	10:30:36	10:39:14	517675	6.6.1	4_exp_EVA_AWA_CON	8	A	B	Rpleas_acq	Oppo	Rpleas	2pleas	acq_US_pleas_nomask	acq2_nomask	2	31	480	1	300	300	0	0	536	50	1	0	engagiert	anregung	träumen	kreativ	gesittet	sonnig	engstirnig	ausrottung	töten	krank	geizig	sterben	gütig	kuss	besonnen	vergnügt	genießen	vertrauen	gierig	krise	bange	verbissen	gemein	versagen	1	blank2r.bmp	0	1	+	0	1	blank2r.bmp	500	1	DHJF	500	1	blank2r.bmp	880	3	träumen	880	1	!	1312	1	!	1438	0	0	0	0	0	0
2024-05-02	10:30:36	10:39:16	519981	6.6.1	4_exp_EVA_AWA_CON	8	A	B	Rpleas_acq	Oppo	Rpleas	2pleas	acq_new_pleas_nomask	acq2_nomask	2	32	480	0	300	300	0	0	329	46	0	0	engagiert	anregung	träumen	kreativ	gesittet	sonnig	engstirnig	ausrottung	töten	krank	geizig	sterben	gütig	kuss	besonnen	vergnügt	genießen	vertrauen	gierig	krise	bange	verbissen	gemein	versagen	1	blank2r.bmp	0	1	+	0	1	blank2r.bmp	500	5	C1r.bmp	500	1	blank2r.bmp	880	4	vergnügt	880	1	FEHLER	1523	1	!	-1	1	!	-1	0	0	0
2024-05-02	10:30:36	10:39:18	522353	6.6.1	4_exp_EVA_AWA_CON	8	A	B	Rpleas_acq	Oppo	Rpleas	2pleas	acq_new_unple_nomask	acq2_nomask	2	33	480	0	300	300	0	0	794	46	1	0	engagiert	anregung	träumen	kreativ	gesittet	sonnig	engstirnig	ausrottung	töten	krank	geizig	sterben	gütig	kuss	besonnen	vergnügt	genießen	vertrauen	gierig	krise	bange	verbissen	gemein	versagen	1	blank2r.bmp	0	1	+	0	1	blank2r.bmp	500	1	B1r.bmp	500	1	blank2r.bmp	880	1	gierig	880	1	!	1313	1	!	-1	0	0	0	0	0	0
2024-05-02	10:30:36	10:39:21	524449	6.6.1	4_exp_EVA_AWA_CON	8	A	B	Rpleas_acq	Oppo	Rpleas	2pleas	acq_US_pleas_nomask	acq2_nomask	2	34	480	0	300	300	0	0	318	50	1	0	engagiert	anregung	träumen	kreativ	gesittet	sonnig	engstirnig	ausrottung	töten	krank	geizig	sterben	gütig	kuss	besonnen	vergnügt	genießen	vertrauen	gierig	krise	bange	verbissen	gemein	versagen	1	blank2r.bmp	0	1	+	0	1	blank2r.bmp	500	1	DHJF	500	1	blank2r.bmp	880	6	sonnig	880	1	!	-1	1	!	-1	0	0	0	0	0	0
2024-05-02	10:30:36	10:39:23	526715	6.6.1	4_exp_EVA_AWA_CON	8	A	B	Rpleas_acq	Oppo	Rpleas	2pleas	acq_new_unple_nomask	acq2_nomask	2	35	480	1	300	300	0	0	491	46	1	0	engagiert	anregung	träumen	kreativ	gesittet	sonnig	engstirnig	ausrottung	töten	krank	geizig	sterben	gütig	kuss	besonnen	vergnügt	genießen	vertrauen	gierig	krise	bange	verbissen	gemein	versagen	1	blank2r.bmp	0	1	+	0	1	blank2r.bmp	500	6	C2r.bmp	500	1	blank2r.bmp	880	2	krise	880	1	!	1312	1	!	1392	0	0	0	0	0	0
2024-05-02	10:30:36	10:39:25	528962	6.6.1	4_exp_EVA_AWA_CON	8	A	B	Rpleas_acq	Oppo	Rpleas	2pleas	acq_new_unple_nomask	acq2_nomask	2	36	480	1	300	300	0	0	467	46	1	0	engagiert	anregung	träumen	kreativ	gesittet	sonnig	engstirnig	ausrottung	töten	krank	geizig	sterben	gütig	kuss	besonnen	vergnügt	genießen	vertrauen	gierig	krise	bange	verbissen	gemein	versagen	1	blank2r.bmp	0	1	+	0	1	blank2r.bmp	500	2	B2r.bmp	500	1	blank2r.bmp	880	5	gemein	880	1	!	1313	1	!	1369	0	0	0	0	0	0
2024-05-02	10:30:36	10:39:52	556235	6.6.1	4_exp_EVA_AWA_CON	8	A	B	Rpleas_acq	Oppo	Rpleas	2pleas	acq_US_pleas_nomask	acq3_nomask	3	1	453	1	300	300	0	0	452	50	1	0	engagiert	anregung	träumen	kreativ	gesittet	sonnig	engstirnig	ausrottung	töten	krank	geizig	sterben	gütig	kuss	besonnen	vergnügt	genießen	vertrauen	gierig	krise	bange	verbissen	gemein	versagen	1	blank2r.bmp	0	1	+	0	1	blank2r.bmp	500	1	DHJF	500	1	blank2r.bmp	880	5	gesittet	880	1	!	1292	1	!	1353	0	0	0	0	0	0
2024-05-02	10:30:36	10:39:54	558401	6.6.1	4_exp_EVA_AWA_CON	8	A	B	Rpleas_acq	Oppo	Rpleas	2pleas	acq_US_unple_nomask	acq3_nomask	3	2	453	0	300	300	0	0	388	46	1	0	engagiert	anregung	träumen	kreativ	gesittet	sonnig	engstirnig	ausrottung	töten	krank	geizig	sterben	gütig	kuss	besonnen	vergnügt	genießen	vertrauen	gierig	krise	bange	verbissen	gemein	versagen	1	blank2r.bmp	0	1	+	0	1	blank2r.bmp	500	1	CPLW	500	1	blank2r.bmp	880	6	sterben	880	1	!	-1	1	!	-1	0	0	0	0	0	0
2024-05-02	10:30:36	10:39:57	560729	6.6.1	4_exp_EVA_AWA_CON	8	A	B	Rpleas_acq	Oppo	Rpleas	2pleas	acq_US_unple_nomask	acq3_nomask	3	3	453	0	300	300	0	0	555	46	1	0	engagiert	anregung	träumen	kreativ	gesittet	sonnig	engstirnig	ausrottung	töten	krank	geizig	sterben	gütig	kuss	besonnen	vergnügt	genießen	vertrauen	gierig	krise	bange	verbissen	gemein	versagen	1	blank2r.bmp	0	1	+	0	1	blank2r.bmp	500	1	CPLW	500	1	blank2r.bmp	880	3	töten	880	1	!	1292	1	!	-1	0	0	0	0	0	0
2024-05-02	10:30:36	10:39:59	562955	6.6.1	4_exp_EVA_AWA_CON	8	A	B	Rpleas_acq	Oppo	Rpleas	2pleas	acq_US_pleas_nomask	acq3_nomask	3	4	453	1	300	300	0	0	447	50	1	0	engagiert	anregung	träumen	kreativ	gesittet	sonnig	engstirnig	ausrottung	töten	krank	geizig	sterben	gütig	kuss	besonnen	vergnügt	genießen	vertrauen	gierig	krise	bange	verbissen	gemein	versagen	1	blank2r.bmp	0	1	+	0	1	blank2r.bmp	500	1	DHJF	500	1	blank2r.bmp	880	1	engagiert	880	1	!	1293	1	!	1349	0	0	0	0	0	0
2024-05-02	10:30:36	10:40:02	565492	6.6.1	4_exp_EVA_AWA_CON	8	A	B	Rpleas_acq	Oppo	Rpleas	2pleas	acq_US_pleas_nomask	acq3_nomask	3	5	453	0	300	300	0	0	552	46	0	0	engagiert	anregung	träumen	kreativ	gesittet	sonnig	engstirnig	ausrottung	töten	krank	geizig	sterben	gütig	kuss	besonnen	vergnügt	genießen	vertrauen	gierig	krise	bange	verbissen	gemein	versagen	1	blank2r.bmp	0	1	+	0	1	blank2r.bmp	500	1	DHJF	500	1	blank2r.bmp	880	2	anregung	880	1	FEHLER	1745	1	!	1292	1	!	-1	0	0	0
2024-05-02	10:30:36	10:40:04	567689	6.6.1	4_exp_EVA_AWA_CON	8	A	B	Rpleas_acq	Oppo	Rpleas	2pleas	acq_US_unple_nomask	acq3_nomask	3	6	453	0	300	300	0	0	620	46	1	0	engagiert	anregung	träumen	kreativ	gesittet	sonnig	engstirnig	ausrottung	töten	krank	geizig	sterben	gütig	kuss	besonnen	vergnügt	genießen	vertrauen	gierig	krise	bange	verbissen	gemein	versagen	1	blank2r.bmp	0	1	+	0	1	blank2r.bmp	500	1	CPLW	500	1	blank2r.bmp	880	1	engstirnig	880	1	!	1292	1	!	-1	0	0	0	0	0	0
2024-05-02	10:30:36	10:40:06	569825	6.6.1	4_exp_EVA_AWA_CON	8	A	B	Rpleas_acq	Oppo	Rpleas	2pleas	acq_US_pleas_nomask	acq3_nomask	3	7	453	0	300	300	0	0	355	50	1	0	engagiert	anregung	träumen	kreativ	gesittet	sonnig	engstirnig	ausrottung	töten	krank	geizig	sterben	gütig	kuss	besonnen	vergnügt	genießen	vertrauen	gierig	krise	bange	verbissen	gemein	versagen	1	blank2r.bmp	0	1	+	0	1	blank2r.bmp	500	1	DHJF	500	1	blank2r.bmp	880	3	träumen	880	1	!	-1	1	!	-1	0	0	0	0	0	0
2024-05-02	10:30:36	10:40:08	572027	6.6.1	4_exp_EVA_AWA_CON	8	A	B	Rpleas_acq	Oppo	Rpleas	2pleas	acq_US_pleas_nomask	acq3_nomask	3	8	453	1	300	300	0	0	423	50	1	0	engagiert	anregung	träumen	kreativ	gesittet	sonnig	engstirnig	ausrottung	töten	krank	geizig	sterben	gütig	kuss	besonnen	vergnügt	genießen	vertrauen	gierig	krise	bange	verbissen	gemein	versagen	1	blank2r.bmp	0	1	+	0	1	blank2r.bmp	500	1	DHJF	500	1	blank2r.bmp	880	6	sonnig	880	1	!	1292	1	!	1325	0	0	0	0	0	0
2024-05-02	10:30:36	10:40:10	574299	6.6.1	4_exp_EVA_AWA_CON	8	A	B	Rpleas_acq	Oppo	Rpleas	2pleas	acq_US_pleas_nomask	acq3_nomask	3	9	453	1	300	300	0	0	494	50	1	0	engagiert	anregung	träumen	kreativ	gesittet	sonnig	engstirnig	ausrottung	töten	krank	geizig	sterben	gütig	kuss	besonnen	vergnügt	genießen	vertrauen	gierig	krise	bange	verbissen	gemein	versagen	1	blank2r.bmp	0	1	+	0	1	blank2r.bmp	500	1	DHJF	500	1	blank2r.bmp	880	4	kreativ	880	1	!	1292	1	!	1396	0	0	0	0	0	0
2024-05-02	10:30:36	10:40:13	576705	6.6.1	4_exp_EVA_AWA_CON	8	A	B	Rpleas_acq	Oppo	Rpleas	2pleas	acq_US_unple_nomask	acq3_nomask	3	10	453	0	300	300	0	0	631	46	1	0	engagiert	anregung	träumen	kreativ	gesittet	sonnig	engstirnig	ausrottung	töten	krank	geizig	sterben	gütig	kuss	besonnen	vergnügt	genießen	vertrauen	gierig	krise	bange	verbissen	gemein	versagen	1	blank2r.bmp	0	1	+	0	1	blank2r.bmp	500	1	CPLW	500	1	blank2r.bmp	880	4	krank	880	1	!	1292	1	!	-1	0	0	0	0	0	0
2024-05-02	10:30:36	10:40:15	579008	6.6.1	4_exp_EVA_AWA_CON	8	A	B	Rpleas_acq	Oppo	Rpleas	2pleas	acq_US_unple_nomask	acq3_nomask	3	11	453	0	300	300	0	0	524	46	1	0	engagiert	anregung	träumen	kreativ	gesittet	sonnig	engstirnig	ausrottung	töten	krank	geizig	sterben	gütig	kuss	besonnen	vergnügt	genießen	vertrauen	gierig	krise	bange	verbissen	gemein	versagen	1	blank2r.bmp	0	1	+	0	1	blank2r.bmp	500	1	CPLW	500	1	blank2r.bmp	880	2	ausrottung	880	1	!	1293	1	!	-1	0	0	0	0	0	0
2024-05-02	10:30:36	10:40:17	581345	6.6.1	4_exp_EVA_AWA_CON	8	A	B	Rpleas_acq	Oppo	Rpleas	2pleas	acq_US_unple_nomask	acq3_nomask	3	12	453	0	300	300	0	0	558	46	1	0	engagiert	anregung	träumen	kreativ	gesittet	sonnig	engstirnig	ausrottung	töten	krank	geizig	sterben	gütig	kuss	besonnen	vergnügt	genießen	vertrauen	gierig	krise	bange	verbissen	gemein	versagen	1	blank2r.bmp	0	1	+	0	1	blank2r.bmp	500	1	CPLW	500	1	blank2r.bmp	880	5	geizig	880	1	!	1293	1	!	-1	0	0	0	0	0	0
2024-05-02	10:30:36	10:40:20	583777	6.6.1	4_exp_EVA_AWA_CON	8	A	B	Rpleas_acq	Oppo	Rpleas	2pleas	acq_US_unple_nomask	acq3_nomask	3	13	453	0	300	300	0	0	658	46	1	0	engagiert	anregung	träumen	kreativ	gesittet	sonnig	engstirnig	ausrottung	töten	krank	geizig	sterben	gütig	kuss	besonnen	vergnügt	genießen	vertrauen	gierig	krise	bange	verbissen	gemein	versagen	1	blank2r.bmp	0	1	+	0	1	blank2r.bmp	500	1	CPLW	500	1	blank2r.bmp	880	2	ausrottung	880	1	!	1292	1	!	-1	0	0	0	0	0	0
2024-05-02	10:30:36	10:40:22	586146	6.6.1	4_exp_EVA_AWA_CON	8	A	B	Rpleas_acq	Oppo	Rpleas	2pleas	acq_US_unple_nomask	acq3_nomask	3	14	453	1	300	300	0	0	395	50	0	0	engagiert	anregung	träumen	kreativ	gesittet	sonnig	engstirnig	ausrottung	töten	krank	geizig	sterben	gütig	kuss	besonnen	vergnügt	genießen	vertrauen	gierig	krise	bange	verbissen	gemein	versagen	1	blank2r.bmp	0	1	+	0	1	blank2r.bmp	500	1	CPLW	500	1	blank2r.bmp	880	1	engstirnig	880	1	FEHLER	1586	1	!	1292	1	!	1294	0	0	0
2024-05-02	10:30:36	10:40:24	588337	6.6.1	4_exp_EVA_AWA_CON	8	A	B	Rpleas_acq	Oppo	Rpleas	2pleas	acq_US_unple_nomask	acq3_nomask	3	15	453	0	300	300	0	0	615	46	1	0	engagiert	anregung	träumen	kreativ	gesittet	sonnig	engstirnig	ausrottung	töten	krank	geizig	sterben	gütig	kuss	besonnen	vergnügt	genießen	vertrauen	gierig	krise	bange	verbissen	gemein	versagen	1	blank2r.bmp	0	1	+	0	1	blank2r.bmp	500	1	CPLW	500	1	blank2r.bmp	880	4	krank	880	1	!	1292	1	!	-1	0	0	0	0	0	0
2024-05-02	10:30:36	10:40:27	590595	6.6.1	4_exp_EVA_AWA_CON	8	A	B	Rpleas_acq	Oppo	Rpleas	2pleas	acq_US_unple_nomask	acq3_nomask	3	16	453	1	300	300	0	0	480	46	1	0	engagiert	anregung	träumen	kreativ	gesittet	sonnig	engstirnig	ausrottung	töten	krank	geizig	sterben	gütig	kuss	besonnen	vergnügt	genießen	vertrauen	gierig	krise	bange	verbissen	gemein	versagen	1	blank2r.bmp	0	1	+	0	1	blank2r.bmp	500	1	CPLW	500	1	blank2r.bmp	880	5	geizig	880	1	!	1293	1	!	1382	0	0	0	0	0	0
2024-05-02	10:30:36	10:40:29	592737	6.6.1	4_exp_EVA_AWA_CON	8	A	B	Rpleas_acq	Oppo	Rpleas	2pleas	acq_US_pleas_nomask	acq3_nomask	3	17	453	0	300	300	0	0	362	50	1	0	engagiert	anregung	träumen	kreativ	gesittet	sonnig	engstirnig	ausrottung	töten	krank	geizig	sterben	gütig	kuss	besonnen	vergnügt	genießen	vertrauen	gierig	krise	bange	verbissen	gemein	versagen	1	blank2r.bmp	0	1	+	0	1	blank2r.bmp	500	1	DHJF	500	1	blank2r.bmp	880	5	gesittet	880	1	!	-1	1	!	-1	0	0	0	0	0	0
2024-05-02	10:30:36	10:40:31	594947	6.6.1	4_exp_EVA_AWA_CON	8	A	B	Rpleas_acq	Oppo	Rpleas	2pleas	acq_US_pleas_nomask	acq3_nomask	3	18	453	1	300	300	0	0	429	50	1	0	engagiert	anregung	träumen	kreativ	gesittet	sonnig	engstirnig	ausrottung	töten	krank	geizig	sterben	gütig	kuss	besonnen	vergnügt	genießen	vertrauen	gierig	krise	bange	verbissen	gemein	versagen	1	blank2r.bmp	0	1	+	0	1	blank2r.bmp	500	1	DHJF	500	1	blank2r.bmp	880	4	kreativ	880	1	!	1293	1	!	1330	0	0	0	0	0	0
2024-05-02	10:30:36	10:40:33	597058	6.6.1	4_exp_EVA_AWA_CON	8	A	B	Rpleas_acq	Oppo	Rpleas	2pleas	acq_US_pleas_nomask	acq3_nomask	3	19	453	0	300	300	0	0	329	50	1	0	engagiert	anregung	träumen	kreativ	gesittet	sonnig	engstirnig	ausrottung	töten	krank	geizig	sterben	gütig	kuss	besonnen	vergnügt	genießen	vertrauen	gierig	krise	bange	verbissen	gemein	versagen	1	blank2r.bmp	0	1	+	0	1	blank2r.bmp	500	1	DHJF	500	1	blank2r.bmp	880	6	sonnig	880	1	!	-1	1	!	-1	0	0	0	0	0	0
2024-05-02	10:30:36	10:40:36	599556	6.6.1	4_exp_EVA_AWA_CON	8	A	B	Rpleas_acq	Oppo	Rpleas	2pleas	acq_US_pleas_nomask	acq3_nomask	3	20	453	1	300	300	0	0	514	46	0	0	engagiert	anregung	träumen	kreativ	gesittet	sonnig	engstirnig	ausrottung	töten	krank	geizig	sterben	gütig	kuss	besonnen	vergnügt	genießen	vertrauen	gierig	krise	bange	verbissen	gemein	versagen	1	blank2r.bmp	0	1	+	0	1	blank2r.bmp	500	1	DHJF	500	1	blank2r.bmp	880	2	anregung	880	1	FEHLER	1707	1	!	1292	1	!	1415	0	0	0
2024-05-02	10:30:36	10:40:38	601697	6.6.1	4_exp_EVA_AWA_CON	8	A	B	Rpleas_acq	Oppo	Rpleas	2pleas	acq_US_unple_nomask	acq3_nomask	3	21	453	0	300	300	0	0	566	46	1	0	engagiert	anregung	träumen	kreativ	gesittet	sonnig	engstirnig	ausrottung	töten	krank	geizig	sterben	gütig	kuss	besonnen	vergnügt	genießen	vertrauen	gierig	krise	bange	verbissen	gemein	versagen	1	blank2r.bmp	0	1	+	0	1	blank2r.bmp	500	1	CPLW	500	1	blank2r.bmp	880	6	sterben	880	1	!	1292	1	!	-1	0	0	0	0	0	0
2024-05-02	10:30:36	10:40:40	603939	6.6.1	4_exp_EVA_AWA_CON	8	A	B	Rpleas_acq	Oppo	Rpleas	2pleas	acq_US_unple_nomask	acq3_nomask	3	22	453	1	300	300	0	0	465	46	1	0	engagiert	anregung	träumen	kreativ	gesittet	sonnig	engstirnig	ausrottung	töten	krank	geizig	sterben	gütig	kuss	besonnen	vergnügt	genießen	vertrauen	gierig	krise	bange	verbissen	gemein	versagen	1	blank2r.bmp	0	1	+	0	1	blank2r.bmp	500	1	CPLW	500	1	blank2r.bmp	880	3	töten	880	1	!	1292	1	!	1366	0	0	0	0	0	0
2024-05-02	10:30:36	10:40:42	606074	6.6.1	4_exp_EVA_AWA_CON	8	A	B	Rpleas_acq	Oppo	Rpleas	2pleas	acq_US_pleas_nomask	acq3_nomask	3	23	453	0	300	300	0	0	360	50	1	0	engagiert	anregung	träumen	kreativ	gesittet	sonnig	engstirnig	ausrottung	töten	krank	geizig	sterben	gütig	kuss	besonnen	vergnügt	genießen	vertrauen	gierig	krise	bange	verbissen	gemein	versagen	1	blank2r.bmp	0	1	+	0	1	blank2r.bmp	500	1	DHJF	500	1	blank2r.bmp	880	3	träumen	880	1	!	-1	1	!	-1	0	0	0	0	0	0
2024-05-02	10:30:36	10:40:45	608417	6.6.1	4_exp_EVA_AWA_CON	8	A	B	Rpleas_acq	Oppo	Rpleas	2pleas	acq_US_pleas_nomask	acq3_nomask	3	24	453	0	300	300	0	0	562	50	1	0	engagiert	anregung	träumen	kreativ	gesittet	sonnig	engstirnig	ausrottung	töten	krank	geizig	sterben	gütig	kuss	besonnen	vergnügt	genießen	vertrauen	gierig	krise	bange	verbissen	gemein	versagen	1	blank2r.bmp	0	1	+	0	1	blank2r.bmp	500	1	DHJF	500	1	blank2r.bmp	880	1	engagiert	880	1	!	1293	1	!	-1	0	0	0	0	0	0
2024-05-02	10:30:36	10:40:48	612089	6.6.1	4_exp_EVA_AWA_CON	8	A	B	Rpleas_acq	Oppo	Rpleas	2pleas	acq_US_unple_nomask	acq3_nomask	3	25	453	0	300	300	0	0	1893	46	1	0	engagiert	anregung	träumen	kreativ	gesittet	sonnig	engstirnig	ausrottung	töten	krank	geizig	sterben	gütig	kuss	besonnen	vergnügt	genießen	vertrauen	gierig	krise	bange	verbissen	gemein	versagen	1	blank2r.bmp	0	1	+	0	1	blank2r.bmp	500	1	CPLW	500	1	blank2r.bmp	880	1	engstirnig	880	1	!	1292	1	!	-1	0	0	0	0	0	0
2024-05-02	10:30:36	10:40:51	614505	6.6.1	4_exp_EVA_AWA_CON	8	A	B	Rpleas_acq	Oppo	Rpleas	2pleas	acq_US_unple_nomask	acq3_nomask	3	26	453	0	300	300	0	0	636	46	1	0	engagiert	anregung	träumen	kreativ	gesittet	sonnig	engstirnig	ausrottung	töten	krank	geizig	sterben	gütig	kuss	besonnen	vergnügt	genießen	vertrauen	gierig	krise	bange	verbissen	gemein	versagen	1	blank2r.bmp	0	1	+	0	1	blank2r.bmp	500	1	CPLW	500	1	blank2r.bmp	880	4	krank	880	1	!	1293	1	!	-1	0	0	0	0	0	0
2024-05-02	10:30:36	10:40:53	616771	6.6.1	4_exp_EVA_AWA_CON	8	A	B	Rpleas_acq	Oppo	Rpleas	2pleas	acq_US_unple_nomask	acq3_nomask	3	27	453	1	300	300	0	0	489	46	1	0	engagiert	anregung	träumen	kreativ	gesittet	sonnig	engstirnig	ausrottung	töten	krank	geizig	sterben	gütig	kuss	besonnen	vergnügt	genießen	vertrauen	gierig	krise	bange	verbissen	gemein	versagen	1	blank2r.bmp	0	1	+	0	1	blank2r.bmp	500	1	CPLW	500	1	blank2r.bmp	880	3	töten	880	1	!	1292	1	!	1390	0	0	0	0	0	0
2024-05-02	10:30:36	10:40:55	618913	6.6.1	4_exp_EVA_AWA_CON	8	A	B	Rpleas_acq	Oppo	Rpleas	2pleas	acq_US_pleas_nomask	acq3_nomask	3	28	453	0	300	300	0	0	361	50	1	0	engagiert	anregung	träumen	kreativ	gesittet	sonnig	engstirnig	ausrottung	töten	krank	geizig	sterben	gütig	kuss	besonnen	vergnügt	genießen	vertrauen	gierig	krise	bange	verbissen	gemein	versagen	1	blank2r.bmp	0	1	+	0	1	blank2r.bmp	500	1	DHJF	500	1	blank2r.bmp	880	6	sonnig	880	1	!	-1	1	!	-1	0	0	0	0	0	0
2024-05-02	10:30:36	10:40:57	621130	6.6.1	4_exp_EVA_AWA_CON	8	A	B	Rpleas_acq	Oppo	Rpleas	2pleas	acq_US_pleas_nomask	acq3_nomask	3	29	453	1	300	300	0	0	436	50	1	0	engagiert	anregung	träumen	kreativ	gesittet	sonnig	engstirnig	ausrottung	töten	krank	geizig	sterben	gütig	kuss	besonnen	vergnügt	genießen	vertrauen	gierig	krise	bange	verbissen	gemein	versagen	1	blank2r.bmp	0	1	+	0	1	blank2r.bmp	500	1	DHJF	500	1	blank2r.bmp	880	3	träumen	880	1	!	1292	1	!	1337	0	0	0	0	0	0
2024-05-02	10:30:36	10:40:59	623378	6.6.1	4_exp_EVA_AWA_CON	8	A	B	Rpleas_acq	Oppo	Rpleas	2pleas	acq_US_pleas_nomask	acq3_nomask	3	30	453	1	300	300	0	0	473	50	1	0	engagiert	anregung	träumen	kreativ	gesittet	sonnig	engstirnig	ausrottung	töten	krank	geizig	sterben	gütig	kuss	besonnen	vergnügt	genießen	vertrauen	gierig	krise	bange	verbissen	gemein	versagen	1	blank2r.bmp	0	1	+	0	1	blank2r.bmp	500	1	DHJF	500	1	blank2r.bmp	880	1	engagiert	880	1	!	1293	1	!	1374	0	0	0	0	0	0
2024-05-02	10:30:36	10:41:02	625708	6.6.1	4_exp_EVA_AWA_CON	8	A	B	Rpleas_acq	Oppo	Rpleas	2pleas	acq_US_unple_nomask	acq3_nomask	3	31	453	0	300	300	0	0	349	50	0	0	engagiert	anregung	träumen	kreativ	gesittet	sonnig	engstirnig	ausrottung	töten	krank	geizig	sterben	gütig	kuss	besonnen	vergnügt	genießen	vertrauen	gierig	krise	bange	verbissen	gemein	versagen	1	blank2r.bmp	0	1	+	0	1	blank2r.bmp	500	1	CPLW	500	1	blank2r.bmp	880	5	geizig	880	1	FEHLER	1543	1	!	-1	1	!	-1	0	0	0
2024-05-02	10:30:36	10:41:04	627795	6.6.1	4_exp_EVA_AWA_CON	8	A	B	Rpleas_acq	Oppo	Rpleas	2pleas	acq_US_unple_nomask	acq3_nomask	3	32	453	1	300	300	0	0	516	46	1	0	engagiert	anregung	träumen	kreativ	gesittet	sonnig	engstirnig	ausrottung	töten	krank	geizig	sterben	gütig	kuss	besonnen	vergnügt	genießen	vertrauen	gierig	krise	bange	verbissen	gemein	versagen	1	blank2r.bmp	0	1	+	0	1	blank2r.bmp	500	1	CPLW	500	1	blank2r.bmp	880	6	sterben	880	1	!	1293	1	!	1417	0	0	0	0	0	0
2024-05-02	10:30:36	10:41:06	630075	6.6.1	4_exp_EVA_AWA_CON	8	A	B	Rpleas_acq	Oppo	Rpleas	2pleas	acq_US_unple_nomask	acq3_nomask	3	33	453	1	300	300	0	0	504	46	1	0	engagiert	anregung	träumen	kreativ	gesittet	sonnig	engstirnig	ausrottung	töten	krank	geizig	sterben	gütig	kuss	besonnen	vergnügt	genießen	vertrauen	gierig	krise	bange	verbissen	gemein	versagen	1	blank2r.bmp	0	1	+	0	1	blank2r.bmp	500	1	CPLW	500	1	blank2r.bmp	880	2	ausrottung	880	1	!	1292	1	!	1406	0	0	0	0	0	0
2024-05-02	10:30:36	10:41:08	632331	6.6.1	4_exp_EVA_AWA_CON	8	A	B	Rpleas_acq	Oppo	Rpleas	2pleas	acq_US_pleas_nomask	acq3_nomask	3	34	453	1	300	300	0	0	479	50	1	0	engagiert	anregung	träumen	kreativ	gesittet	sonnig	engstirnig	ausrottung	töten	krank	geizig	sterben	gütig	kuss	besonnen	vergnügt	genießen	vertrauen	gierig	krise	bange	verbissen	gemein	versagen	1	blank2r.bmp	0	1	+	0	1	blank2r.bmp	500	1	DHJF	500	1	blank2r.bmp	880	2	anregung	880	1	!	1293	1	!	1380	0	0	0	0	0	0
2024-05-02	10:30:36	10:41:11	634513	6.6.1	4_exp_EVA_AWA_CON	8	A	B	Rpleas_acq	Oppo	Rpleas	2pleas	acq_US_pleas_nomask	acq3_nomask	3	35	453	1	300	300	0	0	401	50	1	0	engagiert	anregung	träumen	kreativ	gesittet	sonnig	engstirnig	ausrottung	töten	krank	geizig	sterben	gütig	kuss	besonnen	vergnügt	genießen	vertrauen	gierig	krise	bange	verbissen	gemein	versagen	1	blank2r.bmp	0	1	+	0	1	blank2r.bmp	500	1	DHJF	500	1	blank2r.bmp	880	4	kreativ	880	1	!	1292	1	!	1301	0	0	0	0	0	0
2024-05-02	10:30:36	10:41:13	636841	6.6.1	4_exp_EVA_AWA_CON	8	A	B	Rpleas_acq	Oppo	Rpleas	2pleas	acq_US_pleas_nomask	acq3_nomask	3	36	453	0	300	300	0	0	548	50	1	0	engagiert	anregung	träumen	kreativ	gesittet	sonnig	engstirnig	ausrottung	töten	krank	geizig	sterben	gütig	kuss	besonnen	vergnügt	genießen	vertrauen	gierig	krise	bange	verbissen	gemein	versagen	1	blank2r.bmp	0	1	+	0	1	blank2r.bmp	500	1	DHJF	500	1	blank2r.bmp	880	5	gesittet	880	1	!	1292	1	!	-1	0	0	0	0	0	0
2024-05-02	10:30:36	10:41:44	667419	6.6.1	4_exp_EVA_AWA_CON	8	A	B	Rpleas_acq	Oppo	Rpleas	2pleas	acq_US_pleas_nomask	acq45_nomask	4	1	400	1	300	300	0	0	434	50	1	0	engagiert	anregung	träumen	kreativ	gesittet	sonnig	engstirnig	ausrottung	töten	krank	geizig	sterben	gütig	kuss	besonnen	vergnügt	genießen	vertrauen	gierig	krise	bange	verbissen	gemein	versagen	1	blank2r.bmp	0	1	+	0	1	blank2r.bmp	500	1	DHJF	500	1	blank2r.bmp	880	1	engagiert	880	1	!	1232	1	!	1336	0	0	0	0	0	0
2024-05-02	10:30:36	10:41:46	669635	6.6.1	4_exp_EVA_AWA_CON	8	A	B	Rpleas_acq	Oppo	Rpleas	2pleas	acq_US_pleas_nomask	acq45_nomask	4	2	400	1	300	300	0	0	439	50	1	0	engagiert	anregung	träumen	kreativ	gesittet	sonnig	engstirnig	ausrottung	töten	krank	geizig	sterben	gütig	kuss	besonnen	vergnügt	genießen	vertrauen	gierig	krise	bange	verbissen	gemein	versagen	1	blank2r.bmp	0	1	+	0	1	blank2r.bmp	500	1	DHJF	500	1	blank2r.bmp	880	3	träumen	880	1	!	1232	1	!	1340	0	0	0	0	0	0
2024-05-02	10:30:36	10:41:48	671697	6.6.1	4_exp_EVA_AWA_CON	8	A	B	Rpleas_acq	Oppo	Rpleas	2pleas	acq_US_unple_nomask	acq45_nomask	4	3	400	0	300	300	0	0	281	46	1	0	engagiert	anregung	träumen	kreativ	gesittet	sonnig	engstirnig	ausrottung	töten	krank	geizig	sterben	gütig	kuss	besonnen	vergnügt	genießen	vertrauen	gierig	krise	bange	verbissen	gemein	versagen	1	blank2r.bmp	0	1	+	0	1	blank2r.bmp	500	1	CPLW	500	1	blank2r.bmp	880	3	töten	880	1	!	-1	1	!	-1	0	0	0	0	0	0
2024-05-02	10:30:36	10:41:50	673851	6.6.1	4_exp_EVA_AWA_CON	8	A	B	Rpleas_acq	Oppo	Rpleas	2pleas	acq_US_pleas_nomask	acq45_nomask	4	4	400	1	300	300	0	0	372	50	1	0	engagiert	anregung	träumen	kreativ	gesittet	sonnig	engstirnig	ausrottung	töten	krank	geizig	sterben	gütig	kuss	besonnen	vergnügt	genießen	vertrauen	gierig	krise	bange	verbissen	gemein	versagen	1	blank2r.bmp	0	1	+	0	1	blank2r.bmp	500	1	DHJF	500	1	blank2r.bmp	880	4	kreativ	880	1	!	1232	1	!	1274	0	0	0	0	0	0
2024-05-02	10:30:36	10:41:52	676129	6.6.1	4_exp_EVA_AWA_CON	8	A	B	Rpleas_acq	Oppo	Rpleas	2pleas	acq_US_pleas_nomask	acq45_nomask	4	5	400	0	300	300	0	0	501	50	1	0	engagiert	anregung	träumen	kreativ	gesittet	sonnig	engstirnig	ausrottung	töten	krank	geizig	sterben	gütig	kuss	besonnen	vergnügt	genießen	vertrauen	gierig	krise	bange	verbissen	gemein	versagen	1	blank2r.bmp	0	1	+	0	1	blank2r.bmp	500	1	DHJF	500	1	blank2r.bmp	880	5	gesittet	880	1	!	1232	1	!	-1	0	0	0	0	0	0
2024-05-02	10:30:36	10:41:54	678217	6.6.1	4_exp_EVA_AWA_CON	8	A	B	Rpleas_acq	Oppo	Rpleas	2pleas	acq_US_unple_nomask	acq45_nomask	4	6	400	0	300	300	0	0	307	46	1	0	engagiert	anregung	träumen	kreativ	gesittet	sonnig	engstirnig	ausrottung	töten	krank	geizig	sterben	gütig	kuss	besonnen	vergnügt	genießen	vertrauen	gierig	krise	bange	verbissen	gemein	versagen	1	blank2r.bmp	0	1	+	0	1	blank2r.bmp	500	1	CPLW	500	1	blank2r.bmp	880	5	geizig	880	1	!	-1	1	!	-1	0	0	0	0	0	0
2024-05-02	10:30:36	10:41:57	680537	6.6.1	4_exp_EVA_AWA_CON	8	A	B	Rpleas_acq	Oppo	Rpleas	2pleas	acq_US_unple_nomask	acq45_nomask	4	7	400	0	300	300	0	0	546	46	1	0	engagiert	anregung	träumen	kreativ	gesittet	sonnig	engstirnig	ausrottung	töten	krank	geizig	sterben	gütig	kuss	besonnen	vergnügt	genießen	vertrauen	gierig	krise	bange	verbissen	gemein	versagen	1	blank2r.bmp	0	1	+	0	1	blank2r.bmp	500	1	CPLW	500	1	blank2r.bmp	880	2	ausrottung	880	1	!	1232	1	!	-1	0	0	0	0	0	0
2024-05-02	10:30:36	10:41:59	682633	6.6.1	4_exp_EVA_AWA_CON	8	A	B	Rpleas_acq	Oppo	Rpleas	2pleas	acq_US_pleas_nomask	acq45_nomask	4	8	400	0	300	300	0	0	320	50	1	0	engagiert	anregung	träumen	kreativ	gesittet	sonnig	engstirnig	ausrottung	töten	krank	geizig	sterben	gütig	kuss	besonnen	vergnügt	genießen	vertrauen	gierig	krise	bange	verbissen	gemein	versagen	1	blank2r.bmp	0	1	+	0	1	blank2r.bmp	500	1	DHJF	500	1	blank2r.bmp	880	2	anregung	880	1	!	-1	1	!	-1	0	0	0	0	0	0
2024-05-02	10:30:36	10:42:01	684977	6.6.1	4_exp_EVA_AWA_CON	8	A	B	Rpleas_acq	Oppo	Rpleas	2pleas	acq_US_pleas_nomask	acq45_nomask	4	9	400	0	300	300	0	0	563	50	1	0	engagiert	anregung	träumen	kreativ	gesittet	sonnig	engstirnig	ausrottung	töten	krank	geizig	sterben	gütig	kuss	besonnen	vergnügt	genießen	vertrauen	gierig	krise	bange	verbissen	gemein	versagen	1	blank2r.bmp	0	1	+	0	1	blank2r.bmp	500	1	DHJF	500	1	blank2r.bmp	880	6	sonnig	880	1	!	1232	1	!	-1	0	0	0	0	0	0
2024-05-02	10:30:36	10:42:03	687257	6.6.1	4_exp_EVA_AWA_CON	8	A	B	Rpleas_acq	Oppo	Rpleas	2pleas	acq_US_unple_nomask	acq45_nomask	4	10	400	0	300	300	0	0	502	46	1	0	engagiert	anregung	träumen	kreativ	gesittet	sonnig	engstirnig	ausrottung	töten	krank	geizig	sterben	gütig	kuss	besonnen	vergnügt	genießen	vertrauen	gierig	krise	bange	verbissen	gemein	versagen	1	blank2r.bmp	0	1	+	0	1	blank2r.bmp	500	1	CPLW	500	1	blank2r.bmp	880	1	engstirnig	880	1	!	1232	1	!	-1	0	0	0	0	0	0
2024-05-02	10:30:36	10:42:06	689561	6.6.1	4_exp_EVA_AWA_CON	8	A	B	Rpleas_acq	Oppo	Rpleas	2pleas	acq_US_pleas_nomask	acq45_nomask	4	11	400	0	300	300	0	0	524	50	1	0	engagiert	anregung	träumen	kreativ	gesittet	sonnig	engstirnig	ausrottung	töten	krank	geizig	sterben	gütig	kuss	besonnen	vergnügt	genießen	vertrauen	gierig	krise	bange	verbissen	gemein	versagen	1	blank2r.bmp	0	1	+	0	1	blank2r.bmp	500	1	DHJF	500	1	blank2r.bmp	880	1	engagiert	880	1	!	1232	1	!	-1	0	0	0	0	0	0
2024-05-02	10:30:36	10:42:08	691833	6.6.1	4_exp_EVA_AWA_CON	8	A	B	Rpleas_acq	Oppo	Rpleas	2pleas	acq_US_unple_nomask	acq45_nomask	4	12	400	0	300	300	0	0	495	46	1	0	engagiert	anregung	träumen	kreativ	gesittet	sonnig	engstirnig	ausrottung	töten	krank	geizig	sterben	gütig	kuss	besonnen	vergnügt	genießen	vertrauen	gierig	krise	bange	verbissen	gemein	versagen	1	blank2r.bmp	0	1	+	0	1	blank2r.bmp	500	1	CPLW	500	1	blank2r.bmp	880	4	krank	880	1	!	1232	1	!	-1	0	0	0	0	0	0
2024-05-02	10:30:36	10:42:10	693921	6.6.1	4_exp_EVA_AWA_CON	8	A	B	Rpleas_acq	Oppo	Rpleas	2pleas	acq_US_pleas_nomask	acq45_nomask	4	13	400	0	300	300	0	0	311	50	1	0	engagiert	anregung	träumen	kreativ	gesittet	sonnig	engstirnig	ausrottung	töten	krank	geizig	sterben	gütig	kuss	besonnen	vergnügt	genießen	vertrauen	gierig	krise	bange	verbissen	gemein	versagen	1	blank2r.bmp	0	1	+	0	1	blank2r.bmp	500	1	DHJF	500	1	blank2r.bmp	880	6	sonnig	880	1	!	-1	1	!	-1	0	0	0	0	0	0
2024-05-02	10:30:36	10:42:12	696154	6.6.1	4_exp_EVA_AWA_CON	8	A	B	Rpleas_acq	Oppo	Rpleas	2pleas	acq_US_unple_nomask	acq45_nomask	4	14	400	1	300	300	0	0	452	46	1	0	engagiert	anregung	träumen	kreativ	gesittet	sonnig	engstirnig	ausrottung	töten	krank	geizig	sterben	gütig	kuss	besonnen	vergnügt	genießen	vertrauen	gierig	krise	bange	verbissen	gemein	versagen	1	blank2r.bmp	0	1	+	0	1	blank2r.bmp	500	1	CPLW	500	1	blank2r.bmp	880	6	sterben	880	1	!	1232	1	!	1353	0	0	0	0	0	0
2024-05-02	10:30:36	10:42:14	698323	6.6.1	4_exp_EVA_AWA_CON	8	A	B	Rpleas_acq	Oppo	Rpleas	2pleas	acq_US_unple_nomask	acq45_nomask	4	15	400	1	300	300	0	0	388	50	0	0	engagiert	anregung	träumen	kreativ	gesittet	sonnig	engstirnig	ausrottung	töten	krank	geizig	sterben	gütig	kuss	besonnen	vergnügt	genießen	vertrauen	gierig	krise	bange	verbissen	gemein	versagen	1	blank2r.bmp	0	1	+	0	1	blank2r.bmp	500	1	CPLW	500	1	blank2r.bmp	880	6	sterben	880	1	!	1232	1	!	1290	0	0	0	0	0	0
2024-05-02	10:30:36	10:42:17	700633	6.6.1	4_exp_EVA_AWA_CON	8	A	B	Rpleas_acq	Oppo	Rpleas	2pleas	acq_US_unple_nomask	acq45_nomask	4	16	400	0	300	300	0	0	529	46	1	0	engagiert	anregung	träumen	kreativ	gesittet	sonnig	engstirnig	ausrottung	töten	krank	geizig	sterben	gütig	kuss	besonnen	vergnügt	genießen	vertrauen	gierig	krise	bange	verbissen	gemein	versagen	1	blank2r.bmp	0	1	+	0	1	blank2r.bmp	500	1	CPLW	500	1	blank2r.bmp	880	4	krank	880	1	!	1232	1	!	-1	0	0	0	0	0	0
2024-05-02	10:30:36	10:42:19	702946	6.6.1	4_exp_EVA_AWA_CON	8	A	B	Rpleas_acq	Oppo	Rpleas	2pleas	acq_US_unple_nomask	acq45_nomask	4	17	400	0	300	300	0	0	530	46	1	0	engagiert	anregung	träumen	kreativ	gesittet	sonnig	engstirnig	ausrottung	töten	krank	geizig	sterben	gütig	kuss	besonnen	vergnügt	genießen	vertrauen	gierig	krise	bange	verbissen	gemein	versagen	1	blank2r.bmp	0	1	+	0	1	blank2r.bmp	500	1	CPLW	500	1	blank2r.bmp	880	3	töten	880	1	!	1232	1	!	-1	0	0	0	0	0	0
2024-05-02	10:30:36	10:42:21	705108	6.6.1	4_exp_EVA_AWA_CON	8	A	B	Rpleas_acq	Oppo	Rpleas	2pleas	acq_US_pleas_nomask	acq45_nomask	4	18	400	1	300	300	0	0	378	50	1	0	engagiert	anregung	träumen	kreativ	gesittet	sonnig	engstirnig	ausrottung	töten	krank	geizig	sterben	gütig	kuss	besonnen	vergnügt	genießen	vertrauen	gierig	krise	bange	verbissen	gemein	versagen	1	blank2r.bmp	0	1	+	0	1	blank2r.bmp	500	1	DHJF	500	1	blank2r.bmp	880	2	anregung	880	1	!	1232	1	!	1279	0	0	0	0	0	0
2024-05-02	10:30:36	10:42:23	707267	6.6.1	4_exp_EVA_AWA_CON	8	A	B	Rpleas_acq	Oppo	Rpleas	2pleas	acq_US_pleas_nomask	acq45_nomask	4	19	400	1	300	300	0	0	377	46	0	0	engagiert	anregung	träumen	kreativ	gesittet	sonnig	engstirnig	ausrottung	töten	krank	geizig	sterben	gütig	kuss	besonnen	vergnügt	genießen	vertrauen	gierig	krise	bange	verbissen	gemein	versagen	1	blank2r.bmp	0	1	+	0	1	blank2r.bmp	500	1	DHJF	500	1	blank2r.bmp	880	5	gesittet	880	1	!	1232	1	!	1278	0	0	0	0	0	0
2024-05-02	10:30:36	10:42:26	709585	6.6.1	4_exp_EVA_AWA_CON	8	A	B	Rpleas_acq	Oppo	Rpleas	2pleas	acq_US_pleas_nomask	acq45_nomask	4	20	400	0	300	300	0	0	545	50	1	0	engagiert	anregung	träumen	kreativ	gesittet	sonnig	engstirnig	ausrottung	töten	krank	geizig	sterben	gütig	kuss	besonnen	vergnügt	genießen	vertrauen	gierig	krise	bange	verbissen	gemein	versagen	1	blank2r.bmp	0	1	+	0	1	blank2r.bmp	500	1	DHJF	500	1	blank2r.bmp	880	3	träumen	880	1	!	1232	1	!	-1	0	0	0	0	0	0
2024-05-02	10:30:36	10:42:28	711945	6.6.1	4_exp_EVA_AWA_CON	8	A	B	Rpleas_acq	Oppo	Rpleas	2pleas	acq_US_pleas_nomask	acq45_nomask	4	21	400	0	300	300	0	0	584	50	1	0	engagiert	anregung	träumen	kreativ	gesittet	sonnig	engstirnig	ausrottung	töten	krank	geizig	sterben	gütig	kuss	besonnen	vergnügt	genießen	vertrauen	gierig	krise	bange	verbissen	gemein	versagen	1	blank2r.bmp	0	1	+	0	1	blank2r.bmp	500	1	DHJF	500	1	blank2r.bmp	880	4	kreativ	880	1	!	1232	1	!	-1	0	0	0	0	0	0
2024-05-02	10:30:36	10:42:30	714199	6.6.1	4_exp_EVA_AWA_CON	8	A	B	Rpleas_acq	Oppo	Rpleas	2pleas	acq_US_pleas_nomask	acq45_nomask	4	22	400	0	300	300	0	0	478	50	1	0	engagiert	anregung	träumen	kreativ	gesittet	sonnig	engstirnig	ausrottung	töten	krank	geizig	sterben	gütig	kuss	besonnen	vergnügt	genießen	vertrauen	gierig	krise	bange	verbissen	gemein	versagen	1	blank2r.bmp	0	1	+	0	1	blank2r.bmp	500	1	DHJF	500	1	blank2r.bmp	880	6	sonnig	880	1	!	1232	1	!	-1	0	0	0	0	0	0
2024-05-02	10:30:36	10:42:33	716513	6.6.1	4_exp_EVA_AWA_CON	8	A	B	Rpleas_acq	Oppo	Rpleas	2pleas	acq_US_pleas_nomask	acq45_nomask	4	23	400	0	300	300	0	0	539	50	1	0	engagiert	anregung	träumen	kreativ	gesittet	sonnig	engstirnig	ausrottung	töten	krank	geizig	sterben	gütig	kuss	besonnen	vergnügt	genießen	vertrauen	gierig	krise	bange	verbissen	gemein	versagen	1	blank2r.bmp	0	1	+	0	1	blank2r.bmp	500	1	DHJF	500	1	blank2r.bmp	880	5	gesittet	880	1	!	1232	1	!	-1	0	0	0	0	0	0
2024-05-02	10:30:36	10:42:35	718801	6.6.1	4_exp_EVA_AWA_CON	8	A	B	Rpleas_acq	Oppo	Rpleas	2pleas	acq_US_unple_nomask	acq45_nomask	4	24	400	0	300	300	0	0	515	46	1	0	engagiert	anregung	träumen	kreativ	gesittet	sonnig	engstirnig	ausrottung	töten	krank	geizig	sterben	gütig	kuss	besonnen	vergnügt	genießen	vertrauen	gierig	krise	bange	verbissen	gemein	versagen	1	blank2r.bmp	0	1	+	0	1	blank2r.bmp	500	1	CPLW	500	1	blank2r.bmp	880	2	ausrottung	880	1	!	1232	1	!	-1	0	0	0	0	0	0
2024-05-02	10:30:36	10:42:37	721258	6.6.1	4_exp_EVA_AWA_CON	8	A	B	Rpleas_acq	Oppo	Rpleas	2pleas	acq_US_pleas_nomask	acq45_nomask	4	25	400	0	300	300	0	0	680	50	1	0	engagiert	anregung	träumen	kreativ	gesittet	sonnig	engstirnig	ausrottung	töten	krank	geizig	sterben	gütig	kuss	besonnen	vergnügt	genießen	vertrauen	gierig	krise	bange	verbissen	gemein	versagen	1	blank2r.bmp	0	1	+	0	1	blank2r.bmp	500	1	DHJF	500	1	blank2r.bmp	880	2	anregung	880	1	!	1233	1	!	-1	0	0	0	0	0	0
2024-05-02	10:30:36	10:42:40	723585	6.6.1	4_exp_EVA_AWA_CON	8	A	B	Rpleas_acq	Oppo	Rpleas	2pleas	acq_US_unple_nomask	acq45_nomask	4	26	400	0	300	300	0	0	546	46	1	0	engagiert	anregung	träumen	kreativ	gesittet	sonnig	engstirnig	ausrottung	töten	krank	geizig	sterben	gütig	kuss	besonnen	vergnügt	genießen	vertrauen	gierig	krise	bange	verbissen	gemein	versagen	1	blank2r.bmp	0	1	+	0	1	blank2r.bmp	500	1	CPLW	500	1	blank2r.bmp	880	5	geizig	880	1	!	1232	1	!	-1	0	0	0	0	0	0
2024-05-02	10:30:36	10:42:42	725715	6.6.1	4_exp_EVA_AWA_CON	8	A	B	Rpleas_acq	Oppo	Rpleas	2pleas	acq_US_pleas_nomask	acq45_nomask	4	27	400	1	300	300	0	0	353	50	1	0	engagiert	anregung	träumen	kreativ	gesittet	sonnig	engstirnig	ausrottung	töten	krank	geizig	sterben	gütig	kuss	besonnen	vergnügt	genießen	vertrauen	gierig	krise	bange	verbissen	gemein	versagen	1	blank2r.bmp	0	1	+	0	1	blank2r.bmp	500	1	DHJF	500	1	blank2r.bmp	880	3	träumen	880	1	!	1233	1	!	1254	0	0	0	0	0	0
2024-05-02	10:30:36	10:42:44	727931	6.6.1	4_exp_EVA_AWA_CON	8	A	B	Rpleas_acq	Oppo	Rpleas	2pleas	acq_US_pleas_nomask	acq45_nomask	4	28	400	1	300	300	0	0	437	50	1	0	engagiert	anregung	träumen	kreativ	gesittet	sonnig	engstirnig	ausrottung	töten	krank	geizig	sterben	gütig	kuss	besonnen	vergnügt	genießen	vertrauen	gierig	krise	bange	verbissen	gemein	versagen	1	blank2r.bmp	0	1	+	0	1	blank2r.bmp	500	1	DHJF	500	1	blank2r.bmp	880	4	kreativ	880	1	!	1232	1	!	1339	0	0	0	0	0	0
2024-05-02	10:30:36	10:42:46	730209	6.6.1	4_exp_EVA_AWA_CON	8	A	B	Rpleas_acq	Oppo	Rpleas	2pleas	acq_US_unple_nomask	acq45_nomask	4	29	400	0	300	300	0	0	496	50	0	0	engagiert	anregung	träumen	kreativ	gesittet	sonnig	engstirnig	ausrottung	töten	krank	geizig	sterben	gütig	kuss	besonnen	vergnügt	genießen	vertrauen	gierig	krise	bange	verbissen	gemein	versagen	1	blank2r.bmp	0	1	+	0	1	blank2r.bmp	500	1	CPLW	500	1	blank2r.bmp	880	1	engstirnig	880	1	!	1232	1	!	-1	0	0	0	0	0	0
2024-05-02	10:30:36	10:42:49	732833	6.6.1	4_exp_EVA_AWA_CON	8	A	B	Rpleas_acq	Oppo	Rpleas	2pleas	acq_US_pleas_nomask	acq45_nomask	4	30	400	0	300	300	0	0	848	50	1	0	engagiert	anregung	träumen	kreativ	gesittet	sonnig	engstirnig	ausrottung	töten	krank	geizig	sterben	gütig	kuss	besonnen	vergnügt	genießen	vertrauen	gierig	krise	bange	verbissen	gemein	versagen	1	blank2r.bmp	0	1	+	0	1	blank2r.bmp	500	1	DHJF	500	1	blank2r.bmp	880	1	engagiert	880	1	!	1232	1	!	-1	0	0	0	0	0	0
2024-05-02	10:30:36	10:42:51	734979	6.6.1	4_exp_EVA_AWA_CON	8	A	B	Rpleas_acq	Oppo	Rpleas	2pleas	acq_US_unple_nomask	acq45_nomask	4	31	400	1	300	300	0	0	371	46	1	0	engagiert	anregung	träumen	kreativ	gesittet	sonnig	engstirnig	ausrottung	töten	krank	geizig	sterben	gütig	kuss	besonnen	vergnügt	genießen	vertrauen	gierig	krise	bange	verbissen	gemein	versagen	1	blank2r.bmp	0	1	+	0	1	blank2r.bmp	500	1	CPLW	500	1	blank2r.bmp	880	5	geizig	880	1	!	1232	1	!	1273	0	0	0	0	0	0
2024-05-02	10:30:36	10:42:53	737219	6.6.1	4_exp_EVA_AWA_CON	8	A	B	Rpleas_acq	Oppo	Rpleas	2pleas	acq_US_unple_nomask	acq45_nomask	4	32	400	1	300	300	0	0	459	46	1	0	engagiert	anregung	träumen	kreativ	gesittet	sonnig	engstirnig	ausrottung	töten	krank	geizig	sterben	gütig	kuss	besonnen	vergnügt	genießen	vertrauen	gierig	krise	bange	verbissen	gemein	versagen	1	blank2r.bmp	0	1	+	0	1	blank2r.bmp	500	1	CPLW	500	1	blank2r.bmp	880	3	töten	880	1	!	1233	1	!	1361	0	0	0	0	0	0
2024-05-02	10:30:36	10:42:56	739466	6.6.1	4_exp_EVA_AWA_CON	8	A	B	Rpleas_acq	Oppo	Rpleas	2pleas	acq_US_unple_nomask	acq45_nomask	4	33	400	1	300	300	0	0	466	50	0	0	engagiert	anregung	träumen	kreativ	gesittet	sonnig	engstirnig	ausrottung	töten	krank	geizig	sterben	gütig	kuss	besonnen	vergnügt	genießen	vertrauen	gierig	krise	bange	verbissen	gemein	versagen	1	blank2r.bmp	0	1	+	0	1	blank2r.bmp	500	1	CPLW	500	1	blank2r.bmp	880	1	engstirnig	880	1	!	1232	1	!	1367	0	0	0	0	0	0
2024-05-02	10:30:36	10:42:58	741719	6.6.1	4_exp_EVA_AWA_CON	8	A	B	Rpleas_acq	Oppo	Rpleas	2pleas	acq_US_unple_nomask	acq45_nomask	4	34	400	0	300	300	0	0	481	46	1	0	engagiert	anregung	träumen	kreativ	gesittet	sonnig	engstirnig	ausrottung	töten	krank	geizig	sterben	gütig	kuss	besonnen	vergnügt	genießen	vertrauen	gierig	krise	bange	verbissen	gemein	versagen	1	blank2r.bmp	0	1	+	0	1	blank2r.bmp	500	1	CPLW	500	1	blank2r.bmp	880	6	sterben	880	1	!	1232	1	!	-1	0	0	0	0	0	0
2024-05-02	10:30:36	10:43:00	743931	6.6.1	4_exp_EVA_AWA_CON	8	A	B	Rpleas_acq	Oppo	Rpleas	2pleas	acq_US_unple_nomask	acq45_nomask	4	35	400	1	300	300	0	0	437	46	1	0	engagiert	anregung	träumen	kreativ	gesittet	sonnig	engstirnig	ausrottung	töten	krank	geizig	sterben	gütig	kuss	besonnen	vergnügt	genießen	vertrauen	gierig	krise	bange	verbissen	gemein	versagen	1	blank2r.bmp	0	1	+	0	1	blank2r.bmp	500	1	CPLW	500	1	blank2r.bmp	880	4	krank	880	1	!	1232	1	!	1338	0	0	0	0	0	0
2024-05-02	10:30:36	10:43:02	746369	6.6.1	4_exp_EVA_AWA_CON	8	A	B	Rpleas_acq	Oppo	Rpleas	2pleas	acq_US_unple_nomask	acq45_nomask	4	36	400	0	300	300	0	0	666	46	1	0	engagiert	anregung	träumen	kreativ	gesittet	sonnig	engstirnig	ausrottung	töten	krank	geizig	sterben	gütig	kuss	besonnen	vergnügt	genießen	vertrauen	gierig	krise	bange	verbissen	gemein	versagen	1	blank2r.bmp	0	1	+	0	1	blank2r.bmp	500	1	CPLW	500	1	blank2r.bmp	880	2	ausrottung	880	1	!	1232	1	!	-1	0	0	0	0	0	0
2024-05-02	10:30:36	10:43:32	775415	6.6.1	4_exp_EVA_AWA_CON	8	A	B	Rpleas_acq	Oppo	Rpleas	2pleas	acq_US_unple_nomask	acq45_nomask	5	1	400	0	300	300	0	0	475	46	1	0	engagiert	anregung	träumen	kreativ	gesittet	sonnig	engstirnig	ausrottung	töten	krank	geizig	sterben	gütig	kuss	besonnen	vergnügt	genießen	vertrauen	gierig	krise	bange	verbissen	gemein	versagen	1	blank2r.bmp	0	1	+	0	1	blank2r.bmp	500	1	CPLW	500	1	blank2r.bmp	880	4	krank	880	1	!	1232	1	!	-1	0	0	0	0	0	0
2024-05-02	10:30:36	10:43:34	777689	6.6.1	4_exp_EVA_AWA_CON	8	A	B	Rpleas_acq	Oppo	Rpleas	2pleas	acq_US_unple_nomask	acq45_nomask	5	2	400	0	300	300	0	0	496	46	1	0	engagiert	anregung	träumen	kreativ	gesittet	sonnig	engstirnig	ausrottung	töten	krank	geizig	sterben	gütig	kuss	besonnen	vergnügt	genießen	vertrauen	gierig	krise	bange	verbissen	gemein	versagen	1	blank2r.bmp	0	1	+	0	1	blank2r.bmp	500	1	CPLW	500	1	blank2r.bmp	880	2	ausrottung	880	1	!	1232	1	!	-1	0	0	0	0	0	0
2024-05-02	10:30:36	10:43:36	779986	6.6.1	4_exp_EVA_AWA_CON	8	A	B	Rpleas_acq	Oppo	Rpleas	2pleas	acq_US_pleas_nomask	acq45_nomask	5	3	400	0	300	300	0	0	520	50	1	0	engagiert	anregung	träumen	kreativ	gesittet	sonnig	engstirnig	ausrottung	töten	krank	geizig	sterben	gütig	kuss	besonnen	vergnügt	genießen	vertrauen	gierig	krise	bange	verbissen	gemein	versagen	1	blank2r.bmp	0	1	+	0	1	blank2r.bmp	500	1	DHJF	500	1	blank2r.bmp	880	2	anregung	880	1	!	1232	1	!	-1	0	0	0	0	0	0
2024-05-02	10:30:36	10:43:38	782171	6.6.1	4_exp_EVA_AWA_CON	8	A	B	Rpleas_acq	Oppo	Rpleas	2pleas	acq_US_unple_nomask	acq45_nomask	5	4	400	1	300	300	0	0	403	46	1	0	engagiert	anregung	träumen	kreativ	gesittet	sonnig	engstirnig	ausrottung	töten	krank	geizig	sterben	gütig	kuss	besonnen	vergnügt	genießen	vertrauen	gierig	krise	bange	verbissen	gemein	versagen	1	blank2r.bmp	0	1	+	0	1	blank2r.bmp	500	1	CPLW	500	1	blank2r.bmp	880	3	töten	880	1	!	1232	1	!	1305	0	0	0	0	0	0
2024-05-02	10:30:36	10:43:40	784403	6.6.1	4_exp_EVA_AWA_CON	8	A	B	Rpleas_acq	Oppo	Rpleas	2pleas	acq_US_unple_nomask	acq45_nomask	5	5	400	1	300	300	0	0	453	46	1	0	engagiert	anregung	träumen	kreativ	gesittet	sonnig	engstirnig	ausrottung	töten	krank	geizig	sterben	gütig	kuss	besonnen	vergnügt	genießen	vertrauen	gierig	krise	bange	verbissen	gemein	versagen	1	blank2r.bmp	0	1	+	0	1	blank2r.bmp	500	1	CPLW	500	1	blank2r.bmp	880	6	sterben	880	1	!	1232	1	!	1354	0	0	0	0	0	0
2024-05-02	10:30:36	10:43:43	786651	6.6.1	4_exp_EVA_AWA_CON	8	A	B	Rpleas_acq	Oppo	Rpleas	2pleas	acq_US_unple_nomask	acq45_nomask	5	6	400	1	300	300	0	0	470	46	1	0	engagiert	anregung	träumen	kreativ	gesittet	sonnig	engstirnig	ausrottung	töten	krank	geizig	sterben	gütig	kuss	besonnen	vergnügt	genießen	vertrauen	gierig	krise	bange	verbissen	gemein	versagen	1	blank2r.bmp	0	1	+	0	1	blank2r.bmp	500	1	CPLW	500	1	blank2r.bmp	880	5	geizig	880	1	!	1233	1	!	1372	0	0	0	0	0	0
2024-05-02	10:30:36	10:43:45	788953	6.6.1	4_exp_EVA_AWA_CON	8	A	B	Rpleas_acq	Oppo	Rpleas	2pleas	acq_US_pleas_nomask	acq45_nomask	5	7	400	0	300	300	0	0	522	50	1	0	engagiert	anregung	träumen	kreativ	gesittet	sonnig	engstirnig	ausrottung	töten	krank	geizig	sterben	gütig	kuss	besonnen	vergnügt	genießen	vertrauen	gierig	krise	bange	verbissen	gemein	versagen	1	blank2r.bmp	0	1	+	0	1	blank2r.bmp	500	1	DHJF	500	1	blank2r.bmp	880	1	engagiert	880	1	!	1232	1	!	-1	0	0	0	0	0	0
2024-05-02	10:30:36	10:43:47	791305	6.6.1	4_exp_EVA_AWA_CON	8	A	B	Rpleas_acq	Oppo	Rpleas	2pleas	acq_US_pleas_nomask	acq45_nomask	5	8	400	0	300	300	0	0	573	46	0	0	engagiert	anregung	träumen	kreativ	gesittet	sonnig	engstirnig	ausrottung	töten	krank	geizig	sterben	gütig	kuss	besonnen	vergnügt	genießen	vertrauen	gierig	krise	bange	verbissen	gemein	versagen	1	blank2r.bmp	0	1	+	0	1	blank2r.bmp	500	1	DHJF	500	1	blank2r.bmp	880	5	gesittet	880	1	!	1232	1	!	-1	0	0	0	0	0	0
2024-05-02	10:30:36	10:43:50	793777	6.6.1	4_exp_EVA_AWA_CON	8	A	B	Rpleas_acq	Oppo	Rpleas	2pleas	acq_US_unple_nomask	acq45_nomask	5	9	400	0	300	300	0	0	693	46	1	0	engagiert	anregung	träumen	kreativ	gesittet	sonnig	engstirnig	ausrottung	töten	krank	geizig	sterben	gütig	kuss	besonnen	vergnügt	genießen	vertrauen	gierig	krise	bange	verbissen	gemein	versagen	1	blank2r.bmp	0	1	+	0	1	blank2r.bmp	500	1	CPLW	500	1	blank2r.bmp	880	1	engstirnig	880	1	!	1232	1	!	-1	0	0	0	0	0	0
2024-05-02	10:30:36	10:43:52	795963	6.6.1	4_exp_EVA_AWA_CON	8	A	B	Rpleas_acq	Oppo	Rpleas	2pleas	acq_US_pleas_nomask	acq45_nomask	5	10	400	1	300	300	0	0	406	50	1	0	engagiert	anregung	träumen	kreativ	gesittet	sonnig	engstirnig	ausrottung	töten	krank	geizig	sterben	gütig	kuss	besonnen	vergnügt	genießen	vertrauen	gierig	krise	bange	verbissen	gemein	versagen	1	blank2r.bmp	0	1	+	0	1	blank2r.bmp	500	1	DHJF	500	1	blank2r.bmp	880	4	kreativ	880	1	!	1232	1	!	1307	0	0	0	0	0	0
2024-05-02	10:30:36	10:43:54	798257	6.6.1	4_exp_EVA_AWA_CON	8	A	B	Rpleas_acq	Oppo	Rpleas	2pleas	acq_US_pleas_nomask	acq45_nomask	5	11	400	0	300	300	0	0	520	50	1	0	engagiert	anregung	träumen	kreativ	gesittet	sonnig	engstirnig	ausrottung	töten	krank	geizig	sterben	gütig	kuss	besonnen	vergnügt	genießen	vertrauen	gierig	krise	bange	verbissen	gemein	versagen	1	blank2r.bmp	0	1	+	0	1	blank2r.bmp	500	1	DHJF	500	1	blank2r.bmp	880	6	sonnig	880	1	!	1232	1	!	-1	0	0	0	0	0	0
2024-05-02	10:30:36	10:43:57	800569	6.6.1	4_exp_EVA_AWA_CON	8	A	B	Rpleas_acq	Oppo	Rpleas	2pleas	acq_US_pleas_nomask	acq45_nomask	5	12	400	0	300	300	0	0	531	50	1	0	engagiert	anregung	träumen	kreativ	gesittet	sonnig	engstirnig	ausrottung	töten	krank	geizig	sterben	gütig	kuss	besonnen	vergnügt	genießen	vertrauen	gierig	krise	bange	verbissen	gemein	versagen	1	blank2r.bmp	0	1	+	0	1	blank2r.bmp	500	1	DHJF	500	1	blank2r.bmp	880	3	träumen	880	1	!	1232	1	!	-1	0	0	0	0	0	0
2024-05-02	10:30:36	10:43:59	802905	6.6.1	4_exp_EVA_AWA_CON	8	A	B	Rpleas_acq	Oppo	Rpleas	2pleas	acq_US_pleas_nomask	acq45_nomask	5	13	400	0	300	300	0	0	555	50	1	0	engagiert	anregung	träumen	kreativ	gesittet	sonnig	engstirnig	ausrottung	töten	krank	geizig	sterben	gütig	kuss	besonnen	vergnügt	genießen	vertrauen	gierig	krise	bange	verbissen	gemein	versagen	1	blank2r.bmp	0	1	+	0	1	blank2r.bmp	500	1	DHJF	500	1	blank2r.bmp	880	1	engagiert	880	1	!	1232	1	!	-1	0	0	0	0	0	0
2024-05-02	10:30:36	10:44:01	805146	6.6.1	4_exp_EVA_AWA_CON	8	A	B	Rpleas_acq	Oppo	Rpleas	2pleas	acq_US_pleas_nomask	acq45_nomask	5	14	400	1	300	300	0	0	464	50	1	0	engagiert	anregung	träumen	kreativ	gesittet	sonnig	engstirnig	ausrottung	töten	krank	geizig	sterben	gütig	kuss	besonnen	vergnügt	genießen	vertrauen	gierig	krise	bange	verbissen	gemein	versagen	1	blank2r.bmp	0	1	+	0	1	blank2r.bmp	500	1	DHJF	500	1	blank2r.bmp	880	4	kreativ	880	1	!	1232	1	!	1365	0	0	0	0	0	0
2024-05-02	10:30:36	10:44:04	807457	6.6.1	4_exp_EVA_AWA_CON	8	A	B	Rpleas_acq	Oppo	Rpleas	2pleas	acq_US_unple_nomask	acq45_nomask	5	15	400	0	300	300	0	0	534	50	0	0	engagiert	anregung	träumen	kreativ	gesittet	sonnig	engstirnig	ausrottung	töten	krank	geizig	sterben	gütig	kuss	besonnen	vergnügt	genießen	vertrauen	gierig	krise	bange	verbissen	gemein	versagen	1	blank2r.bmp	0	1	+	0	1	blank2r.bmp	500	1	CPLW	500	1	blank2r.bmp	880	5	geizig	880	1	!	1232	1	!	-1	0	0	0	0	0	0
2024-05-02	10:30:36	10:44:06	809785	6.6.1	4_exp_EVA_AWA_CON	8	A	B	Rpleas_acq	Oppo	Rpleas	2pleas	acq_US_unple_nomask	acq45_nomask	5	16	400	0	300	300	0	0	551	46	1	0	engagiert	anregung	träumen	kreativ	gesittet	sonnig	engstirnig	ausrottung	töten	krank	geizig	sterben	gütig	kuss	besonnen	vergnügt	genießen	vertrauen	gierig	krise	bange	verbissen	gemein	versagen	1	blank2r.bmp	0	1	+	0	1	blank2r.bmp	500	1	CPLW	500	1	blank2r.bmp	880	4	krank	880	1	!	1233	1	!	-1	0	0	0	0	0	0
2024-05-02	10:30:36	10:44:09	813289	6.6.1	4_exp_EVA_AWA_CON	8	A	B	Rpleas_acq	Oppo	Rpleas	2pleas	acq_US_unple_nomask	acq45_nomask	5	17	400	0	300	300	0	0	1723	46	1	0	engagiert	anregung	träumen	kreativ	gesittet	sonnig	engstirnig	ausrottung	töten	krank	geizig	sterben	gütig	kuss	besonnen	vergnügt	genießen	vertrauen	gierig	krise	bange	verbissen	gemein	versagen	1	blank2r.bmp	0	1	+	0	1	blank2r.bmp	500	1	CPLW	500	1	blank2r.bmp	880	2	ausrottung	880	1	!	1232	1	!	-1	0	0	0	0	0	0
2024-05-02	10:30:36	10:44:12	815585	6.6.1	4_exp_EVA_AWA_CON	8	A	B	Rpleas_acq	Oppo	Rpleas	2pleas	acq_US_pleas_nomask	acq45_nomask	5	18	400	0	300	300	0	0	517	50	1	0	engagiert	anregung	träumen	kreativ	gesittet	sonnig	engstirnig	ausrottung	töten	krank	geizig	sterben	gütig	kuss	besonnen	vergnügt	genießen	vertrauen	gierig	krise	bange	verbissen	gemein	versagen	1	blank2r.bmp	0	1	+	0	1	blank2r.bmp	500	1	DHJF	500	1	blank2r.bmp	880	6	sonnig	880	1	!	1232	1	!	-1	0	0	0	0	0	0
2024-05-02	10:30:36	10:44:14	817897	6.6.1	4_exp_EVA_AWA_CON	8	A	B	Rpleas_acq	Oppo	Rpleas	2pleas	acq_US_pleas_nomask	acq45_nomask	5	19	400	0	300	300	0	0	538	50	1	0	engagiert	anregung	träumen	kreativ	gesittet	sonnig	engstirnig	ausrottung	töten	krank	geizig	sterben	gütig	kuss	besonnen	vergnügt	genießen	vertrauen	gierig	krise	bange	verbissen	gemein	versagen	1	blank2r.bmp	0	1	+	0	1	blank2r.bmp	500	1	DHJF	500	1	blank2r.bmp	880	3	träumen	880	1	!	1232	1	!	-1	0	0	0	0	0	0
2024-05-02	10:30:36	10:44:17	820457	6.6.1	4_exp_EVA_AWA_CON	8	A	B	Rpleas_acq	Oppo	Rpleas	2pleas	acq_US_unple_nomask	acq45_nomask	5	20	400	0	300	300	0	0	786	46	1	0	engagiert	anregung	träumen	kreativ	gesittet	sonnig	engstirnig	ausrottung	töten	krank	geizig	sterben	gütig	kuss	besonnen	vergnügt	genießen	vertrauen	gierig	krise	bange	verbissen	gemein	versagen	1	blank2r.bmp	0	1	+	0	1	blank2r.bmp	500	1	CPLW	500	1	blank2r.bmp	880	3	töten	880	1	!	1232	1	!	-1	0	0	0	0	0	0
2024-05-02	10:30:36	10:44:19	822985	6.6.1	4_exp_EVA_AWA_CON	8	A	B	Rpleas_acq	Oppo	Rpleas	2pleas	acq_US_unple_nomask	acq45_nomask	5	21	400	0	300	300	0	0	753	46	1	0	engagiert	anregung	träumen	kreativ	gesittet	sonnig	engstirnig	ausrottung	töten	krank	geizig	sterben	gütig	kuss	besonnen	vergnügt	genießen	vertrauen	gierig	krise	bange	verbissen	gemein	versagen	1	blank2r.bmp	0	1	+	0	1	blank2r.bmp	500	1	CPLW	500	1	blank2r.bmp	880	1	engstirnig	880	1	!	1232	1	!	-1	0	0	0	0	0	0
2024-05-02	10:30:36	10:44:21	825265	6.6.1	4_exp_EVA_AWA_CON	8	A	B	Rpleas_acq	Oppo	Rpleas	2pleas	acq_US_pleas_nomask	acq45_nomask	5	22	400	0	300	300	0	0	501	50	1	0	engagiert	anregung	träumen	kreativ	gesittet	sonnig	engstirnig	ausrottung	töten	krank	geizig	sterben	gütig	kuss	besonnen	vergnügt	genießen	vertrauen	gierig	krise	bange	verbissen	gemein	versagen	1	blank2r.bmp	0	1	+	0	1	blank2r.bmp	500	1	DHJF	500	1	blank2r.bmp	880	5	gesittet	880	1	!	1232	1	!	-1	0	0	0	0	0	0
2024-05-02	10:30:36	10:44:24	827467	6.6.1	4_exp_EVA_AWA_CON	8	A	B	Rpleas_acq	Oppo	Rpleas	2pleas	acq_US_unple_nomask	acq45_nomask	5	23	400	1	300	300	0	0	420	46	1	0	engagiert	anregung	träumen	kreativ	gesittet	sonnig	engstirnig	ausrottung	töten	krank	geizig	sterben	gütig	kuss	besonnen	vergnügt	genießen	vertrauen	gierig	krise	bange	verbissen	gemein	versagen	1	blank2r.bmp	0	1	+	0	1	blank2r.bmp	500	1	CPLW	500	1	blank2r.bmp	880	6	sterben	880	1	!	1233	1	!	1322	0	0	0	0	0	0
2024-05-02	10:30:36	10:44:26	829793	6.6.1	4_exp_EVA_AWA_CON	8	A	B	Rpleas_acq	Oppo	Rpleas	2pleas	acq_US_pleas_nomask	acq45_nomask	5	24	400	0	300	300	0	0	546	50	1	0	engagiert	anregung	träumen	kreativ	gesittet	sonnig	engstirnig	ausrottung	töten	krank	geizig	sterben	gütig	kuss	besonnen	vergnügt	genießen	vertrauen	gierig	krise	bange	verbissen	gemein	versagen	1	blank2r.bmp	0	1	+	0	1	blank2r.bmp	500	1	DHJF	500	1	blank2r.bmp	880	2	anregung	880	1	!	1233	1	!	-1	0	0	0	0	0	0
2024-05-02	10:30:36	10:44:28	832273	6.6.1	4_exp_EVA_AWA_CON	8	A	B	Rpleas_acq	Oppo	Rpleas	2pleas	acq_US_unple_nomask	acq45_nomask	5	25	400	0	300	300	0	0	705	46	1	0	engagiert	anregung	träumen	kreativ	gesittet	sonnig	engstirnig	ausrottung	töten	krank	geizig	sterben	gütig	kuss	besonnen	vergnügt	genießen	vertrauen	gierig	krise	bange	verbissen	gemein	versagen	1	blank2r.bmp	0	1	+	0	1	blank2r.bmp	500	1	CPLW	500	1	blank2r.bmp	880	1	engstirnig	880	1	!	1232	1	!	-1	0	0	0	0	0	0
2024-05-02	10:30:36	10:44:31	834633	6.6.1	4_exp_EVA_AWA_CON	8	A	B	Rpleas_acq	Oppo	Rpleas	2pleas	acq_US_unple_nomask	acq45_nomask	5	26	400	0	300	300	0	0	583	46	1	0	engagiert	anregung	träumen	kreativ	gesittet	sonnig	engstirnig	ausrottung	töten	krank	geizig	sterben	gütig	kuss	besonnen	vergnügt	genießen	vertrauen	gierig	krise	bange	verbissen	gemein	versagen	1	blank2r.bmp	0	1	+	0	1	blank2r.bmp	500	1	CPLW	500	1	blank2r.bmp	880	2	ausrottung	880	1	!	1232	1	!	-1	0	0	0	0	0	0
2024-05-02	10:30:36	10:44:33	836913	6.6.1	4_exp_EVA_AWA_CON	8	A	B	Rpleas_acq	Oppo	Rpleas	2pleas	acq_US_unple_nomask	acq45_nomask	5	27	400	0	300	300	0	0	501	46	1	0	engagiert	anregung	träumen	kreativ	gesittet	sonnig	engstirnig	ausrottung	töten	krank	geizig	sterben	gütig	kuss	besonnen	vergnügt	genießen	vertrauen	gierig	krise	bange	verbissen	gemein	versagen	1	blank2r.bmp	0	1	+	0	1	blank2r.bmp	500	1	CPLW	500	1	blank2r.bmp	880	4	krank	880	1	!	1232	1	!	-1	0	0	0	0	0	0
2024-05-02	10:30:36	10:44:35	839377	6.6.1	4_exp_EVA_AWA_CON	8	A	B	Rpleas_acq	Oppo	Rpleas	2pleas	acq_US_pleas_nomask	acq45_nomask	5	28	400	0	300	300	0	0	684	50	1	0	engagiert	anregung	träumen	kreativ	gesittet	sonnig	engstirnig	ausrottung	töten	krank	geizig	sterben	gütig	kuss	besonnen	vergnügt	genießen	vertrauen	gierig	krise	bange	verbissen	gemein	versagen	1	blank2r.bmp	0	1	+	0	1	blank2r.bmp	500	1	DHJF	500	1	blank2r.bmp	880	2	anregung	880	1	!	1232	1	!	-1	0	0	0	0	0	0
2024-05-02	10:30:36	10:44:38	841619	6.6.1	4_exp_EVA_AWA_CON	8	A	B	Rpleas_acq	Oppo	Rpleas	2pleas	acq_US_pleas_nomask	acq45_nomask	5	29	400	1	300	300	0	0	462	50	1	0	engagiert	anregung	träumen	kreativ	gesittet	sonnig	engstirnig	ausrottung	töten	krank	geizig	sterben	gütig	kuss	besonnen	vergnügt	genießen	vertrauen	gierig	krise	bange	verbissen	gemein	versagen	1	blank2r.bmp	0	1	+	0	1	blank2r.bmp	500	1	DHJF	500	1	blank2r.bmp	880	4	kreativ	880	1	!	1232	1	!	1364	0	0	0	0	0	0
2024-05-02	10:30:36	10:44:40	843961	6.6.1	4_exp_EVA_AWA_CON	8	A	B	Rpleas_acq	Oppo	Rpleas	2pleas	acq_US_pleas_nomask	acq45_nomask	5	30	400	0	300	300	0	0	565	50	1	0	engagiert	anregung	träumen	kreativ	gesittet	sonnig	engstirnig	ausrottung	töten	krank	geizig	sterben	gütig	kuss	besonnen	vergnügt	genießen	vertrauen	gierig	krise	bange	verbissen	gemein	versagen	1	blank2r.bmp	0	1	+	0	1	blank2r.bmp	500	1	DHJF	500	1	blank2r.bmp	880	5	gesittet	880	1	!	1232	1	!	-1	0	0	0	0	0	0
2024-05-02	10:30:36	10:44:42	846393	6.6.1	4_exp_EVA_AWA_CON	8	A	B	Rpleas_acq	Oppo	Rpleas	2pleas	acq_US_unple_nomask	acq45_nomask	5	31	400	0	300	300	0	0	656	46	1	0	engagiert	anregung	träumen	kreativ	gesittet	sonnig	engstirnig	ausrottung	töten	krank	geizig	sterben	gütig	kuss	besonnen	vergnügt	genießen	vertrauen	gierig	krise	bange	verbissen	gemein	versagen	1	blank2r.bmp	0	1	+	0	1	blank2r.bmp	500	1	CPLW	500	1	blank2r.bmp	880	5	geizig	880	1	!	1232	1	!	-1	0	0	0	0	0	0
2024-05-02	10:30:36	10:44:45	848690	6.6.1	4_exp_EVA_AWA_CON	8	A	B	Rpleas_acq	Oppo	Rpleas	2pleas	acq_US_pleas_nomask	acq45_nomask	5	32	400	0	300	300	0	0	520	50	1	0	engagiert	anregung	träumen	kreativ	gesittet	sonnig	engstirnig	ausrottung	töten	krank	geizig	sterben	gütig	kuss	besonnen	vergnügt	genießen	vertrauen	gierig	krise	bange	verbissen	gemein	versagen	1	blank2r.bmp	0	1	+	0	1	blank2r.bmp	500	1	DHJF	500	1	blank2r.bmp	880	1	engagiert	880	1	!	1233	1	!	-1	0	0	0	0	0	0
2024-05-02	10:30:36	10:44:47	851121	6.6.1	4_exp_EVA_AWA_CON	8	A	B	Rpleas_acq	Oppo	Rpleas	2pleas	acq_US_unple_nomask	acq45_nomask	5	33	400	0	300	300	0	0	650	46	1	0	engagiert	anregung	träumen	kreativ	gesittet	sonnig	engstirnig	ausrottung	töten	krank	geizig	sterben	gütig	kuss	besonnen	vergnügt	genießen	vertrauen	gierig	krise	bange	verbissen	gemein	versagen	1	blank2r.bmp	0	1	+	0	1	blank2r.bmp	500	1	CPLW	500	1	blank2r.bmp	880	3	töten	880	1	!	1232	1	!	-1	0	0	0	0	0	0
2024-05-02	10:30:36	10:44:50	853449	6.6.1	4_exp_EVA_AWA_CON	8	A	B	Rpleas_acq	Oppo	Rpleas	2pleas	acq_US_unple_nomask	acq45_nomask	5	34	400	0	300	300	0	0	547	46	1	0	engagiert	anregung	träumen	kreativ	gesittet	sonnig	engstirnig	ausrottung	töten	krank	geizig	sterben	gütig	kuss	besonnen	vergnügt	genießen	vertrauen	gierig	krise	bange	verbissen	gemein	versagen	1	blank2r.bmp	0	1	+	0	1	blank2r.bmp	500	1	CPLW	500	1	blank2r.bmp	880	6	sterben	880	1	!	1232	1	!	-1	0	0	0	0	0	0
2024-05-02	10:30:36	10:44:52	855753	6.6.1	4_exp_EVA_AWA_CON	8	A	B	Rpleas_acq	Oppo	Rpleas	2pleas	acq_US_pleas_nomask	acq45_nomask	5	35	400	0	300	300	0	0	529	50	1	0	engagiert	anregung	träumen	kreativ	gesittet	sonnig	engstirnig	ausrottung	töten	krank	geizig	sterben	gütig	kuss	besonnen	vergnügt	genießen	vertrauen	gierig	krise	bange	verbissen	gemein	versagen	1	blank2r.bmp	0	1	+	0	1	blank2r.bmp	500	1	DHJF	500	1	blank2r.bmp	880	6	sonnig	880	1	!	1233	1	!	-1	0	0	0	0	0	0
2024-05-02	10:30:36	10:44:54	858121	6.6.1	4_exp_EVA_AWA_CON	8	A	B	Rpleas_acq	Oppo	Rpleas	2pleas	acq_US_pleas_nomask	acq45_nomask	5	36	400	0	300	300	0	0	586	46	0	0	engagiert	anregung	träumen	kreativ	gesittet	sonnig	engstirnig	ausrottung	töten	krank	geizig	sterben	gütig	kuss	besonnen	vergnügt	genießen	vertrauen	gierig	krise	bange	verbissen	gemein	versagen	1	blank2r.bmp	0	1	+	0	1	blank2r.bmp	500	1	DHJF	500	1	blank2r.bmp	880	3	träumen	880	1	!	1232	1	!	-1	0	0	0	0	0	0
2024-05-02	10:30:36	10:45:27	891189	6.6.1	4_exp_EVA_AWA_CON	8	A	B	Rpleas_acq	Oppo	Lpleas	2pleas	EvalRating_firsttwo	EvalRating_firsttwo	6	1	0	0	300	300	0	0	11991	line	0	-56,3802083333333285964pct	engagiert	anregung	träumen	kreativ	gesittet	sonnig	engstirnig	ausrottung	töten	krank	geizig	sterben	gütig	kuss	besonnen	vergnügt	genießen	vertrauen	gierig	krise	bange	verbissen	gemein	versagen	1		-8	1	Wie angenehm oder unangenehm finden Sie die  Buchstabenkette WDLH?	-8	1		-8	1		-8	1		-8	1	Unangenehm	-8	1	Angenehm	-8	0	0	0	0	0	0	0	0	0
2024-05-02	10:30:36	10:45:35	899125	6.6.1	4_exp_EVA_AWA_CON	8	A	B	Rpleas_acq	Oppo	Lpleas	2pleas	EvalRating_lastfour	EvalRating_lastfour	7	1	0	0	300	300	0	0	5558	line	0	-49,609375pct	engagiert	anregung	träumen	kreativ	gesittet	sonnig	engstirnig	ausrottung	töten	krank	geizig	sterben	gütig	kuss	besonnen	vergnügt	genießen	vertrauen	gierig	krise	bange	verbissen	gemein	versagen	1		-8	2	Wie angenehm oder unangenehm finden Sie die  Buchstabenkette DHJF?	-8	1		-8	1		-8	1		-8	1	Unangenehm	-8	1	Angenehm	-8	0	0	0	0	0	0	0	0	0
2024-05-02	10:30:36	10:45:38	901494	6.6.1	4_exp_EVA_AWA_CON	8	A	B	Rpleas_acq	Oppo	Lpleas	2pleas	blank_screen	EvalRating_lastfour	7	3	0	0	300	300	0	0	0	0	0	-49,609375pct	engagiert	anregung	träumen	kreativ	gesittet	sonnig	engstirnig	ausrottung	töten	krank	geizig	sterben	gütig	kuss	besonnen	vergnügt	genießen	vertrauen	gierig	krise	bange	verbissen	gemein	versagen	1		-8	0	0	0	0	0	0	0	0	0	0	0	0	0	0	0	0	0	0	0	0	0	0	0	0	0	0	0
2024-05-02	10:30:36	10:45:42	905670	6.6.1	4_exp_EVA_AWA_CON	8	A	B	Rpleas_acq	Oppo	Lpleas	2pleas	EvalRating_lastfour	EvalRating_lastfour	7	4	0	0	300	300	0	0	3587	line	0	-17,7083333333333285964pct	engagiert	anregung	träumen	kreativ	gesittet	sonnig	engstirnig	ausrottung	töten	krank	geizig	sterben	gütig	kuss	besonnen	vergnügt	genießen	vertrauen	gierig	krise	bange	verbissen	gemein	versagen	1		-8	1	Wie angenehm oder unangenehm finden Sie die  Buchstabenkette CPLW?	-8	1		-8	1		-8	1		-8	1	Unangenehm	-8	1	Angenehm	-8	0	0	0	0	0	0	0	0	0
2024-05-02	10:30:36	10:45:44	908039	6.6.1	4_exp_EVA_AWA_CON	8	A	B	Rpleas_acq	Oppo	Lpleas	2pleas	blank_screen	EvalRating_lastfour	7	6	0	0	300	300	0	0	0	0	0	-17,7083333333333285964pct	engagiert	anregung	träumen	kreativ	gesittet	sonnig	engstirnig	ausrottung	töten	krank	geizig	sterben	gütig	kuss	besonnen	vergnügt	genießen	vertrauen	gierig	krise	bange	verbissen	gemein	versagen	1		-8	0	0	0	0	0	0	0	0	0	0	0	0	0	0	0	0	0	0	0	0	0	0	0	0	0	0	0
2024-05-02	10:30:36	10:45:48	911869	6.6.1	4_exp_EVA_AWA_CON	8	A	B	Rpleas_acq	Oppo	Lpleas	2pleas	EvalRating_lastfour	EvalRating_lastfour	7	7	0	0	300	300	0	0	3242	line	0	26,5625pct	engagiert	anregung	träumen	kreativ	gesittet	sonnig	engstirnig	ausrottung	töten	krank	geizig	sterben	gütig	kuss	besonnen	vergnügt	genießen	vertrauen	gierig	krise	bange	verbissen	gemein	versagen	1		-8	3	Wie angenehm oder unangenehm finden Sie die  Buchstabenkette FCJP?	-8	1		-8	1		-8	1		-8	1	Unangenehm	-8	1	Angenehm	-8	0	0	0	0	0	0	0	0	0
2024-05-02	10:30:36	10:46:55	978543	6.6.1	4_exp_EVA_AWA_CON	8	A	B	Rpleas_acq	Oppo	Lpleas	2pleas	conawa_CS2_US4	conawa1_nomask	8	1	0	0	300	300	0	0	20052	kreativ	1	26,5625pct	engagiert	anregung	träumen	kreativ	gesittet	sonnig	engstirnig	ausrottung	töten	krank	geizig	sterben	gütig	kuss	besonnen	vergnügt	genießen	vertrauen	gierig	krise	bange	verbissen	gemein	versagen	0	0	0	0	0	0	0	0	0	0	0	0	0	0	0	0	0	0	0	0	0	0	0	0	0	0	0	0	0	0
2024-05-02	10:30:36	10:46:55	978544	6.6.1	4_exp_EVA_AWA_CON	8	A	B	Rpleas_acq	Oppo	Lpleas	2pleas	conawa_CS2_US4_confidence	conawa1_nomask	8	1	0	0	300	300	0	0	20052	probably	1	26,5625pct	engagiert	anregung	träumen	kreativ	gesittet	sonnig	engstirnig	ausrottung	töten	krank	geizig	sterben	gütig	kuss	besonnen	vergnügt	genießen	vertrauen	gierig	krise	bange	verbissen	gemein	versagen	0	0	0	0	0	0	0	0	0	0	0	0	0	0	0	0	0	0	0	0	0	0	0	0	0	0	0	0	0	0
2024-05-02	10:30:36	10:47:05	989399	6.6.1	4_exp_EVA_AWA_CON	8	A	B	Rpleas_acq	Oppo	Lpleas	2pleas	conawa_CS2_US3	conawa1_nomask	8	2	0	0	300	300	0	0	10238	träumen	1	26,5625pct	engagiert	anregung	träumen	kreativ	gesittet	sonnig	engstirnig	ausrottung	töten	krank	geizig	sterben	gütig	kuss	besonnen	vergnügt	genießen	vertrauen	gierig	krise	bange	verbissen	gemein	versagen	0	0	0	0	0	0	0	0	0	0	0	0	0	0	0	0	0	0	0	0	0	0	0	0	0	0	0	0	0	0
2024-05-02	10:30:36	10:47:05	989400	6.6.1	4_exp_EVA_AWA_CON	8	A	B	Rpleas_acq	Oppo	Lpleas	2pleas	conawa_CS2_US3_confidence	conawa1_nomask	8	2	0	0	300	300	0	0	10238	probably	1	26,5625pct	engagiert	anregung	träumen	kreativ	gesittet	sonnig	engstirnig	ausrottung	töten	krank	geizig	sterben	gütig	kuss	besonnen	vergnügt	genießen	vertrauen	gierig	krise	bange	verbissen	gemein	versagen	0	0	0	0	0	0	0	0	0	0	0	0	0	0	0	0	0	0	0	0	0	0	0	0	0	0	0	0	0	0
2024-05-02	10:30:36	10:47:15	998535	6.6.1	4_exp_EVA_AWA_CON	8	A	B	Rpleas_acq	Oppo	Lpleas	2pleas	conawa_CS2_US1	conawa1_nomask	8	3	0	0	300	300	0	0	8519	engstirnig	1	26,5625pct	engagiert	anregung	träumen	kreativ	gesittet	sonnig	engstirnig	ausrottung	töten	krank	geizig	sterben	gütig	kuss	besonnen	vergnügt	genießen	vertrauen	gierig	krise	bange	verbissen	gemein	versagen	0	0	0	0	0	0	0	0	0	0	0	0	0	0	0	0	0	0	0	0	0	0	0	0	0	0	0	0	0	0
2024-05-02	10:30:36	10:47:15	998537	6.6.1	4_exp_EVA_AWA_CON	8	A	B	Rpleas_acq	Oppo	Lpleas	2pleas	conawa_CS2_US1_confidence	conawa1_nomask	8	3	0	0	300	300	0	0	8519	guess	1	26,5625pct	engagiert	anregung	träumen	kreativ	gesittet	sonnig	engstirnig	ausrottung	töten	krank	geizig	sterben	gütig	kuss	besonnen	vergnügt	genießen	vertrauen	gierig	krise	bange	verbissen	gemein	versagen	0	0	0	0	0	0	0	0	0	0	0	0	0	0	0	0	0	0	0	0	0	0	0	0	0	0	0	0	0	0
2024-05-02	10:30:36	10:47:26	1009682	6.6.1	4_exp_EVA_AWA_CON	8	A	B	Rpleas_acq	Oppo	Lpleas	2pleas	conawa_CS1_US4	conawa1_nomask	8	4	0	0	300	300	0	0	10526	krank	1	26,5625pct	engagiert	anregung	träumen	kreativ	gesittet	sonnig	engstirnig	ausrottung	töten	krank	geizig	sterben	gütig	kuss	besonnen	vergnügt	genießen	vertrauen	gierig	krise	bange	verbissen	gemein	versagen	0	0	0	0	0	0	0	0	0	0	0	0	0	0	0	0	0	0	0	0	0	0	0	0	0	0	0	0	0	0
2024-05-02	10:30:36	10:47:26	1009684	6.6.1	4_exp_EVA_AWA_CON	8	A	B	Rpleas_acq	Oppo	Lpleas	2pleas	conawa_CS1_US4_confidence	conawa1_nomask	8	4	0	0	300	300	0	0	10526	probably	1	26,5625pct	engagiert	anregung	träumen	kreativ	gesittet	sonnig	engstirnig	ausrottung	töten	krank	geizig	sterben	gütig	kuss	besonnen	vergnügt	genießen	vertrauen	gierig	krise	bange	verbissen	gemein	versagen	0	0	0	0	0	0	0	0	0	0	0	0	0	0	0	0	0	0	0	0	0	0	0	0	0	0	0	0	0	0
2024-05-02	10:30:36	10:47:40	1024281	6.6.1	4_exp_EVA_AWA_CON	8	A	B	Rpleas_acq	Oppo	Lpleas	2pleas	conawa_CS2_US5	conawa1_nomask	8	5	0	0	300	300	0	0	13979	geizig	1	26,5625pct	engagiert	anregung	träumen	kreativ	gesittet	sonnig	engstirnig	ausrottung	töten	krank	geizig	sterben	gütig	kuss	besonnen	vergnügt	genießen	vertrauen	gierig	krise	bange	verbissen	gemein	versagen	0	0	0	0	0	0	0	0	0	0	0	0	0	0	0	0	0	0	0	0	0	0	0	0	0	0	0	0	0	0
2024-05-02	10:30:36	10:47:40	1024283	6.6.1	4_exp_EVA_AWA_CON	8	A	B	Rpleas_acq	Oppo	Lpleas	2pleas	conawa_CS2_US5_confidence	conawa1_nomask	8	5	0	0	300	300	0	0	13979	probably	1	26,5625pct	engagiert	anregung	träumen	kreativ	gesittet	sonnig	engstirnig	ausrottung	töten	krank	geizig	sterben	gütig	kuss	besonnen	vergnügt	genießen	vertrauen	gierig	krise	bange	verbissen	gemein	versagen	0	0	0	0	0	0	0	0	0	0	0	0	0	0	0	0	0	0	0	0	0	0	0	0	0	0	0	0	0	0
2024-05-02	10:30:36	10:47:48	1031967	6.6.1	4_exp_EVA_AWA_CON	8	A	B	Rpleas_acq	Oppo	Lpleas	2pleas	conawa_CS1_US6	conawa1_nomask	8	6	0	0	300	300	0	0	7068	sterben	1	26,5625pct	engagiert	anregung	träumen	kreativ	gesittet	sonnig	engstirnig	ausrottung	töten	krank	geizig	sterben	gütig	kuss	besonnen	vergnügt	genießen	vertrauen	gierig	krise	bange	verbissen	gemein	versagen	0	0	0	0	0	0	0	0	0	0	0	0	0	0	0	0	0	0	0	0	0	0	0	0	0	0	0	0	0	0
2024-05-02	10:30:36	10:47:48	1031968	6.6.1	4_exp_EVA_AWA_CON	8	A	B	Rpleas_acq	Oppo	Lpleas	2pleas	conawa_CS1_US6_confidence	conawa1_nomask	8	6	0	0	300	300	0	0	7068	guess	1	26,5625pct	engagiert	anregung	träumen	kreativ	gesittet	sonnig	engstirnig	ausrottung	töten	krank	geizig	sterben	gütig	kuss	besonnen	vergnügt	genießen	vertrauen	gierig	krise	bange	verbissen	gemein	versagen	0	0	0	0	0	0	0	0	0	0	0	0	0	0	0	0	0	0	0	0	0	0	0	0	0	0	0	0	0	0
2024-05-02	10:30:36	10:48:00	1043814	6.6.1	4_exp_EVA_AWA_CON	8	A	B	Rpleas_acq	Oppo	Lpleas	2pleas	conawa_CS1_US2	conawa1_nomask	8	7	0	0	300	300	0	0	11232	anregung	1	26,5625pct	engagiert	anregung	träumen	kreativ	gesittet	sonnig	engstirnig	ausrottung	töten	krank	geizig	sterben	gütig	kuss	besonnen	vergnügt	genießen	vertrauen	gierig	krise	bange	verbissen	gemein	versagen	0	0	0	0	0	0	0	0	0	0	0	0	0	0	0	0	0	0	0	0	0	0	0	0	0	0	0	0	0	0
2024-05-02	10:30:36	10:48:00	1043816	6.6.1	4_exp_EVA_AWA_CON	8	A	B	Rpleas_acq	Oppo	Lpleas	2pleas	conawa_CS1_US2_confidence	conawa1_nomask	8	7	0	0	300	300	0	0	11232	probably	1	26,5625pct	engagiert	anregung	träumen	kreativ	gesittet	sonnig	engstirnig	ausrottung	töten	krank	geizig	sterben	gütig	kuss	besonnen	vergnügt	genießen	vertrauen	gierig	krise	bange	verbissen	gemein	versagen	0	0	0	0	0	0	0	0	0	0	0	0	0	0	0	0	0	0	0	0	0	0	0	0	0	0	0	0	0	0
2024-05-02	10:30:36	10:48:07	1050999	6.6.1	4_exp_EVA_AWA_CON	8	A	B	Rpleas_acq	Oppo	Lpleas	2pleas	conawa_CS2_US6	conawa1_nomask	8	8	0	0	300	300	0	0	6568	gierig	1	26,5625pct	engagiert	anregung	träumen	kreativ	gesittet	sonnig	engstirnig	ausrottung	töten	krank	geizig	sterben	gütig	kuss	besonnen	vergnügt	genießen	vertrauen	gierig	krise	bange	verbissen	gemein	versagen	0	0	0	0	0	0	0	0	0	0	0	0	0	0	0	0	0	0	0	0	0	0	0	0	0	0	0	0	0	0
2024-05-02	10:30:36	10:48:07	1051001	6.6.1	4_exp_EVA_AWA_CON	8	A	B	Rpleas_acq	Oppo	Lpleas	2pleas	conawa_CS2_US6_confidence	conawa1_nomask	8	8	0	0	300	300	0	0	6568	probably	1	26,5625pct	engagiert	anregung	träumen	kreativ	gesittet	sonnig	engstirnig	ausrottung	töten	krank	geizig	sterben	gütig	kuss	besonnen	vergnügt	genießen	vertrauen	gierig	krise	bange	verbissen	gemein	versagen	0	0	0	0	0	0	0	0	0	0	0	0	0	0	0	0	0	0	0	0	0	0	0	0	0	0	0	0	0	0
2024-05-02	10:30:36	10:48:18	1061485	6.6.1	4_exp_EVA_AWA_CON	8	A	B	Rpleas_acq	Oppo	Lpleas	2pleas	conawa_CS1_US1	conawa1_nomask	8	9	0	0	300	300	0	0	9873	gierig	1	26,5625pct	engagiert	anregung	träumen	kreativ	gesittet	sonnig	engstirnig	ausrottung	töten	krank	geizig	sterben	gütig	kuss	besonnen	vergnügt	genießen	vertrauen	gierig	krise	bange	verbissen	gemein	versagen	0	0	0	0	0	0	0	0	0	0	0	0	0	0	0	0	0	0	0	0	0	0	0	0	0	0	0	0	0	0
2024-05-02	10:30:36	10:48:18	1061487	6.6.1	4_exp_EVA_AWA_CON	8	A	B	Rpleas_acq	Oppo	Lpleas	2pleas	conawa_CS1_US1_confidence	conawa1_nomask	8	9	0	0	300	300	0	0	9873	sure	1	26,5625pct	engagiert	anregung	träumen	kreativ	gesittet	sonnig	engstirnig	ausrottung	töten	krank	geizig	sterben	gütig	kuss	besonnen	vergnügt	genießen	vertrauen	gierig	krise	bange	verbissen	gemein	versagen	0	0	0	0	0	0	0	0	0	0	0	0	0	0	0	0	0	0	0	0	0	0	0	0	0	0	0	0	0	0
2024-05-02	10:30:36	10:48:25	1068780	6.6.1	4_exp_EVA_AWA_CON	8	A	B	Rpleas_acq	Oppo	Lpleas	2pleas	conawa_CS1_US5	conawa1_nomask	8	10	0	0	300	300	0	0	6681	genießen	1	26,5625pct	engagiert	anregung	träumen	kreativ	gesittet	sonnig	engstirnig	ausrottung	töten	krank	geizig	sterben	gütig	kuss	besonnen	vergnügt	genießen	vertrauen	gierig	krise	bange	verbissen	gemein	versagen	0	0	0	0	0	0	0	0	0	0	0	0	0	0	0	0	0	0	0	0	0	0	0	0	0	0	0	0	0	0
2024-05-02	10:30:36	10:48:25	1068782	6.6.1	4_exp_EVA_AWA_CON	8	A	B	Rpleas_acq	Oppo	Lpleas	2pleas	conawa_CS1_US5_confidence	conawa1_nomask	8	10	0	0	300	300	0	0	6681	probably	1	26,5625pct	engagiert	anregung	träumen	kreativ	gesittet	sonnig	engstirnig	ausrottung	töten	krank	geizig	sterben	gütig	kuss	besonnen	vergnügt	genießen	vertrauen	gierig	krise	bange	verbissen	gemein	versagen	0	0	0	0	0	0	0	0	0	0	0	0	0	0	0	0	0	0	0	0	0	0	0	0	0	0	0	0	0	0
2024-05-02	10:30:36	10:48:34	1077866	6.6.1	4_exp_EVA_AWA_CON	8	A	B	Rpleas_acq	Oppo	Lpleas	2pleas	conawa_CS1_US3	conawa1_nomask	8	11	0	0	300	300	0	0	8467	töten	1	26,5625pct	engagiert	anregung	träumen	kreativ	gesittet	sonnig	engstirnig	ausrottung	töten	krank	geizig	sterben	gütig	kuss	besonnen	vergnügt	genießen	vertrauen	gierig	krise	bange	verbissen	gemein	versagen	0	0	0	0	0	0	0	0	0	0	0	0	0	0	0	0	0	0	0	0	0	0	0	0	0	0	0	0	0	0
2024-05-02	10:30:36	10:48:34	1077868	6.6.1	4_exp_EVA_AWA_CON	8	A	B	Rpleas_acq	Oppo	Lpleas	2pleas	conawa_CS1_US3_confidence	conawa1_nomask	8	11	0	0	300	300	0	0	8467	probably	1	26,5625pct	engagiert	anregung	träumen	kreativ	gesittet	sonnig	engstirnig	ausrottung	töten	krank	geizig	sterben	gütig	kuss	besonnen	vergnügt	genießen	vertrauen	gierig	krise	bange	verbissen	gemein	versagen	0	0	0	0	0	0	0	0	0	0	0	0	0	0	0	0	0	0	0	0	0	0	0	0	0	0	0	0	0	0
2024-05-02	10:30:36	10:48:46	1090264	6.6.1	4_exp_EVA_AWA_CON	8	A	B	Rpleas_acq	Oppo	Lpleas	2pleas	conawa_CS2_US2	conawa1_nomask	8	12	0	0	300	300	0	0	11781	ausrottung	1	26,5625pct	engagiert	anregung	träumen	kreativ	gesittet	sonnig	engstirnig	ausrottung	töten	krank	geizig	sterben	gütig	kuss	besonnen	vergnügt	genießen	vertrauen	gierig	krise	bange	verbissen	gemein	versagen	0	0	0	0	0	0	0	0	0	0	0	0	0	0	0	0	0	0	0	0	0	0	0	0	0	0	0	0	0	0
2024-05-02	10:30:36	10:48:46	1090266	6.6.1	4_exp_EVA_AWA_CON	8	A	B	Rpleas_acq	Oppo	Lpleas	2pleas	conawa_CS2_US2_confidence	conawa1_nomask	8	12	0	0	300	300	0	0	11781	probably	1	26,5625pct	engagiert	anregung	träumen	kreativ	gesittet	sonnig	engstirnig	ausrottung	töten	krank	geizig	sterben	gütig	kuss	besonnen	vergnügt	genießen	vertrauen	gierig	krise	bange	verbissen	gemein	versagen	0	0	0	0	0	0	0	0	0	0	0	0	0	0	0	0	0	0	0	0	0	0	0	0	0	0	0	0	0	0
2024-05-02	10:30:36	10:50:34	1198089	6.6.1	4_exp_EVA_AWA_CON	8	A	B	Rpleas_acq	Oppo	Lpleas	2pleas	cond_new_pleas_456_nomask_CS1	condtest_nomask_1	11	1	400	0	300	300	0	0	3247	50	0	26,5625pct	engagiert	anregung	träumen	kreativ	gesittet	sonnig	engstirnig	ausrottung	töten	krank	geizig	sterben	gütig	kuss	besonnen	vergnügt	genießen	vertrauen	gierig	krise	bange	verbissen	gemein	versagen	1	blank2r.bmp	0	1	+	0	1	blank2r.bmp	500	1	CPLW	500	1	blank2r.bmp	880	2	genießen	880	1	!	1233	1	!	-1	0	0	0	0	0	0
2024-05-02	10:30:36	10:50:37	1201129	6.6.1	4_exp_EVA_AWA_CON	8	A	B	Rpleas_acq	Oppo	Lpleas	2pleas	cond_US_unple_123_nomask_CS1	condtest_nomask_1	11	2	400	0	300	300	0	0	1264	50	1	26,5625pct	engagiert	anregung	träumen	kreativ	gesittet	sonnig	engstirnig	ausrottung	töten	krank	geizig	sterben	gütig	kuss	besonnen	vergnügt	genießen	vertrauen	gierig	krise	bange	verbissen	gemein	versagen	1	blank2r.bmp	0	1	+	0	1	blank2r.bmp	500	1	CPLW	500	1	blank2r.bmp	880	1	engstirnig	880	1	!	1232	1	!	-1	0	0	0	0	0	0
