date	time	currenttime	elapsedtime	build	currentexpt	subject	CS_AB	US_AB	LRpleas_acq	SameOppo	condition_Lpleas	condition_1pleas	trialcode	blockcode	blocknum	trialnum	windowcenter	inwindow	pretrialpause	posttrialpause	trialduration	trialtimeout	latency	response	correct	correctedscore	US_nomask_pleas1	US_nomask_pleas2	US_nomask_pleas3	US_nomask_pleas4	US_nomask_pleas5	US_nomask_pleas6	US_nomask_unple1	US_nomask_unple2	US_nomask_unple3	US_nomask_unple4	US_nomask_unple5	US_nomask_unple6	new_nomask_pleas1	new_nomask_pleas2	new_nomask_pleas3	new_nomask_pleas4	new_nomask_pleas5	new_nomask_pleas6	new_nomask_unple1	new_nomask_unple2	new_nomask_unple3	new_nomask_unple4	new_nomask_unple5	new_nomask_unple6	stimulusnumber1	stimulusitem1	stimulusonset1	stimulusnumber2	stimulusitem2	stimulusonset2	stimulusnumber3	stimulusitem3	stimulusonset3	stimulusnumber4	stimulusitem4	stimulusonset4	stimulusnumber5	stimulusitem5	stimulusonset5	stimulusnumber6	stimulusitem6	stimulusonset6	stimulusnumber7	stimulusitem7	stimulusonset7	stimulusnumber8	stimulusitem8	stimulusonset8	stimulusnumber9	stimulusitem9	stimulusonset9	stimulusnumber10	stimulusitem10	stimulusonset10
2024-05-22	14:02:40	14:03:55	75244	6.6.1	4_exp_EVA_AWA_CON	46	B	A	Rpleas_acq	Oppo	Rpleas	1pleas	acq_US_pleas_nomask	acq1_nomask	1	1	0	0	300	300	0	0	2373	50	1	0	schlau	spielen	freundlich	retten	tolerant	treu	schroff	strafen	fanatisch	rächen	tyrannisch	tot	helfen	loyal	schön	ehrlich	lachen	fair	hindern	lasch	schlecht	eitel	leiden	faul	1	blank2r.bmp	0	1	+	0	1	blank2r.bmp	500	1	BMVZ	500	1	blank2r.bmp	880	2	spielen	880	0	0	0	0	0	0	0	0	0	0	0	0
2024-05-22	14:02:40	14:03:58	78236	6.6.1	4_exp_EVA_AWA_CON	46	B	A	Rpleas_acq	Oppo	Rpleas	1pleas	acq_new_unple_nomask	acq1_nomask	1	2	0	0	300	300	0	0	1504	46	1	0	schlau	spielen	freundlich	retten	tolerant	treu	schroff	strafen	fanatisch	rächen	tyrannisch	tot	helfen	loyal	schön	ehrlich	lachen	fair	hindern	lasch	schlecht	eitel	leiden	faul	1	blank2r.bmp	0	1	+	0	1	blank2r.bmp	500	8	C4r.bmp	500	1	blank2r.bmp	880	5	leiden	880	0	0	0	0	0	0	0	0	0	0	0	0
2024-05-22	14:02:40	14:04:01	81060	6.6.1	4_exp_EVA_AWA_CON	46	B	A	Rpleas_acq	Oppo	Rpleas	1pleas	acq_new_pleas_nomask	acq1_nomask	1	3	0	0	300	300	0	0	1335	50	1	0	schlau	spielen	freundlich	retten	tolerant	treu	schroff	strafen	fanatisch	rächen	tyrannisch	tot	helfen	loyal	schön	ehrlich	lachen	fair	hindern	lasch	schlecht	eitel	leiden	faul	1	blank2r.bmp	0	1	+	0	1	blank2r.bmp	500	7	C3r.bmp	500	1	blank2r.bmp	880	6	fair	880	0	0	0	0	0	0	0	0	0	0	0	0
2024-05-22	14:02:40	14:04:04	83708	6.6.1	4_exp_EVA_AWA_CON	46	B	A	Rpleas_acq	Oppo	Rpleas	1pleas	acq_US_unple_nomask	acq1_nomask	1	4	0	0	300	300	0	0	1161	46	1	0	schlau	spielen	freundlich	retten	tolerant	treu	schroff	strafen	fanatisch	rächen	tyrannisch	tot	helfen	loyal	schön	ehrlich	lachen	fair	hindern	lasch	schlecht	eitel	leiden	faul	1	blank2r.bmp	0	1	+	0	1	blank2r.bmp	500	1	GKQX	500	1	blank2r.bmp	880	6	tot	880	0	0	0	0	0	0	0	0	0	0	0	0
2024-05-22	14:02:40	14:04:06	86172	6.6.1	4_exp_EVA_AWA_CON	46	B	A	Rpleas_acq	Oppo	Rpleas	1pleas	acq_US_pleas_nomask	acq1_nomask	1	5	0	0	300	300	0	0	973	50	1	0	schlau	spielen	freundlich	retten	tolerant	treu	schroff	strafen	fanatisch	rächen	tyrannisch	tot	helfen	loyal	schön	ehrlich	lachen	fair	hindern	lasch	schlecht	eitel	leiden	faul	1	blank2r.bmp	0	1	+	0	1	blank2r.bmp	500	1	BMVZ	500	1	blank2r.bmp	880	6	treu	880	0	0	0	0	0	0	0	0	0	0	0	0
2024-05-22	14:02:40	14:04:09	88956	6.6.1	4_exp_EVA_AWA_CON	46	B	A	Rpleas_acq	Oppo	Rpleas	1pleas	acq_US_unple_nomask	acq1_nomask	1	6	0	0	300	300	0	0	1296	46	1	0	schlau	spielen	freundlich	retten	tolerant	treu	schroff	strafen	fanatisch	rächen	tyrannisch	tot	helfen	loyal	schön	ehrlich	lachen	fair	hindern	lasch	schlecht	eitel	leiden	faul	1	blank2r.bmp	0	1	+	0	1	blank2r.bmp	500	1	GKQX	500	1	blank2r.bmp	880	4	rächen	880	0	0	0	0	0	0	0	0	0	0	0	0
2024-05-22	14:02:40	14:04:11	91132	6.6.1	4_exp_EVA_AWA_CON	46	B	A	Rpleas_acq	Oppo	Rpleas	1pleas	acq_new_pleas_nomask	acq1_nomask	1	7	0	0	300	300	0	0	690	50	1	0	schlau	spielen	freundlich	retten	tolerant	treu	schroff	strafen	fanatisch	rächen	tyrannisch	tot	helfen	loyal	schön	ehrlich	lachen	fair	hindern	lasch	schlecht	eitel	leiden	faul	1	blank2r.bmp	0	1	+	0	1	blank2r.bmp	500	1	B1r.bmp	500	1	blank2r.bmp	880	2	loyal	880	0	0	0	0	0	0	0	0	0	0	0	0
2024-05-22	14:02:40	14:04:13	93340	6.6.1	4_exp_EVA_AWA_CON	46	B	A	Rpleas_acq	Oppo	Rpleas	1pleas	acq_US_unple_nomask	acq1_nomask	1	8	0	0	300	300	0	0	727	46	1	0	schlau	spielen	freundlich	retten	tolerant	treu	schroff	strafen	fanatisch	rächen	tyrannisch	tot	helfen	loyal	schön	ehrlich	lachen	fair	hindern	lasch	schlecht	eitel	leiden	faul	1	blank2r.bmp	0	1	+	0	1	blank2r.bmp	500	1	GKQX	500	1	blank2r.bmp	880	3	fanatisch	880	0	0	0	0	0	0	0	0	0	0	0	0
2024-05-22	14:02:40	14:04:16	95997	6.6.1	4_exp_EVA_AWA_CON	46	B	A	Rpleas_acq	Oppo	Rpleas	1pleas	acq_new_unple_nomask	acq1_nomask	1	9	0	0	300	300	0	0	971	50	0	0	schlau	spielen	freundlich	retten	tolerant	treu	schroff	strafen	fanatisch	rächen	tyrannisch	tot	helfen	loyal	schön	ehrlich	lachen	fair	hindern	lasch	schlecht	eitel	leiden	faul	1	blank2r.bmp	0	1	+	0	1	blank2r.bmp	500	2	B2r.bmp	500	1	blank2r.bmp	880	3	schlecht	880	1	FEHLER	1873	0	0	0	0	0	0	0	0	0
2024-05-22	14:02:40	14:04:21	101052	6.6.1	4_exp_EVA_AWA_CON	46	B	A	Rpleas_acq	Oppo	Rpleas	1pleas	acq_new_pleas_nomask	acq1_nomask	1	10	0	0	300	300	0	0	3766	50	1	0	schlau	spielen	freundlich	retten	tolerant	treu	schroff	strafen	fanatisch	rächen	tyrannisch	tot	helfen	loyal	schön	ehrlich	lachen	fair	hindern	lasch	schlecht	eitel	leiden	faul	1	blank2r.bmp	0	1	+	0	1	blank2r.bmp	500	6	C2r.bmp	500	1	blank2r.bmp	880	1	helfen	880	0	0	0	0	0	0	0	0	0	0	0	0
2024-05-22	14:02:40	14:04:23	103316	6.6.1	4_exp_EVA_AWA_CON	46	B	A	Rpleas_acq	Oppo	Rpleas	1pleas	acq_US_pleas_nomask	acq1_nomask	1	11	0	0	300	300	0	0	776	50	1	0	schlau	spielen	freundlich	retten	tolerant	treu	schroff	strafen	fanatisch	rächen	tyrannisch	tot	helfen	loyal	schön	ehrlich	lachen	fair	hindern	lasch	schlecht	eitel	leiden	faul	1	blank2r.bmp	0	1	+	0	1	blank2r.bmp	500	1	BMVZ	500	1	blank2r.bmp	880	3	freundlich	880	0	0	0	0	0	0	0	0	0	0	0	0
2024-05-22	14:02:40	14:04:26	105804	6.6.1	4_exp_EVA_AWA_CON	46	B	A	Rpleas_acq	Oppo	Rpleas	1pleas	acq_new_unple_nomask	acq1_nomask	1	12	0	0	300	300	0	0	1003	46	1	0	schlau	spielen	freundlich	retten	tolerant	treu	schroff	strafen	fanatisch	rächen	tyrannisch	tot	helfen	loyal	schön	ehrlich	lachen	fair	hindern	lasch	schlecht	eitel	leiden	faul	1	blank2r.bmp	0	1	+	0	1	blank2r.bmp	500	5	C1r.bmp	500	1	blank2r.bmp	880	6	faul	880	0	0	0	0	0	0	0	0	0	0	0	0
2024-05-22	14:02:40	14:04:29	108789	6.6.1	4_exp_EVA_AWA_CON	46	B	A	Rpleas_acq	Oppo	Rpleas	1pleas	acq_new_unple_nomask	acq1_nomask	1	13	0	0	300	300	0	0	1295	50	0	0	schlau	spielen	freundlich	retten	tolerant	treu	schroff	strafen	fanatisch	rächen	tyrannisch	tot	helfen	loyal	schön	ehrlich	lachen	fair	hindern	lasch	schlecht	eitel	leiden	faul	1	blank2r.bmp	0	1	+	0	1	blank2r.bmp	500	3	B3r.bmp	500	1	blank2r.bmp	880	4	eitel	880	1	FEHLER	2197	0	0	0	0	0	0	0	0	0
2024-05-22	14:02:40	14:04:33	113084	6.6.1	4_exp_EVA_AWA_CON	46	B	A	Rpleas_acq	Oppo	Rpleas	1pleas	acq_US_pleas_nomask	acq1_nomask	1	14	0	0	300	300	0	0	3009	50	1	0	schlau	spielen	freundlich	retten	tolerant	treu	schroff	strafen	fanatisch	rächen	tyrannisch	tot	helfen	loyal	schön	ehrlich	lachen	fair	hindern	lasch	schlecht	eitel	leiden	faul	1	blank2r.bmp	0	1	+	0	1	blank2r.bmp	500	1	BMVZ	500	1	blank2r.bmp	880	1	schlau	880	0	0	0	0	0	0	0	0	0	0	0	0
2024-05-22	14:02:40	14:04:36	115996	6.6.1	4_exp_EVA_AWA_CON	46	B	A	Rpleas_acq	Oppo	Rpleas	1pleas	acq_new_pleas_nomask	acq1_nomask	1	15	0	0	300	300	0	0	1429	50	1	0	schlau	spielen	freundlich	retten	tolerant	treu	schroff	strafen	fanatisch	rächen	tyrannisch	tot	helfen	loyal	schön	ehrlich	lachen	fair	hindern	lasch	schlecht	eitel	leiden	faul	1	blank2r.bmp	0	1	+	0	1	blank2r.bmp	500	4	B4r.bmp	500	1	blank2r.bmp	880	4	ehrlich	880	0	0	0	0	0	0	0	0	0	0	0	0
2024-05-22	14:02:40	14:04:38	118172	6.6.1	4_exp_EVA_AWA_CON	46	B	A	Rpleas_acq	Oppo	Rpleas	1pleas	acq_new_unple_nomask	acq1_nomask	1	16	0	0	300	300	0	0	693	46	1	0	schlau	spielen	freundlich	retten	tolerant	treu	schroff	strafen	fanatisch	rächen	tyrannisch	tot	helfen	loyal	schön	ehrlich	lachen	fair	hindern	lasch	schlecht	eitel	leiden	faul	1	blank2r.bmp	0	1	+	0	1	blank2r.bmp	500	1	B1r.bmp	500	1	blank2r.bmp	880	1	hindern	880	0	0	0	0	0	0	0	0	0	0	0	0
2024-05-22	14:02:40	14:04:41	120492	6.6.1	4_exp_EVA_AWA_CON	46	B	A	Rpleas_acq	Oppo	Rpleas	1pleas	acq_new_unple_nomask	acq1_nomask	1	17	0	0	300	300	0	0	831	46	1	0	schlau	spielen	freundlich	retten	tolerant	treu	schroff	strafen	fanatisch	rächen	tyrannisch	tot	helfen	loyal	schön	ehrlich	lachen	fair	hindern	lasch	schlecht	eitel	leiden	faul	1	blank2r.bmp	0	1	+	0	1	blank2r.bmp	500	3	B3r.bmp	500	1	blank2r.bmp	880	2	lasch	880	0	0	0	0	0	0	0	0	0	0	0	0
2024-05-22	14:02:40	14:04:43	122564	6.6.1	4_exp_EVA_AWA_CON	46	B	A	Rpleas_acq	Oppo	Rpleas	1pleas	acq_US_unple_nomask	acq1_nomask	1	18	0	0	300	300	0	0	582	46	1	0	schlau	spielen	freundlich	retten	tolerant	treu	schroff	strafen	fanatisch	rächen	tyrannisch	tot	helfen	loyal	schön	ehrlich	lachen	fair	hindern	lasch	schlecht	eitel	leiden	faul	1	blank2r.bmp	0	1	+	0	1	blank2r.bmp	500	1	GKQX	500	1	blank2r.bmp	880	1	schroff	880	0	0	0	0	0	0	0	0	0	0	0	0
2024-05-22	14:02:40	14:04:45	124716	6.6.1	4_exp_EVA_AWA_CON	46	B	A	Rpleas_acq	Oppo	Rpleas	1pleas	acq_US_pleas_nomask	acq1_nomask	1	19	0	0	300	300	0	0	662	50	1	0	schlau	spielen	freundlich	retten	tolerant	treu	schroff	strafen	fanatisch	rächen	tyrannisch	tot	helfen	loyal	schön	ehrlich	lachen	fair	hindern	lasch	schlecht	eitel	leiden	faul	1	blank2r.bmp	0	1	+	0	1	blank2r.bmp	500	1	BMVZ	500	1	blank2r.bmp	880	4	retten	880	0	0	0	0	0	0	0	0	0	0	0	0
2024-05-22	14:02:40	14:04:48	127572	6.6.1	4_exp_EVA_AWA_CON	46	B	A	Rpleas_acq	Oppo	Rpleas	1pleas	acq_new_pleas_nomask	acq1_nomask	1	20	0	0	300	300	0	0	1367	50	1	0	schlau	spielen	freundlich	retten	tolerant	treu	schroff	strafen	fanatisch	rächen	tyrannisch	tot	helfen	loyal	schön	ehrlich	lachen	fair	hindern	lasch	schlecht	eitel	leiden	faul	1	blank2r.bmp	0	1	+	0	1	blank2r.bmp	500	4	B4r.bmp	500	1	blank2r.bmp	880	5	lachen	880	0	0	0	0	0	0	0	0	0	0	0	0
2024-05-22	14:02:40	14:04:52	131428	6.6.1	4_exp_EVA_AWA_CON	46	B	A	Rpleas_acq	Oppo	Rpleas	1pleas	acq_US_unple_nomask	acq1_nomask	1	21	0	0	300	300	0	0	2371	46	1	0	schlau	spielen	freundlich	retten	tolerant	treu	schroff	strafen	fanatisch	rächen	tyrannisch	tot	helfen	loyal	schön	ehrlich	lachen	fair	hindern	lasch	schlecht	eitel	leiden	faul	1	blank2r.bmp	0	1	+	0	1	blank2r.bmp	500	1	GKQX	500	1	blank2r.bmp	880	5	tyrannisch	880	0	0	0	0	0	0	0	0	0	0	0	0
2024-05-22	14:02:40	14:04:54	133532	6.6.1	4_exp_EVA_AWA_CON	46	B	A	Rpleas_acq	Oppo	Rpleas	1pleas	acq_US_unple_nomask	acq1_nomask	1	22	0	0	300	300	0	0	623	46	1	0	schlau	spielen	freundlich	retten	tolerant	treu	schroff	strafen	fanatisch	rächen	tyrannisch	tot	helfen	loyal	schön	ehrlich	lachen	fair	hindern	lasch	schlecht	eitel	leiden	faul	1	blank2r.bmp	0	1	+	0	1	blank2r.bmp	500	1	GKQX	500	1	blank2r.bmp	880	2	strafen	880	0	0	0	0	0	0	0	0	0	0	0	0
2024-05-22	14:02:40	14:04:56	135620	6.6.1	4_exp_EVA_AWA_CON	46	B	A	Rpleas_acq	Oppo	Rpleas	1pleas	acq_US_pleas_nomask	acq1_nomask	1	23	0	0	300	300	0	0	599	50	1	0	schlau	spielen	freundlich	retten	tolerant	treu	schroff	strafen	fanatisch	rächen	tyrannisch	tot	helfen	loyal	schön	ehrlich	lachen	fair	hindern	lasch	schlecht	eitel	leiden	faul	1	blank2r.bmp	0	1	+	0	1	blank2r.bmp	500	1	BMVZ	500	1	blank2r.bmp	880	5	tolerant	880	0	0	0	0	0	0	0	0	0	0	0	0
2024-05-22	14:02:40	14:04:58	137700	6.6.1	4_exp_EVA_AWA_CON	46	B	A	Rpleas_acq	Oppo	Rpleas	1pleas	acq_new_pleas_nomask	acq1_nomask	1	24	0	0	300	300	0	0	598	50	1	0	schlau	spielen	freundlich	retten	tolerant	treu	schroff	strafen	fanatisch	rächen	tyrannisch	tot	helfen	loyal	schön	ehrlich	lachen	fair	hindern	lasch	schlecht	eitel	leiden	faul	1	blank2r.bmp	0	1	+	0	1	blank2r.bmp	500	7	C3r.bmp	500	1	blank2r.bmp	880	3	schön	880	0	0	0	0	0	0	0	0	0	0	0	0
2024-05-22	14:02:40	14:05:00	139796	6.6.1	4_exp_EVA_AWA_CON	46	B	A	Rpleas_acq	Oppo	Rpleas	1pleas	acq_new_unple_nomask	acq1_nomask	1	25	0	0	300	300	0	0	613	46	1	0	schlau	spielen	freundlich	retten	tolerant	treu	schroff	strafen	fanatisch	rächen	tyrannisch	tot	helfen	loyal	schön	ehrlich	lachen	fair	hindern	lasch	schlecht	eitel	leiden	faul	1	blank2r.bmp	0	1	+	0	1	blank2r.bmp	500	2	B2r.bmp	500	1	blank2r.bmp	880	2	lasch	880	0	0	0	0	0	0	0	0	0	0	0	0
2024-05-22	14:02:40	14:05:02	142252	6.6.1	4_exp_EVA_AWA_CON	46	B	A	Rpleas_acq	Oppo	Rpleas	1pleas	acq_new_unple_nomask	acq1_nomask	1	26	0	0	300	300	0	0	967	46	1	0	schlau	spielen	freundlich	retten	tolerant	treu	schroff	strafen	fanatisch	rächen	tyrannisch	tot	helfen	loyal	schön	ehrlich	lachen	fair	hindern	lasch	schlecht	eitel	leiden	faul	1	blank2r.bmp	0	1	+	0	1	blank2r.bmp	500	8	C4r.bmp	500	1	blank2r.bmp	880	1	hindern	880	0	0	0	0	0	0	0	0	0	0	0	0
2024-05-22	14:02:40	14:05:05	144653	6.6.1	4_exp_EVA_AWA_CON	46	B	A	Rpleas_acq	Oppo	Rpleas	1pleas	acq_new_unple_nomask	acq1_nomask	1	27	0	0	300	300	0	0	716	50	0	0	schlau	spielen	freundlich	retten	tolerant	treu	schroff	strafen	fanatisch	rächen	tyrannisch	tot	helfen	loyal	schön	ehrlich	lachen	fair	hindern	lasch	schlecht	eitel	leiden	faul	1	blank2r.bmp	0	1	+	0	1	blank2r.bmp	500	5	C1r.bmp	500	1	blank2r.bmp	880	4	eitel	880	1	FEHLER	1618	0	0	0	0	0	0	0	0	0
2024-05-22	14:02:40	14:05:07	147213	6.6.1	4_exp_EVA_AWA_CON	46	B	A	Rpleas_acq	Oppo	Rpleas	1pleas	acq_US_unple_nomask	acq1_nomask	1	28	0	0	300	300	0	0	1074	50	0	0	schlau	spielen	freundlich	retten	tolerant	treu	schroff	strafen	fanatisch	rächen	tyrannisch	tot	helfen	loyal	schön	ehrlich	lachen	fair	hindern	lasch	schlecht	eitel	leiden	faul	1	blank2r.bmp	0	1	+	0	1	blank2r.bmp	500	1	GKQX	500	1	blank2r.bmp	880	3	fanatisch	880	1	FEHLER	1976	0	0	0	0	0	0	0	0	0
2024-05-22	14:02:40	14:05:11	151116	6.6.1	4_exp_EVA_AWA_CON	46	B	A	Rpleas_acq	Oppo	Rpleas	1pleas	acq_US_unple_nomask	acq1_nomask	1	29	0	0	300	300	0	0	2617	46	1	0	schlau	spielen	freundlich	retten	tolerant	treu	schroff	strafen	fanatisch	rächen	tyrannisch	tot	helfen	loyal	schön	ehrlich	lachen	fair	hindern	lasch	schlecht	eitel	leiden	faul	1	blank2r.bmp	0	1	+	0	1	blank2r.bmp	500	1	GKQX	500	1	blank2r.bmp	880	4	rächen	880	0	0	0	0	0	0	0	0	0	0	0	0
2024-05-22	14:02:40	14:05:13	153308	6.6.1	4_exp_EVA_AWA_CON	46	B	A	Rpleas_acq	Oppo	Rpleas	1pleas	acq_new_pleas_nomask	acq1_nomask	1	30	0	0	300	300	0	0	706	50	1	0	schlau	spielen	freundlich	retten	tolerant	treu	schroff	strafen	fanatisch	rächen	tyrannisch	tot	helfen	loyal	schön	ehrlich	lachen	fair	hindern	lasch	schlecht	eitel	leiden	faul	1	blank2r.bmp	0	1	+	0	1	blank2r.bmp	500	6	C2r.bmp	500	1	blank2r.bmp	880	6	fair	880	0	0	0	0	0	0	0	0	0	0	0	0
2024-05-22	14:02:40	14:05:17	156476	6.6.1	4_exp_EVA_AWA_CON	46	B	A	Rpleas_acq	Oppo	Rpleas	1pleas	acq_US_unple_nomask	acq1_nomask	1	31	0	0	300	300	0	0	1683	46	1	0	schlau	spielen	freundlich	retten	tolerant	treu	schroff	strafen	fanatisch	rächen	tyrannisch	tot	helfen	loyal	schön	ehrlich	lachen	fair	hindern	lasch	schlecht	eitel	leiden	faul	1	blank2r.bmp	0	1	+	0	1	blank2r.bmp	500	1	GKQX	500	1	blank2r.bmp	880	5	tyrannisch	880	0	0	0	0	0	0	0	0	0	0	0	0
2024-05-22	14:02:40	14:05:19	158780	6.6.1	4_exp_EVA_AWA_CON	46	B	A	Rpleas_acq	Oppo	Rpleas	1pleas	acq_new_pleas_nomask	acq1_nomask	1	32	0	0	300	300	0	0	815	50	1	0	schlau	spielen	freundlich	retten	tolerant	treu	schroff	strafen	fanatisch	rächen	tyrannisch	tot	helfen	loyal	schön	ehrlich	lachen	fair	hindern	lasch	schlecht	eitel	leiden	faul	1	blank2r.bmp	0	1	+	0	1	blank2r.bmp	500	6	C2r.bmp	500	1	blank2r.bmp	880	2	loyal	880	0	0	0	0	0	0	0	0	0	0	0	0
2024-05-22	14:02:40	14:05:22	161452	6.6.1	4_exp_EVA_AWA_CON	46	B	A	Rpleas_acq	Oppo	Rpleas	1pleas	acq_new_pleas_nomask	acq1_nomask	1	33	0	0	300	300	0	0	1185	50	1	0	schlau	spielen	freundlich	retten	tolerant	treu	schroff	strafen	fanatisch	rächen	tyrannisch	tot	helfen	loyal	schön	ehrlich	lachen	fair	hindern	lasch	schlecht	eitel	leiden	faul	1	blank2r.bmp	0	1	+	0	1	blank2r.bmp	500	2	B2r.bmp	500	1	blank2r.bmp	880	4	ehrlich	880	0	0	0	0	0	0	0	0	0	0	0	0
2024-05-22	14:02:40	14:05:24	163828	6.6.1	4_exp_EVA_AWA_CON	46	B	A	Rpleas_acq	Oppo	Rpleas	1pleas	acq_US_pleas_nomask	acq1_nomask	1	34	0	0	300	300	0	0	889	50	1	0	schlau	spielen	freundlich	retten	tolerant	treu	schroff	strafen	fanatisch	rächen	tyrannisch	tot	helfen	loyal	schön	ehrlich	lachen	fair	hindern	lasch	schlecht	eitel	leiden	faul	1	blank2r.bmp	0	1	+	0	1	blank2r.bmp	500	1	BMVZ	500	1	blank2r.bmp	880	4	retten	880	0	0	0	0	0	0	0	0	0	0	0	0
2024-05-22	14:02:40	14:05:26	165868	6.6.1	4_exp_EVA_AWA_CON	46	B	A	Rpleas_acq	Oppo	Rpleas	1pleas	acq_US_pleas_nomask	acq1_nomask	1	35	0	0	300	300	0	0	558	50	1	0	schlau	spielen	freundlich	retten	tolerant	treu	schroff	strafen	fanatisch	rächen	tyrannisch	tot	helfen	loyal	schön	ehrlich	lachen	fair	hindern	lasch	schlecht	eitel	leiden	faul	1	blank2r.bmp	0	1	+	0	1	blank2r.bmp	500	1	BMVZ	500	1	blank2r.bmp	880	3	freundlich	880	0	0	0	0	0	0	0	0	0	0	0	0
2024-05-22	14:02:40	14:05:28	168372	6.6.1	4_exp_EVA_AWA_CON	46	B	A	Rpleas_acq	Oppo	Rpleas	1pleas	acq_US_pleas_nomask	acq1_nomask	1	36	0	0	300	300	0	0	1021	50	1	0	schlau	spielen	freundlich	retten	tolerant	treu	schroff	strafen	fanatisch	rächen	tyrannisch	tot	helfen	loyal	schön	ehrlich	lachen	fair	hindern	lasch	schlecht	eitel	leiden	faul	1	blank2r.bmp	0	1	+	0	1	blank2r.bmp	500	1	BMVZ	500	1	blank2r.bmp	880	2	spielen	880	0	0	0	0	0	0	0	0	0	0	0	0
2024-05-22	14:02:40	14:06:07	206633	6.6.1	4_exp_EVA_AWA_CON	46	B	A	Rpleas_acq	Oppo	Rpleas	1pleas	acq_new_unple_nomask	acq2_nomask	2	1	480	0	300	300	0	0	1605	50	0	0	schlau	spielen	freundlich	retten	tolerant	treu	schroff	strafen	fanatisch	rächen	tyrannisch	tot	helfen	loyal	schön	ehrlich	lachen	fair	hindern	lasch	schlecht	eitel	leiden	faul	1	blank2r.bmp	0	1	+	0	1	blank2r.bmp	500	8	C4r.bmp	500	1	blank2r.bmp	880	3	schlecht	880	1	FEHLER	2799	1	!	1313	1	!	-1	0	0	0
2024-05-22	14:02:40	14:06:09	208822	6.6.1	4_exp_EVA_AWA_CON	46	B	A	Rpleas_acq	Oppo	Rpleas	1pleas	acq_US_unple_nomask	acq2_nomask	2	2	480	0	300	300	0	0	616	46	1	0	schlau	spielen	freundlich	retten	tolerant	treu	schroff	strafen	fanatisch	rächen	tyrannisch	tot	helfen	loyal	schön	ehrlich	lachen	fair	hindern	lasch	schlecht	eitel	leiden	faul	1	blank2r.bmp	0	1	+	0	1	blank2r.bmp	500	1	GKQX	500	1	blank2r.bmp	880	2	strafen	880	1	!	1312	1	!	-1	0	0	0	0	0	0
2024-05-22	14:02:40	14:06:12	211422	6.6.1	4_exp_EVA_AWA_CON	46	B	A	Rpleas_acq	Oppo	Rpleas	1pleas	acq_US_unple_nomask	acq2_nomask	2	3	480	0	300	300	0	0	823	46	1	0	schlau	spielen	freundlich	retten	tolerant	treu	schroff	strafen	fanatisch	rächen	tyrannisch	tot	helfen	loyal	schön	ehrlich	lachen	fair	hindern	lasch	schlecht	eitel	leiden	faul	1	blank2r.bmp	0	1	+	0	1	blank2r.bmp	500	1	GKQX	500	1	blank2r.bmp	880	1	schroff	880	1	!	1312	1	!	-1	0	0	0	0	0	0
2024-05-22	14:02:40	14:06:14	213766	6.6.1	4_exp_EVA_AWA_CON	46	B	A	Rpleas_acq	Oppo	Rpleas	1pleas	acq_new_pleas_nomask	acq2_nomask	2	4	480	0	300	300	0	0	565	50	1	0	schlau	spielen	freundlich	retten	tolerant	treu	schroff	strafen	fanatisch	rächen	tyrannisch	tot	helfen	loyal	schön	ehrlich	lachen	fair	hindern	lasch	schlecht	eitel	leiden	faul	1	blank2r.bmp	0	1	+	0	1	blank2r.bmp	500	1	B1r.bmp	500	1	blank2r.bmp	880	3	schön	880	1	!	1313	1	!	-1	0	0	0	0	0	0
2024-05-22	14:02:40	14:06:16	216214	6.6.1	4_exp_EVA_AWA_CON	46	B	A	Rpleas_acq	Oppo	Rpleas	1pleas	acq_new_unple_nomask	acq2_nomask	2	5	480	0	300	300	0	0	672	46	1	0	schlau	spielen	freundlich	retten	tolerant	treu	schroff	strafen	fanatisch	rächen	tyrannisch	tot	helfen	loyal	schön	ehrlich	lachen	fair	hindern	lasch	schlecht	eitel	leiden	faul	1	blank2r.bmp	0	1	+	0	1	blank2r.bmp	500	5	C1r.bmp	500	1	blank2r.bmp	880	5	leiden	880	1	!	1313	1	!	-1	0	0	0	0	0	0
2024-05-22	14:02:40	14:06:19	218622	6.6.1	4_exp_EVA_AWA_CON	46	B	A	Rpleas_acq	Oppo	Rpleas	1pleas	acq_US_pleas_nomask	acq2_nomask	2	6	480	0	300	300	0	0	628	50	1	0	schlau	spielen	freundlich	retten	tolerant	treu	schroff	strafen	fanatisch	rächen	tyrannisch	tot	helfen	loyal	schön	ehrlich	lachen	fair	hindern	lasch	schlecht	eitel	leiden	faul	1	blank2r.bmp	0	1	+	0	1	blank2r.bmp	500	1	BMVZ	500	1	blank2r.bmp	880	5	tolerant	880	1	!	1313	1	!	-1	0	0	0	0	0	0
2024-05-22	14:02:40	14:06:21	221062	6.6.1	4_exp_EVA_AWA_CON	46	B	A	Rpleas_acq	Oppo	Rpleas	1pleas	acq_US_unple_nomask	acq2_nomask	2	7	480	0	300	300	0	0	657	46	1	0	schlau	spielen	freundlich	retten	tolerant	treu	schroff	strafen	fanatisch	rächen	tyrannisch	tot	helfen	loyal	schön	ehrlich	lachen	fair	hindern	lasch	schlecht	eitel	leiden	faul	1	blank2r.bmp	0	1	+	0	1	blank2r.bmp	500	1	GKQX	500	1	blank2r.bmp	880	6	tot	880	1	!	1312	1	!	-1	0	0	0	0	0	0
2024-05-22	14:02:40	14:06:24	223726	6.6.1	4_exp_EVA_AWA_CON	46	B	A	Rpleas_acq	Oppo	Rpleas	1pleas	acq_new_pleas_nomask	acq2_nomask	2	8	480	0	300	300	0	0	889	50	1	0	schlau	spielen	freundlich	retten	tolerant	treu	schroff	strafen	fanatisch	rächen	tyrannisch	tot	helfen	loyal	schön	ehrlich	lachen	fair	hindern	lasch	schlecht	eitel	leiden	faul	1	blank2r.bmp	0	1	+	0	1	blank2r.bmp	500	4	B4r.bmp	500	1	blank2r.bmp	880	5	lachen	880	1	!	1312	1	!	-1	0	0	0	0	0	0
2024-05-22	14:02:40	14:06:26	226105	6.6.1	4_exp_EVA_AWA_CON	46	B	A	Rpleas_acq	Oppo	Rpleas	1pleas	acq_US_pleas_nomask	acq2_nomask	2	9	480	0	300	300	0	0	393	46	0	0	schlau	spielen	freundlich	retten	tolerant	treu	schroff	strafen	fanatisch	rächen	tyrannisch	tot	helfen	loyal	schön	ehrlich	lachen	fair	hindern	lasch	schlecht	eitel	leiden	faul	1	blank2r.bmp	0	1	+	0	1	blank2r.bmp	500	1	BMVZ	500	1	blank2r.bmp	880	1	schlau	880	1	FEHLER	1587	1	!	-1	1	!	-1	0	0	0
2024-05-22	14:02:40	14:06:28	228144	6.6.1	4_exp_EVA_AWA_CON	46	B	A	Rpleas_acq	Oppo	Rpleas	1pleas	acq_US_pleas_nomask	acq2_nomask	2	10	480	1	300	300	0	0	462	50	1	0	schlau	spielen	freundlich	retten	tolerant	treu	schroff	strafen	fanatisch	rächen	tyrannisch	tot	helfen	loyal	schön	ehrlich	lachen	fair	hindern	lasch	schlecht	eitel	leiden	faul	1	blank2r.bmp	0	1	+	0	1	blank2r.bmp	500	1	BMVZ	500	1	blank2r.bmp	880	6	treu	880	1	!	1313	1	!	1364	0	0	0	0	0	0
2024-05-22	14:02:40	14:06:31	230535	6.6.1	4_exp_EVA_AWA_CON	46	B	A	Rpleas_acq	Oppo	Rpleas	1pleas	acq_new_unple_nomask	acq2_nomask	2	11	480	1	300	300	0	0	414	50	0	0	schlau	spielen	freundlich	retten	tolerant	treu	schroff	strafen	fanatisch	rächen	tyrannisch	tot	helfen	loyal	schön	ehrlich	lachen	fair	hindern	lasch	schlecht	eitel	leiden	faul	1	blank2r.bmp	0	1	+	0	1	blank2r.bmp	500	7	C3r.bmp	500	1	blank2r.bmp	880	6	faul	880	1	FEHLER	1605	1	!	1313	1	!	1313	0	0	0
2024-05-22	14:02:40	14:06:33	232841	6.6.1	4_exp_EVA_AWA_CON	46	B	A	Rpleas_acq	Oppo	Rpleas	1pleas	acq_new_pleas_nomask	acq2_nomask	2	12	480	1	300	300	0	0	525	46	0	0	schlau	spielen	freundlich	retten	tolerant	treu	schroff	strafen	fanatisch	rächen	tyrannisch	tot	helfen	loyal	schön	ehrlich	lachen	fair	hindern	lasch	schlecht	eitel	leiden	faul	1	blank2r.bmp	0	1	+	0	1	blank2r.bmp	500	3	B3r.bmp	500	1	blank2r.bmp	880	1	helfen	880	1	FEHLER	1719	1	!	1312	1	!	1427	0	0	0
2024-05-22	14:02:40	14:06:35	234856	6.6.1	4_exp_EVA_AWA_CON	46	B	A	Rpleas_acq	Oppo	Rpleas	1pleas	acq_US_pleas_nomask	acq2_nomask	2	13	480	1	300	300	0	0	440	50	1	0	schlau	spielen	freundlich	retten	tolerant	treu	schroff	strafen	fanatisch	rächen	tyrannisch	tot	helfen	loyal	schön	ehrlich	lachen	fair	hindern	lasch	schlecht	eitel	leiden	faul	1	blank2r.bmp	0	1	+	0	1	blank2r.bmp	500	1	BMVZ	500	1	blank2r.bmp	880	1	schlau	880	1	!	1312	1	!	1342	0	0	0	0	0	0
2024-05-22	14:02:40	14:06:37	237111	6.6.1	4_exp_EVA_AWA_CON	46	B	A	Rpleas_acq	Oppo	Rpleas	1pleas	acq_new_pleas_nomask	acq2_nomask	2	14	480	1	300	300	0	0	474	50	1	0	schlau	spielen	freundlich	retten	tolerant	treu	schroff	strafen	fanatisch	rächen	tyrannisch	tot	helfen	loyal	schön	ehrlich	lachen	fair	hindern	lasch	schlecht	eitel	leiden	faul	1	blank2r.bmp	0	1	+	0	1	blank2r.bmp	500	2	B2r.bmp	500	1	blank2r.bmp	880	4	ehrlich	880	1	!	1312	1	!	1376	0	0	0	0	0	0
2024-05-22	14:02:40	14:06:40	239537	6.6.1	4_exp_EVA_AWA_CON	46	B	A	Rpleas_acq	Oppo	Rpleas	1pleas	acq_new_unple_nomask	acq2_nomask	2	15	480	1	300	300	0	0	447	50	0	0	schlau	spielen	freundlich	retten	tolerant	treu	schroff	strafen	fanatisch	rächen	tyrannisch	tot	helfen	loyal	schön	ehrlich	lachen	fair	hindern	lasch	schlecht	eitel	leiden	faul	1	blank2r.bmp	0	1	+	0	1	blank2r.bmp	500	8	C4r.bmp	500	1	blank2r.bmp	880	6	faul	880	1	FEHLER	1640	1	!	1313	1	!	1348	0	0	0
2024-05-22	14:02:40	14:06:42	241953	6.6.1	4_exp_EVA_AWA_CON	46	B	A	Rpleas_acq	Oppo	Rpleas	1pleas	acq_US_unple_nomask	acq2_nomask	2	16	480	0	300	300	0	0	641	50	0	0	schlau	spielen	freundlich	retten	tolerant	treu	schroff	strafen	fanatisch	rächen	tyrannisch	tot	helfen	loyal	schön	ehrlich	lachen	fair	hindern	lasch	schlecht	eitel	leiden	faul	1	blank2r.bmp	0	1	+	0	1	blank2r.bmp	500	1	GKQX	500	1	blank2r.bmp	880	3	fanatisch	880	1	FEHLER	1835	1	!	1312	1	!	-1	0	0	0
2024-05-22	14:02:40	14:06:44	244023	6.6.1	4_exp_EVA_AWA_CON	46	B	A	Rpleas_acq	Oppo	Rpleas	1pleas	acq_new_unple_nomask	acq2_nomask	2	17	480	1	300	300	0	0	492	46	1	0	schlau	spielen	freundlich	retten	tolerant	treu	schroff	strafen	fanatisch	rächen	tyrannisch	tot	helfen	loyal	schön	ehrlich	lachen	fair	hindern	lasch	schlecht	eitel	leiden	faul	1	blank2r.bmp	0	1	+	0	1	blank2r.bmp	500	6	C2r.bmp	500	1	blank2r.bmp	880	2	lasch	880	1	!	1312	1	!	1393	0	0	0	0	0	0
2024-05-22	14:02:40	14:06:46	246390	6.6.1	4_exp_EVA_AWA_CON	46	B	A	Rpleas_acq	Oppo	Rpleas	1pleas	acq_new_unple_nomask	acq2_nomask	2	18	480	0	300	300	0	0	588	46	1	0	schlau	spielen	freundlich	retten	tolerant	treu	schroff	strafen	fanatisch	rächen	tyrannisch	tot	helfen	loyal	schön	ehrlich	lachen	fair	hindern	lasch	schlecht	eitel	leiden	faul	1	blank2r.bmp	0	1	+	0	1	blank2r.bmp	500	1	B1r.bmp	500	1	blank2r.bmp	880	1	hindern	880	1	!	1313	1	!	-1	0	0	0	0	0	0
2024-05-22	14:02:40	14:06:49	248865	6.6.1	4_exp_EVA_AWA_CON	46	B	A	Rpleas_acq	Oppo	Rpleas	1pleas	acq_US_unple_nomask	acq2_nomask	2	19	480	1	300	300	0	0	499	50	0	0	schlau	spielen	freundlich	retten	tolerant	treu	schroff	strafen	fanatisch	rächen	tyrannisch	tot	helfen	loyal	schön	ehrlich	lachen	fair	hindern	lasch	schlecht	eitel	leiden	faul	1	blank2r.bmp	0	1	+	0	1	blank2r.bmp	500	1	GKQX	500	1	blank2r.bmp	880	2	strafen	880	1	FEHLER	1693	1	!	1312	1	!	1400	0	0	0
2024-05-22	14:02:40	14:06:51	251004	6.6.1	4_exp_EVA_AWA_CON	46	B	A	Rpleas_acq	Oppo	Rpleas	1pleas	acq_new_pleas_nomask	acq2_nomask	2	20	480	0	300	300	0	0	561	50	1	0	schlau	spielen	freundlich	retten	tolerant	treu	schroff	strafen	fanatisch	rächen	tyrannisch	tot	helfen	loyal	schön	ehrlich	lachen	fair	hindern	lasch	schlecht	eitel	leiden	faul	1	blank2r.bmp	0	1	+	0	1	blank2r.bmp	500	4	B4r.bmp	500	1	blank2r.bmp	880	5	lachen	880	1	!	1312	1	!	-1	0	0	0	0	0	0
2024-05-22	14:02:40	14:06:53	253256	6.6.1	4_exp_EVA_AWA_CON	46	B	A	Rpleas_acq	Oppo	Rpleas	1pleas	acq_US_pleas_nomask	acq2_nomask	2	21	480	1	300	300	0	0	468	50	1	0	schlau	spielen	freundlich	retten	tolerant	treu	schroff	strafen	fanatisch	rächen	tyrannisch	tot	helfen	loyal	schön	ehrlich	lachen	fair	hindern	lasch	schlecht	eitel	leiden	faul	1	blank2r.bmp	0	1	+	0	1	blank2r.bmp	500	1	BMVZ	500	1	blank2r.bmp	880	3	freundlich	880	1	!	1313	1	!	1370	0	0	0	0	0	0
2024-05-22	14:02:40	14:06:56	255503	6.6.1	4_exp_EVA_AWA_CON	46	B	A	Rpleas_acq	Oppo	Rpleas	1pleas	acq_new_pleas_nomask	acq2_nomask	2	22	480	1	300	300	0	0	464	50	1	0	schlau	spielen	freundlich	retten	tolerant	treu	schroff	strafen	fanatisch	rächen	tyrannisch	tot	helfen	loyal	schön	ehrlich	lachen	fair	hindern	lasch	schlecht	eitel	leiden	faul	1	blank2r.bmp	0	1	+	0	1	blank2r.bmp	500	3	B3r.bmp	500	1	blank2r.bmp	880	1	helfen	880	1	!	1312	1	!	1366	0	0	0	0	0	0
2024-05-22	14:02:40	14:06:58	257727	6.6.1	4_exp_EVA_AWA_CON	46	B	A	Rpleas_acq	Oppo	Rpleas	1pleas	acq_US_pleas_nomask	acq2_nomask	2	23	480	1	300	300	0	0	447	50	1	0	schlau	spielen	freundlich	retten	tolerant	treu	schroff	strafen	fanatisch	rächen	tyrannisch	tot	helfen	loyal	schön	ehrlich	lachen	fair	hindern	lasch	schlecht	eitel	leiden	faul	1	blank2r.bmp	0	1	+	0	1	blank2r.bmp	500	1	BMVZ	500	1	blank2r.bmp	880	2	spielen	880	1	!	1312	1	!	1349	0	0	0	0	0	0
2024-05-22	14:02:40	14:07:00	260039	6.6.1	4_exp_EVA_AWA_CON	46	B	A	Rpleas_acq	Oppo	Rpleas	1pleas	acq_US_unple_nomask	acq2_nomask	2	24	480	1	300	300	0	0	538	46	1	0	schlau	spielen	freundlich	retten	tolerant	treu	schroff	strafen	fanatisch	rächen	tyrannisch	tot	helfen	loyal	schön	ehrlich	lachen	fair	hindern	lasch	schlecht	eitel	leiden	faul	1	blank2r.bmp	0	1	+	0	1	blank2r.bmp	500	1	GKQX	500	1	blank2r.bmp	880	1	schroff	880	1	!	1313	1	!	1439	0	0	0	0	0	0
2024-05-22	14:02:40	14:07:02	262352	6.6.1	4_exp_EVA_AWA_CON	46	B	A	Rpleas_acq	Oppo	Rpleas	1pleas	acq_US_pleas_nomask	acq2_nomask	2	25	480	1	300	300	0	0	538	50	1	0	schlau	spielen	freundlich	retten	tolerant	treu	schroff	strafen	fanatisch	rächen	tyrannisch	tot	helfen	loyal	schön	ehrlich	lachen	fair	hindern	lasch	schlecht	eitel	leiden	faul	1	blank2r.bmp	0	1	+	0	1	blank2r.bmp	500	1	BMVZ	500	1	blank2r.bmp	880	4	retten	880	1	!	1313	1	!	1440	0	0	0	0	0	0
2024-05-22	14:02:40	14:07:05	264750	6.6.1	4_exp_EVA_AWA_CON	46	B	A	Rpleas_acq	Oppo	Rpleas	1pleas	acq_new_pleas_nomask	acq2_nomask	2	26	480	1	300	300	0	0	417	46	0	0	schlau	spielen	freundlich	retten	tolerant	treu	schroff	strafen	fanatisch	rächen	tyrannisch	tot	helfen	loyal	schön	ehrlich	lachen	fair	hindern	lasch	schlecht	eitel	leiden	faul	1	blank2r.bmp	0	1	+	0	1	blank2r.bmp	500	5	C1r.bmp	500	1	blank2r.bmp	880	2	loyal	880	1	FEHLER	1608	1	!	1312	1	!	1317	0	0	0
2024-05-22	14:02:40	14:07:07	266856	6.6.1	4_exp_EVA_AWA_CON	46	B	A	Rpleas_acq	Oppo	Rpleas	1pleas	acq_US_unple_nomask	acq2_nomask	2	27	480	1	300	300	0	0	529	46	1	0	schlau	spielen	freundlich	retten	tolerant	treu	schroff	strafen	fanatisch	rächen	tyrannisch	tot	helfen	loyal	schön	ehrlich	lachen	fair	hindern	lasch	schlecht	eitel	leiden	faul	1	blank2r.bmp	0	1	+	0	1	blank2r.bmp	500	1	GKQX	500	1	blank2r.bmp	880	5	tyrannisch	880	1	!	1312	1	!	1432	0	0	0	0	0	0
2024-05-22	14:02:40	14:07:09	269345	6.6.1	4_exp_EVA_AWA_CON	46	B	A	Rpleas_acq	Oppo	Rpleas	1pleas	acq_new_unple_nomask	acq2_nomask	2	28	480	1	300	300	0	0	505	50	0	0	schlau	spielen	freundlich	retten	tolerant	treu	schroff	strafen	fanatisch	rächen	tyrannisch	tot	helfen	loyal	schön	ehrlich	lachen	fair	hindern	lasch	schlecht	eitel	leiden	faul	1	blank2r.bmp	0	1	+	0	1	blank2r.bmp	500	7	C3r.bmp	500	1	blank2r.bmp	880	4	eitel	880	1	FEHLER	1699	1	!	1312	1	!	1407	0	0	0
2024-05-22	14:02:40	14:07:12	271577	6.6.1	4_exp_EVA_AWA_CON	46	B	A	Rpleas_acq	Oppo	Rpleas	1pleas	acq_new_unple_nomask	acq2_nomask	2	29	480	1	300	300	0	0	456	50	0	0	schlau	spielen	freundlich	retten	tolerant	treu	schroff	strafen	fanatisch	rächen	tyrannisch	tot	helfen	loyal	schön	ehrlich	lachen	fair	hindern	lasch	schlecht	eitel	leiden	faul	1	blank2r.bmp	0	1	+	0	1	blank2r.bmp	500	5	C1r.bmp	500	1	blank2r.bmp	880	5	leiden	880	1	FEHLER	1650	1	!	1313	1	!	1358	0	0	0
2024-05-22	14:02:40	14:07:14	273832	6.6.1	4_exp_EVA_AWA_CON	46	B	A	Rpleas_acq	Oppo	Rpleas	1pleas	acq_new_pleas_nomask	acq2_nomask	2	30	480	1	300	300	0	0	481	46	0	0	schlau	spielen	freundlich	retten	tolerant	treu	schroff	strafen	fanatisch	rächen	tyrannisch	tot	helfen	loyal	schön	ehrlich	lachen	fair	hindern	lasch	schlecht	eitel	leiden	faul	1	blank2r.bmp	0	1	+	0	1	blank2r.bmp	500	8	C4r.bmp	500	1	blank2r.bmp	880	6	fair	880	1	FEHLER	1674	1	!	1312	1	!	1382	0	0	0
2024-05-22	14:02:40	14:07:16	275863	6.6.1	4_exp_EVA_AWA_CON	46	B	A	Rpleas_acq	Oppo	Rpleas	1pleas	acq_US_pleas_nomask	acq2_nomask	2	31	480	1	300	300	0	0	451	50	1	0	schlau	spielen	freundlich	retten	tolerant	treu	schroff	strafen	fanatisch	rächen	tyrannisch	tot	helfen	loyal	schön	ehrlich	lachen	fair	hindern	lasch	schlecht	eitel	leiden	faul	1	blank2r.bmp	0	1	+	0	1	blank2r.bmp	500	1	BMVZ	500	1	blank2r.bmp	880	6	treu	880	1	!	1313	1	!	1353	0	0	0	0	0	0
2024-05-22	14:02:40	14:07:18	278310	6.6.1	4_exp_EVA_AWA_CON	46	B	A	Rpleas_acq	Oppo	Rpleas	1pleas	acq_US_unple_nomask	acq2_nomask	2	32	480	0	300	300	0	0	668	46	1	0	schlau	spielen	freundlich	retten	tolerant	treu	schroff	strafen	fanatisch	rächen	tyrannisch	tot	helfen	loyal	schön	ehrlich	lachen	fair	hindern	lasch	schlecht	eitel	leiden	faul	1	blank2r.bmp	0	1	+	0	1	blank2r.bmp	500	1	GKQX	500	1	blank2r.bmp	880	4	rächen	880	1	!	1313	1	!	-1	0	0	0	0	0	0
2024-05-22	14:02:40	14:07:21	280591	6.6.1	4_exp_EVA_AWA_CON	46	B	A	Rpleas_acq	Oppo	Rpleas	1pleas	acq_US_pleas_nomask	acq2_nomask	2	33	480	1	300	300	0	0	506	50	1	0	schlau	spielen	freundlich	retten	tolerant	treu	schroff	strafen	fanatisch	rächen	tyrannisch	tot	helfen	loyal	schön	ehrlich	lachen	fair	hindern	lasch	schlecht	eitel	leiden	faul	1	blank2r.bmp	0	1	+	0	1	blank2r.bmp	500	1	BMVZ	500	1	blank2r.bmp	880	5	tolerant	880	1	!	1313	1	!	1408	0	0	0	0	0	0
2024-05-22	14:02:40	14:07:23	282871	6.6.1	4_exp_EVA_AWA_CON	46	B	A	Rpleas_acq	Oppo	Rpleas	1pleas	acq_new_pleas_nomask	acq2_nomask	2	34	480	1	300	300	0	0	505	50	1	0	schlau	spielen	freundlich	retten	tolerant	treu	schroff	strafen	fanatisch	rächen	tyrannisch	tot	helfen	loyal	schön	ehrlich	lachen	fair	hindern	lasch	schlecht	eitel	leiden	faul	1	blank2r.bmp	0	1	+	0	1	blank2r.bmp	500	1	B1r.bmp	500	1	blank2r.bmp	880	3	schön	880	1	!	1312	1	!	1406	0	0	0	0	0	0
2024-05-22	14:02:40	14:07:25	285062	6.6.1	4_exp_EVA_AWA_CON	46	B	A	Rpleas_acq	Oppo	Rpleas	1pleas	acq_new_unple_nomask	acq2_nomask	2	35	480	1	300	300	0	0	415	46	1	0	schlau	spielen	freundlich	retten	tolerant	treu	schroff	strafen	fanatisch	rächen	tyrannisch	tot	helfen	loyal	schön	ehrlich	lachen	fair	hindern	lasch	schlecht	eitel	leiden	faul	1	blank2r.bmp	0	1	+	0	1	blank2r.bmp	500	6	C2r.bmp	500	1	blank2r.bmp	880	3	schlecht	880	1	!	1313	1	!	1315	0	0	0	0	0	0
2024-05-22	14:02:40	14:07:27	287328	6.6.1	4_exp_EVA_AWA_CON	46	B	A	Rpleas_acq	Oppo	Rpleas	1pleas	acq_US_unple_nomask	acq2_nomask	2	36	480	1	300	300	0	0	488	46	1	0	schlau	spielen	freundlich	retten	tolerant	treu	schroff	strafen	fanatisch	rächen	tyrannisch	tot	helfen	loyal	schön	ehrlich	lachen	fair	hindern	lasch	schlecht	eitel	leiden	faul	1	blank2r.bmp	0	1	+	0	1	blank2r.bmp	500	1	GKQX	500	1	blank2r.bmp	880	6	tot	880	1	!	1313	1	!	1390	0	0	0	0	0	0
2024-05-22	14:02:40	14:07:41	300448	6.6.1	4_exp_EVA_AWA_CON	46	B	A	Rpleas_acq	Oppo	Rpleas	1pleas	acq_US_pleas_nomask	acq3_nomask	3	1	453	1	300	300	0	0	500	50	1	0	schlau	spielen	freundlich	retten	tolerant	treu	schroff	strafen	fanatisch	rächen	tyrannisch	tot	helfen	loyal	schön	ehrlich	lachen	fair	hindern	lasch	schlecht	eitel	leiden	faul	1	blank2r.bmp	0	1	+	0	1	blank2r.bmp	500	1	BMVZ	500	1	blank2r.bmp	880	1	schlau	880	1	!	1292	1	!	1402	0	0	0	0	0	0
2024-05-22	14:02:40	14:07:43	302518	6.6.1	4_exp_EVA_AWA_CON	46	B	A	Rpleas_acq	Oppo	Rpleas	1pleas	acq_US_unple_nomask	acq3_nomask	3	2	453	0	300	300	0	0	290	46	1	0	schlau	spielen	freundlich	retten	tolerant	treu	schroff	strafen	fanatisch	rächen	tyrannisch	tot	helfen	loyal	schön	ehrlich	lachen	fair	hindern	lasch	schlecht	eitel	leiden	faul	1	blank2r.bmp	0	1	+	0	1	blank2r.bmp	500	1	GKQX	500	1	blank2r.bmp	880	2	strafen	880	1	!	-1	1	!	-1	0	0	0	0	0	0
2024-05-22	14:02:40	14:07:45	304800	6.6.1	4_exp_EVA_AWA_CON	46	B	A	Rpleas_acq	Oppo	Rpleas	1pleas	acq_US_unple_nomask	acq3_nomask	3	3	453	1	300	300	0	0	499	46	1	0	schlau	spielen	freundlich	retten	tolerant	treu	schroff	strafen	fanatisch	rächen	tyrannisch	tot	helfen	loyal	schön	ehrlich	lachen	fair	hindern	lasch	schlecht	eitel	leiden	faul	1	blank2r.bmp	0	1	+	0	1	blank2r.bmp	500	1	GKQX	500	1	blank2r.bmp	880	5	tyrannisch	880	1	!	1292	1	!	1400	0	0	0	0	0	0
2024-05-22	14:02:40	14:07:47	307007	6.6.1	4_exp_EVA_AWA_CON	46	B	A	Rpleas_acq	Oppo	Rpleas	1pleas	acq_US_unple_nomask	acq3_nomask	3	4	453	1	300	300	0	0	425	46	1	0	schlau	spielen	freundlich	retten	tolerant	treu	schroff	strafen	fanatisch	rächen	tyrannisch	tot	helfen	loyal	schön	ehrlich	lachen	fair	hindern	lasch	schlecht	eitel	leiden	faul	1	blank2r.bmp	0	1	+	0	1	blank2r.bmp	500	1	GKQX	500	1	blank2r.bmp	880	4	rächen	880	1	!	1293	1	!	1327	0	0	0	0	0	0
2024-05-22	14:02:40	14:07:49	309142	6.6.1	4_exp_EVA_AWA_CON	46	B	A	Rpleas_acq	Oppo	Rpleas	1pleas	acq_US_pleas_nomask	acq3_nomask	3	5	453	0	300	300	0	0	360	50	1	0	schlau	spielen	freundlich	retten	tolerant	treu	schroff	strafen	fanatisch	rächen	tyrannisch	tot	helfen	loyal	schön	ehrlich	lachen	fair	hindern	lasch	schlecht	eitel	leiden	faul	1	blank2r.bmp	0	1	+	0	1	blank2r.bmp	500	1	BMVZ	500	1	blank2r.bmp	880	2	spielen	880	1	!	-1	1	!	-1	0	0	0	0	0	0
2024-05-22	14:02:40	14:07:51	311367	6.6.1	4_exp_EVA_AWA_CON	46	B	A	Rpleas_acq	Oppo	Rpleas	1pleas	acq_US_pleas_nomask	acq3_nomask	3	6	453	1	300	300	0	0	443	50	1	0	schlau	spielen	freundlich	retten	tolerant	treu	schroff	strafen	fanatisch	rächen	tyrannisch	tot	helfen	loyal	schön	ehrlich	lachen	fair	hindern	lasch	schlecht	eitel	leiden	faul	1	blank2r.bmp	0	1	+	0	1	blank2r.bmp	500	1	BMVZ	500	1	blank2r.bmp	880	6	treu	880	1	!	1293	1	!	1344	0	0	0	0	0	0
2024-05-22	14:02:40	14:07:54	313575	6.6.1	4_exp_EVA_AWA_CON	46	B	A	Rpleas_acq	Oppo	Rpleas	1pleas	acq_US_pleas_nomask	acq3_nomask	3	7	453	1	300	300	0	0	429	50	1	0	schlau	spielen	freundlich	retten	tolerant	treu	schroff	strafen	fanatisch	rächen	tyrannisch	tot	helfen	loyal	schön	ehrlich	lachen	fair	hindern	lasch	schlecht	eitel	leiden	faul	1	blank2r.bmp	0	1	+	0	1	blank2r.bmp	500	1	BMVZ	500	1	blank2r.bmp	880	4	retten	880	1	!	1292	1	!	1331	0	0	0	0	0	0
2024-05-22	14:02:40	14:07:56	316040	6.6.1	4_exp_EVA_AWA_CON	46	B	A	Rpleas_acq	Oppo	Rpleas	1pleas	acq_US_unple_nomask	acq3_nomask	3	8	453	1	300	300	0	0	482	50	0	0	schlau	spielen	freundlich	retten	tolerant	treu	schroff	strafen	fanatisch	rächen	tyrannisch	tot	helfen	loyal	schön	ehrlich	lachen	fair	hindern	lasch	schlecht	eitel	leiden	faul	1	blank2r.bmp	0	1	+	0	1	blank2r.bmp	500	1	GKQX	500	1	blank2r.bmp	880	3	fanatisch	880	1	FEHLER	1675	1	!	1292	1	!	1383	0	0	0
2024-05-22	14:02:40	14:07:58	318040	6.6.1	4_exp_EVA_AWA_CON	46	B	A	Rpleas_acq	Oppo	Rpleas	1pleas	acq_US_pleas_nomask	acq3_nomask	3	9	453	1	300	300	0	0	420	50	1	0	schlau	spielen	freundlich	retten	tolerant	treu	schroff	strafen	fanatisch	rächen	tyrannisch	tot	helfen	loyal	schön	ehrlich	lachen	fair	hindern	lasch	schlecht	eitel	leiden	faul	1	blank2r.bmp	0	1	+	0	1	blank2r.bmp	500	1	BMVZ	500	1	blank2r.bmp	880	3	freundlich	880	1	!	1292	1	!	1322	0	0	0	0	0	0
2024-05-22	14:02:40	14:08:00	320327	6.6.1	4_exp_EVA_AWA_CON	46	B	A	Rpleas_acq	Oppo	Rpleas	1pleas	acq_US_pleas_nomask	acq3_nomask	3	10	453	1	300	300	0	0	507	50	1	0	schlau	spielen	freundlich	retten	tolerant	treu	schroff	strafen	fanatisch	rächen	tyrannisch	tot	helfen	loyal	schön	ehrlich	lachen	fair	hindern	lasch	schlecht	eitel	leiden	faul	1	blank2r.bmp	0	1	+	0	1	blank2r.bmp	500	1	BMVZ	500	1	blank2r.bmp	880	5	tolerant	880	1	!	1292	1	!	1408	0	0	0	0	0	0
2024-05-22	14:02:40	14:08:03	322519	6.6.1	4_exp_EVA_AWA_CON	46	B	A	Rpleas_acq	Oppo	Rpleas	1pleas	acq_US_unple_nomask	acq3_nomask	3	11	453	1	300	300	0	0	417	46	1	0	schlau	spielen	freundlich	retten	tolerant	treu	schroff	strafen	fanatisch	rächen	tyrannisch	tot	helfen	loyal	schön	ehrlich	lachen	fair	hindern	lasch	schlecht	eitel	leiden	faul	1	blank2r.bmp	0	1	+	0	1	blank2r.bmp	500	1	GKQX	500	1	blank2r.bmp	880	6	tot	880	1	!	1292	1	!	1319	0	0	0	0	0	0
2024-05-22	14:02:40	14:08:05	324719	6.6.1	4_exp_EVA_AWA_CON	46	B	A	Rpleas_acq	Oppo	Rpleas	1pleas	acq_US_unple_nomask	acq3_nomask	3	12	453	1	300	300	0	0	426	46	1	0	schlau	spielen	freundlich	retten	tolerant	treu	schroff	strafen	fanatisch	rächen	tyrannisch	tot	helfen	loyal	schön	ehrlich	lachen	fair	hindern	lasch	schlecht	eitel	leiden	faul	1	blank2r.bmp	0	1	+	0	1	blank2r.bmp	500	1	GKQX	500	1	blank2r.bmp	880	1	schroff	880	1	!	1293	1	!	1328	0	0	0	0	0	0
2024-05-22	14:02:40	14:08:07	326991	6.6.1	4_exp_EVA_AWA_CON	46	B	A	Rpleas_acq	Oppo	Rpleas	1pleas	acq_US_unple_nomask	acq3_nomask	3	13	453	1	300	300	0	0	497	46	1	0	schlau	spielen	freundlich	retten	tolerant	treu	schroff	strafen	fanatisch	rächen	tyrannisch	tot	helfen	loyal	schön	ehrlich	lachen	fair	hindern	lasch	schlecht	eitel	leiden	faul	1	blank2r.bmp	0	1	+	0	1	blank2r.bmp	500	1	GKQX	500	1	blank2r.bmp	880	1	schroff	880	1	!	1292	1	!	1398	0	0	0	0	0	0
2024-05-22	14:02:40	14:08:09	329247	6.6.1	4_exp_EVA_AWA_CON	46	B	A	Rpleas_acq	Oppo	Rpleas	1pleas	acq_US_pleas_nomask	acq3_nomask	3	14	453	1	300	300	0	0	482	50	1	0	schlau	spielen	freundlich	retten	tolerant	treu	schroff	strafen	fanatisch	rächen	tyrannisch	tot	helfen	loyal	schön	ehrlich	lachen	fair	hindern	lasch	schlecht	eitel	leiden	faul	1	blank2r.bmp	0	1	+	0	1	blank2r.bmp	500	1	BMVZ	500	1	blank2r.bmp	880	5	tolerant	880	1	!	1293	1	!	1383	0	0	0	0	0	0
2024-05-22	14:02:40	14:08:12	331455	6.6.1	4_exp_EVA_AWA_CON	46	B	A	Rpleas_acq	Oppo	Rpleas	1pleas	acq_US_unple_nomask	acq3_nomask	3	15	453	1	300	300	0	0	428	46	1	0	schlau	spielen	freundlich	retten	tolerant	treu	schroff	strafen	fanatisch	rächen	tyrannisch	tot	helfen	loyal	schön	ehrlich	lachen	fair	hindern	lasch	schlecht	eitel	leiden	faul	1	blank2r.bmp	0	1	+	0	1	blank2r.bmp	500	1	GKQX	500	1	blank2r.bmp	880	2	strafen	880	1	!	1292	1	!	1329	0	0	0	0	0	0
2024-05-22	14:02:40	14:08:14	333889	6.6.1	4_exp_EVA_AWA_CON	46	B	A	Rpleas_acq	Oppo	Rpleas	1pleas	acq_US_unple_nomask	acq3_nomask	3	16	453	1	300	300	0	0	448	50	0	0	schlau	spielen	freundlich	retten	tolerant	treu	schroff	strafen	fanatisch	rächen	tyrannisch	tot	helfen	loyal	schön	ehrlich	lachen	fair	hindern	lasch	schlecht	eitel	leiden	faul	1	blank2r.bmp	0	1	+	0	1	blank2r.bmp	500	1	GKQX	500	1	blank2r.bmp	880	3	fanatisch	880	1	FEHLER	1642	1	!	1292	1	!	1350	0	0	0
2024-05-22	14:02:40	14:08:16	336056	6.6.1	4_exp_EVA_AWA_CON	46	B	A	Rpleas_acq	Oppo	Rpleas	1pleas	acq_US_pleas_nomask	acq3_nomask	3	17	453	0	300	300	0	0	385	46	0	0	schlau	spielen	freundlich	retten	tolerant	treu	schroff	strafen	fanatisch	rächen	tyrannisch	tot	helfen	loyal	schön	ehrlich	lachen	fair	hindern	lasch	schlecht	eitel	leiden	faul	1	blank2r.bmp	0	1	+	0	1	blank2r.bmp	500	1	BMVZ	500	1	blank2r.bmp	880	6	treu	880	1	FEHLER	1578	1	!	-1	1	!	-1	0	0	0
2024-05-22	14:02:40	14:08:18	338055	6.6.1	4_exp_EVA_AWA_CON	46	B	A	Rpleas_acq	Oppo	Rpleas	1pleas	acq_US_unple_nomask	acq3_nomask	3	18	453	1	300	300	0	0	423	46	1	0	schlau	spielen	freundlich	retten	tolerant	treu	schroff	strafen	fanatisch	rächen	tyrannisch	tot	helfen	loyal	schön	ehrlich	lachen	fair	hindern	lasch	schlecht	eitel	leiden	faul	1	blank2r.bmp	0	1	+	0	1	blank2r.bmp	500	1	GKQX	500	1	blank2r.bmp	880	4	rächen	880	1	!	1292	1	!	1325	0	0	0	0	0	0
2024-05-22	14:02:40	14:08:21	340513	6.6.1	4_exp_EVA_AWA_CON	46	B	A	Rpleas_acq	Oppo	Rpleas	1pleas	acq_US_pleas_nomask	acq3_nomask	3	19	453	1	300	300	0	0	478	46	0	0	schlau	spielen	freundlich	retten	tolerant	treu	schroff	strafen	fanatisch	rächen	tyrannisch	tot	helfen	loyal	schön	ehrlich	lachen	fair	hindern	lasch	schlecht	eitel	leiden	faul	1	blank2r.bmp	0	1	+	0	1	blank2r.bmp	500	1	BMVZ	500	1	blank2r.bmp	880	2	spielen	880	1	FEHLER	1672	1	!	1292	1	!	1380	0	0	0
2024-05-22	14:02:40	14:08:23	342527	6.6.1	4_exp_EVA_AWA_CON	46	B	A	Rpleas_acq	Oppo	Rpleas	1pleas	acq_US_pleas_nomask	acq3_nomask	3	20	453	1	300	300	0	0	432	50	1	0	schlau	spielen	freundlich	retten	tolerant	treu	schroff	strafen	fanatisch	rächen	tyrannisch	tot	helfen	loyal	schön	ehrlich	lachen	fair	hindern	lasch	schlecht	eitel	leiden	faul	1	blank2r.bmp	0	1	+	0	1	blank2r.bmp	500	1	BMVZ	500	1	blank2r.bmp	880	1	schlau	880	1	!	1292	1	!	1334	0	0	0	0	0	0
2024-05-22	14:02:40	14:08:25	344767	6.6.1	4_exp_EVA_AWA_CON	46	B	A	Rpleas_acq	Oppo	Rpleas	1pleas	acq_US_pleas_nomask	acq3_nomask	3	21	453	1	300	300	0	0	461	50	1	0	schlau	spielen	freundlich	retten	tolerant	treu	schroff	strafen	fanatisch	rächen	tyrannisch	tot	helfen	loyal	schön	ehrlich	lachen	fair	hindern	lasch	schlecht	eitel	leiden	faul	1	blank2r.bmp	0	1	+	0	1	blank2r.bmp	500	1	BMVZ	500	1	blank2r.bmp	880	3	freundlich	880	1	!	1292	1	!	1363	0	0	0	0	0	0
2024-05-22	14:02:40	14:08:27	347264	6.6.1	4_exp_EVA_AWA_CON	46	B	A	Rpleas_acq	Oppo	Rpleas	1pleas	acq_US_unple_nomask	acq3_nomask	3	22	453	1	300	300	0	0	516	50	0	0	schlau	spielen	freundlich	retten	tolerant	treu	schroff	strafen	fanatisch	rächen	tyrannisch	tot	helfen	loyal	schön	ehrlich	lachen	fair	hindern	lasch	schlecht	eitel	leiden	faul	1	blank2r.bmp	0	1	+	0	1	blank2r.bmp	500	1	GKQX	500	1	blank2r.bmp	880	5	tyrannisch	880	1	FEHLER	1709	1	!	1292	1	!	1417	0	0	0
2024-05-22	14:02:40	14:08:29	349320	6.6.1	4_exp_EVA_AWA_CON	46	B	A	Rpleas_acq	Oppo	Rpleas	1pleas	acq_US_unple_nomask	acq3_nomask	3	23	453	1	300	300	0	0	480	46	1	0	schlau	spielen	freundlich	retten	tolerant	treu	schroff	strafen	fanatisch	rächen	tyrannisch	tot	helfen	loyal	schön	ehrlich	lachen	fair	hindern	lasch	schlecht	eitel	leiden	faul	1	blank2r.bmp	0	1	+	0	1	blank2r.bmp	500	1	GKQX	500	1	blank2r.bmp	880	6	tot	880	1	!	1292	1	!	1382	0	0	0	0	0	0
2024-05-22	14:02:40	14:08:32	351776	6.6.1	4_exp_EVA_AWA_CON	46	B	A	Rpleas_acq	Oppo	Rpleas	1pleas	acq_US_pleas_nomask	acq3_nomask	3	24	453	1	300	300	0	0	475	46	0	0	schlau	spielen	freundlich	retten	tolerant	treu	schroff	strafen	fanatisch	rächen	tyrannisch	tot	helfen	loyal	schön	ehrlich	lachen	fair	hindern	lasch	schlecht	eitel	leiden	faul	1	blank2r.bmp	0	1	+	0	1	blank2r.bmp	500	1	BMVZ	500	1	blank2r.bmp	880	4	retten	880	1	FEHLER	1668	1	!	1292	1	!	1376	0	0	0
2024-05-22	14:02:40	14:08:34	353767	6.6.1	4_exp_EVA_AWA_CON	46	B	A	Rpleas_acq	Oppo	Rpleas	1pleas	acq_US_pleas_nomask	acq3_nomask	3	25	453	1	300	300	0	0	415	50	1	0	schlau	spielen	freundlich	retten	tolerant	treu	schroff	strafen	fanatisch	rächen	tyrannisch	tot	helfen	loyal	schön	ehrlich	lachen	fair	hindern	lasch	schlecht	eitel	leiden	faul	1	blank2r.bmp	0	1	+	0	1	blank2r.bmp	500	1	BMVZ	500	1	blank2r.bmp	880	5	tolerant	880	1	!	1292	1	!	1317	0	0	0	0	0	0
2024-05-22	14:02:40	14:08:36	356143	6.6.1	4_exp_EVA_AWA_CON	46	B	A	Rpleas_acq	Oppo	Rpleas	1pleas	acq_US_unple_nomask	acq3_nomask	3	26	453	1	300	300	0	0	400	50	0	0	schlau	spielen	freundlich	retten	tolerant	treu	schroff	strafen	fanatisch	rächen	tyrannisch	tot	helfen	loyal	schön	ehrlich	lachen	fair	hindern	lasch	schlecht	eitel	leiden	faul	1	blank2r.bmp	0	1	+	0	1	blank2r.bmp	500	1	GKQX	500	1	blank2r.bmp	880	2	strafen	880	1	FEHLER	1592	1	!	1293	1	!	1300	0	0	0
2024-05-22	14:02:40	14:08:41	360494	6.6.1	4_exp_EVA_AWA_CON	46	B	A	Rpleas_acq	Oppo	Rpleas	1pleas	acq_US_unple_nomask	acq3_nomask	3	27	453	0	300	300	0	0	2771	46	1	0	schlau	spielen	freundlich	retten	tolerant	treu	schroff	strafen	fanatisch	rächen	tyrannisch	tot	helfen	loyal	schön	ehrlich	lachen	fair	hindern	lasch	schlecht	eitel	leiden	faul	1	blank2r.bmp	0	1	+	0	1	blank2r.bmp	500	1	GKQX	500	1	blank2r.bmp	880	5	tyrannisch	880	1	!	1292	1	!	-1	0	0	0	0	0	0
2024-05-22	14:02:40	14:08:43	362930	6.6.1	4_exp_EVA_AWA_CON	46	B	A	Rpleas_acq	Oppo	Rpleas	1pleas	acq_US_unple_nomask	acq3_nomask	3	28	453	1	300	300	0	0	449	50	0	0	schlau	spielen	freundlich	retten	tolerant	treu	schroff	strafen	fanatisch	rächen	tyrannisch	tot	helfen	loyal	schön	ehrlich	lachen	fair	hindern	lasch	schlecht	eitel	leiden	faul	1	blank2r.bmp	0	1	+	0	1	blank2r.bmp	500	1	GKQX	500	1	blank2r.bmp	880	3	fanatisch	880	1	FEHLER	1644	1	!	1292	1	!	1352	0	0	0
2024-05-22	14:02:40	14:08:45	365000	6.6.1	4_exp_EVA_AWA_CON	46	B	A	Rpleas_acq	Oppo	Rpleas	1pleas	acq_US_unple_nomask	acq3_nomask	3	29	453	1	300	300	0	0	490	46	1	0	schlau	spielen	freundlich	retten	tolerant	treu	schroff	strafen	fanatisch	rächen	tyrannisch	tot	helfen	loyal	schön	ehrlich	lachen	fair	hindern	lasch	schlecht	eitel	leiden	faul	1	blank2r.bmp	0	1	+	0	1	blank2r.bmp	500	1	GKQX	500	1	blank2r.bmp	880	4	rächen	880	1	!	1292	1	!	1392	0	0	0	0	0	0
2024-05-22	14:02:40	14:08:47	367182	6.6.1	4_exp_EVA_AWA_CON	46	B	A	Rpleas_acq	Oppo	Rpleas	1pleas	acq_US_pleas_nomask	acq3_nomask	3	30	453	1	300	300	0	0	403	50	1	0	schlau	spielen	freundlich	retten	tolerant	treu	schroff	strafen	fanatisch	rächen	tyrannisch	tot	helfen	loyal	schön	ehrlich	lachen	fair	hindern	lasch	schlecht	eitel	leiden	faul	1	blank2r.bmp	0	1	+	0	1	blank2r.bmp	500	1	BMVZ	500	1	blank2r.bmp	880	6	treu	880	1	!	1292	1	!	1303	0	0	0	0	0	0
2024-05-22	14:02:40	14:08:50	369415	6.6.1	4_exp_EVA_AWA_CON	46	B	A	Rpleas_acq	Oppo	Rpleas	1pleas	acq_US_unple_nomask	acq3_nomask	3	31	453	1	300	300	0	0	453	46	1	0	schlau	spielen	freundlich	retten	tolerant	treu	schroff	strafen	fanatisch	rächen	tyrannisch	tot	helfen	loyal	schön	ehrlich	lachen	fair	hindern	lasch	schlecht	eitel	leiden	faul	1	blank2r.bmp	0	1	+	0	1	blank2r.bmp	500	1	GKQX	500	1	blank2r.bmp	880	6	tot	880	1	!	1292	1	!	1355	0	0	0	0	0	0
2024-05-22	14:02:40	14:08:52	371655	6.6.1	4_exp_EVA_AWA_CON	46	B	A	Rpleas_acq	Oppo	Rpleas	1pleas	acq_US_pleas_nomask	acq3_nomask	3	32	453	1	300	300	0	0	462	50	1	0	schlau	spielen	freundlich	retten	tolerant	treu	schroff	strafen	fanatisch	rächen	tyrannisch	tot	helfen	loyal	schön	ehrlich	lachen	fair	hindern	lasch	schlecht	eitel	leiden	faul	1	blank2r.bmp	0	1	+	0	1	blank2r.bmp	500	1	BMVZ	500	1	blank2r.bmp	880	3	freundlich	880	1	!	1293	1	!	1363	0	0	0	0	0	0
2024-05-22	14:02:40	14:08:54	373904	6.6.1	4_exp_EVA_AWA_CON	46	B	A	Rpleas_acq	Oppo	Rpleas	1pleas	acq_US_pleas_nomask	acq3_nomask	3	33	453	1	300	300	0	0	468	50	1	0	schlau	spielen	freundlich	retten	tolerant	treu	schroff	strafen	fanatisch	rächen	tyrannisch	tot	helfen	loyal	schön	ehrlich	lachen	fair	hindern	lasch	schlecht	eitel	leiden	faul	1	blank2r.bmp	0	1	+	0	1	blank2r.bmp	500	1	BMVZ	500	1	blank2r.bmp	880	2	spielen	880	1	!	1292	1	!	1370	0	0	0	0	0	0
2024-05-22	14:02:40	14:08:56	376111	6.6.1	4_exp_EVA_AWA_CON	46	B	A	Rpleas_acq	Oppo	Rpleas	1pleas	acq_US_pleas_nomask	acq3_nomask	3	34	453	1	300	300	0	0	425	50	1	0	schlau	spielen	freundlich	retten	tolerant	treu	schroff	strafen	fanatisch	rächen	tyrannisch	tot	helfen	loyal	schön	ehrlich	lachen	fair	hindern	lasch	schlecht	eitel	leiden	faul	1	blank2r.bmp	0	1	+	0	1	blank2r.bmp	500	1	BMVZ	500	1	blank2r.bmp	880	4	retten	880	1	!	1292	1	!	1326	0	0	0	0	0	0
2024-05-22	14:02:40	14:08:58	378359	6.6.1	4_exp_EVA_AWA_CON	46	B	A	Rpleas_acq	Oppo	Rpleas	1pleas	acq_US_pleas_nomask	acq3_nomask	3	35	453	1	300	300	0	0	472	50	1	0	schlau	spielen	freundlich	retten	tolerant	treu	schroff	strafen	fanatisch	rächen	tyrannisch	tot	helfen	loyal	schön	ehrlich	lachen	fair	hindern	lasch	schlecht	eitel	leiden	faul	1	blank2r.bmp	0	1	+	0	1	blank2r.bmp	500	1	BMVZ	500	1	blank2r.bmp	880	1	schlau	880	1	!	1293	1	!	1373	0	0	0	0	0	0
2024-05-22	14:02:40	14:09:01	380713	6.6.1	4_exp_EVA_AWA_CON	46	B	A	Rpleas_acq	Oppo	Rpleas	1pleas	acq_US_unple_nomask	acq3_nomask	3	36	453	0	300	300	0	0	372	50	0	0	schlau	spielen	freundlich	retten	tolerant	treu	schroff	strafen	fanatisch	rächen	tyrannisch	tot	helfen	loyal	schön	ehrlich	lachen	fair	hindern	lasch	schlecht	eitel	leiden	faul	1	blank2r.bmp	0	1	+	0	1	blank2r.bmp	500	1	GKQX	500	1	blank2r.bmp	880	1	schroff	880	1	FEHLER	1566	1	!	-1	1	!	-1	0	0	0
2024-05-22	14:02:40	14:09:15	394861	6.6.1	4_exp_EVA_AWA_CON	46	B	A	Rpleas_acq	Oppo	Rpleas	1pleas	acq_US_pleas_nomask	acq45_nomask	4	1	400	0	300	300	0	0	495	50	1	0	schlau	spielen	freundlich	retten	tolerant	treu	schroff	strafen	fanatisch	rächen	tyrannisch	tot	helfen	loyal	schön	ehrlich	lachen	fair	hindern	lasch	schlecht	eitel	leiden	faul	1	blank2r.bmp	0	1	+	0	1	blank2r.bmp	500	1	BMVZ	500	1	blank2r.bmp	880	2	spielen	880	1	!	1233	1	!	-1	0	0	0	0	0	0
2024-05-22	14:02:40	14:09:17	397133	6.6.1	4_exp_EVA_AWA_CON	46	B	A	Rpleas_acq	Oppo	Rpleas	1pleas	acq_US_unple_nomask	acq45_nomask	4	2	400	0	300	300	0	0	496	46	1	0	schlau	spielen	freundlich	retten	tolerant	treu	schroff	strafen	fanatisch	rächen	tyrannisch	tot	helfen	loyal	schön	ehrlich	lachen	fair	hindern	lasch	schlecht	eitel	leiden	faul	1	blank2r.bmp	0	1	+	0	1	blank2r.bmp	500	1	GKQX	500	1	blank2r.bmp	880	1	schroff	880	1	!	1232	1	!	-1	0	0	0	0	0	0
2024-05-22	14:02:40	14:09:19	399375	6.6.1	4_exp_EVA_AWA_CON	46	B	A	Rpleas_acq	Oppo	Rpleas	1pleas	acq_US_pleas_nomask	acq45_nomask	4	3	400	1	300	300	0	0	464	50	1	0	schlau	spielen	freundlich	retten	tolerant	treu	schroff	strafen	fanatisch	rächen	tyrannisch	tot	helfen	loyal	schön	ehrlich	lachen	fair	hindern	lasch	schlecht	eitel	leiden	faul	1	blank2r.bmp	0	1	+	0	1	blank2r.bmp	500	1	BMVZ	500	1	blank2r.bmp	880	4	retten	880	1	!	1232	1	!	1366	0	0	0	0	0	0
2024-05-22	14:02:40	14:09:22	401628	6.6.1	4_exp_EVA_AWA_CON	46	B	A	Rpleas_acq	Oppo	Rpleas	1pleas	acq_US_pleas_nomask	acq45_nomask	4	4	400	0	300	300	0	0	479	50	1	0	schlau	spielen	freundlich	retten	tolerant	treu	schroff	strafen	fanatisch	rächen	tyrannisch	tot	helfen	loyal	schön	ehrlich	lachen	fair	hindern	lasch	schlecht	eitel	leiden	faul	1	blank2r.bmp	0	1	+	0	1	blank2r.bmp	500	1	BMVZ	500	1	blank2r.bmp	880	6	treu	880	1	!	1232	1	!	-1	0	0	0	0	0	0
2024-05-22	14:02:40	14:09:24	403775	6.6.1	4_exp_EVA_AWA_CON	46	B	A	Rpleas_acq	Oppo	Rpleas	1pleas	acq_US_pleas_nomask	acq45_nomask	4	5	400	1	300	300	0	0	371	50	1	0	schlau	spielen	freundlich	retten	tolerant	treu	schroff	strafen	fanatisch	rächen	tyrannisch	tot	helfen	loyal	schön	ehrlich	lachen	fair	hindern	lasch	schlecht	eitel	leiden	faul	1	blank2r.bmp	0	1	+	0	1	blank2r.bmp	500	1	BMVZ	500	1	blank2r.bmp	880	5	tolerant	880	1	!	1233	1	!	1273	0	0	0	0	0	0
2024-05-22	14:02:40	14:09:26	405967	6.6.1	4_exp_EVA_AWA_CON	46	B	A	Rpleas_acq	Oppo	Rpleas	1pleas	acq_US_unple_nomask	acq45_nomask	4	6	400	1	300	300	0	0	412	46	1	0	schlau	spielen	freundlich	retten	tolerant	treu	schroff	strafen	fanatisch	rächen	tyrannisch	tot	helfen	loyal	schön	ehrlich	lachen	fair	hindern	lasch	schlecht	eitel	leiden	faul	1	blank2r.bmp	0	1	+	0	1	blank2r.bmp	500	1	GKQX	500	1	blank2r.bmp	880	6	tot	880	1	!	1232	1	!	1313	0	0	0	0	0	0
2024-05-22	14:02:40	14:09:28	408086	6.6.1	4_exp_EVA_AWA_CON	46	B	A	Rpleas_acq	Oppo	Rpleas	1pleas	acq_US_unple_nomask	acq45_nomask	4	7	400	1	300	300	0	0	340	50	0	0	schlau	spielen	freundlich	retten	tolerant	treu	schroff	strafen	fanatisch	rächen	tyrannisch	tot	helfen	loyal	schön	ehrlich	lachen	fair	hindern	lasch	schlecht	eitel	leiden	faul	1	blank2r.bmp	0	1	+	0	1	blank2r.bmp	500	1	GKQX	500	1	blank2r.bmp	880	2	strafen	880	1	!	1233	1	!	1240	0	0	0	0	0	0
2024-05-22	14:02:40	14:09:31	410413	6.6.1	4_exp_EVA_AWA_CON	46	B	A	Rpleas_acq	Oppo	Rpleas	1pleas	acq_US_unple_nomask	acq45_nomask	4	8	400	0	300	300	0	0	547	46	1	0	schlau	spielen	freundlich	retten	tolerant	treu	schroff	strafen	fanatisch	rächen	tyrannisch	tot	helfen	loyal	schön	ehrlich	lachen	fair	hindern	lasch	schlecht	eitel	leiden	faul	1	blank2r.bmp	0	1	+	0	1	blank2r.bmp	500	1	GKQX	500	1	blank2r.bmp	880	4	rächen	880	1	!	1232	1	!	-1	0	0	0	0	0	0
2024-05-22	14:02:40	14:09:33	412535	6.6.1	4_exp_EVA_AWA_CON	46	B	A	Rpleas_acq	Oppo	Rpleas	1pleas	acq_US_pleas_nomask	acq45_nomask	4	9	400	1	300	300	0	0	346	50	1	0	schlau	spielen	freundlich	retten	tolerant	treu	schroff	strafen	fanatisch	rächen	tyrannisch	tot	helfen	loyal	schön	ehrlich	lachen	fair	hindern	lasch	schlecht	eitel	leiden	faul	1	blank2r.bmp	0	1	+	0	1	blank2r.bmp	500	1	BMVZ	500	1	blank2r.bmp	880	3	freundlich	880	1	!	1232	1	!	1247	0	0	0	0	0	0
2024-05-22	14:02:40	14:09:35	414752	6.6.1	4_exp_EVA_AWA_CON	46	B	A	Rpleas_acq	Oppo	Rpleas	1pleas	acq_US_unple_nomask	acq45_nomask	4	10	400	1	300	300	0	0	440	50	0	0	schlau	spielen	freundlich	retten	tolerant	treu	schroff	strafen	fanatisch	rächen	tyrannisch	tot	helfen	loyal	schön	ehrlich	lachen	fair	hindern	lasch	schlecht	eitel	leiden	faul	1	blank2r.bmp	0	1	+	0	1	blank2r.bmp	500	1	GKQX	500	1	blank2r.bmp	880	3	fanatisch	880	1	!	1232	1	!	1342	0	0	0	0	0	0
2024-05-22	14:02:40	14:09:37	416943	6.6.1	4_exp_EVA_AWA_CON	46	B	A	Rpleas_acq	Oppo	Rpleas	1pleas	acq_US_unple_nomask	acq45_nomask	4	11	400	1	300	300	0	0	411	50	0	0	schlau	spielen	freundlich	retten	tolerant	treu	schroff	strafen	fanatisch	rächen	tyrannisch	tot	helfen	loyal	schön	ehrlich	lachen	fair	hindern	lasch	schlecht	eitel	leiden	faul	1	blank2r.bmp	0	1	+	0	1	blank2r.bmp	500	1	GKQX	500	1	blank2r.bmp	880	5	tyrannisch	880	1	!	1232	1	!	1313	0	0	0	0	0	0
2024-05-22	14:02:40	14:09:39	419175	6.6.1	4_exp_EVA_AWA_CON	46	B	A	Rpleas_acq	Oppo	Rpleas	1pleas	acq_US_pleas_nomask	acq45_nomask	4	12	400	1	300	300	0	0	451	50	1	0	schlau	spielen	freundlich	retten	tolerant	treu	schroff	strafen	fanatisch	rächen	tyrannisch	tot	helfen	loyal	schön	ehrlich	lachen	fair	hindern	lasch	schlecht	eitel	leiden	faul	1	blank2r.bmp	0	1	+	0	1	blank2r.bmp	500	1	BMVZ	500	1	blank2r.bmp	880	1	schlau	880	1	!	1233	1	!	1353	0	0	0	0	0	0
2024-05-22	14:02:40	14:09:41	421376	6.6.1	4_exp_EVA_AWA_CON	46	B	A	Rpleas_acq	Oppo	Rpleas	1pleas	acq_US_unple_nomask	acq45_nomask	4	13	400	1	300	300	0	0	420	46	1	0	schlau	spielen	freundlich	retten	tolerant	treu	schroff	strafen	fanatisch	rächen	tyrannisch	tot	helfen	loyal	schön	ehrlich	lachen	fair	hindern	lasch	schlecht	eitel	leiden	faul	1	blank2r.bmp	0	1	+	0	1	blank2r.bmp	500	1	GKQX	500	1	blank2r.bmp	880	4	rächen	880	1	!	1232	1	!	1322	0	0	0	0	0	0
2024-05-22	14:02:40	14:09:44	423576	6.6.1	4_exp_EVA_AWA_CON	46	B	A	Rpleas_acq	Oppo	Rpleas	1pleas	acq_US_unple_nomask	acq45_nomask	4	14	400	1	300	300	0	0	418	46	1	0	schlau	spielen	freundlich	retten	tolerant	treu	schroff	strafen	fanatisch	rächen	tyrannisch	tot	helfen	loyal	schön	ehrlich	lachen	fair	hindern	lasch	schlecht	eitel	leiden	faul	1	blank2r.bmp	0	1	+	0	1	blank2r.bmp	500	1	GKQX	500	1	blank2r.bmp	880	2	strafen	880	1	!	1232	1	!	1320	0	0	0	0	0	0
2024-05-22	14:02:40	14:09:46	425711	6.6.1	4_exp_EVA_AWA_CON	46	B	A	Rpleas_acq	Oppo	Rpleas	1pleas	acq_US_pleas_nomask	acq45_nomask	4	15	400	1	300	300	0	0	353	50	1	0	schlau	spielen	freundlich	retten	tolerant	treu	schroff	strafen	fanatisch	rächen	tyrannisch	tot	helfen	loyal	schön	ehrlich	lachen	fair	hindern	lasch	schlecht	eitel	leiden	faul	1	blank2r.bmp	0	1	+	0	1	blank2r.bmp	500	1	BMVZ	500	1	blank2r.bmp	880	4	retten	880	1	!	1233	1	!	1255	0	0	0	0	0	0
2024-05-22	14:02:40	14:09:48	427863	6.6.1	4_exp_EVA_AWA_CON	46	B	A	Rpleas_acq	Oppo	Rpleas	1pleas	acq_US_pleas_nomask	acq45_nomask	4	16	400	1	300	300	0	0	374	50	1	0	schlau	spielen	freundlich	retten	tolerant	treu	schroff	strafen	fanatisch	rächen	tyrannisch	tot	helfen	loyal	schön	ehrlich	lachen	fair	hindern	lasch	schlecht	eitel	leiden	faul	1	blank2r.bmp	0	1	+	0	1	blank2r.bmp	500	1	BMVZ	500	1	blank2r.bmp	880	5	tolerant	880	1	!	1232	1	!	1275	0	0	0	0	0	0
2024-05-22	14:02:40	14:09:50	430040	6.6.1	4_exp_EVA_AWA_CON	46	B	A	Rpleas_acq	Oppo	Rpleas	1pleas	acq_US_pleas_nomask	acq45_nomask	4	17	400	1	300	300	0	0	398	50	1	0	schlau	spielen	freundlich	retten	tolerant	treu	schroff	strafen	fanatisch	rächen	tyrannisch	tot	helfen	loyal	schön	ehrlich	lachen	fair	hindern	lasch	schlecht	eitel	leiden	faul	1	blank2r.bmp	0	1	+	0	1	blank2r.bmp	500	1	BMVZ	500	1	blank2r.bmp	880	1	schlau	880	1	!	1232	1	!	1300	0	0	0	0	0	0
2024-05-22	14:02:40	14:09:52	432309	6.6.1	4_exp_EVA_AWA_CON	46	B	A	Rpleas_acq	Oppo	Rpleas	1pleas	acq_US_unple_nomask	acq45_nomask	4	18	400	0	300	300	0	0	489	50	0	0	schlau	spielen	freundlich	retten	tolerant	treu	schroff	strafen	fanatisch	rächen	tyrannisch	tot	helfen	loyal	schön	ehrlich	lachen	fair	hindern	lasch	schlecht	eitel	leiden	faul	1	blank2r.bmp	0	1	+	0	1	blank2r.bmp	500	1	GKQX	500	1	blank2r.bmp	880	3	fanatisch	880	1	!	1232	1	!	-1	0	0	0	0	0	0
2024-05-22	14:02:40	14:09:55	434535	6.6.1	4_exp_EVA_AWA_CON	46	B	A	Rpleas_acq	Oppo	Rpleas	1pleas	acq_US_pleas_nomask	acq45_nomask	4	19	400	1	300	300	0	0	451	50	1	0	schlau	spielen	freundlich	retten	tolerant	treu	schroff	strafen	fanatisch	rächen	tyrannisch	tot	helfen	loyal	schön	ehrlich	lachen	fair	hindern	lasch	schlecht	eitel	leiden	faul	1	blank2r.bmp	0	1	+	0	1	blank2r.bmp	500	1	BMVZ	500	1	blank2r.bmp	880	3	freundlich	880	1	!	1232	1	!	1353	0	0	0	0	0	0
2024-05-22	14:02:40	14:09:57	436727	6.6.1	4_exp_EVA_AWA_CON	46	B	A	Rpleas_acq	Oppo	Rpleas	1pleas	acq_US_unple_nomask	acq45_nomask	4	20	400	1	300	300	0	0	412	46	1	0	schlau	spielen	freundlich	retten	tolerant	treu	schroff	strafen	fanatisch	rächen	tyrannisch	tot	helfen	loyal	schön	ehrlich	lachen	fair	hindern	lasch	schlecht	eitel	leiden	faul	1	blank2r.bmp	0	1	+	0	1	blank2r.bmp	500	1	GKQX	500	1	blank2r.bmp	880	6	tot	880	1	!	1232	1	!	1314	0	0	0	0	0	0
2024-05-22	14:02:40	14:09:59	438821	6.6.1	4_exp_EVA_AWA_CON	46	B	A	Rpleas_acq	Oppo	Rpleas	1pleas	acq_US_unple_nomask	acq45_nomask	4	21	400	0	300	300	0	0	317	50	0	0	schlau	spielen	freundlich	retten	tolerant	treu	schroff	strafen	fanatisch	rächen	tyrannisch	tot	helfen	loyal	schön	ehrlich	lachen	fair	hindern	lasch	schlecht	eitel	leiden	faul	1	blank2r.bmp	0	1	+	0	1	blank2r.bmp	500	1	GKQX	500	1	blank2r.bmp	880	5	tyrannisch	880	1	!	-1	1	!	-1	0	0	0	0	0	0
2024-05-22	14:02:40	14:10:01	441063	6.6.1	4_exp_EVA_AWA_CON	46	B	A	Rpleas_acq	Oppo	Rpleas	1pleas	acq_US_unple_nomask	acq45_nomask	4	22	400	1	300	300	0	0	465	50	0	0	schlau	spielen	freundlich	retten	tolerant	treu	schroff	strafen	fanatisch	rächen	tyrannisch	tot	helfen	loyal	schön	ehrlich	lachen	fair	hindern	lasch	schlecht	eitel	leiden	faul	1	blank2r.bmp	0	1	+	0	1	blank2r.bmp	500	1	GKQX	500	1	blank2r.bmp	880	1	schroff	880	1	!	1232	1	!	1367	0	0	0	0	0	0
2024-05-22	14:02:40	14:10:03	443166	6.6.1	4_exp_EVA_AWA_CON	46	B	A	Rpleas_acq	Oppo	Rpleas	1pleas	acq_US_pleas_nomask	acq45_nomask	4	23	400	0	300	300	0	0	328	46	0	0	schlau	spielen	freundlich	retten	tolerant	treu	schroff	strafen	fanatisch	rächen	tyrannisch	tot	helfen	loyal	schön	ehrlich	lachen	fair	hindern	lasch	schlecht	eitel	leiden	faul	1	blank2r.bmp	0	1	+	0	1	blank2r.bmp	500	1	BMVZ	500	1	blank2r.bmp	880	2	spielen	880	1	!	-1	1	!	-1	0	0	0	0	0	0
2024-05-22	14:02:40	14:10:06	445445	6.6.1	4_exp_EVA_AWA_CON	46	B	A	Rpleas_acq	Oppo	Rpleas	1pleas	acq_US_pleas_nomask	acq45_nomask	4	24	400	0	300	300	0	0	506	50	1	0	schlau	spielen	freundlich	retten	tolerant	treu	schroff	strafen	fanatisch	rächen	tyrannisch	tot	helfen	loyal	schön	ehrlich	lachen	fair	hindern	lasch	schlecht	eitel	leiden	faul	1	blank2r.bmp	0	1	+	0	1	blank2r.bmp	500	1	BMVZ	500	1	blank2r.bmp	880	6	treu	880	1	!	1233	1	!	-1	0	0	0	0	0	0
2024-05-22	14:02:40	14:10:08	447567	6.6.1	4_exp_EVA_AWA_CON	46	B	A	Rpleas_acq	Oppo	Rpleas	1pleas	acq_US_unple_nomask	acq45_nomask	4	25	400	1	300	300	0	0	345	50	0	0	schlau	spielen	freundlich	retten	tolerant	treu	schroff	strafen	fanatisch	rächen	tyrannisch	tot	helfen	loyal	schön	ehrlich	lachen	fair	hindern	lasch	schlecht	eitel	leiden	faul	1	blank2r.bmp	0	1	+	0	1	blank2r.bmp	500	1	GKQX	500	1	blank2r.bmp	880	2	strafen	880	1	!	1232	1	!	1247	0	0	0	0	0	0
2024-05-22	14:02:40	14:10:10	449759	6.6.1	4_exp_EVA_AWA_CON	46	B	A	Rpleas_acq	Oppo	Rpleas	1pleas	acq_US_unple_nomask	acq45_nomask	4	26	400	1	300	300	0	0	416	46	1	0	schlau	spielen	freundlich	retten	tolerant	treu	schroff	strafen	fanatisch	rächen	tyrannisch	tot	helfen	loyal	schön	ehrlich	lachen	fair	hindern	lasch	schlecht	eitel	leiden	faul	1	blank2r.bmp	0	1	+	0	1	blank2r.bmp	500	1	GKQX	500	1	blank2r.bmp	880	6	tot	880	1	!	1232	1	!	1317	0	0	0	0	0	0
2024-05-22	14:02:40	14:10:12	451912	6.6.1	4_exp_EVA_AWA_CON	46	B	A	Rpleas_acq	Oppo	Rpleas	1pleas	acq_US_pleas_nomask	acq45_nomask	4	27	400	1	300	300	0	0	376	50	1	0	schlau	spielen	freundlich	retten	tolerant	treu	schroff	strafen	fanatisch	rächen	tyrannisch	tot	helfen	loyal	schön	ehrlich	lachen	fair	hindern	lasch	schlecht	eitel	leiden	faul	1	blank2r.bmp	0	1	+	0	1	blank2r.bmp	500	1	BMVZ	500	1	blank2r.bmp	880	1	schlau	880	1	!	1232	1	!	1278	0	0	0	0	0	0
2024-05-22	14:02:40	14:10:14	454055	6.6.1	4_exp_EVA_AWA_CON	46	B	A	Rpleas_acq	Oppo	Rpleas	1pleas	acq_US_pleas_nomask	acq45_nomask	4	28	400	1	300	300	0	0	369	46	0	0	schlau	spielen	freundlich	retten	tolerant	treu	schroff	strafen	fanatisch	rächen	tyrannisch	tot	helfen	loyal	schön	ehrlich	lachen	fair	hindern	lasch	schlecht	eitel	leiden	faul	1	blank2r.bmp	0	1	+	0	1	blank2r.bmp	500	1	BMVZ	500	1	blank2r.bmp	880	6	treu	880	1	!	1232	1	!	1270	0	0	0	0	0	0
2024-05-22	14:02:40	14:10:16	456308	6.6.1	4_exp_EVA_AWA_CON	46	B	A	Rpleas_acq	Oppo	Rpleas	1pleas	acq_US_pleas_nomask	acq45_nomask	4	29	400	0	300	300	0	0	473	46	0	0	schlau	spielen	freundlich	retten	tolerant	treu	schroff	strafen	fanatisch	rächen	tyrannisch	tot	helfen	loyal	schön	ehrlich	lachen	fair	hindern	lasch	schlecht	eitel	leiden	faul	1	blank2r.bmp	0	1	+	0	1	blank2r.bmp	500	1	BMVZ	500	1	blank2r.bmp	880	4	retten	880	1	!	1232	1	!	-1	0	0	0	0	0	0
2024-05-22	14:02:40	14:10:18	458398	6.6.1	4_exp_EVA_AWA_CON	46	B	A	Rpleas_acq	Oppo	Rpleas	1pleas	acq_US_pleas_nomask	acq45_nomask	4	30	400	0	300	300	0	0	310	50	1	0	schlau	spielen	freundlich	retten	tolerant	treu	schroff	strafen	fanatisch	rächen	tyrannisch	tot	helfen	loyal	schön	ehrlich	lachen	fair	hindern	lasch	schlecht	eitel	leiden	faul	1	blank2r.bmp	0	1	+	0	1	blank2r.bmp	500	1	BMVZ	500	1	blank2r.bmp	880	5	tolerant	880	1	!	-1	1	!	-1	0	0	0	0	0	0
2024-05-22	14:02:40	14:10:21	460543	6.6.1	4_exp_EVA_AWA_CON	46	B	A	Rpleas_acq	Oppo	Rpleas	1pleas	acq_US_unple_nomask	acq45_nomask	4	31	400	1	300	300	0	0	363	50	0	0	schlau	spielen	freundlich	retten	tolerant	treu	schroff	strafen	fanatisch	rächen	tyrannisch	tot	helfen	loyal	schön	ehrlich	lachen	fair	hindern	lasch	schlecht	eitel	leiden	faul	1	blank2r.bmp	0	1	+	0	1	blank2r.bmp	500	1	GKQX	500	1	blank2r.bmp	880	3	fanatisch	880	1	!	1232	1	!	1264	0	0	0	0	0	0
2024-05-22	14:02:40	14:10:23	462775	6.6.1	4_exp_EVA_AWA_CON	46	B	A	Rpleas_acq	Oppo	Rpleas	1pleas	acq_US_unple_nomask	acq45_nomask	4	32	400	1	300	300	0	0	453	46	1	0	schlau	spielen	freundlich	retten	tolerant	treu	schroff	strafen	fanatisch	rächen	tyrannisch	tot	helfen	loyal	schön	ehrlich	lachen	fair	hindern	lasch	schlecht	eitel	leiden	faul	1	blank2r.bmp	0	1	+	0	1	blank2r.bmp	500	1	GKQX	500	1	blank2r.bmp	880	1	schroff	880	1	!	1232	1	!	1355	0	0	0	0	0	0
2024-05-22	14:02:40	14:10:25	464927	6.6.1	4_exp_EVA_AWA_CON	46	B	A	Rpleas_acq	Oppo	Rpleas	1pleas	acq_US_pleas_nomask	acq45_nomask	4	33	400	1	300	300	0	0	374	46	0	0	schlau	spielen	freundlich	retten	tolerant	treu	schroff	strafen	fanatisch	rächen	tyrannisch	tot	helfen	loyal	schön	ehrlich	lachen	fair	hindern	lasch	schlecht	eitel	leiden	faul	1	blank2r.bmp	0	1	+	0	1	blank2r.bmp	500	1	BMVZ	500	1	blank2r.bmp	880	2	spielen	880	1	!	1232	1	!	1275	0	0	0	0	0	0
2024-05-22	14:02:40	14:10:27	467056	6.6.1	4_exp_EVA_AWA_CON	46	B	A	Rpleas_acq	Oppo	Rpleas	1pleas	acq_US_unple_nomask	acq45_nomask	4	34	400	1	300	300	0	0	351	50	0	0	schlau	spielen	freundlich	retten	tolerant	treu	schroff	strafen	fanatisch	rächen	tyrannisch	tot	helfen	loyal	schön	ehrlich	lachen	fair	hindern	lasch	schlecht	eitel	leiden	faul	1	blank2r.bmp	0	1	+	0	1	blank2r.bmp	500	1	GKQX	500	1	blank2r.bmp	880	4	rächen	880	1	!	1232	1	!	1252	0	0	0	0	0	0
2024-05-22	14:02:40	14:10:29	469303	6.6.1	4_exp_EVA_AWA_CON	46	B	A	Rpleas_acq	Oppo	Rpleas	1pleas	acq_US_unple_nomask	acq45_nomask	4	35	400	1	300	300	0	0	467	50	0	0	schlau	spielen	freundlich	retten	tolerant	treu	schroff	strafen	fanatisch	rächen	tyrannisch	tot	helfen	loyal	schön	ehrlich	lachen	fair	hindern	lasch	schlecht	eitel	leiden	faul	1	blank2r.bmp	0	1	+	0	1	blank2r.bmp	500	1	GKQX	500	1	blank2r.bmp	880	5	tyrannisch	880	1	!	1232	1	!	1369	0	0	0	0	0	0
2024-05-22	14:02:40	14:10:34	474214	6.6.1	4_exp_EVA_AWA_CON	46	B	A	Rpleas_acq	Oppo	Rpleas	1pleas	acq_US_pleas_nomask	acq45_nomask	4	36	400	0	300	300	0	0	3138	50	1	0	schlau	spielen	freundlich	retten	tolerant	treu	schroff	strafen	fanatisch	rächen	tyrannisch	tot	helfen	loyal	schön	ehrlich	lachen	fair	hindern	lasch	schlecht	eitel	leiden	faul	1	blank2r.bmp	0	1	+	0	1	blank2r.bmp	500	1	BMVZ	500	1	blank2r.bmp	880	3	freundlich	880	1	!	1232	1	!	-1	0	0	0	0	0	0
2024-05-22	14:02:40	14:10:47	487341	6.6.1	4_exp_EVA_AWA_CON	46	B	A	Rpleas_acq	Oppo	Rpleas	1pleas	acq_US_unple_nomask	acq45_nomask	5	1	400	0	300	300	0	0	746	50	0	0	schlau	spielen	freundlich	retten	tolerant	treu	schroff	strafen	fanatisch	rächen	tyrannisch	tot	helfen	loyal	schön	ehrlich	lachen	fair	hindern	lasch	schlecht	eitel	leiden	faul	1	blank2r.bmp	0	1	+	0	1	blank2r.bmp	500	1	GKQX	500	1	blank2r.bmp	880	3	fanatisch	880	1	!	1232	1	!	-1	0	0	0	0	0	0
2024-05-22	14:02:40	14:10:50	489488	6.6.1	4_exp_EVA_AWA_CON	46	B	A	Rpleas_acq	Oppo	Rpleas	1pleas	acq_US_unple_nomask	acq45_nomask	5	2	400	1	300	300	0	0	368	50	0	0	schlau	spielen	freundlich	retten	tolerant	treu	schroff	strafen	fanatisch	rächen	tyrannisch	tot	helfen	loyal	schön	ehrlich	lachen	fair	hindern	lasch	schlecht	eitel	leiden	faul	1	blank2r.bmp	0	1	+	0	1	blank2r.bmp	500	1	GKQX	500	1	blank2r.bmp	880	2	strafen	880	1	!	1232	1	!	1270	0	0	0	0	0	0
2024-05-22	14:02:40	14:10:52	491720	6.6.1	4_exp_EVA_AWA_CON	46	B	A	Rpleas_acq	Oppo	Rpleas	1pleas	acq_US_pleas_nomask	acq45_nomask	5	3	400	1	300	300	0	0	449	50	1	0	schlau	spielen	freundlich	retten	tolerant	treu	schroff	strafen	fanatisch	rächen	tyrannisch	tot	helfen	loyal	schön	ehrlich	lachen	fair	hindern	lasch	schlecht	eitel	leiden	faul	1	blank2r.bmp	0	1	+	0	1	blank2r.bmp	500	1	BMVZ	500	1	blank2r.bmp	880	6	treu	880	1	!	1232	1	!	1350	0	0	0	0	0	0
2024-05-22	14:02:40	14:10:54	493879	6.6.1	4_exp_EVA_AWA_CON	46	B	A	Rpleas_acq	Oppo	Rpleas	1pleas	acq_US_unple_nomask	acq45_nomask	5	4	400	1	300	300	0	0	377	46	1	0	schlau	spielen	freundlich	retten	tolerant	treu	schroff	strafen	fanatisch	rächen	tyrannisch	tot	helfen	loyal	schön	ehrlich	lachen	fair	hindern	lasch	schlecht	eitel	leiden	faul	1	blank2r.bmp	0	1	+	0	1	blank2r.bmp	500	1	GKQX	500	1	blank2r.bmp	880	6	tot	880	1	!	1232	1	!	1279	0	0	0	0	0	0
2024-05-22	14:02:40	14:10:56	496072	6.6.1	4_exp_EVA_AWA_CON	46	B	A	Rpleas_acq	Oppo	Rpleas	1pleas	acq_US_unple_nomask	acq45_nomask	5	5	400	1	300	300	0	0	418	46	1	0	schlau	spielen	freundlich	retten	tolerant	treu	schroff	strafen	fanatisch	rächen	tyrannisch	tot	helfen	loyal	schön	ehrlich	lachen	fair	hindern	lasch	schlecht	eitel	leiden	faul	1	blank2r.bmp	0	1	+	0	1	blank2r.bmp	500	1	GKQX	500	1	blank2r.bmp	880	4	rächen	880	1	!	1232	1	!	1320	0	0	0	0	0	0
2024-05-22	14:02:40	14:10:58	498231	6.6.1	4_exp_EVA_AWA_CON	46	B	A	Rpleas_acq	Oppo	Rpleas	1pleas	acq_US_pleas_nomask	acq45_nomask	5	6	400	1	300	300	0	0	377	50	1	0	schlau	spielen	freundlich	retten	tolerant	treu	schroff	strafen	fanatisch	rächen	tyrannisch	tot	helfen	loyal	schön	ehrlich	lachen	fair	hindern	lasch	schlecht	eitel	leiden	faul	1	blank2r.bmp	0	1	+	0	1	blank2r.bmp	500	1	BMVZ	500	1	blank2r.bmp	880	3	freundlich	880	1	!	1232	1	!	1278	0	0	0	0	0	0
2024-05-22	14:02:40	14:11:01	500423	6.6.1	4_exp_EVA_AWA_CON	46	B	A	Rpleas_acq	Oppo	Rpleas	1pleas	acq_US_pleas_nomask	acq45_nomask	5	7	400	1	300	300	0	0	417	50	1	0	schlau	spielen	freundlich	retten	tolerant	treu	schroff	strafen	fanatisch	rächen	tyrannisch	tot	helfen	loyal	schön	ehrlich	lachen	fair	hindern	lasch	schlecht	eitel	leiden	faul	1	blank2r.bmp	0	1	+	0	1	blank2r.bmp	500	1	BMVZ	500	1	blank2r.bmp	880	2	spielen	880	1	!	1232	1	!	1319	0	0	0	0	0	0
2024-05-22	14:02:40	14:11:03	502493	6.6.1	4_exp_EVA_AWA_CON	46	B	A	Rpleas_acq	Oppo	Rpleas	1pleas	acq_US_pleas_nomask	acq45_nomask	5	8	400	0	300	300	0	0	298	50	1	0	schlau	spielen	freundlich	retten	tolerant	treu	schroff	strafen	fanatisch	rächen	tyrannisch	tot	helfen	loyal	schön	ehrlich	lachen	fair	hindern	lasch	schlecht	eitel	leiden	faul	1	blank2r.bmp	0	1	+	0	1	blank2r.bmp	500	1	BMVZ	500	1	blank2r.bmp	880	1	schlau	880	1	!	-1	1	!	-1	0	0	0	0	0	0
2024-05-22	14:02:40	14:11:05	504655	6.6.1	4_exp_EVA_AWA_CON	46	B	A	Rpleas_acq	Oppo	Rpleas	1pleas	acq_US_pleas_nomask	acq45_nomask	5	9	400	1	300	300	0	0	386	46	0	0	schlau	spielen	freundlich	retten	tolerant	treu	schroff	strafen	fanatisch	rächen	tyrannisch	tot	helfen	loyal	schön	ehrlich	lachen	fair	hindern	lasch	schlecht	eitel	leiden	faul	1	blank2r.bmp	0	1	+	0	1	blank2r.bmp	500	1	BMVZ	500	1	blank2r.bmp	880	5	tolerant	880	1	!	1232	1	!	1288	0	0	0	0	0	0
2024-05-22	14:02:40	14:11:07	506847	6.6.1	4_exp_EVA_AWA_CON	46	B	A	Rpleas_acq	Oppo	Rpleas	1pleas	acq_US_unple_nomask	acq45_nomask	5	10	400	1	300	300	0	0	417	50	0	0	schlau	spielen	freundlich	retten	tolerant	treu	schroff	strafen	fanatisch	rächen	tyrannisch	tot	helfen	loyal	schön	ehrlich	lachen	fair	hindern	lasch	schlecht	eitel	leiden	faul	1	blank2r.bmp	0	1	+	0	1	blank2r.bmp	500	1	GKQX	500	1	blank2r.bmp	880	5	tyrannisch	880	1	!	1232	1	!	1319	0	0	0	0	0	0
2024-05-22	14:02:40	14:11:12	511982	6.6.1	4_exp_EVA_AWA_CON	46	B	A	Rpleas_acq	Oppo	Rpleas	1pleas	acq_US_unple_nomask	acq45_nomask	5	11	400	0	300	300	0	0	3362	50	0	0	schlau	spielen	freundlich	retten	tolerant	treu	schroff	strafen	fanatisch	rächen	tyrannisch	tot	helfen	loyal	schön	ehrlich	lachen	fair	hindern	lasch	schlecht	eitel	leiden	faul	1	blank2r.bmp	0	1	+	0	1	blank2r.bmp	500	1	GKQX	500	1	blank2r.bmp	880	1	schroff	880	1	!	1232	1	!	-1	0	0	0	0	0	0
2024-05-22	14:02:40	14:11:14	514294	6.6.1	4_exp_EVA_AWA_CON	46	B	A	Rpleas_acq	Oppo	Rpleas	1pleas	acq_US_unple_nomask	acq45_nomask	5	12	400	0	300	300	0	0	530	46	1	0	schlau	spielen	freundlich	retten	tolerant	treu	schroff	strafen	fanatisch	rächen	tyrannisch	tot	helfen	loyal	schön	ehrlich	lachen	fair	hindern	lasch	schlecht	eitel	leiden	faul	1	blank2r.bmp	0	1	+	0	1	blank2r.bmp	500	1	GKQX	500	1	blank2r.bmp	880	4	rächen	880	1	!	1232	1	!	-1	0	0	0	0	0	0
2024-05-22	14:02:40	14:11:17	516414	6.6.1	4_exp_EVA_AWA_CON	46	B	A	Rpleas_acq	Oppo	Rpleas	1pleas	acq_US_pleas_nomask	acq45_nomask	5	13	400	1	300	300	0	0	339	46	0	0	schlau	spielen	freundlich	retten	tolerant	treu	schroff	strafen	fanatisch	rächen	tyrannisch	tot	helfen	loyal	schön	ehrlich	lachen	fair	hindern	lasch	schlecht	eitel	leiden	faul	1	blank2r.bmp	0	1	+	0	1	blank2r.bmp	500	1	BMVZ	500	1	blank2r.bmp	880	4	retten	880	1	!	1232	1	!	1239	0	0	0	0	0	0
2024-05-22	14:02:40	14:11:19	518519	6.6.1	4_exp_EVA_AWA_CON	46	B	A	Rpleas_acq	Oppo	Rpleas	1pleas	acq_US_unple_nomask	acq45_nomask	5	14	400	1	300	300	0	0	333	50	0	0	schlau	spielen	freundlich	retten	tolerant	treu	schroff	strafen	fanatisch	rächen	tyrannisch	tot	helfen	loyal	schön	ehrlich	lachen	fair	hindern	lasch	schlecht	eitel	leiden	faul	1	blank2r.bmp	0	1	+	0	1	blank2r.bmp	500	1	GKQX	500	1	blank2r.bmp	880	5	tyrannisch	880	1	!	1232	1	!	1233	0	0	0	0	0	0
2024-05-22	14:02:40	14:11:21	520772	6.6.1	4_exp_EVA_AWA_CON	46	B	A	Rpleas_acq	Oppo	Rpleas	1pleas	acq_US_pleas_nomask	acq45_nomask	5	15	400	0	300	300	0	0	476	50	1	0	schlau	spielen	freundlich	retten	tolerant	treu	schroff	strafen	fanatisch	rächen	tyrannisch	tot	helfen	loyal	schön	ehrlich	lachen	fair	hindern	lasch	schlecht	eitel	leiden	faul	1	blank2r.bmp	0	1	+	0	1	blank2r.bmp	500	1	BMVZ	500	1	blank2r.bmp	880	1	schlau	880	1	!	1232	1	!	-1	0	0	0	0	0	0
2024-05-22	14:02:40	14:11:23	522975	6.6.1	4_exp_EVA_AWA_CON	46	B	A	Rpleas_acq	Oppo	Rpleas	1pleas	acq_US_unple_nomask	acq45_nomask	5	16	400	1	300	300	0	0	425	46	1	0	schlau	spielen	freundlich	retten	tolerant	treu	schroff	strafen	fanatisch	rächen	tyrannisch	tot	helfen	loyal	schön	ehrlich	lachen	fair	hindern	lasch	schlecht	eitel	leiden	faul	1	blank2r.bmp	0	1	+	0	1	blank2r.bmp	500	1	GKQX	500	1	blank2r.bmp	880	6	tot	880	1	!	1232	1	!	1326	0	0	0	0	0	0
2024-05-22	14:02:40	14:11:25	525143	6.6.1	4_exp_EVA_AWA_CON	46	B	A	Rpleas_acq	Oppo	Rpleas	1pleas	acq_US_pleas_nomask	acq45_nomask	5	17	400	1	300	300	0	0	391	46	0	0	schlau	spielen	freundlich	retten	tolerant	treu	schroff	strafen	fanatisch	rächen	tyrannisch	tot	helfen	loyal	schön	ehrlich	lachen	fair	hindern	lasch	schlecht	eitel	leiden	faul	1	blank2r.bmp	0	1	+	0	1	blank2r.bmp	500	1	BMVZ	500	1	blank2r.bmp	880	4	retten	880	1	!	1232	1	!	1293	0	0	0	0	0	0
2024-05-22	14:02:40	14:11:27	527367	6.6.1	4_exp_EVA_AWA_CON	46	B	A	Rpleas_acq	Oppo	Rpleas	1pleas	acq_US_pleas_nomask	acq45_nomask	5	18	400	1	300	300	0	0	444	50	1	0	schlau	spielen	freundlich	retten	tolerant	treu	schroff	strafen	fanatisch	rächen	tyrannisch	tot	helfen	loyal	schön	ehrlich	lachen	fair	hindern	lasch	schlecht	eitel	leiden	faul	1	blank2r.bmp	0	1	+	0	1	blank2r.bmp	500	1	BMVZ	500	1	blank2r.bmp	880	6	treu	880	1	!	1232	1	!	1345	0	0	0	0	0	0
2024-05-22	14:02:40	14:11:30	529576	6.6.1	4_exp_EVA_AWA_CON	46	B	A	Rpleas_acq	Oppo	Rpleas	1pleas	acq_US_pleas_nomask	acq45_nomask	5	19	400	1	300	300	0	0	430	50	1	0	schlau	spielen	freundlich	retten	tolerant	treu	schroff	strafen	fanatisch	rächen	tyrannisch	tot	helfen	loyal	schön	ehrlich	lachen	fair	hindern	lasch	schlecht	eitel	leiden	faul	1	blank2r.bmp	0	1	+	0	1	blank2r.bmp	500	1	BMVZ	500	1	blank2r.bmp	880	5	tolerant	880	1	!	1232	1	!	1332	0	0	0	0	0	0
2024-05-22	14:02:40	14:11:32	531654	6.6.1	4_exp_EVA_AWA_CON	46	B	A	Rpleas_acq	Oppo	Rpleas	1pleas	acq_US_unple_nomask	acq45_nomask	5	20	400	0	300	300	0	0	299	46	1	0	schlau	spielen	freundlich	retten	tolerant	treu	schroff	strafen	fanatisch	rächen	tyrannisch	tot	helfen	loyal	schön	ehrlich	lachen	fair	hindern	lasch	schlecht	eitel	leiden	faul	1	blank2r.bmp	0	1	+	0	1	blank2r.bmp	500	1	GKQX	500	1	blank2r.bmp	880	2	strafen	880	1	!	-1	1	!	-1	0	0	0	0	0	0
2024-05-22	14:02:40	14:11:34	533791	6.6.1	4_exp_EVA_AWA_CON	46	B	A	Rpleas_acq	Oppo	Rpleas	1pleas	acq_US_pleas_nomask	acq45_nomask	5	21	400	1	300	300	0	0	354	50	1	0	schlau	spielen	freundlich	retten	tolerant	treu	schroff	strafen	fanatisch	rächen	tyrannisch	tot	helfen	loyal	schön	ehrlich	lachen	fair	hindern	lasch	schlecht	eitel	leiden	faul	1	blank2r.bmp	0	1	+	0	1	blank2r.bmp	500	1	BMVZ	500	1	blank2r.bmp	880	3	freundlich	880	1	!	1232	1	!	1255	0	0	0	0	0	0
2024-05-22	14:02:40	14:11:36	535959	6.6.1	4_exp_EVA_AWA_CON	46	B	A	Rpleas_acq	Oppo	Rpleas	1pleas	acq_US_unple_nomask	acq45_nomask	5	22	400	1	300	300	0	0	390	46	1	0	schlau	spielen	freundlich	retten	tolerant	treu	schroff	strafen	fanatisch	rächen	tyrannisch	tot	helfen	loyal	schön	ehrlich	lachen	fair	hindern	lasch	schlecht	eitel	leiden	faul	1	blank2r.bmp	0	1	+	0	1	blank2r.bmp	500	1	GKQX	500	1	blank2r.bmp	880	3	fanatisch	880	1	!	1232	1	!	1292	0	0	0	0	0	0
2024-05-22	14:02:40	14:11:38	538045	6.6.1	4_exp_EVA_AWA_CON	46	B	A	Rpleas_acq	Oppo	Rpleas	1pleas	acq_US_pleas_nomask	acq45_nomask	5	23	400	0	300	300	0	0	307	50	1	0	schlau	spielen	freundlich	retten	tolerant	treu	schroff	strafen	fanatisch	rächen	tyrannisch	tot	helfen	loyal	schön	ehrlich	lachen	fair	hindern	lasch	schlecht	eitel	leiden	faul	1	blank2r.bmp	0	1	+	0	1	blank2r.bmp	500	1	BMVZ	500	1	blank2r.bmp	880	2	spielen	880	1	!	-1	1	!	-1	0	0	0	0	0	0
2024-05-22	14:02:40	14:11:40	540239	6.6.1	4_exp_EVA_AWA_CON	46	B	A	Rpleas_acq	Oppo	Rpleas	1pleas	acq_US_unple_nomask	acq45_nomask	5	24	400	1	300	300	0	0	418	46	1	0	schlau	spielen	freundlich	retten	tolerant	treu	schroff	strafen	fanatisch	rächen	tyrannisch	tot	helfen	loyal	schön	ehrlich	lachen	fair	hindern	lasch	schlecht	eitel	leiden	faul	1	blank2r.bmp	0	1	+	0	1	blank2r.bmp	500	1	GKQX	500	1	blank2r.bmp	880	1	schroff	880	1	!	1232	1	!	1319	0	0	0	0	0	0
2024-05-22	14:02:40	14:11:42	542349	6.6.1	4_exp_EVA_AWA_CON	46	B	A	Rpleas_acq	Oppo	Rpleas	1pleas	acq_US_unple_nomask	acq45_nomask	5	25	400	0	300	300	0	0	328	50	0	0	schlau	spielen	freundlich	retten	tolerant	treu	schroff	strafen	fanatisch	rächen	tyrannisch	tot	helfen	loyal	schön	ehrlich	lachen	fair	hindern	lasch	schlecht	eitel	leiden	faul	1	blank2r.bmp	0	1	+	0	1	blank2r.bmp	500	1	GKQX	500	1	blank2r.bmp	880	5	tyrannisch	880	1	!	-1	1	!	-1	0	0	0	0	0	0
2024-05-22	14:02:40	14:11:45	544511	6.6.1	4_exp_EVA_AWA_CON	46	B	A	Rpleas_acq	Oppo	Rpleas	1pleas	acq_US_pleas_nomask	acq45_nomask	5	26	400	1	300	300	0	0	387	50	1	0	schlau	spielen	freundlich	retten	tolerant	treu	schroff	strafen	fanatisch	rächen	tyrannisch	tot	helfen	loyal	schön	ehrlich	lachen	fair	hindern	lasch	schlecht	eitel	leiden	faul	1	blank2r.bmp	0	1	+	0	1	blank2r.bmp	500	1	BMVZ	500	1	blank2r.bmp	880	5	tolerant	880	1	!	1232	1	!	1288	0	0	0	0	0	0
2024-05-22	14:02:40	14:11:47	546696	6.6.1	4_exp_EVA_AWA_CON	46	B	A	Rpleas_acq	Oppo	Rpleas	1pleas	acq_US_unple_nomask	acq45_nomask	5	27	400	1	300	300	0	0	409	46	1	0	schlau	spielen	freundlich	retten	tolerant	treu	schroff	strafen	fanatisch	rächen	tyrannisch	tot	helfen	loyal	schön	ehrlich	lachen	fair	hindern	lasch	schlecht	eitel	leiden	faul	1	blank2r.bmp	0	1	+	0	1	blank2r.bmp	500	1	GKQX	500	1	blank2r.bmp	880	6	tot	880	1	!	1232	1	!	1312	0	0	0	0	0	0
2024-05-22	14:02:40	14:11:49	548806	6.6.1	4_exp_EVA_AWA_CON	46	B	A	Rpleas_acq	Oppo	Rpleas	1pleas	acq_US_pleas_nomask	acq45_nomask	5	28	400	0	300	300	0	0	330	50	1	0	schlau	spielen	freundlich	retten	tolerant	treu	schroff	strafen	fanatisch	rächen	tyrannisch	tot	helfen	loyal	schön	ehrlich	lachen	fair	hindern	lasch	schlecht	eitel	leiden	faul	1	blank2r.bmp	0	1	+	0	1	blank2r.bmp	500	1	BMVZ	500	1	blank2r.bmp	880	3	freundlich	880	1	!	-1	1	!	-1	0	0	0	0	0	0
2024-05-22	14:02:40	14:11:51	550909	6.6.1	4_exp_EVA_AWA_CON	46	B	A	Rpleas_acq	Oppo	Rpleas	1pleas	acq_US_pleas_nomask	acq45_nomask	5	29	400	0	300	300	0	0	323	50	1	0	schlau	spielen	freundlich	retten	tolerant	treu	schroff	strafen	fanatisch	rächen	tyrannisch	tot	helfen	loyal	schön	ehrlich	lachen	fair	hindern	lasch	schlecht	eitel	leiden	faul	1	blank2r.bmp	0	1	+	0	1	blank2r.bmp	500	1	BMVZ	500	1	blank2r.bmp	880	2	spielen	880	1	!	-1	1	!	-1	0	0	0	0	0	0
2024-05-22	14:02:40	14:11:53	553119	6.6.1	4_exp_EVA_AWA_CON	46	B	A	Rpleas_acq	Oppo	Rpleas	1pleas	acq_US_pleas_nomask	acq45_nomask	5	30	400	1	300	300	0	0	429	50	1	0	schlau	spielen	freundlich	retten	tolerant	treu	schroff	strafen	fanatisch	rächen	tyrannisch	tot	helfen	loyal	schön	ehrlich	lachen	fair	hindern	lasch	schlecht	eitel	leiden	faul	1	blank2r.bmp	0	1	+	0	1	blank2r.bmp	500	1	BMVZ	500	1	blank2r.bmp	880	1	schlau	880	1	!	1232	1	!	1331	0	0	0	0	0	0
2024-05-22	14:02:40	14:11:55	555255	6.6.1	4_exp_EVA_AWA_CON	46	B	A	Rpleas_acq	Oppo	Rpleas	1pleas	acq_US_unple_nomask	acq45_nomask	5	31	400	1	300	300	0	0	354	46	1	0	schlau	spielen	freundlich	retten	tolerant	treu	schroff	strafen	fanatisch	rächen	tyrannisch	tot	helfen	loyal	schön	ehrlich	lachen	fair	hindern	lasch	schlecht	eitel	leiden	faul	1	blank2r.bmp	0	1	+	0	1	blank2r.bmp	500	1	GKQX	500	1	blank2r.bmp	880	4	rächen	880	1	!	1232	1	!	1255	0	0	0	0	0	0
2024-05-22	14:02:40	14:11:57	557365	6.6.1	4_exp_EVA_AWA_CON	46	B	A	Rpleas_acq	Oppo	Rpleas	1pleas	acq_US_unple_nomask	acq45_nomask	5	32	400	1	300	300	0	0	335	50	0	0	schlau	spielen	freundlich	retten	tolerant	treu	schroff	strafen	fanatisch	rächen	tyrannisch	tot	helfen	loyal	schön	ehrlich	lachen	fair	hindern	lasch	schlecht	eitel	leiden	faul	1	blank2r.bmp	0	1	+	0	1	blank2r.bmp	500	1	GKQX	500	1	blank2r.bmp	880	1	schroff	880	1	!	1232	1	!	1234	0	0	0	0	0	0
2024-05-22	14:02:40	14:12:00	559453	6.6.1	4_exp_EVA_AWA_CON	46	B	A	Rpleas_acq	Oppo	Rpleas	1pleas	acq_US_unple_nomask	acq45_nomask	5	33	400	0	300	300	0	0	311	46	1	0	schlau	spielen	freundlich	retten	tolerant	treu	schroff	strafen	fanatisch	rächen	tyrannisch	tot	helfen	loyal	schön	ehrlich	lachen	fair	hindern	lasch	schlecht	eitel	leiden	faul	1	blank2r.bmp	0	1	+	0	1	blank2r.bmp	500	1	GKQX	500	1	blank2r.bmp	880	3	fanatisch	880	1	!	-1	1	!	-1	0	0	0	0	0	0
2024-05-22	14:02:40	14:12:02	561557	6.6.1	4_exp_EVA_AWA_CON	46	B	A	Rpleas_acq	Oppo	Rpleas	1pleas	acq_US_unple_nomask	acq45_nomask	5	34	400	0	300	300	0	0	324	46	1	0	schlau	spielen	freundlich	retten	tolerant	treu	schroff	strafen	fanatisch	rächen	tyrannisch	tot	helfen	loyal	schön	ehrlich	lachen	fair	hindern	lasch	schlecht	eitel	leiden	faul	1	blank2r.bmp	0	1	+	0	1	blank2r.bmp	500	1	GKQX	500	1	blank2r.bmp	880	2	strafen	880	1	!	-1	1	!	-1	0	0	0	0	0	0
2024-05-22	14:02:40	14:12:04	563791	6.6.1	4_exp_EVA_AWA_CON	46	B	A	Rpleas_acq	Oppo	Rpleas	1pleas	acq_US_pleas_nomask	acq45_nomask	5	35	400	1	300	300	0	0	454	46	0	0	schlau	spielen	freundlich	retten	tolerant	treu	schroff	strafen	fanatisch	rächen	tyrannisch	tot	helfen	loyal	schön	ehrlich	lachen	fair	hindern	lasch	schlecht	eitel	leiden	faul	1	blank2r.bmp	0	1	+	0	1	blank2r.bmp	500	1	BMVZ	500	1	blank2r.bmp	880	4	retten	880	1	!	1232	1	!	1356	0	0	0	0	0	0
2024-05-22	14:02:40	14:12:06	565893	6.6.1	4_exp_EVA_AWA_CON	46	B	A	Rpleas_acq	Oppo	Rpleas	1pleas	acq_US_pleas_nomask	acq45_nomask	5	36	400	0	300	300	0	0	327	50	1	0	schlau	spielen	freundlich	retten	tolerant	treu	schroff	strafen	fanatisch	rächen	tyrannisch	tot	helfen	loyal	schön	ehrlich	lachen	fair	hindern	lasch	schlecht	eitel	leiden	faul	1	blank2r.bmp	0	1	+	0	1	blank2r.bmp	500	1	BMVZ	500	1	blank2r.bmp	880	6	treu	880	1	!	-1	1	!	-1	0	0	0	0	0	0
2024-05-22	14:02:40	14:12:31	591322	6.6.1	4_exp_EVA_AWA_CON	46	B	A	Rpleas_acq	Oppo	Lpleas	1pleas	EvalRating_firsttwo	EvalRating_firsttwo	6	1	0	0	300	300	0	0	8725	line	0	-7,03125pct	schlau	spielen	freundlich	retten	tolerant	treu	schroff	strafen	fanatisch	rächen	tyrannisch	tot	helfen	loyal	schön	ehrlich	lachen	fair	hindern	lasch	schlecht	eitel	leiden	faul	1		-8	1	Wie angenehm oder unangenehm finden Sie die  Buchstabenkette ZGVK?	-8	1		-8	1		-8	1		-8	1	Unangenehm	-8	1	Angenehm	-8	0	0	0	0	0	0	0	0	0
2024-05-22	14:02:40	14:12:39	598642	6.6.1	4_exp_EVA_AWA_CON	46	B	A	Rpleas_acq	Oppo	Lpleas	1pleas	EvalRating_lastfour	EvalRating_lastfour	7	1	0	0	300	300	0	0	4938	line	0	33,203125pct	schlau	spielen	freundlich	retten	tolerant	treu	schroff	strafen	fanatisch	rächen	tyrannisch	tot	helfen	loyal	schön	ehrlich	lachen	fair	hindern	lasch	schlecht	eitel	leiden	faul	1		-7	3	Wie angenehm oder unangenehm finden Sie die  Buchstabenkette XBQM?	-7	1		-7	1		-7	1		-7	1	Unangenehm	-7	1	Angenehm	-7	0	0	0	0	0	0	0	0	0
2024-05-22	14:02:40	14:12:41	601010	6.6.1	4_exp_EVA_AWA_CON	46	B	A	Rpleas_acq	Oppo	Lpleas	1pleas	blank_screen	EvalRating_lastfour	7	3	0	0	300	300	0	0	0	0	0	33,203125pct	schlau	spielen	freundlich	retten	tolerant	treu	schroff	strafen	fanatisch	rächen	tyrannisch	tot	helfen	loyal	schön	ehrlich	lachen	fair	hindern	lasch	schlecht	eitel	leiden	faul	1		-8	0	0	0	0	0	0	0	0	0	0	0	0	0	0	0	0	0	0	0	0	0	0	0	0	0	0	0
2024-05-22	14:02:40	14:12:45	604906	6.6.1	4_exp_EVA_AWA_CON	46	B	A	Rpleas_acq	Oppo	Lpleas	1pleas	EvalRating_lastfour	EvalRating_lastfour	7	4	0	0	300	300	0	0	3307	line	0	46,7447916666666856145pct	schlau	spielen	freundlich	retten	tolerant	treu	schroff	strafen	fanatisch	rächen	tyrannisch	tot	helfen	loyal	schön	ehrlich	lachen	fair	hindern	lasch	schlecht	eitel	leiden	faul	1		-7	2	Wie angenehm oder unangenehm finden Sie die  Buchstabenkette GKQX?	-7	1		-7	1		-7	1		-7	1	Unangenehm	-7	1	Angenehm	-7	0	0	0	0	0	0	0	0	0
2024-05-22	14:02:40	14:12:47	607274	6.6.1	4_exp_EVA_AWA_CON	46	B	A	Rpleas_acq	Oppo	Lpleas	1pleas	blank_screen	EvalRating_lastfour	7	6	0	0	300	300	0	0	0	0	0	46,7447916666666856145pct	schlau	spielen	freundlich	retten	tolerant	treu	schroff	strafen	fanatisch	rächen	tyrannisch	tot	helfen	loyal	schön	ehrlich	lachen	fair	hindern	lasch	schlecht	eitel	leiden	faul	1		-8	0	0	0	0	0	0	0	0	0	0	0	0	0	0	0	0	0	0	0	0	0	0	0	0	0	0	0
2024-05-22	14:02:40	14:12:55	614899	6.6.1	4_exp_EVA_AWA_CON	46	B	A	Rpleas_acq	Oppo	Lpleas	1pleas	EvalRating_lastfour	EvalRating_lastfour	7	7	0	0	300	300	0	0	7035	line	0	-30,5989583333333285964pct	schlau	spielen	freundlich	retten	tolerant	treu	schroff	strafen	fanatisch	rächen	tyrannisch	tot	helfen	loyal	schön	ehrlich	lachen	fair	hindern	lasch	schlecht	eitel	leiden	faul	1		-7	1	Wie angenehm oder unangenehm finden Sie die  Buchstabenkette BMVZ?	-7	1		-7	1		-7	1		-7	1	Unangenehm	-7	1	Angenehm	-7	0	0	0	0	0	0	0	0	0
2024-05-22	14:02:40	14:13:26	645777	6.6.1	4_exp_EVA_AWA_CON	46	B	A	Rpleas_acq	Oppo	Lpleas	1pleas	conawa_CS1_US1	conawa1_nomask	8	1	0	0	300	300	0	0	16542	schroff	1	-30,5989583333333285964pct	schlau	spielen	freundlich	retten	tolerant	treu	schroff	strafen	fanatisch	rächen	tyrannisch	tot	helfen	loyal	schön	ehrlich	lachen	fair	hindern	lasch	schlecht	eitel	leiden	faul	0	0	0	0	0	0	0	0	0	0	0	0	0	0	0	0	0	0	0	0	0	0	0	0	0	0	0	0	0	0
2024-05-22	14:02:40	14:13:26	645779	6.6.1	4_exp_EVA_AWA_CON	46	B	A	Rpleas_acq	Oppo	Lpleas	1pleas	conawa_CS1_US1_confidence	conawa1_nomask	8	1	0	0	300	300	0	0	16542	guess	1	-30,5989583333333285964pct	schlau	spielen	freundlich	retten	tolerant	treu	schroff	strafen	fanatisch	rächen	tyrannisch	tot	helfen	loyal	schön	ehrlich	lachen	fair	hindern	lasch	schlecht	eitel	leiden	faul	0	0	0	0	0	0	0	0	0	0	0	0	0	0	0	0	0	0	0	0	0	0	0	0	0	0	0	0	0	0
2024-05-22	14:02:40	14:13:34	653592	6.6.1	4_exp_EVA_AWA_CON	46	B	A	Rpleas_acq	Oppo	Lpleas	1pleas	conawa_CS2_US5	conawa1_nomask	8	2	0	0	300	300	0	0	7199	tolerant	1	-30,5989583333333285964pct	schlau	spielen	freundlich	retten	tolerant	treu	schroff	strafen	fanatisch	rächen	tyrannisch	tot	helfen	loyal	schön	ehrlich	lachen	fair	hindern	lasch	schlecht	eitel	leiden	faul	0	0	0	0	0	0	0	0	0	0	0	0	0	0	0	0	0	0	0	0	0	0	0	0	0	0	0	0	0	0
2024-05-22	14:02:40	14:13:34	653593	6.6.1	4_exp_EVA_AWA_CON	46	B	A	Rpleas_acq	Oppo	Lpleas	1pleas	conawa_CS2_US5_confidence	conawa1_nomask	8	2	0	0	300	300	0	0	7199	guess	1	-30,5989583333333285964pct	schlau	spielen	freundlich	retten	tolerant	treu	schroff	strafen	fanatisch	rächen	tyrannisch	tot	helfen	loyal	schön	ehrlich	lachen	fair	hindern	lasch	schlecht	eitel	leiden	faul	0	0	0	0	0	0	0	0	0	0	0	0	0	0	0	0	0	0	0	0	0	0	0	0	0	0	0	0	0	0
2024-05-22	14:02:40	14:13:38	658335	6.6.1	4_exp_EVA_AWA_CON	46	B	A	Rpleas_acq	Oppo	Lpleas	1pleas	conawa_CS2_US6	conawa1_nomask	8	3	0	0	300	300	0	0	4133	helfen	1	-30,5989583333333285964pct	schlau	spielen	freundlich	retten	tolerant	treu	schroff	strafen	fanatisch	rächen	tyrannisch	tot	helfen	loyal	schön	ehrlich	lachen	fair	hindern	lasch	schlecht	eitel	leiden	faul	0	0	0	0	0	0	0	0	0	0	0	0	0	0	0	0	0	0	0	0	0	0	0	0	0	0	0	0	0	0
2024-05-22	14:02:40	14:13:38	658337	6.6.1	4_exp_EVA_AWA_CON	46	B	A	Rpleas_acq	Oppo	Lpleas	1pleas	conawa_CS2_US6_confidence	conawa1_nomask	8	3	0	0	300	300	0	0	4133	guess	1	-30,5989583333333285964pct	schlau	spielen	freundlich	retten	tolerant	treu	schroff	strafen	fanatisch	rächen	tyrannisch	tot	helfen	loyal	schön	ehrlich	lachen	fair	hindern	lasch	schlecht	eitel	leiden	faul	0	0	0	0	0	0	0	0	0	0	0	0	0	0	0	0	0	0	0	0	0	0	0	0	0	0	0	0	0	0
2024-05-22	14:02:40	14:13:42	661737	6.6.1	4_exp_EVA_AWA_CON	46	B	A	Rpleas_acq	Oppo	Lpleas	1pleas	conawa_CS1_US4	conawa1_nomask	8	4	0	0	300	300	0	0	2789	retten	1	-30,5989583333333285964pct	schlau	spielen	freundlich	retten	tolerant	treu	schroff	strafen	fanatisch	rächen	tyrannisch	tot	helfen	loyal	schön	ehrlich	lachen	fair	hindern	lasch	schlecht	eitel	leiden	faul	0	0	0	0	0	0	0	0	0	0	0	0	0	0	0	0	0	0	0	0	0	0	0	0	0	0	0	0	0	0
2024-05-22	14:02:40	14:13:42	661739	6.6.1	4_exp_EVA_AWA_CON	46	B	A	Rpleas_acq	Oppo	Lpleas	1pleas	conawa_CS1_US4_confidence	conawa1_nomask	8	4	0	0	300	300	0	0	2789	guess	1	-30,5989583333333285964pct	schlau	spielen	freundlich	retten	tolerant	treu	schroff	strafen	fanatisch	rächen	tyrannisch	tot	helfen	loyal	schön	ehrlich	lachen	fair	hindern	lasch	schlecht	eitel	leiden	faul	0	0	0	0	0	0	0	0	0	0	0	0	0	0	0	0	0	0	0	0	0	0	0	0	0	0	0	0	0	0
2024-05-22	14:02:40	14:13:44	664229	6.6.1	4_exp_EVA_AWA_CON	46	B	A	Rpleas_acq	Oppo	Lpleas	1pleas	conawa_CS2_US2	conawa1_nomask	8	5	0	0	300	300	0	0	1874	spielen	1	-30,5989583333333285964pct	schlau	spielen	freundlich	retten	tolerant	treu	schroff	strafen	fanatisch	rächen	tyrannisch	tot	helfen	loyal	schön	ehrlich	lachen	fair	hindern	lasch	schlecht	eitel	leiden	faul	0	0	0	0	0	0	0	0	0	0	0	0	0	0	0	0	0	0	0	0	0	0	0	0	0	0	0	0	0	0
2024-05-22	14:02:40	14:13:44	664231	6.6.1	4_exp_EVA_AWA_CON	46	B	A	Rpleas_acq	Oppo	Lpleas	1pleas	conawa_CS2_US2_confidence	conawa1_nomask	8	5	0	0	300	300	0	0	1874	guess	1	-30,5989583333333285964pct	schlau	spielen	freundlich	retten	tolerant	treu	schroff	strafen	fanatisch	rächen	tyrannisch	tot	helfen	loyal	schön	ehrlich	lachen	fair	hindern	lasch	schlecht	eitel	leiden	faul	0	0	0	0	0	0	0	0	0	0	0	0	0	0	0	0	0	0	0	0	0	0	0	0	0	0	0	0	0	0
2024-05-22	14:02:40	14:13:48	667421	6.6.1	4_exp_EVA_AWA_CON	46	B	A	Rpleas_acq	Oppo	Lpleas	1pleas	conawa_CS2_US3	conawa1_nomask	8	6	0	0	300	300	0	0	2577	freundlich	1	-30,5989583333333285964pct	schlau	spielen	freundlich	retten	tolerant	treu	schroff	strafen	fanatisch	rächen	tyrannisch	tot	helfen	loyal	schön	ehrlich	lachen	fair	hindern	lasch	schlecht	eitel	leiden	faul	0	0	0	0	0	0	0	0	0	0	0	0	0	0	0	0	0	0	0	0	0	0	0	0	0	0	0	0	0	0
2024-05-22	14:02:40	14:13:48	667423	6.6.1	4_exp_EVA_AWA_CON	46	B	A	Rpleas_acq	Oppo	Lpleas	1pleas	conawa_CS2_US3_confidence	conawa1_nomask	8	6	0	0	300	300	0	0	2577	guess	1	-30,5989583333333285964pct	schlau	spielen	freundlich	retten	tolerant	treu	schroff	strafen	fanatisch	rächen	tyrannisch	tot	helfen	loyal	schön	ehrlich	lachen	fair	hindern	lasch	schlecht	eitel	leiden	faul	0	0	0	0	0	0	0	0	0	0	0	0	0	0	0	0	0	0	0	0	0	0	0	0	0	0	0	0	0	0
2024-05-22	14:02:40	14:13:50	670013	6.6.1	4_exp_EVA_AWA_CON	46	B	A	Rpleas_acq	Oppo	Lpleas	1pleas	conawa_CS2_US4	conawa1_nomask	8	7	0	0	300	300	0	0	1976	retten	1	-30,5989583333333285964pct	schlau	spielen	freundlich	retten	tolerant	treu	schroff	strafen	fanatisch	rächen	tyrannisch	tot	helfen	loyal	schön	ehrlich	lachen	fair	hindern	lasch	schlecht	eitel	leiden	faul	0	0	0	0	0	0	0	0	0	0	0	0	0	0	0	0	0	0	0	0	0	0	0	0	0	0	0	0	0	0
2024-05-22	14:02:40	14:13:50	670015	6.6.1	4_exp_EVA_AWA_CON	46	B	A	Rpleas_acq	Oppo	Lpleas	1pleas	conawa_CS2_US4_confidence	conawa1_nomask	8	7	0	0	300	300	0	0	1976	guess	1	-30,5989583333333285964pct	schlau	spielen	freundlich	retten	tolerant	treu	schroff	strafen	fanatisch	rächen	tyrannisch	tot	helfen	loyal	schön	ehrlich	lachen	fair	hindern	lasch	schlecht	eitel	leiden	faul	0	0	0	0	0	0	0	0	0	0	0	0	0	0	0	0	0	0	0	0	0	0	0	0	0	0	0	0	0	0
2024-05-22	14:02:40	14:13:53	672835	6.6.1	4_exp_EVA_AWA_CON	46	B	A	Rpleas_acq	Oppo	Lpleas	1pleas	conawa_CS2_US1	conawa1_nomask	8	8	0	0	300	300	0	0	2207	lasch	1	-30,5989583333333285964pct	schlau	spielen	freundlich	retten	tolerant	treu	schroff	strafen	fanatisch	rächen	tyrannisch	tot	helfen	loyal	schön	ehrlich	lachen	fair	hindern	lasch	schlecht	eitel	leiden	faul	0	0	0	0	0	0	0	0	0	0	0	0	0	0	0	0	0	0	0	0	0	0	0	0	0	0	0	0	0	0
2024-05-22	14:02:40	14:13:53	672837	6.6.1	4_exp_EVA_AWA_CON	46	B	A	Rpleas_acq	Oppo	Lpleas	1pleas	conawa_CS2_US1_confidence	conawa1_nomask	8	8	0	0	300	300	0	0	2207	guess	1	-30,5989583333333285964pct	schlau	spielen	freundlich	retten	tolerant	treu	schroff	strafen	fanatisch	rächen	tyrannisch	tot	helfen	loyal	schön	ehrlich	lachen	fair	hindern	lasch	schlecht	eitel	leiden	faul	0	0	0	0	0	0	0	0	0	0	0	0	0	0	0	0	0	0	0	0	0	0	0	0	0	0	0	0	0	0
2024-05-22	14:02:40	14:13:56	675897	6.6.1	4_exp_EVA_AWA_CON	46	B	A	Rpleas_acq	Oppo	Lpleas	1pleas	conawa_CS1_US3	conawa1_nomask	8	9	0	0	300	300	0	0	2451	schön	1	-30,5989583333333285964pct	schlau	spielen	freundlich	retten	tolerant	treu	schroff	strafen	fanatisch	rächen	tyrannisch	tot	helfen	loyal	schön	ehrlich	lachen	fair	hindern	lasch	schlecht	eitel	leiden	faul	0	0	0	0	0	0	0	0	0	0	0	0	0	0	0	0	0	0	0	0	0	0	0	0	0	0	0	0	0	0
2024-05-22	14:02:40	14:13:56	675898	6.6.1	4_exp_EVA_AWA_CON	46	B	A	Rpleas_acq	Oppo	Lpleas	1pleas	conawa_CS1_US3_confidence	conawa1_nomask	8	9	0	0	300	300	0	0	2451	guess	1	-30,5989583333333285964pct	schlau	spielen	freundlich	retten	tolerant	treu	schroff	strafen	fanatisch	rächen	tyrannisch	tot	helfen	loyal	schön	ehrlich	lachen	fair	hindern	lasch	schlecht	eitel	leiden	faul	0	0	0	0	0	0	0	0	0	0	0	0	0	0	0	0	0	0	0	0	0	0	0	0	0	0	0	0	0	0
2024-05-22	14:02:40	14:13:59	678838	6.6.1	4_exp_EVA_AWA_CON	46	B	A	Rpleas_acq	Oppo	Lpleas	1pleas	conawa_CS1_US5	conawa1_nomask	8	10	0	0	300	300	0	0	2325	lachen	1	-30,5989583333333285964pct	schlau	spielen	freundlich	retten	tolerant	treu	schroff	strafen	fanatisch	rächen	tyrannisch	tot	helfen	loyal	schön	ehrlich	lachen	fair	hindern	lasch	schlecht	eitel	leiden	faul	0	0	0	0	0	0	0	0	0	0	0	0	0	0	0	0	0	0	0	0	0	0	0	0	0	0	0	0	0	0
2024-05-22	14:02:40	14:13:59	678840	6.6.1	4_exp_EVA_AWA_CON	46	B	A	Rpleas_acq	Oppo	Lpleas	1pleas	conawa_CS1_US5_confidence	conawa1_nomask	8	10	0	0	300	300	0	0	2325	guess	1	-30,5989583333333285964pct	schlau	spielen	freundlich	retten	tolerant	treu	schroff	strafen	fanatisch	rächen	tyrannisch	tot	helfen	loyal	schön	ehrlich	lachen	fair	hindern	lasch	schlecht	eitel	leiden	faul	0	0	0	0	0	0	0	0	0	0	0	0	0	0	0	0	0	0	0	0	0	0	0	0	0	0	0	0	0	0
2024-05-22	14:02:40	14:14:04	683732	6.6.1	4_exp_EVA_AWA_CON	46	B	A	Rpleas_acq	Oppo	Lpleas	1pleas	conawa_CS1_US6	conawa1_nomask	8	11	0	0	300	300	0	0	4279	tot	1	-30,5989583333333285964pct	schlau	spielen	freundlich	retten	tolerant	treu	schroff	strafen	fanatisch	rächen	tyrannisch	tot	helfen	loyal	schön	ehrlich	lachen	fair	hindern	lasch	schlecht	eitel	leiden	faul	0	0	0	0	0	0	0	0	0	0	0	0	0	0	0	0	0	0	0	0	0	0	0	0	0	0	0	0	0	0
2024-05-22	14:02:40	14:14:04	683733	6.6.1	4_exp_EVA_AWA_CON	46	B	A	Rpleas_acq	Oppo	Lpleas	1pleas	conawa_CS1_US6_confidence	conawa1_nomask	8	11	0	0	300	300	0	0	4279	guess	1	-30,5989583333333285964pct	schlau	spielen	freundlich	retten	tolerant	treu	schroff	strafen	fanatisch	rächen	tyrannisch	tot	helfen	loyal	schön	ehrlich	lachen	fair	hindern	lasch	schlecht	eitel	leiden	faul	0	0	0	0	0	0	0	0	0	0	0	0	0	0	0	0	0	0	0	0	0	0	0	0	0	0	0	0	0	0
2024-05-22	14:02:40	14:14:07	687024	6.6.1	4_exp_EVA_AWA_CON	46	B	A	Rpleas_acq	Oppo	Lpleas	1pleas	conawa_CS1_US2	conawa1_nomask	8	12	0	0	300	300	0	0	2682	strafen	1	-30,5989583333333285964pct	schlau	spielen	freundlich	retten	tolerant	treu	schroff	strafen	fanatisch	rächen	tyrannisch	tot	helfen	loyal	schön	ehrlich	lachen	fair	hindern	lasch	schlecht	eitel	leiden	faul	0	0	0	0	0	0	0	0	0	0	0	0	0	0	0	0	0	0	0	0	0	0	0	0	0	0	0	0	0	0
2024-05-22	14:02:40	14:14:07	687026	6.6.1	4_exp_EVA_AWA_CON	46	B	A	Rpleas_acq	Oppo	Lpleas	1pleas	conawa_CS1_US2_confidence	conawa1_nomask	8	12	0	0	300	300	0	0	2682	guess	1	-30,5989583333333285964pct	schlau	spielen	freundlich	retten	tolerant	treu	schroff	strafen	fanatisch	rächen	tyrannisch	tot	helfen	loyal	schön	ehrlich	lachen	fair	hindern	lasch	schlecht	eitel	leiden	faul	0	0	0	0	0	0	0	0	0	0	0	0	0	0	0	0	0	0	0	0	0	0	0	0	0	0	0	0	0	0
2024-05-22	14:02:40	14:15:03	743271	6.6.1	4_exp_EVA_AWA_CON	46	B	A	Rpleas_acq	Oppo	Lpleas	1pleas	cond_new_unple_456_nomask_CS1	condtest_nomask_1	11	1	400	1	300	300	0	0	459	46	0	-30,5989583333333285964pct	schlau	spielen	freundlich	retten	tolerant	treu	schroff	strafen	fanatisch	rächen	tyrannisch	tot	helfen	loyal	schön	ehrlich	lachen	fair	hindern	lasch	schlecht	eitel	leiden	faul	1	blank2r.bmp	0	1	+	0	1	blank2r.bmp	500	1	BMVZ	500	1	blank2r.bmp	880	2	leiden	880	1	!	1232	1	!	1361	0	0	0	0	0	0
2024-05-22	14:02:40	14:15:06	745439	6.6.1	4_exp_EVA_AWA_CON	46	B	A	Rpleas_acq	Oppo	Lpleas	1pleas	cond_US_unple_123_nomask_CS2	condtest_nomask_1	11	2	400	1	300	300	0	0	386	50	1	-30,5989583333333285964pct	schlau	spielen	freundlich	retten	tolerant	treu	schroff	strafen	fanatisch	rächen	tyrannisch	tot	helfen	loyal	schön	ehrlich	lachen	fair	hindern	lasch	schlecht	eitel	leiden	faul	1	blank2r.bmp	0	1	+	0	1	blank2r.bmp	500	1	GKQX	500	1	blank2r.bmp	880	3	strafen	880	1	!	1233	1	!	1287	0	0	0	0	0	0
2024-05-22	14:02:40	14:15:08	747631	6.6.1	4_exp_EVA_AWA_CON	46	B	A	Rpleas_acq	Oppo	Lpleas	1pleas	cond_new_pleas_456_nomask_CS2	condtest_nomask_1	11	3	400	1	300	300	0	0	416	46	1	-30,5989583333333285964pct	schlau	spielen	freundlich	retten	tolerant	treu	schroff	strafen	fanatisch	rächen	tyrannisch	tot	helfen	loyal	schön	ehrlich	lachen	fair	hindern	lasch	schlecht	eitel	leiden	faul	1	blank2r.bmp	0	1	+	0	1	blank2r.bmp	500	1	GKQX	500	1	blank2r.bmp	880	1	fair	880	1	!	1232	1	!	1318	0	0	0	0	0	0
2024-05-22	14:02:40	14:15:10	749717	6.6.1	4_exp_EVA_AWA_CON	46	B	A	Rpleas_acq	Oppo	Lpleas	1pleas	cond_US_pleas_123_nomask_CS2	condtest_nomask_1	11	4	400	0	300	300	0	0	313	50	0	-30,5989583333333285964pct	schlau	spielen	freundlich	retten	tolerant	treu	schroff	strafen	fanatisch	rächen	tyrannisch	tot	helfen	loyal	schön	ehrlich	lachen	fair	hindern	lasch	schlecht	eitel	leiden	faul	1	blank2r.bmp	0	1	+	0	1	blank2r.bmp	500	1	GKQX	500	1	blank2r.bmp	880	2	schlau	880	1	!	-1	1	!	-1	0	0	0	0	0	0
2024-05-22	14:02:40	14:15:12	751855	6.6.1	4_exp_EVA_AWA_CON	46	B	A	Rpleas_acq	Oppo	Lpleas	1pleas	cond_US_pleas_123_nomask_CS1	condtest_nomask_1	11	5	400	1	300	300	0	0	358	46	1	-30,5989583333333285964pct	schlau	spielen	freundlich	retten	tolerant	treu	schroff	strafen	fanatisch	rächen	tyrannisch	tot	helfen	loyal	schön	ehrlich	lachen	fair	hindern	lasch	schlecht	eitel	leiden	faul	1	blank2r.bmp	0	1	+	0	1	blank2r.bmp	500	1	BMVZ	500	1	blank2r.bmp	880	1	schlau	880	1	!	1232	1	!	1259	0	0	0	0	0	0
2024-05-22	14:02:40	14:15:14	753958	6.6.1	4_exp_EVA_AWA_CON	46	B	A	Rpleas_acq	Oppo	Lpleas	1pleas	cond_US_unple_123_nomask_CS1	condtest_nomask_1	11	6	400	0	300	300	0	0	320	46	0	-30,5989583333333285964pct	schlau	spielen	freundlich	retten	tolerant	treu	schroff	strafen	fanatisch	rächen	tyrannisch	tot	helfen	loyal	schön	ehrlich	lachen	fair	hindern	lasch	schlecht	eitel	leiden	faul	1	blank2r.bmp	0	1	+	0	1	blank2r.bmp	500	1	BMVZ	500	1	blank2r.bmp	880	2	strafen	880	1	!	-1	1	!	-1	0	0	0	0	0	0
2024-05-22	14:02:40	14:15:16	756045	6.6.1	4_exp_EVA_AWA_CON	46	B	A	Rpleas_acq	Oppo	Lpleas	1pleas	cond_new_unple_456_nomask_CS2	condtest_nomask_1	11	7	400	0	300	300	0	0	307	50	1	-30,5989583333333285964pct	schlau	spielen	freundlich	retten	tolerant	treu	schroff	strafen	fanatisch	rächen	tyrannisch	tot	helfen	loyal	schön	ehrlich	lachen	fair	hindern	lasch	schlecht	eitel	leiden	faul	1	blank2r.bmp	0	1	+	0	1	blank2r.bmp	500	1	GKQX	500	1	blank2r.bmp	880	1	faul	880	1	!	-1	1	!	-1	0	0	0	0	0	0
2024-05-22	14:02:40	14:15:18	758117	6.6.1	4_exp_EVA_AWA_CON	46	B	A	Rpleas_acq	Oppo	Lpleas	1pleas	cond_new_pleas_456_nomask_CS1	condtest_nomask_1	11	8	400	0	300	300	0	0	298	46	1	-30,5989583333333285964pct	schlau	spielen	freundlich	retten	tolerant	treu	schroff	strafen	fanatisch	rächen	tyrannisch	tot	helfen	loyal	schön	ehrlich	lachen	fair	hindern	lasch	schlecht	eitel	leiden	faul	1	blank2r.bmp	0	1	+	0	1	blank2r.bmp	500	1	BMVZ	500	1	blank2r.bmp	880	2	lachen	880	1	!	-1	1	!	-1	0	0	0	0	0	0
2024-05-22	14:02:40	14:15:29	768605	6.6.1	4_exp_EVA_AWA_CON	46	B	A	Rpleas_acq	Oppo	Lpleas	1pleas	cond_new_unple_456_nomask_CS2	condtest_nomask_2	12	1	400	0	300	300	0	0	509	46	0	-30,5989583333333285964pct	schlau	spielen	freundlich	retten	tolerant	treu	schroff	strafen	fanatisch	rächen	tyrannisch	tot	helfen	loyal	schön	ehrlich	lachen	fair	hindern	lasch	schlecht	eitel	leiden	faul	1	blank2r.bmp	0	1	+	0	1	blank2r.bmp	500	1	GKQX	500	1	blank2r.bmp	880	3	leiden	880	1	!	1232	1	!	-1	0	0	0	0	0	0
