date	time	currenttime	elapsedtime	build	currentexpt	subject	CS_AB	US_AB	LRpleas_acq	SameOppo	condition_Lpleas	condition_1pleas	trialcode	blockcode	blocknum	trialnum	windowcenter	inwindow	pretrialpause	posttrialpause	trialduration	trialtimeout	latency	response	correct	correctedscore	US_nomask_pleas1	US_nomask_pleas2	US_nomask_pleas3	US_nomask_pleas4	US_nomask_pleas5	US_nomask_pleas6	US_nomask_unple1	US_nomask_unple2	US_nomask_unple3	US_nomask_unple4	US_nomask_unple5	US_nomask_unple6	new_nomask_pleas1	new_nomask_pleas2	new_nomask_pleas3	new_nomask_pleas4	new_nomask_pleas5	new_nomask_pleas6	new_nomask_unple1	new_nomask_unple2	new_nomask_unple3	new_nomask_unple4	new_nomask_unple5	new_nomask_unple6	stimulusnumber1	stimulusitem1	stimulusonset1	stimulusnumber2	stimulusitem2	stimulusonset2	stimulusnumber3	stimulusitem3	stimulusonset3	stimulusnumber4	stimulusitem4	stimulusonset4	stimulusnumber5	stimulusitem5	stimulusonset5	stimulusnumber6	stimulusitem6	stimulusonset6	stimulusnumber7	stimulusitem7	stimulusonset7	stimulusnumber8	stimulusitem8	stimulusonset8	stimulusnumber9	stimulusitem9	stimulusonset9	stimulusnumber10	stimulusitem10	stimulusonset10
2024-04-30	10:14:34	10:17:28	173391	6.6.1	4_exp_EVA_AWA_CON	2	A	B	Rpleas_acq	Oppo	Rpleas	1pleas	acq_new_unple_nomask	acq1_nomask	1	1	0	0	300	300	0	0	1058	46	1	0	besonnen	engagiert	genießen	gesittet	sonnig	kuss	bange	engstirnig	gemein	geizig	sterben	krise	anregung	gütig	kreativ	träumen	vertrauen	vergnügt	ausrottung	gierig	krank	töten	versagen	verbissen	1	blank2r.bmp	0	1	+	0	1	blank2r.bmp	500	1	B1r.bmp	500	1	blank2r.bmp	880	2	gierig	880	0	0	0	0	0	0	0	0	0	0	0	0
2024-04-30	10:14:34	10:17:30	175575	6.6.1	4_exp_EVA_AWA_CON	2	A	B	Rpleas_acq	Oppo	Rpleas	1pleas	acq_new_unple_nomask	acq1_nomask	1	2	0	0	300	300	0	0	700	46	1	0	besonnen	engagiert	genießen	gesittet	sonnig	kuss	bange	engstirnig	gemein	geizig	sterben	krise	anregung	gütig	kreativ	träumen	vertrauen	vergnügt	ausrottung	gierig	krank	töten	versagen	verbissen	1	blank2r.bmp	0	1	+	0	1	blank2r.bmp	500	4	B4r.bmp	500	1	blank2r.bmp	880	6	verbissen	880	0	0	0	0	0	0	0	0	0	0	0	0
2024-04-30	10:14:34	10:17:33	177903	6.6.1	4_exp_EVA_AWA_CON	2	A	B	Rpleas_acq	Oppo	Rpleas	1pleas	acq_US_pleas_nomask	acq1_nomask	1	3	0	0	300	300	0	0	847	50	1	0	besonnen	engagiert	genießen	gesittet	sonnig	kuss	bange	engstirnig	gemein	geizig	sterben	krise	anregung	gütig	kreativ	träumen	vertrauen	vergnügt	ausrottung	gierig	krank	töten	versagen	verbissen	1	blank2r.bmp	0	1	+	0	1	blank2r.bmp	500	1	CPLW	500	1	blank2r.bmp	880	3	genießen	880	0	0	0	0	0	0	0	0	0	0	0	0
2024-04-30	10:14:34	10:17:35	180223	6.6.1	4_exp_EVA_AWA_CON	2	A	B	Rpleas_acq	Oppo	Rpleas	1pleas	acq_new_unple_nomask	acq1_nomask	1	4	0	0	300	300	0	0	835	46	1	0	besonnen	engagiert	genießen	gesittet	sonnig	kuss	bange	engstirnig	gemein	geizig	sterben	krise	anregung	gütig	kreativ	träumen	vertrauen	vergnügt	ausrottung	gierig	krank	töten	versagen	verbissen	1	blank2r.bmp	0	1	+	0	1	blank2r.bmp	500	5	C1r.bmp	500	1	blank2r.bmp	880	1	ausrottung	880	0	0	0	0	0	0	0	0	0	0	0	0
2024-04-30	10:14:34	10:17:37	182247	6.6.1	4_exp_EVA_AWA_CON	2	A	B	Rpleas_acq	Oppo	Rpleas	1pleas	acq_new_pleas_nomask	acq1_nomask	1	5	0	0	300	300	0	0	538	50	1	0	besonnen	engagiert	genießen	gesittet	sonnig	kuss	bange	engstirnig	gemein	geizig	sterben	krise	anregung	gütig	kreativ	träumen	vertrauen	vergnügt	ausrottung	gierig	krank	töten	versagen	verbissen	1	blank2r.bmp	0	1	+	0	1	blank2r.bmp	500	2	B2r.bmp	500	1	blank2r.bmp	880	4	träumen	880	0	0	0	0	0	0	0	0	0	0	0	0
2024-04-30	10:14:34	10:17:39	184271	6.6.1	4_exp_EVA_AWA_CON	2	A	B	Rpleas_acq	Oppo	Rpleas	1pleas	acq_new_pleas_nomask	acq1_nomask	1	6	0	0	300	300	0	0	541	50	1	0	besonnen	engagiert	genießen	gesittet	sonnig	kuss	bange	engstirnig	gemein	geizig	sterben	krise	anregung	gütig	kreativ	träumen	vertrauen	vergnügt	ausrottung	gierig	krank	töten	versagen	verbissen	1	blank2r.bmp	0	1	+	0	1	blank2r.bmp	500	3	B3r.bmp	500	1	blank2r.bmp	880	3	kreativ	880	0	0	0	0	0	0	0	0	0	0	0	0
2024-04-30	10:14:34	10:17:41	186255	6.6.1	4_exp_EVA_AWA_CON	2	A	B	Rpleas_acq	Oppo	Rpleas	1pleas	acq_new_pleas_nomask	acq1_nomask	1	7	0	0	300	300	0	0	503	50	1	0	besonnen	engagiert	genießen	gesittet	sonnig	kuss	bange	engstirnig	gemein	geizig	sterben	krise	anregung	gütig	kreativ	träumen	vertrauen	vergnügt	ausrottung	gierig	krank	töten	versagen	verbissen	1	blank2r.bmp	0	1	+	0	1	blank2r.bmp	500	8	C4r.bmp	500	1	blank2r.bmp	880	5	vertrauen	880	0	0	0	0	0	0	0	0	0	0	0	0
2024-04-30	10:14:34	10:17:43	188215	6.6.1	4_exp_EVA_AWA_CON	2	A	B	Rpleas_acq	Oppo	Rpleas	1pleas	acq_US_unple_nomask	acq1_nomask	1	8	0	0	300	300	0	0	472	46	1	0	besonnen	engagiert	genießen	gesittet	sonnig	kuss	bange	engstirnig	gemein	geizig	sterben	krise	anregung	gütig	kreativ	träumen	vertrauen	vergnügt	ausrottung	gierig	krank	töten	versagen	verbissen	1	blank2r.bmp	0	1	+	0	1	blank2r.bmp	500	1	DHJF	500	1	blank2r.bmp	880	1	bange	880	0	0	0	0	0	0	0	0	0	0	0	0
2024-04-30	10:14:34	10:17:45	190239	6.6.1	4_exp_EVA_AWA_CON	2	A	B	Rpleas_acq	Oppo	Rpleas	1pleas	acq_US_pleas_nomask	acq1_nomask	1	9	0	0	300	300	0	0	535	50	1	0	besonnen	engagiert	genießen	gesittet	sonnig	kuss	bange	engstirnig	gemein	geizig	sterben	krise	anregung	gütig	kreativ	träumen	vertrauen	vergnügt	ausrottung	gierig	krank	töten	versagen	verbissen	1	blank2r.bmp	0	1	+	0	1	blank2r.bmp	500	1	CPLW	500	1	blank2r.bmp	880	1	besonnen	880	0	0	0	0	0	0	0	0	0	0	0	0
2024-04-30	10:14:34	10:17:47	192343	6.6.1	4_exp_EVA_AWA_CON	2	A	B	Rpleas_acq	Oppo	Rpleas	1pleas	acq_US_pleas_nomask	acq1_nomask	1	10	0	0	300	300	0	0	617	50	1	0	besonnen	engagiert	genießen	gesittet	sonnig	kuss	bange	engstirnig	gemein	geizig	sterben	krise	anregung	gütig	kreativ	träumen	vertrauen	vergnügt	ausrottung	gierig	krank	töten	versagen	verbissen	1	blank2r.bmp	0	1	+	0	1	blank2r.bmp	500	1	CPLW	500	1	blank2r.bmp	880	2	engagiert	880	0	0	0	0	0	0	0	0	0	0	0	0
2024-04-30	10:14:34	10:17:49	194335	6.6.1	4_exp_EVA_AWA_CON	2	A	B	Rpleas_acq	Oppo	Rpleas	1pleas	acq_US_unple_nomask	acq1_nomask	1	11	0	0	300	300	0	0	508	46	1	0	besonnen	engagiert	genießen	gesittet	sonnig	kuss	bange	engstirnig	gemein	geizig	sterben	krise	anregung	gütig	kreativ	träumen	vertrauen	vergnügt	ausrottung	gierig	krank	töten	versagen	verbissen	1	blank2r.bmp	0	1	+	0	1	blank2r.bmp	500	1	DHJF	500	1	blank2r.bmp	880	4	geizig	880	0	0	0	0	0	0	0	0	0	0	0	0
2024-04-30	10:14:34	10:17:51	196399	6.6.1	4_exp_EVA_AWA_CON	2	A	B	Rpleas_acq	Oppo	Rpleas	1pleas	acq_US_unple_nomask	acq1_nomask	1	12	0	0	300	300	0	0	581	46	1	0	besonnen	engagiert	genießen	gesittet	sonnig	kuss	bange	engstirnig	gemein	geizig	sterben	krise	anregung	gütig	kreativ	träumen	vertrauen	vergnügt	ausrottung	gierig	krank	töten	versagen	verbissen	1	blank2r.bmp	0	1	+	0	1	blank2r.bmp	500	1	DHJF	500	1	blank2r.bmp	880	3	gemein	880	0	0	0	0	0	0	0	0	0	0	0	0
2024-04-30	10:14:34	10:17:53	198503	6.6.1	4_exp_EVA_AWA_CON	2	A	B	Rpleas_acq	Oppo	Rpleas	1pleas	acq_US_pleas_nomask	acq1_nomask	1	13	0	0	300	300	0	0	623	50	1	0	besonnen	engagiert	genießen	gesittet	sonnig	kuss	bange	engstirnig	gemein	geizig	sterben	krise	anregung	gütig	kreativ	träumen	vertrauen	vergnügt	ausrottung	gierig	krank	töten	versagen	verbissen	1	blank2r.bmp	0	1	+	0	1	blank2r.bmp	500	1	CPLW	500	1	blank2r.bmp	880	4	gesittet	880	0	0	0	0	0	0	0	0	0	0	0	0
2024-04-30	10:14:34	10:17:55	200559	6.6.1	4_exp_EVA_AWA_CON	2	A	B	Rpleas_acq	Oppo	Rpleas	1pleas	acq_new_unple_nomask	acq1_nomask	1	14	0	0	300	300	0	0	568	46	1	0	besonnen	engagiert	genießen	gesittet	sonnig	kuss	bange	engstirnig	gemein	geizig	sterben	krise	anregung	gütig	kreativ	träumen	vertrauen	vergnügt	ausrottung	gierig	krank	töten	versagen	verbissen	1	blank2r.bmp	0	1	+	0	1	blank2r.bmp	500	6	C2r.bmp	500	1	blank2r.bmp	880	3	krank	880	0	0	0	0	0	0	0	0	0	0	0	0
2024-04-30	10:14:34	10:17:57	202583	6.6.1	4_exp_EVA_AWA_CON	2	A	B	Rpleas_acq	Oppo	Rpleas	1pleas	acq_US_unple_nomask	acq1_nomask	1	15	0	0	300	300	0	0	541	46	1	0	besonnen	engagiert	genießen	gesittet	sonnig	kuss	bange	engstirnig	gemein	geizig	sterben	krise	anregung	gütig	kreativ	träumen	vertrauen	vergnügt	ausrottung	gierig	krank	töten	versagen	verbissen	1	blank2r.bmp	0	1	+	0	1	blank2r.bmp	500	1	DHJF	500	1	blank2r.bmp	880	6	krise	880	0	0	0	0	0	0	0	0	0	0	0	0
2024-04-30	10:14:34	10:17:59	204687	6.6.1	4_exp_EVA_AWA_CON	2	A	B	Rpleas_acq	Oppo	Rpleas	1pleas	acq_new_pleas_nomask	acq1_nomask	1	16	0	0	300	300	0	0	623	50	1	0	besonnen	engagiert	genießen	gesittet	sonnig	kuss	bange	engstirnig	gemein	geizig	sterben	krise	anregung	gütig	kreativ	träumen	vertrauen	vergnügt	ausrottung	gierig	krank	töten	versagen	verbissen	1	blank2r.bmp	0	1	+	0	1	blank2r.bmp	500	7	C3r.bmp	500	1	blank2r.bmp	880	2	gütig	880	0	0	0	0	0	0	0	0	0	0	0	0
2024-04-30	10:14:34	10:18:01	206663	6.6.1	4_exp_EVA_AWA_CON	2	A	B	Rpleas_acq	Oppo	Rpleas	1pleas	acq_US_pleas_nomask	acq1_nomask	1	17	0	0	300	300	0	0	488	50	1	0	besonnen	engagiert	genießen	gesittet	sonnig	kuss	bange	engstirnig	gemein	geizig	sterben	krise	anregung	gütig	kreativ	träumen	vertrauen	vergnügt	ausrottung	gierig	krank	töten	versagen	verbissen	1	blank2r.bmp	0	1	+	0	1	blank2r.bmp	500	1	CPLW	500	1	blank2r.bmp	880	5	sonnig	880	0	0	0	0	0	0	0	0	0	0	0	0
2024-04-30	10:14:34	10:18:03	208679	6.6.1	4_exp_EVA_AWA_CON	2	A	B	Rpleas_acq	Oppo	Rpleas	1pleas	acq_US_pleas_nomask	acq1_nomask	1	18	0	0	300	300	0	0	533	50	1	0	besonnen	engagiert	genießen	gesittet	sonnig	kuss	bange	engstirnig	gemein	geizig	sterben	krise	anregung	gütig	kreativ	träumen	vertrauen	vergnügt	ausrottung	gierig	krank	töten	versagen	verbissen	1	blank2r.bmp	0	1	+	0	1	blank2r.bmp	500	1	CPLW	500	1	blank2r.bmp	880	6	kuss	880	0	0	0	0	0	0	0	0	0	0	0	0
2024-04-30	10:14:34	10:18:05	210671	6.6.1	4_exp_EVA_AWA_CON	2	A	B	Rpleas_acq	Oppo	Rpleas	1pleas	acq_new_unple_nomask	acq1_nomask	1	19	0	0	300	300	0	0	503	46	1	0	besonnen	engagiert	genießen	gesittet	sonnig	kuss	bange	engstirnig	gemein	geizig	sterben	krise	anregung	gütig	kreativ	träumen	vertrauen	vergnügt	ausrottung	gierig	krank	töten	versagen	verbissen	1	blank2r.bmp	0	1	+	0	1	blank2r.bmp	500	5	C1r.bmp	500	1	blank2r.bmp	880	5	versagen	880	0	0	0	0	0	0	0	0	0	0	0	0
2024-04-30	10:14:34	10:18:08	212881	6.6.1	4_exp_EVA_AWA_CON	2	A	B	Rpleas_acq	Oppo	Rpleas	1pleas	acq_US_unple_nomask	acq1_nomask	1	20	0	0	300	300	0	0	520	50	0	0	besonnen	engagiert	genießen	gesittet	sonnig	kuss	bange	engstirnig	gemein	geizig	sterben	krise	anregung	gütig	kreativ	träumen	vertrauen	vergnügt	ausrottung	gierig	krank	töten	versagen	verbissen	1	blank2r.bmp	0	1	+	0	1	blank2r.bmp	500	1	DHJF	500	1	blank2r.bmp	880	2	engstirnig	880	1	FEHLER	1422	0	0	0	0	0	0	0	0	0
2024-04-30	10:14:34	10:18:09	214671	6.6.1	4_exp_EVA_AWA_CON	2	A	B	Rpleas_acq	Oppo	Rpleas	1pleas	acq_new_unple_nomask	acq1_nomask	1	21	0	0	300	300	0	0	511	46	1	0	besonnen	engagiert	genießen	gesittet	sonnig	kuss	bange	engstirnig	gemein	geizig	sterben	krise	anregung	gütig	kreativ	träumen	vertrauen	vergnügt	ausrottung	gierig	krank	töten	versagen	verbissen	1	blank2r.bmp	0	1	+	0	1	blank2r.bmp	500	2	B2r.bmp	500	1	blank2r.bmp	880	4	töten	880	0	0	0	0	0	0	0	0	0	0	0	0
2024-04-30	10:14:34	10:18:11	216647	6.6.1	4_exp_EVA_AWA_CON	2	A	B	Rpleas_acq	Oppo	Rpleas	1pleas	acq_US_unple_nomask	acq1_nomask	1	22	0	0	300	300	0	0	495	46	1	0	besonnen	engagiert	genießen	gesittet	sonnig	kuss	bange	engstirnig	gemein	geizig	sterben	krise	anregung	gütig	kreativ	träumen	vertrauen	vergnügt	ausrottung	gierig	krank	töten	versagen	verbissen	1	blank2r.bmp	0	1	+	0	1	blank2r.bmp	500	1	DHJF	500	1	blank2r.bmp	880	5	sterben	880	0	0	0	0	0	0	0	0	0	0	0	0
2024-04-30	10:14:34	10:18:13	218775	6.6.1	4_exp_EVA_AWA_CON	2	A	B	Rpleas_acq	Oppo	Rpleas	1pleas	acq_new_pleas_nomask	acq1_nomask	1	23	0	0	300	300	0	0	642	50	1	0	besonnen	engagiert	genießen	gesittet	sonnig	kuss	bange	engstirnig	gemein	geizig	sterben	krise	anregung	gütig	kreativ	träumen	vertrauen	vergnügt	ausrottung	gierig	krank	töten	versagen	verbissen	1	blank2r.bmp	0	1	+	0	1	blank2r.bmp	500	7	C3r.bmp	500	1	blank2r.bmp	880	1	anregung	880	0	0	0	0	0	0	0	0	0	0	0	0
2024-04-30	10:14:34	10:18:16	220895	6.6.1	4_exp_EVA_AWA_CON	2	A	B	Rpleas_acq	Oppo	Rpleas	1pleas	acq_new_pleas_nomask	acq1_nomask	1	24	0	0	300	300	0	0	631	50	1	0	besonnen	engagiert	genießen	gesittet	sonnig	kuss	bange	engstirnig	gemein	geizig	sterben	krise	anregung	gütig	kreativ	träumen	vertrauen	vergnügt	ausrottung	gierig	krank	töten	versagen	verbissen	1	blank2r.bmp	0	1	+	0	1	blank2r.bmp	500	3	B3r.bmp	500	1	blank2r.bmp	880	6	vergnügt	880	0	0	0	0	0	0	0	0	0	0	0	0
2024-04-30	10:14:34	10:18:18	223135	6.6.1	4_exp_EVA_AWA_CON	2	A	B	Rpleas_acq	Oppo	Rpleas	1pleas	acq_new_pleas_nomask	acq1_nomask	1	25	0	0	300	300	0	0	759	50	1	0	besonnen	engagiert	genießen	gesittet	sonnig	kuss	bange	engstirnig	gemein	geizig	sterben	krise	anregung	gütig	kreativ	träumen	vertrauen	vergnügt	ausrottung	gierig	krank	töten	versagen	verbissen	1	blank2r.bmp	0	1	+	0	1	blank2r.bmp	500	8	C4r.bmp	500	1	blank2r.bmp	880	2	gütig	880	0	0	0	0	0	0	0	0	0	0	0	0
2024-04-30	10:14:34	10:18:20	225167	6.6.1	4_exp_EVA_AWA_CON	2	A	B	Rpleas_acq	Oppo	Rpleas	1pleas	acq_US_pleas_nomask	acq1_nomask	1	26	0	0	300	300	0	0	550	50	1	0	besonnen	engagiert	genießen	gesittet	sonnig	kuss	bange	engstirnig	gemein	geizig	sterben	krise	anregung	gütig	kreativ	träumen	vertrauen	vergnügt	ausrottung	gierig	krank	töten	versagen	verbissen	1	blank2r.bmp	0	1	+	0	1	blank2r.bmp	500	1	CPLW	500	1	blank2r.bmp	880	3	genießen	880	0	0	0	0	0	0	0	0	0	0	0	0
2024-04-30	10:14:34	10:18:22	227431	6.6.1	4_exp_EVA_AWA_CON	2	A	B	Rpleas_acq	Oppo	Rpleas	1pleas	acq_US_unple_nomask	acq1_nomask	1	27	0	0	300	300	0	0	783	46	1	0	besonnen	engagiert	genießen	gesittet	sonnig	kuss	bange	engstirnig	gemein	geizig	sterben	krise	anregung	gütig	kreativ	träumen	vertrauen	vergnügt	ausrottung	gierig	krank	töten	versagen	verbissen	1	blank2r.bmp	0	1	+	0	1	blank2r.bmp	500	1	DHJF	500	1	blank2r.bmp	880	2	engstirnig	880	0	0	0	0	0	0	0	0	0	0	0	0
2024-04-30	10:14:34	10:18:24	229455	6.6.1	4_exp_EVA_AWA_CON	2	A	B	Rpleas_acq	Oppo	Rpleas	1pleas	acq_US_pleas_nomask	acq1_nomask	1	28	0	0	300	300	0	0	535	50	1	0	besonnen	engagiert	genießen	gesittet	sonnig	kuss	bange	engstirnig	gemein	geizig	sterben	krise	anregung	gütig	kreativ	träumen	vertrauen	vergnügt	ausrottung	gierig	krank	töten	versagen	verbissen	1	blank2r.bmp	0	1	+	0	1	blank2r.bmp	500	1	CPLW	500	1	blank2r.bmp	880	1	besonnen	880	0	0	0	0	0	0	0	0	0	0	0	0
2024-04-30	10:14:34	10:18:26	231479	6.6.1	4_exp_EVA_AWA_CON	2	A	B	Rpleas_acq	Oppo	Rpleas	1pleas	acq_US_unple_nomask	acq1_nomask	1	29	0	0	300	300	0	0	538	46	1	0	besonnen	engagiert	genießen	gesittet	sonnig	kuss	bange	engstirnig	gemein	geizig	sterben	krise	anregung	gütig	kreativ	träumen	vertrauen	vergnügt	ausrottung	gierig	krank	töten	versagen	verbissen	1	blank2r.bmp	0	1	+	0	1	blank2r.bmp	500	1	DHJF	500	1	blank2r.bmp	880	1	bange	880	0	0	0	0	0	0	0	0	0	0	0	0
2024-04-30	10:14:34	10:18:28	233511	6.6.1	4_exp_EVA_AWA_CON	2	A	B	Rpleas_acq	Oppo	Rpleas	1pleas	acq_US_unple_nomask	acq1_nomask	1	30	0	0	300	300	0	0	548	46	1	0	besonnen	engagiert	genießen	gesittet	sonnig	kuss	bange	engstirnig	gemein	geizig	sterben	krise	anregung	gütig	kreativ	träumen	vertrauen	vergnügt	ausrottung	gierig	krank	töten	versagen	verbissen	1	blank2r.bmp	0	1	+	0	1	blank2r.bmp	500	1	DHJF	500	1	blank2r.bmp	880	5	sterben	880	0	0	0	0	0	0	0	0	0	0	0	0
2024-04-30	10:14:34	10:18:30	235527	6.6.1	4_exp_EVA_AWA_CON	2	A	B	Rpleas_acq	Oppo	Rpleas	1pleas	acq_new_unple_nomask	acq1_nomask	1	31	0	0	300	300	0	0	533	46	1	0	besonnen	engagiert	genießen	gesittet	sonnig	kuss	bange	engstirnig	gemein	geizig	sterben	krise	anregung	gütig	kreativ	träumen	vertrauen	vergnügt	ausrottung	gierig	krank	töten	versagen	verbissen	1	blank2r.bmp	0	1	+	0	1	blank2r.bmp	500	1	B1r.bmp	500	1	blank2r.bmp	880	2	gierig	880	0	0	0	0	0	0	0	0	0	0	0	0
2024-04-30	10:14:34	10:18:32	237615	6.6.1	4_exp_EVA_AWA_CON	2	A	B	Rpleas_acq	Oppo	Rpleas	1pleas	acq_new_pleas_nomask	acq1_nomask	1	32	0	0	300	300	0	0	600	50	1	0	besonnen	engagiert	genießen	gesittet	sonnig	kuss	bange	engstirnig	gemein	geizig	sterben	krise	anregung	gütig	kreativ	träumen	vertrauen	vergnügt	ausrottung	gierig	krank	töten	versagen	verbissen	1	blank2r.bmp	0	1	+	0	1	blank2r.bmp	500	4	B4r.bmp	500	1	blank2r.bmp	880	1	anregung	880	0	0	0	0	0	0	0	0	0	0	0	0
2024-04-30	10:14:34	10:18:35	239849	6.6.1	4_exp_EVA_AWA_CON	2	A	B	Rpleas_acq	Oppo	Rpleas	1pleas	acq_new_unple_nomask	acq1_nomask	1	33	0	0	300	300	0	0	550	50	0	0	besonnen	engagiert	genießen	gesittet	sonnig	kuss	bange	engstirnig	gemein	geizig	sterben	krise	anregung	gütig	kreativ	träumen	vertrauen	vergnügt	ausrottung	gierig	krank	töten	versagen	verbissen	1	blank2r.bmp	0	1	+	0	1	blank2r.bmp	500	6	C2r.bmp	500	1	blank2r.bmp	880	3	krank	880	1	FEHLER	1452	0	0	0	0	0	0	0	0	0
2024-04-30	10:14:34	10:18:36	241695	6.6.1	4_exp_EVA_AWA_CON	2	A	B	Rpleas_acq	Oppo	Rpleas	1pleas	acq_new_unple_nomask	acq1_nomask	1	34	0	0	300	300	0	0	567	46	1	0	besonnen	engagiert	genießen	gesittet	sonnig	kuss	bange	engstirnig	gemein	geizig	sterben	krise	anregung	gütig	kreativ	träumen	vertrauen	vergnügt	ausrottung	gierig	krank	töten	versagen	verbissen	1	blank2r.bmp	0	1	+	0	1	blank2r.bmp	500	7	C3r.bmp	500	1	blank2r.bmp	880	4	töten	880	0	0	0	0	0	0	0	0	0	0	0	0
2024-04-30	10:14:34	10:18:38	243751	6.6.1	4_exp_EVA_AWA_CON	2	A	B	Rpleas_acq	Oppo	Rpleas	1pleas	acq_new_pleas_nomask	acq1_nomask	1	35	0	0	300	300	0	0	572	50	1	0	besonnen	engagiert	genießen	gesittet	sonnig	kuss	bange	engstirnig	gemein	geizig	sterben	krise	anregung	gütig	kreativ	träumen	vertrauen	vergnügt	ausrottung	gierig	krank	töten	versagen	verbissen	1	blank2r.bmp	0	1	+	0	1	blank2r.bmp	500	5	C1r.bmp	500	1	blank2r.bmp	880	5	vertrauen	880	0	0	0	0	0	0	0	0	0	0	0	0
2024-04-30	10:14:34	10:18:40	245743	6.6.1	4_exp_EVA_AWA_CON	2	A	B	Rpleas_acq	Oppo	Rpleas	1pleas	acq_US_pleas_nomask	acq1_nomask	1	36	0	0	300	300	0	0	502	50	1	0	besonnen	engagiert	genießen	gesittet	sonnig	kuss	bange	engstirnig	gemein	geizig	sterben	krise	anregung	gütig	kreativ	träumen	vertrauen	vergnügt	ausrottung	gierig	krank	töten	versagen	verbissen	1	blank2r.bmp	0	1	+	0	1	blank2r.bmp	500	1	CPLW	500	1	blank2r.bmp	880	6	kuss	880	0	0	0	0	0	0	0	0	0	0	0	0
2024-04-30	10:14:34	10:19:29	294539	6.6.1	4_exp_EVA_AWA_CON	2	A	B	Rpleas_acq	Oppo	Rpleas	1pleas	acq_US_unple_nomask	acq2_nomask	2	1	480	1	300	300	0	0	545	46	1	0	besonnen	engagiert	genießen	gesittet	sonnig	kuss	bange	engstirnig	gemein	geizig	sterben	krise	anregung	gütig	kreativ	träumen	vertrauen	vergnügt	ausrottung	gierig	krank	töten	versagen	verbissen	1	blank2r.bmp	0	1	+	0	1	blank2r.bmp	500	1	DHJF	500	1	blank2r.bmp	880	4	geizig	880	1	!	1312	1	!	1446	0	0	0	0	0	0
2024-04-30	10:14:34	10:19:32	297065	6.6.1	4_exp_EVA_AWA_CON	2	A	B	Rpleas_acq	Oppo	Rpleas	1pleas	acq_US_pleas_nomask	acq2_nomask	2	2	480	0	300	300	0	0	751	50	1	0	besonnen	engagiert	genießen	gesittet	sonnig	kuss	bange	engstirnig	gemein	geizig	sterben	krise	anregung	gütig	kreativ	träumen	vertrauen	vergnügt	ausrottung	gierig	krank	töten	versagen	verbissen	1	blank2r.bmp	0	1	+	0	1	blank2r.bmp	500	1	CPLW	500	1	blank2r.bmp	880	5	sonnig	880	1	!	1313	1	!	-1	0	0	0	0	0	0
2024-04-30	10:14:34	10:19:34	299625	6.6.1	4_exp_EVA_AWA_CON	2	A	B	Rpleas_acq	Oppo	Rpleas	1pleas	acq_new_unple_nomask	acq2_nomask	2	3	480	0	300	300	0	0	779	46	1	0	besonnen	engagiert	genießen	gesittet	sonnig	kuss	bange	engstirnig	gemein	geizig	sterben	krise	anregung	gütig	kreativ	träumen	vertrauen	vergnügt	ausrottung	gierig	krank	töten	versagen	verbissen	1	blank2r.bmp	0	1	+	0	1	blank2r.bmp	500	8	C4r.bmp	500	1	blank2r.bmp	880	6	verbissen	880	1	!	1312	1	!	-1	0	0	0	0	0	0
2024-04-30	10:14:34	10:19:39	303809	6.6.1	4_exp_EVA_AWA_CON	2	A	B	Rpleas_acq	Oppo	Rpleas	1pleas	acq_new_unple_nomask	acq2_nomask	2	4	480	0	300	300	0	0	2411	46	1	0	besonnen	engagiert	genießen	gesittet	sonnig	kuss	bange	engstirnig	gemein	geizig	sterben	krise	anregung	gütig	kreativ	träumen	vertrauen	vergnügt	ausrottung	gierig	krank	töten	versagen	verbissen	1	blank2r.bmp	0	1	+	0	1	blank2r.bmp	500	4	B4r.bmp	500	1	blank2r.bmp	880	5	versagen	880	1	!	1312	1	!	-1	0	0	0	0	0	0
2024-04-30	10:14:34	10:19:41	306091	6.6.1	4_exp_EVA_AWA_CON	2	A	B	Rpleas_acq	Oppo	Rpleas	1pleas	acq_US_unple_nomask	acq2_nomask	2	5	480	1	300	300	0	0	499	46	1	0	besonnen	engagiert	genießen	gesittet	sonnig	kuss	bange	engstirnig	gemein	geizig	sterben	krise	anregung	gütig	kreativ	träumen	vertrauen	vergnügt	ausrottung	gierig	krank	töten	versagen	verbissen	1	blank2r.bmp	0	1	+	0	1	blank2r.bmp	500	1	DHJF	500	1	blank2r.bmp	880	6	krise	880	1	!	1312	1	!	1400	0	0	0	0	0	0
2024-04-30	10:14:34	10:19:43	308378	6.6.1	4_exp_EVA_AWA_CON	2	A	B	Rpleas_acq	Oppo	Rpleas	1pleas	acq_US_unple_nomask	acq2_nomask	2	6	480	1	300	300	0	0	506	46	1	0	besonnen	engagiert	genießen	gesittet	sonnig	kuss	bange	engstirnig	gemein	geizig	sterben	krise	anregung	gütig	kreativ	träumen	vertrauen	vergnügt	ausrottung	gierig	krank	töten	versagen	verbissen	1	blank2r.bmp	0	1	+	0	1	blank2r.bmp	500	1	DHJF	500	1	blank2r.bmp	880	3	gemein	880	1	!	1312	1	!	1407	0	0	0	0	0	0
2024-04-30	10:14:34	10:19:45	310586	6.6.1	4_exp_EVA_AWA_CON	2	A	B	Rpleas_acq	Oppo	Rpleas	1pleas	acq_new_pleas_nomask	acq2_nomask	2	7	480	1	300	300	0	0	432	50	1	0	besonnen	engagiert	genießen	gesittet	sonnig	kuss	bange	engstirnig	gemein	geizig	sterben	krise	anregung	gütig	kreativ	träumen	vertrauen	vergnügt	ausrottung	gierig	krank	töten	versagen	verbissen	1	blank2r.bmp	0	1	+	0	1	blank2r.bmp	500	2	B2r.bmp	500	1	blank2r.bmp	880	4	träumen	880	1	!	1313	1	!	1333	0	0	0	0	0	0
2024-04-30	10:14:34	10:19:48	313009	6.6.1	4_exp_EVA_AWA_CON	2	A	B	Rpleas_acq	Oppo	Rpleas	1pleas	acq_US_pleas_nomask	acq2_nomask	2	8	480	0	300	300	0	0	645	50	1	0	besonnen	engagiert	genießen	gesittet	sonnig	kuss	bange	engstirnig	gemein	geizig	sterben	krise	anregung	gütig	kreativ	träumen	vertrauen	vergnügt	ausrottung	gierig	krank	töten	versagen	verbissen	1	blank2r.bmp	0	1	+	0	1	blank2r.bmp	500	1	CPLW	500	1	blank2r.bmp	880	2	engagiert	880	1	!	1313	1	!	-1	0	0	0	0	0	0
2024-04-30	10:14:34	10:19:50	315372	6.6.1	4_exp_EVA_AWA_CON	2	A	B	Rpleas_acq	Oppo	Rpleas	1pleas	acq_new_pleas_nomask	acq2_nomask	2	9	480	0	300	300	0	0	383	46	0	0	besonnen	engagiert	genießen	gesittet	sonnig	kuss	bange	engstirnig	gemein	geizig	sterben	krise	anregung	gütig	kreativ	träumen	vertrauen	vergnügt	ausrottung	gierig	krank	töten	versagen	verbissen	1	blank2r.bmp	0	1	+	0	1	blank2r.bmp	500	3	B3r.bmp	500	1	blank2r.bmp	880	3	kreativ	880	1	FEHLER	1576	1	!	-1	1	!	-1	0	0	0
2024-04-30	10:14:34	10:19:52	317490	6.6.1	4_exp_EVA_AWA_CON	2	A	B	Rpleas_acq	Oppo	Rpleas	1pleas	acq_new_pleas_nomask	acq2_nomask	2	10	480	1	300	300	0	0	542	50	1	0	besonnen	engagiert	genießen	gesittet	sonnig	kuss	bange	engstirnig	gemein	geizig	sterben	krise	anregung	gütig	kreativ	träumen	vertrauen	vergnügt	ausrottung	gierig	krank	töten	versagen	verbissen	1	blank2r.bmp	0	1	+	0	1	blank2r.bmp	500	1	B1r.bmp	500	1	blank2r.bmp	880	6	vergnügt	880	1	!	1313	1	!	1443	0	0	0	0	0	0
2024-04-30	10:14:34	10:19:55	319865	6.6.1	4_exp_EVA_AWA_CON	2	A	B	Rpleas_acq	Oppo	Rpleas	1pleas	acq_US_pleas_nomask	acq2_nomask	2	11	480	0	300	300	0	0	596	50	1	0	besonnen	engagiert	genießen	gesittet	sonnig	kuss	bange	engstirnig	gemein	geizig	sterben	krise	anregung	gütig	kreativ	träumen	vertrauen	vergnügt	ausrottung	gierig	krank	töten	versagen	verbissen	1	blank2r.bmp	0	1	+	0	1	blank2r.bmp	500	1	CPLW	500	1	blank2r.bmp	880	4	gesittet	880	1	!	1313	1	!	-1	0	0	0	0	0	0
2024-04-30	10:14:34	10:19:57	322241	6.6.1	4_exp_EVA_AWA_CON	2	A	B	Rpleas_acq	Oppo	Rpleas	1pleas	acq_new_unple_nomask	acq2_nomask	2	12	480	0	300	300	0	0	601	46	1	0	besonnen	engagiert	genießen	gesittet	sonnig	kuss	bange	engstirnig	gemein	geizig	sterben	krise	anregung	gütig	kreativ	träumen	vertrauen	vergnügt	ausrottung	gierig	krank	töten	versagen	verbissen	1	blank2r.bmp	0	1	+	0	1	blank2r.bmp	500	6	C2r.bmp	500	1	blank2r.bmp	880	1	ausrottung	880	1	!	1312	1	!	-1	0	0	0	0	0	0
2024-04-30	10:14:34	10:19:59	324393	6.6.1	4_exp_EVA_AWA_CON	2	A	B	Rpleas_acq	Oppo	Rpleas	1pleas	acq_new_unple_nomask	acq2_nomask	2	13	480	0	300	300	0	0	371	46	1	0	besonnen	engagiert	genießen	gesittet	sonnig	kuss	bange	engstirnig	gemein	geizig	sterben	krise	anregung	gütig	kreativ	träumen	vertrauen	vergnügt	ausrottung	gierig	krank	töten	versagen	verbissen	1	blank2r.bmp	0	1	+	0	1	blank2r.bmp	500	7	C3r.bmp	500	1	blank2r.bmp	880	1	ausrottung	880	1	!	-1	1	!	-1	0	0	0	0	0	0
2024-04-30	10:14:34	10:20:01	326769	6.6.1	4_exp_EVA_AWA_CON	2	A	B	Rpleas_acq	Oppo	Rpleas	1pleas	acq_US_pleas_nomask	acq2_nomask	2	14	480	0	300	300	0	0	596	50	1	0	besonnen	engagiert	genießen	gesittet	sonnig	kuss	bange	engstirnig	gemein	geizig	sterben	krise	anregung	gütig	kreativ	träumen	vertrauen	vergnügt	ausrottung	gierig	krank	töten	versagen	verbissen	1	blank2r.bmp	0	1	+	0	1	blank2r.bmp	500	1	CPLW	500	1	blank2r.bmp	880	1	besonnen	880	1	!	1312	1	!	-1	0	0	0	0	0	0
2024-04-30	10:14:34	10:20:04	328905	6.6.1	4_exp_EVA_AWA_CON	2	A	B	Rpleas_acq	Oppo	Rpleas	1pleas	acq_US_pleas_nomask	acq2_nomask	2	15	480	0	300	300	0	0	360	50	1	0	besonnen	engagiert	genießen	gesittet	sonnig	kuss	bange	engstirnig	gemein	geizig	sterben	krise	anregung	gütig	kreativ	träumen	vertrauen	vergnügt	ausrottung	gierig	krank	töten	versagen	verbissen	1	blank2r.bmp	0	1	+	0	1	blank2r.bmp	500	1	CPLW	500	1	blank2r.bmp	880	2	engagiert	880	1	!	-1	1	!	-1	0	0	0	0	0	0
2024-04-30	10:14:34	10:20:06	331329	6.6.1	4_exp_EVA_AWA_CON	2	A	B	Rpleas_acq	Oppo	Rpleas	1pleas	acq_US_unple_nomask	acq2_nomask	2	16	480	0	300	300	0	0	643	46	1	0	besonnen	engagiert	genießen	gesittet	sonnig	kuss	bange	engstirnig	gemein	geizig	sterben	krise	anregung	gütig	kreativ	träumen	vertrauen	vergnügt	ausrottung	gierig	krank	töten	versagen	verbissen	1	blank2r.bmp	0	1	+	0	1	blank2r.bmp	500	1	DHJF	500	1	blank2r.bmp	880	2	engstirnig	880	1	!	1312	1	!	-1	0	0	0	0	0	0
2024-04-30	10:14:34	10:20:08	333489	6.6.1	4_exp_EVA_AWA_CON	2	A	B	Rpleas_acq	Oppo	Rpleas	1pleas	acq_new_unple_nomask	acq2_nomask	2	17	480	0	300	300	0	0	381	46	1	0	besonnen	engagiert	genießen	gesittet	sonnig	kuss	bange	engstirnig	gemein	geizig	sterben	krise	anregung	gütig	kreativ	träumen	vertrauen	vergnügt	ausrottung	gierig	krank	töten	versagen	verbissen	1	blank2r.bmp	0	1	+	0	1	blank2r.bmp	500	4	B4r.bmp	500	1	blank2r.bmp	880	3	krank	880	1	!	-1	1	!	-1	0	0	0	0	0	0
2024-04-30	10:14:34	10:20:11	335881	6.6.1	4_exp_EVA_AWA_CON	2	A	B	Rpleas_acq	Oppo	Rpleas	1pleas	acq_US_unple_nomask	acq2_nomask	2	18	480	0	300	300	0	0	612	46	1	0	besonnen	engagiert	genießen	gesittet	sonnig	kuss	bange	engstirnig	gemein	geizig	sterben	krise	anregung	gütig	kreativ	träumen	vertrauen	vergnügt	ausrottung	gierig	krank	töten	versagen	verbissen	1	blank2r.bmp	0	1	+	0	1	blank2r.bmp	500	1	DHJF	500	1	blank2r.bmp	880	4	geizig	880	1	!	1312	1	!	-1	0	0	0	0	0	0
2024-04-30	10:14:34	10:20:13	338049	6.6.1	4_exp_EVA_AWA_CON	2	A	B	Rpleas_acq	Oppo	Rpleas	1pleas	acq_new_unple_nomask	acq2_nomask	2	19	480	0	300	300	0	0	388	46	1	0	besonnen	engagiert	genießen	gesittet	sonnig	kuss	bange	engstirnig	gemein	geizig	sterben	krise	anregung	gütig	kreativ	träumen	vertrauen	vergnügt	ausrottung	gierig	krank	töten	versagen	verbissen	1	blank2r.bmp	0	1	+	0	1	blank2r.bmp	500	6	C2r.bmp	500	1	blank2r.bmp	880	4	töten	880	1	!	-1	1	!	-1	0	0	0	0	0	0
2024-04-30	10:14:34	10:20:15	340409	6.6.1	4_exp_EVA_AWA_CON	2	A	B	Rpleas_acq	Oppo	Rpleas	1pleas	acq_new_pleas_nomask	acq2_nomask	2	20	480	0	300	300	0	0	587	50	1	0	besonnen	engagiert	genießen	gesittet	sonnig	kuss	bange	engstirnig	gemein	geizig	sterben	krise	anregung	gütig	kreativ	träumen	vertrauen	vergnügt	ausrottung	gierig	krank	töten	versagen	verbissen	1	blank2r.bmp	0	1	+	0	1	blank2r.bmp	500	5	C1r.bmp	500	1	blank2r.bmp	880	1	anregung	880	1	!	1312	1	!	-1	0	0	0	0	0	0
2024-04-30	10:14:34	10:20:17	342698	6.6.1	4_exp_EVA_AWA_CON	2	A	B	Rpleas_acq	Oppo	Rpleas	1pleas	acq_new_pleas_nomask	acq2_nomask	2	21	480	1	300	300	0	0	513	50	1	0	besonnen	engagiert	genießen	gesittet	sonnig	kuss	bange	engstirnig	gemein	geizig	sterben	krise	anregung	gütig	kreativ	träumen	vertrauen	vergnügt	ausrottung	gierig	krank	töten	versagen	verbissen	1	blank2r.bmp	0	1	+	0	1	blank2r.bmp	500	8	C4r.bmp	500	1	blank2r.bmp	880	6	vergnügt	880	1	!	1312	1	!	1414	0	0	0	0	0	0
2024-04-30	10:14:34	10:20:20	344907	6.6.1	4_exp_EVA_AWA_CON	2	A	B	Rpleas_acq	Oppo	Rpleas	1pleas	acq_new_pleas_nomask	acq2_nomask	2	22	480	1	300	300	0	0	430	50	1	0	besonnen	engagiert	genießen	gesittet	sonnig	kuss	bange	engstirnig	gemein	geizig	sterben	krise	anregung	gütig	kreativ	träumen	vertrauen	vergnügt	ausrottung	gierig	krank	töten	versagen	verbissen	1	blank2r.bmp	0	1	+	0	1	blank2r.bmp	500	3	B3r.bmp	500	1	blank2r.bmp	880	2	gütig	880	1	!	1313	1	!	1331	0	0	0	0	0	0
2024-04-30	10:14:34	10:20:22	347281	6.6.1	4_exp_EVA_AWA_CON	2	A	B	Rpleas_acq	Oppo	Rpleas	1pleas	acq_US_unple_nomask	acq2_nomask	2	23	480	0	300	300	0	0	594	46	1	0	besonnen	engagiert	genießen	gesittet	sonnig	kuss	bange	engstirnig	gemein	geizig	sterben	krise	anregung	gütig	kreativ	träumen	vertrauen	vergnügt	ausrottung	gierig	krank	töten	versagen	verbissen	1	blank2r.bmp	0	1	+	0	1	blank2r.bmp	500	1	DHJF	500	1	blank2r.bmp	880	6	krise	880	1	!	1312	1	!	-1	0	0	0	0	0	0
2024-04-30	10:14:34	10:20:24	349700	6.6.1	4_exp_EVA_AWA_CON	2	A	B	Rpleas_acq	Oppo	Rpleas	1pleas	acq_US_pleas_nomask	acq2_nomask	2	24	480	1	300	300	0	0	439	46	0	0	besonnen	engagiert	genießen	gesittet	sonnig	kuss	bange	engstirnig	gemein	geizig	sterben	krise	anregung	gütig	kreativ	träumen	vertrauen	vergnügt	ausrottung	gierig	krank	töten	versagen	verbissen	1	blank2r.bmp	0	1	+	0	1	blank2r.bmp	500	1	CPLW	500	1	blank2r.bmp	880	6	kuss	880	1	FEHLER	1632	1	!	1312	1	!	1340	0	0	0
2024-04-30	10:14:34	10:20:27	351905	6.6.1	4_exp_EVA_AWA_CON	2	A	B	Rpleas_acq	Oppo	Rpleas	1pleas	acq_new_unple_nomask	acq2_nomask	2	25	480	0	300	300	0	0	625	46	1	0	besonnen	engagiert	genießen	gesittet	sonnig	kuss	bange	engstirnig	gemein	geizig	sterben	krise	anregung	gütig	kreativ	träumen	vertrauen	vergnügt	ausrottung	gierig	krank	töten	versagen	verbissen	1	blank2r.bmp	0	1	+	0	1	blank2r.bmp	500	1	B1r.bmp	500	1	blank2r.bmp	880	5	versagen	880	1	!	1313	1	!	-1	0	0	0	0	0	0
2024-04-30	10:14:34	10:20:30	355097	6.6.1	4_exp_EVA_AWA_CON	2	A	B	Rpleas_acq	Oppo	Rpleas	1pleas	acq_new_unple_nomask	acq2_nomask	2	26	480	0	300	300	0	0	1416	46	1	0	besonnen	engagiert	genießen	gesittet	sonnig	kuss	bange	engstirnig	gemein	geizig	sterben	krise	anregung	gütig	kreativ	träumen	vertrauen	vergnügt	ausrottung	gierig	krank	töten	versagen	verbissen	1	blank2r.bmp	0	1	+	0	1	blank2r.bmp	500	2	B2r.bmp	500	1	blank2r.bmp	880	6	verbissen	880	1	!	1312	1	!	-1	0	0	0	0	0	0
2024-04-30	10:14:34	10:20:32	357410	6.6.1	4_exp_EVA_AWA_CON	2	A	B	Rpleas_acq	Oppo	Rpleas	1pleas	acq_new_pleas_nomask	acq2_nomask	2	27	480	1	300	300	0	0	536	50	1	0	besonnen	engagiert	genießen	gesittet	sonnig	kuss	bange	engstirnig	gemein	geizig	sterben	krise	anregung	gütig	kreativ	träumen	vertrauen	vergnügt	ausrottung	gierig	krank	töten	versagen	verbissen	1	blank2r.bmp	0	1	+	0	1	blank2r.bmp	500	6	C2r.bmp	500	1	blank2r.bmp	880	4	träumen	880	1	!	1313	1	!	1437	0	0	0	0	0	0
2024-04-30	10:14:34	10:20:34	359658	6.6.1	4_exp_EVA_AWA_CON	2	A	B	Rpleas_acq	Oppo	Rpleas	1pleas	acq_US_unple_nomask	acq2_nomask	2	28	480	1	300	300	0	0	472	46	1	0	besonnen	engagiert	genießen	gesittet	sonnig	kuss	bange	engstirnig	gemein	geizig	sterben	krise	anregung	gütig	kreativ	träumen	vertrauen	vergnügt	ausrottung	gierig	krank	töten	versagen	verbissen	1	blank2r.bmp	0	1	+	0	1	blank2r.bmp	500	1	DHJF	500	1	blank2r.bmp	880	5	sterben	880	1	!	1313	1	!	1373	0	0	0	0	0	0
2024-04-30	10:14:34	10:20:37	361817	6.6.1	4_exp_EVA_AWA_CON	2	A	B	Rpleas_acq	Oppo	Rpleas	1pleas	acq_US_unple_nomask	acq2_nomask	2	29	480	0	300	300	0	0	381	46	1	0	besonnen	engagiert	genießen	gesittet	sonnig	kuss	bange	engstirnig	gemein	geizig	sterben	krise	anregung	gütig	kreativ	träumen	vertrauen	vergnügt	ausrottung	gierig	krank	töten	versagen	verbissen	1	blank2r.bmp	0	1	+	0	1	blank2r.bmp	500	1	DHJF	500	1	blank2r.bmp	880	3	gemein	880	1	!	-1	1	!	-1	0	0	0	0	0	0
2024-04-30	10:14:34	10:20:39	364116	6.6.1	4_exp_EVA_AWA_CON	2	A	B	Rpleas_acq	Oppo	Rpleas	1pleas	acq_US_pleas_nomask	acq2_nomask	2	30	480	0	300	300	0	0	315	46	0	0	besonnen	engagiert	genießen	gesittet	sonnig	kuss	bange	engstirnig	gemein	geizig	sterben	krise	anregung	gütig	kreativ	träumen	vertrauen	vergnügt	ausrottung	gierig	krank	töten	versagen	verbissen	1	blank2r.bmp	0	1	+	0	1	blank2r.bmp	500	1	CPLW	500	1	blank2r.bmp	880	4	gesittet	880	1	FEHLER	1508	1	!	-1	1	!	-1	0	0	0
2024-04-30	10:14:34	10:20:41	366146	6.6.1	4_exp_EVA_AWA_CON	2	A	B	Rpleas_acq	Oppo	Rpleas	1pleas	acq_US_pleas_nomask	acq2_nomask	2	31	480	1	300	300	0	0	456	50	1	0	besonnen	engagiert	genießen	gesittet	sonnig	kuss	bange	engstirnig	gemein	geizig	sterben	krise	anregung	gütig	kreativ	träumen	vertrauen	vergnügt	ausrottung	gierig	krank	töten	versagen	verbissen	1	blank2r.bmp	0	1	+	0	1	blank2r.bmp	500	1	CPLW	500	1	blank2r.bmp	880	5	sonnig	880	1	!	1313	1	!	1357	0	0	0	0	0	0
2024-04-30	10:14:34	10:20:43	368337	6.6.1	4_exp_EVA_AWA_CON	2	A	B	Rpleas_acq	Oppo	Rpleas	1pleas	acq_new_pleas_nomask	acq2_nomask	2	32	480	1	300	300	0	0	416	50	1	0	besonnen	engagiert	genießen	gesittet	sonnig	kuss	bange	engstirnig	gemein	geizig	sterben	krise	anregung	gütig	kreativ	träumen	vertrauen	vergnügt	ausrottung	gierig	krank	töten	versagen	verbissen	1	blank2r.bmp	0	1	+	0	1	blank2r.bmp	500	8	C4r.bmp	500	1	blank2r.bmp	880	3	kreativ	880	1	!	1313	1	!	1316	0	0	0	0	0	0
2024-04-30	10:14:34	10:20:46	371188	6.6.1	4_exp_EVA_AWA_CON	2	A	B	Rpleas_acq	Oppo	Rpleas	1pleas	acq_new_unple_nomask	acq2_nomask	2	33	480	0	300	300	0	0	873	50	0	0	besonnen	engagiert	genießen	gesittet	sonnig	kuss	bange	engstirnig	gemein	geizig	sterben	krise	anregung	gütig	kreativ	träumen	vertrauen	vergnügt	ausrottung	gierig	krank	töten	versagen	verbissen	1	blank2r.bmp	0	1	+	0	1	blank2r.bmp	500	3	B3r.bmp	500	1	blank2r.bmp	880	2	gierig	880	1	FEHLER	2066	1	!	1313	1	!	-1	0	0	0
2024-04-30	10:14:34	10:20:48	373393	6.6.1	4_exp_EVA_AWA_CON	2	A	B	Rpleas_acq	Oppo	Rpleas	1pleas	acq_new_pleas_nomask	acq2_nomask	2	34	480	0	300	300	0	0	629	50	1	0	besonnen	engagiert	genießen	gesittet	sonnig	kuss	bange	engstirnig	gemein	geizig	sterben	krise	anregung	gütig	kreativ	träumen	vertrauen	vergnügt	ausrottung	gierig	krank	töten	versagen	verbissen	1	blank2r.bmp	0	1	+	0	1	blank2r.bmp	500	4	B4r.bmp	500	1	blank2r.bmp	880	5	vertrauen	880	1	!	1313	1	!	-1	0	0	0	0	0	0
2024-04-30	10:14:34	10:20:50	375761	6.6.1	4_exp_EVA_AWA_CON	2	A	B	Rpleas_acq	Oppo	Rpleas	1pleas	acq_US_pleas_nomask	acq2_nomask	2	35	480	0	300	300	0	0	596	50	1	0	besonnen	engagiert	genießen	gesittet	sonnig	kuss	bange	engstirnig	gemein	geizig	sterben	krise	anregung	gütig	kreativ	träumen	vertrauen	vergnügt	ausrottung	gierig	krank	töten	versagen	verbissen	1	blank2r.bmp	0	1	+	0	1	blank2r.bmp	500	1	CPLW	500	1	blank2r.bmp	880	3	genießen	880	1	!	1313	1	!	-1	0	0	0	0	0	0
2024-04-30	10:14:34	10:20:53	378209	6.6.1	4_exp_EVA_AWA_CON	2	A	B	Rpleas_acq	Oppo	Rpleas	1pleas	acq_US_unple_nomask	acq2_nomask	2	36	480	0	300	300	0	0	672	46	1	0	besonnen	engagiert	genießen	gesittet	sonnig	kuss	bange	engstirnig	gemein	geizig	sterben	krise	anregung	gütig	kreativ	träumen	vertrauen	vergnügt	ausrottung	gierig	krank	töten	versagen	verbissen	1	blank2r.bmp	0	1	+	0	1	blank2r.bmp	500	1	DHJF	500	1	blank2r.bmp	880	1	bange	880	1	!	1312	1	!	-1	0	0	0	0	0	0
2024-04-30	10:14:34	10:21:08	392793	6.6.1	4_exp_EVA_AWA_CON	2	A	B	Rpleas_acq	Oppo	Rpleas	1pleas	acq_US_unple_nomask	acq3_nomask	3	1	453	0	300	300	0	0	546	46	1	0	besonnen	engagiert	genießen	gesittet	sonnig	kuss	bange	engstirnig	gemein	geizig	sterben	krise	anregung	gütig	kreativ	träumen	vertrauen	vergnügt	ausrottung	gierig	krank	töten	versagen	verbissen	1	blank2r.bmp	0	1	+	0	1	blank2r.bmp	500	1	DHJF	500	1	blank2r.bmp	880	3	gemein	880	1	!	1292	1	!	-1	0	0	0	0	0	0
2024-04-30	10:14:34	10:21:10	395074	6.6.1	4_exp_EVA_AWA_CON	2	A	B	Rpleas_acq	Oppo	Rpleas	1pleas	acq_US_unple_nomask	acq3_nomask	3	2	453	1	300	300	0	0	505	46	1	0	besonnen	engagiert	genießen	gesittet	sonnig	kuss	bange	engstirnig	gemein	geizig	sterben	krise	anregung	gütig	kreativ	träumen	vertrauen	vergnügt	ausrottung	gierig	krank	töten	versagen	verbissen	1	blank2r.bmp	0	1	+	0	1	blank2r.bmp	500	1	DHJF	500	1	blank2r.bmp	880	6	krise	880	1	!	1293	1	!	1406	0	0	0	0	0	0
2024-04-30	10:14:34	10:21:12	397298	6.6.1	4_exp_EVA_AWA_CON	2	A	B	Rpleas_acq	Oppo	Rpleas	1pleas	acq_US_pleas_nomask	acq3_nomask	3	3	453	1	300	300	0	0	447	50	1	0	besonnen	engagiert	genießen	gesittet	sonnig	kuss	bange	engstirnig	gemein	geizig	sterben	krise	anregung	gütig	kreativ	träumen	vertrauen	vergnügt	ausrottung	gierig	krank	töten	versagen	verbissen	1	blank2r.bmp	0	1	+	0	1	blank2r.bmp	500	1	CPLW	500	1	blank2r.bmp	880	1	besonnen	880	1	!	1292	1	!	1348	0	0	0	0	0	0
2024-04-30	10:14:34	10:21:14	399563	6.6.1	4_exp_EVA_AWA_CON	2	A	B	Rpleas_acq	Oppo	Rpleas	1pleas	acq_US_unple_nomask	acq3_nomask	3	4	453	1	300	300	0	0	490	46	1	0	besonnen	engagiert	genießen	gesittet	sonnig	kuss	bange	engstirnig	gemein	geizig	sterben	krise	anregung	gütig	kreativ	träumen	vertrauen	vergnügt	ausrottung	gierig	krank	töten	versagen	verbissen	1	blank2r.bmp	0	1	+	0	1	blank2r.bmp	500	1	DHJF	500	1	blank2r.bmp	880	4	geizig	880	1	!	1293	1	!	1392	0	0	0	0	0	0
2024-04-30	10:14:34	10:21:17	401826	6.6.1	4_exp_EVA_AWA_CON	2	A	B	Rpleas_acq	Oppo	Rpleas	1pleas	acq_US_pleas_nomask	acq3_nomask	3	5	453	1	300	300	0	0	483	50	1	0	besonnen	engagiert	genießen	gesittet	sonnig	kuss	bange	engstirnig	gemein	geizig	sterben	krise	anregung	gütig	kreativ	träumen	vertrauen	vergnügt	ausrottung	gierig	krank	töten	versagen	verbissen	1	blank2r.bmp	0	1	+	0	1	blank2r.bmp	500	1	CPLW	500	1	blank2r.bmp	880	3	genießen	880	1	!	1293	1	!	1383	0	0	0	0	0	0
2024-04-30	10:14:34	10:21:19	404145	6.6.1	4_exp_EVA_AWA_CON	2	A	B	Rpleas_acq	Oppo	Rpleas	1pleas	acq_US_pleas_nomask	acq3_nomask	3	6	453	0	300	300	0	0	541	50	1	0	besonnen	engagiert	genießen	gesittet	sonnig	kuss	bange	engstirnig	gemein	geizig	sterben	krise	anregung	gütig	kreativ	träumen	vertrauen	vergnügt	ausrottung	gierig	krank	töten	versagen	verbissen	1	blank2r.bmp	0	1	+	0	1	blank2r.bmp	500	1	CPLW	500	1	blank2r.bmp	880	2	engagiert	880	1	!	1292	1	!	-1	0	0	0	0	0	0
2024-04-30	10:14:34	10:21:21	406394	6.6.1	4_exp_EVA_AWA_CON	2	A	B	Rpleas_acq	Oppo	Rpleas	1pleas	acq_US_unple_nomask	acq3_nomask	3	7	453	1	300	300	0	0	467	46	1	0	besonnen	engagiert	genießen	gesittet	sonnig	kuss	bange	engstirnig	gemein	geizig	sterben	krise	anregung	gütig	kreativ	träumen	vertrauen	vergnügt	ausrottung	gierig	krank	töten	versagen	verbissen	1	blank2r.bmp	0	1	+	0	1	blank2r.bmp	500	1	DHJF	500	1	blank2r.bmp	880	5	sterben	880	1	!	1292	1	!	1368	0	0	0	0	0	0
2024-04-30	10:14:34	10:21:23	408689	6.6.1	4_exp_EVA_AWA_CON	2	A	B	Rpleas_acq	Oppo	Rpleas	1pleas	acq_US_unple_nomask	acq3_nomask	3	8	453	0	300	300	0	0	523	46	1	0	besonnen	engagiert	genießen	gesittet	sonnig	kuss	bange	engstirnig	gemein	geizig	sterben	krise	anregung	gütig	kreativ	träumen	vertrauen	vergnügt	ausrottung	gierig	krank	töten	versagen	verbissen	1	blank2r.bmp	0	1	+	0	1	blank2r.bmp	500	1	DHJF	500	1	blank2r.bmp	880	1	bange	880	1	!	1293	1	!	-1	0	0	0	0	0	0
2024-04-30	10:14:34	10:21:26	410857	6.6.1	4_exp_EVA_AWA_CON	2	A	B	Rpleas_acq	Oppo	Rpleas	1pleas	acq_US_pleas_nomask	acq3_nomask	3	9	453	0	300	300	0	0	389	50	1	0	besonnen	engagiert	genießen	gesittet	sonnig	kuss	bange	engstirnig	gemein	geizig	sterben	krise	anregung	gütig	kreativ	träumen	vertrauen	vergnügt	ausrottung	gierig	krank	töten	versagen	verbissen	1	blank2r.bmp	0	1	+	0	1	blank2r.bmp	500	1	CPLW	500	1	blank2r.bmp	880	6	kuss	880	1	!	-1	1	!	-1	0	0	0	0	0	0
2024-04-30	10:14:34	10:21:28	413209	6.6.1	4_exp_EVA_AWA_CON	2	A	B	Rpleas_acq	Oppo	Rpleas	1pleas	acq_US_pleas_nomask	acq3_nomask	3	10	453	0	300	300	0	0	579	50	1	0	besonnen	engagiert	genießen	gesittet	sonnig	kuss	bange	engstirnig	gemein	geizig	sterben	krise	anregung	gütig	kreativ	träumen	vertrauen	vergnügt	ausrottung	gierig	krank	töten	versagen	verbissen	1	blank2r.bmp	0	1	+	0	1	blank2r.bmp	500	1	CPLW	500	1	blank2r.bmp	880	5	sonnig	880	1	!	1292	1	!	-1	0	0	0	0	0	0
2024-04-30	10:14:34	10:21:30	415740	6.6.1	4_exp_EVA_AWA_CON	2	A	B	Rpleas_acq	Oppo	Rpleas	1pleas	acq_US_unple_nomask	acq3_nomask	3	11	453	0	300	300	0	0	546	50	0	0	besonnen	engagiert	genießen	gesittet	sonnig	kuss	bange	engstirnig	gemein	geizig	sterben	krise	anregung	gütig	kreativ	träumen	vertrauen	vergnügt	ausrottung	gierig	krank	töten	versagen	verbissen	1	blank2r.bmp	0	1	+	0	1	blank2r.bmp	500	1	DHJF	500	1	blank2r.bmp	880	2	engstirnig	880	1	FEHLER	1739	1	!	1293	1	!	-1	0	0	0
2024-04-30	10:14:34	10:21:33	417795	6.6.1	4_exp_EVA_AWA_CON	2	A	B	Rpleas_acq	Oppo	Rpleas	1pleas	acq_US_pleas_nomask	acq3_nomask	3	12	453	1	300	300	0	0	480	50	1	0	besonnen	engagiert	genießen	gesittet	sonnig	kuss	bange	engstirnig	gemein	geizig	sterben	krise	anregung	gütig	kreativ	träumen	vertrauen	vergnügt	ausrottung	gierig	krank	töten	versagen	verbissen	1	blank2r.bmp	0	1	+	0	1	blank2r.bmp	500	1	CPLW	500	1	blank2r.bmp	880	4	gesittet	880	1	!	1293	1	!	1382	0	0	0	0	0	0
2024-04-30	10:14:34	10:21:35	420075	6.6.1	4_exp_EVA_AWA_CON	2	A	B	Rpleas_acq	Oppo	Rpleas	1pleas	acq_US_pleas_nomask	acq3_nomask	3	13	453	1	300	300	0	0	499	50	1	0	besonnen	engagiert	genießen	gesittet	sonnig	kuss	bange	engstirnig	gemein	geizig	sterben	krise	anregung	gütig	kreativ	träumen	vertrauen	vergnügt	ausrottung	gierig	krank	töten	versagen	verbissen	1	blank2r.bmp	0	1	+	0	1	blank2r.bmp	500	1	CPLW	500	1	blank2r.bmp	880	3	genießen	880	1	!	1293	1	!	1400	0	0	0	0	0	0
2024-04-30	10:14:34	10:21:37	422314	6.6.1	4_exp_EVA_AWA_CON	2	A	B	Rpleas_acq	Oppo	Rpleas	1pleas	acq_US_pleas_nomask	acq3_nomask	3	14	453	1	300	300	0	0	457	50	1	0	besonnen	engagiert	genießen	gesittet	sonnig	kuss	bange	engstirnig	gemein	geizig	sterben	krise	anregung	gütig	kreativ	träumen	vertrauen	vergnügt	ausrottung	gierig	krank	töten	versagen	verbissen	1	blank2r.bmp	0	1	+	0	1	blank2r.bmp	500	1	CPLW	500	1	blank2r.bmp	880	6	kuss	880	1	!	1292	1	!	1358	0	0	0	0	0	0
2024-04-30	10:14:34	10:21:39	424729	6.6.1	4_exp_EVA_AWA_CON	2	A	B	Rpleas_acq	Oppo	Rpleas	1pleas	acq_US_pleas_nomask	acq3_nomask	3	15	453	0	300	300	0	0	642	50	1	0	besonnen	engagiert	genießen	gesittet	sonnig	kuss	bange	engstirnig	gemein	geizig	sterben	krise	anregung	gütig	kreativ	träumen	vertrauen	vergnügt	ausrottung	gierig	krank	töten	versagen	verbissen	1	blank2r.bmp	0	1	+	0	1	blank2r.bmp	500	1	CPLW	500	1	blank2r.bmp	880	4	gesittet	880	1	!	1292	1	!	-1	0	0	0	0	0	0
2024-04-30	10:14:34	10:21:42	426986	6.6.1	4_exp_EVA_AWA_CON	2	A	B	Rpleas_acq	Oppo	Rpleas	1pleas	acq_US_unple_nomask	acq3_nomask	3	16	453	1	300	300	0	0	476	46	1	0	besonnen	engagiert	genießen	gesittet	sonnig	kuss	bange	engstirnig	gemein	geizig	sterben	krise	anregung	gütig	kreativ	träumen	vertrauen	vergnügt	ausrottung	gierig	krank	töten	versagen	verbissen	1	blank2r.bmp	0	1	+	0	1	blank2r.bmp	500	1	DHJF	500	1	blank2r.bmp	880	2	engstirnig	880	1	!	1292	1	!	1377	0	0	0	0	0	0
2024-04-30	10:14:34	10:21:44	429226	6.6.1	4_exp_EVA_AWA_CON	2	A	B	Rpleas_acq	Oppo	Rpleas	1pleas	acq_US_pleas_nomask	acq3_nomask	3	17	453	1	300	300	0	0	465	50	1	0	besonnen	engagiert	genießen	gesittet	sonnig	kuss	bange	engstirnig	gemein	geizig	sterben	krise	anregung	gütig	kreativ	träumen	vertrauen	vergnügt	ausrottung	gierig	krank	töten	versagen	verbissen	1	blank2r.bmp	0	1	+	0	1	blank2r.bmp	500	1	CPLW	500	1	blank2r.bmp	880	5	sonnig	880	1	!	1292	1	!	1366	0	0	0	0	0	0
2024-04-30	10:14:34	10:21:46	431537	6.6.1	4_exp_EVA_AWA_CON	2	A	B	Rpleas_acq	Oppo	Rpleas	1pleas	acq_US_pleas_nomask	acq3_nomask	3	18	453	0	300	300	0	0	535	50	1	0	besonnen	engagiert	genießen	gesittet	sonnig	kuss	bange	engstirnig	gemein	geizig	sterben	krise	anregung	gütig	kreativ	träumen	vertrauen	vergnügt	ausrottung	gierig	krank	töten	versagen	verbissen	1	blank2r.bmp	0	1	+	0	1	blank2r.bmp	500	1	CPLW	500	1	blank2r.bmp	880	1	besonnen	880	1	!	1292	1	!	-1	0	0	0	0	0	0
2024-04-30	10:14:34	10:21:48	433730	6.6.1	4_exp_EVA_AWA_CON	2	A	B	Rpleas_acq	Oppo	Rpleas	1pleas	acq_US_unple_nomask	acq3_nomask	3	19	453	1	300	300	0	0	416	46	1	0	besonnen	engagiert	genießen	gesittet	sonnig	kuss	bange	engstirnig	gemein	geizig	sterben	krise	anregung	gütig	kreativ	träumen	vertrauen	vergnügt	ausrottung	gierig	krank	töten	versagen	verbissen	1	blank2r.bmp	0	1	+	0	1	blank2r.bmp	500	1	DHJF	500	1	blank2r.bmp	880	1	bange	880	1	!	1293	1	!	1317	0	0	0	0	0	0
2024-04-30	10:14:34	10:21:51	436132	6.6.1	4_exp_EVA_AWA_CON	2	A	B	Rpleas_acq	Oppo	Rpleas	1pleas	acq_US_unple_nomask	acq3_nomask	3	20	453	1	300	300	0	0	424	50	0	0	besonnen	engagiert	genießen	gesittet	sonnig	kuss	bange	engstirnig	gemein	geizig	sterben	krise	anregung	gütig	kreativ	träumen	vertrauen	vergnügt	ausrottung	gierig	krank	töten	versagen	verbissen	1	blank2r.bmp	0	1	+	0	1	blank2r.bmp	500	1	DHJF	500	1	blank2r.bmp	880	6	krise	880	1	FEHLER	1617	1	!	1292	1	!	1325	0	0	0
2024-04-30	10:14:34	10:21:53	438604	6.6.1	4_exp_EVA_AWA_CON	2	A	B	Rpleas_acq	Oppo	Rpleas	1pleas	acq_US_unple_nomask	acq3_nomask	3	21	453	0	300	300	0	0	695	50	0	0	besonnen	engagiert	genießen	gesittet	sonnig	kuss	bange	engstirnig	gemein	geizig	sterben	krise	anregung	gütig	kreativ	träumen	vertrauen	vergnügt	ausrottung	gierig	krank	töten	versagen	verbissen	1	blank2r.bmp	0	1	+	0	1	blank2r.bmp	500	1	DHJF	500	1	blank2r.bmp	880	4	geizig	880	1	FEHLER	1888	1	!	1293	1	!	-1	0	0	0
2024-04-30	10:14:34	10:21:56	440841	6.6.1	4_exp_EVA_AWA_CON	2	A	B	Rpleas_acq	Oppo	Rpleas	1pleas	acq_US_unple_nomask	acq3_nomask	3	22	453	0	300	300	0	0	663	46	1	0	besonnen	engagiert	genießen	gesittet	sonnig	kuss	bange	engstirnig	gemein	geizig	sterben	krise	anregung	gütig	kreativ	träumen	vertrauen	vergnügt	ausrottung	gierig	krank	töten	versagen	verbissen	1	blank2r.bmp	0	1	+	0	1	blank2r.bmp	500	1	DHJF	500	1	blank2r.bmp	880	5	sterben	880	1	!	1293	1	!	-1	0	0	0	0	0	0
2024-04-30	10:14:34	10:21:58	443412	6.6.1	4_exp_EVA_AWA_CON	2	A	B	Rpleas_acq	Oppo	Rpleas	1pleas	acq_US_pleas_nomask	acq3_nomask	3	23	453	0	300	300	0	0	590	46	0	0	besonnen	engagiert	genießen	gesittet	sonnig	kuss	bange	engstirnig	gemein	geizig	sterben	krise	anregung	gütig	kreativ	träumen	vertrauen	vergnügt	ausrottung	gierig	krank	töten	versagen	verbissen	1	blank2r.bmp	0	1	+	0	1	blank2r.bmp	500	1	CPLW	500	1	blank2r.bmp	880	2	engagiert	880	1	FEHLER	1783	1	!	1293	1	!	-1	0	0	0
2024-04-30	10:14:34	10:22:00	445625	6.6.1	4_exp_EVA_AWA_CON	2	A	B	Rpleas_acq	Oppo	Rpleas	1pleas	acq_US_unple_nomask	acq3_nomask	3	24	453	0	300	300	0	0	644	46	1	0	besonnen	engagiert	genießen	gesittet	sonnig	kuss	bange	engstirnig	gemein	geizig	sterben	krise	anregung	gütig	kreativ	träumen	vertrauen	vergnügt	ausrottung	gierig	krank	töten	versagen	verbissen	1	blank2r.bmp	0	1	+	0	1	blank2r.bmp	500	1	DHJF	500	1	blank2r.bmp	880	3	gemein	880	1	!	1293	1	!	-1	0	0	0	0	0	0
2024-04-30	10:14:34	10:22:03	447953	6.6.1	4_exp_EVA_AWA_CON	2	A	B	Rpleas_acq	Oppo	Rpleas	1pleas	acq_US_unple_nomask	acq3_nomask	3	25	453	0	300	300	0	0	550	46	1	0	besonnen	engagiert	genießen	gesittet	sonnig	kuss	bange	engstirnig	gemein	geizig	sterben	krise	anregung	gütig	kreativ	träumen	vertrauen	vergnügt	ausrottung	gierig	krank	töten	versagen	verbissen	1	blank2r.bmp	0	1	+	0	1	blank2r.bmp	500	1	DHJF	500	1	blank2r.bmp	880	5	sterben	880	1	!	1292	1	!	-1	0	0	0	0	0	0
2024-04-30	10:14:34	10:22:05	450202	6.6.1	4_exp_EVA_AWA_CON	2	A	B	Rpleas_acq	Oppo	Rpleas	1pleas	acq_US_unple_nomask	acq3_nomask	3	26	453	1	300	300	0	0	467	46	1	0	besonnen	engagiert	genießen	gesittet	sonnig	kuss	bange	engstirnig	gemein	geizig	sterben	krise	anregung	gütig	kreativ	träumen	vertrauen	vergnügt	ausrottung	gierig	krank	töten	versagen	verbissen	1	blank2r.bmp	0	1	+	0	1	blank2r.bmp	500	1	DHJF	500	1	blank2r.bmp	880	3	gemein	880	1	!	1293	1	!	1368	0	0	0	0	0	0
2024-04-30	10:14:34	10:22:07	452450	6.6.1	4_exp_EVA_AWA_CON	2	A	B	Rpleas_acq	Oppo	Rpleas	1pleas	acq_US_pleas_nomask	acq3_nomask	3	27	453	1	300	300	0	0	473	50	1	0	besonnen	engagiert	genießen	gesittet	sonnig	kuss	bange	engstirnig	gemein	geizig	sterben	krise	anregung	gütig	kreativ	träumen	vertrauen	vergnügt	ausrottung	gierig	krank	töten	versagen	verbissen	1	blank2r.bmp	0	1	+	0	1	blank2r.bmp	500	1	CPLW	500	1	blank2r.bmp	880	3	genießen	880	1	!	1292	1	!	1374	0	0	0	0	0	0
2024-04-30	10:14:34	10:22:10	454785	6.6.1	4_exp_EVA_AWA_CON	2	A	B	Rpleas_acq	Oppo	Rpleas	1pleas	acq_US_pleas_nomask	acq3_nomask	3	28	453	0	300	300	0	0	558	50	1	0	besonnen	engagiert	genießen	gesittet	sonnig	kuss	bange	engstirnig	gemein	geizig	sterben	krise	anregung	gütig	kreativ	träumen	vertrauen	vergnügt	ausrottung	gierig	krank	töten	versagen	verbissen	1	blank2r.bmp	0	1	+	0	1	blank2r.bmp	500	1	CPLW	500	1	blank2r.bmp	880	4	gesittet	880	1	!	1292	1	!	-1	0	0	0	0	0	0
2024-04-30	10:14:34	10:22:12	457066	6.6.1	4_exp_EVA_AWA_CON	2	A	B	Rpleas_acq	Oppo	Rpleas	1pleas	acq_US_pleas_nomask	acq3_nomask	3	29	453	1	300	300	0	0	506	50	1	0	besonnen	engagiert	genießen	gesittet	sonnig	kuss	bange	engstirnig	gemein	geizig	sterben	krise	anregung	gütig	kreativ	träumen	vertrauen	vergnügt	ausrottung	gierig	krank	töten	versagen	verbissen	1	blank2r.bmp	0	1	+	0	1	blank2r.bmp	500	1	CPLW	500	1	blank2r.bmp	880	1	besonnen	880	1	!	1293	1	!	1408	0	0	0	0	0	0
2024-04-30	10:14:34	10:22:14	459251	6.6.1	4_exp_EVA_AWA_CON	2	A	B	Rpleas_acq	Oppo	Rpleas	1pleas	acq_US_unple_nomask	acq3_nomask	3	30	453	1	300	300	0	0	409	46	1	0	besonnen	engagiert	genießen	gesittet	sonnig	kuss	bange	engstirnig	gemein	geizig	sterben	krise	anregung	gütig	kreativ	träumen	vertrauen	vergnügt	ausrottung	gierig	krank	töten	versagen	verbissen	1	blank2r.bmp	0	1	+	0	1	blank2r.bmp	500	1	DHJF	500	1	blank2r.bmp	880	6	krise	880	1	!	1293	1	!	1310	0	0	0	0	0	0
2024-04-30	10:14:34	10:22:16	461609	6.6.1	4_exp_EVA_AWA_CON	2	A	B	Rpleas_acq	Oppo	Rpleas	1pleas	acq_US_unple_nomask	acq3_nomask	3	31	453	0	300	300	0	0	578	46	1	0	besonnen	engagiert	genießen	gesittet	sonnig	kuss	bange	engstirnig	gemein	geizig	sterben	krise	anregung	gütig	kreativ	träumen	vertrauen	vergnügt	ausrottung	gierig	krank	töten	versagen	verbissen	1	blank2r.bmp	0	1	+	0	1	blank2r.bmp	500	1	DHJF	500	1	blank2r.bmp	880	2	engstirnig	880	1	!	1293	1	!	-1	0	0	0	0	0	0
2024-04-30	10:14:34	10:22:19	463842	6.6.1	4_exp_EVA_AWA_CON	2	A	B	Rpleas_acq	Oppo	Rpleas	1pleas	acq_US_unple_nomask	acq3_nomask	3	32	453	1	300	300	0	0	458	46	1	0	besonnen	engagiert	genießen	gesittet	sonnig	kuss	bange	engstirnig	gemein	geizig	sterben	krise	anregung	gütig	kreativ	träumen	vertrauen	vergnügt	ausrottung	gierig	krank	töten	versagen	verbissen	1	blank2r.bmp	0	1	+	0	1	blank2r.bmp	500	1	DHJF	500	1	blank2r.bmp	880	4	geizig	880	1	!	1292	1	!	1359	0	0	0	0	0	0
2024-04-30	10:14:34	10:22:21	466233	6.6.1	4_exp_EVA_AWA_CON	2	A	B	Rpleas_acq	Oppo	Rpleas	1pleas	acq_US_pleas_nomask	acq3_nomask	3	33	453	0	300	300	0	0	619	50	1	0	besonnen	engagiert	genießen	gesittet	sonnig	kuss	bange	engstirnig	gemein	geizig	sterben	krise	anregung	gütig	kreativ	träumen	vertrauen	vergnügt	ausrottung	gierig	krank	töten	versagen	verbissen	1	blank2r.bmp	0	1	+	0	1	blank2r.bmp	500	1	CPLW	500	1	blank2r.bmp	880	2	engagiert	880	1	!	1293	1	!	-1	0	0	0	0	0	0
2024-04-30	10:14:34	10:22:23	468482	6.6.1	4_exp_EVA_AWA_CON	2	A	B	Rpleas_acq	Oppo	Rpleas	1pleas	acq_US_pleas_nomask	acq3_nomask	3	34	453	1	300	300	0	0	475	50	1	0	besonnen	engagiert	genießen	gesittet	sonnig	kuss	bange	engstirnig	gemein	geizig	sterben	krise	anregung	gütig	kreativ	träumen	vertrauen	vergnügt	ausrottung	gierig	krank	töten	versagen	verbissen	1	blank2r.bmp	0	1	+	0	1	blank2r.bmp	500	1	CPLW	500	1	blank2r.bmp	880	6	kuss	880	1	!	1292	1	!	1376	0	0	0	0	0	0
2024-04-30	10:14:34	10:22:25	470739	6.6.1	4_exp_EVA_AWA_CON	2	A	B	Rpleas_acq	Oppo	Rpleas	1pleas	acq_US_unple_nomask	acq3_nomask	3	35	453	1	300	300	0	0	480	46	1	0	besonnen	engagiert	genießen	gesittet	sonnig	kuss	bange	engstirnig	gemein	geizig	sterben	krise	anregung	gütig	kreativ	träumen	vertrauen	vergnügt	ausrottung	gierig	krank	töten	versagen	verbissen	1	blank2r.bmp	0	1	+	0	1	blank2r.bmp	500	1	DHJF	500	1	blank2r.bmp	880	1	bange	880	1	!	1293	1	!	1381	0	0	0	0	0	0
2024-04-30	10:14:34	10:22:28	472986	6.6.1	4_exp_EVA_AWA_CON	2	A	B	Rpleas_acq	Oppo	Rpleas	1pleas	acq_US_pleas_nomask	acq3_nomask	3	36	453	1	300	300	0	0	466	50	1	0	besonnen	engagiert	genießen	gesittet	sonnig	kuss	bange	engstirnig	gemein	geizig	sterben	krise	anregung	gütig	kreativ	träumen	vertrauen	vergnügt	ausrottung	gierig	krank	töten	versagen	verbissen	1	blank2r.bmp	0	1	+	0	1	blank2r.bmp	500	1	CPLW	500	1	blank2r.bmp	880	5	sonnig	880	1	!	1293	1	!	1367	0	0	0	0	0	0
2024-04-30	10:14:34	10:22:47	491769	6.6.1	4_exp_EVA_AWA_CON	2	A	B	Rpleas_acq	Oppo	Rpleas	1pleas	acq_US_pleas_nomask	acq45_nomask	4	1	400	0	300	300	0	0	668	50	1	0	besonnen	engagiert	genießen	gesittet	sonnig	kuss	bange	engstirnig	gemein	geizig	sterben	krise	anregung	gütig	kreativ	träumen	vertrauen	vergnügt	ausrottung	gierig	krank	töten	versagen	verbissen	1	blank2r.bmp	0	1	+	0	1	blank2r.bmp	500	1	CPLW	500	1	blank2r.bmp	880	4	gesittet	880	1	!	1232	1	!	-1	0	0	0	0	0	0
2024-04-30	10:14:34	10:22:49	493978	6.6.1	4_exp_EVA_AWA_CON	2	A	B	Rpleas_acq	Oppo	Rpleas	1pleas	acq_US_unple_nomask	acq45_nomask	4	2	400	1	300	300	0	0	434	46	1	0	besonnen	engagiert	genießen	gesittet	sonnig	kuss	bange	engstirnig	gemein	geizig	sterben	krise	anregung	gütig	kreativ	träumen	vertrauen	vergnügt	ausrottung	gierig	krank	töten	versagen	verbissen	1	blank2r.bmp	0	1	+	0	1	blank2r.bmp	500	1	DHJF	500	1	blank2r.bmp	880	5	sterben	880	1	!	1232	1	!	1335	0	0	0	0	0	0
2024-04-30	10:14:34	10:22:51	496241	6.6.1	4_exp_EVA_AWA_CON	2	A	B	Rpleas_acq	Oppo	Rpleas	1pleas	acq_US_pleas_nomask	acq45_nomask	4	3	400	0	300	300	0	0	487	50	1	0	besonnen	engagiert	genießen	gesittet	sonnig	kuss	bange	engstirnig	gemein	geizig	sterben	krise	anregung	gütig	kreativ	träumen	vertrauen	vergnügt	ausrottung	gierig	krank	töten	versagen	verbissen	1	blank2r.bmp	0	1	+	0	1	blank2r.bmp	500	1	CPLW	500	1	blank2r.bmp	880	6	kuss	880	1	!	1233	1	!	-1	0	0	0	0	0	0
2024-04-30	10:14:34	10:22:53	498434	6.6.1	4_exp_EVA_AWA_CON	2	A	B	Rpleas_acq	Oppo	Rpleas	1pleas	acq_US_pleas_nomask	acq45_nomask	4	4	400	1	300	300	0	0	417	46	0	0	besonnen	engagiert	genießen	gesittet	sonnig	kuss	bange	engstirnig	gemein	geizig	sterben	krise	anregung	gütig	kreativ	träumen	vertrauen	vergnügt	ausrottung	gierig	krank	töten	versagen	verbissen	1	blank2r.bmp	0	1	+	0	1	blank2r.bmp	500	1	CPLW	500	1	blank2r.bmp	880	3	genießen	880	1	!	1232	1	!	1318	0	0	0	0	0	0
2024-04-30	10:14:34	10:22:56	500809	6.6.1	4_exp_EVA_AWA_CON	2	A	B	Rpleas_acq	Oppo	Rpleas	1pleas	acq_US_pleas_nomask	acq45_nomask	4	5	400	0	300	300	0	0	602	50	1	0	besonnen	engagiert	genießen	gesittet	sonnig	kuss	bange	engstirnig	gemein	geizig	sterben	krise	anregung	gütig	kreativ	träumen	vertrauen	vergnügt	ausrottung	gierig	krank	töten	versagen	verbissen	1	blank2r.bmp	0	1	+	0	1	blank2r.bmp	500	1	CPLW	500	1	blank2r.bmp	880	2	engagiert	880	1	!	1232	1	!	-1	0	0	0	0	0	0
2024-04-30	10:14:34	10:22:58	503097	6.6.1	4_exp_EVA_AWA_CON	2	A	B	Rpleas_acq	Oppo	Rpleas	1pleas	acq_US_unple_nomask	acq45_nomask	4	6	400	0	300	300	0	0	508	46	1	0	besonnen	engagiert	genießen	gesittet	sonnig	kuss	bange	engstirnig	gemein	geizig	sterben	krise	anregung	gütig	kreativ	träumen	vertrauen	vergnügt	ausrottung	gierig	krank	töten	versagen	verbissen	1	blank2r.bmp	0	1	+	0	1	blank2r.bmp	500	1	DHJF	500	1	blank2r.bmp	880	4	geizig	880	1	!	1232	1	!	-1	0	0	0	0	0	0
2024-04-30	10:14:34	10:23:00	505409	6.6.1	4_exp_EVA_AWA_CON	2	A	B	Rpleas_acq	Oppo	Rpleas	1pleas	acq_US_pleas_nomask	acq45_nomask	4	7	400	0	300	300	0	0	539	50	1	0	besonnen	engagiert	genießen	gesittet	sonnig	kuss	bange	engstirnig	gemein	geizig	sterben	krise	anregung	gütig	kreativ	träumen	vertrauen	vergnügt	ausrottung	gierig	krank	töten	versagen	verbissen	1	blank2r.bmp	0	1	+	0	1	blank2r.bmp	500	1	CPLW	500	1	blank2r.bmp	880	1	besonnen	880	1	!	1233	1	!	-1	0	0	0	0	0	0
2024-04-30	10:14:34	10:23:02	507721	6.6.1	4_exp_EVA_AWA_CON	2	A	B	Rpleas_acq	Oppo	Rpleas	1pleas	acq_US_unple_nomask	acq45_nomask	4	8	400	0	300	300	0	0	539	46	1	0	besonnen	engagiert	genießen	gesittet	sonnig	kuss	bange	engstirnig	gemein	geizig	sterben	krise	anregung	gütig	kreativ	träumen	vertrauen	vergnügt	ausrottung	gierig	krank	töten	versagen	verbissen	1	blank2r.bmp	0	1	+	0	1	blank2r.bmp	500	1	DHJF	500	1	blank2r.bmp	880	3	gemein	880	1	!	1232	1	!	-1	0	0	0	0	0	0
2024-04-30	10:14:34	10:23:05	510089	6.6.1	4_exp_EVA_AWA_CON	2	A	B	Rpleas_acq	Oppo	Rpleas	1pleas	acq_US_unple_nomask	acq45_nomask	4	9	400	0	300	300	0	0	596	46	1	0	besonnen	engagiert	genießen	gesittet	sonnig	kuss	bange	engstirnig	gemein	geizig	sterben	krise	anregung	gütig	kreativ	träumen	vertrauen	vergnügt	ausrottung	gierig	krank	töten	versagen	verbissen	1	blank2r.bmp	0	1	+	0	1	blank2r.bmp	500	1	DHJF	500	1	blank2r.bmp	880	6	krise	880	1	!	1232	1	!	-1	0	0	0	0	0	0
2024-04-30	10:14:34	10:23:07	512343	6.6.1	4_exp_EVA_AWA_CON	2	A	B	Rpleas_acq	Oppo	Rpleas	1pleas	acq_US_pleas_nomask	acq45_nomask	4	10	400	0	300	300	0	0	480	50	1	0	besonnen	engagiert	genießen	gesittet	sonnig	kuss	bange	engstirnig	gemein	geizig	sterben	krise	anregung	gütig	kreativ	träumen	vertrauen	vergnügt	ausrottung	gierig	krank	töten	versagen	verbissen	1	blank2r.bmp	0	1	+	0	1	blank2r.bmp	500	1	CPLW	500	1	blank2r.bmp	880	5	sonnig	880	1	!	1232	1	!	-1	0	0	0	0	0	0
2024-04-30	10:14:34	10:23:09	514601	6.6.1	4_exp_EVA_AWA_CON	2	A	B	Rpleas_acq	Oppo	Rpleas	1pleas	acq_US_pleas_nomask	acq45_nomask	4	11	400	0	300	300	0	0	485	50	1	0	besonnen	engagiert	genießen	gesittet	sonnig	kuss	bange	engstirnig	gemein	geizig	sterben	krise	anregung	gütig	kreativ	träumen	vertrauen	vergnügt	ausrottung	gierig	krank	töten	versagen	verbissen	1	blank2r.bmp	0	1	+	0	1	blank2r.bmp	500	1	CPLW	500	1	blank2r.bmp	880	1	besonnen	880	1	!	1232	1	!	-1	0	0	0	0	0	0
2024-04-30	10:14:34	10:23:12	516865	6.6.1	4_exp_EVA_AWA_CON	2	A	B	Rpleas_acq	Oppo	Rpleas	1pleas	acq_US_unple_nomask	acq45_nomask	4	12	400	0	300	300	0	0	487	46	1	0	besonnen	engagiert	genießen	gesittet	sonnig	kuss	bange	engstirnig	gemein	geizig	sterben	krise	anregung	gütig	kreativ	träumen	vertrauen	vergnügt	ausrottung	gierig	krank	töten	versagen	verbissen	1	blank2r.bmp	0	1	+	0	1	blank2r.bmp	500	1	DHJF	500	1	blank2r.bmp	880	1	bange	880	1	!	1233	1	!	-1	0	0	0	0	0	0
2024-04-30	10:14:34	10:23:14	519119	6.6.1	4_exp_EVA_AWA_CON	2	A	B	Rpleas_acq	Oppo	Rpleas	1pleas	acq_US_pleas_nomask	acq45_nomask	4	13	400	0	300	300	0	0	482	46	0	0	besonnen	engagiert	genießen	gesittet	sonnig	kuss	bange	engstirnig	gemein	geizig	sterben	krise	anregung	gütig	kreativ	träumen	vertrauen	vergnügt	ausrottung	gierig	krank	töten	versagen	verbissen	1	blank2r.bmp	0	1	+	0	1	blank2r.bmp	500	1	CPLW	500	1	blank2r.bmp	880	3	genießen	880	1	!	1232	1	!	-1	0	0	0	0	0	0
2024-04-30	10:14:34	10:23:16	521569	6.6.1	4_exp_EVA_AWA_CON	2	A	B	Rpleas_acq	Oppo	Rpleas	1pleas	acq_US_unple_nomask	acq45_nomask	4	14	400	0	300	300	0	0	668	46	1	0	besonnen	engagiert	genießen	gesittet	sonnig	kuss	bange	engstirnig	gemein	geizig	sterben	krise	anregung	gütig	kreativ	träumen	vertrauen	vergnügt	ausrottung	gierig	krank	töten	versagen	verbissen	1	blank2r.bmp	0	1	+	0	1	blank2r.bmp	500	1	DHJF	500	1	blank2r.bmp	880	2	engstirnig	880	1	!	1232	1	!	-1	0	0	0	0	0	0
2024-04-30	10:14:34	10:23:19	523969	6.6.1	4_exp_EVA_AWA_CON	2	A	B	Rpleas_acq	Oppo	Rpleas	1pleas	acq_US_unple_nomask	acq45_nomask	4	15	400	0	300	300	0	0	627	46	1	0	besonnen	engagiert	genießen	gesittet	sonnig	kuss	bange	engstirnig	gemein	geizig	sterben	krise	anregung	gütig	kreativ	träumen	vertrauen	vergnügt	ausrottung	gierig	krank	töten	versagen	verbissen	1	blank2r.bmp	0	1	+	0	1	blank2r.bmp	500	1	DHJF	500	1	blank2r.bmp	880	2	engstirnig	880	1	!	1232	1	!	-1	0	0	0	0	0	0
2024-04-30	10:14:34	10:23:21	526202	6.6.1	4_exp_EVA_AWA_CON	2	A	B	Rpleas_acq	Oppo	Rpleas	1pleas	acq_US_unple_nomask	acq45_nomask	4	16	400	1	300	300	0	0	457	46	1	0	besonnen	engagiert	genießen	gesittet	sonnig	kuss	bange	engstirnig	gemein	geizig	sterben	krise	anregung	gütig	kreativ	träumen	vertrauen	vergnügt	ausrottung	gierig	krank	töten	versagen	verbissen	1	blank2r.bmp	0	1	+	0	1	blank2r.bmp	500	1	DHJF	500	1	blank2r.bmp	880	4	geizig	880	1	!	1232	1	!	1358	0	0	0	0	0	0
2024-04-30	10:14:34	10:23:23	528387	6.6.1	4_exp_EVA_AWA_CON	2	A	B	Rpleas_acq	Oppo	Rpleas	1pleas	acq_US_unple_nomask	acq45_nomask	4	17	400	1	300	300	0	0	410	46	1	0	besonnen	engagiert	genießen	gesittet	sonnig	kuss	bange	engstirnig	gemein	geizig	sterben	krise	anregung	gütig	kreativ	träumen	vertrauen	vergnügt	ausrottung	gierig	krank	töten	versagen	verbissen	1	blank2r.bmp	0	1	+	0	1	blank2r.bmp	500	1	DHJF	500	1	blank2r.bmp	880	6	krise	880	1	!	1233	1	!	1312	0	0	0	0	0	0
2024-04-30	10:14:34	10:23:25	530627	6.6.1	4_exp_EVA_AWA_CON	2	A	B	Rpleas_acq	Oppo	Rpleas	1pleas	acq_US_pleas_nomask	acq45_nomask	4	18	400	1	300	300	0	0	458	50	1	0	besonnen	engagiert	genießen	gesittet	sonnig	kuss	bange	engstirnig	gemein	geizig	sterben	krise	anregung	gütig	kreativ	träumen	vertrauen	vergnügt	ausrottung	gierig	krank	töten	versagen	verbissen	1	blank2r.bmp	0	1	+	0	1	blank2r.bmp	500	1	CPLW	500	1	blank2r.bmp	880	6	kuss	880	1	!	1232	1	!	1359	0	0	0	0	0	0
2024-04-30	10:14:34	10:23:28	532929	6.6.1	4_exp_EVA_AWA_CON	2	A	B	Rpleas_acq	Oppo	Rpleas	1pleas	acq_US_pleas_nomask	acq45_nomask	4	19	400	0	300	300	0	0	521	50	1	0	besonnen	engagiert	genießen	gesittet	sonnig	kuss	bange	engstirnig	gemein	geizig	sterben	krise	anregung	gütig	kreativ	träumen	vertrauen	vergnügt	ausrottung	gierig	krank	töten	versagen	verbissen	1	blank2r.bmp	0	1	+	0	1	blank2r.bmp	500	1	CPLW	500	1	blank2r.bmp	880	4	gesittet	880	1	!	1232	1	!	-1	0	0	0	0	0	0
2024-04-30	10:14:34	10:23:30	535114	6.6.1	4_exp_EVA_AWA_CON	2	A	B	Rpleas_acq	Oppo	Rpleas	1pleas	acq_US_pleas_nomask	acq45_nomask	4	20	400	1	300	300	0	0	403	50	1	0	besonnen	engagiert	genießen	gesittet	sonnig	kuss	bange	engstirnig	gemein	geizig	sterben	krise	anregung	gütig	kreativ	träumen	vertrauen	vergnügt	ausrottung	gierig	krank	töten	versagen	verbissen	1	blank2r.bmp	0	1	+	0	1	blank2r.bmp	500	1	CPLW	500	1	blank2r.bmp	880	5	sonnig	880	1	!	1233	1	!	1304	0	0	0	0	0	0
2024-04-30	10:14:34	10:23:32	537323	6.6.1	4_exp_EVA_AWA_CON	2	A	B	Rpleas_acq	Oppo	Rpleas	1pleas	acq_US_pleas_nomask	acq45_nomask	4	21	400	1	300	300	0	0	430	46	0	0	besonnen	engagiert	genießen	gesittet	sonnig	kuss	bange	engstirnig	gemein	geizig	sterben	krise	anregung	gütig	kreativ	träumen	vertrauen	vergnügt	ausrottung	gierig	krank	töten	versagen	verbissen	1	blank2r.bmp	0	1	+	0	1	blank2r.bmp	500	1	CPLW	500	1	blank2r.bmp	880	2	engagiert	880	1	!	1232	1	!	1332	0	0	0	0	0	0
2024-04-30	10:14:34	10:23:34	539583	6.6.1	4_exp_EVA_AWA_CON	2	A	B	Rpleas_acq	Oppo	Rpleas	1pleas	acq_US_unple_nomask	acq45_nomask	4	22	400	0	300	300	0	0	483	46	1	0	besonnen	engagiert	genießen	gesittet	sonnig	kuss	bange	engstirnig	gemein	geizig	sterben	krise	anregung	gütig	kreativ	träumen	vertrauen	vergnügt	ausrottung	gierig	krank	töten	versagen	verbissen	1	blank2r.bmp	0	1	+	0	1	blank2r.bmp	500	1	DHJF	500	1	blank2r.bmp	880	3	gemein	880	1	!	1232	1	!	-1	0	0	0	0	0	0
2024-04-30	10:14:34	10:23:37	541802	6.6.1	4_exp_EVA_AWA_CON	2	A	B	Rpleas_acq	Oppo	Rpleas	1pleas	acq_US_pleas_nomask	acq45_nomask	4	23	400	1	300	300	0	0	437	50	1	0	besonnen	engagiert	genießen	gesittet	sonnig	kuss	bange	engstirnig	gemein	geizig	sterben	krise	anregung	gütig	kreativ	träumen	vertrauen	vergnügt	ausrottung	gierig	krank	töten	versagen	verbissen	1	blank2r.bmp	0	1	+	0	1	blank2r.bmp	500	1	CPLW	500	1	blank2r.bmp	880	6	kuss	880	1	!	1232	1	!	1338	0	0	0	0	0	0
2024-04-30	10:14:34	10:23:39	544081	6.6.1	4_exp_EVA_AWA_CON	2	A	B	Rpleas_acq	Oppo	Rpleas	1pleas	acq_US_unple_nomask	acq45_nomask	4	24	400	0	300	300	0	0	506	46	1	0	besonnen	engagiert	genießen	gesittet	sonnig	kuss	bange	engstirnig	gemein	geizig	sterben	krise	anregung	gütig	kreativ	träumen	vertrauen	vergnügt	ausrottung	gierig	krank	töten	versagen	verbissen	1	blank2r.bmp	0	1	+	0	1	blank2r.bmp	500	1	DHJF	500	1	blank2r.bmp	880	5	sterben	880	1	!	1232	1	!	-1	0	0	0	0	0	0
2024-04-30	10:14:34	10:23:41	546314	6.6.1	4_exp_EVA_AWA_CON	2	A	B	Rpleas_acq	Oppo	Rpleas	1pleas	acq_US_pleas_nomask	acq45_nomask	4	25	400	1	300	300	0	0	456	46	0	0	besonnen	engagiert	genießen	gesittet	sonnig	kuss	bange	engstirnig	gemein	geizig	sterben	krise	anregung	gütig	kreativ	träumen	vertrauen	vergnügt	ausrottung	gierig	krank	töten	versagen	verbissen	1	blank2r.bmp	0	1	+	0	1	blank2r.bmp	500	1	CPLW	500	1	blank2r.bmp	880	4	gesittet	880	1	!	1233	1	!	1357	0	0	0	0	0	0
2024-04-30	10:14:34	10:23:43	548539	6.6.1	4_exp_EVA_AWA_CON	2	A	B	Rpleas_acq	Oppo	Rpleas	1pleas	acq_US_pleas_nomask	acq45_nomask	4	26	400	1	300	300	0	0	449	46	0	0	besonnen	engagiert	genießen	gesittet	sonnig	kuss	bange	engstirnig	gemein	geizig	sterben	krise	anregung	gütig	kreativ	träumen	vertrauen	vergnügt	ausrottung	gierig	krank	töten	versagen	verbissen	1	blank2r.bmp	0	1	+	0	1	blank2r.bmp	500	1	CPLW	500	1	blank2r.bmp	880	2	engagiert	880	1	!	1232	1	!	1350	0	0	0	0	0	0
2024-04-30	10:14:34	10:23:46	550825	6.6.1	4_exp_EVA_AWA_CON	2	A	B	Rpleas_acq	Oppo	Rpleas	1pleas	acq_US_unple_nomask	acq45_nomask	4	27	400	0	300	300	0	0	505	46	1	0	besonnen	engagiert	genießen	gesittet	sonnig	kuss	bange	engstirnig	gemein	geizig	sterben	krise	anregung	gütig	kreativ	träumen	vertrauen	vergnügt	ausrottung	gierig	krank	töten	versagen	verbissen	1	blank2r.bmp	0	1	+	0	1	blank2r.bmp	500	1	DHJF	500	1	blank2r.bmp	880	1	bange	880	1	!	1232	1	!	-1	0	0	0	0	0	0
2024-04-30	10:14:34	10:23:48	553034	6.6.1	4_exp_EVA_AWA_CON	2	A	B	Rpleas_acq	Oppo	Rpleas	1pleas	acq_US_unple_nomask	acq45_nomask	4	28	400	1	300	300	0	0	432	46	1	0	besonnen	engagiert	genießen	gesittet	sonnig	kuss	bange	engstirnig	gemein	geizig	sterben	krise	anregung	gütig	kreativ	träumen	vertrauen	vergnügt	ausrottung	gierig	krank	töten	versagen	verbissen	1	blank2r.bmp	0	1	+	0	1	blank2r.bmp	500	1	DHJF	500	1	blank2r.bmp	880	5	sterben	880	1	!	1232	1	!	1333	0	0	0	0	0	0
2024-04-30	10:14:34	10:23:50	555283	6.6.1	4_exp_EVA_AWA_CON	2	A	B	Rpleas_acq	Oppo	Rpleas	1pleas	acq_US_pleas_nomask	acq45_nomask	4	29	400	1	300	300	0	0	468	50	1	0	besonnen	engagiert	genießen	gesittet	sonnig	kuss	bange	engstirnig	gemein	geizig	sterben	krise	anregung	gütig	kreativ	träumen	vertrauen	vergnügt	ausrottung	gierig	krank	töten	versagen	verbissen	1	blank2r.bmp	0	1	+	0	1	blank2r.bmp	500	1	CPLW	500	1	blank2r.bmp	880	3	genießen	880	1	!	1232	1	!	1369	0	0	0	0	0	0
2024-04-30	10:14:34	10:23:52	557585	6.6.1	4_exp_EVA_AWA_CON	2	A	B	Rpleas_acq	Oppo	Rpleas	1pleas	acq_US_unple_nomask	acq45_nomask	4	30	400	0	300	300	0	0	521	46	1	0	besonnen	engagiert	genießen	gesittet	sonnig	kuss	bange	engstirnig	gemein	geizig	sterben	krise	anregung	gütig	kreativ	träumen	vertrauen	vergnügt	ausrottung	gierig	krank	töten	versagen	verbissen	1	blank2r.bmp	0	1	+	0	1	blank2r.bmp	500	1	DHJF	500	1	blank2r.bmp	880	6	krise	880	1	!	1232	1	!	-1	0	0	0	0	0	0
2024-04-30	10:14:34	10:23:54	559722	6.6.1	4_exp_EVA_AWA_CON	2	A	B	Rpleas_acq	Oppo	Rpleas	1pleas	acq_US_unple_nomask	acq45_nomask	4	31	400	1	300	300	0	0	355	46	1	0	besonnen	engagiert	genießen	gesittet	sonnig	kuss	bange	engstirnig	gemein	geizig	sterben	krise	anregung	gütig	kreativ	träumen	vertrauen	vergnügt	ausrottung	gierig	krank	töten	versagen	verbissen	1	blank2r.bmp	0	1	+	0	1	blank2r.bmp	500	1	DHJF	500	1	blank2r.bmp	880	1	bange	880	1	!	1232	1	!	1256	0	0	0	0	0	0
2024-04-30	10:14:34	10:23:57	562001	6.6.1	4_exp_EVA_AWA_CON	2	A	B	Rpleas_acq	Oppo	Rpleas	1pleas	acq_US_unple_nomask	acq45_nomask	4	32	400	0	300	300	0	0	504	50	0	0	besonnen	engagiert	genießen	gesittet	sonnig	kuss	bange	engstirnig	gemein	geizig	sterben	krise	anregung	gütig	kreativ	träumen	vertrauen	vergnügt	ausrottung	gierig	krank	töten	versagen	verbissen	1	blank2r.bmp	0	1	+	0	1	blank2r.bmp	500	1	DHJF	500	1	blank2r.bmp	880	3	gemein	880	1	!	1232	1	!	-1	0	0	0	0	0	0
2024-04-30	10:14:34	10:23:59	564255	6.6.1	4_exp_EVA_AWA_CON	2	A	B	Rpleas_acq	Oppo	Rpleas	1pleas	acq_US_pleas_nomask	acq45_nomask	4	33	400	0	300	300	0	0	478	50	1	0	besonnen	engagiert	genießen	gesittet	sonnig	kuss	bange	engstirnig	gemein	geizig	sterben	krise	anregung	gütig	kreativ	träumen	vertrauen	vergnügt	ausrottung	gierig	krank	töten	versagen	verbissen	1	blank2r.bmp	0	1	+	0	1	blank2r.bmp	500	1	CPLW	500	1	blank2r.bmp	880	1	besonnen	880	1	!	1233	1	!	-1	0	0	0	0	0	0
2024-04-30	10:14:34	10:24:01	566713	6.6.1	4_exp_EVA_AWA_CON	2	A	B	Rpleas_acq	Oppo	Rpleas	1pleas	acq_US_unple_nomask	acq45_nomask	4	34	400	0	300	300	0	0	683	46	1	0	besonnen	engagiert	genießen	gesittet	sonnig	kuss	bange	engstirnig	gemein	geizig	sterben	krise	anregung	gütig	kreativ	träumen	vertrauen	vergnügt	ausrottung	gierig	krank	töten	versagen	verbissen	1	blank2r.bmp	0	1	+	0	1	blank2r.bmp	500	1	DHJF	500	1	blank2r.bmp	880	2	engstirnig	880	1	!	1232	1	!	-1	0	0	0	0	0	0
2024-04-30	10:14:34	10:24:04	568938	6.6.1	4_exp_EVA_AWA_CON	2	A	B	Rpleas_acq	Oppo	Rpleas	1pleas	acq_US_pleas_nomask	acq45_nomask	4	35	400	1	300	300	0	0	445	50	1	0	besonnen	engagiert	genießen	gesittet	sonnig	kuss	bange	engstirnig	gemein	geizig	sterben	krise	anregung	gütig	kreativ	träumen	vertrauen	vergnügt	ausrottung	gierig	krank	töten	versagen	verbissen	1	blank2r.bmp	0	1	+	0	1	blank2r.bmp	500	1	CPLW	500	1	blank2r.bmp	880	5	sonnig	880	1	!	1232	1	!	1346	0	0	0	0	0	0
2024-04-30	10:14:34	10:24:06	571162	6.6.1	4_exp_EVA_AWA_CON	2	A	B	Rpleas_acq	Oppo	Rpleas	1pleas	acq_US_unple_nomask	acq45_nomask	4	36	400	1	300	300	0	0	448	46	1	0	besonnen	engagiert	genießen	gesittet	sonnig	kuss	bange	engstirnig	gemein	geizig	sterben	krise	anregung	gütig	kreativ	träumen	vertrauen	vergnügt	ausrottung	gierig	krank	töten	versagen	verbissen	1	blank2r.bmp	0	1	+	0	1	blank2r.bmp	500	1	DHJF	500	1	blank2r.bmp	880	4	geizig	880	1	!	1232	1	!	1349	0	0	0	0	0	0
2024-04-30	10:14:34	10:24:25	590529	6.6.1	4_exp_EVA_AWA_CON	2	A	B	Rpleas_acq	Oppo	Rpleas	1pleas	acq_US_unple_nomask	acq45_nomask	5	1	400	0	300	300	0	0	543	46	1	0	besonnen	engagiert	genießen	gesittet	sonnig	kuss	bange	engstirnig	gemein	geizig	sterben	krise	anregung	gütig	kreativ	träumen	vertrauen	vergnügt	ausrottung	gierig	krank	töten	versagen	verbissen	1	blank2r.bmp	0	1	+	0	1	blank2r.bmp	500	1	DHJF	500	1	blank2r.bmp	880	6	krise	880	1	!	1232	1	!	-1	0	0	0	0	0	0
2024-04-30	10:14:34	10:24:27	592730	6.6.1	4_exp_EVA_AWA_CON	2	A	B	Rpleas_acq	Oppo	Rpleas	1pleas	acq_US_unple_nomask	acq45_nomask	5	2	400	1	300	300	0	0	422	46	1	0	besonnen	engagiert	genießen	gesittet	sonnig	kuss	bange	engstirnig	gemein	geizig	sterben	krise	anregung	gütig	kreativ	träumen	vertrauen	vergnügt	ausrottung	gierig	krank	töten	versagen	verbissen	1	blank2r.bmp	0	1	+	0	1	blank2r.bmp	500	1	DHJF	500	1	blank2r.bmp	880	4	geizig	880	1	!	1232	1	!	1323	0	0	0	0	0	0
2024-04-30	10:14:34	10:24:30	594922	6.6.1	4_exp_EVA_AWA_CON	2	A	B	Rpleas_acq	Oppo	Rpleas	1pleas	acq_US_pleas_nomask	acq45_nomask	5	3	400	1	300	300	0	0	412	50	1	0	besonnen	engagiert	genießen	gesittet	sonnig	kuss	bange	engstirnig	gemein	geizig	sterben	krise	anregung	gütig	kreativ	träumen	vertrauen	vergnügt	ausrottung	gierig	krank	töten	versagen	verbissen	1	blank2r.bmp	0	1	+	0	1	blank2r.bmp	500	1	CPLW	500	1	blank2r.bmp	880	5	sonnig	880	1	!	1232	1	!	1313	0	0	0	0	0	0
2024-04-30	10:14:34	10:24:32	597233	6.6.1	4_exp_EVA_AWA_CON	2	A	B	Rpleas_acq	Oppo	Rpleas	1pleas	acq_US_pleas_nomask	acq45_nomask	5	4	400	0	300	300	0	0	533	50	1	0	besonnen	engagiert	genießen	gesittet	sonnig	kuss	bange	engstirnig	gemein	geizig	sterben	krise	anregung	gütig	kreativ	träumen	vertrauen	vergnügt	ausrottung	gierig	krank	töten	versagen	verbissen	1	blank2r.bmp	0	1	+	0	1	blank2r.bmp	500	1	CPLW	500	1	blank2r.bmp	880	3	genießen	880	1	!	1232	1	!	-1	0	0	0	0	0	0
2024-04-30	10:14:34	10:24:34	599505	6.6.1	4_exp_EVA_AWA_CON	2	A	B	Rpleas_acq	Oppo	Rpleas	1pleas	acq_US_unple_nomask	acq45_nomask	5	5	400	0	300	300	0	0	493	46	1	0	besonnen	engagiert	genießen	gesittet	sonnig	kuss	bange	engstirnig	gemein	geizig	sterben	krise	anregung	gütig	kreativ	träumen	vertrauen	vergnügt	ausrottung	gierig	krank	töten	versagen	verbissen	1	blank2r.bmp	0	1	+	0	1	blank2r.bmp	500	1	DHJF	500	1	blank2r.bmp	880	1	bange	880	1	!	1232	1	!	-1	0	0	0	0	0	0
2024-04-30	10:14:34	10:24:36	601730	6.6.1	4_exp_EVA_AWA_CON	2	A	B	Rpleas_acq	Oppo	Rpleas	1pleas	acq_US_unple_nomask	acq45_nomask	5	6	400	1	300	300	0	0	446	46	1	0	besonnen	engagiert	genießen	gesittet	sonnig	kuss	bange	engstirnig	gemein	geizig	sterben	krise	anregung	gütig	kreativ	träumen	vertrauen	vergnügt	ausrottung	gierig	krank	töten	versagen	verbissen	1	blank2r.bmp	0	1	+	0	1	blank2r.bmp	500	1	DHJF	500	1	blank2r.bmp	880	5	sterben	880	1	!	1233	1	!	1347	0	0	0	0	0	0
2024-04-30	10:14:34	10:24:39	604017	6.6.1	4_exp_EVA_AWA_CON	2	A	B	Rpleas_acq	Oppo	Rpleas	1pleas	acq_US_unple_nomask	acq45_nomask	5	7	400	0	300	300	0	0	512	46	1	0	besonnen	engagiert	genießen	gesittet	sonnig	kuss	bange	engstirnig	gemein	geizig	sterben	krise	anregung	gütig	kreativ	träumen	vertrauen	vergnügt	ausrottung	gierig	krank	töten	versagen	verbissen	1	blank2r.bmp	0	1	+	0	1	blank2r.bmp	500	1	DHJF	500	1	blank2r.bmp	880	3	gemein	880	1	!	1232	1	!	-1	0	0	0	0	0	0
2024-04-30	10:14:34	10:24:41	606345	6.6.1	4_exp_EVA_AWA_CON	2	A	B	Rpleas_acq	Oppo	Rpleas	1pleas	acq_US_unple_nomask	acq45_nomask	5	8	400	0	300	300	0	0	549	46	1	0	besonnen	engagiert	genießen	gesittet	sonnig	kuss	bange	engstirnig	gemein	geizig	sterben	krise	anregung	gütig	kreativ	träumen	vertrauen	vergnügt	ausrottung	gierig	krank	töten	versagen	verbissen	1	blank2r.bmp	0	1	+	0	1	blank2r.bmp	500	1	DHJF	500	1	blank2r.bmp	880	2	engstirnig	880	1	!	1233	1	!	-1	0	0	0	0	0	0
2024-04-30	10:14:34	10:24:43	608499	6.6.1	4_exp_EVA_AWA_CON	2	A	B	Rpleas_acq	Oppo	Rpleas	1pleas	acq_US_pleas_nomask	acq45_nomask	5	9	400	1	300	300	0	0	379	50	1	0	besonnen	engagiert	genießen	gesittet	sonnig	kuss	bange	engstirnig	gemein	geizig	sterben	krise	anregung	gütig	kreativ	träumen	vertrauen	vergnügt	ausrottung	gierig	krank	töten	versagen	verbissen	1	blank2r.bmp	0	1	+	0	1	blank2r.bmp	500	1	CPLW	500	1	blank2r.bmp	880	1	besonnen	880	1	!	1232	1	!	1281	0	0	0	0	0	0
2024-04-30	10:14:34	10:24:45	610746	6.6.1	4_exp_EVA_AWA_CON	2	A	B	Rpleas_acq	Oppo	Rpleas	1pleas	acq_US_pleas_nomask	acq45_nomask	5	10	400	1	300	300	0	0	466	50	1	0	besonnen	engagiert	genießen	gesittet	sonnig	kuss	bange	engstirnig	gemein	geizig	sterben	krise	anregung	gütig	kreativ	träumen	vertrauen	vergnügt	ausrottung	gierig	krank	töten	versagen	verbissen	1	blank2r.bmp	0	1	+	0	1	blank2r.bmp	500	1	CPLW	500	1	blank2r.bmp	880	6	kuss	880	1	!	1232	1	!	1367	0	0	0	0	0	0
2024-04-30	10:14:34	10:24:48	613025	6.6.1	4_exp_EVA_AWA_CON	2	A	B	Rpleas_acq	Oppo	Rpleas	1pleas	acq_US_pleas_nomask	acq45_nomask	5	11	400	0	300	300	0	0	504	50	1	0	besonnen	engagiert	genießen	gesittet	sonnig	kuss	bange	engstirnig	gemein	geizig	sterben	krise	anregung	gütig	kreativ	träumen	vertrauen	vergnügt	ausrottung	gierig	krank	töten	versagen	verbissen	1	blank2r.bmp	0	1	+	0	1	blank2r.bmp	500	1	CPLW	500	1	blank2r.bmp	880	2	engagiert	880	1	!	1232	1	!	-1	0	0	0	0	0	0
2024-04-30	10:14:34	10:24:50	615361	6.6.1	4_exp_EVA_AWA_CON	2	A	B	Rpleas_acq	Oppo	Rpleas	1pleas	acq_US_pleas_nomask	acq45_nomask	5	12	400	0	300	300	0	0	559	50	1	0	besonnen	engagiert	genießen	gesittet	sonnig	kuss	bange	engstirnig	gemein	geizig	sterben	krise	anregung	gütig	kreativ	träumen	vertrauen	vergnügt	ausrottung	gierig	krank	töten	versagen	verbissen	1	blank2r.bmp	0	1	+	0	1	blank2r.bmp	500	1	CPLW	500	1	blank2r.bmp	880	4	gesittet	880	1	!	1232	1	!	-1	0	0	0	0	0	0
2024-04-30	10:14:34	10:24:52	617602	6.6.1	4_exp_EVA_AWA_CON	2	A	B	Rpleas_acq	Oppo	Rpleas	1pleas	acq_US_pleas_nomask	acq45_nomask	5	13	400	1	300	300	0	0	468	50	1	0	besonnen	engagiert	genießen	gesittet	sonnig	kuss	bange	engstirnig	gemein	geizig	sterben	krise	anregung	gütig	kreativ	träumen	vertrauen	vergnügt	ausrottung	gierig	krank	töten	versagen	verbissen	1	blank2r.bmp	0	1	+	0	1	blank2r.bmp	500	1	CPLW	500	1	blank2r.bmp	880	4	gesittet	880	1	!	1233	1	!	1369	0	0	0	0	0	0
2024-04-30	10:14:34	10:24:55	619855	6.6.1	4_exp_EVA_AWA_CON	2	A	B	Rpleas_acq	Oppo	Rpleas	1pleas	acq_US_pleas_nomask	acq45_nomask	5	14	400	0	300	300	0	0	482	50	1	0	besonnen	engagiert	genießen	gesittet	sonnig	kuss	bange	engstirnig	gemein	geizig	sterben	krise	anregung	gütig	kreativ	träumen	vertrauen	vergnügt	ausrottung	gierig	krank	töten	versagen	verbissen	1	blank2r.bmp	0	1	+	0	1	blank2r.bmp	500	1	CPLW	500	1	blank2r.bmp	880	2	engagiert	880	1	!	1232	1	!	-1	0	0	0	0	0	0
2024-04-30	10:14:34	10:24:57	622043	6.6.1	4_exp_EVA_AWA_CON	2	A	B	Rpleas_acq	Oppo	Rpleas	1pleas	acq_US_unple_nomask	acq45_nomask	5	15	400	1	300	300	0	0	405	46	1	0	besonnen	engagiert	genießen	gesittet	sonnig	kuss	bange	engstirnig	gemein	geizig	sterben	krise	anregung	gütig	kreativ	träumen	vertrauen	vergnügt	ausrottung	gierig	krank	töten	versagen	verbissen	1	blank2r.bmp	0	1	+	0	1	blank2r.bmp	500	1	DHJF	500	1	blank2r.bmp	880	6	krise	880	1	!	1233	1	!	1306	0	0	0	0	0	0
2024-04-30	10:14:34	10:24:59	624266	6.6.1	4_exp_EVA_AWA_CON	2	A	B	Rpleas_acq	Oppo	Rpleas	1pleas	acq_US_pleas_nomask	acq45_nomask	5	16	400	1	300	300	0	0	447	50	1	0	besonnen	engagiert	genießen	gesittet	sonnig	kuss	bange	engstirnig	gemein	geizig	sterben	krise	anregung	gütig	kreativ	träumen	vertrauen	vergnügt	ausrottung	gierig	krank	töten	versagen	verbissen	1	blank2r.bmp	0	1	+	0	1	blank2r.bmp	500	1	CPLW	500	1	blank2r.bmp	880	3	genießen	880	1	!	1233	1	!	1348	0	0	0	0	0	0
2024-04-30	10:14:34	10:25:01	626577	6.6.1	4_exp_EVA_AWA_CON	2	A	B	Rpleas_acq	Oppo	Rpleas	1pleas	acq_US_unple_nomask	acq45_nomask	5	17	400	0	300	300	0	0	538	46	1	0	besonnen	engagiert	genießen	gesittet	sonnig	kuss	bange	engstirnig	gemein	geizig	sterben	krise	anregung	gütig	kreativ	träumen	vertrauen	vergnügt	ausrottung	gierig	krank	töten	versagen	verbissen	1	blank2r.bmp	0	1	+	0	1	blank2r.bmp	500	1	DHJF	500	1	blank2r.bmp	880	3	gemein	880	1	!	1233	1	!	-1	0	0	0	0	0	0
2024-04-30	10:14:34	10:25:04	628819	6.6.1	4_exp_EVA_AWA_CON	2	A	B	Rpleas_acq	Oppo	Rpleas	1pleas	acq_US_unple_nomask	acq45_nomask	5	18	400	1	300	300	0	0	466	46	1	0	besonnen	engagiert	genießen	gesittet	sonnig	kuss	bange	engstirnig	gemein	geizig	sterben	krise	anregung	gütig	kreativ	träumen	vertrauen	vergnügt	ausrottung	gierig	krank	töten	versagen	verbissen	1	blank2r.bmp	0	1	+	0	1	blank2r.bmp	500	1	DHJF	500	1	blank2r.bmp	880	1	bange	880	1	!	1232	1	!	1367	0	0	0	0	0	0
2024-04-30	10:14:34	10:25:06	631050	6.6.1	4_exp_EVA_AWA_CON	2	A	B	Rpleas_acq	Oppo	Rpleas	1pleas	acq_US_unple_nomask	acq45_nomask	5	19	400	1	300	300	0	0	457	50	0	0	besonnen	engagiert	genießen	gesittet	sonnig	kuss	bange	engstirnig	gemein	geizig	sterben	krise	anregung	gütig	kreativ	träumen	vertrauen	vergnügt	ausrottung	gierig	krank	töten	versagen	verbissen	1	blank2r.bmp	0	1	+	0	1	blank2r.bmp	500	1	DHJF	500	1	blank2r.bmp	880	2	engstirnig	880	1	!	1232	1	!	1358	0	0	0	0	0	0
2024-04-30	10:14:34	10:25:08	633219	6.6.1	4_exp_EVA_AWA_CON	2	A	B	Rpleas_acq	Oppo	Rpleas	1pleas	acq_US_pleas_nomask	acq45_nomask	5	20	400	1	300	300	0	0	393	50	1	0	besonnen	engagiert	genießen	gesittet	sonnig	kuss	bange	engstirnig	gemein	geizig	sterben	krise	anregung	gütig	kreativ	träumen	vertrauen	vergnügt	ausrottung	gierig	krank	töten	versagen	verbissen	1	blank2r.bmp	0	1	+	0	1	blank2r.bmp	500	1	CPLW	500	1	blank2r.bmp	880	5	sonnig	880	1	!	1233	1	!	1294	0	0	0	0	0	0
2024-04-30	10:14:34	10:25:10	635402	6.6.1	4_exp_EVA_AWA_CON	2	A	B	Rpleas_acq	Oppo	Rpleas	1pleas	acq_US_unple_nomask	acq45_nomask	5	21	400	1	300	300	0	0	406	46	1	0	besonnen	engagiert	genießen	gesittet	sonnig	kuss	bange	engstirnig	gemein	geizig	sterben	krise	anregung	gütig	kreativ	träumen	vertrauen	vergnügt	ausrottung	gierig	krank	töten	versagen	verbissen	1	blank2r.bmp	0	1	+	0	1	blank2r.bmp	500	1	DHJF	500	1	blank2r.bmp	880	4	geizig	880	1	!	1232	1	!	1307	0	0	0	0	0	0
2024-04-30	10:14:34	10:25:12	637648	6.6.1	4_exp_EVA_AWA_CON	2	A	B	Rpleas_acq	Oppo	Rpleas	1pleas	acq_US_pleas_nomask	acq45_nomask	5	22	400	0	300	300	0	0	473	50	1	0	besonnen	engagiert	genießen	gesittet	sonnig	kuss	bange	engstirnig	gemein	geizig	sterben	krise	anregung	gütig	kreativ	träumen	vertrauen	vergnügt	ausrottung	gierig	krank	töten	versagen	verbissen	1	blank2r.bmp	0	1	+	0	1	blank2r.bmp	500	1	CPLW	500	1	blank2r.bmp	880	6	kuss	880	1	!	1232	1	!	-1	0	0	0	0	0	0
2024-04-30	10:14:34	10:25:15	639866	6.6.1	4_exp_EVA_AWA_CON	2	A	B	Rpleas_acq	Oppo	Rpleas	1pleas	acq_US_pleas_nomask	acq45_nomask	5	23	400	1	300	300	0	0	437	50	1	0	besonnen	engagiert	genießen	gesittet	sonnig	kuss	bange	engstirnig	gemein	geizig	sterben	krise	anregung	gütig	kreativ	träumen	vertrauen	vergnügt	ausrottung	gierig	krank	töten	versagen	verbissen	1	blank2r.bmp	0	1	+	0	1	blank2r.bmp	500	1	CPLW	500	1	blank2r.bmp	880	1	besonnen	880	1	!	1232	1	!	1338	0	0	0	0	0	0
2024-04-30	10:14:34	10:25:17	642034	6.6.1	4_exp_EVA_AWA_CON	2	A	B	Rpleas_acq	Oppo	Rpleas	1pleas	acq_US_unple_nomask	acq45_nomask	5	24	400	1	300	300	0	0	394	46	1	0	besonnen	engagiert	genießen	gesittet	sonnig	kuss	bange	engstirnig	gemein	geizig	sterben	krise	anregung	gütig	kreativ	träumen	vertrauen	vergnügt	ausrottung	gierig	krank	töten	versagen	verbissen	1	blank2r.bmp	0	1	+	0	1	blank2r.bmp	500	1	DHJF	500	1	blank2r.bmp	880	5	sterben	880	1	!	1232	1	!	1295	0	0	0	0	0	0
2024-04-30	10:14:34	10:25:19	644145	6.6.1	4_exp_EVA_AWA_CON	2	A	B	Rpleas_acq	Oppo	Rpleas	1pleas	acq_US_pleas_nomask	acq45_nomask	5	25	400	1	300	300	0	0	334	46	0	0	besonnen	engagiert	genießen	gesittet	sonnig	kuss	bange	engstirnig	gemein	geizig	sterben	krise	anregung	gütig	kreativ	träumen	vertrauen	vergnügt	ausrottung	gierig	krank	töten	versagen	verbissen	1	blank2r.bmp	0	1	+	0	1	blank2r.bmp	500	1	CPLW	500	1	blank2r.bmp	880	1	besonnen	880	1	!	1232	1	!	1233	0	0	0	0	0	0
2024-04-30	10:14:34	10:25:21	646441	6.6.1	4_exp_EVA_AWA_CON	2	A	B	Rpleas_acq	Oppo	Rpleas	1pleas	acq_US_pleas_nomask	acq45_nomask	5	26	400	0	300	300	0	0	519	50	1	0	besonnen	engagiert	genießen	gesittet	sonnig	kuss	bange	engstirnig	gemein	geizig	sterben	krise	anregung	gütig	kreativ	träumen	vertrauen	vergnügt	ausrottung	gierig	krank	töten	versagen	verbissen	1	blank2r.bmp	0	1	+	0	1	blank2r.bmp	500	1	CPLW	500	1	blank2r.bmp	880	6	kuss	880	1	!	1232	1	!	-1	0	0	0	0	0	0
2024-04-30	10:14:34	10:25:24	648769	6.6.1	4_exp_EVA_AWA_CON	2	A	B	Rpleas_acq	Oppo	Rpleas	1pleas	acq_US_unple_nomask	acq45_nomask	5	27	400	0	300	300	0	0	555	46	1	0	besonnen	engagiert	genießen	gesittet	sonnig	kuss	bange	engstirnig	gemein	geizig	sterben	krise	anregung	gütig	kreativ	träumen	vertrauen	vergnügt	ausrottung	gierig	krank	töten	versagen	verbissen	1	blank2r.bmp	0	1	+	0	1	blank2r.bmp	500	1	DHJF	500	1	blank2r.bmp	880	4	geizig	880	1	!	1233	1	!	-1	0	0	0	0	0	0
2024-04-30	10:14:34	10:25:26	651041	6.6.1	4_exp_EVA_AWA_CON	2	A	B	Rpleas_acq	Oppo	Rpleas	1pleas	acq_US_pleas_nomask	acq45_nomask	5	28	400	0	300	300	0	0	496	50	1	0	besonnen	engagiert	genießen	gesittet	sonnig	kuss	bange	engstirnig	gemein	geizig	sterben	krise	anregung	gütig	kreativ	träumen	vertrauen	vergnügt	ausrottung	gierig	krank	töten	versagen	verbissen	1	blank2r.bmp	0	1	+	0	1	blank2r.bmp	500	1	CPLW	500	1	blank2r.bmp	880	3	genießen	880	1	!	1232	1	!	-1	0	0	0	0	0	0
2024-04-30	10:14:34	10:25:28	653313	6.6.1	4_exp_EVA_AWA_CON	2	A	B	Rpleas_acq	Oppo	Rpleas	1pleas	acq_US_unple_nomask	acq45_nomask	5	29	400	0	300	300	0	0	496	46	1	0	besonnen	engagiert	genießen	gesittet	sonnig	kuss	bange	engstirnig	gemein	geizig	sterben	krise	anregung	gütig	kreativ	träumen	vertrauen	vergnügt	ausrottung	gierig	krank	töten	versagen	verbissen	1	blank2r.bmp	0	1	+	0	1	blank2r.bmp	500	1	DHJF	500	1	blank2r.bmp	880	6	krise	880	1	!	1232	1	!	-1	0	0	0	0	0	0
2024-04-30	10:14:34	10:25:30	655514	6.6.1	4_exp_EVA_AWA_CON	2	A	B	Rpleas_acq	Oppo	Rpleas	1pleas	acq_US_pleas_nomask	acq45_nomask	5	30	400	1	300	300	0	0	425	46	0	0	besonnen	engagiert	genießen	gesittet	sonnig	kuss	bange	engstirnig	gemein	geizig	sterben	krise	anregung	gütig	kreativ	träumen	vertrauen	vergnügt	ausrottung	gierig	krank	töten	versagen	verbissen	1	blank2r.bmp	0	1	+	0	1	blank2r.bmp	500	1	CPLW	500	1	blank2r.bmp	880	4	gesittet	880	1	!	1232	1	!	1326	0	0	0	0	0	0
2024-04-30	10:14:34	10:25:32	657714	6.6.1	4_exp_EVA_AWA_CON	2	A	B	Rpleas_acq	Oppo	Rpleas	1pleas	acq_US_pleas_nomask	acq45_nomask	5	31	400	1	300	300	0	0	423	46	0	0	besonnen	engagiert	genießen	gesittet	sonnig	kuss	bange	engstirnig	gemein	geizig	sterben	krise	anregung	gütig	kreativ	träumen	vertrauen	vergnügt	ausrottung	gierig	krank	töten	versagen	verbissen	1	blank2r.bmp	0	1	+	0	1	blank2r.bmp	500	1	CPLW	500	1	blank2r.bmp	880	2	engagiert	880	1	!	1232	1	!	1324	0	0	0	0	0	0
2024-04-30	10:14:34	10:25:35	659922	6.6.1	4_exp_EVA_AWA_CON	2	A	B	Rpleas_acq	Oppo	Rpleas	1pleas	acq_US_unple_nomask	acq45_nomask	5	32	400	1	300	300	0	0	430	46	1	0	besonnen	engagiert	genießen	gesittet	sonnig	kuss	bange	engstirnig	gemein	geizig	sterben	krise	anregung	gütig	kreativ	träumen	vertrauen	vergnügt	ausrottung	gierig	krank	töten	versagen	verbissen	1	blank2r.bmp	0	1	+	0	1	blank2r.bmp	500	1	DHJF	500	1	blank2r.bmp	880	2	engstirnig	880	1	!	1233	1	!	1331	0	0	0	0	0	0
2024-04-30	10:14:34	10:25:37	662175	6.6.1	4_exp_EVA_AWA_CON	2	A	B	Rpleas_acq	Oppo	Rpleas	1pleas	acq_US_unple_nomask	acq45_nomask	5	33	400	0	300	300	0	0	474	46	1	0	besonnen	engagiert	genießen	gesittet	sonnig	kuss	bange	engstirnig	gemein	geizig	sterben	krise	anregung	gütig	kreativ	träumen	vertrauen	vergnügt	ausrottung	gierig	krank	töten	versagen	verbissen	1	blank2r.bmp	0	1	+	0	1	blank2r.bmp	500	1	DHJF	500	1	blank2r.bmp	880	1	bange	880	1	!	1232	1	!	-1	0	0	0	0	0	0
2024-04-30	10:14:34	10:25:39	664411	6.6.1	4_exp_EVA_AWA_CON	2	A	B	Rpleas_acq	Oppo	Rpleas	1pleas	acq_US_unple_nomask	acq45_nomask	5	34	400	1	300	300	0	0	455	46	1	0	besonnen	engagiert	genießen	gesittet	sonnig	kuss	bange	engstirnig	gemein	geizig	sterben	krise	anregung	gütig	kreativ	träumen	vertrauen	vergnügt	ausrottung	gierig	krank	töten	versagen	verbissen	1	blank2r.bmp	0	1	+	0	1	blank2r.bmp	500	1	DHJF	500	1	blank2r.bmp	880	3	gemein	880	1	!	1232	1	!	1356	0	0	0	0	0	0
2024-04-30	10:14:34	10:25:41	666642	6.6.1	4_exp_EVA_AWA_CON	2	A	B	Rpleas_acq	Oppo	Rpleas	1pleas	acq_US_unple_nomask	acq45_nomask	5	35	400	1	300	300	0	0	455	46	1	0	besonnen	engagiert	genießen	gesittet	sonnig	kuss	bange	engstirnig	gemein	geizig	sterben	krise	anregung	gütig	kreativ	träumen	vertrauen	vergnügt	ausrottung	gierig	krank	töten	versagen	verbissen	1	blank2r.bmp	0	1	+	0	1	blank2r.bmp	500	1	DHJF	500	1	blank2r.bmp	880	5	sterben	880	1	!	1232	1	!	1356	0	0	0	0	0	0
2024-04-30	10:14:34	10:25:44	668977	6.6.1	4_exp_EVA_AWA_CON	2	A	B	Rpleas_acq	Oppo	Rpleas	1pleas	acq_US_pleas_nomask	acq45_nomask	5	36	400	0	300	300	0	0	560	50	1	0	besonnen	engagiert	genießen	gesittet	sonnig	kuss	bange	engstirnig	gemein	geizig	sterben	krise	anregung	gütig	kreativ	träumen	vertrauen	vergnügt	ausrottung	gierig	krank	töten	versagen	verbissen	1	blank2r.bmp	0	1	+	0	1	blank2r.bmp	500	1	CPLW	500	1	blank2r.bmp	880	5	sonnig	880	1	!	1232	1	!	-1	0	0	0	0	0	0
2024-04-30	10:14:34	10:26:41	726133	6.6.1	4_exp_EVA_AWA_CON	2	A	B	Rpleas_acq	Oppo	Lpleas	1pleas	EvalRating_firsttwo	EvalRating_firsttwo	6	1	0	0	300	300	0	0	21904	line	0	50,5208333333333428072pct	besonnen	engagiert	genießen	gesittet	sonnig	kuss	bange	engstirnig	gemein	geizig	sterben	krise	anregung	gütig	kreativ	träumen	vertrauen	vergnügt	ausrottung	gierig	krank	töten	versagen	verbissen	1		-8	1	Wie angenehm oder unangenehm finden Sie die  Buchstabenkette WDLH?	-8	1		-8	1		-8	1		-8	1	Unangenehm	-8	1	Angenehm	-8	0	0	0	0	0	0	0	0	0
2024-04-30	10:14:34	10:26:51	736093	6.6.1	4_exp_EVA_AWA_CON	2	A	B	Rpleas_acq	Oppo	Lpleas	1pleas	EvalRating_lastfour	EvalRating_lastfour	7	1	0	0	300	300	0	0	7588	line	0	-21,7447916666666571928pct	besonnen	engagiert	genießen	gesittet	sonnig	kuss	bange	engstirnig	gemein	geizig	sterben	krise	anregung	gütig	kreativ	träumen	vertrauen	vergnügt	ausrottung	gierig	krank	töten	versagen	verbissen	1		-7	3	Wie angenehm oder unangenehm finden Sie die  Buchstabenkette FCJP?	-7	1		-7	1		-7	1		-7	1	Unangenehm	-7	1	Angenehm	-7	0	0	0	0	0	0	0	0	0
2024-04-30	10:14:34	10:26:53	738464	6.6.1	4_exp_EVA_AWA_CON	2	A	B	Rpleas_acq	Oppo	Lpleas	1pleas	blank_screen	EvalRating_lastfour	7	3	0	0	300	300	0	0	0	0	0	-21,7447916666666571928pct	besonnen	engagiert	genießen	gesittet	sonnig	kuss	bange	engstirnig	gemein	geizig	sterben	krise	anregung	gütig	kreativ	träumen	vertrauen	vergnügt	ausrottung	gierig	krank	töten	versagen	verbissen	1		-8	0	0	0	0	0	0	0	0	0	0	0	0	0	0	0	0	0	0	0	0	0	0	0	0	0	0	0
2024-04-30	10:14:34	10:26:59	744661	6.6.1	4_exp_EVA_AWA_CON	2	A	B	Rpleas_acq	Oppo	Lpleas	1pleas	EvalRating_lastfour	EvalRating_lastfour	7	4	0	0	300	300	0	0	5609	line	0	13,4114583333333428072pct	besonnen	engagiert	genießen	gesittet	sonnig	kuss	bange	engstirnig	gemein	geizig	sterben	krise	anregung	gütig	kreativ	träumen	vertrauen	vergnügt	ausrottung	gierig	krank	töten	versagen	verbissen	1		-7	2	Wie angenehm oder unangenehm finden Sie die  Buchstabenkette DHJF?	-7	1		-7	1		-7	1		-7	1	Unangenehm	-7	1	Angenehm	-7	0	0	0	0	0	0	0	0	0
2024-04-30	10:14:34	10:27:02	747030	6.6.1	4_exp_EVA_AWA_CON	2	A	B	Rpleas_acq	Oppo	Lpleas	1pleas	blank_screen	EvalRating_lastfour	7	6	0	0	300	300	0	0	0	0	0	13,4114583333333428072pct	besonnen	engagiert	genießen	gesittet	sonnig	kuss	bange	engstirnig	gemein	geizig	sterben	krise	anregung	gütig	kreativ	träumen	vertrauen	vergnügt	ausrottung	gierig	krank	töten	versagen	verbissen	1		-8	0	0	0	0	0	0	0	0	0	0	0	0	0	0	0	0	0	0	0	0	0	0	0	0	0	0	0
2024-04-30	10:14:34	10:27:09	754245	6.6.1	4_exp_EVA_AWA_CON	2	A	B	Rpleas_acq	Oppo	Lpleas	1pleas	EvalRating_lastfour	EvalRating_lastfour	7	7	0	0	300	300	0	0	6627	line	0	0,1302083333333428072pct	besonnen	engagiert	genießen	gesittet	sonnig	kuss	bange	engstirnig	gemein	geizig	sterben	krise	anregung	gütig	kreativ	träumen	vertrauen	vergnügt	ausrottung	gierig	krank	töten	versagen	verbissen	1		-8	1	Wie angenehm oder unangenehm finden Sie die  Buchstabenkette CPLW?	-8	1		-8	1		-8	1		-8	1	Unangenehm	-8	1	Angenehm	-8	0	0	0	0	0	0	0	0	0
2024-04-30	10:14:34	10:28:04	808978	6.6.1	4_exp_EVA_AWA_CON	2	A	B	Rpleas_acq	Oppo	Lpleas	1pleas	conawa_CS1_US3	conawa1_nomask	8	1	0	0	300	300	0	0	21478	gemein	1	0,1302083333333428072pct	besonnen	engagiert	genießen	gesittet	sonnig	kuss	bange	engstirnig	gemein	geizig	sterben	krise	anregung	gütig	kreativ	träumen	vertrauen	vergnügt	ausrottung	gierig	krank	töten	versagen	verbissen	0	0	0	0	0	0	0	0	0	0	0	0	0	0	0	0	0	0	0	0	0	0	0	0	0	0	0	0	0	0
2024-04-30	10:14:34	10:28:04	808980	6.6.1	4_exp_EVA_AWA_CON	2	A	B	Rpleas_acq	Oppo	Lpleas	1pleas	conawa_CS1_US3_confidence	conawa1_nomask	8	1	0	0	300	300	0	0	21478	guess	1	0,1302083333333428072pct	besonnen	engagiert	genießen	gesittet	sonnig	kuss	bange	engstirnig	gemein	geizig	sterben	krise	anregung	gütig	kreativ	träumen	vertrauen	vergnügt	ausrottung	gierig	krank	töten	versagen	verbissen	0	0	0	0	0	0	0	0	0	0	0	0	0	0	0	0	0	0	0	0	0	0	0	0	0	0	0	0	0	0
2024-04-30	10:14:34	10:28:12	817674	6.6.1	4_exp_EVA_AWA_CON	2	A	B	Rpleas_acq	Oppo	Lpleas	1pleas	conawa_CS2_US1	conawa1_nomask	8	2	0	0	300	300	0	0	8082	besonnen	1	0,1302083333333428072pct	besonnen	engagiert	genießen	gesittet	sonnig	kuss	bange	engstirnig	gemein	geizig	sterben	krise	anregung	gütig	kreativ	träumen	vertrauen	vergnügt	ausrottung	gierig	krank	töten	versagen	verbissen	0	0	0	0	0	0	0	0	0	0	0	0	0	0	0	0	0	0	0	0	0	0	0	0	0	0	0	0	0	0
2024-04-30	10:14:34	10:28:12	817675	6.6.1	4_exp_EVA_AWA_CON	2	A	B	Rpleas_acq	Oppo	Lpleas	1pleas	conawa_CS2_US1_confidence	conawa1_nomask	8	2	0	0	300	300	0	0	8082	probably	1	0,1302083333333428072pct	besonnen	engagiert	genießen	gesittet	sonnig	kuss	bange	engstirnig	gemein	geizig	sterben	krise	anregung	gütig	kreativ	träumen	vertrauen	vergnügt	ausrottung	gierig	krank	töten	versagen	verbissen	0	0	0	0	0	0	0	0	0	0	0	0	0	0	0	0	0	0	0	0	0	0	0	0	0	0	0	0	0	0
2024-04-30	10:14:34	10:28:22	826830	6.6.1	4_exp_EVA_AWA_CON	2	A	B	Rpleas_acq	Oppo	Lpleas	1pleas	conawa_CS1_US5	conawa1_nomask	8	3	0	0	300	300	0	0	8542	sonnig	1	0,1302083333333428072pct	besonnen	engagiert	genießen	gesittet	sonnig	kuss	bange	engstirnig	gemein	geizig	sterben	krise	anregung	gütig	kreativ	träumen	vertrauen	vergnügt	ausrottung	gierig	krank	töten	versagen	verbissen	0	0	0	0	0	0	0	0	0	0	0	0	0	0	0	0	0	0	0	0	0	0	0	0	0	0	0	0	0	0
2024-04-30	10:14:34	10:28:22	826831	6.6.1	4_exp_EVA_AWA_CON	2	A	B	Rpleas_acq	Oppo	Lpleas	1pleas	conawa_CS1_US5_confidence	conawa1_nomask	8	3	0	0	300	300	0	0	8542	probably	1	0,1302083333333428072pct	besonnen	engagiert	genießen	gesittet	sonnig	kuss	bange	engstirnig	gemein	geizig	sterben	krise	anregung	gütig	kreativ	träumen	vertrauen	vergnügt	ausrottung	gierig	krank	töten	versagen	verbissen	0	0	0	0	0	0	0	0	0	0	0	0	0	0	0	0	0	0	0	0	0	0	0	0	0	0	0	0	0	0
2024-04-30	10:14:34	10:28:30	835486	6.6.1	4_exp_EVA_AWA_CON	2	A	B	Rpleas_acq	Oppo	Lpleas	1pleas	conawa_CS2_US4	conawa1_nomask	8	4	0	0	300	300	0	0	8043	geizig	1	0,1302083333333428072pct	besonnen	engagiert	genießen	gesittet	sonnig	kuss	bange	engstirnig	gemein	geizig	sterben	krise	anregung	gütig	kreativ	träumen	vertrauen	vergnügt	ausrottung	gierig	krank	töten	versagen	verbissen	0	0	0	0	0	0	0	0	0	0	0	0	0	0	0	0	0	0	0	0	0	0	0	0	0	0	0	0	0	0
2024-04-30	10:14:34	10:28:30	835487	6.6.1	4_exp_EVA_AWA_CON	2	A	B	Rpleas_acq	Oppo	Lpleas	1pleas	conawa_CS2_US4_confidence	conawa1_nomask	8	4	0	0	300	300	0	0	8043	probably	1	0,1302083333333428072pct	besonnen	engagiert	genießen	gesittet	sonnig	kuss	bange	engstirnig	gemein	geizig	sterben	krise	anregung	gütig	kreativ	träumen	vertrauen	vergnügt	ausrottung	gierig	krank	töten	versagen	verbissen	0	0	0	0	0	0	0	0	0	0	0	0	0	0	0	0	0	0	0	0	0	0	0	0	0	0	0	0	0	0
2024-04-30	10:14:34	10:28:44	849385	6.6.1	4_exp_EVA_AWA_CON	2	A	B	Rpleas_acq	Oppo	Lpleas	1pleas	conawa_CS2_US2	conawa1_nomask	8	5	0	0	300	300	0	0	13283	kreativ	1	0,1302083333333428072pct	besonnen	engagiert	genießen	gesittet	sonnig	kuss	bange	engstirnig	gemein	geizig	sterben	krise	anregung	gütig	kreativ	träumen	vertrauen	vergnügt	ausrottung	gierig	krank	töten	versagen	verbissen	0	0	0	0	0	0	0	0	0	0	0	0	0	0	0	0	0	0	0	0	0	0	0	0	0	0	0	0	0	0
2024-04-30	10:14:34	10:28:44	849386	6.6.1	4_exp_EVA_AWA_CON	2	A	B	Rpleas_acq	Oppo	Lpleas	1pleas	conawa_CS2_US2_confidence	conawa1_nomask	8	5	0	0	300	300	0	0	13283	guess	1	0,1302083333333428072pct	besonnen	engagiert	genießen	gesittet	sonnig	kuss	bange	engstirnig	gemein	geizig	sterben	krise	anregung	gütig	kreativ	träumen	vertrauen	vergnügt	ausrottung	gierig	krank	töten	versagen	verbissen	0	0	0	0	0	0	0	0	0	0	0	0	0	0	0	0	0	0	0	0	0	0	0	0	0	0	0	0	0	0
2024-04-30	10:14:34	10:28:53	858081	6.6.1	4_exp_EVA_AWA_CON	2	A	B	Rpleas_acq	Oppo	Lpleas	1pleas	conawa_CS1_US1	conawa1_nomask	8	6	0	0	300	300	0	0	8080	bange	1	0,1302083333333428072pct	besonnen	engagiert	genießen	gesittet	sonnig	kuss	bange	engstirnig	gemein	geizig	sterben	krise	anregung	gütig	kreativ	träumen	vertrauen	vergnügt	ausrottung	gierig	krank	töten	versagen	verbissen	0	0	0	0	0	0	0	0	0	0	0	0	0	0	0	0	0	0	0	0	0	0	0	0	0	0	0	0	0	0
2024-04-30	10:14:34	10:28:53	858082	6.6.1	4_exp_EVA_AWA_CON	2	A	B	Rpleas_acq	Oppo	Lpleas	1pleas	conawa_CS1_US1_confidence	conawa1_nomask	8	6	0	0	300	300	0	0	8080	probably	1	0,1302083333333428072pct	besonnen	engagiert	genießen	gesittet	sonnig	kuss	bange	engstirnig	gemein	geizig	sterben	krise	anregung	gütig	kreativ	träumen	vertrauen	vergnügt	ausrottung	gierig	krank	töten	versagen	verbissen	0	0	0	0	0	0	0	0	0	0	0	0	0	0	0	0	0	0	0	0	0	0	0	0	0	0	0	0	0	0
2024-04-30	10:14:34	10:29:01	866246	6.6.1	4_exp_EVA_AWA_CON	2	A	B	Rpleas_acq	Oppo	Lpleas	1pleas	conawa_CS1_US6	conawa1_nomask	8	7	0	0	300	300	0	0	7550	kuss	1	0,1302083333333428072pct	besonnen	engagiert	genießen	gesittet	sonnig	kuss	bange	engstirnig	gemein	geizig	sterben	krise	anregung	gütig	kreativ	träumen	vertrauen	vergnügt	ausrottung	gierig	krank	töten	versagen	verbissen	0	0	0	0	0	0	0	0	0	0	0	0	0	0	0	0	0	0	0	0	0	0	0	0	0	0	0	0	0	0
2024-04-30	10:14:34	10:29:01	866247	6.6.1	4_exp_EVA_AWA_CON	2	A	B	Rpleas_acq	Oppo	Lpleas	1pleas	conawa_CS1_US6_confidence	conawa1_nomask	8	7	0	0	300	300	0	0	7550	probably	1	0,1302083333333428072pct	besonnen	engagiert	genießen	gesittet	sonnig	kuss	bange	engstirnig	gemein	geizig	sterben	krise	anregung	gütig	kreativ	träumen	vertrauen	vergnügt	ausrottung	gierig	krank	töten	versagen	verbissen	0	0	0	0	0	0	0	0	0	0	0	0	0	0	0	0	0	0	0	0	0	0	0	0	0	0	0	0	0	0
2024-04-30	10:14:34	10:29:11	875922	6.6.1	4_exp_EVA_AWA_CON	2	A	B	Rpleas_acq	Oppo	Lpleas	1pleas	conawa_CS2_US3	conawa1_nomask	8	8	0	0	300	300	0	0	9065	genießen	1	0,1302083333333428072pct	besonnen	engagiert	genießen	gesittet	sonnig	kuss	bange	engstirnig	gemein	geizig	sterben	krise	anregung	gütig	kreativ	träumen	vertrauen	vergnügt	ausrottung	gierig	krank	töten	versagen	verbissen	0	0	0	0	0	0	0	0	0	0	0	0	0	0	0	0	0	0	0	0	0	0	0	0	0	0	0	0	0	0
2024-04-30	10:14:34	10:29:11	875923	6.6.1	4_exp_EVA_AWA_CON	2	A	B	Rpleas_acq	Oppo	Lpleas	1pleas	conawa_CS2_US3_confidence	conawa1_nomask	8	8	0	0	300	300	0	0	9065	probably	1	0,1302083333333428072pct	besonnen	engagiert	genießen	gesittet	sonnig	kuss	bange	engstirnig	gemein	geizig	sterben	krise	anregung	gütig	kreativ	träumen	vertrauen	vergnügt	ausrottung	gierig	krank	töten	versagen	verbissen	0	0	0	0	0	0	0	0	0	0	0	0	0	0	0	0	0	0	0	0	0	0	0	0	0	0	0	0	0	0
2024-04-30	10:14:34	10:29:21	886339	6.6.1	4_exp_EVA_AWA_CON	2	A	B	Rpleas_acq	Oppo	Lpleas	1pleas	conawa_CS1_US4	conawa1_nomask	8	9	0	0	300	300	0	0	9799	töten	1	0,1302083333333428072pct	besonnen	engagiert	genießen	gesittet	sonnig	kuss	bange	engstirnig	gemein	geizig	sterben	krise	anregung	gütig	kreativ	träumen	vertrauen	vergnügt	ausrottung	gierig	krank	töten	versagen	verbissen	0	0	0	0	0	0	0	0	0	0	0	0	0	0	0	0	0	0	0	0	0	0	0	0	0	0	0	0	0	0
2024-04-30	10:14:34	10:29:21	886340	6.6.1	4_exp_EVA_AWA_CON	2	A	B	Rpleas_acq	Oppo	Lpleas	1pleas	conawa_CS1_US4_confidence	conawa1_nomask	8	9	0	0	300	300	0	0	9799	guess	1	0,1302083333333428072pct	besonnen	engagiert	genießen	gesittet	sonnig	kuss	bange	engstirnig	gemein	geizig	sterben	krise	anregung	gütig	kreativ	träumen	vertrauen	vergnügt	ausrottung	gierig	krank	töten	versagen	verbissen	0	0	0	0	0	0	0	0	0	0	0	0	0	0	0	0	0	0	0	0	0	0	0	0	0	0	0	0	0	0
2024-04-30	10:14:34	10:29:30	895675	6.6.1	4_exp_EVA_AWA_CON	2	A	B	Rpleas_acq	Oppo	Lpleas	1pleas	conawa_CS1_US2	conawa1_nomask	8	10	0	0	300	300	0	0	8726	engagiert	1	0,1302083333333428072pct	besonnen	engagiert	genießen	gesittet	sonnig	kuss	bange	engstirnig	gemein	geizig	sterben	krise	anregung	gütig	kreativ	träumen	vertrauen	vergnügt	ausrottung	gierig	krank	töten	versagen	verbissen	0	0	0	0	0	0	0	0	0	0	0	0	0	0	0	0	0	0	0	0	0	0	0	0	0	0	0	0	0	0
2024-04-30	10:14:34	10:29:30	895676	6.6.1	4_exp_EVA_AWA_CON	2	A	B	Rpleas_acq	Oppo	Lpleas	1pleas	conawa_CS1_US2_confidence	conawa1_nomask	8	10	0	0	300	300	0	0	8726	probably	1	0,1302083333333428072pct	besonnen	engagiert	genießen	gesittet	sonnig	kuss	bange	engstirnig	gemein	geizig	sterben	krise	anregung	gütig	kreativ	träumen	vertrauen	vergnügt	ausrottung	gierig	krank	töten	versagen	verbissen	0	0	0	0	0	0	0	0	0	0	0	0	0	0	0	0	0	0	0	0	0	0	0	0	0	0	0	0	0	0
2024-04-30	10:14:34	10:29:40	905612	6.6.1	4_exp_EVA_AWA_CON	2	A	B	Rpleas_acq	Oppo	Lpleas	1pleas	conawa_CS2_US6	conawa1_nomask	8	11	0	0	300	300	0	0	9325	kuss	1	0,1302083333333428072pct	besonnen	engagiert	genießen	gesittet	sonnig	kuss	bange	engstirnig	gemein	geizig	sterben	krise	anregung	gütig	kreativ	träumen	vertrauen	vergnügt	ausrottung	gierig	krank	töten	versagen	verbissen	0	0	0	0	0	0	0	0	0	0	0	0	0	0	0	0	0	0	0	0	0	0	0	0	0	0	0	0	0	0
2024-04-30	10:14:34	10:29:40	905613	6.6.1	4_exp_EVA_AWA_CON	2	A	B	Rpleas_acq	Oppo	Lpleas	1pleas	conawa_CS2_US6_confidence	conawa1_nomask	8	11	0	0	300	300	0	0	9325	probably	1	0,1302083333333428072pct	besonnen	engagiert	genießen	gesittet	sonnig	kuss	bange	engstirnig	gemein	geizig	sterben	krise	anregung	gütig	kreativ	träumen	vertrauen	vergnügt	ausrottung	gierig	krank	töten	versagen	verbissen	0	0	0	0	0	0	0	0	0	0	0	0	0	0	0	0	0	0	0	0	0	0	0	0	0	0	0	0	0	0
2024-04-30	10:14:34	10:29:47	912596	6.6.1	4_exp_EVA_AWA_CON	2	A	B	Rpleas_acq	Oppo	Lpleas	1pleas	conawa_CS2_US5	conawa1_nomask	8	12	0	0	300	300	0	0	6373	sonnig	1	0,1302083333333428072pct	besonnen	engagiert	genießen	gesittet	sonnig	kuss	bange	engstirnig	gemein	geizig	sterben	krise	anregung	gütig	kreativ	träumen	vertrauen	vergnügt	ausrottung	gierig	krank	töten	versagen	verbissen	0	0	0	0	0	0	0	0	0	0	0	0	0	0	0	0	0	0	0	0	0	0	0	0	0	0	0	0	0	0
2024-04-30	10:14:34	10:29:47	912597	6.6.1	4_exp_EVA_AWA_CON	2	A	B	Rpleas_acq	Oppo	Lpleas	1pleas	conawa_CS2_US5_confidence	conawa1_nomask	8	12	0	0	300	300	0	0	6373	probably	1	0,1302083333333428072pct	besonnen	engagiert	genießen	gesittet	sonnig	kuss	bange	engstirnig	gemein	geizig	sterben	krise	anregung	gütig	kreativ	träumen	vertrauen	vergnügt	ausrottung	gierig	krank	töten	versagen	verbissen	0	0	0	0	0	0	0	0	0	0	0	0	0	0	0	0	0	0	0	0	0	0	0	0	0	0	0	0	0	0
2024-04-30	10:14:34	10:31:42	1027601	6.6.1	4_exp_EVA_AWA_CON	2	A	B	Rpleas_acq	Oppo	Lpleas	1pleas	cond_new_pleas_456_nomask_CS2	condtest_nomask_1	11	1	400	0	300	300	0	0	630	46	1	0,1302083333333428072pct	besonnen	engagiert	genießen	gesittet	sonnig	kuss	bange	engstirnig	gemein	geizig	sterben	krise	anregung	gütig	kreativ	träumen	vertrauen	vergnügt	ausrottung	gierig	krank	töten	versagen	verbissen	1	blank2r.bmp	0	1	+	0	1	blank2r.bmp	500	1	DHJF	500	1	blank2r.bmp	880	3	vertrauen	880	1	!	1232	1	!	-1	0	0	0	0	0	0
