date	time	currenttime	elapsedtime	build	currentexpt	subject	CS_AB	US_AB	LRpleas_acq	SameOppo	condition_Lpleas	condition_1pleas	trialcode	blockcode	blocknum	trialnum	windowcenter	inwindow	pretrialpause	posttrialpause	trialduration	trialtimeout	latency	response	correct	correctedscore	US_nomask_pleas1	US_nomask_pleas2	US_nomask_pleas3	US_nomask_pleas4	US_nomask_pleas5	US_nomask_pleas6	US_nomask_unple1	US_nomask_unple2	US_nomask_unple3	US_nomask_unple4	US_nomask_unple5	US_nomask_unple6	new_nomask_pleas1	new_nomask_pleas2	new_nomask_pleas3	new_nomask_pleas4	new_nomask_pleas5	new_nomask_pleas6	new_nomask_unple1	new_nomask_unple2	new_nomask_unple3	new_nomask_unple4	new_nomask_unple5	new_nomask_unple6	stimulusnumber1	stimulusitem1	stimulusonset1	stimulusnumber2	stimulusitem2	stimulusonset2	stimulusnumber3	stimulusitem3	stimulusonset3	stimulusnumber4	stimulusitem4	stimulusonset4	stimulusnumber5	stimulusitem5	stimulusonset5	stimulusnumber6	stimulusitem6	stimulusonset6	stimulusnumber7	stimulusitem7	stimulusonset7	stimulusnumber8	stimulusitem8	stimulusonset8	stimulusnumber9	stimulusitem9	stimulusonset9	stimulusnumber10	stimulusitem10	stimulusonset10
2024-05-15	10:55:45	10:56:53	67134	6.6.1	4_exp_EVA_AWA_CON	32	A	B	Rpleas_acq	Oppo	Rpleas	2pleas	acq_new_unple_nomask	acq1_nomask	1	1	0	0	300	300	0	0	1298	46	1	0	vertrauen	vergnügt	träumen	genießen	sonnig	engagiert	versagen	verbissen	töten	gemein	sterben	engstirnig	gesittet	besonnen	anregung	gütig	kuss	kreativ	geizig	bange	ausrottung	gierig	krise	krank	1	blank2r.bmp	0	1	+	0	1	blank2r.bmp	500	3	B3r.bmp	500	1	blank2r.bmp	880	6	krank	880	0	0	0	0	0	0	0	0	0	0	0	0
2024-05-15	10:55:45	10:56:55	69854	6.6.1	4_exp_EVA_AWA_CON	32	A	B	Rpleas_acq	Oppo	Rpleas	2pleas	acq_US_unple_nomask	acq1_nomask	1	2	0	0	300	300	0	0	1236	46	1	0	vertrauen	vergnügt	träumen	genießen	sonnig	engagiert	versagen	verbissen	töten	gemein	sterben	engstirnig	gesittet	besonnen	anregung	gütig	kuss	kreativ	geizig	bange	ausrottung	gierig	krise	krank	1	blank2r.bmp	0	1	+	0	1	blank2r.bmp	500	1	CPLW	500	1	blank2r.bmp	880	6	engstirnig	880	0	0	0	0	0	0	0	0	0	0	0	0
2024-05-15	10:55:45	10:56:58	72070	6.6.1	4_exp_EVA_AWA_CON	32	A	B	Rpleas_acq	Oppo	Rpleas	2pleas	acq_US_unple_nomask	acq1_nomask	1	3	0	0	300	300	0	0	730	46	1	0	vertrauen	vergnügt	träumen	genießen	sonnig	engagiert	versagen	verbissen	töten	gemein	sterben	engstirnig	gesittet	besonnen	anregung	gütig	kuss	kreativ	geizig	bange	ausrottung	gierig	krise	krank	1	blank2r.bmp	0	1	+	0	1	blank2r.bmp	500	1	CPLW	500	1	blank2r.bmp	880	1	versagen	880	0	0	0	0	0	0	0	0	0	0	0	0
2024-05-15	10:55:45	10:57:01	74926	6.6.1	4_exp_EVA_AWA_CON	32	A	B	Rpleas_acq	Oppo	Rpleas	2pleas	acq_new_pleas_nomask	acq1_nomask	1	4	0	0	300	300	0	0	1375	50	1	0	vertrauen	vergnügt	träumen	genießen	sonnig	engagiert	versagen	verbissen	töten	gemein	sterben	engstirnig	gesittet	besonnen	anregung	gütig	kuss	kreativ	geizig	bange	ausrottung	gierig	krise	krank	1	blank2r.bmp	0	1	+	0	1	blank2r.bmp	500	8	C4r.bmp	500	1	blank2r.bmp	880	3	anregung	880	0	0	0	0	0	0	0	0	0	0	0	0
2024-05-15	10:55:45	10:57:03	77054	6.6.1	4_exp_EVA_AWA_CON	32	A	B	Rpleas_acq	Oppo	Rpleas	2pleas	acq_US_unple_nomask	acq1_nomask	1	5	0	0	300	300	0	0	641	46	1	0	vertrauen	vergnügt	träumen	genießen	sonnig	engagiert	versagen	verbissen	töten	gemein	sterben	engstirnig	gesittet	besonnen	anregung	gütig	kuss	kreativ	geizig	bange	ausrottung	gierig	krise	krank	1	blank2r.bmp	0	1	+	0	1	blank2r.bmp	500	1	CPLW	500	1	blank2r.bmp	880	3	töten	880	0	0	0	0	0	0	0	0	0	0	0	0
2024-05-15	10:55:45	10:57:05	79302	6.6.1	4_exp_EVA_AWA_CON	32	A	B	Rpleas_acq	Oppo	Rpleas	2pleas	acq_US_pleas_nomask	acq1_nomask	1	6	0	0	300	300	0	0	758	50	1	0	vertrauen	vergnügt	träumen	genießen	sonnig	engagiert	versagen	verbissen	töten	gemein	sterben	engstirnig	gesittet	besonnen	anregung	gütig	kuss	kreativ	geizig	bange	ausrottung	gierig	krise	krank	1	blank2r.bmp	0	1	+	0	1	blank2r.bmp	500	1	DHJF	500	1	blank2r.bmp	880	4	genießen	880	0	0	0	0	0	0	0	0	0	0	0	0
2024-05-15	10:55:45	10:57:07	81622	6.6.1	4_exp_EVA_AWA_CON	32	A	B	Rpleas_acq	Oppo	Rpleas	2pleas	acq_new_pleas_nomask	acq1_nomask	1	7	0	0	300	300	0	0	836	50	1	0	vertrauen	vergnügt	träumen	genießen	sonnig	engagiert	versagen	verbissen	töten	gemein	sterben	engstirnig	gesittet	besonnen	anregung	gütig	kuss	kreativ	geizig	bange	ausrottung	gierig	krise	krank	1	blank2r.bmp	0	1	+	0	1	blank2r.bmp	500	1	B1r.bmp	500	1	blank2r.bmp	880	2	besonnen	880	0	0	0	0	0	0	0	0	0	0	0	0
2024-05-15	10:55:45	10:57:09	83702	6.6.1	4_exp_EVA_AWA_CON	32	A	B	Rpleas_acq	Oppo	Rpleas	2pleas	acq_new_pleas_nomask	acq1_nomask	1	8	0	0	300	300	0	0	595	50	1	0	vertrauen	vergnügt	träumen	genießen	sonnig	engagiert	versagen	verbissen	töten	gemein	sterben	engstirnig	gesittet	besonnen	anregung	gütig	kuss	kreativ	geizig	bange	ausrottung	gierig	krise	krank	1	blank2r.bmp	0	1	+	0	1	blank2r.bmp	500	4	B4r.bmp	500	1	blank2r.bmp	880	6	kreativ	880	0	0	0	0	0	0	0	0	0	0	0	0
2024-05-15	10:55:45	10:57:12	86054	6.6.1	4_exp_EVA_AWA_CON	32	A	B	Rpleas_acq	Oppo	Rpleas	2pleas	acq_new_unple_nomask	acq1_nomask	1	9	0	0	300	300	0	0	865	46	1	0	vertrauen	vergnügt	träumen	genießen	sonnig	engagiert	versagen	verbissen	töten	gemein	sterben	engstirnig	gesittet	besonnen	anregung	gütig	kuss	kreativ	geizig	bange	ausrottung	gierig	krise	krank	1	blank2r.bmp	0	1	+	0	1	blank2r.bmp	500	5	C1r.bmp	500	1	blank2r.bmp	880	1	geizig	880	0	0	0	0	0	0	0	0	0	0	0	0
2024-05-15	10:55:45	10:57:14	88366	6.6.1	4_exp_EVA_AWA_CON	32	A	B	Rpleas_acq	Oppo	Rpleas	2pleas	acq_new_unple_nomask	acq1_nomask	1	10	0	0	300	300	0	0	826	46	1	0	vertrauen	vergnügt	träumen	genießen	sonnig	engagiert	versagen	verbissen	töten	gemein	sterben	engstirnig	gesittet	besonnen	anregung	gütig	kuss	kreativ	geizig	bange	ausrottung	gierig	krise	krank	1	blank2r.bmp	0	1	+	0	1	blank2r.bmp	500	2	B2r.bmp	500	1	blank2r.bmp	880	5	krise	880	0	0	0	0	0	0	0	0	0	0	0	0
2024-05-15	10:55:45	10:57:16	90614	6.6.1	4_exp_EVA_AWA_CON	32	A	B	Rpleas_acq	Oppo	Rpleas	2pleas	acq_US_pleas_nomask	acq1_nomask	1	11	0	0	300	300	0	0	762	50	1	0	vertrauen	vergnügt	träumen	genießen	sonnig	engagiert	versagen	verbissen	töten	gemein	sterben	engstirnig	gesittet	besonnen	anregung	gütig	kuss	kreativ	geizig	bange	ausrottung	gierig	krise	krank	1	blank2r.bmp	0	1	+	0	1	blank2r.bmp	500	1	DHJF	500	1	blank2r.bmp	880	2	vergnügt	880	0	0	0	0	0	0	0	0	0	0	0	0
2024-05-15	10:55:45	10:57:19	92936	6.6.1	4_exp_EVA_AWA_CON	32	A	B	Rpleas_acq	Oppo	Rpleas	2pleas	acq_US_pleas_nomask	acq1_nomask	1	12	0	0	300	300	0	0	631	46	0	0	vertrauen	vergnügt	träumen	genießen	sonnig	engagiert	versagen	verbissen	töten	gemein	sterben	engstirnig	gesittet	besonnen	anregung	gütig	kuss	kreativ	geizig	bange	ausrottung	gierig	krise	krank	1	blank2r.bmp	0	1	+	0	1	blank2r.bmp	500	1	DHJF	500	1	blank2r.bmp	880	5	sonnig	880	1	FEHLER	1533	0	0	0	0	0	0	0	0	0
2024-05-15	10:55:45	10:57:21	95030	6.6.1	4_exp_EVA_AWA_CON	32	A	B	Rpleas_acq	Oppo	Rpleas	2pleas	acq_new_pleas_nomask	acq1_nomask	1	13	0	0	300	300	0	0	815	50	1	0	vertrauen	vergnügt	träumen	genießen	sonnig	engagiert	versagen	verbissen	töten	gemein	sterben	engstirnig	gesittet	besonnen	anregung	gütig	kuss	kreativ	geizig	bange	ausrottung	gierig	krise	krank	1	blank2r.bmp	0	1	+	0	1	blank2r.bmp	500	7	C3r.bmp	500	1	blank2r.bmp	880	4	gütig	880	0	0	0	0	0	0	0	0	0	0	0	0
2024-05-15	10:55:45	10:57:24	97878	6.6.1	4_exp_EVA_AWA_CON	32	A	B	Rpleas_acq	Oppo	Rpleas	2pleas	acq_new_pleas_nomask	acq1_nomask	1	14	0	0	300	300	0	0	1362	50	1	0	vertrauen	vergnügt	träumen	genießen	sonnig	engagiert	versagen	verbissen	töten	gemein	sterben	engstirnig	gesittet	besonnen	anregung	gütig	kuss	kreativ	geizig	bange	ausrottung	gierig	krise	krank	1	blank2r.bmp	0	1	+	0	1	blank2r.bmp	500	6	C2r.bmp	500	1	blank2r.bmp	880	5	kuss	880	0	0	0	0	0	0	0	0	0	0	0	0
2024-05-15	10:55:45	10:57:26	100110	6.6.1	4_exp_EVA_AWA_CON	32	A	B	Rpleas_acq	Oppo	Rpleas	2pleas	acq_US_pleas_nomask	acq1_nomask	1	15	0	0	300	300	0	0	742	50	1	0	vertrauen	vergnügt	träumen	genießen	sonnig	engagiert	versagen	verbissen	töten	gemein	sterben	engstirnig	gesittet	besonnen	anregung	gütig	kuss	kreativ	geizig	bange	ausrottung	gierig	krise	krank	1	blank2r.bmp	0	1	+	0	1	blank2r.bmp	500	1	DHJF	500	1	blank2r.bmp	880	6	engagiert	880	0	0	0	0	0	0	0	0	0	0	0	0
2024-05-15	10:55:45	10:57:28	102166	6.6.1	4_exp_EVA_AWA_CON	32	A	B	Rpleas_acq	Oppo	Rpleas	2pleas	acq_US_unple_nomask	acq1_nomask	1	16	0	0	300	300	0	0	567	46	1	0	vertrauen	vergnügt	träumen	genießen	sonnig	engagiert	versagen	verbissen	töten	gemein	sterben	engstirnig	gesittet	besonnen	anregung	gütig	kuss	kreativ	geizig	bange	ausrottung	gierig	krise	krank	1	blank2r.bmp	0	1	+	0	1	blank2r.bmp	500	1	CPLW	500	1	blank2r.bmp	880	5	sterben	880	0	0	0	0	0	0	0	0	0	0	0	0
2024-05-15	10:55:45	10:57:30	104534	6.6.1	4_exp_EVA_AWA_CON	32	A	B	Rpleas_acq	Oppo	Rpleas	2pleas	acq_US_pleas_nomask	acq1_nomask	1	17	0	0	300	300	0	0	883	50	1	0	vertrauen	vergnügt	träumen	genießen	sonnig	engagiert	versagen	verbissen	töten	gemein	sterben	engstirnig	gesittet	besonnen	anregung	gütig	kuss	kreativ	geizig	bange	ausrottung	gierig	krise	krank	1	blank2r.bmp	0	1	+	0	1	blank2r.bmp	500	1	DHJF	500	1	blank2r.bmp	880	3	träumen	880	0	0	0	0	0	0	0	0	0	0	0	0
2024-05-15	10:55:45	10:57:32	106774	6.6.1	4_exp_EVA_AWA_CON	32	A	B	Rpleas_acq	Oppo	Rpleas	2pleas	acq_US_unple_nomask	acq1_nomask	1	18	0	0	300	300	0	0	752	46	1	0	vertrauen	vergnügt	träumen	genießen	sonnig	engagiert	versagen	verbissen	töten	gemein	sterben	engstirnig	gesittet	besonnen	anregung	gütig	kuss	kreativ	geizig	bange	ausrottung	gierig	krise	krank	1	blank2r.bmp	0	1	+	0	1	blank2r.bmp	500	1	CPLW	500	1	blank2r.bmp	880	4	gemein	880	0	0	0	0	0	0	0	0	0	0	0	0
2024-05-15	10:55:45	10:57:35	108950	6.6.1	4_exp_EVA_AWA_CON	32	A	B	Rpleas_acq	Oppo	Rpleas	2pleas	acq_new_unple_nomask	acq1_nomask	1	19	0	0	300	300	0	0	686	46	1	0	vertrauen	vergnügt	träumen	genießen	sonnig	engagiert	versagen	verbissen	töten	gemein	sterben	engstirnig	gesittet	besonnen	anregung	gütig	kuss	kreativ	geizig	bange	ausrottung	gierig	krise	krank	1	blank2r.bmp	0	1	+	0	1	blank2r.bmp	500	1	B1r.bmp	500	1	blank2r.bmp	880	4	gierig	880	0	0	0	0	0	0	0	0	0	0	0	0
2024-05-15	10:55:45	10:57:37	111166	6.6.1	4_exp_EVA_AWA_CON	32	A	B	Rpleas_acq	Oppo	Rpleas	2pleas	acq_new_pleas_nomask	acq1_nomask	1	20	0	0	300	300	0	0	731	50	1	0	vertrauen	vergnügt	träumen	genießen	sonnig	engagiert	versagen	verbissen	töten	gemein	sterben	engstirnig	gesittet	besonnen	anregung	gütig	kuss	kreativ	geizig	bange	ausrottung	gierig	krise	krank	1	blank2r.bmp	0	1	+	0	1	blank2r.bmp	500	8	C4r.bmp	500	1	blank2r.bmp	880	1	gesittet	880	0	0	0	0	0	0	0	0	0	0	0	0
2024-05-15	10:55:45	10:57:39	113678	6.6.1	4_exp_EVA_AWA_CON	32	A	B	Rpleas_acq	Oppo	Rpleas	2pleas	acq_US_unple_nomask	acq1_nomask	1	21	0	0	300	300	0	0	1031	46	1	0	vertrauen	vergnügt	träumen	genießen	sonnig	engagiert	versagen	verbissen	töten	gemein	sterben	engstirnig	gesittet	besonnen	anregung	gütig	kuss	kreativ	geizig	bange	ausrottung	gierig	krise	krank	1	blank2r.bmp	0	1	+	0	1	blank2r.bmp	500	1	CPLW	500	1	blank2r.bmp	880	2	verbissen	880	0	0	0	0	0	0	0	0	0	0	0	0
2024-05-15	10:55:45	10:57:42	116014	6.6.1	4_exp_EVA_AWA_CON	32	A	B	Rpleas_acq	Oppo	Rpleas	2pleas	acq_new_unple_nomask	acq1_nomask	1	22	0	0	300	300	0	0	846	46	1	0	vertrauen	vergnügt	träumen	genießen	sonnig	engagiert	versagen	verbissen	töten	gemein	sterben	engstirnig	gesittet	besonnen	anregung	gütig	kuss	kreativ	geizig	bange	ausrottung	gierig	krise	krank	1	blank2r.bmp	0	1	+	0	1	blank2r.bmp	500	5	C1r.bmp	500	1	blank2r.bmp	880	2	bange	880	0	0	0	0	0	0	0	0	0	0	0	0
2024-05-15	10:55:45	10:57:44	118126	6.6.1	4_exp_EVA_AWA_CON	32	A	B	Rpleas_acq	Oppo	Rpleas	2pleas	acq_new_unple_nomask	acq1_nomask	1	23	0	0	300	300	0	0	626	46	1	0	vertrauen	vergnügt	träumen	genießen	sonnig	engagiert	versagen	verbissen	töten	gemein	sterben	engstirnig	gesittet	besonnen	anregung	gütig	kuss	kreativ	geizig	bange	ausrottung	gierig	krise	krank	1	blank2r.bmp	0	1	+	0	1	blank2r.bmp	500	6	C2r.bmp	500	1	blank2r.bmp	880	3	ausrottung	880	0	0	0	0	0	0	0	0	0	0	0	0
2024-05-15	10:55:45	10:57:46	120406	6.6.1	4_exp_EVA_AWA_CON	32	A	B	Rpleas_acq	Oppo	Rpleas	2pleas	acq_US_pleas_nomask	acq1_nomask	1	24	0	0	300	300	0	0	795	50	1	0	vertrauen	vergnügt	träumen	genießen	sonnig	engagiert	versagen	verbissen	töten	gemein	sterben	engstirnig	gesittet	besonnen	anregung	gütig	kuss	kreativ	geizig	bange	ausrottung	gierig	krise	krank	1	blank2r.bmp	0	1	+	0	1	blank2r.bmp	500	1	DHJF	500	1	blank2r.bmp	880	1	vertrauen	880	0	0	0	0	0	0	0	0	0	0	0	0
2024-05-15	10:55:45	10:57:48	122606	6.6.1	4_exp_EVA_AWA_CON	32	A	B	Rpleas_acq	Oppo	Rpleas	2pleas	acq_US_unple_nomask	acq1_nomask	1	25	0	0	300	300	0	0	713	46	1	0	vertrauen	vergnügt	träumen	genießen	sonnig	engagiert	versagen	verbissen	töten	gemein	sterben	engstirnig	gesittet	besonnen	anregung	gütig	kuss	kreativ	geizig	bange	ausrottung	gierig	krise	krank	1	blank2r.bmp	0	1	+	0	1	blank2r.bmp	500	1	CPLW	500	1	blank2r.bmp	880	1	versagen	880	0	0	0	0	0	0	0	0	0	0	0	0
2024-05-15	10:55:45	10:57:50	124798	6.6.1	4_exp_EVA_AWA_CON	32	A	B	Rpleas_acq	Oppo	Rpleas	2pleas	acq_new_pleas_nomask	acq1_nomask	1	26	0	0	300	300	0	0	704	50	1	0	vertrauen	vergnügt	träumen	genießen	sonnig	engagiert	versagen	verbissen	töten	gemein	sterben	engstirnig	gesittet	besonnen	anregung	gütig	kuss	kreativ	geizig	bange	ausrottung	gierig	krise	krank	1	blank2r.bmp	0	1	+	0	1	blank2r.bmp	500	2	B2r.bmp	500	1	blank2r.bmp	880	4	gütig	880	0	0	0	0	0	0	0	0	0	0	0	0
2024-05-15	10:55:45	10:57:53	127207	6.6.1	4_exp_EVA_AWA_CON	32	A	B	Rpleas_acq	Oppo	Rpleas	2pleas	acq_new_pleas_nomask	acq1_nomask	1	27	0	0	300	300	0	0	920	50	1	0	vertrauen	vergnügt	träumen	genießen	sonnig	engagiert	versagen	verbissen	töten	gemein	sterben	engstirnig	gesittet	besonnen	anregung	gütig	kuss	kreativ	geizig	bange	ausrottung	gierig	krise	krank	1	blank2r.bmp	0	1	+	0	1	blank2r.bmp	500	7	C3r.bmp	500	1	blank2r.bmp	880	5	kuss	880	0	0	0	0	0	0	0	0	0	0	0	0
2024-05-15	10:55:45	10:57:55	129534	6.6.1	4_exp_EVA_AWA_CON	32	A	B	Rpleas_acq	Oppo	Rpleas	2pleas	acq_US_pleas_nomask	acq1_nomask	1	28	0	0	300	300	0	0	847	50	1	0	vertrauen	vergnügt	träumen	genießen	sonnig	engagiert	versagen	verbissen	töten	gemein	sterben	engstirnig	gesittet	besonnen	anregung	gütig	kuss	kreativ	geizig	bange	ausrottung	gierig	krise	krank	1	blank2r.bmp	0	1	+	0	1	blank2r.bmp	500	1	DHJF	500	1	blank2r.bmp	880	1	vertrauen	880	0	0	0	0	0	0	0	0	0	0	0	0
2024-05-15	10:55:45	10:57:58	131967	6.6.1	4_exp_EVA_AWA_CON	32	A	B	Rpleas_acq	Oppo	Rpleas	2pleas	acq_new_unple_nomask	acq1_nomask	1	29	0	0	300	300	0	0	747	50	0	0	vertrauen	vergnügt	träumen	genießen	sonnig	engagiert	versagen	verbissen	töten	gemein	sterben	engstirnig	gesittet	besonnen	anregung	gütig	kuss	kreativ	geizig	bange	ausrottung	gierig	krise	krank	1	blank2r.bmp	0	1	+	0	1	blank2r.bmp	500	4	B4r.bmp	500	1	blank2r.bmp	880	5	krise	880	1	FEHLER	1649	0	0	0	0	0	0	0	0	0
2024-05-15	10:55:45	10:58:00	134014	6.6.1	4_exp_EVA_AWA_CON	32	A	B	Rpleas_acq	Oppo	Rpleas	2pleas	acq_US_pleas_nomask	acq1_nomask	1	30	0	0	300	300	0	0	764	50	1	0	vertrauen	vergnügt	träumen	genießen	sonnig	engagiert	versagen	verbissen	töten	gemein	sterben	engstirnig	gesittet	besonnen	anregung	gütig	kuss	kreativ	geizig	bange	ausrottung	gierig	krise	krank	1	blank2r.bmp	0	1	+	0	1	blank2r.bmp	500	1	DHJF	500	1	blank2r.bmp	880	2	vergnügt	880	0	0	0	0	0	0	0	0	0	0	0	0
2024-05-15	10:55:45	10:58:02	136166	6.6.1	4_exp_EVA_AWA_CON	32	A	B	Rpleas_acq	Oppo	Rpleas	2pleas	acq_new_pleas_nomask	acq1_nomask	1	31	0	0	300	300	0	0	664	50	1	0	vertrauen	vergnügt	träumen	genießen	sonnig	engagiert	versagen	verbissen	töten	gemein	sterben	engstirnig	gesittet	besonnen	anregung	gütig	kuss	kreativ	geizig	bange	ausrottung	gierig	krise	krank	1	blank2r.bmp	0	1	+	0	1	blank2r.bmp	500	3	B3r.bmp	500	1	blank2r.bmp	880	6	kreativ	880	0	0	0	0	0	0	0	0	0	0	0	0
2024-05-15	10:55:45	10:58:04	138342	6.6.1	4_exp_EVA_AWA_CON	32	A	B	Rpleas_acq	Oppo	Rpleas	2pleas	acq_US_unple_nomask	acq1_nomask	1	32	0	0	300	300	0	0	689	46	1	0	vertrauen	vergnügt	träumen	genießen	sonnig	engagiert	versagen	verbissen	töten	gemein	sterben	engstirnig	gesittet	besonnen	anregung	gütig	kuss	kreativ	geizig	bange	ausrottung	gierig	krise	krank	1	blank2r.bmp	0	1	+	0	1	blank2r.bmp	500	1	CPLW	500	1	blank2r.bmp	880	4	gemein	880	0	0	0	0	0	0	0	0	0	0	0	0
2024-05-15	10:55:45	10:58:06	140502	6.6.1	4_exp_EVA_AWA_CON	32	A	B	Rpleas_acq	Oppo	Rpleas	2pleas	acq_new_unple_nomask	acq1_nomask	1	33	0	0	300	300	0	0	678	46	1	0	vertrauen	vergnügt	träumen	genießen	sonnig	engagiert	versagen	verbissen	töten	gemein	sterben	engstirnig	gesittet	besonnen	anregung	gütig	kuss	kreativ	geizig	bange	ausrottung	gierig	krise	krank	1	blank2r.bmp	0	1	+	0	1	blank2r.bmp	500	3	B3r.bmp	500	1	blank2r.bmp	880	2	bange	880	0	0	0	0	0	0	0	0	0	0	0	0
2024-05-15	10:55:45	10:58:08	142614	6.6.1	4_exp_EVA_AWA_CON	32	A	B	Rpleas_acq	Oppo	Rpleas	2pleas	acq_US_pleas_nomask	acq1_nomask	1	34	0	0	300	300	0	0	628	50	1	0	vertrauen	vergnügt	träumen	genießen	sonnig	engagiert	versagen	verbissen	töten	gemein	sterben	engstirnig	gesittet	besonnen	anregung	gütig	kuss	kreativ	geizig	bange	ausrottung	gierig	krise	krank	1	blank2r.bmp	0	1	+	0	1	blank2r.bmp	500	1	DHJF	500	1	blank2r.bmp	880	5	sonnig	880	0	0	0	0	0	0	0	0	0	0	0	0
2024-05-15	10:55:45	10:58:10	144822	6.6.1	4_exp_EVA_AWA_CON	32	A	B	Rpleas_acq	Oppo	Rpleas	2pleas	acq_new_unple_nomask	acq1_nomask	1	35	0	0	300	300	0	0	725	46	1	0	vertrauen	vergnügt	träumen	genießen	sonnig	engagiert	versagen	verbissen	töten	gemein	sterben	engstirnig	gesittet	besonnen	anregung	gütig	kuss	kreativ	geizig	bange	ausrottung	gierig	krise	krank	1	blank2r.bmp	0	1	+	0	1	blank2r.bmp	500	4	B4r.bmp	500	1	blank2r.bmp	880	4	gierig	880	0	0	0	0	0	0	0	0	0	0	0	0
2024-05-15	10:55:45	10:58:13	146902	6.6.1	4_exp_EVA_AWA_CON	32	A	B	Rpleas_acq	Oppo	Rpleas	2pleas	acq_US_unple_nomask	acq1_nomask	1	36	0	0	300	300	0	0	593	46	1	0	vertrauen	vergnügt	träumen	genießen	sonnig	engagiert	versagen	verbissen	töten	gemein	sterben	engstirnig	gesittet	besonnen	anregung	gütig	kuss	kreativ	geizig	bange	ausrottung	gierig	krise	krank	1	blank2r.bmp	0	1	+	0	1	blank2r.bmp	500	1	CPLW	500	1	blank2r.bmp	880	3	töten	880	0	0	0	0	0	0	0	0	0	0	0	0
2024-05-15	10:55:45	10:58:43	177752	6.6.1	4_exp_EVA_AWA_CON	32	A	B	Rpleas_acq	Oppo	Rpleas	2pleas	acq_US_unple_nomask	acq2_nomask	2	1	480	0	300	300	0	0	853	46	1	0	vertrauen	vergnügt	träumen	genießen	sonnig	engagiert	versagen	verbissen	töten	gemein	sterben	engstirnig	gesittet	besonnen	anregung	gütig	kuss	kreativ	geizig	bange	ausrottung	gierig	krise	krank	1	blank2r.bmp	0	1	+	0	1	blank2r.bmp	500	1	CPLW	500	1	blank2r.bmp	880	2	verbissen	880	1	!	1312	1	!	-1	0	0	0	0	0	0
2024-05-15	10:55:45	10:58:46	180104	6.6.1	4_exp_EVA_AWA_CON	32	A	B	Rpleas_acq	Oppo	Rpleas	2pleas	acq_US_unple_nomask	acq2_nomask	2	2	480	0	300	300	0	0	574	46	1	0	vertrauen	vergnügt	träumen	genießen	sonnig	engagiert	versagen	verbissen	töten	gemein	sterben	engstirnig	gesittet	besonnen	anregung	gütig	kuss	kreativ	geizig	bange	ausrottung	gierig	krise	krank	1	blank2r.bmp	0	1	+	0	1	blank2r.bmp	500	1	CPLW	500	1	blank2r.bmp	880	6	engstirnig	880	1	!	1313	1	!	-1	0	0	0	0	0	0
2024-05-15	10:55:45	10:58:48	182544	6.6.1	4_exp_EVA_AWA_CON	32	A	B	Rpleas_acq	Oppo	Rpleas	2pleas	acq_new_pleas_nomask	acq2_nomask	2	3	480	0	300	300	0	0	662	50	1	0	vertrauen	vergnügt	träumen	genießen	sonnig	engagiert	versagen	verbissen	töten	gemein	sterben	engstirnig	gesittet	besonnen	anregung	gütig	kuss	kreativ	geizig	bange	ausrottung	gierig	krise	krank	1	blank2r.bmp	0	1	+	0	1	blank2r.bmp	500	6	C2r.bmp	500	1	blank2r.bmp	880	2	besonnen	880	1	!	1313	1	!	-1	0	0	0	0	0	0
2024-05-15	10:55:45	10:58:50	184771	6.6.1	4_exp_EVA_AWA_CON	32	A	B	Rpleas_acq	Oppo	Rpleas	2pleas	acq_US_pleas_nomask	acq2_nomask	2	4	480	0	300	300	0	0	245	46	0	0	vertrauen	vergnügt	träumen	genießen	sonnig	engagiert	versagen	verbissen	töten	gemein	sterben	engstirnig	gesittet	besonnen	anregung	gütig	kuss	kreativ	geizig	bange	ausrottung	gierig	krise	krank	1	blank2r.bmp	0	1	+	0	1	blank2r.bmp	500	1	DHJF	500	1	blank2r.bmp	880	6	engagiert	880	1	FEHLER	1438	1	!	-1	1	!	-1	0	0	0
2024-05-15	10:55:45	10:58:53	187019	6.6.1	4_exp_EVA_AWA_CON	32	A	B	Rpleas_acq	Oppo	Rpleas	2pleas	acq_new_pleas_nomask	acq2_nomask	2	5	480	1	300	300	0	0	471	46	0	0	vertrauen	vergnügt	träumen	genießen	sonnig	engagiert	versagen	verbissen	töten	gemein	sterben	engstirnig	gesittet	besonnen	anregung	gütig	kuss	kreativ	geizig	bange	ausrottung	gierig	krise	krank	1	blank2r.bmp	0	1	+	0	1	blank2r.bmp	500	2	B2r.bmp	500	1	blank2r.bmp	880	1	gesittet	880	1	FEHLER	1665	1	!	1313	1	!	1373	0	0	0
2024-05-15	10:55:45	10:58:55	189051	6.6.1	4_exp_EVA_AWA_CON	32	A	B	Rpleas_acq	Oppo	Rpleas	2pleas	acq_US_unple_nomask	acq2_nomask	2	6	480	0	300	300	0	0	252	50	0	0	vertrauen	vergnügt	träumen	genießen	sonnig	engagiert	versagen	verbissen	töten	gemein	sterben	engstirnig	gesittet	besonnen	anregung	gütig	kuss	kreativ	geizig	bange	ausrottung	gierig	krise	krank	1	blank2r.bmp	0	1	+	0	1	blank2r.bmp	500	1	CPLW	500	1	blank2r.bmp	880	5	sterben	880	1	FEHLER	1445	1	!	-1	1	!	-1	0	0	0
2024-05-15	10:55:45	10:58:57	191328	6.6.1	4_exp_EVA_AWA_CON	32	A	B	Rpleas_acq	Oppo	Rpleas	2pleas	acq_new_unple_nomask	acq2_nomask	2	7	480	0	300	300	0	0	701	46	1	0	vertrauen	vergnügt	träumen	genießen	sonnig	engagiert	versagen	verbissen	töten	gemein	sterben	engstirnig	gesittet	besonnen	anregung	gütig	kuss	kreativ	geizig	bange	ausrottung	gierig	krise	krank	1	blank2r.bmp	0	1	+	0	1	blank2r.bmp	500	8	C4r.bmp	500	1	blank2r.bmp	880	6	krank	880	1	!	1313	1	!	-1	0	0	0	0	0	0
2024-05-15	10:55:45	10:58:59	193776	6.6.1	4_exp_EVA_AWA_CON	32	A	B	Rpleas_acq	Oppo	Rpleas	2pleas	acq_new_unple_nomask	acq2_nomask	2	8	480	0	300	300	0	0	667	46	1	0	vertrauen	vergnügt	träumen	genießen	sonnig	engagiert	versagen	verbissen	töten	gemein	sterben	engstirnig	gesittet	besonnen	anregung	gütig	kuss	kreativ	geizig	bange	ausrottung	gierig	krise	krank	1	blank2r.bmp	0	1	+	0	1	blank2r.bmp	500	1	B1r.bmp	500	1	blank2r.bmp	880	3	ausrottung	880	1	!	1313	1	!	-1	0	0	0	0	0	0
2024-05-15	10:55:45	10:59:02	196110	6.6.1	4_exp_EVA_AWA_CON	32	A	B	Rpleas_acq	Oppo	Rpleas	2pleas	acq_new_pleas_nomask	acq2_nomask	2	9	480	0	300	300	0	0	561	50	1	0	vertrauen	vergnügt	träumen	genießen	sonnig	engagiert	versagen	verbissen	töten	gemein	sterben	engstirnig	gesittet	besonnen	anregung	gütig	kuss	kreativ	geizig	bange	ausrottung	gierig	krise	krank	1	blank2r.bmp	0	1	+	0	1	blank2r.bmp	500	5	C1r.bmp	500	1	blank2r.bmp	880	3	anregung	880	1	!	1312	1	!	-1	0	0	0	0	0	0
2024-05-15	10:55:45	10:59:04	198386	6.6.1	4_exp_EVA_AWA_CON	32	A	B	Rpleas_acq	Oppo	Rpleas	2pleas	acq_US_pleas_nomask	acq2_nomask	2	10	480	1	300	300	0	0	492	50	1	0	vertrauen	vergnügt	träumen	genießen	sonnig	engagiert	versagen	verbissen	töten	gemein	sterben	engstirnig	gesittet	besonnen	anregung	gütig	kuss	kreativ	geizig	bange	ausrottung	gierig	krise	krank	1	blank2r.bmp	0	1	+	0	1	blank2r.bmp	500	1	DHJF	500	1	blank2r.bmp	880	3	träumen	880	1	!	1313	1	!	1393	0	0	0	0	0	0
2024-05-15	10:55:45	10:59:06	200650	6.6.1	4_exp_EVA_AWA_CON	32	A	B	Rpleas_acq	Oppo	Rpleas	2pleas	acq_new_unple_nomask	acq2_nomask	2	11	480	1	300	300	0	0	484	46	1	0	vertrauen	vergnügt	träumen	genießen	sonnig	engagiert	versagen	verbissen	töten	gemein	sterben	engstirnig	gesittet	besonnen	anregung	gütig	kuss	kreativ	geizig	bange	ausrottung	gierig	krise	krank	1	blank2r.bmp	0	1	+	0	1	blank2r.bmp	500	7	C3r.bmp	500	1	blank2r.bmp	880	1	geizig	880	1	!	1313	1	!	1386	0	0	0	0	0	0
2024-05-15	10:55:45	10:59:09	202848	6.6.1	4_exp_EVA_AWA_CON	32	A	B	Rpleas_acq	Oppo	Rpleas	2pleas	acq_US_pleas_nomask	acq2_nomask	2	12	480	1	300	300	0	0	423	50	1	0	vertrauen	vergnügt	träumen	genießen	sonnig	engagiert	versagen	verbissen	töten	gemein	sterben	engstirnig	gesittet	besonnen	anregung	gütig	kuss	kreativ	geizig	bange	ausrottung	gierig	krise	krank	1	blank2r.bmp	0	1	+	0	1	blank2r.bmp	500	1	DHJF	500	1	blank2r.bmp	880	4	genießen	880	1	!	1313	1	!	1323	0	0	0	0	0	0
2024-05-15	10:55:45	10:59:11	205180	6.6.1	4_exp_EVA_AWA_CON	32	A	B	Rpleas_acq	Oppo	Rpleas	2pleas	acq_US_pleas_nomask	acq2_nomask	2	13	480	0	300	300	0	0	349	46	0	0	vertrauen	vergnügt	träumen	genießen	sonnig	engagiert	versagen	verbissen	töten	gemein	sterben	engstirnig	gesittet	besonnen	anregung	gütig	kuss	kreativ	geizig	bange	ausrottung	gierig	krise	krank	1	blank2r.bmp	0	1	+	0	1	blank2r.bmp	500	1	DHJF	500	1	blank2r.bmp	880	6	engagiert	880	1	FEHLER	1544	1	!	-1	1	!	-1	0	0	0
2024-05-15	10:55:45	10:59:13	207218	6.6.1	4_exp_EVA_AWA_CON	32	A	B	Rpleas_acq	Oppo	Rpleas	2pleas	acq_US_unple_nomask	acq2_nomask	2	14	480	1	300	300	0	0	458	46	1	0	vertrauen	vergnügt	träumen	genießen	sonnig	engagiert	versagen	verbissen	töten	gemein	sterben	engstirnig	gesittet	besonnen	anregung	gütig	kuss	kreativ	geizig	bange	ausrottung	gierig	krise	krank	1	blank2r.bmp	0	1	+	0	1	blank2r.bmp	500	1	CPLW	500	1	blank2r.bmp	880	2	verbissen	880	1	!	1312	1	!	1360	0	0	0	0	0	0
2024-05-15	10:55:45	10:59:15	209704	6.6.1	4_exp_EVA_AWA_CON	32	A	B	Rpleas_acq	Oppo	Rpleas	2pleas	acq_new_pleas_nomask	acq2_nomask	2	15	480	0	300	300	0	0	705	50	1	0	vertrauen	vergnügt	träumen	genießen	sonnig	engagiert	versagen	verbissen	töten	gemein	sterben	engstirnig	gesittet	besonnen	anregung	gütig	kuss	kreativ	geizig	bange	ausrottung	gierig	krise	krank	1	blank2r.bmp	0	1	+	0	1	blank2r.bmp	500	5	C1r.bmp	500	1	blank2r.bmp	880	1	gesittet	880	1	!	1313	1	!	-1	0	0	0	0	0	0
2024-05-15	10:55:45	10:59:18	212018	6.6.1	4_exp_EVA_AWA_CON	32	A	B	Rpleas_acq	Oppo	Rpleas	2pleas	acq_new_unple_nomask	acq2_nomask	2	16	480	1	300	300	0	0	535	46	1	0	vertrauen	vergnügt	träumen	genießen	sonnig	engagiert	versagen	verbissen	töten	gemein	sterben	engstirnig	gesittet	besonnen	anregung	gütig	kuss	kreativ	geizig	bange	ausrottung	gierig	krise	krank	1	blank2r.bmp	0	1	+	0	1	blank2r.bmp	500	7	C3r.bmp	500	1	blank2r.bmp	880	4	gierig	880	1	!	1312	1	!	1436	0	0	0	0	0	0
2024-05-15	10:55:45	10:59:20	214371	6.6.1	4_exp_EVA_AWA_CON	32	A	B	Rpleas_acq	Oppo	Rpleas	2pleas	acq_US_unple_nomask	acq2_nomask	2	17	480	0	300	300	0	0	376	50	0	0	vertrauen	vergnügt	träumen	genießen	sonnig	engagiert	versagen	verbissen	töten	gemein	sterben	engstirnig	gesittet	besonnen	anregung	gütig	kuss	kreativ	geizig	bange	ausrottung	gierig	krise	krank	1	blank2r.bmp	0	1	+	0	1	blank2r.bmp	500	1	CPLW	500	1	blank2r.bmp	880	4	gemein	880	1	FEHLER	1569	1	!	-1	1	!	-1	0	0	0
2024-05-15	10:55:45	10:59:22	216568	6.6.1	4_exp_EVA_AWA_CON	32	A	B	Rpleas_acq	Oppo	Rpleas	2pleas	acq_new_unple_nomask	acq2_nomask	2	18	480	0	300	300	0	0	624	46	1	0	vertrauen	vergnügt	träumen	genießen	sonnig	engagiert	versagen	verbissen	töten	gemein	sterben	engstirnig	gesittet	besonnen	anregung	gütig	kuss	kreativ	geizig	bange	ausrottung	gierig	krise	krank	1	blank2r.bmp	0	1	+	0	1	blank2r.bmp	500	4	B4r.bmp	500	1	blank2r.bmp	880	5	krise	880	1	!	1313	1	!	-1	0	0	0	0	0	0
2024-05-15	10:55:45	10:59:24	218744	6.6.1	4_exp_EVA_AWA_CON	32	A	B	Rpleas_acq	Oppo	Rpleas	2pleas	acq_US_pleas_nomask	acq2_nomask	2	19	480	0	300	300	0	0	399	50	1	0	vertrauen	vergnügt	träumen	genießen	sonnig	engagiert	versagen	verbissen	töten	gemein	sterben	engstirnig	gesittet	besonnen	anregung	gütig	kuss	kreativ	geizig	bange	ausrottung	gierig	krise	krank	1	blank2r.bmp	0	1	+	0	1	blank2r.bmp	500	1	DHJF	500	1	blank2r.bmp	880	3	träumen	880	1	!	-1	1	!	-1	0	0	0	0	0	0
2024-05-15	10:55:45	10:59:27	220970	6.6.1	4_exp_EVA_AWA_CON	32	A	B	Rpleas_acq	Oppo	Rpleas	2pleas	acq_US_unple_nomask	acq2_nomask	2	20	480	1	300	300	0	0	451	46	1	0	vertrauen	vergnügt	träumen	genießen	sonnig	engagiert	versagen	verbissen	töten	gemein	sterben	engstirnig	gesittet	besonnen	anregung	gütig	kuss	kreativ	geizig	bange	ausrottung	gierig	krise	krank	1	blank2r.bmp	0	1	+	0	1	blank2r.bmp	500	1	CPLW	500	1	blank2r.bmp	880	6	engstirnig	880	1	!	1313	1	!	1353	0	0	0	0	0	0
2024-05-15	10:55:45	10:59:29	223129	6.6.1	4_exp_EVA_AWA_CON	32	A	B	Rpleas_acq	Oppo	Rpleas	2pleas	acq_US_pleas_nomask	acq2_nomask	2	21	480	0	300	300	0	0	380	50	1	0	vertrauen	vergnügt	träumen	genießen	sonnig	engagiert	versagen	verbissen	töten	gemein	sterben	engstirnig	gesittet	besonnen	anregung	gütig	kuss	kreativ	geizig	bange	ausrottung	gierig	krise	krank	1	blank2r.bmp	0	1	+	0	1	blank2r.bmp	500	1	DHJF	500	1	blank2r.bmp	880	5	sonnig	880	1	!	-1	1	!	-1	0	0	0	0	0	0
2024-05-15	10:55:45	10:59:31	225338	6.6.1	4_exp_EVA_AWA_CON	32	A	B	Rpleas_acq	Oppo	Rpleas	2pleas	acq_new_unple_nomask	acq2_nomask	2	22	480	1	300	300	0	0	426	46	1	0	vertrauen	vergnügt	träumen	genießen	sonnig	engagiert	versagen	verbissen	töten	gemein	sterben	engstirnig	gesittet	besonnen	anregung	gütig	kuss	kreativ	geizig	bange	ausrottung	gierig	krise	krank	1	blank2r.bmp	0	1	+	0	1	blank2r.bmp	500	1	B1r.bmp	500	1	blank2r.bmp	880	3	ausrottung	880	1	!	1313	1	!	1328	0	0	0	0	0	0
2024-05-15	10:55:45	10:59:33	227626	6.6.1	4_exp_EVA_AWA_CON	32	A	B	Rpleas_acq	Oppo	Rpleas	2pleas	acq_new_pleas_nomask	acq2_nomask	2	23	480	1	300	300	0	0	513	50	1	0	vertrauen	vergnügt	träumen	genießen	sonnig	engagiert	versagen	verbissen	töten	gemein	sterben	engstirnig	gesittet	besonnen	anregung	gütig	kuss	kreativ	geizig	bange	ausrottung	gierig	krise	krank	1	blank2r.bmp	0	1	+	0	1	blank2r.bmp	500	3	B3r.bmp	500	1	blank2r.bmp	880	2	besonnen	880	1	!	1313	1	!	1414	0	0	0	0	0	0
2024-05-15	10:55:45	10:59:36	230066	6.6.1	4_exp_EVA_AWA_CON	32	A	B	Rpleas_acq	Oppo	Rpleas	2pleas	acq_new_pleas_nomask	acq2_nomask	2	24	480	1	300	300	0	0	461	46	0	0	vertrauen	vergnügt	träumen	genießen	sonnig	engagiert	versagen	verbissen	töten	gemein	sterben	engstirnig	gesittet	besonnen	anregung	gütig	kuss	kreativ	geizig	bange	ausrottung	gierig	krise	krank	1	blank2r.bmp	0	1	+	0	1	blank2r.bmp	500	8	C4r.bmp	500	1	blank2r.bmp	880	6	kreativ	880	1	FEHLER	1654	1	!	1312	1	!	1363	0	0	0
2024-05-15	10:55:45	10:59:38	232178	6.6.1	4_exp_EVA_AWA_CON	32	A	B	Rpleas_acq	Oppo	Rpleas	2pleas	acq_US_unple_nomask	acq2_nomask	2	25	480	1	300	300	0	0	532	46	1	0	vertrauen	vergnügt	träumen	genießen	sonnig	engagiert	versagen	verbissen	töten	gemein	sterben	engstirnig	gesittet	besonnen	anregung	gütig	kuss	kreativ	geizig	bange	ausrottung	gierig	krise	krank	1	blank2r.bmp	0	1	+	0	1	blank2r.bmp	500	1	CPLW	500	1	blank2r.bmp	880	5	sterben	880	1	!	1313	1	!	1433	0	0	0	0	0	0
2024-05-15	10:55:45	10:59:40	234491	6.6.1	4_exp_EVA_AWA_CON	32	A	B	Rpleas_acq	Oppo	Rpleas	2pleas	acq_new_unple_nomask	acq2_nomask	2	26	480	0	300	300	0	0	332	50	0	0	vertrauen	vergnügt	träumen	genießen	sonnig	engagiert	versagen	verbissen	töten	gemein	sterben	engstirnig	gesittet	besonnen	anregung	gütig	kuss	kreativ	geizig	bange	ausrottung	gierig	krise	krank	1	blank2r.bmp	0	1	+	0	1	blank2r.bmp	500	6	C2r.bmp	500	1	blank2r.bmp	880	1	geizig	880	1	FEHLER	1526	1	!	-1	1	!	-1	0	0	0
2024-05-15	10:55:45	10:59:43	236848	6.6.1	4_exp_EVA_AWA_CON	32	A	B	Rpleas_acq	Oppo	Rpleas	2pleas	acq_US_pleas_nomask	acq2_nomask	2	27	480	0	300	300	0	0	781	50	1	0	vertrauen	vergnügt	träumen	genießen	sonnig	engagiert	versagen	verbissen	töten	gemein	sterben	engstirnig	gesittet	besonnen	anregung	gütig	kuss	kreativ	geizig	bange	ausrottung	gierig	krise	krank	1	blank2r.bmp	0	1	+	0	1	blank2r.bmp	500	1	DHJF	500	1	blank2r.bmp	880	2	vergnügt	880	1	!	1313	1	!	-1	0	0	0	0	0	0
2024-05-15	10:55:45	10:59:45	239132	6.6.1	4_exp_EVA_AWA_CON	32	A	B	Rpleas_acq	Oppo	Rpleas	2pleas	acq_US_pleas_nomask	acq2_nomask	2	28	480	0	300	300	0	0	299	46	0	0	vertrauen	vergnügt	träumen	genießen	sonnig	engagiert	versagen	verbissen	töten	gemein	sterben	engstirnig	gesittet	besonnen	anregung	gütig	kuss	kreativ	geizig	bange	ausrottung	gierig	krise	krank	1	blank2r.bmp	0	1	+	0	1	blank2r.bmp	500	1	DHJF	500	1	blank2r.bmp	880	4	genießen	880	1	FEHLER	1494	1	!	-1	1	!	-1	0	0	0
2024-05-15	10:55:45	10:59:47	241368	6.6.1	4_exp_EVA_AWA_CON	32	A	B	Rpleas_acq	Oppo	Rpleas	2pleas	acq_US_unple_nomask	acq2_nomask	2	29	480	0	300	300	0	0	658	46	1	0	vertrauen	vergnügt	träumen	genießen	sonnig	engagiert	versagen	verbissen	töten	gemein	sterben	engstirnig	gesittet	besonnen	anregung	gütig	kuss	kreativ	geizig	bange	ausrottung	gierig	krise	krank	1	blank2r.bmp	0	1	+	0	1	blank2r.bmp	500	1	CPLW	500	1	blank2r.bmp	880	3	töten	880	1	!	1312	1	!	-1	0	0	0	0	0	0
2024-05-15	10:55:45	10:59:49	243692	6.6.1	4_exp_EVA_AWA_CON	32	A	B	Rpleas_acq	Oppo	Rpleas	2pleas	acq_new_unple_nomask	acq2_nomask	2	30	480	0	300	300	0	0	346	50	0	0	vertrauen	vergnügt	träumen	genießen	sonnig	engagiert	versagen	verbissen	töten	gemein	sterben	engstirnig	gesittet	besonnen	anregung	gütig	kuss	kreativ	geizig	bange	ausrottung	gierig	krise	krank	1	blank2r.bmp	0	1	+	0	1	blank2r.bmp	500	2	B2r.bmp	500	1	blank2r.bmp	880	6	krank	880	1	FEHLER	1540	1	!	-1	1	!	-1	0	0	0
2024-05-15	10:55:45	10:59:52	246000	6.6.1	4_exp_EVA_AWA_CON	32	A	B	Rpleas_acq	Oppo	Rpleas	2pleas	acq_new_unple_nomask	acq2_nomask	2	31	480	0	300	300	0	0	737	46	1	0	vertrauen	vergnügt	träumen	genießen	sonnig	engagiert	versagen	verbissen	töten	gemein	sterben	engstirnig	gesittet	besonnen	anregung	gütig	kuss	kreativ	geizig	bange	ausrottung	gierig	krise	krank	1	blank2r.bmp	0	1	+	0	1	blank2r.bmp	500	3	B3r.bmp	500	1	blank2r.bmp	880	2	bange	880	1	!	1313	1	!	-1	0	0	0	0	0	0
2024-05-15	10:55:45	10:59:54	248226	6.6.1	4_exp_EVA_AWA_CON	32	A	B	Rpleas_acq	Oppo	Rpleas	2pleas	acq_new_pleas_nomask	acq2_nomask	2	32	480	1	300	300	0	0	449	50	1	0	vertrauen	vergnügt	träumen	genießen	sonnig	engagiert	versagen	verbissen	töten	gemein	sterben	engstirnig	gesittet	besonnen	anregung	gütig	kuss	kreativ	geizig	bange	ausrottung	gierig	krise	krank	1	blank2r.bmp	0	1	+	0	1	blank2r.bmp	500	1	B1r.bmp	500	1	blank2r.bmp	880	5	kuss	880	1	!	1313	1	!	1352	0	0	0	0	0	0
2024-05-15	10:55:45	10:59:56	250731	6.6.1	4_exp_EVA_AWA_CON	32	A	B	Rpleas_acq	Oppo	Rpleas	2pleas	acq_US_unple_nomask	acq2_nomask	2	33	480	1	300	300	0	0	522	50	0	0	vertrauen	vergnügt	träumen	genießen	sonnig	engagiert	versagen	verbissen	töten	gemein	sterben	engstirnig	gesittet	besonnen	anregung	gütig	kuss	kreativ	geizig	bange	ausrottung	gierig	krise	krank	1	blank2r.bmp	0	1	+	0	1	blank2r.bmp	500	1	CPLW	500	1	blank2r.bmp	880	1	versagen	880	1	FEHLER	1715	1	!	1313	1	!	1423	0	0	0
2024-05-15	10:55:45	10:59:59	252880	6.6.1	4_exp_EVA_AWA_CON	32	A	B	Rpleas_acq	Oppo	Rpleas	2pleas	acq_new_pleas_nomask	acq2_nomask	2	34	480	0	300	300	0	0	572	50	1	0	vertrauen	vergnügt	träumen	genießen	sonnig	engagiert	versagen	verbissen	töten	gemein	sterben	engstirnig	gesittet	besonnen	anregung	gütig	kuss	kreativ	geizig	bange	ausrottung	gierig	krise	krank	1	blank2r.bmp	0	1	+	0	1	blank2r.bmp	500	8	C4r.bmp	500	1	blank2r.bmp	880	4	gütig	880	1	!	1312	1	!	-1	0	0	0	0	0	0
2024-05-15	10:55:45	11:00:01	255418	6.6.1	4_exp_EVA_AWA_CON	32	A	B	Rpleas_acq	Oppo	Rpleas	2pleas	acq_new_pleas_nomask	acq2_nomask	2	35	480	0	300	300	0	0	557	46	0	0	vertrauen	vergnügt	träumen	genießen	sonnig	engagiert	versagen	verbissen	töten	gemein	sterben	engstirnig	gesittet	besonnen	anregung	gütig	kuss	kreativ	geizig	bange	ausrottung	gierig	krise	krank	1	blank2r.bmp	0	1	+	0	1	blank2r.bmp	500	2	B2r.bmp	500	1	blank2r.bmp	880	3	anregung	880	1	FEHLER	1749	1	!	1313	1	!	-1	0	0	0
2024-05-15	10:55:45	11:00:03	257707	6.6.1	4_exp_EVA_AWA_CON	32	A	B	Rpleas_acq	Oppo	Rpleas	2pleas	acq_US_pleas_nomask	acq2_nomask	2	36	480	1	300	300	0	0	513	46	0	0	vertrauen	vergnügt	träumen	genießen	sonnig	engagiert	versagen	verbissen	töten	gemein	sterben	engstirnig	gesittet	besonnen	anregung	gütig	kuss	kreativ	geizig	bange	ausrottung	gierig	krise	krank	1	blank2r.bmp	0	1	+	0	1	blank2r.bmp	500	1	DHJF	500	1	blank2r.bmp	880	1	vertrauen	880	1	FEHLER	1707	1	!	1313	1	!	1415	0	0	0
2024-05-15	10:55:45	11:00:23	277467	6.6.1	4_exp_EVA_AWA_CON	32	A	B	Rpleas_acq	Oppo	Rpleas	2pleas	acq_US_pleas_nomask	acq3_nomask	3	1	453	0	300	300	0	0	620	46	0	0	vertrauen	vergnügt	träumen	genießen	sonnig	engagiert	versagen	verbissen	töten	gemein	sterben	engstirnig	gesittet	besonnen	anregung	gütig	kuss	kreativ	geizig	bange	ausrottung	gierig	krise	krank	1	blank2r.bmp	0	1	+	0	1	blank2r.bmp	500	1	DHJF	500	1	blank2r.bmp	880	6	engagiert	880	1	FEHLER	1814	1	!	1293	1	!	-1	0	0	0
2024-05-15	10:55:45	11:00:25	279624	6.6.1	4_exp_EVA_AWA_CON	32	A	B	Rpleas_acq	Oppo	Rpleas	2pleas	acq_US_unple_nomask	acq3_nomask	3	2	453	0	300	300	0	0	579	46	1	0	vertrauen	vergnügt	träumen	genießen	sonnig	engagiert	versagen	verbissen	töten	gemein	sterben	engstirnig	gesittet	besonnen	anregung	gütig	kuss	kreativ	geizig	bange	ausrottung	gierig	krise	krank	1	blank2r.bmp	0	1	+	0	1	blank2r.bmp	500	1	CPLW	500	1	blank2r.bmp	880	1	versagen	880	1	!	1293	1	!	-1	0	0	0	0	0	0
2024-05-15	10:55:45	11:00:28	281993	6.6.1	4_exp_EVA_AWA_CON	32	A	B	Rpleas_acq	Oppo	Rpleas	2pleas	acq_US_unple_nomask	acq3_nomask	3	3	453	1	300	300	0	0	395	50	0	0	vertrauen	vergnügt	träumen	genießen	sonnig	engagiert	versagen	verbissen	töten	gemein	sterben	engstirnig	gesittet	besonnen	anregung	gütig	kuss	kreativ	geizig	bange	ausrottung	gierig	krise	krank	1	blank2r.bmp	0	1	+	0	1	blank2r.bmp	500	1	CPLW	500	1	blank2r.bmp	880	2	verbissen	880	1	FEHLER	1587	1	!	1292	1	!	1295	0	0	0
2024-05-15	10:55:45	11:00:30	284219	6.6.1	4_exp_EVA_AWA_CON	32	A	B	Rpleas_acq	Oppo	Rpleas	2pleas	acq_US_unple_nomask	acq3_nomask	3	4	453	1	300	300	0	0	448	50	0	0	vertrauen	vergnügt	träumen	genießen	sonnig	engagiert	versagen	verbissen	töten	gemein	sterben	engstirnig	gesittet	besonnen	anregung	gütig	kuss	kreativ	geizig	bange	ausrottung	gierig	krise	krank	1	blank2r.bmp	0	1	+	0	1	blank2r.bmp	500	1	CPLW	500	1	blank2r.bmp	880	5	sterben	880	1	FEHLER	1642	1	!	1293	1	!	1350	0	0	0
2024-05-15	10:55:45	11:00:32	286435	6.6.1	4_exp_EVA_AWA_CON	32	A	B	Rpleas_acq	Oppo	Rpleas	2pleas	acq_US_pleas_nomask	acq3_nomask	3	5	453	1	300	300	0	0	432	46	0	0	vertrauen	vergnügt	träumen	genießen	sonnig	engagiert	versagen	verbissen	töten	gemein	sterben	engstirnig	gesittet	besonnen	anregung	gütig	kuss	kreativ	geizig	bange	ausrottung	gierig	krise	krank	1	blank2r.bmp	0	1	+	0	1	blank2r.bmp	500	1	DHJF	500	1	blank2r.bmp	880	4	genießen	880	1	FEHLER	1626	1	!	1293	1	!	1334	0	0	0
2024-05-15	10:55:45	11:00:34	288560	6.6.1	4_exp_EVA_AWA_CON	32	A	B	Rpleas_acq	Oppo	Rpleas	2pleas	acq_US_unple_nomask	acq3_nomask	3	6	453	0	300	300	0	0	549	46	1	0	vertrauen	vergnügt	träumen	genießen	sonnig	engagiert	versagen	verbissen	töten	gemein	sterben	engstirnig	gesittet	besonnen	anregung	gütig	kuss	kreativ	geizig	bange	ausrottung	gierig	krise	krank	1	blank2r.bmp	0	1	+	0	1	blank2r.bmp	500	1	CPLW	500	1	blank2r.bmp	880	6	engstirnig	880	1	!	1292	1	!	-1	0	0	0	0	0	0
2024-05-15	10:55:45	11:00:36	290673	6.6.1	4_exp_EVA_AWA_CON	32	A	B	Rpleas_acq	Oppo	Rpleas	2pleas	acq_US_pleas_nomask	acq3_nomask	3	7	453	0	300	300	0	0	340	50	1	0	vertrauen	vergnügt	träumen	genießen	sonnig	engagiert	versagen	verbissen	töten	gemein	sterben	engstirnig	gesittet	besonnen	anregung	gütig	kuss	kreativ	geizig	bange	ausrottung	gierig	krise	krank	1	blank2r.bmp	0	1	+	0	1	blank2r.bmp	500	1	DHJF	500	1	blank2r.bmp	880	1	vertrauen	880	1	!	-1	1	!	-1	0	0	0	0	0	0
2024-05-15	10:55:45	11:00:39	292840	6.6.1	4_exp_EVA_AWA_CON	32	A	B	Rpleas_acq	Oppo	Rpleas	2pleas	acq_US_pleas_nomask	acq3_nomask	3	8	453	0	300	300	0	0	386	50	1	0	vertrauen	vergnügt	träumen	genießen	sonnig	engagiert	versagen	verbissen	töten	gemein	sterben	engstirnig	gesittet	besonnen	anregung	gütig	kuss	kreativ	geizig	bange	ausrottung	gierig	krise	krank	1	blank2r.bmp	0	1	+	0	1	blank2r.bmp	500	1	DHJF	500	1	blank2r.bmp	880	5	sonnig	880	1	!	-1	1	!	-1	0	0	0	0	0	0
2024-05-15	10:55:45	11:00:41	295081	6.6.1	4_exp_EVA_AWA_CON	32	A	B	Rpleas_acq	Oppo	Rpleas	2pleas	acq_US_pleas_nomask	acq3_nomask	3	9	453	1	300	300	0	0	465	50	1	0	vertrauen	vergnügt	träumen	genießen	sonnig	engagiert	versagen	verbissen	töten	gemein	sterben	engstirnig	gesittet	besonnen	anregung	gütig	kuss	kreativ	geizig	bange	ausrottung	gierig	krise	krank	1	blank2r.bmp	0	1	+	0	1	blank2r.bmp	500	1	DHJF	500	1	blank2r.bmp	880	2	vergnügt	880	1	!	1292	1	!	1366	0	0	0	0	0	0
2024-05-15	10:55:45	11:00:43	297403	6.6.1	4_exp_EVA_AWA_CON	32	A	B	Rpleas_acq	Oppo	Rpleas	2pleas	acq_US_unple_nomask	acq3_nomask	3	10	453	0	300	300	0	0	343	50	0	0	vertrauen	vergnügt	träumen	genießen	sonnig	engagiert	versagen	verbissen	töten	gemein	sterben	engstirnig	gesittet	besonnen	anregung	gütig	kuss	kreativ	geizig	bange	ausrottung	gierig	krise	krank	1	blank2r.bmp	0	1	+	0	1	blank2r.bmp	500	1	CPLW	500	1	blank2r.bmp	880	3	töten	880	1	FEHLER	1537	1	!	-1	1	!	-1	0	0	0
2024-05-15	10:55:45	11:00:48	301896	6.6.1	4_exp_EVA_AWA_CON	32	A	B	Rpleas_acq	Oppo	Rpleas	2pleas	acq_US_unple_nomask	acq3_nomask	3	11	453	0	300	300	0	0	2918	46	1	0	vertrauen	vergnügt	träumen	genießen	sonnig	engagiert	versagen	verbissen	töten	gemein	sterben	engstirnig	gesittet	besonnen	anregung	gütig	kuss	kreativ	geizig	bange	ausrottung	gierig	krise	krank	1	blank2r.bmp	0	1	+	0	1	blank2r.bmp	500	1	CPLW	500	1	blank2r.bmp	880	4	gemein	880	1	!	1293	1	!	-1	0	0	0	0	0	0
2024-05-15	10:55:45	11:00:50	304336	6.6.1	4_exp_EVA_AWA_CON	32	A	B	Rpleas_acq	Oppo	Rpleas	2pleas	acq_US_pleas_nomask	acq3_nomask	3	12	453	0	300	300	0	0	665	50	1	0	vertrauen	vergnügt	träumen	genießen	sonnig	engagiert	versagen	verbissen	töten	gemein	sterben	engstirnig	gesittet	besonnen	anregung	gütig	kuss	kreativ	geizig	bange	ausrottung	gierig	krise	krank	1	blank2r.bmp	0	1	+	0	1	blank2r.bmp	500	1	DHJF	500	1	blank2r.bmp	880	3	träumen	880	1	!	1293	1	!	-1	0	0	0	0	0	0
2024-05-15	10:55:45	11:00:52	306400	6.6.1	4_exp_EVA_AWA_CON	32	A	B	Rpleas_acq	Oppo	Rpleas	2pleas	acq_US_unple_nomask	acq3_nomask	3	13	453	0	300	300	0	0	287	46	1	0	vertrauen	vergnügt	träumen	genießen	sonnig	engagiert	versagen	verbissen	töten	gemein	sterben	engstirnig	gesittet	besonnen	anregung	gütig	kuss	kreativ	geizig	bange	ausrottung	gierig	krise	krank	1	blank2r.bmp	0	1	+	0	1	blank2r.bmp	500	1	CPLW	500	1	blank2r.bmp	880	3	töten	880	1	!	-1	1	!	-1	0	0	0	0	0	0
2024-05-15	10:55:45	11:00:54	308496	6.6.1	4_exp_EVA_AWA_CON	32	A	B	Rpleas_acq	Oppo	Rpleas	2pleas	acq_US_pleas_nomask	acq3_nomask	3	14	453	0	300	300	0	0	322	50	1	0	vertrauen	vergnügt	träumen	genießen	sonnig	engagiert	versagen	verbissen	töten	gemein	sterben	engstirnig	gesittet	besonnen	anregung	gütig	kuss	kreativ	geizig	bange	ausrottung	gierig	krise	krank	1	blank2r.bmp	0	1	+	0	1	blank2r.bmp	500	1	DHJF	500	1	blank2r.bmp	880	5	sonnig	880	1	!	-1	1	!	-1	0	0	0	0	0	0
2024-05-15	10:55:45	11:00:56	310819	6.6.1	4_exp_EVA_AWA_CON	32	A	B	Rpleas_acq	Oppo	Rpleas	2pleas	acq_US_pleas_nomask	acq3_nomask	3	15	453	0	300	300	0	0	340	46	0	0	vertrauen	vergnügt	träumen	genießen	sonnig	engagiert	versagen	verbissen	töten	gemein	sterben	engstirnig	gesittet	besonnen	anregung	gütig	kuss	kreativ	geizig	bange	ausrottung	gierig	krise	krank	1	blank2r.bmp	0	1	+	0	1	blank2r.bmp	500	1	DHJF	500	1	blank2r.bmp	880	1	vertrauen	880	1	FEHLER	1534	1	!	-1	1	!	-1	0	0	0
2024-05-15	10:55:45	11:00:59	313171	6.6.1	4_exp_EVA_AWA_CON	32	A	B	Rpleas_acq	Oppo	Rpleas	2pleas	acq_US_unple_nomask	acq3_nomask	3	16	453	0	300	300	0	0	571	50	0	0	vertrauen	vergnügt	träumen	genießen	sonnig	engagiert	versagen	verbissen	töten	gemein	sterben	engstirnig	gesittet	besonnen	anregung	gütig	kuss	kreativ	geizig	bange	ausrottung	gierig	krise	krank	1	blank2r.bmp	0	1	+	0	1	blank2r.bmp	500	1	CPLW	500	1	blank2r.bmp	880	6	engstirnig	880	1	FEHLER	1765	1	!	1293	1	!	-1	0	0	0
2024-05-15	10:55:45	11:01:01	315616	6.6.1	4_exp_EVA_AWA_CON	32	A	B	Rpleas_acq	Oppo	Rpleas	2pleas	acq_US_pleas_nomask	acq3_nomask	3	17	453	0	300	300	0	0	867	50	1	0	vertrauen	vergnügt	träumen	genießen	sonnig	engagiert	versagen	verbissen	töten	gemein	sterben	engstirnig	gesittet	besonnen	anregung	gütig	kuss	kreativ	geizig	bange	ausrottung	gierig	krise	krank	1	blank2r.bmp	0	1	+	0	1	blank2r.bmp	500	1	DHJF	500	1	blank2r.bmp	880	4	genießen	880	1	!	1292	1	!	-1	0	0	0	0	0	0
2024-05-15	10:55:45	11:01:04	318035	6.6.1	4_exp_EVA_AWA_CON	32	A	B	Rpleas_acq	Oppo	Rpleas	2pleas	acq_US_unple_nomask	acq3_nomask	3	18	453	1	300	300	0	0	442	50	0	0	vertrauen	vergnügt	träumen	genießen	sonnig	engagiert	versagen	verbissen	töten	gemein	sterben	engstirnig	gesittet	besonnen	anregung	gütig	kuss	kreativ	geizig	bange	ausrottung	gierig	krise	krank	1	blank2r.bmp	0	1	+	0	1	blank2r.bmp	500	1	CPLW	500	1	blank2r.bmp	880	2	verbissen	880	1	FEHLER	1635	1	!	1293	1	!	1343	0	0	0
2024-05-15	10:55:45	11:01:06	320233	6.6.1	4_exp_EVA_AWA_CON	32	A	B	Rpleas_acq	Oppo	Rpleas	2pleas	acq_US_pleas_nomask	acq3_nomask	3	19	453	0	300	300	0	0	620	50	1	0	vertrauen	vergnügt	träumen	genießen	sonnig	engagiert	versagen	verbissen	töten	gemein	sterben	engstirnig	gesittet	besonnen	anregung	gütig	kuss	kreativ	geizig	bange	ausrottung	gierig	krise	krank	1	blank2r.bmp	0	1	+	0	1	blank2r.bmp	500	1	DHJF	500	1	blank2r.bmp	880	3	träumen	880	1	!	1293	1	!	-1	0	0	0	0	0	0
2024-05-15	10:55:45	11:01:08	322617	6.6.1	4_exp_EVA_AWA_CON	32	A	B	Rpleas_acq	Oppo	Rpleas	2pleas	acq_US_pleas_nomask	acq3_nomask	3	20	453	1	300	300	0	0	403	46	0	0	vertrauen	vergnügt	träumen	genießen	sonnig	engagiert	versagen	verbissen	töten	gemein	sterben	engstirnig	gesittet	besonnen	anregung	gütig	kuss	kreativ	geizig	bange	ausrottung	gierig	krise	krank	1	blank2r.bmp	0	1	+	0	1	blank2r.bmp	500	1	DHJF	500	1	blank2r.bmp	880	2	vergnügt	880	1	FEHLER	1594	1	!	1292	1	!	1303	0	0	0
2024-05-15	10:55:45	11:01:11	324907	6.6.1	4_exp_EVA_AWA_CON	32	A	B	Rpleas_acq	Oppo	Rpleas	2pleas	acq_US_unple_nomask	acq3_nomask	3	21	453	1	300	300	0	0	509	50	0	0	vertrauen	vergnügt	träumen	genießen	sonnig	engagiert	versagen	verbissen	töten	gemein	sterben	engstirnig	gesittet	besonnen	anregung	gütig	kuss	kreativ	geizig	bange	ausrottung	gierig	krise	krank	1	blank2r.bmp	0	1	+	0	1	blank2r.bmp	500	1	CPLW	500	1	blank2r.bmp	880	1	versagen	880	1	FEHLER	1703	1	!	1292	1	!	1411	0	0	0
2024-05-15	10:55:45	11:01:13	327328	6.6.1	4_exp_EVA_AWA_CON	32	A	B	Rpleas_acq	Oppo	Rpleas	2pleas	acq_US_unple_nomask	acq3_nomask	3	22	453	0	300	300	0	0	842	46	1	0	vertrauen	vergnügt	träumen	genießen	sonnig	engagiert	versagen	verbissen	töten	gemein	sterben	engstirnig	gesittet	besonnen	anregung	gütig	kuss	kreativ	geizig	bange	ausrottung	gierig	krise	krank	1	blank2r.bmp	0	1	+	0	1	blank2r.bmp	500	1	CPLW	500	1	blank2r.bmp	880	4	gemein	880	1	!	1292	1	!	-1	0	0	0	0	0	0
2024-05-15	10:55:45	11:01:15	329763	6.6.1	4_exp_EVA_AWA_CON	32	A	B	Rpleas_acq	Oppo	Rpleas	2pleas	acq_US_unple_nomask	acq3_nomask	3	23	453	1	300	300	0	0	452	50	0	0	vertrauen	vergnügt	träumen	genießen	sonnig	engagiert	versagen	verbissen	töten	gemein	sterben	engstirnig	gesittet	besonnen	anregung	gütig	kuss	kreativ	geizig	bange	ausrottung	gierig	krise	krank	1	blank2r.bmp	0	1	+	0	1	blank2r.bmp	500	1	CPLW	500	1	blank2r.bmp	880	5	sterben	880	1	FEHLER	1646	1	!	1293	1	!	1354	0	0	0
2024-05-15	10:55:45	11:01:18	331976	6.6.1	4_exp_EVA_AWA_CON	32	A	B	Rpleas_acq	Oppo	Rpleas	2pleas	acq_US_pleas_nomask	acq3_nomask	3	24	453	0	300	300	0	0	637	50	1	0	vertrauen	vergnügt	träumen	genießen	sonnig	engagiert	versagen	verbissen	töten	gemein	sterben	engstirnig	gesittet	besonnen	anregung	gütig	kuss	kreativ	geizig	bange	ausrottung	gierig	krise	krank	1	blank2r.bmp	0	1	+	0	1	blank2r.bmp	500	1	DHJF	500	1	blank2r.bmp	880	6	engagiert	880	1	!	1292	1	!	-1	0	0	0	0	0	0
2024-05-15	10:55:45	11:01:20	334643	6.6.1	4_exp_EVA_AWA_CON	32	A	B	Rpleas_acq	Oppo	Rpleas	2pleas	acq_US_unple_nomask	acq3_nomask	3	25	453	0	300	300	0	0	689	50	0	0	vertrauen	vergnügt	träumen	genießen	sonnig	engagiert	versagen	verbissen	töten	gemein	sterben	engstirnig	gesittet	besonnen	anregung	gütig	kuss	kreativ	geizig	bange	ausrottung	gierig	krise	krank	1	blank2r.bmp	0	1	+	0	1	blank2r.bmp	500	1	CPLW	500	1	blank2r.bmp	880	6	engstirnig	880	1	FEHLER	1883	1	!	1292	1	!	-1	0	0	0
2024-05-15	10:55:45	11:01:22	336784	6.6.1	4_exp_EVA_AWA_CON	32	A	B	Rpleas_acq	Oppo	Rpleas	2pleas	acq_US_unple_nomask	acq3_nomask	3	26	453	0	300	300	0	0	571	46	1	0	vertrauen	vergnügt	träumen	genießen	sonnig	engagiert	versagen	verbissen	töten	gemein	sterben	engstirnig	gesittet	besonnen	anregung	gütig	kuss	kreativ	geizig	bange	ausrottung	gierig	krise	krank	1	blank2r.bmp	0	1	+	0	1	blank2r.bmp	500	1	CPLW	500	1	blank2r.bmp	880	3	töten	880	1	!	1292	1	!	-1	0	0	0	0	0	0
2024-05-15	10:55:45	11:01:25	339042	6.6.1	4_exp_EVA_AWA_CON	32	A	B	Rpleas_acq	Oppo	Rpleas	2pleas	acq_US_pleas_nomask	acq3_nomask	3	27	453	1	300	300	0	0	476	50	1	0	vertrauen	vergnügt	träumen	genießen	sonnig	engagiert	versagen	verbissen	töten	gemein	sterben	engstirnig	gesittet	besonnen	anregung	gütig	kuss	kreativ	geizig	bange	ausrottung	gierig	krise	krank	1	blank2r.bmp	0	1	+	0	1	blank2r.bmp	500	1	DHJF	500	1	blank2r.bmp	880	4	genießen	880	1	!	1293	1	!	1378	0	0	0	0	0	0
2024-05-15	10:55:45	11:01:27	341298	6.6.1	4_exp_EVA_AWA_CON	32	A	B	Rpleas_acq	Oppo	Rpleas	2pleas	acq_US_pleas_nomask	acq3_nomask	3	28	453	1	300	300	0	0	480	50	1	0	vertrauen	vergnügt	träumen	genießen	sonnig	engagiert	versagen	verbissen	töten	gemein	sterben	engstirnig	gesittet	besonnen	anregung	gütig	kuss	kreativ	geizig	bange	ausrottung	gierig	krise	krank	1	blank2r.bmp	0	1	+	0	1	blank2r.bmp	500	1	DHJF	500	1	blank2r.bmp	880	3	träumen	880	1	!	1292	1	!	1382	0	0	0	0	0	0
2024-05-15	10:55:45	11:01:29	343554	6.6.1	4_exp_EVA_AWA_CON	32	A	B	Rpleas_acq	Oppo	Rpleas	2pleas	acq_US_unple_nomask	acq3_nomask	3	29	453	1	300	300	0	0	475	46	1	0	vertrauen	vergnügt	träumen	genießen	sonnig	engagiert	versagen	verbissen	töten	gemein	sterben	engstirnig	gesittet	besonnen	anregung	gütig	kuss	kreativ	geizig	bange	ausrottung	gierig	krise	krank	1	blank2r.bmp	0	1	+	0	1	blank2r.bmp	500	1	CPLW	500	1	blank2r.bmp	880	5	sterben	880	1	!	1293	1	!	1377	0	0	0	0	0	0
2024-05-15	10:55:45	11:01:32	345944	6.6.1	4_exp_EVA_AWA_CON	32	A	B	Rpleas_acq	Oppo	Rpleas	2pleas	acq_US_unple_nomask	acq3_nomask	3	30	453	0	300	300	0	0	616	46	1	0	vertrauen	vergnügt	träumen	genießen	sonnig	engagiert	versagen	verbissen	töten	gemein	sterben	engstirnig	gesittet	besonnen	anregung	gütig	kuss	kreativ	geizig	bange	ausrottung	gierig	krise	krank	1	blank2r.bmp	0	1	+	0	1	blank2r.bmp	500	1	CPLW	500	1	blank2r.bmp	880	1	versagen	880	1	!	1292	1	!	-1	0	0	0	0	0	0
2024-05-15	10:55:45	11:01:34	348081	6.6.1	4_exp_EVA_AWA_CON	32	A	B	Rpleas_acq	Oppo	Rpleas	2pleas	acq_US_pleas_nomask	acq3_nomask	3	31	453	0	300	300	0	0	360	50	1	0	vertrauen	vergnügt	träumen	genießen	sonnig	engagiert	versagen	verbissen	töten	gemein	sterben	engstirnig	gesittet	besonnen	anregung	gütig	kuss	kreativ	geizig	bange	ausrottung	gierig	krise	krank	1	blank2r.bmp	0	1	+	0	1	blank2r.bmp	500	1	DHJF	500	1	blank2r.bmp	880	6	engagiert	880	1	!	-1	1	!	-1	0	0	0	0	0	0
2024-05-15	10:55:45	11:01:36	350444	6.6.1	4_exp_EVA_AWA_CON	32	A	B	Rpleas_acq	Oppo	Rpleas	2pleas	acq_US_pleas_nomask	acq3_nomask	3	32	453	0	300	300	0	0	379	46	0	0	vertrauen	vergnügt	träumen	genießen	sonnig	engagiert	versagen	verbissen	töten	gemein	sterben	engstirnig	gesittet	besonnen	anregung	gütig	kuss	kreativ	geizig	bange	ausrottung	gierig	krise	krank	1	blank2r.bmp	0	1	+	0	1	blank2r.bmp	500	1	DHJF	500	1	blank2r.bmp	880	2	vergnügt	880	1	FEHLER	1573	1	!	-1	1	!	-1	0	0	0
2024-05-15	10:55:45	11:01:38	352644	6.6.1	4_exp_EVA_AWA_CON	32	A	B	Rpleas_acq	Oppo	Rpleas	2pleas	acq_US_unple_nomask	acq3_nomask	3	33	453	1	300	300	0	0	427	50	0	0	vertrauen	vergnügt	träumen	genießen	sonnig	engagiert	versagen	verbissen	töten	gemein	sterben	engstirnig	gesittet	besonnen	anregung	gütig	kuss	kreativ	geizig	bange	ausrottung	gierig	krise	krank	1	blank2r.bmp	0	1	+	0	1	blank2r.bmp	500	1	CPLW	500	1	blank2r.bmp	880	4	gemein	880	1	FEHLER	1621	1	!	1293	1	!	1329	0	0	0
2024-05-15	10:55:45	11:01:40	354808	6.6.1	4_exp_EVA_AWA_CON	32	A	B	Rpleas_acq	Oppo	Rpleas	2pleas	acq_US_unple_nomask	acq3_nomask	3	34	453	0	300	300	0	0	594	46	1	0	vertrauen	vergnügt	träumen	genießen	sonnig	engagiert	versagen	verbissen	töten	gemein	sterben	engstirnig	gesittet	besonnen	anregung	gütig	kuss	kreativ	geizig	bange	ausrottung	gierig	krise	krank	1	blank2r.bmp	0	1	+	0	1	blank2r.bmp	500	1	CPLW	500	1	blank2r.bmp	880	2	verbissen	880	1	!	1293	1	!	-1	0	0	0	0	0	0
2024-05-15	10:55:45	11:01:43	357090	6.6.1	4_exp_EVA_AWA_CON	32	A	B	Rpleas_acq	Oppo	Rpleas	2pleas	acq_US_pleas_nomask	acq3_nomask	3	35	453	1	300	300	0	0	502	50	1	0	vertrauen	vergnügt	träumen	genießen	sonnig	engagiert	versagen	verbissen	töten	gemein	sterben	engstirnig	gesittet	besonnen	anregung	gütig	kuss	kreativ	geizig	bange	ausrottung	gierig	krise	krank	1	blank2r.bmp	0	1	+	0	1	blank2r.bmp	500	1	DHJF	500	1	blank2r.bmp	880	1	vertrauen	880	1	!	1292	1	!	1404	0	0	0	0	0	0
2024-05-15	10:55:45	11:01:45	359580	6.6.1	4_exp_EVA_AWA_CON	32	A	B	Rpleas_acq	Oppo	Rpleas	2pleas	acq_US_pleas_nomask	acq3_nomask	3	36	453	1	300	300	0	0	509	46	0	0	vertrauen	vergnügt	träumen	genießen	sonnig	engagiert	versagen	verbissen	töten	gemein	sterben	engstirnig	gesittet	besonnen	anregung	gütig	kuss	kreativ	geizig	bange	ausrottung	gierig	krise	krank	1	blank2r.bmp	0	1	+	0	1	blank2r.bmp	500	1	DHJF	500	1	blank2r.bmp	880	5	sonnig	880	1	FEHLER	1703	1	!	1293	1	!	1410	0	0	0
2024-05-15	10:55:45	11:02:11	384936	6.6.1	4_exp_EVA_AWA_CON	32	A	B	Rpleas_acq	Oppo	Rpleas	2pleas	acq_US_pleas_nomask	acq45_nomask	4	1	400	0	300	300	0	0	712	50	1	0	vertrauen	vergnügt	träumen	genießen	sonnig	engagiert	versagen	verbissen	töten	gemein	sterben	engstirnig	gesittet	besonnen	anregung	gütig	kuss	kreativ	geizig	bange	ausrottung	gierig	krise	krank	1	blank2r.bmp	0	1	+	0	1	blank2r.bmp	500	1	DHJF	500	1	blank2r.bmp	880	3	träumen	880	1	!	1233	1	!	-1	0	0	0	0	0	0
2024-05-15	10:55:45	11:02:13	387066	6.6.1	4_exp_EVA_AWA_CON	32	A	B	Rpleas_acq	Oppo	Rpleas	2pleas	acq_US_unple_nomask	acq45_nomask	4	2	400	1	300	300	0	0	349	46	1	0	vertrauen	vergnügt	träumen	genießen	sonnig	engagiert	versagen	verbissen	töten	gemein	sterben	engstirnig	gesittet	besonnen	anregung	gütig	kuss	kreativ	geizig	bange	ausrottung	gierig	krise	krank	1	blank2r.bmp	0	1	+	0	1	blank2r.bmp	500	1	CPLW	500	1	blank2r.bmp	880	2	verbissen	880	1	!	1233	1	!	1250	0	0	0	0	0	0
2024-05-15	10:55:45	11:02:15	389064	6.6.1	4_exp_EVA_AWA_CON	32	A	B	Rpleas_acq	Oppo	Rpleas	2pleas	acq_US_pleas_nomask	acq45_nomask	4	3	400	0	300	300	0	0	217	50	1	0	vertrauen	vergnügt	träumen	genießen	sonnig	engagiert	versagen	verbissen	töten	gemein	sterben	engstirnig	gesittet	besonnen	anregung	gütig	kuss	kreativ	geizig	bange	ausrottung	gierig	krise	krank	1	blank2r.bmp	0	1	+	0	1	blank2r.bmp	500	1	DHJF	500	1	blank2r.bmp	880	5	sonnig	880	1	!	-1	1	!	-1	0	0	0	0	0	0
2024-05-15	10:55:45	11:02:17	391480	6.6.1	4_exp_EVA_AWA_CON	32	A	B	Rpleas_acq	Oppo	Rpleas	2pleas	acq_US_pleas_nomask	acq45_nomask	4	4	400	0	300	300	0	0	642	50	1	0	vertrauen	vergnügt	träumen	genießen	sonnig	engagiert	versagen	verbissen	töten	gemein	sterben	engstirnig	gesittet	besonnen	anregung	gütig	kuss	kreativ	geizig	bange	ausrottung	gierig	krise	krank	1	blank2r.bmp	0	1	+	0	1	blank2r.bmp	500	1	DHJF	500	1	blank2r.bmp	880	6	engagiert	880	1	!	1232	1	!	-1	0	0	0	0	0	0
2024-05-15	10:55:45	11:02:19	393280	6.6.1	4_exp_EVA_AWA_CON	32	A	B	Rpleas_acq	Oppo	Rpleas	2pleas	acq_US_unple_nomask	acq45_nomask	4	5	400	0	300	300	0	0	20	46	1	0	vertrauen	vergnügt	träumen	genießen	sonnig	engagiert	versagen	verbissen	töten	gemein	sterben	engstirnig	gesittet	besonnen	anregung	gütig	kuss	kreativ	geizig	bange	ausrottung	gierig	krise	krank	1	blank2r.bmp	0	1	+	0	1	blank2r.bmp	500	1	CPLW	500	1	blank2r.bmp	880	4	gemein	880	1	!	-1	1	!	-1	0	0	0	0	0	0
2024-05-15	10:55:45	11:02:21	395522	6.6.1	4_exp_EVA_AWA_CON	32	A	B	Rpleas_acq	Oppo	Rpleas	2pleas	acq_US_pleas_nomask	acq45_nomask	4	6	400	1	300	300	0	0	459	46	0	0	vertrauen	vergnügt	träumen	genießen	sonnig	engagiert	versagen	verbissen	töten	gemein	sterben	engstirnig	gesittet	besonnen	anregung	gütig	kuss	kreativ	geizig	bange	ausrottung	gierig	krise	krank	1	blank2r.bmp	0	1	+	0	1	blank2r.bmp	500	1	DHJF	500	1	blank2r.bmp	880	4	genießen	880	1	!	1233	1	!	1361	0	0	0	0	0	0
2024-05-15	10:55:45	11:02:23	397576	6.6.1	4_exp_EVA_AWA_CON	32	A	B	Rpleas_acq	Oppo	Rpleas	2pleas	acq_US_pleas_nomask	acq45_nomask	4	7	400	0	300	300	0	0	274	50	1	0	vertrauen	vergnügt	träumen	genießen	sonnig	engagiert	versagen	verbissen	töten	gemein	sterben	engstirnig	gesittet	besonnen	anregung	gütig	kuss	kreativ	geizig	bange	ausrottung	gierig	krise	krank	1	blank2r.bmp	0	1	+	0	1	blank2r.bmp	500	1	DHJF	500	1	blank2r.bmp	880	2	vergnügt	880	1	!	-1	1	!	-1	0	0	0	0	0	0
2024-05-15	10:55:45	11:02:25	399648	6.6.1	4_exp_EVA_AWA_CON	32	A	B	Rpleas_acq	Oppo	Rpleas	2pleas	acq_US_unple_nomask	acq45_nomask	4	8	400	0	300	300	0	0	294	46	1	0	vertrauen	vergnügt	träumen	genießen	sonnig	engagiert	versagen	verbissen	töten	gemein	sterben	engstirnig	gesittet	besonnen	anregung	gütig	kuss	kreativ	geizig	bange	ausrottung	gierig	krise	krank	1	blank2r.bmp	0	1	+	0	1	blank2r.bmp	500	1	CPLW	500	1	blank2r.bmp	880	1	versagen	880	1	!	-1	1	!	-1	0	0	0	0	0	0
2024-05-15	10:55:45	11:02:27	401736	6.6.1	4_exp_EVA_AWA_CON	32	A	B	Rpleas_acq	Oppo	Rpleas	2pleas	acq_US_unple_nomask	acq45_nomask	4	9	400	0	300	300	0	0	311	50	0	0	vertrauen	vergnügt	träumen	genießen	sonnig	engagiert	versagen	verbissen	töten	gemein	sterben	engstirnig	gesittet	besonnen	anregung	gütig	kuss	kreativ	geizig	bange	ausrottung	gierig	krise	krank	1	blank2r.bmp	0	1	+	0	1	blank2r.bmp	500	1	CPLW	500	1	blank2r.bmp	880	5	sterben	880	1	!	-1	1	!	-1	0	0	0	0	0	0
2024-05-15	10:55:45	11:02:30	403832	6.6.1	4_exp_EVA_AWA_CON	32	A	B	Rpleas_acq	Oppo	Rpleas	2pleas	acq_US_pleas_nomask	acq45_nomask	4	10	400	0	300	300	0	0	316	46	0	0	vertrauen	vergnügt	träumen	genießen	sonnig	engagiert	versagen	verbissen	töten	gemein	sterben	engstirnig	gesittet	besonnen	anregung	gütig	kuss	kreativ	geizig	bange	ausrottung	gierig	krise	krank	1	blank2r.bmp	0	1	+	0	1	blank2r.bmp	500	1	DHJF	500	1	blank2r.bmp	880	1	vertrauen	880	1	!	-1	1	!	-1	0	0	0	0	0	0
2024-05-15	10:55:45	11:02:32	406352	6.6.1	4_exp_EVA_AWA_CON	32	A	B	Rpleas_acq	Oppo	Rpleas	2pleas	acq_US_unple_nomask	acq45_nomask	4	11	400	0	300	300	0	0	744	46	1	0	vertrauen	vergnügt	träumen	genießen	sonnig	engagiert	versagen	verbissen	töten	gemein	sterben	engstirnig	gesittet	besonnen	anregung	gütig	kuss	kreativ	geizig	bange	ausrottung	gierig	krise	krank	1	blank2r.bmp	0	1	+	0	1	blank2r.bmp	500	1	CPLW	500	1	blank2r.bmp	880	6	engstirnig	880	1	!	1232	1	!	-1	0	0	0	0	0	0
2024-05-15	10:55:45	11:02:34	408392	6.6.1	4_exp_EVA_AWA_CON	32	A	B	Rpleas_acq	Oppo	Rpleas	2pleas	acq_US_pleas_nomask	acq45_nomask	4	12	400	0	300	300	0	0	263	50	1	0	vertrauen	vergnügt	träumen	genießen	sonnig	engagiert	versagen	verbissen	töten	gemein	sterben	engstirnig	gesittet	besonnen	anregung	gütig	kuss	kreativ	geizig	bange	ausrottung	gierig	krise	krank	1	blank2r.bmp	0	1	+	0	1	blank2r.bmp	500	1	DHJF	500	1	blank2r.bmp	880	3	träumen	880	1	!	-1	1	!	-1	0	0	0	0	0	0
2024-05-15	10:55:45	11:02:36	410816	6.6.1	4_exp_EVA_AWA_CON	32	A	B	Rpleas_acq	Oppo	Rpleas	2pleas	acq_US_pleas_nomask	acq45_nomask	4	13	400	0	300	300	0	0	645	50	1	0	vertrauen	vergnügt	träumen	genießen	sonnig	engagiert	versagen	verbissen	töten	gemein	sterben	engstirnig	gesittet	besonnen	anregung	gütig	kuss	kreativ	geizig	bange	ausrottung	gierig	krise	krank	1	blank2r.bmp	0	1	+	0	1	blank2r.bmp	500	1	DHJF	500	1	blank2r.bmp	880	6	engagiert	880	1	!	1232	1	!	-1	0	0	0	0	0	0
2024-05-15	10:55:45	11:02:39	412856	6.6.1	4_exp_EVA_AWA_CON	32	A	B	Rpleas_acq	Oppo	Rpleas	2pleas	acq_US_pleas_nomask	acq45_nomask	4	14	400	0	300	300	0	0	264	46	0	0	vertrauen	vergnügt	träumen	genießen	sonnig	engagiert	versagen	verbissen	töten	gemein	sterben	engstirnig	gesittet	besonnen	anregung	gütig	kuss	kreativ	geizig	bange	ausrottung	gierig	krise	krank	1	blank2r.bmp	0	1	+	0	1	blank2r.bmp	500	1	DHJF	500	1	blank2r.bmp	880	1	vertrauen	880	1	!	-1	1	!	-1	0	0	0	0	0	0
2024-05-15	10:55:45	11:02:41	415002	6.6.1	4_exp_EVA_AWA_CON	32	A	B	Rpleas_acq	Oppo	Rpleas	2pleas	acq_US_unple_nomask	acq45_nomask	4	15	400	1	300	300	0	0	366	46	1	0	vertrauen	vergnügt	träumen	genießen	sonnig	engagiert	versagen	verbissen	töten	gemein	sterben	engstirnig	gesittet	besonnen	anregung	gütig	kuss	kreativ	geizig	bange	ausrottung	gierig	krise	krank	1	blank2r.bmp	0	1	+	0	1	blank2r.bmp	500	1	CPLW	500	1	blank2r.bmp	880	3	töten	880	1	!	1232	1	!	1268	0	0	0	0	0	0
2024-05-15	10:55:45	11:02:43	417210	6.6.1	4_exp_EVA_AWA_CON	32	A	B	Rpleas_acq	Oppo	Rpleas	2pleas	acq_US_unple_nomask	acq45_nomask	4	16	400	1	300	300	0	0	433	46	1	0	vertrauen	vergnügt	träumen	genießen	sonnig	engagiert	versagen	verbissen	töten	gemein	sterben	engstirnig	gesittet	besonnen	anregung	gütig	kuss	kreativ	geizig	bange	ausrottung	gierig	krise	krank	1	blank2r.bmp	0	1	+	0	1	blank2r.bmp	500	1	CPLW	500	1	blank2r.bmp	880	3	töten	880	1	!	1232	1	!	1335	0	0	0	0	0	0
2024-05-15	10:55:45	11:02:45	419600	6.6.1	4_exp_EVA_AWA_CON	32	A	B	Rpleas_acq	Oppo	Rpleas	2pleas	acq_US_unple_nomask	acq45_nomask	4	17	400	0	300	300	0	0	614	50	0	0	vertrauen	vergnügt	träumen	genießen	sonnig	engagiert	versagen	verbissen	töten	gemein	sterben	engstirnig	gesittet	besonnen	anregung	gütig	kuss	kreativ	geizig	bange	ausrottung	gierig	krise	krank	1	blank2r.bmp	0	1	+	0	1	blank2r.bmp	500	1	CPLW	500	1	blank2r.bmp	880	4	gemein	880	1	!	1233	1	!	-1	0	0	0	0	0	0
2024-05-15	10:55:45	11:02:47	421778	6.6.1	4_exp_EVA_AWA_CON	32	A	B	Rpleas_acq	Oppo	Rpleas	2pleas	acq_US_unple_nomask	acq45_nomask	4	18	400	1	300	300	0	0	398	46	1	0	vertrauen	vergnügt	träumen	genießen	sonnig	engagiert	versagen	verbissen	töten	gemein	sterben	engstirnig	gesittet	besonnen	anregung	gütig	kuss	kreativ	geizig	bange	ausrottung	gierig	krise	krank	1	blank2r.bmp	0	1	+	0	1	blank2r.bmp	500	1	CPLW	500	1	blank2r.bmp	880	1	versagen	880	1	!	1233	1	!	1300	0	0	0	0	0	0
2024-05-15	10:55:45	11:02:50	424002	6.6.1	4_exp_EVA_AWA_CON	32	A	B	Rpleas_acq	Oppo	Rpleas	2pleas	acq_US_unple_nomask	acq45_nomask	4	19	400	1	300	300	0	0	441	46	1	0	vertrauen	vergnügt	träumen	genießen	sonnig	engagiert	versagen	verbissen	töten	gemein	sterben	engstirnig	gesittet	besonnen	anregung	gütig	kuss	kreativ	geizig	bange	ausrottung	gierig	krise	krank	1	blank2r.bmp	0	1	+	0	1	blank2r.bmp	500	1	CPLW	500	1	blank2r.bmp	880	6	engstirnig	880	1	!	1232	1	!	1343	0	0	0	0	0	0
2024-05-15	10:55:45	11:02:52	426130	6.6.1	4_exp_EVA_AWA_CON	32	A	B	Rpleas_acq	Oppo	Rpleas	2pleas	acq_US_pleas_nomask	acq45_nomask	4	20	400	1	300	300	0	0	347	46	0	0	vertrauen	vergnügt	träumen	genießen	sonnig	engagiert	versagen	verbissen	töten	gemein	sterben	engstirnig	gesittet	besonnen	anregung	gütig	kuss	kreativ	geizig	bange	ausrottung	gierig	krise	krank	1	blank2r.bmp	0	1	+	0	1	blank2r.bmp	500	1	DHJF	500	1	blank2r.bmp	880	4	genießen	880	1	!	1232	1	!	1249	0	0	0	0	0	0
2024-05-15	10:55:45	11:02:54	428346	6.6.1	4_exp_EVA_AWA_CON	32	A	B	Rpleas_acq	Oppo	Rpleas	2pleas	acq_US_unple_nomask	acq45_nomask	4	21	400	1	300	300	0	0	432	46	1	0	vertrauen	vergnügt	träumen	genießen	sonnig	engagiert	versagen	verbissen	töten	gemein	sterben	engstirnig	gesittet	besonnen	anregung	gütig	kuss	kreativ	geizig	bange	ausrottung	gierig	krise	krank	1	blank2r.bmp	0	1	+	0	1	blank2r.bmp	500	1	CPLW	500	1	blank2r.bmp	880	5	sterben	880	1	!	1232	1	!	1333	0	0	0	0	0	0
2024-05-15	10:55:45	11:02:56	430632	6.6.1	4_exp_EVA_AWA_CON	32	A	B	Rpleas_acq	Oppo	Rpleas	2pleas	acq_US_pleas_nomask	acq45_nomask	4	22	400	0	300	300	0	0	508	50	1	0	vertrauen	vergnügt	träumen	genießen	sonnig	engagiert	versagen	verbissen	töten	gemein	sterben	engstirnig	gesittet	besonnen	anregung	gütig	kuss	kreativ	geizig	bange	ausrottung	gierig	krise	krank	1	blank2r.bmp	0	1	+	0	1	blank2r.bmp	500	1	DHJF	500	1	blank2r.bmp	880	2	vergnügt	880	1	!	1232	1	!	-1	0	0	0	0	0	0
2024-05-15	10:55:45	11:02:59	432936	6.6.1	4_exp_EVA_AWA_CON	32	A	B	Rpleas_acq	Oppo	Rpleas	2pleas	acq_US_unple_nomask	acq45_nomask	4	23	400	0	300	300	0	0	531	46	1	0	vertrauen	vergnügt	träumen	genießen	sonnig	engagiert	versagen	verbissen	töten	gemein	sterben	engstirnig	gesittet	besonnen	anregung	gütig	kuss	kreativ	geizig	bange	ausrottung	gierig	krise	krank	1	blank2r.bmp	0	1	+	0	1	blank2r.bmp	500	1	CPLW	500	1	blank2r.bmp	880	2	verbissen	880	1	!	1233	1	!	-1	0	0	0	0	0	0
2024-05-15	10:55:45	11:03:01	435146	6.6.1	4_exp_EVA_AWA_CON	32	A	B	Rpleas_acq	Oppo	Rpleas	2pleas	acq_US_unple_nomask	acq45_nomask	4	24	400	1	300	300	0	0	427	50	0	0	vertrauen	vergnügt	träumen	genießen	sonnig	engagiert	versagen	verbissen	töten	gemein	sterben	engstirnig	gesittet	besonnen	anregung	gütig	kuss	kreativ	geizig	bange	ausrottung	gierig	krise	krank	1	blank2r.bmp	0	1	+	0	1	blank2r.bmp	500	1	CPLW	500	1	blank2r.bmp	880	4	gemein	880	1	!	1233	1	!	1329	0	0	0	0	0	0
2024-05-15	10:55:45	11:03:03	437330	6.6.1	4_exp_EVA_AWA_CON	32	A	B	Rpleas_acq	Oppo	Rpleas	2pleas	acq_US_pleas_nomask	acq45_nomask	4	25	400	1	300	300	0	0	400	46	0	0	vertrauen	vergnügt	träumen	genießen	sonnig	engagiert	versagen	verbissen	töten	gemein	sterben	engstirnig	gesittet	besonnen	anregung	gütig	kuss	kreativ	geizig	bange	ausrottung	gierig	krise	krank	1	blank2r.bmp	0	1	+	0	1	blank2r.bmp	500	1	DHJF	500	1	blank2r.bmp	880	5	sonnig	880	1	!	1233	1	!	1302	0	0	0	0	0	0
2024-05-15	10:55:45	11:03:05	439641	6.6.1	4_exp_EVA_AWA_CON	32	A	B	Rpleas_acq	Oppo	Rpleas	2pleas	acq_US_pleas_nomask	acq45_nomask	4	26	400	0	300	300	0	0	530	46	0	0	vertrauen	vergnügt	träumen	genießen	sonnig	engagiert	versagen	verbissen	töten	gemein	sterben	engstirnig	gesittet	besonnen	anregung	gütig	kuss	kreativ	geizig	bange	ausrottung	gierig	krise	krank	1	blank2r.bmp	0	1	+	0	1	blank2r.bmp	500	1	DHJF	500	1	blank2r.bmp	880	6	engagiert	880	1	!	1232	1	!	-1	0	0	0	0	0	0
2024-05-15	10:55:45	11:03:08	442080	6.6.1	4_exp_EVA_AWA_CON	32	A	B	Rpleas_acq	Oppo	Rpleas	2pleas	acq_US_pleas_nomask	acq45_nomask	4	27	400	0	300	300	0	0	659	50	1	0	vertrauen	vergnügt	träumen	genießen	sonnig	engagiert	versagen	verbissen	töten	gemein	sterben	engstirnig	gesittet	besonnen	anregung	gütig	kuss	kreativ	geizig	bange	ausrottung	gierig	krise	krank	1	blank2r.bmp	0	1	+	0	1	blank2r.bmp	500	1	DHJF	500	1	blank2r.bmp	880	1	vertrauen	880	1	!	1232	1	!	-1	0	0	0	0	0	0
2024-05-15	10:55:45	11:03:10	444210	6.6.1	4_exp_EVA_AWA_CON	32	A	B	Rpleas_acq	Oppo	Rpleas	2pleas	acq_US_unple_nomask	acq45_nomask	4	28	400	1	300	300	0	0	355	50	0	0	vertrauen	vergnügt	träumen	genießen	sonnig	engagiert	versagen	verbissen	töten	gemein	sterben	engstirnig	gesittet	besonnen	anregung	gütig	kuss	kreativ	geizig	bange	ausrottung	gierig	krise	krank	1	blank2r.bmp	0	1	+	0	1	blank2r.bmp	500	1	CPLW	500	1	blank2r.bmp	880	6	engstirnig	880	1	!	1232	1	!	1257	0	0	0	0	0	0
2024-05-15	10:55:45	11:03:12	446560	6.6.1	4_exp_EVA_AWA_CON	32	A	B	Rpleas_acq	Oppo	Rpleas	2pleas	acq_US_pleas_nomask	acq45_nomask	4	29	400	0	300	300	0	0	576	50	1	0	vertrauen	vergnügt	träumen	genießen	sonnig	engagiert	versagen	verbissen	töten	gemein	sterben	engstirnig	gesittet	besonnen	anregung	gütig	kuss	kreativ	geizig	bange	ausrottung	gierig	krise	krank	1	blank2r.bmp	0	1	+	0	1	blank2r.bmp	500	1	DHJF	500	1	blank2r.bmp	880	5	sonnig	880	1	!	1233	1	!	-1	0	0	0	0	0	0
2024-05-15	10:55:45	11:03:14	448762	6.6.1	4_exp_EVA_AWA_CON	32	A	B	Rpleas_acq	Oppo	Rpleas	2pleas	acq_US_unple_nomask	acq45_nomask	4	30	400	1	300	300	0	0	424	50	0	0	vertrauen	vergnügt	träumen	genießen	sonnig	engagiert	versagen	verbissen	töten	gemein	sterben	engstirnig	gesittet	besonnen	anregung	gütig	kuss	kreativ	geizig	bange	ausrottung	gierig	krise	krank	1	blank2r.bmp	0	1	+	0	1	blank2r.bmp	500	1	CPLW	500	1	blank2r.bmp	880	5	sterben	880	1	!	1232	1	!	1326	0	0	0	0	0	0
2024-05-15	10:55:45	11:03:18	452040	6.6.1	4_exp_EVA_AWA_CON	32	A	B	Rpleas_acq	Oppo	Rpleas	2pleas	acq_US_unple_nomask	acq45_nomask	4	31	400	0	300	300	0	0	1503	46	1	0	vertrauen	vergnügt	träumen	genießen	sonnig	engagiert	versagen	verbissen	töten	gemein	sterben	engstirnig	gesittet	besonnen	anregung	gütig	kuss	kreativ	geizig	bange	ausrottung	gierig	krise	krank	1	blank2r.bmp	0	1	+	0	1	blank2r.bmp	500	1	CPLW	500	1	blank2r.bmp	880	2	verbissen	880	1	!	1232	1	!	-1	0	0	0	0	0	0
2024-05-15	10:55:45	11:03:20	454242	6.6.1	4_exp_EVA_AWA_CON	32	A	B	Rpleas_acq	Oppo	Rpleas	2pleas	acq_US_unple_nomask	acq45_nomask	4	32	400	1	300	300	0	0	421	46	1	0	vertrauen	vergnügt	träumen	genießen	sonnig	engagiert	versagen	verbissen	töten	gemein	sterben	engstirnig	gesittet	besonnen	anregung	gütig	kuss	kreativ	geizig	bange	ausrottung	gierig	krise	krank	1	blank2r.bmp	0	1	+	0	1	blank2r.bmp	500	1	CPLW	500	1	blank2r.bmp	880	3	töten	880	1	!	1232	1	!	1322	0	0	0	0	0	0
2024-05-15	10:55:45	11:03:22	456494	6.6.1	4_exp_EVA_AWA_CON	32	A	B	Rpleas_acq	Oppo	Rpleas	2pleas	acq_US_unple_nomask	acq45_nomask	4	33	400	0	300	300	0	0	475	46	1	0	vertrauen	vergnügt	träumen	genießen	sonnig	engagiert	versagen	verbissen	töten	gemein	sterben	engstirnig	gesittet	besonnen	anregung	gütig	kuss	kreativ	geizig	bange	ausrottung	gierig	krise	krank	1	blank2r.bmp	0	1	+	0	1	blank2r.bmp	500	1	CPLW	500	1	blank2r.bmp	880	1	versagen	880	1	!	1232	1	!	-1	0	0	0	0	0	0
2024-05-15	10:55:45	11:03:24	458666	6.6.1	4_exp_EVA_AWA_CON	32	A	B	Rpleas_acq	Oppo	Rpleas	2pleas	acq_US_pleas_nomask	acq45_nomask	4	34	400	1	300	300	0	0	392	46	0	0	vertrauen	vergnügt	träumen	genießen	sonnig	engagiert	versagen	verbissen	töten	gemein	sterben	engstirnig	gesittet	besonnen	anregung	gütig	kuss	kreativ	geizig	bange	ausrottung	gierig	krise	krank	1	blank2r.bmp	0	1	+	0	1	blank2r.bmp	500	1	DHJF	500	1	blank2r.bmp	880	2	vergnügt	880	1	!	1233	1	!	1293	0	0	0	0	0	0
2024-05-15	10:55:45	11:03:27	460944	6.6.1	4_exp_EVA_AWA_CON	32	A	B	Rpleas_acq	Oppo	Rpleas	2pleas	acq_US_pleas_nomask	acq45_nomask	4	35	400	0	300	300	0	0	500	50	1	0	vertrauen	vergnügt	träumen	genießen	sonnig	engagiert	versagen	verbissen	töten	gemein	sterben	engstirnig	gesittet	besonnen	anregung	gütig	kuss	kreativ	geizig	bange	ausrottung	gierig	krise	krank	1	blank2r.bmp	0	1	+	0	1	blank2r.bmp	500	1	DHJF	500	1	blank2r.bmp	880	3	träumen	880	1	!	1232	1	!	-1	0	0	0	0	0	0
2024-05-15	10:55:45	11:03:29	463194	6.6.1	4_exp_EVA_AWA_CON	32	A	B	Rpleas_acq	Oppo	Rpleas	2pleas	acq_US_pleas_nomask	acq45_nomask	4	36	400	1	300	300	0	0	467	50	1	0	vertrauen	vergnügt	träumen	genießen	sonnig	engagiert	versagen	verbissen	töten	gemein	sterben	engstirnig	gesittet	besonnen	anregung	gütig	kuss	kreativ	geizig	bange	ausrottung	gierig	krise	krank	1	blank2r.bmp	0	1	+	0	1	blank2r.bmp	500	1	DHJF	500	1	blank2r.bmp	880	4	genießen	880	1	!	1232	1	!	1368	0	0	0	0	0	0
2024-05-15	10:55:45	11:03:39	472866	6.6.1	4_exp_EVA_AWA_CON	32	A	B	Rpleas_acq	Oppo	Rpleas	2pleas	acq_US_pleas_nomask	acq45_nomask	5	1	400	1	300	300	0	0	402	50	1	0	vertrauen	vergnügt	träumen	genießen	sonnig	engagiert	versagen	verbissen	töten	gemein	sterben	engstirnig	gesittet	besonnen	anregung	gütig	kuss	kreativ	geizig	bange	ausrottung	gierig	krise	krank	1	blank2r.bmp	0	1	+	0	1	blank2r.bmp	500	1	DHJF	500	1	blank2r.bmp	880	5	sonnig	880	1	!	1232	1	!	1304	0	0	0	0	0	0
2024-05-15	10:55:45	11:03:41	474873	6.6.1	4_exp_EVA_AWA_CON	32	A	B	Rpleas_acq	Oppo	Rpleas	2pleas	acq_US_unple_nomask	acq45_nomask	5	2	400	0	300	300	0	0	229	50	0	0	vertrauen	vergnügt	träumen	genießen	sonnig	engagiert	versagen	verbissen	töten	gemein	sterben	engstirnig	gesittet	besonnen	anregung	gütig	kuss	kreativ	geizig	bange	ausrottung	gierig	krise	krank	1	blank2r.bmp	0	1	+	0	1	blank2r.bmp	500	1	CPLW	500	1	blank2r.bmp	880	1	versagen	880	1	!	-1	1	!	-1	0	0	0	0	0	0
2024-05-15	10:55:45	11:03:43	477050	6.6.1	4_exp_EVA_AWA_CON	32	A	B	Rpleas_acq	Oppo	Rpleas	2pleas	acq_US_unple_nomask	acq45_nomask	5	3	400	1	300	300	0	0	394	46	1	0	vertrauen	vergnügt	träumen	genießen	sonnig	engagiert	versagen	verbissen	töten	gemein	sterben	engstirnig	gesittet	besonnen	anregung	gütig	kuss	kreativ	geizig	bange	ausrottung	gierig	krise	krank	1	blank2r.bmp	0	1	+	0	1	blank2r.bmp	500	1	CPLW	500	1	blank2r.bmp	880	5	sterben	880	1	!	1232	1	!	1295	0	0	0	0	0	0
2024-05-15	10:55:45	11:03:45	479344	6.6.1	4_exp_EVA_AWA_CON	32	A	B	Rpleas_acq	Oppo	Rpleas	2pleas	acq_US_pleas_nomask	acq45_nomask	5	4	400	0	300	300	0	0	518	50	1	0	vertrauen	vergnügt	träumen	genießen	sonnig	engagiert	versagen	verbissen	töten	gemein	sterben	engstirnig	gesittet	besonnen	anregung	gütig	kuss	kreativ	geizig	bange	ausrottung	gierig	krise	krank	1	blank2r.bmp	0	1	+	0	1	blank2r.bmp	500	1	DHJF	500	1	blank2r.bmp	880	4	genießen	880	1	!	1232	1	!	-1	0	0	0	0	0	0
2024-05-15	10:55:45	11:03:47	481514	6.6.1	4_exp_EVA_AWA_CON	32	A	B	Rpleas_acq	Oppo	Rpleas	2pleas	acq_US_unple_nomask	acq45_nomask	5	5	400	1	300	300	0	0	395	50	0	0	vertrauen	vergnügt	träumen	genießen	sonnig	engagiert	versagen	verbissen	töten	gemein	sterben	engstirnig	gesittet	besonnen	anregung	gütig	kuss	kreativ	geizig	bange	ausrottung	gierig	krise	krank	1	blank2r.bmp	0	1	+	0	1	blank2r.bmp	500	1	CPLW	500	1	blank2r.bmp	880	3	töten	880	1	!	1233	1	!	1296	0	0	0	0	0	0
2024-05-15	10:55:45	11:03:49	483816	6.6.1	4_exp_EVA_AWA_CON	32	A	B	Rpleas_acq	Oppo	Rpleas	2pleas	acq_US_unple_nomask	acq45_nomask	5	6	400	0	300	300	0	0	528	46	1	0	vertrauen	vergnügt	träumen	genießen	sonnig	engagiert	versagen	verbissen	töten	gemein	sterben	engstirnig	gesittet	besonnen	anregung	gütig	kuss	kreativ	geizig	bange	ausrottung	gierig	krise	krank	1	blank2r.bmp	0	1	+	0	1	blank2r.bmp	500	1	CPLW	500	1	blank2r.bmp	880	2	verbissen	880	1	!	1233	1	!	-1	0	0	0	0	0	0
2024-05-15	10:55:45	11:03:52	485928	6.6.1	4_exp_EVA_AWA_CON	32	A	B	Rpleas_acq	Oppo	Rpleas	2pleas	acq_US_unple_nomask	acq45_nomask	5	7	400	1	300	300	0	0	338	50	0	0	vertrauen	vergnügt	träumen	genießen	sonnig	engagiert	versagen	verbissen	töten	gemein	sterben	engstirnig	gesittet	besonnen	anregung	gütig	kuss	kreativ	geizig	bange	ausrottung	gierig	krise	krank	1	blank2r.bmp	0	1	+	0	1	blank2r.bmp	500	1	CPLW	500	1	blank2r.bmp	880	6	engstirnig	880	1	!	1233	1	!	1238	0	0	0	0	0	0
2024-05-15	10:55:45	11:03:54	488122	6.6.1	4_exp_EVA_AWA_CON	32	A	B	Rpleas_acq	Oppo	Rpleas	2pleas	acq_US_pleas_nomask	acq45_nomask	5	8	400	1	300	300	0	0	419	46	0	0	vertrauen	vergnügt	träumen	genießen	sonnig	engagiert	versagen	verbissen	töten	gemein	sterben	engstirnig	gesittet	besonnen	anregung	gütig	kuss	kreativ	geizig	bange	ausrottung	gierig	krise	krank	1	blank2r.bmp	0	1	+	0	1	blank2r.bmp	500	1	DHJF	500	1	blank2r.bmp	880	1	vertrauen	880	1	!	1233	1	!	1320	0	0	0	0	0	0
2024-05-15	10:55:45	11:03:56	490354	6.6.1	4_exp_EVA_AWA_CON	32	A	B	Rpleas_acq	Oppo	Rpleas	2pleas	acq_US_pleas_nomask	acq45_nomask	5	9	400	1	300	300	0	0	449	50	1	0	vertrauen	vergnügt	träumen	genießen	sonnig	engagiert	versagen	verbissen	töten	gemein	sterben	engstirnig	gesittet	besonnen	anregung	gütig	kuss	kreativ	geizig	bange	ausrottung	gierig	krise	krank	1	blank2r.bmp	0	1	+	0	1	blank2r.bmp	500	1	DHJF	500	1	blank2r.bmp	880	3	träumen	880	1	!	1232	1	!	1351	0	0	0	0	0	0
2024-05-15	10:55:45	11:03:58	492625	6.6.1	4_exp_EVA_AWA_CON	32	A	B	Rpleas_acq	Oppo	Rpleas	2pleas	acq_US_pleas_nomask	acq45_nomask	5	10	400	0	300	300	0	0	490	50	1	0	vertrauen	vergnügt	träumen	genießen	sonnig	engagiert	versagen	verbissen	töten	gemein	sterben	engstirnig	gesittet	besonnen	anregung	gütig	kuss	kreativ	geizig	bange	ausrottung	gierig	krise	krank	1	blank2r.bmp	0	1	+	0	1	blank2r.bmp	500	1	DHJF	500	1	blank2r.bmp	880	2	vergnügt	880	1	!	1232	1	!	-1	0	0	0	0	0	0
2024-05-15	10:55:45	11:04:01	494842	6.6.1	4_exp_EVA_AWA_CON	32	A	B	Rpleas_acq	Oppo	Rpleas	2pleas	acq_US_pleas_nomask	acq45_nomask	5	11	400	1	300	300	0	0	434	50	1	0	vertrauen	vergnügt	träumen	genießen	sonnig	engagiert	versagen	verbissen	töten	gemein	sterben	engstirnig	gesittet	besonnen	anregung	gütig	kuss	kreativ	geizig	bange	ausrottung	gierig	krise	krank	1	blank2r.bmp	0	1	+	0	1	blank2r.bmp	500	1	DHJF	500	1	blank2r.bmp	880	6	engagiert	880	1	!	1232	1	!	1336	0	0	0	0	0	0
2024-05-15	10:55:45	11:04:03	496936	6.6.1	4_exp_EVA_AWA_CON	32	A	B	Rpleas_acq	Oppo	Rpleas	2pleas	acq_US_unple_nomask	acq45_nomask	5	12	400	0	300	300	0	0	319	50	0	0	vertrauen	vergnügt	träumen	genießen	sonnig	engagiert	versagen	verbissen	töten	gemein	sterben	engstirnig	gesittet	besonnen	anregung	gütig	kuss	kreativ	geizig	bange	ausrottung	gierig	krise	krank	1	blank2r.bmp	0	1	+	0	1	blank2r.bmp	500	1	CPLW	500	1	blank2r.bmp	880	4	gemein	880	1	!	-1	1	!	-1	0	0	0	0	0	0
2024-05-15	10:55:45	11:04:05	499216	6.6.1	4_exp_EVA_AWA_CON	32	A	B	Rpleas_acq	Oppo	Rpleas	2pleas	acq_US_unple_nomask	acq45_nomask	5	13	400	0	300	300	0	0	497	50	0	0	vertrauen	vergnügt	träumen	genießen	sonnig	engagiert	versagen	verbissen	töten	gemein	sterben	engstirnig	gesittet	besonnen	anregung	gütig	kuss	kreativ	geizig	bange	ausrottung	gierig	krise	krank	1	blank2r.bmp	0	1	+	0	1	blank2r.bmp	500	1	CPLW	500	1	blank2r.bmp	880	4	gemein	880	1	!	1233	1	!	-1	0	0	0	0	0	0
2024-05-15	10:55:45	11:04:07	501434	6.6.1	4_exp_EVA_AWA_CON	32	A	B	Rpleas_acq	Oppo	Rpleas	2pleas	acq_US_unple_nomask	acq45_nomask	5	14	400	1	300	300	0	0	442	46	1	0	vertrauen	vergnügt	träumen	genießen	sonnig	engagiert	versagen	verbissen	töten	gemein	sterben	engstirnig	gesittet	besonnen	anregung	gütig	kuss	kreativ	geizig	bange	ausrottung	gierig	krise	krank	1	blank2r.bmp	0	1	+	0	1	blank2r.bmp	500	1	CPLW	500	1	blank2r.bmp	880	5	sterben	880	1	!	1232	1	!	1343	0	0	0	0	0	0
2024-05-15	10:55:45	11:04:09	503744	6.6.1	4_exp_EVA_AWA_CON	32	A	B	Rpleas_acq	Oppo	Rpleas	2pleas	acq_US_unple_nomask	acq45_nomask	5	15	400	0	300	300	0	0	533	46	1	0	vertrauen	vergnügt	träumen	genießen	sonnig	engagiert	versagen	verbissen	töten	gemein	sterben	engstirnig	gesittet	besonnen	anregung	gütig	kuss	kreativ	geizig	bange	ausrottung	gierig	krise	krank	1	blank2r.bmp	0	1	+	0	1	blank2r.bmp	500	1	CPLW	500	1	blank2r.bmp	880	6	engstirnig	880	1	!	1233	1	!	-1	0	0	0	0	0	0
2024-05-15	10:55:45	11:04:14	507920	6.6.1	4_exp_EVA_AWA_CON	32	A	B	Rpleas_acq	Oppo	Rpleas	2pleas	acq_US_pleas_nomask	acq45_nomask	5	16	400	0	300	300	0	0	2397	46	0	0	vertrauen	vergnügt	träumen	genießen	sonnig	engagiert	versagen	verbissen	töten	gemein	sterben	engstirnig	gesittet	besonnen	anregung	gütig	kuss	kreativ	geizig	bange	ausrottung	gierig	krise	krank	1	blank2r.bmp	0	1	+	0	1	blank2r.bmp	500	1	DHJF	500	1	blank2r.bmp	880	4	genießen	880	1	!	1232	1	!	-1	0	0	0	0	0	0
2024-05-15	10:55:45	11:04:16	510288	6.6.1	4_exp_EVA_AWA_CON	32	A	B	Rpleas_acq	Oppo	Rpleas	2pleas	acq_US_pleas_nomask	acq45_nomask	5	17	400	0	300	300	0	0	592	50	1	0	vertrauen	vergnügt	träumen	genießen	sonnig	engagiert	versagen	verbissen	töten	gemein	sterben	engstirnig	gesittet	besonnen	anregung	gütig	kuss	kreativ	geizig	bange	ausrottung	gierig	krise	krank	1	blank2r.bmp	0	1	+	0	1	blank2r.bmp	500	1	DHJF	500	1	blank2r.bmp	880	2	vergnügt	880	1	!	1232	1	!	-1	0	0	0	0	0	0
2024-05-15	10:55:45	11:04:18	512336	6.6.1	4_exp_EVA_AWA_CON	32	A	B	Rpleas_acq	Oppo	Rpleas	2pleas	acq_US_pleas_nomask	acq45_nomask	5	18	400	0	300	300	0	0	269	50	1	0	vertrauen	vergnügt	träumen	genießen	sonnig	engagiert	versagen	verbissen	töten	gemein	sterben	engstirnig	gesittet	besonnen	anregung	gütig	kuss	kreativ	geizig	bange	ausrottung	gierig	krise	krank	1	blank2r.bmp	0	1	+	0	1	blank2r.bmp	500	1	DHJF	500	1	blank2r.bmp	880	5	sonnig	880	1	!	-1	1	!	-1	0	0	0	0	0	0
2024-05-15	10:55:45	11:04:20	514352	6.6.1	4_exp_EVA_AWA_CON	32	A	B	Rpleas_acq	Oppo	Rpleas	2pleas	acq_US_unple_nomask	acq45_nomask	5	19	400	0	300	300	0	0	243	50	0	0	vertrauen	vergnügt	träumen	genießen	sonnig	engagiert	versagen	verbissen	töten	gemein	sterben	engstirnig	gesittet	besonnen	anregung	gütig	kuss	kreativ	geizig	bange	ausrottung	gierig	krise	krank	1	blank2r.bmp	0	1	+	0	1	blank2r.bmp	500	1	CPLW	500	1	blank2r.bmp	880	3	töten	880	1	!	-1	1	!	-1	0	0	0	0	0	0
2024-05-15	10:55:45	11:04:22	516538	6.6.1	4_exp_EVA_AWA_CON	32	A	B	Rpleas_acq	Oppo	Rpleas	2pleas	acq_US_unple_nomask	acq45_nomask	5	20	400	1	300	300	0	0	406	46	1	0	vertrauen	vergnügt	träumen	genießen	sonnig	engagiert	versagen	verbissen	töten	gemein	sterben	engstirnig	gesittet	besonnen	anregung	gütig	kuss	kreativ	geizig	bange	ausrottung	gierig	krise	krank	1	blank2r.bmp	0	1	+	0	1	blank2r.bmp	500	1	CPLW	500	1	blank2r.bmp	880	2	verbissen	880	1	!	1233	1	!	1308	0	0	0	0	0	0
2024-05-15	10:55:45	11:04:24	518754	6.6.1	4_exp_EVA_AWA_CON	32	A	B	Rpleas_acq	Oppo	Rpleas	2pleas	acq_US_unple_nomask	acq45_nomask	5	21	400	1	300	300	0	0	441	46	1	0	vertrauen	vergnügt	träumen	genießen	sonnig	engagiert	versagen	verbissen	töten	gemein	sterben	engstirnig	gesittet	besonnen	anregung	gütig	kuss	kreativ	geizig	bange	ausrottung	gierig	krise	krank	1	blank2r.bmp	0	1	+	0	1	blank2r.bmp	500	1	CPLW	500	1	blank2r.bmp	880	1	versagen	880	1	!	1232	1	!	1343	0	0	0	0	0	0
2024-05-15	10:55:45	11:04:27	520962	6.6.1	4_exp_EVA_AWA_CON	32	A	B	Rpleas_acq	Oppo	Rpleas	2pleas	acq_US_pleas_nomask	acq45_nomask	5	22	400	1	300	300	0	0	427	46	0	0	vertrauen	vergnügt	träumen	genießen	sonnig	engagiert	versagen	verbissen	töten	gemein	sterben	engstirnig	gesittet	besonnen	anregung	gütig	kuss	kreativ	geizig	bange	ausrottung	gierig	krise	krank	1	blank2r.bmp	0	1	+	0	1	blank2r.bmp	500	1	DHJF	500	1	blank2r.bmp	880	6	engagiert	880	1	!	1232	1	!	1328	0	0	0	0	0	0
2024-05-15	10:55:45	11:04:29	523082	6.6.1	4_exp_EVA_AWA_CON	32	A	B	Rpleas_acq	Oppo	Rpleas	2pleas	acq_US_pleas_nomask	acq45_nomask	5	23	400	1	300	300	0	0	346	50	1	0	vertrauen	vergnügt	träumen	genießen	sonnig	engagiert	versagen	verbissen	töten	gemein	sterben	engstirnig	gesittet	besonnen	anregung	gütig	kuss	kreativ	geizig	bange	ausrottung	gierig	krise	krank	1	blank2r.bmp	0	1	+	0	1	blank2r.bmp	500	1	DHJF	500	1	blank2r.bmp	880	1	vertrauen	880	1	!	1232	1	!	1247	0	0	0	0	0	0
2024-05-15	10:55:45	11:04:31	525448	6.6.1	4_exp_EVA_AWA_CON	32	A	B	Rpleas_acq	Oppo	Rpleas	2pleas	acq_US_unple_nomask	acq45_nomask	5	24	400	0	300	300	0	0	592	46	1	0	vertrauen	vergnügt	träumen	genießen	sonnig	engagiert	versagen	verbissen	töten	gemein	sterben	engstirnig	gesittet	besonnen	anregung	gütig	kuss	kreativ	geizig	bange	ausrottung	gierig	krise	krank	1	blank2r.bmp	0	1	+	0	1	blank2r.bmp	500	1	CPLW	500	1	blank2r.bmp	880	3	töten	880	1	!	1232	1	!	-1	0	0	0	0	0	0
2024-05-15	10:55:45	11:04:33	527520	6.6.1	4_exp_EVA_AWA_CON	32	A	B	Rpleas_acq	Oppo	Rpleas	2pleas	acq_US_pleas_nomask	acq45_nomask	5	25	400	0	300	300	0	0	293	46	0	0	vertrauen	vergnügt	träumen	genießen	sonnig	engagiert	versagen	verbissen	töten	gemein	sterben	engstirnig	gesittet	besonnen	anregung	gütig	kuss	kreativ	geizig	bange	ausrottung	gierig	krise	krank	1	blank2r.bmp	0	1	+	0	1	blank2r.bmp	500	1	DHJF	500	1	blank2r.bmp	880	3	träumen	880	1	!	-1	1	!	-1	0	0	0	0	0	0
2024-05-15	10:55:45	11:04:36	530192	6.6.1	4_exp_EVA_AWA_CON	32	A	B	Rpleas_acq	Oppo	Rpleas	2pleas	acq_US_unple_nomask	acq45_nomask	5	26	400	0	300	300	0	0	893	50	0	0	vertrauen	vergnügt	träumen	genießen	sonnig	engagiert	versagen	verbissen	töten	gemein	sterben	engstirnig	gesittet	besonnen	anregung	gütig	kuss	kreativ	geizig	bange	ausrottung	gierig	krise	krank	1	blank2r.bmp	0	1	+	0	1	blank2r.bmp	500	1	CPLW	500	1	blank2r.bmp	880	6	engstirnig	880	1	!	1232	1	!	-1	0	0	0	0	0	0
2024-05-15	10:55:45	11:04:39	533216	6.6.1	4_exp_EVA_AWA_CON	32	A	B	Rpleas_acq	Oppo	Rpleas	2pleas	acq_US_unple_nomask	acq45_nomask	5	27	400	0	300	300	0	0	1246	46	1	0	vertrauen	vergnügt	träumen	genießen	sonnig	engagiert	versagen	verbissen	töten	gemein	sterben	engstirnig	gesittet	besonnen	anregung	gütig	kuss	kreativ	geizig	bange	ausrottung	gierig	krise	krank	1	blank2r.bmp	0	1	+	0	1	blank2r.bmp	500	1	CPLW	500	1	blank2r.bmp	880	5	sterben	880	1	!	1232	1	!	-1	0	0	0	0	0	0
2024-05-15	10:55:45	11:04:41	535576	6.6.1	4_exp_EVA_AWA_CON	32	A	B	Rpleas_acq	Oppo	Rpleas	2pleas	acq_US_pleas_nomask	acq45_nomask	5	28	400	0	300	300	0	0	584	50	1	0	vertrauen	vergnügt	träumen	genießen	sonnig	engagiert	versagen	verbissen	töten	gemein	sterben	engstirnig	gesittet	besonnen	anregung	gütig	kuss	kreativ	geizig	bange	ausrottung	gierig	krise	krank	1	blank2r.bmp	0	1	+	0	1	blank2r.bmp	500	1	DHJF	500	1	blank2r.bmp	880	3	träumen	880	1	!	1233	1	!	-1	0	0	0	0	0	0
2024-05-15	10:55:45	11:04:43	537730	6.6.1	4_exp_EVA_AWA_CON	32	A	B	Rpleas_acq	Oppo	Rpleas	2pleas	acq_US_pleas_nomask	acq45_nomask	5	29	400	1	300	300	0	0	374	46	0	0	vertrauen	vergnügt	träumen	genießen	sonnig	engagiert	versagen	verbissen	töten	gemein	sterben	engstirnig	gesittet	besonnen	anregung	gütig	kuss	kreativ	geizig	bange	ausrottung	gierig	krise	krank	1	blank2r.bmp	0	1	+	0	1	blank2r.bmp	500	1	DHJF	500	1	blank2r.bmp	880	1	vertrauen	880	1	!	1232	1	!	1276	0	0	0	0	0	0
2024-05-15	10:55:45	11:04:46	539982	6.6.1	4_exp_EVA_AWA_CON	32	A	B	Rpleas_acq	Oppo	Rpleas	2pleas	acq_US_pleas_nomask	acq45_nomask	5	30	400	0	300	300	0	0	479	46	0	0	vertrauen	vergnügt	träumen	genießen	sonnig	engagiert	versagen	verbissen	töten	gemein	sterben	engstirnig	gesittet	besonnen	anregung	gütig	kuss	kreativ	geizig	bange	ausrottung	gierig	krise	krank	1	blank2r.bmp	0	1	+	0	1	blank2r.bmp	500	1	DHJF	500	1	blank2r.bmp	880	5	sonnig	880	1	!	1232	1	!	-1	0	0	0	0	0	0
2024-05-15	10:55:45	11:04:48	542000	6.6.1	4_exp_EVA_AWA_CON	32	A	B	Rpleas_acq	Oppo	Rpleas	2pleas	acq_US_unple_nomask	acq45_nomask	5	31	400	0	300	300	0	0	243	50	0	0	vertrauen	vergnügt	träumen	genießen	sonnig	engagiert	versagen	verbissen	töten	gemein	sterben	engstirnig	gesittet	besonnen	anregung	gütig	kuss	kreativ	geizig	bange	ausrottung	gierig	krise	krank	1	blank2r.bmp	0	1	+	0	1	blank2r.bmp	500	1	CPLW	500	1	blank2r.bmp	880	2	verbissen	880	1	!	-1	1	!	-1	0	0	0	0	0	0
2024-05-15	10:55:45	11:04:50	544360	6.6.1	4_exp_EVA_AWA_CON	32	A	B	Rpleas_acq	Oppo	Rpleas	2pleas	acq_US_pleas_nomask	acq45_nomask	5	32	400	0	300	300	0	0	582	50	1	0	vertrauen	vergnügt	träumen	genießen	sonnig	engagiert	versagen	verbissen	töten	gemein	sterben	engstirnig	gesittet	besonnen	anregung	gütig	kuss	kreativ	geizig	bange	ausrottung	gierig	krise	krank	1	blank2r.bmp	0	1	+	0	1	blank2r.bmp	500	1	DHJF	500	1	blank2r.bmp	880	6	engagiert	880	1	!	1232	1	!	-1	0	0	0	0	0	0
2024-05-15	10:55:45	11:04:52	546400	6.6.1	4_exp_EVA_AWA_CON	32	A	B	Rpleas_acq	Oppo	Rpleas	2pleas	acq_US_pleas_nomask	acq45_nomask	5	33	400	0	300	300	0	0	260	46	0	0	vertrauen	vergnügt	träumen	genießen	sonnig	engagiert	versagen	verbissen	töten	gemein	sterben	engstirnig	gesittet	besonnen	anregung	gütig	kuss	kreativ	geizig	bange	ausrottung	gierig	krise	krank	1	blank2r.bmp	0	1	+	0	1	blank2r.bmp	500	1	DHJF	500	1	blank2r.bmp	880	4	genießen	880	1	!	-1	1	!	-1	0	0	0	0	0	0
2024-05-15	10:55:45	11:04:54	548680	6.6.1	4_exp_EVA_AWA_CON	32	A	B	Rpleas_acq	Oppo	Rpleas	2pleas	acq_US_unple_nomask	acq45_nomask	5	34	400	0	300	300	0	0	499	50	0	0	vertrauen	vergnügt	träumen	genießen	sonnig	engagiert	versagen	verbissen	töten	gemein	sterben	engstirnig	gesittet	besonnen	anregung	gütig	kuss	kreativ	geizig	bange	ausrottung	gierig	krise	krank	1	blank2r.bmp	0	1	+	0	1	blank2r.bmp	500	1	CPLW	500	1	blank2r.bmp	880	1	versagen	880	1	!	1233	1	!	-1	0	0	0	0	0	0
2024-05-15	10:55:45	11:04:57	550930	6.6.1	4_exp_EVA_AWA_CON	32	A	B	Rpleas_acq	Oppo	Rpleas	2pleas	acq_US_unple_nomask	acq45_nomask	5	35	400	1	300	300	0	0	466	50	0	0	vertrauen	vergnügt	träumen	genießen	sonnig	engagiert	versagen	verbissen	töten	gemein	sterben	engstirnig	gesittet	besonnen	anregung	gütig	kuss	kreativ	geizig	bange	ausrottung	gierig	krise	krank	1	blank2r.bmp	0	1	+	0	1	blank2r.bmp	500	1	CPLW	500	1	blank2r.bmp	880	4	gemein	880	1	!	1233	1	!	1367	0	0	0	0	0	0
2024-05-15	10:55:45	11:04:59	553170	6.6.1	4_exp_EVA_AWA_CON	32	A	B	Rpleas_acq	Oppo	Rpleas	2pleas	acq_US_pleas_nomask	acq45_nomask	5	36	400	1	300	300	0	0	464	46	0	0	vertrauen	vergnügt	träumen	genießen	sonnig	engagiert	versagen	verbissen	töten	gemein	sterben	engstirnig	gesittet	besonnen	anregung	gütig	kuss	kreativ	geizig	bange	ausrottung	gierig	krise	krank	1	blank2r.bmp	0	1	+	0	1	blank2r.bmp	500	1	DHJF	500	1	blank2r.bmp	880	2	vergnügt	880	1	!	1233	1	!	1366	0	0	0	0	0	0
2024-05-15	10:55:45	11:05:12	566740	6.6.1	4_exp_EVA_AWA_CON	32	A	B	Rpleas_acq	Oppo	Lpleas	2pleas	EvalRating_firsttwo	EvalRating_firsttwo	6	1	0	0	300	300	0	0	6272	line	0	-87,3697916666666714036pct	vertrauen	vergnügt	träumen	genießen	sonnig	engagiert	versagen	verbissen	töten	gemein	sterben	engstirnig	gesittet	besonnen	anregung	gütig	kuss	kreativ	geizig	bange	ausrottung	gierig	krise	krank	1		-8	1	Wie angenehm oder unangenehm finden Sie die  Buchstabenkette WDLH?	-8	1		-8	1		-8	1		-8	1	Unangenehm	-8	1	Angenehm	-8	0	0	0	0	0	0	0	0	0
2024-05-15	10:55:45	11:05:28	582620	6.6.1	4_exp_EVA_AWA_CON	32	A	B	Rpleas_acq	Oppo	Lpleas	2pleas	EvalRating_lastfour	EvalRating_lastfour	7	1	0	0	300	300	0	0	13507	line	0	-21,6145833333333285964pct	vertrauen	vergnügt	träumen	genießen	sonnig	engagiert	versagen	verbissen	töten	gemein	sterben	engstirnig	gesittet	besonnen	anregung	gütig	kuss	kreativ	geizig	bange	ausrottung	gierig	krise	krank	1		-7	3	Wie angenehm oder unangenehm finden Sie die  Buchstabenkette FCJP?	-7	1		-7	1		-7	1		-7	1	Unangenehm	-7	1	Angenehm	-7	0	0	0	0	0	0	0	0	0
2024-05-15	10:55:45	11:05:31	584986	6.6.1	4_exp_EVA_AWA_CON	32	A	B	Rpleas_acq	Oppo	Lpleas	2pleas	blank_screen	EvalRating_lastfour	7	3	0	0	300	300	0	0	0	0	0	-21,6145833333333285964pct	vertrauen	vergnügt	träumen	genießen	sonnig	engagiert	versagen	verbissen	töten	gemein	sterben	engstirnig	gesittet	besonnen	anregung	gütig	kuss	kreativ	geizig	bange	ausrottung	gierig	krise	krank	1		-8	0	0	0	0	0	0	0	0	0	0	0	0	0	0	0	0	0	0	0	0	0	0	0	0	0	0	0
2024-05-15	10:55:45	11:05:35	588973	6.6.1	4_exp_EVA_AWA_CON	32	A	B	Rpleas_acq	Oppo	Lpleas	2pleas	EvalRating_lastfour	EvalRating_lastfour	7	4	0	0	300	300	0	0	3398	line	0	-16,2760416666666571928pct	vertrauen	vergnügt	träumen	genießen	sonnig	engagiert	versagen	verbissen	töten	gemein	sterben	engstirnig	gesittet	besonnen	anregung	gütig	kuss	kreativ	geizig	bange	ausrottung	gierig	krise	krank	1		-7	1	Wie angenehm oder unangenehm finden Sie die  Buchstabenkette CPLW?	-7	1		-7	1		-7	1		-7	1	Unangenehm	-7	1	Angenehm	-7	0	0	0	0	0	0	0	0	0
2024-05-15	10:55:45	11:05:37	591341	6.6.1	4_exp_EVA_AWA_CON	32	A	B	Rpleas_acq	Oppo	Lpleas	2pleas	blank_screen	EvalRating_lastfour	7	6	0	0	300	300	0	0	0	0	0	-16,2760416666666571928pct	vertrauen	vergnügt	träumen	genießen	sonnig	engagiert	versagen	verbissen	töten	gemein	sterben	engstirnig	gesittet	besonnen	anregung	gütig	kuss	kreativ	geizig	bange	ausrottung	gierig	krise	krank	1		-8	0	0	0	0	0	0	0	0	0	0	0	0	0	0	0	0	0	0	0	0	0	0	0	0	0	0	0
2024-05-15	10:55:45	11:05:41	595397	6.6.1	4_exp_EVA_AWA_CON	32	A	B	Rpleas_acq	Oppo	Lpleas	2pleas	EvalRating_lastfour	EvalRating_lastfour	7	7	0	0	300	300	0	0	3468	line	0	7,03125pct	vertrauen	vergnügt	träumen	genießen	sonnig	engagiert	versagen	verbissen	töten	gemein	sterben	engstirnig	gesittet	besonnen	anregung	gütig	kuss	kreativ	geizig	bange	ausrottung	gierig	krise	krank	1		-7	2	Wie angenehm oder unangenehm finden Sie die  Buchstabenkette DHJF?	-7	1		-7	1		-7	1		-7	1	Unangenehm	-7	1	Angenehm	-7	0	0	0	0	0	0	0	0	0
2024-05-15	10:55:45	11:06:42	656651	6.6.1	4_exp_EVA_AWA_CON	32	A	B	Rpleas_acq	Oppo	Lpleas	2pleas	conawa_CS2_US6	conawa1_nomask	8	1	0	0	300	300	0	0	20354	engstirnig	1	7,03125pct	vertrauen	vergnügt	träumen	genießen	sonnig	engagiert	versagen	verbissen	töten	gemein	sterben	engstirnig	gesittet	besonnen	anregung	gütig	kuss	kreativ	geizig	bange	ausrottung	gierig	krise	krank	0	0	0	0	0	0	0	0	0	0	0	0	0	0	0	0	0	0	0	0	0	0	0	0	0	0	0	0	0	0
2024-05-15	10:55:45	11:06:42	656653	6.6.1	4_exp_EVA_AWA_CON	32	A	B	Rpleas_acq	Oppo	Lpleas	2pleas	conawa_CS2_US6_confidence	conawa1_nomask	8	1	0	0	300	300	0	0	20354	guess	1	7,03125pct	vertrauen	vergnügt	träumen	genießen	sonnig	engagiert	versagen	verbissen	töten	gemein	sterben	engstirnig	gesittet	besonnen	anregung	gütig	kuss	kreativ	geizig	bange	ausrottung	gierig	krise	krank	0	0	0	0	0	0	0	0	0	0	0	0	0	0	0	0	0	0	0	0	0	0	0	0	0	0	0	0	0	0
2024-05-15	10:55:45	11:06:51	664917	6.6.1	4_exp_EVA_AWA_CON	32	A	B	Rpleas_acq	Oppo	Lpleas	2pleas	conawa_CS2_US5	conawa1_nomask	8	2	0	0	300	300	0	0	7651	sonnig	1	7,03125pct	vertrauen	vergnügt	träumen	genießen	sonnig	engagiert	versagen	verbissen	töten	gemein	sterben	engstirnig	gesittet	besonnen	anregung	gütig	kuss	kreativ	geizig	bange	ausrottung	gierig	krise	krank	0	0	0	0	0	0	0	0	0	0	0	0	0	0	0	0	0	0	0	0	0	0	0	0	0	0	0	0	0	0
2024-05-15	10:55:45	11:06:51	664918	6.6.1	4_exp_EVA_AWA_CON	32	A	B	Rpleas_acq	Oppo	Lpleas	2pleas	conawa_CS2_US5_confidence	conawa1_nomask	8	2	0	0	300	300	0	0	7651	guess	1	7,03125pct	vertrauen	vergnügt	träumen	genießen	sonnig	engagiert	versagen	verbissen	töten	gemein	sterben	engstirnig	gesittet	besonnen	anregung	gütig	kuss	kreativ	geizig	bange	ausrottung	gierig	krise	krank	0	0	0	0	0	0	0	0	0	0	0	0	0	0	0	0	0	0	0	0	0	0	0	0	0	0	0	0	0	0
2024-05-15	10:55:45	11:07:00	674203	6.6.1	4_exp_EVA_AWA_CON	32	A	B	Rpleas_acq	Oppo	Lpleas	2pleas	conawa_CS1_US4	conawa1_nomask	8	3	0	0	300	300	0	0	8665	genießen	1	7,03125pct	vertrauen	vergnügt	träumen	genießen	sonnig	engagiert	versagen	verbissen	töten	gemein	sterben	engstirnig	gesittet	besonnen	anregung	gütig	kuss	kreativ	geizig	bange	ausrottung	gierig	krise	krank	0	0	0	0	0	0	0	0	0	0	0	0	0	0	0	0	0	0	0	0	0	0	0	0	0	0	0	0	0	0
2024-05-15	10:55:45	11:07:00	674204	6.6.1	4_exp_EVA_AWA_CON	32	A	B	Rpleas_acq	Oppo	Lpleas	2pleas	conawa_CS1_US4_confidence	conawa1_nomask	8	3	0	0	300	300	0	0	8665	guess	1	7,03125pct	vertrauen	vergnügt	träumen	genießen	sonnig	engagiert	versagen	verbissen	töten	gemein	sterben	engstirnig	gesittet	besonnen	anregung	gütig	kuss	kreativ	geizig	bange	ausrottung	gierig	krise	krank	0	0	0	0	0	0	0	0	0	0	0	0	0	0	0	0	0	0	0	0	0	0	0	0	0	0	0	0	0	0
2024-05-15	10:55:45	11:07:15	689012	6.6.1	4_exp_EVA_AWA_CON	32	A	B	Rpleas_acq	Oppo	Lpleas	2pleas	conawa_CS1_US5	conawa1_nomask	8	4	0	0	300	300	0	0	14197	kuss	1	7,03125pct	vertrauen	vergnügt	träumen	genießen	sonnig	engagiert	versagen	verbissen	töten	gemein	sterben	engstirnig	gesittet	besonnen	anregung	gütig	kuss	kreativ	geizig	bange	ausrottung	gierig	krise	krank	0	0	0	0	0	0	0	0	0	0	0	0	0	0	0	0	0	0	0	0	0	0	0	0	0	0	0	0	0	0
2024-05-15	10:55:45	11:07:15	689014	6.6.1	4_exp_EVA_AWA_CON	32	A	B	Rpleas_acq	Oppo	Lpleas	2pleas	conawa_CS1_US5_confidence	conawa1_nomask	8	4	0	0	300	300	0	0	14197	guess	1	7,03125pct	vertrauen	vergnügt	träumen	genießen	sonnig	engagiert	versagen	verbissen	töten	gemein	sterben	engstirnig	gesittet	besonnen	anregung	gütig	kuss	kreativ	geizig	bange	ausrottung	gierig	krise	krank	0	0	0	0	0	0	0	0	0	0	0	0	0	0	0	0	0	0	0	0	0	0	0	0	0	0	0	0	0	0
2024-05-15	10:55:45	11:07:40	714419	6.6.1	4_exp_EVA_AWA_CON	32	A	B	Rpleas_acq	Oppo	Lpleas	2pleas	conawa_CS2_US4	conawa1_nomask	8	5	0	0	300	300	0	0	24795	krise	1	7,03125pct	vertrauen	vergnügt	träumen	genießen	sonnig	engagiert	versagen	verbissen	töten	gemein	sterben	engstirnig	gesittet	besonnen	anregung	gütig	kuss	kreativ	geizig	bange	ausrottung	gierig	krise	krank	0	0	0	0	0	0	0	0	0	0	0	0	0	0	0	0	0	0	0	0	0	0	0	0	0	0	0	0	0	0
2024-05-15	10:55:45	11:07:40	714421	6.6.1	4_exp_EVA_AWA_CON	32	A	B	Rpleas_acq	Oppo	Lpleas	2pleas	conawa_CS2_US4_confidence	conawa1_nomask	8	5	0	0	300	300	0	0	24795	guess	1	7,03125pct	vertrauen	vergnügt	träumen	genießen	sonnig	engagiert	versagen	verbissen	töten	gemein	sterben	engstirnig	gesittet	besonnen	anregung	gütig	kuss	kreativ	geizig	bange	ausrottung	gierig	krise	krank	0	0	0	0	0	0	0	0	0	0	0	0	0	0	0	0	0	0	0	0	0	0	0	0	0	0	0	0	0	0
2024-05-15	10:55:45	11:07:48	722264	6.6.1	4_exp_EVA_AWA_CON	32	A	B	Rpleas_acq	Oppo	Lpleas	2pleas	conawa_CS1_US3	conawa1_nomask	8	6	0	0	300	300	0	0	7226	anregung	1	7,03125pct	vertrauen	vergnügt	träumen	genießen	sonnig	engagiert	versagen	verbissen	töten	gemein	sterben	engstirnig	gesittet	besonnen	anregung	gütig	kuss	kreativ	geizig	bange	ausrottung	gierig	krise	krank	0	0	0	0	0	0	0	0	0	0	0	0	0	0	0	0	0	0	0	0	0	0	0	0	0	0	0	0	0	0
2024-05-15	10:55:45	11:07:48	722266	6.6.1	4_exp_EVA_AWA_CON	32	A	B	Rpleas_acq	Oppo	Lpleas	2pleas	conawa_CS1_US3_confidence	conawa1_nomask	8	6	0	0	300	300	0	0	7226	guess	1	7,03125pct	vertrauen	vergnügt	träumen	genießen	sonnig	engagiert	versagen	verbissen	töten	gemein	sterben	engstirnig	gesittet	besonnen	anregung	gütig	kuss	kreativ	geizig	bange	ausrottung	gierig	krise	krank	0	0	0	0	0	0	0	0	0	0	0	0	0	0	0	0	0	0	0	0	0	0	0	0	0	0	0	0	0	0
2024-05-15	10:55:45	11:07:57	731340	6.6.1	4_exp_EVA_AWA_CON	32	A	B	Rpleas_acq	Oppo	Lpleas	2pleas	conawa_CS1_US6	conawa1_nomask	8	7	0	0	300	300	0	0	8464	engagiert	1	7,03125pct	vertrauen	vergnügt	träumen	genießen	sonnig	engagiert	versagen	verbissen	töten	gemein	sterben	engstirnig	gesittet	besonnen	anregung	gütig	kuss	kreativ	geizig	bange	ausrottung	gierig	krise	krank	0	0	0	0	0	0	0	0	0	0	0	0	0	0	0	0	0	0	0	0	0	0	0	0	0	0	0	0	0	0
2024-05-15	10:55:45	11:07:57	731341	6.6.1	4_exp_EVA_AWA_CON	32	A	B	Rpleas_acq	Oppo	Lpleas	2pleas	conawa_CS1_US6_confidence	conawa1_nomask	8	7	0	0	300	300	0	0	8464	guess	1	7,03125pct	vertrauen	vergnügt	träumen	genießen	sonnig	engagiert	versagen	verbissen	töten	gemein	sterben	engstirnig	gesittet	besonnen	anregung	gütig	kuss	kreativ	geizig	bange	ausrottung	gierig	krise	krank	0	0	0	0	0	0	0	0	0	0	0	0	0	0	0	0	0	0	0	0	0	0	0	0	0	0	0	0	0	0
2024-05-15	10:55:45	11:08:09	743688	6.6.1	4_exp_EVA_AWA_CON	32	A	B	Rpleas_acq	Oppo	Lpleas	2pleas	conawa_CS1_US1	conawa1_nomask	8	8	0	0	300	300	0	0	11731	versagen	1	7,03125pct	vertrauen	vergnügt	träumen	genießen	sonnig	engagiert	versagen	verbissen	töten	gemein	sterben	engstirnig	gesittet	besonnen	anregung	gütig	kuss	kreativ	geizig	bange	ausrottung	gierig	krise	krank	0	0	0	0	0	0	0	0	0	0	0	0	0	0	0	0	0	0	0	0	0	0	0	0	0	0	0	0	0	0
2024-05-15	10:55:45	11:08:09	743690	6.6.1	4_exp_EVA_AWA_CON	32	A	B	Rpleas_acq	Oppo	Lpleas	2pleas	conawa_CS1_US1_confidence	conawa1_nomask	8	8	0	0	300	300	0	0	11731	guess	1	7,03125pct	vertrauen	vergnügt	träumen	genießen	sonnig	engagiert	versagen	verbissen	töten	gemein	sterben	engstirnig	gesittet	besonnen	anregung	gütig	kuss	kreativ	geizig	bange	ausrottung	gierig	krise	krank	0	0	0	0	0	0	0	0	0	0	0	0	0	0	0	0	0	0	0	0	0	0	0	0	0	0	0	0	0	0
2024-05-15	10:55:45	11:08:16	750683	6.6.1	4_exp_EVA_AWA_CON	32	A	B	Rpleas_acq	Oppo	Lpleas	2pleas	conawa_CS1_US2	conawa1_nomask	8	9	0	0	300	300	0	0	6382	verbissen	1	7,03125pct	vertrauen	vergnügt	träumen	genießen	sonnig	engagiert	versagen	verbissen	töten	gemein	sterben	engstirnig	gesittet	besonnen	anregung	gütig	kuss	kreativ	geizig	bange	ausrottung	gierig	krise	krank	0	0	0	0	0	0	0	0	0	0	0	0	0	0	0	0	0	0	0	0	0	0	0	0	0	0	0	0	0	0
2024-05-15	10:55:45	11:08:16	750684	6.6.1	4_exp_EVA_AWA_CON	32	A	B	Rpleas_acq	Oppo	Lpleas	2pleas	conawa_CS1_US2_confidence	conawa1_nomask	8	9	0	0	300	300	0	0	6382	guess	1	7,03125pct	vertrauen	vergnügt	träumen	genießen	sonnig	engagiert	versagen	verbissen	töten	gemein	sterben	engstirnig	gesittet	besonnen	anregung	gütig	kuss	kreativ	geizig	bange	ausrottung	gierig	krise	krank	0	0	0	0	0	0	0	0	0	0	0	0	0	0	0	0	0	0	0	0	0	0	0	0	0	0	0	0	0	0
2024-05-15	10:55:45	11:08:30	763931	6.6.1	4_exp_EVA_AWA_CON	32	A	B	Rpleas_acq	Oppo	Lpleas	2pleas	conawa_CS2_US3	conawa1_nomask	8	10	0	0	300	300	0	0	12636	gierig	1	7,03125pct	vertrauen	vergnügt	träumen	genießen	sonnig	engagiert	versagen	verbissen	töten	gemein	sterben	engstirnig	gesittet	besonnen	anregung	gütig	kuss	kreativ	geizig	bange	ausrottung	gierig	krise	krank	0	0	0	0	0	0	0	0	0	0	0	0	0	0	0	0	0	0	0	0	0	0	0	0	0	0	0	0	0	0
2024-05-15	10:55:45	11:08:30	763933	6.6.1	4_exp_EVA_AWA_CON	32	A	B	Rpleas_acq	Oppo	Lpleas	2pleas	conawa_CS2_US3_confidence	conawa1_nomask	8	10	0	0	300	300	0	0	12636	guess	1	7,03125pct	vertrauen	vergnügt	träumen	genießen	sonnig	engagiert	versagen	verbissen	töten	gemein	sterben	engstirnig	gesittet	besonnen	anregung	gütig	kuss	kreativ	geizig	bange	ausrottung	gierig	krise	krank	0	0	0	0	0	0	0	0	0	0	0	0	0	0	0	0	0	0	0	0	0	0	0	0	0	0	0	0	0	0
2024-05-15	10:55:45	11:08:40	774598	6.6.1	4_exp_EVA_AWA_CON	32	A	B	Rpleas_acq	Oppo	Lpleas	2pleas	conawa_CS2_US1	conawa1_nomask	8	11	0	0	300	300	0	0	10052	vertrauen	1	7,03125pct	vertrauen	vergnügt	träumen	genießen	sonnig	engagiert	versagen	verbissen	töten	gemein	sterben	engstirnig	gesittet	besonnen	anregung	gütig	kuss	kreativ	geizig	bange	ausrottung	gierig	krise	krank	0	0	0	0	0	0	0	0	0	0	0	0	0	0	0	0	0	0	0	0	0	0	0	0	0	0	0	0	0	0
2024-05-15	10:55:45	11:08:40	774600	6.6.1	4_exp_EVA_AWA_CON	32	A	B	Rpleas_acq	Oppo	Lpleas	2pleas	conawa_CS2_US1_confidence	conawa1_nomask	8	11	0	0	300	300	0	0	10052	guess	1	7,03125pct	vertrauen	vergnügt	träumen	genießen	sonnig	engagiert	versagen	verbissen	töten	gemein	sterben	engstirnig	gesittet	besonnen	anregung	gütig	kuss	kreativ	geizig	bange	ausrottung	gierig	krise	krank	0	0	0	0	0	0	0	0	0	0	0	0	0	0	0	0	0	0	0	0	0	0	0	0	0	0	0	0	0	0
2024-05-15	10:55:45	11:08:50	784654	6.6.1	4_exp_EVA_AWA_CON	32	A	B	Rpleas_acq	Oppo	Lpleas	2pleas	conawa_CS2_US2	conawa1_nomask	8	12	0	0	300	300	0	0	9441	verbissen	1	7,03125pct	vertrauen	vergnügt	träumen	genießen	sonnig	engagiert	versagen	verbissen	töten	gemein	sterben	engstirnig	gesittet	besonnen	anregung	gütig	kuss	kreativ	geizig	bange	ausrottung	gierig	krise	krank	0	0	0	0	0	0	0	0	0	0	0	0	0	0	0	0	0	0	0	0	0	0	0	0	0	0	0	0	0	0
2024-05-15	10:55:45	11:08:50	784656	6.6.1	4_exp_EVA_AWA_CON	32	A	B	Rpleas_acq	Oppo	Lpleas	2pleas	conawa_CS2_US2_confidence	conawa1_nomask	8	12	0	0	300	300	0	0	9441	guess	1	7,03125pct	vertrauen	vergnügt	träumen	genießen	sonnig	engagiert	versagen	verbissen	töten	gemein	sterben	engstirnig	gesittet	besonnen	anregung	gütig	kuss	kreativ	geizig	bange	ausrottung	gierig	krise	krank	0	0	0	0	0	0	0	0	0	0	0	0	0	0	0	0	0	0	0	0	0	0	0	0	0	0	0	0	0	0
2024-05-15	10:55:45	11:10:33	887416	6.6.1	4_exp_EVA_AWA_CON	32	A	B	Rpleas_acq	Oppo	Lpleas	2pleas	cond_US_unple_123_nomask_CS2	condtest_nomask_1	11	1	400	0	300	300	0	0	1144	50	1	7,03125pct	vertrauen	vergnügt	träumen	genießen	sonnig	engagiert	versagen	verbissen	töten	gemein	sterben	engstirnig	gesittet	besonnen	anregung	gütig	kuss	kreativ	geizig	bange	ausrottung	gierig	krise	krank	1	blank2r.bmp	0	1	+	0	1	blank2r.bmp	500	1	DHJF	500	1	blank2r.bmp	880	1	töten	880	1	!	1233	1	!	-1	0	0	0	0	0	0
