date	time	currenttime	elapsedtime	build	currentexpt	subject	CS_AB	US_AB	LRpleas_acq	SameOppo	condition_Lpleas	condition_1pleas	trialcode	blockcode	blocknum	trialnum	windowcenter	inwindow	pretrialpause	posttrialpause	trialduration	trialtimeout	latency	response	correct	correctedscore	US_nomask_pleas1	US_nomask_pleas2	US_nomask_pleas3	US_nomask_pleas4	US_nomask_pleas5	US_nomask_pleas6	US_nomask_unple1	US_nomask_unple2	US_nomask_unple3	US_nomask_unple4	US_nomask_unple5	US_nomask_unple6	new_nomask_pleas1	new_nomask_pleas2	new_nomask_pleas3	new_nomask_pleas4	new_nomask_pleas5	new_nomask_pleas6	new_nomask_unple1	new_nomask_unple2	new_nomask_unple3	new_nomask_unple4	new_nomask_unple5	new_nomask_unple6	stimulusnumber1	stimulusitem1	stimulusonset1	stimulusnumber2	stimulusitem2	stimulusonset2	stimulusnumber3	stimulusitem3	stimulusonset3	stimulusnumber4	stimulusitem4	stimulusonset4	stimulusnumber5	stimulusitem5	stimulusonset5	stimulusnumber6	stimulusitem6	stimulusonset6	stimulusnumber7	stimulusitem7	stimulusonset7	stimulusnumber8	stimulusitem8	stimulusonset8	stimulusnumber9	stimulusitem9	stimulusonset9	stimulusnumber10	stimulusitem10	stimulusonset10
2024-06-19	14:17:07	14:21:04	235802	6.6.1	4_exp_EVA_AWA_CON	88	A	B	Rpleas_acq	Oppo	Rpleas	2pleas	acq_new_unple_nomask	acq1_nomask	1	1	0	0	300	300	0	0	2337	46	1	0	träumen	anregung	kuss	gesittet	vergnügt	gütig	töten	ausrottung	krise	geizig	verbissen	gierig	besonnen	sonnig	genießen	engagiert	vertrauen	kreativ	bange	sterben	gemein	engstirnig	versagen	krank	1	blank2r.bmp	0	1	+	0	1	blank2r.bmp	500	4	B4r.bmp	500	1	blank2r.bmp	880	4	engstirnig	880	0	0	0	0	0	0	0	0	0	0	0	0
2024-06-19	14:17:07	14:21:06	238153	6.6.1	4_exp_EVA_AWA_CON	88	A	B	Rpleas_acq	Oppo	Rpleas	2pleas	acq_new_unple_nomask	acq1_nomask	1	2	0	0	300	300	0	0	866	46	1	0	träumen	anregung	kuss	gesittet	vergnügt	gütig	töten	ausrottung	krise	geizig	verbissen	gierig	besonnen	sonnig	genießen	engagiert	vertrauen	kreativ	bange	sterben	gemein	engstirnig	versagen	krank	1	blank2r.bmp	0	1	+	0	1	blank2r.bmp	500	6	C2r.bmp	500	1	blank2r.bmp	880	3	gemein	880	0	0	0	0	0	0	0	0	0	0	0	0
2024-06-19	14:17:07	14:21:08	240258	6.6.1	4_exp_EVA_AWA_CON	88	A	B	Rpleas_acq	Oppo	Rpleas	2pleas	acq_new_unple_nomask	acq1_nomask	1	3	0	0	300	300	0	0	619	46	1	0	träumen	anregung	kuss	gesittet	vergnügt	gütig	töten	ausrottung	krise	geizig	verbissen	gierig	besonnen	sonnig	genießen	engagiert	vertrauen	kreativ	bange	sterben	gemein	engstirnig	versagen	krank	1	blank2r.bmp	0	1	+	0	1	blank2r.bmp	500	3	B3r.bmp	500	1	blank2r.bmp	880	6	krank	880	0	0	0	0	0	0	0	0	0	0	0	0
2024-06-19	14:17:07	14:21:10	242682	6.6.1	4_exp_EVA_AWA_CON	88	A	B	Rpleas_acq	Oppo	Rpleas	2pleas	acq_US_pleas_nomask	acq1_nomask	1	4	0	0	300	300	0	0	941	50	1	0	träumen	anregung	kuss	gesittet	vergnügt	gütig	töten	ausrottung	krise	geizig	verbissen	gierig	besonnen	sonnig	genießen	engagiert	vertrauen	kreativ	bange	sterben	gemein	engstirnig	versagen	krank	1	blank2r.bmp	0	1	+	0	1	blank2r.bmp	500	1	DHJF	500	1	blank2r.bmp	880	4	gesittet	880	0	0	0	0	0	0	0	0	0	0	0	0
2024-06-19	14:17:07	14:21:13	245089	6.6.1	4_exp_EVA_AWA_CON	88	A	B	Rpleas_acq	Oppo	Rpleas	2pleas	acq_new_pleas_nomask	acq1_nomask	1	5	0	0	300	300	0	0	918	50	1	0	träumen	anregung	kuss	gesittet	vergnügt	gütig	töten	ausrottung	krise	geizig	verbissen	gierig	besonnen	sonnig	genießen	engagiert	vertrauen	kreativ	bange	sterben	gemein	engstirnig	versagen	krank	1	blank2r.bmp	0	1	+	0	1	blank2r.bmp	500	2	B2r.bmp	500	1	blank2r.bmp	880	3	genießen	880	0	0	0	0	0	0	0	0	0	0	0	0
2024-06-19	14:17:07	14:21:15	247234	6.6.1	4_exp_EVA_AWA_CON	88	A	B	Rpleas_acq	Oppo	Rpleas	2pleas	acq_US_unple_nomask	acq1_nomask	1	6	0	0	300	300	0	0	660	46	1	0	träumen	anregung	kuss	gesittet	vergnügt	gütig	töten	ausrottung	krise	geizig	verbissen	gierig	besonnen	sonnig	genießen	engagiert	vertrauen	kreativ	bange	sterben	gemein	engstirnig	versagen	krank	1	blank2r.bmp	0	1	+	0	1	blank2r.bmp	500	1	CPLW	500	1	blank2r.bmp	880	4	geizig	880	0	0	0	0	0	0	0	0	0	0	0	0
2024-06-19	14:17:07	14:21:17	249289	6.6.1	4_exp_EVA_AWA_CON	88	A	B	Rpleas_acq	Oppo	Rpleas	2pleas	acq_US_pleas_nomask	acq1_nomask	1	7	0	0	300	300	0	0	575	50	1	0	träumen	anregung	kuss	gesittet	vergnügt	gütig	töten	ausrottung	krise	geizig	verbissen	gierig	besonnen	sonnig	genießen	engagiert	vertrauen	kreativ	bange	sterben	gemein	engstirnig	versagen	krank	1	blank2r.bmp	0	1	+	0	1	blank2r.bmp	500	1	DHJF	500	1	blank2r.bmp	880	3	kuss	880	0	0	0	0	0	0	0	0	0	0	0	0
2024-06-19	14:17:07	14:21:19	251538	6.6.1	4_exp_EVA_AWA_CON	88	A	B	Rpleas_acq	Oppo	Rpleas	2pleas	acq_US_unple_nomask	acq1_nomask	1	8	0	0	300	300	0	0	762	46	1	0	träumen	anregung	kuss	gesittet	vergnügt	gütig	töten	ausrottung	krise	geizig	verbissen	gierig	besonnen	sonnig	genießen	engagiert	vertrauen	kreativ	bange	sterben	gemein	engstirnig	versagen	krank	1	blank2r.bmp	0	1	+	0	1	blank2r.bmp	500	1	CPLW	500	1	blank2r.bmp	880	6	gierig	880	0	0	0	0	0	0	0	0	0	0	0	0
2024-06-19	14:17:07	14:21:22	253770	6.6.1	4_exp_EVA_AWA_CON	88	A	B	Rpleas_acq	Oppo	Rpleas	2pleas	acq_new_pleas_nomask	acq1_nomask	1	9	0	0	300	300	0	0	742	50	1	0	träumen	anregung	kuss	gesittet	vergnügt	gütig	töten	ausrottung	krise	geizig	verbissen	gierig	besonnen	sonnig	genießen	engagiert	vertrauen	kreativ	bange	sterben	gemein	engstirnig	versagen	krank	1	blank2r.bmp	0	1	+	0	1	blank2r.bmp	500	1	B1r.bmp	500	1	blank2r.bmp	880	6	kreativ	880	0	0	0	0	0	0	0	0	0	0	0	0
2024-06-19	14:17:07	14:21:24	256010	6.6.1	4_exp_EVA_AWA_CON	88	A	B	Rpleas_acq	Oppo	Rpleas	2pleas	acq_US_pleas_nomask	acq1_nomask	1	10	0	0	300	300	0	0	751	50	1	0	träumen	anregung	kuss	gesittet	vergnügt	gütig	töten	ausrottung	krise	geizig	verbissen	gierig	besonnen	sonnig	genießen	engagiert	vertrauen	kreativ	bange	sterben	gemein	engstirnig	versagen	krank	1	blank2r.bmp	0	1	+	0	1	blank2r.bmp	500	1	DHJF	500	1	blank2r.bmp	880	2	anregung	880	0	0	0	0	0	0	0	0	0	0	0	0
2024-06-19	14:17:07	14:21:26	258034	6.6.1	4_exp_EVA_AWA_CON	88	A	B	Rpleas_acq	Oppo	Rpleas	2pleas	acq_new_pleas_nomask	acq1_nomask	1	11	0	0	300	300	0	0	533	50	1	0	träumen	anregung	kuss	gesittet	vergnügt	gütig	töten	ausrottung	krise	geizig	verbissen	gierig	besonnen	sonnig	genießen	engagiert	vertrauen	kreativ	bange	sterben	gemein	engstirnig	versagen	krank	1	blank2r.bmp	0	1	+	0	1	blank2r.bmp	500	8	C4r.bmp	500	1	blank2r.bmp	880	1	besonnen	880	0	0	0	0	0	0	0	0	0	0	0	0
2024-06-19	14:17:07	14:21:28	260113	6.6.1	4_exp_EVA_AWA_CON	88	A	B	Rpleas_acq	Oppo	Rpleas	2pleas	acq_US_unple_nomask	acq1_nomask	1	12	0	0	300	300	0	0	592	46	1	0	träumen	anregung	kuss	gesittet	vergnügt	gütig	töten	ausrottung	krise	geizig	verbissen	gierig	besonnen	sonnig	genießen	engagiert	vertrauen	kreativ	bange	sterben	gemein	engstirnig	versagen	krank	1	blank2r.bmp	0	1	+	0	1	blank2r.bmp	500	1	CPLW	500	1	blank2r.bmp	880	2	ausrottung	880	0	0	0	0	0	0	0	0	0	0	0	0
2024-06-19	14:17:07	14:21:30	262234	6.6.1	4_exp_EVA_AWA_CON	88	A	B	Rpleas_acq	Oppo	Rpleas	2pleas	acq_US_pleas_nomask	acq1_nomask	1	13	0	0	300	300	0	0	631	50	1	0	träumen	anregung	kuss	gesittet	vergnügt	gütig	töten	ausrottung	krise	geizig	verbissen	gierig	besonnen	sonnig	genießen	engagiert	vertrauen	kreativ	bange	sterben	gemein	engstirnig	versagen	krank	1	blank2r.bmp	0	1	+	0	1	blank2r.bmp	500	1	DHJF	500	1	blank2r.bmp	880	6	gütig	880	0	0	0	0	0	0	0	0	0	0	0	0
2024-06-19	14:17:07	14:21:32	264274	6.6.1	4_exp_EVA_AWA_CON	88	A	B	Rpleas_acq	Oppo	Rpleas	2pleas	acq_US_unple_nomask	acq1_nomask	1	14	0	0	300	300	0	0	549	46	1	0	träumen	anregung	kuss	gesittet	vergnügt	gütig	töten	ausrottung	krise	geizig	verbissen	gierig	besonnen	sonnig	genießen	engagiert	vertrauen	kreativ	bange	sterben	gemein	engstirnig	versagen	krank	1	blank2r.bmp	0	1	+	0	1	blank2r.bmp	500	1	CPLW	500	1	blank2r.bmp	880	5	verbissen	880	0	0	0	0	0	0	0	0	0	0	0	0
2024-06-19	14:17:07	14:21:34	266561	6.6.1	4_exp_EVA_AWA_CON	88	A	B	Rpleas_acq	Oppo	Rpleas	2pleas	acq_new_unple_nomask	acq1_nomask	1	15	0	0	300	300	0	0	806	46	1	0	träumen	anregung	kuss	gesittet	vergnügt	gütig	töten	ausrottung	krise	geizig	verbissen	gierig	besonnen	sonnig	genießen	engagiert	vertrauen	kreativ	bange	sterben	gemein	engstirnig	versagen	krank	1	blank2r.bmp	0	1	+	0	1	blank2r.bmp	500	5	C1r.bmp	500	1	blank2r.bmp	880	5	versagen	880	0	0	0	0	0	0	0	0	0	0	0	0
2024-06-19	14:17:07	14:21:36	268530	6.6.1	4_exp_EVA_AWA_CON	88	A	B	Rpleas_acq	Oppo	Rpleas	2pleas	acq_US_pleas_nomask	acq1_nomask	1	16	0	0	300	300	0	0	483	50	1	0	träumen	anregung	kuss	gesittet	vergnügt	gütig	töten	ausrottung	krise	geizig	verbissen	gierig	besonnen	sonnig	genießen	engagiert	vertrauen	kreativ	bange	sterben	gemein	engstirnig	versagen	krank	1	blank2r.bmp	0	1	+	0	1	blank2r.bmp	500	1	DHJF	500	1	blank2r.bmp	880	1	träumen	880	0	0	0	0	0	0	0	0	0	0	0	0
2024-06-19	14:17:07	14:21:39	270881	6.6.1	4_exp_EVA_AWA_CON	88	A	B	Rpleas_acq	Oppo	Rpleas	2pleas	acq_US_unple_nomask	acq1_nomask	1	17	0	0	300	300	0	0	863	46	1	0	träumen	anregung	kuss	gesittet	vergnügt	gütig	töten	ausrottung	krise	geizig	verbissen	gierig	besonnen	sonnig	genießen	engagiert	vertrauen	kreativ	bange	sterben	gemein	engstirnig	versagen	krank	1	blank2r.bmp	0	1	+	0	1	blank2r.bmp	500	1	CPLW	500	1	blank2r.bmp	880	3	krise	880	0	0	0	0	0	0	0	0	0	0	0	0
2024-06-19	14:17:07	14:21:41	272850	6.6.1	4_exp_EVA_AWA_CON	88	A	B	Rpleas_acq	Oppo	Rpleas	2pleas	acq_new_pleas_nomask	acq1_nomask	1	18	0	0	300	300	0	0	480	50	1	0	träumen	anregung	kuss	gesittet	vergnügt	gütig	töten	ausrottung	krise	geizig	verbissen	gierig	besonnen	sonnig	genießen	engagiert	vertrauen	kreativ	bange	sterben	gemein	engstirnig	versagen	krank	1	blank2r.bmp	0	1	+	0	1	blank2r.bmp	500	7	C3r.bmp	500	1	blank2r.bmp	880	2	sonnig	880	0	0	0	0	0	0	0	0	0	0	0	0
2024-06-19	14:17:07	14:21:43	275394	6.6.1	4_exp_EVA_AWA_CON	88	A	B	Rpleas_acq	Oppo	Rpleas	2pleas	acq_US_pleas_nomask	acq1_nomask	1	19	0	0	300	300	0	0	1062	50	1	0	träumen	anregung	kuss	gesittet	vergnügt	gütig	töten	ausrottung	krise	geizig	verbissen	gierig	besonnen	sonnig	genießen	engagiert	vertrauen	kreativ	bange	sterben	gemein	engstirnig	versagen	krank	1	blank2r.bmp	0	1	+	0	1	blank2r.bmp	500	1	DHJF	500	1	blank2r.bmp	880	5	vergnügt	880	0	0	0	0	0	0	0	0	0	0	0	0
2024-06-19	14:17:07	14:21:46	278002	6.6.1	4_exp_EVA_AWA_CON	88	A	B	Rpleas_acq	Oppo	Rpleas	2pleas	acq_new_pleas_nomask	acq1_nomask	1	20	0	0	300	300	0	0	1119	50	1	0	träumen	anregung	kuss	gesittet	vergnügt	gütig	töten	ausrottung	krise	geizig	verbissen	gierig	besonnen	sonnig	genießen	engagiert	vertrauen	kreativ	bange	sterben	gemein	engstirnig	versagen	krank	1	blank2r.bmp	0	1	+	0	1	blank2r.bmp	500	8	C4r.bmp	500	1	blank2r.bmp	880	4	engagiert	880	0	0	0	0	0	0	0	0	0	0	0	0
2024-06-19	14:17:07	14:21:48	280018	6.6.1	4_exp_EVA_AWA_CON	88	A	B	Rpleas_acq	Oppo	Rpleas	2pleas	acq_new_pleas_nomask	acq1_nomask	1	21	0	0	300	300	0	0	533	50	1	0	träumen	anregung	kuss	gesittet	vergnügt	gütig	töten	ausrottung	krise	geizig	verbissen	gierig	besonnen	sonnig	genießen	engagiert	vertrauen	kreativ	bange	sterben	gemein	engstirnig	versagen	krank	1	blank2r.bmp	0	1	+	0	1	blank2r.bmp	500	4	B4r.bmp	500	1	blank2r.bmp	880	5	vertrauen	880	0	0	0	0	0	0	0	0	0	0	0	0
2024-06-19	14:17:07	14:21:50	282218	6.6.1	4_exp_EVA_AWA_CON	88	A	B	Rpleas_acq	Oppo	Rpleas	2pleas	acq_new_unple_nomask	acq1_nomask	1	22	0	0	300	300	0	0	712	46	1	0	träumen	anregung	kuss	gesittet	vergnügt	gütig	töten	ausrottung	krise	geizig	verbissen	gierig	besonnen	sonnig	genießen	engagiert	vertrauen	kreativ	bange	sterben	gemein	engstirnig	versagen	krank	1	blank2r.bmp	0	1	+	0	1	blank2r.bmp	500	6	C2r.bmp	500	1	blank2r.bmp	880	1	bange	880	0	0	0	0	0	0	0	0	0	0	0	0
2024-06-19	14:17:07	14:21:52	284418	6.6.1	4_exp_EVA_AWA_CON	88	A	B	Rpleas_acq	Oppo	Rpleas	2pleas	acq_US_unple_nomask	acq1_nomask	1	23	0	0	300	300	0	0	710	46	1	0	träumen	anregung	kuss	gesittet	vergnügt	gütig	töten	ausrottung	krise	geizig	verbissen	gierig	besonnen	sonnig	genießen	engagiert	vertrauen	kreativ	bange	sterben	gemein	engstirnig	versagen	krank	1	blank2r.bmp	0	1	+	0	1	blank2r.bmp	500	1	CPLW	500	1	blank2r.bmp	880	1	töten	880	0	0	0	0	0	0	0	0	0	0	0	0
2024-06-19	14:17:07	14:21:54	286713	6.6.1	4_exp_EVA_AWA_CON	88	A	B	Rpleas_acq	Oppo	Rpleas	2pleas	acq_new_unple_nomask	acq1_nomask	1	24	0	0	300	300	0	0	805	46	1	0	träumen	anregung	kuss	gesittet	vergnügt	gütig	töten	ausrottung	krise	geizig	verbissen	gierig	besonnen	sonnig	genießen	engagiert	vertrauen	kreativ	bange	sterben	gemein	engstirnig	versagen	krank	1	blank2r.bmp	0	1	+	0	1	blank2r.bmp	500	7	C3r.bmp	500	1	blank2r.bmp	880	2	sterben	880	0	0	0	0	0	0	0	0	0	0	0	0
2024-06-19	14:17:07	14:21:57	288801	6.6.1	4_exp_EVA_AWA_CON	88	A	B	Rpleas_acq	Oppo	Rpleas	2pleas	acq_US_pleas_nomask	acq1_nomask	1	25	0	0	300	300	0	0	602	50	1	0	träumen	anregung	kuss	gesittet	vergnügt	gütig	töten	ausrottung	krise	geizig	verbissen	gierig	besonnen	sonnig	genießen	engagiert	vertrauen	kreativ	bange	sterben	gemein	engstirnig	versagen	krank	1	blank2r.bmp	0	1	+	0	1	blank2r.bmp	500	1	DHJF	500	1	blank2r.bmp	880	4	gesittet	880	0	0	0	0	0	0	0	0	0	0	0	0
2024-06-19	14:17:07	14:21:59	290929	6.6.1	4_exp_EVA_AWA_CON	88	A	B	Rpleas_acq	Oppo	Rpleas	2pleas	acq_US_unple_nomask	acq1_nomask	1	26	0	0	300	300	0	0	638	46	1	0	träumen	anregung	kuss	gesittet	vergnügt	gütig	töten	ausrottung	krise	geizig	verbissen	gierig	besonnen	sonnig	genießen	engagiert	vertrauen	kreativ	bange	sterben	gemein	engstirnig	versagen	krank	1	blank2r.bmp	0	1	+	0	1	blank2r.bmp	500	1	CPLW	500	1	blank2r.bmp	880	4	geizig	880	0	0	0	0	0	0	0	0	0	0	0	0
2024-06-19	14:17:07	14:22:01	293018	6.6.1	4_exp_EVA_AWA_CON	88	A	B	Rpleas_acq	Oppo	Rpleas	2pleas	acq_US_unple_nomask	acq1_nomask	1	27	0	0	300	300	0	0	605	46	1	0	träumen	anregung	kuss	gesittet	vergnügt	gütig	töten	ausrottung	krise	geizig	verbissen	gierig	besonnen	sonnig	genießen	engagiert	vertrauen	kreativ	bange	sterben	gemein	engstirnig	versagen	krank	1	blank2r.bmp	0	1	+	0	1	blank2r.bmp	500	1	CPLW	500	1	blank2r.bmp	880	5	verbissen	880	0	0	0	0	0	0	0	0	0	0	0	0
2024-06-19	14:17:07	14:22:03	295411	6.6.1	4_exp_EVA_AWA_CON	88	A	B	Rpleas_acq	Oppo	Rpleas	2pleas	acq_new_unple_nomask	acq1_nomask	1	28	0	0	300	300	0	0	706	50	0	0	träumen	anregung	kuss	gesittet	vergnügt	gütig	töten	ausrottung	krise	geizig	verbissen	gierig	besonnen	sonnig	genießen	engagiert	vertrauen	kreativ	bange	sterben	gemein	engstirnig	versagen	krank	1	blank2r.bmp	0	1	+	0	1	blank2r.bmp	500	5	C1r.bmp	500	1	blank2r.bmp	880	4	engstirnig	880	1	FEHLER	1607	0	0	0	0	0	0	0	0	0
2024-06-19	14:17:07	14:22:05	297490	6.6.1	4_exp_EVA_AWA_CON	88	A	B	Rpleas_acq	Oppo	Rpleas	2pleas	acq_new_pleas_nomask	acq1_nomask	1	29	0	0	300	300	0	0	794	50	1	0	träumen	anregung	kuss	gesittet	vergnügt	gütig	töten	ausrottung	krise	geizig	verbissen	gierig	besonnen	sonnig	genießen	engagiert	vertrauen	kreativ	bange	sterben	gemein	engstirnig	versagen	krank	1	blank2r.bmp	0	1	+	0	1	blank2r.bmp	500	1	B1r.bmp	500	1	blank2r.bmp	880	6	kreativ	880	0	0	0	0	0	0	0	0	0	0	0	0
2024-06-19	14:17:07	14:22:07	299594	6.6.1	4_exp_EVA_AWA_CON	88	A	B	Rpleas_acq	Oppo	Rpleas	2pleas	acq_new_pleas_nomask	acq1_nomask	1	30	0	0	300	300	0	0	617	50	1	0	träumen	anregung	kuss	gesittet	vergnügt	gütig	töten	ausrottung	krise	geizig	verbissen	gierig	besonnen	sonnig	genießen	engagiert	vertrauen	kreativ	bange	sterben	gemein	engstirnig	versagen	krank	1	blank2r.bmp	0	1	+	0	1	blank2r.bmp	500	2	B2r.bmp	500	1	blank2r.bmp	880	1	besonnen	880	0	0	0	0	0	0	0	0	0	0	0	0
2024-06-19	14:17:07	14:22:10	302098	6.6.1	4_exp_EVA_AWA_CON	88	A	B	Rpleas_acq	Oppo	Rpleas	2pleas	acq_new_pleas_nomask	acq1_nomask	1	31	0	0	300	300	0	0	1019	50	1	0	träumen	anregung	kuss	gesittet	vergnügt	gütig	töten	ausrottung	krise	geizig	verbissen	gierig	besonnen	sonnig	genießen	engagiert	vertrauen	kreativ	bange	sterben	gemein	engstirnig	versagen	krank	1	blank2r.bmp	0	1	+	0	1	blank2r.bmp	500	3	B3r.bmp	500	1	blank2r.bmp	880	3	genießen	880	0	0	0	0	0	0	0	0	0	0	0	0
2024-06-19	14:17:07	14:22:12	304274	6.6.1	4_exp_EVA_AWA_CON	88	A	B	Rpleas_acq	Oppo	Rpleas	2pleas	acq_new_unple_nomask	acq1_nomask	1	32	0	0	300	300	0	0	694	46	1	0	träumen	anregung	kuss	gesittet	vergnügt	gütig	töten	ausrottung	krise	geizig	verbissen	gierig	besonnen	sonnig	genießen	engagiert	vertrauen	kreativ	bange	sterben	gemein	engstirnig	versagen	krank	1	blank2r.bmp	0	1	+	0	1	blank2r.bmp	500	3	B3r.bmp	500	1	blank2r.bmp	880	3	gemein	880	0	0	0	0	0	0	0	0	0	0	0	0
2024-06-19	14:17:07	14:22:14	306529	6.6.1	4_exp_EVA_AWA_CON	88	A	B	Rpleas_acq	Oppo	Rpleas	2pleas	acq_US_unple_nomask	acq1_nomask	1	33	0	0	300	300	0	0	768	46	1	0	träumen	anregung	kuss	gesittet	vergnügt	gütig	töten	ausrottung	krise	geizig	verbissen	gierig	besonnen	sonnig	genießen	engagiert	vertrauen	kreativ	bange	sterben	gemein	engstirnig	versagen	krank	1	blank2r.bmp	0	1	+	0	1	blank2r.bmp	500	1	CPLW	500	1	blank2r.bmp	880	6	gierig	880	0	0	0	0	0	0	0	0	0	0	0	0
2024-06-19	14:17:07	14:22:16	308658	6.6.1	4_exp_EVA_AWA_CON	88	A	B	Rpleas_acq	Oppo	Rpleas	2pleas	acq_US_pleas_nomask	acq1_nomask	1	34	0	0	300	300	0	0	645	50	1	0	träumen	anregung	kuss	gesittet	vergnügt	gütig	töten	ausrottung	krise	geizig	verbissen	gierig	besonnen	sonnig	genießen	engagiert	vertrauen	kreativ	bange	sterben	gemein	engstirnig	versagen	krank	1	blank2r.bmp	0	1	+	0	1	blank2r.bmp	500	1	DHJF	500	1	blank2r.bmp	880	3	kuss	880	0	0	0	0	0	0	0	0	0	0	0	0
2024-06-19	14:17:07	14:22:19	311161	6.6.1	4_exp_EVA_AWA_CON	88	A	B	Rpleas_acq	Oppo	Rpleas	2pleas	acq_US_pleas_nomask	acq1_nomask	1	35	0	0	300	300	0	0	1018	50	1	0	träumen	anregung	kuss	gesittet	vergnügt	gütig	töten	ausrottung	krise	geizig	verbissen	gierig	besonnen	sonnig	genießen	engagiert	vertrauen	kreativ	bange	sterben	gemein	engstirnig	versagen	krank	1	blank2r.bmp	0	1	+	0	1	blank2r.bmp	500	1	DHJF	500	1	blank2r.bmp	880	6	gütig	880	0	0	0	0	0	0	0	0	0	0	0	0
2024-06-19	14:17:07	14:22:21	313442	6.6.1	4_exp_EVA_AWA_CON	88	A	B	Rpleas_acq	Oppo	Rpleas	2pleas	acq_new_unple_nomask	acq1_nomask	1	36	0	0	300	300	0	0	796	46	1	0	träumen	anregung	kuss	gesittet	vergnügt	gütig	töten	ausrottung	krise	geizig	verbissen	gierig	besonnen	sonnig	genießen	engagiert	vertrauen	kreativ	bange	sterben	gemein	engstirnig	versagen	krank	1	blank2r.bmp	0	1	+	0	1	blank2r.bmp	500	2	B2r.bmp	500	1	blank2r.bmp	880	2	sterben	880	0	0	0	0	0	0	0	0	0	0	0	0
2024-06-19	14:17:07	14:22:45	337419	6.6.1	4_exp_EVA_AWA_CON	88	A	B	Rpleas_acq	Oppo	Rpleas	2pleas	acq_US_unple_nomask	acq2_nomask	2	1	480	0	300	300	0	0	3060	46	1	0	träumen	anregung	kuss	gesittet	vergnügt	gütig	töten	ausrottung	krise	geizig	verbissen	gierig	besonnen	sonnig	genießen	engagiert	vertrauen	kreativ	bange	sterben	gemein	engstirnig	versagen	krank	1	blank2r.bmp	0	1	+	0	1	blank2r.bmp	500	1	CPLW	500	1	blank2r.bmp	880	3	krise	880	1	!	1312	1	!	-1	0	0	0	0	0	0
2024-06-19	14:17:07	14:22:47	339645	6.6.1	4_exp_EVA_AWA_CON	88	A	B	Rpleas_acq	Oppo	Rpleas	2pleas	acq_new_unple_nomask	acq2_nomask	2	2	480	1	300	300	0	0	451	46	1	0	träumen	anregung	kuss	gesittet	vergnügt	gütig	töten	ausrottung	krise	geizig	verbissen	gierig	besonnen	sonnig	genießen	engagiert	vertrauen	kreativ	bange	sterben	gemein	engstirnig	versagen	krank	1	blank2r.bmp	0	1	+	0	1	blank2r.bmp	500	5	C1r.bmp	500	1	blank2r.bmp	880	5	versagen	880	1	!	1312	1	!	1352	0	0	0	0	0	0
2024-06-19	14:17:07	14:22:50	342115	6.6.1	4_exp_EVA_AWA_CON	88	A	B	Rpleas_acq	Oppo	Rpleas	2pleas	acq_new_pleas_nomask	acq2_nomask	2	3	480	0	300	300	0	0	692	50	1	0	träumen	anregung	kuss	gesittet	vergnügt	gütig	töten	ausrottung	krise	geizig	verbissen	gierig	besonnen	sonnig	genießen	engagiert	vertrauen	kreativ	bange	sterben	gemein	engstirnig	versagen	krank	1	blank2r.bmp	0	1	+	0	1	blank2r.bmp	500	8	C4r.bmp	500	1	blank2r.bmp	880	4	engagiert	880	1	!	1313	1	!	-1	0	0	0	0	0	0
2024-06-19	14:17:07	14:22:52	344542	6.6.1	4_exp_EVA_AWA_CON	88	A	B	Rpleas_acq	Oppo	Rpleas	2pleas	acq_US_pleas_nomask	acq2_nomask	2	4	480	1	300	300	0	0	444	46	0	0	träumen	anregung	kuss	gesittet	vergnügt	gütig	töten	ausrottung	krise	geizig	verbissen	gierig	besonnen	sonnig	genießen	engagiert	vertrauen	kreativ	bange	sterben	gemein	engstirnig	versagen	krank	1	blank2r.bmp	0	1	+	0	1	blank2r.bmp	500	1	DHJF	500	1	blank2r.bmp	880	2	anregung	880	1	FEHLER	1637	1	!	1312	1	!	1345	0	0	0
2024-06-19	14:17:07	14:22:54	346691	6.6.1	4_exp_EVA_AWA_CON	88	A	B	Rpleas_acq	Oppo	Rpleas	2pleas	acq_US_pleas_nomask	acq2_nomask	2	5	480	0	300	300	0	0	575	50	1	0	träumen	anregung	kuss	gesittet	vergnügt	gütig	töten	ausrottung	krise	geizig	verbissen	gierig	besonnen	sonnig	genießen	engagiert	vertrauen	kreativ	bange	sterben	gemein	engstirnig	versagen	krank	1	blank2r.bmp	0	1	+	0	1	blank2r.bmp	500	1	DHJF	500	1	blank2r.bmp	880	1	träumen	880	1	!	1312	1	!	-1	0	0	0	0	0	0
2024-06-19	14:17:07	14:22:57	348884	6.6.1	4_exp_EVA_AWA_CON	88	A	B	Rpleas_acq	Oppo	Rpleas	2pleas	acq_new_unple_nomask	acq2_nomask	2	6	480	1	300	300	0	0	415	46	1	0	träumen	anregung	kuss	gesittet	vergnügt	gütig	töten	ausrottung	krise	geizig	verbissen	gierig	besonnen	sonnig	genießen	engagiert	vertrauen	kreativ	bange	sterben	gemein	engstirnig	versagen	krank	1	blank2r.bmp	0	1	+	0	1	blank2r.bmp	500	1	B1r.bmp	500	1	blank2r.bmp	880	6	krank	880	1	!	1313	1	!	1315	0	0	0	0	0	0
2024-06-19	14:17:07	14:22:59	351181	6.6.1	4_exp_EVA_AWA_CON	88	A	B	Rpleas_acq	Oppo	Rpleas	2pleas	acq_US_unple_nomask	acq2_nomask	2	7	480	1	300	300	0	0	520	46	1	0	träumen	anregung	kuss	gesittet	vergnügt	gütig	töten	ausrottung	krise	geizig	verbissen	gierig	besonnen	sonnig	genießen	engagiert	vertrauen	kreativ	bange	sterben	gemein	engstirnig	versagen	krank	1	blank2r.bmp	0	1	+	0	1	blank2r.bmp	500	1	CPLW	500	1	blank2r.bmp	880	1	töten	880	1	!	1313	1	!	1421	0	0	0	0	0	0
2024-06-19	14:17:07	14:23:01	353603	6.6.1	4_exp_EVA_AWA_CON	88	A	B	Rpleas_acq	Oppo	Rpleas	2pleas	acq_new_unple_nomask	acq2_nomask	2	8	480	0	300	300	0	0	642	46	1	0	träumen	anregung	kuss	gesittet	vergnügt	gütig	töten	ausrottung	krise	geizig	verbissen	gierig	besonnen	sonnig	genießen	engagiert	vertrauen	kreativ	bange	sterben	gemein	engstirnig	versagen	krank	1	blank2r.bmp	0	1	+	0	1	blank2r.bmp	500	6	C2r.bmp	500	1	blank2r.bmp	880	1	bange	880	1	!	1312	1	!	-1	0	0	0	0	0	0
2024-06-19	14:17:07	14:23:04	355909	6.6.1	4_exp_EVA_AWA_CON	88	A	B	Rpleas_acq	Oppo	Rpleas	2pleas	acq_US_pleas_nomask	acq2_nomask	2	9	480	1	300	300	0	0	525	50	1	0	träumen	anregung	kuss	gesittet	vergnügt	gütig	töten	ausrottung	krise	geizig	verbissen	gierig	besonnen	sonnig	genießen	engagiert	vertrauen	kreativ	bange	sterben	gemein	engstirnig	versagen	krank	1	blank2r.bmp	0	1	+	0	1	blank2r.bmp	500	1	DHJF	500	1	blank2r.bmp	880	5	vergnügt	880	1	!	1313	1	!	1426	0	0	0	0	0	0
2024-06-19	14:17:07	14:23:06	358587	6.6.1	4_exp_EVA_AWA_CON	88	A	B	Rpleas_acq	Oppo	Rpleas	2pleas	acq_US_unple_nomask	acq2_nomask	2	10	480	0	300	300	0	0	903	46	1	0	träumen	anregung	kuss	gesittet	vergnügt	gütig	töten	ausrottung	krise	geizig	verbissen	gierig	besonnen	sonnig	genießen	engagiert	vertrauen	kreativ	bange	sterben	gemein	engstirnig	versagen	krank	1	blank2r.bmp	0	1	+	0	1	blank2r.bmp	500	1	CPLW	500	1	blank2r.bmp	880	2	ausrottung	880	1	!	1312	1	!	-1	0	0	0	0	0	0
2024-06-19	14:17:07	14:23:09	360853	6.6.1	4_exp_EVA_AWA_CON	88	A	B	Rpleas_acq	Oppo	Rpleas	2pleas	acq_new_pleas_nomask	acq2_nomask	2	11	480	1	300	300	0	0	485	50	1	0	träumen	anregung	kuss	gesittet	vergnügt	gütig	töten	ausrottung	krise	geizig	verbissen	gierig	besonnen	sonnig	genießen	engagiert	vertrauen	kreativ	bange	sterben	gemein	engstirnig	versagen	krank	1	blank2r.bmp	0	1	+	0	1	blank2r.bmp	500	7	C3r.bmp	500	1	blank2r.bmp	880	2	sonnig	880	1	!	1313	1	!	1386	0	0	0	0	0	0
2024-06-19	14:17:07	14:23:11	363283	6.6.1	4_exp_EVA_AWA_CON	88	A	B	Rpleas_acq	Oppo	Rpleas	2pleas	acq_new_pleas_nomask	acq2_nomask	2	12	480	0	300	300	0	0	656	50	1	0	träumen	anregung	kuss	gesittet	vergnügt	gütig	töten	ausrottung	krise	geizig	verbissen	gierig	besonnen	sonnig	genießen	engagiert	vertrauen	kreativ	bange	sterben	gemein	engstirnig	versagen	krank	1	blank2r.bmp	0	1	+	0	1	blank2r.bmp	500	4	B4r.bmp	500	1	blank2r.bmp	880	5	vertrauen	880	1	!	1313	1	!	-1	0	0	0	0	0	0
2024-06-19	14:17:07	14:23:13	365533	6.6.1	4_exp_EVA_AWA_CON	88	A	B	Rpleas_acq	Oppo	Rpleas	2pleas	acq_new_pleas_nomask	acq2_nomask	2	13	480	1	300	300	0	0	473	50	1	0	träumen	anregung	kuss	gesittet	vergnügt	gütig	töten	ausrottung	krise	geizig	verbissen	gierig	besonnen	sonnig	genießen	engagiert	vertrauen	kreativ	bange	sterben	gemein	engstirnig	versagen	krank	1	blank2r.bmp	0	1	+	0	1	blank2r.bmp	500	6	C2r.bmp	500	1	blank2r.bmp	880	5	vertrauen	880	1	!	1312	1	!	1373	0	0	0	0	0	0
2024-06-19	14:17:07	14:23:16	367932	6.6.1	4_exp_EVA_AWA_CON	88	A	B	Rpleas_acq	Oppo	Rpleas	2pleas	acq_US_unple_nomask	acq2_nomask	2	14	480	0	300	300	0	0	621	46	1	0	träumen	anregung	kuss	gesittet	vergnügt	gütig	töten	ausrottung	krise	geizig	verbissen	gierig	besonnen	sonnig	genießen	engagiert	vertrauen	kreativ	bange	sterben	gemein	engstirnig	versagen	krank	1	blank2r.bmp	0	1	+	0	1	blank2r.bmp	500	1	CPLW	500	1	blank2r.bmp	880	4	geizig	880	1	!	1313	1	!	-1	0	0	0	0	0	0
2024-06-19	14:17:07	14:23:18	370181	6.6.1	4_exp_EVA_AWA_CON	88	A	B	Rpleas_acq	Oppo	Rpleas	2pleas	acq_new_pleas_nomask	acq2_nomask	2	15	480	1	300	300	0	0	468	50	1	0	träumen	anregung	kuss	gesittet	vergnügt	gütig	töten	ausrottung	krise	geizig	verbissen	gierig	besonnen	sonnig	genießen	engagiert	vertrauen	kreativ	bange	sterben	gemein	engstirnig	versagen	krank	1	blank2r.bmp	0	1	+	0	1	blank2r.bmp	500	3	B3r.bmp	500	1	blank2r.bmp	880	6	kreativ	880	1	!	1312	1	!	1368	0	0	0	0	0	0
2024-06-19	14:17:07	14:23:20	372421	6.6.1	4_exp_EVA_AWA_CON	88	A	B	Rpleas_acq	Oppo	Rpleas	2pleas	acq_new_pleas_nomask	acq2_nomask	2	16	480	1	300	300	0	0	466	50	1	0	träumen	anregung	kuss	gesittet	vergnügt	gütig	töten	ausrottung	krise	geizig	verbissen	gierig	besonnen	sonnig	genießen	engagiert	vertrauen	kreativ	bange	sterben	gemein	engstirnig	versagen	krank	1	blank2r.bmp	0	1	+	0	1	blank2r.bmp	500	2	B2r.bmp	500	1	blank2r.bmp	880	2	sonnig	880	1	!	1312	1	!	1367	0	0	0	0	0	0
2024-06-19	14:17:07	14:23:22	374754	6.6.1	4_exp_EVA_AWA_CON	88	A	B	Rpleas_acq	Oppo	Rpleas	2pleas	acq_US_unple_nomask	acq2_nomask	2	17	480	0	300	300	0	0	561	46	1	0	träumen	anregung	kuss	gesittet	vergnügt	gütig	töten	ausrottung	krise	geizig	verbissen	gierig	besonnen	sonnig	genießen	engagiert	vertrauen	kreativ	bange	sterben	gemein	engstirnig	versagen	krank	1	blank2r.bmp	0	1	+	0	1	blank2r.bmp	500	1	CPLW	500	1	blank2r.bmp	880	3	krise	880	1	!	1312	1	!	-1	0	0	0	0	0	0
2024-06-19	14:17:07	14:23:25	377069	6.6.1	4_exp_EVA_AWA_CON	88	A	B	Rpleas_acq	Oppo	Rpleas	2pleas	acq_US_pleas_nomask	acq2_nomask	2	18	480	1	300	300	0	0	541	50	1	0	träumen	anregung	kuss	gesittet	vergnügt	gütig	töten	ausrottung	krise	geizig	verbissen	gierig	besonnen	sonnig	genießen	engagiert	vertrauen	kreativ	bange	sterben	gemein	engstirnig	versagen	krank	1	blank2r.bmp	0	1	+	0	1	blank2r.bmp	500	1	DHJF	500	1	blank2r.bmp	880	6	gütig	880	1	!	1312	1	!	1443	0	0	0	0	0	0
2024-06-19	14:17:07	14:23:27	379483	6.6.1	4_exp_EVA_AWA_CON	88	A	B	Rpleas_acq	Oppo	Rpleas	2pleas	acq_US_pleas_nomask	acq2_nomask	2	19	480	0	300	300	0	0	636	50	1	0	träumen	anregung	kuss	gesittet	vergnügt	gütig	töten	ausrottung	krise	geizig	verbissen	gierig	besonnen	sonnig	genießen	engagiert	vertrauen	kreativ	bange	sterben	gemein	engstirnig	versagen	krank	1	blank2r.bmp	0	1	+	0	1	blank2r.bmp	500	1	DHJF	500	1	blank2r.bmp	880	1	träumen	880	1	!	1312	1	!	-1	0	0	0	0	0	0
2024-06-19	14:17:07	14:23:30	381818	6.6.1	4_exp_EVA_AWA_CON	88	A	B	Rpleas_acq	Oppo	Rpleas	2pleas	acq_new_unple_nomask	acq2_nomask	2	20	480	0	300	300	0	0	560	46	1	0	träumen	anregung	kuss	gesittet	vergnügt	gütig	töten	ausrottung	krise	geizig	verbissen	gierig	besonnen	sonnig	genießen	engagiert	vertrauen	kreativ	bange	sterben	gemein	engstirnig	versagen	krank	1	blank2r.bmp	0	1	+	0	1	blank2r.bmp	500	5	C1r.bmp	500	1	blank2r.bmp	880	5	versagen	880	1	!	1312	1	!	-1	0	0	0	0	0	0
2024-06-19	14:17:07	14:23:37	389203	6.6.1	4_exp_EVA_AWA_CON	88	A	B	Rpleas_acq	Oppo	Rpleas	2pleas	acq_new_unple_nomask	acq2_nomask	2	21	480	0	300	300	0	0	5613	46	1	0	träumen	anregung	kuss	gesittet	vergnügt	gütig	töten	ausrottung	krise	geizig	verbissen	gierig	besonnen	sonnig	genießen	engagiert	vertrauen	kreativ	bange	sterben	gemein	engstirnig	versagen	krank	1	blank2r.bmp	0	1	+	0	1	blank2r.bmp	500	1	B1r.bmp	500	1	blank2r.bmp	880	3	gemein	880	1	!	1312	1	!	-1	0	0	0	0	0	0
2024-06-19	14:17:07	14:23:39	391395	6.6.1	4_exp_EVA_AWA_CON	88	A	B	Rpleas_acq	Oppo	Rpleas	2pleas	acq_US_unple_nomask	acq2_nomask	2	22	480	1	300	300	0	0	420	46	1	0	träumen	anregung	kuss	gesittet	vergnügt	gütig	töten	ausrottung	krise	geizig	verbissen	gierig	besonnen	sonnig	genießen	engagiert	vertrauen	kreativ	bange	sterben	gemein	engstirnig	versagen	krank	1	blank2r.bmp	0	1	+	0	1	blank2r.bmp	500	1	CPLW	500	1	blank2r.bmp	880	5	verbissen	880	1	!	1312	1	!	1319	0	0	0	0	0	0
2024-06-19	14:17:07	14:23:41	393571	6.6.1	4_exp_EVA_AWA_CON	88	A	B	Rpleas_acq	Oppo	Rpleas	2pleas	acq_US_pleas_nomask	acq2_nomask	2	23	480	0	300	300	0	0	394	50	1	0	träumen	anregung	kuss	gesittet	vergnügt	gütig	töten	ausrottung	krise	geizig	verbissen	gierig	besonnen	sonnig	genießen	engagiert	vertrauen	kreativ	bange	sterben	gemein	engstirnig	versagen	krank	1	blank2r.bmp	0	1	+	0	1	blank2r.bmp	500	1	DHJF	500	1	blank2r.bmp	880	3	kuss	880	1	!	-1	1	!	-1	0	0	0	0	0	0
2024-06-19	14:17:07	14:23:44	395931	6.6.1	4_exp_EVA_AWA_CON	88	A	B	Rpleas_acq	Oppo	Rpleas	2pleas	acq_new_unple_nomask	acq2_nomask	2	24	480	0	300	300	0	0	583	46	1	0	träumen	anregung	kuss	gesittet	vergnügt	gütig	töten	ausrottung	krise	geizig	verbissen	gierig	besonnen	sonnig	genießen	engagiert	vertrauen	kreativ	bange	sterben	gemein	engstirnig	versagen	krank	1	blank2r.bmp	0	1	+	0	1	blank2r.bmp	500	7	C3r.bmp	500	1	blank2r.bmp	880	6	krank	880	1	!	1312	1	!	-1	0	0	0	0	0	0
2024-06-19	14:17:07	14:23:46	398083	6.6.1	4_exp_EVA_AWA_CON	88	A	B	Rpleas_acq	Oppo	Rpleas	2pleas	acq_US_unple_nomask	acq2_nomask	2	25	480	0	300	300	0	0	373	46	1	0	träumen	anregung	kuss	gesittet	vergnügt	gütig	töten	ausrottung	krise	geizig	verbissen	gierig	besonnen	sonnig	genießen	engagiert	vertrauen	kreativ	bange	sterben	gemein	engstirnig	versagen	krank	1	blank2r.bmp	0	1	+	0	1	blank2r.bmp	500	1	CPLW	500	1	blank2r.bmp	880	1	töten	880	1	!	-1	1	!	-1	0	0	0	0	0	0
2024-06-19	14:17:07	14:23:48	400212	6.6.1	4_exp_EVA_AWA_CON	88	A	B	Rpleas_acq	Oppo	Rpleas	2pleas	acq_US_pleas_nomask	acq2_nomask	2	26	480	0	300	300	0	0	350	50	1	0	träumen	anregung	kuss	gesittet	vergnügt	gütig	töten	ausrottung	krise	geizig	verbissen	gierig	besonnen	sonnig	genießen	engagiert	vertrauen	kreativ	bange	sterben	gemein	engstirnig	versagen	krank	1	blank2r.bmp	0	1	+	0	1	blank2r.bmp	500	1	DHJF	500	1	blank2r.bmp	880	5	vergnügt	880	1	!	-1	1	!	-1	0	0	0	0	0	0
2024-06-19	14:17:07	14:23:53	405443	6.6.1	4_exp_EVA_AWA_CON	88	A	B	Rpleas_acq	Oppo	Rpleas	2pleas	acq_new_unple_nomask	acq2_nomask	2	27	480	0	300	300	0	0	3451	46	1	0	träumen	anregung	kuss	gesittet	vergnügt	gütig	töten	ausrottung	krise	geizig	verbissen	gierig	besonnen	sonnig	genießen	engagiert	vertrauen	kreativ	bange	sterben	gemein	engstirnig	versagen	krank	1	blank2r.bmp	0	1	+	0	1	blank2r.bmp	500	4	B4r.bmp	500	1	blank2r.bmp	880	4	engstirnig	880	1	!	1313	1	!	-1	0	0	0	0	0	0
2024-06-19	14:17:07	14:23:56	407788	6.6.1	4_exp_EVA_AWA_CON	88	A	B	Rpleas_acq	Oppo	Rpleas	2pleas	acq_US_pleas_nomask	acq2_nomask	2	28	480	0	300	300	0	0	571	50	1	0	träumen	anregung	kuss	gesittet	vergnügt	gütig	töten	ausrottung	krise	geizig	verbissen	gierig	besonnen	sonnig	genießen	engagiert	vertrauen	kreativ	bange	sterben	gemein	engstirnig	versagen	krank	1	blank2r.bmp	0	1	+	0	1	blank2r.bmp	500	1	DHJF	500	1	blank2r.bmp	880	2	anregung	880	1	!	1312	1	!	-1	0	0	0	0	0	0
2024-06-19	14:17:07	14:23:58	409903	6.6.1	4_exp_EVA_AWA_CON	88	A	B	Rpleas_acq	Oppo	Rpleas	2pleas	acq_US_pleas_nomask	acq2_nomask	2	29	480	0	300	300	0	0	132	46	0	0	träumen	anregung	kuss	gesittet	vergnügt	gütig	töten	ausrottung	krise	geizig	verbissen	gierig	besonnen	sonnig	genießen	engagiert	vertrauen	kreativ	bange	sterben	gemein	engstirnig	versagen	krank	1	blank2r.bmp	0	1	+	0	1	blank2r.bmp	500	1	DHJF	500	1	blank2r.bmp	880	4	gesittet	880	1	FEHLER	1325	1	!	-1	1	!	-1	0	0	0
2024-06-19	14:17:07	14:24:00	412022	6.6.1	4_exp_EVA_AWA_CON	88	A	B	Rpleas_acq	Oppo	Rpleas	2pleas	acq_new_pleas_nomask	acq2_nomask	2	30	480	1	300	300	0	0	541	50	1	0	träumen	anregung	kuss	gesittet	vergnügt	gütig	töten	ausrottung	krise	geizig	verbissen	gierig	besonnen	sonnig	genießen	engagiert	vertrauen	kreativ	bange	sterben	gemein	engstirnig	versagen	krank	1	blank2r.bmp	0	1	+	0	1	blank2r.bmp	500	8	C4r.bmp	500	1	blank2r.bmp	880	4	engagiert	880	1	!	1313	1	!	1442	0	0	0	0	0	0
2024-06-19	14:17:07	14:24:02	414285	6.6.1	4_exp_EVA_AWA_CON	88	A	B	Rpleas_acq	Oppo	Rpleas	2pleas	acq_new_unple_nomask	acq2_nomask	2	31	480	1	300	300	0	0	483	46	1	0	träumen	anregung	kuss	gesittet	vergnügt	gütig	töten	ausrottung	krise	geizig	verbissen	gierig	besonnen	sonnig	genießen	engagiert	vertrauen	kreativ	bange	sterben	gemein	engstirnig	versagen	krank	1	blank2r.bmp	0	1	+	0	1	blank2r.bmp	500	3	B3r.bmp	500	1	blank2r.bmp	880	2	sterben	880	1	!	1312	1	!	1384	0	0	0	0	0	0
2024-06-19	14:17:07	14:24:04	416683	6.6.1	4_exp_EVA_AWA_CON	88	A	B	Rpleas_acq	Oppo	Rpleas	2pleas	acq_new_pleas_nomask	acq2_nomask	2	32	480	0	300	300	0	0	622	50	1	0	träumen	anregung	kuss	gesittet	vergnügt	gütig	töten	ausrottung	krise	geizig	verbissen	gierig	besonnen	sonnig	genießen	engagiert	vertrauen	kreativ	bange	sterben	gemein	engstirnig	versagen	krank	1	blank2r.bmp	0	1	+	0	1	blank2r.bmp	500	5	C1r.bmp	500	1	blank2r.bmp	880	1	besonnen	880	1	!	1312	1	!	-1	0	0	0	0	0	0
2024-06-19	14:17:07	14:24:07	418909	6.6.1	4_exp_EVA_AWA_CON	88	A	B	Rpleas_acq	Oppo	Rpleas	2pleas	acq_US_unple_nomask	acq2_nomask	2	33	480	1	300	300	0	0	444	46	1	0	träumen	anregung	kuss	gesittet	vergnügt	gütig	töten	ausrottung	krise	geizig	verbissen	gierig	besonnen	sonnig	genießen	engagiert	vertrauen	kreativ	bange	sterben	gemein	engstirnig	versagen	krank	1	blank2r.bmp	0	1	+	0	1	blank2r.bmp	500	1	CPLW	500	1	blank2r.bmp	880	6	gierig	880	1	!	1313	1	!	1345	0	0	0	0	0	0
2024-06-19	14:17:07	14:24:09	421375	6.6.1	4_exp_EVA_AWA_CON	88	A	B	Rpleas_acq	Oppo	Rpleas	2pleas	acq_US_unple_nomask	acq2_nomask	2	34	480	1	300	300	0	0	487	50	0	0	träumen	anregung	kuss	gesittet	vergnügt	gütig	töten	ausrottung	krise	geizig	verbissen	gierig	besonnen	sonnig	genießen	engagiert	vertrauen	kreativ	bange	sterben	gemein	engstirnig	versagen	krank	1	blank2r.bmp	0	1	+	0	1	blank2r.bmp	500	1	CPLW	500	1	blank2r.bmp	880	2	ausrottung	880	1	FEHLER	1680	1	!	1312	1	!	1388	0	0	0
2024-06-19	14:17:07	14:24:11	423628	6.6.1	4_exp_EVA_AWA_CON	88	A	B	Rpleas_acq	Oppo	Rpleas	2pleas	acq_new_pleas_nomask	acq2_nomask	2	35	480	0	300	300	0	0	681	50	1	0	träumen	anregung	kuss	gesittet	vergnügt	gütig	töten	ausrottung	krise	geizig	verbissen	gierig	besonnen	sonnig	genießen	engagiert	vertrauen	kreativ	bange	sterben	gemein	engstirnig	versagen	krank	1	blank2r.bmp	0	1	+	0	1	blank2r.bmp	500	1	B1r.bmp	500	1	blank2r.bmp	880	3	genießen	880	1	!	1312	1	!	-1	0	0	0	0	0	0
2024-06-19	14:17:07	14:24:13	425739	6.6.1	4_exp_EVA_AWA_CON	88	A	B	Rpleas_acq	Oppo	Rpleas	2pleas	acq_new_unple_nomask	acq2_nomask	2	36	480	0	300	300	0	0	332	46	1	0	träumen	anregung	kuss	gesittet	vergnügt	gütig	töten	ausrottung	krise	geizig	verbissen	gierig	besonnen	sonnig	genießen	engagiert	vertrauen	kreativ	bange	sterben	gemein	engstirnig	versagen	krank	1	blank2r.bmp	0	1	+	0	1	blank2r.bmp	500	6	C2r.bmp	500	1	blank2r.bmp	880	1	bange	880	1	!	-1	1	!	-1	0	0	0	0	0	0
2024-06-19	14:17:07	14:24:27	439445	6.6.1	4_exp_EVA_AWA_CON	88	A	B	Rpleas_acq	Oppo	Rpleas	2pleas	acq_US_pleas_nomask	acq3_nomask	3	1	453	1	300	300	0	0	507	50	1	0	träumen	anregung	kuss	gesittet	vergnügt	gütig	töten	ausrottung	krise	geizig	verbissen	gierig	besonnen	sonnig	genießen	engagiert	vertrauen	kreativ	bange	sterben	gemein	engstirnig	versagen	krank	1	blank2r.bmp	0	1	+	0	1	blank2r.bmp	500	1	DHJF	500	1	blank2r.bmp	880	2	anregung	880	1	!	1292	1	!	1408	0	0	0	0	0	0
2024-06-19	14:17:07	14:24:29	441677	6.6.1	4_exp_EVA_AWA_CON	88	A	B	Rpleas_acq	Oppo	Rpleas	2pleas	acq_US_pleas_nomask	acq3_nomask	3	2	453	1	300	300	0	0	458	50	1	0	träumen	anregung	kuss	gesittet	vergnügt	gütig	töten	ausrottung	krise	geizig	verbissen	gierig	besonnen	sonnig	genießen	engagiert	vertrauen	kreativ	bange	sterben	gemein	engstirnig	versagen	krank	1	blank2r.bmp	0	1	+	0	1	blank2r.bmp	500	1	DHJF	500	1	blank2r.bmp	880	1	träumen	880	1	!	1293	1	!	1358	0	0	0	0	0	0
2024-06-19	14:17:07	14:24:32	443957	6.6.1	4_exp_EVA_AWA_CON	88	A	B	Rpleas_acq	Oppo	Rpleas	2pleas	acq_US_unple_nomask	acq3_nomask	3	3	453	1	300	300	0	0	506	46	1	0	träumen	anregung	kuss	gesittet	vergnügt	gütig	töten	ausrottung	krise	geizig	verbissen	gierig	besonnen	sonnig	genießen	engagiert	vertrauen	kreativ	bange	sterben	gemein	engstirnig	versagen	krank	1	blank2r.bmp	0	1	+	0	1	blank2r.bmp	500	1	CPLW	500	1	blank2r.bmp	880	2	ausrottung	880	1	!	1293	1	!	1407	0	0	0	0	0	0
2024-06-19	14:17:07	14:24:34	446197	6.6.1	4_exp_EVA_AWA_CON	88	A	B	Rpleas_acq	Oppo	Rpleas	2pleas	acq_US_unple_nomask	acq3_nomask	3	4	453	1	300	300	0	0	465	46	1	0	träumen	anregung	kuss	gesittet	vergnügt	gütig	töten	ausrottung	krise	geizig	verbissen	gierig	besonnen	sonnig	genießen	engagiert	vertrauen	kreativ	bange	sterben	gemein	engstirnig	versagen	krank	1	blank2r.bmp	0	1	+	0	1	blank2r.bmp	500	1	CPLW	500	1	blank2r.bmp	880	1	töten	880	1	!	1292	1	!	1366	0	0	0	0	0	0
2024-06-19	14:17:07	14:24:36	448461	6.6.1	4_exp_EVA_AWA_CON	88	A	B	Rpleas_acq	Oppo	Rpleas	2pleas	acq_US_pleas_nomask	acq3_nomask	3	5	453	1	300	300	0	0	487	50	1	0	träumen	anregung	kuss	gesittet	vergnügt	gütig	töten	ausrottung	krise	geizig	verbissen	gierig	besonnen	sonnig	genießen	engagiert	vertrauen	kreativ	bange	sterben	gemein	engstirnig	versagen	krank	1	blank2r.bmp	0	1	+	0	1	blank2r.bmp	500	1	DHJF	500	1	blank2r.bmp	880	3	kuss	880	1	!	1292	1	!	1388	0	0	0	0	0	0
2024-06-19	14:17:07	14:24:39	450999	6.6.1	4_exp_EVA_AWA_CON	88	A	B	Rpleas_acq	Oppo	Rpleas	2pleas	acq_US_pleas_nomask	acq3_nomask	3	6	453	0	300	300	0	0	562	46	0	0	träumen	anregung	kuss	gesittet	vergnügt	gütig	töten	ausrottung	krise	geizig	verbissen	gierig	besonnen	sonnig	genießen	engagiert	vertrauen	kreativ	bange	sterben	gemein	engstirnig	versagen	krank	1	blank2r.bmp	0	1	+	0	1	blank2r.bmp	500	1	DHJF	500	1	blank2r.bmp	880	4	gesittet	880	1	FEHLER	1755	1	!	1292	1	!	-1	0	0	0
2024-06-19	14:17:07	14:24:41	453116	6.6.1	4_exp_EVA_AWA_CON	88	A	B	Rpleas_acq	Oppo	Rpleas	2pleas	acq_US_pleas_nomask	acq3_nomask	3	7	453	0	300	300	0	0	540	50	1	0	träumen	anregung	kuss	gesittet	vergnügt	gütig	töten	ausrottung	krise	geizig	verbissen	gierig	besonnen	sonnig	genießen	engagiert	vertrauen	kreativ	bange	sterben	gemein	engstirnig	versagen	krank	1	blank2r.bmp	0	1	+	0	1	blank2r.bmp	500	1	DHJF	500	1	blank2r.bmp	880	5	vergnügt	880	1	!	1292	1	!	-1	0	0	0	0	0	0
2024-06-19	14:17:07	14:24:43	455389	6.6.1	4_exp_EVA_AWA_CON	88	A	B	Rpleas_acq	Oppo	Rpleas	2pleas	acq_US_unple_nomask	acq3_nomask	3	8	453	1	300	300	0	0	491	46	1	0	träumen	anregung	kuss	gesittet	vergnügt	gütig	töten	ausrottung	krise	geizig	verbissen	gierig	besonnen	sonnig	genießen	engagiert	vertrauen	kreativ	bange	sterben	gemein	engstirnig	versagen	krank	1	blank2r.bmp	0	1	+	0	1	blank2r.bmp	500	1	CPLW	500	1	blank2r.bmp	880	5	verbissen	880	1	!	1292	1	!	1392	0	0	0	0	0	0
2024-06-19	14:17:07	14:24:46	457918	6.6.1	4_exp_EVA_AWA_CON	88	A	B	Rpleas_acq	Oppo	Rpleas	2pleas	acq_US_unple_nomask	acq3_nomask	3	9	453	0	300	300	0	0	547	50	0	0	träumen	anregung	kuss	gesittet	vergnügt	gütig	töten	ausrottung	krise	geizig	verbissen	gierig	besonnen	sonnig	genießen	engagiert	vertrauen	kreativ	bange	sterben	gemein	engstirnig	versagen	krank	1	blank2r.bmp	0	1	+	0	1	blank2r.bmp	500	1	CPLW	500	1	blank2r.bmp	880	4	geizig	880	1	FEHLER	1740	1	!	1292	1	!	-1	0	0	0
2024-06-19	14:17:07	14:24:48	460083	6.6.1	4_exp_EVA_AWA_CON	88	A	B	Rpleas_acq	Oppo	Rpleas	2pleas	acq_US_unple_nomask	acq3_nomask	3	10	453	0	300	300	0	0	594	46	1	0	träumen	anregung	kuss	gesittet	vergnügt	gütig	töten	ausrottung	krise	geizig	verbissen	gierig	besonnen	sonnig	genießen	engagiert	vertrauen	kreativ	bange	sterben	gemein	engstirnig	versagen	krank	1	blank2r.bmp	0	1	+	0	1	blank2r.bmp	500	1	CPLW	500	1	blank2r.bmp	880	6	gierig	880	1	!	1293	1	!	-1	0	0	0	0	0	0
2024-06-19	14:17:07	14:24:50	462403	6.6.1	4_exp_EVA_AWA_CON	88	A	B	Rpleas_acq	Oppo	Rpleas	2pleas	acq_US_pleas_nomask	acq3_nomask	3	11	453	0	300	300	0	0	542	50	1	0	träumen	anregung	kuss	gesittet	vergnügt	gütig	töten	ausrottung	krise	geizig	verbissen	gierig	besonnen	sonnig	genießen	engagiert	vertrauen	kreativ	bange	sterben	gemein	engstirnig	versagen	krank	1	blank2r.bmp	0	1	+	0	1	blank2r.bmp	500	1	DHJF	500	1	blank2r.bmp	880	6	gütig	880	1	!	1293	1	!	-1	0	0	0	0	0	0
2024-06-19	14:17:07	14:24:52	464755	6.6.1	4_exp_EVA_AWA_CON	88	A	B	Rpleas_acq	Oppo	Rpleas	2pleas	acq_US_unple_nomask	acq3_nomask	3	12	453	0	300	300	0	0	573	46	1	0	träumen	anregung	kuss	gesittet	vergnügt	gütig	töten	ausrottung	krise	geizig	verbissen	gierig	besonnen	sonnig	genießen	engagiert	vertrauen	kreativ	bange	sterben	gemein	engstirnig	versagen	krank	1	blank2r.bmp	0	1	+	0	1	blank2r.bmp	500	1	CPLW	500	1	blank2r.bmp	880	3	krise	880	1	!	1292	1	!	-1	0	0	0	0	0	0
2024-06-19	14:17:07	14:24:55	467198	6.6.1	4_exp_EVA_AWA_CON	88	A	B	Rpleas_acq	Oppo	Rpleas	2pleas	acq_US_pleas_nomask	acq3_nomask	3	13	453	1	300	300	0	0	461	46	0	0	träumen	anregung	kuss	gesittet	vergnügt	gütig	töten	ausrottung	krise	geizig	verbissen	gierig	besonnen	sonnig	genießen	engagiert	vertrauen	kreativ	bange	sterben	gemein	engstirnig	versagen	krank	1	blank2r.bmp	0	1	+	0	1	blank2r.bmp	500	1	DHJF	500	1	blank2r.bmp	880	1	träumen	880	1	FEHLER	1654	1	!	1293	1	!	1363	0	0	0
2024-06-19	14:17:07	14:25:00	472419	6.6.1	4_exp_EVA_AWA_CON	88	A	B	Rpleas_acq	Oppo	Rpleas	2pleas	acq_US_pleas_nomask	acq3_nomask	3	14	453	0	300	300	0	0	3644	50	1	0	träumen	anregung	kuss	gesittet	vergnügt	gütig	töten	ausrottung	krise	geizig	verbissen	gierig	besonnen	sonnig	genießen	engagiert	vertrauen	kreativ	bange	sterben	gemein	engstirnig	versagen	krank	1	blank2r.bmp	0	1	+	0	1	blank2r.bmp	500	1	DHJF	500	1	blank2r.bmp	880	6	gütig	880	1	!	1293	1	!	-1	0	0	0	0	0	0
2024-06-19	14:17:07	14:25:02	474653	6.6.1	4_exp_EVA_AWA_CON	88	A	B	Rpleas_acq	Oppo	Rpleas	2pleas	acq_US_unple_nomask	acq3_nomask	3	15	453	1	300	300	0	0	453	46	1	0	träumen	anregung	kuss	gesittet	vergnügt	gütig	töten	ausrottung	krise	geizig	verbissen	gierig	besonnen	sonnig	genießen	engagiert	vertrauen	kreativ	bange	sterben	gemein	engstirnig	versagen	krank	1	blank2r.bmp	0	1	+	0	1	blank2r.bmp	500	1	CPLW	500	1	blank2r.bmp	880	6	gierig	880	1	!	1292	1	!	1353	0	0	0	0	0	0
2024-06-19	14:17:07	14:25:05	477019	6.6.1	4_exp_EVA_AWA_CON	88	A	B	Rpleas_acq	Oppo	Rpleas	2pleas	acq_US_pleas_nomask	acq3_nomask	3	16	453	0	300	300	0	0	589	50	1	0	träumen	anregung	kuss	gesittet	vergnügt	gütig	töten	ausrottung	krise	geizig	verbissen	gierig	besonnen	sonnig	genießen	engagiert	vertrauen	kreativ	bange	sterben	gemein	engstirnig	versagen	krank	1	blank2r.bmp	0	1	+	0	1	blank2r.bmp	500	1	DHJF	500	1	blank2r.bmp	880	4	gesittet	880	1	!	1292	1	!	-1	0	0	0	0	0	0
2024-06-19	14:17:07	14:25:07	479455	6.6.1	4_exp_EVA_AWA_CON	88	A	B	Rpleas_acq	Oppo	Rpleas	2pleas	acq_US_pleas_nomask	acq3_nomask	3	17	453	1	300	300	0	0	459	46	0	0	träumen	anregung	kuss	gesittet	vergnügt	gütig	töten	ausrottung	krise	geizig	verbissen	gierig	besonnen	sonnig	genießen	engagiert	vertrauen	kreativ	bange	sterben	gemein	engstirnig	versagen	krank	1	blank2r.bmp	0	1	+	0	1	blank2r.bmp	500	1	DHJF	500	1	blank2r.bmp	880	2	anregung	880	1	FEHLER	1653	1	!	1292	1	!	1360	0	0	0
2024-06-19	14:17:07	14:25:09	481419	6.6.1	4_exp_EVA_AWA_CON	88	A	B	Rpleas_acq	Oppo	Rpleas	2pleas	acq_US_pleas_nomask	acq3_nomask	3	18	453	0	300	300	0	0	386	50	1	0	träumen	anregung	kuss	gesittet	vergnügt	gütig	töten	ausrottung	krise	geizig	verbissen	gierig	besonnen	sonnig	genießen	engagiert	vertrauen	kreativ	bange	sterben	gemein	engstirnig	versagen	krank	1	blank2r.bmp	0	1	+	0	1	blank2r.bmp	500	1	DHJF	500	1	blank2r.bmp	880	5	vergnügt	880	1	!	-1	1	!	-1	0	0	0	0	0	0
2024-06-19	14:17:07	14:25:11	483709	6.6.1	4_exp_EVA_AWA_CON	88	A	B	Rpleas_acq	Oppo	Rpleas	2pleas	acq_US_pleas_nomask	acq3_nomask	3	19	453	1	300	300	0	0	513	50	1	0	träumen	anregung	kuss	gesittet	vergnügt	gütig	töten	ausrottung	krise	geizig	verbissen	gierig	besonnen	sonnig	genießen	engagiert	vertrauen	kreativ	bange	sterben	gemein	engstirnig	versagen	krank	1	blank2r.bmp	0	1	+	0	1	blank2r.bmp	500	1	DHJF	500	1	blank2r.bmp	880	3	kuss	880	1	!	1292	1	!	1413	0	0	0	0	0	0
2024-06-19	14:17:07	14:25:14	486118	6.6.1	4_exp_EVA_AWA_CON	88	A	B	Rpleas_acq	Oppo	Rpleas	2pleas	acq_US_unple_nomask	acq3_nomask	3	20	453	1	300	300	0	0	429	50	0	0	träumen	anregung	kuss	gesittet	vergnügt	gütig	töten	ausrottung	krise	geizig	verbissen	gierig	besonnen	sonnig	genießen	engagiert	vertrauen	kreativ	bange	sterben	gemein	engstirnig	versagen	krank	1	blank2r.bmp	0	1	+	0	1	blank2r.bmp	500	1	CPLW	500	1	blank2r.bmp	880	4	geizig	880	1	FEHLER	1622	1	!	1292	1	!	1330	0	0	0
2024-06-19	14:17:07	14:25:16	488446	6.6.1	4_exp_EVA_AWA_CON	88	A	B	Rpleas_acq	Oppo	Rpleas	2pleas	acq_US_unple_nomask	acq3_nomask	3	21	453	0	300	300	0	0	546	50	0	0	träumen	anregung	kuss	gesittet	vergnügt	gütig	töten	ausrottung	krise	geizig	verbissen	gierig	besonnen	sonnig	genießen	engagiert	vertrauen	kreativ	bange	sterben	gemein	engstirnig	versagen	krank	1	blank2r.bmp	0	1	+	0	1	blank2r.bmp	500	1	CPLW	500	1	blank2r.bmp	880	2	ausrottung	880	1	FEHLER	1738	1	!	1292	1	!	-1	0	0	0
2024-06-19	14:17:07	14:25:18	490595	6.6.1	4_exp_EVA_AWA_CON	88	A	B	Rpleas_acq	Oppo	Rpleas	2pleas	acq_US_unple_nomask	acq3_nomask	3	22	453	0	300	300	0	0	576	46	1	0	träumen	anregung	kuss	gesittet	vergnügt	gütig	töten	ausrottung	krise	geizig	verbissen	gierig	besonnen	sonnig	genießen	engagiert	vertrauen	kreativ	bange	sterben	gemein	engstirnig	versagen	krank	1	blank2r.bmp	0	1	+	0	1	blank2r.bmp	500	1	CPLW	500	1	blank2r.bmp	880	3	krise	880	1	!	1292	1	!	-1	0	0	0	0	0	0
2024-06-19	14:17:07	14:25:21	492862	6.6.1	4_exp_EVA_AWA_CON	88	A	B	Rpleas_acq	Oppo	Rpleas	2pleas	acq_US_unple_nomask	acq3_nomask	3	23	453	1	300	300	0	0	489	46	1	0	träumen	anregung	kuss	gesittet	vergnügt	gütig	töten	ausrottung	krise	geizig	verbissen	gierig	besonnen	sonnig	genießen	engagiert	vertrauen	kreativ	bange	sterben	gemein	engstirnig	versagen	krank	1	blank2r.bmp	0	1	+	0	1	blank2r.bmp	500	1	CPLW	500	1	blank2r.bmp	880	1	töten	880	1	!	1292	1	!	1390	0	0	0	0	0	0
2024-06-19	14:17:07	14:25:23	494843	6.6.1	4_exp_EVA_AWA_CON	88	A	B	Rpleas_acq	Oppo	Rpleas	2pleas	acq_US_unple_nomask	acq3_nomask	3	24	453	0	300	300	0	0	200	46	1	0	träumen	anregung	kuss	gesittet	vergnügt	gütig	töten	ausrottung	krise	geizig	verbissen	gierig	besonnen	sonnig	genießen	engagiert	vertrauen	kreativ	bange	sterben	gemein	engstirnig	versagen	krank	1	blank2r.bmp	0	1	+	0	1	blank2r.bmp	500	1	CPLW	500	1	blank2r.bmp	880	5	verbissen	880	1	!	-1	1	!	-1	0	0	0	0	0	0
2024-06-19	14:17:07	14:25:25	496995	6.6.1	4_exp_EVA_AWA_CON	88	A	B	Rpleas_acq	Oppo	Rpleas	2pleas	acq_US_unple_nomask	acq3_nomask	3	25	453	0	300	300	0	0	372	46	1	0	träumen	anregung	kuss	gesittet	vergnügt	gütig	töten	ausrottung	krise	geizig	verbissen	gierig	besonnen	sonnig	genießen	engagiert	vertrauen	kreativ	bange	sterben	gemein	engstirnig	versagen	krank	1	blank2r.bmp	0	1	+	0	1	blank2r.bmp	500	1	CPLW	500	1	blank2r.bmp	880	4	geizig	880	1	!	-1	1	!	-1	0	0	0	0	0	0
2024-06-19	14:17:07	14:25:27	499430	6.6.1	4_exp_EVA_AWA_CON	88	A	B	Rpleas_acq	Oppo	Rpleas	2pleas	acq_US_pleas_nomask	acq3_nomask	3	26	453	1	300	300	0	0	452	46	0	0	träumen	anregung	kuss	gesittet	vergnügt	gütig	töten	ausrottung	krise	geizig	verbissen	gierig	besonnen	sonnig	genießen	engagiert	vertrauen	kreativ	bange	sterben	gemein	engstirnig	versagen	krank	1	blank2r.bmp	0	1	+	0	1	blank2r.bmp	500	1	DHJF	500	1	blank2r.bmp	880	5	vergnügt	880	1	FEHLER	1645	1	!	1292	1	!	1353	0	0	0
2024-06-19	14:17:07	14:25:30	502428	6.6.1	4_exp_EVA_AWA_CON	88	A	B	Rpleas_acq	Oppo	Rpleas	2pleas	acq_US_pleas_nomask	acq3_nomask	3	27	453	0	300	300	0	0	1421	50	1	0	träumen	anregung	kuss	gesittet	vergnügt	gütig	töten	ausrottung	krise	geizig	verbissen	gierig	besonnen	sonnig	genießen	engagiert	vertrauen	kreativ	bange	sterben	gemein	engstirnig	versagen	krank	1	blank2r.bmp	0	1	+	0	1	blank2r.bmp	500	1	DHJF	500	1	blank2r.bmp	880	6	gütig	880	1	!	1292	1	!	-1	0	0	0	0	0	0
2024-06-19	14:17:07	14:25:32	504563	6.6.1	4_exp_EVA_AWA_CON	88	A	B	Rpleas_acq	Oppo	Rpleas	2pleas	acq_US_pleas_nomask	acq3_nomask	3	28	453	0	300	300	0	0	355	50	1	0	träumen	anregung	kuss	gesittet	vergnügt	gütig	töten	ausrottung	krise	geizig	verbissen	gierig	besonnen	sonnig	genießen	engagiert	vertrauen	kreativ	bange	sterben	gemein	engstirnig	versagen	krank	1	blank2r.bmp	0	1	+	0	1	blank2r.bmp	500	1	DHJF	500	1	blank2r.bmp	880	3	kuss	880	1	!	-1	1	!	-1	0	0	0	0	0	0
2024-06-19	14:17:07	14:25:35	506899	6.6.1	4_exp_EVA_AWA_CON	88	A	B	Rpleas_acq	Oppo	Rpleas	2pleas	acq_US_unple_nomask	acq3_nomask	3	29	453	0	300	300	0	0	560	46	1	0	träumen	anregung	kuss	gesittet	vergnügt	gütig	töten	ausrottung	krise	geizig	verbissen	gierig	besonnen	sonnig	genießen	engagiert	vertrauen	kreativ	bange	sterben	gemein	engstirnig	versagen	krank	1	blank2r.bmp	0	1	+	0	1	blank2r.bmp	500	1	CPLW	500	1	blank2r.bmp	880	6	gierig	880	1	!	1293	1	!	-1	0	0	0	0	0	0
2024-06-19	14:17:07	14:25:37	509193	6.6.1	4_exp_EVA_AWA_CON	88	A	B	Rpleas_acq	Oppo	Rpleas	2pleas	acq_US_unple_nomask	acq3_nomask	3	30	453	0	300	300	0	0	525	46	1	0	träumen	anregung	kuss	gesittet	vergnügt	gütig	töten	ausrottung	krise	geizig	verbissen	gierig	besonnen	sonnig	genießen	engagiert	vertrauen	kreativ	bange	sterben	gemein	engstirnig	versagen	krank	1	blank2r.bmp	0	1	+	0	1	blank2r.bmp	500	1	CPLW	500	1	blank2r.bmp	880	3	krise	880	1	!	1293	1	!	-1	0	0	0	0	0	0
2024-06-19	14:17:07	14:25:39	511469	6.6.1	4_exp_EVA_AWA_CON	88	A	B	Rpleas_acq	Oppo	Rpleas	2pleas	acq_US_unple_nomask	acq3_nomask	3	31	453	1	300	300	0	0	494	46	1	0	träumen	anregung	kuss	gesittet	vergnügt	gütig	töten	ausrottung	krise	geizig	verbissen	gierig	besonnen	sonnig	genießen	engagiert	vertrauen	kreativ	bange	sterben	gemein	engstirnig	versagen	krank	1	blank2r.bmp	0	1	+	0	1	blank2r.bmp	500	1	CPLW	500	1	blank2r.bmp	880	1	töten	880	1	!	1293	1	!	1396	0	0	0	0	0	0
2024-06-19	14:17:07	14:25:42	514110	6.6.1	4_exp_EVA_AWA_CON	88	A	B	Rpleas_acq	Oppo	Rpleas	2pleas	acq_US_pleas_nomask	acq3_nomask	3	32	453	0	300	300	0	0	663	46	0	0	träumen	anregung	kuss	gesittet	vergnügt	gütig	töten	ausrottung	krise	geizig	verbissen	gierig	besonnen	sonnig	genießen	engagiert	vertrauen	kreativ	bange	sterben	gemein	engstirnig	versagen	krank	1	blank2r.bmp	0	1	+	0	1	blank2r.bmp	500	1	DHJF	500	1	blank2r.bmp	880	4	gesittet	880	1	FEHLER	1856	1	!	1292	1	!	-1	0	0	0
2024-06-19	14:17:07	14:25:45	517468	6.6.1	4_exp_EVA_AWA_CON	88	A	B	Rpleas_acq	Oppo	Rpleas	2pleas	acq_US_pleas_nomask	acq3_nomask	3	33	453	0	300	300	0	0	1782	50	1	0	träumen	anregung	kuss	gesittet	vergnügt	gütig	töten	ausrottung	krise	geizig	verbissen	gierig	besonnen	sonnig	genießen	engagiert	vertrauen	kreativ	bange	sterben	gemein	engstirnig	versagen	krank	1	blank2r.bmp	0	1	+	0	1	blank2r.bmp	500	1	DHJF	500	1	blank2r.bmp	880	2	anregung	880	1	!	1292	1	!	-1	0	0	0	0	0	0
2024-06-19	14:17:07	14:25:47	519733	6.6.1	4_exp_EVA_AWA_CON	88	A	B	Rpleas_acq	Oppo	Rpleas	2pleas	acq_US_unple_nomask	acq3_nomask	3	34	453	1	300	300	0	0	484	46	1	0	träumen	anregung	kuss	gesittet	vergnügt	gütig	töten	ausrottung	krise	geizig	verbissen	gierig	besonnen	sonnig	genießen	engagiert	vertrauen	kreativ	bange	sterben	gemein	engstirnig	versagen	krank	1	blank2r.bmp	0	1	+	0	1	blank2r.bmp	500	1	CPLW	500	1	blank2r.bmp	880	5	verbissen	880	1	!	1293	1	!	1384	0	0	0	0	0	0
2024-06-19	14:17:07	14:25:50	522100	6.6.1	4_exp_EVA_AWA_CON	88	A	B	Rpleas_acq	Oppo	Rpleas	2pleas	acq_US_pleas_nomask	acq3_nomask	3	35	453	0	300	300	0	0	589	50	1	0	träumen	anregung	kuss	gesittet	vergnügt	gütig	töten	ausrottung	krise	geizig	verbissen	gierig	besonnen	sonnig	genießen	engagiert	vertrauen	kreativ	bange	sterben	gemein	engstirnig	versagen	krank	1	blank2r.bmp	0	1	+	0	1	blank2r.bmp	500	1	DHJF	500	1	blank2r.bmp	880	1	träumen	880	1	!	1292	1	!	-1	0	0	0	0	0	0
2024-06-19	14:17:07	14:25:52	524334	6.6.1	4_exp_EVA_AWA_CON	88	A	B	Rpleas_acq	Oppo	Rpleas	2pleas	acq_US_unple_nomask	acq3_nomask	3	36	453	1	300	300	0	0	451	46	1	0	träumen	anregung	kuss	gesittet	vergnügt	gütig	töten	ausrottung	krise	geizig	verbissen	gierig	besonnen	sonnig	genießen	engagiert	vertrauen	kreativ	bange	sterben	gemein	engstirnig	versagen	krank	1	blank2r.bmp	0	1	+	0	1	blank2r.bmp	500	1	CPLW	500	1	blank2r.bmp	880	2	ausrottung	880	1	!	1292	1	!	1352	0	0	0	0	0	0
2024-06-19	14:17:07	14:26:02	534603	6.6.1	4_exp_EVA_AWA_CON	88	A	B	Rpleas_acq	Oppo	Rpleas	2pleas	acq_US_pleas_nomask	acq45_nomask	4	1	400	0	300	300	0	0	325	50	1	0	träumen	anregung	kuss	gesittet	vergnügt	gütig	töten	ausrottung	krise	geizig	verbissen	gierig	besonnen	sonnig	genießen	engagiert	vertrauen	kreativ	bange	sterben	gemein	engstirnig	versagen	krank	1	blank2r.bmp	0	1	+	0	1	blank2r.bmp	500	1	DHJF	500	1	blank2r.bmp	880	3	kuss	880	1	!	-1	1	!	-1	0	0	0	0	0	0
2024-06-19	14:17:07	14:26:04	536749	6.6.1	4_exp_EVA_AWA_CON	88	A	B	Rpleas_acq	Oppo	Rpleas	2pleas	acq_US_unple_nomask	acq45_nomask	4	2	400	1	300	300	0	0	368	46	1	0	träumen	anregung	kuss	gesittet	vergnügt	gütig	töten	ausrottung	krise	geizig	verbissen	gierig	besonnen	sonnig	genießen	engagiert	vertrauen	kreativ	bange	sterben	gemein	engstirnig	versagen	krank	1	blank2r.bmp	0	1	+	0	1	blank2r.bmp	500	1	CPLW	500	1	blank2r.bmp	880	1	töten	880	1	!	1232	1	!	1269	0	0	0	0	0	0
2024-06-19	14:17:07	14:26:07	539115	6.6.1	4_exp_EVA_AWA_CON	88	A	B	Rpleas_acq	Oppo	Rpleas	2pleas	acq_US_unple_nomask	acq45_nomask	4	3	400	0	300	300	0	0	584	46	1	0	träumen	anregung	kuss	gesittet	vergnügt	gütig	töten	ausrottung	krise	geizig	verbissen	gierig	besonnen	sonnig	genießen	engagiert	vertrauen	kreativ	bange	sterben	gemein	engstirnig	versagen	krank	1	blank2r.bmp	0	1	+	0	1	blank2r.bmp	500	1	CPLW	500	1	blank2r.bmp	880	2	ausrottung	880	1	!	1232	1	!	-1	0	0	0	0	0	0
2024-06-19	14:17:07	14:26:09	541603	6.6.1	4_exp_EVA_AWA_CON	88	A	B	Rpleas_acq	Oppo	Rpleas	2pleas	acq_US_pleas_nomask	acq45_nomask	4	4	400	0	300	300	0	0	711	46	0	0	träumen	anregung	kuss	gesittet	vergnügt	gütig	töten	ausrottung	krise	geizig	verbissen	gierig	besonnen	sonnig	genießen	engagiert	vertrauen	kreativ	bange	sterben	gemein	engstirnig	versagen	krank	1	blank2r.bmp	0	1	+	0	1	blank2r.bmp	500	1	DHJF	500	1	blank2r.bmp	880	2	anregung	880	1	!	1232	1	!	-1	0	0	0	0	0	0
2024-06-19	14:17:07	14:26:12	543813	6.6.1	4_exp_EVA_AWA_CON	88	A	B	Rpleas_acq	Oppo	Rpleas	2pleas	acq_US_pleas_nomask	acq45_nomask	4	5	400	1	300	300	0	0	428	50	1	0	träumen	anregung	kuss	gesittet	vergnügt	gütig	töten	ausrottung	krise	geizig	verbissen	gierig	besonnen	sonnig	genießen	engagiert	vertrauen	kreativ	bange	sterben	gemein	engstirnig	versagen	krank	1	blank2r.bmp	0	1	+	0	1	blank2r.bmp	500	1	DHJF	500	1	blank2r.bmp	880	5	vergnügt	880	1	!	1232	1	!	1329	0	0	0	0	0	0
2024-06-19	14:17:07	14:26:14	546236	6.6.1	4_exp_EVA_AWA_CON	88	A	B	Rpleas_acq	Oppo	Rpleas	2pleas	acq_US_pleas_nomask	acq45_nomask	4	6	400	0	300	300	0	0	640	50	1	0	träumen	anregung	kuss	gesittet	vergnügt	gütig	töten	ausrottung	krise	geizig	verbissen	gierig	besonnen	sonnig	genießen	engagiert	vertrauen	kreativ	bange	sterben	gemein	engstirnig	versagen	krank	1	blank2r.bmp	0	1	+	0	1	blank2r.bmp	500	1	DHJF	500	1	blank2r.bmp	880	6	gütig	880	1	!	1232	1	!	-1	0	0	0	0	0	0
2024-06-19	14:17:07	14:26:16	548453	6.6.1	4_exp_EVA_AWA_CON	88	A	B	Rpleas_acq	Oppo	Rpleas	2pleas	acq_US_unple_nomask	acq45_nomask	4	7	400	1	300	300	0	0	435	46	1	0	träumen	anregung	kuss	gesittet	vergnügt	gütig	töten	ausrottung	krise	geizig	verbissen	gierig	besonnen	sonnig	genießen	engagiert	vertrauen	kreativ	bange	sterben	gemein	engstirnig	versagen	krank	1	blank2r.bmp	0	1	+	0	1	blank2r.bmp	500	1	CPLW	500	1	blank2r.bmp	880	6	gierig	880	1	!	1233	1	!	1336	0	0	0	0	0	0
2024-06-19	14:17:07	14:26:19	550827	6.6.1	4_exp_EVA_AWA_CON	88	A	B	Rpleas_acq	Oppo	Rpleas	2pleas	acq_US_pleas_nomask	acq45_nomask	4	8	400	0	300	300	0	0	600	50	1	0	träumen	anregung	kuss	gesittet	vergnügt	gütig	töten	ausrottung	krise	geizig	verbissen	gierig	besonnen	sonnig	genießen	engagiert	vertrauen	kreativ	bange	sterben	gemein	engstirnig	versagen	krank	1	blank2r.bmp	0	1	+	0	1	blank2r.bmp	500	1	DHJF	500	1	blank2r.bmp	880	4	gesittet	880	1	!	1232	1	!	-1	0	0	0	0	0	0
2024-06-19	14:17:07	14:26:21	553037	6.6.1	4_exp_EVA_AWA_CON	88	A	B	Rpleas_acq	Oppo	Rpleas	2pleas	acq_US_unple_nomask	acq45_nomask	4	9	400	1	300	300	0	0	435	46	1	0	träumen	anregung	kuss	gesittet	vergnügt	gütig	töten	ausrottung	krise	geizig	verbissen	gierig	besonnen	sonnig	genießen	engagiert	vertrauen	kreativ	bange	sterben	gemein	engstirnig	versagen	krank	1	blank2r.bmp	0	1	+	0	1	blank2r.bmp	500	1	CPLW	500	1	blank2r.bmp	880	5	verbissen	880	1	!	1232	1	!	1337	0	0	0	0	0	0
2024-06-19	14:17:07	14:26:23	555515	6.6.1	4_exp_EVA_AWA_CON	88	A	B	Rpleas_acq	Oppo	Rpleas	2pleas	acq_US_unple_nomask	acq45_nomask	4	10	400	0	300	300	0	0	704	46	1	0	träumen	anregung	kuss	gesittet	vergnügt	gütig	töten	ausrottung	krise	geizig	verbissen	gierig	besonnen	sonnig	genießen	engagiert	vertrauen	kreativ	bange	sterben	gemein	engstirnig	versagen	krank	1	blank2r.bmp	0	1	+	0	1	blank2r.bmp	500	1	CPLW	500	1	blank2r.bmp	880	4	geizig	880	1	!	1232	1	!	-1	0	0	0	0	0	0
2024-06-19	14:17:07	14:26:26	557795	6.6.1	4_exp_EVA_AWA_CON	88	A	B	Rpleas_acq	Oppo	Rpleas	2pleas	acq_US_unple_nomask	acq45_nomask	4	11	400	0	300	300	0	0	502	46	1	0	träumen	anregung	kuss	gesittet	vergnügt	gütig	töten	ausrottung	krise	geizig	verbissen	gierig	besonnen	sonnig	genießen	engagiert	vertrauen	kreativ	bange	sterben	gemein	engstirnig	versagen	krank	1	blank2r.bmp	0	1	+	0	1	blank2r.bmp	500	1	CPLW	500	1	blank2r.bmp	880	3	krise	880	1	!	1232	1	!	-1	0	0	0	0	0	0
2024-06-19	14:17:07	14:26:28	560059	6.6.1	4_exp_EVA_AWA_CON	88	A	B	Rpleas_acq	Oppo	Rpleas	2pleas	acq_US_pleas_nomask	acq45_nomask	4	12	400	0	300	300	0	0	485	50	1	0	träumen	anregung	kuss	gesittet	vergnügt	gütig	töten	ausrottung	krise	geizig	verbissen	gierig	besonnen	sonnig	genießen	engagiert	vertrauen	kreativ	bange	sterben	gemein	engstirnig	versagen	krank	1	blank2r.bmp	0	1	+	0	1	blank2r.bmp	500	1	DHJF	500	1	blank2r.bmp	880	1	träumen	880	1	!	1232	1	!	-1	0	0	0	0	0	0
2024-06-19	14:17:07	14:26:30	562467	6.6.1	4_exp_EVA_AWA_CON	88	A	B	Rpleas_acq	Oppo	Rpleas	2pleas	acq_US_pleas_nomask	acq45_nomask	4	13	400	0	300	300	0	0	631	50	1	0	träumen	anregung	kuss	gesittet	vergnügt	gütig	töten	ausrottung	krise	geizig	verbissen	gierig	besonnen	sonnig	genießen	engagiert	vertrauen	kreativ	bange	sterben	gemein	engstirnig	versagen	krank	1	blank2r.bmp	0	1	+	0	1	blank2r.bmp	500	1	DHJF	500	1	blank2r.bmp	880	6	gütig	880	1	!	1232	1	!	-1	0	0	0	0	0	0
2024-06-19	14:17:07	14:26:32	564748	6.6.1	4_exp_EVA_AWA_CON	88	A	B	Rpleas_acq	Oppo	Rpleas	2pleas	acq_US_pleas_nomask	acq45_nomask	4	14	400	0	300	300	0	0	500	46	0	0	träumen	anregung	kuss	gesittet	vergnügt	gütig	töten	ausrottung	krise	geizig	verbissen	gierig	besonnen	sonnig	genießen	engagiert	vertrauen	kreativ	bange	sterben	gemein	engstirnig	versagen	krank	1	blank2r.bmp	0	1	+	0	1	blank2r.bmp	500	1	DHJF	500	1	blank2r.bmp	880	4	gesittet	880	1	!	1232	1	!	-1	0	0	0	0	0	0
2024-06-19	14:17:07	14:26:35	567195	6.6.1	4_exp_EVA_AWA_CON	88	A	B	Rpleas_acq	Oppo	Rpleas	2pleas	acq_US_unple_nomask	acq45_nomask	4	15	400	0	300	300	0	0	666	46	1	0	träumen	anregung	kuss	gesittet	vergnügt	gütig	töten	ausrottung	krise	geizig	verbissen	gierig	besonnen	sonnig	genießen	engagiert	vertrauen	kreativ	bange	sterben	gemein	engstirnig	versagen	krank	1	blank2r.bmp	0	1	+	0	1	blank2r.bmp	500	1	CPLW	500	1	blank2r.bmp	880	5	verbissen	880	1	!	1232	1	!	-1	0	0	0	0	0	0
2024-06-19	14:17:07	14:26:37	569389	6.6.1	4_exp_EVA_AWA_CON	88	A	B	Rpleas_acq	Oppo	Rpleas	2pleas	acq_US_unple_nomask	acq45_nomask	4	16	400	1	300	300	0	0	417	46	1	0	träumen	anregung	kuss	gesittet	vergnügt	gütig	töten	ausrottung	krise	geizig	verbissen	gierig	besonnen	sonnig	genießen	engagiert	vertrauen	kreativ	bange	sterben	gemein	engstirnig	versagen	krank	1	blank2r.bmp	0	1	+	0	1	blank2r.bmp	500	1	CPLW	500	1	blank2r.bmp	880	3	krise	880	1	!	1232	1	!	1318	0	0	0	0	0	0
2024-06-19	14:17:07	14:26:40	571835	6.6.1	4_exp_EVA_AWA_CON	88	A	B	Rpleas_acq	Oppo	Rpleas	2pleas	acq_US_unple_nomask	acq45_nomask	4	17	400	0	300	300	0	0	673	46	1	0	träumen	anregung	kuss	gesittet	vergnügt	gütig	töten	ausrottung	krise	geizig	verbissen	gierig	besonnen	sonnig	genießen	engagiert	vertrauen	kreativ	bange	sterben	gemein	engstirnig	versagen	krank	1	blank2r.bmp	0	1	+	0	1	blank2r.bmp	500	1	CPLW	500	1	blank2r.bmp	880	2	ausrottung	880	1	!	1232	1	!	-1	0	0	0	0	0	0
2024-06-19	14:17:07	14:26:42	574147	6.6.1	4_exp_EVA_AWA_CON	88	A	B	Rpleas_acq	Oppo	Rpleas	2pleas	acq_US_pleas_nomask	acq45_nomask	4	18	400	0	300	300	0	0	534	46	0	0	träumen	anregung	kuss	gesittet	vergnügt	gütig	töten	ausrottung	krise	geizig	verbissen	gierig	besonnen	sonnig	genießen	engagiert	vertrauen	kreativ	bange	sterben	gemein	engstirnig	versagen	krank	1	blank2r.bmp	0	1	+	0	1	blank2r.bmp	500	1	DHJF	500	1	blank2r.bmp	880	5	vergnügt	880	1	!	1232	1	!	-1	0	0	0	0	0	0
2024-06-19	14:17:07	14:26:44	576333	6.6.1	4_exp_EVA_AWA_CON	88	A	B	Rpleas_acq	Oppo	Rpleas	2pleas	acq_US_pleas_nomask	acq45_nomask	4	19	400	1	300	300	0	0	406	50	1	0	träumen	anregung	kuss	gesittet	vergnügt	gütig	töten	ausrottung	krise	geizig	verbissen	gierig	besonnen	sonnig	genießen	engagiert	vertrauen	kreativ	bange	sterben	gemein	engstirnig	versagen	krank	1	blank2r.bmp	0	1	+	0	1	blank2r.bmp	500	1	DHJF	500	1	blank2r.bmp	880	3	kuss	880	1	!	1232	1	!	1308	0	0	0	0	0	0
2024-06-19	14:17:07	14:26:46	578627	6.6.1	4_exp_EVA_AWA_CON	88	A	B	Rpleas_acq	Oppo	Rpleas	2pleas	acq_US_pleas_nomask	acq45_nomask	4	20	400	0	300	300	0	0	521	50	1	0	träumen	anregung	kuss	gesittet	vergnügt	gütig	töten	ausrottung	krise	geizig	verbissen	gierig	besonnen	sonnig	genießen	engagiert	vertrauen	kreativ	bange	sterben	gemein	engstirnig	versagen	krank	1	blank2r.bmp	0	1	+	0	1	blank2r.bmp	500	1	DHJF	500	1	blank2r.bmp	880	2	anregung	880	1	!	1232	1	!	-1	0	0	0	0	0	0
2024-06-19	14:17:07	14:26:49	580931	6.6.1	4_exp_EVA_AWA_CON	88	A	B	Rpleas_acq	Oppo	Rpleas	2pleas	acq_US_unple_nomask	acq45_nomask	4	21	400	0	300	300	0	0	523	46	1	0	träumen	anregung	kuss	gesittet	vergnügt	gütig	töten	ausrottung	krise	geizig	verbissen	gierig	besonnen	sonnig	genießen	engagiert	vertrauen	kreativ	bange	sterben	gemein	engstirnig	versagen	krank	1	blank2r.bmp	0	1	+	0	1	blank2r.bmp	500	1	CPLW	500	1	blank2r.bmp	880	1	töten	880	1	!	1232	1	!	-1	0	0	0	0	0	0
2024-06-19	14:17:07	14:26:51	583020	6.6.1	4_exp_EVA_AWA_CON	88	A	B	Rpleas_acq	Oppo	Rpleas	2pleas	acq_US_unple_nomask	acq45_nomask	4	22	400	0	300	300	0	0	310	46	1	0	träumen	anregung	kuss	gesittet	vergnügt	gütig	töten	ausrottung	krise	geizig	verbissen	gierig	besonnen	sonnig	genießen	engagiert	vertrauen	kreativ	bange	sterben	gemein	engstirnig	versagen	krank	1	blank2r.bmp	0	1	+	0	1	blank2r.bmp	500	1	CPLW	500	1	blank2r.bmp	880	4	geizig	880	1	!	-1	1	!	-1	0	0	0	0	0	0
2024-06-19	14:17:07	14:26:53	585181	6.6.1	4_exp_EVA_AWA_CON	88	A	B	Rpleas_acq	Oppo	Rpleas	2pleas	acq_US_unple_nomask	acq45_nomask	4	23	400	1	300	300	0	0	378	46	1	0	träumen	anregung	kuss	gesittet	vergnügt	gütig	töten	ausrottung	krise	geizig	verbissen	gierig	besonnen	sonnig	genießen	engagiert	vertrauen	kreativ	bange	sterben	gemein	engstirnig	versagen	krank	1	blank2r.bmp	0	1	+	0	1	blank2r.bmp	500	1	CPLW	500	1	blank2r.bmp	880	6	gierig	880	1	!	1232	1	!	1280	0	0	0	0	0	0
2024-06-19	14:17:07	14:26:55	587452	6.6.1	4_exp_EVA_AWA_CON	88	A	B	Rpleas_acq	Oppo	Rpleas	2pleas	acq_US_unple_nomask	acq45_nomask	4	24	400	0	300	300	0	0	489	46	1	0	träumen	anregung	kuss	gesittet	vergnügt	gütig	töten	ausrottung	krise	geizig	verbissen	gierig	besonnen	sonnig	genießen	engagiert	vertrauen	kreativ	bange	sterben	gemein	engstirnig	versagen	krank	1	blank2r.bmp	0	1	+	0	1	blank2r.bmp	500	1	CPLW	500	1	blank2r.bmp	880	5	verbissen	880	1	!	1232	1	!	-1	0	0	0	0	0	0
2024-06-19	14:17:07	14:26:57	589524	6.6.1	4_exp_EVA_AWA_CON	88	A	B	Rpleas_acq	Oppo	Rpleas	2pleas	acq_US_unple_nomask	acq45_nomask	4	25	400	0	300	300	0	0	290	50	0	0	träumen	anregung	kuss	gesittet	vergnügt	gütig	töten	ausrottung	krise	geizig	verbissen	gierig	besonnen	sonnig	genießen	engagiert	vertrauen	kreativ	bange	sterben	gemein	engstirnig	versagen	krank	1	blank2r.bmp	0	1	+	0	1	blank2r.bmp	500	1	CPLW	500	1	blank2r.bmp	880	3	krise	880	1	!	-1	1	!	-1	0	0	0	0	0	0
2024-06-19	14:17:07	14:27:00	591773	6.6.1	4_exp_EVA_AWA_CON	88	A	B	Rpleas_acq	Oppo	Rpleas	2pleas	acq_US_unple_nomask	acq45_nomask	4	26	400	1	300	300	0	0	466	46	1	0	träumen	anregung	kuss	gesittet	vergnügt	gütig	töten	ausrottung	krise	geizig	verbissen	gierig	besonnen	sonnig	genießen	engagiert	vertrauen	kreativ	bange	sterben	gemein	engstirnig	versagen	krank	1	blank2r.bmp	0	1	+	0	1	blank2r.bmp	500	1	CPLW	500	1	blank2r.bmp	880	1	töten	880	1	!	1232	1	!	1368	0	0	0	0	0	0
2024-06-19	14:17:07	14:27:02	594036	6.6.1	4_exp_EVA_AWA_CON	88	A	B	Rpleas_acq	Oppo	Rpleas	2pleas	acq_US_pleas_nomask	acq45_nomask	4	27	400	0	300	300	0	0	489	50	1	0	träumen	anregung	kuss	gesittet	vergnügt	gütig	töten	ausrottung	krise	geizig	verbissen	gierig	besonnen	sonnig	genießen	engagiert	vertrauen	kreativ	bange	sterben	gemein	engstirnig	versagen	krank	1	blank2r.bmp	0	1	+	0	1	blank2r.bmp	500	1	DHJF	500	1	blank2r.bmp	880	1	träumen	880	1	!	1232	1	!	-1	0	0	0	0	0	0
2024-06-19	14:17:07	14:27:05	597627	6.6.1	4_exp_EVA_AWA_CON	88	A	B	Rpleas_acq	Oppo	Rpleas	2pleas	acq_US_pleas_nomask	acq45_nomask	4	28	400	0	300	300	0	0	1810	50	1	0	träumen	anregung	kuss	gesittet	vergnügt	gütig	töten	ausrottung	krise	geizig	verbissen	gierig	besonnen	sonnig	genießen	engagiert	vertrauen	kreativ	bange	sterben	gemein	engstirnig	versagen	krank	1	blank2r.bmp	0	1	+	0	1	blank2r.bmp	500	1	DHJF	500	1	blank2r.bmp	880	4	gesittet	880	1	!	1232	1	!	-1	0	0	0	0	0	0
2024-06-19	14:17:07	14:27:07	599731	6.6.1	4_exp_EVA_AWA_CON	88	A	B	Rpleas_acq	Oppo	Rpleas	2pleas	acq_US_pleas_nomask	acq45_nomask	4	29	400	0	300	300	0	0	321	46	0	0	träumen	anregung	kuss	gesittet	vergnügt	gütig	töten	ausrottung	krise	geizig	verbissen	gierig	besonnen	sonnig	genießen	engagiert	vertrauen	kreativ	bange	sterben	gemein	engstirnig	versagen	krank	1	blank2r.bmp	0	1	+	0	1	blank2r.bmp	500	1	DHJF	500	1	blank2r.bmp	880	3	kuss	880	1	!	-1	1	!	-1	0	0	0	0	0	0
2024-06-19	14:17:07	14:27:10	602099	6.6.1	4_exp_EVA_AWA_CON	88	A	B	Rpleas_acq	Oppo	Rpleas	2pleas	acq_US_pleas_nomask	acq45_nomask	4	30	400	0	300	300	0	0	588	50	1	0	träumen	anregung	kuss	gesittet	vergnügt	gütig	töten	ausrottung	krise	geizig	verbissen	gierig	besonnen	sonnig	genießen	engagiert	vertrauen	kreativ	bange	sterben	gemein	engstirnig	versagen	krank	1	blank2r.bmp	0	1	+	0	1	blank2r.bmp	500	1	DHJF	500	1	blank2r.bmp	880	2	anregung	880	1	!	1232	1	!	-1	0	0	0	0	0	0
2024-06-19	14:17:07	14:27:12	604317	6.6.1	4_exp_EVA_AWA_CON	88	A	B	Rpleas_acq	Oppo	Rpleas	2pleas	acq_US_pleas_nomask	acq45_nomask	4	31	400	1	300	300	0	0	442	50	1	0	träumen	anregung	kuss	gesittet	vergnügt	gütig	töten	ausrottung	krise	geizig	verbissen	gierig	besonnen	sonnig	genießen	engagiert	vertrauen	kreativ	bange	sterben	gemein	engstirnig	versagen	krank	1	blank2r.bmp	0	1	+	0	1	blank2r.bmp	500	1	DHJF	500	1	blank2r.bmp	880	5	vergnügt	880	1	!	1232	1	!	1344	0	0	0	0	0	0
2024-06-19	14:17:07	14:27:14	606683	6.6.1	4_exp_EVA_AWA_CON	88	A	B	Rpleas_acq	Oppo	Rpleas	2pleas	acq_US_unple_nomask	acq45_nomask	4	32	400	0	300	300	0	0	589	46	1	0	träumen	anregung	kuss	gesittet	vergnügt	gütig	töten	ausrottung	krise	geizig	verbissen	gierig	besonnen	sonnig	genießen	engagiert	vertrauen	kreativ	bange	sterben	gemein	engstirnig	versagen	krank	1	blank2r.bmp	0	1	+	0	1	blank2r.bmp	500	1	CPLW	500	1	blank2r.bmp	880	2	ausrottung	880	1	!	1233	1	!	-1	0	0	0	0	0	0
2024-06-19	14:17:07	14:27:17	608929	6.6.1	4_exp_EVA_AWA_CON	88	A	B	Rpleas_acq	Oppo	Rpleas	2pleas	acq_US_pleas_nomask	acq45_nomask	4	33	400	0	300	300	0	0	476	50	1	0	träumen	anregung	kuss	gesittet	vergnügt	gütig	töten	ausrottung	krise	geizig	verbissen	gierig	besonnen	sonnig	genießen	engagiert	vertrauen	kreativ	bange	sterben	gemein	engstirnig	versagen	krank	1	blank2r.bmp	0	1	+	0	1	blank2r.bmp	500	1	DHJF	500	1	blank2r.bmp	880	1	träumen	880	1	!	1233	1	!	-1	0	0	0	0	0	0
2024-06-19	14:17:07	14:27:19	611379	6.6.1	4_exp_EVA_AWA_CON	88	A	B	Rpleas_acq	Oppo	Rpleas	2pleas	acq_US_pleas_nomask	acq45_nomask	4	34	400	0	300	300	0	0	672	50	1	0	träumen	anregung	kuss	gesittet	vergnügt	gütig	töten	ausrottung	krise	geizig	verbissen	gierig	besonnen	sonnig	genießen	engagiert	vertrauen	kreativ	bange	sterben	gemein	engstirnig	versagen	krank	1	blank2r.bmp	0	1	+	0	1	blank2r.bmp	500	1	DHJF	500	1	blank2r.bmp	880	6	gütig	880	1	!	1232	1	!	-1	0	0	0	0	0	0
2024-06-19	14:17:07	14:27:21	613707	6.6.1	4_exp_EVA_AWA_CON	88	A	B	Rpleas_acq	Oppo	Rpleas	2pleas	acq_US_unple_nomask	acq45_nomask	4	35	400	0	300	300	0	0	548	46	1	0	träumen	anregung	kuss	gesittet	vergnügt	gütig	töten	ausrottung	krise	geizig	verbissen	gierig	besonnen	sonnig	genießen	engagiert	vertrauen	kreativ	bange	sterben	gemein	engstirnig	versagen	krank	1	blank2r.bmp	0	1	+	0	1	blank2r.bmp	500	1	CPLW	500	1	blank2r.bmp	880	4	geizig	880	1	!	1232	1	!	-1	0	0	0	0	0	0
2024-06-19	14:17:07	14:27:23	615731	6.6.1	4_exp_EVA_AWA_CON	88	A	B	Rpleas_acq	Oppo	Rpleas	2pleas	acq_US_unple_nomask	acq45_nomask	4	36	400	0	300	300	0	0	251	50	0	0	träumen	anregung	kuss	gesittet	vergnügt	gütig	töten	ausrottung	krise	geizig	verbissen	gierig	besonnen	sonnig	genießen	engagiert	vertrauen	kreativ	bange	sterben	gemein	engstirnig	versagen	krank	1	blank2r.bmp	0	1	+	0	1	blank2r.bmp	500	1	CPLW	500	1	blank2r.bmp	880	6	gierig	880	1	!	-1	1	!	-1	0	0	0	0	0	0
2024-06-19	14:17:07	14:27:35	627355	6.6.1	4_exp_EVA_AWA_CON	88	A	B	Rpleas_acq	Oppo	Rpleas	2pleas	acq_US_unple_nomask	acq45_nomask	5	1	400	0	300	300	0	0	498	46	1	0	träumen	anregung	kuss	gesittet	vergnügt	gütig	töten	ausrottung	krise	geizig	verbissen	gierig	besonnen	sonnig	genießen	engagiert	vertrauen	kreativ	bange	sterben	gemein	engstirnig	versagen	krank	1	blank2r.bmp	0	1	+	0	1	blank2r.bmp	500	1	CPLW	500	1	blank2r.bmp	880	6	gierig	880	1	!	1232	1	!	-1	0	0	0	0	0	0
2024-06-19	14:17:07	14:27:37	629467	6.6.1	4_exp_EVA_AWA_CON	88	A	B	Rpleas_acq	Oppo	Rpleas	2pleas	acq_US_pleas_nomask	acq45_nomask	5	2	400	1	300	300	0	0	338	46	0	0	träumen	anregung	kuss	gesittet	vergnügt	gütig	töten	ausrottung	krise	geizig	verbissen	gierig	besonnen	sonnig	genießen	engagiert	vertrauen	kreativ	bange	sterben	gemein	engstirnig	versagen	krank	1	blank2r.bmp	0	1	+	0	1	blank2r.bmp	500	1	DHJF	500	1	blank2r.bmp	880	2	anregung	880	1	!	1232	1	!	1238	0	0	0	0	0	0
2024-06-19	14:17:07	14:27:39	631709	6.6.1	4_exp_EVA_AWA_CON	88	A	B	Rpleas_acq	Oppo	Rpleas	2pleas	acq_US_pleas_nomask	acq45_nomask	5	3	400	1	300	300	0	0	467	50	1	0	träumen	anregung	kuss	gesittet	vergnügt	gütig	töten	ausrottung	krise	geizig	verbissen	gierig	besonnen	sonnig	genießen	engagiert	vertrauen	kreativ	bange	sterben	gemein	engstirnig	versagen	krank	1	blank2r.bmp	0	1	+	0	1	blank2r.bmp	500	1	DHJF	500	1	blank2r.bmp	880	6	gütig	880	1	!	1233	1	!	1369	0	0	0	0	0	0
2024-06-19	14:17:07	14:27:42	634035	6.6.1	4_exp_EVA_AWA_CON	88	A	B	Rpleas_acq	Oppo	Rpleas	2pleas	acq_US_unple_nomask	acq45_nomask	5	4	400	0	300	300	0	0	553	50	0	0	träumen	anregung	kuss	gesittet	vergnügt	gütig	töten	ausrottung	krise	geizig	verbissen	gierig	besonnen	sonnig	genießen	engagiert	vertrauen	kreativ	bange	sterben	gemein	engstirnig	versagen	krank	1	blank2r.bmp	0	1	+	0	1	blank2r.bmp	500	1	CPLW	500	1	blank2r.bmp	880	4	geizig	880	1	!	1232	1	!	-1	0	0	0	0	0	0
2024-06-19	14:17:07	14:27:44	636253	6.6.1	4_exp_EVA_AWA_CON	88	A	B	Rpleas_acq	Oppo	Rpleas	2pleas	acq_US_unple_nomask	acq45_nomask	5	5	400	1	300	300	0	0	438	46	1	0	träumen	anregung	kuss	gesittet	vergnügt	gütig	töten	ausrottung	krise	geizig	verbissen	gierig	besonnen	sonnig	genießen	engagiert	vertrauen	kreativ	bange	sterben	gemein	engstirnig	versagen	krank	1	blank2r.bmp	0	1	+	0	1	blank2r.bmp	500	1	CPLW	500	1	blank2r.bmp	880	3	krise	880	1	!	1232	1	!	1340	0	0	0	0	0	0
2024-06-19	14:17:07	14:27:46	638635	6.6.1	4_exp_EVA_AWA_CON	88	A	B	Rpleas_acq	Oppo	Rpleas	2pleas	acq_US_pleas_nomask	acq45_nomask	5	6	400	0	300	300	0	0	600	50	1	0	träumen	anregung	kuss	gesittet	vergnügt	gütig	töten	ausrottung	krise	geizig	verbissen	gierig	besonnen	sonnig	genießen	engagiert	vertrauen	kreativ	bange	sterben	gemein	engstirnig	versagen	krank	1	blank2r.bmp	0	1	+	0	1	blank2r.bmp	500	1	DHJF	500	1	blank2r.bmp	880	3	kuss	880	1	!	1232	1	!	-1	0	0	0	0	0	0
2024-06-19	14:17:07	14:27:49	640797	6.6.1	4_exp_EVA_AWA_CON	88	A	B	Rpleas_acq	Oppo	Rpleas	2pleas	acq_US_pleas_nomask	acq45_nomask	5	7	400	1	300	300	0	0	379	50	1	0	träumen	anregung	kuss	gesittet	vergnügt	gütig	töten	ausrottung	krise	geizig	verbissen	gierig	besonnen	sonnig	genießen	engagiert	vertrauen	kreativ	bange	sterben	gemein	engstirnig	versagen	krank	1	blank2r.bmp	0	1	+	0	1	blank2r.bmp	500	1	DHJF	500	1	blank2r.bmp	880	1	träumen	880	1	!	1232	1	!	1280	0	0	0	0	0	0
2024-06-19	14:17:07	14:27:51	643037	6.6.1	4_exp_EVA_AWA_CON	88	A	B	Rpleas_acq	Oppo	Rpleas	2pleas	acq_US_unple_nomask	acq45_nomask	5	8	400	1	300	300	0	0	458	46	1	0	träumen	anregung	kuss	gesittet	vergnügt	gütig	töten	ausrottung	krise	geizig	verbissen	gierig	besonnen	sonnig	genießen	engagiert	vertrauen	kreativ	bange	sterben	gemein	engstirnig	versagen	krank	1	blank2r.bmp	0	1	+	0	1	blank2r.bmp	500	1	CPLW	500	1	blank2r.bmp	880	1	töten	880	1	!	1232	1	!	1359	0	0	0	0	0	0
2024-06-19	14:17:07	14:27:53	645347	6.6.1	4_exp_EVA_AWA_CON	88	A	B	Rpleas_acq	Oppo	Rpleas	2pleas	acq_US_pleas_nomask	acq45_nomask	5	9	400	0	300	300	0	0	538	50	1	0	träumen	anregung	kuss	gesittet	vergnügt	gütig	töten	ausrottung	krise	geizig	verbissen	gierig	besonnen	sonnig	genießen	engagiert	vertrauen	kreativ	bange	sterben	gemein	engstirnig	versagen	krank	1	blank2r.bmp	0	1	+	0	1	blank2r.bmp	500	1	DHJF	500	1	blank2r.bmp	880	4	gesittet	880	1	!	1232	1	!	-1	0	0	0	0	0	0
2024-06-19	14:17:07	14:27:55	647589	6.6.1	4_exp_EVA_AWA_CON	88	A	B	Rpleas_acq	Oppo	Rpleas	2pleas	acq_US_pleas_nomask	acq45_nomask	5	10	400	1	300	300	0	0	467	46	0	0	träumen	anregung	kuss	gesittet	vergnügt	gütig	töten	ausrottung	krise	geizig	verbissen	gierig	besonnen	sonnig	genießen	engagiert	vertrauen	kreativ	bange	sterben	gemein	engstirnig	versagen	krank	1	blank2r.bmp	0	1	+	0	1	blank2r.bmp	500	1	DHJF	500	1	blank2r.bmp	880	5	vergnügt	880	1	!	1233	1	!	1368	0	0	0	0	0	0
2024-06-19	14:17:07	14:27:58	649797	6.6.1	4_exp_EVA_AWA_CON	88	A	B	Rpleas_acq	Oppo	Rpleas	2pleas	acq_US_pleas_nomask	acq45_nomask	5	11	400	1	300	300	0	0	433	46	0	0	träumen	anregung	kuss	gesittet	vergnügt	gütig	töten	ausrottung	krise	geizig	verbissen	gierig	besonnen	sonnig	genießen	engagiert	vertrauen	kreativ	bange	sterben	gemein	engstirnig	versagen	krank	1	blank2r.bmp	0	1	+	0	1	blank2r.bmp	500	1	DHJF	500	1	blank2r.bmp	880	2	anregung	880	1	!	1232	1	!	1335	0	0	0	0	0	0
2024-06-19	14:17:07	14:28:02	653851	6.6.1	4_exp_EVA_AWA_CON	88	A	B	Rpleas_acq	Oppo	Rpleas	2pleas	acq_US_unple_nomask	acq45_nomask	5	12	400	0	300	300	0	0	2278	50	0	0	träumen	anregung	kuss	gesittet	vergnügt	gütig	töten	ausrottung	krise	geizig	verbissen	gierig	besonnen	sonnig	genießen	engagiert	vertrauen	kreativ	bange	sterben	gemein	engstirnig	versagen	krank	1	blank2r.bmp	0	1	+	0	1	blank2r.bmp	500	1	CPLW	500	1	blank2r.bmp	880	2	ausrottung	880	1	!	1233	1	!	-1	0	0	0	0	0	0
2024-06-19	14:17:07	14:28:04	655956	6.6.1	4_exp_EVA_AWA_CON	88	A	B	Rpleas_acq	Oppo	Rpleas	2pleas	acq_US_unple_nomask	acq45_nomask	5	13	400	0	300	300	0	0	329	46	1	0	träumen	anregung	kuss	gesittet	vergnügt	gütig	töten	ausrottung	krise	geizig	verbissen	gierig	besonnen	sonnig	genießen	engagiert	vertrauen	kreativ	bange	sterben	gemein	engstirnig	versagen	krank	1	blank2r.bmp	0	1	+	0	1	blank2r.bmp	500	1	CPLW	500	1	blank2r.bmp	880	5	verbissen	880	1	!	-1	1	!	-1	0	0	0	0	0	0
2024-06-19	14:17:07	14:28:06	658339	6.6.1	4_exp_EVA_AWA_CON	88	A	B	Rpleas_acq	Oppo	Rpleas	2pleas	acq_US_unple_nomask	acq45_nomask	5	14	400	0	300	300	0	0	602	46	1	0	träumen	anregung	kuss	gesittet	vergnügt	gütig	töten	ausrottung	krise	geizig	verbissen	gierig	besonnen	sonnig	genießen	engagiert	vertrauen	kreativ	bange	sterben	gemein	engstirnig	versagen	krank	1	blank2r.bmp	0	1	+	0	1	blank2r.bmp	500	1	CPLW	500	1	blank2r.bmp	880	3	krise	880	1	!	1232	1	!	-1	0	0	0	0	0	0
2024-06-19	14:17:07	14:28:08	660565	6.6.1	4_exp_EVA_AWA_CON	88	A	B	Rpleas_acq	Oppo	Rpleas	2pleas	acq_US_unple_nomask	acq45_nomask	5	15	400	1	300	300	0	0	444	46	1	0	träumen	anregung	kuss	gesittet	vergnügt	gütig	töten	ausrottung	krise	geizig	verbissen	gierig	besonnen	sonnig	genießen	engagiert	vertrauen	kreativ	bange	sterben	gemein	engstirnig	versagen	krank	1	blank2r.bmp	0	1	+	0	1	blank2r.bmp	500	1	CPLW	500	1	blank2r.bmp	880	2	ausrottung	880	1	!	1233	1	!	1346	0	0	0	0	0	0
2024-06-19	14:17:07	14:28:10	662733	6.6.1	4_exp_EVA_AWA_CON	88	A	B	Rpleas_acq	Oppo	Rpleas	2pleas	acq_US_unple_nomask	acq45_nomask	5	16	400	1	300	300	0	0	391	46	1	0	träumen	anregung	kuss	gesittet	vergnügt	gütig	töten	ausrottung	krise	geizig	verbissen	gierig	besonnen	sonnig	genießen	engagiert	vertrauen	kreativ	bange	sterben	gemein	engstirnig	versagen	krank	1	blank2r.bmp	0	1	+	0	1	blank2r.bmp	500	1	CPLW	500	1	blank2r.bmp	880	1	töten	880	1	!	1232	1	!	1292	0	0	0	0	0	0
2024-06-19	14:17:07	14:28:13	665052	6.6.1	4_exp_EVA_AWA_CON	88	A	B	Rpleas_acq	Oppo	Rpleas	2pleas	acq_US_pleas_nomask	acq45_nomask	5	17	400	0	300	300	0	0	540	50	1	0	träumen	anregung	kuss	gesittet	vergnügt	gütig	töten	ausrottung	krise	geizig	verbissen	gierig	besonnen	sonnig	genießen	engagiert	vertrauen	kreativ	bange	sterben	gemein	engstirnig	versagen	krank	1	blank2r.bmp	0	1	+	0	1	blank2r.bmp	500	1	DHJF	500	1	blank2r.bmp	880	3	kuss	880	1	!	1232	1	!	-1	0	0	0	0	0	0
2024-06-19	14:17:07	14:28:15	667229	6.6.1	4_exp_EVA_AWA_CON	88	A	B	Rpleas_acq	Oppo	Rpleas	2pleas	acq_US_pleas_nomask	acq45_nomask	5	18	400	1	300	300	0	0	394	46	0	0	träumen	anregung	kuss	gesittet	vergnügt	gütig	töten	ausrottung	krise	geizig	verbissen	gierig	besonnen	sonnig	genießen	engagiert	vertrauen	kreativ	bange	sterben	gemein	engstirnig	versagen	krank	1	blank2r.bmp	0	1	+	0	1	blank2r.bmp	500	1	DHJF	500	1	blank2r.bmp	880	4	gesittet	880	1	!	1232	1	!	1296	0	0	0	0	0	0
2024-06-19	14:17:07	14:28:17	669507	6.6.1	4_exp_EVA_AWA_CON	88	A	B	Rpleas_acq	Oppo	Rpleas	2pleas	acq_US_pleas_nomask	acq45_nomask	5	19	400	0	300	300	0	0	503	50	1	0	träumen	anregung	kuss	gesittet	vergnügt	gütig	töten	ausrottung	krise	geizig	verbissen	gierig	besonnen	sonnig	genießen	engagiert	vertrauen	kreativ	bange	sterben	gemein	engstirnig	versagen	krank	1	blank2r.bmp	0	1	+	0	1	blank2r.bmp	500	1	DHJF	500	1	blank2r.bmp	880	5	vergnügt	880	1	!	1232	1	!	-1	0	0	0	0	0	0
2024-06-19	14:17:07	14:28:19	671741	6.6.1	4_exp_EVA_AWA_CON	88	A	B	Rpleas_acq	Oppo	Rpleas	2pleas	acq_US_pleas_nomask	acq45_nomask	5	20	400	1	300	300	0	0	453	50	1	0	träumen	anregung	kuss	gesittet	vergnügt	gütig	töten	ausrottung	krise	geizig	verbissen	gierig	besonnen	sonnig	genießen	engagiert	vertrauen	kreativ	bange	sterben	gemein	engstirnig	versagen	krank	1	blank2r.bmp	0	1	+	0	1	blank2r.bmp	500	1	DHJF	500	1	blank2r.bmp	880	1	träumen	880	1	!	1233	1	!	1355	0	0	0	0	0	0
2024-06-19	14:17:07	14:28:22	674028	6.6.1	4_exp_EVA_AWA_CON	88	A	B	Rpleas_acq	Oppo	Rpleas	2pleas	acq_US_unple_nomask	acq45_nomask	5	21	400	0	300	300	0	0	510	46	1	0	träumen	anregung	kuss	gesittet	vergnügt	gütig	töten	ausrottung	krise	geizig	verbissen	gierig	besonnen	sonnig	genießen	engagiert	vertrauen	kreativ	bange	sterben	gemein	engstirnig	versagen	krank	1	blank2r.bmp	0	1	+	0	1	blank2r.bmp	500	1	CPLW	500	1	blank2r.bmp	880	6	gierig	880	1	!	1232	1	!	-1	0	0	0	0	0	0
2024-06-19	14:17:07	14:28:24	676300	6.6.1	4_exp_EVA_AWA_CON	88	A	B	Rpleas_acq	Oppo	Rpleas	2pleas	acq_US_pleas_nomask	acq45_nomask	5	22	400	0	300	300	0	0	490	50	1	0	träumen	anregung	kuss	gesittet	vergnügt	gütig	töten	ausrottung	krise	geizig	verbissen	gierig	besonnen	sonnig	genießen	engagiert	vertrauen	kreativ	bange	sterben	gemein	engstirnig	versagen	krank	1	blank2r.bmp	0	1	+	0	1	blank2r.bmp	500	1	DHJF	500	1	blank2r.bmp	880	6	gütig	880	1	!	1232	1	!	-1	0	0	0	0	0	0
2024-06-19	14:17:07	14:28:26	678595	6.6.1	4_exp_EVA_AWA_CON	88	A	B	Rpleas_acq	Oppo	Rpleas	2pleas	acq_US_unple_nomask	acq45_nomask	5	23	400	0	300	300	0	0	515	46	1	0	träumen	anregung	kuss	gesittet	vergnügt	gütig	töten	ausrottung	krise	geizig	verbissen	gierig	besonnen	sonnig	genießen	engagiert	vertrauen	kreativ	bange	sterben	gemein	engstirnig	versagen	krank	1	blank2r.bmp	0	1	+	0	1	blank2r.bmp	500	1	CPLW	500	1	blank2r.bmp	880	5	verbissen	880	1	!	1232	1	!	-1	0	0	0	0	0	0
2024-06-19	14:17:07	14:28:28	680749	6.6.1	4_exp_EVA_AWA_CON	88	A	B	Rpleas_acq	Oppo	Rpleas	2pleas	acq_US_unple_nomask	acq45_nomask	5	24	400	1	300	300	0	0	375	46	1	0	träumen	anregung	kuss	gesittet	vergnügt	gütig	töten	ausrottung	krise	geizig	verbissen	gierig	besonnen	sonnig	genießen	engagiert	vertrauen	kreativ	bange	sterben	gemein	engstirnig	versagen	krank	1	blank2r.bmp	0	1	+	0	1	blank2r.bmp	500	1	CPLW	500	1	blank2r.bmp	880	4	geizig	880	1	!	1233	1	!	1277	0	0	0	0	0	0
2024-06-19	14:17:07	14:28:31	682843	6.6.1	4_exp_EVA_AWA_CON	88	A	B	Rpleas_acq	Oppo	Rpleas	2pleas	acq_US_pleas_nomask	acq45_nomask	5	25	400	0	300	300	0	0	320	50	1	0	träumen	anregung	kuss	gesittet	vergnügt	gütig	töten	ausrottung	krise	geizig	verbissen	gierig	besonnen	sonnig	genießen	engagiert	vertrauen	kreativ	bange	sterben	gemein	engstirnig	versagen	krank	1	blank2r.bmp	0	1	+	0	1	blank2r.bmp	500	1	DHJF	500	1	blank2r.bmp	880	6	gütig	880	1	!	-1	1	!	-1	0	0	0	0	0	0
2024-06-19	14:17:07	14:28:33	685187	6.6.1	4_exp_EVA_AWA_CON	88	A	B	Rpleas_acq	Oppo	Rpleas	2pleas	acq_US_unple_nomask	acq45_nomask	5	26	400	0	300	300	0	0	563	46	1	0	träumen	anregung	kuss	gesittet	vergnügt	gütig	töten	ausrottung	krise	geizig	verbissen	gierig	besonnen	sonnig	genießen	engagiert	vertrauen	kreativ	bange	sterben	gemein	engstirnig	versagen	krank	1	blank2r.bmp	0	1	+	0	1	blank2r.bmp	500	1	CPLW	500	1	blank2r.bmp	880	2	ausrottung	880	1	!	1232	1	!	-1	0	0	0	0	0	0
2024-06-19	14:17:07	14:28:35	687579	6.6.1	4_exp_EVA_AWA_CON	88	A	B	Rpleas_acq	Oppo	Rpleas	2pleas	acq_US_unple_nomask	acq45_nomask	5	27	400	0	300	300	0	0	613	46	1	0	träumen	anregung	kuss	gesittet	vergnügt	gütig	töten	ausrottung	krise	geizig	verbissen	gierig	besonnen	sonnig	genießen	engagiert	vertrauen	kreativ	bange	sterben	gemein	engstirnig	versagen	krank	1	blank2r.bmp	0	1	+	0	1	blank2r.bmp	500	1	CPLW	500	1	blank2r.bmp	880	6	gierig	880	1	!	1232	1	!	-1	0	0	0	0	0	0
2024-06-19	14:17:07	14:28:38	689797	6.6.1	4_exp_EVA_AWA_CON	88	A	B	Rpleas_acq	Oppo	Rpleas	2pleas	acq_US_pleas_nomask	acq45_nomask	5	28	400	1	300	300	0	0	438	46	0	0	träumen	anregung	kuss	gesittet	vergnügt	gütig	töten	ausrottung	krise	geizig	verbissen	gierig	besonnen	sonnig	genießen	engagiert	vertrauen	kreativ	bange	sterben	gemein	engstirnig	versagen	krank	1	blank2r.bmp	0	1	+	0	1	blank2r.bmp	500	1	DHJF	500	1	blank2r.bmp	880	3	kuss	880	1	!	1232	1	!	1339	0	0	0	0	0	0
2024-06-19	14:17:07	14:28:40	692267	6.6.1	4_exp_EVA_AWA_CON	88	A	B	Rpleas_acq	Oppo	Rpleas	2pleas	acq_US_unple_nomask	acq45_nomask	5	29	400	0	300	300	0	0	688	46	1	0	träumen	anregung	kuss	gesittet	vergnügt	gütig	töten	ausrottung	krise	geizig	verbissen	gierig	besonnen	sonnig	genießen	engagiert	vertrauen	kreativ	bange	sterben	gemein	engstirnig	versagen	krank	1	blank2r.bmp	0	1	+	0	1	blank2r.bmp	500	1	CPLW	500	1	blank2r.bmp	880	3	krise	880	1	!	1233	1	!	-1	0	0	0	0	0	0
2024-06-19	14:17:07	14:28:42	694429	6.6.1	4_exp_EVA_AWA_CON	88	A	B	Rpleas_acq	Oppo	Rpleas	2pleas	acq_US_unple_nomask	acq45_nomask	5	30	400	1	300	300	0	0	387	50	0	0	träumen	anregung	kuss	gesittet	vergnügt	gütig	töten	ausrottung	krise	geizig	verbissen	gierig	besonnen	sonnig	genießen	engagiert	vertrauen	kreativ	bange	sterben	gemein	engstirnig	versagen	krank	1	blank2r.bmp	0	1	+	0	1	blank2r.bmp	500	1	CPLW	500	1	blank2r.bmp	880	1	töten	880	1	!	1232	1	!	1288	0	0	0	0	0	0
2024-06-19	14:17:07	14:28:45	696811	6.6.1	4_exp_EVA_AWA_CON	88	A	B	Rpleas_acq	Oppo	Rpleas	2pleas	acq_US_unple_nomask	acq45_nomask	5	31	400	0	300	300	0	0	609	46	1	0	träumen	anregung	kuss	gesittet	vergnügt	gütig	töten	ausrottung	krise	geizig	verbissen	gierig	besonnen	sonnig	genießen	engagiert	vertrauen	kreativ	bange	sterben	gemein	engstirnig	versagen	krank	1	blank2r.bmp	0	1	+	0	1	blank2r.bmp	500	1	CPLW	500	1	blank2r.bmp	880	4	geizig	880	1	!	1232	1	!	-1	0	0	0	0	0	0
2024-06-19	14:17:07	14:28:47	699211	6.6.1	4_exp_EVA_AWA_CON	88	A	B	Rpleas_acq	Oppo	Rpleas	2pleas	acq_US_unple_nomask	acq45_nomask	5	32	400	0	300	300	0	0	618	46	1	0	träumen	anregung	kuss	gesittet	vergnügt	gütig	töten	ausrottung	krise	geizig	verbissen	gierig	besonnen	sonnig	genießen	engagiert	vertrauen	kreativ	bange	sterben	gemein	engstirnig	versagen	krank	1	blank2r.bmp	0	1	+	0	1	blank2r.bmp	500	1	CPLW	500	1	blank2r.bmp	880	5	verbissen	880	1	!	1232	1	!	-1	0	0	0	0	0	0
2024-06-19	14:17:07	14:28:49	701523	6.6.1	4_exp_EVA_AWA_CON	88	A	B	Rpleas_acq	Oppo	Rpleas	2pleas	acq_US_pleas_nomask	acq45_nomask	5	33	400	0	300	300	0	0	538	50	1	0	träumen	anregung	kuss	gesittet	vergnügt	gütig	töten	ausrottung	krise	geizig	verbissen	gierig	besonnen	sonnig	genießen	engagiert	vertrauen	kreativ	bange	sterben	gemein	engstirnig	versagen	krank	1	blank2r.bmp	0	1	+	0	1	blank2r.bmp	500	1	DHJF	500	1	blank2r.bmp	880	5	vergnügt	880	1	!	1232	1	!	-1	0	0	0	0	0	0
2024-06-19	14:17:07	14:28:51	703757	6.6.1	4_exp_EVA_AWA_CON	88	A	B	Rpleas_acq	Oppo	Rpleas	2pleas	acq_US_pleas_nomask	acq45_nomask	5	34	400	1	300	300	0	0	459	46	0	0	träumen	anregung	kuss	gesittet	vergnügt	gütig	töten	ausrottung	krise	geizig	verbissen	gierig	besonnen	sonnig	genießen	engagiert	vertrauen	kreativ	bange	sterben	gemein	engstirnig	versagen	krank	1	blank2r.bmp	0	1	+	0	1	blank2r.bmp	500	1	DHJF	500	1	blank2r.bmp	880	1	träumen	880	1	!	1233	1	!	1360	0	0	0	0	0	0
2024-06-19	14:17:07	14:28:55	707083	6.6.1	4_exp_EVA_AWA_CON	88	A	B	Rpleas_acq	Oppo	Rpleas	2pleas	acq_US_pleas_nomask	acq45_nomask	5	35	400	0	300	300	0	0	1545	46	0	0	träumen	anregung	kuss	gesittet	vergnügt	gütig	töten	ausrottung	krise	geizig	verbissen	gierig	besonnen	sonnig	genießen	engagiert	vertrauen	kreativ	bange	sterben	gemein	engstirnig	versagen	krank	1	blank2r.bmp	0	1	+	0	1	blank2r.bmp	500	1	DHJF	500	1	blank2r.bmp	880	2	anregung	880	1	!	1232	1	!	-1	0	0	0	0	0	0
2024-06-19	14:17:07	14:28:59	711019	6.6.1	4_exp_EVA_AWA_CON	88	A	B	Rpleas_acq	Oppo	Rpleas	2pleas	acq_US_pleas_nomask	acq45_nomask	5	36	400	0	300	300	0	0	2159	50	1	0	träumen	anregung	kuss	gesittet	vergnügt	gütig	töten	ausrottung	krise	geizig	verbissen	gierig	besonnen	sonnig	genießen	engagiert	vertrauen	kreativ	bange	sterben	gemein	engstirnig	versagen	krank	1	blank2r.bmp	0	1	+	0	1	blank2r.bmp	500	1	DHJF	500	1	blank2r.bmp	880	4	gesittet	880	1	!	1232	1	!	-1	0	0	0	0	0	0
2024-06-19	14:17:07	14:29:13	725048	6.6.1	4_exp_EVA_AWA_CON	88	A	B	Rpleas_acq	Oppo	Lpleas	2pleas	EvalRating_firsttwo	EvalRating_firsttwo	6	1	0	0	300	300	0	0	5351	line	0	83,59375pct	träumen	anregung	kuss	gesittet	vergnügt	gütig	töten	ausrottung	krise	geizig	verbissen	gierig	besonnen	sonnig	genießen	engagiert	vertrauen	kreativ	bange	sterben	gemein	engstirnig	versagen	krank	1		-8	1	Wie angenehm oder unangenehm finden Sie die  Buchstabenkette WDLH?	-8	1		-8	1		-8	1		-8	1	Unangenehm	-8	1	Angenehm	-8	0	0	0	0	0	0	0	0	0
2024-06-19	14:17:07	14:29:18	729848	6.6.1	4_exp_EVA_AWA_CON	88	A	B	Rpleas_acq	Oppo	Lpleas	2pleas	EvalRating_lastfour	EvalRating_lastfour	7	1	0	0	300	300	0	0	2426	line	0	60,0260416666666856145pct	träumen	anregung	kuss	gesittet	vergnügt	gütig	töten	ausrottung	krise	geizig	verbissen	gierig	besonnen	sonnig	genießen	engagiert	vertrauen	kreativ	bange	sterben	gemein	engstirnig	versagen	krank	1		-8	2	Wie angenehm oder unangenehm finden Sie die  Buchstabenkette DHJF?	-8	1		-8	1		-8	1		-8	1	Unangenehm	-8	1	Angenehm	-8	0	0	0	0	0	0	0	0	0
2024-06-19	14:17:07	14:29:20	732216	6.6.1	4_exp_EVA_AWA_CON	88	A	B	Rpleas_acq	Oppo	Lpleas	2pleas	blank_screen	EvalRating_lastfour	7	3	0	0	300	300	0	0	0	0	0	60,0260416666666856145pct	träumen	anregung	kuss	gesittet	vergnügt	gütig	töten	ausrottung	krise	geizig	verbissen	gierig	besonnen	sonnig	genießen	engagiert	vertrauen	kreativ	bange	sterben	gemein	engstirnig	versagen	krank	1		-8	0	0	0	0	0	0	0	0	0	0	0	0	0	0	0	0	0	0	0	0	0	0	0	0	0	0	0
2024-06-19	14:17:07	14:29:23	735216	6.6.1	4_exp_EVA_AWA_CON	88	A	B	Rpleas_acq	Oppo	Lpleas	2pleas	EvalRating_lastfour	EvalRating_lastfour	7	4	0	0	300	300	0	0	2411	line	0	-80,9895833333333285964pct	träumen	anregung	kuss	gesittet	vergnügt	gütig	töten	ausrottung	krise	geizig	verbissen	gierig	besonnen	sonnig	genießen	engagiert	vertrauen	kreativ	bange	sterben	gemein	engstirnig	versagen	krank	1		-8	1	Wie angenehm oder unangenehm finden Sie die  Buchstabenkette CPLW?	-8	1		-8	1		-8	1		-8	1	Unangenehm	-8	1	Angenehm	-8	0	0	0	0	0	0	0	0	0
2024-06-19	14:17:07	14:29:25	737589	6.6.1	4_exp_EVA_AWA_CON	88	A	B	Rpleas_acq	Oppo	Lpleas	2pleas	blank_screen	EvalRating_lastfour	7	6	0	0	300	300	0	0	0	0	0	-80,9895833333333285964pct	träumen	anregung	kuss	gesittet	vergnügt	gütig	töten	ausrottung	krise	geizig	verbissen	gierig	besonnen	sonnig	genießen	engagiert	vertrauen	kreativ	bange	sterben	gemein	engstirnig	versagen	krank	1		-8	0	0	0	0	0	0	0	0	0	0	0	0	0	0	0	0	0	0	0	0	0	0	0	0	0	0	0
2024-06-19	14:17:07	14:29:28	739920	6.6.1	4_exp_EVA_AWA_CON	88	A	B	Rpleas_acq	Oppo	Lpleas	2pleas	EvalRating_lastfour	EvalRating_lastfour	7	7	0	0	300	300	0	0	1742	line	0	-32,421875pct	träumen	anregung	kuss	gesittet	vergnügt	gütig	töten	ausrottung	krise	geizig	verbissen	gierig	besonnen	sonnig	genießen	engagiert	vertrauen	kreativ	bange	sterben	gemein	engstirnig	versagen	krank	1		-8	3	Wie angenehm oder unangenehm finden Sie die  Buchstabenkette FCJP?	-8	1		-8	1		-8	1		-8	1	Unangenehm	-8	1	Angenehm	-8	0	0	0	0	0	0	0	0	0
2024-06-19	14:17:07	14:29:59	771740	6.6.1	4_exp_EVA_AWA_CON	88	A	B	Rpleas_acq	Oppo	Lpleas	2pleas	conawa_CS1_US4	conawa1_nomask	8	1	0	0	300	300	0	0	13726	engagiert	1	-32,421875pct	träumen	anregung	kuss	gesittet	vergnügt	gütig	töten	ausrottung	krise	geizig	verbissen	gierig	besonnen	sonnig	genießen	engagiert	vertrauen	kreativ	bange	sterben	gemein	engstirnig	versagen	krank	0	0	0	0	0	0	0	0	0	0	0	0	0	0	0	0	0	0	0	0	0	0	0	0	0	0	0	0	0	0
2024-06-19	14:17:07	14:29:59	771741	6.6.1	4_exp_EVA_AWA_CON	88	A	B	Rpleas_acq	Oppo	Lpleas	2pleas	conawa_CS1_US4_confidence	conawa1_nomask	8	1	0	0	300	300	0	0	13726	probably	1	-32,421875pct	träumen	anregung	kuss	gesittet	vergnügt	gütig	töten	ausrottung	krise	geizig	verbissen	gierig	besonnen	sonnig	genießen	engagiert	vertrauen	kreativ	bange	sterben	gemein	engstirnig	versagen	krank	0	0	0	0	0	0	0	0	0	0	0	0	0	0	0	0	0	0	0	0	0	0	0	0	0	0	0	0	0	0
2024-06-19	14:17:07	14:30:12	784057	6.6.1	4_exp_EVA_AWA_CON	88	A	B	Rpleas_acq	Oppo	Lpleas	2pleas	conawa_CS1_US2	conawa1_nomask	8	2	0	0	300	300	0	0	11702	sonnig	1	-32,421875pct	träumen	anregung	kuss	gesittet	vergnügt	gütig	töten	ausrottung	krise	geizig	verbissen	gierig	besonnen	sonnig	genießen	engagiert	vertrauen	kreativ	bange	sterben	gemein	engstirnig	versagen	krank	0	0	0	0	0	0	0	0	0	0	0	0	0	0	0	0	0	0	0	0	0	0	0	0	0	0	0	0	0	0
2024-06-19	14:17:07	14:30:12	784060	6.6.1	4_exp_EVA_AWA_CON	88	A	B	Rpleas_acq	Oppo	Lpleas	2pleas	conawa_CS1_US2_confidence	conawa1_nomask	8	2	0	0	300	300	0	0	11702	guess	1	-32,421875pct	träumen	anregung	kuss	gesittet	vergnügt	gütig	töten	ausrottung	krise	geizig	verbissen	gierig	besonnen	sonnig	genießen	engagiert	vertrauen	kreativ	bange	sterben	gemein	engstirnig	versagen	krank	0	0	0	0	0	0	0	0	0	0	0	0	0	0	0	0	0	0	0	0	0	0	0	0	0	0	0	0	0	0
2024-06-19	14:17:07	14:30:19	791593	6.6.1	4_exp_EVA_AWA_CON	88	A	B	Rpleas_acq	Oppo	Lpleas	2pleas	conawa_CS1_US1	conawa1_nomask	8	3	0	0	300	300	0	0	6916	besonnen	1	-32,421875pct	träumen	anregung	kuss	gesittet	vergnügt	gütig	töten	ausrottung	krise	geizig	verbissen	gierig	besonnen	sonnig	genießen	engagiert	vertrauen	kreativ	bange	sterben	gemein	engstirnig	versagen	krank	0	0	0	0	0	0	0	0	0	0	0	0	0	0	0	0	0	0	0	0	0	0	0	0	0	0	0	0	0	0
2024-06-19	14:17:07	14:30:19	791594	6.6.1	4_exp_EVA_AWA_CON	88	A	B	Rpleas_acq	Oppo	Lpleas	2pleas	conawa_CS1_US1_confidence	conawa1_nomask	8	3	0	0	300	300	0	0	6916	guess	1	-32,421875pct	träumen	anregung	kuss	gesittet	vergnügt	gütig	töten	ausrottung	krise	geizig	verbissen	gierig	besonnen	sonnig	genießen	engagiert	vertrauen	kreativ	bange	sterben	gemein	engstirnig	versagen	krank	0	0	0	0	0	0	0	0	0	0	0	0	0	0	0	0	0	0	0	0	0	0	0	0	0	0	0	0	0	0
2024-06-19	14:17:07	14:30:25	797686	6.6.1	4_exp_EVA_AWA_CON	88	A	B	Rpleas_acq	Oppo	Lpleas	2pleas	conawa_CS2_US3	conawa1_nomask	8	4	0	0	300	300	0	0	5480	krise	1	-32,421875pct	träumen	anregung	kuss	gesittet	vergnügt	gütig	töten	ausrottung	krise	geizig	verbissen	gierig	besonnen	sonnig	genießen	engagiert	vertrauen	kreativ	bange	sterben	gemein	engstirnig	versagen	krank	0	0	0	0	0	0	0	0	0	0	0	0	0	0	0	0	0	0	0	0	0	0	0	0	0	0	0	0	0	0
2024-06-19	14:17:07	14:30:25	797688	6.6.1	4_exp_EVA_AWA_CON	88	A	B	Rpleas_acq	Oppo	Lpleas	2pleas	conawa_CS2_US3_confidence	conawa1_nomask	8	4	0	0	300	300	0	0	5480	probably	1	-32,421875pct	träumen	anregung	kuss	gesittet	vergnügt	gütig	töten	ausrottung	krise	geizig	verbissen	gierig	besonnen	sonnig	genießen	engagiert	vertrauen	kreativ	bange	sterben	gemein	engstirnig	versagen	krank	0	0	0	0	0	0	0	0	0	0	0	0	0	0	0	0	0	0	0	0	0	0	0	0	0	0	0	0	0	0
2024-06-19	14:17:07	14:30:35	807463	6.6.1	4_exp_EVA_AWA_CON	88	A	B	Rpleas_acq	Oppo	Lpleas	2pleas	conawa_CS1_US6	conawa1_nomask	8	5	0	0	300	300	0	0	9163	kreativ	1	-32,421875pct	träumen	anregung	kuss	gesittet	vergnügt	gütig	töten	ausrottung	krise	geizig	verbissen	gierig	besonnen	sonnig	genießen	engagiert	vertrauen	kreativ	bange	sterben	gemein	engstirnig	versagen	krank	0	0	0	0	0	0	0	0	0	0	0	0	0	0	0	0	0	0	0	0	0	0	0	0	0	0	0	0	0	0
2024-06-19	14:17:07	14:30:35	807464	6.6.1	4_exp_EVA_AWA_CON	88	A	B	Rpleas_acq	Oppo	Lpleas	2pleas	conawa_CS1_US6_confidence	conawa1_nomask	8	5	0	0	300	300	0	0	9163	guess	1	-32,421875pct	träumen	anregung	kuss	gesittet	vergnügt	gütig	töten	ausrottung	krise	geizig	verbissen	gierig	besonnen	sonnig	genießen	engagiert	vertrauen	kreativ	bange	sterben	gemein	engstirnig	versagen	krank	0	0	0	0	0	0	0	0	0	0	0	0	0	0	0	0	0	0	0	0	0	0	0	0	0	0	0	0	0	0
2024-06-19	14:17:07	14:30:43	815038	6.6.1	4_exp_EVA_AWA_CON	88	A	B	Rpleas_acq	Oppo	Lpleas	2pleas	conawa_CS2_US6	conawa1_nomask	8	6	0	0	300	300	0	0	6961	bange	1	-32,421875pct	träumen	anregung	kuss	gesittet	vergnügt	gütig	töten	ausrottung	krise	geizig	verbissen	gierig	besonnen	sonnig	genießen	engagiert	vertrauen	kreativ	bange	sterben	gemein	engstirnig	versagen	krank	0	0	0	0	0	0	0	0	0	0	0	0	0	0	0	0	0	0	0	0	0	0	0	0	0	0	0	0	0	0
2024-06-19	14:17:07	14:30:43	815039	6.6.1	4_exp_EVA_AWA_CON	88	A	B	Rpleas_acq	Oppo	Lpleas	2pleas	conawa_CS2_US6_confidence	conawa1_nomask	8	6	0	0	300	300	0	0	6961	probably	1	-32,421875pct	träumen	anregung	kuss	gesittet	vergnügt	gütig	töten	ausrottung	krise	geizig	verbissen	gierig	besonnen	sonnig	genießen	engagiert	vertrauen	kreativ	bange	sterben	gemein	engstirnig	versagen	krank	0	0	0	0	0	0	0	0	0	0	0	0	0	0	0	0	0	0	0	0	0	0	0	0	0	0	0	0	0	0
2024-06-19	14:17:07	14:30:47	819430	6.6.1	4_exp_EVA_AWA_CON	88	A	B	Rpleas_acq	Oppo	Lpleas	2pleas	conawa_CS2_US5	conawa1_nomask	8	7	0	0	300	300	0	0	3781	kreativ	1	-32,421875pct	träumen	anregung	kuss	gesittet	vergnügt	gütig	töten	ausrottung	krise	geizig	verbissen	gierig	besonnen	sonnig	genießen	engagiert	vertrauen	kreativ	bange	sterben	gemein	engstirnig	versagen	krank	0	0	0	0	0	0	0	0	0	0	0	0	0	0	0	0	0	0	0	0	0	0	0	0	0	0	0	0	0	0
2024-06-19	14:17:07	14:30:47	819432	6.6.1	4_exp_EVA_AWA_CON	88	A	B	Rpleas_acq	Oppo	Lpleas	2pleas	conawa_CS2_US5_confidence	conawa1_nomask	8	7	0	0	300	300	0	0	3781	sure	1	-32,421875pct	träumen	anregung	kuss	gesittet	vergnügt	gütig	töten	ausrottung	krise	geizig	verbissen	gierig	besonnen	sonnig	genießen	engagiert	vertrauen	kreativ	bange	sterben	gemein	engstirnig	versagen	krank	0	0	0	0	0	0	0	0	0	0	0	0	0	0	0	0	0	0	0	0	0	0	0	0	0	0	0	0	0	0
2024-06-19	14:17:07	14:30:53	825324	6.6.1	4_exp_EVA_AWA_CON	88	A	B	Rpleas_acq	Oppo	Lpleas	2pleas	conawa_CS1_US3	conawa1_nomask	8	8	0	0	300	300	0	0	5274	genießen	1	-32,421875pct	träumen	anregung	kuss	gesittet	vergnügt	gütig	töten	ausrottung	krise	geizig	verbissen	gierig	besonnen	sonnig	genießen	engagiert	vertrauen	kreativ	bange	sterben	gemein	engstirnig	versagen	krank	0	0	0	0	0	0	0	0	0	0	0	0	0	0	0	0	0	0	0	0	0	0	0	0	0	0	0	0	0	0
2024-06-19	14:17:07	14:30:53	825325	6.6.1	4_exp_EVA_AWA_CON	88	A	B	Rpleas_acq	Oppo	Lpleas	2pleas	conawa_CS1_US3_confidence	conawa1_nomask	8	8	0	0	300	300	0	0	5274	probably	1	-32,421875pct	träumen	anregung	kuss	gesittet	vergnügt	gütig	töten	ausrottung	krise	geizig	verbissen	gierig	besonnen	sonnig	genießen	engagiert	vertrauen	kreativ	bange	sterben	gemein	engstirnig	versagen	krank	0	0	0	0	0	0	0	0	0	0	0	0	0	0	0	0	0	0	0	0	0	0	0	0	0	0	0	0	0	0
2024-06-19	14:17:07	14:30:58	830077	6.6.1	4_exp_EVA_AWA_CON	88	A	B	Rpleas_acq	Oppo	Lpleas	2pleas	conawa_CS2_US4	conawa1_nomask	8	9	0	0	300	300	0	0	4142	gesittet	1	-32,421875pct	träumen	anregung	kuss	gesittet	vergnügt	gütig	töten	ausrottung	krise	geizig	verbissen	gierig	besonnen	sonnig	genießen	engagiert	vertrauen	kreativ	bange	sterben	gemein	engstirnig	versagen	krank	0	0	0	0	0	0	0	0	0	0	0	0	0	0	0	0	0	0	0	0	0	0	0	0	0	0	0	0	0	0
2024-06-19	14:17:07	14:30:58	830079	6.6.1	4_exp_EVA_AWA_CON	88	A	B	Rpleas_acq	Oppo	Lpleas	2pleas	conawa_CS2_US4_confidence	conawa1_nomask	8	9	0	0	300	300	0	0	4142	sure	1	-32,421875pct	träumen	anregung	kuss	gesittet	vergnügt	gütig	töten	ausrottung	krise	geizig	verbissen	gierig	besonnen	sonnig	genießen	engagiert	vertrauen	kreativ	bange	sterben	gemein	engstirnig	versagen	krank	0	0	0	0	0	0	0	0	0	0	0	0	0	0	0	0	0	0	0	0	0	0	0	0	0	0	0	0	0	0
2024-06-19	14:17:07	14:31:05	837291	6.6.1	4_exp_EVA_AWA_CON	88	A	B	Rpleas_acq	Oppo	Lpleas	2pleas	conawa_CS2_US2	conawa1_nomask	8	10	0	0	300	300	0	0	6595	genießen	1	-32,421875pct	träumen	anregung	kuss	gesittet	vergnügt	gütig	töten	ausrottung	krise	geizig	verbissen	gierig	besonnen	sonnig	genießen	engagiert	vertrauen	kreativ	bange	sterben	gemein	engstirnig	versagen	krank	0	0	0	0	0	0	0	0	0	0	0	0	0	0	0	0	0	0	0	0	0	0	0	0	0	0	0	0	0	0
2024-06-19	14:17:07	14:31:05	837293	6.6.1	4_exp_EVA_AWA_CON	88	A	B	Rpleas_acq	Oppo	Lpleas	2pleas	conawa_CS2_US2_confidence	conawa1_nomask	8	10	0	0	300	300	0	0	6595	guess	1	-32,421875pct	träumen	anregung	kuss	gesittet	vergnügt	gütig	töten	ausrottung	krise	geizig	verbissen	gierig	besonnen	sonnig	genießen	engagiert	vertrauen	kreativ	bange	sterben	gemein	engstirnig	versagen	krank	0	0	0	0	0	0	0	0	0	0	0	0	0	0	0	0	0	0	0	0	0	0	0	0	0	0	0	0	0	0
2024-06-19	14:17:07	14:31:08	840513	6.6.1	4_exp_EVA_AWA_CON	88	A	B	Rpleas_acq	Oppo	Lpleas	2pleas	conawa_CS1_US5	conawa1_nomask	8	11	0	0	300	300	0	0	2608	vergnügt	1	-32,421875pct	träumen	anregung	kuss	gesittet	vergnügt	gütig	töten	ausrottung	krise	geizig	verbissen	gierig	besonnen	sonnig	genießen	engagiert	vertrauen	kreativ	bange	sterben	gemein	engstirnig	versagen	krank	0	0	0	0	0	0	0	0	0	0	0	0	0	0	0	0	0	0	0	0	0	0	0	0	0	0	0	0	0	0
2024-06-19	14:17:07	14:31:08	840515	6.6.1	4_exp_EVA_AWA_CON	88	A	B	Rpleas_acq	Oppo	Lpleas	2pleas	conawa_CS1_US5_confidence	conawa1_nomask	8	11	0	0	300	300	0	0	2608	guess	1	-32,421875pct	träumen	anregung	kuss	gesittet	vergnügt	gütig	töten	ausrottung	krise	geizig	verbissen	gierig	besonnen	sonnig	genießen	engagiert	vertrauen	kreativ	bange	sterben	gemein	engstirnig	versagen	krank	0	0	0	0	0	0	0	0	0	0	0	0	0	0	0	0	0	0	0	0	0	0	0	0	0	0	0	0	0	0
2024-06-19	14:17:07	14:31:14	845997	6.6.1	4_exp_EVA_AWA_CON	88	A	B	Rpleas_acq	Oppo	Lpleas	2pleas	conawa_CS2_US1	conawa1_nomask	8	12	0	0	300	300	0	0	4865	sonnig	1	-32,421875pct	träumen	anregung	kuss	gesittet	vergnügt	gütig	töten	ausrottung	krise	geizig	verbissen	gierig	besonnen	sonnig	genießen	engagiert	vertrauen	kreativ	bange	sterben	gemein	engstirnig	versagen	krank	0	0	0	0	0	0	0	0	0	0	0	0	0	0	0	0	0	0	0	0	0	0	0	0	0	0	0	0	0	0
2024-06-19	14:17:07	14:31:14	845999	6.6.1	4_exp_EVA_AWA_CON	88	A	B	Rpleas_acq	Oppo	Lpleas	2pleas	conawa_CS2_US1_confidence	conawa1_nomask	8	12	0	0	300	300	0	0	4865	guess	1	-32,421875pct	träumen	anregung	kuss	gesittet	vergnügt	gütig	töten	ausrottung	krise	geizig	verbissen	gierig	besonnen	sonnig	genießen	engagiert	vertrauen	kreativ	bange	sterben	gemein	engstirnig	versagen	krank	0	0	0	0	0	0	0	0	0	0	0	0	0	0	0	0	0	0	0	0	0	0	0	0	0	0	0	0	0	0
2024-06-19	14:17:07	14:32:21	913485	6.6.1	4_exp_EVA_AWA_CON	88	A	B	Rpleas_acq	Oppo	Lpleas	2pleas	cond_new_pleas_456_nomask_CS1	condtest_nomask_1	11	1	400	1	300	300	0	0	452	46	1	-32,421875pct	träumen	anregung	kuss	gesittet	vergnügt	gütig	töten	ausrottung	krise	geizig	verbissen	gierig	besonnen	sonnig	genießen	engagiert	vertrauen	kreativ	bange	sterben	gemein	engstirnig	versagen	krank	1	blank2r.bmp	0	1	+	0	1	blank2r.bmp	500	1	CPLW	500	1	blank2r.bmp	880	3	kreativ	880	1	!	1232	1	!	1354	0	0	0	0	0	0
2024-06-19	14:17:07	14:32:24	915763	6.6.1	4_exp_EVA_AWA_CON	88	A	B	Rpleas_acq	Oppo	Lpleas	2pleas	cond_US_unple_123_nomask_CS2	condtest_nomask_1	11	2	400	0	300	300	0	0	501	50	1	-32,421875pct	träumen	anregung	kuss	gesittet	vergnügt	gütig	töten	ausrottung	krise	geizig	verbissen	gierig	besonnen	sonnig	genießen	engagiert	vertrauen	kreativ	bange	sterben	gemein	engstirnig	versagen	krank	1	blank2r.bmp	0	1	+	0	1	blank2r.bmp	500	1	DHJF	500	1	blank2r.bmp	880	3	ausrottung	880	1	!	1232	1	!	-1	0	0	0	0	0	0
