date	time	currenttime	elapsedtime	build	currentexpt	subject	CS_AB	US_AB	LRpleas_acq	SameOppo	condition_Lpleas	condition_1pleas	trialcode	blockcode	blocknum	trialnum	windowcenter	inwindow	pretrialpause	posttrialpause	trialduration	trialtimeout	latency	response	correct	correctedscore	US_nomask_pleas1	US_nomask_pleas2	US_nomask_pleas3	US_nomask_pleas4	US_nomask_pleas5	US_nomask_pleas6	US_nomask_unple1	US_nomask_unple2	US_nomask_unple3	US_nomask_unple4	US_nomask_unple5	US_nomask_unple6	new_nomask_pleas1	new_nomask_pleas2	new_nomask_pleas3	new_nomask_pleas4	new_nomask_pleas5	new_nomask_pleas6	new_nomask_unple1	new_nomask_unple2	new_nomask_unple3	new_nomask_unple4	new_nomask_unple5	new_nomask_unple6	stimulusnumber1	stimulusitem1	stimulusonset1	stimulusnumber2	stimulusitem2	stimulusonset2	stimulusnumber3	stimulusitem3	stimulusonset3	stimulusnumber4	stimulusitem4	stimulusonset4	stimulusnumber5	stimulusitem5	stimulusonset5	stimulusnumber6	stimulusitem6	stimulusonset6	stimulusnumber7	stimulusitem7	stimulusonset7	stimulusnumber8	stimulusitem8	stimulusonset8	stimulusnumber9	stimulusitem9	stimulusonset9	stimulusnumber10	stimulusitem10	stimulusonset10
2024-05-07	12:14:57	12:16:31	93258	6.6.1	4_exp_EVA_AWA_CON	16	A	B	Rpleas_acq	Oppo	Rpleas	2pleas	acq_US_pleas_nomask	acq1_nomask	1	1	0	0	300	300	0	0	1623	50	1	0	sonnig	träumen	vertrauen	gütig	genießen	vergnügt	sterben	töten	versagen	gierig	gemein	verbissen	anregung	besonnen	kreativ	engagiert	kuss	gesittet	ausrottung	bange	krank	engstirnig	krise	geizig	1	blank2r.bmp	0	1	+	0	1	blank2r.bmp	500	1	DHJF	500	1	blank2r.bmp	880	6	vergnügt	880	0	0	0	0	0	0	0	0	0	0	0	0
2024-05-07	12:14:57	12:16:33	95730	6.6.1	4_exp_EVA_AWA_CON	16	A	B	Rpleas_acq	Oppo	Rpleas	2pleas	acq_US_pleas_nomask	acq1_nomask	1	2	0	0	300	300	0	0	983	50	1	0	sonnig	träumen	vertrauen	gütig	genießen	vergnügt	sterben	töten	versagen	gierig	gemein	verbissen	anregung	besonnen	kreativ	engagiert	kuss	gesittet	ausrottung	bange	krank	engstirnig	krise	geizig	1	blank2r.bmp	0	1	+	0	1	blank2r.bmp	500	1	DHJF	500	1	blank2r.bmp	880	2	träumen	880	0	0	0	0	0	0	0	0	0	0	0	0
2024-05-07	12:14:57	12:16:36	98209	6.6.1	4_exp_EVA_AWA_CON	16	A	B	Rpleas_acq	Oppo	Rpleas	2pleas	acq_new_pleas_nomask	acq1_nomask	1	3	0	0	300	300	0	0	992	50	1	0	sonnig	träumen	vertrauen	gütig	genießen	vergnügt	sterben	töten	versagen	gierig	gemein	verbissen	anregung	besonnen	kreativ	engagiert	kuss	gesittet	ausrottung	bange	krank	engstirnig	krise	geizig	1	blank2r.bmp	0	1	+	0	1	blank2r.bmp	500	7	C3r.bmp	500	1	blank2r.bmp	880	1	anregung	880	0	0	0	0	0	0	0	0	0	0	0	0
2024-05-07	12:14:57	12:16:38	100217	6.6.1	4_exp_EVA_AWA_CON	16	A	B	Rpleas_acq	Oppo	Rpleas	2pleas	acq_new_unple_nomask	acq1_nomask	1	4	0	0	300	300	0	0	518	46	1	0	sonnig	träumen	vertrauen	gütig	genießen	vergnügt	sterben	töten	versagen	gierig	gemein	verbissen	anregung	besonnen	kreativ	engagiert	kuss	gesittet	ausrottung	bange	krank	engstirnig	krise	geizig	1	blank2r.bmp	0	1	+	0	1	blank2r.bmp	500	3	B3r.bmp	500	1	blank2r.bmp	880	3	krank	880	0	0	0	0	0	0	0	0	0	0	0	0
2024-05-07	12:14:57	12:16:40	102257	6.6.1	4_exp_EVA_AWA_CON	16	A	B	Rpleas_acq	Oppo	Rpleas	2pleas	acq_US_unple_nomask	acq1_nomask	1	5	0	0	300	300	0	0	557	46	1	0	sonnig	träumen	vertrauen	gütig	genießen	vergnügt	sterben	töten	versagen	gierig	gemein	verbissen	anregung	besonnen	kreativ	engagiert	kuss	gesittet	ausrottung	bange	krank	engstirnig	krise	geizig	1	blank2r.bmp	0	1	+	0	1	blank2r.bmp	500	1	CPLW	500	1	blank2r.bmp	880	4	gierig	880	0	0	0	0	0	0	0	0	0	0	0	0
2024-05-07	12:14:57	12:16:42	104337	6.6.1	4_exp_EVA_AWA_CON	16	A	B	Rpleas_acq	Oppo	Rpleas	2pleas	acq_new_pleas_nomask	acq1_nomask	1	6	0	0	300	300	0	0	596	50	1	0	sonnig	träumen	vertrauen	gütig	genießen	vergnügt	sterben	töten	versagen	gierig	gemein	verbissen	anregung	besonnen	kreativ	engagiert	kuss	gesittet	ausrottung	bange	krank	engstirnig	krise	geizig	1	blank2r.bmp	0	1	+	0	1	blank2r.bmp	500	6	C2r.bmp	500	1	blank2r.bmp	880	4	engagiert	880	0	0	0	0	0	0	0	0	0	0	0	0
2024-05-07	12:14:57	12:16:44	106330	6.6.1	4_exp_EVA_AWA_CON	16	A	B	Rpleas_acq	Oppo	Rpleas	2pleas	acq_US_unple_nomask	acq1_nomask	1	7	0	0	300	300	0	0	506	46	1	0	sonnig	träumen	vertrauen	gütig	genießen	vergnügt	sterben	töten	versagen	gierig	gemein	verbissen	anregung	besonnen	kreativ	engagiert	kuss	gesittet	ausrottung	bange	krank	engstirnig	krise	geizig	1	blank2r.bmp	0	1	+	0	1	blank2r.bmp	500	1	CPLW	500	1	blank2r.bmp	880	2	töten	880	0	0	0	0	0	0	0	0	0	0	0	0
2024-05-07	12:14:57	12:16:46	108330	6.6.1	4_exp_EVA_AWA_CON	16	A	B	Rpleas_acq	Oppo	Rpleas	2pleas	acq_new_pleas_nomask	acq1_nomask	1	8	0	0	300	300	0	0	515	50	1	0	sonnig	träumen	vertrauen	gütig	genießen	vergnügt	sterben	töten	versagen	gierig	gemein	verbissen	anregung	besonnen	kreativ	engagiert	kuss	gesittet	ausrottung	bange	krank	engstirnig	krise	geizig	1	blank2r.bmp	0	1	+	0	1	blank2r.bmp	500	8	C4r.bmp	500	1	blank2r.bmp	880	2	besonnen	880	0	0	0	0	0	0	0	0	0	0	0	0
2024-05-07	12:14:57	12:16:48	110450	6.6.1	4_exp_EVA_AWA_CON	16	A	B	Rpleas_acq	Oppo	Rpleas	2pleas	acq_new_unple_nomask	acq1_nomask	1	9	0	0	300	300	0	0	634	46	1	0	sonnig	träumen	vertrauen	gütig	genießen	vergnügt	sterben	töten	versagen	gierig	gemein	verbissen	anregung	besonnen	kreativ	engagiert	kuss	gesittet	ausrottung	bange	krank	engstirnig	krise	geizig	1	blank2r.bmp	0	1	+	0	1	blank2r.bmp	500	2	B2r.bmp	500	1	blank2r.bmp	880	6	geizig	880	0	0	0	0	0	0	0	0	0	0	0	0
2024-05-07	12:14:57	12:16:50	112481	6.6.1	4_exp_EVA_AWA_CON	16	A	B	Rpleas_acq	Oppo	Rpleas	2pleas	acq_US_pleas_nomask	acq1_nomask	1	10	0	0	300	300	0	0	544	50	1	0	sonnig	träumen	vertrauen	gütig	genießen	vergnügt	sterben	töten	versagen	gierig	gemein	verbissen	anregung	besonnen	kreativ	engagiert	kuss	gesittet	ausrottung	bange	krank	engstirnig	krise	geizig	1	blank2r.bmp	0	1	+	0	1	blank2r.bmp	500	1	DHJF	500	1	blank2r.bmp	880	1	sonnig	880	0	0	0	0	0	0	0	0	0	0	0	0
2024-05-07	12:14:57	12:16:52	114450	6.6.1	4_exp_EVA_AWA_CON	16	A	B	Rpleas_acq	Oppo	Rpleas	2pleas	acq_US_unple_nomask	acq1_nomask	1	11	0	0	300	300	0	0	481	46	1	0	sonnig	träumen	vertrauen	gütig	genießen	vergnügt	sterben	töten	versagen	gierig	gemein	verbissen	anregung	besonnen	kreativ	engagiert	kuss	gesittet	ausrottung	bange	krank	engstirnig	krise	geizig	1	blank2r.bmp	0	1	+	0	1	blank2r.bmp	500	1	CPLW	500	1	blank2r.bmp	880	1	sterben	880	0	0	0	0	0	0	0	0	0	0	0	0
2024-05-07	12:14:57	12:16:54	116474	6.6.1	4_exp_EVA_AWA_CON	16	A	B	Rpleas_acq	Oppo	Rpleas	2pleas	acq_new_unple_nomask	acq1_nomask	1	12	0	0	300	300	0	0	534	46	1	0	sonnig	träumen	vertrauen	gütig	genießen	vergnügt	sterben	töten	versagen	gierig	gemein	verbissen	anregung	besonnen	kreativ	engagiert	kuss	gesittet	ausrottung	bange	krank	engstirnig	krise	geizig	1	blank2r.bmp	0	1	+	0	1	blank2r.bmp	500	5	C1r.bmp	500	1	blank2r.bmp	880	2	bange	880	0	0	0	0	0	0	0	0	0	0	0	0
2024-05-07	12:14:57	12:16:56	118626	6.6.1	4_exp_EVA_AWA_CON	16	A	B	Rpleas_acq	Oppo	Rpleas	2pleas	acq_US_unple_nomask	acq1_nomask	1	13	0	0	300	300	0	0	665	46	1	0	sonnig	träumen	vertrauen	gütig	genießen	vergnügt	sterben	töten	versagen	gierig	gemein	verbissen	anregung	besonnen	kreativ	engagiert	kuss	gesittet	ausrottung	bange	krank	engstirnig	krise	geizig	1	blank2r.bmp	0	1	+	0	1	blank2r.bmp	500	1	CPLW	500	1	blank2r.bmp	880	3	versagen	880	0	0	0	0	0	0	0	0	0	0	0	0
2024-05-07	12:14:57	12:16:58	120690	6.6.1	4_exp_EVA_AWA_CON	16	A	B	Rpleas_acq	Oppo	Rpleas	2pleas	acq_US_pleas_nomask	acq1_nomask	1	14	0	0	300	300	0	0	577	50	1	0	sonnig	träumen	vertrauen	gütig	genießen	vergnügt	sterben	töten	versagen	gierig	gemein	verbissen	anregung	besonnen	kreativ	engagiert	kuss	gesittet	ausrottung	bange	krank	engstirnig	krise	geizig	1	blank2r.bmp	0	1	+	0	1	blank2r.bmp	500	1	DHJF	500	1	blank2r.bmp	880	4	gütig	880	0	0	0	0	0	0	0	0	0	0	0	0
2024-05-07	12:14:57	12:17:00	122762	6.6.1	4_exp_EVA_AWA_CON	16	A	B	Rpleas_acq	Oppo	Rpleas	2pleas	acq_new_pleas_nomask	acq1_nomask	1	15	0	0	300	300	0	0	588	50	1	0	sonnig	träumen	vertrauen	gütig	genießen	vergnügt	sterben	töten	versagen	gierig	gemein	verbissen	anregung	besonnen	kreativ	engagiert	kuss	gesittet	ausrottung	bange	krank	engstirnig	krise	geizig	1	blank2r.bmp	0	1	+	0	1	blank2r.bmp	500	4	B4r.bmp	500	1	blank2r.bmp	880	6	gesittet	880	0	0	0	0	0	0	0	0	0	0	0	0
2024-05-07	12:14:57	12:17:02	124746	6.6.1	4_exp_EVA_AWA_CON	16	A	B	Rpleas_acq	Oppo	Rpleas	2pleas	acq_US_unple_nomask	acq1_nomask	1	16	0	0	300	300	0	0	500	46	1	0	sonnig	träumen	vertrauen	gütig	genießen	vergnügt	sterben	töten	versagen	gierig	gemein	verbissen	anregung	besonnen	kreativ	engagiert	kuss	gesittet	ausrottung	bange	krank	engstirnig	krise	geizig	1	blank2r.bmp	0	1	+	0	1	blank2r.bmp	500	1	CPLW	500	1	blank2r.bmp	880	5	gemein	880	0	0	0	0	0	0	0	0	0	0	0	0
2024-05-07	12:14:57	12:17:04	126721	6.6.1	4_exp_EVA_AWA_CON	16	A	B	Rpleas_acq	Oppo	Rpleas	2pleas	acq_new_pleas_nomask	acq1_nomask	1	17	0	0	300	300	0	0	495	50	1	0	sonnig	träumen	vertrauen	gütig	genießen	vergnügt	sterben	töten	versagen	gierig	gemein	verbissen	anregung	besonnen	kreativ	engagiert	kuss	gesittet	ausrottung	bange	krank	engstirnig	krise	geizig	1	blank2r.bmp	0	1	+	0	1	blank2r.bmp	500	1	B1r.bmp	500	1	blank2r.bmp	880	5	kuss	880	0	0	0	0	0	0	0	0	0	0	0	0
2024-05-07	12:14:57	12:17:06	128705	6.6.1	4_exp_EVA_AWA_CON	16	A	B	Rpleas_acq	Oppo	Rpleas	2pleas	acq_new_pleas_nomask	acq1_nomask	1	18	0	0	300	300	0	0	498	50	1	0	sonnig	träumen	vertrauen	gütig	genießen	vergnügt	sterben	töten	versagen	gierig	gemein	verbissen	anregung	besonnen	kreativ	engagiert	kuss	gesittet	ausrottung	bange	krank	engstirnig	krise	geizig	1	blank2r.bmp	0	1	+	0	1	blank2r.bmp	500	3	B3r.bmp	500	1	blank2r.bmp	880	3	kreativ	880	0	0	0	0	0	0	0	0	0	0	0	0
2024-05-07	12:14:57	12:17:08	130665	6.6.1	4_exp_EVA_AWA_CON	16	A	B	Rpleas_acq	Oppo	Rpleas	2pleas	acq_US_pleas_nomask	acq1_nomask	1	19	0	0	300	300	0	0	477	50	1	0	sonnig	träumen	vertrauen	gütig	genießen	vergnügt	sterben	töten	versagen	gierig	gemein	verbissen	anregung	besonnen	kreativ	engagiert	kuss	gesittet	ausrottung	bange	krank	engstirnig	krise	geizig	1	blank2r.bmp	0	1	+	0	1	blank2r.bmp	500	1	DHJF	500	1	blank2r.bmp	880	5	genießen	880	0	0	0	0	0	0	0	0	0	0	0	0
2024-05-07	12:14:57	12:17:10	132634	6.6.1	4_exp_EVA_AWA_CON	16	A	B	Rpleas_acq	Oppo	Rpleas	2pleas	acq_US_pleas_nomask	acq1_nomask	1	20	0	0	300	300	0	0	483	50	1	0	sonnig	träumen	vertrauen	gütig	genießen	vergnügt	sterben	töten	versagen	gierig	gemein	verbissen	anregung	besonnen	kreativ	engagiert	kuss	gesittet	ausrottung	bange	krank	engstirnig	krise	geizig	1	blank2r.bmp	0	1	+	0	1	blank2r.bmp	500	1	DHJF	500	1	blank2r.bmp	880	3	vertrauen	880	0	0	0	0	0	0	0	0	0	0	0	0
2024-05-07	12:14:57	12:17:12	134562	6.6.1	4_exp_EVA_AWA_CON	16	A	B	Rpleas_acq	Oppo	Rpleas	2pleas	acq_new_unple_nomask	acq1_nomask	1	21	0	0	300	300	0	0	440	46	1	0	sonnig	träumen	vertrauen	gütig	genießen	vergnügt	sterben	töten	versagen	gierig	gemein	verbissen	anregung	besonnen	kreativ	engagiert	kuss	gesittet	ausrottung	bange	krank	engstirnig	krise	geizig	1	blank2r.bmp	0	1	+	0	1	blank2r.bmp	500	8	C4r.bmp	500	1	blank2r.bmp	880	5	krise	880	0	0	0	0	0	0	0	0	0	0	0	0
2024-05-07	12:14:57	12:17:14	136482	6.6.1	4_exp_EVA_AWA_CON	16	A	B	Rpleas_acq	Oppo	Rpleas	2pleas	acq_US_unple_nomask	acq1_nomask	1	22	0	0	300	300	0	0	439	46	1	0	sonnig	träumen	vertrauen	gütig	genießen	vergnügt	sterben	töten	versagen	gierig	gemein	verbissen	anregung	besonnen	kreativ	engagiert	kuss	gesittet	ausrottung	bange	krank	engstirnig	krise	geizig	1	blank2r.bmp	0	1	+	0	1	blank2r.bmp	500	1	CPLW	500	1	blank2r.bmp	880	6	verbissen	880	0	0	0	0	0	0	0	0	0	0	0	0
2024-05-07	12:14:57	12:17:16	138426	6.6.1	4_exp_EVA_AWA_CON	16	A	B	Rpleas_acq	Oppo	Rpleas	2pleas	acq_new_unple_nomask	acq1_nomask	1	23	0	0	300	300	0	0	462	46	1	0	sonnig	träumen	vertrauen	gütig	genießen	vergnügt	sterben	töten	versagen	gierig	gemein	verbissen	anregung	besonnen	kreativ	engagiert	kuss	gesittet	ausrottung	bange	krank	engstirnig	krise	geizig	1	blank2r.bmp	0	1	+	0	1	blank2r.bmp	500	7	C3r.bmp	500	1	blank2r.bmp	880	4	engstirnig	880	0	0	0	0	0	0	0	0	0	0	0	0
2024-05-07	12:14:57	12:17:18	140489	6.6.1	4_exp_EVA_AWA_CON	16	A	B	Rpleas_acq	Oppo	Rpleas	2pleas	acq_new_unple_nomask	acq1_nomask	1	24	0	0	300	300	0	0	574	46	1	0	sonnig	träumen	vertrauen	gütig	genießen	vergnügt	sterben	töten	versagen	gierig	gemein	verbissen	anregung	besonnen	kreativ	engagiert	kuss	gesittet	ausrottung	bange	krank	engstirnig	krise	geizig	1	blank2r.bmp	0	1	+	0	1	blank2r.bmp	500	2	B2r.bmp	500	1	blank2r.bmp	880	1	ausrottung	880	0	0	0	0	0	0	0	0	0	0	0	0
2024-05-07	12:14:57	12:17:20	142482	6.6.1	4_exp_EVA_AWA_CON	16	A	B	Rpleas_acq	Oppo	Rpleas	2pleas	acq_US_pleas_nomask	acq1_nomask	1	25	0	0	300	300	0	0	505	50	1	0	sonnig	träumen	vertrauen	gütig	genießen	vergnügt	sterben	töten	versagen	gierig	gemein	verbissen	anregung	besonnen	kreativ	engagiert	kuss	gesittet	ausrottung	bange	krank	engstirnig	krise	geizig	1	blank2r.bmp	0	1	+	0	1	blank2r.bmp	500	1	DHJF	500	1	blank2r.bmp	880	4	gütig	880	0	0	0	0	0	0	0	0	0	0	0	0
2024-05-07	12:14:57	12:17:22	144546	6.6.1	4_exp_EVA_AWA_CON	16	A	B	Rpleas_acq	Oppo	Rpleas	2pleas	acq_new_unple_nomask	acq1_nomask	1	26	0	0	300	300	0	0	578	46	1	0	sonnig	träumen	vertrauen	gütig	genießen	vergnügt	sterben	töten	versagen	gierig	gemein	verbissen	anregung	besonnen	kreativ	engagiert	kuss	gesittet	ausrottung	bange	krank	engstirnig	krise	geizig	1	blank2r.bmp	0	1	+	0	1	blank2r.bmp	500	4	B4r.bmp	500	1	blank2r.bmp	880	1	ausrottung	880	0	0	0	0	0	0	0	0	0	0	0	0
2024-05-07	12:14:57	12:17:24	146522	6.6.1	4_exp_EVA_AWA_CON	16	A	B	Rpleas_acq	Oppo	Rpleas	2pleas	acq_US_pleas_nomask	acq1_nomask	1	27	0	0	300	300	0	0	493	50	1	0	sonnig	träumen	vertrauen	gütig	genießen	vergnügt	sterben	töten	versagen	gierig	gemein	verbissen	anregung	besonnen	kreativ	engagiert	kuss	gesittet	ausrottung	bange	krank	engstirnig	krise	geizig	1	blank2r.bmp	0	1	+	0	1	blank2r.bmp	500	1	DHJF	500	1	blank2r.bmp	880	1	sonnig	880	0	0	0	0	0	0	0	0	0	0	0	0
2024-05-07	12:14:57	12:17:26	148417	6.6.1	4_exp_EVA_AWA_CON	16	A	B	Rpleas_acq	Oppo	Rpleas	2pleas	acq_US_unple_nomask	acq1_nomask	1	28	0	0	300	300	0	0	407	46	1	0	sonnig	träumen	vertrauen	gütig	genießen	vergnügt	sterben	töten	versagen	gierig	gemein	verbissen	anregung	besonnen	kreativ	engagiert	kuss	gesittet	ausrottung	bange	krank	engstirnig	krise	geizig	1	blank2r.bmp	0	1	+	0	1	blank2r.bmp	500	1	CPLW	500	1	blank2r.bmp	880	3	versagen	880	0	0	0	0	0	0	0	0	0	0	0	0
2024-05-07	12:14:57	12:17:28	150466	6.6.1	4_exp_EVA_AWA_CON	16	A	B	Rpleas_acq	Oppo	Rpleas	2pleas	acq_new_pleas_nomask	acq1_nomask	1	29	0	0	300	300	0	0	564	50	1	0	sonnig	träumen	vertrauen	gütig	genießen	vergnügt	sterben	töten	versagen	gierig	gemein	verbissen	anregung	besonnen	kreativ	engagiert	kuss	gesittet	ausrottung	bange	krank	engstirnig	krise	geizig	1	blank2r.bmp	0	1	+	0	1	blank2r.bmp	500	6	C2r.bmp	500	1	blank2r.bmp	880	6	gesittet	880	0	0	0	0	0	0	0	0	0	0	0	0
2024-05-07	12:14:57	12:17:30	152618	6.6.1	4_exp_EVA_AWA_CON	16	A	B	Rpleas_acq	Oppo	Rpleas	2pleas	acq_US_unple_nomask	acq1_nomask	1	30	0	0	300	300	0	0	665	46	1	0	sonnig	träumen	vertrauen	gütig	genießen	vergnügt	sterben	töten	versagen	gierig	gemein	verbissen	anregung	besonnen	kreativ	engagiert	kuss	gesittet	ausrottung	bange	krank	engstirnig	krise	geizig	1	blank2r.bmp	0	1	+	0	1	blank2r.bmp	500	1	CPLW	500	1	blank2r.bmp	880	6	verbissen	880	0	0	0	0	0	0	0	0	0	0	0	0
2024-05-07	12:14:57	12:17:32	154554	6.6.1	4_exp_EVA_AWA_CON	16	A	B	Rpleas_acq	Oppo	Rpleas	2pleas	acq_new_pleas_nomask	acq1_nomask	1	31	0	0	300	300	0	0	449	50	1	0	sonnig	träumen	vertrauen	gütig	genießen	vergnügt	sterben	töten	versagen	gierig	gemein	verbissen	anregung	besonnen	kreativ	engagiert	kuss	gesittet	ausrottung	bange	krank	engstirnig	krise	geizig	1	blank2r.bmp	0	1	+	0	1	blank2r.bmp	500	1	B1r.bmp	500	1	blank2r.bmp	880	5	kuss	880	0	0	0	0	0	0	0	0	0	0	0	0
2024-05-07	12:14:57	12:17:34	156490	6.6.1	4_exp_EVA_AWA_CON	16	A	B	Rpleas_acq	Oppo	Rpleas	2pleas	acq_US_pleas_nomask	acq1_nomask	1	32	0	0	300	300	0	0	454	50	1	0	sonnig	träumen	vertrauen	gütig	genießen	vergnügt	sterben	töten	versagen	gierig	gemein	verbissen	anregung	besonnen	kreativ	engagiert	kuss	gesittet	ausrottung	bange	krank	engstirnig	krise	geizig	1	blank2r.bmp	0	1	+	0	1	blank2r.bmp	500	1	DHJF	500	1	blank2r.bmp	880	5	genießen	880	0	0	0	0	0	0	0	0	0	0	0	0
2024-05-07	12:14:57	12:17:36	158490	6.6.1	4_exp_EVA_AWA_CON	16	A	B	Rpleas_acq	Oppo	Rpleas	2pleas	acq_US_unple_nomask	acq1_nomask	1	33	0	0	300	300	0	0	513	46	1	0	sonnig	träumen	vertrauen	gütig	genießen	vergnügt	sterben	töten	versagen	gierig	gemein	verbissen	anregung	besonnen	kreativ	engagiert	kuss	gesittet	ausrottung	bange	krank	engstirnig	krise	geizig	1	blank2r.bmp	0	1	+	0	1	blank2r.bmp	500	1	CPLW	500	1	blank2r.bmp	880	5	gemein	880	0	0	0	0	0	0	0	0	0	0	0	0
2024-05-07	12:14:57	12:17:38	160449	6.6.1	4_exp_EVA_AWA_CON	16	A	B	Rpleas_acq	Oppo	Rpleas	2pleas	acq_new_unple_nomask	acq1_nomask	1	34	0	0	300	300	0	0	472	46	1	0	sonnig	träumen	vertrauen	gütig	genießen	vergnügt	sterben	töten	versagen	gierig	gemein	verbissen	anregung	besonnen	kreativ	engagiert	kuss	gesittet	ausrottung	bange	krank	engstirnig	krise	geizig	1	blank2r.bmp	0	1	+	0	1	blank2r.bmp	500	5	C1r.bmp	500	1	blank2r.bmp	880	5	krise	880	0	0	0	0	0	0	0	0	0	0	0	0
2024-05-07	12:14:57	12:17:40	162465	6.6.1	4_exp_EVA_AWA_CON	16	A	B	Rpleas_acq	Oppo	Rpleas	2pleas	acq_new_pleas_nomask	acq1_nomask	1	35	0	0	300	300	0	0	526	50	1	0	sonnig	träumen	vertrauen	gütig	genießen	vergnügt	sterben	töten	versagen	gierig	gemein	verbissen	anregung	besonnen	kreativ	engagiert	kuss	gesittet	ausrottung	bange	krank	engstirnig	krise	geizig	1	blank2r.bmp	0	1	+	0	1	blank2r.bmp	500	7	C3r.bmp	500	1	blank2r.bmp	880	4	engagiert	880	0	0	0	0	0	0	0	0	0	0	0	0
2024-05-07	12:14:57	12:17:42	164634	6.6.1	4_exp_EVA_AWA_CON	16	A	B	Rpleas_acq	Oppo	Rpleas	2pleas	acq_new_unple_nomask	acq1_nomask	1	36	0	0	300	300	0	0	683	46	1	0	sonnig	träumen	vertrauen	gütig	genießen	vergnügt	sterben	töten	versagen	gierig	gemein	verbissen	anregung	besonnen	kreativ	engagiert	kuss	gesittet	ausrottung	bange	krank	engstirnig	krise	geizig	1	blank2r.bmp	0	1	+	0	1	blank2r.bmp	500	4	B4r.bmp	500	1	blank2r.bmp	880	2	bange	880	0	0	0	0	0	0	0	0	0	0	0	0
2024-05-07	12:14:57	12:18:06	188043	6.6.1	4_exp_EVA_AWA_CON	16	A	B	Rpleas_acq	Oppo	Rpleas	2pleas	acq_US_unple_nomask	acq2_nomask	2	1	480	0	300	300	0	0	858	46	1	0	sonnig	träumen	vertrauen	gütig	genießen	vergnügt	sterben	töten	versagen	gierig	gemein	verbissen	anregung	besonnen	kreativ	engagiert	kuss	gesittet	ausrottung	bange	krank	engstirnig	krise	geizig	1	blank2r.bmp	0	1	+	0	1	blank2r.bmp	500	1	CPLW	500	1	blank2r.bmp	880	2	töten	880	1	!	1312	1	!	-1	0	0	0	0	0	0
2024-05-07	12:14:57	12:18:08	190203	6.6.1	4_exp_EVA_AWA_CON	16	A	B	Rpleas_acq	Oppo	Rpleas	2pleas	acq_US_pleas_nomask	acq2_nomask	2	2	480	0	300	300	0	0	387	50	1	0	sonnig	träumen	vertrauen	gütig	genießen	vergnügt	sterben	töten	versagen	gierig	gemein	verbissen	anregung	besonnen	kreativ	engagiert	kuss	gesittet	ausrottung	bange	krank	engstirnig	krise	geizig	1	blank2r.bmp	0	1	+	0	1	blank2r.bmp	500	1	DHJF	500	1	blank2r.bmp	880	6	vergnügt	880	1	!	-1	1	!	-1	0	0	0	0	0	0
2024-05-07	12:14:57	12:18:10	192660	6.6.1	4_exp_EVA_AWA_CON	16	A	B	Rpleas_acq	Oppo	Rpleas	2pleas	acq_new_pleas_nomask	acq2_nomask	2	3	480	0	300	300	0	0	681	50	1	0	sonnig	träumen	vertrauen	gütig	genießen	vergnügt	sterben	töten	versagen	gierig	gemein	verbissen	anregung	besonnen	kreativ	engagiert	kuss	gesittet	ausrottung	bange	krank	engstirnig	krise	geizig	1	blank2r.bmp	0	1	+	0	1	blank2r.bmp	500	3	B3r.bmp	500	1	blank2r.bmp	880	1	anregung	880	1	!	1313	1	!	-1	0	0	0	0	0	0
2024-05-07	12:14:57	12:18:12	194844	6.6.1	4_exp_EVA_AWA_CON	16	A	B	Rpleas_acq	Oppo	Rpleas	2pleas	acq_US_pleas_nomask	acq2_nomask	2	4	480	0	300	300	0	0	403	50	1	0	sonnig	träumen	vertrauen	gütig	genießen	vergnügt	sterben	töten	versagen	gierig	gemein	verbissen	anregung	besonnen	kreativ	engagiert	kuss	gesittet	ausrottung	bange	krank	engstirnig	krise	geizig	1	blank2r.bmp	0	1	+	0	1	blank2r.bmp	500	1	DHJF	500	1	blank2r.bmp	880	2	träumen	880	1	!	-1	1	!	-1	0	0	0	0	0	0
2024-05-07	12:14:57	12:18:15	197243	6.6.1	4_exp_EVA_AWA_CON	16	A	B	Rpleas_acq	Oppo	Rpleas	2pleas	acq_new_unple_nomask	acq2_nomask	2	5	480	0	300	300	0	0	622	46	1	0	sonnig	träumen	vertrauen	gütig	genießen	vergnügt	sterben	töten	versagen	gierig	gemein	verbissen	anregung	besonnen	kreativ	engagiert	kuss	gesittet	ausrottung	bange	krank	engstirnig	krise	geizig	1	blank2r.bmp	0	1	+	0	1	blank2r.bmp	500	2	B2r.bmp	500	1	blank2r.bmp	880	3	krank	880	1	!	1313	1	!	-1	0	0	0	0	0	0
2024-05-07	12:14:57	12:18:17	199578	6.6.1	4_exp_EVA_AWA_CON	16	A	B	Rpleas_acq	Oppo	Rpleas	2pleas	acq_new_unple_nomask	acq2_nomask	2	6	480	0	300	300	0	0	557	46	1	0	sonnig	träumen	vertrauen	gütig	genießen	vergnügt	sterben	töten	versagen	gierig	gemein	verbissen	anregung	besonnen	kreativ	engagiert	kuss	gesittet	ausrottung	bange	krank	engstirnig	krise	geizig	1	blank2r.bmp	0	1	+	0	1	blank2r.bmp	500	6	C2r.bmp	500	1	blank2r.bmp	880	6	geizig	880	1	!	1312	1	!	-1	0	0	0	0	0	0
2024-05-07	12:14:57	12:18:19	201691	6.6.1	4_exp_EVA_AWA_CON	16	A	B	Rpleas_acq	Oppo	Rpleas	2pleas	acq_US_pleas_nomask	acq2_nomask	2	7	480	0	300	300	0	0	337	50	1	0	sonnig	träumen	vertrauen	gütig	genießen	vergnügt	sterben	töten	versagen	gierig	gemein	verbissen	anregung	besonnen	kreativ	engagiert	kuss	gesittet	ausrottung	bange	krank	engstirnig	krise	geizig	1	blank2r.bmp	0	1	+	0	1	blank2r.bmp	500	1	DHJF	500	1	blank2r.bmp	880	3	vertrauen	880	1	!	-1	1	!	-1	0	0	0	0	0	0
2024-05-07	12:14:57	12:18:22	204079	6.6.1	4_exp_EVA_AWA_CON	16	A	B	Rpleas_acq	Oppo	Rpleas	2pleas	acq_new_unple_nomask	acq2_nomask	2	8	480	0	300	300	0	0	410	50	0	0	sonnig	träumen	vertrauen	gütig	genießen	vergnügt	sterben	töten	versagen	gierig	gemein	verbissen	anregung	besonnen	kreativ	engagiert	kuss	gesittet	ausrottung	bange	krank	engstirnig	krise	geizig	1	blank2r.bmp	0	1	+	0	1	blank2r.bmp	500	5	C1r.bmp	500	1	blank2r.bmp	880	4	engstirnig	880	1	FEHLER	1604	1	!	-1	1	!	-1	0	0	0
2024-05-07	12:14:57	12:18:24	206190	6.6.1	4_exp_EVA_AWA_CON	16	A	B	Rpleas_acq	Oppo	Rpleas	2pleas	acq_new_pleas_nomask	acq2_nomask	2	9	480	1	300	300	0	0	530	50	1	0	sonnig	träumen	vertrauen	gütig	genießen	vergnügt	sterben	töten	versagen	gierig	gemein	verbissen	anregung	besonnen	kreativ	engagiert	kuss	gesittet	ausrottung	bange	krank	engstirnig	krise	geizig	1	blank2r.bmp	0	1	+	0	1	blank2r.bmp	500	1	B1r.bmp	500	1	blank2r.bmp	880	3	kreativ	880	1	!	1312	1	!	1432	0	0	0	0	0	0
2024-05-07	12:14:57	12:18:26	208611	6.6.1	4_exp_EVA_AWA_CON	16	A	B	Rpleas_acq	Oppo	Rpleas	2pleas	acq_US_unple_nomask	acq2_nomask	2	10	480	0	300	300	0	0	643	46	1	0	sonnig	träumen	vertrauen	gütig	genießen	vergnügt	sterben	töten	versagen	gierig	gemein	verbissen	anregung	besonnen	kreativ	engagiert	kuss	gesittet	ausrottung	bange	krank	engstirnig	krise	geizig	1	blank2r.bmp	0	1	+	0	1	blank2r.bmp	500	1	CPLW	500	1	blank2r.bmp	880	4	gierig	880	1	!	1312	1	!	-1	0	0	0	0	0	0
2024-05-07	12:14:57	12:18:29	210971	6.6.1	4_exp_EVA_AWA_CON	16	A	B	Rpleas_acq	Oppo	Rpleas	2pleas	acq_new_pleas_nomask	acq2_nomask	2	11	480	0	300	300	0	0	581	50	1	0	sonnig	träumen	vertrauen	gütig	genießen	vergnügt	sterben	töten	versagen	gierig	gemein	verbissen	anregung	besonnen	kreativ	engagiert	kuss	gesittet	ausrottung	bange	krank	engstirnig	krise	geizig	1	blank2r.bmp	0	1	+	0	1	blank2r.bmp	500	8	C4r.bmp	500	1	blank2r.bmp	880	2	besonnen	880	1	!	1313	1	!	-1	0	0	0	0	0	0
2024-05-07	12:14:57	12:18:31	213156	6.6.1	4_exp_EVA_AWA_CON	16	A	B	Rpleas_acq	Oppo	Rpleas	2pleas	acq_US_unple_nomask	acq2_nomask	2	12	480	0	300	300	0	0	404	46	1	0	sonnig	träumen	vertrauen	gütig	genießen	vergnügt	sterben	töten	versagen	gierig	gemein	verbissen	anregung	besonnen	kreativ	engagiert	kuss	gesittet	ausrottung	bange	krank	engstirnig	krise	geizig	1	blank2r.bmp	0	1	+	0	1	blank2r.bmp	500	1	CPLW	500	1	blank2r.bmp	880	1	sterben	880	1	!	-1	1	!	-1	0	0	0	0	0	0
2024-05-07	12:14:57	12:18:33	215547	6.6.1	4_exp_EVA_AWA_CON	16	A	B	Rpleas_acq	Oppo	Rpleas	2pleas	acq_new_pleas_nomask	acq2_nomask	2	13	480	0	300	300	0	0	614	50	1	0	sonnig	träumen	vertrauen	gütig	genießen	vergnügt	sterben	töten	versagen	gierig	gemein	verbissen	anregung	besonnen	kreativ	engagiert	kuss	gesittet	ausrottung	bange	krank	engstirnig	krise	geizig	1	blank2r.bmp	0	1	+	0	1	blank2r.bmp	500	6	C2r.bmp	500	1	blank2r.bmp	880	6	gesittet	880	1	!	1312	1	!	-1	0	0	0	0	0	0
2024-05-07	12:14:57	12:18:35	217813	6.6.1	4_exp_EVA_AWA_CON	16	A	B	Rpleas_acq	Oppo	Rpleas	2pleas	acq_new_unple_nomask	acq2_nomask	2	14	480	1	300	300	0	0	487	46	1	0	sonnig	träumen	vertrauen	gütig	genießen	vergnügt	sterben	töten	versagen	gierig	gemein	verbissen	anregung	besonnen	kreativ	engagiert	kuss	gesittet	ausrottung	bange	krank	engstirnig	krise	geizig	1	blank2r.bmp	0	1	+	0	1	blank2r.bmp	500	2	B2r.bmp	500	1	blank2r.bmp	880	1	ausrottung	880	1	!	1313	1	!	1388	0	0	0	0	0	0
2024-05-07	12:14:57	12:18:38	220125	6.6.1	4_exp_EVA_AWA_CON	16	A	B	Rpleas_acq	Oppo	Rpleas	2pleas	acq_US_unple_nomask	acq2_nomask	2	15	480	1	300	300	0	0	537	46	1	0	sonnig	träumen	vertrauen	gütig	genießen	vergnügt	sterben	töten	versagen	gierig	gemein	verbissen	anregung	besonnen	kreativ	engagiert	kuss	gesittet	ausrottung	bange	krank	engstirnig	krise	geizig	1	blank2r.bmp	0	1	+	0	1	blank2r.bmp	500	1	CPLW	500	1	blank2r.bmp	880	6	verbissen	880	1	!	1313	1	!	1439	0	0	0	0	0	0
2024-05-07	12:14:57	12:18:40	222365	6.6.1	4_exp_EVA_AWA_CON	16	A	B	Rpleas_acq	Oppo	Rpleas	2pleas	acq_new_pleas_nomask	acq2_nomask	2	16	480	1	300	300	0	0	466	50	1	0	sonnig	träumen	vertrauen	gütig	genießen	vergnügt	sterben	töten	versagen	gierig	gemein	verbissen	anregung	besonnen	kreativ	engagiert	kuss	gesittet	ausrottung	bange	krank	engstirnig	krise	geizig	1	blank2r.bmp	0	1	+	0	1	blank2r.bmp	500	4	B4r.bmp	500	1	blank2r.bmp	880	5	kuss	880	1	!	1312	1	!	1367	0	0	0	0	0	0
2024-05-07	12:14:57	12:18:42	224771	6.6.1	4_exp_EVA_AWA_CON	16	A	B	Rpleas_acq	Oppo	Rpleas	2pleas	acq_new_unple_nomask	acq2_nomask	2	17	480	0	300	300	0	0	633	46	1	0	sonnig	träumen	vertrauen	gütig	genießen	vergnügt	sterben	töten	versagen	gierig	gemein	verbissen	anregung	besonnen	kreativ	engagiert	kuss	gesittet	ausrottung	bange	krank	engstirnig	krise	geizig	1	blank2r.bmp	0	1	+	0	1	blank2r.bmp	500	7	C3r.bmp	500	1	blank2r.bmp	880	2	bange	880	1	!	1313	1	!	-1	0	0	0	0	0	0
2024-05-07	12:14:57	12:18:45	227085	6.6.1	4_exp_EVA_AWA_CON	16	A	B	Rpleas_acq	Oppo	Rpleas	2pleas	acq_new_unple_nomask	acq2_nomask	2	18	480	1	300	300	0	0	533	46	1	0	sonnig	träumen	vertrauen	gütig	genießen	vergnügt	sterben	töten	versagen	gierig	gemein	verbissen	anregung	besonnen	kreativ	engagiert	kuss	gesittet	ausrottung	bange	krank	engstirnig	krise	geizig	1	blank2r.bmp	0	1	+	0	1	blank2r.bmp	500	1	B1r.bmp	500	1	blank2r.bmp	880	4	engstirnig	880	1	!	1313	1	!	1434	0	0	0	0	0	0
2024-05-07	12:14:57	12:18:47	229459	6.6.1	4_exp_EVA_AWA_CON	16	A	B	Rpleas_acq	Oppo	Rpleas	2pleas	acq_US_pleas_nomask	acq2_nomask	2	19	480	0	300	300	0	0	597	50	1	0	sonnig	träumen	vertrauen	gütig	genießen	vergnügt	sterben	töten	versagen	gierig	gemein	verbissen	anregung	besonnen	kreativ	engagiert	kuss	gesittet	ausrottung	bange	krank	engstirnig	krise	geizig	1	blank2r.bmp	0	1	+	0	1	blank2r.bmp	500	1	DHJF	500	1	blank2r.bmp	880	1	sonnig	880	1	!	1312	1	!	-1	0	0	0	0	0	0
2024-05-07	12:14:57	12:18:49	231773	6.6.1	4_exp_EVA_AWA_CON	16	A	B	Rpleas_acq	Oppo	Rpleas	2pleas	acq_US_pleas_nomask	acq2_nomask	2	20	480	1	300	300	0	0	538	50	1	0	sonnig	träumen	vertrauen	gütig	genießen	vergnügt	sterben	töten	versagen	gierig	gemein	verbissen	anregung	besonnen	kreativ	engagiert	kuss	gesittet	ausrottung	bange	krank	engstirnig	krise	geizig	1	blank2r.bmp	0	1	+	0	1	blank2r.bmp	500	1	DHJF	500	1	blank2r.bmp	880	6	vergnügt	880	1	!	1313	1	!	1439	0	0	0	0	0	0
2024-05-07	12:14:57	12:18:52	234098	6.6.1	4_exp_EVA_AWA_CON	16	A	B	Rpleas_acq	Oppo	Rpleas	2pleas	acq_new_pleas_nomask	acq2_nomask	2	21	480	0	300	300	0	0	555	50	1	0	sonnig	träumen	vertrauen	gütig	genießen	vergnügt	sterben	töten	versagen	gierig	gemein	verbissen	anregung	besonnen	kreativ	engagiert	kuss	gesittet	ausrottung	bange	krank	engstirnig	krise	geizig	1	blank2r.bmp	0	1	+	0	1	blank2r.bmp	500	3	B3r.bmp	500	1	blank2r.bmp	880	2	besonnen	880	1	!	1313	1	!	-1	0	0	0	0	0	0
2024-05-07	12:14:57	12:18:54	236429	6.6.1	4_exp_EVA_AWA_CON	16	A	B	Rpleas_acq	Oppo	Rpleas	2pleas	acq_US_unple_nomask	acq2_nomask	2	22	480	1	300	300	0	0	551	46	1	0	sonnig	träumen	vertrauen	gütig	genießen	vergnügt	sterben	töten	versagen	gierig	gemein	verbissen	anregung	besonnen	kreativ	engagiert	kuss	gesittet	ausrottung	bange	krank	engstirnig	krise	geizig	1	blank2r.bmp	0	1	+	0	1	blank2r.bmp	500	1	CPLW	500	1	blank2r.bmp	880	1	sterben	880	1	!	1312	1	!	1452	0	0	0	0	0	0
2024-05-07	12:14:57	12:18:56	238741	6.6.1	4_exp_EVA_AWA_CON	16	A	B	Rpleas_acq	Oppo	Rpleas	2pleas	acq_US_pleas_nomask	acq2_nomask	2	23	480	1	300	300	0	0	531	50	1	0	sonnig	träumen	vertrauen	gütig	genießen	vergnügt	sterben	töten	versagen	gierig	gemein	verbissen	anregung	besonnen	kreativ	engagiert	kuss	gesittet	ausrottung	bange	krank	engstirnig	krise	geizig	1	blank2r.bmp	0	1	+	0	1	blank2r.bmp	500	1	DHJF	500	1	blank2r.bmp	880	3	vertrauen	880	1	!	1312	1	!	1433	0	0	0	0	0	0
2024-05-07	12:14:57	12:18:59	241022	6.6.1	4_exp_EVA_AWA_CON	16	A	B	Rpleas_acq	Oppo	Rpleas	2pleas	acq_US_unple_nomask	acq2_nomask	2	24	480	1	300	300	0	0	500	46	1	0	sonnig	träumen	vertrauen	gütig	genießen	vergnügt	sterben	töten	versagen	gierig	gemein	verbissen	anregung	besonnen	kreativ	engagiert	kuss	gesittet	ausrottung	bange	krank	engstirnig	krise	geizig	1	blank2r.bmp	0	1	+	0	1	blank2r.bmp	500	1	CPLW	500	1	blank2r.bmp	880	3	versagen	880	1	!	1312	1	!	1402	0	0	0	0	0	0
2024-05-07	12:14:57	12:19:01	243412	6.6.1	4_exp_EVA_AWA_CON	16	A	B	Rpleas_acq	Oppo	Rpleas	2pleas	acq_US_pleas_nomask	acq2_nomask	2	25	480	0	300	300	0	0	611	50	1	0	sonnig	träumen	vertrauen	gütig	genießen	vergnügt	sterben	töten	versagen	gierig	gemein	verbissen	anregung	besonnen	kreativ	engagiert	kuss	gesittet	ausrottung	bange	krank	engstirnig	krise	geizig	1	blank2r.bmp	0	1	+	0	1	blank2r.bmp	500	1	DHJF	500	1	blank2r.bmp	880	5	genießen	880	1	!	1313	1	!	-1	0	0	0	0	0	0
2024-05-07	12:14:57	12:19:03	245709	6.6.1	4_exp_EVA_AWA_CON	16	A	B	Rpleas_acq	Oppo	Rpleas	2pleas	acq_new_unple_nomask	acq2_nomask	2	26	480	1	300	300	0	0	515	46	1	0	sonnig	träumen	vertrauen	gütig	genießen	vergnügt	sterben	töten	versagen	gierig	gemein	verbissen	anregung	besonnen	kreativ	engagiert	kuss	gesittet	ausrottung	bange	krank	engstirnig	krise	geizig	1	blank2r.bmp	0	1	+	0	1	blank2r.bmp	500	5	C1r.bmp	500	1	blank2r.bmp	880	5	krise	880	1	!	1312	1	!	1416	0	0	0	0	0	0
2024-05-07	12:14:57	12:19:06	248099	6.6.1	4_exp_EVA_AWA_CON	16	A	B	Rpleas_acq	Oppo	Rpleas	2pleas	acq_new_pleas_nomask	acq2_nomask	2	27	480	0	300	300	0	0	616	50	1	0	sonnig	träumen	vertrauen	gütig	genießen	vergnügt	sterben	töten	versagen	gierig	gemein	verbissen	anregung	besonnen	kreativ	engagiert	kuss	gesittet	ausrottung	bange	krank	engstirnig	krise	geizig	1	blank2r.bmp	0	1	+	0	1	blank2r.bmp	500	8	C4r.bmp	500	1	blank2r.bmp	880	3	kreativ	880	1	!	1313	1	!	-1	0	0	0	0	0	0
2024-05-07	12:14:57	12:19:08	250373	6.6.1	4_exp_EVA_AWA_CON	16	A	B	Rpleas_acq	Oppo	Rpleas	2pleas	acq_new_pleas_nomask	acq2_nomask	2	28	480	1	300	300	0	0	496	50	1	0	sonnig	träumen	vertrauen	gütig	genießen	vergnügt	sterben	töten	versagen	gierig	gemein	verbissen	anregung	besonnen	kreativ	engagiert	kuss	gesittet	ausrottung	bange	krank	engstirnig	krise	geizig	1	blank2r.bmp	0	1	+	0	1	blank2r.bmp	500	3	B3r.bmp	500	1	blank2r.bmp	880	4	engagiert	880	1	!	1312	1	!	1397	0	0	0	0	0	0
2024-05-07	12:14:57	12:19:10	252598	6.6.1	4_exp_EVA_AWA_CON	16	A	B	Rpleas_acq	Oppo	Rpleas	2pleas	acq_US_pleas_nomask	acq2_nomask	2	29	480	1	300	300	0	0	449	50	1	0	sonnig	träumen	vertrauen	gütig	genießen	vergnügt	sterben	töten	versagen	gierig	gemein	verbissen	anregung	besonnen	kreativ	engagiert	kuss	gesittet	ausrottung	bange	krank	engstirnig	krise	geizig	1	blank2r.bmp	0	1	+	0	1	blank2r.bmp	500	1	DHJF	500	1	blank2r.bmp	880	2	träumen	880	1	!	1312	1	!	1350	0	0	0	0	0	0
2024-05-07	12:14:57	12:19:12	254901	6.6.1	4_exp_EVA_AWA_CON	16	A	B	Rpleas_acq	Oppo	Rpleas	2pleas	acq_US_pleas_nomask	acq2_nomask	2	30	480	1	300	300	0	0	521	50	1	0	sonnig	träumen	vertrauen	gütig	genießen	vergnügt	sterben	töten	versagen	gierig	gemein	verbissen	anregung	besonnen	kreativ	engagiert	kuss	gesittet	ausrottung	bange	krank	engstirnig	krise	geizig	1	blank2r.bmp	0	1	+	0	1	blank2r.bmp	500	1	DHJF	500	1	blank2r.bmp	880	4	gütig	880	1	!	1313	1	!	1423	0	0	0	0	0	0
2024-05-07	12:14:57	12:19:15	257213	6.6.1	4_exp_EVA_AWA_CON	16	A	B	Rpleas_acq	Oppo	Rpleas	2pleas	acq_new_pleas_nomask	acq2_nomask	2	31	480	1	300	300	0	0	532	50	1	0	sonnig	träumen	vertrauen	gütig	genießen	vergnügt	sterben	töten	versagen	gierig	gemein	verbissen	anregung	besonnen	kreativ	engagiert	kuss	gesittet	ausrottung	bange	krank	engstirnig	krise	geizig	1	blank2r.bmp	0	1	+	0	1	blank2r.bmp	500	1	B1r.bmp	500	1	blank2r.bmp	880	1	anregung	880	1	!	1313	1	!	1433	0	0	0	0	0	0
2024-05-07	12:14:57	12:19:17	259695	6.6.1	4_exp_EVA_AWA_CON	16	A	B	Rpleas_acq	Oppo	Rpleas	2pleas	acq_new_unple_nomask	acq2_nomask	2	32	480	1	300	300	0	0	500	50	0	0	sonnig	träumen	vertrauen	gütig	genießen	vergnügt	sterben	töten	versagen	gierig	gemein	verbissen	anregung	besonnen	kreativ	engagiert	kuss	gesittet	ausrottung	bange	krank	engstirnig	krise	geizig	1	blank2r.bmp	0	1	+	0	1	blank2r.bmp	500	7	C3r.bmp	500	1	blank2r.bmp	880	6	geizig	880	1	FEHLER	1694	1	!	1313	1	!	1402	0	0	0
2024-05-07	12:14:57	12:19:19	261749	6.6.1	4_exp_EVA_AWA_CON	16	A	B	Rpleas_acq	Oppo	Rpleas	2pleas	acq_US_unple_nomask	acq2_nomask	2	33	480	1	300	300	0	0	475	46	1	0	sonnig	träumen	vertrauen	gütig	genießen	vergnügt	sterben	töten	versagen	gierig	gemein	verbissen	anregung	besonnen	kreativ	engagiert	kuss	gesittet	ausrottung	bange	krank	engstirnig	krise	geizig	1	blank2r.bmp	0	1	+	0	1	blank2r.bmp	500	1	CPLW	500	1	blank2r.bmp	880	2	töten	880	1	!	1312	1	!	1376	0	0	0	0	0	0
2024-05-07	12:14:57	12:19:22	264082	6.6.1	4_exp_EVA_AWA_CON	16	A	B	Rpleas_acq	Oppo	Rpleas	2pleas	acq_new_unple_nomask	acq2_nomask	2	34	480	0	300	300	0	0	559	46	1	0	sonnig	träumen	vertrauen	gütig	genießen	vergnügt	sterben	töten	versagen	gierig	gemein	verbissen	anregung	besonnen	kreativ	engagiert	kuss	gesittet	ausrottung	bange	krank	engstirnig	krise	geizig	1	blank2r.bmp	0	1	+	0	1	blank2r.bmp	500	5	C1r.bmp	500	1	blank2r.bmp	880	3	krank	880	1	!	1313	1	!	-1	0	0	0	0	0	0
2024-05-07	12:14:57	12:19:24	266325	6.6.1	4_exp_EVA_AWA_CON	16	A	B	Rpleas_acq	Oppo	Rpleas	2pleas	acq_US_unple_nomask	acq2_nomask	2	35	480	1	300	300	0	0	468	46	1	0	sonnig	träumen	vertrauen	gütig	genießen	vergnügt	sterben	töten	versagen	gierig	gemein	verbissen	anregung	besonnen	kreativ	engagiert	kuss	gesittet	ausrottung	bange	krank	engstirnig	krise	geizig	1	blank2r.bmp	0	1	+	0	1	blank2r.bmp	500	1	CPLW	500	1	blank2r.bmp	880	4	gierig	880	1	!	1313	1	!	1369	0	0	0	0	0	0
2024-05-07	12:14:57	12:19:26	268645	6.6.1	4_exp_EVA_AWA_CON	16	A	B	Rpleas_acq	Oppo	Rpleas	2pleas	acq_US_unple_nomask	acq2_nomask	2	36	480	1	300	300	0	0	536	46	1	0	sonnig	träumen	vertrauen	gütig	genießen	vergnügt	sterben	töten	versagen	gierig	gemein	verbissen	anregung	besonnen	kreativ	engagiert	kuss	gesittet	ausrottung	bange	krank	engstirnig	krise	geizig	1	blank2r.bmp	0	1	+	0	1	blank2r.bmp	500	1	CPLW	500	1	blank2r.bmp	880	5	gemein	880	1	!	1313	1	!	1438	0	0	0	0	0	0
2024-05-07	12:14:57	12:19:38	280419	6.6.1	4_exp_EVA_AWA_CON	16	A	B	Rpleas_acq	Oppo	Rpleas	2pleas	acq_US_pleas_nomask	acq3_nomask	3	1	453	0	300	300	0	0	555	50	1	0	sonnig	träumen	vertrauen	gütig	genießen	vergnügt	sterben	töten	versagen	gierig	gemein	verbissen	anregung	besonnen	kreativ	engagiert	kuss	gesittet	ausrottung	bange	krank	engstirnig	krise	geizig	1	blank2r.bmp	0	1	+	0	1	blank2r.bmp	500	1	DHJF	500	1	blank2r.bmp	880	5	genießen	880	1	!	1292	1	!	-1	0	0	0	0	0	0
2024-05-07	12:14:57	12:19:40	282693	6.6.1	4_exp_EVA_AWA_CON	16	A	B	Rpleas_acq	Oppo	Rpleas	2pleas	acq_US_unple_nomask	acq3_nomask	3	2	453	1	300	300	0	0	495	46	1	0	sonnig	träumen	vertrauen	gütig	genießen	vergnügt	sterben	töten	versagen	gierig	gemein	verbissen	anregung	besonnen	kreativ	engagiert	kuss	gesittet	ausrottung	bange	krank	engstirnig	krise	geizig	1	blank2r.bmp	0	1	+	0	1	blank2r.bmp	500	1	CPLW	500	1	blank2r.bmp	880	4	gierig	880	1	!	1293	1	!	1396	0	0	0	0	0	0
2024-05-07	12:14:57	12:19:43	284933	6.6.1	4_exp_EVA_AWA_CON	16	A	B	Rpleas_acq	Oppo	Rpleas	2pleas	acq_US_unple_nomask	acq3_nomask	3	3	453	1	300	300	0	0	464	46	1	0	sonnig	träumen	vertrauen	gütig	genießen	vergnügt	sterben	töten	versagen	gierig	gemein	verbissen	anregung	besonnen	kreativ	engagiert	kuss	gesittet	ausrottung	bange	krank	engstirnig	krise	geizig	1	blank2r.bmp	0	1	+	0	1	blank2r.bmp	500	1	CPLW	500	1	blank2r.bmp	880	3	versagen	880	1	!	1292	1	!	1365	0	0	0	0	0	0
2024-05-07	12:14:57	12:19:45	287125	6.6.1	4_exp_EVA_AWA_CON	16	A	B	Rpleas_acq	Oppo	Rpleas	2pleas	acq_US_pleas_nomask	acq3_nomask	3	4	453	1	300	300	0	0	414	50	1	0	sonnig	träumen	vertrauen	gütig	genießen	vergnügt	sterben	töten	versagen	gierig	gemein	verbissen	anregung	besonnen	kreativ	engagiert	kuss	gesittet	ausrottung	bange	krank	engstirnig	krise	geizig	1	blank2r.bmp	0	1	+	0	1	blank2r.bmp	500	1	DHJF	500	1	blank2r.bmp	880	4	gütig	880	1	!	1292	1	!	1315	0	0	0	0	0	0
2024-05-07	12:14:57	12:19:47	289333	6.6.1	4_exp_EVA_AWA_CON	16	A	B	Rpleas_acq	Oppo	Rpleas	2pleas	acq_US_pleas_nomask	acq3_nomask	3	5	453	1	300	300	0	0	431	50	1	0	sonnig	träumen	vertrauen	gütig	genießen	vergnügt	sterben	töten	versagen	gierig	gemein	verbissen	anregung	besonnen	kreativ	engagiert	kuss	gesittet	ausrottung	bange	krank	engstirnig	krise	geizig	1	blank2r.bmp	0	1	+	0	1	blank2r.bmp	500	1	DHJF	500	1	blank2r.bmp	880	6	vergnügt	880	1	!	1293	1	!	1333	0	0	0	0	0	0
2024-05-07	12:14:57	12:19:49	291667	6.6.1	4_exp_EVA_AWA_CON	16	A	B	Rpleas_acq	Oppo	Rpleas	2pleas	acq_US_unple_nomask	acq3_nomask	3	6	453	0	300	300	0	0	555	46	1	0	sonnig	träumen	vertrauen	gütig	genießen	vergnügt	sterben	töten	versagen	gierig	gemein	verbissen	anregung	besonnen	kreativ	engagiert	kuss	gesittet	ausrottung	bange	krank	engstirnig	krise	geizig	1	blank2r.bmp	0	1	+	0	1	blank2r.bmp	500	1	CPLW	500	1	blank2r.bmp	880	6	verbissen	880	1	!	1292	1	!	-1	0	0	0	0	0	0
2024-05-07	12:14:57	12:19:52	293926	6.6.1	4_exp_EVA_AWA_CON	16	A	B	Rpleas_acq	Oppo	Rpleas	2pleas	acq_US_unple_nomask	acq3_nomask	3	7	453	1	300	300	0	0	480	46	1	0	sonnig	träumen	vertrauen	gütig	genießen	vergnügt	sterben	töten	versagen	gierig	gemein	verbissen	anregung	besonnen	kreativ	engagiert	kuss	gesittet	ausrottung	bange	krank	engstirnig	krise	geizig	1	blank2r.bmp	0	1	+	0	1	blank2r.bmp	500	1	CPLW	500	1	blank2r.bmp	880	1	sterben	880	1	!	1292	1	!	1382	0	0	0	0	0	0
2024-05-07	12:14:57	12:19:54	296267	6.6.1	4_exp_EVA_AWA_CON	16	A	B	Rpleas_acq	Oppo	Rpleas	2pleas	acq_US_unple_nomask	acq3_nomask	3	8	453	0	300	300	0	0	563	46	1	0	sonnig	träumen	vertrauen	gütig	genießen	vergnügt	sterben	töten	versagen	gierig	gemein	verbissen	anregung	besonnen	kreativ	engagiert	kuss	gesittet	ausrottung	bange	krank	engstirnig	krise	geizig	1	blank2r.bmp	0	1	+	0	1	blank2r.bmp	500	1	CPLW	500	1	blank2r.bmp	880	2	töten	880	1	!	1292	1	!	-1	0	0	0	0	0	0
2024-05-07	12:14:57	12:19:56	298485	6.6.1	4_exp_EVA_AWA_CON	16	A	B	Rpleas_acq	Oppo	Rpleas	2pleas	acq_US_pleas_nomask	acq3_nomask	3	9	453	1	300	300	0	0	437	50	1	0	sonnig	träumen	vertrauen	gütig	genießen	vergnügt	sterben	töten	versagen	gierig	gemein	verbissen	anregung	besonnen	kreativ	engagiert	kuss	gesittet	ausrottung	bange	krank	engstirnig	krise	geizig	1	blank2r.bmp	0	1	+	0	1	blank2r.bmp	500	1	DHJF	500	1	blank2r.bmp	880	1	sonnig	880	1	!	1293	1	!	1338	0	0	0	0	0	0
2024-05-07	12:14:57	12:19:58	300644	6.6.1	4_exp_EVA_AWA_CON	16	A	B	Rpleas_acq	Oppo	Rpleas	2pleas	acq_US_unple_nomask	acq3_nomask	3	10	453	0	300	300	0	0	386	46	1	0	sonnig	träumen	vertrauen	gütig	genießen	vergnügt	sterben	töten	versagen	gierig	gemein	verbissen	anregung	besonnen	kreativ	engagiert	kuss	gesittet	ausrottung	bange	krank	engstirnig	krise	geizig	1	blank2r.bmp	0	1	+	0	1	blank2r.bmp	500	1	CPLW	500	1	blank2r.bmp	880	5	gemein	880	1	!	-1	1	!	-1	0	0	0	0	0	0
2024-05-07	12:14:57	12:20:01	302917	6.6.1	4_exp_EVA_AWA_CON	16	A	B	Rpleas_acq	Oppo	Rpleas	2pleas	acq_US_pleas_nomask	acq3_nomask	3	11	453	1	300	300	0	0	496	50	1	0	sonnig	träumen	vertrauen	gütig	genießen	vergnügt	sterben	töten	versagen	gierig	gemein	verbissen	anregung	besonnen	kreativ	engagiert	kuss	gesittet	ausrottung	bange	krank	engstirnig	krise	geizig	1	blank2r.bmp	0	1	+	0	1	blank2r.bmp	500	1	DHJF	500	1	blank2r.bmp	880	2	träumen	880	1	!	1292	1	!	1397	0	0	0	0	0	0
2024-05-07	12:14:57	12:20:04	306859	6.6.1	4_exp_EVA_AWA_CON	16	A	B	Rpleas_acq	Oppo	Rpleas	2pleas	acq_US_pleas_nomask	acq3_nomask	3	12	453	0	300	300	0	0	2169	50	1	0	sonnig	träumen	vertrauen	gütig	genießen	vergnügt	sterben	töten	versagen	gierig	gemein	verbissen	anregung	besonnen	kreativ	engagiert	kuss	gesittet	ausrottung	bange	krank	engstirnig	krise	geizig	1	blank2r.bmp	0	1	+	0	1	blank2r.bmp	500	1	DHJF	500	1	blank2r.bmp	880	3	vertrauen	880	1	!	1293	1	!	-1	0	0	0	0	0	0
2024-05-07	12:14:57	12:20:07	309162	6.6.1	4_exp_EVA_AWA_CON	16	A	B	Rpleas_acq	Oppo	Rpleas	2pleas	acq_US_unple_nomask	acq3_nomask	3	13	453	0	300	300	0	0	530	46	1	0	sonnig	träumen	vertrauen	gütig	genießen	vergnügt	sterben	töten	versagen	gierig	gemein	verbissen	anregung	besonnen	kreativ	engagiert	kuss	gesittet	ausrottung	bange	krank	engstirnig	krise	geizig	1	blank2r.bmp	0	1	+	0	1	blank2r.bmp	500	1	CPLW	500	1	blank2r.bmp	880	2	töten	880	1	!	1292	1	!	-1	0	0	0	0	0	0
2024-05-07	12:14:57	12:20:09	311421	6.6.1	4_exp_EVA_AWA_CON	16	A	B	Rpleas_acq	Oppo	Rpleas	2pleas	acq_US_pleas_nomask	acq3_nomask	3	14	453	1	300	300	0	0	485	50	1	0	sonnig	träumen	vertrauen	gütig	genießen	vergnügt	sterben	töten	versagen	gierig	gemein	verbissen	anregung	besonnen	kreativ	engagiert	kuss	gesittet	ausrottung	bange	krank	engstirnig	krise	geizig	1	blank2r.bmp	0	1	+	0	1	blank2r.bmp	500	1	DHJF	500	1	blank2r.bmp	880	6	vergnügt	880	1	!	1293	1	!	1386	0	0	0	0	0	0
2024-05-07	12:14:57	12:20:11	313653	6.6.1	4_exp_EVA_AWA_CON	16	A	B	Rpleas_acq	Oppo	Rpleas	2pleas	acq_US_unple_nomask	acq3_nomask	3	15	453	1	300	300	0	0	455	46	1	0	sonnig	träumen	vertrauen	gütig	genießen	vergnügt	sterben	töten	versagen	gierig	gemein	verbissen	anregung	besonnen	kreativ	engagiert	kuss	gesittet	ausrottung	bange	krank	engstirnig	krise	geizig	1	blank2r.bmp	0	1	+	0	1	blank2r.bmp	500	1	CPLW	500	1	blank2r.bmp	880	5	gemein	880	1	!	1292	1	!	1356	0	0	0	0	0	0
2024-05-07	12:14:57	12:20:13	315861	6.6.1	4_exp_EVA_AWA_CON	16	A	B	Rpleas_acq	Oppo	Rpleas	2pleas	acq_US_pleas_nomask	acq3_nomask	3	16	453	1	300	300	0	0	432	50	1	0	sonnig	träumen	vertrauen	gütig	genießen	vergnügt	sterben	töten	versagen	gierig	gemein	verbissen	anregung	besonnen	kreativ	engagiert	kuss	gesittet	ausrottung	bange	krank	engstirnig	krise	geizig	1	blank2r.bmp	0	1	+	0	1	blank2r.bmp	500	1	DHJF	500	1	blank2r.bmp	880	2	träumen	880	1	!	1292	1	!	1333	0	0	0	0	0	0
2024-05-07	12:14:57	12:20:16	318102	6.6.1	4_exp_EVA_AWA_CON	16	A	B	Rpleas_acq	Oppo	Rpleas	2pleas	acq_US_pleas_nomask	acq3_nomask	3	17	453	1	300	300	0	0	460	50	1	0	sonnig	träumen	vertrauen	gütig	genießen	vergnügt	sterben	töten	versagen	gierig	gemein	verbissen	anregung	besonnen	kreativ	engagiert	kuss	gesittet	ausrottung	bange	krank	engstirnig	krise	geizig	1	blank2r.bmp	0	1	+	0	1	blank2r.bmp	500	1	DHJF	500	1	blank2r.bmp	880	3	vertrauen	880	1	!	1292	1	!	1362	0	0	0	0	0	0
2024-05-07	12:14:57	12:20:18	320373	6.6.1	4_exp_EVA_AWA_CON	16	A	B	Rpleas_acq	Oppo	Rpleas	2pleas	acq_US_pleas_nomask	acq3_nomask	3	18	453	1	300	300	0	0	491	50	1	0	sonnig	träumen	vertrauen	gütig	genießen	vergnügt	sterben	töten	versagen	gierig	gemein	verbissen	anregung	besonnen	kreativ	engagiert	kuss	gesittet	ausrottung	bange	krank	engstirnig	krise	geizig	1	blank2r.bmp	0	1	+	0	1	blank2r.bmp	500	1	DHJF	500	1	blank2r.bmp	880	5	genießen	880	1	!	1292	1	!	1393	0	0	0	0	0	0
2024-05-07	12:14:57	12:20:20	322783	6.6.1	4_exp_EVA_AWA_CON	16	A	B	Rpleas_acq	Oppo	Rpleas	2pleas	acq_US_unple_nomask	acq3_nomask	3	19	453	1	300	300	0	0	428	50	0	0	sonnig	träumen	vertrauen	gütig	genießen	vergnügt	sterben	töten	versagen	gierig	gemein	verbissen	anregung	besonnen	kreativ	engagiert	kuss	gesittet	ausrottung	bange	krank	engstirnig	krise	geizig	1	blank2r.bmp	0	1	+	0	1	blank2r.bmp	500	1	CPLW	500	1	blank2r.bmp	880	3	versagen	880	1	FEHLER	1621	1	!	1293	1	!	1329	0	0	0
2024-05-07	12:14:57	12:20:22	324699	6.6.1	4_exp_EVA_AWA_CON	16	A	B	Rpleas_acq	Oppo	Rpleas	2pleas	acq_US_unple_nomask	acq3_nomask	3	20	453	0	300	300	0	0	346	46	1	0	sonnig	träumen	vertrauen	gütig	genießen	vergnügt	sterben	töten	versagen	gierig	gemein	verbissen	anregung	besonnen	kreativ	engagiert	kuss	gesittet	ausrottung	bange	krank	engstirnig	krise	geizig	1	blank2r.bmp	0	1	+	0	1	blank2r.bmp	500	1	CPLW	500	1	blank2r.bmp	880	6	verbissen	880	1	!	-1	1	!	-1	0	0	0	0	0	0
2024-05-07	12:14:57	12:20:24	326859	6.6.1	4_exp_EVA_AWA_CON	16	A	B	Rpleas_acq	Oppo	Rpleas	2pleas	acq_US_unple_nomask	acq3_nomask	3	21	453	0	300	300	0	0	385	46	1	0	sonnig	träumen	vertrauen	gütig	genießen	vergnügt	sterben	töten	versagen	gierig	gemein	verbissen	anregung	besonnen	kreativ	engagiert	kuss	gesittet	ausrottung	bange	krank	engstirnig	krise	geizig	1	blank2r.bmp	0	1	+	0	1	blank2r.bmp	500	1	CPLW	500	1	blank2r.bmp	880	1	sterben	880	1	!	-1	1	!	-1	0	0	0	0	0	0
2024-05-07	12:14:57	12:20:27	329125	6.6.1	4_exp_EVA_AWA_CON	16	A	B	Rpleas_acq	Oppo	Rpleas	2pleas	acq_US_pleas_nomask	acq3_nomask	3	22	453	1	300	300	0	0	487	50	1	0	sonnig	träumen	vertrauen	gütig	genießen	vergnügt	sterben	töten	versagen	gierig	gemein	verbissen	anregung	besonnen	kreativ	engagiert	kuss	gesittet	ausrottung	bange	krank	engstirnig	krise	geizig	1	blank2r.bmp	0	1	+	0	1	blank2r.bmp	500	1	DHJF	500	1	blank2r.bmp	880	4	gütig	880	1	!	1293	1	!	1389	0	0	0	0	0	0
2024-05-07	12:14:57	12:20:29	331381	6.6.1	4_exp_EVA_AWA_CON	16	A	B	Rpleas_acq	Oppo	Rpleas	2pleas	acq_US_pleas_nomask	acq3_nomask	3	23	453	1	300	300	0	0	472	50	1	0	sonnig	träumen	vertrauen	gütig	genießen	vergnügt	sterben	töten	versagen	gierig	gemein	verbissen	anregung	besonnen	kreativ	engagiert	kuss	gesittet	ausrottung	bange	krank	engstirnig	krise	geizig	1	blank2r.bmp	0	1	+	0	1	blank2r.bmp	500	1	DHJF	500	1	blank2r.bmp	880	1	sonnig	880	1	!	1292	1	!	1373	0	0	0	0	0	0
2024-05-07	12:14:57	12:20:31	333613	6.6.1	4_exp_EVA_AWA_CON	16	A	B	Rpleas_acq	Oppo	Rpleas	2pleas	acq_US_unple_nomask	acq3_nomask	3	24	453	1	300	300	0	0	452	46	1	0	sonnig	träumen	vertrauen	gütig	genießen	vergnügt	sterben	töten	versagen	gierig	gemein	verbissen	anregung	besonnen	kreativ	engagiert	kuss	gesittet	ausrottung	bange	krank	engstirnig	krise	geizig	1	blank2r.bmp	0	1	+	0	1	blank2r.bmp	500	1	CPLW	500	1	blank2r.bmp	880	4	gierig	880	1	!	1293	1	!	1354	0	0	0	0	0	0
2024-05-07	12:14:57	12:20:34	335939	6.6.1	4_exp_EVA_AWA_CON	16	A	B	Rpleas_acq	Oppo	Rpleas	2pleas	acq_US_pleas_nomask	acq3_nomask	3	25	453	0	300	300	0	0	549	50	1	0	sonnig	träumen	vertrauen	gütig	genießen	vergnügt	sterben	töten	versagen	gierig	gemein	verbissen	anregung	besonnen	kreativ	engagiert	kuss	gesittet	ausrottung	bange	krank	engstirnig	krise	geizig	1	blank2r.bmp	0	1	+	0	1	blank2r.bmp	500	1	DHJF	500	1	blank2r.bmp	880	3	vertrauen	880	1	!	1292	1	!	-1	0	0	0	0	0	0
2024-05-07	12:14:57	12:20:36	338027	6.6.1	4_exp_EVA_AWA_CON	16	A	B	Rpleas_acq	Oppo	Rpleas	2pleas	acq_US_pleas_nomask	acq3_nomask	3	26	453	0	300	300	0	0	316	50	1	0	sonnig	träumen	vertrauen	gütig	genießen	vergnügt	sterben	töten	versagen	gierig	gemein	verbissen	anregung	besonnen	kreativ	engagiert	kuss	gesittet	ausrottung	bange	krank	engstirnig	krise	geizig	1	blank2r.bmp	0	1	+	0	1	blank2r.bmp	500	1	DHJF	500	1	blank2r.bmp	880	1	sonnig	880	1	!	-1	1	!	-1	0	0	0	0	0	0
2024-05-07	12:14:57	12:20:38	340286	6.6.1	4_exp_EVA_AWA_CON	16	A	B	Rpleas_acq	Oppo	Rpleas	2pleas	acq_US_unple_nomask	acq3_nomask	3	27	453	1	300	300	0	0	480	46	1	0	sonnig	träumen	vertrauen	gütig	genießen	vergnügt	sterben	töten	versagen	gierig	gemein	verbissen	anregung	besonnen	kreativ	engagiert	kuss	gesittet	ausrottung	bange	krank	engstirnig	krise	geizig	1	blank2r.bmp	0	1	+	0	1	blank2r.bmp	500	1	CPLW	500	1	blank2r.bmp	880	5	gemein	880	1	!	1292	1	!	1382	0	0	0	0	0	0
2024-05-07	12:14:57	12:20:40	342478	6.6.1	4_exp_EVA_AWA_CON	16	A	B	Rpleas_acq	Oppo	Rpleas	2pleas	acq_US_unple_nomask	acq3_nomask	3	28	453	1	300	300	0	0	411	46	1	0	sonnig	träumen	vertrauen	gütig	genießen	vergnügt	sterben	töten	versagen	gierig	gemein	verbissen	anregung	besonnen	kreativ	engagiert	kuss	gesittet	ausrottung	bange	krank	engstirnig	krise	geizig	1	blank2r.bmp	0	1	+	0	1	blank2r.bmp	500	1	CPLW	500	1	blank2r.bmp	880	1	sterben	880	1	!	1292	1	!	1312	0	0	0	0	0	0
2024-05-07	12:14:57	12:20:42	344709	6.6.1	4_exp_EVA_AWA_CON	16	A	B	Rpleas_acq	Oppo	Rpleas	2pleas	acq_US_pleas_nomask	acq3_nomask	3	29	453	1	300	300	0	0	451	50	1	0	sonnig	träumen	vertrauen	gütig	genießen	vergnügt	sterben	töten	versagen	gierig	gemein	verbissen	anregung	besonnen	kreativ	engagiert	kuss	gesittet	ausrottung	bange	krank	engstirnig	krise	geizig	1	blank2r.bmp	0	1	+	0	1	blank2r.bmp	500	1	DHJF	500	1	blank2r.bmp	880	5	genießen	880	1	!	1292	1	!	1353	0	0	0	0	0	0
2024-05-07	12:14:57	12:20:45	347009	6.6.1	4_exp_EVA_AWA_CON	16	A	B	Rpleas_acq	Oppo	Rpleas	2pleas	acq_US_pleas_nomask	acq3_nomask	3	30	453	0	300	300	0	0	524	50	1	0	sonnig	träumen	vertrauen	gütig	genießen	vergnügt	sterben	töten	versagen	gierig	gemein	verbissen	anregung	besonnen	kreativ	engagiert	kuss	gesittet	ausrottung	bange	krank	engstirnig	krise	geizig	1	blank2r.bmp	0	1	+	0	1	blank2r.bmp	500	1	DHJF	500	1	blank2r.bmp	880	6	vergnügt	880	1	!	1293	1	!	-1	0	0	0	0	0	0
2024-05-07	12:14:57	12:20:47	349323	6.6.1	4_exp_EVA_AWA_CON	16	A	B	Rpleas_acq	Oppo	Rpleas	2pleas	acq_US_unple_nomask	acq3_nomask	3	31	453	0	300	300	0	0	534	46	1	0	sonnig	träumen	vertrauen	gütig	genießen	vergnügt	sterben	töten	versagen	gierig	gemein	verbissen	anregung	besonnen	kreativ	engagiert	kuss	gesittet	ausrottung	bange	krank	engstirnig	krise	geizig	1	blank2r.bmp	0	1	+	0	1	blank2r.bmp	500	1	CPLW	500	1	blank2r.bmp	880	4	gierig	880	1	!	1293	1	!	-1	0	0	0	0	0	0
2024-05-07	12:14:57	12:20:49	351573	6.6.1	4_exp_EVA_AWA_CON	16	A	B	Rpleas_acq	Oppo	Rpleas	2pleas	acq_US_unple_nomask	acq3_nomask	3	32	453	1	300	300	0	0	471	46	1	0	sonnig	träumen	vertrauen	gütig	genießen	vergnügt	sterben	töten	versagen	gierig	gemein	verbissen	anregung	besonnen	kreativ	engagiert	kuss	gesittet	ausrottung	bange	krank	engstirnig	krise	geizig	1	blank2r.bmp	0	1	+	0	1	blank2r.bmp	500	1	CPLW	500	1	blank2r.bmp	880	3	versagen	880	1	!	1292	1	!	1372	0	0	0	0	0	0
2024-05-07	12:14:57	12:20:51	353845	6.6.1	4_exp_EVA_AWA_CON	16	A	B	Rpleas_acq	Oppo	Rpleas	2pleas	acq_US_unple_nomask	acq3_nomask	3	33	453	1	300	300	0	0	492	46	1	0	sonnig	träumen	vertrauen	gütig	genießen	vergnügt	sterben	töten	versagen	gierig	gemein	verbissen	anregung	besonnen	kreativ	engagiert	kuss	gesittet	ausrottung	bange	krank	engstirnig	krise	geizig	1	blank2r.bmp	0	1	+	0	1	blank2r.bmp	500	1	CPLW	500	1	blank2r.bmp	880	2	töten	880	1	!	1292	1	!	1393	0	0	0	0	0	0
2024-05-07	12:14:57	12:20:54	356133	6.6.1	4_exp_EVA_AWA_CON	16	A	B	Rpleas_acq	Oppo	Rpleas	2pleas	acq_US_pleas_nomask	acq3_nomask	3	34	453	1	300	300	0	0	508	50	1	0	sonnig	träumen	vertrauen	gütig	genießen	vergnügt	sterben	töten	versagen	gierig	gemein	verbissen	anregung	besonnen	kreativ	engagiert	kuss	gesittet	ausrottung	bange	krank	engstirnig	krise	geizig	1	blank2r.bmp	0	1	+	0	1	blank2r.bmp	500	1	DHJF	500	1	blank2r.bmp	880	2	träumen	880	1	!	1292	1	!	1409	0	0	0	0	0	0
2024-05-07	12:14:57	12:20:56	358259	6.6.1	4_exp_EVA_AWA_CON	16	A	B	Rpleas_acq	Oppo	Rpleas	2pleas	acq_US_pleas_nomask	acq3_nomask	3	35	453	0	300	300	0	0	345	50	1	0	sonnig	träumen	vertrauen	gütig	genießen	vergnügt	sterben	töten	versagen	gierig	gemein	verbissen	anregung	besonnen	kreativ	engagiert	kuss	gesittet	ausrottung	bange	krank	engstirnig	krise	geizig	1	blank2r.bmp	0	1	+	0	1	blank2r.bmp	500	1	DHJF	500	1	blank2r.bmp	880	4	gütig	880	1	!	-1	1	!	-1	0	0	0	0	0	0
2024-05-07	12:14:57	12:20:58	360557	6.6.1	4_exp_EVA_AWA_CON	16	A	B	Rpleas_acq	Oppo	Rpleas	2pleas	acq_US_unple_nomask	acq3_nomask	3	36	453	1	300	300	0	0	519	46	1	0	sonnig	träumen	vertrauen	gütig	genießen	vergnügt	sterben	töten	versagen	gierig	gemein	verbissen	anregung	besonnen	kreativ	engagiert	kuss	gesittet	ausrottung	bange	krank	engstirnig	krise	geizig	1	blank2r.bmp	0	1	+	0	1	blank2r.bmp	500	1	CPLW	500	1	blank2r.bmp	880	6	verbissen	880	1	!	1293	1	!	1420	0	0	0	0	0	0
2024-05-07	12:14:57	12:21:09	371907	6.6.1	4_exp_EVA_AWA_CON	16	A	B	Rpleas_acq	Oppo	Rpleas	2pleas	acq_US_unple_nomask	acq45_nomask	4	1	400	0	300	300	0	0	514	46	1	0	sonnig	träumen	vertrauen	gütig	genießen	vergnügt	sterben	töten	versagen	gierig	gemein	verbissen	anregung	besonnen	kreativ	engagiert	kuss	gesittet	ausrottung	bange	krank	engstirnig	krise	geizig	1	blank2r.bmp	0	1	+	0	1	blank2r.bmp	500	1	CPLW	500	1	blank2r.bmp	880	3	versagen	880	1	!	1233	1	!	-1	0	0	0	0	0	0
2024-05-07	12:14:57	12:21:12	374078	6.6.1	4_exp_EVA_AWA_CON	16	A	B	Rpleas_acq	Oppo	Rpleas	2pleas	acq_US_pleas_nomask	acq45_nomask	4	2	400	1	300	300	0	0	390	50	1	0	sonnig	träumen	vertrauen	gütig	genießen	vergnügt	sterben	töten	versagen	gierig	gemein	verbissen	anregung	besonnen	kreativ	engagiert	kuss	gesittet	ausrottung	bange	krank	engstirnig	krise	geizig	1	blank2r.bmp	0	1	+	0	1	blank2r.bmp	500	1	DHJF	500	1	blank2r.bmp	880	2	träumen	880	1	!	1232	1	!	1292	0	0	0	0	0	0
2024-05-07	12:14:57	12:21:14	376221	6.6.1	4_exp_EVA_AWA_CON	16	A	B	Rpleas_acq	Oppo	Rpleas	2pleas	acq_US_unple_nomask	acq45_nomask	4	3	400	1	300	300	0	0	363	46	1	0	sonnig	träumen	vertrauen	gütig	genießen	vergnügt	sterben	töten	versagen	gierig	gemein	verbissen	anregung	besonnen	kreativ	engagiert	kuss	gesittet	ausrottung	bange	krank	engstirnig	krise	geizig	1	blank2r.bmp	0	1	+	0	1	blank2r.bmp	500	1	CPLW	500	1	blank2r.bmp	880	5	gemein	880	1	!	1232	1	!	1264	0	0	0	0	0	0
2024-05-07	12:14:57	12:21:16	378381	6.6.1	4_exp_EVA_AWA_CON	16	A	B	Rpleas_acq	Oppo	Rpleas	2pleas	acq_US_pleas_nomask	acq45_nomask	4	4	400	1	300	300	0	0	382	50	1	0	sonnig	träumen	vertrauen	gütig	genießen	vergnügt	sterben	töten	versagen	gierig	gemein	verbissen	anregung	besonnen	kreativ	engagiert	kuss	gesittet	ausrottung	bange	krank	engstirnig	krise	geizig	1	blank2r.bmp	0	1	+	0	1	blank2r.bmp	500	1	DHJF	500	1	blank2r.bmp	880	3	vertrauen	880	1	!	1232	1	!	1283	0	0	0	0	0	0
2024-05-07	12:14:57	12:21:18	380605	6.6.1	4_exp_EVA_AWA_CON	16	A	B	Rpleas_acq	Oppo	Rpleas	2pleas	acq_US_unple_nomask	acq45_nomask	4	5	400	1	300	300	0	0	444	46	1	0	sonnig	träumen	vertrauen	gütig	genießen	vergnügt	sterben	töten	versagen	gierig	gemein	verbissen	anregung	besonnen	kreativ	engagiert	kuss	gesittet	ausrottung	bange	krank	engstirnig	krise	geizig	1	blank2r.bmp	0	1	+	0	1	blank2r.bmp	500	1	CPLW	500	1	blank2r.bmp	880	2	töten	880	1	!	1232	1	!	1345	0	0	0	0	0	0
2024-05-07	12:14:57	12:21:20	382829	6.6.1	4_exp_EVA_AWA_CON	16	A	B	Rpleas_acq	Oppo	Rpleas	2pleas	acq_US_pleas_nomask	acq45_nomask	4	6	400	1	300	300	0	0	447	50	1	0	sonnig	träumen	vertrauen	gütig	genießen	vergnügt	sterben	töten	versagen	gierig	gemein	verbissen	anregung	besonnen	kreativ	engagiert	kuss	gesittet	ausrottung	bange	krank	engstirnig	krise	geizig	1	blank2r.bmp	0	1	+	0	1	blank2r.bmp	500	1	DHJF	500	1	blank2r.bmp	880	1	sonnig	880	1	!	1232	1	!	1348	0	0	0	0	0	0
2024-05-07	12:14:57	12:21:23	385053	6.6.1	4_exp_EVA_AWA_CON	16	A	B	Rpleas_acq	Oppo	Rpleas	2pleas	acq_US_unple_nomask	acq45_nomask	4	7	400	1	300	300	0	0	449	46	1	0	sonnig	träumen	vertrauen	gütig	genießen	vergnügt	sterben	töten	versagen	gierig	gemein	verbissen	anregung	besonnen	kreativ	engagiert	kuss	gesittet	ausrottung	bange	krank	engstirnig	krise	geizig	1	blank2r.bmp	0	1	+	0	1	blank2r.bmp	500	1	CPLW	500	1	blank2r.bmp	880	4	gierig	880	1	!	1232	1	!	1351	0	0	0	0	0	0
2024-05-07	12:14:57	12:21:25	387246	6.6.1	4_exp_EVA_AWA_CON	16	A	B	Rpleas_acq	Oppo	Rpleas	2pleas	acq_US_pleas_nomask	acq45_nomask	4	8	400	1	300	300	0	0	410	50	1	0	sonnig	träumen	vertrauen	gütig	genießen	vergnügt	sterben	töten	versagen	gierig	gemein	verbissen	anregung	besonnen	kreativ	engagiert	kuss	gesittet	ausrottung	bange	krank	engstirnig	krise	geizig	1	blank2r.bmp	0	1	+	0	1	blank2r.bmp	500	1	DHJF	500	1	blank2r.bmp	880	5	genießen	880	1	!	1232	1	!	1312	0	0	0	0	0	0
2024-05-07	12:14:57	12:21:27	389389	6.6.1	4_exp_EVA_AWA_CON	16	A	B	Rpleas_acq	Oppo	Rpleas	2pleas	acq_US_unple_nomask	acq45_nomask	4	9	400	1	300	300	0	0	363	46	1	0	sonnig	träumen	vertrauen	gütig	genießen	vergnügt	sterben	töten	versagen	gierig	gemein	verbissen	anregung	besonnen	kreativ	engagiert	kuss	gesittet	ausrottung	bange	krank	engstirnig	krise	geizig	1	blank2r.bmp	0	1	+	0	1	blank2r.bmp	500	1	CPLW	500	1	blank2r.bmp	880	1	sterben	880	1	!	1232	1	!	1264	0	0	0	0	0	0
2024-05-07	12:14:57	12:21:29	391605	6.6.1	4_exp_EVA_AWA_CON	16	A	B	Rpleas_acq	Oppo	Rpleas	2pleas	acq_US_pleas_nomask	acq45_nomask	4	10	400	1	300	300	0	0	437	50	1	0	sonnig	träumen	vertrauen	gütig	genießen	vergnügt	sterben	töten	versagen	gierig	gemein	verbissen	anregung	besonnen	kreativ	engagiert	kuss	gesittet	ausrottung	bange	krank	engstirnig	krise	geizig	1	blank2r.bmp	0	1	+	0	1	blank2r.bmp	500	1	DHJF	500	1	blank2r.bmp	880	6	vergnügt	880	1	!	1233	1	!	1338	0	0	0	0	0	0
2024-05-07	12:14:57	12:21:31	393797	6.6.1	4_exp_EVA_AWA_CON	16	A	B	Rpleas_acq	Oppo	Rpleas	2pleas	acq_US_unple_nomask	acq45_nomask	4	11	400	1	300	300	0	0	418	46	1	0	sonnig	träumen	vertrauen	gütig	genießen	vergnügt	sterben	töten	versagen	gierig	gemein	verbissen	anregung	besonnen	kreativ	engagiert	kuss	gesittet	ausrottung	bange	krank	engstirnig	krise	geizig	1	blank2r.bmp	0	1	+	0	1	blank2r.bmp	500	1	CPLW	500	1	blank2r.bmp	880	6	verbissen	880	1	!	1232	1	!	1319	0	0	0	0	0	0
2024-05-07	12:14:57	12:21:34	395942	6.6.1	4_exp_EVA_AWA_CON	16	A	B	Rpleas_acq	Oppo	Rpleas	2pleas	acq_US_unple_nomask	acq45_nomask	4	12	400	1	300	300	0	0	360	46	1	0	sonnig	träumen	vertrauen	gütig	genießen	vergnügt	sterben	töten	versagen	gierig	gemein	verbissen	anregung	besonnen	kreativ	engagiert	kuss	gesittet	ausrottung	bange	krank	engstirnig	krise	geizig	1	blank2r.bmp	0	1	+	0	1	blank2r.bmp	500	1	CPLW	500	1	blank2r.bmp	880	4	gierig	880	1	!	1232	1	!	1262	0	0	0	0	0	0
2024-05-07	12:14:57	12:21:36	398125	6.6.1	4_exp_EVA_AWA_CON	16	A	B	Rpleas_acq	Oppo	Rpleas	2pleas	acq_US_pleas_nomask	acq45_nomask	4	13	400	1	300	300	0	0	403	50	1	0	sonnig	träumen	vertrauen	gütig	genießen	vergnügt	sterben	töten	versagen	gierig	gemein	verbissen	anregung	besonnen	kreativ	engagiert	kuss	gesittet	ausrottung	bange	krank	engstirnig	krise	geizig	1	blank2r.bmp	0	1	+	0	1	blank2r.bmp	500	1	DHJF	500	1	blank2r.bmp	880	4	gütig	880	1	!	1232	1	!	1304	0	0	0	0	0	0
2024-05-07	12:14:57	12:21:38	400261	6.6.1	4_exp_EVA_AWA_CON	16	A	B	Rpleas_acq	Oppo	Rpleas	2pleas	acq_US_unple_nomask	acq45_nomask	4	14	400	1	300	300	0	0	358	46	1	0	sonnig	träumen	vertrauen	gütig	genießen	vergnügt	sterben	töten	versagen	gierig	gemein	verbissen	anregung	besonnen	kreativ	engagiert	kuss	gesittet	ausrottung	bange	krank	engstirnig	krise	geizig	1	blank2r.bmp	0	1	+	0	1	blank2r.bmp	500	1	CPLW	500	1	blank2r.bmp	880	2	töten	880	1	!	1232	1	!	1259	0	0	0	0	0	0
2024-05-07	12:14:57	12:21:40	402437	6.6.1	4_exp_EVA_AWA_CON	16	A	B	Rpleas_acq	Oppo	Rpleas	2pleas	acq_US_pleas_nomask	acq45_nomask	4	15	400	1	300	300	0	0	392	50	1	0	sonnig	träumen	vertrauen	gütig	genießen	vergnügt	sterben	töten	versagen	gierig	gemein	verbissen	anregung	besonnen	kreativ	engagiert	kuss	gesittet	ausrottung	bange	krank	engstirnig	krise	geizig	1	blank2r.bmp	0	1	+	0	1	blank2r.bmp	500	1	DHJF	500	1	blank2r.bmp	880	6	vergnügt	880	1	!	1232	1	!	1293	0	0	0	0	0	0
2024-05-07	12:14:57	12:21:42	404613	6.6.1	4_exp_EVA_AWA_CON	16	A	B	Rpleas_acq	Oppo	Rpleas	2pleas	acq_US_unple_nomask	acq45_nomask	4	16	400	1	300	300	0	0	397	46	1	0	sonnig	träumen	vertrauen	gütig	genießen	vergnügt	sterben	töten	versagen	gierig	gemein	verbissen	anregung	besonnen	kreativ	engagiert	kuss	gesittet	ausrottung	bange	krank	engstirnig	krise	geizig	1	blank2r.bmp	0	1	+	0	1	blank2r.bmp	500	1	CPLW	500	1	blank2r.bmp	880	5	gemein	880	1	!	1232	1	!	1298	0	0	0	0	0	0
2024-05-07	12:14:57	12:21:44	406773	6.6.1	4_exp_EVA_AWA_CON	16	A	B	Rpleas_acq	Oppo	Rpleas	2pleas	acq_US_pleas_nomask	acq45_nomask	4	17	400	1	300	300	0	0	385	50	1	0	sonnig	träumen	vertrauen	gütig	genießen	vergnügt	sterben	töten	versagen	gierig	gemein	verbissen	anregung	besonnen	kreativ	engagiert	kuss	gesittet	ausrottung	bange	krank	engstirnig	krise	geizig	1	blank2r.bmp	0	1	+	0	1	blank2r.bmp	500	1	DHJF	500	1	blank2r.bmp	880	3	vertrauen	880	1	!	1232	1	!	1287	0	0	0	0	0	0
2024-05-07	12:14:57	12:21:47	408990	6.6.1	4_exp_EVA_AWA_CON	16	A	B	Rpleas_acq	Oppo	Rpleas	2pleas	acq_US_pleas_nomask	acq45_nomask	4	18	400	1	300	300	0	0	440	46	0	0	sonnig	träumen	vertrauen	gütig	genießen	vergnügt	sterben	töten	versagen	gierig	gemein	verbissen	anregung	besonnen	kreativ	engagiert	kuss	gesittet	ausrottung	bange	krank	engstirnig	krise	geizig	1	blank2r.bmp	0	1	+	0	1	blank2r.bmp	500	1	DHJF	500	1	blank2r.bmp	880	2	träumen	880	1	!	1233	1	!	1342	0	0	0	0	0	0
2024-05-07	12:14:57	12:21:49	411267	6.6.1	4_exp_EVA_AWA_CON	16	A	B	Rpleas_acq	Oppo	Rpleas	2pleas	acq_US_pleas_nomask	acq45_nomask	4	19	400	0	300	300	0	0	499	50	1	0	sonnig	träumen	vertrauen	gütig	genießen	vergnügt	sterben	töten	versagen	gierig	gemein	verbissen	anregung	besonnen	kreativ	engagiert	kuss	gesittet	ausrottung	bange	krank	engstirnig	krise	geizig	1	blank2r.bmp	0	1	+	0	1	blank2r.bmp	500	1	DHJF	500	1	blank2r.bmp	880	4	gütig	880	1	!	1232	1	!	-1	0	0	0	0	0	0
2024-05-07	12:14:57	12:21:51	413514	6.6.1	4_exp_EVA_AWA_CON	16	A	B	Rpleas_acq	Oppo	Rpleas	2pleas	acq_US_unple_nomask	acq45_nomask	4	20	400	0	300	300	0	0	475	46	1	0	sonnig	träumen	vertrauen	gütig	genießen	vergnügt	sterben	töten	versagen	gierig	gemein	verbissen	anregung	besonnen	kreativ	engagiert	kuss	gesittet	ausrottung	bange	krank	engstirnig	krise	geizig	1	blank2r.bmp	0	1	+	0	1	blank2r.bmp	500	1	CPLW	500	1	blank2r.bmp	880	1	sterben	880	1	!	1232	1	!	-1	0	0	0	0	0	0
2024-05-07	12:14:57	12:21:53	415669	6.6.1	4_exp_EVA_AWA_CON	16	A	B	Rpleas_acq	Oppo	Rpleas	2pleas	acq_US_unple_nomask	acq45_nomask	4	21	400	1	300	300	0	0	376	46	1	0	sonnig	träumen	vertrauen	gütig	genießen	vergnügt	sterben	töten	versagen	gierig	gemein	verbissen	anregung	besonnen	kreativ	engagiert	kuss	gesittet	ausrottung	bange	krank	engstirnig	krise	geizig	1	blank2r.bmp	0	1	+	0	1	blank2r.bmp	500	1	CPLW	500	1	blank2r.bmp	880	6	verbissen	880	1	!	1232	1	!	1277	0	0	0	0	0	0
2024-05-07	12:14:57	12:21:55	417846	6.6.1	4_exp_EVA_AWA_CON	16	A	B	Rpleas_acq	Oppo	Rpleas	2pleas	acq_US_pleas_nomask	acq45_nomask	4	22	400	1	300	300	0	0	400	50	1	0	sonnig	träumen	vertrauen	gütig	genießen	vergnügt	sterben	töten	versagen	gierig	gemein	verbissen	anregung	besonnen	kreativ	engagiert	kuss	gesittet	ausrottung	bange	krank	engstirnig	krise	geizig	1	blank2r.bmp	0	1	+	0	1	blank2r.bmp	500	1	DHJF	500	1	blank2r.bmp	880	5	genießen	880	1	!	1232	1	!	1302	0	0	0	0	0	0
2024-05-07	12:14:57	12:21:58	420013	6.6.1	4_exp_EVA_AWA_CON	16	A	B	Rpleas_acq	Oppo	Rpleas	2pleas	acq_US_unple_nomask	acq45_nomask	4	23	400	1	300	300	0	0	387	46	1	0	sonnig	träumen	vertrauen	gütig	genießen	vergnügt	sterben	töten	versagen	gierig	gemein	verbissen	anregung	besonnen	kreativ	engagiert	kuss	gesittet	ausrottung	bange	krank	engstirnig	krise	geizig	1	blank2r.bmp	0	1	+	0	1	blank2r.bmp	500	1	CPLW	500	1	blank2r.bmp	880	3	versagen	880	1	!	1232	1	!	1288	0	0	0	0	0	0
2024-05-07	12:14:57	12:22:00	422173	6.6.1	4_exp_EVA_AWA_CON	16	A	B	Rpleas_acq	Oppo	Rpleas	2pleas	acq_US_unple_nomask	acq45_nomask	4	24	400	1	300	300	0	0	386	46	1	0	sonnig	träumen	vertrauen	gütig	genießen	vergnügt	sterben	töten	versagen	gierig	gemein	verbissen	anregung	besonnen	kreativ	engagiert	kuss	gesittet	ausrottung	bange	krank	engstirnig	krise	geizig	1	blank2r.bmp	0	1	+	0	1	blank2r.bmp	500	1	CPLW	500	1	blank2r.bmp	880	6	verbissen	880	1	!	1232	1	!	1287	0	0	0	0	0	0
2024-05-07	12:14:57	12:22:02	424275	6.6.1	4_exp_EVA_AWA_CON	16	A	B	Rpleas_acq	Oppo	Rpleas	2pleas	acq_US_pleas_nomask	acq45_nomask	4	25	400	0	300	300	0	0	328	50	1	0	sonnig	träumen	vertrauen	gütig	genießen	vergnügt	sterben	töten	versagen	gierig	gemein	verbissen	anregung	besonnen	kreativ	engagiert	kuss	gesittet	ausrottung	bange	krank	engstirnig	krise	geizig	1	blank2r.bmp	0	1	+	0	1	blank2r.bmp	500	1	DHJF	500	1	blank2r.bmp	880	1	sonnig	880	1	!	-1	1	!	-1	0	0	0	0	0	0
2024-05-07	12:14:57	12:22:04	426510	6.6.1	4_exp_EVA_AWA_CON	16	A	B	Rpleas_acq	Oppo	Rpleas	2pleas	acq_US_unple_nomask	acq45_nomask	4	26	400	1	300	300	0	0	459	46	1	0	sonnig	träumen	vertrauen	gütig	genießen	vergnügt	sterben	töten	versagen	gierig	gemein	verbissen	anregung	besonnen	kreativ	engagiert	kuss	gesittet	ausrottung	bange	krank	engstirnig	krise	geizig	1	blank2r.bmp	0	1	+	0	1	blank2r.bmp	500	1	CPLW	500	1	blank2r.bmp	880	3	versagen	880	1	!	1232	1	!	1360	0	0	0	0	0	0
2024-05-07	12:14:57	12:22:06	428603	6.6.1	4_exp_EVA_AWA_CON	16	A	B	Rpleas_acq	Oppo	Rpleas	2pleas	acq_US_pleas_nomask	acq45_nomask	4	27	400	0	300	300	0	0	313	50	1	0	sonnig	träumen	vertrauen	gütig	genießen	vergnügt	sterben	töten	versagen	gierig	gemein	verbissen	anregung	besonnen	kreativ	engagiert	kuss	gesittet	ausrottung	bange	krank	engstirnig	krise	geizig	1	blank2r.bmp	0	1	+	0	1	blank2r.bmp	500	1	DHJF	500	1	blank2r.bmp	880	1	sonnig	880	1	!	-1	1	!	-1	0	0	0	0	0	0
2024-05-07	12:14:57	12:22:08	430781	6.6.1	4_exp_EVA_AWA_CON	16	A	B	Rpleas_acq	Oppo	Rpleas	2pleas	acq_US_unple_nomask	acq45_nomask	4	28	400	1	300	300	0	0	398	46	1	0	sonnig	träumen	vertrauen	gütig	genießen	vergnügt	sterben	töten	versagen	gierig	gemein	verbissen	anregung	besonnen	kreativ	engagiert	kuss	gesittet	ausrottung	bange	krank	engstirnig	krise	geizig	1	blank2r.bmp	0	1	+	0	1	blank2r.bmp	500	1	CPLW	500	1	blank2r.bmp	880	2	töten	880	1	!	1232	1	!	1299	0	0	0	0	0	0
2024-05-07	12:14:57	12:22:11	433033	6.6.1	4_exp_EVA_AWA_CON	16	A	B	Rpleas_acq	Oppo	Rpleas	2pleas	acq_US_pleas_nomask	acq45_nomask	4	29	400	0	300	300	0	0	483	50	1	0	sonnig	träumen	vertrauen	gütig	genießen	vergnügt	sterben	töten	versagen	gierig	gemein	verbissen	anregung	besonnen	kreativ	engagiert	kuss	gesittet	ausrottung	bange	krank	engstirnig	krise	geizig	1	blank2r.bmp	0	1	+	0	1	blank2r.bmp	500	1	DHJF	500	1	blank2r.bmp	880	2	träumen	880	1	!	1233	1	!	-1	0	0	0	0	0	0
2024-05-07	12:14:57	12:22:13	435339	6.6.1	4_exp_EVA_AWA_CON	16	A	B	Rpleas_acq	Oppo	Rpleas	2pleas	acq_US_pleas_nomask	acq45_nomask	4	30	400	0	300	300	0	0	525	50	1	0	sonnig	träumen	vertrauen	gütig	genießen	vergnügt	sterben	töten	versagen	gierig	gemein	verbissen	anregung	besonnen	kreativ	engagiert	kuss	gesittet	ausrottung	bange	krank	engstirnig	krise	geizig	1	blank2r.bmp	0	1	+	0	1	blank2r.bmp	500	1	DHJF	500	1	blank2r.bmp	880	3	vertrauen	880	1	!	1232	1	!	-1	0	0	0	0	0	0
2024-05-07	12:14:57	12:22:15	437549	6.6.1	4_exp_EVA_AWA_CON	16	A	B	Rpleas_acq	Oppo	Rpleas	2pleas	acq_US_pleas_nomask	acq45_nomask	4	31	400	1	300	300	0	0	432	50	1	0	sonnig	träumen	vertrauen	gütig	genießen	vergnügt	sterben	töten	versagen	gierig	gemein	verbissen	anregung	besonnen	kreativ	engagiert	kuss	gesittet	ausrottung	bange	krank	engstirnig	krise	geizig	1	blank2r.bmp	0	1	+	0	1	blank2r.bmp	500	1	DHJF	500	1	blank2r.bmp	880	4	gütig	880	1	!	1232	1	!	1333	0	0	0	0	0	0
2024-05-07	12:14:57	12:22:17	439718	6.6.1	4_exp_EVA_AWA_CON	16	A	B	Rpleas_acq	Oppo	Rpleas	2pleas	acq_US_unple_nomask	acq45_nomask	4	32	400	1	300	300	0	0	388	46	1	0	sonnig	träumen	vertrauen	gütig	genießen	vergnügt	sterben	töten	versagen	gierig	gemein	verbissen	anregung	besonnen	kreativ	engagiert	kuss	gesittet	ausrottung	bange	krank	engstirnig	krise	geizig	1	blank2r.bmp	0	1	+	0	1	blank2r.bmp	500	1	CPLW	500	1	blank2r.bmp	880	1	sterben	880	1	!	1232	1	!	1289	0	0	0	0	0	0
2024-05-07	12:14:57	12:22:19	441771	6.6.1	4_exp_EVA_AWA_CON	16	A	B	Rpleas_acq	Oppo	Rpleas	2pleas	acq_US_pleas_nomask	acq45_nomask	4	33	400	0	300	300	0	0	273	50	1	0	sonnig	träumen	vertrauen	gütig	genießen	vergnügt	sterben	töten	versagen	gierig	gemein	verbissen	anregung	besonnen	kreativ	engagiert	kuss	gesittet	ausrottung	bange	krank	engstirnig	krise	geizig	1	blank2r.bmp	0	1	+	0	1	blank2r.bmp	500	1	DHJF	500	1	blank2r.bmp	880	5	genießen	880	1	!	-1	1	!	-1	0	0	0	0	0	0
2024-05-07	12:14:57	12:22:22	444051	6.6.1	4_exp_EVA_AWA_CON	16	A	B	Rpleas_acq	Oppo	Rpleas	2pleas	acq_US_unple_nomask	acq45_nomask	4	34	400	0	300	300	0	0	502	46	1	0	sonnig	träumen	vertrauen	gütig	genießen	vergnügt	sterben	töten	versagen	gierig	gemein	verbissen	anregung	besonnen	kreativ	engagiert	kuss	gesittet	ausrottung	bange	krank	engstirnig	krise	geizig	1	blank2r.bmp	0	1	+	0	1	blank2r.bmp	500	1	CPLW	500	1	blank2r.bmp	880	4	gierig	880	1	!	1232	1	!	-1	0	0	0	0	0	0
2024-05-07	12:14:57	12:22:24	446229	6.6.1	4_exp_EVA_AWA_CON	16	A	B	Rpleas_acq	Oppo	Rpleas	2pleas	acq_US_unple_nomask	acq45_nomask	4	35	400	1	300	300	0	0	396	46	1	0	sonnig	träumen	vertrauen	gütig	genießen	vergnügt	sterben	töten	versagen	gierig	gemein	verbissen	anregung	besonnen	kreativ	engagiert	kuss	gesittet	ausrottung	bange	krank	engstirnig	krise	geizig	1	blank2r.bmp	0	1	+	0	1	blank2r.bmp	500	1	CPLW	500	1	blank2r.bmp	880	5	gemein	880	1	!	1232	1	!	1297	0	0	0	0	0	0
2024-05-07	12:14:57	12:22:26	448437	6.6.1	4_exp_EVA_AWA_CON	16	A	B	Rpleas_acq	Oppo	Rpleas	2pleas	acq_US_pleas_nomask	acq45_nomask	4	36	400	1	300	300	0	0	433	50	1	0	sonnig	träumen	vertrauen	gütig	genießen	vergnügt	sterben	töten	versagen	gierig	gemein	verbissen	anregung	besonnen	kreativ	engagiert	kuss	gesittet	ausrottung	bange	krank	engstirnig	krise	geizig	1	blank2r.bmp	0	1	+	0	1	blank2r.bmp	500	1	DHJF	500	1	blank2r.bmp	880	6	vergnügt	880	1	!	1233	1	!	1334	0	0	0	0	0	0
2024-05-07	12:14:57	12:22:42	464595	6.6.1	4_exp_EVA_AWA_CON	16	A	B	Rpleas_acq	Oppo	Rpleas	2pleas	acq_US_pleas_nomask	acq45_nomask	5	1	400	0	300	300	0	0	473	50	1	0	sonnig	träumen	vertrauen	gütig	genießen	vergnügt	sterben	töten	versagen	gierig	gemein	verbissen	anregung	besonnen	kreativ	engagiert	kuss	gesittet	ausrottung	bange	krank	engstirnig	krise	geizig	1	blank2r.bmp	0	1	+	0	1	blank2r.bmp	500	1	DHJF	500	1	blank2r.bmp	880	5	genießen	880	1	!	1232	1	!	-1	0	0	0	0	0	0
2024-05-07	12:14:57	12:22:44	466749	6.6.1	4_exp_EVA_AWA_CON	16	A	B	Rpleas_acq	Oppo	Rpleas	2pleas	acq_US_pleas_nomask	acq45_nomask	5	2	400	1	300	300	0	0	373	50	1	0	sonnig	träumen	vertrauen	gütig	genießen	vergnügt	sterben	töten	versagen	gierig	gemein	verbissen	anregung	besonnen	kreativ	engagiert	kuss	gesittet	ausrottung	bange	krank	engstirnig	krise	geizig	1	blank2r.bmp	0	1	+	0	1	blank2r.bmp	500	1	DHJF	500	1	blank2r.bmp	880	2	träumen	880	1	!	1232	1	!	1274	0	0	0	0	0	0
2024-05-07	12:14:57	12:22:46	468851	6.6.1	4_exp_EVA_AWA_CON	16	A	B	Rpleas_acq	Oppo	Rpleas	2pleas	acq_US_unple_nomask	acq45_nomask	5	3	400	0	300	300	0	0	325	46	1	0	sonnig	träumen	vertrauen	gütig	genießen	vergnügt	sterben	töten	versagen	gierig	gemein	verbissen	anregung	besonnen	kreativ	engagiert	kuss	gesittet	ausrottung	bange	krank	engstirnig	krise	geizig	1	blank2r.bmp	0	1	+	0	1	blank2r.bmp	500	1	CPLW	500	1	blank2r.bmp	880	1	sterben	880	1	!	-1	1	!	-1	0	0	0	0	0	0
2024-05-07	12:14:57	12:22:49	470981	6.6.1	4_exp_EVA_AWA_CON	16	A	B	Rpleas_acq	Oppo	Rpleas	2pleas	acq_US_pleas_nomask	acq45_nomask	5	4	400	1	300	300	0	0	352	50	1	0	sonnig	träumen	vertrauen	gütig	genießen	vergnügt	sterben	töten	versagen	gierig	gemein	verbissen	anregung	besonnen	kreativ	engagiert	kuss	gesittet	ausrottung	bange	krank	engstirnig	krise	geizig	1	blank2r.bmp	0	1	+	0	1	blank2r.bmp	500	1	DHJF	500	1	blank2r.bmp	880	3	vertrauen	880	1	!	1232	1	!	1253	0	0	0	0	0	0
2024-05-07	12:14:57	12:22:51	473083	6.6.1	4_exp_EVA_AWA_CON	16	A	B	Rpleas_acq	Oppo	Rpleas	2pleas	acq_US_pleas_nomask	acq45_nomask	5	5	400	0	300	300	0	0	325	50	1	0	sonnig	träumen	vertrauen	gütig	genießen	vergnügt	sterben	töten	versagen	gierig	gemein	verbissen	anregung	besonnen	kreativ	engagiert	kuss	gesittet	ausrottung	bange	krank	engstirnig	krise	geizig	1	blank2r.bmp	0	1	+	0	1	blank2r.bmp	500	1	DHJF	500	1	blank2r.bmp	880	6	vergnügt	880	1	!	-1	1	!	-1	0	0	0	0	0	0
2024-05-07	12:14:57	12:22:53	475261	6.6.1	4_exp_EVA_AWA_CON	16	A	B	Rpleas_acq	Oppo	Rpleas	2pleas	acq_US_unple_nomask	acq45_nomask	5	6	400	1	300	300	0	0	399	46	1	0	sonnig	träumen	vertrauen	gütig	genießen	vergnügt	sterben	töten	versagen	gierig	gemein	verbissen	anregung	besonnen	kreativ	engagiert	kuss	gesittet	ausrottung	bange	krank	engstirnig	krise	geizig	1	blank2r.bmp	0	1	+	0	1	blank2r.bmp	500	1	CPLW	500	1	blank2r.bmp	880	5	gemein	880	1	!	1232	1	!	1301	0	0	0	0	0	0
2024-05-07	12:14:57	12:22:55	477405	6.6.1	4_exp_EVA_AWA_CON	16	A	B	Rpleas_acq	Oppo	Rpleas	2pleas	acq_US_pleas_nomask	acq45_nomask	5	7	400	1	300	300	0	0	362	50	1	0	sonnig	träumen	vertrauen	gütig	genießen	vergnügt	sterben	töten	versagen	gierig	gemein	verbissen	anregung	besonnen	kreativ	engagiert	kuss	gesittet	ausrottung	bange	krank	engstirnig	krise	geizig	1	blank2r.bmp	0	1	+	0	1	blank2r.bmp	500	1	DHJF	500	1	blank2r.bmp	880	4	gütig	880	1	!	1232	1	!	1263	0	0	0	0	0	0
2024-05-07	12:14:57	12:22:57	479574	6.6.1	4_exp_EVA_AWA_CON	16	A	B	Rpleas_acq	Oppo	Rpleas	2pleas	acq_US_unple_nomask	acq45_nomask	5	8	400	1	300	300	0	0	389	46	1	0	sonnig	träumen	vertrauen	gütig	genießen	vergnügt	sterben	töten	versagen	gierig	gemein	verbissen	anregung	besonnen	kreativ	engagiert	kuss	gesittet	ausrottung	bange	krank	engstirnig	krise	geizig	1	blank2r.bmp	0	1	+	0	1	blank2r.bmp	500	1	CPLW	500	1	blank2r.bmp	880	2	töten	880	1	!	1232	1	!	1290	0	0	0	0	0	0
2024-05-07	12:14:57	12:22:59	481826	6.6.1	4_exp_EVA_AWA_CON	16	A	B	Rpleas_acq	Oppo	Rpleas	2pleas	acq_US_unple_nomask	acq45_nomask	5	9	400	0	300	300	0	0	473	46	1	0	sonnig	träumen	vertrauen	gütig	genießen	vergnügt	sterben	töten	versagen	gierig	gemein	verbissen	anregung	besonnen	kreativ	engagiert	kuss	gesittet	ausrottung	bange	krank	engstirnig	krise	geizig	1	blank2r.bmp	0	1	+	0	1	blank2r.bmp	500	1	CPLW	500	1	blank2r.bmp	880	4	gierig	880	1	!	1232	1	!	-1	0	0	0	0	0	0
2024-05-07	12:14:57	12:23:02	484038	6.6.1	4_exp_EVA_AWA_CON	16	A	B	Rpleas_acq	Oppo	Rpleas	2pleas	acq_US_unple_nomask	acq45_nomask	5	10	400	1	300	300	0	0	430	46	1	0	sonnig	träumen	vertrauen	gütig	genießen	vergnügt	sterben	töten	versagen	gierig	gemein	verbissen	anregung	besonnen	kreativ	engagiert	kuss	gesittet	ausrottung	bange	krank	engstirnig	krise	geizig	1	blank2r.bmp	0	1	+	0	1	blank2r.bmp	500	1	CPLW	500	1	blank2r.bmp	880	6	verbissen	880	1	!	1232	1	!	1332	0	0	0	0	0	0
2024-05-07	12:14:57	12:23:04	486148	6.6.1	4_exp_EVA_AWA_CON	16	A	B	Rpleas_acq	Oppo	Rpleas	2pleas	acq_US_pleas_nomask	acq45_nomask	5	11	400	0	300	300	0	0	330	50	1	0	sonnig	träumen	vertrauen	gütig	genießen	vergnügt	sterben	töten	versagen	gierig	gemein	verbissen	anregung	besonnen	kreativ	engagiert	kuss	gesittet	ausrottung	bange	krank	engstirnig	krise	geizig	1	blank2r.bmp	0	1	+	0	1	blank2r.bmp	500	1	DHJF	500	1	blank2r.bmp	880	1	sonnig	880	1	!	-1	1	!	-1	0	0	0	0	0	0
2024-05-07	12:14:57	12:23:06	488301	6.6.1	4_exp_EVA_AWA_CON	16	A	B	Rpleas_acq	Oppo	Rpleas	2pleas	acq_US_unple_nomask	acq45_nomask	5	12	400	1	300	300	0	0	371	46	1	0	sonnig	träumen	vertrauen	gütig	genießen	vergnügt	sterben	töten	versagen	gierig	gemein	verbissen	anregung	besonnen	kreativ	engagiert	kuss	gesittet	ausrottung	bange	krank	engstirnig	krise	geizig	1	blank2r.bmp	0	1	+	0	1	blank2r.bmp	500	1	CPLW	500	1	blank2r.bmp	880	3	versagen	880	1	!	1232	1	!	1272	0	0	0	0	0	0
2024-05-07	12:14:57	12:23:08	490562	6.6.1	4_exp_EVA_AWA_CON	16	A	B	Rpleas_acq	Oppo	Rpleas	2pleas	acq_US_pleas_nomask	acq45_nomask	5	13	400	0	300	300	0	0	484	50	1	0	sonnig	träumen	vertrauen	gütig	genießen	vergnügt	sterben	töten	versagen	gierig	gemein	verbissen	anregung	besonnen	kreativ	engagiert	kuss	gesittet	ausrottung	bange	krank	engstirnig	krise	geizig	1	blank2r.bmp	0	1	+	0	1	blank2r.bmp	500	1	DHJF	500	1	blank2r.bmp	880	2	träumen	880	1	!	1232	1	!	-1	0	0	0	0	0	0
2024-05-07	12:14:57	12:23:10	492757	6.6.1	4_exp_EVA_AWA_CON	16	A	B	Rpleas_acq	Oppo	Rpleas	2pleas	acq_US_unple_nomask	acq45_nomask	5	14	400	1	300	300	0	0	414	50	0	0	sonnig	träumen	vertrauen	gütig	genießen	vergnügt	sterben	töten	versagen	gierig	gemein	verbissen	anregung	besonnen	kreativ	engagiert	kuss	gesittet	ausrottung	bange	krank	engstirnig	krise	geizig	1	blank2r.bmp	0	1	+	0	1	blank2r.bmp	500	1	CPLW	500	1	blank2r.bmp	880	6	verbissen	880	1	!	1232	1	!	1315	0	0	0	0	0	0
2024-05-07	12:14:57	12:23:13	494941	6.6.1	4_exp_EVA_AWA_CON	16	A	B	Rpleas_acq	Oppo	Rpleas	2pleas	acq_US_unple_nomask	acq45_nomask	5	15	400	1	300	300	0	0	407	46	1	0	sonnig	träumen	vertrauen	gütig	genießen	vergnügt	sterben	töten	versagen	gierig	gemein	verbissen	anregung	besonnen	kreativ	engagiert	kuss	gesittet	ausrottung	bange	krank	engstirnig	krise	geizig	1	blank2r.bmp	0	1	+	0	1	blank2r.bmp	500	1	CPLW	500	1	blank2r.bmp	880	2	töten	880	1	!	1232	1	!	1308	0	0	0	0	0	0
2024-05-07	12:14:57	12:23:15	497211	6.6.1	4_exp_EVA_AWA_CON	16	A	B	Rpleas_acq	Oppo	Rpleas	2pleas	acq_US_unple_nomask	acq45_nomask	5	16	400	0	300	300	0	0	497	46	1	0	sonnig	träumen	vertrauen	gütig	genießen	vergnügt	sterben	töten	versagen	gierig	gemein	verbissen	anregung	besonnen	kreativ	engagiert	kuss	gesittet	ausrottung	bange	krank	engstirnig	krise	geizig	1	blank2r.bmp	0	1	+	0	1	blank2r.bmp	500	1	CPLW	500	1	blank2r.bmp	880	1	sterben	880	1	!	1232	1	!	-1	0	0	0	0	0	0
2024-05-07	12:14:57	12:23:17	499373	6.6.1	4_exp_EVA_AWA_CON	16	A	B	Rpleas_acq	Oppo	Rpleas	2pleas	acq_US_pleas_nomask	acq45_nomask	5	17	400	1	300	300	0	0	386	50	1	0	sonnig	träumen	vertrauen	gütig	genießen	vergnügt	sterben	töten	versagen	gierig	gemein	verbissen	anregung	besonnen	kreativ	engagiert	kuss	gesittet	ausrottung	bange	krank	engstirnig	krise	geizig	1	blank2r.bmp	0	1	+	0	1	blank2r.bmp	500	1	DHJF	500	1	blank2r.bmp	880	6	vergnügt	880	1	!	1232	1	!	1287	0	0	0	0	0	0
2024-05-07	12:14:57	12:23:19	501573	6.6.1	4_exp_EVA_AWA_CON	16	A	B	Rpleas_acq	Oppo	Rpleas	2pleas	acq_US_pleas_nomask	acq45_nomask	5	18	400	1	300	300	0	0	425	50	1	0	sonnig	träumen	vertrauen	gütig	genießen	vergnügt	sterben	töten	versagen	gierig	gemein	verbissen	anregung	besonnen	kreativ	engagiert	kuss	gesittet	ausrottung	bange	krank	engstirnig	krise	geizig	1	blank2r.bmp	0	1	+	0	1	blank2r.bmp	500	1	DHJF	500	1	blank2r.bmp	880	1	sonnig	880	1	!	1232	1	!	1326	0	0	0	0	0	0
2024-05-07	12:14:57	12:23:21	503709	6.6.1	4_exp_EVA_AWA_CON	16	A	B	Rpleas_acq	Oppo	Rpleas	2pleas	acq_US_unple_nomask	acq45_nomask	5	19	400	1	300	300	0	0	359	46	1	0	sonnig	träumen	vertrauen	gütig	genießen	vergnügt	sterben	töten	versagen	gierig	gemein	verbissen	anregung	besonnen	kreativ	engagiert	kuss	gesittet	ausrottung	bange	krank	engstirnig	krise	geizig	1	blank2r.bmp	0	1	+	0	1	blank2r.bmp	500	1	CPLW	500	1	blank2r.bmp	880	5	gemein	880	1	!	1232	1	!	1260	0	0	0	0	0	0
2024-05-07	12:14:57	12:23:24	505941	6.6.1	4_exp_EVA_AWA_CON	16	A	B	Rpleas_acq	Oppo	Rpleas	2pleas	acq_US_pleas_nomask	acq45_nomask	5	20	400	1	300	300	0	0	450	50	1	0	sonnig	träumen	vertrauen	gütig	genießen	vergnügt	sterben	töten	versagen	gierig	gemein	verbissen	anregung	besonnen	kreativ	engagiert	kuss	gesittet	ausrottung	bange	krank	engstirnig	krise	geizig	1	blank2r.bmp	0	1	+	0	1	blank2r.bmp	500	1	DHJF	500	1	blank2r.bmp	880	3	vertrauen	880	1	!	1232	1	!	1351	0	0	0	0	0	0
2024-05-07	12:14:57	12:23:26	508102	6.6.1	4_exp_EVA_AWA_CON	16	A	B	Rpleas_acq	Oppo	Rpleas	2pleas	acq_US_unple_nomask	acq45_nomask	5	21	400	1	300	300	0	0	378	50	0	0	sonnig	träumen	vertrauen	gütig	genießen	vergnügt	sterben	töten	versagen	gierig	gemein	verbissen	anregung	besonnen	kreativ	engagiert	kuss	gesittet	ausrottung	bange	krank	engstirnig	krise	geizig	1	blank2r.bmp	0	1	+	0	1	blank2r.bmp	500	1	CPLW	500	1	blank2r.bmp	880	4	gierig	880	1	!	1232	1	!	1279	0	0	0	0	0	0
2024-05-07	12:14:57	12:23:28	510261	6.6.1	4_exp_EVA_AWA_CON	16	A	B	Rpleas_acq	Oppo	Rpleas	2pleas	acq_US_pleas_nomask	acq45_nomask	5	22	400	1	300	300	0	0	377	50	1	0	sonnig	träumen	vertrauen	gütig	genießen	vergnügt	sterben	töten	versagen	gierig	gemein	verbissen	anregung	besonnen	kreativ	engagiert	kuss	gesittet	ausrottung	bange	krank	engstirnig	krise	geizig	1	blank2r.bmp	0	1	+	0	1	blank2r.bmp	500	1	DHJF	500	1	blank2r.bmp	880	4	gütig	880	1	!	1232	1	!	1278	0	0	0	0	0	0
2024-05-07	12:14:57	12:23:30	512429	6.6.1	4_exp_EVA_AWA_CON	16	A	B	Rpleas_acq	Oppo	Rpleas	2pleas	acq_US_pleas_nomask	acq45_nomask	5	23	400	1	300	300	0	0	394	50	1	0	sonnig	träumen	vertrauen	gütig	genießen	vergnügt	sterben	töten	versagen	gierig	gemein	verbissen	anregung	besonnen	kreativ	engagiert	kuss	gesittet	ausrottung	bange	krank	engstirnig	krise	geizig	1	blank2r.bmp	0	1	+	0	1	blank2r.bmp	500	1	DHJF	500	1	blank2r.bmp	880	5	genießen	880	1	!	1232	1	!	1295	0	0	0	0	0	0
2024-05-07	12:14:57	12:23:32	514589	6.6.1	4_exp_EVA_AWA_CON	16	A	B	Rpleas_acq	Oppo	Rpleas	2pleas	acq_US_unple_nomask	acq45_nomask	5	24	400	1	300	300	0	0	382	46	1	0	sonnig	träumen	vertrauen	gütig	genießen	vergnügt	sterben	töten	versagen	gierig	gemein	verbissen	anregung	besonnen	kreativ	engagiert	kuss	gesittet	ausrottung	bange	krank	engstirnig	krise	geizig	1	blank2r.bmp	0	1	+	0	1	blank2r.bmp	500	1	CPLW	500	1	blank2r.bmp	880	3	versagen	880	1	!	1232	1	!	1283	0	0	0	0	0	0
2024-05-07	12:14:57	12:23:34	516781	6.6.1	4_exp_EVA_AWA_CON	16	A	B	Rpleas_acq	Oppo	Rpleas	2pleas	acq_US_pleas_nomask	acq45_nomask	5	25	400	1	300	300	0	0	413	50	1	0	sonnig	träumen	vertrauen	gütig	genießen	vergnügt	sterben	töten	versagen	gierig	gemein	verbissen	anregung	besonnen	kreativ	engagiert	kuss	gesittet	ausrottung	bange	krank	engstirnig	krise	geizig	1	blank2r.bmp	0	1	+	0	1	blank2r.bmp	500	1	DHJF	500	1	blank2r.bmp	880	5	genießen	880	1	!	1232	1	!	1314	0	0	0	0	0	0
2024-05-07	12:14:57	12:23:37	518965	6.6.1	4_exp_EVA_AWA_CON	16	A	B	Rpleas_acq	Oppo	Rpleas	2pleas	acq_US_unple_nomask	acq45_nomask	5	26	400	1	300	300	0	0	405	46	1	0	sonnig	träumen	vertrauen	gütig	genießen	vergnügt	sterben	töten	versagen	gierig	gemein	verbissen	anregung	besonnen	kreativ	engagiert	kuss	gesittet	ausrottung	bange	krank	engstirnig	krise	geizig	1	blank2r.bmp	0	1	+	0	1	blank2r.bmp	500	1	CPLW	500	1	blank2r.bmp	880	4	gierig	880	1	!	1233	1	!	1307	0	0	0	0	0	0
2024-05-07	12:14:57	12:23:39	521165	6.6.1	4_exp_EVA_AWA_CON	16	A	B	Rpleas_acq	Oppo	Rpleas	2pleas	acq_US_unple_nomask	acq45_nomask	5	27	400	1	300	300	0	0	424	46	1	0	sonnig	träumen	vertrauen	gütig	genießen	vergnügt	sterben	töten	versagen	gierig	gemein	verbissen	anregung	besonnen	kreativ	engagiert	kuss	gesittet	ausrottung	bange	krank	engstirnig	krise	geizig	1	blank2r.bmp	0	1	+	0	1	blank2r.bmp	500	1	CPLW	500	1	blank2r.bmp	880	1	sterben	880	1	!	1232	1	!	1325	0	0	0	0	0	0
2024-05-07	12:14:57	12:23:41	523309	6.6.1	4_exp_EVA_AWA_CON	16	A	B	Rpleas_acq	Oppo	Rpleas	2pleas	acq_US_pleas_nomask	acq45_nomask	5	28	400	1	300	300	0	0	367	50	1	0	sonnig	träumen	vertrauen	gütig	genießen	vergnügt	sterben	töten	versagen	gierig	gemein	verbissen	anregung	besonnen	kreativ	engagiert	kuss	gesittet	ausrottung	bange	krank	engstirnig	krise	geizig	1	blank2r.bmp	0	1	+	0	1	blank2r.bmp	500	1	DHJF	500	1	blank2r.bmp	880	2	träumen	880	1	!	1232	1	!	1268	0	0	0	0	0	0
2024-05-07	12:14:57	12:23:43	525562	6.6.1	4_exp_EVA_AWA_CON	16	A	B	Rpleas_acq	Oppo	Rpleas	2pleas	acq_US_unple_nomask	acq45_nomask	5	29	400	0	300	300	0	0	481	46	1	0	sonnig	träumen	vertrauen	gütig	genießen	vergnügt	sterben	töten	versagen	gierig	gemein	verbissen	anregung	besonnen	kreativ	engagiert	kuss	gesittet	ausrottung	bange	krank	engstirnig	krise	geizig	1	blank2r.bmp	0	1	+	0	1	blank2r.bmp	500	1	CPLW	500	1	blank2r.bmp	880	3	versagen	880	1	!	1233	1	!	-1	0	0	0	0	0	0
2024-05-07	12:14:57	12:23:45	527749	6.6.1	4_exp_EVA_AWA_CON	16	A	B	Rpleas_acq	Oppo	Rpleas	2pleas	acq_US_unple_nomask	acq45_nomask	5	30	400	1	300	300	0	0	414	46	1	0	sonnig	träumen	vertrauen	gütig	genießen	vergnügt	sterben	töten	versagen	gierig	gemein	verbissen	anregung	besonnen	kreativ	engagiert	kuss	gesittet	ausrottung	bange	krank	engstirnig	krise	geizig	1	blank2r.bmp	0	1	+	0	1	blank2r.bmp	500	1	CPLW	500	1	blank2r.bmp	880	6	verbissen	880	1	!	1233	1	!	1315	0	0	0	0	0	0
2024-05-07	12:14:57	12:23:48	530019	6.6.1	4_exp_EVA_AWA_CON	16	A	B	Rpleas_acq	Oppo	Rpleas	2pleas	acq_US_pleas_nomask	acq45_nomask	5	31	400	0	300	300	0	0	494	50	1	0	sonnig	träumen	vertrauen	gütig	genießen	vergnügt	sterben	töten	versagen	gierig	gemein	verbissen	anregung	besonnen	kreativ	engagiert	kuss	gesittet	ausrottung	bange	krank	engstirnig	krise	geizig	1	blank2r.bmp	0	1	+	0	1	blank2r.bmp	500	1	DHJF	500	1	blank2r.bmp	880	6	vergnügt	880	1	!	1233	1	!	-1	0	0	0	0	0	0
2024-05-07	12:14:57	12:23:50	532108	6.6.1	4_exp_EVA_AWA_CON	16	A	B	Rpleas_acq	Oppo	Rpleas	2pleas	acq_US_pleas_nomask	acq45_nomask	5	32	400	0	300	300	0	0	311	50	1	0	sonnig	träumen	vertrauen	gütig	genießen	vergnügt	sterben	töten	versagen	gierig	gemein	verbissen	anregung	besonnen	kreativ	engagiert	kuss	gesittet	ausrottung	bange	krank	engstirnig	krise	geizig	1	blank2r.bmp	0	1	+	0	1	blank2r.bmp	500	1	DHJF	500	1	blank2r.bmp	880	4	gütig	880	1	!	-1	1	!	-1	0	0	0	0	0	0
2024-05-07	12:14:57	12:23:52	534237	6.6.1	4_exp_EVA_AWA_CON	16	A	B	Rpleas_acq	Oppo	Rpleas	2pleas	acq_US_unple_nomask	acq45_nomask	5	33	400	1	300	300	0	0	348	46	1	0	sonnig	träumen	vertrauen	gütig	genießen	vergnügt	sterben	töten	versagen	gierig	gemein	verbissen	anregung	besonnen	kreativ	engagiert	kuss	gesittet	ausrottung	bange	krank	engstirnig	krise	geizig	1	blank2r.bmp	0	1	+	0	1	blank2r.bmp	500	1	CPLW	500	1	blank2r.bmp	880	2	töten	880	1	!	1232	1	!	1249	0	0	0	0	0	0
2024-05-07	12:14:57	12:23:54	536429	6.6.1	4_exp_EVA_AWA_CON	16	A	B	Rpleas_acq	Oppo	Rpleas	2pleas	acq_US_pleas_nomask	acq45_nomask	5	34	400	1	300	300	0	0	408	50	1	0	sonnig	träumen	vertrauen	gütig	genießen	vergnügt	sterben	töten	versagen	gierig	gemein	verbissen	anregung	besonnen	kreativ	engagiert	kuss	gesittet	ausrottung	bange	krank	engstirnig	krise	geizig	1	blank2r.bmp	0	1	+	0	1	blank2r.bmp	500	1	DHJF	500	1	blank2r.bmp	880	3	vertrauen	880	1	!	1232	1	!	1309	0	0	0	0	0	0
2024-05-07	12:14:57	12:23:56	538614	6.6.1	4_exp_EVA_AWA_CON	16	A	B	Rpleas_acq	Oppo	Rpleas	2pleas	acq_US_pleas_nomask	acq45_nomask	5	35	400	1	300	300	0	0	401	50	1	0	sonnig	träumen	vertrauen	gütig	genießen	vergnügt	sterben	töten	versagen	gierig	gemein	verbissen	anregung	besonnen	kreativ	engagiert	kuss	gesittet	ausrottung	bange	krank	engstirnig	krise	geizig	1	blank2r.bmp	0	1	+	0	1	blank2r.bmp	500	1	DHJF	500	1	blank2r.bmp	880	1	sonnig	880	1	!	1232	1	!	1302	0	0	0	0	0	0
2024-05-07	12:14:57	12:23:58	540797	6.6.1	4_exp_EVA_AWA_CON	16	A	B	Rpleas_acq	Oppo	Rpleas	2pleas	acq_US_unple_nomask	acq45_nomask	5	36	400	1	300	300	0	0	403	46	1	0	sonnig	träumen	vertrauen	gütig	genießen	vergnügt	sterben	töten	versagen	gierig	gemein	verbissen	anregung	besonnen	kreativ	engagiert	kuss	gesittet	ausrottung	bange	krank	engstirnig	krise	geizig	1	blank2r.bmp	0	1	+	0	1	blank2r.bmp	500	1	CPLW	500	1	blank2r.bmp	880	5	gemein	880	1	!	1232	1	!	1304	0	0	0	0	0	0
2024-05-07	12:14:57	12:24:24	566735	6.6.1	4_exp_EVA_AWA_CON	16	A	B	Rpleas_acq	Oppo	Lpleas	2pleas	EvalRating_firsttwo	EvalRating_firsttwo	6	1	0	0	300	300	0	0	8623	line	0	44,6614583333333428072pct	sonnig	träumen	vertrauen	gütig	genießen	vergnügt	sterben	töten	versagen	gierig	gemein	verbissen	anregung	besonnen	kreativ	engagiert	kuss	gesittet	ausrottung	bange	krank	engstirnig	krise	geizig	1		-8	1	Wie angenehm oder unangenehm finden Sie die  Buchstabenkette WDLH?	-8	1		-8	1		-8	1		-8	1	Unangenehm	-8	1	Angenehm	-8	0	0	0	0	0	0	0	0	0
2024-05-07	12:14:57	12:24:30	572304	6.6.1	4_exp_EVA_AWA_CON	16	A	B	Rpleas_acq	Oppo	Lpleas	2pleas	EvalRating_lastfour	EvalRating_lastfour	7	1	0	0	300	300	0	0	3194	line	0	-43,4895833333333285964pct	sonnig	träumen	vertrauen	gütig	genießen	vergnügt	sterben	töten	versagen	gierig	gemein	verbissen	anregung	besonnen	kreativ	engagiert	kuss	gesittet	ausrottung	bange	krank	engstirnig	krise	geizig	1		-8	3	Wie angenehm oder unangenehm finden Sie die  Buchstabenkette FCJP?	-8	1		-8	1		-8	1		-8	1	Unangenehm	-8	1	Angenehm	-8	0	0	0	0	0	0	0	0	0
2024-05-07	12:14:57	12:24:32	574676	6.6.1	4_exp_EVA_AWA_CON	16	A	B	Rpleas_acq	Oppo	Lpleas	2pleas	blank_screen	EvalRating_lastfour	7	3	0	0	300	300	0	0	0	0	0	-43,4895833333333285964pct	sonnig	träumen	vertrauen	gütig	genießen	vergnügt	sterben	töten	versagen	gierig	gemein	verbissen	anregung	besonnen	kreativ	engagiert	kuss	gesittet	ausrottung	bange	krank	engstirnig	krise	geizig	1		-8	0	0	0	0	0	0	0	0	0	0	0	0	0	0	0	0	0	0	0	0	0	0	0	0	0	0	0
2024-05-07	12:14:57	12:24:35	577799	6.6.1	4_exp_EVA_AWA_CON	16	A	B	Rpleas_acq	Oppo	Lpleas	2pleas	EvalRating_lastfour	EvalRating_lastfour	7	4	0	0	300	300	0	0	2536	line	0	-5,7291666666666571928pct	sonnig	träumen	vertrauen	gütig	genießen	vergnügt	sterben	töten	versagen	gierig	gemein	verbissen	anregung	besonnen	kreativ	engagiert	kuss	gesittet	ausrottung	bange	krank	engstirnig	krise	geizig	1		-8	2	Wie angenehm oder unangenehm finden Sie die  Buchstabenkette DHJF?	-8	1		-8	1		-8	1		-8	1	Unangenehm	-8	1	Angenehm	-8	0	0	0	0	0	0	0	0	0
2024-05-07	12:14:57	12:24:38	580169	6.6.1	4_exp_EVA_AWA_CON	16	A	B	Rpleas_acq	Oppo	Lpleas	2pleas	blank_screen	EvalRating_lastfour	7	6	0	0	300	300	0	0	0	0	0	-5,7291666666666571928pct	sonnig	träumen	vertrauen	gütig	genießen	vergnügt	sterben	töten	versagen	gierig	gemein	verbissen	anregung	besonnen	kreativ	engagiert	kuss	gesittet	ausrottung	bange	krank	engstirnig	krise	geizig	1		-8	0	0	0	0	0	0	0	0	0	0	0	0	0	0	0	0	0	0	0	0	0	0	0	0	0	0	0
2024-05-07	12:14:57	12:24:41	583720	6.6.1	4_exp_EVA_AWA_CON	16	A	B	Rpleas_acq	Oppo	Lpleas	2pleas	EvalRating_lastfour	EvalRating_lastfour	7	7	0	0	300	300	0	0	2963	line	0	-18,0989583333333285964pct	sonnig	träumen	vertrauen	gütig	genießen	vergnügt	sterben	töten	versagen	gierig	gemein	verbissen	anregung	besonnen	kreativ	engagiert	kuss	gesittet	ausrottung	bange	krank	engstirnig	krise	geizig	1		-8	1	Wie angenehm oder unangenehm finden Sie die  Buchstabenkette CPLW?	-8	1		-8	1		-8	1		-8	1	Unangenehm	-8	1	Angenehm	-8	0	0	0	0	0	0	0	0	0
2024-05-07	12:14:57	12:25:16	618872	6.6.1	4_exp_EVA_AWA_CON	16	A	B	Rpleas_acq	Oppo	Lpleas	2pleas	conawa_CS2_US4	conawa1_nomask	8	1	0	0	300	300	0	0	11700	gütig	1	-18,0989583333333285964pct	sonnig	träumen	vertrauen	gütig	genießen	vergnügt	sterben	töten	versagen	gierig	gemein	verbissen	anregung	besonnen	kreativ	engagiert	kuss	gesittet	ausrottung	bange	krank	engstirnig	krise	geizig	0	0	0	0	0	0	0	0	0	0	0	0	0	0	0	0	0	0	0	0	0	0	0	0	0	0	0	0	0	0
2024-05-07	12:14:57	12:25:16	618874	6.6.1	4_exp_EVA_AWA_CON	16	A	B	Rpleas_acq	Oppo	Lpleas	2pleas	conawa_CS2_US4_confidence	conawa1_nomask	8	1	0	0	300	300	0	0	11700	probably	1	-18,0989583333333285964pct	sonnig	träumen	vertrauen	gütig	genießen	vergnügt	sterben	töten	versagen	gierig	gemein	verbissen	anregung	besonnen	kreativ	engagiert	kuss	gesittet	ausrottung	bange	krank	engstirnig	krise	geizig	0	0	0	0	0	0	0	0	0	0	0	0	0	0	0	0	0	0	0	0	0	0	0	0	0	0	0	0	0	0
2024-05-07	12:14:57	12:25:26	628728	6.6.1	4_exp_EVA_AWA_CON	16	A	B	Rpleas_acq	Oppo	Lpleas	2pleas	conawa_CS2_US2	conawa1_nomask	8	2	0	0	300	300	0	0	9237	kreativ	1	-18,0989583333333285964pct	sonnig	träumen	vertrauen	gütig	genießen	vergnügt	sterben	töten	versagen	gierig	gemein	verbissen	anregung	besonnen	kreativ	engagiert	kuss	gesittet	ausrottung	bange	krank	engstirnig	krise	geizig	0	0	0	0	0	0	0	0	0	0	0	0	0	0	0	0	0	0	0	0	0	0	0	0	0	0	0	0	0	0
2024-05-07	12:14:57	12:25:26	628731	6.6.1	4_exp_EVA_AWA_CON	16	A	B	Rpleas_acq	Oppo	Lpleas	2pleas	conawa_CS2_US2_confidence	conawa1_nomask	8	2	0	0	300	300	0	0	9237	probably	1	-18,0989583333333285964pct	sonnig	träumen	vertrauen	gütig	genießen	vergnügt	sterben	töten	versagen	gierig	gemein	verbissen	anregung	besonnen	kreativ	engagiert	kuss	gesittet	ausrottung	bange	krank	engstirnig	krise	geizig	0	0	0	0	0	0	0	0	0	0	0	0	0	0	0	0	0	0	0	0	0	0	0	0	0	0	0	0	0	0
2024-05-07	12:14:57	12:25:34	636353	6.6.1	4_exp_EVA_AWA_CON	16	A	B	Rpleas_acq	Oppo	Lpleas	2pleas	conawa_CS1_US2	conawa1_nomask	8	3	0	0	300	300	0	0	7006	töten	1	-18,0989583333333285964pct	sonnig	träumen	vertrauen	gütig	genießen	vergnügt	sterben	töten	versagen	gierig	gemein	verbissen	anregung	besonnen	kreativ	engagiert	kuss	gesittet	ausrottung	bange	krank	engstirnig	krise	geizig	0	0	0	0	0	0	0	0	0	0	0	0	0	0	0	0	0	0	0	0	0	0	0	0	0	0	0	0	0	0
2024-05-07	12:14:57	12:25:34	636355	6.6.1	4_exp_EVA_AWA_CON	16	A	B	Rpleas_acq	Oppo	Lpleas	2pleas	conawa_CS1_US2_confidence	conawa1_nomask	8	3	0	0	300	300	0	0	7006	probably	1	-18,0989583333333285964pct	sonnig	träumen	vertrauen	gütig	genießen	vergnügt	sterben	töten	versagen	gierig	gemein	verbissen	anregung	besonnen	kreativ	engagiert	kuss	gesittet	ausrottung	bange	krank	engstirnig	krise	geizig	0	0	0	0	0	0	0	0	0	0	0	0	0	0	0	0	0	0	0	0	0	0	0	0	0	0	0	0	0	0
2024-05-07	12:14:57	12:25:41	643318	6.6.1	4_exp_EVA_AWA_CON	16	A	B	Rpleas_acq	Oppo	Lpleas	2pleas	conawa_CS1_US4	conawa1_nomask	8	4	0	0	300	300	0	0	6346	gierig	1	-18,0989583333333285964pct	sonnig	träumen	vertrauen	gütig	genießen	vergnügt	sterben	töten	versagen	gierig	gemein	verbissen	anregung	besonnen	kreativ	engagiert	kuss	gesittet	ausrottung	bange	krank	engstirnig	krise	geizig	0	0	0	0	0	0	0	0	0	0	0	0	0	0	0	0	0	0	0	0	0	0	0	0	0	0	0	0	0	0
2024-05-07	12:14:57	12:25:41	643320	6.6.1	4_exp_EVA_AWA_CON	16	A	B	Rpleas_acq	Oppo	Lpleas	2pleas	conawa_CS1_US4_confidence	conawa1_nomask	8	4	0	0	300	300	0	0	6346	probably	1	-18,0989583333333285964pct	sonnig	träumen	vertrauen	gütig	genießen	vergnügt	sterben	töten	versagen	gierig	gemein	verbissen	anregung	besonnen	kreativ	engagiert	kuss	gesittet	ausrottung	bange	krank	engstirnig	krise	geizig	0	0	0	0	0	0	0	0	0	0	0	0	0	0	0	0	0	0	0	0	0	0	0	0	0	0	0	0	0	0
2024-05-07	12:14:57	12:25:51	653224	6.6.1	4_exp_EVA_AWA_CON	16	A	B	Rpleas_acq	Oppo	Lpleas	2pleas	conawa_CS2_US1	conawa1_nomask	8	5	0	0	300	300	0	0	9290	sonnig	1	-18,0989583333333285964pct	sonnig	träumen	vertrauen	gütig	genießen	vergnügt	sterben	töten	versagen	gierig	gemein	verbissen	anregung	besonnen	kreativ	engagiert	kuss	gesittet	ausrottung	bange	krank	engstirnig	krise	geizig	0	0	0	0	0	0	0	0	0	0	0	0	0	0	0	0	0	0	0	0	0	0	0	0	0	0	0	0	0	0
2024-05-07	12:14:57	12:25:51	653226	6.6.1	4_exp_EVA_AWA_CON	16	A	B	Rpleas_acq	Oppo	Lpleas	2pleas	conawa_CS2_US1_confidence	conawa1_nomask	8	5	0	0	300	300	0	0	9290	probably	1	-18,0989583333333285964pct	sonnig	träumen	vertrauen	gütig	genießen	vergnügt	sterben	töten	versagen	gierig	gemein	verbissen	anregung	besonnen	kreativ	engagiert	kuss	gesittet	ausrottung	bange	krank	engstirnig	krise	geizig	0	0	0	0	0	0	0	0	0	0	0	0	0	0	0	0	0	0	0	0	0	0	0	0	0	0	0	0	0	0
2024-05-07	12:14:57	12:25:59	661780	6.6.1	4_exp_EVA_AWA_CON	16	A	B	Rpleas_acq	Oppo	Lpleas	2pleas	conawa_CS2_US3	conawa1_nomask	8	6	0	0	300	300	0	0	7935	vertrauen	1	-18,0989583333333285964pct	sonnig	träumen	vertrauen	gütig	genießen	vergnügt	sterben	töten	versagen	gierig	gemein	verbissen	anregung	besonnen	kreativ	engagiert	kuss	gesittet	ausrottung	bange	krank	engstirnig	krise	geizig	0	0	0	0	0	0	0	0	0	0	0	0	0	0	0	0	0	0	0	0	0	0	0	0	0	0	0	0	0	0
2024-05-07	12:14:57	12:25:59	661782	6.6.1	4_exp_EVA_AWA_CON	16	A	B	Rpleas_acq	Oppo	Lpleas	2pleas	conawa_CS2_US3_confidence	conawa1_nomask	8	6	0	0	300	300	0	0	7935	probably	1	-18,0989583333333285964pct	sonnig	träumen	vertrauen	gütig	genießen	vergnügt	sterben	töten	versagen	gierig	gemein	verbissen	anregung	besonnen	kreativ	engagiert	kuss	gesittet	ausrottung	bange	krank	engstirnig	krise	geizig	0	0	0	0	0	0	0	0	0	0	0	0	0	0	0	0	0	0	0	0	0	0	0	0	0	0	0	0	0	0
2024-05-07	12:14:57	12:26:05	667904	6.6.1	4_exp_EVA_AWA_CON	16	A	B	Rpleas_acq	Oppo	Lpleas	2pleas	conawa_CS2_US5	conawa1_nomask	8	7	0	0	300	300	0	0	5509	gesittet	1	-18,0989583333333285964pct	sonnig	träumen	vertrauen	gütig	genießen	vergnügt	sterben	töten	versagen	gierig	gemein	verbissen	anregung	besonnen	kreativ	engagiert	kuss	gesittet	ausrottung	bange	krank	engstirnig	krise	geizig	0	0	0	0	0	0	0	0	0	0	0	0	0	0	0	0	0	0	0	0	0	0	0	0	0	0	0	0	0	0
2024-05-07	12:14:57	12:26:05	667906	6.6.1	4_exp_EVA_AWA_CON	16	A	B	Rpleas_acq	Oppo	Lpleas	2pleas	conawa_CS2_US5_confidence	conawa1_nomask	8	7	0	0	300	300	0	0	5509	probably	1	-18,0989583333333285964pct	sonnig	träumen	vertrauen	gütig	genießen	vergnügt	sterben	töten	versagen	gierig	gemein	verbissen	anregung	besonnen	kreativ	engagiert	kuss	gesittet	ausrottung	bange	krank	engstirnig	krise	geizig	0	0	0	0	0	0	0	0	0	0	0	0	0	0	0	0	0	0	0	0	0	0	0	0	0	0	0	0	0	0
2024-05-07	12:14:57	12:26:13	675018	6.6.1	4_exp_EVA_AWA_CON	16	A	B	Rpleas_acq	Oppo	Lpleas	2pleas	conawa_CS1_US3	conawa1_nomask	8	8	0	0	300	300	0	0	6498	krank	1	-18,0989583333333285964pct	sonnig	träumen	vertrauen	gütig	genießen	vergnügt	sterben	töten	versagen	gierig	gemein	verbissen	anregung	besonnen	kreativ	engagiert	kuss	gesittet	ausrottung	bange	krank	engstirnig	krise	geizig	0	0	0	0	0	0	0	0	0	0	0	0	0	0	0	0	0	0	0	0	0	0	0	0	0	0	0	0	0	0
2024-05-07	12:14:57	12:26:13	675020	6.6.1	4_exp_EVA_AWA_CON	16	A	B	Rpleas_acq	Oppo	Lpleas	2pleas	conawa_CS1_US3_confidence	conawa1_nomask	8	8	0	0	300	300	0	0	6498	probably	1	-18,0989583333333285964pct	sonnig	träumen	vertrauen	gütig	genießen	vergnügt	sterben	töten	versagen	gierig	gemein	verbissen	anregung	besonnen	kreativ	engagiert	kuss	gesittet	ausrottung	bange	krank	engstirnig	krise	geizig	0	0	0	0	0	0	0	0	0	0	0	0	0	0	0	0	0	0	0	0	0	0	0	0	0	0	0	0	0	0
2024-05-07	12:14:57	12:26:19	681803	6.6.1	4_exp_EVA_AWA_CON	16	A	B	Rpleas_acq	Oppo	Lpleas	2pleas	conawa_CS1_US5	conawa1_nomask	8	9	0	0	300	300	0	0	6167	gemein	1	-18,0989583333333285964pct	sonnig	träumen	vertrauen	gütig	genießen	vergnügt	sterben	töten	versagen	gierig	gemein	verbissen	anregung	besonnen	kreativ	engagiert	kuss	gesittet	ausrottung	bange	krank	engstirnig	krise	geizig	0	0	0	0	0	0	0	0	0	0	0	0	0	0	0	0	0	0	0	0	0	0	0	0	0	0	0	0	0	0
2024-05-07	12:14:57	12:26:19	681804	6.6.1	4_exp_EVA_AWA_CON	16	A	B	Rpleas_acq	Oppo	Lpleas	2pleas	conawa_CS1_US5_confidence	conawa1_nomask	8	9	0	0	300	300	0	0	6167	probably	1	-18,0989583333333285964pct	sonnig	träumen	vertrauen	gütig	genießen	vergnügt	sterben	töten	versagen	gierig	gemein	verbissen	anregung	besonnen	kreativ	engagiert	kuss	gesittet	ausrottung	bange	krank	engstirnig	krise	geizig	0	0	0	0	0	0	0	0	0	0	0	0	0	0	0	0	0	0	0	0	0	0	0	0	0	0	0	0	0	0
2024-05-07	12:14:57	12:26:29	691259	6.6.1	4_exp_EVA_AWA_CON	16	A	B	Rpleas_acq	Oppo	Lpleas	2pleas	conawa_CS2_US6	conawa1_nomask	8	10	0	0	300	300	0	0	8840	anregung	1	-18,0989583333333285964pct	sonnig	träumen	vertrauen	gütig	genießen	vergnügt	sterben	töten	versagen	gierig	gemein	verbissen	anregung	besonnen	kreativ	engagiert	kuss	gesittet	ausrottung	bange	krank	engstirnig	krise	geizig	0	0	0	0	0	0	0	0	0	0	0	0	0	0	0	0	0	0	0	0	0	0	0	0	0	0	0	0	0	0
2024-05-07	12:14:57	12:26:29	691261	6.6.1	4_exp_EVA_AWA_CON	16	A	B	Rpleas_acq	Oppo	Lpleas	2pleas	conawa_CS2_US6_confidence	conawa1_nomask	8	10	0	0	300	300	0	0	8840	probably	1	-18,0989583333333285964pct	sonnig	träumen	vertrauen	gütig	genießen	vergnügt	sterben	töten	versagen	gierig	gemein	verbissen	anregung	besonnen	kreativ	engagiert	kuss	gesittet	ausrottung	bange	krank	engstirnig	krise	geizig	0	0	0	0	0	0	0	0	0	0	0	0	0	0	0	0	0	0	0	0	0	0	0	0	0	0	0	0	0	0
2024-05-07	12:14:57	12:26:37	699374	6.6.1	4_exp_EVA_AWA_CON	16	A	B	Rpleas_acq	Oppo	Lpleas	2pleas	conawa_CS1_US1	conawa1_nomask	8	11	0	0	300	300	0	0	7502	ausrottung	1	-18,0989583333333285964pct	sonnig	träumen	vertrauen	gütig	genießen	vergnügt	sterben	töten	versagen	gierig	gemein	verbissen	anregung	besonnen	kreativ	engagiert	kuss	gesittet	ausrottung	bange	krank	engstirnig	krise	geizig	0	0	0	0	0	0	0	0	0	0	0	0	0	0	0	0	0	0	0	0	0	0	0	0	0	0	0	0	0	0
2024-05-07	12:14:57	12:26:37	699376	6.6.1	4_exp_EVA_AWA_CON	16	A	B	Rpleas_acq	Oppo	Lpleas	2pleas	conawa_CS1_US1_confidence	conawa1_nomask	8	11	0	0	300	300	0	0	7502	probably	1	-18,0989583333333285964pct	sonnig	träumen	vertrauen	gütig	genießen	vergnügt	sterben	töten	versagen	gierig	gemein	verbissen	anregung	besonnen	kreativ	engagiert	kuss	gesittet	ausrottung	bange	krank	engstirnig	krise	geizig	0	0	0	0	0	0	0	0	0	0	0	0	0	0	0	0	0	0	0	0	0	0	0	0	0	0	0	0	0	0
2024-05-07	12:14:57	12:26:46	708190	6.6.1	4_exp_EVA_AWA_CON	16	A	B	Rpleas_acq	Oppo	Lpleas	2pleas	conawa_CS1_US6	conawa1_nomask	8	12	0	0	300	300	0	0	8195	verbissen	1	-18,0989583333333285964pct	sonnig	träumen	vertrauen	gütig	genießen	vergnügt	sterben	töten	versagen	gierig	gemein	verbissen	anregung	besonnen	kreativ	engagiert	kuss	gesittet	ausrottung	bange	krank	engstirnig	krise	geizig	0	0	0	0	0	0	0	0	0	0	0	0	0	0	0	0	0	0	0	0	0	0	0	0	0	0	0	0	0	0
2024-05-07	12:14:57	12:26:46	708191	6.6.1	4_exp_EVA_AWA_CON	16	A	B	Rpleas_acq	Oppo	Lpleas	2pleas	conawa_CS1_US6_confidence	conawa1_nomask	8	12	0	0	300	300	0	0	8195	probably	1	-18,0989583333333285964pct	sonnig	träumen	vertrauen	gütig	genießen	vergnügt	sterben	töten	versagen	gierig	gemein	verbissen	anregung	besonnen	kreativ	engagiert	kuss	gesittet	ausrottung	bange	krank	engstirnig	krise	geizig	0	0	0	0	0	0	0	0	0	0	0	0	0	0	0	0	0	0	0	0	0	0	0	0	0	0	0	0	0	0
2024-05-07	12:14:57	12:27:43	765397	6.6.1	4_exp_EVA_AWA_CON	16	A	B	Rpleas_acq	Oppo	Lpleas	2pleas	cond_US_unple_123_nomask_CS1	condtest_nomask_1	11	1	400	1	300	300	0	0	429	50	1	-18,0989583333333285964pct	sonnig	träumen	vertrauen	gütig	genießen	vergnügt	sterben	töten	versagen	gierig	gemein	verbissen	anregung	besonnen	kreativ	engagiert	kuss	gesittet	ausrottung	bange	krank	engstirnig	krise	geizig	1	blank2r.bmp	0	1	+	0	1	blank2r.bmp	500	1	CPLW	500	1	blank2r.bmp	880	1	sterben	880	1	!	1232	1	!	1330	0	0	0	0	0	0
