date	time	currenttime	elapsedtime	build	currentexpt	subject	CS_AB	US_AB	LRpleas_acq	SameOppo	condition_Lpleas	condition_1pleas	trialcode	blockcode	blocknum	trialnum	windowcenter	inwindow	pretrialpause	posttrialpause	trialduration	trialtimeout	latency	response	correct	correctedscore	US_nomask_pleas1	US_nomask_pleas2	US_nomask_pleas3	US_nomask_pleas4	US_nomask_pleas5	US_nomask_pleas6	US_nomask_unple1	US_nomask_unple2	US_nomask_unple3	US_nomask_unple4	US_nomask_unple5	US_nomask_unple6	new_nomask_pleas1	new_nomask_pleas2	new_nomask_pleas3	new_nomask_pleas4	new_nomask_pleas5	new_nomask_pleas6	new_nomask_unple1	new_nomask_unple2	new_nomask_unple3	new_nomask_unple4	new_nomask_unple5	new_nomask_unple6	stimulusnumber1	stimulusitem1	stimulusonset1	stimulusnumber2	stimulusitem2	stimulusonset2	stimulusnumber3	stimulusitem3	stimulusonset3	stimulusnumber4	stimulusitem4	stimulusonset4	stimulusnumber5	stimulusitem5	stimulusonset5	stimulusnumber6	stimulusitem6	stimulusonset6	stimulusnumber7	stimulusitem7	stimulusonset7	stimulusnumber8	stimulusitem8	stimulusonset8	stimulusnumber9	stimulusitem9	stimulusonset9	stimulusnumber10	stimulusitem10	stimulusonset10
2024-05-06	12:51:51	12:55:12	200317	6.6.1	4_exp_EVA_AWA_CON	13	B	A	Rpleas_acq	Same	Rpleas	1pleas	acq_new_unple_nomask	acq1_nomask	1	1	0	0	300	300	0	0	1449	46	1	0	fair	spielen	helfen	treu	loyal	schlau	faul	strafen	hindern	tot	lasch	schroff	schön	ehrlich	lachen	tolerant	retten	freundlich	schlecht	eitel	leiden	tyrannisch	rächen	fanatisch	1	blank2r.bmp	0	1	+	0	1	blank2r.bmp	500	4	B4r.bmp	500	1	blank2r.bmp	880	5	rächen	880	0	0	0	0	0	0	0	0	0	0	0	0
2024-05-06	12:51:51	12:55:14	202700	6.6.1	4_exp_EVA_AWA_CON	13	B	A	Rpleas_acq	Same	Rpleas	1pleas	acq_new_pleas_nomask	acq1_nomask	1	2	0	0	300	300	0	0	901	50	1	0	fair	spielen	helfen	treu	loyal	schlau	faul	strafen	hindern	tot	lasch	schroff	schön	ehrlich	lachen	tolerant	retten	freundlich	schlecht	eitel	leiden	tyrannisch	rächen	fanatisch	1	blank2r.bmp	0	1	+	0	1	blank2r.bmp	500	8	C4r.bmp	500	1	blank2r.bmp	880	5	retten	880	0	0	0	0	0	0	0	0	0	0	0	0
2024-05-06	12:51:51	12:55:17	205507	6.6.1	4_exp_EVA_AWA_CON	13	B	A	Rpleas_acq	Same	Rpleas	1pleas	acq_US_pleas_nomask	acq1_nomask	1	3	0	0	300	300	0	0	1327	50	1	0	fair	spielen	helfen	treu	loyal	schlau	faul	strafen	hindern	tot	lasch	schroff	schön	ehrlich	lachen	tolerant	retten	freundlich	schlecht	eitel	leiden	tyrannisch	rächen	fanatisch	1	blank2r.bmp	0	1	+	0	1	blank2r.bmp	500	1	BMVZ	500	1	blank2r.bmp	880	2	spielen	880	0	0	0	0	0	0	0	0	0	0	0	0
2024-05-06	12:51:51	12:55:20	208067	6.6.1	4_exp_EVA_AWA_CON	13	B	A	Rpleas_acq	Same	Rpleas	1pleas	acq_US_unple_nomask	acq1_nomask	1	4	0	0	300	300	0	0	1075	46	1	0	fair	spielen	helfen	treu	loyal	schlau	faul	strafen	hindern	tot	lasch	schroff	schön	ehrlich	lachen	tolerant	retten	freundlich	schlecht	eitel	leiden	tyrannisch	rächen	fanatisch	1	blank2r.bmp	0	1	+	0	1	blank2r.bmp	500	1	GKQX	500	1	blank2r.bmp	880	6	schroff	880	0	0	0	0	0	0	0	0	0	0	0	0
2024-05-06	12:51:51	12:55:22	210403	6.6.1	4_exp_EVA_AWA_CON	13	B	A	Rpleas_acq	Same	Rpleas	1pleas	acq_new_pleas_nomask	acq1_nomask	1	5	0	0	300	300	0	0	850	50	1	0	fair	spielen	helfen	treu	loyal	schlau	faul	strafen	hindern	tot	lasch	schroff	schön	ehrlich	lachen	tolerant	retten	freundlich	schlecht	eitel	leiden	tyrannisch	rächen	fanatisch	1	blank2r.bmp	0	1	+	0	1	blank2r.bmp	500	2	B2r.bmp	500	1	blank2r.bmp	880	1	schön	880	0	0	0	0	0	0	0	0	0	0	0	0
2024-05-06	12:51:51	12:55:24	212596	6.6.1	4_exp_EVA_AWA_CON	13	B	A	Rpleas_acq	Same	Rpleas	1pleas	acq_new_unple_nomask	acq1_nomask	1	6	0	0	300	300	0	0	710	46	1	0	fair	spielen	helfen	treu	loyal	schlau	faul	strafen	hindern	tot	lasch	schroff	schön	ehrlich	lachen	tolerant	retten	freundlich	schlecht	eitel	leiden	tyrannisch	rächen	fanatisch	1	blank2r.bmp	0	1	+	0	1	blank2r.bmp	500	3	B3r.bmp	500	1	blank2r.bmp	880	3	leiden	880	0	0	0	0	0	0	0	0	0	0	0	0
2024-05-06	12:51:51	12:55:27	214931	6.6.1	4_exp_EVA_AWA_CON	13	B	A	Rpleas_acq	Same	Rpleas	1pleas	acq_new_unple_nomask	acq1_nomask	1	7	0	0	300	300	0	0	855	46	1	0	fair	spielen	helfen	treu	loyal	schlau	faul	strafen	hindern	tot	lasch	schroff	schön	ehrlich	lachen	tolerant	retten	freundlich	schlecht	eitel	leiden	tyrannisch	rächen	fanatisch	1	blank2r.bmp	0	1	+	0	1	blank2r.bmp	500	5	C1r.bmp	500	1	blank2r.bmp	880	4	tyrannisch	880	0	0	0	0	0	0	0	0	0	0	0	0
2024-05-06	12:51:51	12:55:29	217259	6.6.1	4_exp_EVA_AWA_CON	13	B	A	Rpleas_acq	Same	Rpleas	1pleas	acq_US_unple_nomask	acq1_nomask	1	8	0	0	300	300	0	0	841	46	1	0	fair	spielen	helfen	treu	loyal	schlau	faul	strafen	hindern	tot	lasch	schroff	schön	ehrlich	lachen	tolerant	retten	freundlich	schlecht	eitel	leiden	tyrannisch	rächen	fanatisch	1	blank2r.bmp	0	1	+	0	1	blank2r.bmp	500	1	GKQX	500	1	blank2r.bmp	880	5	lasch	880	0	0	0	0	0	0	0	0	0	0	0	0
2024-05-06	12:51:51	12:55:31	219547	6.6.1	4_exp_EVA_AWA_CON	13	B	A	Rpleas_acq	Same	Rpleas	1pleas	acq_US_unple_nomask	acq1_nomask	1	9	0	0	300	300	0	0	808	46	1	0	fair	spielen	helfen	treu	loyal	schlau	faul	strafen	hindern	tot	lasch	schroff	schön	ehrlich	lachen	tolerant	retten	freundlich	schlecht	eitel	leiden	tyrannisch	rächen	fanatisch	1	blank2r.bmp	0	1	+	0	1	blank2r.bmp	500	1	GKQX	500	1	blank2r.bmp	880	3	hindern	880	0	0	0	0	0	0	0	0	0	0	0	0
2024-05-06	12:51:51	12:55:33	221635	6.6.1	4_exp_EVA_AWA_CON	13	B	A	Rpleas_acq	Same	Rpleas	1pleas	acq_US_pleas_nomask	acq1_nomask	1	10	0	0	300	300	0	0	604	50	1	0	fair	spielen	helfen	treu	loyal	schlau	faul	strafen	hindern	tot	lasch	schroff	schön	ehrlich	lachen	tolerant	retten	freundlich	schlecht	eitel	leiden	tyrannisch	rächen	fanatisch	1	blank2r.bmp	0	1	+	0	1	blank2r.bmp	500	1	BMVZ	500	1	blank2r.bmp	880	3	helfen	880	0	0	0	0	0	0	0	0	0	0	0	0
2024-05-06	12:51:51	12:55:35	223771	6.6.1	4_exp_EVA_AWA_CON	13	B	A	Rpleas_acq	Same	Rpleas	1pleas	acq_US_pleas_nomask	acq1_nomask	1	11	0	0	300	300	0	0	649	50	1	0	fair	spielen	helfen	treu	loyal	schlau	faul	strafen	hindern	tot	lasch	schroff	schön	ehrlich	lachen	tolerant	retten	freundlich	schlecht	eitel	leiden	tyrannisch	rächen	fanatisch	1	blank2r.bmp	0	1	+	0	1	blank2r.bmp	500	1	BMVZ	500	1	blank2r.bmp	880	6	schlau	880	0	0	0	0	0	0	0	0	0	0	0	0
2024-05-06	12:51:51	12:55:38	225803	6.6.1	4_exp_EVA_AWA_CON	13	B	A	Rpleas_acq	Same	Rpleas	1pleas	acq_new_pleas_nomask	acq1_nomask	1	12	0	0	300	300	0	0	550	50	1	0	fair	spielen	helfen	treu	loyal	schlau	faul	strafen	hindern	tot	lasch	schroff	schön	ehrlich	lachen	tolerant	retten	freundlich	schlecht	eitel	leiden	tyrannisch	rächen	fanatisch	1	blank2r.bmp	0	1	+	0	1	blank2r.bmp	500	6	C2r.bmp	500	1	blank2r.bmp	880	3	lachen	880	0	0	0	0	0	0	0	0	0	0	0	0
2024-05-06	12:51:51	12:55:40	227899	6.6.1	4_exp_EVA_AWA_CON	13	B	A	Rpleas_acq	Same	Rpleas	1pleas	acq_US_unple_nomask	acq1_nomask	1	13	0	0	300	300	0	0	614	46	1	0	fair	spielen	helfen	treu	loyal	schlau	faul	strafen	hindern	tot	lasch	schroff	schön	ehrlich	lachen	tolerant	retten	freundlich	schlecht	eitel	leiden	tyrannisch	rächen	fanatisch	1	blank2r.bmp	0	1	+	0	1	blank2r.bmp	500	1	GKQX	500	1	blank2r.bmp	880	4	tot	880	0	0	0	0	0	0	0	0	0	0	0	0
2024-05-06	12:51:51	12:55:42	230379	6.6.1	4_exp_EVA_AWA_CON	13	B	A	Rpleas_acq	Same	Rpleas	1pleas	acq_US_pleas_nomask	acq1_nomask	1	14	0	0	300	300	0	0	993	50	1	0	fair	spielen	helfen	treu	loyal	schlau	faul	strafen	hindern	tot	lasch	schroff	schön	ehrlich	lachen	tolerant	retten	freundlich	schlecht	eitel	leiden	tyrannisch	rächen	fanatisch	1	blank2r.bmp	0	1	+	0	1	blank2r.bmp	500	1	BMVZ	500	1	blank2r.bmp	880	4	treu	880	0	0	0	0	0	0	0	0	0	0	0	0
2024-05-06	12:51:51	12:55:44	232579	6.6.1	4_exp_EVA_AWA_CON	13	B	A	Rpleas_acq	Same	Rpleas	1pleas	acq_new_pleas_nomask	acq1_nomask	1	15	0	0	300	300	0	0	711	50	1	0	fair	spielen	helfen	treu	loyal	schlau	faul	strafen	hindern	tot	lasch	schroff	schön	ehrlich	lachen	tolerant	retten	freundlich	schlecht	eitel	leiden	tyrannisch	rächen	fanatisch	1	blank2r.bmp	0	1	+	0	1	blank2r.bmp	500	7	C3r.bmp	500	1	blank2r.bmp	880	6	freundlich	880	0	0	0	0	0	0	0	0	0	0	0	0
2024-05-06	12:51:51	12:55:47	234875	6.6.1	4_exp_EVA_AWA_CON	13	B	A	Rpleas_acq	Same	Rpleas	1pleas	acq_new_pleas_nomask	acq1_nomask	1	16	0	0	300	300	0	0	806	50	1	0	fair	spielen	helfen	treu	loyal	schlau	faul	strafen	hindern	tot	lasch	schroff	schön	ehrlich	lachen	tolerant	retten	freundlich	schlecht	eitel	leiden	tyrannisch	rächen	fanatisch	1	blank2r.bmp	0	1	+	0	1	blank2r.bmp	500	1	B1r.bmp	500	1	blank2r.bmp	880	4	tolerant	880	0	0	0	0	0	0	0	0	0	0	0	0
2024-05-06	12:51:51	12:55:49	236963	6.6.1	4_exp_EVA_AWA_CON	13	B	A	Rpleas_acq	Same	Rpleas	1pleas	acq_new_unple_nomask	acq1_nomask	1	17	0	0	300	300	0	0	603	46	1	0	fair	spielen	helfen	treu	loyal	schlau	faul	strafen	hindern	tot	lasch	schroff	schön	ehrlich	lachen	tolerant	retten	freundlich	schlecht	eitel	leiden	tyrannisch	rächen	fanatisch	1	blank2r.bmp	0	1	+	0	1	blank2r.bmp	500	8	C4r.bmp	500	1	blank2r.bmp	880	1	schlecht	880	0	0	0	0	0	0	0	0	0	0	0	0
2024-05-06	12:51:51	12:55:51	239059	6.6.1	4_exp_EVA_AWA_CON	13	B	A	Rpleas_acq	Same	Rpleas	1pleas	acq_new_pleas_nomask	acq1_nomask	1	18	0	0	300	300	0	0	607	50	1	0	fair	spielen	helfen	treu	loyal	schlau	faul	strafen	hindern	tot	lasch	schroff	schön	ehrlich	lachen	tolerant	retten	freundlich	schlecht	eitel	leiden	tyrannisch	rächen	fanatisch	1	blank2r.bmp	0	1	+	0	1	blank2r.bmp	500	2	B2r.bmp	500	1	blank2r.bmp	880	2	ehrlich	880	0	0	0	0	0	0	0	0	0	0	0	0
2024-05-06	12:51:51	12:55:53	241587	6.6.1	4_exp_EVA_AWA_CON	13	B	A	Rpleas_acq	Same	Rpleas	1pleas	acq_US_unple_nomask	acq1_nomask	1	19	0	0	300	300	0	0	1044	46	1	0	fair	spielen	helfen	treu	loyal	schlau	faul	strafen	hindern	tot	lasch	schroff	schön	ehrlich	lachen	tolerant	retten	freundlich	schlecht	eitel	leiden	tyrannisch	rächen	fanatisch	1	blank2r.bmp	0	1	+	0	1	blank2r.bmp	500	1	GKQX	500	1	blank2r.bmp	880	1	faul	880	0	0	0	0	0	0	0	0	0	0	0	0
2024-05-06	12:51:51	12:55:55	243739	6.6.1	4_exp_EVA_AWA_CON	13	B	A	Rpleas_acq	Same	Rpleas	1pleas	acq_US_pleas_nomask	acq1_nomask	1	20	0	0	300	300	0	0	664	50	1	0	fair	spielen	helfen	treu	loyal	schlau	faul	strafen	hindern	tot	lasch	schroff	schön	ehrlich	lachen	tolerant	retten	freundlich	schlecht	eitel	leiden	tyrannisch	rächen	fanatisch	1	blank2r.bmp	0	1	+	0	1	blank2r.bmp	500	1	BMVZ	500	1	blank2r.bmp	880	1	fair	880	0	0	0	0	0	0	0	0	0	0	0	0
2024-05-06	12:51:51	12:55:58	246051	6.6.1	4_exp_EVA_AWA_CON	13	B	A	Rpleas_acq	Same	Rpleas	1pleas	acq_new_unple_nomask	acq1_nomask	1	21	0	0	300	300	0	0	825	46	1	0	fair	spielen	helfen	treu	loyal	schlau	faul	strafen	hindern	tot	lasch	schroff	schön	ehrlich	lachen	tolerant	retten	freundlich	schlecht	eitel	leiden	tyrannisch	rächen	fanatisch	1	blank2r.bmp	0	1	+	0	1	blank2r.bmp	500	5	C1r.bmp	500	1	blank2r.bmp	880	6	fanatisch	880	0	0	0	0	0	0	0	0	0	0	0	0
2024-05-06	12:51:51	12:56:00	248243	6.6.1	4_exp_EVA_AWA_CON	13	B	A	Rpleas_acq	Same	Rpleas	1pleas	acq_US_pleas_nomask	acq1_nomask	1	22	0	0	300	300	0	0	705	50	1	0	fair	spielen	helfen	treu	loyal	schlau	faul	strafen	hindern	tot	lasch	schroff	schön	ehrlich	lachen	tolerant	retten	freundlich	schlecht	eitel	leiden	tyrannisch	rächen	fanatisch	1	blank2r.bmp	0	1	+	0	1	blank2r.bmp	500	1	BMVZ	500	1	blank2r.bmp	880	5	loyal	880	0	0	0	0	0	0	0	0	0	0	0	0
2024-05-06	12:51:51	12:56:02	250387	6.6.1	4_exp_EVA_AWA_CON	13	B	A	Rpleas_acq	Same	Rpleas	1pleas	acq_US_unple_nomask	acq1_nomask	1	23	0	0	300	300	0	0	658	46	1	0	fair	spielen	helfen	treu	loyal	schlau	faul	strafen	hindern	tot	lasch	schroff	schön	ehrlich	lachen	tolerant	retten	freundlich	schlecht	eitel	leiden	tyrannisch	rächen	fanatisch	1	blank2r.bmp	0	1	+	0	1	blank2r.bmp	500	1	GKQX	500	1	blank2r.bmp	880	2	strafen	880	0	0	0	0	0	0	0	0	0	0	0	0
2024-05-06	12:51:51	12:56:06	254339	6.6.1	4_exp_EVA_AWA_CON	13	B	A	Rpleas_acq	Same	Rpleas	1pleas	acq_new_unple_nomask	acq1_nomask	1	24	0	0	300	300	0	0	2469	46	1	0	fair	spielen	helfen	treu	loyal	schlau	faul	strafen	hindern	tot	lasch	schroff	schön	ehrlich	lachen	tolerant	retten	freundlich	schlecht	eitel	leiden	tyrannisch	rächen	fanatisch	1	blank2r.bmp	0	1	+	0	1	blank2r.bmp	500	7	C3r.bmp	500	1	blank2r.bmp	880	2	eitel	880	0	0	0	0	0	0	0	0	0	0	0	0
2024-05-06	12:51:51	12:56:08	256515	6.6.1	4_exp_EVA_AWA_CON	13	B	A	Rpleas_acq	Same	Rpleas	1pleas	acq_US_unple_nomask	acq1_nomask	1	25	0	0	300	300	0	0	692	46	1	0	fair	spielen	helfen	treu	loyal	schlau	faul	strafen	hindern	tot	lasch	schroff	schön	ehrlich	lachen	tolerant	retten	freundlich	schlecht	eitel	leiden	tyrannisch	rächen	fanatisch	1	blank2r.bmp	0	1	+	0	1	blank2r.bmp	500	1	GKQX	500	1	blank2r.bmp	880	6	schroff	880	0	0	0	0	0	0	0	0	0	0	0	0
2024-05-06	12:51:51	12:56:10	258587	6.6.1	4_exp_EVA_AWA_CON	13	B	A	Rpleas_acq	Same	Rpleas	1pleas	acq_US_unple_nomask	acq1_nomask	1	26	0	0	300	300	0	0	583	46	1	0	fair	spielen	helfen	treu	loyal	schlau	faul	strafen	hindern	tot	lasch	schroff	schön	ehrlich	lachen	tolerant	retten	freundlich	schlecht	eitel	leiden	tyrannisch	rächen	fanatisch	1	blank2r.bmp	0	1	+	0	1	blank2r.bmp	500	1	GKQX	500	1	blank2r.bmp	880	1	faul	880	0	0	0	0	0	0	0	0	0	0	0	0
2024-05-06	12:51:51	12:56:12	260563	6.6.1	4_exp_EVA_AWA_CON	13	B	A	Rpleas_acq	Same	Rpleas	1pleas	acq_new_pleas_nomask	acq1_nomask	1	27	0	0	300	300	0	0	487	50	1	0	fair	spielen	helfen	treu	loyal	schlau	faul	strafen	hindern	tot	lasch	schroff	schön	ehrlich	lachen	tolerant	retten	freundlich	schlecht	eitel	leiden	tyrannisch	rächen	fanatisch	1	blank2r.bmp	0	1	+	0	1	blank2r.bmp	500	6	C2r.bmp	500	1	blank2r.bmp	880	6	freundlich	880	0	0	0	0	0	0	0	0	0	0	0	0
2024-05-06	12:51:51	12:56:14	262643	6.6.1	4_exp_EVA_AWA_CON	13	B	A	Rpleas_acq	Same	Rpleas	1pleas	acq_US_pleas_nomask	acq1_nomask	1	28	0	0	300	300	0	0	596	50	1	0	fair	spielen	helfen	treu	loyal	schlau	faul	strafen	hindern	tot	lasch	schroff	schön	ehrlich	lachen	tolerant	retten	freundlich	schlecht	eitel	leiden	tyrannisch	rächen	fanatisch	1	blank2r.bmp	0	1	+	0	1	blank2r.bmp	500	1	BMVZ	500	1	blank2r.bmp	880	3	helfen	880	0	0	0	0	0	0	0	0	0	0	0	0
2024-05-06	12:51:51	12:56:16	264683	6.6.1	4_exp_EVA_AWA_CON	13	B	A	Rpleas_acq	Same	Rpleas	1pleas	acq_new_pleas_nomask	acq1_nomask	1	29	0	0	300	300	0	0	555	50	1	0	fair	spielen	helfen	treu	loyal	schlau	faul	strafen	hindern	tot	lasch	schroff	schön	ehrlich	lachen	tolerant	retten	freundlich	schlecht	eitel	leiden	tyrannisch	rächen	fanatisch	1	blank2r.bmp	0	1	+	0	1	blank2r.bmp	500	4	B4r.bmp	500	1	blank2r.bmp	880	2	ehrlich	880	0	0	0	0	0	0	0	0	0	0	0	0
2024-05-06	12:51:51	12:56:19	267059	6.6.1	4_exp_EVA_AWA_CON	13	B	A	Rpleas_acq	Same	Rpleas	1pleas	acq_new_pleas_nomask	acq1_nomask	1	30	0	0	300	300	0	0	889	50	1	0	fair	spielen	helfen	treu	loyal	schlau	faul	strafen	hindern	tot	lasch	schroff	schön	ehrlich	lachen	tolerant	retten	freundlich	schlecht	eitel	leiden	tyrannisch	rächen	fanatisch	1	blank2r.bmp	0	1	+	0	1	blank2r.bmp	500	3	B3r.bmp	500	1	blank2r.bmp	880	4	tolerant	880	0	0	0	0	0	0	0	0	0	0	0	0
2024-05-06	12:51:51	12:56:21	269075	6.6.1	4_exp_EVA_AWA_CON	13	B	A	Rpleas_acq	Same	Rpleas	1pleas	acq_US_pleas_nomask	acq1_nomask	1	31	0	0	300	300	0	0	534	50	1	0	fair	spielen	helfen	treu	loyal	schlau	faul	strafen	hindern	tot	lasch	schroff	schön	ehrlich	lachen	tolerant	retten	freundlich	schlecht	eitel	leiden	tyrannisch	rächen	fanatisch	1	blank2r.bmp	0	1	+	0	1	blank2r.bmp	500	1	BMVZ	500	1	blank2r.bmp	880	6	schlau	880	0	0	0	0	0	0	0	0	0	0	0	0
2024-05-06	12:51:51	12:56:23	271235	6.6.1	4_exp_EVA_AWA_CON	13	B	A	Rpleas_acq	Same	Rpleas	1pleas	acq_new_unple_nomask	acq1_nomask	1	32	0	0	300	300	0	0	673	46	1	0	fair	spielen	helfen	treu	loyal	schlau	faul	strafen	hindern	tot	lasch	schroff	schön	ehrlich	lachen	tolerant	retten	freundlich	schlecht	eitel	leiden	tyrannisch	rächen	fanatisch	1	blank2r.bmp	0	1	+	0	1	blank2r.bmp	500	1	B1r.bmp	500	1	blank2r.bmp	880	5	rächen	880	0	0	0	0	0	0	0	0	0	0	0	0
2024-05-06	12:51:51	12:56:25	273331	6.6.1	4_exp_EVA_AWA_CON	13	B	A	Rpleas_acq	Same	Rpleas	1pleas	acq_new_unple_nomask	acq1_nomask	1	33	0	0	300	300	0	0	607	46	1	0	fair	spielen	helfen	treu	loyal	schlau	faul	strafen	hindern	tot	lasch	schroff	schön	ehrlich	lachen	tolerant	retten	freundlich	schlecht	eitel	leiden	tyrannisch	rächen	fanatisch	1	blank2r.bmp	0	1	+	0	1	blank2r.bmp	500	1	B1r.bmp	500	1	blank2r.bmp	880	4	tyrannisch	880	0	0	0	0	0	0	0	0	0	0	0	0
2024-05-06	12:51:51	12:56:27	275483	6.6.1	4_exp_EVA_AWA_CON	13	B	A	Rpleas_acq	Same	Rpleas	1pleas	acq_US_pleas_nomask	acq1_nomask	1	34	0	0	300	300	0	0	668	50	1	0	fair	spielen	helfen	treu	loyal	schlau	faul	strafen	hindern	tot	lasch	schroff	schön	ehrlich	lachen	tolerant	retten	freundlich	schlecht	eitel	leiden	tyrannisch	rächen	fanatisch	1	blank2r.bmp	0	1	+	0	1	blank2r.bmp	500	1	BMVZ	500	1	blank2r.bmp	880	4	treu	880	0	0	0	0	0	0	0	0	0	0	0	0
2024-05-06	12:51:51	12:56:29	277588	6.6.1	4_exp_EVA_AWA_CON	13	B	A	Rpleas_acq	Same	Rpleas	1pleas	acq_US_unple_nomask	acq1_nomask	1	35	0	0	300	300	0	0	621	46	1	0	fair	spielen	helfen	treu	loyal	schlau	faul	strafen	hindern	tot	lasch	schroff	schön	ehrlich	lachen	tolerant	retten	freundlich	schlecht	eitel	leiden	tyrannisch	rächen	fanatisch	1	blank2r.bmp	0	1	+	0	1	blank2r.bmp	500	1	GKQX	500	1	blank2r.bmp	880	4	tot	880	0	0	0	0	0	0	0	0	0	0	0	0
2024-05-06	12:51:51	12:56:31	279763	6.6.1	4_exp_EVA_AWA_CON	13	B	A	Rpleas_acq	Same	Rpleas	1pleas	acq_new_unple_nomask	acq1_nomask	1	36	0	0	300	300	0	0	695	46	1	0	fair	spielen	helfen	treu	loyal	schlau	faul	strafen	hindern	tot	lasch	schroff	schön	ehrlich	lachen	tolerant	retten	freundlich	schlecht	eitel	leiden	tyrannisch	rächen	fanatisch	1	blank2r.bmp	0	1	+	0	1	blank2r.bmp	500	3	B3r.bmp	500	1	blank2r.bmp	880	3	leiden	880	0	0	0	0	0	0	0	0	0	0	0	0
2024-05-06	12:51:51	12:57:05	312885	6.6.1	4_exp_EVA_AWA_CON	13	B	A	Rpleas_acq	Same	Rpleas	1pleas	acq_new_pleas_nomask	acq2_nomask	2	1	480	0	300	300	0	0	2217	50	1	0	fair	spielen	helfen	treu	loyal	schlau	faul	strafen	hindern	tot	lasch	schroff	schön	ehrlich	lachen	tolerant	retten	freundlich	schlecht	eitel	leiden	tyrannisch	rächen	fanatisch	1	blank2r.bmp	0	1	+	0	1	blank2r.bmp	500	7	C3r.bmp	500	1	blank2r.bmp	880	5	retten	880	1	!	1312	1	!	-1	0	0	0	0	0	0
2024-05-06	12:51:51	12:57:07	315253	6.6.1	4_exp_EVA_AWA_CON	13	B	A	Rpleas_acq	Same	Rpleas	1pleas	acq_new_unple_nomask	acq2_nomask	2	2	480	0	300	300	0	0	593	46	1	0	fair	spielen	helfen	treu	loyal	schlau	faul	strafen	hindern	tot	lasch	schroff	schön	ehrlich	lachen	tolerant	retten	freundlich	schlecht	eitel	leiden	tyrannisch	rächen	fanatisch	1	blank2r.bmp	0	1	+	0	1	blank2r.bmp	500	5	C1r.bmp	500	1	blank2r.bmp	880	2	eitel	880	1	!	1312	1	!	-1	0	0	0	0	0	0
2024-05-06	12:51:51	12:57:09	317486	6.6.1	4_exp_EVA_AWA_CON	13	B	A	Rpleas_acq	Same	Rpleas	1pleas	acq_US_unple_nomask	acq2_nomask	2	3	480	1	300	300	0	0	453	46	1	0	fair	spielen	helfen	treu	loyal	schlau	faul	strafen	hindern	tot	lasch	schroff	schön	ehrlich	lachen	tolerant	retten	freundlich	schlecht	eitel	leiden	tyrannisch	rächen	fanatisch	1	blank2r.bmp	0	1	+	0	1	blank2r.bmp	500	1	GKQX	500	1	blank2r.bmp	880	5	lasch	880	1	!	1312	1	!	1354	0	0	0	0	0	0
2024-05-06	12:51:51	12:57:11	319653	6.6.1	4_exp_EVA_AWA_CON	13	B	A	Rpleas_acq	Same	Rpleas	1pleas	acq_new_pleas_nomask	acq2_nomask	2	4	480	0	300	300	0	0	390	50	1	0	fair	spielen	helfen	treu	loyal	schlau	faul	strafen	hindern	tot	lasch	schroff	schön	ehrlich	lachen	tolerant	retten	freundlich	schlecht	eitel	leiden	tyrannisch	rächen	fanatisch	1	blank2r.bmp	0	1	+	0	1	blank2r.bmp	500	2	B2r.bmp	500	1	blank2r.bmp	880	1	schön	880	1	!	-1	1	!	-1	0	0	0	0	0	0
2024-05-06	12:51:51	12:57:14	322166	6.6.1	4_exp_EVA_AWA_CON	13	B	A	Rpleas_acq	Same	Rpleas	1pleas	acq_US_unple_nomask	acq2_nomask	2	5	480	0	300	300	0	0	740	46	1	0	fair	spielen	helfen	treu	loyal	schlau	faul	strafen	hindern	tot	lasch	schroff	schön	ehrlich	lachen	tolerant	retten	freundlich	schlecht	eitel	leiden	tyrannisch	rächen	fanatisch	1	blank2r.bmp	0	1	+	0	1	blank2r.bmp	500	1	GKQX	500	1	blank2r.bmp	880	3	hindern	880	1	!	1313	1	!	-1	0	0	0	0	0	0
2024-05-06	12:51:51	12:57:16	324608	6.6.1	4_exp_EVA_AWA_CON	13	B	A	Rpleas_acq	Same	Rpleas	1pleas	acq_US_pleas_nomask	acq2_nomask	2	6	480	1	300	300	0	0	459	46	0	0	fair	spielen	helfen	treu	loyal	schlau	faul	strafen	hindern	tot	lasch	schroff	schön	ehrlich	lachen	tolerant	retten	freundlich	schlecht	eitel	leiden	tyrannisch	rächen	fanatisch	1	blank2r.bmp	0	1	+	0	1	blank2r.bmp	500	1	BMVZ	500	1	blank2r.bmp	880	1	fair	880	1	FEHLER	1652	1	!	1312	1	!	1360	0	0	0
2024-05-06	12:51:51	12:57:19	326941	6.6.1	4_exp_EVA_AWA_CON	13	B	A	Rpleas_acq	Same	Rpleas	1pleas	acq_new_pleas_nomask	acq2_nomask	2	7	480	0	300	300	0	0	753	50	1	0	fair	spielen	helfen	treu	loyal	schlau	faul	strafen	hindern	tot	lasch	schroff	schön	ehrlich	lachen	tolerant	retten	freundlich	schlecht	eitel	leiden	tyrannisch	rächen	fanatisch	1	blank2r.bmp	0	1	+	0	1	blank2r.bmp	500	8	C4r.bmp	500	1	blank2r.bmp	880	3	lachen	880	1	!	1312	1	!	-1	0	0	0	0	0	0
2024-05-06	12:51:51	12:57:21	329133	6.6.1	4_exp_EVA_AWA_CON	13	B	A	Rpleas_acq	Same	Rpleas	1pleas	acq_US_pleas_nomask	acq2_nomask	2	8	480	1	300	300	0	0	413	50	1	0	fair	spielen	helfen	treu	loyal	schlau	faul	strafen	hindern	tot	lasch	schroff	schön	ehrlich	lachen	tolerant	retten	freundlich	schlecht	eitel	leiden	tyrannisch	rächen	fanatisch	1	blank2r.bmp	0	1	+	0	1	blank2r.bmp	500	1	BMVZ	500	1	blank2r.bmp	880	2	spielen	880	1	!	1313	1	!	1313	0	0	0	0	0	0
2024-05-06	12:51:51	12:57:23	331391	6.6.1	4_exp_EVA_AWA_CON	13	B	A	Rpleas_acq	Same	Rpleas	1pleas	acq_new_unple_nomask	acq2_nomask	2	9	480	1	300	300	0	0	478	46	1	0	fair	spielen	helfen	treu	loyal	schlau	faul	strafen	hindern	tot	lasch	schroff	schön	ehrlich	lachen	tolerant	retten	freundlich	schlecht	eitel	leiden	tyrannisch	rächen	fanatisch	1	blank2r.bmp	0	1	+	0	1	blank2r.bmp	500	4	B4r.bmp	500	1	blank2r.bmp	880	1	schlecht	880	1	!	1312	1	!	1379	0	0	0	0	0	0
2024-05-06	12:51:51	12:57:25	333695	6.6.1	4_exp_EVA_AWA_CON	13	B	A	Rpleas_acq	Same	Rpleas	1pleas	acq_US_unple_nomask	acq2_nomask	2	10	480	1	300	300	0	0	521	46	1	0	fair	spielen	helfen	treu	loyal	schlau	faul	strafen	hindern	tot	lasch	schroff	schön	ehrlich	lachen	tolerant	retten	freundlich	schlecht	eitel	leiden	tyrannisch	rächen	fanatisch	1	blank2r.bmp	0	1	+	0	1	blank2r.bmp	500	1	GKQX	500	1	blank2r.bmp	880	2	strafen	880	1	!	1312	1	!	1422	0	0	0	0	0	0
2024-05-06	12:51:51	12:57:28	336077	6.6.1	4_exp_EVA_AWA_CON	13	B	A	Rpleas_acq	Same	Rpleas	1pleas	acq_US_pleas_nomask	acq2_nomask	2	11	480	0	300	300	0	0	603	50	1	0	fair	spielen	helfen	treu	loyal	schlau	faul	strafen	hindern	tot	lasch	schroff	schön	ehrlich	lachen	tolerant	retten	freundlich	schlecht	eitel	leiden	tyrannisch	rächen	fanatisch	1	blank2r.bmp	0	1	+	0	1	blank2r.bmp	500	1	BMVZ	500	1	blank2r.bmp	880	5	loyal	880	1	!	1313	1	!	-1	0	0	0	0	0	0
2024-05-06	12:51:51	12:57:30	338496	6.6.1	4_exp_EVA_AWA_CON	13	B	A	Rpleas_acq	Same	Rpleas	1pleas	acq_new_unple_nomask	acq2_nomask	2	12	480	1	300	300	0	0	438	50	0	0	fair	spielen	helfen	treu	loyal	schlau	faul	strafen	hindern	tot	lasch	schroff	schön	ehrlich	lachen	tolerant	retten	freundlich	schlecht	eitel	leiden	tyrannisch	rächen	fanatisch	1	blank2r.bmp	0	1	+	0	1	blank2r.bmp	500	6	C2r.bmp	500	1	blank2r.bmp	880	6	fanatisch	880	1	FEHLER	1630	1	!	1312	1	!	1338	0	0	0
2024-05-06	12:51:51	12:57:33	340798	6.6.1	4_exp_EVA_AWA_CON	13	B	A	Rpleas_acq	Same	Rpleas	1pleas	acq_US_pleas_nomask	acq2_nomask	2	13	480	0	300	300	0	0	730	50	1	0	fair	spielen	helfen	treu	loyal	schlau	faul	strafen	hindern	tot	lasch	schroff	schön	ehrlich	lachen	tolerant	retten	freundlich	schlecht	eitel	leiden	tyrannisch	rächen	fanatisch	1	blank2r.bmp	0	1	+	0	1	blank2r.bmp	500	1	BMVZ	500	1	blank2r.bmp	880	3	helfen	880	1	!	1313	1	!	-1	0	0	0	0	0	0
2024-05-06	12:51:51	12:57:35	343023	6.6.1	4_exp_EVA_AWA_CON	13	B	A	Rpleas_acq	Same	Rpleas	1pleas	acq_new_pleas_nomask	acq2_nomask	2	14	480	1	300	300	0	0	443	50	1	0	fair	spielen	helfen	treu	loyal	schlau	faul	strafen	hindern	tot	lasch	schroff	schön	ehrlich	lachen	tolerant	retten	freundlich	schlecht	eitel	leiden	tyrannisch	rächen	fanatisch	1	blank2r.bmp	0	1	+	0	1	blank2r.bmp	500	7	C3r.bmp	500	1	blank2r.bmp	880	1	schön	880	1	!	1313	1	!	1343	0	0	0	0	0	0
2024-05-06	12:51:51	12:57:37	345343	6.6.1	4_exp_EVA_AWA_CON	13	B	A	Rpleas_acq	Same	Rpleas	1pleas	acq_US_pleas_nomask	acq2_nomask	2	15	480	1	300	300	0	0	541	50	1	0	fair	spielen	helfen	treu	loyal	schlau	faul	strafen	hindern	tot	lasch	schroff	schön	ehrlich	lachen	tolerant	retten	freundlich	schlecht	eitel	leiden	tyrannisch	rächen	fanatisch	1	blank2r.bmp	0	1	+	0	1	blank2r.bmp	500	1	BMVZ	500	1	blank2r.bmp	880	4	treu	880	1	!	1313	1	!	1442	0	0	0	0	0	0
2024-05-06	12:51:51	12:57:39	347525	6.6.1	4_exp_EVA_AWA_CON	13	B	A	Rpleas_acq	Same	Rpleas	1pleas	acq_US_pleas_nomask	acq2_nomask	2	16	480	0	300	300	0	0	404	50	1	0	fair	spielen	helfen	treu	loyal	schlau	faul	strafen	hindern	tot	lasch	schroff	schön	ehrlich	lachen	tolerant	retten	freundlich	schlecht	eitel	leiden	tyrannisch	rächen	fanatisch	1	blank2r.bmp	0	1	+	0	1	blank2r.bmp	500	1	BMVZ	500	1	blank2r.bmp	880	5	loyal	880	1	!	-1	1	!	-1	0	0	0	0	0	0
2024-05-06	12:51:51	12:57:42	349859	6.6.1	4_exp_EVA_AWA_CON	13	B	A	Rpleas_acq	Same	Rpleas	1pleas	acq_new_unple_nomask	acq2_nomask	2	17	480	0	300	300	0	0	558	46	1	0	fair	spielen	helfen	treu	loyal	schlau	faul	strafen	hindern	tot	lasch	schroff	schön	ehrlich	lachen	tolerant	retten	freundlich	schlecht	eitel	leiden	tyrannisch	rächen	fanatisch	1	blank2r.bmp	0	1	+	0	1	blank2r.bmp	500	5	C1r.bmp	500	1	blank2r.bmp	880	1	schlecht	880	1	!	1312	1	!	-1	0	0	0	0	0	0
2024-05-06	12:51:51	12:57:44	352175	6.6.1	4_exp_EVA_AWA_CON	13	B	A	Rpleas_acq	Same	Rpleas	1pleas	acq_US_unple_nomask	acq2_nomask	2	18	480	1	300	300	0	0	539	46	1	0	fair	spielen	helfen	treu	loyal	schlau	faul	strafen	hindern	tot	lasch	schroff	schön	ehrlich	lachen	tolerant	retten	freundlich	schlecht	eitel	leiden	tyrannisch	rächen	fanatisch	1	blank2r.bmp	0	1	+	0	1	blank2r.bmp	500	1	GKQX	500	1	blank2r.bmp	880	5	lasch	880	1	!	1313	1	!	1440	0	0	0	0	0	0
2024-05-06	12:51:51	12:57:46	354414	6.6.1	4_exp_EVA_AWA_CON	13	B	A	Rpleas_acq	Same	Rpleas	1pleas	acq_US_unple_nomask	acq2_nomask	2	19	480	1	300	300	0	0	457	46	1	0	fair	spielen	helfen	treu	loyal	schlau	faul	strafen	hindern	tot	lasch	schroff	schön	ehrlich	lachen	tolerant	retten	freundlich	schlecht	eitel	leiden	tyrannisch	rächen	fanatisch	1	blank2r.bmp	0	1	+	0	1	blank2r.bmp	500	1	GKQX	500	1	blank2r.bmp	880	2	strafen	880	1	!	1313	1	!	1358	0	0	0	0	0	0
2024-05-06	12:51:51	12:57:49	356805	6.6.1	4_exp_EVA_AWA_CON	13	B	A	Rpleas_acq	Same	Rpleas	1pleas	acq_US_unple_nomask	acq2_nomask	2	20	480	0	300	300	0	0	618	46	1	0	fair	spielen	helfen	treu	loyal	schlau	faul	strafen	hindern	tot	lasch	schroff	schön	ehrlich	lachen	tolerant	retten	freundlich	schlecht	eitel	leiden	tyrannisch	rächen	fanatisch	1	blank2r.bmp	0	1	+	0	1	blank2r.bmp	500	1	GKQX	500	1	blank2r.bmp	880	6	schroff	880	1	!	1313	1	!	-1	0	0	0	0	0	0
2024-05-06	12:51:51	12:57:51	359139	6.6.1	4_exp_EVA_AWA_CON	13	B	A	Rpleas_acq	Same	Rpleas	1pleas	acq_new_unple_nomask	acq2_nomask	2	21	480	0	300	300	0	0	562	46	1	0	fair	spielen	helfen	treu	loyal	schlau	faul	strafen	hindern	tot	lasch	schroff	schön	ehrlich	lachen	tolerant	retten	freundlich	schlecht	eitel	leiden	tyrannisch	rächen	fanatisch	1	blank2r.bmp	0	1	+	0	1	blank2r.bmp	500	6	C2r.bmp	500	1	blank2r.bmp	880	5	rächen	880	1	!	1312	1	!	-1	0	0	0	0	0	0
2024-05-06	12:51:51	12:57:53	361301	6.6.1	4_exp_EVA_AWA_CON	13	B	A	Rpleas_acq	Same	Rpleas	1pleas	acq_new_pleas_nomask	acq2_nomask	2	22	480	0	300	300	0	0	381	50	1	0	fair	spielen	helfen	treu	loyal	schlau	faul	strafen	hindern	tot	lasch	schroff	schön	ehrlich	lachen	tolerant	retten	freundlich	schlecht	eitel	leiden	tyrannisch	rächen	fanatisch	1	blank2r.bmp	0	1	+	0	1	blank2r.bmp	500	8	C4r.bmp	500	1	blank2r.bmp	880	6	freundlich	880	1	!	-1	1	!	-1	0	0	0	0	0	0
2024-05-06	12:51:51	12:57:55	363631	6.6.1	4_exp_EVA_AWA_CON	13	B	A	Rpleas_acq	Same	Rpleas	1pleas	acq_new_pleas_nomask	acq2_nomask	2	23	480	1	300	300	0	0	547	50	1	0	fair	spielen	helfen	treu	loyal	schlau	faul	strafen	hindern	tot	lasch	schroff	schön	ehrlich	lachen	tolerant	retten	freundlich	schlecht	eitel	leiden	tyrannisch	rächen	fanatisch	1	blank2r.bmp	0	1	+	0	1	blank2r.bmp	500	3	B3r.bmp	500	1	blank2r.bmp	880	3	lachen	880	1	!	1313	1	!	1448	0	0	0	0	0	0
2024-05-06	12:51:51	12:57:58	366029	6.6.1	4_exp_EVA_AWA_CON	13	B	A	Rpleas_acq	Same	Rpleas	1pleas	acq_new_unple_nomask	acq2_nomask	2	24	480	0	300	300	0	0	626	46	1	0	fair	spielen	helfen	treu	loyal	schlau	faul	strafen	hindern	tot	lasch	schroff	schön	ehrlich	lachen	tolerant	retten	freundlich	schlecht	eitel	leiden	tyrannisch	rächen	fanatisch	1	blank2r.bmp	0	1	+	0	1	blank2r.bmp	500	1	B1r.bmp	500	1	blank2r.bmp	880	4	tyrannisch	880	1	!	1312	1	!	-1	0	0	0	0	0	0
2024-05-06	12:51:51	12:58:00	368373	6.6.1	4_exp_EVA_AWA_CON	13	B	A	Rpleas_acq	Same	Rpleas	1pleas	acq_new_unple_nomask	acq2_nomask	2	25	480	0	300	300	0	0	568	46	1	0	fair	spielen	helfen	treu	loyal	schlau	faul	strafen	hindern	tot	lasch	schroff	schön	ehrlich	lachen	tolerant	retten	freundlich	schlecht	eitel	leiden	tyrannisch	rächen	fanatisch	1	blank2r.bmp	0	1	+	0	1	blank2r.bmp	500	2	B2r.bmp	500	1	blank2r.bmp	880	3	leiden	880	1	!	1312	1	!	-1	0	0	0	0	0	0
2024-05-06	12:51:51	12:58:02	370687	6.6.1	4_exp_EVA_AWA_CON	13	B	A	Rpleas_acq	Same	Rpleas	1pleas	acq_new_unple_nomask	acq2_nomask	2	26	480	1	300	300	0	0	539	46	1	0	fair	spielen	helfen	treu	loyal	schlau	faul	strafen	hindern	tot	lasch	schroff	schön	ehrlich	lachen	tolerant	retten	freundlich	schlecht	eitel	leiden	tyrannisch	rächen	fanatisch	1	blank2r.bmp	0	1	+	0	1	blank2r.bmp	500	4	B4r.bmp	500	1	blank2r.bmp	880	6	fanatisch	880	1	!	1313	1	!	1440	0	0	0	0	0	0
2024-05-06	12:51:51	12:58:05	373192	6.6.1	4_exp_EVA_AWA_CON	13	B	A	Rpleas_acq	Same	Rpleas	1pleas	acq_new_pleas_nomask	acq2_nomask	2	27	480	1	300	300	0	0	521	46	0	0	fair	spielen	helfen	treu	loyal	schlau	faul	strafen	hindern	tot	lasch	schroff	schön	ehrlich	lachen	tolerant	retten	freundlich	schlecht	eitel	leiden	tyrannisch	rächen	fanatisch	1	blank2r.bmp	0	1	+	0	1	blank2r.bmp	500	8	C4r.bmp	500	1	blank2r.bmp	880	4	tolerant	880	1	FEHLER	1714	1	!	1312	1	!	1423	0	0	0
2024-05-06	12:51:51	12:58:07	375549	6.6.1	4_exp_EVA_AWA_CON	13	B	A	Rpleas_acq	Same	Rpleas	1pleas	acq_new_pleas_nomask	acq2_nomask	2	28	480	0	300	300	0	0	780	50	1	0	fair	spielen	helfen	treu	loyal	schlau	faul	strafen	hindern	tot	lasch	schroff	schön	ehrlich	lachen	tolerant	retten	freundlich	schlecht	eitel	leiden	tyrannisch	rächen	fanatisch	1	blank2r.bmp	0	1	+	0	1	blank2r.bmp	500	4	B4r.bmp	500	1	blank2r.bmp	880	5	retten	880	1	!	1313	1	!	-1	0	0	0	0	0	0
2024-05-06	12:51:51	12:58:10	377839	6.6.1	4_exp_EVA_AWA_CON	13	B	A	Rpleas_acq	Same	Rpleas	1pleas	acq_new_unple_nomask	acq2_nomask	2	29	480	1	300	300	0	0	506	46	1	0	fair	spielen	helfen	treu	loyal	schlau	faul	strafen	hindern	tot	lasch	schroff	schön	ehrlich	lachen	tolerant	retten	freundlich	schlecht	eitel	leiden	tyrannisch	rächen	fanatisch	1	blank2r.bmp	0	1	+	0	1	blank2r.bmp	500	2	B2r.bmp	500	1	blank2r.bmp	880	2	eitel	880	1	!	1312	1	!	1407	0	0	0	0	0	0
2024-05-06	12:51:51	12:58:12	380095	6.6.1	4_exp_EVA_AWA_CON	13	B	A	Rpleas_acq	Same	Rpleas	1pleas	acq_US_pleas_nomask	acq2_nomask	2	30	480	1	300	300	0	0	481	50	1	0	fair	spielen	helfen	treu	loyal	schlau	faul	strafen	hindern	tot	lasch	schroff	schön	ehrlich	lachen	tolerant	retten	freundlich	schlecht	eitel	leiden	tyrannisch	rächen	fanatisch	1	blank2r.bmp	0	1	+	0	1	blank2r.bmp	500	1	BMVZ	500	1	blank2r.bmp	880	1	fair	880	1	!	1312	1	!	1382	0	0	0	0	0	0
2024-05-06	12:51:51	12:58:14	382469	6.6.1	4_exp_EVA_AWA_CON	13	B	A	Rpleas_acq	Same	Rpleas	1pleas	acq_US_pleas_nomask	acq2_nomask	2	31	480	0	300	300	0	0	595	50	1	0	fair	spielen	helfen	treu	loyal	schlau	faul	strafen	hindern	tot	lasch	schroff	schön	ehrlich	lachen	tolerant	retten	freundlich	schlecht	eitel	leiden	tyrannisch	rächen	fanatisch	1	blank2r.bmp	0	1	+	0	1	blank2r.bmp	500	1	BMVZ	500	1	blank2r.bmp	880	2	spielen	880	1	!	1313	1	!	-1	0	0	0	0	0	0
2024-05-06	12:51:51	12:58:16	384694	6.6.1	4_exp_EVA_AWA_CON	13	B	A	Rpleas_acq	Same	Rpleas	1pleas	acq_US_pleas_nomask	acq2_nomask	2	32	480	1	300	300	0	0	448	50	1	0	fair	spielen	helfen	treu	loyal	schlau	faul	strafen	hindern	tot	lasch	schroff	schön	ehrlich	lachen	tolerant	retten	freundlich	schlecht	eitel	leiden	tyrannisch	rächen	fanatisch	1	blank2r.bmp	0	1	+	0	1	blank2r.bmp	500	1	BMVZ	500	1	blank2r.bmp	880	6	schlau	880	1	!	1312	1	!	1349	0	0	0	0	0	0
2024-05-06	12:51:51	12:58:19	386919	6.6.1	4_exp_EVA_AWA_CON	13	B	A	Rpleas_acq	Same	Rpleas	1pleas	acq_US_unple_nomask	acq2_nomask	2	33	480	1	300	300	0	0	451	46	1	0	fair	spielen	helfen	treu	loyal	schlau	faul	strafen	hindern	tot	lasch	schroff	schön	ehrlich	lachen	tolerant	retten	freundlich	schlecht	eitel	leiden	tyrannisch	rächen	fanatisch	1	blank2r.bmp	0	1	+	0	1	blank2r.bmp	500	1	GKQX	500	1	blank2r.bmp	880	4	tot	880	1	!	1313	1	!	1352	0	0	0	0	0	0
2024-05-06	12:51:51	12:58:21	389293	6.6.1	4_exp_EVA_AWA_CON	13	B	A	Rpleas_acq	Same	Rpleas	1pleas	acq_US_unple_nomask	acq2_nomask	2	34	480	0	300	300	0	0	595	46	1	0	fair	spielen	helfen	treu	loyal	schlau	faul	strafen	hindern	tot	lasch	schroff	schön	ehrlich	lachen	tolerant	retten	freundlich	schlecht	eitel	leiden	tyrannisch	rächen	fanatisch	1	blank2r.bmp	0	1	+	0	1	blank2r.bmp	500	1	GKQX	500	1	blank2r.bmp	880	3	hindern	880	1	!	1313	1	!	-1	0	0	0	0	0	0
2024-05-06	12:51:51	12:58:23	391574	6.6.1	4_exp_EVA_AWA_CON	13	B	A	Rpleas_acq	Same	Rpleas	1pleas	acq_new_pleas_nomask	acq2_nomask	2	35	480	1	300	300	0	0	503	50	1	0	fair	spielen	helfen	treu	loyal	schlau	faul	strafen	hindern	tot	lasch	schroff	schön	ehrlich	lachen	tolerant	retten	freundlich	schlecht	eitel	leiden	tyrannisch	rächen	fanatisch	1	blank2r.bmp	0	1	+	0	1	blank2r.bmp	500	1	B1r.bmp	500	1	blank2r.bmp	880	2	ehrlich	880	1	!	1313	1	!	1404	0	0	0	0	0	0
2024-05-06	12:51:51	12:58:26	393933	6.6.1	4_exp_EVA_AWA_CON	13	B	A	Rpleas_acq	Same	Rpleas	1pleas	acq_US_unple_nomask	acq2_nomask	2	36	480	0	300	300	0	0	582	46	1	0	fair	spielen	helfen	treu	loyal	schlau	faul	strafen	hindern	tot	lasch	schroff	schön	ehrlich	lachen	tolerant	retten	freundlich	schlecht	eitel	leiden	tyrannisch	rächen	fanatisch	1	blank2r.bmp	0	1	+	0	1	blank2r.bmp	500	1	GKQX	500	1	blank2r.bmp	880	1	faul	880	1	!	1313	1	!	-1	0	0	0	0	0	0
2024-05-06	12:51:51	12:58:37	404933	6.6.1	4_exp_EVA_AWA_CON	13	B	A	Rpleas_acq	Same	Rpleas	1pleas	acq_US_pleas_nomask	acq3_nomask	3	1	453	0	300	300	0	0	675	50	1	0	fair	spielen	helfen	treu	loyal	schlau	faul	strafen	hindern	tot	lasch	schroff	schön	ehrlich	lachen	tolerant	retten	freundlich	schlecht	eitel	leiden	tyrannisch	rächen	fanatisch	1	blank2r.bmp	0	1	+	0	1	blank2r.bmp	500	1	BMVZ	500	1	blank2r.bmp	880	1	fair	880	1	!	1292	1	!	-1	0	0	0	0	0	0
2024-05-06	12:51:51	12:58:39	407158	6.6.1	4_exp_EVA_AWA_CON	13	B	A	Rpleas_acq	Same	Rpleas	1pleas	acq_US_unple_nomask	acq3_nomask	3	2	453	1	300	300	0	0	447	46	1	0	fair	spielen	helfen	treu	loyal	schlau	faul	strafen	hindern	tot	lasch	schroff	schön	ehrlich	lachen	tolerant	retten	freundlich	schlecht	eitel	leiden	tyrannisch	rächen	fanatisch	1	blank2r.bmp	0	1	+	0	1	blank2r.bmp	500	1	GKQX	500	1	blank2r.bmp	880	4	tot	880	1	!	1292	1	!	1348	0	0	0	0	0	0
2024-05-06	12:51:51	12:58:41	409350	6.6.1	4_exp_EVA_AWA_CON	13	B	A	Rpleas_acq	Same	Rpleas	1pleas	acq_US_pleas_nomask	acq3_nomask	3	3	453	1	300	300	0	0	418	50	1	0	fair	spielen	helfen	treu	loyal	schlau	faul	strafen	hindern	tot	lasch	schroff	schön	ehrlich	lachen	tolerant	retten	freundlich	schlecht	eitel	leiden	tyrannisch	rächen	fanatisch	1	blank2r.bmp	0	1	+	0	1	blank2r.bmp	500	1	BMVZ	500	1	blank2r.bmp	880	2	spielen	880	1	!	1293	1	!	1319	0	0	0	0	0	0
2024-05-06	12:51:51	12:58:43	411599	6.6.1	4_exp_EVA_AWA_CON	13	B	A	Rpleas_acq	Same	Rpleas	1pleas	acq_US_pleas_nomask	acq3_nomask	3	4	453	1	300	300	0	0	475	50	1	0	fair	spielen	helfen	treu	loyal	schlau	faul	strafen	hindern	tot	lasch	schroff	schön	ehrlich	lachen	tolerant	retten	freundlich	schlecht	eitel	leiden	tyrannisch	rächen	fanatisch	1	blank2r.bmp	0	1	+	0	1	blank2r.bmp	500	1	BMVZ	500	1	blank2r.bmp	880	5	loyal	880	1	!	1293	1	!	1376	0	0	0	0	0	0
2024-05-06	12:51:51	12:58:46	413830	6.6.1	4_exp_EVA_AWA_CON	13	B	A	Rpleas_acq	Same	Rpleas	1pleas	acq_US_unple_nomask	acq3_nomask	3	5	453	1	300	300	0	0	455	46	1	0	fair	spielen	helfen	treu	loyal	schlau	faul	strafen	hindern	tot	lasch	schroff	schön	ehrlich	lachen	tolerant	retten	freundlich	schlecht	eitel	leiden	tyrannisch	rächen	fanatisch	1	blank2r.bmp	0	1	+	0	1	blank2r.bmp	500	1	GKQX	500	1	blank2r.bmp	880	5	lasch	880	1	!	1293	1	!	1356	0	0	0	0	0	0
2024-05-06	12:51:51	12:58:48	416131	6.6.1	4_exp_EVA_AWA_CON	13	B	A	Rpleas_acq	Same	Rpleas	1pleas	acq_US_pleas_nomask	acq3_nomask	3	6	453	0	300	300	0	0	528	50	1	0	fair	spielen	helfen	treu	loyal	schlau	faul	strafen	hindern	tot	lasch	schroff	schön	ehrlich	lachen	tolerant	retten	freundlich	schlecht	eitel	leiden	tyrannisch	rächen	fanatisch	1	blank2r.bmp	0	1	+	0	1	blank2r.bmp	500	1	BMVZ	500	1	blank2r.bmp	880	3	helfen	880	1	!	1292	1	!	-1	0	0	0	0	0	0
2024-05-06	12:51:51	12:58:50	418366	6.6.1	4_exp_EVA_AWA_CON	13	B	A	Rpleas_acq	Same	Rpleas	1pleas	acq_US_unple_nomask	acq3_nomask	3	7	453	1	300	300	0	0	458	46	1	0	fair	spielen	helfen	treu	loyal	schlau	faul	strafen	hindern	tot	lasch	schroff	schön	ehrlich	lachen	tolerant	retten	freundlich	schlecht	eitel	leiden	tyrannisch	rächen	fanatisch	1	blank2r.bmp	0	1	+	0	1	blank2r.bmp	500	1	GKQX	500	1	blank2r.bmp	880	6	schroff	880	1	!	1293	1	!	1359	0	0	0	0	0	0
2024-05-06	12:51:51	12:58:53	420904	6.6.1	4_exp_EVA_AWA_CON	13	B	A	Rpleas_acq	Same	Rpleas	1pleas	acq_US_unple_nomask	acq3_nomask	3	8	453	0	300	300	0	0	563	50	0	0	fair	spielen	helfen	treu	loyal	schlau	faul	strafen	hindern	tot	lasch	schroff	schön	ehrlich	lachen	tolerant	retten	freundlich	schlecht	eitel	leiden	tyrannisch	rächen	fanatisch	1	blank2r.bmp	0	1	+	0	1	blank2r.bmp	500	1	GKQX	500	1	blank2r.bmp	880	2	strafen	880	1	FEHLER	1756	1	!	1293	1	!	-1	0	0	0
2024-05-06	12:51:51	12:58:55	423128	6.6.1	4_exp_EVA_AWA_CON	13	B	A	Rpleas_acq	Same	Rpleas	1pleas	acq_US_unple_nomask	acq3_nomask	3	9	453	1	300	300	0	0	445	50	0	0	fair	spielen	helfen	treu	loyal	schlau	faul	strafen	hindern	tot	lasch	schroff	schön	ehrlich	lachen	tolerant	retten	freundlich	schlecht	eitel	leiden	tyrannisch	rächen	fanatisch	1	blank2r.bmp	0	1	+	0	1	blank2r.bmp	500	1	GKQX	500	1	blank2r.bmp	880	1	faul	880	1	FEHLER	1638	1	!	1292	1	!	1346	0	0	0
2024-05-06	12:51:51	12:58:57	425214	6.6.1	4_exp_EVA_AWA_CON	13	B	A	Rpleas_acq	Same	Rpleas	1pleas	acq_US_pleas_nomask	acq3_nomask	3	10	453	1	300	300	0	0	512	50	1	0	fair	spielen	helfen	treu	loyal	schlau	faul	strafen	hindern	tot	lasch	schroff	schön	ehrlich	lachen	tolerant	retten	freundlich	schlecht	eitel	leiden	tyrannisch	rächen	fanatisch	1	blank2r.bmp	0	1	+	0	1	blank2r.bmp	500	1	BMVZ	500	1	blank2r.bmp	880	4	treu	880	1	!	1292	1	!	1413	0	0	0	0	0	0
2024-05-06	12:51:51	12:58:59	427486	6.6.1	4_exp_EVA_AWA_CON	13	B	A	Rpleas_acq	Same	Rpleas	1pleas	acq_US_pleas_nomask	acq3_nomask	3	11	453	1	300	300	0	0	492	50	1	0	fair	spielen	helfen	treu	loyal	schlau	faul	strafen	hindern	tot	lasch	schroff	schön	ehrlich	lachen	tolerant	retten	freundlich	schlecht	eitel	leiden	tyrannisch	rächen	fanatisch	1	blank2r.bmp	0	1	+	0	1	blank2r.bmp	500	1	BMVZ	500	1	blank2r.bmp	880	6	schlau	880	1	!	1293	1	!	1393	0	0	0	0	0	0
2024-05-06	12:51:51	12:59:01	429775	6.6.1	4_exp_EVA_AWA_CON	13	B	A	Rpleas_acq	Same	Rpleas	1pleas	acq_US_unple_nomask	acq3_nomask	3	12	453	1	300	300	0	0	509	46	1	0	fair	spielen	helfen	treu	loyal	schlau	faul	strafen	hindern	tot	lasch	schroff	schön	ehrlich	lachen	tolerant	retten	freundlich	schlecht	eitel	leiden	tyrannisch	rächen	fanatisch	1	blank2r.bmp	0	1	+	0	1	blank2r.bmp	500	1	GKQX	500	1	blank2r.bmp	880	3	hindern	880	1	!	1292	1	!	1410	0	0	0	0	0	0
2024-05-06	12:51:51	12:59:04	432063	6.6.1	4_exp_EVA_AWA_CON	13	B	A	Rpleas_acq	Same	Rpleas	1pleas	acq_US_pleas_nomask	acq3_nomask	3	13	453	1	300	300	0	0	505	50	1	0	fair	spielen	helfen	treu	loyal	schlau	faul	strafen	hindern	tot	lasch	schroff	schön	ehrlich	lachen	tolerant	retten	freundlich	schlecht	eitel	leiden	tyrannisch	rächen	fanatisch	1	blank2r.bmp	0	1	+	0	1	blank2r.bmp	500	1	BMVZ	500	1	blank2r.bmp	880	5	loyal	880	1	!	1292	1	!	1406	0	0	0	0	0	0
2024-05-06	12:51:51	12:59:06	434279	6.6.1	4_exp_EVA_AWA_CON	13	B	A	Rpleas_acq	Same	Rpleas	1pleas	acq_US_unple_nomask	acq3_nomask	3	14	453	1	300	300	0	0	440	46	1	0	fair	spielen	helfen	treu	loyal	schlau	faul	strafen	hindern	tot	lasch	schroff	schön	ehrlich	lachen	tolerant	retten	freundlich	schlecht	eitel	leiden	tyrannisch	rächen	fanatisch	1	blank2r.bmp	0	1	+	0	1	blank2r.bmp	500	1	GKQX	500	1	blank2r.bmp	880	4	tot	880	1	!	1293	1	!	1342	0	0	0	0	0	0
2024-05-06	12:51:51	12:59:08	436421	6.6.1	4_exp_EVA_AWA_CON	13	B	A	Rpleas_acq	Same	Rpleas	1pleas	acq_US_pleas_nomask	acq3_nomask	3	15	453	0	300	300	0	0	363	50	1	0	fair	spielen	helfen	treu	loyal	schlau	faul	strafen	hindern	tot	lasch	schroff	schön	ehrlich	lachen	tolerant	retten	freundlich	schlecht	eitel	leiden	tyrannisch	rächen	fanatisch	1	blank2r.bmp	0	1	+	0	1	blank2r.bmp	500	1	BMVZ	500	1	blank2r.bmp	880	4	treu	880	1	!	-1	1	!	-1	0	0	0	0	0	0
2024-05-06	12:51:51	12:59:10	438663	6.6.1	4_exp_EVA_AWA_CON	13	B	A	Rpleas_acq	Same	Rpleas	1pleas	acq_US_unple_nomask	acq3_nomask	3	16	453	1	300	300	0	0	461	46	1	0	fair	spielen	helfen	treu	loyal	schlau	faul	strafen	hindern	tot	lasch	schroff	schön	ehrlich	lachen	tolerant	retten	freundlich	schlecht	eitel	leiden	tyrannisch	rächen	fanatisch	1	blank2r.bmp	0	1	+	0	1	blank2r.bmp	500	1	GKQX	500	1	blank2r.bmp	880	3	hindern	880	1	!	1292	1	!	1362	0	0	0	0	0	0
2024-05-06	12:51:51	12:59:13	440968	6.6.1	4_exp_EVA_AWA_CON	13	B	A	Rpleas_acq	Same	Rpleas	1pleas	acq_US_unple_nomask	acq3_nomask	3	17	453	0	300	300	0	0	324	50	0	0	fair	spielen	helfen	treu	loyal	schlau	faul	strafen	hindern	tot	lasch	schroff	schön	ehrlich	lachen	tolerant	retten	freundlich	schlecht	eitel	leiden	tyrannisch	rächen	fanatisch	1	blank2r.bmp	0	1	+	0	1	blank2r.bmp	500	1	GKQX	500	1	blank2r.bmp	880	5	lasch	880	1	FEHLER	1517	1	!	-1	1	!	-1	0	0	0
2024-05-06	12:51:51	12:59:15	443047	6.6.1	4_exp_EVA_AWA_CON	13	B	A	Rpleas_acq	Same	Rpleas	1pleas	acq_US_unple_nomask	acq3_nomask	3	18	453	1	300	300	0	0	502	46	1	0	fair	spielen	helfen	treu	loyal	schlau	faul	strafen	hindern	tot	lasch	schroff	schön	ehrlich	lachen	tolerant	retten	freundlich	schlecht	eitel	leiden	tyrannisch	rächen	fanatisch	1	blank2r.bmp	0	1	+	0	1	blank2r.bmp	500	1	GKQX	500	1	blank2r.bmp	880	1	faul	880	1	!	1293	1	!	1403	0	0	0	0	0	0
2024-05-06	12:51:51	12:59:17	445239	6.6.1	4_exp_EVA_AWA_CON	13	B	A	Rpleas_acq	Same	Rpleas	1pleas	acq_US_unple_nomask	acq3_nomask	3	19	453	1	300	300	0	0	413	46	1	0	fair	spielen	helfen	treu	loyal	schlau	faul	strafen	hindern	tot	lasch	schroff	schön	ehrlich	lachen	tolerant	retten	freundlich	schlecht	eitel	leiden	tyrannisch	rächen	fanatisch	1	blank2r.bmp	0	1	+	0	1	blank2r.bmp	500	1	GKQX	500	1	blank2r.bmp	880	6	schroff	880	1	!	1292	1	!	1314	0	0	0	0	0	0
2024-05-06	12:51:51	12:59:19	447422	6.6.1	4_exp_EVA_AWA_CON	13	B	A	Rpleas_acq	Same	Rpleas	1pleas	acq_US_unple_nomask	acq3_nomask	3	20	453	1	300	300	0	0	406	46	1	0	fair	spielen	helfen	treu	loyal	schlau	faul	strafen	hindern	tot	lasch	schroff	schön	ehrlich	lachen	tolerant	retten	freundlich	schlecht	eitel	leiden	tyrannisch	rächen	fanatisch	1	blank2r.bmp	0	1	+	0	1	blank2r.bmp	500	1	GKQX	500	1	blank2r.bmp	880	2	strafen	880	1	!	1293	1	!	1306	0	0	0	0	0	0
2024-05-06	12:51:51	12:59:21	449719	6.6.1	4_exp_EVA_AWA_CON	13	B	A	Rpleas_acq	Same	Rpleas	1pleas	acq_US_pleas_nomask	acq3_nomask	3	21	453	1	300	300	0	0	520	50	1	0	fair	spielen	helfen	treu	loyal	schlau	faul	strafen	hindern	tot	lasch	schroff	schön	ehrlich	lachen	tolerant	retten	freundlich	schlecht	eitel	leiden	tyrannisch	rächen	fanatisch	1	blank2r.bmp	0	1	+	0	1	blank2r.bmp	500	1	BMVZ	500	1	blank2r.bmp	880	1	fair	880	1	!	1293	1	!	1422	0	0	0	0	0	0
2024-05-06	12:51:51	12:59:24	452143	6.6.1	4_exp_EVA_AWA_CON	13	B	A	Rpleas_acq	Same	Rpleas	1pleas	acq_US_pleas_nomask	acq3_nomask	3	22	453	1	300	300	0	0	443	46	0	0	fair	spielen	helfen	treu	loyal	schlau	faul	strafen	hindern	tot	lasch	schroff	schön	ehrlich	lachen	tolerant	retten	freundlich	schlecht	eitel	leiden	tyrannisch	rächen	fanatisch	1	blank2r.bmp	0	1	+	0	1	blank2r.bmp	500	1	BMVZ	500	1	blank2r.bmp	880	3	helfen	880	1	FEHLER	1635	1	!	1292	1	!	1343	0	0	0
2024-05-06	12:51:51	12:59:26	454127	6.6.1	4_exp_EVA_AWA_CON	13	B	A	Rpleas_acq	Same	Rpleas	1pleas	acq_US_pleas_nomask	acq3_nomask	3	23	453	1	300	300	0	0	405	50	1	0	fair	spielen	helfen	treu	loyal	schlau	faul	strafen	hindern	tot	lasch	schroff	schön	ehrlich	lachen	tolerant	retten	freundlich	schlecht	eitel	leiden	tyrannisch	rächen	fanatisch	1	blank2r.bmp	0	1	+	0	1	blank2r.bmp	500	1	BMVZ	500	1	blank2r.bmp	880	6	schlau	880	1	!	1292	1	!	1306	0	0	0	0	0	0
2024-05-06	12:51:51	12:59:28	456285	6.6.1	4_exp_EVA_AWA_CON	13	B	A	Rpleas_acq	Same	Rpleas	1pleas	acq_US_pleas_nomask	acq3_nomask	3	24	453	0	300	300	0	0	384	50	1	0	fair	spielen	helfen	treu	loyal	schlau	faul	strafen	hindern	tot	lasch	schroff	schön	ehrlich	lachen	tolerant	retten	freundlich	schlecht	eitel	leiden	tyrannisch	rächen	fanatisch	1	blank2r.bmp	0	1	+	0	1	blank2r.bmp	500	1	BMVZ	500	1	blank2r.bmp	880	2	spielen	880	1	!	-1	1	!	-1	0	0	0	0	0	0
2024-05-06	12:51:51	12:59:30	458527	6.6.1	4_exp_EVA_AWA_CON	13	B	A	Rpleas_acq	Same	Rpleas	1pleas	acq_US_pleas_nomask	acq3_nomask	3	25	453	1	300	300	0	0	462	50	1	0	fair	spielen	helfen	treu	loyal	schlau	faul	strafen	hindern	tot	lasch	schroff	schön	ehrlich	lachen	tolerant	retten	freundlich	schlecht	eitel	leiden	tyrannisch	rächen	fanatisch	1	blank2r.bmp	0	1	+	0	1	blank2r.bmp	500	1	BMVZ	500	1	blank2r.bmp	880	2	spielen	880	1	!	1293	1	!	1363	0	0	0	0	0	0
2024-05-06	12:51:51	12:59:33	460807	6.6.1	4_exp_EVA_AWA_CON	13	B	A	Rpleas_acq	Same	Rpleas	1pleas	acq_US_unple_nomask	acq3_nomask	3	26	453	1	300	300	0	0	501	46	1	0	fair	spielen	helfen	treu	loyal	schlau	faul	strafen	hindern	tot	lasch	schroff	schön	ehrlich	lachen	tolerant	retten	freundlich	schlecht	eitel	leiden	tyrannisch	rächen	fanatisch	1	blank2r.bmp	0	1	+	0	1	blank2r.bmp	500	1	GKQX	500	1	blank2r.bmp	880	2	strafen	880	1	!	1292	1	!	1402	0	0	0	0	0	0
2024-05-06	12:51:51	12:59:35	463079	6.6.1	4_exp_EVA_AWA_CON	13	B	A	Rpleas_acq	Same	Rpleas	1pleas	acq_US_unple_nomask	acq3_nomask	3	27	453	1	300	300	0	0	492	46	1	0	fair	spielen	helfen	treu	loyal	schlau	faul	strafen	hindern	tot	lasch	schroff	schön	ehrlich	lachen	tolerant	retten	freundlich	schlecht	eitel	leiden	tyrannisch	rächen	fanatisch	1	blank2r.bmp	0	1	+	0	1	blank2r.bmp	500	1	GKQX	500	1	blank2r.bmp	880	5	lasch	880	1	!	1292	1	!	1393	0	0	0	0	0	0
2024-05-06	12:51:51	12:59:37	465238	6.6.1	4_exp_EVA_AWA_CON	13	B	A	Rpleas_acq	Same	Rpleas	1pleas	acq_US_pleas_nomask	acq3_nomask	3	28	453	0	300	300	0	0	380	50	1	0	fair	spielen	helfen	treu	loyal	schlau	faul	strafen	hindern	tot	lasch	schroff	schön	ehrlich	lachen	tolerant	retten	freundlich	schlecht	eitel	leiden	tyrannisch	rächen	fanatisch	1	blank2r.bmp	0	1	+	0	1	blank2r.bmp	500	1	BMVZ	500	1	blank2r.bmp	880	4	treu	880	1	!	-1	1	!	-1	0	0	0	0	0	0
2024-05-06	12:51:51	12:59:39	467455	6.6.1	4_exp_EVA_AWA_CON	13	B	A	Rpleas_acq	Same	Rpleas	1pleas	acq_US_pleas_nomask	acq3_nomask	3	29	453	1	300	300	0	0	435	50	1	0	fair	spielen	helfen	treu	loyal	schlau	faul	strafen	hindern	tot	lasch	schroff	schön	ehrlich	lachen	tolerant	retten	freundlich	schlecht	eitel	leiden	tyrannisch	rächen	fanatisch	1	blank2r.bmp	0	1	+	0	1	blank2r.bmp	500	1	BMVZ	500	1	blank2r.bmp	880	3	helfen	880	1	!	1293	1	!	1336	0	0	0	0	0	0
2024-05-06	12:51:51	12:59:41	469789	6.6.1	4_exp_EVA_AWA_CON	13	B	A	Rpleas_acq	Same	Rpleas	1pleas	acq_US_unple_nomask	acq3_nomask	3	30	453	0	300	300	0	0	559	46	1	0	fair	spielen	helfen	treu	loyal	schlau	faul	strafen	hindern	tot	lasch	schroff	schön	ehrlich	lachen	tolerant	retten	freundlich	schlecht	eitel	leiden	tyrannisch	rächen	fanatisch	1	blank2r.bmp	0	1	+	0	1	blank2r.bmp	500	1	GKQX	500	1	blank2r.bmp	880	3	hindern	880	1	!	1293	1	!	-1	0	0	0	0	0	0
2024-05-06	12:51:51	12:59:44	472070	6.6.1	4_exp_EVA_AWA_CON	13	B	A	Rpleas_acq	Same	Rpleas	1pleas	acq_US_unple_nomask	acq3_nomask	3	31	453	1	300	300	0	0	508	46	1	0	fair	spielen	helfen	treu	loyal	schlau	faul	strafen	hindern	tot	lasch	schroff	schön	ehrlich	lachen	tolerant	retten	freundlich	schlecht	eitel	leiden	tyrannisch	rächen	fanatisch	1	blank2r.bmp	0	1	+	0	1	blank2r.bmp	500	1	GKQX	500	1	blank2r.bmp	880	6	schroff	880	1	!	1292	1	!	1409	0	0	0	0	0	0
2024-05-06	12:51:51	12:59:46	474335	6.6.1	4_exp_EVA_AWA_CON	13	B	A	Rpleas_acq	Same	Rpleas	1pleas	acq_US_pleas_nomask	acq3_nomask	3	32	453	1	300	300	0	0	490	50	1	0	fair	spielen	helfen	treu	loyal	schlau	faul	strafen	hindern	tot	lasch	schroff	schön	ehrlich	lachen	tolerant	retten	freundlich	schlecht	eitel	leiden	tyrannisch	rächen	fanatisch	1	blank2r.bmp	0	1	+	0	1	blank2r.bmp	500	1	BMVZ	500	1	blank2r.bmp	880	5	loyal	880	1	!	1292	1	!	1392	0	0	0	0	0	0
2024-05-06	12:51:51	12:59:48	476623	6.6.1	4_exp_EVA_AWA_CON	13	B	A	Rpleas_acq	Same	Rpleas	1pleas	acq_US_pleas_nomask	acq3_nomask	3	33	453	1	300	300	0	0	507	50	1	0	fair	spielen	helfen	treu	loyal	schlau	faul	strafen	hindern	tot	lasch	schroff	schön	ehrlich	lachen	tolerant	retten	freundlich	schlecht	eitel	leiden	tyrannisch	rächen	fanatisch	1	blank2r.bmp	0	1	+	0	1	blank2r.bmp	500	1	BMVZ	500	1	blank2r.bmp	880	1	fair	880	1	!	1293	1	!	1408	0	0	0	0	0	0
2024-05-06	12:51:51	12:59:51	478903	6.6.1	4_exp_EVA_AWA_CON	13	B	A	Rpleas_acq	Same	Rpleas	1pleas	acq_US_unple_nomask	acq3_nomask	3	34	453	1	300	300	0	0	505	46	1	0	fair	spielen	helfen	treu	loyal	schlau	faul	strafen	hindern	tot	lasch	schroff	schön	ehrlich	lachen	tolerant	retten	freundlich	schlecht	eitel	leiden	tyrannisch	rächen	fanatisch	1	blank2r.bmp	0	1	+	0	1	blank2r.bmp	500	1	GKQX	500	1	blank2r.bmp	880	1	faul	880	1	!	1292	1	!	1406	0	0	0	0	0	0
2024-05-06	12:51:51	12:59:53	481159	6.6.1	4_exp_EVA_AWA_CON	13	B	A	Rpleas_acq	Same	Rpleas	1pleas	acq_US_unple_nomask	acq3_nomask	3	35	453	1	300	300	0	0	480	46	1	0	fair	spielen	helfen	treu	loyal	schlau	faul	strafen	hindern	tot	lasch	schroff	schön	ehrlich	lachen	tolerant	retten	freundlich	schlecht	eitel	leiden	tyrannisch	rächen	fanatisch	1	blank2r.bmp	0	1	+	0	1	blank2r.bmp	500	1	GKQX	500	1	blank2r.bmp	880	4	tot	880	1	!	1292	1	!	1381	0	0	0	0	0	0
2024-05-06	12:51:51	12:59:55	483407	6.6.1	4_exp_EVA_AWA_CON	13	B	A	Rpleas_acq	Same	Rpleas	1pleas	acq_US_pleas_nomask	acq3_nomask	3	36	453	1	300	300	0	0	466	50	1	0	fair	spielen	helfen	treu	loyal	schlau	faul	strafen	hindern	tot	lasch	schroff	schön	ehrlich	lachen	tolerant	retten	freundlich	schlecht	eitel	leiden	tyrannisch	rächen	fanatisch	1	blank2r.bmp	0	1	+	0	1	blank2r.bmp	500	1	BMVZ	500	1	blank2r.bmp	880	6	schlau	880	1	!	1292	1	!	1367	0	0	0	0	0	0
2024-05-06	12:51:51	13:00:12	499837	6.6.1	4_exp_EVA_AWA_CON	13	B	A	Rpleas_acq	Same	Rpleas	1pleas	acq_US_unple_nomask	acq45_nomask	4	1	400	0	300	300	0	0	508	46	1	0	fair	spielen	helfen	treu	loyal	schlau	faul	strafen	hindern	tot	lasch	schroff	schön	ehrlich	lachen	tolerant	retten	freundlich	schlecht	eitel	leiden	tyrannisch	rächen	fanatisch	1	blank2r.bmp	0	1	+	0	1	blank2r.bmp	500	1	GKQX	500	1	blank2r.bmp	880	1	faul	880	1	!	1232	1	!	-1	0	0	0	0	0	0
2024-05-06	12:51:51	13:00:14	502063	6.6.1	4_exp_EVA_AWA_CON	13	B	A	Rpleas_acq	Same	Rpleas	1pleas	acq_US_pleas_nomask	acq45_nomask	4	2	400	1	300	300	0	0	451	50	1	0	fair	spielen	helfen	treu	loyal	schlau	faul	strafen	hindern	tot	lasch	schroff	schön	ehrlich	lachen	tolerant	retten	freundlich	schlecht	eitel	leiden	tyrannisch	rächen	fanatisch	1	blank2r.bmp	0	1	+	0	1	blank2r.bmp	500	1	BMVZ	500	1	blank2r.bmp	880	1	fair	880	1	!	1232	1	!	1352	0	0	0	0	0	0
2024-05-06	12:51:51	13:00:16	504357	6.6.1	4_exp_EVA_AWA_CON	13	B	A	Rpleas_acq	Same	Rpleas	1pleas	acq_US_unple_nomask	acq45_nomask	4	3	400	0	300	300	0	0	515	46	1	0	fair	spielen	helfen	treu	loyal	schlau	faul	strafen	hindern	tot	lasch	schroff	schön	ehrlich	lachen	tolerant	retten	freundlich	schlecht	eitel	leiden	tyrannisch	rächen	fanatisch	1	blank2r.bmp	0	1	+	0	1	blank2r.bmp	500	1	GKQX	500	1	blank2r.bmp	880	2	strafen	880	1	!	1232	1	!	-1	0	0	0	0	0	0
2024-05-06	12:51:51	13:00:18	506575	6.6.1	4_exp_EVA_AWA_CON	13	B	A	Rpleas_acq	Same	Rpleas	1pleas	acq_US_pleas_nomask	acq45_nomask	4	4	400	1	300	300	0	0	440	50	1	0	fair	spielen	helfen	treu	loyal	schlau	faul	strafen	hindern	tot	lasch	schroff	schön	ehrlich	lachen	tolerant	retten	freundlich	schlecht	eitel	leiden	tyrannisch	rächen	fanatisch	1	blank2r.bmp	0	1	+	0	1	blank2r.bmp	500	1	BMVZ	500	1	blank2r.bmp	880	4	treu	880	1	!	1233	1	!	1340	0	0	0	0	0	0
2024-05-06	12:51:51	13:00:21	508827	6.6.1	4_exp_EVA_AWA_CON	13	B	A	Rpleas_acq	Same	Rpleas	1pleas	acq_US_unple_nomask	acq45_nomask	4	5	400	0	300	300	0	0	474	46	1	0	fair	spielen	helfen	treu	loyal	schlau	faul	strafen	hindern	tot	lasch	schroff	schön	ehrlich	lachen	tolerant	retten	freundlich	schlecht	eitel	leiden	tyrannisch	rächen	fanatisch	1	blank2r.bmp	0	1	+	0	1	blank2r.bmp	500	1	GKQX	500	1	blank2r.bmp	880	3	hindern	880	1	!	1232	1	!	-1	0	0	0	0	0	0
2024-05-06	12:51:51	13:00:23	511022	6.6.1	4_exp_EVA_AWA_CON	13	B	A	Rpleas_acq	Same	Rpleas	1pleas	acq_US_unple_nomask	acq45_nomask	4	6	400	1	300	300	0	0	415	46	1	0	fair	spielen	helfen	treu	loyal	schlau	faul	strafen	hindern	tot	lasch	schroff	schön	ehrlich	lachen	tolerant	retten	freundlich	schlecht	eitel	leiden	tyrannisch	rächen	fanatisch	1	blank2r.bmp	0	1	+	0	1	blank2r.bmp	500	1	GKQX	500	1	blank2r.bmp	880	4	tot	880	1	!	1232	1	!	1316	0	0	0	0	0	0
2024-05-06	12:51:51	13:00:25	513166	6.6.1	4_exp_EVA_AWA_CON	13	B	A	Rpleas_acq	Same	Rpleas	1pleas	acq_US_pleas_nomask	acq45_nomask	4	7	400	1	300	300	0	0	366	50	1	0	fair	spielen	helfen	treu	loyal	schlau	faul	strafen	hindern	tot	lasch	schroff	schön	ehrlich	lachen	tolerant	retten	freundlich	schlecht	eitel	leiden	tyrannisch	rächen	fanatisch	1	blank2r.bmp	0	1	+	0	1	blank2r.bmp	500	1	BMVZ	500	1	blank2r.bmp	880	6	schlau	880	1	!	1232	1	!	1268	0	0	0	0	0	0
2024-05-06	12:51:51	13:00:27	515358	6.6.1	4_exp_EVA_AWA_CON	13	B	A	Rpleas_acq	Same	Rpleas	1pleas	acq_US_pleas_nomask	acq45_nomask	4	8	400	1	300	300	0	0	418	50	1	0	fair	spielen	helfen	treu	loyal	schlau	faul	strafen	hindern	tot	lasch	schroff	schön	ehrlich	lachen	tolerant	retten	freundlich	schlecht	eitel	leiden	tyrannisch	rächen	fanatisch	1	blank2r.bmp	0	1	+	0	1	blank2r.bmp	500	1	BMVZ	500	1	blank2r.bmp	880	2	spielen	880	1	!	1232	1	!	1319	0	0	0	0	0	0
2024-05-06	12:51:51	13:00:29	517559	6.6.1	4_exp_EVA_AWA_CON	13	B	A	Rpleas_acq	Same	Rpleas	1pleas	acq_US_unple_nomask	acq45_nomask	4	9	400	1	300	300	0	0	426	46	1	0	fair	spielen	helfen	treu	loyal	schlau	faul	strafen	hindern	tot	lasch	schroff	schön	ehrlich	lachen	tolerant	retten	freundlich	schlecht	eitel	leiden	tyrannisch	rächen	fanatisch	1	blank2r.bmp	0	1	+	0	1	blank2r.bmp	500	1	GKQX	500	1	blank2r.bmp	880	6	schroff	880	1	!	1232	1	!	1327	0	0	0	0	0	0
2024-05-06	12:51:51	13:00:31	519738	6.6.1	4_exp_EVA_AWA_CON	13	B	A	Rpleas_acq	Same	Rpleas	1pleas	acq_US_pleas_nomask	acq45_nomask	4	10	400	1	300	300	0	0	404	50	1	0	fair	spielen	helfen	treu	loyal	schlau	faul	strafen	hindern	tot	lasch	schroff	schön	ehrlich	lachen	tolerant	retten	freundlich	schlecht	eitel	leiden	tyrannisch	rächen	fanatisch	1	blank2r.bmp	0	1	+	0	1	blank2r.bmp	500	1	BMVZ	500	1	blank2r.bmp	880	5	loyal	880	1	!	1232	1	!	1305	0	0	0	0	0	0
2024-05-06	12:51:51	13:00:34	522029	6.6.1	4_exp_EVA_AWA_CON	13	B	A	Rpleas_acq	Same	Rpleas	1pleas	acq_US_unple_nomask	acq45_nomask	4	11	400	0	300	300	0	0	516	46	1	0	fair	spielen	helfen	treu	loyal	schlau	faul	strafen	hindern	tot	lasch	schroff	schön	ehrlich	lachen	tolerant	retten	freundlich	schlecht	eitel	leiden	tyrannisch	rächen	fanatisch	1	blank2r.bmp	0	1	+	0	1	blank2r.bmp	500	1	GKQX	500	1	blank2r.bmp	880	5	lasch	880	1	!	1233	1	!	-1	0	0	0	0	0	0
2024-05-06	12:51:51	13:00:36	524223	6.6.1	4_exp_EVA_AWA_CON	13	B	A	Rpleas_acq	Same	Rpleas	1pleas	acq_US_unple_nomask	acq45_nomask	4	12	400	1	300	300	0	0	416	46	1	0	fair	spielen	helfen	treu	loyal	schlau	faul	strafen	hindern	tot	lasch	schroff	schön	ehrlich	lachen	tolerant	retten	freundlich	schlecht	eitel	leiden	tyrannisch	rächen	fanatisch	1	blank2r.bmp	0	1	+	0	1	blank2r.bmp	500	1	GKQX	500	1	blank2r.bmp	880	6	schroff	880	1	!	1232	1	!	1317	0	0	0	0	0	0
2024-05-06	12:51:51	13:00:38	526407	6.6.1	4_exp_EVA_AWA_CON	13	B	A	Rpleas_acq	Same	Rpleas	1pleas	acq_US_unple_nomask	acq45_nomask	4	13	400	1	300	300	0	0	409	46	1	0	fair	spielen	helfen	treu	loyal	schlau	faul	strafen	hindern	tot	lasch	schroff	schön	ehrlich	lachen	tolerant	retten	freundlich	schlecht	eitel	leiden	tyrannisch	rächen	fanatisch	1	blank2r.bmp	0	1	+	0	1	blank2r.bmp	500	1	GKQX	500	1	blank2r.bmp	880	4	tot	880	1	!	1232	1	!	1310	0	0	0	0	0	0
2024-05-06	12:51:51	13:00:40	528623	6.6.1	4_exp_EVA_AWA_CON	13	B	A	Rpleas_acq	Same	Rpleas	1pleas	acq_US_pleas_nomask	acq45_nomask	4	14	400	1	300	300	0	0	433	50	1	0	fair	spielen	helfen	treu	loyal	schlau	faul	strafen	hindern	tot	lasch	schroff	schön	ehrlich	lachen	tolerant	retten	freundlich	schlecht	eitel	leiden	tyrannisch	rächen	fanatisch	1	blank2r.bmp	0	1	+	0	1	blank2r.bmp	500	1	BMVZ	500	1	blank2r.bmp	880	3	helfen	880	1	!	1232	1	!	1334	0	0	0	0	0	0
2024-05-06	12:51:51	13:00:43	530901	6.6.1	4_exp_EVA_AWA_CON	13	B	A	Rpleas_acq	Same	Rpleas	1pleas	acq_US_unple_nomask	acq45_nomask	4	15	400	0	300	300	0	0	501	46	1	0	fair	spielen	helfen	treu	loyal	schlau	faul	strafen	hindern	tot	lasch	schroff	schön	ehrlich	lachen	tolerant	retten	freundlich	schlecht	eitel	leiden	tyrannisch	rächen	fanatisch	1	blank2r.bmp	0	1	+	0	1	blank2r.bmp	500	1	GKQX	500	1	blank2r.bmp	880	2	strafen	880	1	!	1233	1	!	-1	0	0	0	0	0	0
2024-05-06	12:51:51	13:00:45	533046	6.6.1	4_exp_EVA_AWA_CON	13	B	A	Rpleas_acq	Same	Rpleas	1pleas	acq_US_pleas_nomask	acq45_nomask	4	16	400	1	300	300	0	0	365	50	1	0	fair	spielen	helfen	treu	loyal	schlau	faul	strafen	hindern	tot	lasch	schroff	schön	ehrlich	lachen	tolerant	retten	freundlich	schlecht	eitel	leiden	tyrannisch	rächen	fanatisch	1	blank2r.bmp	0	1	+	0	1	blank2r.bmp	500	1	BMVZ	500	1	blank2r.bmp	880	2	spielen	880	1	!	1232	1	!	1265	0	0	0	0	0	0
2024-05-06	12:51:51	13:00:47	535279	6.6.1	4_exp_EVA_AWA_CON	13	B	A	Rpleas_acq	Same	Rpleas	1pleas	acq_US_pleas_nomask	acq45_nomask	4	17	400	1	300	300	0	0	455	46	0	0	fair	spielen	helfen	treu	loyal	schlau	faul	strafen	hindern	tot	lasch	schroff	schön	ehrlich	lachen	tolerant	retten	freundlich	schlecht	eitel	leiden	tyrannisch	rächen	fanatisch	1	blank2r.bmp	0	1	+	0	1	blank2r.bmp	500	1	BMVZ	500	1	blank2r.bmp	880	3	helfen	880	1	!	1232	1	!	1356	0	0	0	0	0	0
2024-05-06	12:51:51	13:00:49	537581	6.6.1	4_exp_EVA_AWA_CON	13	B	A	Rpleas_acq	Same	Rpleas	1pleas	acq_US_pleas_nomask	acq45_nomask	4	18	400	0	300	300	0	0	527	50	1	0	fair	spielen	helfen	treu	loyal	schlau	faul	strafen	hindern	tot	lasch	schroff	schön	ehrlich	lachen	tolerant	retten	freundlich	schlecht	eitel	leiden	tyrannisch	rächen	fanatisch	1	blank2r.bmp	0	1	+	0	1	blank2r.bmp	500	1	BMVZ	500	1	blank2r.bmp	880	1	fair	880	1	!	1232	1	!	-1	0	0	0	0	0	0
2024-05-06	12:51:51	13:00:51	539782	6.6.1	4_exp_EVA_AWA_CON	13	B	A	Rpleas_acq	Same	Rpleas	1pleas	acq_US_pleas_nomask	acq45_nomask	4	19	400	1	300	300	0	0	426	50	1	0	fair	spielen	helfen	treu	loyal	schlau	faul	strafen	hindern	tot	lasch	schroff	schön	ehrlich	lachen	tolerant	retten	freundlich	schlecht	eitel	leiden	tyrannisch	rächen	fanatisch	1	blank2r.bmp	0	1	+	0	1	blank2r.bmp	500	1	BMVZ	500	1	blank2r.bmp	880	5	loyal	880	1	!	1233	1	!	1327	0	0	0	0	0	0
2024-05-06	12:51:51	13:00:54	541967	6.6.1	4_exp_EVA_AWA_CON	13	B	A	Rpleas_acq	Same	Rpleas	1pleas	acq_US_unple_nomask	acq45_nomask	4	20	400	1	300	300	0	0	409	46	1	0	fair	spielen	helfen	treu	loyal	schlau	faul	strafen	hindern	tot	lasch	schroff	schön	ehrlich	lachen	tolerant	retten	freundlich	schlecht	eitel	leiden	tyrannisch	rächen	fanatisch	1	blank2r.bmp	0	1	+	0	1	blank2r.bmp	500	1	GKQX	500	1	blank2r.bmp	880	3	hindern	880	1	!	1232	1	!	1310	0	0	0	0	0	0
2024-05-06	12:51:51	13:00:56	544183	6.6.1	4_exp_EVA_AWA_CON	13	B	A	Rpleas_acq	Same	Rpleas	1pleas	acq_US_unple_nomask	acq45_nomask	4	21	400	1	300	300	0	0	433	46	1	0	fair	spielen	helfen	treu	loyal	schlau	faul	strafen	hindern	tot	lasch	schroff	schön	ehrlich	lachen	tolerant	retten	freundlich	schlecht	eitel	leiden	tyrannisch	rächen	fanatisch	1	blank2r.bmp	0	1	+	0	1	blank2r.bmp	500	1	GKQX	500	1	blank2r.bmp	880	1	faul	880	1	!	1232	1	!	1334	0	0	0	0	0	0
2024-05-06	12:51:51	13:00:58	546517	6.6.1	4_exp_EVA_AWA_CON	13	B	A	Rpleas_acq	Same	Rpleas	1pleas	acq_US_unple_nomask	acq45_nomask	4	22	400	0	300	300	0	0	558	46	1	0	fair	spielen	helfen	treu	loyal	schlau	faul	strafen	hindern	tot	lasch	schroff	schön	ehrlich	lachen	tolerant	retten	freundlich	schlecht	eitel	leiden	tyrannisch	rächen	fanatisch	1	blank2r.bmp	0	1	+	0	1	blank2r.bmp	500	1	GKQX	500	1	blank2r.bmp	880	5	lasch	880	1	!	1232	1	!	-1	0	0	0	0	0	0
2024-05-06	12:51:51	13:01:00	548734	6.6.1	4_exp_EVA_AWA_CON	13	B	A	Rpleas_acq	Same	Rpleas	1pleas	acq_US_pleas_nomask	acq45_nomask	4	23	400	1	300	300	0	0	443	50	1	0	fair	spielen	helfen	treu	loyal	schlau	faul	strafen	hindern	tot	lasch	schroff	schön	ehrlich	lachen	tolerant	retten	freundlich	schlecht	eitel	leiden	tyrannisch	rächen	fanatisch	1	blank2r.bmp	0	1	+	0	1	blank2r.bmp	500	1	BMVZ	500	1	blank2r.bmp	880	6	schlau	880	1	!	1233	1	!	1343	0	0	0	0	0	0
2024-05-06	12:51:51	13:01:03	550943	6.6.1	4_exp_EVA_AWA_CON	13	B	A	Rpleas_acq	Same	Rpleas	1pleas	acq_US_pleas_nomask	acq45_nomask	4	24	400	1	300	300	0	0	429	50	1	0	fair	spielen	helfen	treu	loyal	schlau	faul	strafen	hindern	tot	lasch	schroff	schön	ehrlich	lachen	tolerant	retten	freundlich	schlecht	eitel	leiden	tyrannisch	rächen	fanatisch	1	blank2r.bmp	0	1	+	0	1	blank2r.bmp	500	1	BMVZ	500	1	blank2r.bmp	880	4	treu	880	1	!	1232	1	!	1330	0	0	0	0	0	0
2024-05-06	12:51:51	13:01:05	553150	6.6.1	4_exp_EVA_AWA_CON	13	B	A	Rpleas_acq	Same	Rpleas	1pleas	acq_US_pleas_nomask	acq45_nomask	4	25	400	1	300	300	0	0	426	50	1	0	fair	spielen	helfen	treu	loyal	schlau	faul	strafen	hindern	tot	lasch	schroff	schön	ehrlich	lachen	tolerant	retten	freundlich	schlecht	eitel	leiden	tyrannisch	rächen	fanatisch	1	blank2r.bmp	0	1	+	0	1	blank2r.bmp	500	1	BMVZ	500	1	blank2r.bmp	880	6	schlau	880	1	!	1232	1	!	1327	0	0	0	0	0	0
2024-05-06	12:51:51	13:01:07	555327	6.6.1	4_exp_EVA_AWA_CON	13	B	A	Rpleas_acq	Same	Rpleas	1pleas	acq_US_unple_nomask	acq45_nomask	4	26	400	1	300	300	0	0	400	46	1	0	fair	spielen	helfen	treu	loyal	schlau	faul	strafen	hindern	tot	lasch	schroff	schön	ehrlich	lachen	tolerant	retten	freundlich	schlecht	eitel	leiden	tyrannisch	rächen	fanatisch	1	blank2r.bmp	0	1	+	0	1	blank2r.bmp	500	1	GKQX	500	1	blank2r.bmp	880	3	hindern	880	1	!	1232	1	!	1302	0	0	0	0	0	0
2024-05-06	12:51:51	13:01:09	557559	6.6.1	4_exp_EVA_AWA_CON	13	B	A	Rpleas_acq	Same	Rpleas	1pleas	acq_US_unple_nomask	acq45_nomask	4	27	400	1	300	300	0	0	451	46	1	0	fair	spielen	helfen	treu	loyal	schlau	faul	strafen	hindern	tot	lasch	schroff	schön	ehrlich	lachen	tolerant	retten	freundlich	schlecht	eitel	leiden	tyrannisch	rächen	fanatisch	1	blank2r.bmp	0	1	+	0	1	blank2r.bmp	500	1	GKQX	500	1	blank2r.bmp	880	2	strafen	880	1	!	1232	1	!	1352	0	0	0	0	0	0
2024-05-06	12:51:51	13:01:11	559791	6.6.1	4_exp_EVA_AWA_CON	13	B	A	Rpleas_acq	Same	Rpleas	1pleas	acq_US_unple_nomask	acq45_nomask	4	28	400	1	300	300	0	0	450	46	1	0	fair	spielen	helfen	treu	loyal	schlau	faul	strafen	hindern	tot	lasch	schroff	schön	ehrlich	lachen	tolerant	retten	freundlich	schlecht	eitel	leiden	tyrannisch	rächen	fanatisch	1	blank2r.bmp	0	1	+	0	1	blank2r.bmp	500	1	GKQX	500	1	blank2r.bmp	880	1	faul	880	1	!	1232	1	!	1352	0	0	0	0	0	0
2024-05-06	12:51:51	13:01:14	562038	6.6.1	4_exp_EVA_AWA_CON	13	B	A	Rpleas_acq	Same	Rpleas	1pleas	acq_US_pleas_nomask	acq45_nomask	4	29	400	1	300	300	0	0	467	46	0	0	fair	spielen	helfen	treu	loyal	schlau	faul	strafen	hindern	tot	lasch	schroff	schön	ehrlich	lachen	tolerant	retten	freundlich	schlecht	eitel	leiden	tyrannisch	rächen	fanatisch	1	blank2r.bmp	0	1	+	0	1	blank2r.bmp	500	1	BMVZ	500	1	blank2r.bmp	880	5	loyal	880	1	!	1232	1	!	1369	0	0	0	0	0	0
2024-05-06	12:51:51	13:01:16	564357	6.6.1	4_exp_EVA_AWA_CON	13	B	A	Rpleas_acq	Same	Rpleas	1pleas	acq_US_pleas_nomask	acq45_nomask	4	30	400	0	300	300	0	0	547	50	1	0	fair	spielen	helfen	treu	loyal	schlau	faul	strafen	hindern	tot	lasch	schroff	schön	ehrlich	lachen	tolerant	retten	freundlich	schlecht	eitel	leiden	tyrannisch	rächen	fanatisch	1	blank2r.bmp	0	1	+	0	1	blank2r.bmp	500	1	BMVZ	500	1	blank2r.bmp	880	3	helfen	880	1	!	1232	1	!	-1	0	0	0	0	0	0
2024-05-06	12:51:51	13:01:18	566558	6.6.1	4_exp_EVA_AWA_CON	13	B	A	Rpleas_acq	Same	Rpleas	1pleas	acq_US_unple_nomask	acq45_nomask	4	31	400	1	300	300	0	0	425	46	1	0	fair	spielen	helfen	treu	loyal	schlau	faul	strafen	hindern	tot	lasch	schroff	schön	ehrlich	lachen	tolerant	retten	freundlich	schlecht	eitel	leiden	tyrannisch	rächen	fanatisch	1	blank2r.bmp	0	1	+	0	1	blank2r.bmp	500	1	GKQX	500	1	blank2r.bmp	880	5	lasch	880	1	!	1232	1	!	1326	0	0	0	0	0	0
2024-05-06	12:51:51	13:01:20	568726	6.6.1	4_exp_EVA_AWA_CON	13	B	A	Rpleas_acq	Same	Rpleas	1pleas	acq_US_pleas_nomask	acq45_nomask	4	32	400	1	300	300	0	0	392	50	1	0	fair	spielen	helfen	treu	loyal	schlau	faul	strafen	hindern	tot	lasch	schroff	schön	ehrlich	lachen	tolerant	retten	freundlich	schlecht	eitel	leiden	tyrannisch	rächen	fanatisch	1	blank2r.bmp	0	1	+	0	1	blank2r.bmp	500	1	BMVZ	500	1	blank2r.bmp	880	1	fair	880	1	!	1232	1	!	1292	0	0	0	0	0	0
2024-05-06	12:51:51	13:01:23	570927	6.6.1	4_exp_EVA_AWA_CON	13	B	A	Rpleas_acq	Same	Rpleas	1pleas	acq_US_pleas_nomask	acq45_nomask	4	33	400	1	300	300	0	0	419	50	1	0	fair	spielen	helfen	treu	loyal	schlau	faul	strafen	hindern	tot	lasch	schroff	schön	ehrlich	lachen	tolerant	retten	freundlich	schlecht	eitel	leiden	tyrannisch	rächen	fanatisch	1	blank2r.bmp	0	1	+	0	1	blank2r.bmp	500	1	BMVZ	500	1	blank2r.bmp	880	4	treu	880	1	!	1232	1	!	1322	0	0	0	0	0	0
2024-05-06	12:51:51	13:01:25	573110	6.6.1	4_exp_EVA_AWA_CON	13	B	A	Rpleas_acq	Same	Rpleas	1pleas	acq_US_unple_nomask	acq45_nomask	4	34	400	1	300	300	0	0	402	46	1	0	fair	spielen	helfen	treu	loyal	schlau	faul	strafen	hindern	tot	lasch	schroff	schön	ehrlich	lachen	tolerant	retten	freundlich	schlecht	eitel	leiden	tyrannisch	rächen	fanatisch	1	blank2r.bmp	0	1	+	0	1	blank2r.bmp	500	1	GKQX	500	1	blank2r.bmp	880	4	tot	880	1	!	1232	1	!	1304	0	0	0	0	0	0
2024-05-06	12:51:51	13:01:27	575287	6.6.1	4_exp_EVA_AWA_CON	13	B	A	Rpleas_acq	Same	Rpleas	1pleas	acq_US_unple_nomask	acq45_nomask	4	35	400	1	300	300	0	0	397	46	1	0	fair	spielen	helfen	treu	loyal	schlau	faul	strafen	hindern	tot	lasch	schroff	schön	ehrlich	lachen	tolerant	retten	freundlich	schlecht	eitel	leiden	tyrannisch	rächen	fanatisch	1	blank2r.bmp	0	1	+	0	1	blank2r.bmp	500	1	GKQX	500	1	blank2r.bmp	880	6	schroff	880	1	!	1232	1	!	1298	0	0	0	0	0	0
2024-05-06	12:51:51	13:01:29	577565	6.6.1	4_exp_EVA_AWA_CON	13	B	A	Rpleas_acq	Same	Rpleas	1pleas	acq_US_pleas_nomask	acq45_nomask	4	36	400	0	300	300	0	0	505	50	1	0	fair	spielen	helfen	treu	loyal	schlau	faul	strafen	hindern	tot	lasch	schroff	schön	ehrlich	lachen	tolerant	retten	freundlich	schlecht	eitel	leiden	tyrannisch	rächen	fanatisch	1	blank2r.bmp	0	1	+	0	1	blank2r.bmp	500	1	BMVZ	500	1	blank2r.bmp	880	2	spielen	880	1	!	1232	1	!	-1	0	0	0	0	0	0
2024-05-06	12:51:51	13:01:38	586109	6.6.1	4_exp_EVA_AWA_CON	13	B	A	Rpleas_acq	Same	Rpleas	1pleas	acq_US_pleas_nomask	acq45_nomask	5	1	400	0	300	300	0	0	574	50	1	0	fair	spielen	helfen	treu	loyal	schlau	faul	strafen	hindern	tot	lasch	schroff	schön	ehrlich	lachen	tolerant	retten	freundlich	schlecht	eitel	leiden	tyrannisch	rächen	fanatisch	1	blank2r.bmp	0	1	+	0	1	blank2r.bmp	500	1	BMVZ	500	1	blank2r.bmp	880	6	schlau	880	1	!	1232	1	!	-1	0	0	0	0	0	0
2024-05-06	12:51:51	13:01:40	588335	6.6.1	4_exp_EVA_AWA_CON	13	B	A	Rpleas_acq	Same	Rpleas	1pleas	acq_US_pleas_nomask	acq45_nomask	5	2	400	1	300	300	0	0	447	46	0	0	fair	spielen	helfen	treu	loyal	schlau	faul	strafen	hindern	tot	lasch	schroff	schön	ehrlich	lachen	tolerant	retten	freundlich	schlecht	eitel	leiden	tyrannisch	rächen	fanatisch	1	blank2r.bmp	0	1	+	0	1	blank2r.bmp	500	1	BMVZ	500	1	blank2r.bmp	880	5	loyal	880	1	!	1232	1	!	1348	0	0	0	0	0	0
2024-05-06	12:51:51	13:01:42	590486	6.6.1	4_exp_EVA_AWA_CON	13	B	A	Rpleas_acq	Same	Rpleas	1pleas	acq_US_pleas_nomask	acq45_nomask	5	3	400	1	300	300	0	0	378	50	1	0	fair	spielen	helfen	treu	loyal	schlau	faul	strafen	hindern	tot	lasch	schroff	schön	ehrlich	lachen	tolerant	retten	freundlich	schlecht	eitel	leiden	tyrannisch	rächen	fanatisch	1	blank2r.bmp	0	1	+	0	1	blank2r.bmp	500	1	BMVZ	500	1	blank2r.bmp	880	2	spielen	880	1	!	1232	1	!	1278	0	0	0	0	0	0
2024-05-06	12:51:51	13:01:44	592731	6.6.1	4_exp_EVA_AWA_CON	13	B	A	Rpleas_acq	Same	Rpleas	1pleas	acq_US_pleas_nomask	acq45_nomask	5	4	400	0	300	300	0	0	474	50	1	0	fair	spielen	helfen	treu	loyal	schlau	faul	strafen	hindern	tot	lasch	schroff	schön	ehrlich	lachen	tolerant	retten	freundlich	schlecht	eitel	leiden	tyrannisch	rächen	fanatisch	1	blank2r.bmp	0	1	+	0	1	blank2r.bmp	500	1	BMVZ	500	1	blank2r.bmp	880	4	treu	880	1	!	1232	1	!	-1	0	0	0	0	0	0
2024-05-06	12:51:51	13:01:47	594894	6.6.1	4_exp_EVA_AWA_CON	13	B	A	Rpleas_acq	Same	Rpleas	1pleas	acq_US_pleas_nomask	acq45_nomask	5	5	400	1	300	300	0	0	383	46	0	0	fair	spielen	helfen	treu	loyal	schlau	faul	strafen	hindern	tot	lasch	schroff	schön	ehrlich	lachen	tolerant	retten	freundlich	schlecht	eitel	leiden	tyrannisch	rächen	fanatisch	1	blank2r.bmp	0	1	+	0	1	blank2r.bmp	500	1	BMVZ	500	1	blank2r.bmp	880	3	helfen	880	1	!	1232	1	!	1284	0	0	0	0	0	0
2024-05-06	12:51:51	13:01:52	599981	6.6.1	4_exp_EVA_AWA_CON	13	B	A	Rpleas_acq	Same	Rpleas	1pleas	acq_US_unple_nomask	acq45_nomask	5	6	400	0	300	300	0	0	3309	46	1	0	fair	spielen	helfen	treu	loyal	schlau	faul	strafen	hindern	tot	lasch	schroff	schön	ehrlich	lachen	tolerant	retten	freundlich	schlecht	eitel	leiden	tyrannisch	rächen	fanatisch	1	blank2r.bmp	0	1	+	0	1	blank2r.bmp	500	1	GKQX	500	1	blank2r.bmp	880	2	strafen	880	1	!	1232	1	!	-1	0	0	0	0	0	0
2024-05-06	12:51:51	13:01:54	602198	6.6.1	4_exp_EVA_AWA_CON	13	B	A	Rpleas_acq	Same	Rpleas	1pleas	acq_US_unple_nomask	acq45_nomask	5	7	400	1	300	300	0	0	441	46	1	0	fair	spielen	helfen	treu	loyal	schlau	faul	strafen	hindern	tot	lasch	schroff	schön	ehrlich	lachen	tolerant	retten	freundlich	schlecht	eitel	leiden	tyrannisch	rächen	fanatisch	1	blank2r.bmp	0	1	+	0	1	blank2r.bmp	500	1	GKQX	500	1	blank2r.bmp	880	6	schroff	880	1	!	1232	1	!	1343	0	0	0	0	0	0
2024-05-06	12:51:51	13:01:56	604350	6.6.1	4_exp_EVA_AWA_CON	13	B	A	Rpleas_acq	Same	Rpleas	1pleas	acq_US_pleas_nomask	acq45_nomask	5	8	400	1	300	300	0	0	373	50	1	0	fair	spielen	helfen	treu	loyal	schlau	faul	strafen	hindern	tot	lasch	schroff	schön	ehrlich	lachen	tolerant	retten	freundlich	schlecht	eitel	leiden	tyrannisch	rächen	fanatisch	1	blank2r.bmp	0	1	+	0	1	blank2r.bmp	500	1	BMVZ	500	1	blank2r.bmp	880	1	fair	880	1	!	1232	1	!	1273	0	0	0	0	0	0
2024-05-06	12:51:51	13:01:58	606559	6.6.1	4_exp_EVA_AWA_CON	13	B	A	Rpleas_acq	Same	Rpleas	1pleas	acq_US_unple_nomask	acq45_nomask	5	9	400	1	300	300	0	0	429	46	1	0	fair	spielen	helfen	treu	loyal	schlau	faul	strafen	hindern	tot	lasch	schroff	schön	ehrlich	lachen	tolerant	retten	freundlich	schlecht	eitel	leiden	tyrannisch	rächen	fanatisch	1	blank2r.bmp	0	1	+	0	1	blank2r.bmp	500	1	GKQX	500	1	blank2r.bmp	880	3	hindern	880	1	!	1232	1	!	1330	0	0	0	0	0	0
2024-05-06	12:51:51	13:02:00	608791	6.6.1	4_exp_EVA_AWA_CON	13	B	A	Rpleas_acq	Same	Rpleas	1pleas	acq_US_pleas_nomask	acq45_nomask	5	10	400	1	300	300	0	0	450	50	1	0	fair	spielen	helfen	treu	loyal	schlau	faul	strafen	hindern	tot	lasch	schroff	schön	ehrlich	lachen	tolerant	retten	freundlich	schlecht	eitel	leiden	tyrannisch	rächen	fanatisch	1	blank2r.bmp	0	1	+	0	1	blank2r.bmp	500	1	BMVZ	500	1	blank2r.bmp	880	1	fair	880	1	!	1232	1	!	1351	0	0	0	0	0	0
2024-05-06	12:51:51	13:02:03	610975	6.6.1	4_exp_EVA_AWA_CON	13	B	A	Rpleas_acq	Same	Rpleas	1pleas	acq_US_unple_nomask	acq45_nomask	5	11	400	1	300	300	0	0	402	46	1	0	fair	spielen	helfen	treu	loyal	schlau	faul	strafen	hindern	tot	lasch	schroff	schön	ehrlich	lachen	tolerant	retten	freundlich	schlecht	eitel	leiden	tyrannisch	rächen	fanatisch	1	blank2r.bmp	0	1	+	0	1	blank2r.bmp	500	1	GKQX	500	1	blank2r.bmp	880	4	tot	880	1	!	1232	1	!	1303	0	0	0	0	0	0
2024-05-06	12:51:51	13:02:05	613166	6.6.1	4_exp_EVA_AWA_CON	13	B	A	Rpleas_acq	Same	Rpleas	1pleas	acq_US_pleas_nomask	acq45_nomask	5	12	400	1	300	300	0	0	412	50	1	0	fair	spielen	helfen	treu	loyal	schlau	faul	strafen	hindern	tot	lasch	schroff	schön	ehrlich	lachen	tolerant	retten	freundlich	schlecht	eitel	leiden	tyrannisch	rächen	fanatisch	1	blank2r.bmp	0	1	+	0	1	blank2r.bmp	500	1	BMVZ	500	1	blank2r.bmp	880	3	helfen	880	1	!	1232	1	!	1314	0	0	0	0	0	0
2024-05-06	12:51:51	13:02:07	615398	6.6.1	4_exp_EVA_AWA_CON	13	B	A	Rpleas_acq	Same	Rpleas	1pleas	acq_US_unple_nomask	acq45_nomask	5	13	400	1	300	300	0	0	454	46	1	0	fair	spielen	helfen	treu	loyal	schlau	faul	strafen	hindern	tot	lasch	schroff	schön	ehrlich	lachen	tolerant	retten	freundlich	schlecht	eitel	leiden	tyrannisch	rächen	fanatisch	1	blank2r.bmp	0	1	+	0	1	blank2r.bmp	500	1	GKQX	500	1	blank2r.bmp	880	1	faul	880	1	!	1232	1	!	1355	0	0	0	0	0	0
2024-05-06	12:51:51	13:02:09	617669	6.6.1	4_exp_EVA_AWA_CON	13	B	A	Rpleas_acq	Same	Rpleas	1pleas	acq_US_unple_nomask	acq45_nomask	5	14	400	0	300	300	0	0	494	46	1	0	fair	spielen	helfen	treu	loyal	schlau	faul	strafen	hindern	tot	lasch	schroff	schön	ehrlich	lachen	tolerant	retten	freundlich	schlecht	eitel	leiden	tyrannisch	rächen	fanatisch	1	blank2r.bmp	0	1	+	0	1	blank2r.bmp	500	1	GKQX	500	1	blank2r.bmp	880	5	lasch	880	1	!	1232	1	!	-1	0	0	0	0	0	0
2024-05-06	12:51:51	13:02:12	619989	6.6.1	4_exp_EVA_AWA_CON	13	B	A	Rpleas_acq	Same	Rpleas	1pleas	acq_US_unple_nomask	acq45_nomask	5	15	400	0	300	300	0	0	543	50	0	0	fair	spielen	helfen	treu	loyal	schlau	faul	strafen	hindern	tot	lasch	schroff	schön	ehrlich	lachen	tolerant	retten	freundlich	schlecht	eitel	leiden	tyrannisch	rächen	fanatisch	1	blank2r.bmp	0	1	+	0	1	blank2r.bmp	500	1	GKQX	500	1	blank2r.bmp	880	5	lasch	880	1	!	1232	1	!	-1	0	0	0	0	0	0
2024-05-06	12:51:51	13:02:14	622243	6.6.1	4_exp_EVA_AWA_CON	13	B	A	Rpleas_acq	Same	Rpleas	1pleas	acq_US_unple_nomask	acq45_nomask	5	16	400	0	300	300	0	0	477	46	1	0	fair	spielen	helfen	treu	loyal	schlau	faul	strafen	hindern	tot	lasch	schroff	schön	ehrlich	lachen	tolerant	retten	freundlich	schlecht	eitel	leiden	tyrannisch	rächen	fanatisch	1	blank2r.bmp	0	1	+	0	1	blank2r.bmp	500	1	GKQX	500	1	blank2r.bmp	880	1	faul	880	1	!	1232	1	!	-1	0	0	0	0	0	0
2024-05-06	12:51:51	13:02:16	624491	6.6.1	4_exp_EVA_AWA_CON	13	B	A	Rpleas_acq	Same	Rpleas	1pleas	acq_US_unple_nomask	acq45_nomask	5	17	400	0	300	300	0	0	473	46	1	0	fair	spielen	helfen	treu	loyal	schlau	faul	strafen	hindern	tot	lasch	schroff	schön	ehrlich	lachen	tolerant	retten	freundlich	schlecht	eitel	leiden	tyrannisch	rächen	fanatisch	1	blank2r.bmp	0	1	+	0	1	blank2r.bmp	500	1	GKQX	500	1	blank2r.bmp	880	4	tot	880	1	!	1232	1	!	-1	0	0	0	0	0	0
2024-05-06	12:51:51	13:02:18	626711	6.6.1	4_exp_EVA_AWA_CON	13	B	A	Rpleas_acq	Same	Rpleas	1pleas	acq_US_pleas_nomask	acq45_nomask	5	18	400	1	300	300	0	0	438	46	0	0	fair	spielen	helfen	treu	loyal	schlau	faul	strafen	hindern	tot	lasch	schroff	schön	ehrlich	lachen	tolerant	retten	freundlich	schlecht	eitel	leiden	tyrannisch	rächen	fanatisch	1	blank2r.bmp	0	1	+	0	1	blank2r.bmp	500	1	BMVZ	500	1	blank2r.bmp	880	2	spielen	880	1	!	1232	1	!	1339	0	0	0	0	0	0
2024-05-06	12:51:51	13:02:21	628943	6.6.1	4_exp_EVA_AWA_CON	13	B	A	Rpleas_acq	Same	Rpleas	1pleas	acq_US_pleas_nomask	acq45_nomask	5	19	400	1	300	300	0	0	448	50	1	0	fair	spielen	helfen	treu	loyal	schlau	faul	strafen	hindern	tot	lasch	schroff	schön	ehrlich	lachen	tolerant	retten	freundlich	schlecht	eitel	leiden	tyrannisch	rächen	fanatisch	1	blank2r.bmp	0	1	+	0	1	blank2r.bmp	500	1	BMVZ	500	1	blank2r.bmp	880	6	schlau	880	1	!	1232	1	!	1350	0	0	0	0	0	0
2024-05-06	12:51:51	13:02:23	631158	6.6.1	4_exp_EVA_AWA_CON	13	B	A	Rpleas_acq	Same	Rpleas	1pleas	acq_US_pleas_nomask	acq45_nomask	5	20	400	1	300	300	0	0	433	46	0	0	fair	spielen	helfen	treu	loyal	schlau	faul	strafen	hindern	tot	lasch	schroff	schön	ehrlich	lachen	tolerant	retten	freundlich	schlecht	eitel	leiden	tyrannisch	rächen	fanatisch	1	blank2r.bmp	0	1	+	0	1	blank2r.bmp	500	1	BMVZ	500	1	blank2r.bmp	880	4	treu	880	1	!	1232	1	!	1334	0	0	0	0	0	0
2024-05-06	12:51:51	13:02:25	633350	6.6.1	4_exp_EVA_AWA_CON	13	B	A	Rpleas_acq	Same	Rpleas	1pleas	acq_US_unple_nomask	acq45_nomask	5	21	400	1	300	300	0	0	414	46	1	0	fair	spielen	helfen	treu	loyal	schlau	faul	strafen	hindern	tot	lasch	schroff	schön	ehrlich	lachen	tolerant	retten	freundlich	schlecht	eitel	leiden	tyrannisch	rächen	fanatisch	1	blank2r.bmp	0	1	+	0	1	blank2r.bmp	500	1	GKQX	500	1	blank2r.bmp	880	6	schroff	880	1	!	1232	1	!	1315	0	0	0	0	0	0
2024-05-06	12:51:51	13:02:27	635510	6.6.1	4_exp_EVA_AWA_CON	13	B	A	Rpleas_acq	Same	Rpleas	1pleas	acq_US_pleas_nomask	acq45_nomask	5	22	400	1	300	300	0	0	382	50	1	0	fair	spielen	helfen	treu	loyal	schlau	faul	strafen	hindern	tot	lasch	schroff	schön	ehrlich	lachen	tolerant	retten	freundlich	schlecht	eitel	leiden	tyrannisch	rächen	fanatisch	1	blank2r.bmp	0	1	+	0	1	blank2r.bmp	500	1	BMVZ	500	1	blank2r.bmp	880	5	loyal	880	1	!	1232	1	!	1283	0	0	0	0	0	0
2024-05-06	12:51:51	13:02:29	637686	6.6.1	4_exp_EVA_AWA_CON	13	B	A	Rpleas_acq	Same	Rpleas	1pleas	acq_US_pleas_nomask	acq45_nomask	5	23	400	1	300	300	0	0	396	50	1	0	fair	spielen	helfen	treu	loyal	schlau	faul	strafen	hindern	tot	lasch	schroff	schön	ehrlich	lachen	tolerant	retten	freundlich	schlecht	eitel	leiden	tyrannisch	rächen	fanatisch	1	blank2r.bmp	0	1	+	0	1	blank2r.bmp	500	1	BMVZ	500	1	blank2r.bmp	880	2	spielen	880	1	!	1232	1	!	1298	0	0	0	0	0	0
2024-05-06	12:51:51	13:02:32	639902	6.6.1	4_exp_EVA_AWA_CON	13	B	A	Rpleas_acq	Same	Rpleas	1pleas	acq_US_unple_nomask	acq45_nomask	5	24	400	1	300	300	0	0	442	46	1	0	fair	spielen	helfen	treu	loyal	schlau	faul	strafen	hindern	tot	lasch	schroff	schön	ehrlich	lachen	tolerant	retten	freundlich	schlecht	eitel	leiden	tyrannisch	rächen	fanatisch	1	blank2r.bmp	0	1	+	0	1	blank2r.bmp	500	1	GKQX	500	1	blank2r.bmp	880	3	hindern	880	1	!	1232	1	!	1343	0	0	0	0	0	0
2024-05-06	12:51:51	13:02:34	642181	6.6.1	4_exp_EVA_AWA_CON	13	B	A	Rpleas_acq	Same	Rpleas	1pleas	acq_US_unple_nomask	acq45_nomask	5	25	400	0	300	300	0	0	500	46	1	0	fair	spielen	helfen	treu	loyal	schlau	faul	strafen	hindern	tot	lasch	schroff	schön	ehrlich	lachen	tolerant	retten	freundlich	schlecht	eitel	leiden	tyrannisch	rächen	fanatisch	1	blank2r.bmp	0	1	+	0	1	blank2r.bmp	500	1	GKQX	500	1	blank2r.bmp	880	2	strafen	880	1	!	1232	1	!	-1	0	0	0	0	0	0
2024-05-06	12:51:51	13:02:36	644318	6.6.1	4_exp_EVA_AWA_CON	13	B	A	Rpleas_acq	Same	Rpleas	1pleas	acq_US_unple_nomask	acq45_nomask	5	26	400	1	300	300	0	0	354	46	1	0	fair	spielen	helfen	treu	loyal	schlau	faul	strafen	hindern	tot	lasch	schroff	schön	ehrlich	lachen	tolerant	retten	freundlich	schlecht	eitel	leiden	tyrannisch	rächen	fanatisch	1	blank2r.bmp	0	1	+	0	1	blank2r.bmp	500	1	GKQX	500	1	blank2r.bmp	880	6	schroff	880	1	!	1232	1	!	1256	0	0	0	0	0	0
2024-05-06	12:51:51	13:02:38	646478	6.6.1	4_exp_EVA_AWA_CON	13	B	A	Rpleas_acq	Same	Rpleas	1pleas	acq_US_pleas_nomask	acq45_nomask	5	27	400	1	300	300	0	0	383	50	1	0	fair	spielen	helfen	treu	loyal	schlau	faul	strafen	hindern	tot	lasch	schroff	schön	ehrlich	lachen	tolerant	retten	freundlich	schlecht	eitel	leiden	tyrannisch	rächen	fanatisch	1	blank2r.bmp	0	1	+	0	1	blank2r.bmp	500	1	BMVZ	500	1	blank2r.bmp	880	3	helfen	880	1	!	1232	1	!	1284	0	0	0	0	0	0
2024-05-06	12:51:51	13:02:40	648654	6.6.1	4_exp_EVA_AWA_CON	13	B	A	Rpleas_acq	Same	Rpleas	1pleas	acq_US_unple_nomask	acq45_nomask	5	28	400	1	300	300	0	0	397	46	1	0	fair	spielen	helfen	treu	loyal	schlau	faul	strafen	hindern	tot	lasch	schroff	schön	ehrlich	lachen	tolerant	retten	freundlich	schlecht	eitel	leiden	tyrannisch	rächen	fanatisch	1	blank2r.bmp	0	1	+	0	1	blank2r.bmp	500	1	GKQX	500	1	blank2r.bmp	880	3	hindern	880	1	!	1232	1	!	1299	0	0	0	0	0	0
2024-05-06	12:51:51	13:02:43	650887	6.6.1	4_exp_EVA_AWA_CON	13	B	A	Rpleas_acq	Same	Rpleas	1pleas	acq_US_pleas_nomask	acq45_nomask	5	29	400	1	300	300	0	0	458	50	1	0	fair	spielen	helfen	treu	loyal	schlau	faul	strafen	hindern	tot	lasch	schroff	schön	ehrlich	lachen	tolerant	retten	freundlich	schlecht	eitel	leiden	tyrannisch	rächen	fanatisch	1	blank2r.bmp	0	1	+	0	1	blank2r.bmp	500	1	BMVZ	500	1	blank2r.bmp	880	4	treu	880	1	!	1233	1	!	1360	0	0	0	0	0	0
2024-05-06	12:51:51	13:02:45	653165	6.6.1	4_exp_EVA_AWA_CON	13	B	A	Rpleas_acq	Same	Rpleas	1pleas	acq_US_unple_nomask	acq45_nomask	5	30	400	0	300	300	0	0	496	46	1	0	fair	spielen	helfen	treu	loyal	schlau	faul	strafen	hindern	tot	lasch	schroff	schön	ehrlich	lachen	tolerant	retten	freundlich	schlecht	eitel	leiden	tyrannisch	rächen	fanatisch	1	blank2r.bmp	0	1	+	0	1	blank2r.bmp	500	1	GKQX	500	1	blank2r.bmp	880	1	faul	880	1	!	1232	1	!	-1	0	0	0	0	0	0
2024-05-06	12:51:51	13:02:47	655374	6.6.1	4_exp_EVA_AWA_CON	13	B	A	Rpleas_acq	Same	Rpleas	1pleas	acq_US_pleas_nomask	acq45_nomask	5	31	400	1	300	300	0	0	433	46	0	0	fair	spielen	helfen	treu	loyal	schlau	faul	strafen	hindern	tot	lasch	schroff	schön	ehrlich	lachen	tolerant	retten	freundlich	schlecht	eitel	leiden	tyrannisch	rächen	fanatisch	1	blank2r.bmp	0	1	+	0	1	blank2r.bmp	500	1	BMVZ	500	1	blank2r.bmp	880	6	schlau	880	1	!	1232	1	!	1335	0	0	0	0	0	0
2024-05-06	12:51:51	13:02:49	657598	6.6.1	4_exp_EVA_AWA_CON	13	B	A	Rpleas_acq	Same	Rpleas	1pleas	acq_US_pleas_nomask	acq45_nomask	5	32	400	1	300	300	0	0	446	50	1	0	fair	spielen	helfen	treu	loyal	schlau	faul	strafen	hindern	tot	lasch	schroff	schön	ehrlich	lachen	tolerant	retten	freundlich	schlecht	eitel	leiden	tyrannisch	rächen	fanatisch	1	blank2r.bmp	0	1	+	0	1	blank2r.bmp	500	1	BMVZ	500	1	blank2r.bmp	880	1	fair	880	1	!	1232	1	!	1347	0	0	0	0	0	0
2024-05-06	12:51:51	13:02:52	659831	6.6.1	4_exp_EVA_AWA_CON	13	B	A	Rpleas_acq	Same	Rpleas	1pleas	acq_US_unple_nomask	acq45_nomask	5	33	400	1	300	300	0	0	456	46	1	0	fair	spielen	helfen	treu	loyal	schlau	faul	strafen	hindern	tot	lasch	schroff	schön	ehrlich	lachen	tolerant	retten	freundlich	schlecht	eitel	leiden	tyrannisch	rächen	fanatisch	1	blank2r.bmp	0	1	+	0	1	blank2r.bmp	500	1	GKQX	500	1	blank2r.bmp	880	4	tot	880	1	!	1232	1	!	1358	0	0	0	0	0	0
2024-05-06	12:51:51	13:02:55	662941	6.6.1	4_exp_EVA_AWA_CON	13	B	A	Rpleas_acq	Same	Rpleas	1pleas	acq_US_unple_nomask	acq45_nomask	5	34	400	0	300	300	0	0	1337	46	1	0	fair	spielen	helfen	treu	loyal	schlau	faul	strafen	hindern	tot	lasch	schroff	schön	ehrlich	lachen	tolerant	retten	freundlich	schlecht	eitel	leiden	tyrannisch	rächen	fanatisch	1	blank2r.bmp	0	1	+	0	1	blank2r.bmp	500	1	GKQX	500	1	blank2r.bmp	880	2	strafen	880	1	!	1232	1	!	-1	0	0	0	0	0	0
2024-05-06	12:51:51	13:02:57	665127	6.6.1	4_exp_EVA_AWA_CON	13	B	A	Rpleas_acq	Same	Rpleas	1pleas	acq_US_unple_nomask	acq45_nomask	5	35	400	1	300	300	0	0	409	46	1	0	fair	spielen	helfen	treu	loyal	schlau	faul	strafen	hindern	tot	lasch	schroff	schön	ehrlich	lachen	tolerant	retten	freundlich	schlecht	eitel	leiden	tyrannisch	rächen	fanatisch	1	blank2r.bmp	0	1	+	0	1	blank2r.bmp	500	1	GKQX	500	1	blank2r.bmp	880	5	lasch	880	1	!	1232	1	!	1310	0	0	0	0	0	0
2024-05-06	12:51:51	13:02:59	667445	6.6.1	4_exp_EVA_AWA_CON	13	B	A	Rpleas_acq	Same	Rpleas	1pleas	acq_US_pleas_nomask	acq45_nomask	5	36	400	0	300	300	0	0	538	50	1	0	fair	spielen	helfen	treu	loyal	schlau	faul	strafen	hindern	tot	lasch	schroff	schön	ehrlich	lachen	tolerant	retten	freundlich	schlecht	eitel	leiden	tyrannisch	rächen	fanatisch	1	blank2r.bmp	0	1	+	0	1	blank2r.bmp	500	1	BMVZ	500	1	blank2r.bmp	880	5	loyal	880	1	!	1232	1	!	-1	0	0	0	0	0	0
2024-05-06	12:51:51	13:03:36	703905	6.6.1	4_exp_EVA_AWA_CON	13	B	A	Rpleas_acq	Same	Rpleas	1pleas	EvalRating_firsttwo	EvalRating_firsttwo	6	1	0	0	300	300	0	0	8520	line	0	-46,7447916666666642982pct	fair	spielen	helfen	treu	loyal	schlau	faul	strafen	hindern	tot	lasch	schroff	schön	ehrlich	lachen	tolerant	retten	freundlich	schlecht	eitel	leiden	tyrannisch	rächen	fanatisch	1		-8	1	Wie angenehm oder unangenehm finden Sie die  Buchstabenkette ZGVK?	-8	1		-8	1		-8	1		-8	1	Unangenehm	-8	1	Angenehm	-8	0	0	0	0	0	0	0	0	0
2024-05-06	12:51:51	13:03:41	709330	6.6.1	4_exp_EVA_AWA_CON	13	B	A	Rpleas_acq	Same	Rpleas	1pleas	EvalRating_lastfour	EvalRating_lastfour	7	1	0	0	300	300	0	0	3048	line	0	-60,6770833333333285964pct	fair	spielen	helfen	treu	loyal	schlau	faul	strafen	hindern	tot	lasch	schroff	schön	ehrlich	lachen	tolerant	retten	freundlich	schlecht	eitel	leiden	tyrannisch	rächen	fanatisch	1		-8	2	Wie angenehm oder unangenehm finden Sie die  Buchstabenkette GKQX?	-8	1		-8	1		-8	1		-8	1	Unangenehm	-8	1	Angenehm	-8	0	0	0	0	0	0	0	0	0
2024-05-06	12:51:51	13:03:43	711697	6.6.1	4_exp_EVA_AWA_CON	13	B	A	Rpleas_acq	Same	Rpleas	1pleas	blank_screen	EvalRating_lastfour	7	3	0	0	300	300	0	0	0	0	0	-60,6770833333333285964pct	fair	spielen	helfen	treu	loyal	schlau	faul	strafen	hindern	tot	lasch	schroff	schön	ehrlich	lachen	tolerant	retten	freundlich	schlecht	eitel	leiden	tyrannisch	rächen	fanatisch	1		-8	0	0	0	0	0	0	0	0	0	0	0	0	0	0	0	0	0	0	0	0	0	0	0	0	0	0	0
2024-05-06	12:51:51	13:03:46	714361	6.6.1	4_exp_EVA_AWA_CON	13	B	A	Rpleas_acq	Same	Rpleas	1pleas	EvalRating_lastfour	EvalRating_lastfour	7	4	0	0	300	300	0	0	2076	line	0	-60,546875pct	fair	spielen	helfen	treu	loyal	schlau	faul	strafen	hindern	tot	lasch	schroff	schön	ehrlich	lachen	tolerant	retten	freundlich	schlecht	eitel	leiden	tyrannisch	rächen	fanatisch	1		-7	3	Wie angenehm oder unangenehm finden Sie die  Buchstabenkette XBQM?	-7	1		-7	1		-7	1		-7	1	Unangenehm	-7	1	Angenehm	-7	0	0	0	0	0	0	0	0	0
2024-05-06	12:51:51	13:03:48	716730	6.6.1	4_exp_EVA_AWA_CON	13	B	A	Rpleas_acq	Same	Rpleas	1pleas	blank_screen	EvalRating_lastfour	7	6	0	0	300	300	0	0	0	0	0	-60,546875pct	fair	spielen	helfen	treu	loyal	schlau	faul	strafen	hindern	tot	lasch	schroff	schön	ehrlich	lachen	tolerant	retten	freundlich	schlecht	eitel	leiden	tyrannisch	rächen	fanatisch	1		-8	0	0	0	0	0	0	0	0	0	0	0	0	0	0	0	0	0	0	0	0	0	0	0	0	0	0	0
2024-05-06	12:51:51	13:03:51	718890	6.6.1	4_exp_EVA_AWA_CON	13	B	A	Rpleas_acq	Same	Rpleas	1pleas	EvalRating_lastfour	EvalRating_lastfour	7	7	0	0	300	300	0	0	1571	line	0	-44,140625pct	fair	spielen	helfen	treu	loyal	schlau	faul	strafen	hindern	tot	lasch	schroff	schön	ehrlich	lachen	tolerant	retten	freundlich	schlecht	eitel	leiden	tyrannisch	rächen	fanatisch	1		-8	1	Wie angenehm oder unangenehm finden Sie die  Buchstabenkette BMVZ?	-8	1		-8	1		-8	1		-8	1	Unangenehm	-8	1	Angenehm	-8	0	0	0	0	0	0	0	0	0
2024-05-06	12:51:51	13:04:30	758395	6.6.1	4_exp_EVA_AWA_CON	13	B	A	Rpleas_acq	Same	Rpleas	1pleas	conawa_CS2_US2	conawa1_nomask	8	1	0	0	300	300	0	0	11597	spielen	1	-44,140625pct	fair	spielen	helfen	treu	loyal	schlau	faul	strafen	hindern	tot	lasch	schroff	schön	ehrlich	lachen	tolerant	retten	freundlich	schlecht	eitel	leiden	tyrannisch	rächen	fanatisch	0	0	0	0	0	0	0	0	0	0	0	0	0	0	0	0	0	0	0	0	0	0	0	0	0	0	0	0	0	0
2024-05-06	12:51:51	13:04:30	758397	6.6.1	4_exp_EVA_AWA_CON	13	B	A	Rpleas_acq	Same	Rpleas	1pleas	conawa_CS2_US2_confidence	conawa1_nomask	8	1	0	0	300	300	0	0	11597	guess	1	-44,140625pct	fair	spielen	helfen	treu	loyal	schlau	faul	strafen	hindern	tot	lasch	schroff	schön	ehrlich	lachen	tolerant	retten	freundlich	schlecht	eitel	leiden	tyrannisch	rächen	fanatisch	0	0	0	0	0	0	0	0	0	0	0	0	0	0	0	0	0	0	0	0	0	0	0	0	0	0	0	0	0	0
2024-05-06	12:51:51	13:04:37	765090	6.6.1	4_exp_EVA_AWA_CON	13	B	A	Rpleas_acq	Same	Rpleas	1pleas	conawa_CS1_US5	conawa1_nomask	8	2	0	0	300	300	0	0	6078	loyal	1	-44,140625pct	fair	spielen	helfen	treu	loyal	schlau	faul	strafen	hindern	tot	lasch	schroff	schön	ehrlich	lachen	tolerant	retten	freundlich	schlecht	eitel	leiden	tyrannisch	rächen	fanatisch	0	0	0	0	0	0	0	0	0	0	0	0	0	0	0	0	0	0	0	0	0	0	0	0	0	0	0	0	0	0
2024-05-06	12:51:51	13:04:37	765091	6.6.1	4_exp_EVA_AWA_CON	13	B	A	Rpleas_acq	Same	Rpleas	1pleas	conawa_CS1_US5_confidence	conawa1_nomask	8	2	0	0	300	300	0	0	6078	guess	1	-44,140625pct	fair	spielen	helfen	treu	loyal	schlau	faul	strafen	hindern	tot	lasch	schroff	schön	ehrlich	lachen	tolerant	retten	freundlich	schlecht	eitel	leiden	tyrannisch	rächen	fanatisch	0	0	0	0	0	0	0	0	0	0	0	0	0	0	0	0	0	0	0	0	0	0	0	0	0	0	0	0	0	0
2024-05-06	12:51:51	13:04:44	772354	6.6.1	4_exp_EVA_AWA_CON	13	B	A	Rpleas_acq	Same	Rpleas	1pleas	conawa_CS1_US4	conawa1_nomask	8	3	0	0	300	300	0	0	6649	tyrannisch	1	-44,140625pct	fair	spielen	helfen	treu	loyal	schlau	faul	strafen	hindern	tot	lasch	schroff	schön	ehrlich	lachen	tolerant	retten	freundlich	schlecht	eitel	leiden	tyrannisch	rächen	fanatisch	0	0	0	0	0	0	0	0	0	0	0	0	0	0	0	0	0	0	0	0	0	0	0	0	0	0	0	0	0	0
2024-05-06	12:51:51	13:04:44	772356	6.6.1	4_exp_EVA_AWA_CON	13	B	A	Rpleas_acq	Same	Rpleas	1pleas	conawa_CS1_US4_confidence	conawa1_nomask	8	3	0	0	300	300	0	0	6649	guess	1	-44,140625pct	fair	spielen	helfen	treu	loyal	schlau	faul	strafen	hindern	tot	lasch	schroff	schön	ehrlich	lachen	tolerant	retten	freundlich	schlecht	eitel	leiden	tyrannisch	rächen	fanatisch	0	0	0	0	0	0	0	0	0	0	0	0	0	0	0	0	0	0	0	0	0	0	0	0	0	0	0	0	0	0
2024-05-06	12:51:51	13:04:51	779499	6.6.1	4_exp_EVA_AWA_CON	13	B	A	Rpleas_acq	Same	Rpleas	1pleas	conawa_CS2_US1	conawa1_nomask	8	4	0	0	300	300	0	0	6529	faul	1	-44,140625pct	fair	spielen	helfen	treu	loyal	schlau	faul	strafen	hindern	tot	lasch	schroff	schön	ehrlich	lachen	tolerant	retten	freundlich	schlecht	eitel	leiden	tyrannisch	rächen	fanatisch	0	0	0	0	0	0	0	0	0	0	0	0	0	0	0	0	0	0	0	0	0	0	0	0	0	0	0	0	0	0
2024-05-06	12:51:51	13:04:51	779500	6.6.1	4_exp_EVA_AWA_CON	13	B	A	Rpleas_acq	Same	Rpleas	1pleas	conawa_CS2_US1_confidence	conawa1_nomask	8	4	0	0	300	300	0	0	6529	guess	1	-44,140625pct	fair	spielen	helfen	treu	loyal	schlau	faul	strafen	hindern	tot	lasch	schroff	schön	ehrlich	lachen	tolerant	retten	freundlich	schlecht	eitel	leiden	tyrannisch	rächen	fanatisch	0	0	0	0	0	0	0	0	0	0	0	0	0	0	0	0	0	0	0	0	0	0	0	0	0	0	0	0	0	0
2024-05-06	12:51:51	13:04:58	785903	6.6.1	4_exp_EVA_AWA_CON	13	B	A	Rpleas_acq	Same	Rpleas	1pleas	conawa_CS1_US1	conawa1_nomask	8	5	0	0	300	300	0	0	5785	faul	1	-44,140625pct	fair	spielen	helfen	treu	loyal	schlau	faul	strafen	hindern	tot	lasch	schroff	schön	ehrlich	lachen	tolerant	retten	freundlich	schlecht	eitel	leiden	tyrannisch	rächen	fanatisch	0	0	0	0	0	0	0	0	0	0	0	0	0	0	0	0	0	0	0	0	0	0	0	0	0	0	0	0	0	0
2024-05-06	12:51:51	13:04:58	785905	6.6.1	4_exp_EVA_AWA_CON	13	B	A	Rpleas_acq	Same	Rpleas	1pleas	conawa_CS1_US1_confidence	conawa1_nomask	8	5	0	0	300	300	0	0	5785	guess	1	-44,140625pct	fair	spielen	helfen	treu	loyal	schlau	faul	strafen	hindern	tot	lasch	schroff	schön	ehrlich	lachen	tolerant	retten	freundlich	schlecht	eitel	leiden	tyrannisch	rächen	fanatisch	0	0	0	0	0	0	0	0	0	0	0	0	0	0	0	0	0	0	0	0	0	0	0	0	0	0	0	0	0	0
2024-05-06	12:51:51	13:05:05	793167	6.6.1	4_exp_EVA_AWA_CON	13	B	A	Rpleas_acq	Same	Rpleas	1pleas	conawa_CS2_US4	conawa1_nomask	8	6	0	0	300	300	0	0	6645	treu	1	-44,140625pct	fair	spielen	helfen	treu	loyal	schlau	faul	strafen	hindern	tot	lasch	schroff	schön	ehrlich	lachen	tolerant	retten	freundlich	schlecht	eitel	leiden	tyrannisch	rächen	fanatisch	0	0	0	0	0	0	0	0	0	0	0	0	0	0	0	0	0	0	0	0	0	0	0	0	0	0	0	0	0	0
2024-05-06	12:51:51	13:05:05	793169	6.6.1	4_exp_EVA_AWA_CON	13	B	A	Rpleas_acq	Same	Rpleas	1pleas	conawa_CS2_US4_confidence	conawa1_nomask	8	6	0	0	300	300	0	0	6645	guess	1	-44,140625pct	fair	spielen	helfen	treu	loyal	schlau	faul	strafen	hindern	tot	lasch	schroff	schön	ehrlich	lachen	tolerant	retten	freundlich	schlecht	eitel	leiden	tyrannisch	rächen	fanatisch	0	0	0	0	0	0	0	0	0	0	0	0	0	0	0	0	0	0	0	0	0	0	0	0	0	0	0	0	0	0
2024-05-06	12:51:51	13:05:14	801993	6.6.1	4_exp_EVA_AWA_CON	13	B	A	Rpleas_acq	Same	Rpleas	1pleas	conawa_CS1_US3	conawa1_nomask	8	7	0	0	300	300	0	0	8212	helfen	1	-44,140625pct	fair	spielen	helfen	treu	loyal	schlau	faul	strafen	hindern	tot	lasch	schroff	schön	ehrlich	lachen	tolerant	retten	freundlich	schlecht	eitel	leiden	tyrannisch	rächen	fanatisch	0	0	0	0	0	0	0	0	0	0	0	0	0	0	0	0	0	0	0	0	0	0	0	0	0	0	0	0	0	0
2024-05-06	12:51:51	13:05:14	801995	6.6.1	4_exp_EVA_AWA_CON	13	B	A	Rpleas_acq	Same	Rpleas	1pleas	conawa_CS1_US3_confidence	conawa1_nomask	8	7	0	0	300	300	0	0	8212	guess	1	-44,140625pct	fair	spielen	helfen	treu	loyal	schlau	faul	strafen	hindern	tot	lasch	schroff	schön	ehrlich	lachen	tolerant	retten	freundlich	schlecht	eitel	leiden	tyrannisch	rächen	fanatisch	0	0	0	0	0	0	0	0	0	0	0	0	0	0	0	0	0	0	0	0	0	0	0	0	0	0	0	0	0	0
2024-05-06	12:51:51	13:05:23	811419	6.6.1	4_exp_EVA_AWA_CON	13	B	A	Rpleas_acq	Same	Rpleas	1pleas	conawa_CS1_US6	conawa1_nomask	8	8	0	0	300	300	0	0	8810	freundlich	1	-44,140625pct	fair	spielen	helfen	treu	loyal	schlau	faul	strafen	hindern	tot	lasch	schroff	schön	ehrlich	lachen	tolerant	retten	freundlich	schlecht	eitel	leiden	tyrannisch	rächen	fanatisch	0	0	0	0	0	0	0	0	0	0	0	0	0	0	0	0	0	0	0	0	0	0	0	0	0	0	0	0	0	0
2024-05-06	12:51:51	13:05:23	811421	6.6.1	4_exp_EVA_AWA_CON	13	B	A	Rpleas_acq	Same	Rpleas	1pleas	conawa_CS1_US6_confidence	conawa1_nomask	8	8	0	0	300	300	0	0	8810	guess	1	-44,140625pct	fair	spielen	helfen	treu	loyal	schlau	faul	strafen	hindern	tot	lasch	schroff	schön	ehrlich	lachen	tolerant	retten	freundlich	schlecht	eitel	leiden	tyrannisch	rächen	fanatisch	0	0	0	0	0	0	0	0	0	0	0	0	0	0	0	0	0	0	0	0	0	0	0	0	0	0	0	0	0	0
2024-05-06	12:51:51	13:05:31	819315	6.6.1	4_exp_EVA_AWA_CON	13	B	A	Rpleas_acq	Same	Rpleas	1pleas	conawa_CS2_US5	conawa1_nomask	8	9	0	0	300	300	0	0	7279	fanatisch	1	-44,140625pct	fair	spielen	helfen	treu	loyal	schlau	faul	strafen	hindern	tot	lasch	schroff	schön	ehrlich	lachen	tolerant	retten	freundlich	schlecht	eitel	leiden	tyrannisch	rächen	fanatisch	0	0	0	0	0	0	0	0	0	0	0	0	0	0	0	0	0	0	0	0	0	0	0	0	0	0	0	0	0	0
2024-05-06	12:51:51	13:05:31	819316	6.6.1	4_exp_EVA_AWA_CON	13	B	A	Rpleas_acq	Same	Rpleas	1pleas	conawa_CS2_US5_confidence	conawa1_nomask	8	9	0	0	300	300	0	0	7279	guess	1	-44,140625pct	fair	spielen	helfen	treu	loyal	schlau	faul	strafen	hindern	tot	lasch	schroff	schön	ehrlich	lachen	tolerant	retten	freundlich	schlecht	eitel	leiden	tyrannisch	rächen	fanatisch	0	0	0	0	0	0	0	0	0	0	0	0	0	0	0	0	0	0	0	0	0	0	0	0	0	0	0	0	0	0
2024-05-06	12:51:51	13:05:37	825038	6.6.1	4_exp_EVA_AWA_CON	13	B	A	Rpleas_acq	Same	Rpleas	1pleas	conawa_CS1_US2	conawa1_nomask	8	10	0	0	300	300	0	0	5112	ehrlich	1	-44,140625pct	fair	spielen	helfen	treu	loyal	schlau	faul	strafen	hindern	tot	lasch	schroff	schön	ehrlich	lachen	tolerant	retten	freundlich	schlecht	eitel	leiden	tyrannisch	rächen	fanatisch	0	0	0	0	0	0	0	0	0	0	0	0	0	0	0	0	0	0	0	0	0	0	0	0	0	0	0	0	0	0
2024-05-06	12:51:51	13:05:37	825040	6.6.1	4_exp_EVA_AWA_CON	13	B	A	Rpleas_acq	Same	Rpleas	1pleas	conawa_CS1_US2_confidence	conawa1_nomask	8	10	0	0	300	300	0	0	5112	guess	1	-44,140625pct	fair	spielen	helfen	treu	loyal	schlau	faul	strafen	hindern	tot	lasch	schroff	schön	ehrlich	lachen	tolerant	retten	freundlich	schlecht	eitel	leiden	tyrannisch	rächen	fanatisch	0	0	0	0	0	0	0	0	0	0	0	0	0	0	0	0	0	0	0	0	0	0	0	0	0	0	0	0	0	0
2024-05-06	12:51:51	13:05:44	832343	6.6.1	4_exp_EVA_AWA_CON	13	B	A	Rpleas_acq	Same	Rpleas	1pleas	conawa_CS2_US6	conawa1_nomask	8	11	0	0	300	300	0	0	6693	schroff	1	-44,140625pct	fair	spielen	helfen	treu	loyal	schlau	faul	strafen	hindern	tot	lasch	schroff	schön	ehrlich	lachen	tolerant	retten	freundlich	schlecht	eitel	leiden	tyrannisch	rächen	fanatisch	0	0	0	0	0	0	0	0	0	0	0	0	0	0	0	0	0	0	0	0	0	0	0	0	0	0	0	0	0	0
2024-05-06	12:51:51	13:05:44	832345	6.6.1	4_exp_EVA_AWA_CON	13	B	A	Rpleas_acq	Same	Rpleas	1pleas	conawa_CS2_US6_confidence	conawa1_nomask	8	11	0	0	300	300	0	0	6693	guess	1	-44,140625pct	fair	spielen	helfen	treu	loyal	schlau	faul	strafen	hindern	tot	lasch	schroff	schön	ehrlich	lachen	tolerant	retten	freundlich	schlecht	eitel	leiden	tyrannisch	rächen	fanatisch	0	0	0	0	0	0	0	0	0	0	0	0	0	0	0	0	0	0	0	0	0	0	0	0	0	0	0	0	0	0
2024-05-06	12:51:51	13:05:50	838407	6.6.1	4_exp_EVA_AWA_CON	13	B	A	Rpleas_acq	Same	Rpleas	1pleas	conawa_CS2_US3	conawa1_nomask	8	12	0	0	300	300	0	0	5452	hindern	1	-44,140625pct	fair	spielen	helfen	treu	loyal	schlau	faul	strafen	hindern	tot	lasch	schroff	schön	ehrlich	lachen	tolerant	retten	freundlich	schlecht	eitel	leiden	tyrannisch	rächen	fanatisch	0	0	0	0	0	0	0	0	0	0	0	0	0	0	0	0	0	0	0	0	0	0	0	0	0	0	0	0	0	0
2024-05-06	12:51:51	13:05:50	838409	6.6.1	4_exp_EVA_AWA_CON	13	B	A	Rpleas_acq	Same	Rpleas	1pleas	conawa_CS2_US3_confidence	conawa1_nomask	8	12	0	0	300	300	0	0	5452	guess	1	-44,140625pct	fair	spielen	helfen	treu	loyal	schlau	faul	strafen	hindern	tot	lasch	schroff	schön	ehrlich	lachen	tolerant	retten	freundlich	schlecht	eitel	leiden	tyrannisch	rächen	fanatisch	0	0	0	0	0	0	0	0	0	0	0	0	0	0	0	0	0	0	0	0	0	0	0	0	0	0	0	0	0	0
2024-05-06	12:51:51	13:06:58	906005	6.6.1	4_exp_EVA_AWA_CON	13	B	A	Rpleas_acq	Same	Rpleas	1pleas	cond_new_pleas_456_nomask_CS1	condtest_nomask_1	11	1	400	0	300	300	0	0	674	50	1	-44,140625pct	fair	spielen	helfen	treu	loyal	schlau	faul	strafen	hindern	tot	lasch	schroff	schön	ehrlich	lachen	tolerant	retten	freundlich	schlecht	eitel	leiden	tyrannisch	rächen	fanatisch	1	blank2r.bmp	0	1	+	0	1	blank2r.bmp	500	1	BMVZ	500	1	blank2r.bmp	880	1	tolerant	880	1	!	1232	1	!	-1	0	0	0	0	0	0
2024-05-06	12:51:51	13:07:00	908085	6.6.1	4_exp_EVA_AWA_CON	13	B	A	Rpleas_acq	Same	Rpleas	1pleas	cond_US_pleas_123_nomask_CS1	condtest_nomask_1	11	2	400	0	300	300	0	0	304	50	1	-44,140625pct	fair	spielen	helfen	treu	loyal	schlau	faul	strafen	hindern	tot	lasch	schroff	schön	ehrlich	lachen	tolerant	retten	freundlich	schlecht	eitel	leiden	tyrannisch	rächen	fanatisch	1	blank2r.bmp	0	1	+	0	1	blank2r.bmp	500	1	BMVZ	500	1	blank2r.bmp	880	3	helfen	880	1	!	-1	1	!	-1	0	0	0	0	0	0
2024-05-06	12:51:51	13:07:02	910278	6.6.1	4_exp_EVA_AWA_CON	13	B	A	Rpleas_acq	Same	Rpleas	1pleas	cond_US_pleas_123_nomask_CS2	condtest_nomask_1	11	3	400	1	300	300	0	0	413	46	0	-44,140625pct	fair	spielen	helfen	treu	loyal	schlau	faul	strafen	hindern	tot	lasch	schroff	schön	ehrlich	lachen	tolerant	retten	freundlich	schlecht	eitel	leiden	tyrannisch	rächen	fanatisch	1	blank2r.bmp	0	1	+	0	1	blank2r.bmp	500	1	GKQX	500	1	blank2r.bmp	880	3	spielen	880	1	!	1232	1	!	1315	0	0	0	0	0	0
2024-05-06	12:51:51	13:07:04	912549	6.6.1	4_exp_EVA_AWA_CON	13	B	A	Rpleas_acq	Same	Rpleas	1pleas	cond_US_unple_123_nomask_CS1	condtest_nomask_1	11	4	400	0	300	300	0	0	494	46	1	-44,140625pct	fair	spielen	helfen	treu	loyal	schlau	faul	strafen	hindern	tot	lasch	schroff	schön	ehrlich	lachen	tolerant	retten	freundlich	schlecht	eitel	leiden	tyrannisch	rächen	fanatisch	1	blank2r.bmp	0	1	+	0	1	blank2r.bmp	500	1	BMVZ	500	1	blank2r.bmp	880	2	strafen	880	1	!	1232	1	!	-1	0	0	0	0	0	0
2024-05-06	12:51:51	13:07:06	914702	6.6.1	4_exp_EVA_AWA_CON	13	B	A	Rpleas_acq	Same	Rpleas	1pleas	cond_new_unple_456_nomask_CS2	condtest_nomask_1	11	5	400	1	300	300	0	0	375	50	0	-44,140625pct	fair	spielen	helfen	treu	loyal	schlau	faul	strafen	hindern	tot	lasch	schroff	schön	ehrlich	lachen	tolerant	retten	freundlich	schlecht	eitel	leiden	tyrannisch	rächen	fanatisch	1	blank2r.bmp	0	1	+	0	1	blank2r.bmp	500	1	GKQX	500	1	blank2r.bmp	880	2	tyrannisch	880	1	!	1232	1	!	1276	0	0	0	0	0	0
2024-05-06	12:51:51	13:07:09	916894	6.6.1	4_exp_EVA_AWA_CON	13	B	A	Rpleas_acq	Same	Rpleas	1pleas	cond_US_unple_123_nomask_CS2	condtest_nomask_1	11	6	400	1	300	300	0	0	415	46	1	-44,140625pct	fair	spielen	helfen	treu	loyal	schlau	faul	strafen	hindern	tot	lasch	schroff	schön	ehrlich	lachen	tolerant	retten	freundlich	schlecht	eitel	leiden	tyrannisch	rächen	fanatisch	1	blank2r.bmp	0	1	+	0	1	blank2r.bmp	500	1	GKQX	500	1	blank2r.bmp	880	3	strafen	880	1	!	1232	1	!	1317	0	0	0	0	0	0
2024-05-06	12:51:51	13:07:11	919119	6.6.1	4_exp_EVA_AWA_CON	13	B	A	Rpleas_acq	Same	Rpleas	1pleas	cond_new_pleas_456_nomask_CS2	condtest_nomask_1	11	7	400	1	300	300	0	0	448	50	1	-44,140625pct	fair	spielen	helfen	treu	loyal	schlau	faul	strafen	hindern	tot	lasch	schroff	schön	ehrlich	lachen	tolerant	retten	freundlich	schlecht	eitel	leiden	tyrannisch	rächen	fanatisch	1	blank2r.bmp	0	1	+	0	1	blank2r.bmp	500	1	GKQX	500	1	blank2r.bmp	880	2	tolerant	880	1	!	1232	1	!	1349	0	0	0	0	0	0
2024-05-06	12:51:51	13:07:13	921351	6.6.1	4_exp_EVA_AWA_CON	13	B	A	Rpleas_acq	Same	Rpleas	1pleas	cond_new_unple_456_nomask_CS1	condtest_nomask_1	11	8	400	1	300	300	0	0	448	46	1	-44,140625pct	fair	spielen	helfen	treu	loyal	schlau	faul	strafen	hindern	tot	lasch	schroff	schön	ehrlich	lachen	tolerant	retten	freundlich	schlecht	eitel	leiden	tyrannisch	rächen	fanatisch	1	blank2r.bmp	0	1	+	0	1	blank2r.bmp	500	1	BMVZ	500	1	blank2r.bmp	880	2	rächen	880	1	!	1233	1	!	1350	0	0	0	0	0	0
2024-05-06	12:51:51	13:07:22	930349	6.6.1	4_exp_EVA_AWA_CON	13	B	A	Rpleas_acq	Same	Rpleas	1pleas	cond_new_pleas_456_nomask_CS2	condtest_nomask_2	12	1	400	0	300	300	0	0	502	50	1	-44,140625pct	fair	spielen	helfen	treu	loyal	schlau	faul	strafen	hindern	tot	lasch	schroff	schön	ehrlich	lachen	tolerant	retten	freundlich	schlecht	eitel	leiden	tyrannisch	rächen	fanatisch	1	blank2r.bmp	0	1	+	0	1	blank2r.bmp	500	1	GKQX	500	1	blank2r.bmp	880	1	freundlich	880	1	!	1232	1	!	-1	0	0	0	0	0	0
2024-05-06	12:51:51	13:07:24	932603	6.6.1	4_exp_EVA_AWA_CON	13	B	A	Rpleas_acq	Same	Rpleas	1pleas	cond_US_pleas_123_nomask_CS2	condtest_nomask_2	12	2	400	0	300	300	0	0	477	50	1	-44,140625pct	fair	spielen	helfen	treu	loyal	schlau	faul	strafen	hindern	tot	lasch	schroff	schön	ehrlich	lachen	tolerant	retten	freundlich	schlecht	eitel	leiden	tyrannisch	rächen	fanatisch	1	blank2r.bmp	0	1	+	0	1	blank2r.bmp	500	1	GKQX	500	1	blank2r.bmp	880	2	fair	880	1	!	1233	1	!	-1	0	0	0	0	0	0
