date	time	currenttime	elapsedtime	build	currentexpt	subject	CS_AB	US_AB	LRpleas_acq	SameOppo	condition_Lpleas	condition_1pleas	trialcode	blockcode	blocknum	trialnum	windowcenter	inwindow	pretrialpause	posttrialpause	trialduration	trialtimeout	latency	response	correct	correctedscore	US_nomask_pleas1	US_nomask_pleas2	US_nomask_pleas3	US_nomask_pleas4	US_nomask_pleas5	US_nomask_pleas6	US_nomask_unple1	US_nomask_unple2	US_nomask_unple3	US_nomask_unple4	US_nomask_unple5	US_nomask_unple6	new_nomask_pleas1	new_nomask_pleas2	new_nomask_pleas3	new_nomask_pleas4	new_nomask_pleas5	new_nomask_pleas6	new_nomask_unple1	new_nomask_unple2	new_nomask_unple3	new_nomask_unple4	new_nomask_unple5	new_nomask_unple6	stimulusnumber1	stimulusitem1	stimulusonset1	stimulusnumber2	stimulusitem2	stimulusonset2	stimulusnumber3	stimulusitem3	stimulusonset3	stimulusnumber4	stimulusitem4	stimulusonset4	stimulusnumber5	stimulusitem5	stimulusonset5	stimulusnumber6	stimulusitem6	stimulusonset6	stimulusnumber7	stimulusitem7	stimulusonset7	stimulusnumber8	stimulusitem8	stimulusonset8	stimulusnumber9	stimulusitem9	stimulusonset9	stimulusnumber10	stimulusitem10	stimulusonset10
2024-05-29	15:31:42	15:33:22	100361	6.6.1	4_exp_EVA_AWA_CON	62	B	A	Rpleas_acq	Oppo	Rpleas	1pleas	acq_new_pleas_nomask	acq1_nomask	1	1	0	0	300	300	0	0	1061	50	1	0	fair	spielen	ehrlich	schlau	treu	schön	faul	strafen	eitel	schroff	tot	schlecht	lachen	freundlich	helfen	retten	tolerant	loyal	leiden	fanatisch	hindern	rächen	tyrannisch	lasch	1	blank2r.bmp	0	1	+	0	1	blank2r.bmp	500	7	C3r.bmp	500	1	blank2r.bmp	880	2	freundlich	880	0	0	0	0	0	0	0	0	0	0	0	0
2024-05-29	15:31:42	15:33:24	102585	6.6.1	4_exp_EVA_AWA_CON	62	B	A	Rpleas_acq	Oppo	Rpleas	1pleas	acq_US_pleas_nomask	acq1_nomask	1	2	0	0	300	300	0	0	734	50	1	0	fair	spielen	ehrlich	schlau	treu	schön	faul	strafen	eitel	schroff	tot	schlecht	lachen	freundlich	helfen	retten	tolerant	loyal	leiden	fanatisch	hindern	rächen	tyrannisch	lasch	1	blank2r.bmp	0	1	+	0	1	blank2r.bmp	500	1	BMVZ	500	1	blank2r.bmp	880	1	fair	880	0	0	0	0	0	0	0	0	0	0	0	0
2024-05-29	15:31:42	15:33:27	105211	6.6.1	4_exp_EVA_AWA_CON	62	B	A	Rpleas_acq	Oppo	Rpleas	1pleas	acq_new_unple_nomask	acq1_nomask	1	3	0	0	300	300	0	0	936	50	0	0	fair	spielen	ehrlich	schlau	treu	schön	faul	strafen	eitel	schroff	tot	schlecht	lachen	freundlich	helfen	retten	tolerant	loyal	leiden	fanatisch	hindern	rächen	tyrannisch	lasch	1	blank2r.bmp	0	1	+	0	1	blank2r.bmp	500	5	C1r.bmp	500	1	blank2r.bmp	880	3	hindern	880	1	FEHLER	1838	0	0	0	0	0	0	0	0	0
2024-05-29	15:31:42	15:33:29	107090	6.6.1	4_exp_EVA_AWA_CON	62	B	A	Rpleas_acq	Oppo	Rpleas	1pleas	acq_new_pleas_nomask	acq1_nomask	1	4	0	0	300	300	0	0	595	50	1	0	fair	spielen	ehrlich	schlau	treu	schön	faul	strafen	eitel	schroff	tot	schlecht	lachen	freundlich	helfen	retten	tolerant	loyal	leiden	fanatisch	hindern	rächen	tyrannisch	lasch	1	blank2r.bmp	0	1	+	0	1	blank2r.bmp	500	1	B1r.bmp	500	1	blank2r.bmp	880	6	loyal	880	0	0	0	0	0	0	0	0	0	0	0	0
2024-05-29	15:31:42	15:33:31	108657	6.6.1	4_exp_EVA_AWA_CON	62	B	A	Rpleas_acq	Oppo	Rpleas	1pleas	acq_US_unple_nomask	acq1_nomask	1	5	0	0	300	300	0	0	81	46	1	0	fair	spielen	ehrlich	schlau	treu	schön	faul	strafen	eitel	schroff	tot	schlecht	lachen	freundlich	helfen	retten	tolerant	loyal	leiden	fanatisch	hindern	rächen	tyrannisch	lasch	1	blank2r.bmp	0	1	+	0	1	blank2r.bmp	500	1	GKQX	500	1	blank2r.bmp	880	4	schroff	880	0	0	0	0	0	0	0	0	0	0	0	0
2024-05-29	15:31:42	15:33:33	110689	6.6.1	4_exp_EVA_AWA_CON	62	B	A	Rpleas_acq	Oppo	Rpleas	1pleas	acq_US_pleas_nomask	acq1_nomask	1	6	0	0	300	300	0	0	542	50	1	0	fair	spielen	ehrlich	schlau	treu	schön	faul	strafen	eitel	schroff	tot	schlecht	lachen	freundlich	helfen	retten	tolerant	loyal	leiden	fanatisch	hindern	rächen	tyrannisch	lasch	1	blank2r.bmp	0	1	+	0	1	blank2r.bmp	500	1	BMVZ	500	1	blank2r.bmp	880	6	schön	880	0	0	0	0	0	0	0	0	0	0	0	0
2024-05-29	15:31:42	15:33:35	113075	6.6.1	4_exp_EVA_AWA_CON	62	B	A	Rpleas_acq	Oppo	Rpleas	1pleas	acq_US_unple_nomask	acq1_nomask	1	7	0	0	300	300	0	0	695	50	0	0	fair	spielen	ehrlich	schlau	treu	schön	faul	strafen	eitel	schroff	tot	schlecht	lachen	freundlich	helfen	retten	tolerant	loyal	leiden	fanatisch	hindern	rächen	tyrannisch	lasch	1	blank2r.bmp	0	1	+	0	1	blank2r.bmp	500	1	GKQX	500	1	blank2r.bmp	880	3	eitel	880	1	FEHLER	1597	0	0	0	0	0	0	0	0	0
2024-05-29	15:31:42	15:33:37	114987	6.6.1	4_exp_EVA_AWA_CON	62	B	A	Rpleas_acq	Oppo	Rpleas	1pleas	acq_US_unple_nomask	acq1_nomask	1	8	0	0	300	300	0	0	426	50	0	0	fair	spielen	ehrlich	schlau	treu	schön	faul	strafen	eitel	schroff	tot	schlecht	lachen	freundlich	helfen	retten	tolerant	loyal	leiden	fanatisch	hindern	rächen	tyrannisch	lasch	1	blank2r.bmp	0	1	+	0	1	blank2r.bmp	500	1	GKQX	500	1	blank2r.bmp	880	6	schlecht	880	1	FEHLER	1328	0	0	0	0	0	0	0	0	0
2024-05-29	15:31:42	15:33:39	116778	6.6.1	4_exp_EVA_AWA_CON	62	B	A	Rpleas_acq	Oppo	Rpleas	1pleas	acq_new_unple_nomask	acq1_nomask	1	9	0	0	300	300	0	0	506	46	1	0	fair	spielen	ehrlich	schlau	treu	schön	faul	strafen	eitel	schroff	tot	schlecht	lachen	freundlich	helfen	retten	tolerant	loyal	leiden	fanatisch	hindern	rächen	tyrannisch	lasch	1	blank2r.bmp	0	1	+	0	1	blank2r.bmp	500	2	B2r.bmp	500	1	blank2r.bmp	880	5	tyrannisch	880	0	0	0	0	0	0	0	0	0	0	0	0
2024-05-29	15:31:42	15:33:41	118729	6.6.1	4_exp_EVA_AWA_CON	62	B	A	Rpleas_acq	Oppo	Rpleas	1pleas	acq_new_pleas_nomask	acq1_nomask	1	10	0	0	300	300	0	0	467	50	1	0	fair	spielen	ehrlich	schlau	treu	schön	faul	strafen	eitel	schroff	tot	schlecht	lachen	freundlich	helfen	retten	tolerant	loyal	leiden	fanatisch	hindern	rächen	tyrannisch	lasch	1	blank2r.bmp	0	1	+	0	1	blank2r.bmp	500	6	C2r.bmp	500	1	blank2r.bmp	880	3	helfen	880	0	0	0	0	0	0	0	0	0	0	0	0
2024-05-29	15:31:42	15:33:43	120826	6.6.1	4_exp_EVA_AWA_CON	62	B	A	Rpleas_acq	Oppo	Rpleas	1pleas	acq_new_unple_nomask	acq1_nomask	1	11	0	0	300	300	0	0	612	46	1	0	fair	spielen	ehrlich	schlau	treu	schön	faul	strafen	eitel	schroff	tot	schlecht	lachen	freundlich	helfen	retten	tolerant	loyal	leiden	fanatisch	hindern	rächen	tyrannisch	lasch	1	blank2r.bmp	0	1	+	0	1	blank2r.bmp	500	4	B4r.bmp	500	1	blank2r.bmp	880	4	rächen	880	0	0	0	0	0	0	0	0	0	0	0	0
2024-05-29	15:31:42	15:33:45	122922	6.6.1	4_exp_EVA_AWA_CON	62	B	A	Rpleas_acq	Oppo	Rpleas	1pleas	acq_US_pleas_nomask	acq1_nomask	1	12	0	0	300	300	0	0	606	50	1	0	fair	spielen	ehrlich	schlau	treu	schön	faul	strafen	eitel	schroff	tot	schlecht	lachen	freundlich	helfen	retten	tolerant	loyal	leiden	fanatisch	hindern	rächen	tyrannisch	lasch	1	blank2r.bmp	0	1	+	0	1	blank2r.bmp	500	1	BMVZ	500	1	blank2r.bmp	880	4	schlau	880	0	0	0	0	0	0	0	0	0	0	0	0
2024-05-29	15:31:42	15:33:47	124954	6.6.1	4_exp_EVA_AWA_CON	62	B	A	Rpleas_acq	Oppo	Rpleas	1pleas	acq_new_unple_nomask	acq1_nomask	1	13	0	0	300	300	0	0	547	46	1	0	fair	spielen	ehrlich	schlau	treu	schön	faul	strafen	eitel	schroff	tot	schlecht	lachen	freundlich	helfen	retten	tolerant	loyal	leiden	fanatisch	hindern	rächen	tyrannisch	lasch	1	blank2r.bmp	0	1	+	0	1	blank2r.bmp	500	3	B3r.bmp	500	1	blank2r.bmp	880	1	leiden	880	0	0	0	0	0	0	0	0	0	0	0	0
2024-05-29	15:31:42	15:33:49	126948	6.6.1	4_exp_EVA_AWA_CON	62	B	A	Rpleas_acq	Oppo	Rpleas	1pleas	acq_US_pleas_nomask	acq1_nomask	1	14	0	0	300	300	0	0	308	46	0	0	fair	spielen	ehrlich	schlau	treu	schön	faul	strafen	eitel	schroff	tot	schlecht	lachen	freundlich	helfen	retten	tolerant	loyal	leiden	fanatisch	hindern	rächen	tyrannisch	lasch	1	blank2r.bmp	0	1	+	0	1	blank2r.bmp	500	1	BMVZ	500	1	blank2r.bmp	880	5	treu	880	1	FEHLER	1210	0	0	0	0	0	0	0	0	0
2024-05-29	15:31:42	15:33:51	128657	6.6.1	4_exp_EVA_AWA_CON	62	B	A	Rpleas_acq	Oppo	Rpleas	1pleas	acq_US_pleas_nomask	acq1_nomask	1	15	0	0	300	300	0	0	428	50	1	0	fair	spielen	ehrlich	schlau	treu	schön	faul	strafen	eitel	schroff	tot	schlecht	lachen	freundlich	helfen	retten	tolerant	loyal	leiden	fanatisch	hindern	rächen	tyrannisch	lasch	1	blank2r.bmp	0	1	+	0	1	blank2r.bmp	500	1	BMVZ	500	1	blank2r.bmp	880	3	ehrlich	880	0	0	0	0	0	0	0	0	0	0	0	0
2024-05-29	15:31:42	15:33:53	130610	6.6.1	4_exp_EVA_AWA_CON	62	B	A	Rpleas_acq	Oppo	Rpleas	1pleas	acq_new_pleas_nomask	acq1_nomask	1	16	0	0	300	300	0	0	469	50	1	0	fair	spielen	ehrlich	schlau	treu	schön	faul	strafen	eitel	schroff	tot	schlecht	lachen	freundlich	helfen	retten	tolerant	loyal	leiden	fanatisch	hindern	rächen	tyrannisch	lasch	1	blank2r.bmp	0	1	+	0	1	blank2r.bmp	500	8	C4r.bmp	500	1	blank2r.bmp	880	4	retten	880	0	0	0	0	0	0	0	0	0	0	0	0
2024-05-29	15:31:42	15:33:54	132513	6.6.1	4_exp_EVA_AWA_CON	62	B	A	Rpleas_acq	Oppo	Rpleas	1pleas	acq_US_unple_nomask	acq1_nomask	1	17	0	0	300	300	0	0	422	46	1	0	fair	spielen	ehrlich	schlau	treu	schön	faul	strafen	eitel	schroff	tot	schlecht	lachen	freundlich	helfen	retten	tolerant	loyal	leiden	fanatisch	hindern	rächen	tyrannisch	lasch	1	blank2r.bmp	0	1	+	0	1	blank2r.bmp	500	1	GKQX	500	1	blank2r.bmp	880	5	tot	880	0	0	0	0	0	0	0	0	0	0	0	0
2024-05-29	15:31:42	15:33:57	134746	6.6.1	4_exp_EVA_AWA_CON	62	B	A	Rpleas_acq	Oppo	Rpleas	1pleas	acq_US_pleas_nomask	acq1_nomask	1	18	0	0	300	300	0	0	743	50	1	0	fair	spielen	ehrlich	schlau	treu	schön	faul	strafen	eitel	schroff	tot	schlecht	lachen	freundlich	helfen	retten	tolerant	loyal	leiden	fanatisch	hindern	rächen	tyrannisch	lasch	1	blank2r.bmp	0	1	+	0	1	blank2r.bmp	500	1	BMVZ	500	1	blank2r.bmp	880	2	spielen	880	0	0	0	0	0	0	0	0	0	0	0	0
2024-05-29	15:31:42	15:33:59	136657	6.6.1	4_exp_EVA_AWA_CON	62	B	A	Rpleas_acq	Oppo	Rpleas	1pleas	acq_US_unple_nomask	acq1_nomask	1	19	0	0	300	300	0	0	423	46	1	0	fair	spielen	ehrlich	schlau	treu	schön	faul	strafen	eitel	schroff	tot	schlecht	lachen	freundlich	helfen	retten	tolerant	loyal	leiden	fanatisch	hindern	rächen	tyrannisch	lasch	1	blank2r.bmp	0	1	+	0	1	blank2r.bmp	500	1	GKQX	500	1	blank2r.bmp	880	2	strafen	880	0	0	0	0	0	0	0	0	0	0	0	0
2024-05-29	15:31:42	15:34:00	138506	6.6.1	4_exp_EVA_AWA_CON	62	B	A	Rpleas_acq	Oppo	Rpleas	1pleas	acq_US_unple_nomask	acq1_nomask	1	20	0	0	300	300	0	0	360	46	1	0	fair	spielen	ehrlich	schlau	treu	schön	faul	strafen	eitel	schroff	tot	schlecht	lachen	freundlich	helfen	retten	tolerant	loyal	leiden	fanatisch	hindern	rächen	tyrannisch	lasch	1	blank2r.bmp	0	1	+	0	1	blank2r.bmp	500	1	GKQX	500	1	blank2r.bmp	880	1	faul	880	0	0	0	0	0	0	0	0	0	0	0	0
2024-05-29	15:31:42	15:34:03	140667	6.6.1	4_exp_EVA_AWA_CON	62	B	A	Rpleas_acq	Oppo	Rpleas	1pleas	acq_new_unple_nomask	acq1_nomask	1	21	0	0	300	300	0	0	469	50	0	0	fair	spielen	ehrlich	schlau	treu	schön	faul	strafen	eitel	schroff	tot	schlecht	lachen	freundlich	helfen	retten	tolerant	loyal	leiden	fanatisch	hindern	rächen	tyrannisch	lasch	1	blank2r.bmp	0	1	+	0	1	blank2r.bmp	500	6	C2r.bmp	500	1	blank2r.bmp	880	2	fanatisch	880	1	FEHLER	1371	0	0	0	0	0	0	0	0	0
2024-05-29	15:31:42	15:34:04	142458	6.6.1	4_exp_EVA_AWA_CON	62	B	A	Rpleas_acq	Oppo	Rpleas	1pleas	acq_new_unple_nomask	acq1_nomask	1	22	0	0	300	300	0	0	510	46	1	0	fair	spielen	ehrlich	schlau	treu	schön	faul	strafen	eitel	schroff	tot	schlecht	lachen	freundlich	helfen	retten	tolerant	loyal	leiden	fanatisch	hindern	rächen	tyrannisch	lasch	1	blank2r.bmp	0	1	+	0	1	blank2r.bmp	500	2	B2r.bmp	500	1	blank2r.bmp	880	6	lasch	880	0	0	0	0	0	0	0	0	0	0	0	0
2024-05-29	15:31:42	15:34:06	144386	6.6.1	4_exp_EVA_AWA_CON	62	B	A	Rpleas_acq	Oppo	Rpleas	1pleas	acq_new_pleas_nomask	acq1_nomask	1	23	0	0	300	300	0	0	446	50	1	0	fair	spielen	ehrlich	schlau	treu	schön	faul	strafen	eitel	schroff	tot	schlecht	lachen	freundlich	helfen	retten	tolerant	loyal	leiden	fanatisch	hindern	rächen	tyrannisch	lasch	1	blank2r.bmp	0	1	+	0	1	blank2r.bmp	500	3	B3r.bmp	500	1	blank2r.bmp	880	1	lachen	880	0	0	0	0	0	0	0	0	0	0	0	0
2024-05-29	15:31:42	15:34:09	146603	6.6.1	4_exp_EVA_AWA_CON	62	B	A	Rpleas_acq	Oppo	Rpleas	1pleas	acq_new_pleas_nomask	acq1_nomask	1	24	0	0	300	300	0	0	531	46	0	0	fair	spielen	ehrlich	schlau	treu	schön	faul	strafen	eitel	schroff	tot	schlecht	lachen	freundlich	helfen	retten	tolerant	loyal	leiden	fanatisch	hindern	rächen	tyrannisch	lasch	1	blank2r.bmp	0	1	+	0	1	blank2r.bmp	500	7	C3r.bmp	500	1	blank2r.bmp	880	5	tolerant	880	1	FEHLER	1433	0	0	0	0	0	0	0	0	0
2024-05-29	15:31:42	15:34:10	148378	6.6.1	4_exp_EVA_AWA_CON	62	B	A	Rpleas_acq	Oppo	Rpleas	1pleas	acq_US_pleas_nomask	acq1_nomask	1	25	0	0	300	300	0	0	486	50	1	0	fair	spielen	ehrlich	schlau	treu	schön	faul	strafen	eitel	schroff	tot	schlecht	lachen	freundlich	helfen	retten	tolerant	loyal	leiden	fanatisch	hindern	rächen	tyrannisch	lasch	1	blank2r.bmp	0	1	+	0	1	blank2r.bmp	500	1	BMVZ	500	1	blank2r.bmp	880	2	spielen	880	0	0	0	0	0	0	0	0	0	0	0	0
2024-05-29	15:31:42	15:34:12	150321	6.6.1	4_exp_EVA_AWA_CON	62	B	A	Rpleas_acq	Oppo	Rpleas	1pleas	acq_US_unple_nomask	acq1_nomask	1	26	0	0	300	300	0	0	458	46	1	0	fair	spielen	ehrlich	schlau	treu	schön	faul	strafen	eitel	schroff	tot	schlecht	lachen	freundlich	helfen	retten	tolerant	loyal	leiden	fanatisch	hindern	rächen	tyrannisch	lasch	1	blank2r.bmp	0	1	+	0	1	blank2r.bmp	500	1	GKQX	500	1	blank2r.bmp	880	1	faul	880	0	0	0	0	0	0	0	0	0	0	0	0
2024-05-29	15:31:42	15:34:14	152411	6.6.1	4_exp_EVA_AWA_CON	62	B	A	Rpleas_acq	Oppo	Rpleas	1pleas	acq_new_pleas_nomask	acq1_nomask	1	27	0	0	300	300	0	0	405	46	0	0	fair	spielen	ehrlich	schlau	treu	schön	faul	strafen	eitel	schroff	tot	schlecht	lachen	freundlich	helfen	retten	tolerant	loyal	leiden	fanatisch	hindern	rächen	tyrannisch	lasch	1	blank2r.bmp	0	1	+	0	1	blank2r.bmp	500	1	B1r.bmp	500	1	blank2r.bmp	880	5	tolerant	880	1	FEHLER	1307	0	0	0	0	0	0	0	0	0
2024-05-29	15:31:42	15:34:16	154473	6.6.1	4_exp_EVA_AWA_CON	62	B	A	Rpleas_acq	Oppo	Rpleas	1pleas	acq_US_pleas_nomask	acq1_nomask	1	28	0	0	300	300	0	0	778	50	1	0	fair	spielen	ehrlich	schlau	treu	schön	faul	strafen	eitel	schroff	tot	schlecht	lachen	freundlich	helfen	retten	tolerant	loyal	leiden	fanatisch	hindern	rächen	tyrannisch	lasch	1	blank2r.bmp	0	1	+	0	1	blank2r.bmp	500	1	BMVZ	500	1	blank2r.bmp	880	1	fair	880	0	0	0	0	0	0	0	0	0	0	0	0
2024-05-29	15:31:42	15:34:19	156770	6.6.1	4_exp_EVA_AWA_CON	62	B	A	Rpleas_acq	Oppo	Rpleas	1pleas	acq_US_unple_nomask	acq1_nomask	1	29	0	0	300	300	0	0	612	50	0	0	fair	spielen	ehrlich	schlau	treu	schön	faul	strafen	eitel	schroff	tot	schlecht	lachen	freundlich	helfen	retten	tolerant	loyal	leiden	fanatisch	hindern	rächen	tyrannisch	lasch	1	blank2r.bmp	0	1	+	0	1	blank2r.bmp	500	1	GKQX	500	1	blank2r.bmp	880	2	strafen	880	1	FEHLER	1514	0	0	0	0	0	0	0	0	0
2024-05-29	15:31:42	15:34:21	158747	6.6.1	4_exp_EVA_AWA_CON	62	B	A	Rpleas_acq	Oppo	Rpleas	1pleas	acq_new_unple_nomask	acq1_nomask	1	30	0	0	300	300	0	0	487	50	0	0	fair	spielen	ehrlich	schlau	treu	schön	faul	strafen	eitel	schroff	tot	schlecht	lachen	freundlich	helfen	retten	tolerant	loyal	leiden	fanatisch	hindern	rächen	tyrannisch	lasch	1	blank2r.bmp	0	1	+	0	1	blank2r.bmp	500	4	B4r.bmp	500	1	blank2r.bmp	880	3	hindern	880	1	FEHLER	1389	0	0	0	0	0	0	0	0	0
2024-05-29	15:31:42	15:34:23	160843	6.6.1	4_exp_EVA_AWA_CON	62	B	A	Rpleas_acq	Oppo	Rpleas	1pleas	acq_new_pleas_nomask	acq1_nomask	1	31	0	0	300	300	0	0	612	46	0	0	fair	spielen	ehrlich	schlau	treu	schön	faul	strafen	eitel	schroff	tot	schlecht	lachen	freundlich	helfen	retten	tolerant	loyal	leiden	fanatisch	hindern	rächen	tyrannisch	lasch	1	blank2r.bmp	0	1	+	0	1	blank2r.bmp	500	8	C4r.bmp	500	1	blank2r.bmp	880	3	helfen	880	1	FEHLER	1514	0	0	0	0	0	0	0	0	0
2024-05-29	15:31:42	15:34:25	162771	6.6.1	4_exp_EVA_AWA_CON	62	B	A	Rpleas_acq	Oppo	Rpleas	1pleas	acq_new_unple_nomask	acq1_nomask	1	32	0	0	300	300	0	0	438	50	0	0	fair	spielen	ehrlich	schlau	treu	schön	faul	strafen	eitel	schroff	tot	schlecht	lachen	freundlich	helfen	retten	tolerant	loyal	leiden	fanatisch	hindern	rächen	tyrannisch	lasch	1	blank2r.bmp	0	1	+	0	1	blank2r.bmp	500	5	C1r.bmp	500	1	blank2r.bmp	880	2	fanatisch	880	1	FEHLER	1340	0	0	0	0	0	0	0	0	0
2024-05-29	15:31:42	15:34:26	164482	6.6.1	4_exp_EVA_AWA_CON	62	B	A	Rpleas_acq	Oppo	Rpleas	1pleas	acq_US_pleas_nomask	acq1_nomask	1	33	0	0	300	300	0	0	429	50	1	0	fair	spielen	ehrlich	schlau	treu	schön	faul	strafen	eitel	schroff	tot	schlecht	lachen	freundlich	helfen	retten	tolerant	loyal	leiden	fanatisch	hindern	rächen	tyrannisch	lasch	1	blank2r.bmp	0	1	+	0	1	blank2r.bmp	500	1	BMVZ	500	1	blank2r.bmp	880	3	ehrlich	880	0	0	0	0	0	0	0	0	0	0	0	0
2024-05-29	15:31:42	15:34:28	166377	6.6.1	4_exp_EVA_AWA_CON	62	B	A	Rpleas_acq	Oppo	Rpleas	1pleas	acq_US_unple_nomask	acq1_nomask	1	34	0	0	300	300	0	0	414	46	1	0	fair	spielen	ehrlich	schlau	treu	schön	faul	strafen	eitel	schroff	tot	schlecht	lachen	freundlich	helfen	retten	tolerant	loyal	leiden	fanatisch	hindern	rächen	tyrannisch	lasch	1	blank2r.bmp	0	1	+	0	1	blank2r.bmp	500	1	GKQX	500	1	blank2r.bmp	880	4	schroff	880	0	0	0	0	0	0	0	0	0	0	0	0
2024-05-29	15:31:42	15:34:30	168266	6.6.1	4_exp_EVA_AWA_CON	62	B	A	Rpleas_acq	Oppo	Rpleas	1pleas	acq_new_pleas_nomask	acq1_nomask	1	35	0	0	300	300	0	0	401	50	1	0	fair	spielen	ehrlich	schlau	treu	schön	faul	strafen	eitel	schroff	tot	schlecht	lachen	freundlich	helfen	retten	tolerant	loyal	leiden	fanatisch	hindern	rächen	tyrannisch	lasch	1	blank2r.bmp	0	1	+	0	1	blank2r.bmp	500	7	C3r.bmp	500	1	blank2r.bmp	880	6	loyal	880	0	0	0	0	0	0	0	0	0	0	0	0
2024-05-29	15:31:42	15:34:32	170402	6.6.1	4_exp_EVA_AWA_CON	62	B	A	Rpleas_acq	Oppo	Rpleas	1pleas	acq_new_unple_nomask	acq1_nomask	1	36	0	0	300	300	0	0	455	50	0	0	fair	spielen	ehrlich	schlau	treu	schön	faul	strafen	eitel	schroff	tot	schlecht	lachen	freundlich	helfen	retten	tolerant	loyal	leiden	fanatisch	hindern	rächen	tyrannisch	lasch	1	blank2r.bmp	0	1	+	0	1	blank2r.bmp	500	3	B3r.bmp	500	1	blank2r.bmp	880	5	tyrannisch	880	1	FEHLER	1357	0	0	0	0	0	0	0	0	0
2024-05-29	15:31:42	15:35:14	212564	6.6.1	4_exp_EVA_AWA_CON	62	B	A	Rpleas_acq	Oppo	Rpleas	1pleas	acq_US_unple_nomask	acq2_nomask	2	1	480	0	300	300	0	0	570	46	1	0	fair	spielen	ehrlich	schlau	treu	schön	faul	strafen	eitel	schroff	tot	schlecht	lachen	freundlich	helfen	retten	tolerant	loyal	leiden	fanatisch	hindern	rächen	tyrannisch	lasch	1	blank2r.bmp	0	1	+	0	1	blank2r.bmp	500	1	GKQX	500	1	blank2r.bmp	880	6	schlecht	880	1	!	1313	1	!	-1	0	0	0	0	0	0
2024-05-29	15:31:42	15:35:17	215030	6.6.1	4_exp_EVA_AWA_CON	62	B	A	Rpleas_acq	Oppo	Rpleas	1pleas	acq_new_unple_nomask	acq2_nomask	2	2	480	1	300	300	0	0	482	50	0	0	fair	spielen	ehrlich	schlau	treu	schön	faul	strafen	eitel	schroff	tot	schlecht	lachen	freundlich	helfen	retten	tolerant	loyal	leiden	fanatisch	hindern	rächen	tyrannisch	lasch	1	blank2r.bmp	0	1	+	0	1	blank2r.bmp	500	6	C2r.bmp	500	1	blank2r.bmp	880	4	rächen	880	1	FEHLER	1676	1	!	1312	1	!	1384	0	0	0
2024-05-29	15:31:42	15:35:19	217125	6.6.1	4_exp_EVA_AWA_CON	62	B	A	Rpleas_acq	Oppo	Rpleas	1pleas	acq_US_pleas_nomask	acq2_nomask	2	3	480	1	300	300	0	0	517	50	1	0	fair	spielen	ehrlich	schlau	treu	schön	faul	strafen	eitel	schroff	tot	schlecht	lachen	freundlich	helfen	retten	tolerant	loyal	leiden	fanatisch	hindern	rächen	tyrannisch	lasch	1	blank2r.bmp	0	1	+	0	1	blank2r.bmp	500	1	BMVZ	500	1	blank2r.bmp	880	5	treu	880	1	!	1313	1	!	1419	0	0	0	0	0	0
2024-05-29	15:31:42	15:35:21	219333	6.6.1	4_exp_EVA_AWA_CON	62	B	A	Rpleas_acq	Oppo	Rpleas	1pleas	acq_US_unple_nomask	acq2_nomask	2	4	480	1	300	300	0	0	434	46	1	0	fair	spielen	ehrlich	schlau	treu	schön	faul	strafen	eitel	schroff	tot	schlecht	lachen	freundlich	helfen	retten	tolerant	loyal	leiden	fanatisch	hindern	rächen	tyrannisch	lasch	1	blank2r.bmp	0	1	+	0	1	blank2r.bmp	500	1	GKQX	500	1	blank2r.bmp	880	5	tot	880	1	!	1313	1	!	1335	0	0	0	0	0	0
2024-05-29	15:31:42	15:35:23	221565	6.6.1	4_exp_EVA_AWA_CON	62	B	A	Rpleas_acq	Oppo	Rpleas	1pleas	acq_new_pleas_nomask	acq2_nomask	2	5	480	1	300	300	0	0	454	50	1	0	fair	spielen	ehrlich	schlau	treu	schön	faul	strafen	eitel	schroff	tot	schlecht	lachen	freundlich	helfen	retten	tolerant	loyal	leiden	fanatisch	hindern	rächen	tyrannisch	lasch	1	blank2r.bmp	0	1	+	0	1	blank2r.bmp	500	5	C1r.bmp	500	1	blank2r.bmp	880	2	freundlich	880	1	!	1312	1	!	1356	0	0	0	0	0	0
2024-05-29	15:31:42	15:35:26	224015	6.6.1	4_exp_EVA_AWA_CON	62	B	A	Rpleas_acq	Oppo	Rpleas	1pleas	acq_US_unple_nomask	acq2_nomask	2	6	480	1	300	300	0	0	471	50	0	0	fair	spielen	ehrlich	schlau	treu	schön	faul	strafen	eitel	schroff	tot	schlecht	lachen	freundlich	helfen	retten	tolerant	loyal	leiden	fanatisch	hindern	rächen	tyrannisch	lasch	1	blank2r.bmp	0	1	+	0	1	blank2r.bmp	500	1	GKQX	500	1	blank2r.bmp	880	3	eitel	880	1	FEHLER	1665	1	!	1313	1	!	1373	0	0	0
2024-05-29	15:31:42	15:35:28	226125	6.6.1	4_exp_EVA_AWA_CON	62	B	A	Rpleas_acq	Oppo	Rpleas	1pleas	acq_new_unple_nomask	acq2_nomask	2	7	480	1	300	300	0	0	531	46	1	0	fair	spielen	ehrlich	schlau	treu	schön	faul	strafen	eitel	schroff	tot	schlecht	lachen	freundlich	helfen	retten	tolerant	loyal	leiden	fanatisch	hindern	rächen	tyrannisch	lasch	1	blank2r.bmp	0	1	+	0	1	blank2r.bmp	500	4	B4r.bmp	500	1	blank2r.bmp	880	6	lasch	880	1	!	1313	1	!	1433	0	0	0	0	0	0
2024-05-29	15:31:42	15:35:30	228333	6.6.1	4_exp_EVA_AWA_CON	62	B	A	Rpleas_acq	Oppo	Rpleas	1pleas	acq_new_pleas_nomask	acq2_nomask	2	8	480	1	300	300	0	0	428	50	1	0	fair	spielen	ehrlich	schlau	treu	schön	faul	strafen	eitel	schroff	tot	schlecht	lachen	freundlich	helfen	retten	tolerant	loyal	leiden	fanatisch	hindern	rächen	tyrannisch	lasch	1	blank2r.bmp	0	1	+	0	1	blank2r.bmp	500	1	B1r.bmp	500	1	blank2r.bmp	880	1	lachen	880	1	!	1313	1	!	1329	0	0	0	0	0	0
2024-05-29	15:31:42	15:35:33	230691	6.6.1	4_exp_EVA_AWA_CON	62	B	A	Rpleas_acq	Oppo	Rpleas	1pleas	acq_US_pleas_nomask	acq2_nomask	2	9	480	0	300	300	0	0	576	50	1	0	fair	spielen	ehrlich	schlau	treu	schön	faul	strafen	eitel	schroff	tot	schlecht	lachen	freundlich	helfen	retten	tolerant	loyal	leiden	fanatisch	hindern	rächen	tyrannisch	lasch	1	blank2r.bmp	0	1	+	0	1	blank2r.bmp	500	1	BMVZ	500	1	blank2r.bmp	880	6	schön	880	1	!	1313	1	!	-1	0	0	0	0	0	0
2024-05-29	15:31:42	15:35:35	233070	6.6.1	4_exp_EVA_AWA_CON	62	B	A	Rpleas_acq	Oppo	Rpleas	1pleas	acq_US_pleas_nomask	acq2_nomask	2	10	480	0	300	300	0	0	401	46	0	0	fair	spielen	ehrlich	schlau	treu	schön	faul	strafen	eitel	schroff	tot	schlecht	lachen	freundlich	helfen	retten	tolerant	loyal	leiden	fanatisch	hindern	rächen	tyrannisch	lasch	1	blank2r.bmp	0	1	+	0	1	blank2r.bmp	500	1	BMVZ	500	1	blank2r.bmp	880	4	schlau	880	1	FEHLER	1594	1	!	-1	1	!	-1	0	0	0
2024-05-29	15:31:42	15:35:37	235173	6.6.1	4_exp_EVA_AWA_CON	62	B	A	Rpleas_acq	Oppo	Rpleas	1pleas	acq_new_unple_nomask	acq2_nomask	2	11	480	1	300	300	0	0	523	46	1	0	fair	spielen	ehrlich	schlau	treu	schön	faul	strafen	eitel	schroff	tot	schlecht	lachen	freundlich	helfen	retten	tolerant	loyal	leiden	fanatisch	hindern	rächen	tyrannisch	lasch	1	blank2r.bmp	0	1	+	0	1	blank2r.bmp	500	8	C4r.bmp	500	1	blank2r.bmp	880	1	leiden	880	1	!	1313	1	!	1425	0	0	0	0	0	0
2024-05-29	15:31:42	15:35:40	237709	6.6.1	4_exp_EVA_AWA_CON	62	B	A	Rpleas_acq	Oppo	Rpleas	1pleas	acq_new_pleas_nomask	acq2_nomask	2	12	480	0	300	300	0	0	558	46	0	0	fair	spielen	ehrlich	schlau	treu	schön	faul	strafen	eitel	schroff	tot	schlecht	lachen	freundlich	helfen	retten	tolerant	loyal	leiden	fanatisch	hindern	rächen	tyrannisch	lasch	1	blank2r.bmp	0	1	+	0	1	blank2r.bmp	500	2	B2r.bmp	500	1	blank2r.bmp	880	4	retten	880	1	FEHLER	1750	1	!	1313	1	!	-1	0	0	0
2024-05-29	15:31:42	15:35:42	239983	6.6.1	4_exp_EVA_AWA_CON	62	B	A	Rpleas_acq	Oppo	Rpleas	1pleas	acq_new_unple_nomask	acq2_nomask	2	13	480	1	300	300	0	0	498	50	0	0	fair	spielen	ehrlich	schlau	treu	schön	faul	strafen	eitel	schroff	tot	schlecht	lachen	freundlich	helfen	retten	tolerant	loyal	leiden	fanatisch	hindern	rächen	tyrannisch	lasch	1	blank2r.bmp	0	1	+	0	1	blank2r.bmp	500	2	B2r.bmp	500	1	blank2r.bmp	880	3	hindern	880	1	FEHLER	1692	1	!	1313	1	!	1400	0	0	0
2024-05-29	15:31:42	15:35:44	242166	6.6.1	4_exp_EVA_AWA_CON	62	B	A	Rpleas_acq	Oppo	Rpleas	1pleas	acq_US_unple_nomask	acq2_nomask	2	14	480	0	300	300	0	0	401	50	0	0	fair	spielen	ehrlich	schlau	treu	schön	faul	strafen	eitel	schroff	tot	schlecht	lachen	freundlich	helfen	retten	tolerant	loyal	leiden	fanatisch	hindern	rächen	tyrannisch	lasch	1	blank2r.bmp	0	1	+	0	1	blank2r.bmp	500	1	GKQX	500	1	blank2r.bmp	880	1	faul	880	1	FEHLER	1594	1	!	-1	1	!	-1	0	0	0
2024-05-29	15:31:42	15:35:46	244237	6.6.1	4_exp_EVA_AWA_CON	62	B	A	Rpleas_acq	Oppo	Rpleas	1pleas	acq_US_pleas_nomask	acq2_nomask	2	15	480	1	300	300	0	0	491	50	1	0	fair	spielen	ehrlich	schlau	treu	schön	faul	strafen	eitel	schroff	tot	schlecht	lachen	freundlich	helfen	retten	tolerant	loyal	leiden	fanatisch	hindern	rächen	tyrannisch	lasch	1	blank2r.bmp	0	1	+	0	1	blank2r.bmp	500	1	BMVZ	500	1	blank2r.bmp	880	1	fair	880	1	!	1312	1	!	1393	0	0	0	0	0	0
2024-05-29	15:31:42	15:35:48	246429	6.6.1	4_exp_EVA_AWA_CON	62	B	A	Rpleas_acq	Oppo	Rpleas	1pleas	acq_new_pleas_nomask	acq2_nomask	2	16	480	1	300	300	0	0	414	50	1	0	fair	spielen	ehrlich	schlau	treu	schön	faul	strafen	eitel	schroff	tot	schlecht	lachen	freundlich	helfen	retten	tolerant	loyal	leiden	fanatisch	hindern	rächen	tyrannisch	lasch	1	blank2r.bmp	0	1	+	0	1	blank2r.bmp	500	8	C4r.bmp	500	1	blank2r.bmp	880	2	freundlich	880	1	!	1312	1	!	1313	0	0	0	0	0	0
2024-05-29	15:31:42	15:35:51	248638	6.6.1	4_exp_EVA_AWA_CON	62	B	A	Rpleas_acq	Oppo	Rpleas	1pleas	acq_new_pleas_nomask	acq2_nomask	2	17	480	1	300	300	0	0	428	50	1	0	fair	spielen	ehrlich	schlau	treu	schön	faul	strafen	eitel	schroff	tot	schlecht	lachen	freundlich	helfen	retten	tolerant	loyal	leiden	fanatisch	hindern	rächen	tyrannisch	lasch	1	blank2r.bmp	0	1	+	0	1	blank2r.bmp	500	7	C3r.bmp	500	1	blank2r.bmp	880	4	retten	880	1	!	1313	1	!	1330	0	0	0	0	0	0
2024-05-29	15:31:42	15:35:53	250812	6.6.1	4_exp_EVA_AWA_CON	62	B	A	Rpleas_acq	Oppo	Rpleas	1pleas	acq_new_pleas_nomask	acq2_nomask	2	18	480	0	300	300	0	0	393	50	1	0	fair	spielen	ehrlich	schlau	treu	schön	faul	strafen	eitel	schroff	tot	schlecht	lachen	freundlich	helfen	retten	tolerant	loyal	leiden	fanatisch	hindern	rächen	tyrannisch	lasch	1	blank2r.bmp	0	1	+	0	1	blank2r.bmp	500	6	C2r.bmp	500	1	blank2r.bmp	880	6	loyal	880	1	!	-1	1	!	-1	0	0	0	0	0	0
2024-05-29	15:31:42	15:35:55	253146	6.6.1	4_exp_EVA_AWA_CON	62	B	A	Rpleas_acq	Oppo	Rpleas	1pleas	acq_US_unple_nomask	acq2_nomask	2	19	480	0	300	300	0	0	557	46	1	0	fair	spielen	ehrlich	schlau	treu	schön	faul	strafen	eitel	schroff	tot	schlecht	lachen	freundlich	helfen	retten	tolerant	loyal	leiden	fanatisch	hindern	rächen	tyrannisch	lasch	1	blank2r.bmp	0	1	+	0	1	blank2r.bmp	500	1	GKQX	500	1	blank2r.bmp	880	5	tot	880	1	!	1312	1	!	-1	0	0	0	0	0	0
2024-05-29	15:31:42	15:35:57	255365	6.6.1	4_exp_EVA_AWA_CON	62	B	A	Rpleas_acq	Oppo	Rpleas	1pleas	acq_US_pleas_nomask	acq2_nomask	2	20	480	1	300	300	0	0	442	50	1	0	fair	spielen	ehrlich	schlau	treu	schön	faul	strafen	eitel	schroff	tot	schlecht	lachen	freundlich	helfen	retten	tolerant	loyal	leiden	fanatisch	hindern	rächen	tyrannisch	lasch	1	blank2r.bmp	0	1	+	0	1	blank2r.bmp	500	1	BMVZ	500	1	blank2r.bmp	880	4	schlau	880	1	!	1312	1	!	1343	0	0	0	0	0	0
2024-05-29	15:31:42	15:36:00	257783	6.6.1	4_exp_EVA_AWA_CON	62	B	A	Rpleas_acq	Oppo	Rpleas	1pleas	acq_new_unple_nomask	acq2_nomask	2	21	480	1	300	300	0	0	437	50	0	0	fair	spielen	ehrlich	schlau	treu	schön	faul	strafen	eitel	schroff	tot	schlecht	lachen	freundlich	helfen	retten	tolerant	loyal	leiden	fanatisch	hindern	rächen	tyrannisch	lasch	1	blank2r.bmp	0	1	+	0	1	blank2r.bmp	500	3	B3r.bmp	500	1	blank2r.bmp	880	1	leiden	880	1	FEHLER	1630	1	!	1313	1	!	1338	0	0	0
2024-05-29	15:31:42	15:36:02	259789	6.6.1	4_exp_EVA_AWA_CON	62	B	A	Rpleas_acq	Oppo	Rpleas	1pleas	acq_US_pleas_nomask	acq2_nomask	2	22	480	1	300	300	0	0	433	50	1	0	fair	spielen	ehrlich	schlau	treu	schön	faul	strafen	eitel	schroff	tot	schlecht	lachen	freundlich	helfen	retten	tolerant	loyal	leiden	fanatisch	hindern	rächen	tyrannisch	lasch	1	blank2r.bmp	0	1	+	0	1	blank2r.bmp	500	1	BMVZ	500	1	blank2r.bmp	880	2	spielen	880	1	!	1313	1	!	1335	0	0	0	0	0	0
2024-05-29	15:31:42	15:36:04	261956	6.6.1	4_exp_EVA_AWA_CON	62	B	A	Rpleas_acq	Oppo	Rpleas	1pleas	acq_US_unple_nomask	acq2_nomask	2	23	480	0	300	300	0	0	390	46	1	0	fair	spielen	ehrlich	schlau	treu	schön	faul	strafen	eitel	schroff	tot	schlecht	lachen	freundlich	helfen	retten	tolerant	loyal	leiden	fanatisch	hindern	rächen	tyrannisch	lasch	1	blank2r.bmp	0	1	+	0	1	blank2r.bmp	500	1	GKQX	500	1	blank2r.bmp	880	6	schlecht	880	1	!	-1	1	!	-1	0	0	0	0	0	0
2024-05-29	15:31:42	15:36:06	264148	6.6.1	4_exp_EVA_AWA_CON	62	B	A	Rpleas_acq	Oppo	Rpleas	1pleas	acq_new_unple_nomask	acq2_nomask	2	24	480	0	300	300	0	0	410	46	1	0	fair	spielen	ehrlich	schlau	treu	schön	faul	strafen	eitel	schroff	tot	schlecht	lachen	freundlich	helfen	retten	tolerant	loyal	leiden	fanatisch	hindern	rächen	tyrannisch	lasch	1	blank2r.bmp	0	1	+	0	1	blank2r.bmp	500	4	B4r.bmp	500	1	blank2r.bmp	880	6	lasch	880	1	!	-1	1	!	-1	0	0	0	0	0	0
2024-05-29	15:31:42	15:36:08	266477	6.6.1	4_exp_EVA_AWA_CON	62	B	A	Rpleas_acq	Oppo	Rpleas	1pleas	acq_new_pleas_nomask	acq2_nomask	2	25	480	1	300	300	0	0	547	50	1	0	fair	spielen	ehrlich	schlau	treu	schön	faul	strafen	eitel	schroff	tot	schlecht	lachen	freundlich	helfen	retten	tolerant	loyal	leiden	fanatisch	hindern	rächen	tyrannisch	lasch	1	blank2r.bmp	0	1	+	0	1	blank2r.bmp	500	1	B1r.bmp	500	1	blank2r.bmp	880	3	helfen	880	1	!	1313	1	!	1448	0	0	0	0	0	0
2024-05-29	15:31:42	15:36:11	268765	6.6.1	4_exp_EVA_AWA_CON	62	B	A	Rpleas_acq	Oppo	Rpleas	1pleas	acq_US_pleas_nomask	acq2_nomask	2	26	480	1	300	300	0	0	513	50	1	0	fair	spielen	ehrlich	schlau	treu	schön	faul	strafen	eitel	schroff	tot	schlecht	lachen	freundlich	helfen	retten	tolerant	loyal	leiden	fanatisch	hindern	rächen	tyrannisch	lasch	1	blank2r.bmp	0	1	+	0	1	blank2r.bmp	500	1	BMVZ	500	1	blank2r.bmp	880	3	ehrlich	880	1	!	1313	1	!	1415	0	0	0	0	0	0
2024-05-29	15:31:42	15:36:13	271195	6.6.1	4_exp_EVA_AWA_CON	62	B	A	Rpleas_acq	Oppo	Rpleas	1pleas	acq_new_pleas_nomask	acq2_nomask	2	27	480	0	300	300	0	0	654	50	1	0	fair	spielen	ehrlich	schlau	treu	schön	faul	strafen	eitel	schroff	tot	schlecht	lachen	freundlich	helfen	retten	tolerant	loyal	leiden	fanatisch	hindern	rächen	tyrannisch	lasch	1	blank2r.bmp	0	1	+	0	1	blank2r.bmp	500	5	C1r.bmp	500	1	blank2r.bmp	880	1	lachen	880	1	!	1312	1	!	-1	0	0	0	0	0	0
2024-05-29	15:31:42	15:36:15	273517	6.6.1	4_exp_EVA_AWA_CON	62	B	A	Rpleas_acq	Oppo	Rpleas	1pleas	acq_new_pleas_nomask	acq2_nomask	2	28	480	1	300	300	0	0	542	50	1	0	fair	spielen	ehrlich	schlau	treu	schön	faul	strafen	eitel	schroff	tot	schlecht	lachen	freundlich	helfen	retten	tolerant	loyal	leiden	fanatisch	hindern	rächen	tyrannisch	lasch	1	blank2r.bmp	0	1	+	0	1	blank2r.bmp	500	8	C4r.bmp	500	1	blank2r.bmp	880	5	tolerant	880	1	!	1312	1	!	1444	0	0	0	0	0	0
2024-05-29	15:31:42	15:36:18	275733	6.6.1	4_exp_EVA_AWA_CON	62	B	A	Rpleas_acq	Oppo	Rpleas	1pleas	acq_US_unple_nomask	acq2_nomask	2	29	480	1	300	300	0	0	437	46	1	0	fair	spielen	ehrlich	schlau	treu	schön	faul	strafen	eitel	schroff	tot	schlecht	lachen	freundlich	helfen	retten	tolerant	loyal	leiden	fanatisch	hindern	rächen	tyrannisch	lasch	1	blank2r.bmp	0	1	+	0	1	blank2r.bmp	500	1	GKQX	500	1	blank2r.bmp	880	4	schroff	880	1	!	1312	1	!	1338	0	0	0	0	0	0
2024-05-29	15:31:42	15:36:20	278102	6.6.1	4_exp_EVA_AWA_CON	62	B	A	Rpleas_acq	Oppo	Rpleas	1pleas	acq_US_unple_nomask	acq2_nomask	2	30	480	0	300	300	0	0	393	50	0	0	fair	spielen	ehrlich	schlau	treu	schön	faul	strafen	eitel	schroff	tot	schlecht	lachen	freundlich	helfen	retten	tolerant	loyal	leiden	fanatisch	hindern	rächen	tyrannisch	lasch	1	blank2r.bmp	0	1	+	0	1	blank2r.bmp	500	1	GKQX	500	1	blank2r.bmp	880	2	strafen	880	1	FEHLER	1587	1	!	-1	1	!	-1	0	0	0
2024-05-29	15:31:42	15:36:22	280542	6.6.1	4_exp_EVA_AWA_CON	62	B	A	Rpleas_acq	Oppo	Rpleas	1pleas	acq_US_unple_nomask	acq2_nomask	2	31	480	0	300	300	0	0	662	50	0	0	fair	spielen	ehrlich	schlau	treu	schön	faul	strafen	eitel	schroff	tot	schlecht	lachen	freundlich	helfen	retten	tolerant	loyal	leiden	fanatisch	hindern	rächen	tyrannisch	lasch	1	blank2r.bmp	0	1	+	0	1	blank2r.bmp	500	1	GKQX	500	1	blank2r.bmp	880	3	eitel	880	1	FEHLER	1855	1	!	1312	1	!	-1	0	0	0
2024-05-29	15:31:42	15:36:25	282621	6.6.1	4_exp_EVA_AWA_CON	62	B	A	Rpleas_acq	Oppo	Rpleas	1pleas	acq_US_pleas_nomask	acq2_nomask	2	32	480	1	300	300	0	0	500	50	1	0	fair	spielen	ehrlich	schlau	treu	schön	faul	strafen	eitel	schroff	tot	schlecht	lachen	freundlich	helfen	retten	tolerant	loyal	leiden	fanatisch	hindern	rächen	tyrannisch	lasch	1	blank2r.bmp	0	1	+	0	1	blank2r.bmp	500	1	BMVZ	500	1	blank2r.bmp	880	5	treu	880	1	!	1313	1	!	1402	0	0	0	0	0	0
2024-05-29	15:31:42	15:36:27	284845	6.6.1	4_exp_EVA_AWA_CON	62	B	A	Rpleas_acq	Oppo	Rpleas	1pleas	acq_new_unple_nomask	acq2_nomask	2	33	480	1	300	300	0	0	443	46	1	0	fair	spielen	ehrlich	schlau	treu	schön	faul	strafen	eitel	schroff	tot	schlecht	lachen	freundlich	helfen	retten	tolerant	loyal	leiden	fanatisch	hindern	rächen	tyrannisch	lasch	1	blank2r.bmp	0	1	+	0	1	blank2r.bmp	500	5	C1r.bmp	500	1	blank2r.bmp	880	2	fanatisch	880	1	!	1312	1	!	1344	0	0	0	0	0	0
2024-05-29	15:31:42	15:36:29	287287	6.6.1	4_exp_EVA_AWA_CON	62	B	A	Rpleas_acq	Oppo	Rpleas	1pleas	acq_US_pleas_nomask	acq2_nomask	2	34	480	1	300	300	0	0	461	46	0	0	fair	spielen	ehrlich	schlau	treu	schön	faul	strafen	eitel	schroff	tot	schlecht	lachen	freundlich	helfen	retten	tolerant	loyal	leiden	fanatisch	hindern	rächen	tyrannisch	lasch	1	blank2r.bmp	0	1	+	0	1	blank2r.bmp	500	1	BMVZ	500	1	blank2r.bmp	880	6	schön	880	1	FEHLER	1655	1	!	1313	1	!	1363	0	0	0
2024-05-29	15:31:42	15:36:31	289507	6.6.1	4_exp_EVA_AWA_CON	62	B	A	Rpleas_acq	Oppo	Rpleas	1pleas	acq_new_unple_nomask	acq2_nomask	2	35	480	0	300	300	0	0	644	46	1	0	fair	spielen	ehrlich	schlau	treu	schön	faul	strafen	eitel	schroff	tot	schlecht	lachen	freundlich	helfen	retten	tolerant	loyal	leiden	fanatisch	hindern	rächen	tyrannisch	lasch	1	blank2r.bmp	0	1	+	0	1	blank2r.bmp	500	6	C2r.bmp	500	1	blank2r.bmp	880	4	rächen	880	1	!	1313	1	!	-1	0	0	0	0	0	0
2024-05-29	15:31:42	15:36:34	291916	6.6.1	4_exp_EVA_AWA_CON	62	B	A	Rpleas_acq	Oppo	Rpleas	1pleas	acq_new_unple_nomask	acq2_nomask	2	36	480	0	300	300	0	0	630	46	1	0	fair	spielen	ehrlich	schlau	treu	schön	faul	strafen	eitel	schroff	tot	schlecht	lachen	freundlich	helfen	retten	tolerant	loyal	leiden	fanatisch	hindern	rächen	tyrannisch	lasch	1	blank2r.bmp	0	1	+	0	1	blank2r.bmp	500	2	B2r.bmp	500	1	blank2r.bmp	880	5	tyrannisch	880	1	!	1313	1	!	-1	0	0	0	0	0	0
2024-05-29	15:31:42	15:36:54	312171	6.6.1	4_exp_EVA_AWA_CON	62	B	A	Rpleas_acq	Oppo	Rpleas	1pleas	acq_US_unple_nomask	acq3_nomask	3	1	453	0	300	300	0	0	543	46	1	0	fair	spielen	ehrlich	schlau	treu	schön	faul	strafen	eitel	schroff	tot	schlecht	lachen	freundlich	helfen	retten	tolerant	loyal	leiden	fanatisch	hindern	rächen	tyrannisch	lasch	1	blank2r.bmp	0	1	+	0	1	blank2r.bmp	500	1	GKQX	500	1	blank2r.bmp	880	3	eitel	880	1	!	1292	1	!	-1	0	0	0	0	0	0
2024-05-29	15:31:42	15:36:56	314500	6.6.1	4_exp_EVA_AWA_CON	62	B	A	Rpleas_acq	Oppo	Rpleas	1pleas	acq_US_pleas_nomask	acq3_nomask	3	2	453	0	300	300	0	0	549	50	1	0	fair	spielen	ehrlich	schlau	treu	schön	faul	strafen	eitel	schroff	tot	schlecht	lachen	freundlich	helfen	retten	tolerant	loyal	leiden	fanatisch	hindern	rächen	tyrannisch	lasch	1	blank2r.bmp	0	1	+	0	1	blank2r.bmp	500	1	BMVZ	500	1	blank2r.bmp	880	6	schön	880	1	!	1292	1	!	-1	0	0	0	0	0	0
2024-05-29	15:31:42	15:36:59	316875	6.6.1	4_exp_EVA_AWA_CON	62	B	A	Rpleas_acq	Oppo	Rpleas	1pleas	acq_US_unple_nomask	acq3_nomask	3	3	453	0	300	300	0	0	594	46	1	0	fair	spielen	ehrlich	schlau	treu	schön	faul	strafen	eitel	schroff	tot	schlecht	lachen	freundlich	helfen	retten	tolerant	loyal	leiden	fanatisch	hindern	rächen	tyrannisch	lasch	1	blank2r.bmp	0	1	+	0	1	blank2r.bmp	500	1	GKQX	500	1	blank2r.bmp	880	6	schlecht	880	1	!	1292	1	!	-1	0	0	0	0	0	0
2024-05-29	15:31:42	15:37:01	319044	6.6.1	4_exp_EVA_AWA_CON	62	B	A	Rpleas_acq	Oppo	Rpleas	1pleas	acq_US_pleas_nomask	acq3_nomask	3	4	453	0	300	300	0	0	390	50	1	0	fair	spielen	ehrlich	schlau	treu	schön	faul	strafen	eitel	schroff	tot	schlecht	lachen	freundlich	helfen	retten	tolerant	loyal	leiden	fanatisch	hindern	rächen	tyrannisch	lasch	1	blank2r.bmp	0	1	+	0	1	blank2r.bmp	500	1	BMVZ	500	1	blank2r.bmp	880	3	ehrlich	880	1	!	-1	1	!	-1	0	0	0	0	0	0
2024-05-29	15:31:42	15:37:03	321467	6.6.1	4_exp_EVA_AWA_CON	62	B	A	Rpleas_acq	Oppo	Rpleas	1pleas	acq_US_pleas_nomask	acq3_nomask	3	5	453	0	300	300	0	0	643	50	1	0	fair	spielen	ehrlich	schlau	treu	schön	faul	strafen	eitel	schroff	tot	schlecht	lachen	freundlich	helfen	retten	tolerant	loyal	leiden	fanatisch	hindern	rächen	tyrannisch	lasch	1	blank2r.bmp	0	1	+	0	1	blank2r.bmp	500	1	BMVZ	500	1	blank2r.bmp	880	5	treu	880	1	!	1293	1	!	-1	0	0	0	0	0	0
2024-05-29	15:31:42	15:37:06	323836	6.6.1	4_exp_EVA_AWA_CON	62	B	A	Rpleas_acq	Oppo	Rpleas	1pleas	acq_US_unple_nomask	acq3_nomask	3	6	453	0	300	300	0	0	589	46	1	0	fair	spielen	ehrlich	schlau	treu	schön	faul	strafen	eitel	schroff	tot	schlecht	lachen	freundlich	helfen	retten	tolerant	loyal	leiden	fanatisch	hindern	rächen	tyrannisch	lasch	1	blank2r.bmp	0	1	+	0	1	blank2r.bmp	500	1	GKQX	500	1	blank2r.bmp	880	2	strafen	880	1	!	1292	1	!	-1	0	0	0	0	0	0
2024-05-29	15:31:42	15:37:08	326371	6.6.1	4_exp_EVA_AWA_CON	62	B	A	Rpleas_acq	Oppo	Rpleas	1pleas	acq_US_unple_nomask	acq3_nomask	3	7	453	0	300	300	0	0	754	46	1	0	fair	spielen	ehrlich	schlau	treu	schön	faul	strafen	eitel	schroff	tot	schlecht	lachen	freundlich	helfen	retten	tolerant	loyal	leiden	fanatisch	hindern	rächen	tyrannisch	lasch	1	blank2r.bmp	0	1	+	0	1	blank2r.bmp	500	1	GKQX	500	1	blank2r.bmp	880	1	faul	880	1	!	1293	1	!	-1	0	0	0	0	0	0
2024-05-29	15:31:42	15:37:11	328723	6.6.1	4_exp_EVA_AWA_CON	62	B	A	Rpleas_acq	Oppo	Rpleas	1pleas	acq_US_pleas_nomask	acq3_nomask	3	8	453	0	300	300	0	0	574	50	1	0	fair	spielen	ehrlich	schlau	treu	schön	faul	strafen	eitel	schroff	tot	schlecht	lachen	freundlich	helfen	retten	tolerant	loyal	leiden	fanatisch	hindern	rächen	tyrannisch	lasch	1	blank2r.bmp	0	1	+	0	1	blank2r.bmp	500	1	BMVZ	500	1	blank2r.bmp	880	1	fair	880	1	!	1292	1	!	-1	0	0	0	0	0	0
2024-05-29	15:31:42	15:37:13	330811	6.6.1	4_exp_EVA_AWA_CON	62	B	A	Rpleas_acq	Oppo	Rpleas	1pleas	acq_US_unple_nomask	acq3_nomask	3	9	453	0	300	300	0	0	311	46	1	0	fair	spielen	ehrlich	schlau	treu	schön	faul	strafen	eitel	schroff	tot	schlecht	lachen	freundlich	helfen	retten	tolerant	loyal	leiden	fanatisch	hindern	rächen	tyrannisch	lasch	1	blank2r.bmp	0	1	+	0	1	blank2r.bmp	500	1	GKQX	500	1	blank2r.bmp	880	4	schroff	880	1	!	-1	1	!	-1	0	0	0	0	0	0
2024-05-29	15:31:42	15:37:15	332979	6.6.1	4_exp_EVA_AWA_CON	62	B	A	Rpleas_acq	Oppo	Rpleas	1pleas	acq_US_unple_nomask	acq3_nomask	3	10	453	0	300	300	0	0	387	46	1	0	fair	spielen	ehrlich	schlau	treu	schön	faul	strafen	eitel	schroff	tot	schlecht	lachen	freundlich	helfen	retten	tolerant	loyal	leiden	fanatisch	hindern	rächen	tyrannisch	lasch	1	blank2r.bmp	0	1	+	0	1	blank2r.bmp	500	1	GKQX	500	1	blank2r.bmp	880	5	tot	880	1	!	-1	1	!	-1	0	0	0	0	0	0
2024-05-29	15:31:42	15:37:17	335291	6.6.1	4_exp_EVA_AWA_CON	62	B	A	Rpleas_acq	Oppo	Rpleas	1pleas	acq_US_pleas_nomask	acq3_nomask	3	11	453	0	300	300	0	0	538	50	1	0	fair	spielen	ehrlich	schlau	treu	schön	faul	strafen	eitel	schroff	tot	schlecht	lachen	freundlich	helfen	retten	tolerant	loyal	leiden	fanatisch	hindern	rächen	tyrannisch	lasch	1	blank2r.bmp	0	1	+	0	1	blank2r.bmp	500	1	BMVZ	500	1	blank2r.bmp	880	4	schlau	880	1	!	1292	1	!	-1	0	0	0	0	0	0
2024-05-29	15:31:42	15:37:20	337651	6.6.1	4_exp_EVA_AWA_CON	62	B	A	Rpleas_acq	Oppo	Rpleas	1pleas	acq_US_pleas_nomask	acq3_nomask	3	12	453	0	300	300	0	0	586	50	1	0	fair	spielen	ehrlich	schlau	treu	schön	faul	strafen	eitel	schroff	tot	schlecht	lachen	freundlich	helfen	retten	tolerant	loyal	leiden	fanatisch	hindern	rächen	tyrannisch	lasch	1	blank2r.bmp	0	1	+	0	1	blank2r.bmp	500	1	BMVZ	500	1	blank2r.bmp	880	2	spielen	880	1	!	1292	1	!	-1	0	0	0	0	0	0
2024-05-29	15:31:42	15:37:22	339999	6.6.1	4_exp_EVA_AWA_CON	62	B	A	Rpleas_acq	Oppo	Rpleas	1pleas	acq_US_pleas_nomask	acq3_nomask	3	13	453	0	300	300	0	0	369	46	0	0	fair	spielen	ehrlich	schlau	treu	schön	faul	strafen	eitel	schroff	tot	schlecht	lachen	freundlich	helfen	retten	tolerant	loyal	leiden	fanatisch	hindern	rächen	tyrannisch	lasch	1	blank2r.bmp	0	1	+	0	1	blank2r.bmp	500	1	BMVZ	500	1	blank2r.bmp	880	3	ehrlich	880	1	FEHLER	1563	1	!	-1	1	!	-1	0	0	0
2024-05-29	15:31:42	15:37:24	342203	6.6.1	4_exp_EVA_AWA_CON	62	B	A	Rpleas_acq	Oppo	Rpleas	1pleas	acq_US_pleas_nomask	acq3_nomask	3	14	453	0	300	300	0	0	636	50	1	0	fair	spielen	ehrlich	schlau	treu	schön	faul	strafen	eitel	schroff	tot	schlecht	lachen	freundlich	helfen	retten	tolerant	loyal	leiden	fanatisch	hindern	rächen	tyrannisch	lasch	1	blank2r.bmp	0	1	+	0	1	blank2r.bmp	500	1	BMVZ	500	1	blank2r.bmp	880	2	spielen	880	1	!	1292	1	!	-1	0	0	0	0	0	0
2024-05-29	15:31:42	15:37:26	344477	6.6.1	4_exp_EVA_AWA_CON	62	B	A	Rpleas_acq	Oppo	Rpleas	1pleas	acq_US_pleas_nomask	acq3_nomask	3	15	453	1	300	300	0	0	496	50	1	0	fair	spielen	ehrlich	schlau	treu	schön	faul	strafen	eitel	schroff	tot	schlecht	lachen	freundlich	helfen	retten	tolerant	loyal	leiden	fanatisch	hindern	rächen	tyrannisch	lasch	1	blank2r.bmp	0	1	+	0	1	blank2r.bmp	500	1	BMVZ	500	1	blank2r.bmp	880	4	schlau	880	1	!	1292	1	!	1397	0	0	0	0	0	0
2024-05-29	15:31:42	15:37:29	346757	6.6.1	4_exp_EVA_AWA_CON	62	B	A	Rpleas_acq	Oppo	Rpleas	1pleas	acq_US_pleas_nomask	acq3_nomask	3	16	453	1	300	300	0	0	504	50	1	0	fair	spielen	ehrlich	schlau	treu	schön	faul	strafen	eitel	schroff	tot	schlecht	lachen	freundlich	helfen	retten	tolerant	loyal	leiden	fanatisch	hindern	rächen	tyrannisch	lasch	1	blank2r.bmp	0	1	+	0	1	blank2r.bmp	500	1	BMVZ	500	1	blank2r.bmp	880	5	treu	880	1	!	1292	1	!	1406	0	0	0	0	0	0
2024-05-29	15:31:42	15:37:31	349099	6.6.1	4_exp_EVA_AWA_CON	62	B	A	Rpleas_acq	Oppo	Rpleas	1pleas	acq_US_pleas_nomask	acq3_nomask	3	17	453	0	300	300	0	0	567	50	1	0	fair	spielen	ehrlich	schlau	treu	schön	faul	strafen	eitel	schroff	tot	schlecht	lachen	freundlich	helfen	retten	tolerant	loyal	leiden	fanatisch	hindern	rächen	tyrannisch	lasch	1	blank2r.bmp	0	1	+	0	1	blank2r.bmp	500	1	BMVZ	500	1	blank2r.bmp	880	1	fair	880	1	!	1293	1	!	-1	0	0	0	0	0	0
2024-05-29	15:31:42	15:37:33	351235	6.6.1	4_exp_EVA_AWA_CON	62	B	A	Rpleas_acq	Oppo	Rpleas	1pleas	acq_US_unple_nomask	acq3_nomask	3	18	453	0	300	300	0	0	361	46	1	0	fair	spielen	ehrlich	schlau	treu	schön	faul	strafen	eitel	schroff	tot	schlecht	lachen	freundlich	helfen	retten	tolerant	loyal	leiden	fanatisch	hindern	rächen	tyrannisch	lasch	1	blank2r.bmp	0	1	+	0	1	blank2r.bmp	500	1	GKQX	500	1	blank2r.bmp	880	6	schlecht	880	1	!	-1	1	!	-1	0	0	0	0	0	0
2024-05-29	15:31:42	15:37:36	353782	6.6.1	4_exp_EVA_AWA_CON	62	B	A	Rpleas_acq	Oppo	Rpleas	1pleas	acq_US_unple_nomask	acq3_nomask	3	19	453	0	300	300	0	0	564	50	0	0	fair	spielen	ehrlich	schlau	treu	schön	faul	strafen	eitel	schroff	tot	schlecht	lachen	freundlich	helfen	retten	tolerant	loyal	leiden	fanatisch	hindern	rächen	tyrannisch	lasch	1	blank2r.bmp	0	1	+	0	1	blank2r.bmp	500	1	GKQX	500	1	blank2r.bmp	880	1	faul	880	1	FEHLER	1757	1	!	1292	1	!	-1	0	0	0
2024-05-29	15:31:42	15:37:38	355882	6.6.1	4_exp_EVA_AWA_CON	62	B	A	Rpleas_acq	Oppo	Rpleas	1pleas	acq_US_unple_nomask	acq3_nomask	3	20	453	0	300	300	0	0	527	46	1	0	fair	spielen	ehrlich	schlau	treu	schön	faul	strafen	eitel	schroff	tot	schlecht	lachen	freundlich	helfen	retten	tolerant	loyal	leiden	fanatisch	hindern	rächen	tyrannisch	lasch	1	blank2r.bmp	0	1	+	0	1	blank2r.bmp	500	1	GKQX	500	1	blank2r.bmp	880	4	schroff	880	1	!	1292	1	!	-1	0	0	0	0	0	0
2024-05-29	15:31:42	15:37:40	358195	6.6.1	4_exp_EVA_AWA_CON	62	B	A	Rpleas_acq	Oppo	Rpleas	1pleas	acq_US_pleas_nomask	acq3_nomask	3	21	453	0	300	300	0	0	537	50	1	0	fair	spielen	ehrlich	schlau	treu	schön	faul	strafen	eitel	schroff	tot	schlecht	lachen	freundlich	helfen	retten	tolerant	loyal	leiden	fanatisch	hindern	rächen	tyrannisch	lasch	1	blank2r.bmp	0	1	+	0	1	blank2r.bmp	500	1	BMVZ	500	1	blank2r.bmp	880	6	schön	880	1	!	1293	1	!	-1	0	0	0	0	0	0
2024-05-29	15:31:42	15:37:42	360331	6.6.1	4_exp_EVA_AWA_CON	62	B	A	Rpleas_acq	Oppo	Rpleas	1pleas	acq_US_unple_nomask	acq3_nomask	3	22	453	0	300	300	0	0	362	46	1	0	fair	spielen	ehrlich	schlau	treu	schön	faul	strafen	eitel	schroff	tot	schlecht	lachen	freundlich	helfen	retten	tolerant	loyal	leiden	fanatisch	hindern	rächen	tyrannisch	lasch	1	blank2r.bmp	0	1	+	0	1	blank2r.bmp	500	1	GKQX	500	1	blank2r.bmp	880	5	tot	880	1	!	-1	1	!	-1	0	0	0	0	0	0
2024-05-29	15:31:42	15:37:45	362652	6.6.1	4_exp_EVA_AWA_CON	62	B	A	Rpleas_acq	Oppo	Rpleas	1pleas	acq_US_unple_nomask	acq3_nomask	3	23	453	0	300	300	0	0	540	46	1	0	fair	spielen	ehrlich	schlau	treu	schön	faul	strafen	eitel	schroff	tot	schlecht	lachen	freundlich	helfen	retten	tolerant	loyal	leiden	fanatisch	hindern	rächen	tyrannisch	lasch	1	blank2r.bmp	0	1	+	0	1	blank2r.bmp	500	1	GKQX	500	1	blank2r.bmp	880	2	strafen	880	1	!	1293	1	!	-1	0	0	0	0	0	0
2024-05-29	15:31:42	15:37:47	364893	6.6.1	4_exp_EVA_AWA_CON	62	B	A	Rpleas_acq	Oppo	Rpleas	1pleas	acq_US_unple_nomask	acq3_nomask	3	24	453	1	300	300	0	0	459	46	1	0	fair	spielen	ehrlich	schlau	treu	schön	faul	strafen	eitel	schroff	tot	schlecht	lachen	freundlich	helfen	retten	tolerant	loyal	leiden	fanatisch	hindern	rächen	tyrannisch	lasch	1	blank2r.bmp	0	1	+	0	1	blank2r.bmp	500	1	GKQX	500	1	blank2r.bmp	880	3	eitel	880	1	!	1293	1	!	1360	0	0	0	0	0	0
2024-05-29	15:31:42	15:37:49	367277	6.6.1	4_exp_EVA_AWA_CON	62	B	A	Rpleas_acq	Oppo	Rpleas	1pleas	acq_US_pleas_nomask	acq3_nomask	3	25	453	1	300	300	0	0	401	46	0	0	fair	spielen	ehrlich	schlau	treu	schön	faul	strafen	eitel	schroff	tot	schlecht	lachen	freundlich	helfen	retten	tolerant	loyal	leiden	fanatisch	hindern	rächen	tyrannisch	lasch	1	blank2r.bmp	0	1	+	0	1	blank2r.bmp	500	1	BMVZ	500	1	blank2r.bmp	880	1	fair	880	1	FEHLER	1593	1	!	1292	1	!	1301	0	0	0
2024-05-29	15:31:42	15:37:51	369507	6.6.1	4_exp_EVA_AWA_CON	62	B	A	Rpleas_acq	Oppo	Rpleas	1pleas	acq_US_unple_nomask	acq3_nomask	3	26	453	0	300	300	0	0	652	46	1	0	fair	spielen	ehrlich	schlau	treu	schön	faul	strafen	eitel	schroff	tot	schlecht	lachen	freundlich	helfen	retten	tolerant	loyal	leiden	fanatisch	hindern	rächen	tyrannisch	lasch	1	blank2r.bmp	0	1	+	0	1	blank2r.bmp	500	1	GKQX	500	1	blank2r.bmp	880	5	tot	880	1	!	1293	1	!	-1	0	0	0	0	0	0
2024-05-29	15:31:42	15:37:54	371693	6.6.1	4_exp_EVA_AWA_CON	62	B	A	Rpleas_acq	Oppo	Rpleas	1pleas	acq_US_pleas_nomask	acq3_nomask	3	27	453	1	300	300	0	0	404	50	1	0	fair	spielen	ehrlich	schlau	treu	schön	faul	strafen	eitel	schroff	tot	schlecht	lachen	freundlich	helfen	retten	tolerant	loyal	leiden	fanatisch	hindern	rächen	tyrannisch	lasch	1	blank2r.bmp	0	1	+	0	1	blank2r.bmp	500	1	BMVZ	500	1	blank2r.bmp	880	3	ehrlich	880	1	!	1293	1	!	1306	0	0	0	0	0	0
2024-05-29	15:31:42	15:37:56	373991	6.6.1	4_exp_EVA_AWA_CON	62	B	A	Rpleas_acq	Oppo	Rpleas	1pleas	acq_US_unple_nomask	acq3_nomask	3	28	453	0	300	300	0	0	319	50	0	0	fair	spielen	ehrlich	schlau	treu	schön	faul	strafen	eitel	schroff	tot	schlecht	lachen	freundlich	helfen	retten	tolerant	loyal	leiden	fanatisch	hindern	rächen	tyrannisch	lasch	1	blank2r.bmp	0	1	+	0	1	blank2r.bmp	500	1	GKQX	500	1	blank2r.bmp	880	2	strafen	880	1	FEHLER	1513	1	!	-1	1	!	-1	0	0	0
2024-05-29	15:31:42	15:37:58	376271	6.6.1	4_exp_EVA_AWA_CON	62	B	A	Rpleas_acq	Oppo	Rpleas	1pleas	acq_US_pleas_nomask	acq3_nomask	3	29	453	1	300	300	0	0	507	46	0	0	fair	spielen	ehrlich	schlau	treu	schön	faul	strafen	eitel	schroff	tot	schlecht	lachen	freundlich	helfen	retten	tolerant	loyal	leiden	fanatisch	hindern	rächen	tyrannisch	lasch	1	blank2r.bmp	0	1	+	0	1	blank2r.bmp	500	1	BMVZ	500	1	blank2r.bmp	880	4	schlau	880	1	FEHLER	1701	1	!	1293	1	!	1409	0	0	0
2024-05-29	15:31:42	15:38:01	378710	6.6.1	4_exp_EVA_AWA_CON	62	B	A	Rpleas_acq	Oppo	Rpleas	1pleas	acq_US_pleas_nomask	acq3_nomask	3	30	453	0	300	300	0	0	666	46	0	0	fair	spielen	ehrlich	schlau	treu	schön	faul	strafen	eitel	schroff	tot	schlecht	lachen	freundlich	helfen	retten	tolerant	loyal	leiden	fanatisch	hindern	rächen	tyrannisch	lasch	1	blank2r.bmp	0	1	+	0	1	blank2r.bmp	500	1	BMVZ	500	1	blank2r.bmp	880	5	treu	880	1	FEHLER	1859	1	!	1293	1	!	-1	0	0	0
2024-05-29	15:31:42	15:38:03	380907	6.6.1	4_exp_EVA_AWA_CON	62	B	A	Rpleas_acq	Oppo	Rpleas	1pleas	acq_US_unple_nomask	acq3_nomask	3	31	453	0	300	300	0	0	624	46	1	0	fair	spielen	ehrlich	schlau	treu	schön	faul	strafen	eitel	schroff	tot	schlecht	lachen	freundlich	helfen	retten	tolerant	loyal	leiden	fanatisch	hindern	rächen	tyrannisch	lasch	1	blank2r.bmp	0	1	+	0	1	blank2r.bmp	500	1	GKQX	500	1	blank2r.bmp	880	4	schroff	880	1	!	1292	1	!	-1	0	0	0	0	0	0
2024-05-29	15:31:42	15:38:05	383133	6.6.1	4_exp_EVA_AWA_CON	62	B	A	Rpleas_acq	Oppo	Rpleas	1pleas	acq_US_pleas_nomask	acq3_nomask	3	32	453	1	300	300	0	0	447	50	1	0	fair	spielen	ehrlich	schlau	treu	schön	faul	strafen	eitel	schroff	tot	schlecht	lachen	freundlich	helfen	retten	tolerant	loyal	leiden	fanatisch	hindern	rächen	tyrannisch	lasch	1	blank2r.bmp	0	1	+	0	1	blank2r.bmp	500	1	BMVZ	500	1	blank2r.bmp	880	6	schön	880	1	!	1292	1	!	1348	0	0	0	0	0	0
2024-05-29	15:31:42	15:38:07	385283	6.6.1	4_exp_EVA_AWA_CON	62	B	A	Rpleas_acq	Oppo	Rpleas	1pleas	acq_US_unple_nomask	acq3_nomask	3	33	453	0	300	300	0	0	377	46	1	0	fair	spielen	ehrlich	schlau	treu	schön	faul	strafen	eitel	schroff	tot	schlecht	lachen	freundlich	helfen	retten	tolerant	loyal	leiden	fanatisch	hindern	rächen	tyrannisch	lasch	1	blank2r.bmp	0	1	+	0	1	blank2r.bmp	500	1	GKQX	500	1	blank2r.bmp	880	6	schlecht	880	1	!	-1	1	!	-1	0	0	0	0	0	0
2024-05-29	15:31:42	15:38:10	387651	6.6.1	4_exp_EVA_AWA_CON	62	B	A	Rpleas_acq	Oppo	Rpleas	1pleas	acq_US_unple_nomask	acq3_nomask	3	34	453	0	300	300	0	0	594	46	1	0	fair	spielen	ehrlich	schlau	treu	schön	faul	strafen	eitel	schroff	tot	schlecht	lachen	freundlich	helfen	retten	tolerant	loyal	leiden	fanatisch	hindern	rächen	tyrannisch	lasch	1	blank2r.bmp	0	1	+	0	1	blank2r.bmp	500	1	GKQX	500	1	blank2r.bmp	880	1	faul	880	1	!	1293	1	!	-1	0	0	0	0	0	0
2024-05-29	15:31:42	15:38:12	390087	6.6.1	4_exp_EVA_AWA_CON	62	B	A	Rpleas_acq	Oppo	Rpleas	1pleas	acq_US_unple_nomask	acq3_nomask	3	35	453	1	300	300	0	0	454	50	0	0	fair	spielen	ehrlich	schlau	treu	schön	faul	strafen	eitel	schroff	tot	schlecht	lachen	freundlich	helfen	retten	tolerant	loyal	leiden	fanatisch	hindern	rächen	tyrannisch	lasch	1	blank2r.bmp	0	1	+	0	1	blank2r.bmp	500	1	GKQX	500	1	blank2r.bmp	880	3	eitel	880	1	FEHLER	1648	1	!	1293	1	!	1356	0	0	0
2024-05-29	15:31:42	15:38:14	392077	6.6.1	4_exp_EVA_AWA_CON	62	B	A	Rpleas_acq	Oppo	Rpleas	1pleas	acq_US_pleas_nomask	acq3_nomask	3	36	453	1	300	300	0	0	415	50	1	0	fair	spielen	ehrlich	schlau	treu	schön	faul	strafen	eitel	schroff	tot	schlecht	lachen	freundlich	helfen	retten	tolerant	loyal	leiden	fanatisch	hindern	rächen	tyrannisch	lasch	1	blank2r.bmp	0	1	+	0	1	blank2r.bmp	500	1	BMVZ	500	1	blank2r.bmp	880	2	spielen	880	1	!	1292	1	!	1316	0	0	0	0	0	0
2024-05-29	15:31:42	15:38:32	409669	6.6.1	4_exp_EVA_AWA_CON	62	B	A	Rpleas_acq	Oppo	Rpleas	1pleas	acq_US_pleas_nomask	acq45_nomask	4	1	400	1	300	300	0	0	465	50	1	0	fair	spielen	ehrlich	schlau	treu	schön	faul	strafen	eitel	schroff	tot	schlecht	lachen	freundlich	helfen	retten	tolerant	loyal	leiden	fanatisch	hindern	rächen	tyrannisch	lasch	1	blank2r.bmp	0	1	+	0	1	blank2r.bmp	500	1	BMVZ	500	1	blank2r.bmp	880	3	ehrlich	880	1	!	1232	1	!	1367	0	0	0	0	0	0
2024-05-29	15:31:42	15:38:34	411861	6.6.1	4_exp_EVA_AWA_CON	62	B	A	Rpleas_acq	Oppo	Rpleas	1pleas	acq_US_unple_nomask	acq45_nomask	4	2	400	1	300	300	0	0	416	46	1	0	fair	spielen	ehrlich	schlau	treu	schön	faul	strafen	eitel	schroff	tot	schlecht	lachen	freundlich	helfen	retten	tolerant	loyal	leiden	fanatisch	hindern	rächen	tyrannisch	lasch	1	blank2r.bmp	0	1	+	0	1	blank2r.bmp	500	1	GKQX	500	1	blank2r.bmp	880	2	strafen	880	1	!	1232	1	!	1317	0	0	0	0	0	0
2024-05-29	15:31:42	15:38:36	414156	6.6.1	4_exp_EVA_AWA_CON	62	B	A	Rpleas_acq	Oppo	Rpleas	1pleas	acq_US_unple_nomask	acq45_nomask	4	3	400	0	300	300	0	0	521	46	1	0	fair	spielen	ehrlich	schlau	treu	schön	faul	strafen	eitel	schroff	tot	schlecht	lachen	freundlich	helfen	retten	tolerant	loyal	leiden	fanatisch	hindern	rächen	tyrannisch	lasch	1	blank2r.bmp	0	1	+	0	1	blank2r.bmp	500	1	GKQX	500	1	blank2r.bmp	880	3	eitel	880	1	!	1232	1	!	-1	0	0	0	0	0	0
2024-05-29	15:31:42	15:38:38	416349	6.6.1	4_exp_EVA_AWA_CON	62	B	A	Rpleas_acq	Oppo	Rpleas	1pleas	acq_US_pleas_nomask	acq45_nomask	4	4	400	1	300	300	0	0	411	50	1	0	fair	spielen	ehrlich	schlau	treu	schön	faul	strafen	eitel	schroff	tot	schlecht	lachen	freundlich	helfen	retten	tolerant	loyal	leiden	fanatisch	hindern	rächen	tyrannisch	lasch	1	blank2r.bmp	0	1	+	0	1	blank2r.bmp	500	1	BMVZ	500	1	blank2r.bmp	880	6	schön	880	1	!	1232	1	!	1313	0	0	0	0	0	0
2024-05-29	15:31:42	15:38:41	418651	6.6.1	4_exp_EVA_AWA_CON	62	B	A	Rpleas_acq	Oppo	Rpleas	1pleas	acq_US_pleas_nomask	acq45_nomask	4	5	400	0	300	300	0	0	524	50	1	0	fair	spielen	ehrlich	schlau	treu	schön	faul	strafen	eitel	schroff	tot	schlecht	lachen	freundlich	helfen	retten	tolerant	loyal	leiden	fanatisch	hindern	rächen	tyrannisch	lasch	1	blank2r.bmp	0	1	+	0	1	blank2r.bmp	500	1	BMVZ	500	1	blank2r.bmp	880	1	fair	880	1	!	1233	1	!	-1	0	0	0	0	0	0
2024-05-29	15:31:42	15:38:43	420853	6.6.1	4_exp_EVA_AWA_CON	62	B	A	Rpleas_acq	Oppo	Rpleas	1pleas	acq_US_unple_nomask	acq45_nomask	4	6	400	1	300	300	0	0	422	50	0	0	fair	spielen	ehrlich	schlau	treu	schön	faul	strafen	eitel	schroff	tot	schlecht	lachen	freundlich	helfen	retten	tolerant	loyal	leiden	fanatisch	hindern	rächen	tyrannisch	lasch	1	blank2r.bmp	0	1	+	0	1	blank2r.bmp	500	1	GKQX	500	1	blank2r.bmp	880	6	schlecht	880	1	!	1233	1	!	1323	0	0	0	0	0	0
2024-05-29	15:31:42	15:38:45	423115	6.6.1	4_exp_EVA_AWA_CON	62	B	A	Rpleas_acq	Oppo	Rpleas	1pleas	acq_US_unple_nomask	acq45_nomask	4	7	400	0	300	300	0	0	485	46	1	0	fair	spielen	ehrlich	schlau	treu	schön	faul	strafen	eitel	schroff	tot	schlecht	lachen	freundlich	helfen	retten	tolerant	loyal	leiden	fanatisch	hindern	rächen	tyrannisch	lasch	1	blank2r.bmp	0	1	+	0	1	blank2r.bmp	500	1	GKQX	500	1	blank2r.bmp	880	5	tot	880	1	!	1232	1	!	-1	0	0	0	0	0	0
2024-05-29	15:31:42	15:38:47	425301	6.6.1	4_exp_EVA_AWA_CON	62	B	A	Rpleas_acq	Oppo	Rpleas	1pleas	acq_US_pleas_nomask	acq45_nomask	4	8	400	1	300	300	0	0	407	50	1	0	fair	spielen	ehrlich	schlau	treu	schön	faul	strafen	eitel	schroff	tot	schlecht	lachen	freundlich	helfen	retten	tolerant	loyal	leiden	fanatisch	hindern	rächen	tyrannisch	lasch	1	blank2r.bmp	0	1	+	0	1	blank2r.bmp	500	1	BMVZ	500	1	blank2r.bmp	880	2	spielen	880	1	!	1232	1	!	1309	0	0	0	0	0	0
2024-05-29	15:31:42	15:38:49	427571	6.6.1	4_exp_EVA_AWA_CON	62	B	A	Rpleas_acq	Oppo	Rpleas	1pleas	acq_US_unple_nomask	acq45_nomask	4	9	400	0	300	300	0	0	488	50	0	0	fair	spielen	ehrlich	schlau	treu	schön	faul	strafen	eitel	schroff	tot	schlecht	lachen	freundlich	helfen	retten	tolerant	loyal	leiden	fanatisch	hindern	rächen	tyrannisch	lasch	1	blank2r.bmp	0	1	+	0	1	blank2r.bmp	500	1	GKQX	500	1	blank2r.bmp	880	1	faul	880	1	!	1232	1	!	-1	0	0	0	0	0	0
2024-05-29	15:31:42	15:38:52	429749	6.6.1	4_exp_EVA_AWA_CON	62	B	A	Rpleas_acq	Oppo	Rpleas	1pleas	acq_US_pleas_nomask	acq45_nomask	4	10	400	1	300	300	0	0	402	46	0	0	fair	spielen	ehrlich	schlau	treu	schön	faul	strafen	eitel	schroff	tot	schlecht	lachen	freundlich	helfen	retten	tolerant	loyal	leiden	fanatisch	hindern	rächen	tyrannisch	lasch	1	blank2r.bmp	0	1	+	0	1	blank2r.bmp	500	1	BMVZ	500	1	blank2r.bmp	880	5	treu	880	1	!	1232	1	!	1304	0	0	0	0	0	0
2024-05-29	15:31:42	15:38:54	432027	6.6.1	4_exp_EVA_AWA_CON	62	B	A	Rpleas_acq	Oppo	Rpleas	1pleas	acq_US_unple_nomask	acq45_nomask	4	11	400	0	300	300	0	0	501	46	1	0	fair	spielen	ehrlich	schlau	treu	schön	faul	strafen	eitel	schroff	tot	schlecht	lachen	freundlich	helfen	retten	tolerant	loyal	leiden	fanatisch	hindern	rächen	tyrannisch	lasch	1	blank2r.bmp	0	1	+	0	1	blank2r.bmp	500	1	GKQX	500	1	blank2r.bmp	880	4	schroff	880	1	!	1233	1	!	-1	0	0	0	0	0	0
2024-05-29	15:31:42	15:38:56	434147	6.6.1	4_exp_EVA_AWA_CON	62	B	A	Rpleas_acq	Oppo	Rpleas	1pleas	acq_US_unple_nomask	acq45_nomask	4	12	400	1	300	300	0	0	339	46	1	0	fair	spielen	ehrlich	schlau	treu	schön	faul	strafen	eitel	schroff	tot	schlecht	lachen	freundlich	helfen	retten	tolerant	loyal	leiden	fanatisch	hindern	rächen	tyrannisch	lasch	1	blank2r.bmp	0	1	+	0	1	blank2r.bmp	500	1	GKQX	500	1	blank2r.bmp	880	1	faul	880	1	!	1233	1	!	1239	0	0	0	0	0	0
2024-05-29	15:31:42	15:38:58	436317	6.6.1	4_exp_EVA_AWA_CON	62	B	A	Rpleas_acq	Oppo	Rpleas	1pleas	acq_US_unple_nomask	acq45_nomask	4	13	400	1	300	300	0	0	386	50	0	0	fair	spielen	ehrlich	schlau	treu	schön	faul	strafen	eitel	schroff	tot	schlecht	lachen	freundlich	helfen	retten	tolerant	loyal	leiden	fanatisch	hindern	rächen	tyrannisch	lasch	1	blank2r.bmp	0	1	+	0	1	blank2r.bmp	500	1	GKQX	500	1	blank2r.bmp	880	2	strafen	880	1	!	1232	1	!	1287	0	0	0	0	0	0
2024-05-29	15:31:42	15:39:00	438542	6.6.1	4_exp_EVA_AWA_CON	62	B	A	Rpleas_acq	Oppo	Rpleas	1pleas	acq_US_pleas_nomask	acq45_nomask	4	14	400	1	300	300	0	0	448	50	1	0	fair	spielen	ehrlich	schlau	treu	schön	faul	strafen	eitel	schroff	tot	schlecht	lachen	freundlich	helfen	retten	tolerant	loyal	leiden	fanatisch	hindern	rächen	tyrannisch	lasch	1	blank2r.bmp	0	1	+	0	1	blank2r.bmp	500	1	BMVZ	500	1	blank2r.bmp	880	4	schlau	880	1	!	1232	1	!	1350	0	0	0	0	0	0
2024-05-29	15:31:42	15:39:03	440693	6.6.1	4_exp_EVA_AWA_CON	62	B	A	Rpleas_acq	Oppo	Rpleas	1pleas	acq_US_pleas_nomask	acq45_nomask	4	15	400	1	300	300	0	0	369	50	1	0	fair	spielen	ehrlich	schlau	treu	schön	faul	strafen	eitel	schroff	tot	schlecht	lachen	freundlich	helfen	retten	tolerant	loyal	leiden	fanatisch	hindern	rächen	tyrannisch	lasch	1	blank2r.bmp	0	1	+	0	1	blank2r.bmp	500	1	BMVZ	500	1	blank2r.bmp	880	2	spielen	880	1	!	1232	1	!	1270	0	0	0	0	0	0
2024-05-29	15:31:42	15:39:05	442811	6.6.1	4_exp_EVA_AWA_CON	62	B	A	Rpleas_acq	Oppo	Rpleas	1pleas	acq_US_pleas_nomask	acq45_nomask	4	16	400	1	300	300	0	0	338	50	1	0	fair	spielen	ehrlich	schlau	treu	schön	faul	strafen	eitel	schroff	tot	schlecht	lachen	freundlich	helfen	retten	tolerant	loyal	leiden	fanatisch	hindern	rächen	tyrannisch	lasch	1	blank2r.bmp	0	1	+	0	1	blank2r.bmp	500	1	BMVZ	500	1	blank2r.bmp	880	6	schön	880	1	!	1233	1	!	1238	0	0	0	0	0	0
2024-05-29	15:31:42	15:39:07	444949	6.6.1	4_exp_EVA_AWA_CON	62	B	A	Rpleas_acq	Oppo	Rpleas	1pleas	acq_US_unple_nomask	acq45_nomask	4	17	400	1	300	300	0	0	362	50	0	0	fair	spielen	ehrlich	schlau	treu	schön	faul	strafen	eitel	schroff	tot	schlecht	lachen	freundlich	helfen	retten	tolerant	loyal	leiden	fanatisch	hindern	rächen	tyrannisch	lasch	1	blank2r.bmp	0	1	+	0	1	blank2r.bmp	500	1	GKQX	500	1	blank2r.bmp	880	3	eitel	880	1	!	1232	1	!	1264	0	0	0	0	0	0
2024-05-29	15:31:42	15:39:09	447035	6.6.1	4_exp_EVA_AWA_CON	62	B	A	Rpleas_acq	Oppo	Rpleas	1pleas	acq_US_pleas_nomask	acq45_nomask	4	18	400	0	300	300	0	0	309	46	0	0	fair	spielen	ehrlich	schlau	treu	schön	faul	strafen	eitel	schroff	tot	schlecht	lachen	freundlich	helfen	retten	tolerant	loyal	leiden	fanatisch	hindern	rächen	tyrannisch	lasch	1	blank2r.bmp	0	1	+	0	1	blank2r.bmp	500	1	BMVZ	500	1	blank2r.bmp	880	5	treu	880	1	!	-1	1	!	-1	0	0	0	0	0	0
2024-05-29	15:31:42	15:39:11	449181	6.6.1	4_exp_EVA_AWA_CON	62	B	A	Rpleas_acq	Oppo	Rpleas	1pleas	acq_US_pleas_nomask	acq45_nomask	4	19	400	1	300	300	0	0	372	50	1	0	fair	spielen	ehrlich	schlau	treu	schön	faul	strafen	eitel	schroff	tot	schlecht	lachen	freundlich	helfen	retten	tolerant	loyal	leiden	fanatisch	hindern	rächen	tyrannisch	lasch	1	blank2r.bmp	0	1	+	0	1	blank2r.bmp	500	1	BMVZ	500	1	blank2r.bmp	880	4	schlau	880	1	!	1233	1	!	1273	0	0	0	0	0	0
2024-05-29	15:31:42	15:39:13	451373	6.6.1	4_exp_EVA_AWA_CON	62	B	A	Rpleas_acq	Oppo	Rpleas	1pleas	acq_US_pleas_nomask	acq45_nomask	4	20	400	1	300	300	0	0	412	50	1	0	fair	spielen	ehrlich	schlau	treu	schön	faul	strafen	eitel	schroff	tot	schlecht	lachen	freundlich	helfen	retten	tolerant	loyal	leiden	fanatisch	hindern	rächen	tyrannisch	lasch	1	blank2r.bmp	0	1	+	0	1	blank2r.bmp	500	1	BMVZ	500	1	blank2r.bmp	880	3	ehrlich	880	1	!	1232	1	!	1314	0	0	0	0	0	0
2024-05-29	15:31:42	15:39:15	453549	6.6.1	4_exp_EVA_AWA_CON	62	B	A	Rpleas_acq	Oppo	Rpleas	1pleas	acq_US_pleas_nomask	acq45_nomask	4	21	400	1	300	300	0	0	397	46	0	0	fair	spielen	ehrlich	schlau	treu	schön	faul	strafen	eitel	schroff	tot	schlecht	lachen	freundlich	helfen	retten	tolerant	loyal	leiden	fanatisch	hindern	rächen	tyrannisch	lasch	1	blank2r.bmp	0	1	+	0	1	blank2r.bmp	500	1	BMVZ	500	1	blank2r.bmp	880	1	fair	880	1	!	1232	1	!	1298	0	0	0	0	0	0
2024-05-29	15:31:42	15:39:18	455701	6.6.1	4_exp_EVA_AWA_CON	62	B	A	Rpleas_acq	Oppo	Rpleas	1pleas	acq_US_pleas_nomask	acq45_nomask	4	22	400	1	300	300	0	0	377	50	1	0	fair	spielen	ehrlich	schlau	treu	schön	faul	strafen	eitel	schroff	tot	schlecht	lachen	freundlich	helfen	retten	tolerant	loyal	leiden	fanatisch	hindern	rächen	tyrannisch	lasch	1	blank2r.bmp	0	1	+	0	1	blank2r.bmp	500	1	BMVZ	500	1	blank2r.bmp	880	2	spielen	880	1	!	1233	1	!	1279	0	0	0	0	0	0
2024-05-29	15:31:42	15:39:20	457811	6.6.1	4_exp_EVA_AWA_CON	62	B	A	Rpleas_acq	Oppo	Rpleas	1pleas	acq_US_unple_nomask	acq45_nomask	4	23	400	0	300	300	0	0	328	50	0	0	fair	spielen	ehrlich	schlau	treu	schön	faul	strafen	eitel	schroff	tot	schlecht	lachen	freundlich	helfen	retten	tolerant	loyal	leiden	fanatisch	hindern	rächen	tyrannisch	lasch	1	blank2r.bmp	0	1	+	0	1	blank2r.bmp	500	1	GKQX	500	1	blank2r.bmp	880	4	schroff	880	1	!	-1	1	!	-1	0	0	0	0	0	0
2024-05-29	15:31:42	15:39:22	459965	6.6.1	4_exp_EVA_AWA_CON	62	B	A	Rpleas_acq	Oppo	Rpleas	1pleas	acq_US_pleas_nomask	acq45_nomask	4	24	400	1	300	300	0	0	379	50	1	0	fair	spielen	ehrlich	schlau	treu	schön	faul	strafen	eitel	schroff	tot	schlecht	lachen	freundlich	helfen	retten	tolerant	loyal	leiden	fanatisch	hindern	rächen	tyrannisch	lasch	1	blank2r.bmp	0	1	+	0	1	blank2r.bmp	500	1	BMVZ	500	1	blank2r.bmp	880	3	ehrlich	880	1	!	1232	1	!	1280	0	0	0	0	0	0
2024-05-29	15:31:42	15:39:24	462125	6.6.1	4_exp_EVA_AWA_CON	62	B	A	Rpleas_acq	Oppo	Rpleas	1pleas	acq_US_unple_nomask	acq45_nomask	4	25	400	1	300	300	0	0	377	46	1	0	fair	spielen	ehrlich	schlau	treu	schön	faul	strafen	eitel	schroff	tot	schlecht	lachen	freundlich	helfen	retten	tolerant	loyal	leiden	fanatisch	hindern	rächen	tyrannisch	lasch	1	blank2r.bmp	0	1	+	0	1	blank2r.bmp	500	1	GKQX	500	1	blank2r.bmp	880	5	tot	880	1	!	1232	1	!	1279	0	0	0	0	0	0
2024-05-29	15:31:42	15:39:26	464293	6.6.1	4_exp_EVA_AWA_CON	62	B	A	Rpleas_acq	Oppo	Rpleas	1pleas	acq_US_unple_nomask	acq45_nomask	4	26	400	1	300	300	0	0	394	46	1	0	fair	spielen	ehrlich	schlau	treu	schön	faul	strafen	eitel	schroff	tot	schlecht	lachen	freundlich	helfen	retten	tolerant	loyal	leiden	fanatisch	hindern	rächen	tyrannisch	lasch	1	blank2r.bmp	0	1	+	0	1	blank2r.bmp	500	1	GKQX	500	1	blank2r.bmp	880	6	schlecht	880	1	!	1233	1	!	1295	0	0	0	0	0	0
2024-05-29	15:31:42	15:39:28	466340	6.6.1	4_exp_EVA_AWA_CON	62	B	A	Rpleas_acq	Oppo	Rpleas	1pleas	acq_US_pleas_nomask	acq45_nomask	4	27	400	0	300	300	0	0	270	46	0	0	fair	spielen	ehrlich	schlau	treu	schön	faul	strafen	eitel	schroff	tot	schlecht	lachen	freundlich	helfen	retten	tolerant	loyal	leiden	fanatisch	hindern	rächen	tyrannisch	lasch	1	blank2r.bmp	0	1	+	0	1	blank2r.bmp	500	1	BMVZ	500	1	blank2r.bmp	880	6	schön	880	1	!	-1	1	!	-1	0	0	0	0	0	0
2024-05-29	15:31:42	15:39:30	468469	6.6.1	4_exp_EVA_AWA_CON	62	B	A	Rpleas_acq	Oppo	Rpleas	1pleas	acq_US_unple_nomask	acq45_nomask	4	28	400	1	300	300	0	0	347	50	0	0	fair	spielen	ehrlich	schlau	treu	schön	faul	strafen	eitel	schroff	tot	schlecht	lachen	freundlich	helfen	retten	tolerant	loyal	leiden	fanatisch	hindern	rächen	tyrannisch	lasch	1	blank2r.bmp	0	1	+	0	1	blank2r.bmp	500	1	GKQX	500	1	blank2r.bmp	880	4	schroff	880	1	!	1232	1	!	1248	0	0	0	0	0	0
2024-05-29	15:31:42	15:39:33	470709	6.6.1	4_exp_EVA_AWA_CON	62	B	A	Rpleas_acq	Oppo	Rpleas	1pleas	acq_US_unple_nomask	acq45_nomask	4	29	400	1	300	300	0	0	466	46	1	0	fair	spielen	ehrlich	schlau	treu	schön	faul	strafen	eitel	schroff	tot	schlecht	lachen	freundlich	helfen	retten	tolerant	loyal	leiden	fanatisch	hindern	rächen	tyrannisch	lasch	1	blank2r.bmp	0	1	+	0	1	blank2r.bmp	500	1	GKQX	500	1	blank2r.bmp	880	5	tot	880	1	!	1233	1	!	1367	0	0	0	0	0	0
2024-05-29	15:31:42	15:39:35	472926	6.6.1	4_exp_EVA_AWA_CON	62	B	A	Rpleas_acq	Oppo	Rpleas	1pleas	acq_US_pleas_nomask	acq45_nomask	4	30	400	1	300	300	0	0	440	50	1	0	fair	spielen	ehrlich	schlau	treu	schön	faul	strafen	eitel	schroff	tot	schlecht	lachen	freundlich	helfen	retten	tolerant	loyal	leiden	fanatisch	hindern	rächen	tyrannisch	lasch	1	blank2r.bmp	0	1	+	0	1	blank2r.bmp	500	1	BMVZ	500	1	blank2r.bmp	880	5	treu	880	1	!	1233	1	!	1342	0	0	0	0	0	0
2024-05-29	15:31:42	15:39:37	475149	6.6.1	4_exp_EVA_AWA_CON	62	B	A	Rpleas_acq	Oppo	Rpleas	1pleas	acq_US_unple_nomask	acq45_nomask	4	31	400	1	300	300	0	0	443	50	0	0	fair	spielen	ehrlich	schlau	treu	schön	faul	strafen	eitel	schroff	tot	schlecht	lachen	freundlich	helfen	retten	tolerant	loyal	leiden	fanatisch	hindern	rächen	tyrannisch	lasch	1	blank2r.bmp	0	1	+	0	1	blank2r.bmp	500	1	GKQX	500	1	blank2r.bmp	880	3	eitel	880	1	!	1232	1	!	1344	0	0	0	0	0	0
2024-05-29	15:31:42	15:39:39	477285	6.6.1	4_exp_EVA_AWA_CON	62	B	A	Rpleas_acq	Oppo	Rpleas	1pleas	acq_US_unple_nomask	acq45_nomask	4	32	400	1	300	300	0	0	357	46	1	0	fair	spielen	ehrlich	schlau	treu	schön	faul	strafen	eitel	schroff	tot	schlecht	lachen	freundlich	helfen	retten	tolerant	loyal	leiden	fanatisch	hindern	rächen	tyrannisch	lasch	1	blank2r.bmp	0	1	+	0	1	blank2r.bmp	500	1	GKQX	500	1	blank2r.bmp	880	1	faul	880	1	!	1233	1	!	1259	0	0	0	0	0	0
2024-05-29	15:31:42	15:39:41	479413	6.6.1	4_exp_EVA_AWA_CON	62	B	A	Rpleas_acq	Oppo	Rpleas	1pleas	acq_US_unple_nomask	acq45_nomask	4	33	400	1	300	300	0	0	344	50	0	0	fair	spielen	ehrlich	schlau	treu	schön	faul	strafen	eitel	schroff	tot	schlecht	lachen	freundlich	helfen	retten	tolerant	loyal	leiden	fanatisch	hindern	rächen	tyrannisch	lasch	1	blank2r.bmp	0	1	+	0	1	blank2r.bmp	500	1	GKQX	500	1	blank2r.bmp	880	6	schlecht	880	1	!	1232	1	!	1245	0	0	0	0	0	0
2024-05-29	15:31:42	15:39:44	481597	6.6.1	4_exp_EVA_AWA_CON	62	B	A	Rpleas_acq	Oppo	Rpleas	1pleas	acq_US_pleas_nomask	acq45_nomask	4	34	400	1	300	300	0	0	406	50	1	0	fair	spielen	ehrlich	schlau	treu	schön	faul	strafen	eitel	schroff	tot	schlecht	lachen	freundlich	helfen	retten	tolerant	loyal	leiden	fanatisch	hindern	rächen	tyrannisch	lasch	1	blank2r.bmp	0	1	+	0	1	blank2r.bmp	500	1	BMVZ	500	1	blank2r.bmp	880	4	schlau	880	1	!	1232	1	!	1308	0	0	0	0	0	0
2024-05-29	15:31:42	15:39:46	483699	6.6.1	4_exp_EVA_AWA_CON	62	B	A	Rpleas_acq	Oppo	Rpleas	1pleas	acq_US_unple_nomask	acq45_nomask	4	35	400	0	300	300	0	0	329	46	1	0	fair	spielen	ehrlich	schlau	treu	schön	faul	strafen	eitel	schroff	tot	schlecht	lachen	freundlich	helfen	retten	tolerant	loyal	leiden	fanatisch	hindern	rächen	tyrannisch	lasch	1	blank2r.bmp	0	1	+	0	1	blank2r.bmp	500	1	GKQX	500	1	blank2r.bmp	880	2	strafen	880	1	!	-1	1	!	-1	0	0	0	0	0	0
2024-05-29	15:31:42	15:39:48	485861	6.6.1	4_exp_EVA_AWA_CON	62	B	A	Rpleas_acq	Oppo	Rpleas	1pleas	acq_US_pleas_nomask	acq45_nomask	4	36	400	1	300	300	0	0	378	46	0	0	fair	spielen	ehrlich	schlau	treu	schön	faul	strafen	eitel	schroff	tot	schlecht	lachen	freundlich	helfen	retten	tolerant	loyal	leiden	fanatisch	hindern	rächen	tyrannisch	lasch	1	blank2r.bmp	0	1	+	0	1	blank2r.bmp	500	1	BMVZ	500	1	blank2r.bmp	880	1	fair	880	1	!	1232	1	!	1279	0	0	0	0	0	0
2024-05-29	15:31:42	15:40:02	499885	6.6.1	4_exp_EVA_AWA_CON	62	B	A	Rpleas_acq	Oppo	Rpleas	1pleas	acq_US_unple_nomask	acq45_nomask	5	1	400	1	300	300	0	0	453	46	1	0	fair	spielen	ehrlich	schlau	treu	schön	faul	strafen	eitel	schroff	tot	schlecht	lachen	freundlich	helfen	retten	tolerant	loyal	leiden	fanatisch	hindern	rächen	tyrannisch	lasch	1	blank2r.bmp	0	1	+	0	1	blank2r.bmp	500	1	GKQX	500	1	blank2r.bmp	880	5	tot	880	1	!	1233	1	!	1354	0	0	0	0	0	0
2024-05-29	15:31:42	15:40:04	502101	6.6.1	4_exp_EVA_AWA_CON	62	B	A	Rpleas_acq	Oppo	Rpleas	1pleas	acq_US_pleas_nomask	acq45_nomask	5	2	400	1	300	300	0	0	437	50	1	0	fair	spielen	ehrlich	schlau	treu	schön	faul	strafen	eitel	schroff	tot	schlecht	lachen	freundlich	helfen	retten	tolerant	loyal	leiden	fanatisch	hindern	rächen	tyrannisch	lasch	1	blank2r.bmp	0	1	+	0	1	blank2r.bmp	500	1	BMVZ	500	1	blank2r.bmp	880	3	ehrlich	880	1	!	1232	1	!	1338	0	0	0	0	0	0
2024-05-29	15:31:42	15:40:06	504341	6.6.1	4_exp_EVA_AWA_CON	62	B	A	Rpleas_acq	Oppo	Rpleas	1pleas	acq_US_unple_nomask	acq45_nomask	5	3	400	1	300	300	0	0	466	46	1	0	fair	spielen	ehrlich	schlau	treu	schön	faul	strafen	eitel	schroff	tot	schlecht	lachen	freundlich	helfen	retten	tolerant	loyal	leiden	fanatisch	hindern	rächen	tyrannisch	lasch	1	blank2r.bmp	0	1	+	0	1	blank2r.bmp	500	1	GKQX	500	1	blank2r.bmp	880	2	strafen	880	1	!	1233	1	!	1367	0	0	0	0	0	0
2024-05-29	15:31:42	15:40:08	506501	6.6.1	4_exp_EVA_AWA_CON	62	B	A	Rpleas_acq	Oppo	Rpleas	1pleas	acq_US_pleas_nomask	acq45_nomask	5	4	400	1	300	300	0	0	384	46	0	0	fair	spielen	ehrlich	schlau	treu	schön	faul	strafen	eitel	schroff	tot	schlecht	lachen	freundlich	helfen	retten	tolerant	loyal	leiden	fanatisch	hindern	rächen	tyrannisch	lasch	1	blank2r.bmp	0	1	+	0	1	blank2r.bmp	500	1	BMVZ	500	1	blank2r.bmp	880	4	schlau	880	1	!	1232	1	!	1285	0	0	0	0	0	0
2024-05-29	15:31:42	15:40:11	508629	6.6.1	4_exp_EVA_AWA_CON	62	B	A	Rpleas_acq	Oppo	Rpleas	1pleas	acq_US_pleas_nomask	acq45_nomask	5	5	400	1	300	300	0	0	351	50	1	0	fair	spielen	ehrlich	schlau	treu	schön	faul	strafen	eitel	schroff	tot	schlecht	lachen	freundlich	helfen	retten	tolerant	loyal	leiden	fanatisch	hindern	rächen	tyrannisch	lasch	1	blank2r.bmp	0	1	+	0	1	blank2r.bmp	500	1	BMVZ	500	1	blank2r.bmp	880	6	schön	880	1	!	1232	1	!	1253	0	0	0	0	0	0
2024-05-29	15:31:42	15:40:13	510723	6.6.1	4_exp_EVA_AWA_CON	62	B	A	Rpleas_acq	Oppo	Rpleas	1pleas	acq_US_unple_nomask	acq45_nomask	5	6	400	0	300	300	0	0	315	46	1	0	fair	spielen	ehrlich	schlau	treu	schön	faul	strafen	eitel	schroff	tot	schlecht	lachen	freundlich	helfen	retten	tolerant	loyal	leiden	fanatisch	hindern	rächen	tyrannisch	lasch	1	blank2r.bmp	0	1	+	0	1	blank2r.bmp	500	1	GKQX	500	1	blank2r.bmp	880	3	eitel	880	1	!	-1	1	!	-1	0	0	0	0	0	0
2024-05-29	15:31:42	15:40:15	512925	6.6.1	4_exp_EVA_AWA_CON	62	B	A	Rpleas_acq	Oppo	Rpleas	1pleas	acq_US_unple_nomask	acq45_nomask	5	7	400	1	300	300	0	0	424	46	1	0	fair	spielen	ehrlich	schlau	treu	schön	faul	strafen	eitel	schroff	tot	schlecht	lachen	freundlich	helfen	retten	tolerant	loyal	leiden	fanatisch	hindern	rächen	tyrannisch	lasch	1	blank2r.bmp	0	1	+	0	1	blank2r.bmp	500	1	GKQX	500	1	blank2r.bmp	880	1	faul	880	1	!	1232	1	!	1325	0	0	0	0	0	0
2024-05-29	15:31:42	15:40:17	515109	6.6.1	4_exp_EVA_AWA_CON	62	B	A	Rpleas_acq	Oppo	Rpleas	1pleas	acq_US_pleas_nomask	acq45_nomask	5	8	400	1	300	300	0	0	406	46	0	0	fair	spielen	ehrlich	schlau	treu	schön	faul	strafen	eitel	schroff	tot	schlecht	lachen	freundlich	helfen	retten	tolerant	loyal	leiden	fanatisch	hindern	rächen	tyrannisch	lasch	1	blank2r.bmp	0	1	+	0	1	blank2r.bmp	500	1	BMVZ	500	1	blank2r.bmp	880	5	treu	880	1	!	1232	1	!	1308	0	0	0	0	0	0
2024-05-29	15:31:42	15:40:19	517261	6.6.1	4_exp_EVA_AWA_CON	62	B	A	Rpleas_acq	Oppo	Rpleas	1pleas	acq_US_unple_nomask	acq45_nomask	5	9	400	1	300	300	0	0	377	50	0	0	fair	spielen	ehrlich	schlau	treu	schön	faul	strafen	eitel	schroff	tot	schlecht	lachen	freundlich	helfen	retten	tolerant	loyal	leiden	fanatisch	hindern	rächen	tyrannisch	lasch	1	blank2r.bmp	0	1	+	0	1	blank2r.bmp	500	1	GKQX	500	1	blank2r.bmp	880	6	schlecht	880	1	!	1232	1	!	1278	0	0	0	0	0	0
2024-05-29	15:31:42	15:40:25	522643	6.6.1	4_exp_EVA_AWA_CON	62	B	A	Rpleas_acq	Oppo	Rpleas	1pleas	acq_US_pleas_nomask	acq45_nomask	5	10	400	0	300	300	0	0	3610	46	0	0	fair	spielen	ehrlich	schlau	treu	schön	faul	strafen	eitel	schroff	tot	schlecht	lachen	freundlich	helfen	retten	tolerant	loyal	leiden	fanatisch	hindern	rächen	tyrannisch	lasch	1	blank2r.bmp	0	1	+	0	1	blank2r.bmp	500	1	BMVZ	500	1	blank2r.bmp	880	1	fair	880	1	!	1232	1	!	-1	0	0	0	0	0	0
2024-05-29	15:31:42	15:40:27	524789	6.6.1	4_exp_EVA_AWA_CON	62	B	A	Rpleas_acq	Oppo	Rpleas	1pleas	acq_US_pleas_nomask	acq45_nomask	5	11	400	1	300	300	0	0	370	50	1	0	fair	spielen	ehrlich	schlau	treu	schön	faul	strafen	eitel	schroff	tot	schlecht	lachen	freundlich	helfen	retten	tolerant	loyal	leiden	fanatisch	hindern	rächen	tyrannisch	lasch	1	blank2r.bmp	0	1	+	0	1	blank2r.bmp	500	1	BMVZ	500	1	blank2r.bmp	880	2	spielen	880	1	!	1233	1	!	1272	0	0	0	0	0	0
2024-05-29	15:31:42	15:40:29	526997	6.6.1	4_exp_EVA_AWA_CON	62	B	A	Rpleas_acq	Oppo	Rpleas	1pleas	acq_US_unple_nomask	acq45_nomask	5	12	400	1	300	300	0	0	427	46	1	0	fair	spielen	ehrlich	schlau	treu	schön	faul	strafen	eitel	schroff	tot	schlecht	lachen	freundlich	helfen	retten	tolerant	loyal	leiden	fanatisch	hindern	rächen	tyrannisch	lasch	1	blank2r.bmp	0	1	+	0	1	blank2r.bmp	500	1	GKQX	500	1	blank2r.bmp	880	4	schroff	880	1	!	1232	1	!	1328	0	0	0	0	0	0
2024-05-29	15:31:42	15:40:31	529181	6.6.1	4_exp_EVA_AWA_CON	62	B	A	Rpleas_acq	Oppo	Rpleas	1pleas	acq_US_unple_nomask	acq45_nomask	5	13	400	1	300	300	0	0	409	46	1	0	fair	spielen	ehrlich	schlau	treu	schön	faul	strafen	eitel	schroff	tot	schlecht	lachen	freundlich	helfen	retten	tolerant	loyal	leiden	fanatisch	hindern	rächen	tyrannisch	lasch	1	blank2r.bmp	0	1	+	0	1	blank2r.bmp	500	1	GKQX	500	1	blank2r.bmp	880	4	schroff	880	1	!	1232	1	!	1311	0	0	0	0	0	0
2024-05-29	15:31:42	15:40:33	531357	6.6.1	4_exp_EVA_AWA_CON	62	B	A	Rpleas_acq	Oppo	Rpleas	1pleas	acq_US_pleas_nomask	acq45_nomask	5	14	400	1	300	300	0	0	394	50	1	0	fair	spielen	ehrlich	schlau	treu	schön	faul	strafen	eitel	schroff	tot	schlecht	lachen	freundlich	helfen	retten	tolerant	loyal	leiden	fanatisch	hindern	rächen	tyrannisch	lasch	1	blank2r.bmp	0	1	+	0	1	blank2r.bmp	500	1	BMVZ	500	1	blank2r.bmp	880	1	fair	880	1	!	1232	1	!	1295	0	0	0	0	0	0
2024-05-29	15:31:42	15:40:35	533549	6.6.1	4_exp_EVA_AWA_CON	62	B	A	Rpleas_acq	Oppo	Rpleas	1pleas	acq_US_unple_nomask	acq45_nomask	5	15	400	1	300	300	0	0	414	46	1	0	fair	spielen	ehrlich	schlau	treu	schön	faul	strafen	eitel	schroff	tot	schlecht	lachen	freundlich	helfen	retten	tolerant	loyal	leiden	fanatisch	hindern	rächen	tyrannisch	lasch	1	blank2r.bmp	0	1	+	0	1	blank2r.bmp	500	1	GKQX	500	1	blank2r.bmp	880	5	tot	880	1	!	1232	1	!	1316	0	0	0	0	0	0
2024-05-29	15:31:42	15:40:38	535789	6.6.1	4_exp_EVA_AWA_CON	62	B	A	Rpleas_acq	Oppo	Rpleas	1pleas	acq_US_unple_nomask	acq45_nomask	5	16	400	1	300	300	0	0	463	50	0	0	fair	spielen	ehrlich	schlau	treu	schön	faul	strafen	eitel	schroff	tot	schlecht	lachen	freundlich	helfen	retten	tolerant	loyal	leiden	fanatisch	hindern	rächen	tyrannisch	lasch	1	blank2r.bmp	0	1	+	0	1	blank2r.bmp	500	1	GKQX	500	1	blank2r.bmp	880	3	eitel	880	1	!	1232	1	!	1364	0	0	0	0	0	0
2024-05-29	15:31:42	15:40:40	538021	6.6.1	4_exp_EVA_AWA_CON	62	B	A	Rpleas_acq	Oppo	Rpleas	1pleas	acq_US_pleas_nomask	acq45_nomask	5	17	400	1	300	300	0	0	454	46	0	0	fair	spielen	ehrlich	schlau	treu	schön	faul	strafen	eitel	schroff	tot	schlecht	lachen	freundlich	helfen	retten	tolerant	loyal	leiden	fanatisch	hindern	rächen	tyrannisch	lasch	1	blank2r.bmp	0	1	+	0	1	blank2r.bmp	500	1	BMVZ	500	1	blank2r.bmp	880	4	schlau	880	1	!	1232	1	!	1355	0	0	0	0	0	0
2024-05-29	15:31:42	15:40:42	540197	6.6.1	4_exp_EVA_AWA_CON	62	B	A	Rpleas_acq	Oppo	Rpleas	1pleas	acq_US_pleas_nomask	acq45_nomask	5	18	400	1	300	300	0	0	398	50	1	0	fair	spielen	ehrlich	schlau	treu	schön	faul	strafen	eitel	schroff	tot	schlecht	lachen	freundlich	helfen	retten	tolerant	loyal	leiden	fanatisch	hindern	rächen	tyrannisch	lasch	1	blank2r.bmp	0	1	+	0	1	blank2r.bmp	500	1	BMVZ	500	1	blank2r.bmp	880	2	spielen	880	1	!	1233	1	!	1299	0	0	0	0	0	0
2024-05-29	15:31:42	15:40:44	542421	6.6.1	4_exp_EVA_AWA_CON	62	B	A	Rpleas_acq	Oppo	Rpleas	1pleas	acq_US_unple_nomask	acq45_nomask	5	19	400	1	300	300	0	0	441	46	1	0	fair	spielen	ehrlich	schlau	treu	schön	faul	strafen	eitel	schroff	tot	schlecht	lachen	freundlich	helfen	retten	tolerant	loyal	leiden	fanatisch	hindern	rächen	tyrannisch	lasch	1	blank2r.bmp	0	1	+	0	1	blank2r.bmp	500	1	GKQX	500	1	blank2r.bmp	880	2	strafen	880	1	!	1232	1	!	1342	0	0	0	0	0	0
2024-05-29	15:31:42	15:40:47	544715	6.6.1	4_exp_EVA_AWA_CON	62	B	A	Rpleas_acq	Oppo	Rpleas	1pleas	acq_US_unple_nomask	acq45_nomask	5	20	400	0	300	300	0	0	515	46	1	0	fair	spielen	ehrlich	schlau	treu	schön	faul	strafen	eitel	schroff	tot	schlecht	lachen	freundlich	helfen	retten	tolerant	loyal	leiden	fanatisch	hindern	rächen	tyrannisch	lasch	1	blank2r.bmp	0	1	+	0	1	blank2r.bmp	500	1	GKQX	500	1	blank2r.bmp	880	1	faul	880	1	!	1232	1	!	-1	0	0	0	0	0	0
2024-05-29	15:31:42	15:40:49	546861	6.6.1	4_exp_EVA_AWA_CON	62	B	A	Rpleas_acq	Oppo	Rpleas	1pleas	acq_US_pleas_nomask	acq45_nomask	5	21	400	1	300	300	0	0	368	46	0	0	fair	spielen	ehrlich	schlau	treu	schön	faul	strafen	eitel	schroff	tot	schlecht	lachen	freundlich	helfen	retten	tolerant	loyal	leiden	fanatisch	hindern	rächen	tyrannisch	lasch	1	blank2r.bmp	0	1	+	0	1	blank2r.bmp	500	1	BMVZ	500	1	blank2r.bmp	880	5	treu	880	1	!	1232	1	!	1269	0	0	0	0	0	0
2024-05-29	15:31:42	15:40:51	549139	6.6.1	4_exp_EVA_AWA_CON	62	B	A	Rpleas_acq	Oppo	Rpleas	1pleas	acq_US_unple_nomask	acq45_nomask	5	22	400	0	300	300	0	0	496	46	1	0	fair	spielen	ehrlich	schlau	treu	schön	faul	strafen	eitel	schroff	tot	schlecht	lachen	freundlich	helfen	retten	tolerant	loyal	leiden	fanatisch	hindern	rächen	tyrannisch	lasch	1	blank2r.bmp	0	1	+	0	1	blank2r.bmp	500	1	GKQX	500	1	blank2r.bmp	880	6	schlecht	880	1	!	1232	1	!	-1	0	0	0	0	0	0
2024-05-29	15:31:42	15:40:53	551277	6.6.1	4_exp_EVA_AWA_CON	62	B	A	Rpleas_acq	Oppo	Rpleas	1pleas	acq_US_pleas_nomask	acq45_nomask	5	23	400	1	300	300	0	0	361	50	1	0	fair	spielen	ehrlich	schlau	treu	schön	faul	strafen	eitel	schroff	tot	schlecht	lachen	freundlich	helfen	retten	tolerant	loyal	leiden	fanatisch	hindern	rächen	tyrannisch	lasch	1	blank2r.bmp	0	1	+	0	1	blank2r.bmp	500	1	BMVZ	500	1	blank2r.bmp	880	3	ehrlich	880	1	!	1233	1	!	1263	0	0	0	0	0	0
2024-05-29	15:31:42	15:40:55	553453	6.6.1	4_exp_EVA_AWA_CON	62	B	A	Rpleas_acq	Oppo	Rpleas	1pleas	acq_US_unple_nomask	acq45_nomask	5	24	400	1	300	300	0	0	396	46	1	0	fair	spielen	ehrlich	schlau	treu	schön	faul	strafen	eitel	schroff	tot	schlecht	lachen	freundlich	helfen	retten	tolerant	loyal	leiden	fanatisch	hindern	rächen	tyrannisch	lasch	1	blank2r.bmp	0	1	+	0	1	blank2r.bmp	500	1	GKQX	500	1	blank2r.bmp	880	2	strafen	880	1	!	1232	1	!	1297	0	0	0	0	0	0
2024-05-29	15:31:42	15:40:58	555638	6.6.1	4_exp_EVA_AWA_CON	62	B	A	Rpleas_acq	Oppo	Rpleas	1pleas	acq_US_unple_nomask	acq45_nomask	5	25	400	1	300	300	0	0	408	46	1	0	fair	spielen	ehrlich	schlau	treu	schön	faul	strafen	eitel	schroff	tot	schlecht	lachen	freundlich	helfen	retten	tolerant	loyal	leiden	fanatisch	hindern	rächen	tyrannisch	lasch	1	blank2r.bmp	0	1	+	0	1	blank2r.bmp	500	1	GKQX	500	1	blank2r.bmp	880	4	schroff	880	1	!	1232	1	!	1309	0	0	0	0	0	0
2024-05-29	15:31:42	15:41:00	557845	6.6.1	4_exp_EVA_AWA_CON	62	B	A	Rpleas_acq	Oppo	Rpleas	1pleas	acq_US_pleas_nomask	acq45_nomask	5	26	400	1	300	300	0	0	425	50	1	0	fair	spielen	ehrlich	schlau	treu	schön	faul	strafen	eitel	schroff	tot	schlecht	lachen	freundlich	helfen	retten	tolerant	loyal	leiden	fanatisch	hindern	rächen	tyrannisch	lasch	1	blank2r.bmp	0	1	+	0	1	blank2r.bmp	500	1	BMVZ	500	1	blank2r.bmp	880	6	schön	880	1	!	1233	1	!	1326	0	0	0	0	0	0
2024-05-29	15:31:42	15:41:02	560005	6.6.1	4_exp_EVA_AWA_CON	62	B	A	Rpleas_acq	Oppo	Rpleas	1pleas	acq_US_pleas_nomask	acq45_nomask	5	27	400	1	300	300	0	0	383	46	0	0	fair	spielen	ehrlich	schlau	treu	schön	faul	strafen	eitel	schroff	tot	schlecht	lachen	freundlich	helfen	retten	tolerant	loyal	leiden	fanatisch	hindern	rächen	tyrannisch	lasch	1	blank2r.bmp	0	1	+	0	1	blank2r.bmp	500	1	BMVZ	500	1	blank2r.bmp	880	1	fair	880	1	!	1232	1	!	1284	0	0	0	0	0	0
2024-05-29	15:31:42	15:41:04	562157	6.6.1	4_exp_EVA_AWA_CON	62	B	A	Rpleas_acq	Oppo	Rpleas	1pleas	acq_US_unple_nomask	acq45_nomask	5	28	400	1	300	300	0	0	374	50	0	0	fair	spielen	ehrlich	schlau	treu	schön	faul	strafen	eitel	schroff	tot	schlecht	lachen	freundlich	helfen	retten	tolerant	loyal	leiden	fanatisch	hindern	rächen	tyrannisch	lasch	1	blank2r.bmp	0	1	+	0	1	blank2r.bmp	500	1	GKQX	500	1	blank2r.bmp	880	6	schlecht	880	1	!	1232	1	!	1275	0	0	0	0	0	0
2024-05-29	15:31:42	15:41:06	564435	6.6.1	4_exp_EVA_AWA_CON	62	B	A	Rpleas_acq	Oppo	Rpleas	1pleas	acq_US_pleas_nomask	acq45_nomask	5	29	400	0	300	300	0	0	502	50	1	0	fair	spielen	ehrlich	schlau	treu	schön	faul	strafen	eitel	schroff	tot	schlecht	lachen	freundlich	helfen	retten	tolerant	loyal	leiden	fanatisch	hindern	rächen	tyrannisch	lasch	1	blank2r.bmp	0	1	+	0	1	blank2r.bmp	500	1	BMVZ	500	1	blank2r.bmp	880	2	spielen	880	1	!	1232	1	!	-1	0	0	0	0	0	0
2024-05-29	15:31:42	15:41:08	566531	6.6.1	4_exp_EVA_AWA_CON	62	B	A	Rpleas_acq	Oppo	Rpleas	1pleas	acq_US_pleas_nomask	acq45_nomask	5	30	400	0	300	300	0	0	317	46	0	0	fair	spielen	ehrlich	schlau	treu	schön	faul	strafen	eitel	schroff	tot	schlecht	lachen	freundlich	helfen	retten	tolerant	loyal	leiden	fanatisch	hindern	rächen	tyrannisch	lasch	1	blank2r.bmp	0	1	+	0	1	blank2r.bmp	500	1	BMVZ	500	1	blank2r.bmp	880	3	ehrlich	880	1	!	-1	1	!	-1	0	0	0	0	0	0
2024-05-29	15:31:42	15:41:11	568749	6.6.1	4_exp_EVA_AWA_CON	62	B	A	Rpleas_acq	Oppo	Rpleas	1pleas	acq_US_unple_nomask	acq45_nomask	5	31	400	1	300	300	0	0	442	46	1	0	fair	spielen	ehrlich	schlau	treu	schön	faul	strafen	eitel	schroff	tot	schlecht	lachen	freundlich	helfen	retten	tolerant	loyal	leiden	fanatisch	hindern	rächen	tyrannisch	lasch	1	blank2r.bmp	0	1	+	0	1	blank2r.bmp	500	1	GKQX	500	1	blank2r.bmp	880	1	faul	880	1	!	1232	1	!	1343	0	0	0	0	0	0
2024-05-29	15:31:42	15:41:13	570918	6.6.1	4_exp_EVA_AWA_CON	62	B	A	Rpleas_acq	Oppo	Rpleas	1pleas	acq_US_pleas_nomask	acq45_nomask	5	32	400	1	300	300	0	0	388	50	1	0	fair	spielen	ehrlich	schlau	treu	schön	faul	strafen	eitel	schroff	tot	schlecht	lachen	freundlich	helfen	retten	tolerant	loyal	leiden	fanatisch	hindern	rächen	tyrannisch	lasch	1	blank2r.bmp	0	1	+	0	1	blank2r.bmp	500	1	BMVZ	500	1	blank2r.bmp	880	4	schlau	880	1	!	1232	1	!	1289	0	0	0	0	0	0
2024-05-29	15:31:42	15:41:15	573077	6.6.1	4_exp_EVA_AWA_CON	62	B	A	Rpleas_acq	Oppo	Rpleas	1pleas	acq_US_pleas_nomask	acq45_nomask	5	33	400	1	300	300	0	0	377	50	1	0	fair	spielen	ehrlich	schlau	treu	schön	faul	strafen	eitel	schroff	tot	schlecht	lachen	freundlich	helfen	retten	tolerant	loyal	leiden	fanatisch	hindern	rächen	tyrannisch	lasch	1	blank2r.bmp	0	1	+	0	1	blank2r.bmp	500	1	BMVZ	500	1	blank2r.bmp	880	6	schön	880	1	!	1233	1	!	1278	0	0	0	0	0	0
2024-05-29	15:31:42	15:41:17	575180	6.6.1	4_exp_EVA_AWA_CON	62	B	A	Rpleas_acq	Oppo	Rpleas	1pleas	acq_US_pleas_nomask	acq45_nomask	5	34	400	0	300	300	0	0	329	50	1	0	fair	spielen	ehrlich	schlau	treu	schön	faul	strafen	eitel	schroff	tot	schlecht	lachen	freundlich	helfen	retten	tolerant	loyal	leiden	fanatisch	hindern	rächen	tyrannisch	lasch	1	blank2r.bmp	0	1	+	0	1	blank2r.bmp	500	1	BMVZ	500	1	blank2r.bmp	880	5	treu	880	1	!	-1	1	!	-1	0	0	0	0	0	0
2024-05-29	15:31:42	15:41:19	577333	6.6.1	4_exp_EVA_AWA_CON	62	B	A	Rpleas_acq	Oppo	Rpleas	1pleas	acq_US_unple_nomask	acq45_nomask	5	35	400	1	300	300	0	0	370	46	1	0	fair	spielen	ehrlich	schlau	treu	schön	faul	strafen	eitel	schroff	tot	schlecht	lachen	freundlich	helfen	retten	tolerant	loyal	leiden	fanatisch	hindern	rächen	tyrannisch	lasch	1	blank2r.bmp	0	1	+	0	1	blank2r.bmp	500	1	GKQX	500	1	blank2r.bmp	880	5	tot	880	1	!	1232	1	!	1272	0	0	0	0	0	0
2024-05-29	15:31:42	15:41:22	579619	6.6.1	4_exp_EVA_AWA_CON	62	B	A	Rpleas_acq	Oppo	Rpleas	1pleas	acq_US_unple_nomask	acq45_nomask	5	36	400	0	300	300	0	0	507	50	0	0	fair	spielen	ehrlich	schlau	treu	schön	faul	strafen	eitel	schroff	tot	schlecht	lachen	freundlich	helfen	retten	tolerant	loyal	leiden	fanatisch	hindern	rächen	tyrannisch	lasch	1	blank2r.bmp	0	1	+	0	1	blank2r.bmp	500	1	GKQX	500	1	blank2r.bmp	880	3	eitel	880	1	!	1232	1	!	-1	0	0	0	0	0	0
2024-05-29	15:31:42	15:41:37	595111	6.6.1	4_exp_EVA_AWA_CON	62	B	A	Rpleas_acq	Oppo	Lpleas	1pleas	EvalRating_firsttwo	EvalRating_firsttwo	6	1	0	0	300	300	0	0	5013	line	0	-50,390625pct	fair	spielen	ehrlich	schlau	treu	schön	faul	strafen	eitel	schroff	tot	schlecht	lachen	freundlich	helfen	retten	tolerant	loyal	leiden	fanatisch	hindern	rächen	tyrannisch	lasch	1		-8	1	Wie angenehm oder unangenehm finden Sie die  Buchstabenkette ZGVK?	-8	1		-8	1		-8	1		-8	1	Unangenehm	-8	1	Angenehm	-8	0	0	0	0	0	0	0	0	0
2024-05-29	15:31:42	15:41:43	601457	6.6.1	4_exp_EVA_AWA_CON	62	B	A	Rpleas_acq	Oppo	Lpleas	1pleas	EvalRating_lastfour	EvalRating_lastfour	7	1	0	0	300	300	0	0	3972	line	0	-14,84375pct	fair	spielen	ehrlich	schlau	treu	schön	faul	strafen	eitel	schroff	tot	schlecht	lachen	freundlich	helfen	retten	tolerant	loyal	leiden	fanatisch	hindern	rächen	tyrannisch	lasch	1		-8	2	Wie angenehm oder unangenehm finden Sie die  Buchstabenkette GKQX?	-8	1		-8	1		-8	1		-8	1	Unangenehm	-8	1	Angenehm	-8	0	0	0	0	0	0	0	0	0
2024-05-29	15:31:42	15:41:46	603820	6.6.1	4_exp_EVA_AWA_CON	62	B	A	Rpleas_acq	Oppo	Lpleas	1pleas	blank_screen	EvalRating_lastfour	7	3	0	0	300	300	0	0	0	0	0	-14,84375pct	fair	spielen	ehrlich	schlau	treu	schön	faul	strafen	eitel	schroff	tot	schlecht	lachen	freundlich	helfen	retten	tolerant	loyal	leiden	fanatisch	hindern	rächen	tyrannisch	lasch	1		-8	0	0	0	0	0	0	0	0	0	0	0	0	0	0	0	0	0	0	0	0	0	0	0	0	0	0	0
2024-05-29	15:31:42	15:41:50	608137	6.6.1	4_exp_EVA_AWA_CON	62	B	A	Rpleas_acq	Oppo	Lpleas	1pleas	EvalRating_lastfour	EvalRating_lastfour	7	4	0	0	300	300	0	0	3728	line	0	7,03125pct	fair	spielen	ehrlich	schlau	treu	schön	faul	strafen	eitel	schroff	tot	schlecht	lachen	freundlich	helfen	retten	tolerant	loyal	leiden	fanatisch	hindern	rächen	tyrannisch	lasch	1		-8	1	Wie angenehm oder unangenehm finden Sie die  Buchstabenkette BMVZ?	-8	1		-8	1		-8	1		-8	1	Unangenehm	-8	1	Angenehm	-8	0	0	0	0	0	0	0	0	0
2024-05-29	15:31:42	15:41:52	610505	6.6.1	4_exp_EVA_AWA_CON	62	B	A	Rpleas_acq	Oppo	Lpleas	1pleas	blank_screen	EvalRating_lastfour	7	6	0	0	300	300	0	0	0	0	0	7,03125pct	fair	spielen	ehrlich	schlau	treu	schön	faul	strafen	eitel	schroff	tot	schlecht	lachen	freundlich	helfen	retten	tolerant	loyal	leiden	fanatisch	hindern	rächen	tyrannisch	lasch	1		-8	0	0	0	0	0	0	0	0	0	0	0	0	0	0	0	0	0	0	0	0	0	0	0	0	0	0	0
2024-05-29	15:31:42	15:41:56	614232	6.6.1	4_exp_EVA_AWA_CON	62	B	A	Rpleas_acq	Oppo	Lpleas	1pleas	EvalRating_lastfour	EvalRating_lastfour	7	7	0	0	300	300	0	0	3139	line	0	-34,6354166666666571928pct	fair	spielen	ehrlich	schlau	treu	schön	faul	strafen	eitel	schroff	tot	schlecht	lachen	freundlich	helfen	retten	tolerant	loyal	leiden	fanatisch	hindern	rächen	tyrannisch	lasch	1		-8	3	Wie angenehm oder unangenehm finden Sie die  Buchstabenkette XBQM?	-8	1		-8	1		-8	1		-8	1	Unangenehm	-8	1	Angenehm	-8	0	0	0	0	0	0	0	0	0
2024-05-29	15:31:42	15:42:40	658254	6.6.1	4_exp_EVA_AWA_CON	62	B	A	Rpleas_acq	Oppo	Lpleas	1pleas	conawa_CS1_US2	conawa1_nomask	8	1	0	0	300	300	0	0	13693	spielen	1	-34,6354166666666571928pct	fair	spielen	ehrlich	schlau	treu	schön	faul	strafen	eitel	schroff	tot	schlecht	lachen	freundlich	helfen	retten	tolerant	loyal	leiden	fanatisch	hindern	rächen	tyrannisch	lasch	0	0	0	0	0	0	0	0	0	0	0	0	0	0	0	0	0	0	0	0	0	0	0	0	0	0	0	0	0	0
2024-05-29	15:31:42	15:42:40	658256	6.6.1	4_exp_EVA_AWA_CON	62	B	A	Rpleas_acq	Oppo	Lpleas	1pleas	conawa_CS1_US2_confidence	conawa1_nomask	8	1	0	0	300	300	0	0	13693	guess	1	-34,6354166666666571928pct	fair	spielen	ehrlich	schlau	treu	schön	faul	strafen	eitel	schroff	tot	schlecht	lachen	freundlich	helfen	retten	tolerant	loyal	leiden	fanatisch	hindern	rächen	tyrannisch	lasch	0	0	0	0	0	0	0	0	0	0	0	0	0	0	0	0	0	0	0	0	0	0	0	0	0	0	0	0	0	0
2024-05-29	15:31:42	15:42:47	665359	6.6.1	4_exp_EVA_AWA_CON	62	B	A	Rpleas_acq	Oppo	Lpleas	1pleas	conawa_CS2_US2	conawa1_nomask	8	2	0	0	300	300	0	0	6489	helfen	1	-34,6354166666666571928pct	fair	spielen	ehrlich	schlau	treu	schön	faul	strafen	eitel	schroff	tot	schlecht	lachen	freundlich	helfen	retten	tolerant	loyal	leiden	fanatisch	hindern	rächen	tyrannisch	lasch	0	0	0	0	0	0	0	0	0	0	0	0	0	0	0	0	0	0	0	0	0	0	0	0	0	0	0	0	0	0
2024-05-29	15:31:42	15:42:47	665360	6.6.1	4_exp_EVA_AWA_CON	62	B	A	Rpleas_acq	Oppo	Lpleas	1pleas	conawa_CS2_US2_confidence	conawa1_nomask	8	2	0	0	300	300	0	0	6489	guess	1	-34,6354166666666571928pct	fair	spielen	ehrlich	schlau	treu	schön	faul	strafen	eitel	schroff	tot	schlecht	lachen	freundlich	helfen	retten	tolerant	loyal	leiden	fanatisch	hindern	rächen	tyrannisch	lasch	0	0	0	0	0	0	0	0	0	0	0	0	0	0	0	0	0	0	0	0	0	0	0	0	0	0	0	0	0	0
2024-05-29	15:31:42	15:42:55	673504	6.6.1	4_exp_EVA_AWA_CON	62	B	A	Rpleas_acq	Oppo	Lpleas	1pleas	conawa_CS2_US5	conawa1_nomask	8	3	0	0	300	300	0	0	7529	tot	1	-34,6354166666666571928pct	fair	spielen	ehrlich	schlau	treu	schön	faul	strafen	eitel	schroff	tot	schlecht	lachen	freundlich	helfen	retten	tolerant	loyal	leiden	fanatisch	hindern	rächen	tyrannisch	lasch	0	0	0	0	0	0	0	0	0	0	0	0	0	0	0	0	0	0	0	0	0	0	0	0	0	0	0	0	0	0
2024-05-29	15:31:42	15:42:55	673505	6.6.1	4_exp_EVA_AWA_CON	62	B	A	Rpleas_acq	Oppo	Lpleas	1pleas	conawa_CS2_US5_confidence	conawa1_nomask	8	3	0	0	300	300	0	0	7529	guess	1	-34,6354166666666571928pct	fair	spielen	ehrlich	schlau	treu	schön	faul	strafen	eitel	schroff	tot	schlecht	lachen	freundlich	helfen	retten	tolerant	loyal	leiden	fanatisch	hindern	rächen	tyrannisch	lasch	0	0	0	0	0	0	0	0	0	0	0	0	0	0	0	0	0	0	0	0	0	0	0	0	0	0	0	0	0	0
2024-05-29	15:31:42	15:43:04	682010	6.6.1	4_exp_EVA_AWA_CON	62	B	A	Rpleas_acq	Oppo	Lpleas	1pleas	conawa_CS1_US1	conawa1_nomask	8	4	0	0	300	300	0	0	7889	faul	1	-34,6354166666666571928pct	fair	spielen	ehrlich	schlau	treu	schön	faul	strafen	eitel	schroff	tot	schlecht	lachen	freundlich	helfen	retten	tolerant	loyal	leiden	fanatisch	hindern	rächen	tyrannisch	lasch	0	0	0	0	0	0	0	0	0	0	0	0	0	0	0	0	0	0	0	0	0	0	0	0	0	0	0	0	0	0
2024-05-29	15:31:42	15:43:04	682011	6.6.1	4_exp_EVA_AWA_CON	62	B	A	Rpleas_acq	Oppo	Lpleas	1pleas	conawa_CS1_US1_confidence	conawa1_nomask	8	4	0	0	300	300	0	0	7889	guess	1	-34,6354166666666571928pct	fair	spielen	ehrlich	schlau	treu	schön	faul	strafen	eitel	schroff	tot	schlecht	lachen	freundlich	helfen	retten	tolerant	loyal	leiden	fanatisch	hindern	rächen	tyrannisch	lasch	0	0	0	0	0	0	0	0	0	0	0	0	0	0	0	0	0	0	0	0	0	0	0	0	0	0	0	0	0	0
2024-05-29	15:31:42	15:43:11	689004	6.6.1	4_exp_EVA_AWA_CON	62	B	A	Rpleas_acq	Oppo	Lpleas	1pleas	conawa_CS1_US4	conawa1_nomask	8	5	0	0	300	300	0	0	6377	schroff	1	-34,6354166666666571928pct	fair	spielen	ehrlich	schlau	treu	schön	faul	strafen	eitel	schroff	tot	schlecht	lachen	freundlich	helfen	retten	tolerant	loyal	leiden	fanatisch	hindern	rächen	tyrannisch	lasch	0	0	0	0	0	0	0	0	0	0	0	0	0	0	0	0	0	0	0	0	0	0	0	0	0	0	0	0	0	0
2024-05-29	15:31:42	15:43:11	689005	6.6.1	4_exp_EVA_AWA_CON	62	B	A	Rpleas_acq	Oppo	Lpleas	1pleas	conawa_CS1_US4_confidence	conawa1_nomask	8	5	0	0	300	300	0	0	6377	guess	1	-34,6354166666666571928pct	fair	spielen	ehrlich	schlau	treu	schön	faul	strafen	eitel	schroff	tot	schlecht	lachen	freundlich	helfen	retten	tolerant	loyal	leiden	fanatisch	hindern	rächen	tyrannisch	lasch	0	0	0	0	0	0	0	0	0	0	0	0	0	0	0	0	0	0	0	0	0	0	0	0	0	0	0	0	0	0
2024-05-29	15:31:42	15:43:16	693867	6.6.1	4_exp_EVA_AWA_CON	62	B	A	Rpleas_acq	Oppo	Lpleas	1pleas	conawa_CS1_US3	conawa1_nomask	8	6	0	0	300	300	0	0	4245	eitel	1	-34,6354166666666571928pct	fair	spielen	ehrlich	schlau	treu	schön	faul	strafen	eitel	schroff	tot	schlecht	lachen	freundlich	helfen	retten	tolerant	loyal	leiden	fanatisch	hindern	rächen	tyrannisch	lasch	0	0	0	0	0	0	0	0	0	0	0	0	0	0	0	0	0	0	0	0	0	0	0	0	0	0	0	0	0	0
2024-05-29	15:31:42	15:43:16	693869	6.6.1	4_exp_EVA_AWA_CON	62	B	A	Rpleas_acq	Oppo	Lpleas	1pleas	conawa_CS1_US3_confidence	conawa1_nomask	8	6	0	0	300	300	0	0	4245	guess	1	-34,6354166666666571928pct	fair	spielen	ehrlich	schlau	treu	schön	faul	strafen	eitel	schroff	tot	schlecht	lachen	freundlich	helfen	retten	tolerant	loyal	leiden	fanatisch	hindern	rächen	tyrannisch	lasch	0	0	0	0	0	0	0	0	0	0	0	0	0	0	0	0	0	0	0	0	0	0	0	0	0	0	0	0	0	0
2024-05-29	15:31:42	15:43:23	700812	6.6.1	4_exp_EVA_AWA_CON	62	B	A	Rpleas_acq	Oppo	Lpleas	1pleas	conawa_CS2_US4	conawa1_nomask	8	7	0	0	300	300	0	0	6327	schroff	1	-34,6354166666666571928pct	fair	spielen	ehrlich	schlau	treu	schön	faul	strafen	eitel	schroff	tot	schlecht	lachen	freundlich	helfen	retten	tolerant	loyal	leiden	fanatisch	hindern	rächen	tyrannisch	lasch	0	0	0	0	0	0	0	0	0	0	0	0	0	0	0	0	0	0	0	0	0	0	0	0	0	0	0	0	0	0
2024-05-29	15:31:42	15:43:23	700814	6.6.1	4_exp_EVA_AWA_CON	62	B	A	Rpleas_acq	Oppo	Lpleas	1pleas	conawa_CS2_US4_confidence	conawa1_nomask	8	7	0	0	300	300	0	0	6327	guess	1	-34,6354166666666571928pct	fair	spielen	ehrlich	schlau	treu	schön	faul	strafen	eitel	schroff	tot	schlecht	lachen	freundlich	helfen	retten	tolerant	loyal	leiden	fanatisch	hindern	rächen	tyrannisch	lasch	0	0	0	0	0	0	0	0	0	0	0	0	0	0	0	0	0	0	0	0	0	0	0	0	0	0	0	0	0	0
2024-05-29	15:31:42	15:43:28	706415	6.6.1	4_exp_EVA_AWA_CON	62	B	A	Rpleas_acq	Oppo	Lpleas	1pleas	conawa_CS2_US6	conawa1_nomask	8	8	0	0	300	300	0	0	4990	leiden	1	-34,6354166666666571928pct	fair	spielen	ehrlich	schlau	treu	schön	faul	strafen	eitel	schroff	tot	schlecht	lachen	freundlich	helfen	retten	tolerant	loyal	leiden	fanatisch	hindern	rächen	tyrannisch	lasch	0	0	0	0	0	0	0	0	0	0	0	0	0	0	0	0	0	0	0	0	0	0	0	0	0	0	0	0	0	0
2024-05-29	15:31:42	15:43:28	706417	6.6.1	4_exp_EVA_AWA_CON	62	B	A	Rpleas_acq	Oppo	Lpleas	1pleas	conawa_CS2_US6_confidence	conawa1_nomask	8	8	0	0	300	300	0	0	4990	guess	1	-34,6354166666666571928pct	fair	spielen	ehrlich	schlau	treu	schön	faul	strafen	eitel	schroff	tot	schlecht	lachen	freundlich	helfen	retten	tolerant	loyal	leiden	fanatisch	hindern	rächen	tyrannisch	lasch	0	0	0	0	0	0	0	0	0	0	0	0	0	0	0	0	0	0	0	0	0	0	0	0	0	0	0	0	0	0
2024-05-29	15:31:42	15:43:35	713280	6.6.1	4_exp_EVA_AWA_CON	62	B	A	Rpleas_acq	Oppo	Lpleas	1pleas	conawa_CS2_US3	conawa1_nomask	8	9	0	0	300	300	0	0	6252	ehrlich	1	-34,6354166666666571928pct	fair	spielen	ehrlich	schlau	treu	schön	faul	strafen	eitel	schroff	tot	schlecht	lachen	freundlich	helfen	retten	tolerant	loyal	leiden	fanatisch	hindern	rächen	tyrannisch	lasch	0	0	0	0	0	0	0	0	0	0	0	0	0	0	0	0	0	0	0	0	0	0	0	0	0	0	0	0	0	0
2024-05-29	15:31:42	15:43:35	713281	6.6.1	4_exp_EVA_AWA_CON	62	B	A	Rpleas_acq	Oppo	Lpleas	1pleas	conawa_CS2_US3_confidence	conawa1_nomask	8	9	0	0	300	300	0	0	6252	guess	1	-34,6354166666666571928pct	fair	spielen	ehrlich	schlau	treu	schön	faul	strafen	eitel	schroff	tot	schlecht	lachen	freundlich	helfen	retten	tolerant	loyal	leiden	fanatisch	hindern	rächen	tyrannisch	lasch	0	0	0	0	0	0	0	0	0	0	0	0	0	0	0	0	0	0	0	0	0	0	0	0	0	0	0	0	0	0
2024-05-29	15:31:42	15:43:41	719154	6.6.1	4_exp_EVA_AWA_CON	62	B	A	Rpleas_acq	Oppo	Lpleas	1pleas	conawa_CS1_US6	conawa1_nomask	8	10	0	0	300	300	0	0	5259	loyal	1	-34,6354166666666571928pct	fair	spielen	ehrlich	schlau	treu	schön	faul	strafen	eitel	schroff	tot	schlecht	lachen	freundlich	helfen	retten	tolerant	loyal	leiden	fanatisch	hindern	rächen	tyrannisch	lasch	0	0	0	0	0	0	0	0	0	0	0	0	0	0	0	0	0	0	0	0	0	0	0	0	0	0	0	0	0	0
2024-05-29	15:31:42	15:43:41	719156	6.6.1	4_exp_EVA_AWA_CON	62	B	A	Rpleas_acq	Oppo	Lpleas	1pleas	conawa_CS1_US6_confidence	conawa1_nomask	8	10	0	0	300	300	0	0	5259	probably	1	-34,6354166666666571928pct	fair	spielen	ehrlich	schlau	treu	schön	faul	strafen	eitel	schroff	tot	schlecht	lachen	freundlich	helfen	retten	tolerant	loyal	leiden	fanatisch	hindern	rächen	tyrannisch	lasch	0	0	0	0	0	0	0	0	0	0	0	0	0	0	0	0	0	0	0	0	0	0	0	0	0	0	0	0	0	0
2024-05-29	15:31:42	15:44:04	741668	6.6.1	4_exp_EVA_AWA_CON	62	B	A	Rpleas_acq	Oppo	Lpleas	1pleas	conawa_CS2_US1	conawa1_nomask	8	11	0	0	300	300	0	0	21897	fanatisch	1	-34,6354166666666571928pct	fair	spielen	ehrlich	schlau	treu	schön	faul	strafen	eitel	schroff	tot	schlecht	lachen	freundlich	helfen	retten	tolerant	loyal	leiden	fanatisch	hindern	rächen	tyrannisch	lasch	0	0	0	0	0	0	0	0	0	0	0	0	0	0	0	0	0	0	0	0	0	0	0	0	0	0	0	0	0	0
2024-05-29	15:31:42	15:44:04	741670	6.6.1	4_exp_EVA_AWA_CON	62	B	A	Rpleas_acq	Oppo	Lpleas	1pleas	conawa_CS2_US1_confidence	conawa1_nomask	8	11	0	0	300	300	0	0	21897	guess	1	-34,6354166666666571928pct	fair	spielen	ehrlich	schlau	treu	schön	faul	strafen	eitel	schroff	tot	schlecht	lachen	freundlich	helfen	retten	tolerant	loyal	leiden	fanatisch	hindern	rächen	tyrannisch	lasch	0	0	0	0	0	0	0	0	0	0	0	0	0	0	0	0	0	0	0	0	0	0	0	0	0	0	0	0	0	0
2024-05-29	15:31:42	15:44:09	746672	6.6.1	4_exp_EVA_AWA_CON	62	B	A	Rpleas_acq	Oppo	Lpleas	1pleas	conawa_CS1_US5	conawa1_nomask	8	12	0	0	300	300	0	0	4389	treu	1	-34,6354166666666571928pct	fair	spielen	ehrlich	schlau	treu	schön	faul	strafen	eitel	schroff	tot	schlecht	lachen	freundlich	helfen	retten	tolerant	loyal	leiden	fanatisch	hindern	rächen	tyrannisch	lasch	0	0	0	0	0	0	0	0	0	0	0	0	0	0	0	0	0	0	0	0	0	0	0	0	0	0	0	0	0	0
2024-05-29	15:31:42	15:44:09	746674	6.6.1	4_exp_EVA_AWA_CON	62	B	A	Rpleas_acq	Oppo	Lpleas	1pleas	conawa_CS1_US5_confidence	conawa1_nomask	8	12	0	0	300	300	0	0	4389	guess	1	-34,6354166666666571928pct	fair	spielen	ehrlich	schlau	treu	schön	faul	strafen	eitel	schroff	tot	schlecht	lachen	freundlich	helfen	retten	tolerant	loyal	leiden	fanatisch	hindern	rächen	tyrannisch	lasch	0	0	0	0	0	0	0	0	0	0	0	0	0	0	0	0	0	0	0	0	0	0	0	0	0	0	0	0	0	0
2024-05-29	15:31:42	15:44:53	790925	6.6.1	4_exp_EVA_AWA_CON	62	B	A	Rpleas_acq	Oppo	Lpleas	1pleas	cond_US_unple_123_nomask_CS2	condtest_nomask_1	11	1	400	1	300	300	0	0	463	50	1	-34,6354166666666571928pct	fair	spielen	ehrlich	schlau	treu	schön	faul	strafen	eitel	schroff	tot	schlecht	lachen	freundlich	helfen	retten	tolerant	loyal	leiden	fanatisch	hindern	rächen	tyrannisch	lasch	1	blank2r.bmp	0	1	+	0	1	blank2r.bmp	500	1	GKQX	500	1	blank2r.bmp	880	3	strafen	880	1	!	1232	1	!	1364	0	0	0	0	0	0
2024-05-29	15:31:42	15:44:55	793093	6.6.1	4_exp_EVA_AWA_CON	62	B	A	Rpleas_acq	Oppo	Lpleas	1pleas	cond_new_unple_456_nomask_CS1	condtest_nomask_1	11	2	400	1	300	300	0	0	389	46	0	-34,6354166666666571928pct	fair	spielen	ehrlich	schlau	treu	schön	faul	strafen	eitel	schroff	tot	schlecht	lachen	freundlich	helfen	retten	tolerant	loyal	leiden	fanatisch	hindern	rächen	tyrannisch	lasch	1	blank2r.bmp	0	1	+	0	1	blank2r.bmp	500	1	BMVZ	500	1	blank2r.bmp	880	1	rächen	880	1	!	1233	1	!	1290	0	0	0	0	0	0
2024-05-29	15:31:42	15:44:57	795285	6.6.1	4_exp_EVA_AWA_CON	62	B	A	Rpleas_acq	Oppo	Lpleas	1pleas	cond_US_pleas_123_nomask_CS2	condtest_nomask_1	11	3	400	1	300	300	0	0	410	46	1	-34,6354166666666571928pct	fair	spielen	ehrlich	schlau	treu	schön	faul	strafen	eitel	schroff	tot	schlecht	lachen	freundlich	helfen	retten	tolerant	loyal	leiden	fanatisch	hindern	rächen	tyrannisch	lasch	1	blank2r.bmp	0	1	+	0	1	blank2r.bmp	500	1	GKQX	500	1	blank2r.bmp	880	3	spielen	880	1	!	1232	1	!	1311	0	0	0	0	0	0
2024-05-29	15:31:42	15:44:59	797429	6.6.1	4_exp_EVA_AWA_CON	62	B	A	Rpleas_acq	Oppo	Lpleas	1pleas	cond_US_unple_123_nomask_CS1	condtest_nomask_1	11	4	400	1	300	300	0	0	362	46	0	-34,6354166666666571928pct	fair	spielen	ehrlich	schlau	treu	schön	faul	strafen	eitel	schroff	tot	schlecht	lachen	freundlich	helfen	retten	tolerant	loyal	leiden	fanatisch	hindern	rächen	tyrannisch	lasch	1	blank2r.bmp	0	1	+	0	1	blank2r.bmp	500	1	BMVZ	500	1	blank2r.bmp	880	3	eitel	880	1	!	1233	1	!	1264	0	0	0	0	0	0
2024-05-29	15:31:42	15:45:02	799859	6.6.1	4_exp_EVA_AWA_CON	62	B	A	Rpleas_acq	Oppo	Lpleas	1pleas	cond_new_unple_456_nomask_CS2	condtest_nomask_1	11	5	400	0	300	300	0	0	653	50	1	-34,6354166666666571928pct	fair	spielen	ehrlich	schlau	treu	schön	faul	strafen	eitel	schroff	tot	schlecht	lachen	freundlich	helfen	retten	tolerant	loyal	leiden	fanatisch	hindern	rächen	tyrannisch	lasch	1	blank2r.bmp	0	1	+	0	1	blank2r.bmp	500	1	GKQX	500	1	blank2r.bmp	880	1	lasch	880	1	!	1232	1	!	-1	0	0	0	0	0	0
2024-05-29	15:31:42	15:45:04	802053	6.6.1	4_exp_EVA_AWA_CON	62	B	A	Rpleas_acq	Oppo	Lpleas	1pleas	cond_new_pleas_456_nomask_CS2	condtest_nomask_1	11	6	400	1	300	300	0	0	413	50	0	-34,6354166666666571928pct	fair	spielen	ehrlich	schlau	treu	schön	faul	strafen	eitel	schroff	tot	schlecht	lachen	freundlich	helfen	retten	tolerant	loyal	leiden	fanatisch	hindern	rächen	tyrannisch	lasch	1	blank2r.bmp	0	1	+	0	1	blank2r.bmp	500	1	GKQX	500	1	blank2r.bmp	880	2	retten	880	1	!	1233	1	!	1314	0	0	0	0	0	0
2024-05-29	15:31:42	15:45:06	804277	6.6.1	4_exp_EVA_AWA_CON	62	B	A	Rpleas_acq	Oppo	Lpleas	1pleas	cond_US_pleas_123_nomask_CS1	condtest_nomask_1	11	7	400	1	300	300	0	0	446	46	1	-34,6354166666666571928pct	fair	spielen	ehrlich	schlau	treu	schön	faul	strafen	eitel	schroff	tot	schlecht	lachen	freundlich	helfen	retten	tolerant	loyal	leiden	fanatisch	hindern	rächen	tyrannisch	lasch	1	blank2r.bmp	0	1	+	0	1	blank2r.bmp	500	1	BMVZ	500	1	blank2r.bmp	880	3	ehrlich	880	1	!	1232	1	!	1347	0	0	0	0	0	0
2024-05-29	15:31:42	15:45:08	806421	6.6.1	4_exp_EVA_AWA_CON	62	B	A	Rpleas_acq	Oppo	Lpleas	1pleas	cond_new_pleas_456_nomask_CS1	condtest_nomask_1	11	8	400	1	300	300	0	0	369	50	0	-34,6354166666666571928pct	fair	spielen	ehrlich	schlau	treu	schön	faul	strafen	eitel	schroff	tot	schlecht	lachen	freundlich	helfen	retten	tolerant	loyal	leiden	fanatisch	hindern	rächen	tyrannisch	lasch	1	blank2r.bmp	0	1	+	0	1	blank2r.bmp	500	1	BMVZ	500	1	blank2r.bmp	880	2	tolerant	880	1	!	1232	1	!	1270	0	0	0	0	0	0
2024-05-29	15:31:42	15:45:17	814677	6.6.1	4_exp_EVA_AWA_CON	62	B	A	Rpleas_acq	Oppo	Lpleas	1pleas	cond_new_unple_456_nomask_CS2	condtest_nomask_2	12	1	400	1	300	300	0	0	469	50	1	-34,6354166666666571928pct	fair	spielen	ehrlich	schlau	treu	schön	faul	strafen	eitel	schroff	tot	schlecht	lachen	freundlich	helfen	retten	tolerant	loyal	leiden	fanatisch	hindern	rächen	tyrannisch	lasch	1	blank2r.bmp	0	1	+	0	1	blank2r.bmp	500	1	GKQX	500	1	blank2r.bmp	880	3	tyrannisch	880	1	!	1232	1	!	1370	0	0	0	0	0	0
