date	time	currenttime	elapsedtime	build	currentexpt	subject	CS_AB	US_AB	LRpleas_acq	SameOppo	condition_Lpleas	condition_1pleas	trialcode	blockcode	blocknum	trialnum	windowcenter	inwindow	pretrialpause	posttrialpause	trialduration	trialtimeout	latency	response	correct	correctedscore	US_nomask_pleas1	US_nomask_pleas2	US_nomask_pleas3	US_nomask_pleas4	US_nomask_pleas5	US_nomask_pleas6	US_nomask_unple1	US_nomask_unple2	US_nomask_unple3	US_nomask_unple4	US_nomask_unple5	US_nomask_unple6	new_nomask_pleas1	new_nomask_pleas2	new_nomask_pleas3	new_nomask_pleas4	new_nomask_pleas5	new_nomask_pleas6	new_nomask_unple1	new_nomask_unple2	new_nomask_unple3	new_nomask_unple4	new_nomask_unple5	new_nomask_unple6	stimulusnumber1	stimulusitem1	stimulusonset1	stimulusnumber2	stimulusitem2	stimulusonset2	stimulusnumber3	stimulusitem3	stimulusonset3	stimulusnumber4	stimulusitem4	stimulusonset4	stimulusnumber5	stimulusitem5	stimulusonset5	stimulusnumber6	stimulusitem6	stimulusonset6	stimulusnumber7	stimulusitem7	stimulusonset7	stimulusnumber8	stimulusitem8	stimulusonset8	stimulusnumber9	stimulusitem9	stimulusonset9	stimulusnumber10	stimulusitem10	stimulusonset10
2024-05-02	12:50:12	12:53:00	167245	6.6.1	4_exp_EVA_AWA_CON	12	B	A	Rpleas_acq	Oppo	Rpleas	2pleas	acq_US_unple_nomask	acq1_nomask	1	1	0	0	300	300	0	0	1500	50	0	0	schön	freundlich	schlau	tolerant	lachen	treu	schlecht	fanatisch	schroff	tyrannisch	leiden	tot	loyal	retten	helfen	ehrlich	spielen	fair	lasch	rächen	hindern	eitel	strafen	faul	1	blank2r.bmp	1	1	+	1	1	blank2r.bmp	500	1	BMVZ	500	1	blank2r.bmp	880	4	tyrannisch	880	1	FEHLER	2403	0	0	0	0	0	0	0	0	0
2024-05-02	12:50:12	12:53:02	169570	6.6.1	4_exp_EVA_AWA_CON	12	B	A	Rpleas_acq	Oppo	Rpleas	2pleas	acq_new_unple_nomask	acq1_nomask	1	2	0	0	300	300	0	0	1045	46	1	0	schön	freundlich	schlau	tolerant	lachen	treu	schlecht	fanatisch	schroff	tyrannisch	leiden	tot	loyal	retten	helfen	ehrlich	spielen	fair	lasch	rächen	hindern	eitel	strafen	faul	1	blank2r.bmp	0	1	+	0	1	blank2r.bmp	500	2	B2r.bmp	500	1	blank2r.bmp	880	6	faul	880	0	0	0	0	0	0	0	0	0	0	0	0
2024-05-02	12:50:12	12:53:04	171939	6.6.1	4_exp_EVA_AWA_CON	12	B	A	Rpleas_acq	Oppo	Rpleas	2pleas	acq_new_unple_nomask	acq1_nomask	1	3	0	0	300	300	0	0	883	46	1	0	schön	freundlich	schlau	tolerant	lachen	treu	schlecht	fanatisch	schroff	tyrannisch	leiden	tot	loyal	retten	helfen	ehrlich	spielen	fair	lasch	rächen	hindern	eitel	strafen	faul	1	blank2r.bmp	0	1	+	0	1	blank2r.bmp	500	5	C1r.bmp	500	1	blank2r.bmp	880	4	eitel	880	0	0	0	0	0	0	0	0	0	0	0	0
2024-05-02	12:50:12	12:53:07	174179	6.6.1	4_exp_EVA_AWA_CON	12	B	A	Rpleas_acq	Oppo	Rpleas	2pleas	acq_new_pleas_nomask	acq1_nomask	1	4	0	0	300	300	0	0	751	50	1	0	schön	freundlich	schlau	tolerant	lachen	treu	schlecht	fanatisch	schroff	tyrannisch	leiden	tot	loyal	retten	helfen	ehrlich	spielen	fair	lasch	rächen	hindern	eitel	strafen	faul	1	blank2r.bmp	0	1	+	0	1	blank2r.bmp	500	7	C3r.bmp	500	1	blank2r.bmp	880	2	retten	880	0	0	0	0	0	0	0	0	0	0	0	0
2024-05-02	12:50:12	12:53:09	176466	6.6.1	4_exp_EVA_AWA_CON	12	B	A	Rpleas_acq	Oppo	Rpleas	2pleas	acq_US_unple_nomask	acq1_nomask	1	5	0	0	300	300	0	0	808	46	1	0	schön	freundlich	schlau	tolerant	lachen	treu	schlecht	fanatisch	schroff	tyrannisch	leiden	tot	loyal	retten	helfen	ehrlich	spielen	fair	lasch	rächen	hindern	eitel	strafen	faul	1	blank2r.bmp	0	1	+	0	1	blank2r.bmp	500	1	BMVZ	500	1	blank2r.bmp	880	6	tot	880	0	0	0	0	0	0	0	0	0	0	0	0
2024-05-02	12:50:12	12:53:12	179074	6.6.1	4_exp_EVA_AWA_CON	12	B	A	Rpleas_acq	Oppo	Rpleas	2pleas	acq_US_unple_nomask	acq1_nomask	1	6	0	0	300	300	0	0	1124	46	1	0	schön	freundlich	schlau	tolerant	lachen	treu	schlecht	fanatisch	schroff	tyrannisch	leiden	tot	loyal	retten	helfen	ehrlich	spielen	fair	lasch	rächen	hindern	eitel	strafen	faul	1	blank2r.bmp	0	1	+	0	1	blank2r.bmp	500	1	BMVZ	500	1	blank2r.bmp	880	5	leiden	880	0	0	0	0	0	0	0	0	0	0	0	0
2024-05-02	12:50:12	12:53:14	181162	6.6.1	4_exp_EVA_AWA_CON	12	B	A	Rpleas_acq	Oppo	Rpleas	2pleas	acq_US_pleas_nomask	acq1_nomask	1	7	0	0	300	300	0	0	601	50	1	0	schön	freundlich	schlau	tolerant	lachen	treu	schlecht	fanatisch	schroff	tyrannisch	leiden	tot	loyal	retten	helfen	ehrlich	spielen	fair	lasch	rächen	hindern	eitel	strafen	faul	1	blank2r.bmp	0	1	+	0	1	blank2r.bmp	500	1	GKQX	500	1	blank2r.bmp	880	5	lachen	880	0	0	0	0	0	0	0	0	0	0	0	0
2024-05-02	12:50:12	12:53:16	183250	6.6.1	4_exp_EVA_AWA_CON	12	B	A	Rpleas_acq	Oppo	Rpleas	2pleas	acq_US_pleas_nomask	acq1_nomask	1	8	0	0	300	300	0	0	607	50	1	0	schön	freundlich	schlau	tolerant	lachen	treu	schlecht	fanatisch	schroff	tyrannisch	leiden	tot	loyal	retten	helfen	ehrlich	spielen	fair	lasch	rächen	hindern	eitel	strafen	faul	1	blank2r.bmp	0	1	+	0	1	blank2r.bmp	500	1	GKQX	500	1	blank2r.bmp	880	1	schön	880	0	0	0	0	0	0	0	0	0	0	0	0
2024-05-02	12:50:12	12:53:18	185539	6.6.1	4_exp_EVA_AWA_CON	12	B	A	Rpleas_acq	Oppo	Rpleas	2pleas	acq_new_unple_nomask	acq1_nomask	1	9	0	0	300	300	0	0	804	46	1	0	schön	freundlich	schlau	tolerant	lachen	treu	schlecht	fanatisch	schroff	tyrannisch	leiden	tot	loyal	retten	helfen	ehrlich	spielen	fair	lasch	rächen	hindern	eitel	strafen	faul	1	blank2r.bmp	0	1	+	0	1	blank2r.bmp	500	4	B4r.bmp	500	1	blank2r.bmp	880	3	hindern	880	0	0	0	0	0	0	0	0	0	0	0	0
2024-05-02	12:50:12	12:53:20	187715	6.6.1	4_exp_EVA_AWA_CON	12	B	A	Rpleas_acq	Oppo	Rpleas	2pleas	acq_new_pleas_nomask	acq1_nomask	1	10	0	0	300	300	0	0	688	50	1	0	schön	freundlich	schlau	tolerant	lachen	treu	schlecht	fanatisch	schroff	tyrannisch	leiden	tot	loyal	retten	helfen	ehrlich	spielen	fair	lasch	rächen	hindern	eitel	strafen	faul	1	blank2r.bmp	0	1	+	0	1	blank2r.bmp	500	8	C4r.bmp	500	1	blank2r.bmp	880	4	ehrlich	880	0	0	0	0	0	0	0	0	0	0	0	0
2024-05-02	12:50:12	12:53:22	190012	6.6.1	4_exp_EVA_AWA_CON	12	B	A	Rpleas_acq	Oppo	Rpleas	2pleas	acq_new_pleas_nomask	acq1_nomask	1	11	0	0	300	300	0	0	613	46	0	0	schön	freundlich	schlau	tolerant	lachen	treu	schlecht	fanatisch	schroff	tyrannisch	leiden	tot	loyal	retten	helfen	ehrlich	spielen	fair	lasch	rächen	hindern	eitel	strafen	faul	1	blank2r.bmp	0	1	+	0	1	blank2r.bmp	500	1	B1r.bmp	500	1	blank2r.bmp	880	1	loyal	880	1	FEHLER	1514	0	0	0	0	0	0	0	0	0
2024-05-02	12:50:12	12:53:24	191979	6.6.1	4_exp_EVA_AWA_CON	12	B	A	Rpleas_acq	Oppo	Rpleas	2pleas	acq_US_pleas_nomask	acq1_nomask	1	12	0	0	300	300	0	0	680	50	1	0	schön	freundlich	schlau	tolerant	lachen	treu	schlecht	fanatisch	schroff	tyrannisch	leiden	tot	loyal	retten	helfen	ehrlich	spielen	fair	lasch	rächen	hindern	eitel	strafen	faul	1	blank2r.bmp	0	1	+	0	1	blank2r.bmp	500	1	GKQX	500	1	blank2r.bmp	880	3	schlau	880	0	0	0	0	0	0	0	0	0	0	0	0
2024-05-02	12:50:12	12:53:27	194235	6.6.1	4_exp_EVA_AWA_CON	12	B	A	Rpleas_acq	Oppo	Rpleas	2pleas	acq_US_unple_nomask	acq1_nomask	1	13	0	0	300	300	0	0	774	46	1	0	schön	freundlich	schlau	tolerant	lachen	treu	schlecht	fanatisch	schroff	tyrannisch	leiden	tot	loyal	retten	helfen	ehrlich	spielen	fair	lasch	rächen	hindern	eitel	strafen	faul	1	blank2r.bmp	0	1	+	0	1	blank2r.bmp	500	1	BMVZ	500	1	blank2r.bmp	880	1	schlecht	880	0	0	0	0	0	0	0	0	0	0	0	0
2024-05-02	12:50:12	12:53:29	196907	6.6.1	4_exp_EVA_AWA_CON	12	B	A	Rpleas_acq	Oppo	Rpleas	2pleas	acq_new_unple_nomask	acq1_nomask	1	14	0	0	300	300	0	0	1185	46	1	0	schön	freundlich	schlau	tolerant	lachen	treu	schlecht	fanatisch	schroff	tyrannisch	leiden	tot	loyal	retten	helfen	ehrlich	spielen	fair	lasch	rächen	hindern	eitel	strafen	faul	1	blank2r.bmp	0	1	+	0	1	blank2r.bmp	500	3	B3r.bmp	500	1	blank2r.bmp	880	2	rächen	880	0	0	0	0	0	0	0	0	0	0	0	0
2024-05-02	12:50:12	12:53:32	199059	6.6.1	4_exp_EVA_AWA_CON	12	B	A	Rpleas_acq	Oppo	Rpleas	2pleas	acq_new_pleas_nomask	acq1_nomask	1	15	0	0	300	300	0	0	665	50	1	0	schön	freundlich	schlau	tolerant	lachen	treu	schlecht	fanatisch	schroff	tyrannisch	leiden	tot	loyal	retten	helfen	ehrlich	spielen	fair	lasch	rächen	hindern	eitel	strafen	faul	1	blank2r.bmp	0	1	+	0	1	blank2r.bmp	500	6	C2r.bmp	500	1	blank2r.bmp	880	6	fair	880	0	0	0	0	0	0	0	0	0	0	0	0
2024-05-02	12:50:12	12:53:34	201643	6.6.1	4_exp_EVA_AWA_CON	12	B	A	Rpleas_acq	Oppo	Rpleas	2pleas	acq_new_pleas_nomask	acq1_nomask	1	16	0	0	300	300	0	0	1098	50	1	0	schön	freundlich	schlau	tolerant	lachen	treu	schlecht	fanatisch	schroff	tyrannisch	leiden	tot	loyal	retten	helfen	ehrlich	spielen	fair	lasch	rächen	hindern	eitel	strafen	faul	1	blank2r.bmp	0	1	+	0	1	blank2r.bmp	500	6	C2r.bmp	500	1	blank2r.bmp	880	5	spielen	880	0	0	0	0	0	0	0	0	0	0	0	0
2024-05-02	12:50:12	12:53:36	203731	6.6.1	4_exp_EVA_AWA_CON	12	B	A	Rpleas_acq	Oppo	Rpleas	2pleas	acq_new_unple_nomask	acq1_nomask	1	17	0	0	300	300	0	0	604	46	1	0	schön	freundlich	schlau	tolerant	lachen	treu	schlecht	fanatisch	schroff	tyrannisch	leiden	tot	loyal	retten	helfen	ehrlich	spielen	fair	lasch	rächen	hindern	eitel	strafen	faul	1	blank2r.bmp	0	1	+	0	1	blank2r.bmp	500	8	C4r.bmp	500	1	blank2r.bmp	880	5	strafen	880	0	0	0	0	0	0	0	0	0	0	0	0
2024-05-02	12:50:12	12:53:38	205939	6.6.1	4_exp_EVA_AWA_CON	12	B	A	Rpleas_acq	Oppo	Rpleas	2pleas	acq_US_unple_nomask	acq1_nomask	1	18	0	0	300	300	0	0	721	46	1	0	schön	freundlich	schlau	tolerant	lachen	treu	schlecht	fanatisch	schroff	tyrannisch	leiden	tot	loyal	retten	helfen	ehrlich	spielen	fair	lasch	rächen	hindern	eitel	strafen	faul	1	blank2r.bmp	0	1	+	0	1	blank2r.bmp	500	1	BMVZ	500	1	blank2r.bmp	880	3	schroff	880	0	0	0	0	0	0	0	0	0	0	0	0
2024-05-02	12:50:12	12:53:41	208091	6.6.1	4_exp_EVA_AWA_CON	12	B	A	Rpleas_acq	Oppo	Rpleas	2pleas	acq_new_unple_nomask	acq1_nomask	1	19	0	0	300	300	0	0	671	46	1	0	schön	freundlich	schlau	tolerant	lachen	treu	schlecht	fanatisch	schroff	tyrannisch	leiden	tot	loyal	retten	helfen	ehrlich	spielen	fair	lasch	rächen	hindern	eitel	strafen	faul	1	blank2r.bmp	0	1	+	0	1	blank2r.bmp	500	3	B3r.bmp	500	1	blank2r.bmp	880	1	lasch	880	0	0	0	0	0	0	0	0	0	0	0	0
2024-05-02	12:50:12	12:53:43	210291	6.6.1	4_exp_EVA_AWA_CON	12	B	A	Rpleas_acq	Oppo	Rpleas	2pleas	acq_US_pleas_nomask	acq1_nomask	1	20	0	0	300	300	0	0	710	50	1	0	schön	freundlich	schlau	tolerant	lachen	treu	schlecht	fanatisch	schroff	tyrannisch	leiden	tot	loyal	retten	helfen	ehrlich	spielen	fair	lasch	rächen	hindern	eitel	strafen	faul	1	blank2r.bmp	0	1	+	0	1	blank2r.bmp	500	1	GKQX	500	1	blank2r.bmp	880	6	treu	880	0	0	0	0	0	0	0	0	0	0	0	0
2024-05-02	12:50:12	12:53:45	212667	6.6.1	4_exp_EVA_AWA_CON	12	B	A	Rpleas_acq	Oppo	Rpleas	2pleas	acq_US_unple_nomask	acq1_nomask	1	21	0	0	300	300	0	0	894	46	1	0	schön	freundlich	schlau	tolerant	lachen	treu	schlecht	fanatisch	schroff	tyrannisch	leiden	tot	loyal	retten	helfen	ehrlich	spielen	fair	lasch	rächen	hindern	eitel	strafen	faul	1	blank2r.bmp	0	1	+	0	1	blank2r.bmp	500	1	BMVZ	500	1	blank2r.bmp	880	2	fanatisch	880	0	0	0	0	0	0	0	0	0	0	0	0
2024-05-02	12:50:12	12:53:47	214877	6.6.1	4_exp_EVA_AWA_CON	12	B	A	Rpleas_acq	Oppo	Rpleas	2pleas	acq_US_pleas_nomask	acq1_nomask	1	22	0	0	300	300	0	0	521	46	0	0	schön	freundlich	schlau	tolerant	lachen	treu	schlecht	fanatisch	schroff	tyrannisch	leiden	tot	loyal	retten	helfen	ehrlich	spielen	fair	lasch	rächen	hindern	eitel	strafen	faul	1	blank2r.bmp	0	1	+	0	1	blank2r.bmp	500	1	GKQX	500	1	blank2r.bmp	880	4	tolerant	880	1	FEHLER	1423	0	0	0	0	0	0	0	0	0
2024-05-02	12:50:12	12:53:49	216811	6.6.1	4_exp_EVA_AWA_CON	12	B	A	Rpleas_acq	Oppo	Rpleas	2pleas	acq_US_pleas_nomask	acq1_nomask	1	23	0	0	300	300	0	0	646	50	1	0	schön	freundlich	schlau	tolerant	lachen	treu	schlecht	fanatisch	schroff	tyrannisch	leiden	tot	loyal	retten	helfen	ehrlich	spielen	fair	lasch	rächen	hindern	eitel	strafen	faul	1	blank2r.bmp	0	1	+	0	1	blank2r.bmp	500	1	GKQX	500	1	blank2r.bmp	880	2	freundlich	880	0	0	0	0	0	0	0	0	0	0	0	0
2024-05-02	12:50:12	12:53:52	219349	6.6.1	4_exp_EVA_AWA_CON	12	B	A	Rpleas_acq	Oppo	Rpleas	2pleas	acq_new_pleas_nomask	acq1_nomask	1	24	0	0	300	300	0	0	1050	50	1	0	schön	freundlich	schlau	tolerant	lachen	treu	schlecht	fanatisch	schroff	tyrannisch	leiden	tot	loyal	retten	helfen	ehrlich	spielen	fair	lasch	rächen	hindern	eitel	strafen	faul	1	blank2r.bmp	0	1	+	0	1	blank2r.bmp	511	5	C1r.bmp	511	1	blank2r.bmp	880	3	helfen	880	0	0	0	0	0	0	0	0	0	0	0	0
2024-05-02	12:50:12	12:53:54	221827	6.6.1	4_exp_EVA_AWA_CON	12	B	A	Rpleas_acq	Oppo	Rpleas	2pleas	acq_US_unple_nomask	acq1_nomask	1	25	0	0	300	300	0	0	999	46	1	0	schön	freundlich	schlau	tolerant	lachen	treu	schlecht	fanatisch	schroff	tyrannisch	leiden	tot	loyal	retten	helfen	ehrlich	spielen	fair	lasch	rächen	hindern	eitel	strafen	faul	1	blank2r.bmp	0	1	+	0	1	blank2r.bmp	500	1	BMVZ	500	1	blank2r.bmp	880	3	schroff	880	0	0	0	0	0	0	0	0	0	0	0	0
2024-05-02	12:50:12	12:53:57	224756	6.6.1	4_exp_EVA_AWA_CON	12	B	A	Rpleas_acq	Oppo	Rpleas	2pleas	acq_US_pleas_nomask	acq1_nomask	1	26	0	0	300	300	0	0	1245	46	0	0	schön	freundlich	schlau	tolerant	lachen	treu	schlecht	fanatisch	schroff	tyrannisch	leiden	tot	loyal	retten	helfen	ehrlich	spielen	fair	lasch	rächen	hindern	eitel	strafen	faul	1	blank2r.bmp	0	1	+	0	1	blank2r.bmp	500	1	GKQX	500	1	blank2r.bmp	880	4	tolerant	880	1	FEHLER	2146	0	0	0	0	0	0	0	0	0
2024-05-02	12:50:12	12:53:59	226675	6.6.1	4_exp_EVA_AWA_CON	12	B	A	Rpleas_acq	Oppo	Rpleas	2pleas	acq_new_pleas_nomask	acq1_nomask	1	27	0	0	300	300	0	0	633	50	1	0	schön	freundlich	schlau	tolerant	lachen	treu	schlecht	fanatisch	schroff	tyrannisch	leiden	tot	loyal	retten	helfen	ehrlich	spielen	fair	lasch	rächen	hindern	eitel	strafen	faul	1	blank2r.bmp	0	1	+	0	1	blank2r.bmp	500	4	B4r.bmp	500	1	blank2r.bmp	880	3	helfen	880	0	0	0	0	0	0	0	0	0	0	0	0
2024-05-02	12:50:12	12:54:01	228835	6.6.1	4_exp_EVA_AWA_CON	12	B	A	Rpleas_acq	Oppo	Rpleas	2pleas	acq_new_pleas_nomask	acq1_nomask	1	28	0	0	300	300	0	0	672	50	1	0	schön	freundlich	schlau	tolerant	lachen	treu	schlecht	fanatisch	schroff	tyrannisch	leiden	tot	loyal	retten	helfen	ehrlich	spielen	fair	lasch	rächen	hindern	eitel	strafen	faul	1	blank2r.bmp	0	1	+	0	1	blank2r.bmp	500	7	C3r.bmp	500	1	blank2r.bmp	880	2	retten	880	0	0	0	0	0	0	0	0	0	0	0	0
2024-05-02	12:50:12	12:54:03	231003	6.6.1	4_exp_EVA_AWA_CON	12	B	A	Rpleas_acq	Oppo	Rpleas	2pleas	acq_new_unple_nomask	acq1_nomask	1	29	0	0	300	300	0	0	678	46	1	0	schön	freundlich	schlau	tolerant	lachen	treu	schlecht	fanatisch	schroff	tyrannisch	leiden	tot	loyal	retten	helfen	ehrlich	spielen	fair	lasch	rächen	hindern	eitel	strafen	faul	1	blank2r.bmp	0	1	+	0	1	blank2r.bmp	500	1	B1r.bmp	500	1	blank2r.bmp	880	3	hindern	880	0	0	0	0	0	0	0	0	0	0	0	0
2024-05-02	12:50:12	12:54:06	233459	6.6.1	4_exp_EVA_AWA_CON	12	B	A	Rpleas_acq	Oppo	Rpleas	2pleas	acq_US_unple_nomask	acq1_nomask	1	30	0	0	300	300	0	0	973	46	1	0	schön	freundlich	schlau	tolerant	lachen	treu	schlecht	fanatisch	schroff	tyrannisch	leiden	tot	loyal	retten	helfen	ehrlich	spielen	fair	lasch	rächen	hindern	eitel	strafen	faul	1	blank2r.bmp	0	1	+	0	1	blank2r.bmp	500	1	BMVZ	500	1	blank2r.bmp	880	2	fanatisch	880	0	0	0	0	0	0	0	0	0	0	0	0
2024-05-02	12:50:12	12:54:08	235523	6.6.1	4_exp_EVA_AWA_CON	12	B	A	Rpleas_acq	Oppo	Rpleas	2pleas	acq_US_pleas_nomask	acq1_nomask	1	31	0	0	300	300	0	0	575	50	1	0	schön	freundlich	schlau	tolerant	lachen	treu	schlecht	fanatisch	schroff	tyrannisch	leiden	tot	loyal	retten	helfen	ehrlich	spielen	fair	lasch	rächen	hindern	eitel	strafen	faul	1	blank2r.bmp	0	1	+	0	1	blank2r.bmp	500	1	GKQX	500	1	blank2r.bmp	880	5	lachen	880	0	0	0	0	0	0	0	0	0	0	0	0
2024-05-02	12:50:12	12:54:10	238043	6.6.1	4_exp_EVA_AWA_CON	12	B	A	Rpleas_acq	Oppo	Rpleas	2pleas	acq_US_unple_nomask	acq1_nomask	1	32	0	0	300	300	0	0	1034	46	1	0	schön	freundlich	schlau	tolerant	lachen	treu	schlecht	fanatisch	schroff	tyrannisch	leiden	tot	loyal	retten	helfen	ehrlich	spielen	fair	lasch	rächen	hindern	eitel	strafen	faul	1	blank2r.bmp	0	1	+	0	1	blank2r.bmp	500	1	BMVZ	500	1	blank2r.bmp	880	5	leiden	880	0	0	0	0	0	0	0	0	0	0	0	0
2024-05-02	12:50:12	12:54:13	240091	6.6.1	4_exp_EVA_AWA_CON	12	B	A	Rpleas_acq	Oppo	Rpleas	2pleas	acq_new_pleas_nomask	acq1_nomask	1	33	0	0	300	300	0	0	560	50	1	0	schön	freundlich	schlau	tolerant	lachen	treu	schlecht	fanatisch	schroff	tyrannisch	leiden	tot	loyal	retten	helfen	ehrlich	spielen	fair	lasch	rächen	hindern	eitel	strafen	faul	1	blank2r.bmp	0	1	+	0	1	blank2r.bmp	500	2	B2r.bmp	500	1	blank2r.bmp	880	4	ehrlich	880	0	0	0	0	0	0	0	0	0	0	0	0
2024-05-02	12:50:12	12:54:15	242731	6.6.1	4_exp_EVA_AWA_CON	12	B	A	Rpleas_acq	Oppo	Rpleas	2pleas	acq_new_unple_nomask	acq1_nomask	1	34	0	0	300	300	0	0	1159	46	1	0	schön	freundlich	schlau	tolerant	lachen	treu	schlecht	fanatisch	schroff	tyrannisch	leiden	tot	loyal	retten	helfen	ehrlich	spielen	fair	lasch	rächen	hindern	eitel	strafen	faul	1	blank2r.bmp	0	1	+	0	1	blank2r.bmp	500	6	C2r.bmp	500	1	blank2r.bmp	880	6	faul	880	0	0	0	0	0	0	0	0	0	0	0	0
2024-05-02	12:50:12	12:54:17	244779	6.6.1	4_exp_EVA_AWA_CON	12	B	A	Rpleas_acq	Oppo	Rpleas	2pleas	acq_US_pleas_nomask	acq1_nomask	1	35	0	0	300	300	0	0	565	50	1	0	schön	freundlich	schlau	tolerant	lachen	treu	schlecht	fanatisch	schroff	tyrannisch	leiden	tot	loyal	retten	helfen	ehrlich	spielen	fair	lasch	rächen	hindern	eitel	strafen	faul	1	blank2r.bmp	0	1	+	0	1	blank2r.bmp	500	1	GKQX	500	1	blank2r.bmp	880	1	schön	880	0	0	0	0	0	0	0	0	0	0	0	0
2024-05-02	12:50:12	12:54:19	246796	6.6.1	4_exp_EVA_AWA_CON	12	B	A	Rpleas_acq	Oppo	Rpleas	2pleas	acq_new_unple_nomask	acq1_nomask	1	36	0	0	300	300	0	0	530	46	1	0	schön	freundlich	schlau	tolerant	lachen	treu	schlecht	fanatisch	schroff	tyrannisch	leiden	tot	loyal	retten	helfen	ehrlich	spielen	fair	lasch	rächen	hindern	eitel	strafen	faul	1	blank2r.bmp	0	1	+	0	1	blank2r.bmp	500	5	C1r.bmp	500	1	blank2r.bmp	880	5	strafen	880	0	0	0	0	0	0	0	0	0	0	0	0
2024-05-02	12:50:12	12:55:05	292789	6.6.1	4_exp_EVA_AWA_CON	12	B	A	Rpleas_acq	Oppo	Rpleas	2pleas	acq_US_pleas_nomask	acq2_nomask	2	1	480	0	300	300	0	0	1285	50	1	0	schön	freundlich	schlau	tolerant	lachen	treu	schlecht	fanatisch	schroff	tyrannisch	leiden	tot	loyal	retten	helfen	ehrlich	spielen	fair	lasch	rächen	hindern	eitel	strafen	faul	1	blank2r.bmp	0	1	+	0	1	blank2r.bmp	500	1	GKQX	500	1	blank2r.bmp	880	3	schlau	880	1	!	1313	1	!	-1	0	0	0	0	0	0
2024-05-02	12:50:12	12:55:08	295173	6.6.1	4_exp_EVA_AWA_CON	12	B	A	Rpleas_acq	Oppo	Rpleas	2pleas	acq_US_unple_nomask	acq2_nomask	2	2	480	0	300	300	0	0	607	46	1	0	schön	freundlich	schlau	tolerant	lachen	treu	schlecht	fanatisch	schroff	tyrannisch	leiden	tot	loyal	retten	helfen	ehrlich	spielen	fair	lasch	rächen	hindern	eitel	strafen	faul	1	blank2r.bmp	0	1	+	0	1	blank2r.bmp	500	1	BMVZ	500	1	blank2r.bmp	880	4	tyrannisch	880	1	!	1313	1	!	-1	0	0	0	0	0	0
2024-05-02	12:50:12	12:55:10	297525	6.6.1	4_exp_EVA_AWA_CON	12	B	A	Rpleas_acq	Oppo	Rpleas	2pleas	acq_new_pleas_nomask	acq2_nomask	2	3	480	0	300	300	0	0	577	50	1	0	schön	freundlich	schlau	tolerant	lachen	treu	schlecht	fanatisch	schroff	tyrannisch	leiden	tot	loyal	retten	helfen	ehrlich	spielen	fair	lasch	rächen	hindern	eitel	strafen	faul	1	blank2r.bmp	0	1	+	0	1	blank2r.bmp	500	4	B4r.bmp	500	1	blank2r.bmp	880	5	spielen	880	1	!	1313	1	!	-1	0	0	0	0	0	0
2024-05-02	12:50:12	12:55:12	299856	6.6.1	4_exp_EVA_AWA_CON	12	B	A	Rpleas_acq	Oppo	Rpleas	2pleas	acq_new_pleas_nomask	acq2_nomask	2	4	480	0	300	300	0	0	354	46	0	0	schön	freundlich	schlau	tolerant	lachen	treu	schlecht	fanatisch	schroff	tyrannisch	leiden	tot	loyal	retten	helfen	ehrlich	spielen	fair	lasch	rächen	hindern	eitel	strafen	faul	1	blank2r.bmp	0	1	+	0	1	blank2r.bmp	500	3	B3r.bmp	500	1	blank2r.bmp	880	6	fair	880	1	FEHLER	1547	1	!	-1	1	!	-1	0	0	0
2024-05-02	12:50:12	12:55:14	301886	6.6.1	4_exp_EVA_AWA_CON	12	B	A	Rpleas_acq	Oppo	Rpleas	2pleas	acq_new_unple_nomask	acq2_nomask	2	5	480	1	300	300	0	0	455	46	1	0	schön	freundlich	schlau	tolerant	lachen	treu	schlecht	fanatisch	schroff	tyrannisch	leiden	tot	loyal	retten	helfen	ehrlich	spielen	fair	lasch	rächen	hindern	eitel	strafen	faul	1	blank2r.bmp	0	1	+	0	1	blank2r.bmp	500	7	C3r.bmp	500	1	blank2r.bmp	880	1	lasch	880	1	!	1313	1	!	1356	0	0	0	0	0	0
2024-05-02	12:50:12	12:55:17	304335	6.6.1	4_exp_EVA_AWA_CON	12	B	A	Rpleas_acq	Oppo	Rpleas	2pleas	acq_US_pleas_nomask	acq2_nomask	2	6	480	1	300	300	0	0	471	46	0	0	schön	freundlich	schlau	tolerant	lachen	treu	schlecht	fanatisch	schroff	tyrannisch	leiden	tot	loyal	retten	helfen	ehrlich	spielen	fair	lasch	rächen	hindern	eitel	strafen	faul	1	blank2r.bmp	0	1	+	0	1	blank2r.bmp	500	1	GKQX	500	1	blank2r.bmp	880	6	treu	880	1	FEHLER	1664	1	!	1313	1	!	1373	0	0	0
2024-05-02	12:50:12	12:55:19	306430	6.6.1	4_exp_EVA_AWA_CON	12	B	A	Rpleas_acq	Oppo	Rpleas	2pleas	acq_US_unple_nomask	acq2_nomask	2	7	480	1	300	300	0	0	516	46	1	0	schön	freundlich	schlau	tolerant	lachen	treu	schlecht	fanatisch	schroff	tyrannisch	leiden	tot	loyal	retten	helfen	ehrlich	spielen	fair	lasch	rächen	hindern	eitel	strafen	faul	1	blank2r.bmp	0	1	+	0	1	blank2r.bmp	500	1	BMVZ	500	1	blank2r.bmp	880	1	schlecht	880	1	!	1313	1	!	1417	0	0	0	0	0	0
2024-05-02	12:50:12	12:55:21	308736	6.6.1	4_exp_EVA_AWA_CON	12	B	A	Rpleas_acq	Oppo	Rpleas	2pleas	acq_new_unple_nomask	acq2_nomask	2	8	480	0	300	300	0	0	328	50	0	0	schön	freundlich	schlau	tolerant	lachen	treu	schlecht	fanatisch	schroff	tyrannisch	leiden	tot	loyal	retten	helfen	ehrlich	spielen	fair	lasch	rächen	hindern	eitel	strafen	faul	1	blank2r.bmp	0	1	+	0	1	blank2r.bmp	500	2	B2r.bmp	500	1	blank2r.bmp	880	2	rächen	880	1	FEHLER	1521	1	!	-1	1	!	-1	0	0	0
2024-05-02	12:50:12	12:55:23	310814	6.6.1	4_exp_EVA_AWA_CON	12	B	A	Rpleas_acq	Oppo	Rpleas	2pleas	acq_US_pleas_nomask	acq2_nomask	2	9	480	1	300	300	0	0	507	50	1	0	schön	freundlich	schlau	tolerant	lachen	treu	schlecht	fanatisch	schroff	tyrannisch	leiden	tot	loyal	retten	helfen	ehrlich	spielen	fair	lasch	rächen	hindern	eitel	strafen	faul	1	blank2r.bmp	0	1	+	0	1	blank2r.bmp	500	1	GKQX	500	1	blank2r.bmp	880	2	freundlich	880	1	!	1313	1	!	1408	0	0	0	0	0	0
2024-05-02	12:50:12	12:55:26	313200	6.6.1	4_exp_EVA_AWA_CON	12	B	A	Rpleas_acq	Oppo	Rpleas	2pleas	acq_new_pleas_nomask	acq2_nomask	2	10	480	0	300	300	0	0	409	46	0	0	schön	freundlich	schlau	tolerant	lachen	treu	schlecht	fanatisch	schroff	tyrannisch	leiden	tot	loyal	retten	helfen	ehrlich	spielen	fair	lasch	rächen	hindern	eitel	strafen	faul	1	blank2r.bmp	0	1	+	0	1	blank2r.bmp	500	1	B1r.bmp	500	1	blank2r.bmp	880	1	loyal	880	1	FEHLER	1603	1	!	-1	1	!	-1	0	0	0
2024-05-02	12:50:12	12:55:28	315464	6.6.1	4_exp_EVA_AWA_CON	12	B	A	Rpleas_acq	Oppo	Rpleas	2pleas	acq_new_unple_nomask	acq2_nomask	2	11	480	1	300	300	0	0	482	50	0	0	schön	freundlich	schlau	tolerant	lachen	treu	schlecht	fanatisch	schroff	tyrannisch	leiden	tot	loyal	retten	helfen	ehrlich	spielen	fair	lasch	rächen	hindern	eitel	strafen	faul	1	blank2r.bmp	0	1	+	0	1	blank2r.bmp	500	8	C4r.bmp	500	1	blank2r.bmp	880	4	eitel	880	1	FEHLER	1675	1	!	1313	1	!	1383	0	0	0
2024-05-02	12:50:12	12:55:30	317461	6.6.1	4_exp_EVA_AWA_CON	12	B	A	Rpleas_acq	Oppo	Rpleas	2pleas	acq_US_unple_nomask	acq2_nomask	2	12	480	1	300	300	0	0	420	46	1	0	schön	freundlich	schlau	tolerant	lachen	treu	schlecht	fanatisch	schroff	tyrannisch	leiden	tot	loyal	retten	helfen	ehrlich	spielen	fair	lasch	rächen	hindern	eitel	strafen	faul	1	blank2r.bmp	0	1	+	0	1	blank2r.bmp	500	1	BMVZ	500	1	blank2r.bmp	880	6	tot	880	1	!	1313	1	!	1320	0	0	0	0	0	0
2024-05-02	12:50:12	12:55:32	319829	6.6.1	4_exp_EVA_AWA_CON	12	B	A	Rpleas_acq	Oppo	Rpleas	2pleas	acq_new_pleas_nomask	acq2_nomask	2	13	480	0	300	300	0	0	587	50	1	0	schön	freundlich	schlau	tolerant	lachen	treu	schlecht	fanatisch	schroff	tyrannisch	leiden	tot	loyal	retten	helfen	ehrlich	spielen	fair	lasch	rächen	hindern	eitel	strafen	faul	1	blank2r.bmp	0	1	+	0	1	blank2r.bmp	500	6	C2r.bmp	500	1	blank2r.bmp	880	3	helfen	880	1	!	1313	1	!	-1	0	0	0	0	0	0
2024-05-02	12:50:12	12:55:35	322184	6.6.1	4_exp_EVA_AWA_CON	12	B	A	Rpleas_acq	Oppo	Rpleas	2pleas	acq_US_unple_nomask	acq2_nomask	2	14	480	0	300	300	0	0	377	50	0	0	schön	freundlich	schlau	tolerant	lachen	treu	schlecht	fanatisch	schroff	tyrannisch	leiden	tot	loyal	retten	helfen	ehrlich	spielen	fair	lasch	rächen	hindern	eitel	strafen	faul	1	blank2r.bmp	0	1	+	0	1	blank2r.bmp	500	1	BMVZ	500	1	blank2r.bmp	880	1	schlecht	880	1	FEHLER	1570	1	!	-1	1	!	-1	0	0	0
2024-05-02	12:50:12	12:55:37	324190	6.6.1	4_exp_EVA_AWA_CON	12	B	A	Rpleas_acq	Oppo	Rpleas	2pleas	acq_new_pleas_nomask	acq2_nomask	2	15	480	1	300	300	0	0	434	50	1	0	schön	freundlich	schlau	tolerant	lachen	treu	schlecht	fanatisch	schroff	tyrannisch	leiden	tot	loyal	retten	helfen	ehrlich	spielen	fair	lasch	rächen	hindern	eitel	strafen	faul	1	blank2r.bmp	0	1	+	0	1	blank2r.bmp	500	1	B1r.bmp	500	1	blank2r.bmp	880	5	spielen	880	1	!	1313	1	!	1335	0	0	0	0	0	0
2024-05-02	12:50:12	12:55:39	326349	6.6.1	4_exp_EVA_AWA_CON	12	B	A	Rpleas_acq	Oppo	Rpleas	2pleas	acq_US_unple_nomask	acq2_nomask	2	16	480	0	300	300	0	0	383	46	1	0	schön	freundlich	schlau	tolerant	lachen	treu	schlecht	fanatisch	schroff	tyrannisch	leiden	tot	loyal	retten	helfen	ehrlich	spielen	fair	lasch	rächen	hindern	eitel	strafen	faul	1	blank2r.bmp	0	1	+	0	1	blank2r.bmp	500	1	BMVZ	500	1	blank2r.bmp	880	4	tyrannisch	880	1	!	-1	1	!	-1	0	0	0	0	0	0
2024-05-02	12:50:12	12:55:41	328639	6.6.1	4_exp_EVA_AWA_CON	12	B	A	Rpleas_acq	Oppo	Rpleas	2pleas	acq_US_pleas_nomask	acq2_nomask	2	17	480	1	300	300	0	0	509	50	1	0	schön	freundlich	schlau	tolerant	lachen	treu	schlecht	fanatisch	schroff	tyrannisch	leiden	tot	loyal	retten	helfen	ehrlich	spielen	fair	lasch	rächen	hindern	eitel	strafen	faul	1	blank2r.bmp	0	1	+	0	1	blank2r.bmp	500	1	GKQX	500	1	blank2r.bmp	880	6	treu	880	1	!	1312	1	!	1410	0	0	0	0	0	0
2024-05-02	12:50:12	12:55:43	331012	6.6.1	4_exp_EVA_AWA_CON	12	B	A	Rpleas_acq	Oppo	Rpleas	2pleas	acq_new_pleas_nomask	acq2_nomask	2	18	480	0	300	300	0	0	594	50	1	0	schön	freundlich	schlau	tolerant	lachen	treu	schlecht	fanatisch	schroff	tyrannisch	leiden	tot	loyal	retten	helfen	ehrlich	spielen	fair	lasch	rächen	hindern	eitel	strafen	faul	1	blank2r.bmp	0	1	+	0	1	blank2r.bmp	500	8	C4r.bmp	500	1	blank2r.bmp	880	1	loyal	880	1	!	1313	1	!	-1	0	0	0	0	0	0
2024-05-02	12:50:12	12:55:46	333495	6.6.1	4_exp_EVA_AWA_CON	12	B	A	Rpleas_acq	Oppo	Rpleas	2pleas	acq_US_pleas_nomask	acq2_nomask	2	19	480	1	300	300	0	0	502	46	0	0	schön	freundlich	schlau	tolerant	lachen	treu	schlecht	fanatisch	schroff	tyrannisch	leiden	tot	loyal	retten	helfen	ehrlich	spielen	fair	lasch	rächen	hindern	eitel	strafen	faul	1	blank2r.bmp	0	1	+	0	1	blank2r.bmp	500	1	GKQX	500	1	blank2r.bmp	880	4	tolerant	880	1	FEHLER	1695	1	!	1313	1	!	1403	0	0	0
2024-05-02	12:50:12	12:55:48	335853	6.6.1	4_exp_EVA_AWA_CON	12	B	A	Rpleas_acq	Oppo	Rpleas	2pleas	acq_new_unple_nomask	acq2_nomask	2	20	480	0	300	300	0	0	781	46	1	0	schön	freundlich	schlau	tolerant	lachen	treu	schlecht	fanatisch	schroff	tyrannisch	leiden	tot	loyal	retten	helfen	ehrlich	spielen	fair	lasch	rächen	hindern	eitel	strafen	faul	1	blank2r.bmp	0	1	+	0	1	blank2r.bmp	500	5	C1r.bmp	500	1	blank2r.bmp	880	5	strafen	880	1	!	1312	1	!	-1	0	0	0	0	0	0
2024-05-02	12:50:12	12:55:50	337989	6.6.1	4_exp_EVA_AWA_CON	12	B	A	Rpleas_acq	Oppo	Rpleas	2pleas	acq_new_unple_nomask	acq2_nomask	2	21	480	0	300	300	0	0	355	46	1	0	schön	freundlich	schlau	tolerant	lachen	treu	schlecht	fanatisch	schroff	tyrannisch	leiden	tot	loyal	retten	helfen	ehrlich	spielen	fair	lasch	rächen	hindern	eitel	strafen	faul	1	blank2r.bmp	0	1	+	0	1	blank2r.bmp	500	2	B2r.bmp	500	1	blank2r.bmp	880	4	eitel	880	1	!	-1	1	!	-1	0	0	0	0	0	0
2024-05-02	12:50:12	12:55:53	340323	6.6.1	4_exp_EVA_AWA_CON	12	B	A	Rpleas_acq	Oppo	Rpleas	2pleas	acq_US_pleas_nomask	acq2_nomask	2	22	480	0	300	300	0	0	560	50	1	0	schön	freundlich	schlau	tolerant	lachen	treu	schlecht	fanatisch	schroff	tyrannisch	leiden	tot	loyal	retten	helfen	ehrlich	spielen	fair	lasch	rächen	hindern	eitel	strafen	faul	1	blank2r.bmp	0	1	+	0	1	blank2r.bmp	500	1	GKQX	500	1	blank2r.bmp	880	1	schön	880	1	!	1313	1	!	-1	0	0	0	0	0	0
2024-05-02	12:50:12	12:55:55	342542	6.6.1	4_exp_EVA_AWA_CON	12	B	A	Rpleas_acq	Oppo	Rpleas	2pleas	acq_US_unple_nomask	acq2_nomask	2	23	480	1	300	300	0	0	444	46	1	0	schön	freundlich	schlau	tolerant	lachen	treu	schlecht	fanatisch	schroff	tyrannisch	leiden	tot	loyal	retten	helfen	ehrlich	spielen	fair	lasch	rächen	hindern	eitel	strafen	faul	1	blank2r.bmp	0	1	+	0	1	blank2r.bmp	500	1	BMVZ	500	1	blank2r.bmp	880	5	leiden	880	1	!	1313	1	!	1345	0	0	0	0	0	0
2024-05-02	12:50:12	12:55:58	345072	6.6.1	4_exp_EVA_AWA_CON	12	B	A	Rpleas_acq	Oppo	Rpleas	2pleas	acq_new_unple_nomask	acq2_nomask	2	24	480	1	300	300	0	0	551	50	0	0	schön	freundlich	schlau	tolerant	lachen	treu	schlecht	fanatisch	schroff	tyrannisch	leiden	tot	loyal	retten	helfen	ehrlich	spielen	fair	lasch	rächen	hindern	eitel	strafen	faul	1	blank2r.bmp	0	1	+	0	1	blank2r.bmp	500	3	B3r.bmp	500	1	blank2r.bmp	880	3	hindern	880	1	FEHLER	1744	1	!	1313	1	!	1452	0	0	0
2024-05-02	12:50:12	12:56:00	347229	6.6.1	4_exp_EVA_AWA_CON	12	B	A	Rpleas_acq	Oppo	Rpleas	2pleas	acq_US_unple_nomask	acq2_nomask	2	25	480	0	300	300	0	0	579	46	1	0	schön	freundlich	schlau	tolerant	lachen	treu	schlecht	fanatisch	schroff	tyrannisch	leiden	tot	loyal	retten	helfen	ehrlich	spielen	fair	lasch	rächen	hindern	eitel	strafen	faul	1	blank2r.bmp	0	1	+	0	1	blank2r.bmp	500	1	BMVZ	500	1	blank2r.bmp	880	6	tot	880	1	!	1312	1	!	-1	0	0	0	0	0	0
2024-05-02	12:50:12	12:56:02	349592	6.6.1	4_exp_EVA_AWA_CON	12	B	A	Rpleas_acq	Oppo	Rpleas	2pleas	acq_new_unple_nomask	acq2_nomask	2	26	480	0	300	300	0	0	388	50	0	0	schön	freundlich	schlau	tolerant	lachen	treu	schlecht	fanatisch	schroff	tyrannisch	leiden	tot	loyal	retten	helfen	ehrlich	spielen	fair	lasch	rächen	hindern	eitel	strafen	faul	1	blank2r.bmp	0	1	+	0	1	blank2r.bmp	500	4	B4r.bmp	500	1	blank2r.bmp	880	6	faul	880	1	FEHLER	1581	1	!	-1	1	!	-1	0	0	0
2024-05-02	12:50:12	12:56:04	351686	6.6.1	4_exp_EVA_AWA_CON	12	B	A	Rpleas_acq	Oppo	Rpleas	2pleas	acq_US_unple_nomask	acq2_nomask	2	27	480	1	300	300	0	0	522	46	1	0	schön	freundlich	schlau	tolerant	lachen	treu	schlecht	fanatisch	schroff	tyrannisch	leiden	tot	loyal	retten	helfen	ehrlich	spielen	fair	lasch	rächen	hindern	eitel	strafen	faul	1	blank2r.bmp	0	1	+	0	1	blank2r.bmp	500	1	BMVZ	500	1	blank2r.bmp	880	3	schroff	880	1	!	1313	1	!	1423	0	0	0	0	0	0
2024-05-02	12:50:12	12:56:06	354015	6.6.1	4_exp_EVA_AWA_CON	12	B	A	Rpleas_acq	Oppo	Rpleas	2pleas	acq_new_unple_nomask	acq2_nomask	2	28	480	1	300	300	0	0	549	46	1	0	schön	freundlich	schlau	tolerant	lachen	treu	schlecht	fanatisch	schroff	tyrannisch	leiden	tot	loyal	retten	helfen	ehrlich	spielen	fair	lasch	rächen	hindern	eitel	strafen	faul	1	blank2r.bmp	0	1	+	0	1	blank2r.bmp	500	7	C3r.bmp	500	1	blank2r.bmp	880	1	lasch	880	1	!	1312	1	!	1450	0	0	0	0	0	0
2024-05-02	12:50:12	12:56:09	356310	6.6.1	4_exp_EVA_AWA_CON	12	B	A	Rpleas_acq	Oppo	Rpleas	2pleas	acq_new_unple_nomask	acq2_nomask	2	29	480	1	300	300	0	0	513	46	1	0	schön	freundlich	schlau	tolerant	lachen	treu	schlecht	fanatisch	schroff	tyrannisch	leiden	tot	loyal	retten	helfen	ehrlich	spielen	fair	lasch	rächen	hindern	eitel	strafen	faul	1	blank2r.bmp	0	1	+	0	1	blank2r.bmp	500	5	C1r.bmp	500	1	blank2r.bmp	880	2	rächen	880	1	!	1313	1	!	1414	0	0	0	0	0	0
2024-05-02	12:50:12	12:56:11	358692	6.6.1	4_exp_EVA_AWA_CON	12	B	A	Rpleas_acq	Oppo	Rpleas	2pleas	acq_US_unple_nomask	acq2_nomask	2	30	480	0	300	300	0	0	606	46	1	0	schön	freundlich	schlau	tolerant	lachen	treu	schlecht	fanatisch	schroff	tyrannisch	leiden	tot	loyal	retten	helfen	ehrlich	spielen	fair	lasch	rächen	hindern	eitel	strafen	faul	1	blank2r.bmp	0	1	+	0	1	blank2r.bmp	500	1	BMVZ	500	1	blank2r.bmp	880	2	fanatisch	880	1	!	1313	1	!	-1	0	0	0	0	0	0
2024-05-02	12:50:12	12:56:13	360869	6.6.1	4_exp_EVA_AWA_CON	12	B	A	Rpleas_acq	Oppo	Rpleas	2pleas	acq_US_pleas_nomask	acq2_nomask	2	31	480	0	300	300	0	0	400	50	1	0	schön	freundlich	schlau	tolerant	lachen	treu	schlecht	fanatisch	schroff	tyrannisch	leiden	tot	loyal	retten	helfen	ehrlich	spielen	fair	lasch	rächen	hindern	eitel	strafen	faul	1	blank2r.bmp	0	1	+	0	1	blank2r.bmp	500	1	GKQX	500	1	blank2r.bmp	880	2	freundlich	880	1	!	-1	1	!	-1	0	0	0	0	0	0
2024-05-02	12:50:12	12:56:16	363640	6.6.1	4_exp_EVA_AWA_CON	12	B	A	Rpleas_acq	Oppo	Rpleas	2pleas	acq_new_pleas_nomask	acq2_nomask	2	32	480	0	300	300	0	0	787	46	0	0	schön	freundlich	schlau	tolerant	lachen	treu	schlecht	fanatisch	schroff	tyrannisch	leiden	tot	loyal	retten	helfen	ehrlich	spielen	fair	lasch	rächen	hindern	eitel	strafen	faul	1	blank2r.bmp	0	1	+	0	1	blank2r.bmp	500	3	B3r.bmp	500	1	blank2r.bmp	880	6	fair	880	1	FEHLER	1980	1	!	1313	1	!	-1	0	0	0
2024-05-02	12:50:12	12:56:18	365860	6.6.1	4_exp_EVA_AWA_CON	12	B	A	Rpleas_acq	Oppo	Rpleas	2pleas	acq_new_pleas_nomask	acq2_nomask	2	33	480	0	300	300	0	0	649	50	1	0	schön	freundlich	schlau	tolerant	lachen	treu	schlecht	fanatisch	schroff	tyrannisch	leiden	tot	loyal	retten	helfen	ehrlich	spielen	fair	lasch	rächen	hindern	eitel	strafen	faul	1	blank2r.bmp	0	1	+	0	1	blank2r.bmp	500	8	C4r.bmp	500	1	blank2r.bmp	880	4	ehrlich	880	1	!	1313	1	!	-1	0	0	0	0	0	0
2024-05-02	12:50:12	12:56:21	368086	6.6.1	4_exp_EVA_AWA_CON	12	B	A	Rpleas_acq	Oppo	Rpleas	2pleas	acq_new_pleas_nomask	acq2_nomask	2	34	480	1	300	300	0	0	452	50	1	0	schön	freundlich	schlau	tolerant	lachen	treu	schlecht	fanatisch	schroff	tyrannisch	leiden	tot	loyal	retten	helfen	ehrlich	spielen	fair	lasch	rächen	hindern	eitel	strafen	faul	1	blank2r.bmp	0	1	+	0	1	blank2r.bmp	500	6	C2r.bmp	500	1	blank2r.bmp	880	2	retten	880	1	!	1313	1	!	1353	0	0	0	0	0	0
2024-05-02	12:50:12	12:56:23	370327	6.6.1	4_exp_EVA_AWA_CON	12	B	A	Rpleas_acq	Oppo	Rpleas	2pleas	acq_US_pleas_nomask	acq2_nomask	2	35	480	1	300	300	0	0	460	50	1	0	schön	freundlich	schlau	tolerant	lachen	treu	schlecht	fanatisch	schroff	tyrannisch	leiden	tot	loyal	retten	helfen	ehrlich	spielen	fair	lasch	rächen	hindern	eitel	strafen	faul	1	blank2r.bmp	0	1	+	0	1	blank2r.bmp	500	1	GKQX	500	1	blank2r.bmp	880	3	schlau	880	1	!	1312	1	!	1362	0	0	0	0	0	0
2024-05-02	12:50:12	12:56:25	372968	6.6.1	4_exp_EVA_AWA_CON	12	B	A	Rpleas_acq	Oppo	Rpleas	2pleas	acq_US_pleas_nomask	acq2_nomask	2	36	480	0	300	300	0	0	659	46	0	0	schön	freundlich	schlau	tolerant	lachen	treu	schlecht	fanatisch	schroff	tyrannisch	leiden	tot	loyal	retten	helfen	ehrlich	spielen	fair	lasch	rächen	hindern	eitel	strafen	faul	1	blank2r.bmp	0	1	+	0	1	blank2r.bmp	500	1	GKQX	500	1	blank2r.bmp	880	5	lachen	880	1	FEHLER	1852	1	!	1313	1	!	-1	0	0	0
2024-05-02	12:50:12	12:56:47	394326	6.6.1	4_exp_EVA_AWA_CON	12	B	A	Rpleas_acq	Oppo	Rpleas	2pleas	acq_US_pleas_nomask	acq3_nomask	3	1	453	1	300	300	0	0	435	50	1	0	schön	freundlich	schlau	tolerant	lachen	treu	schlecht	fanatisch	schroff	tyrannisch	leiden	tot	loyal	retten	helfen	ehrlich	spielen	fair	lasch	rächen	hindern	eitel	strafen	faul	1	blank2r.bmp	0	1	+	0	1	blank2r.bmp	500	1	GKQX	500	1	blank2r.bmp	880	1	schön	880	1	!	1293	1	!	1336	0	0	0	0	0	0
2024-05-02	12:50:12	12:56:49	396615	6.6.1	4_exp_EVA_AWA_CON	12	B	A	Rpleas_acq	Oppo	Rpleas	2pleas	acq_US_unple_nomask	acq3_nomask	3	2	453	1	300	300	0	0	511	46	1	0	schön	freundlich	schlau	tolerant	lachen	treu	schlecht	fanatisch	schroff	tyrannisch	leiden	tot	loyal	retten	helfen	ehrlich	spielen	fair	lasch	rächen	hindern	eitel	strafen	faul	1	blank2r.bmp	0	1	+	0	1	blank2r.bmp	500	1	BMVZ	500	1	blank2r.bmp	880	2	fanatisch	880	1	!	1293	1	!	1413	0	0	0	0	0	0
2024-05-02	12:50:12	12:56:51	398988	6.6.1	4_exp_EVA_AWA_CON	12	B	A	Rpleas_acq	Oppo	Rpleas	2pleas	acq_US_pleas_nomask	acq3_nomask	3	3	453	0	300	300	0	0	596	50	1	0	schön	freundlich	schlau	tolerant	lachen	treu	schlecht	fanatisch	schroff	tyrannisch	leiden	tot	loyal	retten	helfen	ehrlich	spielen	fair	lasch	rächen	hindern	eitel	strafen	faul	1	blank2r.bmp	0	1	+	0	1	blank2r.bmp	500	1	GKQX	500	1	blank2r.bmp	880	6	treu	880	1	!	1292	1	!	-1	0	0	0	0	0	0
2024-05-02	12:50:12	12:56:54	401551	6.6.1	4_exp_EVA_AWA_CON	12	B	A	Rpleas_acq	Oppo	Rpleas	2pleas	acq_US_unple_nomask	acq3_nomask	3	4	453	0	300	300	0	0	583	50	0	0	schön	freundlich	schlau	tolerant	lachen	treu	schlecht	fanatisch	schroff	tyrannisch	leiden	tot	loyal	retten	helfen	ehrlich	spielen	fair	lasch	rächen	hindern	eitel	strafen	faul	1	blank2r.bmp	0	1	+	0	1	blank2r.bmp	500	1	BMVZ	500	1	blank2r.bmp	880	1	schlecht	880	1	FEHLER	1777	1	!	1293	1	!	-1	0	0	0
2024-05-02	12:50:12	12:56:56	403684	6.6.1	4_exp_EVA_AWA_CON	12	B	A	Rpleas_acq	Oppo	Rpleas	2pleas	acq_US_unple_nomask	acq3_nomask	3	5	453	0	300	300	0	0	559	46	1	0	schön	freundlich	schlau	tolerant	lachen	treu	schlecht	fanatisch	schroff	tyrannisch	leiden	tot	loyal	retten	helfen	ehrlich	spielen	fair	lasch	rächen	hindern	eitel	strafen	faul	1	blank2r.bmp	0	1	+	0	1	blank2r.bmp	500	1	BMVZ	500	1	blank2r.bmp	880	4	tyrannisch	880	1	!	1292	1	!	-1	0	0	0	0	0	0
2024-05-02	12:50:12	12:56:59	406060	6.6.1	4_exp_EVA_AWA_CON	12	B	A	Rpleas_acq	Oppo	Rpleas	2pleas	acq_US_pleas_nomask	acq3_nomask	3	6	453	0	300	300	0	0	603	50	1	0	schön	freundlich	schlau	tolerant	lachen	treu	schlecht	fanatisch	schroff	tyrannisch	leiden	tot	loyal	retten	helfen	ehrlich	spielen	fair	lasch	rächen	hindern	eitel	strafen	faul	1	blank2r.bmp	0	1	+	0	1	blank2r.bmp	500	1	GKQX	500	1	blank2r.bmp	880	5	lachen	880	1	!	1292	1	!	-1	0	0	0	0	0	0
2024-05-02	12:50:12	12:57:01	408254	6.6.1	4_exp_EVA_AWA_CON	12	B	A	Rpleas_acq	Oppo	Rpleas	2pleas	acq_US_unple_nomask	acq3_nomask	3	7	453	1	300	300	0	0	414	46	1	0	schön	freundlich	schlau	tolerant	lachen	treu	schlecht	fanatisch	schroff	tyrannisch	leiden	tot	loyal	retten	helfen	ehrlich	spielen	fair	lasch	rächen	hindern	eitel	strafen	faul	1	blank2r.bmp	0	1	+	0	1	blank2r.bmp	500	1	BMVZ	500	1	blank2r.bmp	880	5	leiden	880	1	!	1292	1	!	1314	0	0	0	0	0	0
2024-05-02	12:50:12	12:57:03	410470	6.6.1	4_exp_EVA_AWA_CON	12	B	A	Rpleas_acq	Oppo	Rpleas	2pleas	acq_US_pleas_nomask	acq3_nomask	3	8	453	1	300	300	0	0	438	50	1	0	schön	freundlich	schlau	tolerant	lachen	treu	schlecht	fanatisch	schroff	tyrannisch	leiden	tot	loyal	retten	helfen	ehrlich	spielen	fair	lasch	rächen	hindern	eitel	strafen	faul	1	blank2r.bmp	0	1	+	0	1	blank2r.bmp	500	1	GKQX	500	1	blank2r.bmp	880	2	freundlich	880	1	!	1293	1	!	1339	0	0	0	0	0	0
2024-05-02	12:50:12	12:57:05	412836	6.6.1	4_exp_EVA_AWA_CON	12	B	A	Rpleas_acq	Oppo	Rpleas	2pleas	acq_US_pleas_nomask	acq3_nomask	3	9	453	0	300	300	0	0	584	50	1	0	schön	freundlich	schlau	tolerant	lachen	treu	schlecht	fanatisch	schroff	tyrannisch	leiden	tot	loyal	retten	helfen	ehrlich	spielen	fair	lasch	rächen	hindern	eitel	strafen	faul	1	blank2r.bmp	0	1	+	0	1	blank2r.bmp	500	1	GKQX	500	1	blank2r.bmp	880	3	schlau	880	1	!	1293	1	!	-1	0	0	0	0	0	0
2024-05-02	12:50:12	12:57:07	415013	6.6.1	4_exp_EVA_AWA_CON	12	B	A	Rpleas_acq	Oppo	Rpleas	2pleas	acq_US_unple_nomask	acq3_nomask	3	10	453	1	300	300	0	0	399	46	1	0	schön	freundlich	schlau	tolerant	lachen	treu	schlecht	fanatisch	schroff	tyrannisch	leiden	tot	loyal	retten	helfen	ehrlich	spielen	fair	lasch	rächen	hindern	eitel	strafen	faul	1	blank2r.bmp	0	1	+	0	1	blank2r.bmp	500	1	BMVZ	500	1	blank2r.bmp	880	6	tot	880	1	!	1293	1	!	1298	0	0	0	0	0	0
2024-05-02	12:50:12	12:57:10	417518	6.6.1	4_exp_EVA_AWA_CON	12	B	A	Rpleas_acq	Oppo	Rpleas	2pleas	acq_US_unple_nomask	acq3_nomask	3	11	453	0	300	300	0	0	532	50	0	0	schön	freundlich	schlau	tolerant	lachen	treu	schlecht	fanatisch	schroff	tyrannisch	leiden	tot	loyal	retten	helfen	ehrlich	spielen	fair	lasch	rächen	hindern	eitel	strafen	faul	1	blank2r.bmp	0	1	+	0	1	blank2r.bmp	500	1	BMVZ	500	1	blank2r.bmp	880	3	schroff	880	1	FEHLER	1723	1	!	1293	1	!	-1	0	0	0
2024-05-02	12:50:12	12:57:12	419783	6.6.1	4_exp_EVA_AWA_CON	12	B	A	Rpleas_acq	Oppo	Rpleas	2pleas	acq_US_pleas_nomask	acq3_nomask	3	12	453	1	300	300	0	0	484	46	0	0	schön	freundlich	schlau	tolerant	lachen	treu	schlecht	fanatisch	schroff	tyrannisch	leiden	tot	loyal	retten	helfen	ehrlich	spielen	fair	lasch	rächen	hindern	eitel	strafen	faul	1	blank2r.bmp	0	1	+	0	1	blank2r.bmp	500	1	GKQX	500	1	blank2r.bmp	880	4	tolerant	880	1	FEHLER	1677	1	!	1292	1	!	1385	0	0	0
2024-05-02	12:50:12	12:57:15	422120	6.6.1	4_exp_EVA_AWA_CON	12	B	A	Rpleas_acq	Oppo	Rpleas	2pleas	acq_US_pleas_nomask	acq3_nomask	3	13	453	0	300	300	0	0	559	46	0	0	schön	freundlich	schlau	tolerant	lachen	treu	schlecht	fanatisch	schroff	tyrannisch	leiden	tot	loyal	retten	helfen	ehrlich	spielen	fair	lasch	rächen	hindern	eitel	strafen	faul	1	blank2r.bmp	0	1	+	0	1	blank2r.bmp	500	1	GKQX	500	1	blank2r.bmp	880	4	tolerant	880	1	FEHLER	1752	1	!	1293	1	!	-1	0	0	0
2024-05-02	12:50:12	12:57:17	424211	6.6.1	4_exp_EVA_AWA_CON	12	B	A	Rpleas_acq	Oppo	Rpleas	2pleas	acq_US_unple_nomask	acq3_nomask	3	14	453	0	300	300	0	0	523	46	1	0	schön	freundlich	schlau	tolerant	lachen	treu	schlecht	fanatisch	schroff	tyrannisch	leiden	tot	loyal	retten	helfen	ehrlich	spielen	fair	lasch	rächen	hindern	eitel	strafen	faul	1	blank2r.bmp	0	1	+	0	1	blank2r.bmp	500	1	BMVZ	500	1	blank2r.bmp	880	6	tot	880	1	!	1293	1	!	-1	0	0	0	0	0	0
2024-05-02	12:50:12	12:57:19	426494	6.6.1	4_exp_EVA_AWA_CON	12	B	A	Rpleas_acq	Oppo	Rpleas	2pleas	acq_US_unple_nomask	acq3_nomask	3	15	453	1	300	300	0	0	502	46	1	0	schön	freundlich	schlau	tolerant	lachen	treu	schlecht	fanatisch	schroff	tyrannisch	leiden	tot	loyal	retten	helfen	ehrlich	spielen	fair	lasch	rächen	hindern	eitel	strafen	faul	1	blank2r.bmp	0	1	+	0	1	blank2r.bmp	500	1	BMVZ	500	1	blank2r.bmp	880	4	tyrannisch	880	1	!	1293	1	!	1403	0	0	0	0	0	0
2024-05-02	12:50:12	12:57:21	428956	6.6.1	4_exp_EVA_AWA_CON	12	B	A	Rpleas_acq	Oppo	Rpleas	2pleas	acq_US_pleas_nomask	acq3_nomask	3	16	453	0	300	300	0	0	684	50	1	0	schön	freundlich	schlau	tolerant	lachen	treu	schlecht	fanatisch	schroff	tyrannisch	leiden	tot	loyal	retten	helfen	ehrlich	spielen	fair	lasch	rächen	hindern	eitel	strafen	faul	1	blank2r.bmp	0	1	+	0	1	blank2r.bmp	500	1	GKQX	500	1	blank2r.bmp	880	5	lachen	880	1	!	1293	1	!	-1	0	0	0	0	0	0
2024-05-02	12:50:12	12:57:24	431085	6.6.1	4_exp_EVA_AWA_CON	12	B	A	Rpleas_acq	Oppo	Rpleas	2pleas	acq_US_unple_nomask	acq3_nomask	3	17	453	0	300	300	0	0	351	46	1	0	schön	freundlich	schlau	tolerant	lachen	treu	schlecht	fanatisch	schroff	tyrannisch	leiden	tot	loyal	retten	helfen	ehrlich	spielen	fair	lasch	rächen	hindern	eitel	strafen	faul	1	blank2r.bmp	0	1	+	0	1	blank2r.bmp	500	1	BMVZ	500	1	blank2r.bmp	880	2	fanatisch	880	1	!	-1	1	!	-1	0	0	0	0	0	0
2024-05-02	12:50:12	12:57:26	433508	6.6.1	4_exp_EVA_AWA_CON	12	B	A	Rpleas_acq	Oppo	Rpleas	2pleas	acq_US_pleas_nomask	acq3_nomask	3	18	453	0	300	300	0	0	643	50	1	0	schön	freundlich	schlau	tolerant	lachen	treu	schlecht	fanatisch	schroff	tyrannisch	leiden	tot	loyal	retten	helfen	ehrlich	spielen	fair	lasch	rächen	hindern	eitel	strafen	faul	1	blank2r.bmp	0	1	+	0	1	blank2r.bmp	500	1	GKQX	500	1	blank2r.bmp	880	6	treu	880	1	!	1292	1	!	-1	0	0	0	0	0	0
2024-05-02	12:50:12	12:57:28	435991	6.6.1	4_exp_EVA_AWA_CON	12	B	A	Rpleas_acq	Oppo	Rpleas	2pleas	acq_US_unple_nomask	acq3_nomask	3	19	453	1	300	300	0	0	501	50	0	0	schön	freundlich	schlau	tolerant	lachen	treu	schlecht	fanatisch	schroff	tyrannisch	leiden	tot	loyal	retten	helfen	ehrlich	spielen	fair	lasch	rächen	hindern	eitel	strafen	faul	1	blank2r.bmp	0	1	+	0	1	blank2r.bmp	500	1	BMVZ	500	1	blank2r.bmp	880	3	schroff	880	1	FEHLER	1694	1	!	1293	1	!	1403	0	0	0
2024-05-02	12:50:12	12:57:31	438172	6.6.1	4_exp_EVA_AWA_CON	12	B	A	Rpleas_acq	Oppo	Rpleas	2pleas	acq_US_pleas_nomask	acq3_nomask	3	20	453	0	300	300	0	0	603	50	1	0	schön	freundlich	schlau	tolerant	lachen	treu	schlecht	fanatisch	schroff	tyrannisch	leiden	tot	loyal	retten	helfen	ehrlich	spielen	fair	lasch	rächen	hindern	eitel	strafen	faul	1	blank2r.bmp	0	1	+	0	1	blank2r.bmp	500	1	GKQX	500	1	blank2r.bmp	880	2	freundlich	880	1	!	1293	1	!	-1	0	0	0	0	0	0
2024-05-02	12:50:12	12:57:33	440446	6.6.1	4_exp_EVA_AWA_CON	12	B	A	Rpleas_acq	Oppo	Rpleas	2pleas	acq_US_unple_nomask	acq3_nomask	3	21	453	1	300	300	0	0	495	46	1	0	schön	freundlich	schlau	tolerant	lachen	treu	schlecht	fanatisch	schroff	tyrannisch	leiden	tot	loyal	retten	helfen	ehrlich	spielen	fair	lasch	rächen	hindern	eitel	strafen	faul	1	blank2r.bmp	0	1	+	0	1	blank2r.bmp	500	1	BMVZ	500	1	blank2r.bmp	880	5	leiden	880	1	!	1293	1	!	1396	0	0	0	0	0	0
2024-05-02	12:50:12	12:57:35	442788	6.6.1	4_exp_EVA_AWA_CON	12	B	A	Rpleas_acq	Oppo	Rpleas	2pleas	acq_US_unple_nomask	acq3_nomask	3	22	453	0	300	300	0	0	567	46	1	0	schön	freundlich	schlau	tolerant	lachen	treu	schlecht	fanatisch	schroff	tyrannisch	leiden	tot	loyal	retten	helfen	ehrlich	spielen	fair	lasch	rächen	hindern	eitel	strafen	faul	1	blank2r.bmp	0	1	+	0	1	blank2r.bmp	500	1	BMVZ	500	1	blank2r.bmp	880	1	schlecht	880	1	!	1293	1	!	-1	0	0	0	0	0	0
2024-05-02	12:50:12	12:57:38	445188	6.6.1	4_exp_EVA_AWA_CON	12	B	A	Rpleas_acq	Oppo	Rpleas	2pleas	acq_US_pleas_nomask	acq3_nomask	3	23	453	0	300	300	0	0	626	50	1	0	schön	freundlich	schlau	tolerant	lachen	treu	schlecht	fanatisch	schroff	tyrannisch	leiden	tot	loyal	retten	helfen	ehrlich	spielen	fair	lasch	rächen	hindern	eitel	strafen	faul	1	blank2r.bmp	0	1	+	0	1	blank2r.bmp	500	1	GKQX	500	1	blank2r.bmp	880	3	schlau	880	1	!	1293	1	!	-1	0	0	0	0	0	0
2024-05-02	12:50:12	12:57:40	447430	6.6.1	4_exp_EVA_AWA_CON	12	B	A	Rpleas_acq	Oppo	Rpleas	2pleas	acq_US_pleas_nomask	acq3_nomask	3	24	453	1	300	300	0	0	464	50	1	0	schön	freundlich	schlau	tolerant	lachen	treu	schlecht	fanatisch	schroff	tyrannisch	leiden	tot	loyal	retten	helfen	ehrlich	spielen	fair	lasch	rächen	hindern	eitel	strafen	faul	1	blank2r.bmp	0	1	+	0	1	blank2r.bmp	500	1	GKQX	500	1	blank2r.bmp	880	1	schön	880	1	!	1293	1	!	1365	0	0	0	0	0	0
2024-05-02	12:50:12	12:57:42	450015	6.6.1	4_exp_EVA_AWA_CON	12	B	A	Rpleas_acq	Oppo	Rpleas	2pleas	acq_US_unple_nomask	acq3_nomask	3	25	453	0	300	300	0	0	606	50	0	0	schön	freundlich	schlau	tolerant	lachen	treu	schlecht	fanatisch	schroff	tyrannisch	leiden	tot	loyal	retten	helfen	ehrlich	spielen	fair	lasch	rächen	hindern	eitel	strafen	faul	1	blank2r.bmp	0	1	+	0	1	blank2r.bmp	500	1	BMVZ	500	1	blank2r.bmp	880	2	fanatisch	880	1	FEHLER	1799	1	!	1292	1	!	-1	0	0	0
2024-05-02	12:50:12	12:57:45	452271	6.6.1	4_exp_EVA_AWA_CON	12	B	A	Rpleas_acq	Oppo	Rpleas	2pleas	acq_US_pleas_nomask	acq3_nomask	3	26	453	1	300	300	0	0	481	46	0	0	schön	freundlich	schlau	tolerant	lachen	treu	schlecht	fanatisch	schroff	tyrannisch	leiden	tot	loyal	retten	helfen	ehrlich	spielen	fair	lasch	rächen	hindern	eitel	strafen	faul	1	blank2r.bmp	0	1	+	0	1	blank2r.bmp	500	1	GKQX	500	1	blank2r.bmp	880	6	treu	880	1	FEHLER	1674	1	!	1292	1	!	1382	0	0	0
2024-05-02	12:50:12	12:57:47	454540	6.6.1	4_exp_EVA_AWA_CON	12	B	A	Rpleas_acq	Oppo	Rpleas	2pleas	acq_US_unple_nomask	acq3_nomask	3	27	453	0	300	300	0	0	691	46	1	0	schön	freundlich	schlau	tolerant	lachen	treu	schlecht	fanatisch	schroff	tyrannisch	leiden	tot	loyal	retten	helfen	ehrlich	spielen	fair	lasch	rächen	hindern	eitel	strafen	faul	1	blank2r.bmp	0	1	+	0	1	blank2r.bmp	500	1	BMVZ	500	1	blank2r.bmp	880	3	schroff	880	1	!	1293	1	!	-1	0	0	0	0	0	0
2024-05-02	12:50:12	12:57:49	456892	6.6.1	4_exp_EVA_AWA_CON	12	B	A	Rpleas_acq	Oppo	Rpleas	2pleas	acq_US_unple_nomask	acq3_nomask	3	28	453	0	300	300	0	0	571	46	1	0	schön	freundlich	schlau	tolerant	lachen	treu	schlecht	fanatisch	schroff	tyrannisch	leiden	tot	loyal	retten	helfen	ehrlich	spielen	fair	lasch	rächen	hindern	eitel	strafen	faul	1	blank2r.bmp	0	1	+	0	1	blank2r.bmp	500	1	BMVZ	500	1	blank2r.bmp	880	6	tot	880	1	!	1293	1	!	-1	0	0	0	0	0	0
2024-05-02	12:50:12	12:57:52	459220	6.6.1	4_exp_EVA_AWA_CON	12	B	A	Rpleas_acq	Oppo	Rpleas	2pleas	acq_US_unple_nomask	acq3_nomask	3	29	453	0	300	300	0	0	548	46	1	0	schön	freundlich	schlau	tolerant	lachen	treu	schlecht	fanatisch	schroff	tyrannisch	leiden	tot	loyal	retten	helfen	ehrlich	spielen	fair	lasch	rächen	hindern	eitel	strafen	faul	1	blank2r.bmp	0	1	+	0	1	blank2r.bmp	500	1	BMVZ	500	1	blank2r.bmp	880	5	leiden	880	1	!	1292	1	!	-1	0	0	0	0	0	0
2024-05-02	12:50:12	12:57:54	461495	6.6.1	4_exp_EVA_AWA_CON	12	B	A	Rpleas_acq	Oppo	Rpleas	2pleas	acq_US_pleas_nomask	acq3_nomask	3	30	453	1	300	300	0	0	498	50	1	0	schön	freundlich	schlau	tolerant	lachen	treu	schlecht	fanatisch	schroff	tyrannisch	leiden	tot	loyal	retten	helfen	ehrlich	spielen	fair	lasch	rächen	hindern	eitel	strafen	faul	1	blank2r.bmp	0	1	+	0	1	blank2r.bmp	500	1	GKQX	500	1	blank2r.bmp	880	1	schön	880	1	!	1292	1	!	1400	0	0	0	0	0	0
2024-05-02	12:50:12	12:57:57	464135	6.6.1	4_exp_EVA_AWA_CON	12	B	A	Rpleas_acq	Oppo	Rpleas	2pleas	acq_US_pleas_nomask	acq3_nomask	3	31	453	0	300	300	0	0	657	46	0	0	schön	freundlich	schlau	tolerant	lachen	treu	schlecht	fanatisch	schroff	tyrannisch	leiden	tot	loyal	retten	helfen	ehrlich	spielen	fair	lasch	rächen	hindern	eitel	strafen	faul	1	blank2r.bmp	0	1	+	0	1	blank2r.bmp	500	1	GKQX	500	1	blank2r.bmp	880	3	schlau	880	1	FEHLER	1850	1	!	1293	1	!	-1	0	0	0
2024-05-02	12:50:12	12:57:59	466159	6.6.1	4_exp_EVA_AWA_CON	12	B	A	Rpleas_acq	Oppo	Rpleas	2pleas	acq_US_pleas_nomask	acq3_nomask	3	32	453	1	300	300	0	0	450	50	1	0	schön	freundlich	schlau	tolerant	lachen	treu	schlecht	fanatisch	schroff	tyrannisch	leiden	tot	loyal	retten	helfen	ehrlich	spielen	fair	lasch	rächen	hindern	eitel	strafen	faul	1	blank2r.bmp	0	1	+	0	1	blank2r.bmp	500	1	GKQX	500	1	blank2r.bmp	880	5	lachen	880	1	!	1292	1	!	1352	0	0	0	0	0	0
2024-05-02	12:50:12	12:58:01	468454	6.6.1	4_exp_EVA_AWA_CON	12	B	A	Rpleas_acq	Oppo	Rpleas	2pleas	acq_US_unple_nomask	acq3_nomask	3	33	453	1	300	300	0	0	514	46	1	0	schön	freundlich	schlau	tolerant	lachen	treu	schlecht	fanatisch	schroff	tyrannisch	leiden	tot	loyal	retten	helfen	ehrlich	spielen	fair	lasch	rächen	hindern	eitel	strafen	faul	1	blank2r.bmp	0	1	+	0	1	blank2r.bmp	500	1	BMVZ	500	1	blank2r.bmp	880	4	tyrannisch	880	1	!	1292	1	!	1415	0	0	0	0	0	0
2024-05-02	12:50:12	12:58:03	470967	6.6.1	4_exp_EVA_AWA_CON	12	B	A	Rpleas_acq	Oppo	Rpleas	2pleas	acq_US_pleas_nomask	acq3_nomask	3	34	453	0	300	300	0	0	534	46	0	0	schön	freundlich	schlau	tolerant	lachen	treu	schlecht	fanatisch	schroff	tyrannisch	leiden	tot	loyal	retten	helfen	ehrlich	spielen	fair	lasch	rächen	hindern	eitel	strafen	faul	1	blank2r.bmp	0	1	+	0	1	blank2r.bmp	500	1	GKQX	500	1	blank2r.bmp	880	2	freundlich	880	1	FEHLER	1728	1	!	1293	1	!	-1	0	0	0
2024-05-02	12:50:12	12:58:06	473172	6.6.1	4_exp_EVA_AWA_CON	12	B	A	Rpleas_acq	Oppo	Rpleas	2pleas	acq_US_unple_nomask	acq3_nomask	3	35	453	0	300	300	0	0	631	46	1	0	schön	freundlich	schlau	tolerant	lachen	treu	schlecht	fanatisch	schroff	tyrannisch	leiden	tot	loyal	retten	helfen	ehrlich	spielen	fair	lasch	rächen	hindern	eitel	strafen	faul	1	blank2r.bmp	0	1	+	0	1	blank2r.bmp	500	1	BMVZ	500	1	blank2r.bmp	880	1	schlecht	880	1	!	1293	1	!	-1	0	0	0	0	0	0
2024-05-02	12:50:12	12:58:08	475300	6.6.1	4_exp_EVA_AWA_CON	12	B	A	Rpleas_acq	Oppo	Rpleas	2pleas	acq_US_pleas_nomask	acq3_nomask	3	36	453	0	300	300	0	0	348	50	1	0	schön	freundlich	schlau	tolerant	lachen	treu	schlecht	fanatisch	schroff	tyrannisch	leiden	tot	loyal	retten	helfen	ehrlich	spielen	fair	lasch	rächen	hindern	eitel	strafen	faul	1	blank2r.bmp	0	1	+	0	1	blank2r.bmp	500	1	GKQX	500	1	blank2r.bmp	880	4	tolerant	880	1	!	-1	1	!	-1	0	0	0	0	0	0
2024-05-02	12:50:12	12:58:33	500892	6.6.1	4_exp_EVA_AWA_CON	12	B	A	Rpleas_acq	Oppo	Rpleas	2pleas	acq_US_unple_nomask	acq45_nomask	4	1	400	0	300	300	0	0	533	46	1	0	schön	freundlich	schlau	tolerant	lachen	treu	schlecht	fanatisch	schroff	tyrannisch	leiden	tot	loyal	retten	helfen	ehrlich	spielen	fair	lasch	rächen	hindern	eitel	strafen	faul	1	blank2r.bmp	0	1	+	0	1	blank2r.bmp	500	1	BMVZ	500	1	blank2r.bmp	880	1	schlecht	880	1	!	1233	1	!	-1	0	0	0	0	0	0
2024-05-02	12:50:12	12:58:35	502996	6.6.1	4_exp_EVA_AWA_CON	12	B	A	Rpleas_acq	Oppo	Rpleas	2pleas	acq_US_unple_nomask	acq45_nomask	4	2	400	0	300	300	0	0	325	46	1	0	schön	freundlich	schlau	tolerant	lachen	treu	schlecht	fanatisch	schroff	tyrannisch	leiden	tot	loyal	retten	helfen	ehrlich	spielen	fair	lasch	rächen	hindern	eitel	strafen	faul	1	blank2r.bmp	0	1	+	0	1	blank2r.bmp	500	1	BMVZ	500	1	blank2r.bmp	880	6	tot	880	1	!	-1	1	!	-1	0	0	0	0	0	0
2024-05-02	12:50:12	12:58:38	505143	6.6.1	4_exp_EVA_AWA_CON	12	B	A	Rpleas_acq	Oppo	Rpleas	2pleas	acq_US_unple_nomask	acq45_nomask	4	3	400	1	300	300	0	0	368	50	0	0	schön	freundlich	schlau	tolerant	lachen	treu	schlecht	fanatisch	schroff	tyrannisch	leiden	tot	loyal	retten	helfen	ehrlich	spielen	fair	lasch	rächen	hindern	eitel	strafen	faul	1	blank2r.bmp	0	1	+	0	1	blank2r.bmp	500	1	BMVZ	500	1	blank2r.bmp	880	3	schroff	880	1	!	1232	1	!	1270	0	0	0	0	0	0
2024-05-02	12:50:12	12:58:40	507196	6.6.1	4_exp_EVA_AWA_CON	12	B	A	Rpleas_acq	Oppo	Rpleas	2pleas	acq_US_unple_nomask	acq45_nomask	4	4	400	0	300	300	0	0	272	46	1	0	schön	freundlich	schlau	tolerant	lachen	treu	schlecht	fanatisch	schroff	tyrannisch	leiden	tot	loyal	retten	helfen	ehrlich	spielen	fair	lasch	rächen	hindern	eitel	strafen	faul	1	blank2r.bmp	0	1	+	0	1	blank2r.bmp	500	1	BMVZ	500	1	blank2r.bmp	880	5	leiden	880	1	!	-1	1	!	-1	0	0	0	0	0	0
2024-05-02	12:50:12	12:58:42	509532	6.6.1	4_exp_EVA_AWA_CON	12	B	A	Rpleas_acq	Oppo	Rpleas	2pleas	acq_US_pleas_nomask	acq45_nomask	4	5	400	0	300	300	0	0	557	50	1	0	schön	freundlich	schlau	tolerant	lachen	treu	schlecht	fanatisch	schroff	tyrannisch	leiden	tot	loyal	retten	helfen	ehrlich	spielen	fair	lasch	rächen	hindern	eitel	strafen	faul	1	blank2r.bmp	0	1	+	0	1	blank2r.bmp	500	1	GKQX	500	1	blank2r.bmp	880	6	treu	880	1	!	1233	1	!	-1	0	0	0	0	0	0
2024-05-02	12:50:12	12:58:44	511877	6.6.1	4_exp_EVA_AWA_CON	12	B	A	Rpleas_acq	Oppo	Rpleas	2pleas	acq_US_unple_nomask	acq45_nomask	4	6	400	0	300	300	0	0	570	46	1	0	schön	freundlich	schlau	tolerant	lachen	treu	schlecht	fanatisch	schroff	tyrannisch	leiden	tot	loyal	retten	helfen	ehrlich	spielen	fair	lasch	rächen	hindern	eitel	strafen	faul	1	blank2r.bmp	0	1	+	0	1	blank2r.bmp	500	1	BMVZ	500	1	blank2r.bmp	880	2	fanatisch	880	1	!	1233	1	!	-1	0	0	0	0	0	0
2024-05-02	12:50:12	12:58:47	514149	6.6.1	4_exp_EVA_AWA_CON	12	B	A	Rpleas_acq	Oppo	Rpleas	2pleas	acq_US_unple_nomask	acq45_nomask	4	7	400	0	300	300	0	0	491	46	1	0	schön	freundlich	schlau	tolerant	lachen	treu	schlecht	fanatisch	schroff	tyrannisch	leiden	tot	loyal	retten	helfen	ehrlich	spielen	fair	lasch	rächen	hindern	eitel	strafen	faul	1	blank2r.bmp	0	1	+	0	1	blank2r.bmp	500	1	BMVZ	500	1	blank2r.bmp	880	4	tyrannisch	880	1	!	1232	1	!	-1	0	0	0	0	0	0
2024-05-02	12:50:12	12:58:49	516334	6.6.1	4_exp_EVA_AWA_CON	12	B	A	Rpleas_acq	Oppo	Rpleas	2pleas	acq_US_pleas_nomask	acq45_nomask	4	8	400	1	300	300	0	0	402	46	0	0	schön	freundlich	schlau	tolerant	lachen	treu	schlecht	fanatisch	schroff	tyrannisch	leiden	tot	loyal	retten	helfen	ehrlich	spielen	fair	lasch	rächen	hindern	eitel	strafen	faul	1	blank2r.bmp	0	1	+	0	1	blank2r.bmp	500	1	GKQX	500	1	blank2r.bmp	880	4	tolerant	880	1	!	1232	1	!	1304	0	0	0	0	0	0
2024-05-02	12:50:12	12:58:51	518628	6.6.1	4_exp_EVA_AWA_CON	12	B	A	Rpleas_acq	Oppo	Rpleas	2pleas	acq_US_pleas_nomask	acq45_nomask	4	9	400	0	300	300	0	0	517	46	0	0	schön	freundlich	schlau	tolerant	lachen	treu	schlecht	fanatisch	schroff	tyrannisch	leiden	tot	loyal	retten	helfen	ehrlich	spielen	fair	lasch	rächen	hindern	eitel	strafen	faul	1	blank2r.bmp	0	1	+	0	1	blank2r.bmp	500	1	GKQX	500	1	blank2r.bmp	880	5	lachen	880	1	!	1232	1	!	-1	0	0	0	0	0	0
2024-05-02	12:50:12	12:58:53	520973	6.6.1	4_exp_EVA_AWA_CON	12	B	A	Rpleas_acq	Oppo	Rpleas	2pleas	acq_US_pleas_nomask	acq45_nomask	4	10	400	0	300	300	0	0	570	50	1	0	schön	freundlich	schlau	tolerant	lachen	treu	schlecht	fanatisch	schroff	tyrannisch	leiden	tot	loyal	retten	helfen	ehrlich	spielen	fair	lasch	rächen	hindern	eitel	strafen	faul	1	blank2r.bmp	0	1	+	0	1	blank2r.bmp	500	1	GKQX	500	1	blank2r.bmp	880	2	freundlich	880	1	!	1232	1	!	-1	0	0	0	0	0	0
2024-05-02	12:50:12	12:58:56	523175	6.6.1	4_exp_EVA_AWA_CON	12	B	A	Rpleas_acq	Oppo	Rpleas	2pleas	acq_US_pleas_nomask	acq45_nomask	4	11	400	1	300	300	0	0	418	46	0	0	schön	freundlich	schlau	tolerant	lachen	treu	schlecht	fanatisch	schroff	tyrannisch	leiden	tot	loyal	retten	helfen	ehrlich	spielen	fair	lasch	rächen	hindern	eitel	strafen	faul	1	blank2r.bmp	0	1	+	0	1	blank2r.bmp	500	1	GKQX	500	1	blank2r.bmp	880	1	schön	880	1	!	1232	1	!	1320	0	0	0	0	0	0
2024-05-02	12:50:12	12:58:58	525484	6.6.1	4_exp_EVA_AWA_CON	12	B	A	Rpleas_acq	Oppo	Rpleas	2pleas	acq_US_pleas_nomask	acq45_nomask	4	12	400	0	300	300	0	0	529	50	1	0	schön	freundlich	schlau	tolerant	lachen	treu	schlecht	fanatisch	schroff	tyrannisch	leiden	tot	loyal	retten	helfen	ehrlich	spielen	fair	lasch	rächen	hindern	eitel	strafen	faul	1	blank2r.bmp	0	1	+	0	1	blank2r.bmp	500	1	GKQX	500	1	blank2r.bmp	880	3	schlau	880	1	!	1233	1	!	-1	0	0	0	0	0	0
2024-05-02	12:50:12	12:59:00	527719	6.6.1	4_exp_EVA_AWA_CON	12	B	A	Rpleas_acq	Oppo	Rpleas	2pleas	acq_US_unple_nomask	acq45_nomask	4	13	400	1	300	300	0	0	459	50	0	0	schön	freundlich	schlau	tolerant	lachen	treu	schlecht	fanatisch	schroff	tyrannisch	leiden	tot	loyal	retten	helfen	ehrlich	spielen	fair	lasch	rächen	hindern	eitel	strafen	faul	1	blank2r.bmp	0	1	+	0	1	blank2r.bmp	500	1	BMVZ	500	1	blank2r.bmp	880	3	schroff	880	1	!	1232	1	!	1362	0	0	0	0	0	0
2024-05-02	12:50:12	12:59:02	529934	6.6.1	4_exp_EVA_AWA_CON	12	B	A	Rpleas_acq	Oppo	Rpleas	2pleas	acq_US_pleas_nomask	acq45_nomask	4	14	400	1	300	300	0	0	434	50	1	0	schön	freundlich	schlau	tolerant	lachen	treu	schlecht	fanatisch	schroff	tyrannisch	leiden	tot	loyal	retten	helfen	ehrlich	spielen	fair	lasch	rächen	hindern	eitel	strafen	faul	1	blank2r.bmp	0	1	+	0	1	blank2r.bmp	500	1	GKQX	500	1	blank2r.bmp	880	2	freundlich	880	1	!	1233	1	!	1336	0	0	0	0	0	0
2024-05-02	12:50:12	12:59:05	532244	6.6.1	4_exp_EVA_AWA_CON	12	B	A	Rpleas_acq	Oppo	Rpleas	2pleas	acq_US_unple_nomask	acq45_nomask	4	15	400	0	300	300	0	0	534	46	1	0	schön	freundlich	schlau	tolerant	lachen	treu	schlecht	fanatisch	schroff	tyrannisch	leiden	tot	loyal	retten	helfen	ehrlich	spielen	fair	lasch	rächen	hindern	eitel	strafen	faul	1	blank2r.bmp	0	1	+	0	1	blank2r.bmp	500	1	BMVZ	500	1	blank2r.bmp	880	4	tyrannisch	880	1	!	1232	1	!	-1	0	0	0	0	0	0
2024-05-02	12:50:12	12:59:07	534564	6.6.1	4_exp_EVA_AWA_CON	12	B	A	Rpleas_acq	Oppo	Rpleas	2pleas	acq_US_unple_nomask	acq45_nomask	4	16	400	0	300	300	0	0	543	46	1	0	schön	freundlich	schlau	tolerant	lachen	treu	schlecht	fanatisch	schroff	tyrannisch	leiden	tot	loyal	retten	helfen	ehrlich	spielen	fair	lasch	rächen	hindern	eitel	strafen	faul	1	blank2r.bmp	0	1	+	0	1	blank2r.bmp	500	1	BMVZ	500	1	blank2r.bmp	880	2	fanatisch	880	1	!	1233	1	!	-1	0	0	0	0	0	0
2024-05-02	12:50:12	12:59:09	536844	6.6.1	4_exp_EVA_AWA_CON	12	B	A	Rpleas_acq	Oppo	Rpleas	2pleas	acq_US_pleas_nomask	acq45_nomask	4	17	400	0	300	300	0	0	501	50	1	0	schön	freundlich	schlau	tolerant	lachen	treu	schlecht	fanatisch	schroff	tyrannisch	leiden	tot	loyal	retten	helfen	ehrlich	spielen	fair	lasch	rächen	hindern	eitel	strafen	faul	1	blank2r.bmp	0	1	+	0	1	blank2r.bmp	500	1	GKQX	500	1	blank2r.bmp	880	5	lachen	880	1	!	1233	1	!	-1	0	0	0	0	0	0
2024-05-02	12:50:12	12:59:11	539030	6.6.1	4_exp_EVA_AWA_CON	12	B	A	Rpleas_acq	Oppo	Rpleas	2pleas	acq_US_pleas_nomask	acq45_nomask	4	18	400	1	300	300	0	0	404	50	1	0	schön	freundlich	schlau	tolerant	lachen	treu	schlecht	fanatisch	schroff	tyrannisch	leiden	tot	loyal	retten	helfen	ehrlich	spielen	fair	lasch	rächen	hindern	eitel	strafen	faul	1	blank2r.bmp	0	1	+	0	1	blank2r.bmp	500	1	GKQX	500	1	blank2r.bmp	880	3	schlau	880	1	!	1233	1	!	1306	0	0	0	0	0	0
2024-05-02	12:50:12	12:59:14	541372	6.6.1	4_exp_EVA_AWA_CON	12	B	A	Rpleas_acq	Oppo	Rpleas	2pleas	acq_US_pleas_nomask	acq45_nomask	4	19	400	0	300	300	0	0	566	46	0	0	schön	freundlich	schlau	tolerant	lachen	treu	schlecht	fanatisch	schroff	tyrannisch	leiden	tot	loyal	retten	helfen	ehrlich	spielen	fair	lasch	rächen	hindern	eitel	strafen	faul	1	blank2r.bmp	0	1	+	0	1	blank2r.bmp	500	1	GKQX	500	1	blank2r.bmp	880	4	tolerant	880	1	!	1233	1	!	-1	0	0	0	0	0	0
2024-05-02	12:50:12	12:59:16	543518	6.6.1	4_exp_EVA_AWA_CON	12	B	A	Rpleas_acq	Oppo	Rpleas	2pleas	acq_US_pleas_nomask	acq45_nomask	4	20	400	1	300	300	0	0	369	50	1	0	schön	freundlich	schlau	tolerant	lachen	treu	schlecht	fanatisch	schroff	tyrannisch	leiden	tot	loyal	retten	helfen	ehrlich	spielen	fair	lasch	rächen	hindern	eitel	strafen	faul	1	blank2r.bmp	0	1	+	0	1	blank2r.bmp	500	1	GKQX	500	1	blank2r.bmp	880	6	treu	880	1	!	1232	1	!	1271	0	0	0	0	0	0
2024-05-02	12:50:12	12:59:18	545711	6.6.1	4_exp_EVA_AWA_CON	12	B	A	Rpleas_acq	Oppo	Rpleas	2pleas	acq_US_pleas_nomask	acq45_nomask	4	21	400	1	300	300	0	0	410	50	1	0	schön	freundlich	schlau	tolerant	lachen	treu	schlecht	fanatisch	schroff	tyrannisch	leiden	tot	loyal	retten	helfen	ehrlich	spielen	fair	lasch	rächen	hindern	eitel	strafen	faul	1	blank2r.bmp	0	1	+	0	1	blank2r.bmp	500	1	GKQX	500	1	blank2r.bmp	880	1	schön	880	1	!	1232	1	!	1312	0	0	0	0	0	0
2024-05-02	12:50:12	12:59:20	547926	6.6.1	4_exp_EVA_AWA_CON	12	B	A	Rpleas_acq	Oppo	Rpleas	2pleas	acq_US_pleas_nomask	acq45_nomask	4	22	400	1	300	300	0	0	434	50	1	0	schön	freundlich	schlau	tolerant	lachen	treu	schlecht	fanatisch	schroff	tyrannisch	leiden	tot	loyal	retten	helfen	ehrlich	spielen	fair	lasch	rächen	hindern	eitel	strafen	faul	1	blank2r.bmp	0	1	+	0	1	blank2r.bmp	500	1	GKQX	500	1	blank2r.bmp	880	2	freundlich	880	1	!	1232	1	!	1336	0	0	0	0	0	0
2024-05-02	12:50:12	12:59:23	550252	6.6.1	4_exp_EVA_AWA_CON	12	B	A	Rpleas_acq	Oppo	Rpleas	2pleas	acq_US_unple_nomask	acq45_nomask	4	23	400	0	300	300	0	0	551	46	1	0	schön	freundlich	schlau	tolerant	lachen	treu	schlecht	fanatisch	schroff	tyrannisch	leiden	tot	loyal	retten	helfen	ehrlich	spielen	fair	lasch	rächen	hindern	eitel	strafen	faul	1	blank2r.bmp	0	1	+	0	1	blank2r.bmp	500	1	BMVZ	500	1	blank2r.bmp	880	6	tot	880	1	!	1232	1	!	-1	0	0	0	0	0	0
2024-05-02	12:50:12	12:59:25	552366	6.6.1	4_exp_EVA_AWA_CON	12	B	A	Rpleas_acq	Oppo	Rpleas	2pleas	acq_US_unple_nomask	acq45_nomask	4	24	400	1	300	300	0	0	333	50	0	0	schön	freundlich	schlau	tolerant	lachen	treu	schlecht	fanatisch	schroff	tyrannisch	leiden	tot	loyal	retten	helfen	ehrlich	spielen	fair	lasch	rächen	hindern	eitel	strafen	faul	1	blank2r.bmp	0	1	+	0	1	blank2r.bmp	500	1	BMVZ	500	1	blank2r.bmp	880	5	leiden	880	1	!	1232	1	!	1233	0	0	0	0	0	0
2024-05-02	12:50:12	12:59:27	554495	6.6.1	4_exp_EVA_AWA_CON	12	B	A	Rpleas_acq	Oppo	Rpleas	2pleas	acq_US_pleas_nomask	acq45_nomask	4	25	400	1	300	300	0	0	348	50	1	0	schön	freundlich	schlau	tolerant	lachen	treu	schlecht	fanatisch	schroff	tyrannisch	leiden	tot	loyal	retten	helfen	ehrlich	spielen	fair	lasch	rächen	hindern	eitel	strafen	faul	1	blank2r.bmp	0	1	+	0	1	blank2r.bmp	500	1	GKQX	500	1	blank2r.bmp	880	1	schön	880	1	!	1232	1	!	1250	0	0	0	0	0	0
2024-05-02	12:50:12	12:59:29	556638	6.6.1	4_exp_EVA_AWA_CON	12	B	A	Rpleas_acq	Oppo	Rpleas	2pleas	acq_US_pleas_nomask	acq45_nomask	4	26	400	1	300	300	0	0	360	46	0	0	schön	freundlich	schlau	tolerant	lachen	treu	schlecht	fanatisch	schroff	tyrannisch	leiden	tot	loyal	retten	helfen	ehrlich	spielen	fair	lasch	rächen	hindern	eitel	strafen	faul	1	blank2r.bmp	0	1	+	0	1	blank2r.bmp	500	1	GKQX	500	1	blank2r.bmp	880	5	lachen	880	1	!	1232	1	!	1262	0	0	0	0	0	0
2024-05-02	12:50:12	12:59:31	558948	6.6.1	4_exp_EVA_AWA_CON	12	B	A	Rpleas_acq	Oppo	Rpleas	2pleas	acq_US_unple_nomask	acq45_nomask	4	27	400	0	300	300	0	0	531	46	1	0	schön	freundlich	schlau	tolerant	lachen	treu	schlecht	fanatisch	schroff	tyrannisch	leiden	tot	loyal	retten	helfen	ehrlich	spielen	fair	lasch	rächen	hindern	eitel	strafen	faul	1	blank2r.bmp	0	1	+	0	1	blank2r.bmp	500	1	BMVZ	500	1	blank2r.bmp	880	1	schlecht	880	1	!	1232	1	!	-1	0	0	0	0	0	0
2024-05-02	12:50:12	12:59:34	561134	6.6.1	4_exp_EVA_AWA_CON	12	B	A	Rpleas_acq	Oppo	Rpleas	2pleas	acq_US_unple_nomask	acq45_nomask	4	28	400	1	300	300	0	0	404	46	1	0	schön	freundlich	schlau	tolerant	lachen	treu	schlecht	fanatisch	schroff	tyrannisch	leiden	tot	loyal	retten	helfen	ehrlich	spielen	fair	lasch	rächen	hindern	eitel	strafen	faul	1	blank2r.bmp	0	1	+	0	1	blank2r.bmp	500	1	BMVZ	500	1	blank2r.bmp	880	1	schlecht	880	1	!	1233	1	!	1305	0	0	0	0	0	0
2024-05-02	12:50:12	12:59:36	563386	6.6.1	4_exp_EVA_AWA_CON	12	B	A	Rpleas_acq	Oppo	Rpleas	2pleas	acq_US_unple_nomask	acq45_nomask	4	29	400	0	300	300	0	0	478	46	1	0	schön	freundlich	schlau	tolerant	lachen	treu	schlecht	fanatisch	schroff	tyrannisch	leiden	tot	loyal	retten	helfen	ehrlich	spielen	fair	lasch	rächen	hindern	eitel	strafen	faul	1	blank2r.bmp	0	1	+	0	1	blank2r.bmp	500	1	BMVZ	500	1	blank2r.bmp	880	2	fanatisch	880	1	!	1232	1	!	-1	0	0	0	0	0	0
2024-05-02	12:50:12	12:59:38	565444	6.6.1	4_exp_EVA_AWA_CON	12	B	A	Rpleas_acq	Oppo	Rpleas	2pleas	acq_US_pleas_nomask	acq45_nomask	4	30	400	0	300	300	0	0	283	50	1	0	schön	freundlich	schlau	tolerant	lachen	treu	schlecht	fanatisch	schroff	tyrannisch	leiden	tot	loyal	retten	helfen	ehrlich	spielen	fair	lasch	rächen	hindern	eitel	strafen	faul	1	blank2r.bmp	0	1	+	0	1	blank2r.bmp	500	1	GKQX	500	1	blank2r.bmp	880	3	schlau	880	1	!	-1	1	!	-1	0	0	0	0	0	0
2024-05-02	12:50:12	12:59:40	567678	6.6.1	4_exp_EVA_AWA_CON	12	B	A	Rpleas_acq	Oppo	Rpleas	2pleas	acq_US_pleas_nomask	acq45_nomask	4	31	400	1	300	300	0	0	453	46	0	0	schön	freundlich	schlau	tolerant	lachen	treu	schlecht	fanatisch	schroff	tyrannisch	leiden	tot	loyal	retten	helfen	ehrlich	spielen	fair	lasch	rächen	hindern	eitel	strafen	faul	1	blank2r.bmp	0	1	+	0	1	blank2r.bmp	500	1	GKQX	500	1	blank2r.bmp	880	4	tolerant	880	1	!	1232	1	!	1355	0	0	0	0	0	0
2024-05-02	12:50:12	12:59:42	569910	6.6.1	4_exp_EVA_AWA_CON	12	B	A	Rpleas_acq	Oppo	Rpleas	2pleas	acq_US_unple_nomask	acq45_nomask	4	32	400	1	300	300	0	0	454	46	1	0	schön	freundlich	schlau	tolerant	lachen	treu	schlecht	fanatisch	schroff	tyrannisch	leiden	tot	loyal	retten	helfen	ehrlich	spielen	fair	lasch	rächen	hindern	eitel	strafen	faul	1	blank2r.bmp	0	1	+	0	1	blank2r.bmp	500	1	BMVZ	500	1	blank2r.bmp	880	5	leiden	880	1	!	1232	1	!	1356	0	0	0	0	0	0
2024-05-02	12:50:12	12:59:44	571964	6.6.1	4_exp_EVA_AWA_CON	12	B	A	Rpleas_acq	Oppo	Rpleas	2pleas	acq_US_unple_nomask	acq45_nomask	4	33	400	0	300	300	0	0	278	50	0	0	schön	freundlich	schlau	tolerant	lachen	treu	schlecht	fanatisch	schroff	tyrannisch	leiden	tot	loyal	retten	helfen	ehrlich	spielen	fair	lasch	rächen	hindern	eitel	strafen	faul	1	blank2r.bmp	0	1	+	0	1	blank2r.bmp	500	1	BMVZ	500	1	blank2r.bmp	880	4	tyrannisch	880	1	!	-1	1	!	-1	0	0	0	0	0	0
2024-05-02	12:50:12	12:59:46	574028	6.6.1	4_exp_EVA_AWA_CON	12	B	A	Rpleas_acq	Oppo	Rpleas	2pleas	acq_US_unple_nomask	acq45_nomask	4	34	400	0	300	300	0	0	291	50	0	0	schön	freundlich	schlau	tolerant	lachen	treu	schlecht	fanatisch	schroff	tyrannisch	leiden	tot	loyal	retten	helfen	ehrlich	spielen	fair	lasch	rächen	hindern	eitel	strafen	faul	1	blank2r.bmp	0	1	+	0	1	blank2r.bmp	500	1	BMVZ	500	1	blank2r.bmp	880	3	schroff	880	1	!	-1	1	!	-1	0	0	0	0	0	0
2024-05-02	12:50:12	12:59:49	576292	6.6.1	4_exp_EVA_AWA_CON	12	B	A	Rpleas_acq	Oppo	Rpleas	2pleas	acq_US_unple_nomask	acq45_nomask	4	35	400	0	300	300	0	0	484	46	1	0	schön	freundlich	schlau	tolerant	lachen	treu	schlecht	fanatisch	schroff	tyrannisch	leiden	tot	loyal	retten	helfen	ehrlich	spielen	fair	lasch	rächen	hindern	eitel	strafen	faul	1	blank2r.bmp	0	1	+	0	1	blank2r.bmp	500	1	BMVZ	500	1	blank2r.bmp	880	6	tot	880	1	!	1233	1	!	-1	0	0	0	0	0	0
2024-05-02	12:50:12	12:59:51	578621	6.6.1	4_exp_EVA_AWA_CON	12	B	A	Rpleas_acq	Oppo	Rpleas	2pleas	acq_US_pleas_nomask	acq45_nomask	4	36	400	0	300	300	0	0	550	50	1	0	schön	freundlich	schlau	tolerant	lachen	treu	schlecht	fanatisch	schroff	tyrannisch	leiden	tot	loyal	retten	helfen	ehrlich	spielen	fair	lasch	rächen	hindern	eitel	strafen	faul	1	blank2r.bmp	0	1	+	0	1	blank2r.bmp	500	1	GKQX	500	1	blank2r.bmp	880	6	treu	880	1	!	1232	1	!	-1	0	0	0	0	0	0
2024-05-02	12:50:12	13:00:15	602846	6.6.1	4_exp_EVA_AWA_CON	12	B	A	Rpleas_acq	Oppo	Rpleas	2pleas	acq_US_pleas_nomask	acq45_nomask	5	1	400	1	300	300	0	0	469	50	1	0	schön	freundlich	schlau	tolerant	lachen	treu	schlecht	fanatisch	schroff	tyrannisch	leiden	tot	loyal	retten	helfen	ehrlich	spielen	fair	lasch	rächen	hindern	eitel	strafen	faul	1	blank2r.bmp	0	1	+	0	1	blank2r.bmp	500	1	GKQX	500	1	blank2r.bmp	880	1	schön	880	1	!	1233	1	!	1370	0	0	0	0	0	0
2024-05-02	12:50:12	13:00:18	605078	6.6.1	4_exp_EVA_AWA_CON	12	B	A	Rpleas_acq	Oppo	Rpleas	2pleas	acq_US_unple_nomask	acq45_nomask	5	2	400	1	300	300	0	0	449	46	1	0	schön	freundlich	schlau	tolerant	lachen	treu	schlecht	fanatisch	schroff	tyrannisch	leiden	tot	loyal	retten	helfen	ehrlich	spielen	fair	lasch	rächen	hindern	eitel	strafen	faul	1	blank2r.bmp	0	1	+	0	1	blank2r.bmp	500	1	BMVZ	500	1	blank2r.bmp	880	6	tot	880	1	!	1232	1	!	1351	0	0	0	0	0	0
2024-05-02	12:50:12	13:00:20	607540	6.6.1	4_exp_EVA_AWA_CON	12	B	A	Rpleas_acq	Oppo	Rpleas	2pleas	acq_US_unple_nomask	acq45_nomask	5	3	400	0	300	300	0	0	682	46	1	0	schön	freundlich	schlau	tolerant	lachen	treu	schlecht	fanatisch	schroff	tyrannisch	leiden	tot	loyal	retten	helfen	ehrlich	spielen	fair	lasch	rächen	hindern	eitel	strafen	faul	1	blank2r.bmp	0	1	+	0	1	blank2r.bmp	500	1	BMVZ	500	1	blank2r.bmp	880	2	fanatisch	880	1	!	1232	1	!	-1	0	0	0	0	0	0
2024-05-02	12:50:12	13:00:22	609766	6.6.1	4_exp_EVA_AWA_CON	12	B	A	Rpleas_acq	Oppo	Rpleas	2pleas	acq_US_pleas_nomask	acq45_nomask	5	4	400	1	300	300	0	0	444	50	1	0	schön	freundlich	schlau	tolerant	lachen	treu	schlecht	fanatisch	schroff	tyrannisch	leiden	tot	loyal	retten	helfen	ehrlich	spielen	fair	lasch	rächen	hindern	eitel	strafen	faul	1	blank2r.bmp	0	1	+	0	1	blank2r.bmp	500	1	GKQX	500	1	blank2r.bmp	880	3	schlau	880	1	!	1232	1	!	1345	0	0	0	0	0	0
2024-05-02	12:50:12	13:00:25	612076	6.6.1	4_exp_EVA_AWA_CON	12	B	A	Rpleas_acq	Oppo	Rpleas	2pleas	acq_US_unple_nomask	acq45_nomask	5	5	400	0	300	300	0	0	535	46	1	0	schön	freundlich	schlau	tolerant	lachen	treu	schlecht	fanatisch	schroff	tyrannisch	leiden	tot	loyal	retten	helfen	ehrlich	spielen	fair	lasch	rächen	hindern	eitel	strafen	faul	1	blank2r.bmp	0	1	+	0	1	blank2r.bmp	500	1	BMVZ	500	1	blank2r.bmp	880	3	schroff	880	1	!	1233	1	!	-1	0	0	0	0	0	0
2024-05-02	12:50:12	13:00:27	614373	6.6.1	4_exp_EVA_AWA_CON	12	B	A	Rpleas_acq	Oppo	Rpleas	2pleas	acq_US_pleas_nomask	acq45_nomask	5	6	400	0	300	300	0	0	519	50	1	0	schön	freundlich	schlau	tolerant	lachen	treu	schlecht	fanatisch	schroff	tyrannisch	leiden	tot	loyal	retten	helfen	ehrlich	spielen	fair	lasch	rächen	hindern	eitel	strafen	faul	1	blank2r.bmp	0	1	+	0	1	blank2r.bmp	500	1	GKQX	500	1	blank2r.bmp	880	2	freundlich	880	1	!	1233	1	!	-1	0	0	0	0	0	0
2024-05-02	12:50:12	13:00:29	616708	6.6.1	4_exp_EVA_AWA_CON	12	B	A	Rpleas_acq	Oppo	Rpleas	2pleas	acq_US_pleas_nomask	acq45_nomask	5	7	400	0	300	300	0	0	554	46	0	0	schön	freundlich	schlau	tolerant	lachen	treu	schlecht	fanatisch	schroff	tyrannisch	leiden	tot	loyal	retten	helfen	ehrlich	spielen	fair	lasch	rächen	hindern	eitel	strafen	faul	1	blank2r.bmp	0	1	+	0	1	blank2r.bmp	500	1	GKQX	500	1	blank2r.bmp	880	4	tolerant	880	1	!	1233	1	!	-1	0	0	0	0	0	0
2024-05-02	12:50:12	13:00:31	618918	6.6.1	4_exp_EVA_AWA_CON	12	B	A	Rpleas_acq	Oppo	Rpleas	2pleas	acq_US_pleas_nomask	acq45_nomask	5	8	400	1	300	300	0	0	430	46	0	0	schön	freundlich	schlau	tolerant	lachen	treu	schlecht	fanatisch	schroff	tyrannisch	leiden	tot	loyal	retten	helfen	ehrlich	spielen	fair	lasch	rächen	hindern	eitel	strafen	faul	1	blank2r.bmp	0	1	+	0	1	blank2r.bmp	500	1	GKQX	500	1	blank2r.bmp	880	6	treu	880	1	!	1232	1	!	1332	0	0	0	0	0	0
2024-05-02	12:50:12	13:00:34	621126	6.6.1	4_exp_EVA_AWA_CON	12	B	A	Rpleas_acq	Oppo	Rpleas	2pleas	acq_US_unple_nomask	acq45_nomask	5	9	400	1	300	300	0	0	427	50	0	0	schön	freundlich	schlau	tolerant	lachen	treu	schlecht	fanatisch	schroff	tyrannisch	leiden	tot	loyal	retten	helfen	ehrlich	spielen	fair	lasch	rächen	hindern	eitel	strafen	faul	1	blank2r.bmp	0	1	+	0	1	blank2r.bmp	500	1	BMVZ	500	1	blank2r.bmp	880	1	schlecht	880	1	!	1233	1	!	1328	0	0	0	0	0	0
2024-05-02	12:50:12	13:00:36	623220	6.6.1	4_exp_EVA_AWA_CON	12	B	A	Rpleas_acq	Oppo	Rpleas	2pleas	acq_US_pleas_nomask	acq45_nomask	5	10	400	0	300	300	0	0	321	50	1	0	schön	freundlich	schlau	tolerant	lachen	treu	schlecht	fanatisch	schroff	tyrannisch	leiden	tot	loyal	retten	helfen	ehrlich	spielen	fair	lasch	rächen	hindern	eitel	strafen	faul	1	blank2r.bmp	0	1	+	0	1	blank2r.bmp	500	1	GKQX	500	1	blank2r.bmp	880	5	lachen	880	1	!	-1	1	!	-1	0	0	0	0	0	0
2024-05-02	12:50:12	13:00:38	625652	6.6.1	4_exp_EVA_AWA_CON	12	B	A	Rpleas_acq	Oppo	Rpleas	2pleas	acq_US_unple_nomask	acq45_nomask	5	11	400	0	300	300	0	0	652	46	1	0	schön	freundlich	schlau	tolerant	lachen	treu	schlecht	fanatisch	schroff	tyrannisch	leiden	tot	loyal	retten	helfen	ehrlich	spielen	fair	lasch	rächen	hindern	eitel	strafen	faul	1	blank2r.bmp	0	1	+	0	1	blank2r.bmp	500	1	BMVZ	500	1	blank2r.bmp	880	5	leiden	880	1	!	1233	1	!	-1	0	0	0	0	0	0
2024-05-02	12:50:12	13:00:40	627972	6.6.1	4_exp_EVA_AWA_CON	12	B	A	Rpleas_acq	Oppo	Rpleas	2pleas	acq_US_pleas_nomask	acq45_nomask	5	12	400	0	300	300	0	0	540	50	1	0	schön	freundlich	schlau	tolerant	lachen	treu	schlecht	fanatisch	schroff	tyrannisch	leiden	tot	loyal	retten	helfen	ehrlich	spielen	fair	lasch	rächen	hindern	eitel	strafen	faul	1	blank2r.bmp	0	1	+	0	1	blank2r.bmp	500	1	GKQX	500	1	blank2r.bmp	880	5	lachen	880	1	!	1232	1	!	-1	0	0	0	0	0	0
2024-05-02	12:50:12	13:00:43	630206	6.6.1	4_exp_EVA_AWA_CON	12	B	A	Rpleas_acq	Oppo	Rpleas	2pleas	acq_US_unple_nomask	acq45_nomask	5	13	400	1	300	300	0	0	451	46	1	0	schön	freundlich	schlau	tolerant	lachen	treu	schlecht	fanatisch	schroff	tyrannisch	leiden	tot	loyal	retten	helfen	ehrlich	spielen	fair	lasch	rächen	hindern	eitel	strafen	faul	1	blank2r.bmp	0	1	+	0	1	blank2r.bmp	500	1	BMVZ	500	1	blank2r.bmp	880	4	tyrannisch	880	1	!	1233	1	!	1353	0	0	0	0	0	0
2024-05-02	12:50:12	13:00:45	632565	6.6.1	4_exp_EVA_AWA_CON	12	B	A	Rpleas_acq	Oppo	Rpleas	2pleas	acq_US_pleas_nomask	acq45_nomask	5	14	400	0	300	300	0	0	579	50	1	0	schön	freundlich	schlau	tolerant	lachen	treu	schlecht	fanatisch	schroff	tyrannisch	leiden	tot	loyal	retten	helfen	ehrlich	spielen	fair	lasch	rächen	hindern	eitel	strafen	faul	1	blank2r.bmp	0	1	+	0	1	blank2r.bmp	500	1	GKQX	500	1	blank2r.bmp	880	2	freundlich	880	1	!	1232	1	!	-1	0	0	0	0	0	0
2024-05-02	12:50:12	13:00:47	634694	6.6.1	4_exp_EVA_AWA_CON	12	B	A	Rpleas_acq	Oppo	Rpleas	2pleas	acq_US_unple_nomask	acq45_nomask	5	15	400	1	300	300	0	0	346	46	1	0	schön	freundlich	schlau	tolerant	lachen	treu	schlecht	fanatisch	schroff	tyrannisch	leiden	tot	loyal	retten	helfen	ehrlich	spielen	fair	lasch	rächen	hindern	eitel	strafen	faul	1	blank2r.bmp	0	1	+	0	1	blank2r.bmp	500	1	BMVZ	500	1	blank2r.bmp	880	1	schlecht	880	1	!	1232	1	!	1247	0	0	0	0	0	0
2024-05-02	12:50:12	13:00:49	636870	6.6.1	4_exp_EVA_AWA_CON	12	B	A	Rpleas_acq	Oppo	Rpleas	2pleas	acq_US_unple_nomask	acq45_nomask	5	16	400	1	300	300	0	0	400	46	1	0	schön	freundlich	schlau	tolerant	lachen	treu	schlecht	fanatisch	schroff	tyrannisch	leiden	tot	loyal	retten	helfen	ehrlich	spielen	fair	lasch	rächen	hindern	eitel	strafen	faul	1	blank2r.bmp	0	1	+	0	1	blank2r.bmp	500	1	BMVZ	500	1	blank2r.bmp	880	5	leiden	880	1	!	1232	1	!	1302	0	0	0	0	0	0
2024-05-02	12:50:12	13:00:52	639062	6.6.1	4_exp_EVA_AWA_CON	12	B	A	Rpleas_acq	Oppo	Rpleas	2pleas	acq_US_pleas_nomask	acq45_nomask	5	17	400	1	300	300	0	0	411	46	0	0	schön	freundlich	schlau	tolerant	lachen	treu	schlecht	fanatisch	schroff	tyrannisch	leiden	tot	loyal	retten	helfen	ehrlich	spielen	fair	lasch	rächen	hindern	eitel	strafen	faul	1	blank2r.bmp	0	1	+	0	1	blank2r.bmp	500	1	GKQX	500	1	blank2r.bmp	880	6	treu	880	1	!	1233	1	!	1313	0	0	0	0	0	0
2024-05-02	12:50:12	13:00:54	641356	6.6.1	4_exp_EVA_AWA_CON	12	B	A	Rpleas_acq	Oppo	Rpleas	2pleas	acq_US_unple_nomask	acq45_nomask	5	18	400	0	300	300	0	0	516	50	0	0	schön	freundlich	schlau	tolerant	lachen	treu	schlecht	fanatisch	schroff	tyrannisch	leiden	tot	loyal	retten	helfen	ehrlich	spielen	fair	lasch	rächen	hindern	eitel	strafen	faul	1	blank2r.bmp	0	1	+	0	1	blank2r.bmp	500	1	BMVZ	500	1	blank2r.bmp	880	6	tot	880	1	!	1232	1	!	-1	0	0	0	0	0	0
2024-05-02	12:50:12	13:00:56	643428	6.6.1	4_exp_EVA_AWA_CON	12	B	A	Rpleas_acq	Oppo	Rpleas	2pleas	acq_US_pleas_nomask	acq45_nomask	5	19	400	0	300	300	0	0	296	46	0	0	schön	freundlich	schlau	tolerant	lachen	treu	schlecht	fanatisch	schroff	tyrannisch	leiden	tot	loyal	retten	helfen	ehrlich	spielen	fair	lasch	rächen	hindern	eitel	strafen	faul	1	blank2r.bmp	0	1	+	0	1	blank2r.bmp	500	1	GKQX	500	1	blank2r.bmp	880	4	tolerant	880	1	!	-1	1	!	-1	0	0	0	0	0	0
2024-05-02	12:50:12	13:00:58	645654	6.6.1	4_exp_EVA_AWA_CON	12	B	A	Rpleas_acq	Oppo	Rpleas	2pleas	acq_US_unple_nomask	acq45_nomask	5	20	400	1	300	300	0	0	449	46	1	0	schön	freundlich	schlau	tolerant	lachen	treu	schlecht	fanatisch	schroff	tyrannisch	leiden	tot	loyal	retten	helfen	ehrlich	spielen	fair	lasch	rächen	hindern	eitel	strafen	faul	1	blank2r.bmp	0	1	+	0	1	blank2r.bmp	500	1	BMVZ	500	1	blank2r.bmp	880	3	schroff	880	1	!	1233	1	!	1351	0	0	0	0	0	0
2024-05-02	12:50:12	13:01:00	647948	6.6.1	4_exp_EVA_AWA_CON	12	B	A	Rpleas_acq	Oppo	Rpleas	2pleas	acq_US_pleas_nomask	acq45_nomask	5	21	400	0	300	300	0	0	513	50	1	0	schön	freundlich	schlau	tolerant	lachen	treu	schlecht	fanatisch	schroff	tyrannisch	leiden	tot	loyal	retten	helfen	ehrlich	spielen	fair	lasch	rächen	hindern	eitel	strafen	faul	1	blank2r.bmp	0	1	+	0	1	blank2r.bmp	500	1	GKQX	500	1	blank2r.bmp	880	1	schön	880	1	!	1233	1	!	-1	0	0	0	0	0	0
2024-05-02	12:50:12	13:01:03	650220	6.6.1	4_exp_EVA_AWA_CON	12	B	A	Rpleas_acq	Oppo	Rpleas	2pleas	acq_US_pleas_nomask	acq45_nomask	5	22	400	0	300	300	0	0	494	50	1	0	schön	freundlich	schlau	tolerant	lachen	treu	schlecht	fanatisch	schroff	tyrannisch	leiden	tot	loyal	retten	helfen	ehrlich	spielen	fair	lasch	rächen	hindern	eitel	strafen	faul	1	blank2r.bmp	0	1	+	0	1	blank2r.bmp	500	1	GKQX	500	1	blank2r.bmp	880	3	schlau	880	1	!	1233	1	!	-1	0	0	0	0	0	0
2024-05-02	12:50:12	13:01:05	652580	6.6.1	4_exp_EVA_AWA_CON	12	B	A	Rpleas_acq	Oppo	Rpleas	2pleas	acq_US_unple_nomask	acq45_nomask	5	23	400	0	300	300	0	0	582	46	1	0	schön	freundlich	schlau	tolerant	lachen	treu	schlecht	fanatisch	schroff	tyrannisch	leiden	tot	loyal	retten	helfen	ehrlich	spielen	fair	lasch	rächen	hindern	eitel	strafen	faul	1	blank2r.bmp	0	1	+	0	1	blank2r.bmp	500	1	BMVZ	500	1	blank2r.bmp	880	4	tyrannisch	880	1	!	1233	1	!	-1	0	0	0	0	0	0
2024-05-02	12:50:12	13:01:07	654924	6.6.1	4_exp_EVA_AWA_CON	12	B	A	Rpleas_acq	Oppo	Rpleas	2pleas	acq_US_pleas_nomask	acq45_nomask	5	24	400	0	300	300	0	0	565	50	1	0	schön	freundlich	schlau	tolerant	lachen	treu	schlecht	fanatisch	schroff	tyrannisch	leiden	tot	loyal	retten	helfen	ehrlich	spielen	fair	lasch	rächen	hindern	eitel	strafen	faul	1	blank2r.bmp	0	1	+	0	1	blank2r.bmp	500	1	GKQX	500	1	blank2r.bmp	880	2	freundlich	880	1	!	1232	1	!	-1	0	0	0	0	0	0
2024-05-02	12:50:12	13:01:10	657244	6.6.1	4_exp_EVA_AWA_CON	12	B	A	Rpleas_acq	Oppo	Rpleas	2pleas	acq_US_unple_nomask	acq45_nomask	5	25	400	0	300	300	0	0	543	46	1	0	schön	freundlich	schlau	tolerant	lachen	treu	schlecht	fanatisch	schroff	tyrannisch	leiden	tot	loyal	retten	helfen	ehrlich	spielen	fair	lasch	rächen	hindern	eitel	strafen	faul	1	blank2r.bmp	0	1	+	0	1	blank2r.bmp	500	1	BMVZ	500	1	blank2r.bmp	880	2	fanatisch	880	1	!	1232	1	!	-1	0	0	0	0	0	0
2024-05-02	12:50:12	13:01:12	659228	6.6.1	4_exp_EVA_AWA_CON	12	B	A	Rpleas_acq	Oppo	Rpleas	2pleas	acq_US_pleas_nomask	acq45_nomask	5	26	400	0	300	300	0	0	206	50	1	0	schön	freundlich	schlau	tolerant	lachen	treu	schlecht	fanatisch	schroff	tyrannisch	leiden	tot	loyal	retten	helfen	ehrlich	spielen	fair	lasch	rächen	hindern	eitel	strafen	faul	1	blank2r.bmp	0	1	+	0	1	blank2r.bmp	500	1	GKQX	500	1	blank2r.bmp	880	1	schön	880	1	!	-1	1	!	-1	0	0	0	0	0	0
2024-05-02	12:50:12	13:01:14	661588	6.6.1	4_exp_EVA_AWA_CON	12	B	A	Rpleas_acq	Oppo	Rpleas	2pleas	acq_US_unple_nomask	acq45_nomask	5	27	400	0	300	300	0	0	585	46	1	0	schön	freundlich	schlau	tolerant	lachen	treu	schlecht	fanatisch	schroff	tyrannisch	leiden	tot	loyal	retten	helfen	ehrlich	spielen	fair	lasch	rächen	hindern	eitel	strafen	faul	1	blank2r.bmp	0	1	+	0	1	blank2r.bmp	500	1	BMVZ	500	1	blank2r.bmp	880	5	leiden	880	1	!	1233	1	!	-1	0	0	0	0	0	0
2024-05-02	12:50:12	13:01:16	663580	6.6.1	4_exp_EVA_AWA_CON	12	B	A	Rpleas_acq	Oppo	Rpleas	2pleas	acq_US_pleas_nomask	acq45_nomask	5	28	400	0	300	300	0	0	215	50	1	0	schön	freundlich	schlau	tolerant	lachen	treu	schlecht	fanatisch	schroff	tyrannisch	leiden	tot	loyal	retten	helfen	ehrlich	spielen	fair	lasch	rächen	hindern	eitel	strafen	faul	1	blank2r.bmp	0	1	+	0	1	blank2r.bmp	500	1	GKQX	500	1	blank2r.bmp	880	3	schlau	880	1	!	-1	1	!	-1	0	0	0	0	0	0
2024-05-02	12:50:12	13:01:18	665900	6.6.1	4_exp_EVA_AWA_CON	12	B	A	Rpleas_acq	Oppo	Rpleas	2pleas	acq_US_unple_nomask	acq45_nomask	5	29	400	0	300	300	0	0	544	46	1	0	schön	freundlich	schlau	tolerant	lachen	treu	schlecht	fanatisch	schroff	tyrannisch	leiden	tot	loyal	retten	helfen	ehrlich	spielen	fair	lasch	rächen	hindern	eitel	strafen	faul	1	blank2r.bmp	0	1	+	0	1	blank2r.bmp	500	1	BMVZ	500	1	blank2r.bmp	880	1	schlecht	880	1	!	1232	1	!	-1	0	0	0	0	0	0
2024-05-02	12:50:12	13:01:21	668228	6.6.1	4_exp_EVA_AWA_CON	12	B	A	Rpleas_acq	Oppo	Rpleas	2pleas	acq_US_unple_nomask	acq45_nomask	5	30	400	0	300	300	0	0	550	50	0	0	schön	freundlich	schlau	tolerant	lachen	treu	schlecht	fanatisch	schroff	tyrannisch	leiden	tot	loyal	retten	helfen	ehrlich	spielen	fair	lasch	rächen	hindern	eitel	strafen	faul	1	blank2r.bmp	0	1	+	0	1	blank2r.bmp	500	1	BMVZ	500	1	blank2r.bmp	880	3	schroff	880	1	!	1233	1	!	-1	0	0	0	0	0	0
2024-05-02	12:50:12	13:01:23	670406	6.6.1	4_exp_EVA_AWA_CON	12	B	A	Rpleas_acq	Oppo	Rpleas	2pleas	acq_US_unple_nomask	acq45_nomask	5	31	400	1	300	300	0	0	395	46	1	0	schön	freundlich	schlau	tolerant	lachen	treu	schlecht	fanatisch	schroff	tyrannisch	leiden	tot	loyal	retten	helfen	ehrlich	spielen	fair	lasch	rächen	hindern	eitel	strafen	faul	1	blank2r.bmp	0	1	+	0	1	blank2r.bmp	500	1	BMVZ	500	1	blank2r.bmp	880	6	tot	880	1	!	1232	1	!	1296	0	0	0	0	0	0
2024-05-02	12:50:12	13:01:25	672692	6.6.1	4_exp_EVA_AWA_CON	12	B	A	Rpleas_acq	Oppo	Rpleas	2pleas	acq_US_pleas_nomask	acq45_nomask	5	32	400	0	300	300	0	0	511	50	1	0	schön	freundlich	schlau	tolerant	lachen	treu	schlecht	fanatisch	schroff	tyrannisch	leiden	tot	loyal	retten	helfen	ehrlich	spielen	fair	lasch	rächen	hindern	eitel	strafen	faul	1	blank2r.bmp	0	1	+	0	1	blank2r.bmp	500	1	GKQX	500	1	blank2r.bmp	880	6	treu	880	1	!	1233	1	!	-1	0	0	0	0	0	0
2024-05-02	12:50:12	13:01:27	675020	6.6.1	4_exp_EVA_AWA_CON	12	B	A	Rpleas_acq	Oppo	Rpleas	2pleas	acq_US_pleas_nomask	acq45_nomask	5	33	400	0	300	300	0	0	548	50	1	0	schön	freundlich	schlau	tolerant	lachen	treu	schlecht	fanatisch	schroff	tyrannisch	leiden	tot	loyal	retten	helfen	ehrlich	spielen	fair	lasch	rächen	hindern	eitel	strafen	faul	1	blank2r.bmp	0	1	+	0	1	blank2r.bmp	500	1	GKQX	500	1	blank2r.bmp	880	5	lachen	880	1	!	1233	1	!	-1	0	0	0	0	0	0
2024-05-02	12:50:12	13:01:30	677325	6.6.1	4_exp_EVA_AWA_CON	12	B	A	Rpleas_acq	Oppo	Rpleas	2pleas	acq_US_pleas_nomask	acq45_nomask	5	34	400	0	300	300	0	0	530	46	0	0	schön	freundlich	schlau	tolerant	lachen	treu	schlecht	fanatisch	schroff	tyrannisch	leiden	tot	loyal	retten	helfen	ehrlich	spielen	fair	lasch	rächen	hindern	eitel	strafen	faul	1	blank2r.bmp	0	1	+	0	1	blank2r.bmp	500	1	GKQX	500	1	blank2r.bmp	880	4	tolerant	880	1	!	1233	1	!	-1	0	0	0	0	0	0
2024-05-02	12:50:12	13:01:32	679534	6.6.1	4_exp_EVA_AWA_CON	12	B	A	Rpleas_acq	Oppo	Rpleas	2pleas	acq_US_unple_nomask	acq45_nomask	5	35	400	1	300	300	0	0	427	50	0	0	schön	freundlich	schlau	tolerant	lachen	treu	schlecht	fanatisch	schroff	tyrannisch	leiden	tot	loyal	retten	helfen	ehrlich	spielen	fair	lasch	rächen	hindern	eitel	strafen	faul	1	blank2r.bmp	0	1	+	0	1	blank2r.bmp	500	1	BMVZ	500	1	blank2r.bmp	880	2	fanatisch	880	1	!	1232	1	!	1328	0	0	0	0	0	0
2024-05-02	12:50:12	13:01:34	681852	6.6.1	4_exp_EVA_AWA_CON	12	B	A	Rpleas_acq	Oppo	Rpleas	2pleas	acq_US_unple_nomask	acq45_nomask	5	36	400	0	300	300	0	0	546	46	1	0	schön	freundlich	schlau	tolerant	lachen	treu	schlecht	fanatisch	schroff	tyrannisch	leiden	tot	loyal	retten	helfen	ehrlich	spielen	fair	lasch	rächen	hindern	eitel	strafen	faul	1	blank2r.bmp	0	1	+	0	1	blank2r.bmp	500	1	BMVZ	500	1	blank2r.bmp	880	4	tyrannisch	880	1	!	1233	1	!	-1	0	0	0	0	0	0
2024-05-02	12:50:12	13:02:07	714280	6.6.1	4_exp_EVA_AWA_CON	12	B	A	Rpleas_acq	Oppo	Lpleas	2pleas	EvalRating_firsttwo	EvalRating_firsttwo	6	1	0	0	300	300	0	0	6447	line	0	-3,515625pct	schön	freundlich	schlau	tolerant	lachen	treu	schlecht	fanatisch	schroff	tyrannisch	leiden	tot	loyal	retten	helfen	ehrlich	spielen	fair	lasch	rächen	hindern	eitel	strafen	faul	1		-8	1	Wie angenehm oder unangenehm finden Sie die  Buchstabenkette ZGVK?	-8	1		-8	1		-8	1		-8	1	Unangenehm	-8	1	Angenehm	-8	0	0	0	0	0	0	0	0	0
2024-05-02	12:50:12	13:02:20	727920	6.6.1	4_exp_EVA_AWA_CON	12	B	A	Rpleas_acq	Oppo	Lpleas	2pleas	EvalRating_lastfour	EvalRating_lastfour	7	1	0	0	300	300	0	0	11262	line	0	-4,8177083333333285964pct	schön	freundlich	schlau	tolerant	lachen	treu	schlecht	fanatisch	schroff	tyrannisch	leiden	tot	loyal	retten	helfen	ehrlich	spielen	fair	lasch	rächen	hindern	eitel	strafen	faul	1		-8	1	Wie angenehm oder unangenehm finden Sie die  Buchstabenkette BMVZ?	-8	1		-8	1		-8	1		-8	1	Unangenehm	-8	1	Angenehm	-8	0	0	0	0	0	0	0	0	0
2024-05-02	12:50:12	13:02:23	730289	6.6.1	4_exp_EVA_AWA_CON	12	B	A	Rpleas_acq	Oppo	Lpleas	2pleas	blank_screen	EvalRating_lastfour	7	3	0	0	300	300	0	0	0	0	0	-4,8177083333333285964pct	schön	freundlich	schlau	tolerant	lachen	treu	schlecht	fanatisch	schroff	tyrannisch	leiden	tot	loyal	retten	helfen	ehrlich	spielen	fair	lasch	rächen	hindern	eitel	strafen	faul	1		-8	0	0	0	0	0	0	0	0	0	0	0	0	0	0	0	0	0	0	0	0	0	0	0	0	0	0	0
2024-05-02	12:50:12	13:02:28	735297	6.6.1	4_exp_EVA_AWA_CON	12	B	A	Rpleas_acq	Oppo	Lpleas	2pleas	EvalRating_lastfour	EvalRating_lastfour	7	4	0	0	300	300	0	0	4419	line	0	-26,0416666666666571928pct	schön	freundlich	schlau	tolerant	lachen	treu	schlecht	fanatisch	schroff	tyrannisch	leiden	tot	loyal	retten	helfen	ehrlich	spielen	fair	lasch	rächen	hindern	eitel	strafen	faul	1		-8	3	Wie angenehm oder unangenehm finden Sie die  Buchstabenkette XBQM?	-8	1		-8	1		-8	1		-8	1	Unangenehm	-8	1	Angenehm	-8	0	0	0	0	0	0	0	0	0
2024-05-02	12:50:12	13:02:30	737664	6.6.1	4_exp_EVA_AWA_CON	12	B	A	Rpleas_acq	Oppo	Lpleas	2pleas	blank_screen	EvalRating_lastfour	7	6	0	0	300	300	0	0	0	0	0	-26,0416666666666571928pct	schön	freundlich	schlau	tolerant	lachen	treu	schlecht	fanatisch	schroff	tyrannisch	leiden	tot	loyal	retten	helfen	ehrlich	spielen	fair	lasch	rächen	hindern	eitel	strafen	faul	1		-8	0	0	0	0	0	0	0	0	0	0	0	0	0	0	0	0	0	0	0	0	0	0	0	0	0	0	0
2024-05-02	12:50:12	13:02:35	742960	6.6.1	4_exp_EVA_AWA_CON	12	B	A	Rpleas_acq	Oppo	Lpleas	2pleas	EvalRating_lastfour	EvalRating_lastfour	7	7	0	0	300	300	0	0	4708	line	0	-63,4114583333333285964pct	schön	freundlich	schlau	tolerant	lachen	treu	schlecht	fanatisch	schroff	tyrannisch	leiden	tot	loyal	retten	helfen	ehrlich	spielen	fair	lasch	rächen	hindern	eitel	strafen	faul	1		-8	2	Wie angenehm oder unangenehm finden Sie die  Buchstabenkette GKQX?	-8	1		-8	1		-8	1		-8	1	Unangenehm	-8	1	Angenehm	-8	0	0	0	0	0	0	0	0	0
2024-05-02	12:50:12	13:03:43	810430	6.6.1	4_exp_EVA_AWA_CON	12	B	A	Rpleas_acq	Oppo	Lpleas	2pleas	conawa_CS1_US1	conawa1_nomask	8	1	0	0	300	300	0	0	14374	schlecht	1	-63,4114583333333285964pct	schön	freundlich	schlau	tolerant	lachen	treu	schlecht	fanatisch	schroff	tyrannisch	leiden	tot	loyal	retten	helfen	ehrlich	spielen	fair	lasch	rächen	hindern	eitel	strafen	faul	0	0	0	0	0	0	0	0	0	0	0	0	0	0	0	0	0	0	0	0	0	0	0	0	0	0	0	0	0	0
2024-05-02	12:50:12	13:03:43	810431	6.6.1	4_exp_EVA_AWA_CON	12	B	A	Rpleas_acq	Oppo	Lpleas	2pleas	conawa_CS1_US1_confidence	conawa1_nomask	8	1	0	0	300	300	0	0	14374	guess	1	-63,4114583333333285964pct	schön	freundlich	schlau	tolerant	lachen	treu	schlecht	fanatisch	schroff	tyrannisch	leiden	tot	loyal	retten	helfen	ehrlich	spielen	fair	lasch	rächen	hindern	eitel	strafen	faul	0	0	0	0	0	0	0	0	0	0	0	0	0	0	0	0	0	0	0	0	0	0	0	0	0	0	0	0	0	0
2024-05-02	12:50:12	13:03:49	816994	6.6.1	4_exp_EVA_AWA_CON	12	B	A	Rpleas_acq	Oppo	Lpleas	2pleas	conawa_CS2_US4	conawa1_nomask	8	2	0	0	300	300	0	0	5945	tyrannisch	1	-63,4114583333333285964pct	schön	freundlich	schlau	tolerant	lachen	treu	schlecht	fanatisch	schroff	tyrannisch	leiden	tot	loyal	retten	helfen	ehrlich	spielen	fair	lasch	rächen	hindern	eitel	strafen	faul	0	0	0	0	0	0	0	0	0	0	0	0	0	0	0	0	0	0	0	0	0	0	0	0	0	0	0	0	0	0
2024-05-02	12:50:12	13:03:49	816995	6.6.1	4_exp_EVA_AWA_CON	12	B	A	Rpleas_acq	Oppo	Lpleas	2pleas	conawa_CS2_US4_confidence	conawa1_nomask	8	2	0	0	300	300	0	0	5945	guess	1	-63,4114583333333285964pct	schön	freundlich	schlau	tolerant	lachen	treu	schlecht	fanatisch	schroff	tyrannisch	leiden	tot	loyal	retten	helfen	ehrlich	spielen	fair	lasch	rächen	hindern	eitel	strafen	faul	0	0	0	0	0	0	0	0	0	0	0	0	0	0	0	0	0	0	0	0	0	0	0	0	0	0	0	0	0	0
2024-05-02	12:50:12	13:03:56	823118	6.6.1	4_exp_EVA_AWA_CON	12	B	A	Rpleas_acq	Oppo	Lpleas	2pleas	conawa_CS2_US1	conawa1_nomask	8	3	0	0	300	300	0	0	5505	rächen	1	-63,4114583333333285964pct	schön	freundlich	schlau	tolerant	lachen	treu	schlecht	fanatisch	schroff	tyrannisch	leiden	tot	loyal	retten	helfen	ehrlich	spielen	fair	lasch	rächen	hindern	eitel	strafen	faul	0	0	0	0	0	0	0	0	0	0	0	0	0	0	0	0	0	0	0	0	0	0	0	0	0	0	0	0	0	0
2024-05-02	12:50:12	13:03:56	823120	6.6.1	4_exp_EVA_AWA_CON	12	B	A	Rpleas_acq	Oppo	Lpleas	2pleas	conawa_CS2_US1_confidence	conawa1_nomask	8	3	0	0	300	300	0	0	5505	guess	1	-63,4114583333333285964pct	schön	freundlich	schlau	tolerant	lachen	treu	schlecht	fanatisch	schroff	tyrannisch	leiden	tot	loyal	retten	helfen	ehrlich	spielen	fair	lasch	rächen	hindern	eitel	strafen	faul	0	0	0	0	0	0	0	0	0	0	0	0	0	0	0	0	0	0	0	0	0	0	0	0	0	0	0	0	0	0
2024-05-02	12:50:12	13:04:02	829763	6.6.1	4_exp_EVA_AWA_CON	12	B	A	Rpleas_acq	Oppo	Lpleas	2pleas	conawa_CS1_US5	conawa1_nomask	8	4	0	0	300	300	0	0	6029	lachen	1	-63,4114583333333285964pct	schön	freundlich	schlau	tolerant	lachen	treu	schlecht	fanatisch	schroff	tyrannisch	leiden	tot	loyal	retten	helfen	ehrlich	spielen	fair	lasch	rächen	hindern	eitel	strafen	faul	0	0	0	0	0	0	0	0	0	0	0	0	0	0	0	0	0	0	0	0	0	0	0	0	0	0	0	0	0	0
2024-05-02	12:50:12	13:04:02	829764	6.6.1	4_exp_EVA_AWA_CON	12	B	A	Rpleas_acq	Oppo	Lpleas	2pleas	conawa_CS1_US5_confidence	conawa1_nomask	8	4	0	0	300	300	0	0	6029	guess	1	-63,4114583333333285964pct	schön	freundlich	schlau	tolerant	lachen	treu	schlecht	fanatisch	schroff	tyrannisch	leiden	tot	loyal	retten	helfen	ehrlich	spielen	fair	lasch	rächen	hindern	eitel	strafen	faul	0	0	0	0	0	0	0	0	0	0	0	0	0	0	0	0	0	0	0	0	0	0	0	0	0	0	0	0	0	0
2024-05-02	12:50:12	13:04:13	840319	6.6.1	4_exp_EVA_AWA_CON	12	B	A	Rpleas_acq	Oppo	Lpleas	2pleas	conawa_CS2_US2	conawa1_nomask	8	5	0	0	300	300	0	0	9945	hindern	1	-63,4114583333333285964pct	schön	freundlich	schlau	tolerant	lachen	treu	schlecht	fanatisch	schroff	tyrannisch	leiden	tot	loyal	retten	helfen	ehrlich	spielen	fair	lasch	rächen	hindern	eitel	strafen	faul	0	0	0	0	0	0	0	0	0	0	0	0	0	0	0	0	0	0	0	0	0	0	0	0	0	0	0	0	0	0
2024-05-02	12:50:12	13:04:13	840321	6.6.1	4_exp_EVA_AWA_CON	12	B	A	Rpleas_acq	Oppo	Lpleas	2pleas	conawa_CS2_US2_confidence	conawa1_nomask	8	5	0	0	300	300	0	0	9945	guess	1	-63,4114583333333285964pct	schön	freundlich	schlau	tolerant	lachen	treu	schlecht	fanatisch	schroff	tyrannisch	leiden	tot	loyal	retten	helfen	ehrlich	spielen	fair	lasch	rächen	hindern	eitel	strafen	faul	0	0	0	0	0	0	0	0	0	0	0	0	0	0	0	0	0	0	0	0	0	0	0	0	0	0	0	0	0	0
2024-05-02	12:50:12	13:04:19	846723	6.6.1	4_exp_EVA_AWA_CON	12	B	A	Rpleas_acq	Oppo	Lpleas	2pleas	conawa_CS1_US6	conawa1_nomask	8	6	0	0	300	300	0	0	5787	fair	1	-63,4114583333333285964pct	schön	freundlich	schlau	tolerant	lachen	treu	schlecht	fanatisch	schroff	tyrannisch	leiden	tot	loyal	retten	helfen	ehrlich	spielen	fair	lasch	rächen	hindern	eitel	strafen	faul	0	0	0	0	0	0	0	0	0	0	0	0	0	0	0	0	0	0	0	0	0	0	0	0	0	0	0	0	0	0
2024-05-02	12:50:12	13:04:19	846725	6.6.1	4_exp_EVA_AWA_CON	12	B	A	Rpleas_acq	Oppo	Lpleas	2pleas	conawa_CS1_US6_confidence	conawa1_nomask	8	6	0	0	300	300	0	0	5787	guess	1	-63,4114583333333285964pct	schön	freundlich	schlau	tolerant	lachen	treu	schlecht	fanatisch	schroff	tyrannisch	leiden	tot	loyal	retten	helfen	ehrlich	spielen	fair	lasch	rächen	hindern	eitel	strafen	faul	0	0	0	0	0	0	0	0	0	0	0	0	0	0	0	0	0	0	0	0	0	0	0	0	0	0	0	0	0	0
2024-05-02	12:50:12	13:04:32	859691	6.6.1	4_exp_EVA_AWA_CON	12	B	A	Rpleas_acq	Oppo	Lpleas	2pleas	conawa_CS2_US5	conawa1_nomask	8	7	0	0	300	300	0	0	12352	faul	1	-63,4114583333333285964pct	schön	freundlich	schlau	tolerant	lachen	treu	schlecht	fanatisch	schroff	tyrannisch	leiden	tot	loyal	retten	helfen	ehrlich	spielen	fair	lasch	rächen	hindern	eitel	strafen	faul	0	0	0	0	0	0	0	0	0	0	0	0	0	0	0	0	0	0	0	0	0	0	0	0	0	0	0	0	0	0
2024-05-02	12:50:12	13:04:32	859693	6.6.1	4_exp_EVA_AWA_CON	12	B	A	Rpleas_acq	Oppo	Lpleas	2pleas	conawa_CS2_US5_confidence	conawa1_nomask	8	7	0	0	300	300	0	0	12352	guess	1	-63,4114583333333285964pct	schön	freundlich	schlau	tolerant	lachen	treu	schlecht	fanatisch	schroff	tyrannisch	leiden	tot	loyal	retten	helfen	ehrlich	spielen	fair	lasch	rächen	hindern	eitel	strafen	faul	0	0	0	0	0	0	0	0	0	0	0	0	0	0	0	0	0	0	0	0	0	0	0	0	0	0	0	0	0	0
2024-05-02	12:50:12	13:04:45	872189	6.6.1	4_exp_EVA_AWA_CON	12	B	A	Rpleas_acq	Oppo	Lpleas	2pleas	conawa_CS2_US6	conawa1_nomask	8	8	0	0	300	300	0	0	11886	tot	1	-63,4114583333333285964pct	schön	freundlich	schlau	tolerant	lachen	treu	schlecht	fanatisch	schroff	tyrannisch	leiden	tot	loyal	retten	helfen	ehrlich	spielen	fair	lasch	rächen	hindern	eitel	strafen	faul	0	0	0	0	0	0	0	0	0	0	0	0	0	0	0	0	0	0	0	0	0	0	0	0	0	0	0	0	0	0
2024-05-02	12:50:12	13:04:45	872191	6.6.1	4_exp_EVA_AWA_CON	12	B	A	Rpleas_acq	Oppo	Lpleas	2pleas	conawa_CS2_US6_confidence	conawa1_nomask	8	8	0	0	300	300	0	0	11886	guess	1	-63,4114583333333285964pct	schön	freundlich	schlau	tolerant	lachen	treu	schlecht	fanatisch	schroff	tyrannisch	leiden	tot	loyal	retten	helfen	ehrlich	spielen	fair	lasch	rächen	hindern	eitel	strafen	faul	0	0	0	0	0	0	0	0	0	0	0	0	0	0	0	0	0	0	0	0	0	0	0	0	0	0	0	0	0	0
2024-05-02	12:50:12	13:04:54	881926	6.6.1	4_exp_EVA_AWA_CON	12	B	A	Rpleas_acq	Oppo	Lpleas	2pleas	conawa_CS1_US4	conawa1_nomask	8	9	0	0	300	300	0	0	9125	ehrlich	1	-63,4114583333333285964pct	schön	freundlich	schlau	tolerant	lachen	treu	schlecht	fanatisch	schroff	tyrannisch	leiden	tot	loyal	retten	helfen	ehrlich	spielen	fair	lasch	rächen	hindern	eitel	strafen	faul	0	0	0	0	0	0	0	0	0	0	0	0	0	0	0	0	0	0	0	0	0	0	0	0	0	0	0	0	0	0
2024-05-02	12:50:12	13:04:54	881928	6.6.1	4_exp_EVA_AWA_CON	12	B	A	Rpleas_acq	Oppo	Lpleas	2pleas	conawa_CS1_US4_confidence	conawa1_nomask	8	9	0	0	300	300	0	0	9125	guess	1	-63,4114583333333285964pct	schön	freundlich	schlau	tolerant	lachen	treu	schlecht	fanatisch	schroff	tyrannisch	leiden	tot	loyal	retten	helfen	ehrlich	spielen	fair	lasch	rächen	hindern	eitel	strafen	faul	0	0	0	0	0	0	0	0	0	0	0	0	0	0	0	0	0	0	0	0	0	0	0	0	0	0	0	0	0	0
2024-05-02	12:50:12	13:05:01	888260	6.6.1	4_exp_EVA_AWA_CON	12	B	A	Rpleas_acq	Oppo	Lpleas	2pleas	conawa_CS2_US3	conawa1_nomask	8	10	0	0	300	300	0	0	5717	eitel	1	-63,4114583333333285964pct	schön	freundlich	schlau	tolerant	lachen	treu	schlecht	fanatisch	schroff	tyrannisch	leiden	tot	loyal	retten	helfen	ehrlich	spielen	fair	lasch	rächen	hindern	eitel	strafen	faul	0	0	0	0	0	0	0	0	0	0	0	0	0	0	0	0	0	0	0	0	0	0	0	0	0	0	0	0	0	0
2024-05-02	12:50:12	13:05:01	888262	6.6.1	4_exp_EVA_AWA_CON	12	B	A	Rpleas_acq	Oppo	Lpleas	2pleas	conawa_CS2_US3_confidence	conawa1_nomask	8	10	0	0	300	300	0	0	5717	guess	1	-63,4114583333333285964pct	schön	freundlich	schlau	tolerant	lachen	treu	schlecht	fanatisch	schroff	tyrannisch	leiden	tot	loyal	retten	helfen	ehrlich	spielen	fair	lasch	rächen	hindern	eitel	strafen	faul	0	0	0	0	0	0	0	0	0	0	0	0	0	0	0	0	0	0	0	0	0	0	0	0	0	0	0	0	0	0
2024-05-02	12:50:12	13:05:10	897406	6.6.1	4_exp_EVA_AWA_CON	12	B	A	Rpleas_acq	Oppo	Lpleas	2pleas	conawa_CS1_US2	conawa1_nomask	8	11	0	0	300	300	0	0	8535	freundlich	1	-63,4114583333333285964pct	schön	freundlich	schlau	tolerant	lachen	treu	schlecht	fanatisch	schroff	tyrannisch	leiden	tot	loyal	retten	helfen	ehrlich	spielen	fair	lasch	rächen	hindern	eitel	strafen	faul	0	0	0	0	0	0	0	0	0	0	0	0	0	0	0	0	0	0	0	0	0	0	0	0	0	0	0	0	0	0
2024-05-02	12:50:12	13:05:10	897408	6.6.1	4_exp_EVA_AWA_CON	12	B	A	Rpleas_acq	Oppo	Lpleas	2pleas	conawa_CS1_US2_confidence	conawa1_nomask	8	11	0	0	300	300	0	0	8535	guess	1	-63,4114583333333285964pct	schön	freundlich	schlau	tolerant	lachen	treu	schlecht	fanatisch	schroff	tyrannisch	leiden	tot	loyal	retten	helfen	ehrlich	spielen	fair	lasch	rächen	hindern	eitel	strafen	faul	0	0	0	0	0	0	0	0	0	0	0	0	0	0	0	0	0	0	0	0	0	0	0	0	0	0	0	0	0	0
2024-05-02	12:50:12	13:05:18	905181	6.6.1	4_exp_EVA_AWA_CON	12	B	A	Rpleas_acq	Oppo	Lpleas	2pleas	conawa_CS1_US3	conawa1_nomask	8	12	0	0	300	300	0	0	7158	schroff	1	-63,4114583333333285964pct	schön	freundlich	schlau	tolerant	lachen	treu	schlecht	fanatisch	schroff	tyrannisch	leiden	tot	loyal	retten	helfen	ehrlich	spielen	fair	lasch	rächen	hindern	eitel	strafen	faul	0	0	0	0	0	0	0	0	0	0	0	0	0	0	0	0	0	0	0	0	0	0	0	0	0	0	0	0	0	0
2024-05-02	12:50:12	13:05:18	905183	6.6.1	4_exp_EVA_AWA_CON	12	B	A	Rpleas_acq	Oppo	Lpleas	2pleas	conawa_CS1_US3_confidence	conawa1_nomask	8	12	0	0	300	300	0	0	7158	guess	1	-63,4114583333333285964pct	schön	freundlich	schlau	tolerant	lachen	treu	schlecht	fanatisch	schroff	tyrannisch	leiden	tot	loyal	retten	helfen	ehrlich	spielen	fair	lasch	rächen	hindern	eitel	strafen	faul	0	0	0	0	0	0	0	0	0	0	0	0	0	0	0	0	0	0	0	0	0	0	0	0	0	0	0	0	0	0
2024-05-02	12:50:12	13:08:17	1084950	6.6.1	4_exp_EVA_AWA_CON	12	B	A	Rpleas_acq	Oppo	Lpleas	2pleas	cond_new_unple_456_nomask_CS1	condtest_nomask_1	11	1	400	1	300	300	0	0	430	46	0	-63,4114583333333285964pct	schön	freundlich	schlau	tolerant	lachen	treu	schlecht	fanatisch	schroff	tyrannisch	leiden	tot	loyal	retten	helfen	ehrlich	spielen	fair	lasch	rächen	hindern	eitel	strafen	faul	1	blank2r.bmp	0	1	+	0	1	blank2r.bmp	500	1	BMVZ	500	1	blank2r.bmp	880	2	strafen	880	1	!	1232	1	!	1332	0	0	0	0	0	0
2024-05-02	12:50:12	13:08:20	1087403	6.6.1	4_exp_EVA_AWA_CON	12	B	A	Rpleas_acq	Oppo	Lpleas	2pleas	cond_US_pleas_123_nomask_CS2	condtest_nomask_1	11	2	400	0	300	300	0	0	675	46	1	-63,4114583333333285964pct	schön	freundlich	schlau	tolerant	lachen	treu	schlecht	fanatisch	schroff	tyrannisch	leiden	tot	loyal	retten	helfen	ehrlich	spielen	fair	lasch	rächen	hindern	eitel	strafen	faul	1	blank2r.bmp	0	1	+	0	1	blank2r.bmp	500	1	GKQX	500	1	blank2r.bmp	880	2	schön	880	1	!	1232	1	!	-1	0	0	0	0	0	0
2024-05-02	12:50:12	13:08:22	1089732	6.6.1	4_exp_EVA_AWA_CON	12	B	A	Rpleas_acq	Oppo	Lpleas	2pleas	cond_new_pleas_456_nomask_CS1	condtest_nomask_1	11	3	400	0	300	300	0	0	551	50	0	-63,4114583333333285964pct	schön	freundlich	schlau	tolerant	lachen	treu	schlecht	fanatisch	schroff	tyrannisch	leiden	tot	loyal	retten	helfen	ehrlich	spielen	fair	lasch	rächen	hindern	eitel	strafen	faul	1	blank2r.bmp	0	1	+	0	1	blank2r.bmp	500	1	BMVZ	500	1	blank2r.bmp	880	2	spielen	880	1	!	1232	1	!	-1	0	0	0	0	0	0
2024-05-02	12:50:12	13:08:25	1092075	6.6.1	4_exp_EVA_AWA_CON	12	B	A	Rpleas_acq	Oppo	Lpleas	2pleas	cond_new_pleas_456_nomask_CS2	condtest_nomask_1	11	4	400	0	300	300	0	0	564	50	0	-63,4114583333333285964pct	schön	freundlich	schlau	tolerant	lachen	treu	schlecht	fanatisch	schroff	tyrannisch	leiden	tot	loyal	retten	helfen	ehrlich	spielen	fair	lasch	rächen	hindern	eitel	strafen	faul	1	blank2r.bmp	0	1	+	0	1	blank2r.bmp	500	1	GKQX	500	1	blank2r.bmp	880	3	spielen	880	1	!	1232	1	!	-1	0	0	0	0	0	0
2024-05-02	12:50:12	13:08:27	1094459	6.6.1	4_exp_EVA_AWA_CON	12	B	A	Rpleas_acq	Oppo	Lpleas	2pleas	cond_new_unple_456_nomask_CS2	condtest_nomask_1	11	5	400	0	300	300	0	0	606	50	1	-63,4114583333333285964pct	schön	freundlich	schlau	tolerant	lachen	treu	schlecht	fanatisch	schroff	tyrannisch	leiden	tot	loyal	retten	helfen	ehrlich	spielen	fair	lasch	rächen	hindern	eitel	strafen	faul	1	blank2r.bmp	0	1	+	0	1	blank2r.bmp	500	1	GKQX	500	1	blank2r.bmp	880	1	faul	880	1	!	1233	1	!	-1	0	0	0	0	0	0
2024-05-02	12:50:12	13:08:29	1096772	6.6.1	4_exp_EVA_AWA_CON	12	B	A	Rpleas_acq	Oppo	Lpleas	2pleas	cond_US_unple_123_nomask_CS2	condtest_nomask_1	11	6	400	0	300	300	0	0	537	46	0	-63,4114583333333285964pct	schön	freundlich	schlau	tolerant	lachen	treu	schlecht	fanatisch	schroff	tyrannisch	leiden	tot	loyal	retten	helfen	ehrlich	spielen	fair	lasch	rächen	hindern	eitel	strafen	faul	1	blank2r.bmp	0	1	+	0	1	blank2r.bmp	500	1	GKQX	500	1	blank2r.bmp	880	3	fanatisch	880	1	!	1232	1	!	-1	0	0	0	0	0	0
2024-05-02	12:50:12	13:08:31	1099043	6.6.1	4_exp_EVA_AWA_CON	12	B	A	Rpleas_acq	Oppo	Lpleas	2pleas	cond_US_pleas_123_nomask_CS1	condtest_nomask_1	11	7	400	0	300	300	0	0	497	46	1	-63,4114583333333285964pct	schön	freundlich	schlau	tolerant	lachen	treu	schlecht	fanatisch	schroff	tyrannisch	leiden	tot	loyal	retten	helfen	ehrlich	spielen	fair	lasch	rächen	hindern	eitel	strafen	faul	1	blank2r.bmp	0	1	+	0	1	blank2r.bmp	500	1	BMVZ	500	1	blank2r.bmp	880	1	schön	880	1	!	1232	1	!	-1	0	0	0	0	0	0
2024-05-02	12:50:12	13:08:34	1101404	6.6.1	4_exp_EVA_AWA_CON	12	B	A	Rpleas_acq	Oppo	Lpleas	2pleas	cond_US_unple_123_nomask_CS1	condtest_nomask_1	11	8	400	0	300	300	0	0	586	50	1	-63,4114583333333285964pct	schön	freundlich	schlau	tolerant	lachen	treu	schlecht	fanatisch	schroff	tyrannisch	leiden	tot	loyal	retten	helfen	ehrlich	spielen	fair	lasch	rächen	hindern	eitel	strafen	faul	1	blank2r.bmp	0	1	+	0	1	blank2r.bmp	500	1	BMVZ	500	1	blank2r.bmp	880	3	schroff	880	1	!	1232	1	!	-1	0	0	0	0	0	0
2024-05-02	12:50:12	13:09:11	1138074	6.6.1	4_exp_EVA_AWA_CON	12	B	A	Rpleas_acq	Oppo	Lpleas	2pleas	cond_US_unple_123_nomask_CS1	condtest_nomask_2	12	1	400	0	300	300	0	0	474	50	1	-63,4114583333333285964pct	schön	freundlich	schlau	tolerant	lachen	treu	schlecht	fanatisch	schroff	tyrannisch	leiden	tot	loyal	retten	helfen	ehrlich	spielen	fair	lasch	rächen	hindern	eitel	strafen	faul	1	blank2r.bmp	0	1	+	0	1	blank2r.bmp	500	1	BMVZ	500	1	blank2r.bmp	880	2	fanatisch	880	1	!	1233	1	!	-1	0	0	0	0	0	0
