date	time	currenttime	elapsedtime	build	currentexpt	subject	CS_AB	US_AB	LRpleas_acq	SameOppo	condition_Lpleas	condition_1pleas	trialcode	blockcode	blocknum	trialnum	windowcenter	inwindow	pretrialpause	posttrialpause	trialduration	trialtimeout	latency	response	correct	correctedscore	US_nomask_pleas1	US_nomask_pleas2	US_nomask_pleas3	US_nomask_pleas4	US_nomask_pleas5	US_nomask_pleas6	US_nomask_unple1	US_nomask_unple2	US_nomask_unple3	US_nomask_unple4	US_nomask_unple5	US_nomask_unple6	new_nomask_pleas1	new_nomask_pleas2	new_nomask_pleas3	new_nomask_pleas4	new_nomask_pleas5	new_nomask_pleas6	new_nomask_unple1	new_nomask_unple2	new_nomask_unple3	new_nomask_unple4	new_nomask_unple5	new_nomask_unple6	stimulusnumber1	stimulusitem1	stimulusonset1	stimulusnumber2	stimulusitem2	stimulusonset2	stimulusnumber3	stimulusitem3	stimulusonset3	stimulusnumber4	stimulusitem4	stimulusonset4	stimulusnumber5	stimulusitem5	stimulusonset5	stimulusnumber6	stimulusitem6	stimulusonset6	stimulusnumber7	stimulusitem7	stimulusonset7	stimulusnumber8	stimulusitem8	stimulusonset8	stimulusnumber9	stimulusitem9	stimulusonset9	stimulusnumber10	stimulusitem10	stimulusonset10
2024-05-15	10:03:11	10:05:09	116447	6.6.1	4_exp_EVA_AWA_CON	30	B	A	Rpleas_acq	Oppo	Rpleas	1pleas	acq_new_pleas_nomask	acq1_nomask	1	1	0	0	300	300	0	0	1167	50	1	0	retten	ehrlich	tolerant	fair	helfen	schlau	rächen	eitel	tyrannisch	faul	hindern	schroff	treu	freundlich	spielen	schön	loyal	lachen	tot	fanatisch	strafen	schlecht	lasch	leiden	1	blank2r.bmp	0	1	+	0	1	blank2r.bmp	500	4	B4r.bmp	500	1	blank2r.bmp	880	1	treu	880	0	0	0	0	0	0	0	0	0	0	0	0
2024-05-15	10:03:11	10:05:11	118823	6.6.1	4_exp_EVA_AWA_CON	30	B	A	Rpleas_acq	Oppo	Rpleas	1pleas	acq_US_unple_nomask	acq1_nomask	1	2	0	0	300	300	0	0	891	46	1	0	retten	ehrlich	tolerant	fair	helfen	schlau	rächen	eitel	tyrannisch	faul	hindern	schroff	treu	freundlich	spielen	schön	loyal	lachen	tot	fanatisch	strafen	schlecht	lasch	leiden	1	blank2r.bmp	0	1	+	0	1	blank2r.bmp	500	1	GKQX	500	1	blank2r.bmp	880	5	hindern	880	0	0	0	0	0	0	0	0	0	0	0	0
2024-05-15	10:03:11	10:05:13	121239	6.6.1	4_exp_EVA_AWA_CON	30	B	A	Rpleas_acq	Oppo	Rpleas	1pleas	acq_US_unple_nomask	acq1_nomask	1	3	0	0	300	300	0	0	936	46	1	0	retten	ehrlich	tolerant	fair	helfen	schlau	rächen	eitel	tyrannisch	faul	hindern	schroff	treu	freundlich	spielen	schön	loyal	lachen	tot	fanatisch	strafen	schlecht	lasch	leiden	1	blank2r.bmp	0	1	+	0	1	blank2r.bmp	500	1	GKQX	500	1	blank2r.bmp	880	3	tyrannisch	880	0	0	0	0	0	0	0	0	0	0	0	0
2024-05-15	10:03:11	10:05:15	123383	6.6.1	4_exp_EVA_AWA_CON	30	B	A	Rpleas_acq	Oppo	Rpleas	1pleas	acq_US_unple_nomask	acq1_nomask	1	4	0	0	300	300	0	0	658	46	1	0	retten	ehrlich	tolerant	fair	helfen	schlau	rächen	eitel	tyrannisch	faul	hindern	schroff	treu	freundlich	spielen	schön	loyal	lachen	tot	fanatisch	strafen	schlecht	lasch	leiden	1	blank2r.bmp	0	1	+	0	1	blank2r.bmp	500	1	GKQX	500	1	blank2r.bmp	880	6	schroff	880	0	0	0	0	0	0	0	0	0	0	0	0
2024-05-15	10:03:11	10:05:18	125551	6.6.1	4_exp_EVA_AWA_CON	30	B	A	Rpleas_acq	Oppo	Rpleas	1pleas	acq_new_unple_nomask	acq1_nomask	1	5	0	0	300	300	0	0	685	46	1	0	retten	ehrlich	tolerant	fair	helfen	schlau	rächen	eitel	tyrannisch	faul	hindern	schroff	treu	freundlich	spielen	schön	loyal	lachen	tot	fanatisch	strafen	schlecht	lasch	leiden	1	blank2r.bmp	0	1	+	0	1	blank2r.bmp	500	7	C3r.bmp	500	1	blank2r.bmp	880	1	tot	880	0	0	0	0	0	0	0	0	0	0	0	0
2024-05-15	10:03:11	10:05:20	127639	6.6.1	4_exp_EVA_AWA_CON	30	B	A	Rpleas_acq	Oppo	Rpleas	1pleas	acq_US_pleas_nomask	acq1_nomask	1	6	0	0	300	300	0	0	601	50	1	0	retten	ehrlich	tolerant	fair	helfen	schlau	rächen	eitel	tyrannisch	faul	hindern	schroff	treu	freundlich	spielen	schön	loyal	lachen	tot	fanatisch	strafen	schlecht	lasch	leiden	1	blank2r.bmp	0	1	+	0	1	blank2r.bmp	500	1	BMVZ	500	1	blank2r.bmp	880	6	schlau	880	0	0	0	0	0	0	0	0	0	0	0	0
2024-05-15	10:03:11	10:05:22	129847	6.6.1	4_exp_EVA_AWA_CON	30	B	A	Rpleas_acq	Oppo	Rpleas	1pleas	acq_new_pleas_nomask	acq1_nomask	1	7	0	0	300	300	0	0	728	50	1	0	retten	ehrlich	tolerant	fair	helfen	schlau	rächen	eitel	tyrannisch	faul	hindern	schroff	treu	freundlich	spielen	schön	loyal	lachen	tot	fanatisch	strafen	schlecht	lasch	leiden	1	blank2r.bmp	0	1	+	0	1	blank2r.bmp	500	1	B1r.bmp	500	1	blank2r.bmp	880	6	lachen	880	0	0	0	0	0	0	0	0	0	0	0	0
2024-05-15	10:03:11	10:05:24	131975	6.6.1	4_exp_EVA_AWA_CON	30	B	A	Rpleas_acq	Oppo	Rpleas	1pleas	acq_new_unple_nomask	acq1_nomask	1	8	0	0	300	300	0	0	645	46	1	0	retten	ehrlich	tolerant	fair	helfen	schlau	rächen	eitel	tyrannisch	faul	hindern	schroff	treu	freundlich	spielen	schön	loyal	lachen	tot	fanatisch	strafen	schlecht	lasch	leiden	1	blank2r.bmp	0	1	+	0	1	blank2r.bmp	500	2	B2r.bmp	500	1	blank2r.bmp	880	4	schlecht	880	0	0	0	0	0	0	0	0	0	0	0	0
2024-05-15	10:03:11	10:05:26	134087	6.6.1	4_exp_EVA_AWA_CON	30	B	A	Rpleas_acq	Oppo	Rpleas	1pleas	acq_US_pleas_nomask	acq1_nomask	1	9	0	0	300	300	0	0	625	50	1	0	retten	ehrlich	tolerant	fair	helfen	schlau	rächen	eitel	tyrannisch	faul	hindern	schroff	treu	freundlich	spielen	schön	loyal	lachen	tot	fanatisch	strafen	schlecht	lasch	leiden	1	blank2r.bmp	0	1	+	0	1	blank2r.bmp	500	1	BMVZ	500	1	blank2r.bmp	880	4	fair	880	0	0	0	0	0	0	0	0	0	0	0	0
2024-05-15	10:03:11	10:05:28	136295	6.6.1	4_exp_EVA_AWA_CON	30	B	A	Rpleas_acq	Oppo	Rpleas	1pleas	acq_new_pleas_nomask	acq1_nomask	1	10	0	0	300	300	0	0	722	50	1	0	retten	ehrlich	tolerant	fair	helfen	schlau	rächen	eitel	tyrannisch	faul	hindern	schroff	treu	freundlich	spielen	schön	loyal	lachen	tot	fanatisch	strafen	schlecht	lasch	leiden	1	blank2r.bmp	0	1	+	0	1	blank2r.bmp	500	3	B3r.bmp	500	1	blank2r.bmp	880	2	freundlich	880	0	0	0	0	0	0	0	0	0	0	0	0
2024-05-15	10:03:11	10:05:30	138407	6.6.1	4_exp_EVA_AWA_CON	30	B	A	Rpleas_acq	Oppo	Rpleas	1pleas	acq_US_pleas_nomask	acq1_nomask	1	11	0	0	300	300	0	0	622	50	1	0	retten	ehrlich	tolerant	fair	helfen	schlau	rächen	eitel	tyrannisch	faul	hindern	schroff	treu	freundlich	spielen	schön	loyal	lachen	tot	fanatisch	strafen	schlecht	lasch	leiden	1	blank2r.bmp	0	1	+	0	1	blank2r.bmp	500	1	BMVZ	500	1	blank2r.bmp	880	3	tolerant	880	0	0	0	0	0	0	0	0	0	0	0	0
2024-05-15	10:03:11	10:05:33	140663	6.6.1	4_exp_EVA_AWA_CON	30	B	A	Rpleas_acq	Oppo	Rpleas	1pleas	acq_new_unple_nomask	acq1_nomask	1	12	0	0	300	300	0	0	767	46	1	0	retten	ehrlich	tolerant	fair	helfen	schlau	rächen	eitel	tyrannisch	faul	hindern	schroff	treu	freundlich	spielen	schön	loyal	lachen	tot	fanatisch	strafen	schlecht	lasch	leiden	1	blank2r.bmp	0	1	+	0	1	blank2r.bmp	500	6	C2r.bmp	500	1	blank2r.bmp	880	5	lasch	880	0	0	0	0	0	0	0	0	0	0	0	0
2024-05-15	10:03:11	10:05:35	142751	6.6.1	4_exp_EVA_AWA_CON	30	B	A	Rpleas_acq	Oppo	Rpleas	1pleas	acq_US_pleas_nomask	acq1_nomask	1	13	0	0	300	300	0	0	603	50	1	0	retten	ehrlich	tolerant	fair	helfen	schlau	rächen	eitel	tyrannisch	faul	hindern	schroff	treu	freundlich	spielen	schön	loyal	lachen	tot	fanatisch	strafen	schlecht	lasch	leiden	1	blank2r.bmp	0	1	+	0	1	blank2r.bmp	500	1	BMVZ	500	1	blank2r.bmp	880	5	helfen	880	0	0	0	0	0	0	0	0	0	0	0	0
2024-05-15	10:03:11	10:05:37	144823	6.6.1	4_exp_EVA_AWA_CON	30	B	A	Rpleas_acq	Oppo	Rpleas	1pleas	acq_US_unple_nomask	acq1_nomask	1	14	0	0	300	300	0	0	584	46	1	0	retten	ehrlich	tolerant	fair	helfen	schlau	rächen	eitel	tyrannisch	faul	hindern	schroff	treu	freundlich	spielen	schön	loyal	lachen	tot	fanatisch	strafen	schlecht	lasch	leiden	1	blank2r.bmp	0	1	+	0	1	blank2r.bmp	500	1	GKQX	500	1	blank2r.bmp	880	1	rächen	880	0	0	0	0	0	0	0	0	0	0	0	0
2024-05-15	10:03:11	10:05:39	147104	6.6.1	4_exp_EVA_AWA_CON	30	B	A	Rpleas_acq	Oppo	Rpleas	1pleas	acq_new_unple_nomask	acq1_nomask	1	15	0	0	300	300	0	0	593	50	0	0	retten	ehrlich	tolerant	fair	helfen	schlau	rächen	eitel	tyrannisch	faul	hindern	schroff	treu	freundlich	spielen	schön	loyal	lachen	tot	fanatisch	strafen	schlecht	lasch	leiden	1	blank2r.bmp	0	1	+	0	1	blank2r.bmp	500	5	C1r.bmp	500	1	blank2r.bmp	880	2	fanatisch	880	1	FEHLER	1494	0	0	0	0	0	0	0	0	0
2024-05-15	10:03:11	10:05:41	149063	6.6.1	4_exp_EVA_AWA_CON	30	B	A	Rpleas_acq	Oppo	Rpleas	1pleas	acq_new_pleas_nomask	acq1_nomask	1	16	0	0	300	300	0	0	671	50	1	0	retten	ehrlich	tolerant	fair	helfen	schlau	rächen	eitel	tyrannisch	faul	hindern	schroff	treu	freundlich	spielen	schön	loyal	lachen	tot	fanatisch	strafen	schlecht	lasch	leiden	1	blank2r.bmp	0	1	+	0	1	blank2r.bmp	500	8	C4r.bmp	500	1	blank2r.bmp	880	5	loyal	880	0	0	0	0	0	0	0	0	0	0	0	0
2024-05-15	10:03:11	10:05:43	151144	6.6.1	4_exp_EVA_AWA_CON	30	B	A	Rpleas_acq	Oppo	Rpleas	1pleas	acq_new_pleas_nomask	acq1_nomask	1	17	0	0	300	300	0	0	590	50	1	0	retten	ehrlich	tolerant	fair	helfen	schlau	rächen	eitel	tyrannisch	faul	hindern	schroff	treu	freundlich	spielen	schön	loyal	lachen	tot	fanatisch	strafen	schlecht	lasch	leiden	1	blank2r.bmp	0	1	+	0	1	blank2r.bmp	500	4	B4r.bmp	500	1	blank2r.bmp	880	4	schön	880	0	0	0	0	0	0	0	0	0	0	0	0
2024-05-15	10:03:11	10:05:46	153562	6.6.1	4_exp_EVA_AWA_CON	30	B	A	Rpleas_acq	Oppo	Rpleas	1pleas	acq_US_pleas_nomask	acq1_nomask	1	18	0	0	300	300	0	0	735	46	0	0	retten	ehrlich	tolerant	fair	helfen	schlau	rächen	eitel	tyrannisch	faul	hindern	schroff	treu	freundlich	spielen	schön	loyal	lachen	tot	fanatisch	strafen	schlecht	lasch	leiden	1	blank2r.bmp	0	1	+	0	1	blank2r.bmp	500	1	BMVZ	500	1	blank2r.bmp	880	1	retten	880	1	FEHLER	1637	0	0	0	0	0	0	0	0	0
2024-05-15	10:03:11	10:05:48	155775	6.6.1	4_exp_EVA_AWA_CON	30	B	A	Rpleas_acq	Oppo	Rpleas	1pleas	acq_new_pleas_nomask	acq1_nomask	1	19	0	0	300	300	0	0	929	50	1	0	retten	ehrlich	tolerant	fair	helfen	schlau	rächen	eitel	tyrannisch	faul	hindern	schroff	treu	freundlich	spielen	schön	loyal	lachen	tot	fanatisch	strafen	schlecht	lasch	leiden	1	blank2r.bmp	0	1	+	0	1	blank2r.bmp	500	7	C3r.bmp	500	1	blank2r.bmp	880	3	spielen	880	0	0	0	0	0	0	0	0	0	0	0	0
2024-05-15	10:03:11	10:05:50	157871	6.6.1	4_exp_EVA_AWA_CON	30	B	A	Rpleas_acq	Oppo	Rpleas	1pleas	acq_new_unple_nomask	acq1_nomask	1	20	0	0	300	300	0	0	614	46	1	0	retten	ehrlich	tolerant	fair	helfen	schlau	rächen	eitel	tyrannisch	faul	hindern	schroff	treu	freundlich	spielen	schön	loyal	lachen	tot	fanatisch	strafen	schlecht	lasch	leiden	1	blank2r.bmp	0	1	+	0	1	blank2r.bmp	500	8	C4r.bmp	500	1	blank2r.bmp	880	3	strafen	880	0	0	0	0	0	0	0	0	0	0	0	0
2024-05-15	10:03:11	10:05:52	160200	6.6.1	4_exp_EVA_AWA_CON	30	B	A	Rpleas_acq	Oppo	Rpleas	1pleas	acq_US_unple_nomask	acq1_nomask	1	21	0	0	300	300	0	0	840	46	1	0	retten	ehrlich	tolerant	fair	helfen	schlau	rächen	eitel	tyrannisch	faul	hindern	schroff	treu	freundlich	spielen	schön	loyal	lachen	tot	fanatisch	strafen	schlecht	lasch	leiden	1	blank2r.bmp	0	1	+	0	1	blank2r.bmp	500	1	GKQX	500	1	blank2r.bmp	880	4	faul	880	0	0	0	0	0	0	0	0	0	0	0	0
2024-05-15	10:03:11	10:05:54	162399	6.6.1	4_exp_EVA_AWA_CON	30	B	A	Rpleas_acq	Oppo	Rpleas	1pleas	acq_new_unple_nomask	acq1_nomask	1	22	0	0	300	300	0	0	719	46	1	0	retten	ehrlich	tolerant	fair	helfen	schlau	rächen	eitel	tyrannisch	faul	hindern	schroff	treu	freundlich	spielen	schön	loyal	lachen	tot	fanatisch	strafen	schlecht	lasch	leiden	1	blank2r.bmp	0	1	+	0	1	blank2r.bmp	500	2	B2r.bmp	500	1	blank2r.bmp	880	6	leiden	880	0	0	0	0	0	0	0	0	0	0	0	0
2024-05-15	10:03:11	10:05:57	165015	6.6.1	4_exp_EVA_AWA_CON	30	B	A	Rpleas_acq	Oppo	Rpleas	1pleas	acq_US_unple_nomask	acq1_nomask	1	23	0	0	300	300	0	0	1133	46	1	0	retten	ehrlich	tolerant	fair	helfen	schlau	rächen	eitel	tyrannisch	faul	hindern	schroff	treu	freundlich	spielen	schön	loyal	lachen	tot	fanatisch	strafen	schlecht	lasch	leiden	1	blank2r.bmp	0	1	+	0	1	blank2r.bmp	500	1	GKQX	500	1	blank2r.bmp	880	2	eitel	880	0	0	0	0	0	0	0	0	0	0	0	0
2024-05-15	10:03:11	10:05:59	167031	6.6.1	4_exp_EVA_AWA_CON	30	B	A	Rpleas_acq	Oppo	Rpleas	1pleas	acq_US_pleas_nomask	acq1_nomask	1	24	0	0	300	300	0	0	528	50	1	0	retten	ehrlich	tolerant	fair	helfen	schlau	rächen	eitel	tyrannisch	faul	hindern	schroff	treu	freundlich	spielen	schön	loyal	lachen	tot	fanatisch	strafen	schlecht	lasch	leiden	1	blank2r.bmp	0	1	+	0	1	blank2r.bmp	500	1	BMVZ	500	1	blank2r.bmp	880	2	ehrlich	880	0	0	0	0	0	0	0	0	0	0	0	0
2024-05-15	10:03:11	10:06:01	169151	6.6.1	4_exp_EVA_AWA_CON	30	B	A	Rpleas_acq	Oppo	Rpleas	1pleas	acq_new_pleas_nomask	acq1_nomask	1	25	0	0	300	300	0	0	636	50	1	0	retten	ehrlich	tolerant	fair	helfen	schlau	rächen	eitel	tyrannisch	faul	hindern	schroff	treu	freundlich	spielen	schön	loyal	lachen	tot	fanatisch	strafen	schlecht	lasch	leiden	1	blank2r.bmp	0	1	+	0	1	blank2r.bmp	500	6	C2r.bmp	500	1	blank2r.bmp	880	6	lachen	880	0	0	0	0	0	0	0	0	0	0	0	0
2024-05-15	10:03:11	10:06:03	171151	6.6.1	4_exp_EVA_AWA_CON	30	B	A	Rpleas_acq	Oppo	Rpleas	1pleas	acq_new_unple_nomask	acq1_nomask	1	26	0	0	300	300	0	0	515	46	1	0	retten	ehrlich	tolerant	fair	helfen	schlau	rächen	eitel	tyrannisch	faul	hindern	schroff	treu	freundlich	spielen	schön	loyal	lachen	tot	fanatisch	strafen	schlecht	lasch	leiden	1	blank2r.bmp	0	1	+	0	1	blank2r.bmp	500	1	B1r.bmp	500	1	blank2r.bmp	880	3	strafen	880	0	0	0	0	0	0	0	0	0	0	0	0
2024-05-15	10:03:11	10:06:05	173375	6.6.1	4_exp_EVA_AWA_CON	30	B	A	Rpleas_acq	Oppo	Rpleas	1pleas	acq_new_unple_nomask	acq1_nomask	1	27	0	0	300	300	0	0	738	46	1	0	retten	ehrlich	tolerant	fair	helfen	schlau	rächen	eitel	tyrannisch	faul	hindern	schroff	treu	freundlich	spielen	schön	loyal	lachen	tot	fanatisch	strafen	schlecht	lasch	leiden	1	blank2r.bmp	0	1	+	0	1	blank2r.bmp	500	3	B3r.bmp	500	1	blank2r.bmp	880	6	leiden	880	0	0	0	0	0	0	0	0	0	0	0	0
2024-05-15	10:03:11	10:06:08	175655	6.6.1	4_exp_EVA_AWA_CON	30	B	A	Rpleas_acq	Oppo	Rpleas	1pleas	acq_new_pleas_nomask	acq1_nomask	1	28	0	0	300	300	0	0	796	50	1	0	retten	ehrlich	tolerant	fair	helfen	schlau	rächen	eitel	tyrannisch	faul	hindern	schroff	treu	freundlich	spielen	schön	loyal	lachen	tot	fanatisch	strafen	schlecht	lasch	leiden	1	blank2r.bmp	0	1	+	0	1	blank2r.bmp	500	5	C1r.bmp	500	1	blank2r.bmp	880	1	treu	880	0	0	0	0	0	0	0	0	0	0	0	0
2024-05-15	10:03:11	10:06:10	177783	6.6.1	4_exp_EVA_AWA_CON	30	B	A	Rpleas_acq	Oppo	Rpleas	1pleas	acq_new_unple_nomask	acq1_nomask	1	29	0	0	300	300	0	0	643	46	1	0	retten	ehrlich	tolerant	fair	helfen	schlau	rächen	eitel	tyrannisch	faul	hindern	schroff	treu	freundlich	spielen	schön	loyal	lachen	tot	fanatisch	strafen	schlecht	lasch	leiden	1	blank2r.bmp	0	1	+	0	1	blank2r.bmp	500	8	C4r.bmp	500	1	blank2r.bmp	880	5	lasch	880	0	0	0	0	0	0	0	0	0	0	0	0
2024-05-15	10:03:11	10:06:12	180040	6.6.1	4_exp_EVA_AWA_CON	30	B	A	Rpleas_acq	Oppo	Rpleas	1pleas	acq_US_unple_nomask	acq1_nomask	1	30	0	0	300	300	0	0	767	46	1	0	retten	ehrlich	tolerant	fair	helfen	schlau	rächen	eitel	tyrannisch	faul	hindern	schroff	treu	freundlich	spielen	schön	loyal	lachen	tot	fanatisch	strafen	schlecht	lasch	leiden	1	blank2r.bmp	0	1	+	0	1	blank2r.bmp	500	1	GKQX	500	1	blank2r.bmp	880	3	tyrannisch	880	0	0	0	0	0	0	0	0	0	0	0	0
2024-05-15	10:03:11	10:06:15	182863	6.6.1	4_exp_EVA_AWA_CON	30	B	A	Rpleas_acq	Oppo	Rpleas	1pleas	acq_US_unple_nomask	acq1_nomask	1	31	0	0	300	300	0	0	1340	46	1	0	retten	ehrlich	tolerant	fair	helfen	schlau	rächen	eitel	tyrannisch	faul	hindern	schroff	treu	freundlich	spielen	schön	loyal	lachen	tot	fanatisch	strafen	schlecht	lasch	leiden	1	blank2r.bmp	0	1	+	0	1	blank2r.bmp	500	1	GKQX	500	1	blank2r.bmp	880	2	eitel	880	0	0	0	0	0	0	0	0	0	0	0	0
2024-05-15	10:03:11	10:06:17	184991	6.6.1	4_exp_EVA_AWA_CON	30	B	A	Rpleas_acq	Oppo	Rpleas	1pleas	acq_new_pleas_nomask	acq1_nomask	1	32	0	0	300	300	0	0	646	50	1	0	retten	ehrlich	tolerant	fair	helfen	schlau	rächen	eitel	tyrannisch	faul	hindern	schroff	treu	freundlich	spielen	schön	loyal	lachen	tot	fanatisch	strafen	schlecht	lasch	leiden	1	blank2r.bmp	0	1	+	0	1	blank2r.bmp	500	7	C3r.bmp	500	1	blank2r.bmp	880	3	spielen	880	0	0	0	0	0	0	0	0	0	0	0	0
2024-05-15	10:03:11	10:06:19	187191	6.6.1	4_exp_EVA_AWA_CON	30	B	A	Rpleas_acq	Oppo	Rpleas	1pleas	acq_US_pleas_nomask	acq1_nomask	1	33	0	0	300	300	0	0	715	50	1	0	retten	ehrlich	tolerant	fair	helfen	schlau	rächen	eitel	tyrannisch	faul	hindern	schroff	treu	freundlich	spielen	schön	loyal	lachen	tot	fanatisch	strafen	schlecht	lasch	leiden	1	blank2r.bmp	0	1	+	0	1	blank2r.bmp	500	1	BMVZ	500	1	blank2r.bmp	880	3	tolerant	880	0	0	0	0	0	0	0	0	0	0	0	0
2024-05-15	10:03:11	10:06:22	189751	6.6.1	4_exp_EVA_AWA_CON	30	B	A	Rpleas_acq	Oppo	Rpleas	1pleas	acq_US_unple_nomask	acq1_nomask	1	34	0	0	300	300	0	0	1073	46	1	0	retten	ehrlich	tolerant	fair	helfen	schlau	rächen	eitel	tyrannisch	faul	hindern	schroff	treu	freundlich	spielen	schön	loyal	lachen	tot	fanatisch	strafen	schlecht	lasch	leiden	1	blank2r.bmp	0	1	+	0	1	blank2r.bmp	500	1	GKQX	500	1	blank2r.bmp	880	1	rächen	880	0	0	0	0	0	0	0	0	0	0	0	0
2024-05-15	10:03:11	10:06:24	191911	6.6.1	4_exp_EVA_AWA_CON	30	B	A	Rpleas_acq	Oppo	Rpleas	1pleas	acq_US_pleas_nomask	acq1_nomask	1	35	0	0	300	300	0	0	672	50	1	0	retten	ehrlich	tolerant	fair	helfen	schlau	rächen	eitel	tyrannisch	faul	hindern	schroff	treu	freundlich	spielen	schön	loyal	lachen	tot	fanatisch	strafen	schlecht	lasch	leiden	1	blank2r.bmp	0	1	+	0	1	blank2r.bmp	500	1	BMVZ	500	1	blank2r.bmp	880	6	schlau	880	0	0	0	0	0	0	0	0	0	0	0	0
2024-05-15	10:03:11	10:06:26	194055	6.6.1	4_exp_EVA_AWA_CON	30	B	A	Rpleas_acq	Oppo	Rpleas	1pleas	acq_US_pleas_nomask	acq1_nomask	1	36	0	0	300	300	0	0	664	50	1	0	retten	ehrlich	tolerant	fair	helfen	schlau	rächen	eitel	tyrannisch	faul	hindern	schroff	treu	freundlich	spielen	schön	loyal	lachen	tot	fanatisch	strafen	schlecht	lasch	leiden	1	blank2r.bmp	0	1	+	0	1	blank2r.bmp	500	1	BMVZ	500	1	blank2r.bmp	880	5	helfen	880	0	0	0	0	0	0	0	0	0	0	0	0
2024-05-15	10:03:11	10:07:17	244855	6.6.1	4_exp_EVA_AWA_CON	30	B	A	Rpleas_acq	Oppo	Rpleas	1pleas	acq_US_pleas_nomask	acq2_nomask	2	1	480	0	300	300	0	0	563	50	1	0	retten	ehrlich	tolerant	fair	helfen	schlau	rächen	eitel	tyrannisch	faul	hindern	schroff	treu	freundlich	spielen	schön	loyal	lachen	tot	fanatisch	strafen	schlecht	lasch	leiden	1	blank2r.bmp	0	1	+	0	1	blank2r.bmp	500	1	BMVZ	500	1	blank2r.bmp	880	2	ehrlich	880	1	!	1313	1	!	-1	0	0	0	0	0	0
2024-05-15	10:03:11	10:07:19	247171	6.6.1	4_exp_EVA_AWA_CON	30	B	A	Rpleas_acq	Oppo	Rpleas	1pleas	acq_US_unple_nomask	acq2_nomask	2	2	480	1	300	300	0	0	534	46	1	0	retten	ehrlich	tolerant	fair	helfen	schlau	rächen	eitel	tyrannisch	faul	hindern	schroff	treu	freundlich	spielen	schön	loyal	lachen	tot	fanatisch	strafen	schlecht	lasch	leiden	1	blank2r.bmp	0	1	+	0	1	blank2r.bmp	500	1	GKQX	500	1	blank2r.bmp	880	5	hindern	880	1	!	1313	1	!	1435	0	0	0	0	0	0
2024-05-15	10:03:11	10:07:22	249721	6.6.1	4_exp_EVA_AWA_CON	30	B	A	Rpleas_acq	Oppo	Rpleas	1pleas	acq_new_pleas_nomask	acq2_nomask	2	3	480	0	300	300	0	0	774	50	1	0	retten	ehrlich	tolerant	fair	helfen	schlau	rächen	eitel	tyrannisch	faul	hindern	schroff	treu	freundlich	spielen	schön	loyal	lachen	tot	fanatisch	strafen	schlecht	lasch	leiden	1	blank2r.bmp	0	1	+	0	1	blank2r.bmp	500	6	C2r.bmp	500	1	blank2r.bmp	880	2	freundlich	880	1	!	1313	1	!	-1	0	0	0	0	0	0
2024-05-15	10:03:11	10:07:24	252027	6.6.1	4_exp_EVA_AWA_CON	30	B	A	Rpleas_acq	Oppo	Rpleas	1pleas	acq_new_unple_nomask	acq2_nomask	2	4	480	1	300	300	0	0	526	46	1	0	retten	ehrlich	tolerant	fair	helfen	schlau	rächen	eitel	tyrannisch	faul	hindern	schroff	treu	freundlich	spielen	schön	loyal	lachen	tot	fanatisch	strafen	schlecht	lasch	leiden	1	blank2r.bmp	0	1	+	0	1	blank2r.bmp	500	5	C1r.bmp	500	1	blank2r.bmp	880	1	tot	880	1	!	1313	1	!	1428	0	0	0	0	0	0
2024-05-15	10:03:11	10:07:27	254508	6.6.1	4_exp_EVA_AWA_CON	30	B	A	Rpleas_acq	Oppo	Rpleas	1pleas	acq_US_unple_nomask	acq2_nomask	2	5	480	1	300	300	0	0	505	50	0	0	retten	ehrlich	tolerant	fair	helfen	schlau	rächen	eitel	tyrannisch	faul	hindern	schroff	treu	freundlich	spielen	schön	loyal	lachen	tot	fanatisch	strafen	schlecht	lasch	leiden	1	blank2r.bmp	0	1	+	0	1	blank2r.bmp	500	1	GKQX	500	1	blank2r.bmp	880	4	faul	880	1	FEHLER	1698	1	!	1313	1	!	1406	0	0	0
2024-05-15	10:03:11	10:07:29	256745	6.6.1	4_exp_EVA_AWA_CON	30	B	A	Rpleas_acq	Oppo	Rpleas	1pleas	acq_new_pleas_nomask	acq2_nomask	2	6	480	0	300	300	0	0	663	50	1	0	retten	ehrlich	tolerant	fair	helfen	schlau	rächen	eitel	tyrannisch	faul	hindern	schroff	treu	freundlich	spielen	schön	loyal	lachen	tot	fanatisch	strafen	schlecht	lasch	leiden	1	blank2r.bmp	0	1	+	0	1	blank2r.bmp	500	3	B3r.bmp	500	1	blank2r.bmp	880	5	loyal	880	1	!	1313	1	!	-1	0	0	0	0	0	0
2024-05-15	10:03:11	10:07:31	259035	6.6.1	4_exp_EVA_AWA_CON	30	B	A	Rpleas_acq	Oppo	Rpleas	1pleas	acq_US_pleas_nomask	acq2_nomask	2	7	480	1	300	300	0	0	510	50	1	0	retten	ehrlich	tolerant	fair	helfen	schlau	rächen	eitel	tyrannisch	faul	hindern	schroff	treu	freundlich	spielen	schön	loyal	lachen	tot	fanatisch	strafen	schlecht	lasch	leiden	1	blank2r.bmp	0	1	+	0	1	blank2r.bmp	500	1	BMVZ	500	1	blank2r.bmp	880	1	retten	880	1	!	1313	1	!	1411	0	0	0	0	0	0
2024-05-15	10:03:11	10:07:33	261339	6.6.1	4_exp_EVA_AWA_CON	30	B	A	Rpleas_acq	Oppo	Rpleas	1pleas	acq_US_unple_nomask	acq2_nomask	2	8	480	1	300	300	0	0	522	46	1	0	retten	ehrlich	tolerant	fair	helfen	schlau	rächen	eitel	tyrannisch	faul	hindern	schroff	treu	freundlich	spielen	schön	loyal	lachen	tot	fanatisch	strafen	schlecht	lasch	leiden	1	blank2r.bmp	0	1	+	0	1	blank2r.bmp	500	1	GKQX	500	1	blank2r.bmp	880	6	schroff	880	1	!	1313	1	!	1424	0	0	0	0	0	0
2024-05-15	10:03:11	10:07:36	263689	6.6.1	4_exp_EVA_AWA_CON	30	B	A	Rpleas_acq	Oppo	Rpleas	1pleas	acq_US_pleas_nomask	acq2_nomask	2	9	480	0	300	300	0	0	573	50	1	0	retten	ehrlich	tolerant	fair	helfen	schlau	rächen	eitel	tyrannisch	faul	hindern	schroff	treu	freundlich	spielen	schön	loyal	lachen	tot	fanatisch	strafen	schlecht	lasch	leiden	1	blank2r.bmp	0	1	+	0	1	blank2r.bmp	500	1	BMVZ	500	1	blank2r.bmp	880	4	fair	880	1	!	1313	1	!	-1	0	0	0	0	0	0
2024-05-15	10:03:11	10:07:38	266023	6.6.1	4_exp_EVA_AWA_CON	30	B	A	Rpleas_acq	Oppo	Rpleas	1pleas	acq_new_pleas_nomask	acq2_nomask	2	10	480	0	300	300	0	0	557	50	1	0	retten	ehrlich	tolerant	fair	helfen	schlau	rächen	eitel	tyrannisch	faul	hindern	schroff	treu	freundlich	spielen	schön	loyal	lachen	tot	fanatisch	strafen	schlecht	lasch	leiden	1	blank2r.bmp	0	1	+	0	1	blank2r.bmp	500	2	B2r.bmp	500	1	blank2r.bmp	880	4	schön	880	1	!	1313	1	!	-1	0	0	0	0	0	0
2024-05-15	10:03:11	10:07:41	268555	6.6.1	4_exp_EVA_AWA_CON	30	B	A	Rpleas_acq	Oppo	Rpleas	1pleas	acq_new_unple_nomask	acq2_nomask	2	11	480	0	300	300	0	0	554	50	0	0	retten	ehrlich	tolerant	fair	helfen	schlau	rächen	eitel	tyrannisch	faul	hindern	schroff	treu	freundlich	spielen	schön	loyal	lachen	tot	fanatisch	strafen	schlecht	lasch	leiden	1	blank2r.bmp	0	1	+	0	1	blank2r.bmp	500	4	B4r.bmp	500	1	blank2r.bmp	880	2	fanatisch	880	1	FEHLER	1745	1	!	1313	1	!	-1	0	0	0
2024-05-15	10:03:11	10:07:43	270897	6.6.1	4_exp_EVA_AWA_CON	30	B	A	Rpleas_acq	Oppo	Rpleas	1pleas	acq_new_unple_nomask	acq2_nomask	2	12	480	0	300	300	0	0	766	46	1	0	retten	ehrlich	tolerant	fair	helfen	schlau	rächen	eitel	tyrannisch	faul	hindern	schroff	treu	freundlich	spielen	schön	loyal	lachen	tot	fanatisch	strafen	schlecht	lasch	leiden	1	blank2r.bmp	0	1	+	0	1	blank2r.bmp	500	1	B1r.bmp	500	1	blank2r.bmp	880	4	schlecht	880	1	!	1313	1	!	-1	0	0	0	0	0	0
2024-05-15	10:03:11	10:07:46	274009	6.6.1	4_exp_EVA_AWA_CON	30	B	A	Rpleas_acq	Oppo	Rpleas	1pleas	acq_US_pleas_nomask	acq2_nomask	2	13	480	0	300	300	0	0	1336	50	1	0	retten	ehrlich	tolerant	fair	helfen	schlau	rächen	eitel	tyrannisch	faul	hindern	schroff	treu	freundlich	spielen	schön	loyal	lachen	tot	fanatisch	strafen	schlecht	lasch	leiden	1	blank2r.bmp	0	1	+	0	1	blank2r.bmp	500	1	BMVZ	500	1	blank2r.bmp	880	1	retten	880	1	!	1313	1	!	-1	0	0	0	0	0	0
2024-05-15	10:03:11	10:07:48	276308	6.6.1	4_exp_EVA_AWA_CON	30	B	A	Rpleas_acq	Oppo	Rpleas	1pleas	acq_US_unple_nomask	acq2_nomask	2	14	480	1	300	300	0	0	520	46	1	0	retten	ehrlich	tolerant	fair	helfen	schlau	rächen	eitel	tyrannisch	faul	hindern	schroff	treu	freundlich	spielen	schön	loyal	lachen	tot	fanatisch	strafen	schlecht	lasch	leiden	1	blank2r.bmp	0	1	+	0	1	blank2r.bmp	500	1	GKQX	500	1	blank2r.bmp	880	6	schroff	880	1	!	1313	1	!	1422	0	0	0	0	0	0
2024-05-15	10:03:11	10:07:51	278580	6.6.1	4_exp_EVA_AWA_CON	30	B	A	Rpleas_acq	Oppo	Rpleas	1pleas	acq_new_pleas_nomask	acq2_nomask	2	15	480	1	300	300	0	0	491	50	1	0	retten	ehrlich	tolerant	fair	helfen	schlau	rächen	eitel	tyrannisch	faul	hindern	schroff	treu	freundlich	spielen	schön	loyal	lachen	tot	fanatisch	strafen	schlecht	lasch	leiden	1	blank2r.bmp	0	1	+	0	1	blank2r.bmp	500	7	C3r.bmp	500	1	blank2r.bmp	880	3	spielen	880	1	!	1313	1	!	1393	0	0	0	0	0	0
2024-05-15	10:03:11	10:07:53	280867	6.6.1	4_exp_EVA_AWA_CON	30	B	A	Rpleas_acq	Oppo	Rpleas	1pleas	acq_new_pleas_nomask	acq2_nomask	2	16	480	1	300	300	0	0	507	50	1	0	retten	ehrlich	tolerant	fair	helfen	schlau	rächen	eitel	tyrannisch	faul	hindern	schroff	treu	freundlich	spielen	schön	loyal	lachen	tot	fanatisch	strafen	schlecht	lasch	leiden	1	blank2r.bmp	0	1	+	0	1	blank2r.bmp	500	3	B3r.bmp	500	1	blank2r.bmp	880	2	freundlich	880	1	!	1313	1	!	1409	0	0	0	0	0	0
2024-05-15	10:03:11	10:07:55	283147	6.6.1	4_exp_EVA_AWA_CON	30	B	A	Rpleas_acq	Oppo	Rpleas	1pleas	acq_US_unple_nomask	acq2_nomask	2	17	480	1	300	300	0	0	506	46	1	0	retten	ehrlich	tolerant	fair	helfen	schlau	rächen	eitel	tyrannisch	faul	hindern	schroff	treu	freundlich	spielen	schön	loyal	lachen	tot	fanatisch	strafen	schlecht	lasch	leiden	1	blank2r.bmp	0	1	+	0	1	blank2r.bmp	500	1	GKQX	500	1	blank2r.bmp	880	3	tyrannisch	880	1	!	1313	1	!	1407	0	0	0	0	0	0
2024-05-15	10:03:11	10:07:58	285435	6.6.1	4_exp_EVA_AWA_CON	30	B	A	Rpleas_acq	Oppo	Rpleas	1pleas	acq_US_pleas_nomask	acq2_nomask	2	18	480	1	300	300	0	0	513	50	1	0	retten	ehrlich	tolerant	fair	helfen	schlau	rächen	eitel	tyrannisch	faul	hindern	schroff	treu	freundlich	spielen	schön	loyal	lachen	tot	fanatisch	strafen	schlecht	lasch	leiden	1	blank2r.bmp	0	1	+	0	1	blank2r.bmp	500	1	BMVZ	500	1	blank2r.bmp	880	4	fair	880	1	!	1313	1	!	1414	0	0	0	0	0	0
2024-05-15	10:03:11	10:08:00	287747	6.6.1	4_exp_EVA_AWA_CON	30	B	A	Rpleas_acq	Oppo	Rpleas	1pleas	acq_new_unple_nomask	acq2_nomask	2	19	480	1	300	300	0	0	533	46	1	0	retten	ehrlich	tolerant	fair	helfen	schlau	rächen	eitel	tyrannisch	faul	hindern	schroff	treu	freundlich	spielen	schön	loyal	lachen	tot	fanatisch	strafen	schlecht	lasch	leiden	1	blank2r.bmp	0	1	+	0	1	blank2r.bmp	500	5	C1r.bmp	500	1	blank2r.bmp	880	5	lasch	880	1	!	1313	1	!	1434	0	0	0	0	0	0
2024-05-15	10:03:11	10:08:02	290237	6.6.1	4_exp_EVA_AWA_CON	30	B	A	Rpleas_acq	Oppo	Rpleas	1pleas	acq_US_unple_nomask	acq2_nomask	2	20	480	1	300	300	0	0	509	50	0	0	retten	ehrlich	tolerant	fair	helfen	schlau	rächen	eitel	tyrannisch	faul	hindern	schroff	treu	freundlich	spielen	schön	loyal	lachen	tot	fanatisch	strafen	schlecht	lasch	leiden	1	blank2r.bmp	0	1	+	0	1	blank2r.bmp	500	1	GKQX	500	1	blank2r.bmp	880	4	faul	880	1	FEHLER	1703	1	!	1313	1	!	1411	0	0	0
2024-05-15	10:03:11	10:08:04	292368	6.6.1	4_exp_EVA_AWA_CON	30	B	A	Rpleas_acq	Oppo	Rpleas	1pleas	acq_new_pleas_nomask	acq2_nomask	2	21	480	0	300	300	0	0	554	50	1	0	retten	ehrlich	tolerant	fair	helfen	schlau	rächen	eitel	tyrannisch	faul	hindern	schroff	treu	freundlich	spielen	schön	loyal	lachen	tot	fanatisch	strafen	schlecht	lasch	leiden	1	blank2r.bmp	0	1	+	0	1	blank2r.bmp	500	1	B1r.bmp	500	1	blank2r.bmp	880	5	loyal	880	1	!	1313	1	!	-1	0	0	0	0	0	0
2024-05-15	10:03:11	10:08:07	294738	6.6.1	4_exp_EVA_AWA_CON	30	B	A	Rpleas_acq	Oppo	Rpleas	1pleas	acq_new_unple_nomask	acq2_nomask	2	22	480	0	300	300	0	0	590	46	1	0	retten	ehrlich	tolerant	fair	helfen	schlau	rächen	eitel	tyrannisch	faul	hindern	schroff	treu	freundlich	spielen	schön	loyal	lachen	tot	fanatisch	strafen	schlecht	lasch	leiden	1	blank2r.bmp	0	1	+	0	1	blank2r.bmp	500	8	C4r.bmp	500	1	blank2r.bmp	880	2	fanatisch	880	1	!	1313	1	!	-1	0	0	0	0	0	0
2024-05-15	10:03:11	10:08:09	297097	6.6.1	4_exp_EVA_AWA_CON	30	B	A	Rpleas_acq	Oppo	Rpleas	1pleas	acq_new_unple_nomask	acq2_nomask	2	23	480	0	300	300	0	0	579	46	1	0	retten	ehrlich	tolerant	fair	helfen	schlau	rächen	eitel	tyrannisch	faul	hindern	schroff	treu	freundlich	spielen	schön	loyal	lachen	tot	fanatisch	strafen	schlecht	lasch	leiden	1	blank2r.bmp	0	1	+	0	1	blank2r.bmp	500	2	B2r.bmp	500	1	blank2r.bmp	880	6	leiden	880	1	!	1313	1	!	-1	0	0	0	0	0	0
2024-05-15	10:03:11	10:08:11	299372	6.6.1	4_exp_EVA_AWA_CON	30	B	A	Rpleas_acq	Oppo	Rpleas	1pleas	acq_US_pleas_nomask	acq2_nomask	2	24	480	1	300	300	0	0	499	50	1	0	retten	ehrlich	tolerant	fair	helfen	schlau	rächen	eitel	tyrannisch	faul	hindern	schroff	treu	freundlich	spielen	schön	loyal	lachen	tot	fanatisch	strafen	schlecht	lasch	leiden	1	blank2r.bmp	0	1	+	0	1	blank2r.bmp	500	1	BMVZ	500	1	blank2r.bmp	880	2	ehrlich	880	1	!	1313	1	!	1401	0	0	0	0	0	0
2024-05-15	10:03:11	10:08:14	301699	6.6.1	4_exp_EVA_AWA_CON	30	B	A	Rpleas_acq	Oppo	Rpleas	1pleas	acq_US_unple_nomask	acq2_nomask	2	25	480	1	300	300	0	0	546	46	1	0	retten	ehrlich	tolerant	fair	helfen	schlau	rächen	eitel	tyrannisch	faul	hindern	schroff	treu	freundlich	spielen	schön	loyal	lachen	tot	fanatisch	strafen	schlecht	lasch	leiden	1	blank2r.bmp	0	1	+	0	1	blank2r.bmp	500	1	GKQX	500	1	blank2r.bmp	880	5	hindern	880	1	!	1313	1	!	1447	0	0	0	0	0	0
2024-05-15	10:03:11	10:08:17	304921	6.6.1	4_exp_EVA_AWA_CON	30	B	A	Rpleas_acq	Oppo	Rpleas	1pleas	acq_US_unple_nomask	acq2_nomask	2	26	480	0	300	300	0	0	1448	46	1	0	retten	ehrlich	tolerant	fair	helfen	schlau	rächen	eitel	tyrannisch	faul	hindern	schroff	treu	freundlich	spielen	schön	loyal	lachen	tot	fanatisch	strafen	schlecht	lasch	leiden	1	blank2r.bmp	0	1	+	0	1	blank2r.bmp	500	1	GKQX	500	1	blank2r.bmp	880	2	eitel	880	1	!	1313	1	!	-1	0	0	0	0	0	0
2024-05-15	10:03:11	10:08:19	307243	6.6.1	4_exp_EVA_AWA_CON	30	B	A	Rpleas_acq	Oppo	Rpleas	1pleas	acq_new_pleas_nomask	acq2_nomask	2	27	480	1	300	300	0	0	546	50	1	0	retten	ehrlich	tolerant	fair	helfen	schlau	rächen	eitel	tyrannisch	faul	hindern	schroff	treu	freundlich	spielen	schön	loyal	lachen	tot	fanatisch	strafen	schlecht	lasch	leiden	1	blank2r.bmp	0	1	+	0	1	blank2r.bmp	500	6	C2r.bmp	500	1	blank2r.bmp	880	1	treu	880	1	!	1313	1	!	1447	0	0	0	0	0	0
2024-05-15	10:03:11	10:08:22	309898	6.6.1	4_exp_EVA_AWA_CON	30	B	A	Rpleas_acq	Oppo	Rpleas	1pleas	acq_new_unple_nomask	acq2_nomask	2	28	480	0	300	300	0	0	881	46	1	0	retten	ehrlich	tolerant	fair	helfen	schlau	rächen	eitel	tyrannisch	faul	hindern	schroff	treu	freundlich	spielen	schön	loyal	lachen	tot	fanatisch	strafen	schlecht	lasch	leiden	1	blank2r.bmp	0	1	+	0	1	blank2r.bmp	500	4	B4r.bmp	500	1	blank2r.bmp	880	4	schlecht	880	1	!	1313	1	!	-1	0	0	0	0	0	0
2024-05-15	10:03:11	10:08:24	312240	6.6.1	4_exp_EVA_AWA_CON	30	B	A	Rpleas_acq	Oppo	Rpleas	1pleas	acq_new_unple_nomask	acq2_nomask	2	29	480	0	300	300	0	0	563	46	1	0	retten	ehrlich	tolerant	fair	helfen	schlau	rächen	eitel	tyrannisch	faul	hindern	schroff	treu	freundlich	spielen	schön	loyal	lachen	tot	fanatisch	strafen	schlecht	lasch	leiden	1	blank2r.bmp	0	1	+	0	1	blank2r.bmp	500	2	B2r.bmp	500	1	blank2r.bmp	880	1	tot	880	1	!	1313	1	!	-1	0	0	0	0	0	0
2024-05-15	10:03:11	10:08:27	314593	6.6.1	4_exp_EVA_AWA_CON	30	B	A	Rpleas_acq	Oppo	Rpleas	1pleas	acq_US_pleas_nomask	acq2_nomask	2	30	480	0	300	300	0	0	573	50	1	0	retten	ehrlich	tolerant	fair	helfen	schlau	rächen	eitel	tyrannisch	faul	hindern	schroff	treu	freundlich	spielen	schön	loyal	lachen	tot	fanatisch	strafen	schlecht	lasch	leiden	1	blank2r.bmp	0	1	+	0	1	blank2r.bmp	500	1	BMVZ	500	1	blank2r.bmp	880	6	schlau	880	1	!	1313	1	!	-1	0	0	0	0	0	0
2024-05-15	10:03:11	10:08:29	316785	6.6.1	4_exp_EVA_AWA_CON	30	B	A	Rpleas_acq	Oppo	Rpleas	1pleas	acq_new_pleas_nomask	acq2_nomask	2	31	480	1	300	300	0	0	414	50	1	0	retten	ehrlich	tolerant	fair	helfen	schlau	rächen	eitel	tyrannisch	faul	hindern	schroff	treu	freundlich	spielen	schön	loyal	lachen	tot	fanatisch	strafen	schlecht	lasch	leiden	1	blank2r.bmp	0	1	+	0	1	blank2r.bmp	500	4	B4r.bmp	500	1	blank2r.bmp	880	4	schön	880	1	!	1313	1	!	1313	0	0	0	0	0	0
2024-05-15	10:03:11	10:08:31	319289	6.6.1	4_exp_EVA_AWA_CON	30	B	A	Rpleas_acq	Oppo	Rpleas	1pleas	acq_new_unple_nomask	acq2_nomask	2	32	480	0	300	300	0	0	727	46	1	0	retten	ehrlich	tolerant	fair	helfen	schlau	rächen	eitel	tyrannisch	faul	hindern	schroff	treu	freundlich	spielen	schön	loyal	lachen	tot	fanatisch	strafen	schlecht	lasch	leiden	1	blank2r.bmp	0	1	+	0	1	blank2r.bmp	500	6	C2r.bmp	500	1	blank2r.bmp	880	3	strafen	880	1	!	1313	1	!	-1	0	0	0	0	0	0
2024-05-15	10:03:11	10:08:34	321603	6.6.1	4_exp_EVA_AWA_CON	30	B	A	Rpleas_acq	Oppo	Rpleas	1pleas	acq_new_pleas_nomask	acq2_nomask	2	33	480	1	300	300	0	0	537	50	1	0	retten	ehrlich	tolerant	fair	helfen	schlau	rächen	eitel	tyrannisch	faul	hindern	schroff	treu	freundlich	spielen	schön	loyal	lachen	tot	fanatisch	strafen	schlecht	lasch	leiden	1	blank2r.bmp	0	1	+	0	1	blank2r.bmp	500	1	B1r.bmp	500	1	blank2r.bmp	880	6	lachen	880	1	!	1313	1	!	1438	0	0	0	0	0	0
2024-05-15	10:03:11	10:08:36	323907	6.6.1	4_exp_EVA_AWA_CON	30	B	A	Rpleas_acq	Oppo	Rpleas	1pleas	acq_US_pleas_nomask	acq2_nomask	2	34	480	1	300	300	0	0	529	50	1	0	retten	ehrlich	tolerant	fair	helfen	schlau	rächen	eitel	tyrannisch	faul	hindern	schroff	treu	freundlich	spielen	schön	loyal	lachen	tot	fanatisch	strafen	schlecht	lasch	leiden	1	blank2r.bmp	0	1	+	0	1	blank2r.bmp	500	1	BMVZ	500	1	blank2r.bmp	880	5	helfen	880	1	!	1313	1	!	1431	0	0	0	0	0	0
2024-05-15	10:03:11	10:08:38	326332	6.6.1	4_exp_EVA_AWA_CON	30	B	A	Rpleas_acq	Oppo	Rpleas	1pleas	acq_US_pleas_nomask	acq2_nomask	2	35	480	1	300	300	0	0	442	46	0	0	retten	ehrlich	tolerant	fair	helfen	schlau	rächen	eitel	tyrannisch	faul	hindern	schroff	treu	freundlich	spielen	schön	loyal	lachen	tot	fanatisch	strafen	schlecht	lasch	leiden	1	blank2r.bmp	0	1	+	0	1	blank2r.bmp	500	1	BMVZ	500	1	blank2r.bmp	880	3	tolerant	880	1	FEHLER	1635	1	!	1313	1	!	1343	0	0	0
2024-05-15	10:03:11	10:08:41	328521	6.6.1	4_exp_EVA_AWA_CON	30	B	A	Rpleas_acq	Oppo	Rpleas	1pleas	acq_US_unple_nomask	acq2_nomask	2	36	480	0	300	300	0	0	612	46	1	0	retten	ehrlich	tolerant	fair	helfen	schlau	rächen	eitel	tyrannisch	faul	hindern	schroff	treu	freundlich	spielen	schön	loyal	lachen	tot	fanatisch	strafen	schlecht	lasch	leiden	1	blank2r.bmp	0	1	+	0	1	blank2r.bmp	500	1	GKQX	500	1	blank2r.bmp	880	1	rächen	880	1	!	1313	1	!	-1	0	0	0	0	0	0
2024-05-15	10:03:11	10:08:55	342585	6.6.1	4_exp_EVA_AWA_CON	30	B	A	Rpleas_acq	Oppo	Rpleas	1pleas	acq_US_pleas_nomask	acq3_nomask	3	1	453	0	300	300	0	0	557	50	1	0	retten	ehrlich	tolerant	fair	helfen	schlau	rächen	eitel	tyrannisch	faul	hindern	schroff	treu	freundlich	spielen	schön	loyal	lachen	tot	fanatisch	strafen	schlecht	lasch	leiden	1	blank2r.bmp	0	1	+	0	1	blank2r.bmp	500	1	BMVZ	500	1	blank2r.bmp	880	3	tolerant	880	1	!	1293	1	!	-1	0	0	0	0	0	0
2024-05-15	10:03:11	10:08:57	344843	6.6.1	4_exp_EVA_AWA_CON	30	B	A	Rpleas_acq	Oppo	Rpleas	1pleas	acq_US_unple_nomask	acq3_nomask	3	2	453	1	300	300	0	0	482	46	1	0	retten	ehrlich	tolerant	fair	helfen	schlau	rächen	eitel	tyrannisch	faul	hindern	schroff	treu	freundlich	spielen	schön	loyal	lachen	tot	fanatisch	strafen	schlecht	lasch	leiden	1	blank2r.bmp	0	1	+	0	1	blank2r.bmp	500	1	GKQX	500	1	blank2r.bmp	880	5	hindern	880	1	!	1293	1	!	1383	0	0	0	0	0	0
2024-05-15	10:03:11	10:08:59	347273	6.6.1	4_exp_EVA_AWA_CON	30	B	A	Rpleas_acq	Oppo	Rpleas	1pleas	acq_US_unple_nomask	acq3_nomask	3	3	453	0	300	300	0	0	652	46	1	0	retten	ehrlich	tolerant	fair	helfen	schlau	rächen	eitel	tyrannisch	faul	hindern	schroff	treu	freundlich	spielen	schön	loyal	lachen	tot	fanatisch	strafen	schlecht	lasch	leiden	1	blank2r.bmp	0	1	+	0	1	blank2r.bmp	500	1	GKQX	500	1	blank2r.bmp	880	3	tyrannisch	880	1	!	1293	1	!	-1	0	0	0	0	0	0
2024-05-15	10:03:11	10:09:02	349564	6.6.1	4_exp_EVA_AWA_CON	30	B	A	Rpleas_acq	Oppo	Rpleas	1pleas	acq_US_unple_nomask	acq3_nomask	3	4	453	1	300	300	0	0	509	46	1	0	retten	ehrlich	tolerant	fair	helfen	schlau	rächen	eitel	tyrannisch	faul	hindern	schroff	treu	freundlich	spielen	schön	loyal	lachen	tot	fanatisch	strafen	schlecht	lasch	leiden	1	blank2r.bmp	0	1	+	0	1	blank2r.bmp	500	1	GKQX	500	1	blank2r.bmp	880	1	rächen	880	1	!	1293	1	!	1410	0	0	0	0	0	0
2024-05-15	10:03:11	10:09:04	351937	6.6.1	4_exp_EVA_AWA_CON	30	B	A	Rpleas_acq	Oppo	Rpleas	1pleas	acq_US_pleas_nomask	acq3_nomask	3	5	453	0	300	300	0	0	593	50	1	0	retten	ehrlich	tolerant	fair	helfen	schlau	rächen	eitel	tyrannisch	faul	hindern	schroff	treu	freundlich	spielen	schön	loyal	lachen	tot	fanatisch	strafen	schlecht	lasch	leiden	1	blank2r.bmp	0	1	+	0	1	blank2r.bmp	500	1	BMVZ	500	1	blank2r.bmp	880	6	schlau	880	1	!	1292	1	!	-1	0	0	0	0	0	0
2024-05-15	10:03:11	10:09:06	354281	6.6.1	4_exp_EVA_AWA_CON	30	B	A	Rpleas_acq	Oppo	Rpleas	1pleas	acq_US_pleas_nomask	acq3_nomask	3	6	453	0	300	300	0	0	566	50	1	0	retten	ehrlich	tolerant	fair	helfen	schlau	rächen	eitel	tyrannisch	faul	hindern	schroff	treu	freundlich	spielen	schön	loyal	lachen	tot	fanatisch	strafen	schlecht	lasch	leiden	1	blank2r.bmp	0	1	+	0	1	blank2r.bmp	500	1	BMVZ	500	1	blank2r.bmp	880	1	retten	880	1	!	1293	1	!	-1	0	0	0	0	0	0
2024-05-15	10:03:11	10:09:09	356555	6.6.1	4_exp_EVA_AWA_CON	30	B	A	Rpleas_acq	Oppo	Rpleas	1pleas	acq_US_pleas_nomask	acq3_nomask	3	7	453	1	300	300	0	0	496	50	1	0	retten	ehrlich	tolerant	fair	helfen	schlau	rächen	eitel	tyrannisch	faul	hindern	schroff	treu	freundlich	spielen	schön	loyal	lachen	tot	fanatisch	strafen	schlecht	lasch	leiden	1	blank2r.bmp	0	1	+	0	1	blank2r.bmp	500	1	BMVZ	500	1	blank2r.bmp	880	2	ehrlich	880	1	!	1293	1	!	1397	0	0	0	0	0	0
2024-05-15	10:03:11	10:09:11	358897	6.6.1	4_exp_EVA_AWA_CON	30	B	A	Rpleas_acq	Oppo	Rpleas	1pleas	acq_US_unple_nomask	acq3_nomask	3	8	453	0	300	300	0	0	569	46	1	0	retten	ehrlich	tolerant	fair	helfen	schlau	rächen	eitel	tyrannisch	faul	hindern	schroff	treu	freundlich	spielen	schön	loyal	lachen	tot	fanatisch	strafen	schlecht	lasch	leiden	1	blank2r.bmp	0	1	+	0	1	blank2r.bmp	500	1	GKQX	500	1	blank2r.bmp	880	6	schroff	880	1	!	1293	1	!	-1	0	0	0	0	0	0
2024-05-15	10:03:11	10:09:13	361200	6.6.1	4_exp_EVA_AWA_CON	30	B	A	Rpleas_acq	Oppo	Rpleas	1pleas	acq_US_pleas_nomask	acq3_nomask	3	9	453	0	300	300	0	0	531	50	1	0	retten	ehrlich	tolerant	fair	helfen	schlau	rächen	eitel	tyrannisch	faul	hindern	schroff	treu	freundlich	spielen	schön	loyal	lachen	tot	fanatisch	strafen	schlecht	lasch	leiden	1	blank2r.bmp	0	1	+	0	1	blank2r.bmp	500	1	BMVZ	500	1	blank2r.bmp	880	4	fair	880	1	!	1293	1	!	-1	0	0	0	0	0	0
2024-05-15	10:03:11	10:09:16	363661	6.6.1	4_exp_EVA_AWA_CON	30	B	A	Rpleas_acq	Oppo	Rpleas	1pleas	acq_US_pleas_nomask	acq3_nomask	3	10	453	1	300	300	0	0	486	46	0	0	retten	ehrlich	tolerant	fair	helfen	schlau	rächen	eitel	tyrannisch	faul	hindern	schroff	treu	freundlich	spielen	schön	loyal	lachen	tot	fanatisch	strafen	schlecht	lasch	leiden	1	blank2r.bmp	0	1	+	0	1	blank2r.bmp	500	1	BMVZ	500	1	blank2r.bmp	880	5	helfen	880	1	FEHLER	1679	1	!	1293	1	!	1387	0	0	0
2024-05-15	10:03:11	10:09:19	367121	6.6.1	4_exp_EVA_AWA_CON	30	B	A	Rpleas_acq	Oppo	Rpleas	1pleas	acq_US_unple_nomask	acq3_nomask	3	11	453	0	300	300	0	0	1888	46	1	0	retten	ehrlich	tolerant	fair	helfen	schlau	rächen	eitel	tyrannisch	faul	hindern	schroff	treu	freundlich	spielen	schön	loyal	lachen	tot	fanatisch	strafen	schlecht	lasch	leiden	1	blank2r.bmp	0	1	+	0	1	blank2r.bmp	500	1	GKQX	500	1	blank2r.bmp	880	4	faul	880	1	!	1293	1	!	-1	0	0	0	0	0	0
2024-05-15	10:03:11	10:09:22	369913	6.6.1	4_exp_EVA_AWA_CON	30	B	A	Rpleas_acq	Oppo	Rpleas	1pleas	acq_US_unple_nomask	acq3_nomask	3	12	453	0	300	300	0	0	1018	46	1	0	retten	ehrlich	tolerant	fair	helfen	schlau	rächen	eitel	tyrannisch	faul	hindern	schroff	treu	freundlich	spielen	schön	loyal	lachen	tot	fanatisch	strafen	schlecht	lasch	leiden	1	blank2r.bmp	0	1	+	0	1	blank2r.bmp	500	1	GKQX	500	1	blank2r.bmp	880	2	eitel	880	1	!	1293	1	!	-1	0	0	0	0	0	0
2024-05-15	10:03:11	10:09:24	372241	6.6.1	4_exp_EVA_AWA_CON	30	B	A	Rpleas_acq	Oppo	Rpleas	1pleas	acq_US_unple_nomask	acq3_nomask	3	13	453	0	300	300	0	0	554	46	1	0	retten	ehrlich	tolerant	fair	helfen	schlau	rächen	eitel	tyrannisch	faul	hindern	schroff	treu	freundlich	spielen	schön	loyal	lachen	tot	fanatisch	strafen	schlecht	lasch	leiden	1	blank2r.bmp	0	1	+	0	1	blank2r.bmp	500	1	GKQX	500	1	blank2r.bmp	880	3	tyrannisch	880	1	!	1293	1	!	-1	0	0	0	0	0	0
2024-05-15	10:03:11	10:09:27	374540	6.6.1	4_exp_EVA_AWA_CON	30	B	A	Rpleas_acq	Oppo	Rpleas	1pleas	acq_US_pleas_nomask	acq3_nomask	3	14	453	1	300	300	0	0	518	50	1	0	retten	ehrlich	tolerant	fair	helfen	schlau	rächen	eitel	tyrannisch	faul	hindern	schroff	treu	freundlich	spielen	schön	loyal	lachen	tot	fanatisch	strafen	schlecht	lasch	leiden	1	blank2r.bmp	0	1	+	0	1	blank2r.bmp	500	1	BMVZ	500	1	blank2r.bmp	880	6	schlau	880	1	!	1293	1	!	1420	0	0	0	0	0	0
2024-05-15	10:03:11	10:09:29	376812	6.6.1	4_exp_EVA_AWA_CON	30	B	A	Rpleas_acq	Oppo	Rpleas	1pleas	acq_US_pleas_nomask	acq3_nomask	3	15	453	1	300	300	0	0	489	50	1	0	retten	ehrlich	tolerant	fair	helfen	schlau	rächen	eitel	tyrannisch	faul	hindern	schroff	treu	freundlich	spielen	schön	loyal	lachen	tot	fanatisch	strafen	schlecht	lasch	leiden	1	blank2r.bmp	0	1	+	0	1	blank2r.bmp	500	1	BMVZ	500	1	blank2r.bmp	880	1	retten	880	1	!	1293	1	!	1390	0	0	0	0	0	0
2024-05-15	10:03:11	10:09:31	379067	6.6.1	4_exp_EVA_AWA_CON	30	B	A	Rpleas_acq	Oppo	Rpleas	1pleas	acq_US_unple_nomask	acq3_nomask	3	16	453	1	300	300	0	0	473	46	1	0	retten	ehrlich	tolerant	fair	helfen	schlau	rächen	eitel	tyrannisch	faul	hindern	schroff	treu	freundlich	spielen	schön	loyal	lachen	tot	fanatisch	strafen	schlecht	lasch	leiden	1	blank2r.bmp	0	1	+	0	1	blank2r.bmp	500	1	GKQX	500	1	blank2r.bmp	880	6	schroff	880	1	!	1293	1	!	1375	0	0	0	0	0	0
2024-05-15	10:03:11	10:09:34	381441	6.6.1	4_exp_EVA_AWA_CON	30	B	A	Rpleas_acq	Oppo	Rpleas	1pleas	acq_US_pleas_nomask	acq3_nomask	3	17	453	0	300	300	0	0	598	50	1	0	retten	ehrlich	tolerant	fair	helfen	schlau	rächen	eitel	tyrannisch	faul	hindern	schroff	treu	freundlich	spielen	schön	loyal	lachen	tot	fanatisch	strafen	schlecht	lasch	leiden	1	blank2r.bmp	0	1	+	0	1	blank2r.bmp	500	1	BMVZ	500	1	blank2r.bmp	880	5	helfen	880	1	!	1293	1	!	-1	0	0	0	0	0	0
2024-05-15	10:03:11	10:09:37	384506	6.6.1	4_exp_EVA_AWA_CON	30	B	A	Rpleas_acq	Oppo	Rpleas	1pleas	acq_US_unple_nomask	acq3_nomask	3	18	453	0	300	300	0	0	1290	46	1	0	retten	ehrlich	tolerant	fair	helfen	schlau	rächen	eitel	tyrannisch	faul	hindern	schroff	treu	freundlich	spielen	schön	loyal	lachen	tot	fanatisch	strafen	schlecht	lasch	leiden	1	blank2r.bmp	0	1	+	0	1	blank2r.bmp	500	1	GKQX	500	1	blank2r.bmp	880	5	hindern	880	1	!	1293	1	!	-1	0	0	0	0	0	0
2024-05-15	10:03:11	10:09:39	387018	6.6.1	4_exp_EVA_AWA_CON	30	B	A	Rpleas_acq	Oppo	Rpleas	1pleas	acq_US_unple_nomask	acq3_nomask	3	19	453	0	300	300	0	0	730	46	1	0	retten	ehrlich	tolerant	fair	helfen	schlau	rächen	eitel	tyrannisch	faul	hindern	schroff	treu	freundlich	spielen	schön	loyal	lachen	tot	fanatisch	strafen	schlecht	lasch	leiden	1	blank2r.bmp	0	1	+	0	1	blank2r.bmp	500	1	GKQX	500	1	blank2r.bmp	880	4	faul	880	1	!	1293	1	!	-1	0	0	0	0	0	0
2024-05-15	10:03:11	10:09:41	389377	6.6.1	4_exp_EVA_AWA_CON	30	B	A	Rpleas_acq	Oppo	Rpleas	1pleas	acq_US_pleas_nomask	acq3_nomask	3	20	453	0	300	300	0	0	579	50	1	0	retten	ehrlich	tolerant	fair	helfen	schlau	rächen	eitel	tyrannisch	faul	hindern	schroff	treu	freundlich	spielen	schön	loyal	lachen	tot	fanatisch	strafen	schlecht	lasch	leiden	1	blank2r.bmp	0	1	+	0	1	blank2r.bmp	500	1	BMVZ	500	1	blank2r.bmp	880	4	fair	880	1	!	1293	1	!	-1	0	0	0	0	0	0
2024-05-15	10:03:11	10:09:44	391643	6.6.1	4_exp_EVA_AWA_CON	30	B	A	Rpleas_acq	Oppo	Rpleas	1pleas	acq_US_unple_nomask	acq3_nomask	3	21	453	1	300	300	0	0	491	46	1	0	retten	ehrlich	tolerant	fair	helfen	schlau	rächen	eitel	tyrannisch	faul	hindern	schroff	treu	freundlich	spielen	schön	loyal	lachen	tot	fanatisch	strafen	schlecht	lasch	leiden	1	blank2r.bmp	0	1	+	0	1	blank2r.bmp	500	1	GKQX	500	1	blank2r.bmp	880	1	rächen	880	1	!	1292	1	!	1392	0	0	0	0	0	0
2024-05-15	10:03:11	10:09:46	393891	6.6.1	4_exp_EVA_AWA_CON	30	B	A	Rpleas_acq	Oppo	Rpleas	1pleas	acq_US_pleas_nomask	acq3_nomask	3	22	453	1	300	300	0	0	468	50	1	0	retten	ehrlich	tolerant	fair	helfen	schlau	rächen	eitel	tyrannisch	faul	hindern	schroff	treu	freundlich	spielen	schön	loyal	lachen	tot	fanatisch	strafen	schlecht	lasch	leiden	1	blank2r.bmp	0	1	+	0	1	blank2r.bmp	500	1	BMVZ	500	1	blank2r.bmp	880	2	ehrlich	880	1	!	1293	1	!	1369	0	0	0	0	0	0
2024-05-15	10:03:11	10:09:48	396156	6.6.1	4_exp_EVA_AWA_CON	30	B	A	Rpleas_acq	Oppo	Rpleas	1pleas	acq_US_pleas_nomask	acq3_nomask	3	23	453	1	300	300	0	0	490	50	1	0	retten	ehrlich	tolerant	fair	helfen	schlau	rächen	eitel	tyrannisch	faul	hindern	schroff	treu	freundlich	spielen	schön	loyal	lachen	tot	fanatisch	strafen	schlecht	lasch	leiden	1	blank2r.bmp	0	1	+	0	1	blank2r.bmp	500	1	BMVZ	500	1	blank2r.bmp	880	3	tolerant	880	1	!	1293	1	!	1392	0	0	0	0	0	0
2024-05-15	10:03:11	10:09:50	398371	6.6.1	4_exp_EVA_AWA_CON	30	B	A	Rpleas_acq	Oppo	Rpleas	1pleas	acq_US_unple_nomask	acq3_nomask	3	24	453	1	300	300	0	0	435	46	1	0	retten	ehrlich	tolerant	fair	helfen	schlau	rächen	eitel	tyrannisch	faul	hindern	schroff	treu	freundlich	spielen	schön	loyal	lachen	tot	fanatisch	strafen	schlecht	lasch	leiden	1	blank2r.bmp	0	1	+	0	1	blank2r.bmp	500	1	GKQX	500	1	blank2r.bmp	880	2	eitel	880	1	!	1293	1	!	1336	0	0	0	0	0	0
2024-05-15	10:03:11	10:09:53	400628	6.6.1	4_exp_EVA_AWA_CON	30	B	A	Rpleas_acq	Oppo	Rpleas	1pleas	acq_US_unple_nomask	acq3_nomask	3	25	453	1	300	300	0	0	479	46	1	0	retten	ehrlich	tolerant	fair	helfen	schlau	rächen	eitel	tyrannisch	faul	hindern	schroff	treu	freundlich	spielen	schön	loyal	lachen	tot	fanatisch	strafen	schlecht	lasch	leiden	1	blank2r.bmp	0	1	+	0	1	blank2r.bmp	500	1	GKQX	500	1	blank2r.bmp	880	4	faul	880	1	!	1293	1	!	1381	0	0	0	0	0	0
2024-05-15	10:03:11	10:09:55	403021	6.6.1	4_exp_EVA_AWA_CON	30	B	A	Rpleas_acq	Oppo	Rpleas	1pleas	acq_US_unple_nomask	acq3_nomask	3	26	453	1	300	300	0	0	410	50	0	0	retten	ehrlich	tolerant	fair	helfen	schlau	rächen	eitel	tyrannisch	faul	hindern	schroff	treu	freundlich	spielen	schön	loyal	lachen	tot	fanatisch	strafen	schlecht	lasch	leiden	1	blank2r.bmp	0	1	+	0	1	blank2r.bmp	500	1	GKQX	500	1	blank2r.bmp	880	5	hindern	880	1	FEHLER	1604	1	!	1293	1	!	1312	0	0	0
2024-05-15	10:03:11	10:09:57	405161	6.6.1	4_exp_EVA_AWA_CON	30	B	A	Rpleas_acq	Oppo	Rpleas	1pleas	acq_US_pleas_nomask	acq3_nomask	3	27	453	0	300	300	0	0	562	50	1	0	retten	ehrlich	tolerant	fair	helfen	schlau	rächen	eitel	tyrannisch	faul	hindern	schroff	treu	freundlich	spielen	schön	loyal	lachen	tot	fanatisch	strafen	schlecht	lasch	leiden	1	blank2r.bmp	0	1	+	0	1	blank2r.bmp	500	1	BMVZ	500	1	blank2r.bmp	880	6	schlau	880	1	!	1293	1	!	-1	0	0	0	0	0	0
2024-05-15	10:03:11	10:10:00	407444	6.6.1	4_exp_EVA_AWA_CON	30	B	A	Rpleas_acq	Oppo	Rpleas	1pleas	acq_US_unple_nomask	acq3_nomask	3	28	453	1	300	300	0	0	501	46	1	0	retten	ehrlich	tolerant	fair	helfen	schlau	rächen	eitel	tyrannisch	faul	hindern	schroff	treu	freundlich	spielen	schön	loyal	lachen	tot	fanatisch	strafen	schlecht	lasch	leiden	1	blank2r.bmp	0	1	+	0	1	blank2r.bmp	500	1	GKQX	500	1	blank2r.bmp	880	6	schroff	880	1	!	1293	1	!	1403	0	0	0	0	0	0
2024-05-15	10:03:11	10:10:02	409809	6.6.1	4_exp_EVA_AWA_CON	30	B	A	Rpleas_acq	Oppo	Rpleas	1pleas	acq_US_pleas_nomask	acq3_nomask	3	29	453	0	300	300	0	0	587	50	1	0	retten	ehrlich	tolerant	fair	helfen	schlau	rächen	eitel	tyrannisch	faul	hindern	schroff	treu	freundlich	spielen	schön	loyal	lachen	tot	fanatisch	strafen	schlecht	lasch	leiden	1	blank2r.bmp	0	1	+	0	1	blank2r.bmp	500	1	BMVZ	500	1	blank2r.bmp	880	4	fair	880	1	!	1293	1	!	-1	0	0	0	0	0	0
2024-05-15	10:03:11	10:10:04	412106	6.6.1	4_exp_EVA_AWA_CON	30	B	A	Rpleas_acq	Oppo	Rpleas	1pleas	acq_US_pleas_nomask	acq3_nomask	3	30	453	0	300	300	0	0	524	50	1	0	retten	ehrlich	tolerant	fair	helfen	schlau	rächen	eitel	tyrannisch	faul	hindern	schroff	treu	freundlich	spielen	schön	loyal	lachen	tot	fanatisch	strafen	schlecht	lasch	leiden	1	blank2r.bmp	0	1	+	0	1	blank2r.bmp	500	1	BMVZ	500	1	blank2r.bmp	880	5	helfen	880	1	!	1293	1	!	-1	0	0	0	0	0	0
2024-05-15	10:03:11	10:10:07	414433	6.6.1	4_exp_EVA_AWA_CON	30	B	A	Rpleas_acq	Oppo	Rpleas	1pleas	acq_US_unple_nomask	acq3_nomask	3	31	453	0	300	300	0	0	548	46	1	0	retten	ehrlich	tolerant	fair	helfen	schlau	rächen	eitel	tyrannisch	faul	hindern	schroff	treu	freundlich	spielen	schön	loyal	lachen	tot	fanatisch	strafen	schlecht	lasch	leiden	1	blank2r.bmp	0	1	+	0	1	blank2r.bmp	500	1	GKQX	500	1	blank2r.bmp	880	2	eitel	880	1	!	1293	1	!	-1	0	0	0	0	0	0
2024-05-15	10:03:11	10:10:09	416715	6.6.1	4_exp_EVA_AWA_CON	30	B	A	Rpleas_acq	Oppo	Rpleas	1pleas	acq_US_pleas_nomask	acq3_nomask	3	32	453	1	300	300	0	0	507	50	1	0	retten	ehrlich	tolerant	fair	helfen	schlau	rächen	eitel	tyrannisch	faul	hindern	schroff	treu	freundlich	spielen	schön	loyal	lachen	tot	fanatisch	strafen	schlecht	lasch	leiden	1	blank2r.bmp	0	1	+	0	1	blank2r.bmp	500	1	BMVZ	500	1	blank2r.bmp	880	3	tolerant	880	1	!	1292	1	!	1408	0	0	0	0	0	0
2024-05-15	10:03:11	10:10:11	419003	6.6.1	4_exp_EVA_AWA_CON	30	B	A	Rpleas_acq	Oppo	Rpleas	1pleas	acq_US_pleas_nomask	acq3_nomask	3	33	453	1	300	300	0	0	513	50	1	0	retten	ehrlich	tolerant	fair	helfen	schlau	rächen	eitel	tyrannisch	faul	hindern	schroff	treu	freundlich	spielen	schön	loyal	lachen	tot	fanatisch	strafen	schlecht	lasch	leiden	1	blank2r.bmp	0	1	+	0	1	blank2r.bmp	500	1	BMVZ	500	1	blank2r.bmp	880	2	ehrlich	880	1	!	1292	1	!	1414	0	0	0	0	0	0
2024-05-15	10:03:11	10:10:13	421345	6.6.1	4_exp_EVA_AWA_CON	30	B	A	Rpleas_acq	Oppo	Rpleas	1pleas	acq_US_unple_nomask	acq3_nomask	3	34	453	0	300	300	0	0	566	46	1	0	retten	ehrlich	tolerant	fair	helfen	schlau	rächen	eitel	tyrannisch	faul	hindern	schroff	treu	freundlich	spielen	schön	loyal	lachen	tot	fanatisch	strafen	schlecht	lasch	leiden	1	blank2r.bmp	0	1	+	0	1	blank2r.bmp	500	1	GKQX	500	1	blank2r.bmp	880	1	rächen	880	1	!	1293	1	!	-1	0	0	0	0	0	0
2024-05-15	10:03:11	10:10:16	423547	6.6.1	4_exp_EVA_AWA_CON	30	B	A	Rpleas_acq	Oppo	Rpleas	1pleas	acq_US_pleas_nomask	acq3_nomask	3	35	453	1	300	300	0	0	424	50	1	0	retten	ehrlich	tolerant	fair	helfen	schlau	rächen	eitel	tyrannisch	faul	hindern	schroff	treu	freundlich	spielen	schön	loyal	lachen	tot	fanatisch	strafen	schlecht	lasch	leiden	1	blank2r.bmp	0	1	+	0	1	blank2r.bmp	500	1	BMVZ	500	1	blank2r.bmp	880	1	retten	880	1	!	1293	1	!	1325	0	0	0	0	0	0
2024-05-15	10:03:11	10:10:18	425827	6.6.1	4_exp_EVA_AWA_CON	30	B	A	Rpleas_acq	Oppo	Rpleas	1pleas	acq_US_unple_nomask	acq3_nomask	3	36	453	1	300	300	0	0	503	46	1	0	retten	ehrlich	tolerant	fair	helfen	schlau	rächen	eitel	tyrannisch	faul	hindern	schroff	treu	freundlich	spielen	schön	loyal	lachen	tot	fanatisch	strafen	schlecht	lasch	leiden	1	blank2r.bmp	0	1	+	0	1	blank2r.bmp	500	1	GKQX	500	1	blank2r.bmp	880	3	tyrannisch	880	1	!	1293	1	!	1404	0	0	0	0	0	0
2024-05-15	10:03:11	10:10:35	443329	6.6.1	4_exp_EVA_AWA_CON	30	B	A	Rpleas_acq	Oppo	Rpleas	1pleas	acq_US_unple_nomask	acq45_nomask	4	1	400	0	300	300	0	0	555	46	1	0	retten	ehrlich	tolerant	fair	helfen	schlau	rächen	eitel	tyrannisch	faul	hindern	schroff	treu	freundlich	spielen	schön	loyal	lachen	tot	fanatisch	strafen	schlecht	lasch	leiden	1	blank2r.bmp	0	1	+	0	1	blank2r.bmp	500	1	GKQX	500	1	blank2r.bmp	880	5	hindern	880	1	!	1233	1	!	-1	0	0	0	0	0	0
2024-05-15	10:03:11	10:10:38	445633	6.6.1	4_exp_EVA_AWA_CON	30	B	A	Rpleas_acq	Oppo	Rpleas	1pleas	acq_US_unple_nomask	acq45_nomask	4	2	400	0	300	300	0	0	528	46	1	0	retten	ehrlich	tolerant	fair	helfen	schlau	rächen	eitel	tyrannisch	faul	hindern	schroff	treu	freundlich	spielen	schön	loyal	lachen	tot	fanatisch	strafen	schlecht	lasch	leiden	1	blank2r.bmp	0	1	+	0	1	blank2r.bmp	500	1	GKQX	500	1	blank2r.bmp	880	2	eitel	880	1	!	1232	1	!	-1	0	0	0	0	0	0
2024-05-15	10:03:11	10:10:40	447898	6.6.1	4_exp_EVA_AWA_CON	30	B	A	Rpleas_acq	Oppo	Rpleas	1pleas	acq_US_pleas_nomask	acq45_nomask	4	3	400	0	300	300	0	0	490	46	0	0	retten	ehrlich	tolerant	fair	helfen	schlau	rächen	eitel	tyrannisch	faul	hindern	schroff	treu	freundlich	spielen	schön	loyal	lachen	tot	fanatisch	strafen	schlecht	lasch	leiden	1	blank2r.bmp	0	1	+	0	1	blank2r.bmp	500	1	BMVZ	500	1	blank2r.bmp	880	5	helfen	880	1	!	1233	1	!	-1	0	0	0	0	0	0
2024-05-15	10:03:11	10:10:42	450201	6.6.1	4_exp_EVA_AWA_CON	30	B	A	Rpleas_acq	Oppo	Rpleas	1pleas	acq_US_pleas_nomask	acq45_nomask	4	4	400	0	300	300	0	0	523	50	1	0	retten	ehrlich	tolerant	fair	helfen	schlau	rächen	eitel	tyrannisch	faul	hindern	schroff	treu	freundlich	spielen	schön	loyal	lachen	tot	fanatisch	strafen	schlecht	lasch	leiden	1	blank2r.bmp	0	1	+	0	1	blank2r.bmp	500	1	BMVZ	500	1	blank2r.bmp	880	6	schlau	880	1	!	1232	1	!	-1	0	0	0	0	0	0
2024-05-15	10:03:11	10:10:45	452514	6.6.1	4_exp_EVA_AWA_CON	30	B	A	Rpleas_acq	Oppo	Rpleas	1pleas	acq_US_unple_nomask	acq45_nomask	4	5	400	0	300	300	0	0	533	46	1	0	retten	ehrlich	tolerant	fair	helfen	schlau	rächen	eitel	tyrannisch	faul	hindern	schroff	treu	freundlich	spielen	schön	loyal	lachen	tot	fanatisch	strafen	schlecht	lasch	leiden	1	blank2r.bmp	0	1	+	0	1	blank2r.bmp	500	1	GKQX	500	1	blank2r.bmp	880	1	rächen	880	1	!	1232	1	!	-1	0	0	0	0	0	0
2024-05-15	10:03:11	10:10:47	454858	6.6.1	4_exp_EVA_AWA_CON	30	B	A	Rpleas_acq	Oppo	Rpleas	1pleas	acq_US_unple_nomask	acq45_nomask	4	6	400	0	300	300	0	0	566	46	1	0	retten	ehrlich	tolerant	fair	helfen	schlau	rächen	eitel	tyrannisch	faul	hindern	schroff	treu	freundlich	spielen	schön	loyal	lachen	tot	fanatisch	strafen	schlecht	lasch	leiden	1	blank2r.bmp	0	1	+	0	1	blank2r.bmp	500	1	GKQX	500	1	blank2r.bmp	880	6	schroff	880	1	!	1233	1	!	-1	0	0	0	0	0	0
2024-05-15	10:03:11	10:10:49	457019	6.6.1	4_exp_EVA_AWA_CON	30	B	A	Rpleas_acq	Oppo	Rpleas	1pleas	acq_US_unple_nomask	acq45_nomask	4	7	400	1	300	300	0	0	384	50	0	0	retten	ehrlich	tolerant	fair	helfen	schlau	rächen	eitel	tyrannisch	faul	hindern	schroff	treu	freundlich	spielen	schön	loyal	lachen	tot	fanatisch	strafen	schlecht	lasch	leiden	1	blank2r.bmp	0	1	+	0	1	blank2r.bmp	500	1	GKQX	500	1	blank2r.bmp	880	4	faul	880	1	!	1233	1	!	1286	0	0	0	0	0	0
2024-05-15	10:03:11	10:10:52	459497	6.6.1	4_exp_EVA_AWA_CON	30	B	A	Rpleas_acq	Oppo	Rpleas	1pleas	acq_US_unple_nomask	acq45_nomask	4	8	400	0	300	300	0	0	703	46	1	0	retten	ehrlich	tolerant	fair	helfen	schlau	rächen	eitel	tyrannisch	faul	hindern	schroff	treu	freundlich	spielen	schön	loyal	lachen	tot	fanatisch	strafen	schlecht	lasch	leiden	1	blank2r.bmp	0	1	+	0	1	blank2r.bmp	500	1	GKQX	500	1	blank2r.bmp	880	3	tyrannisch	880	1	!	1233	1	!	-1	0	0	0	0	0	0
2024-05-15	10:03:11	10:10:54	462009	6.6.1	4_exp_EVA_AWA_CON	30	B	A	Rpleas_acq	Oppo	Rpleas	1pleas	acq_US_unple_nomask	acq45_nomask	4	9	400	0	300	300	0	0	733	46	1	0	retten	ehrlich	tolerant	fair	helfen	schlau	rächen	eitel	tyrannisch	faul	hindern	schroff	treu	freundlich	spielen	schön	loyal	lachen	tot	fanatisch	strafen	schlecht	lasch	leiden	1	blank2r.bmp	0	1	+	0	1	blank2r.bmp	500	1	GKQX	500	1	blank2r.bmp	880	4	faul	880	1	!	1233	1	!	-1	0	0	0	0	0	0
2024-05-15	10:03:11	10:10:56	464260	6.6.1	4_exp_EVA_AWA_CON	30	B	A	Rpleas_acq	Oppo	Rpleas	1pleas	acq_US_pleas_nomask	acq45_nomask	4	10	400	1	300	300	0	0	470	50	1	0	retten	ehrlich	tolerant	fair	helfen	schlau	rächen	eitel	tyrannisch	faul	hindern	schroff	treu	freundlich	spielen	schön	loyal	lachen	tot	fanatisch	strafen	schlecht	lasch	leiden	1	blank2r.bmp	0	1	+	0	1	blank2r.bmp	500	1	BMVZ	500	1	blank2r.bmp	880	2	ehrlich	880	1	!	1233	1	!	1372	0	0	0	0	0	0
2024-05-15	10:03:11	10:10:59	466570	6.6.1	4_exp_EVA_AWA_CON	30	B	A	Rpleas_acq	Oppo	Rpleas	1pleas	acq_US_pleas_nomask	acq45_nomask	4	11	400	0	300	300	0	0	530	46	0	0	retten	ehrlich	tolerant	fair	helfen	schlau	rächen	eitel	tyrannisch	faul	hindern	schroff	treu	freundlich	spielen	schön	loyal	lachen	tot	fanatisch	strafen	schlecht	lasch	leiden	1	blank2r.bmp	0	1	+	0	1	blank2r.bmp	500	1	BMVZ	500	1	blank2r.bmp	880	1	retten	880	1	!	1233	1	!	-1	0	0	0	0	0	0
2024-05-15	10:03:11	10:11:02	469553	6.6.1	4_exp_EVA_AWA_CON	30	B	A	Rpleas_acq	Oppo	Rpleas	1pleas	acq_US_unple_nomask	acq45_nomask	4	12	400	0	300	300	0	0	1203	46	1	0	retten	ehrlich	tolerant	fair	helfen	schlau	rächen	eitel	tyrannisch	faul	hindern	schroff	treu	freundlich	spielen	schön	loyal	lachen	tot	fanatisch	strafen	schlecht	lasch	leiden	1	blank2r.bmp	0	1	+	0	1	blank2r.bmp	500	1	GKQX	500	1	blank2r.bmp	880	6	schroff	880	1	!	1233	1	!	-1	0	0	0	0	0	0
2024-05-15	10:03:11	10:11:04	471804	6.6.1	4_exp_EVA_AWA_CON	30	B	A	Rpleas_acq	Oppo	Rpleas	1pleas	acq_US_pleas_nomask	acq45_nomask	4	13	400	1	300	300	0	0	469	50	1	0	retten	ehrlich	tolerant	fair	helfen	schlau	rächen	eitel	tyrannisch	faul	hindern	schroff	treu	freundlich	spielen	schön	loyal	lachen	tot	fanatisch	strafen	schlecht	lasch	leiden	1	blank2r.bmp	0	1	+	0	1	blank2r.bmp	500	1	BMVZ	500	1	blank2r.bmp	880	4	fair	880	1	!	1233	1	!	1370	0	0	0	0	0	0
2024-05-15	10:03:11	10:11:07	474498	6.6.1	4_exp_EVA_AWA_CON	30	B	A	Rpleas_acq	Oppo	Rpleas	1pleas	acq_US_pleas_nomask	acq45_nomask	4	14	400	0	300	300	0	0	913	50	1	0	retten	ehrlich	tolerant	fair	helfen	schlau	rächen	eitel	tyrannisch	faul	hindern	schroff	treu	freundlich	spielen	schön	loyal	lachen	tot	fanatisch	strafen	schlecht	lasch	leiden	1	blank2r.bmp	0	1	+	0	1	blank2r.bmp	500	1	BMVZ	500	1	blank2r.bmp	880	3	tolerant	880	1	!	1233	1	!	-1	0	0	0	0	0	0
2024-05-15	10:03:11	10:11:09	476752	6.6.1	4_exp_EVA_AWA_CON	30	B	A	Rpleas_acq	Oppo	Rpleas	1pleas	acq_US_pleas_nomask	acq45_nomask	4	15	400	0	300	300	0	0	478	50	1	0	retten	ehrlich	tolerant	fair	helfen	schlau	rächen	eitel	tyrannisch	faul	hindern	schroff	treu	freundlich	spielen	schön	loyal	lachen	tot	fanatisch	strafen	schlecht	lasch	leiden	1	blank2r.bmp	0	1	+	0	1	blank2r.bmp	500	1	BMVZ	500	1	blank2r.bmp	880	6	schlau	880	1	!	1233	1	!	-1	0	0	0	0	0	0
2024-05-15	10:03:11	10:11:11	479193	6.6.1	4_exp_EVA_AWA_CON	30	B	A	Rpleas_acq	Oppo	Rpleas	1pleas	acq_US_pleas_nomask	acq45_nomask	4	16	400	0	300	300	0	0	666	50	1	0	retten	ehrlich	tolerant	fair	helfen	schlau	rächen	eitel	tyrannisch	faul	hindern	schroff	treu	freundlich	spielen	schön	loyal	lachen	tot	fanatisch	strafen	schlecht	lasch	leiden	1	blank2r.bmp	0	1	+	0	1	blank2r.bmp	500	1	BMVZ	500	1	blank2r.bmp	880	3	tolerant	880	1	!	1233	1	!	-1	0	0	0	0	0	0
2024-05-15	10:03:11	10:11:14	481505	6.6.1	4_exp_EVA_AWA_CON	30	B	A	Rpleas_acq	Oppo	Rpleas	1pleas	acq_US_pleas_nomask	acq45_nomask	4	17	400	0	300	300	0	0	537	50	1	0	retten	ehrlich	tolerant	fair	helfen	schlau	rächen	eitel	tyrannisch	faul	hindern	schroff	treu	freundlich	spielen	schön	loyal	lachen	tot	fanatisch	strafen	schlecht	lasch	leiden	1	blank2r.bmp	0	1	+	0	1	blank2r.bmp	500	1	BMVZ	500	1	blank2r.bmp	880	5	helfen	880	1	!	1233	1	!	-1	0	0	0	0	0	0
2024-05-15	10:03:11	10:11:16	483809	6.6.1	4_exp_EVA_AWA_CON	30	B	A	Rpleas_acq	Oppo	Rpleas	1pleas	acq_US_unple_nomask	acq45_nomask	4	18	400	0	300	300	0	0	529	46	1	0	retten	ehrlich	tolerant	fair	helfen	schlau	rächen	eitel	tyrannisch	faul	hindern	schroff	treu	freundlich	spielen	schön	loyal	lachen	tot	fanatisch	strafen	schlecht	lasch	leiden	1	blank2r.bmp	0	1	+	0	1	blank2r.bmp	500	1	GKQX	500	1	blank2r.bmp	880	1	rächen	880	1	!	1233	1	!	-1	0	0	0	0	0	0
2024-05-15	10:03:11	10:11:18	486193	6.6.1	4_exp_EVA_AWA_CON	30	B	A	Rpleas_acq	Oppo	Rpleas	1pleas	acq_US_pleas_nomask	acq45_nomask	4	19	400	0	300	300	0	0	611	50	1	0	retten	ehrlich	tolerant	fair	helfen	schlau	rächen	eitel	tyrannisch	faul	hindern	schroff	treu	freundlich	spielen	schön	loyal	lachen	tot	fanatisch	strafen	schlecht	lasch	leiden	1	blank2r.bmp	0	1	+	0	1	blank2r.bmp	500	1	BMVZ	500	1	blank2r.bmp	880	1	retten	880	1	!	1233	1	!	-1	0	0	0	0	0	0
2024-05-15	10:03:11	10:11:21	488465	6.6.1	4_exp_EVA_AWA_CON	30	B	A	Rpleas_acq	Oppo	Rpleas	1pleas	acq_US_pleas_nomask	acq45_nomask	4	20	400	0	300	300	0	0	492	50	1	0	retten	ehrlich	tolerant	fair	helfen	schlau	rächen	eitel	tyrannisch	faul	hindern	schroff	treu	freundlich	spielen	schön	loyal	lachen	tot	fanatisch	strafen	schlecht	lasch	leiden	1	blank2r.bmp	0	1	+	0	1	blank2r.bmp	500	1	BMVZ	500	1	blank2r.bmp	880	4	fair	880	1	!	1233	1	!	-1	0	0	0	0	0	0
2024-05-15	10:03:11	10:11:23	490643	6.6.1	4_exp_EVA_AWA_CON	30	B	A	Rpleas_acq	Oppo	Rpleas	1pleas	acq_US_pleas_nomask	acq45_nomask	4	21	400	1	300	300	0	0	396	46	0	0	retten	ehrlich	tolerant	fair	helfen	schlau	rächen	eitel	tyrannisch	faul	hindern	schroff	treu	freundlich	spielen	schön	loyal	lachen	tot	fanatisch	strafen	schlecht	lasch	leiden	1	blank2r.bmp	0	1	+	0	1	blank2r.bmp	500	1	BMVZ	500	1	blank2r.bmp	880	2	ehrlich	880	1	!	1233	1	!	1298	0	0	0	0	0	0
2024-05-15	10:03:11	10:11:25	492947	6.6.1	4_exp_EVA_AWA_CON	30	B	A	Rpleas_acq	Oppo	Rpleas	1pleas	acq_US_unple_nomask	acq45_nomask	4	22	400	0	300	300	0	0	529	50	0	0	retten	ehrlich	tolerant	fair	helfen	schlau	rächen	eitel	tyrannisch	faul	hindern	schroff	treu	freundlich	spielen	schön	loyal	lachen	tot	fanatisch	strafen	schlecht	lasch	leiden	1	blank2r.bmp	0	1	+	0	1	blank2r.bmp	500	1	GKQX	500	1	blank2r.bmp	880	2	eitel	880	1	!	1233	1	!	-1	0	0	0	0	0	0
2024-05-15	10:03:11	10:11:27	495284	6.6.1	4_exp_EVA_AWA_CON	30	B	A	Rpleas_acq	Oppo	Rpleas	1pleas	acq_US_unple_nomask	acq45_nomask	4	23	400	0	300	300	0	0	554	46	1	0	retten	ehrlich	tolerant	fair	helfen	schlau	rächen	eitel	tyrannisch	faul	hindern	schroff	treu	freundlich	spielen	schön	loyal	lachen	tot	fanatisch	strafen	schlecht	lasch	leiden	1	blank2r.bmp	0	1	+	0	1	blank2r.bmp	500	1	GKQX	500	1	blank2r.bmp	880	3	tyrannisch	880	1	!	1239	1	!	-1	0	0	0	0	0	0
2024-05-15	10:03:11	10:11:30	497632	6.6.1	4_exp_EVA_AWA_CON	30	B	A	Rpleas_acq	Oppo	Rpleas	1pleas	acq_US_pleas_nomask	acq45_nomask	4	24	400	0	300	300	0	0	566	50	1	0	retten	ehrlich	tolerant	fair	helfen	schlau	rächen	eitel	tyrannisch	faul	hindern	schroff	treu	freundlich	spielen	schön	loyal	lachen	tot	fanatisch	strafen	schlecht	lasch	leiden	1	blank2r.bmp	0	1	+	0	1	blank2r.bmp	500	1	BMVZ	500	1	blank2r.bmp	880	5	helfen	880	1	!	1233	1	!	-1	0	0	0	0	0	0
2024-05-15	10:03:11	10:11:32	499993	6.6.1	4_exp_EVA_AWA_CON	30	B	A	Rpleas_acq	Oppo	Rpleas	1pleas	acq_US_pleas_nomask	acq45_nomask	4	25	400	0	300	300	0	0	582	50	1	0	retten	ehrlich	tolerant	fair	helfen	schlau	rächen	eitel	tyrannisch	faul	hindern	schroff	treu	freundlich	spielen	schön	loyal	lachen	tot	fanatisch	strafen	schlecht	lasch	leiden	1	blank2r.bmp	2	1	+	2	1	blank2r.bmp	500	1	BMVZ	500	1	blank2r.bmp	880	3	tolerant	880	1	!	1233	1	!	-1	0	0	0	0	0	0
2024-05-15	10:03:11	10:11:35	502410	6.6.1	4_exp_EVA_AWA_CON	30	B	A	Rpleas_acq	Oppo	Rpleas	1pleas	acq_US_unple_nomask	acq45_nomask	4	26	400	0	300	300	0	0	637	46	1	0	retten	ehrlich	tolerant	fair	helfen	schlau	rächen	eitel	tyrannisch	faul	hindern	schroff	treu	freundlich	spielen	schön	loyal	lachen	tot	fanatisch	strafen	schlecht	lasch	leiden	1	blank2r.bmp	0	1	+	0	1	blank2r.bmp	500	1	GKQX	500	1	blank2r.bmp	880	5	hindern	880	1	!	1233	1	!	-1	0	0	0	0	0	0
2024-05-15	10:03:11	10:11:37	504713	6.6.1	4_exp_EVA_AWA_CON	30	B	A	Rpleas_acq	Oppo	Rpleas	1pleas	acq_US_pleas_nomask	acq45_nomask	4	27	400	0	300	300	0	0	529	50	1	0	retten	ehrlich	tolerant	fair	helfen	schlau	rächen	eitel	tyrannisch	faul	hindern	schroff	treu	freundlich	spielen	schön	loyal	lachen	tot	fanatisch	strafen	schlecht	lasch	leiden	1	blank2r.bmp	0	1	+	0	1	blank2r.bmp	500	1	BMVZ	500	1	blank2r.bmp	880	4	fair	880	1	!	1233	1	!	-1	0	0	0	0	0	0
2024-05-15	10:03:11	10:11:39	507177	6.6.1	4_exp_EVA_AWA_CON	30	B	A	Rpleas_acq	Oppo	Rpleas	1pleas	acq_US_pleas_nomask	acq45_nomask	4	28	400	0	300	300	0	0	682	50	1	0	retten	ehrlich	tolerant	fair	helfen	schlau	rächen	eitel	tyrannisch	faul	hindern	schroff	treu	freundlich	spielen	schön	loyal	lachen	tot	fanatisch	strafen	schlecht	lasch	leiden	1	blank2r.bmp	0	1	+	0	1	blank2r.bmp	500	1	BMVZ	500	1	blank2r.bmp	880	1	retten	880	1	!	1233	1	!	-1	0	0	0	0	0	0
2024-05-15	10:03:11	10:11:42	509442	6.6.1	4_exp_EVA_AWA_CON	30	B	A	Rpleas_acq	Oppo	Rpleas	1pleas	acq_US_unple_nomask	acq45_nomask	4	29	400	0	300	300	0	0	484	50	0	0	retten	ehrlich	tolerant	fair	helfen	schlau	rächen	eitel	tyrannisch	faul	hindern	schroff	treu	freundlich	spielen	schön	loyal	lachen	tot	fanatisch	strafen	schlecht	lasch	leiden	1	blank2r.bmp	0	1	+	0	1	blank2r.bmp	500	1	GKQX	500	1	blank2r.bmp	880	4	faul	880	1	!	1233	1	!	-1	0	0	0	0	0	0
2024-05-15	10:03:11	10:11:44	511985	6.6.1	4_exp_EVA_AWA_CON	30	B	A	Rpleas_acq	Oppo	Rpleas	1pleas	acq_US_unple_nomask	acq45_nomask	4	30	400	0	300	300	0	0	767	46	1	0	retten	ehrlich	tolerant	fair	helfen	schlau	rächen	eitel	tyrannisch	faul	hindern	schroff	treu	freundlich	spielen	schön	loyal	lachen	tot	fanatisch	strafen	schlecht	lasch	leiden	1	blank2r.bmp	0	1	+	0	1	blank2r.bmp	500	1	GKQX	500	1	blank2r.bmp	880	5	hindern	880	1	!	1234	1	!	-1	0	0	0	0	0	0
2024-05-15	10:03:11	10:11:46	514291	6.6.1	4_exp_EVA_AWA_CON	30	B	A	Rpleas_acq	Oppo	Rpleas	1pleas	acq_US_pleas_nomask	acq45_nomask	4	31	400	0	300	300	0	0	529	50	1	0	retten	ehrlich	tolerant	fair	helfen	schlau	rächen	eitel	tyrannisch	faul	hindern	schroff	treu	freundlich	spielen	schön	loyal	lachen	tot	fanatisch	strafen	schlecht	lasch	leiden	1	blank2r.bmp	0	1	+	0	1	blank2r.bmp	500	1	BMVZ	500	1	blank2r.bmp	880	2	ehrlich	880	1	!	1233	1	!	-1	0	0	0	0	0	0
2024-05-15	10:03:11	10:11:49	516833	6.6.1	4_exp_EVA_AWA_CON	30	B	A	Rpleas_acq	Oppo	Rpleas	1pleas	acq_US_unple_nomask	acq45_nomask	4	32	400	0	300	300	0	0	762	46	1	0	retten	ehrlich	tolerant	fair	helfen	schlau	rächen	eitel	tyrannisch	faul	hindern	schroff	treu	freundlich	spielen	schön	loyal	lachen	tot	fanatisch	strafen	schlecht	lasch	leiden	1	blank2r.bmp	0	1	+	0	1	blank2r.bmp	500	1	GKQX	500	1	blank2r.bmp	880	3	tyrannisch	880	1	!	1233	1	!	-1	0	0	0	0	0	0
2024-05-15	10:03:11	10:11:52	519657	6.6.1	4_exp_EVA_AWA_CON	30	B	A	Rpleas_acq	Oppo	Rpleas	1pleas	acq_US_unple_nomask	acq45_nomask	4	33	400	0	300	300	0	0	1044	46	1	0	retten	ehrlich	tolerant	fair	helfen	schlau	rächen	eitel	tyrannisch	faul	hindern	schroff	treu	freundlich	spielen	schön	loyal	lachen	tot	fanatisch	strafen	schlecht	lasch	leiden	1	blank2r.bmp	0	1	+	0	1	blank2r.bmp	500	1	GKQX	500	1	blank2r.bmp	880	6	schroff	880	1	!	1233	1	!	-1	0	0	0	0	0	0
2024-05-15	10:03:11	10:11:54	522073	6.6.1	4_exp_EVA_AWA_CON	30	B	A	Rpleas_acq	Oppo	Rpleas	1pleas	acq_US_pleas_nomask	acq45_nomask	4	34	400	0	300	300	0	0	638	50	1	0	retten	ehrlich	tolerant	fair	helfen	schlau	rächen	eitel	tyrannisch	faul	hindern	schroff	treu	freundlich	spielen	schön	loyal	lachen	tot	fanatisch	strafen	schlecht	lasch	leiden	1	blank2r.bmp	0	1	+	0	1	blank2r.bmp	500	1	BMVZ	500	1	blank2r.bmp	880	6	schlau	880	1	!	1232	1	!	-1	0	0	0	0	0	0
2024-05-15	10:03:11	10:11:58	526313	6.6.1	4_exp_EVA_AWA_CON	30	B	A	Rpleas_acq	Oppo	Rpleas	1pleas	acq_US_unple_nomask	acq45_nomask	4	35	400	0	300	300	0	0	2467	46	1	0	retten	ehrlich	tolerant	fair	helfen	schlau	rächen	eitel	tyrannisch	faul	hindern	schroff	treu	freundlich	spielen	schön	loyal	lachen	tot	fanatisch	strafen	schlecht	lasch	leiden	1	blank2r.bmp	0	1	+	0	1	blank2r.bmp	500	1	GKQX	500	1	blank2r.bmp	880	1	rächen	880	1	!	1233	1	!	-1	0	0	0	0	0	0
2024-05-15	10:03:11	10:12:01	528697	6.6.1	4_exp_EVA_AWA_CON	30	B	A	Rpleas_acq	Oppo	Rpleas	1pleas	acq_US_unple_nomask	acq45_nomask	4	36	400	0	300	300	0	0	608	46	1	0	retten	ehrlich	tolerant	fair	helfen	schlau	rächen	eitel	tyrannisch	faul	hindern	schroff	treu	freundlich	spielen	schön	loyal	lachen	tot	fanatisch	strafen	schlecht	lasch	leiden	1	blank2r.bmp	0	1	+	0	1	blank2r.bmp	500	1	GKQX	500	1	blank2r.bmp	880	2	eitel	880	1	!	1233	1	!	-1	0	0	0	0	0	0
2024-05-15	10:03:11	10:12:14	542105	6.6.1	4_exp_EVA_AWA_CON	30	B	A	Rpleas_acq	Oppo	Rpleas	1pleas	acq_US_pleas_nomask	acq45_nomask	5	1	400	0	300	300	0	0	657	50	1	0	retten	ehrlich	tolerant	fair	helfen	schlau	rächen	eitel	tyrannisch	faul	hindern	schroff	treu	freundlich	spielen	schön	loyal	lachen	tot	fanatisch	strafen	schlecht	lasch	leiden	1	blank2r.bmp	0	1	+	0	1	blank2r.bmp	500	1	BMVZ	500	1	blank2r.bmp	880	5	helfen	880	1	!	1233	1	!	-1	0	0	0	0	0	0
2024-05-15	10:03:11	10:12:16	544369	6.6.1	4_exp_EVA_AWA_CON	30	B	A	Rpleas_acq	Oppo	Rpleas	1pleas	acq_US_unple_nomask	acq45_nomask	5	2	400	0	300	300	0	0	489	46	1	0	retten	ehrlich	tolerant	fair	helfen	schlau	rächen	eitel	tyrannisch	faul	hindern	schroff	treu	freundlich	spielen	schön	loyal	lachen	tot	fanatisch	strafen	schlecht	lasch	leiden	1	blank2r.bmp	0	1	+	0	1	blank2r.bmp	500	1	GKQX	500	1	blank2r.bmp	880	5	hindern	880	1	!	1233	1	!	-1	0	0	0	0	0	0
2024-05-15	10:03:11	10:12:19	546642	6.6.1	4_exp_EVA_AWA_CON	30	B	A	Rpleas_acq	Oppo	Rpleas	1pleas	acq_US_unple_nomask	acq45_nomask	5	3	400	0	300	300	0	0	500	50	0	0	retten	ehrlich	tolerant	fair	helfen	schlau	rächen	eitel	tyrannisch	faul	hindern	schroff	treu	freundlich	spielen	schön	loyal	lachen	tot	fanatisch	strafen	schlecht	lasch	leiden	1	blank2r.bmp	0	1	+	0	1	blank2r.bmp	500	1	GKQX	500	1	blank2r.bmp	880	4	faul	880	1	!	1232	1	!	-1	0	0	0	0	0	0
2024-05-15	10:03:11	10:12:21	548994	6.6.1	4_exp_EVA_AWA_CON	30	B	A	Rpleas_acq	Oppo	Rpleas	1pleas	acq_US_unple_nomask	acq45_nomask	5	4	400	0	300	300	0	0	570	46	1	0	retten	ehrlich	tolerant	fair	helfen	schlau	rächen	eitel	tyrannisch	faul	hindern	schroff	treu	freundlich	spielen	schön	loyal	lachen	tot	fanatisch	strafen	schlecht	lasch	leiden	1	blank2r.bmp	0	1	+	0	1	blank2r.bmp	500	1	GKQX	500	1	blank2r.bmp	880	1	rächen	880	1	!	1233	1	!	-1	0	0	0	0	0	0
2024-05-15	10:03:11	10:12:23	551298	6.6.1	4_exp_EVA_AWA_CON	30	B	A	Rpleas_acq	Oppo	Rpleas	1pleas	acq_US_unple_nomask	acq45_nomask	5	5	400	0	300	300	0	0	523	46	1	0	retten	ehrlich	tolerant	fair	helfen	schlau	rächen	eitel	tyrannisch	faul	hindern	schroff	treu	freundlich	spielen	schön	loyal	lachen	tot	fanatisch	strafen	schlecht	lasch	leiden	1	blank2r.bmp	0	1	+	0	1	blank2r.bmp	500	1	GKQX	500	1	blank2r.bmp	880	3	tyrannisch	880	1	!	1233	1	!	-1	0	0	0	0	0	0
2024-05-15	10:03:11	10:12:26	553539	6.6.1	4_exp_EVA_AWA_CON	30	B	A	Rpleas_acq	Oppo	Rpleas	1pleas	acq_US_pleas_nomask	acq45_nomask	5	6	400	1	300	300	0	0	461	50	1	0	retten	ehrlich	tolerant	fair	helfen	schlau	rächen	eitel	tyrannisch	faul	hindern	schroff	treu	freundlich	spielen	schön	loyal	lachen	tot	fanatisch	strafen	schlecht	lasch	leiden	1	blank2r.bmp	0	1	+	0	1	blank2r.bmp	500	1	BMVZ	500	1	blank2r.bmp	880	6	schlau	880	1	!	1232	1	!	1363	0	0	0	0	0	0
2024-05-15	10:03:11	10:12:28	555961	6.6.1	4_exp_EVA_AWA_CON	30	B	A	Rpleas_acq	Oppo	Rpleas	1pleas	acq_US_pleas_nomask	acq45_nomask	5	7	400	0	300	300	0	0	644	50	1	0	retten	ehrlich	tolerant	fair	helfen	schlau	rächen	eitel	tyrannisch	faul	hindern	schroff	treu	freundlich	spielen	schön	loyal	lachen	tot	fanatisch	strafen	schlecht	lasch	leiden	1	blank2r.bmp	0	1	+	0	1	blank2r.bmp	500	1	BMVZ	500	1	blank2r.bmp	880	2	ehrlich	880	1	!	1233	1	!	-1	0	0	0	0	0	0
2024-05-15	10:03:11	10:12:30	558225	6.6.1	4_exp_EVA_AWA_CON	30	B	A	Rpleas_acq	Oppo	Rpleas	1pleas	acq_US_pleas_nomask	acq45_nomask	5	8	400	0	300	300	0	0	486	50	1	0	retten	ehrlich	tolerant	fair	helfen	schlau	rächen	eitel	tyrannisch	faul	hindern	schroff	treu	freundlich	spielen	schön	loyal	lachen	tot	fanatisch	strafen	schlecht	lasch	leiden	1	blank2r.bmp	0	1	+	0	1	blank2r.bmp	500	1	BMVZ	500	1	blank2r.bmp	880	4	fair	880	1	!	1232	1	!	-1	0	0	0	0	0	0
2024-05-15	10:03:11	10:12:33	560489	6.6.1	4_exp_EVA_AWA_CON	30	B	A	Rpleas_acq	Oppo	Rpleas	1pleas	acq_US_pleas_nomask	acq45_nomask	5	9	400	0	300	300	0	0	489	50	1	0	retten	ehrlich	tolerant	fair	helfen	schlau	rächen	eitel	tyrannisch	faul	hindern	schroff	treu	freundlich	spielen	schön	loyal	lachen	tot	fanatisch	strafen	schlecht	lasch	leiden	1	blank2r.bmp	0	1	+	0	1	blank2r.bmp	500	1	BMVZ	500	1	blank2r.bmp	880	1	retten	880	1	!	1232	1	!	-1	0	0	0	0	0	0
2024-05-15	10:03:11	10:12:35	562761	6.6.1	4_exp_EVA_AWA_CON	30	B	A	Rpleas_acq	Oppo	Rpleas	1pleas	acq_US_unple_nomask	acq45_nomask	5	10	400	0	300	300	0	0	499	46	1	0	retten	ehrlich	tolerant	fair	helfen	schlau	rächen	eitel	tyrannisch	faul	hindern	schroff	treu	freundlich	spielen	schön	loyal	lachen	tot	fanatisch	strafen	schlecht	lasch	leiden	1	blank2r.bmp	0	1	+	0	1	blank2r.bmp	500	1	GKQX	500	1	blank2r.bmp	880	6	schroff	880	1	!	1233	1	!	-1	0	0	0	0	0	0
2024-05-15	10:03:11	10:12:37	565194	6.6.1	4_exp_EVA_AWA_CON	30	B	A	Rpleas_acq	Oppo	Rpleas	1pleas	acq_US_unple_nomask	acq45_nomask	5	11	400	0	300	300	0	0	660	46	1	0	retten	ehrlich	tolerant	fair	helfen	schlau	rächen	eitel	tyrannisch	faul	hindern	schroff	treu	freundlich	spielen	schön	loyal	lachen	tot	fanatisch	strafen	schlecht	lasch	leiden	1	blank2r.bmp	0	1	+	0	1	blank2r.bmp	500	1	GKQX	500	1	blank2r.bmp	880	2	eitel	880	1	!	1233	1	!	-1	0	0	0	0	0	0
2024-05-15	10:03:11	10:12:40	567706	6.6.1	4_exp_EVA_AWA_CON	30	B	A	Rpleas_acq	Oppo	Rpleas	1pleas	acq_US_unple_nomask	acq45_nomask	5	12	400	0	300	300	0	0	730	46	1	0	retten	ehrlich	tolerant	fair	helfen	schlau	rächen	eitel	tyrannisch	faul	hindern	schroff	treu	freundlich	spielen	schön	loyal	lachen	tot	fanatisch	strafen	schlecht	lasch	leiden	1	blank2r.bmp	0	1	+	0	1	blank2r.bmp	500	1	GKQX	500	1	blank2r.bmp	880	5	hindern	880	1	!	1233	1	!	-1	0	0	0	0	0	0
2024-05-15	10:03:11	10:12:42	569985	6.6.1	4_exp_EVA_AWA_CON	30	B	A	Rpleas_acq	Oppo	Rpleas	1pleas	acq_US_unple_nomask	acq45_nomask	5	13	400	0	300	300	0	0	499	46	1	0	retten	ehrlich	tolerant	fair	helfen	schlau	rächen	eitel	tyrannisch	faul	hindern	schroff	treu	freundlich	spielen	schön	loyal	lachen	tot	fanatisch	strafen	schlecht	lasch	leiden	1	blank2r.bmp	0	1	+	0	1	blank2r.bmp	500	1	GKQX	500	1	blank2r.bmp	880	6	schroff	880	1	!	1233	1	!	-1	0	0	0	0	0	0
2024-05-15	10:03:11	10:12:44	572265	6.6.1	4_exp_EVA_AWA_CON	30	B	A	Rpleas_acq	Oppo	Rpleas	1pleas	acq_US_pleas_nomask	acq45_nomask	5	14	400	0	300	300	0	0	507	50	1	0	retten	ehrlich	tolerant	fair	helfen	schlau	rächen	eitel	tyrannisch	faul	hindern	schroff	treu	freundlich	spielen	schön	loyal	lachen	tot	fanatisch	strafen	schlecht	lasch	leiden	1	blank2r.bmp	0	1	+	0	1	blank2r.bmp	500	1	BMVZ	500	1	blank2r.bmp	880	3	tolerant	880	1	!	1233	1	!	-1	0	0	0	0	0	0
2024-05-15	10:03:11	10:12:47	574690	6.6.1	4_exp_EVA_AWA_CON	30	B	A	Rpleas_acq	Oppo	Rpleas	1pleas	acq_US_pleas_nomask	acq45_nomask	5	15	400	0	300	300	0	0	650	50	1	0	retten	ehrlich	tolerant	fair	helfen	schlau	rächen	eitel	tyrannisch	faul	hindern	schroff	treu	freundlich	spielen	schön	loyal	lachen	tot	fanatisch	strafen	schlecht	lasch	leiden	1	blank2r.bmp	0	1	+	0	1	blank2r.bmp	500	1	BMVZ	500	1	blank2r.bmp	880	4	fair	880	1	!	1233	1	!	-1	0	0	0	0	0	0
2024-05-15	10:03:11	10:12:49	577097	6.6.1	4_exp_EVA_AWA_CON	30	B	A	Rpleas_acq	Oppo	Rpleas	1pleas	acq_US_pleas_nomask	acq45_nomask	5	16	400	0	300	300	0	0	626	46	0	0	retten	ehrlich	tolerant	fair	helfen	schlau	rächen	eitel	tyrannisch	faul	hindern	schroff	treu	freundlich	spielen	schön	loyal	lachen	tot	fanatisch	strafen	schlecht	lasch	leiden	1	blank2r.bmp	0	1	+	0	1	blank2r.bmp	500	1	BMVZ	500	1	blank2r.bmp	880	3	tolerant	880	1	!	1233	1	!	-1	0	0	0	0	0	0
2024-05-15	10:03:11	10:12:52	579601	6.6.1	4_exp_EVA_AWA_CON	30	B	A	Rpleas_acq	Oppo	Rpleas	1pleas	acq_US_unple_nomask	acq45_nomask	5	17	400	0	300	300	0	0	729	46	1	0	retten	ehrlich	tolerant	fair	helfen	schlau	rächen	eitel	tyrannisch	faul	hindern	schroff	treu	freundlich	spielen	schön	loyal	lachen	tot	fanatisch	strafen	schlecht	lasch	leiden	1	blank2r.bmp	0	1	+	0	1	blank2r.bmp	500	1	GKQX	500	1	blank2r.bmp	880	2	eitel	880	1	!	1233	1	!	-1	0	0	0	0	0	0
2024-05-15	10:03:11	10:12:54	582273	6.6.1	4_exp_EVA_AWA_CON	30	B	A	Rpleas_acq	Oppo	Rpleas	1pleas	acq_US_pleas_nomask	acq45_nomask	5	18	400	0	300	300	0	0	899	50	1	0	retten	ehrlich	tolerant	fair	helfen	schlau	rächen	eitel	tyrannisch	faul	hindern	schroff	treu	freundlich	spielen	schön	loyal	lachen	tot	fanatisch	strafen	schlecht	lasch	leiden	1	blank2r.bmp	0	1	+	0	1	blank2r.bmp	500	1	BMVZ	500	1	blank2r.bmp	880	1	retten	880	1	!	1232	1	!	-1	0	0	0	0	0	0
2024-05-15	10:03:11	10:12:57	584528	6.6.1	4_exp_EVA_AWA_CON	30	B	A	Rpleas_acq	Oppo	Rpleas	1pleas	acq_US_unple_nomask	acq45_nomask	5	19	400	0	300	300	0	0	483	46	1	0	retten	ehrlich	tolerant	fair	helfen	schlau	rächen	eitel	tyrannisch	faul	hindern	schroff	treu	freundlich	spielen	schön	loyal	lachen	tot	fanatisch	strafen	schlecht	lasch	leiden	1	blank2r.bmp	0	1	+	0	1	blank2r.bmp	500	1	GKQX	500	1	blank2r.bmp	880	1	rächen	880	1	!	1233	1	!	-1	0	0	0	0	0	0
2024-05-15	10:03:11	10:12:59	586866	6.6.1	4_exp_EVA_AWA_CON	30	B	A	Rpleas_acq	Oppo	Rpleas	1pleas	acq_US_pleas_nomask	acq45_nomask	5	20	400	0	300	300	0	0	558	50	1	0	retten	ehrlich	tolerant	fair	helfen	schlau	rächen	eitel	tyrannisch	faul	hindern	schroff	treu	freundlich	spielen	schön	loyal	lachen	tot	fanatisch	strafen	schlecht	lasch	leiden	1	blank2r.bmp	0	1	+	0	1	blank2r.bmp	500	1	BMVZ	500	1	blank2r.bmp	880	6	schlau	880	1	!	1233	1	!	-1	0	0	0	0	0	0
2024-05-15	10:03:11	10:13:01	589153	6.6.1	4_exp_EVA_AWA_CON	30	B	A	Rpleas_acq	Oppo	Rpleas	1pleas	acq_US_unple_nomask	acq45_nomask	5	21	400	0	300	300	0	0	514	46	1	0	retten	ehrlich	tolerant	fair	helfen	schlau	rächen	eitel	tyrannisch	faul	hindern	schroff	treu	freundlich	spielen	schön	loyal	lachen	tot	fanatisch	strafen	schlecht	lasch	leiden	1	blank2r.bmp	0	1	+	0	1	blank2r.bmp	500	1	GKQX	500	1	blank2r.bmp	880	3	tyrannisch	880	1	!	1233	1	!	-1	0	0	0	0	0	0
2024-05-15	10:03:11	10:13:04	591425	6.6.1	4_exp_EVA_AWA_CON	30	B	A	Rpleas_acq	Oppo	Rpleas	1pleas	acq_US_pleas_nomask	acq45_nomask	5	22	400	0	300	300	0	0	495	50	1	0	retten	ehrlich	tolerant	fair	helfen	schlau	rächen	eitel	tyrannisch	faul	hindern	schroff	treu	freundlich	spielen	schön	loyal	lachen	tot	fanatisch	strafen	schlecht	lasch	leiden	1	blank2r.bmp	0	1	+	0	1	blank2r.bmp	500	1	BMVZ	500	1	blank2r.bmp	880	2	ehrlich	880	1	!	1232	1	!	-1	0	0	0	0	0	0
2024-05-15	10:03:11	10:13:06	593801	6.6.1	4_exp_EVA_AWA_CON	30	B	A	Rpleas_acq	Oppo	Rpleas	1pleas	acq_US_pleas_nomask	acq45_nomask	5	23	400	0	300	300	0	0	599	50	1	0	retten	ehrlich	tolerant	fair	helfen	schlau	rächen	eitel	tyrannisch	faul	hindern	schroff	treu	freundlich	spielen	schön	loyal	lachen	tot	fanatisch	strafen	schlecht	lasch	leiden	1	blank2r.bmp	0	1	+	0	1	blank2r.bmp	500	1	BMVZ	500	1	blank2r.bmp	880	5	helfen	880	1	!	1233	1	!	-1	0	0	0	0	0	0
2024-05-15	10:03:11	10:13:08	596036	6.6.1	4_exp_EVA_AWA_CON	30	B	A	Rpleas_acq	Oppo	Rpleas	1pleas	acq_US_pleas_nomask	acq45_nomask	5	24	400	1	300	300	0	0	460	46	0	0	retten	ehrlich	tolerant	fair	helfen	schlau	rächen	eitel	tyrannisch	faul	hindern	schroff	treu	freundlich	spielen	schön	loyal	lachen	tot	fanatisch	strafen	schlecht	lasch	leiden	1	blank2r.bmp	0	1	+	0	1	blank2r.bmp	500	1	BMVZ	500	1	blank2r.bmp	880	6	schlau	880	1	!	1232	1	!	1362	0	0	0	0	0	0
2024-05-15	10:03:11	10:13:12	600298	6.6.1	4_exp_EVA_AWA_CON	30	B	A	Rpleas_acq	Oppo	Rpleas	1pleas	acq_US_pleas_nomask	acq45_nomask	5	25	400	0	300	300	0	0	2482	50	1	0	retten	ehrlich	tolerant	fair	helfen	schlau	rächen	eitel	tyrannisch	faul	hindern	schroff	treu	freundlich	spielen	schön	loyal	lachen	tot	fanatisch	strafen	schlecht	lasch	leiden	1	blank2r.bmp	0	1	+	0	1	blank2r.bmp	500	1	BMVZ	500	1	blank2r.bmp	880	5	helfen	880	1	!	1233	1	!	-1	0	0	0	0	0	0
2024-05-15	10:03:11	10:13:15	602475	6.6.1	4_exp_EVA_AWA_CON	30	B	A	Rpleas_acq	Oppo	Rpleas	1pleas	acq_US_unple_nomask	acq45_nomask	5	26	400	1	300	300	0	0	395	50	0	0	retten	ehrlich	tolerant	fair	helfen	schlau	rächen	eitel	tyrannisch	faul	hindern	schroff	treu	freundlich	spielen	schön	loyal	lachen	tot	fanatisch	strafen	schlecht	lasch	leiden	1	blank2r.bmp	0	1	+	0	1	blank2r.bmp	500	1	GKQX	500	1	blank2r.bmp	880	4	faul	880	1	!	1232	1	!	1297	0	0	0	0	0	0
2024-05-15	10:03:11	10:13:17	605065	6.6.1	4_exp_EVA_AWA_CON	30	B	A	Rpleas_acq	Oppo	Rpleas	1pleas	acq_US_pleas_nomask	acq45_nomask	5	27	400	0	300	300	0	0	816	46	0	0	retten	ehrlich	tolerant	fair	helfen	schlau	rächen	eitel	tyrannisch	faul	hindern	schroff	treu	freundlich	spielen	schön	loyal	lachen	tot	fanatisch	strafen	schlecht	lasch	leiden	1	blank2r.bmp	0	1	+	0	1	blank2r.bmp	500	1	BMVZ	500	1	blank2r.bmp	880	4	fair	880	1	!	1233	1	!	-1	0	0	0	0	0	0
2024-05-15	10:03:11	10:13:20	607489	6.6.1	4_exp_EVA_AWA_CON	30	B	A	Rpleas_acq	Oppo	Rpleas	1pleas	acq_US_unple_nomask	acq45_nomask	5	28	400	0	300	300	0	0	648	46	1	0	retten	ehrlich	tolerant	fair	helfen	schlau	rächen	eitel	tyrannisch	faul	hindern	schroff	treu	freundlich	spielen	schön	loyal	lachen	tot	fanatisch	strafen	schlecht	lasch	leiden	1	blank2r.bmp	0	1	+	0	1	blank2r.bmp	500	1	GKQX	500	1	blank2r.bmp	880	2	eitel	880	1	!	1232	1	!	-1	0	0	0	0	0	0
2024-05-15	10:03:11	10:13:22	609817	6.6.1	4_exp_EVA_AWA_CON	30	B	A	Rpleas_acq	Oppo	Rpleas	1pleas	acq_US_unple_nomask	acq45_nomask	5	29	400	0	300	300	0	0	555	46	1	0	retten	ehrlich	tolerant	fair	helfen	schlau	rächen	eitel	tyrannisch	faul	hindern	schroff	treu	freundlich	spielen	schön	loyal	lachen	tot	fanatisch	strafen	schlecht	lasch	leiden	1	blank2r.bmp	0	1	+	0	1	blank2r.bmp	500	1	GKQX	500	1	blank2r.bmp	880	3	tyrannisch	880	1	!	1232	1	!	-1	0	0	0	0	0	0
2024-05-15	10:03:11	10:13:24	612209	6.6.1	4_exp_EVA_AWA_CON	30	B	A	Rpleas_acq	Oppo	Rpleas	1pleas	acq_US_pleas_nomask	acq45_nomask	5	30	400	0	300	300	0	0	615	50	1	0	retten	ehrlich	tolerant	fair	helfen	schlau	rächen	eitel	tyrannisch	faul	hindern	schroff	treu	freundlich	spielen	schön	loyal	lachen	tot	fanatisch	strafen	schlecht	lasch	leiden	1	blank2r.bmp	0	1	+	0	1	blank2r.bmp	500	1	BMVZ	500	1	blank2r.bmp	880	1	retten	880	1	!	1233	1	!	-1	0	0	0	0	0	0
2024-05-15	10:03:11	10:13:27	614513	6.6.1	4_exp_EVA_AWA_CON	30	B	A	Rpleas_acq	Oppo	Rpleas	1pleas	acq_US_unple_nomask	acq45_nomask	5	31	400	0	300	300	0	0	528	46	1	0	retten	ehrlich	tolerant	fair	helfen	schlau	rächen	eitel	tyrannisch	faul	hindern	schroff	treu	freundlich	spielen	schön	loyal	lachen	tot	fanatisch	strafen	schlecht	lasch	leiden	1	blank2r.bmp	0	1	+	0	1	blank2r.bmp	500	1	GKQX	500	1	blank2r.bmp	880	5	hindern	880	1	!	1233	1	!	-1	0	0	0	0	0	0
2024-05-15	10:03:11	10:13:29	616938	6.6.1	4_exp_EVA_AWA_CON	30	B	A	Rpleas_acq	Oppo	Rpleas	1pleas	acq_US_unple_nomask	acq45_nomask	5	32	400	0	300	300	0	0	650	46	1	0	retten	ehrlich	tolerant	fair	helfen	schlau	rächen	eitel	tyrannisch	faul	hindern	schroff	treu	freundlich	spielen	schön	loyal	lachen	tot	fanatisch	strafen	schlecht	lasch	leiden	1	blank2r.bmp	0	1	+	0	1	blank2r.bmp	500	1	GKQX	500	1	blank2r.bmp	880	1	rächen	880	1	!	1233	1	!	-1	0	0	0	0	0	0
2024-05-15	10:03:11	10:13:32	619617	6.6.1	4_exp_EVA_AWA_CON	30	B	A	Rpleas_acq	Oppo	Rpleas	1pleas	acq_US_unple_nomask	acq45_nomask	5	33	400	0	300	300	0	0	899	46	1	0	retten	ehrlich	tolerant	fair	helfen	schlau	rächen	eitel	tyrannisch	faul	hindern	schroff	treu	freundlich	spielen	schön	loyal	lachen	tot	fanatisch	strafen	schlecht	lasch	leiden	1	blank2r.bmp	0	1	+	0	1	blank2r.bmp	500	1	GKQX	500	1	blank2r.bmp	880	4	faul	880	1	!	1233	1	!	-1	0	0	0	0	0	0
2024-05-15	10:03:11	10:13:34	621913	6.6.1	4_exp_EVA_AWA_CON	30	B	A	Rpleas_acq	Oppo	Rpleas	1pleas	acq_US_pleas_nomask	acq45_nomask	5	34	400	0	300	300	0	0	523	50	1	0	retten	ehrlich	tolerant	fair	helfen	schlau	rächen	eitel	tyrannisch	faul	hindern	schroff	treu	freundlich	spielen	schön	loyal	lachen	tot	fanatisch	strafen	schlecht	lasch	leiden	1	blank2r.bmp	0	1	+	0	1	blank2r.bmp	500	1	BMVZ	500	1	blank2r.bmp	880	3	tolerant	880	1	!	1232	1	!	-1	0	0	0	0	0	0
2024-05-15	10:03:11	10:13:36	624131	6.6.1	4_exp_EVA_AWA_CON	30	B	A	Rpleas_acq	Oppo	Rpleas	1pleas	acq_US_pleas_nomask	acq45_nomask	5	35	400	1	300	300	0	0	437	50	1	0	retten	ehrlich	tolerant	fair	helfen	schlau	rächen	eitel	tyrannisch	faul	hindern	schroff	treu	freundlich	spielen	schön	loyal	lachen	tot	fanatisch	strafen	schlecht	lasch	leiden	1	blank2r.bmp	0	1	+	0	1	blank2r.bmp	500	1	BMVZ	500	1	blank2r.bmp	880	2	ehrlich	880	1	!	1233	1	!	1339	0	0	0	0	0	0
2024-05-15	10:03:11	10:13:39	626417	6.6.1	4_exp_EVA_AWA_CON	30	B	A	Rpleas_acq	Oppo	Rpleas	1pleas	acq_US_unple_nomask	acq45_nomask	5	36	400	0	300	300	0	0	514	46	1	0	retten	ehrlich	tolerant	fair	helfen	schlau	rächen	eitel	tyrannisch	faul	hindern	schroff	treu	freundlich	spielen	schön	loyal	lachen	tot	fanatisch	strafen	schlecht	lasch	leiden	1	blank2r.bmp	0	1	+	0	1	blank2r.bmp	500	1	GKQX	500	1	blank2r.bmp	880	6	schroff	880	1	!	1233	1	!	-1	0	0	0	0	0	0
2024-05-15	10:03:11	10:14:02	650302	6.6.1	4_exp_EVA_AWA_CON	30	B	A	Rpleas_acq	Oppo	Lpleas	1pleas	EvalRating_firsttwo	EvalRating_firsttwo	6	1	0	0	300	300	0	0	6607	line	0	-46,875pct	retten	ehrlich	tolerant	fair	helfen	schlau	rächen	eitel	tyrannisch	faul	hindern	schroff	treu	freundlich	spielen	schön	loyal	lachen	tot	fanatisch	strafen	schlecht	lasch	leiden	1		-8	1	Wie angenehm oder unangenehm finden Sie die  Buchstabenkette ZGVK?	-8	1		-8	1		-8	1		-8	1	Unangenehm	-8	1	Angenehm	-8	0	0	0	0	0	0	0	0	0
2024-05-15	10:03:11	10:14:07	655255	6.6.1	4_exp_EVA_AWA_CON	30	B	A	Rpleas_acq	Oppo	Lpleas	1pleas	EvalRating_lastfour	EvalRating_lastfour	7	1	0	0	300	300	0	0	2574	line	0	-42,8385416666666642982pct	retten	ehrlich	tolerant	fair	helfen	schlau	rächen	eitel	tyrannisch	faul	hindern	schroff	treu	freundlich	spielen	schön	loyal	lachen	tot	fanatisch	strafen	schlecht	lasch	leiden	1		-8	2	Wie angenehm oder unangenehm finden Sie die  Buchstabenkette GKQX?	-8	1		-8	1		-8	1		-8	1	Unangenehm	-8	1	Angenehm	-8	0	0	0	0	0	0	0	0	0
2024-05-15	10:03:11	10:14:10	657626	6.6.1	4_exp_EVA_AWA_CON	30	B	A	Rpleas_acq	Oppo	Lpleas	1pleas	blank_screen	EvalRating_lastfour	7	3	0	0	300	300	0	0	0	0	0	-42,8385416666666642982pct	retten	ehrlich	tolerant	fair	helfen	schlau	rächen	eitel	tyrannisch	faul	hindern	schroff	treu	freundlich	spielen	schön	loyal	lachen	tot	fanatisch	strafen	schlecht	lasch	leiden	1		-8	0	0	0	0	0	0	0	0	0	0	0	0	0	0	0	0	0	0	0	0	0	0	0	0	0	0	0
2024-05-15	10:03:11	10:14:12	659927	6.6.1	4_exp_EVA_AWA_CON	30	B	A	Rpleas_acq	Oppo	Lpleas	1pleas	EvalRating_lastfour	EvalRating_lastfour	7	4	0	0	300	300	0	0	1712	line	0	32,03125pct	retten	ehrlich	tolerant	fair	helfen	schlau	rächen	eitel	tyrannisch	faul	hindern	schroff	treu	freundlich	spielen	schön	loyal	lachen	tot	fanatisch	strafen	schlecht	lasch	leiden	1		-8	1	Wie angenehm oder unangenehm finden Sie die  Buchstabenkette BMVZ?	-8	1		-8	1		-8	1		-8	1	Unangenehm	-8	1	Angenehm	-8	0	0	0	0	0	0	0	0	0
2024-05-15	10:03:11	10:14:14	662299	6.6.1	4_exp_EVA_AWA_CON	30	B	A	Rpleas_acq	Oppo	Lpleas	1pleas	blank_screen	EvalRating_lastfour	7	6	0	0	300	300	0	0	0	0	0	32,03125pct	retten	ehrlich	tolerant	fair	helfen	schlau	rächen	eitel	tyrannisch	faul	hindern	schroff	treu	freundlich	spielen	schön	loyal	lachen	tot	fanatisch	strafen	schlecht	lasch	leiden	1		-8	0	0	0	0	0	0	0	0	0	0	0	0	0	0	0	0	0	0	0	0	0	0	0	0	0	0	0
2024-05-15	10:03:11	10:14:17	665103	6.6.1	4_exp_EVA_AWA_CON	30	B	A	Rpleas_acq	Oppo	Lpleas	1pleas	EvalRating_lastfour	EvalRating_lastfour	7	7	0	0	300	300	0	0	2215	line	0	-70,4427083333333285964pct	retten	ehrlich	tolerant	fair	helfen	schlau	rächen	eitel	tyrannisch	faul	hindern	schroff	treu	freundlich	spielen	schön	loyal	lachen	tot	fanatisch	strafen	schlecht	lasch	leiden	1		-8	3	Wie angenehm oder unangenehm finden Sie die  Buchstabenkette XBQM?	-8	1		-8	1		-8	1		-8	1	Unangenehm	-8	1	Angenehm	-8	0	0	0	0	0	0	0	0	0
2024-05-15	10:03:11	10:14:59	707136	6.6.1	4_exp_EVA_AWA_CON	30	B	A	Rpleas_acq	Oppo	Lpleas	1pleas	conawa_CS2_US2	conawa1_nomask	8	1	0	0	300	300	0	0	10429	spielen	1	-70,4427083333333285964pct	retten	ehrlich	tolerant	fair	helfen	schlau	rächen	eitel	tyrannisch	faul	hindern	schroff	treu	freundlich	spielen	schön	loyal	lachen	tot	fanatisch	strafen	schlecht	lasch	leiden	0	0	0	0	0	0	0	0	0	0	0	0	0	0	0	0	0	0	0	0	0	0	0	0	0	0	0	0	0	0
2024-05-15	10:03:11	10:14:59	707138	6.6.1	4_exp_EVA_AWA_CON	30	B	A	Rpleas_acq	Oppo	Lpleas	1pleas	conawa_CS2_US2_confidence	conawa1_nomask	8	1	0	0	300	300	0	0	10429	guess	1	-70,4427083333333285964pct	retten	ehrlich	tolerant	fair	helfen	schlau	rächen	eitel	tyrannisch	faul	hindern	schroff	treu	freundlich	spielen	schön	loyal	lachen	tot	fanatisch	strafen	schlecht	lasch	leiden	0	0	0	0	0	0	0	0	0	0	0	0	0	0	0	0	0	0	0	0	0	0	0	0	0	0	0	0	0	0
2024-05-15	10:03:11	10:15:06	713690	6.6.1	4_exp_EVA_AWA_CON	30	B	A	Rpleas_acq	Oppo	Lpleas	1pleas	conawa_CS2_US3	conawa1_nomask	8	2	0	0	300	300	0	0	5933	schön	1	-70,4427083333333285964pct	retten	ehrlich	tolerant	fair	helfen	schlau	rächen	eitel	tyrannisch	faul	hindern	schroff	treu	freundlich	spielen	schön	loyal	lachen	tot	fanatisch	strafen	schlecht	lasch	leiden	0	0	0	0	0	0	0	0	0	0	0	0	0	0	0	0	0	0	0	0	0	0	0	0	0	0	0	0	0	0
2024-05-15	10:03:11	10:15:06	713692	6.6.1	4_exp_EVA_AWA_CON	30	B	A	Rpleas_acq	Oppo	Lpleas	1pleas	conawa_CS2_US3_confidence	conawa1_nomask	8	2	0	0	300	300	0	0	5933	guess	1	-70,4427083333333285964pct	retten	ehrlich	tolerant	fair	helfen	schlau	rächen	eitel	tyrannisch	faul	hindern	schroff	treu	freundlich	spielen	schön	loyal	lachen	tot	fanatisch	strafen	schlecht	lasch	leiden	0	0	0	0	0	0	0	0	0	0	0	0	0	0	0	0	0	0	0	0	0	0	0	0	0	0	0	0	0	0
2024-05-15	10:03:11	10:15:12	719954	6.6.1	4_exp_EVA_AWA_CON	30	B	A	Rpleas_acq	Oppo	Lpleas	1pleas	conawa_CS1_US2	conawa1_nomask	8	3	0	0	300	300	0	0	5653	freundlich	1	-70,4427083333333285964pct	retten	ehrlich	tolerant	fair	helfen	schlau	rächen	eitel	tyrannisch	faul	hindern	schroff	treu	freundlich	spielen	schön	loyal	lachen	tot	fanatisch	strafen	schlecht	lasch	leiden	0	0	0	0	0	0	0	0	0	0	0	0	0	0	0	0	0	0	0	0	0	0	0	0	0	0	0	0	0	0
2024-05-15	10:03:11	10:15:12	719956	6.6.1	4_exp_EVA_AWA_CON	30	B	A	Rpleas_acq	Oppo	Lpleas	1pleas	conawa_CS1_US2_confidence	conawa1_nomask	8	3	0	0	300	300	0	0	5653	guess	1	-70,4427083333333285964pct	retten	ehrlich	tolerant	fair	helfen	schlau	rächen	eitel	tyrannisch	faul	hindern	schroff	treu	freundlich	spielen	schön	loyal	lachen	tot	fanatisch	strafen	schlecht	lasch	leiden	0	0	0	0	0	0	0	0	0	0	0	0	0	0	0	0	0	0	0	0	0	0	0	0	0	0	0	0	0	0
2024-05-15	10:03:11	10:15:17	725208	6.6.1	4_exp_EVA_AWA_CON	30	B	A	Rpleas_acq	Oppo	Lpleas	1pleas	conawa_CS2_US5	conawa1_nomask	8	4	0	0	300	300	0	0	4638	lachen	1	-70,4427083333333285964pct	retten	ehrlich	tolerant	fair	helfen	schlau	rächen	eitel	tyrannisch	faul	hindern	schroff	treu	freundlich	spielen	schön	loyal	lachen	tot	fanatisch	strafen	schlecht	lasch	leiden	0	0	0	0	0	0	0	0	0	0	0	0	0	0	0	0	0	0	0	0	0	0	0	0	0	0	0	0	0	0
2024-05-15	10:03:11	10:15:17	725210	6.6.1	4_exp_EVA_AWA_CON	30	B	A	Rpleas_acq	Oppo	Lpleas	1pleas	conawa_CS2_US5_confidence	conawa1_nomask	8	4	0	0	300	300	0	0	4638	guess	1	-70,4427083333333285964pct	retten	ehrlich	tolerant	fair	helfen	schlau	rächen	eitel	tyrannisch	faul	hindern	schroff	treu	freundlich	spielen	schön	loyal	lachen	tot	fanatisch	strafen	schlecht	lasch	leiden	0	0	0	0	0	0	0	0	0	0	0	0	0	0	0	0	0	0	0	0	0	0	0	0	0	0	0	0	0	0
2024-05-15	10:03:11	10:15:23	730932	6.6.1	4_exp_EVA_AWA_CON	30	B	A	Rpleas_acq	Oppo	Lpleas	1pleas	conawa_CS1_US5	conawa1_nomask	8	5	0	0	300	300	0	0	5113	loyal	1	-70,4427083333333285964pct	retten	ehrlich	tolerant	fair	helfen	schlau	rächen	eitel	tyrannisch	faul	hindern	schroff	treu	freundlich	spielen	schön	loyal	lachen	tot	fanatisch	strafen	schlecht	lasch	leiden	0	0	0	0	0	0	0	0	0	0	0	0	0	0	0	0	0	0	0	0	0	0	0	0	0	0	0	0	0	0
2024-05-15	10:03:11	10:15:23	730933	6.6.1	4_exp_EVA_AWA_CON	30	B	A	Rpleas_acq	Oppo	Lpleas	1pleas	conawa_CS1_US5_confidence	conawa1_nomask	8	5	0	0	300	300	0	0	5113	guess	1	-70,4427083333333285964pct	retten	ehrlich	tolerant	fair	helfen	schlau	rächen	eitel	tyrannisch	faul	hindern	schroff	treu	freundlich	spielen	schön	loyal	lachen	tot	fanatisch	strafen	schlecht	lasch	leiden	0	0	0	0	0	0	0	0	0	0	0	0	0	0	0	0	0	0	0	0	0	0	0	0	0	0	0	0	0	0
2024-05-15	10:03:11	10:15:31	738546	6.6.1	4_exp_EVA_AWA_CON	30	B	A	Rpleas_acq	Oppo	Lpleas	1pleas	conawa_CS1_US1	conawa1_nomask	8	6	0	0	300	300	0	0	7003	retten	1	-70,4427083333333285964pct	retten	ehrlich	tolerant	fair	helfen	schlau	rächen	eitel	tyrannisch	faul	hindern	schroff	treu	freundlich	spielen	schön	loyal	lachen	tot	fanatisch	strafen	schlecht	lasch	leiden	0	0	0	0	0	0	0	0	0	0	0	0	0	0	0	0	0	0	0	0	0	0	0	0	0	0	0	0	0	0
2024-05-15	10:03:11	10:15:31	738548	6.6.1	4_exp_EVA_AWA_CON	30	B	A	Rpleas_acq	Oppo	Lpleas	1pleas	conawa_CS1_US1_confidence	conawa1_nomask	8	6	0	0	300	300	0	0	7003	guess	1	-70,4427083333333285964pct	retten	ehrlich	tolerant	fair	helfen	schlau	rächen	eitel	tyrannisch	faul	hindern	schroff	treu	freundlich	spielen	schön	loyal	lachen	tot	fanatisch	strafen	schlecht	lasch	leiden	0	0	0	0	0	0	0	0	0	0	0	0	0	0	0	0	0	0	0	0	0	0	0	0	0	0	0	0	0	0
2024-05-15	10:03:11	10:15:36	743810	6.6.1	4_exp_EVA_AWA_CON	30	B	A	Rpleas_acq	Oppo	Lpleas	1pleas	conawa_CS1_US3	conawa1_nomask	8	7	0	0	300	300	0	0	4644	tyrannisch	1	-70,4427083333333285964pct	retten	ehrlich	tolerant	fair	helfen	schlau	rächen	eitel	tyrannisch	faul	hindern	schroff	treu	freundlich	spielen	schön	loyal	lachen	tot	fanatisch	strafen	schlecht	lasch	leiden	0	0	0	0	0	0	0	0	0	0	0	0	0	0	0	0	0	0	0	0	0	0	0	0	0	0	0	0	0	0
2024-05-15	10:03:11	10:15:36	743811	6.6.1	4_exp_EVA_AWA_CON	30	B	A	Rpleas_acq	Oppo	Lpleas	1pleas	conawa_CS1_US3_confidence	conawa1_nomask	8	7	0	0	300	300	0	0	4644	guess	1	-70,4427083333333285964pct	retten	ehrlich	tolerant	fair	helfen	schlau	rächen	eitel	tyrannisch	faul	hindern	schroff	treu	freundlich	spielen	schön	loyal	lachen	tot	fanatisch	strafen	schlecht	lasch	leiden	0	0	0	0	0	0	0	0	0	0	0	0	0	0	0	0	0	0	0	0	0	0	0	0	0	0	0	0	0	0
2024-05-15	10:03:11	10:15:41	748843	6.6.1	4_exp_EVA_AWA_CON	30	B	A	Rpleas_acq	Oppo	Lpleas	1pleas	conawa_CS2_US4	conawa1_nomask	8	8	0	0	300	300	0	0	4422	faul	1	-70,4427083333333285964pct	retten	ehrlich	tolerant	fair	helfen	schlau	rächen	eitel	tyrannisch	faul	hindern	schroff	treu	freundlich	spielen	schön	loyal	lachen	tot	fanatisch	strafen	schlecht	lasch	leiden	0	0	0	0	0	0	0	0	0	0	0	0	0	0	0	0	0	0	0	0	0	0	0	0	0	0	0	0	0	0
2024-05-15	10:03:11	10:15:41	748845	6.6.1	4_exp_EVA_AWA_CON	30	B	A	Rpleas_acq	Oppo	Lpleas	1pleas	conawa_CS2_US4_confidence	conawa1_nomask	8	8	0	0	300	300	0	0	4422	guess	1	-70,4427083333333285964pct	retten	ehrlich	tolerant	fair	helfen	schlau	rächen	eitel	tyrannisch	faul	hindern	schroff	treu	freundlich	spielen	schön	loyal	lachen	tot	fanatisch	strafen	schlecht	lasch	leiden	0	0	0	0	0	0	0	0	0	0	0	0	0	0	0	0	0	0	0	0	0	0	0	0	0	0	0	0	0	0
2024-05-15	10:03:11	10:15:47	754467	6.6.1	4_exp_EVA_AWA_CON	30	B	A	Rpleas_acq	Oppo	Lpleas	1pleas	conawa_CS1_US4	conawa1_nomask	8	9	0	0	300	300	0	0	5004	faul	1	-70,4427083333333285964pct	retten	ehrlich	tolerant	fair	helfen	schlau	rächen	eitel	tyrannisch	faul	hindern	schroff	treu	freundlich	spielen	schön	loyal	lachen	tot	fanatisch	strafen	schlecht	lasch	leiden	0	0	0	0	0	0	0	0	0	0	0	0	0	0	0	0	0	0	0	0	0	0	0	0	0	0	0	0	0	0
2024-05-15	10:03:11	10:15:47	754469	6.6.1	4_exp_EVA_AWA_CON	30	B	A	Rpleas_acq	Oppo	Lpleas	1pleas	conawa_CS1_US4_confidence	conawa1_nomask	8	9	0	0	300	300	0	0	5004	guess	1	-70,4427083333333285964pct	retten	ehrlich	tolerant	fair	helfen	schlau	rächen	eitel	tyrannisch	faul	hindern	schroff	treu	freundlich	spielen	schön	loyal	lachen	tot	fanatisch	strafen	schlecht	lasch	leiden	0	0	0	0	0	0	0	0	0	0	0	0	0	0	0	0	0	0	0	0	0	0	0	0	0	0	0	0	0	0
2024-05-15	10:03:11	10:15:53	761022	6.6.1	4_exp_EVA_AWA_CON	30	B	A	Rpleas_acq	Oppo	Lpleas	1pleas	conawa_CS2_US1	conawa1_nomask	8	10	0	0	300	300	0	0	5940	fanatisch	1	-70,4427083333333285964pct	retten	ehrlich	tolerant	fair	helfen	schlau	rächen	eitel	tyrannisch	faul	hindern	schroff	treu	freundlich	spielen	schön	loyal	lachen	tot	fanatisch	strafen	schlecht	lasch	leiden	0	0	0	0	0	0	0	0	0	0	0	0	0	0	0	0	0	0	0	0	0	0	0	0	0	0	0	0	0	0
2024-05-15	10:03:11	10:15:53	761023	6.6.1	4_exp_EVA_AWA_CON	30	B	A	Rpleas_acq	Oppo	Lpleas	1pleas	conawa_CS2_US1_confidence	conawa1_nomask	8	10	0	0	300	300	0	0	5940	guess	1	-70,4427083333333285964pct	retten	ehrlich	tolerant	fair	helfen	schlau	rächen	eitel	tyrannisch	faul	hindern	schroff	treu	freundlich	spielen	schön	loyal	lachen	tot	fanatisch	strafen	schlecht	lasch	leiden	0	0	0	0	0	0	0	0	0	0	0	0	0	0	0	0	0	0	0	0	0	0	0	0	0	0	0	0	0	0
2024-05-15	10:03:11	10:15:57	764803	6.6.1	4_exp_EVA_AWA_CON	30	B	A	Rpleas_acq	Oppo	Lpleas	1pleas	conawa_CS2_US6	conawa1_nomask	8	11	0	0	300	300	0	0	3163	tot	1	-70,4427083333333285964pct	retten	ehrlich	tolerant	fair	helfen	schlau	rächen	eitel	tyrannisch	faul	hindern	schroff	treu	freundlich	spielen	schön	loyal	lachen	tot	fanatisch	strafen	schlecht	lasch	leiden	0	0	0	0	0	0	0	0	0	0	0	0	0	0	0	0	0	0	0	0	0	0	0	0	0	0	0	0	0	0
2024-05-15	10:03:11	10:15:57	764805	6.6.1	4_exp_EVA_AWA_CON	30	B	A	Rpleas_acq	Oppo	Lpleas	1pleas	conawa_CS2_US6_confidence	conawa1_nomask	8	11	0	0	300	300	0	0	3163	guess	1	-70,4427083333333285964pct	retten	ehrlich	tolerant	fair	helfen	schlau	rächen	eitel	tyrannisch	faul	hindern	schroff	treu	freundlich	spielen	schön	loyal	lachen	tot	fanatisch	strafen	schlecht	lasch	leiden	0	0	0	0	0	0	0	0	0	0	0	0	0	0	0	0	0	0	0	0	0	0	0	0	0	0	0	0	0	0
2024-05-15	10:03:11	10:16:01	769047	6.6.1	4_exp_EVA_AWA_CON	30	B	A	Rpleas_acq	Oppo	Lpleas	1pleas	conawa_CS1_US6	conawa1_nomask	8	12	0	0	300	300	0	0	3629	schroff	1	-70,4427083333333285964pct	retten	ehrlich	tolerant	fair	helfen	schlau	rächen	eitel	tyrannisch	faul	hindern	schroff	treu	freundlich	spielen	schön	loyal	lachen	tot	fanatisch	strafen	schlecht	lasch	leiden	0	0	0	0	0	0	0	0	0	0	0	0	0	0	0	0	0	0	0	0	0	0	0	0	0	0	0	0	0	0
2024-05-15	10:03:11	10:16:01	769049	6.6.1	4_exp_EVA_AWA_CON	30	B	A	Rpleas_acq	Oppo	Lpleas	1pleas	conawa_CS1_US6_confidence	conawa1_nomask	8	12	0	0	300	300	0	0	3629	guess	1	-70,4427083333333285964pct	retten	ehrlich	tolerant	fair	helfen	schlau	rächen	eitel	tyrannisch	faul	hindern	schroff	treu	freundlich	spielen	schön	loyal	lachen	tot	fanatisch	strafen	schlecht	lasch	leiden	0	0	0	0	0	0	0	0	0	0	0	0	0	0	0	0	0	0	0	0	0	0	0	0	0	0	0	0	0	0
2024-05-15	10:03:11	10:17:31	859034	6.6.1	4_exp_EVA_AWA_CON	30	B	A	Rpleas_acq	Oppo	Lpleas	1pleas	cond_US_pleas_123_nomask_CS1	condtest_nomask_1	11	1	400	0	300	300	0	0	1148	46	1	-70,4427083333333285964pct	retten	ehrlich	tolerant	fair	helfen	schlau	rächen	eitel	tyrannisch	faul	hindern	schroff	treu	freundlich	spielen	schön	loyal	lachen	tot	fanatisch	strafen	schlecht	lasch	leiden	1	blank2r.bmp	0	1	+	0	1	blank2r.bmp	500	1	BMVZ	500	1	blank2r.bmp	880	3	tolerant	880	1	!	1233	1	!	-1	0	0	0	0	0	0
2024-05-15	10:03:11	10:17:34	861473	6.6.1	4_exp_EVA_AWA_CON	30	B	A	Rpleas_acq	Oppo	Lpleas	1pleas	cond_new_unple_456_nomask_CS1	condtest_nomask_1	11	2	400	0	300	300	0	0	667	50	1	-70,4427083333333285964pct	retten	ehrlich	tolerant	fair	helfen	schlau	rächen	eitel	tyrannisch	faul	hindern	schroff	treu	freundlich	spielen	schön	loyal	lachen	tot	fanatisch	strafen	schlecht	lasch	leiden	1	blank2r.bmp	0	1	+	0	1	blank2r.bmp	500	1	BMVZ	500	1	blank2r.bmp	880	1	schlecht	880	1	!	1233	1	!	-1	0	0	0	0	0	0
2024-05-15	10:03:11	10:17:37	864433	6.6.1	4_exp_EVA_AWA_CON	30	B	A	Rpleas_acq	Oppo	Lpleas	1pleas	cond_US_unple_123_nomask_CS2	condtest_nomask_1	11	3	400	0	300	300	0	0	1185	46	0	-70,4427083333333285964pct	retten	ehrlich	tolerant	fair	helfen	schlau	rächen	eitel	tyrannisch	faul	hindern	schroff	treu	freundlich	spielen	schön	loyal	lachen	tot	fanatisch	strafen	schlecht	lasch	leiden	1	blank2r.bmp	0	1	+	0	1	blank2r.bmp	500	1	GKQX	500	1	blank2r.bmp	880	2	rächen	880	1	!	1233	1	!	-1	0	0	0	0	0	0
2024-05-15	10:03:11	10:17:39	867002	6.6.1	4_exp_EVA_AWA_CON	30	B	A	Rpleas_acq	Oppo	Lpleas	1pleas	cond_US_unple_123_nomask_CS1	condtest_nomask_1	11	4	400	0	300	300	0	0	791	50	1	-70,4427083333333285964pct	retten	ehrlich	tolerant	fair	helfen	schlau	rächen	eitel	tyrannisch	faul	hindern	schroff	treu	freundlich	spielen	schön	loyal	lachen	tot	fanatisch	strafen	schlecht	lasch	leiden	1	blank2r.bmp	0	1	+	0	1	blank2r.bmp	500	1	BMVZ	500	1	blank2r.bmp	880	1	rächen	880	1	!	1233	1	!	-1	0	0	0	0	0	0
2024-05-15	10:03:11	10:17:42	869610	6.6.1	4_exp_EVA_AWA_CON	30	B	A	Rpleas_acq	Oppo	Lpleas	1pleas	cond_new_pleas_456_nomask_CS2	condtest_nomask_1	11	5	400	0	300	300	0	0	827	46	1	-70,4427083333333285964pct	retten	ehrlich	tolerant	fair	helfen	schlau	rächen	eitel	tyrannisch	faul	hindern	schroff	treu	freundlich	spielen	schön	loyal	lachen	tot	fanatisch	strafen	schlecht	lasch	leiden	1	blank2r.bmp	0	1	+	0	1	blank2r.bmp	500	1	GKQX	500	1	blank2r.bmp	880	3	loyal	880	1	!	1233	1	!	-1	0	0	0	0	0	0
2024-05-15	10:03:11	10:17:44	871962	6.6.1	4_exp_EVA_AWA_CON	30	B	A	Rpleas_acq	Oppo	Lpleas	1pleas	cond_US_pleas_123_nomask_CS2	condtest_nomask_1	11	6	400	0	300	300	0	0	578	50	0	-70,4427083333333285964pct	retten	ehrlich	tolerant	fair	helfen	schlau	rächen	eitel	tyrannisch	faul	hindern	schroff	treu	freundlich	spielen	schön	loyal	lachen	tot	fanatisch	strafen	schlecht	lasch	leiden	1	blank2r.bmp	0	1	+	0	1	blank2r.bmp	500	1	GKQX	500	1	blank2r.bmp	880	2	retten	880	1	!	1232	1	!	-1	0	0	0	0	0	0
2024-05-15	10:03:11	10:17:47	874386	6.6.1	4_exp_EVA_AWA_CON	30	B	A	Rpleas_acq	Oppo	Lpleas	1pleas	cond_new_pleas_456_nomask_CS1	condtest_nomask_1	11	7	400	0	300	300	0	0	650	46	1	-70,4427083333333285964pct	retten	ehrlich	tolerant	fair	helfen	schlau	rächen	eitel	tyrannisch	faul	hindern	schroff	treu	freundlich	spielen	schön	loyal	lachen	tot	fanatisch	strafen	schlecht	lasch	leiden	1	blank2r.bmp	0	1	+	0	1	blank2r.bmp	500	1	BMVZ	500	1	blank2r.bmp	880	2	loyal	880	1	!	1233	1	!	-1	0	0	0	0	0	0
2024-05-15	10:03:11	10:17:49	876874	6.6.1	4_exp_EVA_AWA_CON	30	B	A	Rpleas_acq	Oppo	Lpleas	1pleas	cond_new_unple_456_nomask_CS2	condtest_nomask_1	11	8	400	0	300	300	0	0	707	50	1	-70,4427083333333285964pct	retten	ehrlich	tolerant	fair	helfen	schlau	rächen	eitel	tyrannisch	faul	hindern	schroff	treu	freundlich	spielen	schön	loyal	lachen	tot	fanatisch	strafen	schlecht	lasch	leiden	1	blank2r.bmp	0	1	+	0	1	blank2r.bmp	500	1	GKQX	500	1	blank2r.bmp	880	2	schlecht	880	1	!	1233	1	!	-1	0	0	0	0	0	0
2024-05-15	10:03:11	10:18:03	890450	6.6.1	4_exp_EVA_AWA_CON	30	B	A	Rpleas_acq	Oppo	Lpleas	1pleas	cond_new_pleas_456_nomask_CS2	condtest_nomask_2	12	1	400	0	300	300	0	0	734	46	1	-70,4427083333333285964pct	retten	ehrlich	tolerant	fair	helfen	schlau	rächen	eitel	tyrannisch	faul	hindern	schroff	treu	freundlich	spielen	schön	loyal	lachen	tot	fanatisch	strafen	schlecht	lasch	leiden	1	blank2r.bmp	0	1	+	0	1	blank2r.bmp	500	1	GKQX	500	1	blank2r.bmp	880	1	lachen	880	1	!	1233	1	!	-1	0	0	0	0	0	0
