date	time	currenttime	elapsedtime	build	currentexpt	subject	CS_AB	US_AB	LRpleas_acq	SameOppo	condition_Lpleas	condition_1pleas	trialcode	blockcode	blocknum	trialnum	windowcenter	inwindow	pretrialpause	posttrialpause	trialduration	trialtimeout	latency	response	correct	correctedscore	US_nomask_pleas1	US_nomask_pleas2	US_nomask_pleas3	US_nomask_pleas4	US_nomask_pleas5	US_nomask_pleas6	US_nomask_unple1	US_nomask_unple2	US_nomask_unple3	US_nomask_unple4	US_nomask_unple5	US_nomask_unple6	new_nomask_pleas1	new_nomask_pleas2	new_nomask_pleas3	new_nomask_pleas4	new_nomask_pleas5	new_nomask_pleas6	new_nomask_unple1	new_nomask_unple2	new_nomask_unple3	new_nomask_unple4	new_nomask_unple5	new_nomask_unple6	stimulusnumber1	stimulusitem1	stimulusonset1	stimulusnumber2	stimulusitem2	stimulusonset2	stimulusnumber3	stimulusitem3	stimulusonset3	stimulusnumber4	stimulusitem4	stimulusonset4	stimulusnumber5	stimulusitem5	stimulusonset5	stimulusnumber6	stimulusitem6	stimulusonset6	stimulusnumber7	stimulusitem7	stimulusonset7	stimulusnumber8	stimulusitem8	stimulusonset8	stimulusnumber9	stimulusitem9	stimulusonset9	stimulusnumber10	stimulusitem10	stimulusonset10
2024-06-05	11:36:52	11:39:51	178332	6.6.1	4_exp_EVA_AWA_CON	66	A	B	Rpleas_acq	Oppo	Rpleas	1pleas	acq_new_unple_nomask	acq1_nomask	1	1	0	0	300	300	0	0	2102	46	1	0	vergnügt	vertrauen	sonnig	träumen	besonnen	gesittet	verbissen	versagen	sterben	töten	bange	geizig	kuss	anregung	genießen	engagiert	gütig	kreativ	krise	ausrottung	gemein	engstirnig	gierig	krank	1	blank2r.bmp	0	1	+	0	1	blank2r.bmp	500	8	C4r.bmp	500	1	blank2r.bmp	880	2	ausrottung	880	0	0	0	0	0	0	0	0	0	0	0	0
2024-06-05	11:36:52	11:39:54	181067	6.6.1	4_exp_EVA_AWA_CON	66	A	B	Rpleas_acq	Oppo	Rpleas	1pleas	acq_new_unple_nomask	acq1_nomask	1	2	0	0	300	300	0	0	1255	46	1	0	vergnügt	vertrauen	sonnig	träumen	besonnen	gesittet	verbissen	versagen	sterben	töten	bange	geizig	kuss	anregung	genießen	engagiert	gütig	kreativ	krise	ausrottung	gemein	engstirnig	gierig	krank	1	blank2r.bmp	0	1	+	0	1	blank2r.bmp	500	1	B1r.bmp	500	1	blank2r.bmp	880	4	engstirnig	880	0	0	0	0	0	0	0	0	0	0	0	0
2024-06-05	11:36:52	11:39:56	183355	6.6.1	4_exp_EVA_AWA_CON	66	A	B	Rpleas_acq	Oppo	Rpleas	1pleas	acq_US_pleas_nomask	acq1_nomask	1	3	0	0	300	300	0	0	801	50	1	0	vergnügt	vertrauen	sonnig	träumen	besonnen	gesittet	verbissen	versagen	sterben	töten	bange	geizig	kuss	anregung	genießen	engagiert	gütig	kreativ	krise	ausrottung	gemein	engstirnig	gierig	krank	1	blank2r.bmp	0	1	+	0	1	blank2r.bmp	500	1	CPLW	500	1	blank2r.bmp	880	1	vergnügt	880	0	0	0	0	0	0	0	0	0	0	0	0
2024-06-05	11:36:52	11:39:58	185795	6.6.1	4_exp_EVA_AWA_CON	66	A	B	Rpleas_acq	Oppo	Rpleas	1pleas	acq_new_pleas_nomask	acq1_nomask	1	4	0	0	300	300	0	0	960	50	1	0	vergnügt	vertrauen	sonnig	träumen	besonnen	gesittet	verbissen	versagen	sterben	töten	bange	geizig	kuss	anregung	genießen	engagiert	gütig	kreativ	krise	ausrottung	gemein	engstirnig	gierig	krank	1	blank2r.bmp	0	1	+	0	1	blank2r.bmp	500	5	C1r.bmp	500	1	blank2r.bmp	880	2	anregung	880	0	0	0	0	0	0	0	0	0	0	0	0
2024-06-05	11:36:52	11:40:00	187819	6.6.1	4_exp_EVA_AWA_CON	66	A	B	Rpleas_acq	Oppo	Rpleas	1pleas	acq_new_unple_nomask	acq1_nomask	1	5	0	0	300	300	0	0	542	46	1	0	vergnügt	vertrauen	sonnig	träumen	besonnen	gesittet	verbissen	versagen	sterben	töten	bange	geizig	kuss	anregung	genießen	engagiert	gütig	kreativ	krise	ausrottung	gemein	engstirnig	gierig	krank	1	blank2r.bmp	0	1	+	0	1	blank2r.bmp	500	7	C3r.bmp	500	1	blank2r.bmp	880	6	krank	880	0	0	0	0	0	0	0	0	0	0	0	0
2024-06-05	11:36:52	11:40:03	190436	6.6.1	4_exp_EVA_AWA_CON	66	A	B	Rpleas_acq	Oppo	Rpleas	1pleas	acq_new_pleas_nomask	acq1_nomask	1	6	0	0	300	300	0	0	927	46	0	0	vergnügt	vertrauen	sonnig	träumen	besonnen	gesittet	verbissen	versagen	sterben	töten	bange	geizig	kuss	anregung	genießen	engagiert	gütig	kreativ	krise	ausrottung	gemein	engstirnig	gierig	krank	1	blank2r.bmp	0	1	+	0	1	blank2r.bmp	500	2	B2r.bmp	500	1	blank2r.bmp	880	3	genießen	880	1	FEHLER	1828	0	0	0	0	0	0	0	0	0
2024-06-05	11:36:52	11:40:05	192571	6.6.1	4_exp_EVA_AWA_CON	66	A	B	Rpleas_acq	Oppo	Rpleas	1pleas	acq_US_unple_nomask	acq1_nomask	1	7	0	0	300	300	0	0	852	46	1	0	vergnügt	vertrauen	sonnig	träumen	besonnen	gesittet	verbissen	versagen	sterben	töten	bange	geizig	kuss	anregung	genießen	engagiert	gütig	kreativ	krise	ausrottung	gemein	engstirnig	gierig	krank	1	blank2r.bmp	0	1	+	0	1	blank2r.bmp	500	1	DHJF	500	1	blank2r.bmp	880	6	geizig	880	0	0	0	0	0	0	0	0	0	0	0	0
2024-06-05	11:36:52	11:40:08	194915	6.6.1	4_exp_EVA_AWA_CON	66	A	B	Rpleas_acq	Oppo	Rpleas	1pleas	acq_US_unple_nomask	acq1_nomask	1	8	0	0	300	300	0	0	864	46	1	0	vergnügt	vertrauen	sonnig	träumen	besonnen	gesittet	verbissen	versagen	sterben	töten	bange	geizig	kuss	anregung	genießen	engagiert	gütig	kreativ	krise	ausrottung	gemein	engstirnig	gierig	krank	1	blank2r.bmp	0	1	+	0	1	blank2r.bmp	500	1	DHJF	500	1	blank2r.bmp	880	3	sterben	880	0	0	0	0	0	0	0	0	0	0	0	0
2024-06-05	11:36:52	11:40:10	197211	6.6.1	4_exp_EVA_AWA_CON	66	A	B	Rpleas_acq	Oppo	Rpleas	1pleas	acq_US_pleas_nomask	acq1_nomask	1	9	0	0	300	300	0	0	809	50	1	0	vergnügt	vertrauen	sonnig	träumen	besonnen	gesittet	verbissen	versagen	sterben	töten	bange	geizig	kuss	anregung	genießen	engagiert	gütig	kreativ	krise	ausrottung	gemein	engstirnig	gierig	krank	1	blank2r.bmp	0	1	+	0	1	blank2r.bmp	500	1	CPLW	500	1	blank2r.bmp	880	4	träumen	880	0	0	0	0	0	0	0	0	0	0	0	0
2024-06-05	11:36:52	11:40:12	199396	6.6.1	4_exp_EVA_AWA_CON	66	A	B	Rpleas_acq	Oppo	Rpleas	1pleas	acq_new_pleas_nomask	acq1_nomask	1	10	0	0	300	300	0	0	701	50	1	0	vergnügt	vertrauen	sonnig	träumen	besonnen	gesittet	verbissen	versagen	sterben	töten	bange	geizig	kuss	anregung	genießen	engagiert	gütig	kreativ	krise	ausrottung	gemein	engstirnig	gierig	krank	1	blank2r.bmp	0	1	+	0	1	blank2r.bmp	500	3	B3r.bmp	500	1	blank2r.bmp	880	6	kreativ	880	0	0	0	0	0	0	0	0	0	0	0	0
2024-06-05	11:36:52	11:40:14	201683	6.6.1	4_exp_EVA_AWA_CON	66	A	B	Rpleas_acq	Oppo	Rpleas	1pleas	acq_US_unple_nomask	acq1_nomask	1	11	0	0	300	300	0	0	808	46	1	0	vergnügt	vertrauen	sonnig	träumen	besonnen	gesittet	verbissen	versagen	sterben	töten	bange	geizig	kuss	anregung	genießen	engagiert	gütig	kreativ	krise	ausrottung	gemein	engstirnig	gierig	krank	1	blank2r.bmp	0	1	+	0	1	blank2r.bmp	500	1	DHJF	500	1	blank2r.bmp	880	2	versagen	880	0	0	0	0	0	0	0	0	0	0	0	0
2024-06-05	11:36:52	11:40:17	204028	6.6.1	4_exp_EVA_AWA_CON	66	A	B	Rpleas_acq	Oppo	Rpleas	1pleas	acq_US_pleas_nomask	acq1_nomask	1	12	0	0	300	300	0	0	860	50	1	0	vergnügt	vertrauen	sonnig	träumen	besonnen	gesittet	verbissen	versagen	sterben	töten	bange	geizig	kuss	anregung	genießen	engagiert	gütig	kreativ	krise	ausrottung	gemein	engstirnig	gierig	krank	1	blank2r.bmp	0	1	+	0	1	blank2r.bmp	500	1	CPLW	500	1	blank2r.bmp	880	6	gesittet	880	0	0	0	0	0	0	0	0	0	0	0	0
2024-06-05	11:36:52	11:40:19	206411	6.6.1	4_exp_EVA_AWA_CON	66	A	B	Rpleas_acq	Oppo	Rpleas	1pleas	acq_new_unple_nomask	acq1_nomask	1	13	0	0	300	300	0	0	903	46	1	0	vergnügt	vertrauen	sonnig	träumen	besonnen	gesittet	verbissen	versagen	sterben	töten	bange	geizig	kuss	anregung	genießen	engagiert	gütig	kreativ	krise	ausrottung	gemein	engstirnig	gierig	krank	1	blank2r.bmp	0	1	+	0	1	blank2r.bmp	500	4	B4r.bmp	500	1	blank2r.bmp	880	3	gemein	880	0	0	0	0	0	0	0	0	0	0	0	0
2024-06-05	11:36:52	11:40:22	208859	6.6.1	4_exp_EVA_AWA_CON	66	A	B	Rpleas_acq	Oppo	Rpleas	1pleas	acq_new_pleas_nomask	acq1_nomask	1	14	0	0	300	300	0	0	959	50	1	0	vergnügt	vertrauen	sonnig	träumen	besonnen	gesittet	verbissen	versagen	sterben	töten	bange	geizig	kuss	anregung	genießen	engagiert	gütig	kreativ	krise	ausrottung	gemein	engstirnig	gierig	krank	1	blank2r.bmp	0	1	+	0	1	blank2r.bmp	500	6	C2r.bmp	500	1	blank2r.bmp	880	4	engagiert	880	0	0	0	0	0	0	0	0	0	0	0	0
2024-06-05	11:36:52	11:40:24	211091	6.6.1	4_exp_EVA_AWA_CON	66	A	B	Rpleas_acq	Oppo	Rpleas	1pleas	acq_US_unple_nomask	acq1_nomask	1	15	0	0	300	300	0	0	750	46	1	0	vergnügt	vertrauen	sonnig	träumen	besonnen	gesittet	verbissen	versagen	sterben	töten	bange	geizig	kuss	anregung	genießen	engagiert	gütig	kreativ	krise	ausrottung	gemein	engstirnig	gierig	krank	1	blank2r.bmp	0	1	+	0	1	blank2r.bmp	500	1	DHJF	500	1	blank2r.bmp	880	4	töten	880	0	0	0	0	0	0	0	0	0	0	0	0
2024-06-05	11:36:52	11:40:26	213411	6.6.1	4_exp_EVA_AWA_CON	66	A	B	Rpleas_acq	Oppo	Rpleas	1pleas	acq_US_pleas_nomask	acq1_nomask	1	16	0	0	300	300	0	0	838	50	1	0	vergnügt	vertrauen	sonnig	träumen	besonnen	gesittet	verbissen	versagen	sterben	töten	bange	geizig	kuss	anregung	genießen	engagiert	gütig	kreativ	krise	ausrottung	gemein	engstirnig	gierig	krank	1	blank2r.bmp	0	1	+	0	1	blank2r.bmp	500	1	CPLW	500	1	blank2r.bmp	880	5	besonnen	880	0	0	0	0	0	0	0	0	0	0	0	0
2024-06-05	11:36:52	11:40:29	216099	6.6.1	4_exp_EVA_AWA_CON	66	A	B	Rpleas_acq	Oppo	Rpleas	1pleas	acq_US_unple_nomask	acq1_nomask	1	17	0	0	300	300	0	0	1205	46	1	0	vergnügt	vertrauen	sonnig	träumen	besonnen	gesittet	verbissen	versagen	sterben	töten	bange	geizig	kuss	anregung	genießen	engagiert	gütig	kreativ	krise	ausrottung	gemein	engstirnig	gierig	krank	1	blank2r.bmp	0	1	+	0	1	blank2r.bmp	500	1	DHJF	500	1	blank2r.bmp	880	5	bange	880	0	0	0	0	0	0	0	0	0	0	0	0
2024-06-05	11:36:52	11:40:31	218275	6.6.1	4_exp_EVA_AWA_CON	66	A	B	Rpleas_acq	Oppo	Rpleas	1pleas	acq_new_pleas_nomask	acq1_nomask	1	18	0	0	300	300	0	0	689	50	1	0	vergnügt	vertrauen	sonnig	träumen	besonnen	gesittet	verbissen	versagen	sterben	töten	bange	geizig	kuss	anregung	genießen	engagiert	gütig	kreativ	krise	ausrottung	gemein	engstirnig	gierig	krank	1	blank2r.bmp	0	1	+	0	1	blank2r.bmp	500	1	B1r.bmp	500	1	blank2r.bmp	880	1	kuss	880	0	0	0	0	0	0	0	0	0	0	0	0
2024-06-05	11:36:52	11:40:33	220355	6.6.1	4_exp_EVA_AWA_CON	66	A	B	Rpleas_acq	Oppo	Rpleas	1pleas	acq_new_unple_nomask	acq1_nomask	1	19	0	0	300	300	0	0	598	46	1	0	vergnügt	vertrauen	sonnig	träumen	besonnen	gesittet	verbissen	versagen	sterben	töten	bange	geizig	kuss	anregung	genießen	engagiert	gütig	kreativ	krise	ausrottung	gemein	engstirnig	gierig	krank	1	blank2r.bmp	0	1	+	0	1	blank2r.bmp	500	6	C2r.bmp	500	1	blank2r.bmp	880	5	gierig	880	0	0	0	0	0	0	0	0	0	0	0	0
2024-06-05	11:36:52	11:40:36	222955	6.6.1	4_exp_EVA_AWA_CON	66	A	B	Rpleas_acq	Oppo	Rpleas	1pleas	acq_US_pleas_nomask	acq1_nomask	1	20	0	0	300	300	0	0	1116	50	1	0	vergnügt	vertrauen	sonnig	träumen	besonnen	gesittet	verbissen	versagen	sterben	töten	bange	geizig	kuss	anregung	genießen	engagiert	gütig	kreativ	krise	ausrottung	gemein	engstirnig	gierig	krank	1	blank2r.bmp	0	1	+	0	1	blank2r.bmp	500	1	CPLW	500	1	blank2r.bmp	880	2	vertrauen	880	0	0	0	0	0	0	0	0	0	0	0	0
2024-06-05	11:36:52	11:40:38	225115	6.6.1	4_exp_EVA_AWA_CON	66	A	B	Rpleas_acq	Oppo	Rpleas	1pleas	acq_US_unple_nomask	acq1_nomask	1	21	0	0	300	300	0	0	675	46	1	0	vergnügt	vertrauen	sonnig	träumen	besonnen	gesittet	verbissen	versagen	sterben	töten	bange	geizig	kuss	anregung	genießen	engagiert	gütig	kreativ	krise	ausrottung	gemein	engstirnig	gierig	krank	1	blank2r.bmp	0	1	+	0	1	blank2r.bmp	500	1	DHJF	500	1	blank2r.bmp	880	1	verbissen	880	0	0	0	0	0	0	0	0	0	0	0	0
2024-06-05	11:36:52	11:40:40	227163	6.6.1	4_exp_EVA_AWA_CON	66	A	B	Rpleas_acq	Oppo	Rpleas	1pleas	acq_new_pleas_nomask	acq1_nomask	1	22	0	0	300	300	0	0	561	50	1	0	vergnügt	vertrauen	sonnig	träumen	besonnen	gesittet	verbissen	versagen	sterben	töten	bange	geizig	kuss	anregung	genießen	engagiert	gütig	kreativ	krise	ausrottung	gemein	engstirnig	gierig	krank	1	blank2r.bmp	0	1	+	0	1	blank2r.bmp	500	3	B3r.bmp	500	1	blank2r.bmp	880	5	gütig	880	0	0	0	0	0	0	0	0	0	0	0	0
2024-06-05	11:36:52	11:40:42	229163	6.6.1	4_exp_EVA_AWA_CON	66	A	B	Rpleas_acq	Oppo	Rpleas	1pleas	acq_new_unple_nomask	acq1_nomask	1	23	0	0	300	300	0	0	520	46	1	0	vergnügt	vertrauen	sonnig	träumen	besonnen	gesittet	verbissen	versagen	sterben	töten	bange	geizig	kuss	anregung	genießen	engagiert	gütig	kreativ	krise	ausrottung	gemein	engstirnig	gierig	krank	1	blank2r.bmp	0	1	+	0	1	blank2r.bmp	500	5	C1r.bmp	500	1	blank2r.bmp	880	1	krise	880	0	0	0	0	0	0	0	0	0	0	0	0
2024-06-05	11:36:52	11:40:44	231147	6.6.1	4_exp_EVA_AWA_CON	66	A	B	Rpleas_acq	Oppo	Rpleas	1pleas	acq_US_pleas_nomask	acq1_nomask	1	24	0	0	300	300	0	0	503	50	1	0	vergnügt	vertrauen	sonnig	träumen	besonnen	gesittet	verbissen	versagen	sterben	töten	bange	geizig	kuss	anregung	genießen	engagiert	gütig	kreativ	krise	ausrottung	gemein	engstirnig	gierig	krank	1	blank2r.bmp	0	1	+	0	1	blank2r.bmp	500	1	CPLW	500	1	blank2r.bmp	880	3	sonnig	880	0	0	0	0	0	0	0	0	0	0	0	0
2024-06-05	11:36:52	11:40:46	233331	6.6.1	4_exp_EVA_AWA_CON	66	A	B	Rpleas_acq	Oppo	Rpleas	1pleas	acq_US_pleas_nomask	acq1_nomask	1	25	0	0	300	300	0	0	695	50	1	0	vergnügt	vertrauen	sonnig	träumen	besonnen	gesittet	verbissen	versagen	sterben	töten	bange	geizig	kuss	anregung	genießen	engagiert	gütig	kreativ	krise	ausrottung	gemein	engstirnig	gierig	krank	1	blank2r.bmp	0	1	+	0	1	blank2r.bmp	500	1	CPLW	500	1	blank2r.bmp	880	5	besonnen	880	0	0	0	0	0	0	0	0	0	0	0	0
2024-06-05	11:36:52	11:40:48	235483	6.6.1	4_exp_EVA_AWA_CON	66	A	B	Rpleas_acq	Oppo	Rpleas	1pleas	acq_new_unple_nomask	acq1_nomask	1	26	0	0	300	300	0	0	666	46	1	0	vergnügt	vertrauen	sonnig	träumen	besonnen	gesittet	verbissen	versagen	sterben	töten	bange	geizig	kuss	anregung	genießen	engagiert	gütig	kreativ	krise	ausrottung	gemein	engstirnig	gierig	krank	1	blank2r.bmp	0	1	+	0	1	blank2r.bmp	500	2	B2r.bmp	500	1	blank2r.bmp	880	3	gemein	880	0	0	0	0	0	0	0	0	0	0	0	0
2024-06-05	11:36:52	11:40:50	237580	6.6.1	4_exp_EVA_AWA_CON	66	A	B	Rpleas_acq	Oppo	Rpleas	1pleas	acq_new_pleas_nomask	acq1_nomask	1	27	0	0	300	300	0	0	611	50	1	0	vergnügt	vertrauen	sonnig	träumen	besonnen	gesittet	verbissen	versagen	sterben	töten	bange	geizig	kuss	anregung	genießen	engagiert	gütig	kreativ	krise	ausrottung	gemein	engstirnig	gierig	krank	1	blank2r.bmp	0	1	+	0	1	blank2r.bmp	500	4	B4r.bmp	500	1	blank2r.bmp	880	5	gütig	880	0	0	0	0	0	0	0	0	0	0	0	0
2024-06-05	11:36:52	11:40:52	239731	6.6.1	4_exp_EVA_AWA_CON	66	A	B	Rpleas_acq	Oppo	Rpleas	1pleas	acq_new_pleas_nomask	acq1_nomask	1	28	0	0	300	300	0	0	671	50	1	0	vergnügt	vertrauen	sonnig	träumen	besonnen	gesittet	verbissen	versagen	sterben	töten	bange	geizig	kuss	anregung	genießen	engagiert	gütig	kreativ	krise	ausrottung	gemein	engstirnig	gierig	krank	1	blank2r.bmp	0	1	+	0	1	blank2r.bmp	500	7	C3r.bmp	500	1	blank2r.bmp	880	4	engagiert	880	0	0	0	0	0	0	0	0	0	0	0	0
2024-06-05	11:36:52	11:40:55	241907	6.6.1	4_exp_EVA_AWA_CON	66	A	B	Rpleas_acq	Oppo	Rpleas	1pleas	acq_US_unple_nomask	acq1_nomask	1	29	0	0	300	300	0	0	696	46	1	0	vergnügt	vertrauen	sonnig	träumen	besonnen	gesittet	verbissen	versagen	sterben	töten	bange	geizig	kuss	anregung	genießen	engagiert	gütig	kreativ	krise	ausrottung	gemein	engstirnig	gierig	krank	1	blank2r.bmp	0	1	+	0	1	blank2r.bmp	500	1	DHJF	500	1	blank2r.bmp	880	6	geizig	880	0	0	0	0	0	0	0	0	0	0	0	0
2024-06-05	11:36:52	11:40:57	244195	6.6.1	4_exp_EVA_AWA_CON	66	A	B	Rpleas_acq	Oppo	Rpleas	1pleas	acq_US_unple_nomask	acq1_nomask	1	30	0	0	300	300	0	0	802	46	1	0	vergnügt	vertrauen	sonnig	träumen	besonnen	gesittet	verbissen	versagen	sterben	töten	bange	geizig	kuss	anregung	genießen	engagiert	gütig	kreativ	krise	ausrottung	gemein	engstirnig	gierig	krank	1	blank2r.bmp	0	1	+	0	1	blank2r.bmp	500	1	DHJF	500	1	blank2r.bmp	880	5	bange	880	0	0	0	0	0	0	0	0	0	0	0	0
2024-06-05	11:36:52	11:40:59	246291	6.6.1	4_exp_EVA_AWA_CON	66	A	B	Rpleas_acq	Oppo	Rpleas	1pleas	acq_new_unple_nomask	acq1_nomask	1	31	0	0	300	300	0	0	607	46	1	0	vergnügt	vertrauen	sonnig	träumen	besonnen	gesittet	verbissen	versagen	sterben	töten	bange	geizig	kuss	anregung	genießen	engagiert	gütig	kreativ	krise	ausrottung	gemein	engstirnig	gierig	krank	1	blank2r.bmp	0	1	+	0	1	blank2r.bmp	500	8	C4r.bmp	500	1	blank2r.bmp	880	6	krank	880	0	0	0	0	0	0	0	0	0	0	0	0
2024-06-05	11:36:52	11:41:01	248411	6.6.1	4_exp_EVA_AWA_CON	66	A	B	Rpleas_acq	Oppo	Rpleas	1pleas	acq_new_pleas_nomask	acq1_nomask	1	32	0	0	300	300	0	0	636	50	1	0	vergnügt	vertrauen	sonnig	träumen	besonnen	gesittet	verbissen	versagen	sterben	töten	bange	geizig	kuss	anregung	genießen	engagiert	gütig	kreativ	krise	ausrottung	gemein	engstirnig	gierig	krank	1	blank2r.bmp	0	1	+	0	1	blank2r.bmp	500	4	B4r.bmp	500	1	blank2r.bmp	880	6	kreativ	880	0	0	0	0	0	0	0	0	0	0	0	0
2024-06-05	11:36:52	11:41:03	250755	6.6.1	4_exp_EVA_AWA_CON	66	A	B	Rpleas_acq	Oppo	Rpleas	1pleas	acq_US_pleas_nomask	acq1_nomask	1	33	0	0	300	300	0	0	858	50	1	0	vergnügt	vertrauen	sonnig	träumen	besonnen	gesittet	verbissen	versagen	sterben	töten	bange	geizig	kuss	anregung	genießen	engagiert	gütig	kreativ	krise	ausrottung	gemein	engstirnig	gierig	krank	1	blank2r.bmp	0	1	+	0	1	blank2r.bmp	500	1	CPLW	500	1	blank2r.bmp	880	2	vertrauen	880	0	0	0	0	0	0	0	0	0	0	0	0
2024-06-05	11:36:52	11:41:06	253283	6.6.1	4_exp_EVA_AWA_CON	66	A	B	Rpleas_acq	Oppo	Rpleas	1pleas	acq_new_unple_nomask	acq1_nomask	1	34	0	0	300	300	0	0	1045	46	1	0	vergnügt	vertrauen	sonnig	träumen	besonnen	gesittet	verbissen	versagen	sterben	töten	bange	geizig	kuss	anregung	genießen	engagiert	gütig	kreativ	krise	ausrottung	gemein	engstirnig	gierig	krank	1	blank2r.bmp	0	1	+	0	1	blank2r.bmp	500	1	B1r.bmp	500	1	blank2r.bmp	880	2	ausrottung	880	0	0	0	0	0	0	0	0	0	0	0	0
2024-06-05	11:36:52	11:41:08	255395	6.6.1	4_exp_EVA_AWA_CON	66	A	B	Rpleas_acq	Oppo	Rpleas	1pleas	acq_US_unple_nomask	acq1_nomask	1	35	0	0	300	300	0	0	625	46	1	0	vergnügt	vertrauen	sonnig	träumen	besonnen	gesittet	verbissen	versagen	sterben	töten	bange	geizig	kuss	anregung	genießen	engagiert	gütig	kreativ	krise	ausrottung	gemein	engstirnig	gierig	krank	1	blank2r.bmp	0	1	+	0	1	blank2r.bmp	500	1	DHJF	500	1	blank2r.bmp	880	3	sterben	880	0	0	0	0	0	0	0	0	0	0	0	0
2024-06-05	11:36:52	11:41:10	257475	6.6.1	4_exp_EVA_AWA_CON	66	A	B	Rpleas_acq	Oppo	Rpleas	1pleas	acq_US_pleas_nomask	acq1_nomask	1	36	0	0	300	300	0	0	594	50	1	0	vergnügt	vertrauen	sonnig	träumen	besonnen	gesittet	verbissen	versagen	sterben	töten	bange	geizig	kuss	anregung	genießen	engagiert	gütig	kreativ	krise	ausrottung	gemein	engstirnig	gierig	krank	1	blank2r.bmp	0	1	+	0	1	blank2r.bmp	500	1	CPLW	500	1	blank2r.bmp	880	1	vergnügt	880	0	0	0	0	0	0	0	0	0	0	0	0
2024-06-05	11:36:52	11:42:05	312683	6.6.1	4_exp_EVA_AWA_CON	66	A	B	Rpleas_acq	Oppo	Rpleas	1pleas	acq_new_pleas_nomask	acq2_nomask	2	1	480	0	300	300	0	0	559	50	1	0	vergnügt	vertrauen	sonnig	träumen	besonnen	gesittet	verbissen	versagen	sterben	töten	bange	geizig	kuss	anregung	genießen	engagiert	gütig	kreativ	krise	ausrottung	gemein	engstirnig	gierig	krank	1	blank2r.bmp	0	1	+	0	1	blank2r.bmp	500	3	B3r.bmp	500	1	blank2r.bmp	880	1	kuss	880	1	!	1312	1	!	-1	0	0	0	0	0	0
2024-06-05	11:36:52	11:42:08	315221	6.6.1	4_exp_EVA_AWA_CON	66	A	B	Rpleas_acq	Oppo	Rpleas	1pleas	acq_new_pleas_nomask	acq2_nomask	2	2	480	0	300	300	0	0	763	50	1	0	vergnügt	vertrauen	sonnig	träumen	besonnen	gesittet	verbissen	versagen	sterben	töten	bange	geizig	kuss	anregung	genießen	engagiert	gütig	kreativ	krise	ausrottung	gemein	engstirnig	gierig	krank	1	blank2r.bmp	0	1	+	0	1	blank2r.bmp	500	8	C4r.bmp	500	1	blank2r.bmp	880	3	genießen	880	1	!	1313	1	!	-1	0	0	0	0	0	0
2024-06-05	11:36:52	11:42:10	317629	6.6.1	4_exp_EVA_AWA_CON	66	A	B	Rpleas_acq	Oppo	Rpleas	1pleas	acq_new_pleas_nomask	acq2_nomask	2	3	480	0	300	300	0	0	628	50	1	0	vergnügt	vertrauen	sonnig	träumen	besonnen	gesittet	verbissen	versagen	sterben	töten	bange	geizig	kuss	anregung	genießen	engagiert	gütig	kreativ	krise	ausrottung	gemein	engstirnig	gierig	krank	1	blank2r.bmp	0	1	+	0	1	blank2r.bmp	500	6	C2r.bmp	500	1	blank2r.bmp	880	2	anregung	880	1	!	1312	1	!	-1	0	0	0	0	0	0
2024-06-05	11:36:52	11:42:13	320000	6.6.1	4_exp_EVA_AWA_CON	66	A	B	Rpleas_acq	Oppo	Rpleas	1pleas	acq_US_pleas_nomask	acq2_nomask	2	4	480	0	300	300	0	0	396	46	0	0	vergnügt	vertrauen	sonnig	träumen	besonnen	gesittet	verbissen	versagen	sterben	töten	bange	geizig	kuss	anregung	genießen	engagiert	gütig	kreativ	krise	ausrottung	gemein	engstirnig	gierig	krank	1	blank2r.bmp	0	1	+	0	1	blank2r.bmp	500	1	CPLW	500	1	blank2r.bmp	880	4	träumen	880	1	FEHLER	1589	1	!	-1	1	!	-1	0	0	0
2024-06-05	11:36:52	11:42:15	322272	6.6.1	4_exp_EVA_AWA_CON	66	A	B	Rpleas_acq	Oppo	Rpleas	1pleas	acq_US_pleas_nomask	acq2_nomask	2	5	480	1	300	300	0	0	495	46	0	0	vergnügt	vertrauen	sonnig	träumen	besonnen	gesittet	verbissen	versagen	sterben	töten	bange	geizig	kuss	anregung	genießen	engagiert	gütig	kreativ	krise	ausrottung	gemein	engstirnig	gierig	krank	1	blank2r.bmp	0	1	+	0	1	blank2r.bmp	500	1	CPLW	500	1	blank2r.bmp	880	3	sonnig	880	1	FEHLER	1689	1	!	1312	1	!	1397	0	0	0
2024-06-05	11:36:52	11:42:20	326941	6.6.1	4_exp_EVA_AWA_CON	66	A	B	Rpleas_acq	Oppo	Rpleas	1pleas	acq_US_pleas_nomask	acq2_nomask	2	6	480	0	300	300	0	0	3096	50	1	0	vergnügt	vertrauen	sonnig	träumen	besonnen	gesittet	verbissen	versagen	sterben	töten	bange	geizig	kuss	anregung	genießen	engagiert	gütig	kreativ	krise	ausrottung	gemein	engstirnig	gierig	krank	1	blank2r.bmp	0	1	+	0	1	blank2r.bmp	500	1	CPLW	500	1	blank2r.bmp	880	6	gesittet	880	1	!	1312	1	!	-1	0	0	0	0	0	0
2024-06-05	11:36:52	11:42:22	329437	6.6.1	4_exp_EVA_AWA_CON	66	A	B	Rpleas_acq	Oppo	Rpleas	1pleas	acq_new_unple_nomask	acq2_nomask	2	7	480	0	300	300	0	0	720	46	1	0	vergnügt	vertrauen	sonnig	träumen	besonnen	gesittet	verbissen	versagen	sterben	töten	bange	geizig	kuss	anregung	genießen	engagiert	gütig	kreativ	krise	ausrottung	gemein	engstirnig	gierig	krank	1	blank2r.bmp	0	1	+	0	1	blank2r.bmp	500	5	C1r.bmp	500	1	blank2r.bmp	880	1	krise	880	1	!	1312	1	!	-1	0	0	0	0	0	0
2024-06-05	11:36:52	11:42:25	331953	6.6.1	4_exp_EVA_AWA_CON	66	A	B	Rpleas_acq	Oppo	Rpleas	1pleas	acq_US_unple_nomask	acq2_nomask	2	8	480	1	300	300	0	0	540	50	0	0	vergnügt	vertrauen	sonnig	träumen	besonnen	gesittet	verbissen	versagen	sterben	töten	bange	geizig	kuss	anregung	genießen	engagiert	gütig	kreativ	krise	ausrottung	gemein	engstirnig	gierig	krank	1	blank2r.bmp	0	1	+	0	1	blank2r.bmp	500	1	DHJF	500	1	blank2r.bmp	880	2	versagen	880	1	FEHLER	1734	1	!	1313	1	!	1442	0	0	0
2024-06-05	11:36:52	11:42:28	335589	6.6.1	4_exp_EVA_AWA_CON	66	A	B	Rpleas_acq	Oppo	Rpleas	1pleas	acq_new_unple_nomask	acq2_nomask	2	9	480	0	300	300	0	0	2059	46	1	0	vergnügt	vertrauen	sonnig	träumen	besonnen	gesittet	verbissen	versagen	sterben	töten	bange	geizig	kuss	anregung	genießen	engagiert	gütig	kreativ	krise	ausrottung	gemein	engstirnig	gierig	krank	1	blank2r.bmp	0	1	+	0	1	blank2r.bmp	500	2	B2r.bmp	500	1	blank2r.bmp	880	4	engstirnig	880	1	!	1313	1	!	-1	0	0	0	0	0	0
2024-06-05	11:36:52	11:42:30	337839	6.6.1	4_exp_EVA_AWA_CON	66	A	B	Rpleas_acq	Oppo	Rpleas	1pleas	acq_US_unple_nomask	acq2_nomask	2	10	480	1	300	300	0	0	473	46	1	0	vergnügt	vertrauen	sonnig	träumen	besonnen	gesittet	verbissen	versagen	sterben	töten	bange	geizig	kuss	anregung	genießen	engagiert	gütig	kreativ	krise	ausrottung	gemein	engstirnig	gierig	krank	1	blank2r.bmp	0	1	+	0	1	blank2r.bmp	500	1	DHJF	500	1	blank2r.bmp	880	4	töten	880	1	!	1313	1	!	1375	0	0	0	0	0	0
2024-06-05	11:36:52	11:42:33	340369	6.6.1	4_exp_EVA_AWA_CON	66	A	B	Rpleas_acq	Oppo	Rpleas	1pleas	acq_new_unple_nomask	acq2_nomask	2	11	480	1	300	300	0	0	551	50	0	0	vergnügt	vertrauen	sonnig	träumen	besonnen	gesittet	verbissen	versagen	sterben	töten	bange	geizig	kuss	anregung	genießen	engagiert	gütig	kreativ	krise	ausrottung	gemein	engstirnig	gierig	krank	1	blank2r.bmp	0	1	+	0	1	blank2r.bmp	500	7	C3r.bmp	500	1	blank2r.bmp	880	5	gierig	880	1	FEHLER	1744	1	!	1313	1	!	1452	0	0	0
2024-06-05	11:36:52	11:42:35	342605	6.6.1	4_exp_EVA_AWA_CON	66	A	B	Rpleas_acq	Oppo	Rpleas	1pleas	acq_US_unple_nomask	acq2_nomask	2	12	480	0	300	300	0	0	658	46	1	0	vergnügt	vertrauen	sonnig	träumen	besonnen	gesittet	verbissen	versagen	sterben	töten	bange	geizig	kuss	anregung	genießen	engagiert	gütig	kreativ	krise	ausrottung	gemein	engstirnig	gierig	krank	1	blank2r.bmp	0	1	+	0	1	blank2r.bmp	500	1	DHJF	500	1	blank2r.bmp	880	1	verbissen	880	1	!	1312	1	!	-1	0	0	0	0	0	0
2024-06-05	11:36:52	11:42:38	344957	6.6.1	4_exp_EVA_AWA_CON	66	A	B	Rpleas_acq	Oppo	Rpleas	1pleas	acq_new_pleas_nomask	acq2_nomask	2	13	480	0	300	300	0	0	580	50	1	0	vergnügt	vertrauen	sonnig	träumen	besonnen	gesittet	verbissen	versagen	sterben	töten	bange	geizig	kuss	anregung	genießen	engagiert	gütig	kreativ	krise	ausrottung	gemein	engstirnig	gierig	krank	1	blank2r.bmp	0	1	+	0	1	blank2r.bmp	500	1	B1r.bmp	500	1	blank2r.bmp	880	2	anregung	880	1	!	1313	1	!	-1	0	0	0	0	0	0
2024-06-05	11:36:52	11:42:40	347445	6.6.1	4_exp_EVA_AWA_CON	66	A	B	Rpleas_acq	Oppo	Rpleas	1pleas	acq_new_unple_nomask	acq2_nomask	2	14	480	0	300	300	0	0	706	46	1	0	vergnügt	vertrauen	sonnig	träumen	besonnen	gesittet	verbissen	versagen	sterben	töten	bange	geizig	kuss	anregung	genießen	engagiert	gütig	kreativ	krise	ausrottung	gemein	engstirnig	gierig	krank	1	blank2r.bmp	0	1	+	0	1	blank2r.bmp	500	7	C3r.bmp	500	1	blank2r.bmp	880	4	engstirnig	880	1	!	1312	1	!	-1	0	0	0	0	0	0
2024-06-05	11:36:52	11:42:43	349888	6.6.1	4_exp_EVA_AWA_CON	66	A	B	Rpleas_acq	Oppo	Rpleas	1pleas	acq_US_pleas_nomask	acq2_nomask	2	15	480	1	300	300	0	0	464	46	0	0	vergnügt	vertrauen	sonnig	träumen	besonnen	gesittet	verbissen	versagen	sterben	töten	bange	geizig	kuss	anregung	genießen	engagiert	gütig	kreativ	krise	ausrottung	gemein	engstirnig	gierig	krank	1	blank2r.bmp	0	1	+	0	1	blank2r.bmp	500	1	CPLW	500	1	blank2r.bmp	880	6	gesittet	880	1	FEHLER	1657	1	!	1312	1	!	1365	0	0	0
2024-06-05	11:36:52	11:42:45	352829	6.6.1	4_exp_EVA_AWA_CON	66	A	B	Rpleas_acq	Oppo	Rpleas	1pleas	acq_new_unple_nomask	acq2_nomask	2	16	480	0	300	300	0	0	1367	46	1	0	vergnügt	vertrauen	sonnig	träumen	besonnen	gesittet	verbissen	versagen	sterben	töten	bange	geizig	kuss	anregung	genießen	engagiert	gütig	kreativ	krise	ausrottung	gemein	engstirnig	gierig	krank	1	blank2r.bmp	0	1	+	0	1	blank2r.bmp	500	3	B3r.bmp	500	1	blank2r.bmp	880	2	ausrottung	880	1	!	1313	1	!	-1	0	0	0	0	0	0
2024-06-05	11:36:52	11:42:48	355111	6.6.1	4_exp_EVA_AWA_CON	66	A	B	Rpleas_acq	Oppo	Rpleas	1pleas	acq_US_pleas_nomask	acq2_nomask	2	17	480	1	300	300	0	0	505	50	1	0	vergnügt	vertrauen	sonnig	träumen	besonnen	gesittet	verbissen	versagen	sterben	töten	bange	geizig	kuss	anregung	genießen	engagiert	gütig	kreativ	krise	ausrottung	gemein	engstirnig	gierig	krank	1	blank2r.bmp	0	1	+	0	1	blank2r.bmp	500	1	CPLW	500	1	blank2r.bmp	880	1	vergnügt	880	1	!	1313	1	!	1406	0	0	0	0	0	0
2024-06-05	11:36:52	11:42:50	357343	6.6.1	4_exp_EVA_AWA_CON	66	A	B	Rpleas_acq	Oppo	Rpleas	1pleas	acq_US_unple_nomask	acq2_nomask	2	18	480	1	300	300	0	0	456	46	1	0	vergnügt	vertrauen	sonnig	träumen	besonnen	gesittet	verbissen	versagen	sterben	töten	bange	geizig	kuss	anregung	genießen	engagiert	gütig	kreativ	krise	ausrottung	gemein	engstirnig	gierig	krank	1	blank2r.bmp	0	1	+	0	1	blank2r.bmp	500	1	DHJF	500	1	blank2r.bmp	880	4	töten	880	1	!	1313	1	!	1357	0	0	0	0	0	0
2024-06-05	11:36:52	11:42:52	359824	6.6.1	4_exp_EVA_AWA_CON	66	A	B	Rpleas_acq	Oppo	Rpleas	1pleas	acq_US_pleas_nomask	acq2_nomask	2	19	480	1	300	300	0	0	504	46	0	0	vergnügt	vertrauen	sonnig	träumen	besonnen	gesittet	verbissen	versagen	sterben	töten	bange	geizig	kuss	anregung	genießen	engagiert	gütig	kreativ	krise	ausrottung	gemein	engstirnig	gierig	krank	1	blank2r.bmp	0	1	+	0	1	blank2r.bmp	500	1	CPLW	500	1	blank2r.bmp	880	2	vertrauen	880	1	FEHLER	1697	1	!	1313	1	!	1405	0	0	0
2024-06-05	11:36:52	11:42:55	361955	6.6.1	4_exp_EVA_AWA_CON	66	A	B	Rpleas_acq	Oppo	Rpleas	1pleas	acq_new_pleas_nomask	acq2_nomask	2	20	480	0	300	300	0	0	559	50	1	0	vergnügt	vertrauen	sonnig	träumen	besonnen	gesittet	verbissen	versagen	sterben	töten	bange	geizig	kuss	anregung	genießen	engagiert	gütig	kreativ	krise	ausrottung	gemein	engstirnig	gierig	krank	1	blank2r.bmp	0	1	+	0	1	blank2r.bmp	500	4	B4r.bmp	500	1	blank2r.bmp	880	1	kuss	880	1	!	1313	1	!	-1	0	0	0	0	0	0
2024-06-05	11:36:52	11:42:57	364528	6.6.1	4_exp_EVA_AWA_CON	66	A	B	Rpleas_acq	Oppo	Rpleas	1pleas	acq_US_unple_nomask	acq2_nomask	2	21	480	0	300	300	0	0	594	50	0	0	vergnügt	vertrauen	sonnig	träumen	besonnen	gesittet	verbissen	versagen	sterben	töten	bange	geizig	kuss	anregung	genießen	engagiert	gütig	kreativ	krise	ausrottung	gemein	engstirnig	gierig	krank	1	blank2r.bmp	0	1	+	0	1	blank2r.bmp	500	1	DHJF	500	1	blank2r.bmp	880	2	versagen	880	1	FEHLER	1788	1	!	1313	1	!	-1	0	0	0
2024-06-05	11:36:52	11:42:59	366845	6.6.1	4_exp_EVA_AWA_CON	66	A	B	Rpleas_acq	Oppo	Rpleas	1pleas	acq_new_unple_nomask	acq2_nomask	2	22	480	0	300	300	0	0	744	46	1	0	vergnügt	vertrauen	sonnig	träumen	besonnen	gesittet	verbissen	versagen	sterben	töten	bange	geizig	kuss	anregung	genießen	engagiert	gütig	kreativ	krise	ausrottung	gemein	engstirnig	gierig	krank	1	blank2r.bmp	0	1	+	0	1	blank2r.bmp	500	2	B2r.bmp	500	1	blank2r.bmp	880	5	gierig	880	1	!	1313	1	!	-1	0	0	0	0	0	0
2024-06-05	11:36:52	11:43:02	369029	6.6.1	4_exp_EVA_AWA_CON	66	A	B	Rpleas_acq	Oppo	Rpleas	1pleas	acq_new_pleas_nomask	acq2_nomask	2	23	480	0	300	300	0	0	406	50	1	0	vergnügt	vertrauen	sonnig	träumen	besonnen	gesittet	verbissen	versagen	sterben	töten	bange	geizig	kuss	anregung	genießen	engagiert	gütig	kreativ	krise	ausrottung	gemein	engstirnig	gierig	krank	1	blank2r.bmp	0	1	+	0	1	blank2r.bmp	500	8	C4r.bmp	500	1	blank2r.bmp	880	5	gütig	880	1	!	-1	1	!	-1	0	0	0	0	0	0
2024-06-05	11:36:52	11:43:04	371446	6.6.1	4_exp_EVA_AWA_CON	66	A	B	Rpleas_acq	Oppo	Rpleas	1pleas	acq_US_unple_nomask	acq2_nomask	2	24	480	0	300	300	0	0	641	46	1	0	vergnügt	vertrauen	sonnig	träumen	besonnen	gesittet	verbissen	versagen	sterben	töten	bange	geizig	kuss	anregung	genießen	engagiert	gütig	kreativ	krise	ausrottung	gemein	engstirnig	gierig	krank	1	blank2r.bmp	0	1	+	0	1	blank2r.bmp	500	1	DHJF	500	1	blank2r.bmp	880	3	sterben	880	1	!	1312	1	!	-1	0	0	0	0	0	0
2024-06-05	11:36:52	11:43:06	373727	6.6.1	4_exp_EVA_AWA_CON	66	A	B	Rpleas_acq	Oppo	Rpleas	1pleas	acq_new_unple_nomask	acq2_nomask	2	25	480	1	300	300	0	0	498	46	1	0	vergnügt	vertrauen	sonnig	träumen	besonnen	gesittet	verbissen	versagen	sterben	töten	bange	geizig	kuss	anregung	genießen	engagiert	gütig	kreativ	krise	ausrottung	gemein	engstirnig	gierig	krank	1	blank2r.bmp	0	1	+	0	1	blank2r.bmp	500	5	C1r.bmp	500	1	blank2r.bmp	880	1	krise	880	1	!	1312	1	!	1400	0	0	0	0	0	0
2024-06-05	11:36:52	11:43:09	376184	6.6.1	4_exp_EVA_AWA_CON	66	A	B	Rpleas_acq	Oppo	Rpleas	1pleas	acq_new_unple_nomask	acq2_nomask	2	26	480	1	300	300	0	0	473	50	0	0	vergnügt	vertrauen	sonnig	träumen	besonnen	gesittet	verbissen	versagen	sterben	töten	bange	geizig	kuss	anregung	genießen	engagiert	gütig	kreativ	krise	ausrottung	gemein	engstirnig	gierig	krank	1	blank2r.bmp	0	1	+	0	1	blank2r.bmp	500	6	C2r.bmp	500	1	blank2r.bmp	880	6	krank	880	1	FEHLER	1666	1	!	1312	1	!	1374	0	0	0
2024-06-05	11:36:52	11:43:11	378295	6.6.1	4_exp_EVA_AWA_CON	66	A	B	Rpleas_acq	Oppo	Rpleas	1pleas	acq_US_unple_nomask	acq2_nomask	2	27	480	1	300	300	0	0	533	46	1	0	vergnügt	vertrauen	sonnig	träumen	besonnen	gesittet	verbissen	versagen	sterben	töten	bange	geizig	kuss	anregung	genießen	engagiert	gütig	kreativ	krise	ausrottung	gemein	engstirnig	gierig	krank	1	blank2r.bmp	0	1	+	0	1	blank2r.bmp	500	1	DHJF	500	1	blank2r.bmp	880	6	geizig	880	1	!	1312	1	!	1435	0	0	0	0	0	0
2024-06-05	11:36:52	11:43:13	380543	6.6.1	4_exp_EVA_AWA_CON	66	A	B	Rpleas_acq	Oppo	Rpleas	1pleas	acq_new_pleas_nomask	acq2_nomask	2	28	480	1	300	300	0	0	471	50	1	0	vergnügt	vertrauen	sonnig	träumen	besonnen	gesittet	verbissen	versagen	sterben	töten	bange	geizig	kuss	anregung	genießen	engagiert	gütig	kreativ	krise	ausrottung	gemein	engstirnig	gierig	krank	1	blank2r.bmp	0	1	+	0	1	blank2r.bmp	500	3	B3r.bmp	500	1	blank2r.bmp	880	3	genießen	880	1	!	1312	1	!	1372	0	0	0	0	0	0
2024-06-05	11:36:52	11:43:16	382893	6.6.1	4_exp_EVA_AWA_CON	66	A	B	Rpleas_acq	Oppo	Rpleas	1pleas	acq_new_pleas_nomask	acq2_nomask	2	29	480	0	300	300	0	0	571	50	1	0	vergnügt	vertrauen	sonnig	träumen	besonnen	gesittet	verbissen	versagen	sterben	töten	bange	geizig	kuss	anregung	genießen	engagiert	gütig	kreativ	krise	ausrottung	gemein	engstirnig	gierig	krank	1	blank2r.bmp	0	1	+	0	1	blank2r.bmp	500	4	B4r.bmp	500	1	blank2r.bmp	880	6	kreativ	880	1	!	1312	1	!	-1	0	0	0	0	0	0
2024-06-05	11:36:52	11:43:18	385215	6.6.1	4_exp_EVA_AWA_CON	66	A	B	Rpleas_acq	Oppo	Rpleas	1pleas	acq_new_pleas_nomask	acq2_nomask	2	30	480	1	300	300	0	0	539	50	1	0	vergnügt	vertrauen	sonnig	träumen	besonnen	gesittet	verbissen	versagen	sterben	töten	bange	geizig	kuss	anregung	genießen	engagiert	gütig	kreativ	krise	ausrottung	gemein	engstirnig	gierig	krank	1	blank2r.bmp	0	1	+	0	1	blank2r.bmp	500	7	C3r.bmp	500	1	blank2r.bmp	880	4	engagiert	880	1	!	1313	1	!	1441	0	0	0	0	0	0
2024-06-05	11:36:52	11:43:20	387455	6.6.1	4_exp_EVA_AWA_CON	66	A	B	Rpleas_acq	Oppo	Rpleas	1pleas	acq_US_pleas_nomask	acq2_nomask	2	31	480	1	300	300	0	0	458	50	1	0	vergnügt	vertrauen	sonnig	träumen	besonnen	gesittet	verbissen	versagen	sterben	töten	bange	geizig	kuss	anregung	genießen	engagiert	gütig	kreativ	krise	ausrottung	gemein	engstirnig	gierig	krank	1	blank2r.bmp	0	1	+	0	1	blank2r.bmp	500	1	CPLW	500	1	blank2r.bmp	880	3	sonnig	880	1	!	1313	1	!	1359	0	0	0	0	0	0
2024-06-05	11:36:52	11:43:22	389663	6.6.1	4_exp_EVA_AWA_CON	66	A	B	Rpleas_acq	Oppo	Rpleas	1pleas	acq_US_unple_nomask	acq2_nomask	2	32	480	1	300	300	0	0	425	46	1	0	vergnügt	vertrauen	sonnig	träumen	besonnen	gesittet	verbissen	versagen	sterben	töten	bange	geizig	kuss	anregung	genießen	engagiert	gütig	kreativ	krise	ausrottung	gemein	engstirnig	gierig	krank	1	blank2r.bmp	0	1	+	0	1	blank2r.bmp	500	1	DHJF	500	1	blank2r.bmp	880	1	verbissen	880	1	!	1312	1	!	1326	0	0	0	0	0	0
2024-06-05	11:36:52	11:43:24	391845	6.6.1	4_exp_EVA_AWA_CON	66	A	B	Rpleas_acq	Oppo	Rpleas	1pleas	acq_US_pleas_nomask	acq2_nomask	2	33	480	0	300	300	0	0	407	50	1	0	vergnügt	vertrauen	sonnig	träumen	besonnen	gesittet	verbissen	versagen	sterben	töten	bange	geizig	kuss	anregung	genießen	engagiert	gütig	kreativ	krise	ausrottung	gemein	engstirnig	gierig	krank	1	blank2r.bmp	0	1	+	0	1	blank2r.bmp	500	1	CPLW	500	1	blank2r.bmp	880	5	besonnen	880	1	!	-1	1	!	-1	0	0	0	0	0	0
2024-06-05	11:36:52	11:43:27	394179	6.6.1	4_exp_EVA_AWA_CON	66	A	B	Rpleas_acq	Oppo	Rpleas	1pleas	acq_US_unple_nomask	acq2_nomask	2	34	480	0	300	300	0	0	561	46	1	0	vergnügt	vertrauen	sonnig	träumen	besonnen	gesittet	verbissen	versagen	sterben	töten	bange	geizig	kuss	anregung	genießen	engagiert	gütig	kreativ	krise	ausrottung	gemein	engstirnig	gierig	krank	1	blank2r.bmp	0	1	+	0	1	blank2r.bmp	500	1	DHJF	500	1	blank2r.bmp	880	5	bange	880	1	!	1313	1	!	-1	0	0	0	0	0	0
2024-06-05	11:36:52	11:43:29	396719	6.6.1	4_exp_EVA_AWA_CON	66	A	B	Rpleas_acq	Oppo	Rpleas	1pleas	acq_new_unple_nomask	acq2_nomask	2	35	480	0	300	300	0	0	566	50	0	0	vergnügt	vertrauen	sonnig	träumen	besonnen	gesittet	verbissen	versagen	sterben	töten	bange	geizig	kuss	anregung	genießen	engagiert	gütig	kreativ	krise	ausrottung	gemein	engstirnig	gierig	krank	1	blank2r.bmp	0	1	+	0	1	blank2r.bmp	500	6	C2r.bmp	500	1	blank2r.bmp	880	3	gemein	880	1	FEHLER	1759	1	!	1313	1	!	-1	0	0	0
2024-06-05	11:36:52	11:43:31	398669	6.6.1	4_exp_EVA_AWA_CON	66	A	B	Rpleas_acq	Oppo	Rpleas	1pleas	acq_US_pleas_nomask	acq2_nomask	2	36	480	0	300	300	0	0	376	50	1	0	vergnügt	vertrauen	sonnig	träumen	besonnen	gesittet	verbissen	versagen	sterben	töten	bange	geizig	kuss	anregung	genießen	engagiert	gütig	kreativ	krise	ausrottung	gemein	engstirnig	gierig	krank	1	blank2r.bmp	0	1	+	0	1	blank2r.bmp	500	1	CPLW	500	1	blank2r.bmp	880	4	träumen	880	1	!	-1	1	!	-1	0	0	0	0	0	0
2024-06-05	11:36:52	11:43:48	415547	6.6.1	4_exp_EVA_AWA_CON	66	A	B	Rpleas_acq	Oppo	Rpleas	1pleas	acq_US_pleas_nomask	acq3_nomask	3	1	453	0	300	300	0	0	525	50	1	0	vergnügt	vertrauen	sonnig	träumen	besonnen	gesittet	verbissen	versagen	sterben	töten	bange	geizig	kuss	anregung	genießen	engagiert	gütig	kreativ	krise	ausrottung	gemein	engstirnig	gierig	krank	1	blank2r.bmp	0	1	+	0	1	blank2r.bmp	500	1	CPLW	500	1	blank2r.bmp	880	4	träumen	880	1	!	1293	1	!	-1	0	0	0	0	0	0
2024-06-05	11:36:52	11:43:50	417783	6.6.1	4_exp_EVA_AWA_CON	66	A	B	Rpleas_acq	Oppo	Rpleas	1pleas	acq_US_pleas_nomask	acq3_nomask	3	2	453	1	300	300	0	0	456	50	1	0	vergnügt	vertrauen	sonnig	träumen	besonnen	gesittet	verbissen	versagen	sterben	töten	bange	geizig	kuss	anregung	genießen	engagiert	gütig	kreativ	krise	ausrottung	gemein	engstirnig	gierig	krank	1	blank2r.bmp	0	1	+	0	1	blank2r.bmp	500	1	CPLW	500	1	blank2r.bmp	880	3	sonnig	880	1	!	1292	1	!	1358	0	0	0	0	0	0
2024-06-05	11:36:52	11:43:53	420144	6.6.1	4_exp_EVA_AWA_CON	66	A	B	Rpleas_acq	Oppo	Rpleas	1pleas	acq_US_pleas_nomask	acq3_nomask	3	3	453	0	300	300	0	0	385	46	0	0	vergnügt	vertrauen	sonnig	träumen	besonnen	gesittet	verbissen	versagen	sterben	töten	bange	geizig	kuss	anregung	genießen	engagiert	gütig	kreativ	krise	ausrottung	gemein	engstirnig	gierig	krank	1	blank2r.bmp	0	1	+	0	1	blank2r.bmp	500	1	CPLW	500	1	blank2r.bmp	880	1	vergnügt	880	1	FEHLER	1578	1	!	-1	1	!	-1	0	0	0
2024-06-05	11:36:52	11:43:55	422175	6.6.1	4_exp_EVA_AWA_CON	66	A	B	Rpleas_acq	Oppo	Rpleas	1pleas	acq_US_unple_nomask	acq3_nomask	3	4	453	1	300	300	0	0	456	46	1	0	vergnügt	vertrauen	sonnig	träumen	besonnen	gesittet	verbissen	versagen	sterben	töten	bange	geizig	kuss	anregung	genießen	engagiert	gütig	kreativ	krise	ausrottung	gemein	engstirnig	gierig	krank	1	blank2r.bmp	0	1	+	0	1	blank2r.bmp	500	1	DHJF	500	1	blank2r.bmp	880	2	versagen	880	1	!	1292	1	!	1357	0	0	0	0	0	0
2024-06-05	11:36:52	11:43:57	424447	6.6.1	4_exp_EVA_AWA_CON	66	A	B	Rpleas_acq	Oppo	Rpleas	1pleas	acq_US_unple_nomask	acq3_nomask	3	5	453	1	300	300	0	0	497	46	1	0	vergnügt	vertrauen	sonnig	träumen	besonnen	gesittet	verbissen	versagen	sterben	töten	bange	geizig	kuss	anregung	genießen	engagiert	gütig	kreativ	krise	ausrottung	gemein	engstirnig	gierig	krank	1	blank2r.bmp	0	1	+	0	1	blank2r.bmp	500	1	DHJF	500	1	blank2r.bmp	880	3	sterben	880	1	!	1292	1	!	1398	0	0	0	0	0	0
2024-06-05	11:36:52	11:44:00	426872	6.6.1	4_exp_EVA_AWA_CON	66	A	B	Rpleas_acq	Oppo	Rpleas	1pleas	acq_US_pleas_nomask	acq3_nomask	3	6	453	1	300	300	0	0	449	46	0	0	vergnügt	vertrauen	sonnig	träumen	besonnen	gesittet	verbissen	versagen	sterben	töten	bange	geizig	kuss	anregung	genießen	engagiert	gütig	kreativ	krise	ausrottung	gemein	engstirnig	gierig	krank	1	blank2r.bmp	0	1	+	0	1	blank2r.bmp	500	1	CPLW	500	1	blank2r.bmp	880	2	vertrauen	880	1	FEHLER	1642	1	!	1293	1	!	1350	0	0	0
2024-06-05	11:36:52	11:44:02	428927	6.6.1	4_exp_EVA_AWA_CON	66	A	B	Rpleas_acq	Oppo	Rpleas	1pleas	acq_US_unple_nomask	acq3_nomask	3	7	453	1	300	300	0	0	473	46	1	0	vergnügt	vertrauen	sonnig	träumen	besonnen	gesittet	verbissen	versagen	sterben	töten	bange	geizig	kuss	anregung	genießen	engagiert	gütig	kreativ	krise	ausrottung	gemein	engstirnig	gierig	krank	1	blank2r.bmp	0	1	+	0	1	blank2r.bmp	500	1	DHJF	500	1	blank2r.bmp	880	1	verbissen	880	1	!	1292	1	!	1374	0	0	0	0	0	0
2024-06-05	11:36:52	11:44:04	431207	6.6.1	4_exp_EVA_AWA_CON	66	A	B	Rpleas_acq	Oppo	Rpleas	1pleas	acq_US_unple_nomask	acq3_nomask	3	8	453	1	300	300	0	0	502	46	1	0	vergnügt	vertrauen	sonnig	träumen	besonnen	gesittet	verbissen	versagen	sterben	töten	bange	geizig	kuss	anregung	genießen	engagiert	gütig	kreativ	krise	ausrottung	gemein	engstirnig	gierig	krank	1	blank2r.bmp	0	1	+	0	1	blank2r.bmp	500	1	DHJF	500	1	blank2r.bmp	880	5	bange	880	1	!	1293	1	!	1403	0	0	0	0	0	0
2024-06-05	11:36:52	11:44:06	433507	6.6.1	4_exp_EVA_AWA_CON	66	A	B	Rpleas_acq	Oppo	Rpleas	1pleas	acq_US_unple_nomask	acq3_nomask	3	9	453	0	300	300	0	0	525	46	1	0	vergnügt	vertrauen	sonnig	träumen	besonnen	gesittet	verbissen	versagen	sterben	töten	bange	geizig	kuss	anregung	genießen	engagiert	gütig	kreativ	krise	ausrottung	gemein	engstirnig	gierig	krank	1	blank2r.bmp	0	1	+	0	1	blank2r.bmp	500	1	DHJF	500	1	blank2r.bmp	880	6	geizig	880	1	!	1292	1	!	-1	0	0	0	0	0	0
2024-06-05	11:36:52	11:44:08	435669	6.6.1	4_exp_EVA_AWA_CON	66	A	B	Rpleas_acq	Oppo	Rpleas	1pleas	acq_US_pleas_nomask	acq3_nomask	3	10	453	0	300	300	0	0	382	50	1	0	vergnügt	vertrauen	sonnig	träumen	besonnen	gesittet	verbissen	versagen	sterben	töten	bange	geizig	kuss	anregung	genießen	engagiert	gütig	kreativ	krise	ausrottung	gemein	engstirnig	gierig	krank	1	blank2r.bmp	0	1	+	0	1	blank2r.bmp	500	1	CPLW	500	1	blank2r.bmp	880	6	gesittet	880	1	!	-1	1	!	-1	0	0	0	0	0	0
2024-06-05	11:36:52	11:44:11	437950	6.6.1	4_exp_EVA_AWA_CON	66	A	B	Rpleas_acq	Oppo	Rpleas	1pleas	acq_US_unple_nomask	acq3_nomask	3	11	453	1	300	300	0	0	501	46	1	0	vergnügt	vertrauen	sonnig	träumen	besonnen	gesittet	verbissen	versagen	sterben	töten	bange	geizig	kuss	anregung	genießen	engagiert	gütig	kreativ	krise	ausrottung	gemein	engstirnig	gierig	krank	1	blank2r.bmp	0	1	+	0	1	blank2r.bmp	500	1	DHJF	500	1	blank2r.bmp	880	4	töten	880	1	!	1292	1	!	1403	0	0	0	0	0	0
2024-06-05	11:36:52	11:44:13	440304	6.6.1	4_exp_EVA_AWA_CON	66	A	B	Rpleas_acq	Oppo	Rpleas	1pleas	acq_US_pleas_nomask	acq3_nomask	3	12	453	0	300	300	0	0	372	46	0	0	vergnügt	vertrauen	sonnig	träumen	besonnen	gesittet	verbissen	versagen	sterben	töten	bange	geizig	kuss	anregung	genießen	engagiert	gütig	kreativ	krise	ausrottung	gemein	engstirnig	gierig	krank	1	blank2r.bmp	0	1	+	0	1	blank2r.bmp	500	1	CPLW	500	1	blank2r.bmp	880	5	besonnen	880	1	FEHLER	1565	1	!	-1	1	!	-1	0	0	0
2024-06-05	11:36:52	11:44:15	442496	6.6.1	4_exp_EVA_AWA_CON	66	A	B	Rpleas_acq	Oppo	Rpleas	1pleas	acq_US_unple_nomask	acq3_nomask	3	13	453	1	300	300	0	0	412	50	0	0	vergnügt	vertrauen	sonnig	träumen	besonnen	gesittet	verbissen	versagen	sterben	töten	bange	geizig	kuss	anregung	genießen	engagiert	gütig	kreativ	krise	ausrottung	gemein	engstirnig	gierig	krank	1	blank2r.bmp	0	1	+	0	1	blank2r.bmp	500	1	DHJF	500	1	blank2r.bmp	880	6	geizig	880	1	FEHLER	1606	1	!	1292	1	!	1314	0	0	0
2024-06-05	11:36:52	11:44:17	444567	6.6.1	4_exp_EVA_AWA_CON	66	A	B	Rpleas_acq	Oppo	Rpleas	1pleas	acq_US_unple_nomask	acq3_nomask	3	14	453	1	300	300	0	0	494	46	1	0	vergnügt	vertrauen	sonnig	träumen	besonnen	gesittet	verbissen	versagen	sterben	töten	bange	geizig	kuss	anregung	genießen	engagiert	gütig	kreativ	krise	ausrottung	gemein	engstirnig	gierig	krank	1	blank2r.bmp	0	1	+	0	1	blank2r.bmp	500	1	DHJF	500	1	blank2r.bmp	880	5	bange	880	1	!	1293	1	!	1395	0	0	0	0	0	0
2024-06-05	11:36:52	11:44:19	446767	6.6.1	4_exp_EVA_AWA_CON	66	A	B	Rpleas_acq	Oppo	Rpleas	1pleas	acq_US_pleas_nomask	acq3_nomask	3	15	453	1	300	300	0	0	421	50	1	0	vergnügt	vertrauen	sonnig	träumen	besonnen	gesittet	verbissen	versagen	sterben	töten	bange	geizig	kuss	anregung	genießen	engagiert	gütig	kreativ	krise	ausrottung	gemein	engstirnig	gierig	krank	1	blank2r.bmp	0	1	+	0	1	blank2r.bmp	500	1	CPLW	500	1	blank2r.bmp	880	5	besonnen	880	1	!	1292	1	!	1323	0	0	0	0	0	0
2024-06-05	11:36:52	11:44:22	449240	6.6.1	4_exp_EVA_AWA_CON	66	A	B	Rpleas_acq	Oppo	Rpleas	1pleas	acq_US_unple_nomask	acq3_nomask	3	16	453	1	300	300	0	0	493	50	0	0	vergnügt	vertrauen	sonnig	träumen	besonnen	gesittet	verbissen	versagen	sterben	töten	bange	geizig	kuss	anregung	genießen	engagiert	gütig	kreativ	krise	ausrottung	gemein	engstirnig	gierig	krank	1	blank2r.bmp	0	1	+	0	1	blank2r.bmp	500	1	DHJF	500	1	blank2r.bmp	880	2	versagen	880	1	FEHLER	1686	1	!	1292	1	!	1394	0	0	0
2024-06-05	11:36:52	11:44:24	451347	6.6.1	4_exp_EVA_AWA_CON	66	A	B	Rpleas_acq	Oppo	Rpleas	1pleas	acq_US_unple_nomask	acq3_nomask	3	17	453	0	300	300	0	0	532	46	1	0	vergnügt	vertrauen	sonnig	träumen	besonnen	gesittet	verbissen	versagen	sterben	töten	bange	geizig	kuss	anregung	genießen	engagiert	gütig	kreativ	krise	ausrottung	gemein	engstirnig	gierig	krank	1	blank2r.bmp	0	1	+	0	1	blank2r.bmp	500	1	DHJF	500	1	blank2r.bmp	880	3	sterben	880	1	!	1292	1	!	-1	0	0	0	0	0	0
2024-06-05	11:36:52	11:44:27	454597	6.6.1	4_exp_EVA_AWA_CON	66	A	B	Rpleas_acq	Oppo	Rpleas	1pleas	acq_US_pleas_nomask	acq3_nomask	3	18	453	0	300	300	0	0	1470	50	1	0	vergnügt	vertrauen	sonnig	träumen	besonnen	gesittet	verbissen	versagen	sterben	töten	bange	geizig	kuss	anregung	genießen	engagiert	gütig	kreativ	krise	ausrottung	gemein	engstirnig	gierig	krank	1	blank2r.bmp	0	1	+	0	1	blank2r.bmp	500	1	CPLW	500	1	blank2r.bmp	880	2	vertrauen	880	1	!	1292	1	!	-1	0	0	0	0	0	0
2024-06-05	11:36:52	11:44:29	456839	6.6.1	4_exp_EVA_AWA_CON	66	A	B	Rpleas_acq	Oppo	Rpleas	1pleas	acq_US_unple_nomask	acq3_nomask	3	19	453	1	300	300	0	0	468	46	1	0	vergnügt	vertrauen	sonnig	träumen	besonnen	gesittet	verbissen	versagen	sterben	töten	bange	geizig	kuss	anregung	genießen	engagiert	gütig	kreativ	krise	ausrottung	gemein	engstirnig	gierig	krank	1	blank2r.bmp	0	1	+	0	1	blank2r.bmp	500	1	DHJF	500	1	blank2r.bmp	880	4	töten	880	1	!	1293	1	!	1369	0	0	0	0	0	0
2024-06-05	11:36:52	11:44:32	459079	6.6.1	4_exp_EVA_AWA_CON	66	A	B	Rpleas_acq	Oppo	Rpleas	1pleas	acq_US_pleas_nomask	acq3_nomask	3	20	453	1	300	300	0	0	465	50	1	0	vergnügt	vertrauen	sonnig	träumen	besonnen	gesittet	verbissen	versagen	sterben	töten	bange	geizig	kuss	anregung	genießen	engagiert	gütig	kreativ	krise	ausrottung	gemein	engstirnig	gierig	krank	1	blank2r.bmp	0	1	+	0	1	blank2r.bmp	500	1	CPLW	500	1	blank2r.bmp	880	3	sonnig	880	1	!	1292	1	!	1367	0	0	0	0	0	0
2024-06-05	11:36:52	11:44:34	461568	6.6.1	4_exp_EVA_AWA_CON	66	A	B	Rpleas_acq	Oppo	Rpleas	1pleas	acq_US_pleas_nomask	acq3_nomask	3	21	453	1	300	300	0	0	513	46	0	0	vergnügt	vertrauen	sonnig	träumen	besonnen	gesittet	verbissen	versagen	sterben	töten	bange	geizig	kuss	anregung	genießen	engagiert	gütig	kreativ	krise	ausrottung	gemein	engstirnig	gierig	krank	1	blank2r.bmp	0	1	+	0	1	blank2r.bmp	500	1	CPLW	500	1	blank2r.bmp	880	1	vergnügt	880	1	FEHLER	1706	1	!	1293	1	!	1414	0	0	0
2024-06-05	11:36:52	11:44:36	463591	6.6.1	4_exp_EVA_AWA_CON	66	A	B	Rpleas_acq	Oppo	Rpleas	1pleas	acq_US_unple_nomask	acq3_nomask	3	22	453	1	300	300	0	0	445	46	1	0	vergnügt	vertrauen	sonnig	träumen	besonnen	gesittet	verbissen	versagen	sterben	töten	bange	geizig	kuss	anregung	genießen	engagiert	gütig	kreativ	krise	ausrottung	gemein	engstirnig	gierig	krank	1	blank2r.bmp	0	1	+	0	1	blank2r.bmp	500	1	DHJF	500	1	blank2r.bmp	880	1	verbissen	880	1	!	1292	1	!	1346	0	0	0	0	0	0
2024-06-05	11:36:52	11:44:38	465839	6.6.1	4_exp_EVA_AWA_CON	66	A	B	Rpleas_acq	Oppo	Rpleas	1pleas	acq_US_pleas_nomask	acq3_nomask	3	23	453	1	300	300	0	0	471	50	1	0	vergnügt	vertrauen	sonnig	träumen	besonnen	gesittet	verbissen	versagen	sterben	töten	bange	geizig	kuss	anregung	genießen	engagiert	gütig	kreativ	krise	ausrottung	gemein	engstirnig	gierig	krank	1	blank2r.bmp	0	1	+	0	1	blank2r.bmp	500	1	CPLW	500	1	blank2r.bmp	880	4	träumen	880	1	!	1293	1	!	1373	0	0	0	0	0	0
2024-06-05	11:36:52	11:44:41	468361	6.6.1	4_exp_EVA_AWA_CON	66	A	B	Rpleas_acq	Oppo	Rpleas	1pleas	acq_US_pleas_nomask	acq3_nomask	3	24	453	0	300	300	0	0	540	46	0	0	vergnügt	vertrauen	sonnig	träumen	besonnen	gesittet	verbissen	versagen	sterben	töten	bange	geizig	kuss	anregung	genießen	engagiert	gütig	kreativ	krise	ausrottung	gemein	engstirnig	gierig	krank	1	blank2r.bmp	0	1	+	0	1	blank2r.bmp	500	1	CPLW	500	1	blank2r.bmp	880	6	gesittet	880	1	FEHLER	1734	1	!	1292	1	!	-1	0	0	0
2024-06-05	11:36:52	11:44:43	470510	6.6.1	4_exp_EVA_AWA_CON	66	A	B	Rpleas_acq	Oppo	Rpleas	1pleas	acq_US_unple_nomask	acq3_nomask	3	25	453	0	300	300	0	0	571	46	1	0	vergnügt	vertrauen	sonnig	träumen	besonnen	gesittet	verbissen	versagen	sterben	töten	bange	geizig	kuss	anregung	genießen	engagiert	gütig	kreativ	krise	ausrottung	gemein	engstirnig	gierig	krank	1	blank2r.bmp	0	1	+	0	1	blank2r.bmp	500	1	DHJF	500	1	blank2r.bmp	880	1	verbissen	880	1	!	1292	1	!	-1	0	0	0	0	0	0
2024-06-05	11:36:52	11:44:45	472759	6.6.1	4_exp_EVA_AWA_CON	66	A	B	Rpleas_acq	Oppo	Rpleas	1pleas	acq_US_pleas_nomask	acq3_nomask	3	26	453	1	300	300	0	0	467	50	1	0	vergnügt	vertrauen	sonnig	träumen	besonnen	gesittet	verbissen	versagen	sterben	töten	bange	geizig	kuss	anregung	genießen	engagiert	gütig	kreativ	krise	ausrottung	gemein	engstirnig	gierig	krank	1	blank2r.bmp	0	1	+	0	1	blank2r.bmp	500	1	CPLW	500	1	blank2r.bmp	880	1	vergnügt	880	1	!	1292	1	!	1368	0	0	0	0	0	0
2024-06-05	11:36:52	11:44:48	475015	6.6.1	4_exp_EVA_AWA_CON	66	A	B	Rpleas_acq	Oppo	Rpleas	1pleas	acq_US_pleas_nomask	acq3_nomask	3	27	453	1	300	300	0	0	482	50	1	0	vergnügt	vertrauen	sonnig	träumen	besonnen	gesittet	verbissen	versagen	sterben	töten	bange	geizig	kuss	anregung	genießen	engagiert	gütig	kreativ	krise	ausrottung	gemein	engstirnig	gierig	krank	1	blank2r.bmp	0	1	+	0	1	blank2r.bmp	500	1	CPLW	500	1	blank2r.bmp	880	3	sonnig	880	1	!	1292	1	!	1383	0	0	0	0	0	0
2024-06-05	11:36:52	11:44:50	477504	6.6.1	4_exp_EVA_AWA_CON	66	A	B	Rpleas_acq	Oppo	Rpleas	1pleas	acq_US_pleas_nomask	acq3_nomask	3	28	453	1	300	300	0	0	508	46	0	0	vergnügt	vertrauen	sonnig	träumen	besonnen	gesittet	verbissen	versagen	sterben	töten	bange	geizig	kuss	anregung	genießen	engagiert	gütig	kreativ	krise	ausrottung	gemein	engstirnig	gierig	krank	1	blank2r.bmp	0	1	+	0	1	blank2r.bmp	500	1	CPLW	500	1	blank2r.bmp	880	6	gesittet	880	1	FEHLER	1702	1	!	1292	1	!	1410	0	0	0
2024-06-05	11:36:52	11:44:52	479599	6.6.1	4_exp_EVA_AWA_CON	66	A	B	Rpleas_acq	Oppo	Rpleas	1pleas	acq_US_pleas_nomask	acq3_nomask	3	29	453	1	300	300	0	0	513	50	1	0	vergnügt	vertrauen	sonnig	träumen	besonnen	gesittet	verbissen	versagen	sterben	töten	bange	geizig	kuss	anregung	genießen	engagiert	gütig	kreativ	krise	ausrottung	gemein	engstirnig	gierig	krank	1	blank2r.bmp	0	1	+	0	1	blank2r.bmp	500	1	CPLW	500	1	blank2r.bmp	880	5	besonnen	880	1	!	1292	1	!	1414	0	0	0	0	0	0
2024-06-05	11:36:52	11:44:55	482005	6.6.1	4_exp_EVA_AWA_CON	66	A	B	Rpleas_acq	Oppo	Rpleas	1pleas	acq_US_unple_nomask	acq3_nomask	3	30	453	0	300	300	0	0	630	46	1	0	vergnügt	vertrauen	sonnig	träumen	besonnen	gesittet	verbissen	versagen	sterben	töten	bange	geizig	kuss	anregung	genießen	engagiert	gütig	kreativ	krise	ausrottung	gemein	engstirnig	gierig	krank	1	blank2r.bmp	0	1	+	0	1	blank2r.bmp	500	1	DHJF	500	1	blank2r.bmp	880	4	töten	880	1	!	1292	1	!	-1	0	0	0	0	0	0
2024-06-05	11:36:52	11:44:57	484207	6.6.1	4_exp_EVA_AWA_CON	66	A	B	Rpleas_acq	Oppo	Rpleas	1pleas	acq_US_pleas_nomask	acq3_nomask	3	31	453	1	300	300	0	0	427	50	1	0	vergnügt	vertrauen	sonnig	träumen	besonnen	gesittet	verbissen	versagen	sterben	töten	bange	geizig	kuss	anregung	genießen	engagiert	gütig	kreativ	krise	ausrottung	gemein	engstirnig	gierig	krank	1	blank2r.bmp	0	1	+	0	1	blank2r.bmp	500	1	CPLW	500	1	blank2r.bmp	880	4	träumen	880	1	!	1292	1	!	1329	0	0	0	0	0	0
2024-06-05	11:36:52	11:44:59	486455	6.6.1	4_exp_EVA_AWA_CON	66	A	B	Rpleas_acq	Oppo	Rpleas	1pleas	acq_US_unple_nomask	acq3_nomask	3	32	453	1	300	300	0	0	464	46	1	0	vergnügt	vertrauen	sonnig	träumen	besonnen	gesittet	verbissen	versagen	sterben	töten	bange	geizig	kuss	anregung	genießen	engagiert	gütig	kreativ	krise	ausrottung	gemein	engstirnig	gierig	krank	1	blank2r.bmp	0	1	+	0	1	blank2r.bmp	500	1	DHJF	500	1	blank2r.bmp	880	2	versagen	880	1	!	1292	1	!	1365	0	0	0	0	0	0
2024-06-05	11:36:52	11:45:01	488765	6.6.1	4_exp_EVA_AWA_CON	66	A	B	Rpleas_acq	Oppo	Rpleas	1pleas	acq_US_unple_nomask	acq3_nomask	3	33	453	0	300	300	0	0	535	46	1	0	vergnügt	vertrauen	sonnig	träumen	besonnen	gesittet	verbissen	versagen	sterben	töten	bange	geizig	kuss	anregung	genießen	engagiert	gütig	kreativ	krise	ausrottung	gemein	engstirnig	gierig	krank	1	blank2r.bmp	0	1	+	0	1	blank2r.bmp	500	1	DHJF	500	1	blank2r.bmp	880	5	bange	880	1	!	1292	1	!	-1	0	0	0	0	0	0
2024-06-05	11:36:52	11:45:04	491248	6.6.1	4_exp_EVA_AWA_CON	66	A	B	Rpleas_acq	Oppo	Rpleas	1pleas	acq_US_pleas_nomask	acq3_nomask	3	34	453	1	300	300	0	0	503	46	0	0	vergnügt	vertrauen	sonnig	träumen	besonnen	gesittet	verbissen	versagen	sterben	töten	bange	geizig	kuss	anregung	genießen	engagiert	gütig	kreativ	krise	ausrottung	gemein	engstirnig	gierig	krank	1	blank2r.bmp	0	1	+	0	1	blank2r.bmp	500	1	CPLW	500	1	blank2r.bmp	880	2	vertrauen	880	1	FEHLER	1697	1	!	1292	1	!	1405	0	0	0
2024-06-05	11:36:52	11:45:06	493392	6.6.1	4_exp_EVA_AWA_CON	66	A	B	Rpleas_acq	Oppo	Rpleas	1pleas	acq_US_unple_nomask	acq3_nomask	3	35	453	0	300	300	0	0	366	50	0	0	vergnügt	vertrauen	sonnig	träumen	besonnen	gesittet	verbissen	versagen	sterben	töten	bange	geizig	kuss	anregung	genießen	engagiert	gütig	kreativ	krise	ausrottung	gemein	engstirnig	gierig	krank	1	blank2r.bmp	0	1	+	0	1	blank2r.bmp	500	1	DHJF	500	1	blank2r.bmp	880	6	geizig	880	1	FEHLER	1559	1	!	-1	1	!	-1	0	0	0
2024-06-05	11:36:52	11:45:08	495625	6.6.1	4_exp_EVA_AWA_CON	66	A	B	Rpleas_acq	Oppo	Rpleas	1pleas	acq_US_unple_nomask	acq3_nomask	3	36	453	1	300	300	0	0	456	50	0	0	vergnügt	vertrauen	sonnig	träumen	besonnen	gesittet	verbissen	versagen	sterben	töten	bange	geizig	kuss	anregung	genießen	engagiert	gütig	kreativ	krise	ausrottung	gemein	engstirnig	gierig	krank	1	blank2r.bmp	0	1	+	0	1	blank2r.bmp	500	1	DHJF	500	1	blank2r.bmp	880	3	sterben	880	1	FEHLER	1650	1	!	1292	1	!	1358	0	0	0
2024-06-05	11:36:52	11:45:23	510671	6.6.1	4_exp_EVA_AWA_CON	66	A	B	Rpleas_acq	Oppo	Rpleas	1pleas	acq_US_unple_nomask	acq45_nomask	4	1	400	1	300	300	0	0	434	46	1	0	vergnügt	vertrauen	sonnig	träumen	besonnen	gesittet	verbissen	versagen	sterben	töten	bange	geizig	kuss	anregung	genießen	engagiert	gütig	kreativ	krise	ausrottung	gemein	engstirnig	gierig	krank	1	blank2r.bmp	0	1	+	0	1	blank2r.bmp	500	1	DHJF	500	1	blank2r.bmp	880	5	bange	880	1	!	1232	1	!	1336	0	0	0	0	0	0
2024-06-05	11:36:52	11:45:26	512895	6.6.1	4_exp_EVA_AWA_CON	66	A	B	Rpleas_acq	Oppo	Rpleas	1pleas	acq_US_unple_nomask	acq45_nomask	4	2	400	1	300	300	0	0	448	46	1	0	vergnügt	vertrauen	sonnig	träumen	besonnen	gesittet	verbissen	versagen	sterben	töten	bange	geizig	kuss	anregung	genießen	engagiert	gütig	kreativ	krise	ausrottung	gemein	engstirnig	gierig	krank	1	blank2r.bmp	0	1	+	0	1	blank2r.bmp	500	1	DHJF	500	1	blank2r.bmp	880	4	töten	880	1	!	1232	1	!	1349	0	0	0	0	0	0
2024-06-05	11:36:52	11:45:28	515079	6.6.1	4_exp_EVA_AWA_CON	66	A	B	Rpleas_acq	Oppo	Rpleas	1pleas	acq_US_pleas_nomask	acq45_nomask	4	3	400	1	300	300	0	0	410	46	0	0	vergnügt	vertrauen	sonnig	träumen	besonnen	gesittet	verbissen	versagen	sterben	töten	bange	geizig	kuss	anregung	genießen	engagiert	gütig	kreativ	krise	ausrottung	gemein	engstirnig	gierig	krank	1	blank2r.bmp	0	1	+	0	1	blank2r.bmp	500	1	CPLW	500	1	blank2r.bmp	880	4	träumen	880	1	!	1232	1	!	1312	0	0	0	0	0	0
2024-06-05	11:36:52	11:45:30	517327	6.6.1	4_exp_EVA_AWA_CON	66	A	B	Rpleas_acq	Oppo	Rpleas	1pleas	acq_US_unple_nomask	acq45_nomask	4	4	400	1	300	300	0	0	466	46	1	0	vergnügt	vertrauen	sonnig	träumen	besonnen	gesittet	verbissen	versagen	sterben	töten	bange	geizig	kuss	anregung	genießen	engagiert	gütig	kreativ	krise	ausrottung	gemein	engstirnig	gierig	krank	1	blank2r.bmp	0	1	+	0	1	blank2r.bmp	500	1	DHJF	500	1	blank2r.bmp	880	1	verbissen	880	1	!	1233	1	!	1368	0	0	0	0	0	0
2024-06-05	11:36:52	11:45:32	519511	6.6.1	4_exp_EVA_AWA_CON	66	A	B	Rpleas_acq	Oppo	Rpleas	1pleas	acq_US_pleas_nomask	acq45_nomask	4	5	400	1	300	300	0	0	410	50	1	0	vergnügt	vertrauen	sonnig	träumen	besonnen	gesittet	verbissen	versagen	sterben	töten	bange	geizig	kuss	anregung	genießen	engagiert	gütig	kreativ	krise	ausrottung	gemein	engstirnig	gierig	krank	1	blank2r.bmp	0	1	+	0	1	blank2r.bmp	500	1	CPLW	500	1	blank2r.bmp	880	2	vertrauen	880	1	!	1232	1	!	1310	0	0	0	0	0	0
2024-06-05	11:36:52	11:45:34	521735	6.6.1	4_exp_EVA_AWA_CON	66	A	B	Rpleas_acq	Oppo	Rpleas	1pleas	acq_US_pleas_nomask	acq45_nomask	4	6	400	1	300	300	0	0	442	50	1	0	vergnügt	vertrauen	sonnig	träumen	besonnen	gesittet	verbissen	versagen	sterben	töten	bange	geizig	kuss	anregung	genießen	engagiert	gütig	kreativ	krise	ausrottung	gemein	engstirnig	gierig	krank	1	blank2r.bmp	0	1	+	0	1	blank2r.bmp	500	1	CPLW	500	1	blank2r.bmp	880	1	vergnügt	880	1	!	1232	1	!	1343	0	0	0	0	0	0
2024-06-05	11:36:52	11:45:37	524069	6.6.1	4_exp_EVA_AWA_CON	66	A	B	Rpleas_acq	Oppo	Rpleas	1pleas	acq_US_unple_nomask	acq45_nomask	4	7	400	0	300	300	0	0	556	46	1	0	vergnügt	vertrauen	sonnig	träumen	besonnen	gesittet	verbissen	versagen	sterben	töten	bange	geizig	kuss	anregung	genießen	engagiert	gütig	kreativ	krise	ausrottung	gemein	engstirnig	gierig	krank	1	blank2r.bmp	0	1	+	0	1	blank2r.bmp	500	1	DHJF	500	1	blank2r.bmp	880	6	geizig	880	1	!	1232	1	!	-1	0	0	0	0	0	0
2024-06-05	11:36:52	11:45:39	526247	6.6.1	4_exp_EVA_AWA_CON	66	A	B	Rpleas_acq	Oppo	Rpleas	1pleas	acq_US_unple_nomask	acq45_nomask	4	8	400	1	300	300	0	0	400	50	0	0	vergnügt	vertrauen	sonnig	träumen	besonnen	gesittet	verbissen	versagen	sterben	töten	bange	geizig	kuss	anregung	genießen	engagiert	gütig	kreativ	krise	ausrottung	gemein	engstirnig	gierig	krank	1	blank2r.bmp	0	1	+	0	1	blank2r.bmp	500	1	DHJF	500	1	blank2r.bmp	880	2	versagen	880	1	!	1233	1	!	1302	0	0	0	0	0	0
2024-06-05	11:36:52	11:45:41	528455	6.6.1	4_exp_EVA_AWA_CON	66	A	B	Rpleas_acq	Oppo	Rpleas	1pleas	acq_US_unple_nomask	acq45_nomask	4	9	400	1	300	300	0	0	428	46	1	0	vergnügt	vertrauen	sonnig	träumen	besonnen	gesittet	verbissen	versagen	sterben	töten	bange	geizig	kuss	anregung	genießen	engagiert	gütig	kreativ	krise	ausrottung	gemein	engstirnig	gierig	krank	1	blank2r.bmp	0	1	+	0	1	blank2r.bmp	500	1	DHJF	500	1	blank2r.bmp	880	3	sterben	880	1	!	1232	1	!	1329	0	0	0	0	0	0
2024-06-05	11:36:52	11:45:43	530687	6.6.1	4_exp_EVA_AWA_CON	66	A	B	Rpleas_acq	Oppo	Rpleas	1pleas	acq_US_unple_nomask	acq45_nomask	4	10	400	1	300	300	0	0	447	46	1	0	vergnügt	vertrauen	sonnig	träumen	besonnen	gesittet	verbissen	versagen	sterben	töten	bange	geizig	kuss	anregung	genießen	engagiert	gütig	kreativ	krise	ausrottung	gemein	engstirnig	gierig	krank	1	blank2r.bmp	0	1	+	0	1	blank2r.bmp	500	1	DHJF	500	1	blank2r.bmp	880	4	töten	880	1	!	1233	1	!	1349	0	0	0	0	0	0
2024-06-05	11:36:52	11:45:46	532887	6.6.1	4_exp_EVA_AWA_CON	66	A	B	Rpleas_acq	Oppo	Rpleas	1pleas	acq_US_unple_nomask	acq45_nomask	4	11	400	1	300	300	0	0	417	50	0	0	vergnügt	vertrauen	sonnig	träumen	besonnen	gesittet	verbissen	versagen	sterben	töten	bange	geizig	kuss	anregung	genießen	engagiert	gütig	kreativ	krise	ausrottung	gemein	engstirnig	gierig	krank	1	blank2r.bmp	0	1	+	0	1	blank2r.bmp	500	1	DHJF	500	1	blank2r.bmp	880	3	sterben	880	1	!	1232	1	!	1318	0	0	0	0	0	0
2024-06-05	11:36:52	11:45:48	535119	6.6.1	4_exp_EVA_AWA_CON	66	A	B	Rpleas_acq	Oppo	Rpleas	1pleas	acq_US_pleas_nomask	acq45_nomask	4	12	400	1	300	300	0	0	458	50	1	0	vergnügt	vertrauen	sonnig	träumen	besonnen	gesittet	verbissen	versagen	sterben	töten	bange	geizig	kuss	anregung	genießen	engagiert	gütig	kreativ	krise	ausrottung	gemein	engstirnig	gierig	krank	1	blank2r.bmp	0	1	+	0	1	blank2r.bmp	500	1	CPLW	500	1	blank2r.bmp	880	5	besonnen	880	1	!	1232	1	!	1359	0	0	0	0	0	0
2024-06-05	11:36:52	11:45:50	537493	6.6.1	4_exp_EVA_AWA_CON	66	A	B	Rpleas_acq	Oppo	Rpleas	1pleas	acq_US_pleas_nomask	acq45_nomask	4	13	400	0	300	300	0	0	601	46	0	0	vergnügt	vertrauen	sonnig	träumen	besonnen	gesittet	verbissen	versagen	sterben	töten	bange	geizig	kuss	anregung	genießen	engagiert	gütig	kreativ	krise	ausrottung	gemein	engstirnig	gierig	krank	1	blank2r.bmp	0	1	+	0	1	blank2r.bmp	500	1	CPLW	500	1	blank2r.bmp	880	6	gesittet	880	1	!	1233	1	!	-1	0	0	0	0	0	0
2024-06-05	11:36:52	11:45:53	540405	6.6.1	4_exp_EVA_AWA_CON	66	A	B	Rpleas_acq	Oppo	Rpleas	1pleas	acq_US_pleas_nomask	acq45_nomask	4	14	400	0	300	300	0	0	1132	50	1	0	vergnügt	vertrauen	sonnig	träumen	besonnen	gesittet	verbissen	versagen	sterben	töten	bange	geizig	kuss	anregung	genießen	engagiert	gütig	kreativ	krise	ausrottung	gemein	engstirnig	gierig	krank	1	blank2r.bmp	0	1	+	0	1	blank2r.bmp	500	1	CPLW	500	1	blank2r.bmp	880	3	sonnig	880	1	!	1232	1	!	-1	0	0	0	0	0	0
2024-06-05	11:36:52	11:45:55	542469	6.6.1	4_exp_EVA_AWA_CON	66	A	B	Rpleas_acq	Oppo	Rpleas	1pleas	acq_US_unple_nomask	acq45_nomask	4	15	400	0	300	300	0	0	284	46	1	0	vergnügt	vertrauen	sonnig	träumen	besonnen	gesittet	verbissen	versagen	sterben	töten	bange	geizig	kuss	anregung	genießen	engagiert	gütig	kreativ	krise	ausrottung	gemein	engstirnig	gierig	krank	1	blank2r.bmp	0	1	+	0	1	blank2r.bmp	500	1	DHJF	500	1	blank2r.bmp	880	2	versagen	880	1	!	-1	1	!	-1	0	0	0	0	0	0
2024-06-05	11:36:52	11:45:57	544671	6.6.1	4_exp_EVA_AWA_CON	66	A	B	Rpleas_acq	Oppo	Rpleas	1pleas	acq_US_pleas_nomask	acq45_nomask	4	16	400	1	300	300	0	0	422	50	1	0	vergnügt	vertrauen	sonnig	träumen	besonnen	gesittet	verbissen	versagen	sterben	töten	bange	geizig	kuss	anregung	genießen	engagiert	gütig	kreativ	krise	ausrottung	gemein	engstirnig	gierig	krank	1	blank2r.bmp	0	1	+	0	1	blank2r.bmp	500	1	CPLW	500	1	blank2r.bmp	880	4	träumen	880	1	!	1232	1	!	1324	0	0	0	0	0	0
2024-06-05	11:36:52	11:46:00	546887	6.6.1	4_exp_EVA_AWA_CON	66	A	B	Rpleas_acq	Oppo	Rpleas	1pleas	acq_US_pleas_nomask	acq45_nomask	4	17	400	1	300	300	0	0	438	46	0	0	vergnügt	vertrauen	sonnig	träumen	besonnen	gesittet	verbissen	versagen	sterben	töten	bange	geizig	kuss	anregung	genießen	engagiert	gütig	kreativ	krise	ausrottung	gemein	engstirnig	gierig	krank	1	blank2r.bmp	0	1	+	0	1	blank2r.bmp	500	1	CPLW	500	1	blank2r.bmp	880	6	gesittet	880	1	!	1232	1	!	1339	0	0	0	0	0	0
2024-06-05	11:36:52	11:46:02	549031	6.6.1	4_exp_EVA_AWA_CON	66	A	B	Rpleas_acq	Oppo	Rpleas	1pleas	acq_US_pleas_nomask	acq45_nomask	4	18	400	1	300	300	0	0	360	50	1	0	vergnügt	vertrauen	sonnig	träumen	besonnen	gesittet	verbissen	versagen	sterben	töten	bange	geizig	kuss	anregung	genießen	engagiert	gütig	kreativ	krise	ausrottung	gemein	engstirnig	gierig	krank	1	blank2r.bmp	0	1	+	0	1	blank2r.bmp	500	1	CPLW	500	1	blank2r.bmp	880	3	sonnig	880	1	!	1232	1	!	1262	0	0	0	0	0	0
2024-06-05	11:36:52	11:46:04	551263	6.6.1	4_exp_EVA_AWA_CON	66	A	B	Rpleas_acq	Oppo	Rpleas	1pleas	acq_US_pleas_nomask	acq45_nomask	4	19	400	1	300	300	0	0	450	46	0	0	vergnügt	vertrauen	sonnig	träumen	besonnen	gesittet	verbissen	versagen	sterben	töten	bange	geizig	kuss	anregung	genießen	engagiert	gütig	kreativ	krise	ausrottung	gemein	engstirnig	gierig	krank	1	blank2r.bmp	0	1	+	0	1	blank2r.bmp	500	1	CPLW	500	1	blank2r.bmp	880	2	vertrauen	880	1	!	1232	1	!	1352	0	0	0	0	0	0
2024-06-05	11:36:52	11:46:06	553415	6.6.1	4_exp_EVA_AWA_CON	66	A	B	Rpleas_acq	Oppo	Rpleas	1pleas	acq_US_unple_nomask	acq45_nomask	4	20	400	1	300	300	0	0	371	46	1	0	vergnügt	vertrauen	sonnig	träumen	besonnen	gesittet	verbissen	versagen	sterben	töten	bange	geizig	kuss	anregung	genießen	engagiert	gütig	kreativ	krise	ausrottung	gemein	engstirnig	gierig	krank	1	blank2r.bmp	0	1	+	0	1	blank2r.bmp	500	1	DHJF	500	1	blank2r.bmp	880	6	geizig	880	1	!	1232	1	!	1272	0	0	0	0	0	0
2024-06-05	11:36:52	11:46:08	555663	6.6.1	4_exp_EVA_AWA_CON	66	A	B	Rpleas_acq	Oppo	Rpleas	1pleas	acq_US_unple_nomask	acq45_nomask	4	21	400	1	300	300	0	0	467	46	1	0	vergnügt	vertrauen	sonnig	träumen	besonnen	gesittet	verbissen	versagen	sterben	töten	bange	geizig	kuss	anregung	genießen	engagiert	gütig	kreativ	krise	ausrottung	gemein	engstirnig	gierig	krank	1	blank2r.bmp	0	1	+	0	1	blank2r.bmp	500	1	DHJF	500	1	blank2r.bmp	880	5	bange	880	1	!	1233	1	!	1369	0	0	0	0	0	0
2024-06-05	11:36:52	11:46:11	557981	6.6.1	4_exp_EVA_AWA_CON	66	A	B	Rpleas_acq	Oppo	Rpleas	1pleas	acq_US_unple_nomask	acq45_nomask	4	22	400	0	300	300	0	0	546	50	0	0	vergnügt	vertrauen	sonnig	träumen	besonnen	gesittet	verbissen	versagen	sterben	töten	bange	geizig	kuss	anregung	genießen	engagiert	gütig	kreativ	krise	ausrottung	gemein	engstirnig	gierig	krank	1	blank2r.bmp	0	1	+	0	1	blank2r.bmp	500	1	DHJF	500	1	blank2r.bmp	880	1	verbissen	880	1	!	1232	1	!	-1	0	0	0	0	0	0
2024-06-05	11:36:52	11:46:13	560207	6.6.1	4_exp_EVA_AWA_CON	66	A	B	Rpleas_acq	Oppo	Rpleas	1pleas	acq_US_pleas_nomask	acq45_nomask	4	23	400	1	300	300	0	0	450	50	1	0	vergnügt	vertrauen	sonnig	träumen	besonnen	gesittet	verbissen	versagen	sterben	töten	bange	geizig	kuss	anregung	genießen	engagiert	gütig	kreativ	krise	ausrottung	gemein	engstirnig	gierig	krank	1	blank2r.bmp	0	1	+	0	1	blank2r.bmp	500	1	CPLW	500	1	blank2r.bmp	880	1	vergnügt	880	1	!	1232	1	!	1350	0	0	0	0	0	0
2024-06-05	11:36:52	11:46:15	562459	6.6.1	4_exp_EVA_AWA_CON	66	A	B	Rpleas_acq	Oppo	Rpleas	1pleas	acq_US_pleas_nomask	acq45_nomask	4	24	400	0	300	300	0	0	473	50	1	0	vergnügt	vertrauen	sonnig	träumen	besonnen	gesittet	verbissen	versagen	sterben	töten	bange	geizig	kuss	anregung	genießen	engagiert	gütig	kreativ	krise	ausrottung	gemein	engstirnig	gierig	krank	1	blank2r.bmp	0	1	+	0	1	blank2r.bmp	500	1	CPLW	500	1	blank2r.bmp	880	5	besonnen	880	1	!	1232	1	!	-1	0	0	0	0	0	0
2024-06-05	11:36:52	11:46:17	564725	6.6.1	4_exp_EVA_AWA_CON	66	A	B	Rpleas_acq	Oppo	Rpleas	1pleas	acq_US_pleas_nomask	acq45_nomask	4	25	400	0	300	300	0	0	486	46	0	0	vergnügt	vertrauen	sonnig	träumen	besonnen	gesittet	verbissen	versagen	sterben	töten	bange	geizig	kuss	anregung	genießen	engagiert	gütig	kreativ	krise	ausrottung	gemein	engstirnig	gierig	krank	1	blank2r.bmp	0	1	+	0	1	blank2r.bmp	500	1	CPLW	500	1	blank2r.bmp	880	4	träumen	880	1	!	1232	1	!	-1	0	0	0	0	0	0
2024-06-05	11:36:52	11:46:20	566959	6.6.1	4_exp_EVA_AWA_CON	66	A	B	Rpleas_acq	Oppo	Rpleas	1pleas	acq_US_unple_nomask	acq45_nomask	4	26	400	1	300	300	0	0	456	46	1	0	vergnügt	vertrauen	sonnig	träumen	besonnen	gesittet	verbissen	versagen	sterben	töten	bange	geizig	kuss	anregung	genießen	engagiert	gütig	kreativ	krise	ausrottung	gemein	engstirnig	gierig	krank	1	blank2r.bmp	0	1	+	0	1	blank2r.bmp	500	1	DHJF	500	1	blank2r.bmp	880	4	töten	880	1	!	1232	1	!	1358	0	0	0	0	0	0
2024-06-05	11:36:52	11:46:22	569261	6.6.1	4_exp_EVA_AWA_CON	66	A	B	Rpleas_acq	Oppo	Rpleas	1pleas	acq_US_pleas_nomask	acq45_nomask	4	27	400	0	300	300	0	0	529	50	1	0	vergnügt	vertrauen	sonnig	träumen	besonnen	gesittet	verbissen	versagen	sterben	töten	bange	geizig	kuss	anregung	genießen	engagiert	gütig	kreativ	krise	ausrottung	gemein	engstirnig	gierig	krank	1	blank2r.bmp	0	1	+	0	1	blank2r.bmp	500	1	CPLW	500	1	blank2r.bmp	880	1	vergnügt	880	1	!	1232	1	!	-1	0	0	0	0	0	0
2024-06-05	11:36:52	11:46:24	571478	6.6.1	4_exp_EVA_AWA_CON	66	A	B	Rpleas_acq	Oppo	Rpleas	1pleas	acq_US_unple_nomask	acq45_nomask	4	28	400	1	300	300	0	0	433	46	1	0	vergnügt	vertrauen	sonnig	träumen	besonnen	gesittet	verbissen	versagen	sterben	töten	bange	geizig	kuss	anregung	genießen	engagiert	gütig	kreativ	krise	ausrottung	gemein	engstirnig	gierig	krank	1	blank2r.bmp	0	1	+	0	1	blank2r.bmp	500	1	DHJF	500	1	blank2r.bmp	880	1	verbissen	880	1	!	1232	1	!	1335	0	0	0	0	0	0
2024-06-05	11:36:52	11:46:26	573623	6.6.1	4_exp_EVA_AWA_CON	66	A	B	Rpleas_acq	Oppo	Rpleas	1pleas	acq_US_unple_nomask	acq45_nomask	4	29	400	1	300	300	0	0	367	46	1	0	vergnügt	vertrauen	sonnig	träumen	besonnen	gesittet	verbissen	versagen	sterben	töten	bange	geizig	kuss	anregung	genießen	engagiert	gütig	kreativ	krise	ausrottung	gemein	engstirnig	gierig	krank	1	blank2r.bmp	0	1	+	0	1	blank2r.bmp	500	1	DHJF	500	1	blank2r.bmp	880	3	sterben	880	1	!	1232	1	!	1268	0	0	0	0	0	0
2024-06-05	11:36:52	11:46:28	575701	6.6.1	4_exp_EVA_AWA_CON	66	A	B	Rpleas_acq	Oppo	Rpleas	1pleas	acq_US_pleas_nomask	acq45_nomask	4	30	400	0	300	300	0	0	305	50	1	0	vergnügt	vertrauen	sonnig	träumen	besonnen	gesittet	verbissen	versagen	sterben	töten	bange	geizig	kuss	anregung	genießen	engagiert	gütig	kreativ	krise	ausrottung	gemein	engstirnig	gierig	krank	1	blank2r.bmp	0	1	+	0	1	blank2r.bmp	500	1	CPLW	500	1	blank2r.bmp	880	2	vertrauen	880	1	!	-1	1	!	-1	0	0	0	0	0	0
2024-06-05	11:36:52	11:46:31	577903	6.6.1	4_exp_EVA_AWA_CON	66	A	B	Rpleas_acq	Oppo	Rpleas	1pleas	acq_US_unple_nomask	acq45_nomask	4	31	400	1	300	300	0	0	424	46	1	0	vergnügt	vertrauen	sonnig	träumen	besonnen	gesittet	verbissen	versagen	sterben	töten	bange	geizig	kuss	anregung	genießen	engagiert	gütig	kreativ	krise	ausrottung	gemein	engstirnig	gierig	krank	1	blank2r.bmp	0	1	+	0	1	blank2r.bmp	500	1	DHJF	500	1	blank2r.bmp	880	5	bange	880	1	!	1232	1	!	1325	0	0	0	0	0	0
2024-06-05	11:36:52	11:46:33	580021	6.6.1	4_exp_EVA_AWA_CON	66	A	B	Rpleas_acq	Oppo	Rpleas	1pleas	acq_US_pleas_nomask	acq45_nomask	4	32	400	1	300	300	0	0	343	50	1	0	vergnügt	vertrauen	sonnig	träumen	besonnen	gesittet	verbissen	versagen	sterben	töten	bange	geizig	kuss	anregung	genießen	engagiert	gütig	kreativ	krise	ausrottung	gemein	engstirnig	gierig	krank	1	blank2r.bmp	0	1	+	0	1	blank2r.bmp	500	1	CPLW	500	1	blank2r.bmp	880	6	gesittet	880	1	!	1232	1	!	1242	0	0	0	0	0	0
2024-06-05	11:36:52	11:46:35	582301	6.6.1	4_exp_EVA_AWA_CON	66	A	B	Rpleas_acq	Oppo	Rpleas	1pleas	acq_US_unple_nomask	acq45_nomask	4	33	400	0	300	300	0	0	501	46	1	0	vergnügt	vertrauen	sonnig	träumen	besonnen	gesittet	verbissen	versagen	sterben	töten	bange	geizig	kuss	anregung	genießen	engagiert	gütig	kreativ	krise	ausrottung	gemein	engstirnig	gierig	krank	1	blank2r.bmp	0	1	+	0	1	blank2r.bmp	500	1	DHJF	500	1	blank2r.bmp	880	6	geizig	880	1	!	1232	1	!	-1	0	0	0	0	0	0
2024-06-05	11:36:52	11:46:37	584487	6.6.1	4_exp_EVA_AWA_CON	66	A	B	Rpleas_acq	Oppo	Rpleas	1pleas	acq_US_pleas_nomask	acq45_nomask	4	34	400	1	300	300	0	0	404	50	1	0	vergnügt	vertrauen	sonnig	träumen	besonnen	gesittet	verbissen	versagen	sterben	töten	bange	geizig	kuss	anregung	genießen	engagiert	gütig	kreativ	krise	ausrottung	gemein	engstirnig	gierig	krank	1	blank2r.bmp	0	1	+	0	1	blank2r.bmp	500	1	CPLW	500	1	blank2r.bmp	880	5	besonnen	880	1	!	1232	1	!	1304	0	0	0	0	0	0
2024-06-05	11:36:52	11:46:39	586679	6.6.1	4_exp_EVA_AWA_CON	66	A	B	Rpleas_acq	Oppo	Rpleas	1pleas	acq_US_unple_nomask	acq45_nomask	4	35	400	1	300	300	0	0	413	46	1	0	vergnügt	vertrauen	sonnig	träumen	besonnen	gesittet	verbissen	versagen	sterben	töten	bange	geizig	kuss	anregung	genießen	engagiert	gütig	kreativ	krise	ausrottung	gemein	engstirnig	gierig	krank	1	blank2r.bmp	0	1	+	0	1	blank2r.bmp	500	1	DHJF	500	1	blank2r.bmp	880	2	versagen	880	1	!	1232	1	!	1315	0	0	0	0	0	0
2024-06-05	11:36:52	11:46:41	588831	6.6.1	4_exp_EVA_AWA_CON	66	A	B	Rpleas_acq	Oppo	Rpleas	1pleas	acq_US_pleas_nomask	acq45_nomask	4	36	400	1	300	300	0	0	374	50	1	0	vergnügt	vertrauen	sonnig	träumen	besonnen	gesittet	verbissen	versagen	sterben	töten	bange	geizig	kuss	anregung	genießen	engagiert	gütig	kreativ	krise	ausrottung	gemein	engstirnig	gierig	krank	1	blank2r.bmp	0	1	+	0	1	blank2r.bmp	500	1	CPLW	500	1	blank2r.bmp	880	3	sonnig	880	1	!	1232	1	!	1276	0	0	0	0	0	0
2024-06-05	11:36:52	11:46:53	599997	6.6.1	4_exp_EVA_AWA_CON	66	A	B	Rpleas_acq	Oppo	Rpleas	1pleas	acq_US_pleas_nomask	acq45_nomask	5	1	400	0	300	300	0	0	525	50	1	0	vergnügt	vertrauen	sonnig	träumen	besonnen	gesittet	verbissen	versagen	sterben	töten	bange	geizig	kuss	anregung	genießen	engagiert	gütig	kreativ	krise	ausrottung	gemein	engstirnig	gierig	krank	1	blank2r.bmp	0	1	+	0	1	blank2r.bmp	500	1	CPLW	500	1	blank2r.bmp	880	3	sonnig	880	1	!	1232	1	!	-1	0	0	0	0	0	0
2024-06-05	11:36:52	11:46:55	602135	6.6.1	4_exp_EVA_AWA_CON	66	A	B	Rpleas_acq	Oppo	Rpleas	1pleas	acq_US_pleas_nomask	acq45_nomask	5	2	400	1	300	300	0	0	360	46	0	0	vergnügt	vertrauen	sonnig	träumen	besonnen	gesittet	verbissen	versagen	sterben	töten	bange	geizig	kuss	anregung	genießen	engagiert	gütig	kreativ	krise	ausrottung	gemein	engstirnig	gierig	krank	1	blank2r.bmp	0	1	+	0	1	blank2r.bmp	500	1	CPLW	500	1	blank2r.bmp	880	6	gesittet	880	1	!	1232	1	!	1262	0	0	0	0	0	0
2024-06-05	11:36:52	11:46:57	604271	6.6.1	4_exp_EVA_AWA_CON	66	A	B	Rpleas_acq	Oppo	Rpleas	1pleas	acq_US_pleas_nomask	acq45_nomask	5	3	400	1	300	300	0	0	354	50	1	0	vergnügt	vertrauen	sonnig	träumen	besonnen	gesittet	verbissen	versagen	sterben	töten	bange	geizig	kuss	anregung	genießen	engagiert	gütig	kreativ	krise	ausrottung	gemein	engstirnig	gierig	krank	1	blank2r.bmp	0	1	+	0	1	blank2r.bmp	500	1	CPLW	500	1	blank2r.bmp	880	2	vertrauen	880	1	!	1232	1	!	1256	0	0	0	0	0	0
2024-06-05	11:36:52	11:46:59	606399	6.6.1	4_exp_EVA_AWA_CON	66	A	B	Rpleas_acq	Oppo	Rpleas	1pleas	acq_US_pleas_nomask	acq45_nomask	5	4	400	1	300	300	0	0	351	46	0	0	vergnügt	vertrauen	sonnig	träumen	besonnen	gesittet	verbissen	versagen	sterben	töten	bange	geizig	kuss	anregung	genießen	engagiert	gütig	kreativ	krise	ausrottung	gemein	engstirnig	gierig	krank	1	blank2r.bmp	0	1	+	0	1	blank2r.bmp	500	1	CPLW	500	1	blank2r.bmp	880	5	besonnen	880	1	!	1232	1	!	1252	0	0	0	0	0	0
2024-06-05	11:36:52	11:47:01	608526	6.6.1	4_exp_EVA_AWA_CON	66	A	B	Rpleas_acq	Oppo	Rpleas	1pleas	acq_US_unple_nomask	acq45_nomask	5	5	400	1	300	300	0	0	347	46	1	0	vergnügt	vertrauen	sonnig	träumen	besonnen	gesittet	verbissen	versagen	sterben	töten	bange	geizig	kuss	anregung	genießen	engagiert	gütig	kreativ	krise	ausrottung	gemein	engstirnig	gierig	krank	1	blank2r.bmp	0	1	+	0	1	blank2r.bmp	500	1	DHJF	500	1	blank2r.bmp	880	3	sterben	880	1	!	1232	1	!	1249	0	0	0	0	0	0
2024-06-05	11:36:52	11:47:03	610647	6.6.1	4_exp_EVA_AWA_CON	66	A	B	Rpleas_acq	Oppo	Rpleas	1pleas	acq_US_pleas_nomask	acq45_nomask	5	6	400	1	300	300	0	0	347	50	1	0	vergnügt	vertrauen	sonnig	träumen	besonnen	gesittet	verbissen	versagen	sterben	töten	bange	geizig	kuss	anregung	genießen	engagiert	gütig	kreativ	krise	ausrottung	gemein	engstirnig	gierig	krank	1	blank2r.bmp	0	1	+	0	1	blank2r.bmp	500	1	CPLW	500	1	blank2r.bmp	880	4	träumen	880	1	!	1232	1	!	1248	0	0	0	0	0	0
2024-06-05	11:36:52	11:47:05	612767	6.6.1	4_exp_EVA_AWA_CON	66	A	B	Rpleas_acq	Oppo	Rpleas	1pleas	acq_US_unple_nomask	acq45_nomask	5	7	400	1	300	300	0	0	345	46	1	0	vergnügt	vertrauen	sonnig	träumen	besonnen	gesittet	verbissen	versagen	sterben	töten	bange	geizig	kuss	anregung	genießen	engagiert	gütig	kreativ	krise	ausrottung	gemein	engstirnig	gierig	krank	1	blank2r.bmp	0	1	+	0	1	blank2r.bmp	500	1	DHJF	500	1	blank2r.bmp	880	4	töten	880	1	!	1232	1	!	1246	0	0	0	0	0	0
2024-06-05	11:36:52	11:47:08	614935	6.6.1	4_exp_EVA_AWA_CON	66	A	B	Rpleas_acq	Oppo	Rpleas	1pleas	acq_US_unple_nomask	acq45_nomask	5	8	400	1	300	300	0	0	392	46	1	0	vergnügt	vertrauen	sonnig	träumen	besonnen	gesittet	verbissen	versagen	sterben	töten	bange	geizig	kuss	anregung	genießen	engagiert	gütig	kreativ	krise	ausrottung	gemein	engstirnig	gierig	krank	1	blank2r.bmp	0	1	+	0	1	blank2r.bmp	500	1	DHJF	500	1	blank2r.bmp	880	5	bange	880	1	!	1232	1	!	1293	0	0	0	0	0	0
2024-06-05	11:36:52	11:47:10	617029	6.6.1	4_exp_EVA_AWA_CON	66	A	B	Rpleas_acq	Oppo	Rpleas	1pleas	acq_US_unple_nomask	acq45_nomask	5	9	400	0	300	300	0	0	316	50	0	0	vergnügt	vertrauen	sonnig	träumen	besonnen	gesittet	verbissen	versagen	sterben	töten	bange	geizig	kuss	anregung	genießen	engagiert	gütig	kreativ	krise	ausrottung	gemein	engstirnig	gierig	krank	1	blank2r.bmp	0	1	+	0	1	blank2r.bmp	500	1	DHJF	500	1	blank2r.bmp	880	1	verbissen	880	1	!	-1	1	!	-1	0	0	0	0	0	0
2024-06-05	11:36:52	11:47:12	619357	6.6.1	4_exp_EVA_AWA_CON	66	A	B	Rpleas_acq	Oppo	Rpleas	1pleas	acq_US_pleas_nomask	acq45_nomask	5	10	400	0	300	300	0	0	554	50	1	0	vergnügt	vertrauen	sonnig	träumen	besonnen	gesittet	verbissen	versagen	sterben	töten	bange	geizig	kuss	anregung	genießen	engagiert	gütig	kreativ	krise	ausrottung	gemein	engstirnig	gierig	krank	1	blank2r.bmp	0	1	+	0	1	blank2r.bmp	500	1	CPLW	500	1	blank2r.bmp	880	1	vergnügt	880	1	!	1232	1	!	-1	0	0	0	0	0	0
2024-06-05	11:36:52	11:47:14	621527	6.6.1	4_exp_EVA_AWA_CON	66	A	B	Rpleas_acq	Oppo	Rpleas	1pleas	acq_US_pleas_nomask	acq45_nomask	5	11	400	1	300	300	0	0	389	50	1	0	vergnügt	vertrauen	sonnig	träumen	besonnen	gesittet	verbissen	versagen	sterben	töten	bange	geizig	kuss	anregung	genießen	engagiert	gütig	kreativ	krise	ausrottung	gemein	engstirnig	gierig	krank	1	blank2r.bmp	0	1	+	0	1	blank2r.bmp	500	1	CPLW	500	1	blank2r.bmp	880	1	vergnügt	880	1	!	1232	1	!	1291	0	0	0	0	0	0
2024-06-05	11:36:52	11:47:16	623549	6.6.1	4_exp_EVA_AWA_CON	66	A	B	Rpleas_acq	Oppo	Rpleas	1pleas	acq_US_unple_nomask	acq45_nomask	5	12	400	0	300	300	0	0	242	46	1	0	vergnügt	vertrauen	sonnig	träumen	besonnen	gesittet	verbissen	versagen	sterben	töten	bange	geizig	kuss	anregung	genießen	engagiert	gütig	kreativ	krise	ausrottung	gemein	engstirnig	gierig	krank	1	blank2r.bmp	0	1	+	0	1	blank2r.bmp	500	1	DHJF	500	1	blank2r.bmp	880	6	geizig	880	1	!	-1	1	!	-1	0	0	0	0	0	0
2024-06-05	11:36:52	11:47:18	625703	6.6.1	4_exp_EVA_AWA_CON	66	A	B	Rpleas_acq	Oppo	Rpleas	1pleas	acq_US_unple_nomask	acq45_nomask	5	13	400	1	300	300	0	0	372	50	0	0	vergnügt	vertrauen	sonnig	träumen	besonnen	gesittet	verbissen	versagen	sterben	töten	bange	geizig	kuss	anregung	genießen	engagiert	gütig	kreativ	krise	ausrottung	gemein	engstirnig	gierig	krank	1	blank2r.bmp	0	1	+	0	1	blank2r.bmp	500	1	DHJF	500	1	blank2r.bmp	880	2	versagen	880	1	!	1233	1	!	1274	0	0	0	0	0	0
2024-06-05	11:36:52	11:47:21	627919	6.6.1	4_exp_EVA_AWA_CON	66	A	B	Rpleas_acq	Oppo	Rpleas	1pleas	acq_US_unple_nomask	acq45_nomask	5	14	400	1	300	300	0	0	437	50	0	0	vergnügt	vertrauen	sonnig	träumen	besonnen	gesittet	verbissen	versagen	sterben	töten	bange	geizig	kuss	anregung	genießen	engagiert	gütig	kreativ	krise	ausrottung	gemein	engstirnig	gierig	krank	1	blank2r.bmp	0	1	+	0	1	blank2r.bmp	500	1	DHJF	500	1	blank2r.bmp	880	1	verbissen	880	1	!	1232	1	!	1339	0	0	0	0	0	0
2024-06-05	11:36:52	11:47:23	630413	6.6.1	4_exp_EVA_AWA_CON	66	A	B	Rpleas_acq	Oppo	Rpleas	1pleas	acq_US_pleas_nomask	acq45_nomask	5	15	400	0	300	300	0	0	722	50	1	0	vergnügt	vertrauen	sonnig	träumen	besonnen	gesittet	verbissen	versagen	sterben	töten	bange	geizig	kuss	anregung	genießen	engagiert	gütig	kreativ	krise	ausrottung	gemein	engstirnig	gierig	krank	1	blank2r.bmp	0	1	+	0	1	blank2r.bmp	500	1	CPLW	500	1	blank2r.bmp	880	4	träumen	880	1	!	1232	1	!	-1	0	0	0	0	0	0
2024-06-05	11:36:52	11:47:25	632639	6.6.1	4_exp_EVA_AWA_CON	66	A	B	Rpleas_acq	Oppo	Rpleas	1pleas	acq_US_unple_nomask	acq45_nomask	5	16	400	1	300	300	0	0	444	46	1	0	vergnügt	vertrauen	sonnig	träumen	besonnen	gesittet	verbissen	versagen	sterben	töten	bange	geizig	kuss	anregung	genießen	engagiert	gütig	kreativ	krise	ausrottung	gemein	engstirnig	gierig	krank	1	blank2r.bmp	0	1	+	0	1	blank2r.bmp	500	1	DHJF	500	1	blank2r.bmp	880	4	töten	880	1	!	1232	1	!	1346	0	0	0	0	0	0
2024-06-05	11:36:52	11:47:27	634847	6.6.1	4_exp_EVA_AWA_CON	66	A	B	Rpleas_acq	Oppo	Rpleas	1pleas	acq_US_unple_nomask	acq45_nomask	5	17	400	1	300	300	0	0	431	46	1	0	vergnügt	vertrauen	sonnig	träumen	besonnen	gesittet	verbissen	versagen	sterben	töten	bange	geizig	kuss	anregung	genießen	engagiert	gütig	kreativ	krise	ausrottung	gemein	engstirnig	gierig	krank	1	blank2r.bmp	0	1	+	0	1	blank2r.bmp	500	1	DHJF	500	1	blank2r.bmp	880	6	geizig	880	1	!	1232	1	!	1332	0	0	0	0	0	0
2024-06-05	11:36:52	11:47:30	637007	6.6.1	4_exp_EVA_AWA_CON	66	A	B	Rpleas_acq	Oppo	Rpleas	1pleas	acq_US_pleas_nomask	acq45_nomask	5	18	400	1	300	300	0	0	379	50	1	0	vergnügt	vertrauen	sonnig	träumen	besonnen	gesittet	verbissen	versagen	sterben	töten	bange	geizig	kuss	anregung	genießen	engagiert	gütig	kreativ	krise	ausrottung	gemein	engstirnig	gierig	krank	1	blank2r.bmp	0	1	+	0	1	blank2r.bmp	500	1	CPLW	500	1	blank2r.bmp	880	5	besonnen	880	1	!	1232	1	!	1282	0	0	0	0	0	0
2024-06-05	11:36:52	11:47:32	639143	6.6.1	4_exp_EVA_AWA_CON	66	A	B	Rpleas_acq	Oppo	Rpleas	1pleas	acq_US_pleas_nomask	acq45_nomask	5	19	400	1	300	300	0	0	354	46	0	0	vergnügt	vertrauen	sonnig	träumen	besonnen	gesittet	verbissen	versagen	sterben	töten	bange	geizig	kuss	anregung	genießen	engagiert	gütig	kreativ	krise	ausrottung	gemein	engstirnig	gierig	krank	1	blank2r.bmp	0	1	+	0	1	blank2r.bmp	500	1	CPLW	500	1	blank2r.bmp	880	2	vertrauen	880	1	!	1232	1	!	1255	0	0	0	0	0	0
2024-06-05	11:36:52	11:47:34	641383	6.6.1	4_exp_EVA_AWA_CON	66	A	B	Rpleas_acq	Oppo	Rpleas	1pleas	acq_US_unple_nomask	acq45_nomask	5	20	400	1	300	300	0	0	463	46	1	0	vergnügt	vertrauen	sonnig	träumen	besonnen	gesittet	verbissen	versagen	sterben	töten	bange	geizig	kuss	anregung	genießen	engagiert	gütig	kreativ	krise	ausrottung	gemein	engstirnig	gierig	krank	1	blank2r.bmp	0	1	+	0	1	blank2r.bmp	500	1	DHJF	500	1	blank2r.bmp	880	3	sterben	880	1	!	1232	1	!	1364	0	0	0	0	0	0
2024-06-05	11:36:52	11:47:36	643583	6.6.1	4_exp_EVA_AWA_CON	66	A	B	Rpleas_acq	Oppo	Rpleas	1pleas	acq_US_pleas_nomask	acq45_nomask	5	21	400	1	300	300	0	0	422	50	1	0	vergnügt	vertrauen	sonnig	träumen	besonnen	gesittet	verbissen	versagen	sterben	töten	bange	geizig	kuss	anregung	genießen	engagiert	gütig	kreativ	krise	ausrottung	gemein	engstirnig	gierig	krank	1	blank2r.bmp	0	1	+	0	1	blank2r.bmp	500	1	CPLW	500	1	blank2r.bmp	880	6	gesittet	880	1	!	1233	1	!	1323	0	0	0	0	0	0
2024-06-05	11:36:52	11:47:38	645835	6.6.1	4_exp_EVA_AWA_CON	66	A	B	Rpleas_acq	Oppo	Rpleas	1pleas	acq_US_pleas_nomask	acq45_nomask	5	22	400	0	300	300	0	0	475	50	1	0	vergnügt	vertrauen	sonnig	träumen	besonnen	gesittet	verbissen	versagen	sterben	töten	bange	geizig	kuss	anregung	genießen	engagiert	gütig	kreativ	krise	ausrottung	gemein	engstirnig	gierig	krank	1	blank2r.bmp	0	1	+	0	1	blank2r.bmp	500	1	CPLW	500	1	blank2r.bmp	880	3	sonnig	880	1	!	1232	1	!	-1	0	0	0	0	0	0
2024-06-05	11:36:52	11:47:41	648007	6.6.1	4_exp_EVA_AWA_CON	66	A	B	Rpleas_acq	Oppo	Rpleas	1pleas	acq_US_unple_nomask	acq45_nomask	5	23	400	1	300	300	0	0	392	46	1	0	vergnügt	vertrauen	sonnig	träumen	besonnen	gesittet	verbissen	versagen	sterben	töten	bange	geizig	kuss	anregung	genießen	engagiert	gütig	kreativ	krise	ausrottung	gemein	engstirnig	gierig	krank	1	blank2r.bmp	0	1	+	0	1	blank2r.bmp	500	1	DHJF	500	1	blank2r.bmp	880	5	bange	880	1	!	1232	1	!	1294	0	0	0	0	0	0
2024-06-05	11:36:52	11:47:43	650293	6.6.1	4_exp_EVA_AWA_CON	66	A	B	Rpleas_acq	Oppo	Rpleas	1pleas	acq_US_unple_nomask	acq45_nomask	5	24	400	0	300	300	0	0	509	50	0	0	vergnügt	vertrauen	sonnig	träumen	besonnen	gesittet	verbissen	versagen	sterben	töten	bange	geizig	kuss	anregung	genießen	engagiert	gütig	kreativ	krise	ausrottung	gemein	engstirnig	gierig	krank	1	blank2r.bmp	0	1	+	0	1	blank2r.bmp	500	1	DHJF	500	1	blank2r.bmp	880	2	versagen	880	1	!	1232	1	!	-1	0	0	0	0	0	0
2024-06-05	11:36:52	11:47:45	652447	6.6.1	4_exp_EVA_AWA_CON	66	A	B	Rpleas_acq	Oppo	Rpleas	1pleas	acq_US_unple_nomask	acq45_nomask	5	25	400	1	300	300	0	0	379	50	0	0	vergnügt	vertrauen	sonnig	träumen	besonnen	gesittet	verbissen	versagen	sterben	töten	bange	geizig	kuss	anregung	genießen	engagiert	gütig	kreativ	krise	ausrottung	gemein	engstirnig	gierig	krank	1	blank2r.bmp	0	1	+	0	1	blank2r.bmp	500	1	DHJF	500	1	blank2r.bmp	880	4	töten	880	1	!	1232	1	!	1282	0	0	0	0	0	0
2024-06-05	11:36:52	11:47:47	654699	6.6.1	4_exp_EVA_AWA_CON	66	A	B	Rpleas_acq	Oppo	Rpleas	1pleas	acq_US_pleas_nomask	acq45_nomask	5	26	400	0	300	300	0	0	474	50	1	0	vergnügt	vertrauen	sonnig	träumen	besonnen	gesittet	verbissen	versagen	sterben	töten	bange	geizig	kuss	anregung	genießen	engagiert	gütig	kreativ	krise	ausrottung	gemein	engstirnig	gierig	krank	1	blank2r.bmp	0	1	+	0	1	blank2r.bmp	500	1	CPLW	500	1	blank2r.bmp	880	6	gesittet	880	1	!	1233	1	!	-1	0	0	0	0	0	0
2024-06-05	11:36:52	11:47:49	656773	6.6.1	4_exp_EVA_AWA_CON	66	A	B	Rpleas_acq	Oppo	Rpleas	1pleas	acq_US_unple_nomask	acq45_nomask	5	27	400	0	300	300	0	0	294	46	1	0	vergnügt	vertrauen	sonnig	träumen	besonnen	gesittet	verbissen	versagen	sterben	töten	bange	geizig	kuss	anregung	genießen	engagiert	gütig	kreativ	krise	ausrottung	gemein	engstirnig	gierig	krank	1	blank2r.bmp	0	1	+	0	1	blank2r.bmp	500	1	DHJF	500	1	blank2r.bmp	880	1	verbissen	880	1	!	-1	1	!	-1	0	0	0	0	0	0
2024-06-05	11:36:52	11:47:52	658935	6.6.1	4_exp_EVA_AWA_CON	66	A	B	Rpleas_acq	Oppo	Rpleas	1pleas	acq_US_unple_nomask	acq45_nomask	5	28	400	1	300	300	0	0	383	46	1	0	vergnügt	vertrauen	sonnig	träumen	besonnen	gesittet	verbissen	versagen	sterben	töten	bange	geizig	kuss	anregung	genießen	engagiert	gütig	kreativ	krise	ausrottung	gemein	engstirnig	gierig	krank	1	blank2r.bmp	0	1	+	0	1	blank2r.bmp	500	1	DHJF	500	1	blank2r.bmp	880	5	bange	880	1	!	1232	1	!	1285	0	0	0	0	0	0
2024-06-05	11:36:52	11:47:54	661070	6.6.1	4_exp_EVA_AWA_CON	66	A	B	Rpleas_acq	Oppo	Rpleas	1pleas	acq_US_pleas_nomask	acq45_nomask	5	29	400	1	300	300	0	0	358	50	1	0	vergnügt	vertrauen	sonnig	träumen	besonnen	gesittet	verbissen	versagen	sterben	töten	bange	geizig	kuss	anregung	genießen	engagiert	gütig	kreativ	krise	ausrottung	gemein	engstirnig	gierig	krank	1	blank2r.bmp	0	1	+	0	1	blank2r.bmp	500	1	CPLW	500	1	blank2r.bmp	880	2	vertrauen	880	1	!	1232	1	!	1259	0	0	0	0	0	0
2024-06-05	11:36:52	11:47:56	663246	6.6.1	4_exp_EVA_AWA_CON	66	A	B	Rpleas_acq	Oppo	Rpleas	1pleas	acq_US_pleas_nomask	acq45_nomask	5	30	400	1	300	300	0	0	402	50	1	0	vergnügt	vertrauen	sonnig	träumen	besonnen	gesittet	verbissen	versagen	sterben	töten	bange	geizig	kuss	anregung	genießen	engagiert	gütig	kreativ	krise	ausrottung	gemein	engstirnig	gierig	krank	1	blank2r.bmp	0	1	+	0	1	blank2r.bmp	500	1	CPLW	500	1	blank2r.bmp	880	4	träumen	880	1	!	1232	1	!	1304	0	0	0	0	0	0
2024-06-05	11:36:52	11:47:58	665487	6.6.1	4_exp_EVA_AWA_CON	66	A	B	Rpleas_acq	Oppo	Rpleas	1pleas	acq_US_pleas_nomask	acq45_nomask	5	31	400	1	300	300	0	0	461	50	1	0	vergnügt	vertrauen	sonnig	träumen	besonnen	gesittet	verbissen	versagen	sterben	töten	bange	geizig	kuss	anregung	genießen	engagiert	gütig	kreativ	krise	ausrottung	gemein	engstirnig	gierig	krank	1	blank2r.bmp	0	1	+	0	1	blank2r.bmp	500	1	CPLW	500	1	blank2r.bmp	880	1	vergnügt	880	1	!	1232	1	!	1363	0	0	0	0	0	0
2024-06-05	11:36:52	11:48:00	667647	6.6.1	4_exp_EVA_AWA_CON	66	A	B	Rpleas_acq	Oppo	Rpleas	1pleas	acq_US_unple_nomask	acq45_nomask	5	32	400	1	300	300	0	0	379	50	0	0	vergnügt	vertrauen	sonnig	träumen	besonnen	gesittet	verbissen	versagen	sterben	töten	bange	geizig	kuss	anregung	genießen	engagiert	gütig	kreativ	krise	ausrottung	gemein	engstirnig	gierig	krank	1	blank2r.bmp	0	1	+	0	1	blank2r.bmp	500	1	DHJF	500	1	blank2r.bmp	880	6	geizig	880	1	!	1232	1	!	1282	0	0	0	0	0	0
2024-06-05	11:36:52	11:48:02	669775	6.6.1	4_exp_EVA_AWA_CON	66	A	B	Rpleas_acq	Oppo	Rpleas	1pleas	acq_US_unple_nomask	acq45_nomask	5	33	400	1	300	300	0	0	346	46	1	0	vergnügt	vertrauen	sonnig	träumen	besonnen	gesittet	verbissen	versagen	sterben	töten	bange	geizig	kuss	anregung	genießen	engagiert	gütig	kreativ	krise	ausrottung	gemein	engstirnig	gierig	krank	1	blank2r.bmp	0	1	+	0	1	blank2r.bmp	500	1	DHJF	500	1	blank2r.bmp	880	3	sterben	880	1	!	1232	1	!	1248	0	0	0	0	0	0
2024-06-05	11:36:52	11:48:05	671877	6.6.1	4_exp_EVA_AWA_CON	66	A	B	Rpleas_acq	Oppo	Rpleas	1pleas	acq_US_pleas_nomask	acq45_nomask	5	34	400	0	300	300	0	0	329	46	0	0	vergnügt	vertrauen	sonnig	träumen	besonnen	gesittet	verbissen	versagen	sterben	töten	bange	geizig	kuss	anregung	genießen	engagiert	gütig	kreativ	krise	ausrottung	gemein	engstirnig	gierig	krank	1	blank2r.bmp	0	1	+	0	1	blank2r.bmp	500	1	CPLW	500	1	blank2r.bmp	880	5	besonnen	880	1	!	-1	1	!	-1	0	0	0	0	0	0
2024-06-05	11:36:52	11:48:07	674205	6.6.1	4_exp_EVA_AWA_CON	66	A	B	Rpleas_acq	Oppo	Rpleas	1pleas	acq_US_unple_nomask	acq45_nomask	5	35	400	0	300	300	0	0	546	46	1	0	vergnügt	vertrauen	sonnig	träumen	besonnen	gesittet	verbissen	versagen	sterben	töten	bange	geizig	kuss	anregung	genießen	engagiert	gütig	kreativ	krise	ausrottung	gemein	engstirnig	gierig	krank	1	blank2r.bmp	0	1	+	0	1	blank2r.bmp	500	1	DHJF	500	1	blank2r.bmp	880	2	versagen	880	1	!	1232	1	!	-1	0	0	0	0	0	0
2024-06-05	11:36:52	11:48:09	676343	6.6.1	4_exp_EVA_AWA_CON	66	A	B	Rpleas_acq	Oppo	Rpleas	1pleas	acq_US_pleas_nomask	acq45_nomask	5	36	400	1	300	300	0	0	360	50	1	0	vergnügt	vertrauen	sonnig	träumen	besonnen	gesittet	verbissen	versagen	sterben	töten	bange	geizig	kuss	anregung	genießen	engagiert	gütig	kreativ	krise	ausrottung	gemein	engstirnig	gierig	krank	1	blank2r.bmp	0	1	+	0	1	blank2r.bmp	500	1	CPLW	500	1	blank2r.bmp	880	3	sonnig	880	1	!	1232	1	!	1262	0	0	0	0	0	0
2024-06-05	11:36:52	11:48:36	703169	6.6.1	4_exp_EVA_AWA_CON	66	A	B	Rpleas_acq	Oppo	Lpleas	1pleas	EvalRating_firsttwo	EvalRating_firsttwo	6	1	0	0	300	300	0	0	8607	line	0	-0,1302083333333285964pct	vergnügt	vertrauen	sonnig	träumen	besonnen	gesittet	verbissen	versagen	sterben	töten	bange	geizig	kuss	anregung	genießen	engagiert	gütig	kreativ	krise	ausrottung	gemein	engstirnig	gierig	krank	1		-7	1	Wie angenehm oder unangenehm finden Sie die  Buchstabenkette WDLH?	-7	1		-7	1		-7	1		-7	1	Unangenehm	-7	1	Angenehm	-7	0	0	0	0	0	0	0	0	0
2024-06-05	11:36:52	11:48:45	712522	6.6.1	4_exp_EVA_AWA_CON	66	A	B	Rpleas_acq	Oppo	Lpleas	1pleas	EvalRating_lastfour	EvalRating_lastfour	7	1	0	0	300	300	0	0	6973	line	0	-40,7552083333333285964pct	vergnügt	vertrauen	sonnig	träumen	besonnen	gesittet	verbissen	versagen	sterben	töten	bange	geizig	kuss	anregung	genießen	engagiert	gütig	kreativ	krise	ausrottung	gemein	engstirnig	gierig	krank	1		-7	1	Wie angenehm oder unangenehm finden Sie die  Buchstabenkette CPLW?	-7	1		-7	1		-7	1		-7	1	Unangenehm	-7	1	Angenehm	-7	0	0	0	0	0	0	0	0	0
2024-06-05	11:36:52	11:48:48	714887	6.6.1	4_exp_EVA_AWA_CON	66	A	B	Rpleas_acq	Oppo	Lpleas	1pleas	blank_screen	EvalRating_lastfour	7	3	0	0	300	300	0	0	0	0	0	-40,7552083333333285964pct	vergnügt	vertrauen	sonnig	träumen	besonnen	gesittet	verbissen	versagen	sterben	töten	bange	geizig	kuss	anregung	genießen	engagiert	gütig	kreativ	krise	ausrottung	gemein	engstirnig	gierig	krank	1		-8	0	0	0	0	0	0	0	0	0	0	0	0	0	0	0	0	0	0	0	0	0	0	0	0	0	0	0
2024-06-05	11:36:52	11:48:54	721090	6.6.1	4_exp_EVA_AWA_CON	66	A	B	Rpleas_acq	Oppo	Lpleas	1pleas	EvalRating_lastfour	EvalRating_lastfour	7	4	0	0	300	300	0	0	5615	line	0	-31,9010416666666571928pct	vergnügt	vertrauen	sonnig	träumen	besonnen	gesittet	verbissen	versagen	sterben	töten	bange	geizig	kuss	anregung	genießen	engagiert	gütig	kreativ	krise	ausrottung	gemein	engstirnig	gierig	krank	1		-8	2	Wie angenehm oder unangenehm finden Sie die  Buchstabenkette DHJF?	-8	1		-8	1		-8	1		-8	1	Unangenehm	-8	1	Angenehm	-8	0	0	0	0	0	0	0	0	0
2024-06-05	11:36:52	11:48:56	723463	6.6.1	4_exp_EVA_AWA_CON	66	A	B	Rpleas_acq	Oppo	Lpleas	1pleas	blank_screen	EvalRating_lastfour	7	6	0	0	300	300	0	0	0	0	0	-31,9010416666666571928pct	vergnügt	vertrauen	sonnig	träumen	besonnen	gesittet	verbissen	versagen	sterben	töten	bange	geizig	kuss	anregung	genießen	engagiert	gütig	kreativ	krise	ausrottung	gemein	engstirnig	gierig	krank	1		-8	0	0	0	0	0	0	0	0	0	0	0	0	0	0	0	0	0	0	0	0	0	0	0	0	0	0	0
2024-06-05	11:36:52	11:49:01	728154	6.6.1	4_exp_EVA_AWA_CON	66	A	B	Rpleas_acq	Oppo	Lpleas	1pleas	EvalRating_lastfour	EvalRating_lastfour	7	7	0	0	300	300	0	0	4102	line	0	-57,6822916666666642982pct	vergnügt	vertrauen	sonnig	träumen	besonnen	gesittet	verbissen	versagen	sterben	töten	bange	geizig	kuss	anregung	genießen	engagiert	gütig	kreativ	krise	ausrottung	gemein	engstirnig	gierig	krank	1		-8	3	Wie angenehm oder unangenehm finden Sie die  Buchstabenkette FCJP?	-8	1		-8	1		-8	1		-8	1	Unangenehm	-8	1	Angenehm	-8	0	0	0	0	0	0	0	0	0
2024-06-05	11:36:52	11:50:13	800591	6.6.1	4_exp_EVA_AWA_CON	66	A	B	Rpleas_acq	Oppo	Lpleas	1pleas	conawa_CS2_US4	conawa1_nomask	8	1	0	0	300	300	0	0	10507	gierig	1	-57,6822916666666642982pct	vergnügt	vertrauen	sonnig	träumen	besonnen	gesittet	verbissen	versagen	sterben	töten	bange	geizig	kuss	anregung	genießen	engagiert	gütig	kreativ	krise	ausrottung	gemein	engstirnig	gierig	krank	0	0	0	0	0	0	0	0	0	0	0	0	0	0	0	0	0	0	0	0	0	0	0	0	0	0	0	0	0	0
2024-06-05	11:36:52	11:50:13	800592	6.6.1	4_exp_EVA_AWA_CON	66	A	B	Rpleas_acq	Oppo	Lpleas	1pleas	conawa_CS2_US4_confidence	conawa1_nomask	8	1	0	0	300	300	0	0	10507	guess	1	-57,6822916666666642982pct	vergnügt	vertrauen	sonnig	träumen	besonnen	gesittet	verbissen	versagen	sterben	töten	bange	geizig	kuss	anregung	genießen	engagiert	gütig	kreativ	krise	ausrottung	gemein	engstirnig	gierig	krank	0	0	0	0	0	0	0	0	0	0	0	0	0	0	0	0	0	0	0	0	0	0	0	0	0	0	0	0	0	0
2024-06-05	11:36:52	11:50:21	808656	6.6.1	4_exp_EVA_AWA_CON	66	A	B	Rpleas_acq	Oppo	Lpleas	1pleas	conawa_CS2_US6	conawa1_nomask	8	2	0	0	300	300	0	0	7444	geizig	1	-57,6822916666666642982pct	vergnügt	vertrauen	sonnig	träumen	besonnen	gesittet	verbissen	versagen	sterben	töten	bange	geizig	kuss	anregung	genießen	engagiert	gütig	kreativ	krise	ausrottung	gemein	engstirnig	gierig	krank	0	0	0	0	0	0	0	0	0	0	0	0	0	0	0	0	0	0	0	0	0	0	0	0	0	0	0	0	0	0
2024-06-05	11:36:52	11:50:21	808657	6.6.1	4_exp_EVA_AWA_CON	66	A	B	Rpleas_acq	Oppo	Lpleas	1pleas	conawa_CS2_US6_confidence	conawa1_nomask	8	2	0	0	300	300	0	0	7444	guess	1	-57,6822916666666642982pct	vergnügt	vertrauen	sonnig	träumen	besonnen	gesittet	verbissen	versagen	sterben	töten	bange	geizig	kuss	anregung	genießen	engagiert	gütig	kreativ	krise	ausrottung	gemein	engstirnig	gierig	krank	0	0	0	0	0	0	0	0	0	0	0	0	0	0	0	0	0	0	0	0	0	0	0	0	0	0	0	0	0	0
2024-06-05	11:36:52	11:50:37	824706	6.6.1	4_exp_EVA_AWA_CON	66	A	B	Rpleas_acq	Oppo	Lpleas	1pleas	conawa_CS1_US4	conawa1_nomask	8	3	0	0	300	300	0	0	15435	träumen	1	-57,6822916666666642982pct	vergnügt	vertrauen	sonnig	träumen	besonnen	gesittet	verbissen	versagen	sterben	töten	bange	geizig	kuss	anregung	genießen	engagiert	gütig	kreativ	krise	ausrottung	gemein	engstirnig	gierig	krank	0	0	0	0	0	0	0	0	0	0	0	0	0	0	0	0	0	0	0	0	0	0	0	0	0	0	0	0	0	0
2024-06-05	11:36:52	11:50:37	824707	6.6.1	4_exp_EVA_AWA_CON	66	A	B	Rpleas_acq	Oppo	Lpleas	1pleas	conawa_CS1_US4_confidence	conawa1_nomask	8	3	0	0	300	300	0	0	15435	guess	1	-57,6822916666666642982pct	vergnügt	vertrauen	sonnig	träumen	besonnen	gesittet	verbissen	versagen	sterben	töten	bange	geizig	kuss	anregung	genießen	engagiert	gütig	kreativ	krise	ausrottung	gemein	engstirnig	gierig	krank	0	0	0	0	0	0	0	0	0	0	0	0	0	0	0	0	0	0	0	0	0	0	0	0	0	0	0	0	0	0
2024-06-05	11:36:52	11:50:44	831230	6.6.1	4_exp_EVA_AWA_CON	66	A	B	Rpleas_acq	Oppo	Lpleas	1pleas	conawa_CS2_US3	conawa1_nomask	8	4	0	0	300	300	0	0	5905	sonnig	1	-57,6822916666666642982pct	vergnügt	vertrauen	sonnig	träumen	besonnen	gesittet	verbissen	versagen	sterben	töten	bange	geizig	kuss	anregung	genießen	engagiert	gütig	kreativ	krise	ausrottung	gemein	engstirnig	gierig	krank	0	0	0	0	0	0	0	0	0	0	0	0	0	0	0	0	0	0	0	0	0	0	0	0	0	0	0	0	0	0
2024-06-05	11:36:52	11:50:44	831231	6.6.1	4_exp_EVA_AWA_CON	66	A	B	Rpleas_acq	Oppo	Lpleas	1pleas	conawa_CS2_US3_confidence	conawa1_nomask	8	4	0	0	300	300	0	0	5905	guess	1	-57,6822916666666642982pct	vergnügt	vertrauen	sonnig	träumen	besonnen	gesittet	verbissen	versagen	sterben	töten	bange	geizig	kuss	anregung	genießen	engagiert	gütig	kreativ	krise	ausrottung	gemein	engstirnig	gierig	krank	0	0	0	0	0	0	0	0	0	0	0	0	0	0	0	0	0	0	0	0	0	0	0	0	0	0	0	0	0	0
2024-06-05	11:36:52	11:50:51	838625	6.6.1	4_exp_EVA_AWA_CON	66	A	B	Rpleas_acq	Oppo	Lpleas	1pleas	conawa_CS1_US3	conawa1_nomask	8	5	0	0	300	300	0	0	6780	gemein	1	-57,6822916666666642982pct	vergnügt	vertrauen	sonnig	träumen	besonnen	gesittet	verbissen	versagen	sterben	töten	bange	geizig	kuss	anregung	genießen	engagiert	gütig	kreativ	krise	ausrottung	gemein	engstirnig	gierig	krank	0	0	0	0	0	0	0	0	0	0	0	0	0	0	0	0	0	0	0	0	0	0	0	0	0	0	0	0	0	0
2024-06-05	11:36:52	11:50:51	838626	6.6.1	4_exp_EVA_AWA_CON	66	A	B	Rpleas_acq	Oppo	Lpleas	1pleas	conawa_CS1_US3_confidence	conawa1_nomask	8	5	0	0	300	300	0	0	6780	guess	1	-57,6822916666666642982pct	vergnügt	vertrauen	sonnig	träumen	besonnen	gesittet	verbissen	versagen	sterben	töten	bange	geizig	kuss	anregung	genießen	engagiert	gütig	kreativ	krise	ausrottung	gemein	engstirnig	gierig	krank	0	0	0	0	0	0	0	0	0	0	0	0	0	0	0	0	0	0	0	0	0	0	0	0	0	0	0	0	0	0
2024-06-05	11:36:52	11:51:02	849132	6.6.1	4_exp_EVA_AWA_CON	66	A	B	Rpleas_acq	Oppo	Lpleas	1pleas	conawa_CS1_US1	conawa1_nomask	8	6	0	0	300	300	0	0	9889	vergnügt	1	-57,6822916666666642982pct	vergnügt	vertrauen	sonnig	träumen	besonnen	gesittet	verbissen	versagen	sterben	töten	bange	geizig	kuss	anregung	genießen	engagiert	gütig	kreativ	krise	ausrottung	gemein	engstirnig	gierig	krank	0	0	0	0	0	0	0	0	0	0	0	0	0	0	0	0	0	0	0	0	0	0	0	0	0	0	0	0	0	0
2024-06-05	11:36:52	11:51:02	849133	6.6.1	4_exp_EVA_AWA_CON	66	A	B	Rpleas_acq	Oppo	Lpleas	1pleas	conawa_CS1_US1_confidence	conawa1_nomask	8	6	0	0	300	300	0	0	9889	guess	1	-57,6822916666666642982pct	vergnügt	vertrauen	sonnig	träumen	besonnen	gesittet	verbissen	versagen	sterben	töten	bange	geizig	kuss	anregung	genießen	engagiert	gütig	kreativ	krise	ausrottung	gemein	engstirnig	gierig	krank	0	0	0	0	0	0	0	0	0	0	0	0	0	0	0	0	0	0	0	0	0	0	0	0	0	0	0	0	0	0
2024-06-05	11:36:52	11:51:12	859548	6.6.1	4_exp_EVA_AWA_CON	66	A	B	Rpleas_acq	Oppo	Lpleas	1pleas	conawa_CS1_US2	conawa1_nomask	8	7	0	0	300	300	0	0	9800	versagen	1	-57,6822916666666642982pct	vergnügt	vertrauen	sonnig	träumen	besonnen	gesittet	verbissen	versagen	sterben	töten	bange	geizig	kuss	anregung	genießen	engagiert	gütig	kreativ	krise	ausrottung	gemein	engstirnig	gierig	krank	0	0	0	0	0	0	0	0	0	0	0	0	0	0	0	0	0	0	0	0	0	0	0	0	0	0	0	0	0	0
2024-06-05	11:36:52	11:51:12	859549	6.6.1	4_exp_EVA_AWA_CON	66	A	B	Rpleas_acq	Oppo	Lpleas	1pleas	conawa_CS1_US2_confidence	conawa1_nomask	8	7	0	0	300	300	0	0	9800	guess	1	-57,6822916666666642982pct	vergnügt	vertrauen	sonnig	träumen	besonnen	gesittet	verbissen	versagen	sterben	töten	bange	geizig	kuss	anregung	genießen	engagiert	gütig	kreativ	krise	ausrottung	gemein	engstirnig	gierig	krank	0	0	0	0	0	0	0	0	0	0	0	0	0	0	0	0	0	0	0	0	0	0	0	0	0	0	0	0	0	0
2024-06-05	11:36:52	11:51:26	873297	6.6.1	4_exp_EVA_AWA_CON	66	A	B	Rpleas_acq	Oppo	Lpleas	1pleas	conawa_CS1_US6	conawa1_nomask	8	8	0	0	300	300	0	0	13136	geizig	1	-57,6822916666666642982pct	vergnügt	vertrauen	sonnig	träumen	besonnen	gesittet	verbissen	versagen	sterben	töten	bange	geizig	kuss	anregung	genießen	engagiert	gütig	kreativ	krise	ausrottung	gemein	engstirnig	gierig	krank	0	0	0	0	0	0	0	0	0	0	0	0	0	0	0	0	0	0	0	0	0	0	0	0	0	0	0	0	0	0
2024-06-05	11:36:52	11:51:26	873299	6.6.1	4_exp_EVA_AWA_CON	66	A	B	Rpleas_acq	Oppo	Lpleas	1pleas	conawa_CS1_US6_confidence	conawa1_nomask	8	8	0	0	300	300	0	0	13136	guess	1	-57,6822916666666642982pct	vergnügt	vertrauen	sonnig	träumen	besonnen	gesittet	verbissen	versagen	sterben	töten	bange	geizig	kuss	anregung	genießen	engagiert	gütig	kreativ	krise	ausrottung	gemein	engstirnig	gierig	krank	0	0	0	0	0	0	0	0	0	0	0	0	0	0	0	0	0	0	0	0	0	0	0	0	0	0	0	0	0	0
2024-06-05	11:36:52	11:51:37	884545	6.6.1	4_exp_EVA_AWA_CON	66	A	B	Rpleas_acq	Oppo	Lpleas	1pleas	conawa_CS2_US1	conawa1_nomask	8	9	0	0	300	300	0	0	10635	anregung	1	-57,6822916666666642982pct	vergnügt	vertrauen	sonnig	träumen	besonnen	gesittet	verbissen	versagen	sterben	töten	bange	geizig	kuss	anregung	genießen	engagiert	gütig	kreativ	krise	ausrottung	gemein	engstirnig	gierig	krank	0	0	0	0	0	0	0	0	0	0	0	0	0	0	0	0	0	0	0	0	0	0	0	0	0	0	0	0	0	0
2024-06-05	11:36:52	11:51:37	884546	6.6.1	4_exp_EVA_AWA_CON	66	A	B	Rpleas_acq	Oppo	Lpleas	1pleas	conawa_CS2_US1_confidence	conawa1_nomask	8	9	0	0	300	300	0	0	10635	guess	1	-57,6822916666666642982pct	vergnügt	vertrauen	sonnig	träumen	besonnen	gesittet	verbissen	versagen	sterben	töten	bange	geizig	kuss	anregung	genießen	engagiert	gütig	kreativ	krise	ausrottung	gemein	engstirnig	gierig	krank	0	0	0	0	0	0	0	0	0	0	0	0	0	0	0	0	0	0	0	0	0	0	0	0	0	0	0	0	0	0
2024-06-05	11:36:52	11:51:44	891119	6.6.1	4_exp_EVA_AWA_CON	66	A	B	Rpleas_acq	Oppo	Lpleas	1pleas	conawa_CS1_US5	conawa1_nomask	8	10	0	0	300	300	0	0	5954	gütig	1	-57,6822916666666642982pct	vergnügt	vertrauen	sonnig	träumen	besonnen	gesittet	verbissen	versagen	sterben	töten	bange	geizig	kuss	anregung	genießen	engagiert	gütig	kreativ	krise	ausrottung	gemein	engstirnig	gierig	krank	0	0	0	0	0	0	0	0	0	0	0	0	0	0	0	0	0	0	0	0	0	0	0	0	0	0	0	0	0	0
2024-06-05	11:36:52	11:51:44	891120	6.6.1	4_exp_EVA_AWA_CON	66	A	B	Rpleas_acq	Oppo	Lpleas	1pleas	conawa_CS1_US5_confidence	conawa1_nomask	8	10	0	0	300	300	0	0	5954	guess	1	-57,6822916666666642982pct	vergnügt	vertrauen	sonnig	träumen	besonnen	gesittet	verbissen	versagen	sterben	töten	bange	geizig	kuss	anregung	genießen	engagiert	gütig	kreativ	krise	ausrottung	gemein	engstirnig	gierig	krank	0	0	0	0	0	0	0	0	0	0	0	0	0	0	0	0	0	0	0	0	0	0	0	0	0	0	0	0	0	0
2024-06-05	11:36:52	11:51:49	896502	6.6.1	4_exp_EVA_AWA_CON	66	A	B	Rpleas_acq	Oppo	Lpleas	1pleas	conawa_CS2_US5	conawa1_nomask	8	11	0	0	300	300	0	0	4764	besonnen	1	-57,6822916666666642982pct	vergnügt	vertrauen	sonnig	träumen	besonnen	gesittet	verbissen	versagen	sterben	töten	bange	geizig	kuss	anregung	genießen	engagiert	gütig	kreativ	krise	ausrottung	gemein	engstirnig	gierig	krank	0	0	0	0	0	0	0	0	0	0	0	0	0	0	0	0	0	0	0	0	0	0	0	0	0	0	0	0	0	0
2024-06-05	11:36:52	11:51:49	896503	6.6.1	4_exp_EVA_AWA_CON	66	A	B	Rpleas_acq	Oppo	Lpleas	1pleas	conawa_CS2_US5_confidence	conawa1_nomask	8	11	0	0	300	300	0	0	4764	guess	1	-57,6822916666666642982pct	vergnügt	vertrauen	sonnig	träumen	besonnen	gesittet	verbissen	versagen	sterben	töten	bange	geizig	kuss	anregung	genießen	engagiert	gütig	kreativ	krise	ausrottung	gemein	engstirnig	gierig	krank	0	0	0	0	0	0	0	0	0	0	0	0	0	0	0	0	0	0	0	0	0	0	0	0	0	0	0	0	0	0
2024-06-05	11:36:52	11:51:56	902886	6.6.1	4_exp_EVA_AWA_CON	66	A	B	Rpleas_acq	Oppo	Lpleas	1pleas	conawa_CS2_US2	conawa1_nomask	8	12	0	0	300	300	0	0	5766	vertrauen	1	-57,6822916666666642982pct	vergnügt	vertrauen	sonnig	träumen	besonnen	gesittet	verbissen	versagen	sterben	töten	bange	geizig	kuss	anregung	genießen	engagiert	gütig	kreativ	krise	ausrottung	gemein	engstirnig	gierig	krank	0	0	0	0	0	0	0	0	0	0	0	0	0	0	0	0	0	0	0	0	0	0	0	0	0	0	0	0	0	0
2024-06-05	11:36:52	11:51:56	902887	6.6.1	4_exp_EVA_AWA_CON	66	A	B	Rpleas_acq	Oppo	Lpleas	1pleas	conawa_CS2_US2_confidence	conawa1_nomask	8	12	0	0	300	300	0	0	5766	guess	1	-57,6822916666666642982pct	vergnügt	vertrauen	sonnig	träumen	besonnen	gesittet	verbissen	versagen	sterben	töten	bange	geizig	kuss	anregung	genießen	engagiert	gütig	kreativ	krise	ausrottung	gemein	engstirnig	gierig	krank	0	0	0	0	0	0	0	0	0	0	0	0	0	0	0	0	0	0	0	0	0	0	0	0	0	0	0	0	0	0
2024-06-05	11:36:52	11:53:19	986565	6.6.1	4_exp_EVA_AWA_CON	66	A	B	Rpleas_acq	Oppo	Lpleas	1pleas	cond_US_pleas_123_nomask_CS2	condtest_nomask_1	11	1	400	0	300	300	0	0	1896	46	1	-57,6822916666666642982pct	vergnügt	vertrauen	sonnig	träumen	besonnen	gesittet	verbissen	versagen	sterben	töten	bange	geizig	kuss	anregung	genießen	engagiert	gütig	kreativ	krise	ausrottung	gemein	engstirnig	gierig	krank	1	blank2r.bmp	0	1	+	0	1	blank2r.bmp	500	1	DHJF	500	1	blank2r.bmp	880	1	sonnig	880	1	!	1232	1	!	-1	0	0	0	0	0	0
