date	time	currenttime	elapsedtime	build	currentexpt	subject	CS_AB	US_AB	LRpleas_acq	SameOppo	condition_Lpleas	condition_1pleas	trialcode	blockcode	blocknum	trialnum	windowcenter	inwindow	pretrialpause	posttrialpause	trialduration	trialtimeout	latency	response	correct	correctedscore	US_nomask_pleas1	US_nomask_pleas2	US_nomask_pleas3	US_nomask_pleas4	US_nomask_pleas5	US_nomask_pleas6	US_nomask_unple1	US_nomask_unple2	US_nomask_unple3	US_nomask_unple4	US_nomask_unple5	US_nomask_unple6	new_nomask_pleas1	new_nomask_pleas2	new_nomask_pleas3	new_nomask_pleas4	new_nomask_pleas5	new_nomask_pleas6	new_nomask_unple1	new_nomask_unple2	new_nomask_unple3	new_nomask_unple4	new_nomask_unple5	new_nomask_unple6	stimulusnumber1	stimulusitem1	stimulusonset1	stimulusnumber2	stimulusitem2	stimulusonset2	stimulusnumber3	stimulusitem3	stimulusonset3	stimulusnumber4	stimulusitem4	stimulusonset4	stimulusnumber5	stimulusitem5	stimulusonset5	stimulusnumber6	stimulusitem6	stimulusonset6	stimulusnumber7	stimulusitem7	stimulusonset7	stimulusnumber8	stimulusitem8	stimulusonset8	stimulusnumber9	stimulusitem9	stimulusonset9	stimulusnumber10	stimulusitem10	stimulusonset10
2024-05-10	11:53:10	12:00:04	413538	6.6.1	4_exp_EVA_AWA_CON	24	A	B	Rpleas_acq	Oppo	Rpleas	2pleas	acq_new_pleas_nomask	acq1_nomask	1	1	0	0	300	300	0	0	1279	50	1	0	kreativ	träumen	gütig	gesittet	vergnügt	vertrauen	krank	töten	gierig	geizig	verbissen	versagen	besonnen	anregung	engagiert	kuss	genießen	sonnig	bange	ausrottung	engstirnig	krise	gemein	sterben	1	blank2r.bmp	0	1	+	0	1	blank2r.bmp	500	7	C3r.bmp	500	1	blank2r.bmp	880	1	besonnen	880	0	0	0	0	0	0	0	0	0	0	0	0
2024-05-10	11:53:10	12:00:06	415954	6.6.1	4_exp_EVA_AWA_CON	24	A	B	Rpleas_acq	Oppo	Rpleas	2pleas	acq_new_pleas_nomask	acq1_nomask	1	2	0	0	300	300	0	0	933	50	1	0	kreativ	träumen	gütig	gesittet	vergnügt	vertrauen	krank	töten	gierig	geizig	verbissen	versagen	besonnen	anregung	engagiert	kuss	genießen	sonnig	bange	ausrottung	engstirnig	krise	gemein	sterben	1	blank2r.bmp	0	1	+	0	1	blank2r.bmp	500	5	C1r.bmp	500	1	blank2r.bmp	880	2	anregung	880	0	0	0	0	0	0	0	0	0	0	0	0
2024-05-10	11:53:10	12:00:08	418130	6.6.1	4_exp_EVA_AWA_CON	24	A	B	Rpleas_acq	Oppo	Rpleas	2pleas	acq_US_pleas_nomask	acq1_nomask	1	3	0	0	300	300	0	0	688	50	1	0	kreativ	träumen	gütig	gesittet	vergnügt	vertrauen	krank	töten	gierig	geizig	verbissen	versagen	besonnen	anregung	engagiert	kuss	genießen	sonnig	bange	ausrottung	engstirnig	krise	gemein	sterben	1	blank2r.bmp	0	1	+	0	1	blank2r.bmp	500	1	DHJF	500	1	blank2r.bmp	880	4	gesittet	880	0	0	0	0	0	0	0	0	0	0	0	0
2024-05-10	11:53:10	12:00:14	423578	6.6.1	4_exp_EVA_AWA_CON	24	A	B	Rpleas_acq	Oppo	Rpleas	2pleas	acq_new_unple_nomask	acq1_nomask	1	4	0	0	300	300	0	0	3964	46	1	0	kreativ	träumen	gütig	gesittet	vergnügt	vertrauen	krank	töten	gierig	geizig	verbissen	versagen	besonnen	anregung	engagiert	kuss	genießen	sonnig	bange	ausrottung	engstirnig	krise	gemein	sterben	1	blank2r.bmp	0	1	+	0	1	blank2r.bmp	500	6	C2r.bmp	500	1	blank2r.bmp	880	4	krise	880	0	0	0	0	0	0	0	0	0	0	0	0
2024-05-10	11:53:10	12:00:16	425914	6.6.1	4_exp_EVA_AWA_CON	24	A	B	Rpleas_acq	Oppo	Rpleas	2pleas	acq_US_unple_nomask	acq1_nomask	1	5	0	0	300	300	0	0	847	46	1	0	kreativ	träumen	gütig	gesittet	vergnügt	vertrauen	krank	töten	gierig	geizig	verbissen	versagen	besonnen	anregung	engagiert	kuss	genießen	sonnig	bange	ausrottung	engstirnig	krise	gemein	sterben	1	blank2r.bmp	0	1	+	0	1	blank2r.bmp	500	1	CPLW	500	1	blank2r.bmp	880	3	gierig	880	0	0	0	0	0	0	0	0	0	0	0	0
2024-05-10	11:53:10	12:00:18	428122	6.6.1	4_exp_EVA_AWA_CON	24	A	B	Rpleas_acq	Oppo	Rpleas	2pleas	acq_new_pleas_nomask	acq1_nomask	1	6	0	0	300	300	0	0	723	50	1	0	kreativ	träumen	gütig	gesittet	vergnügt	vertrauen	krank	töten	gierig	geizig	verbissen	versagen	besonnen	anregung	engagiert	kuss	genießen	sonnig	bange	ausrottung	engstirnig	krise	gemein	sterben	1	blank2r.bmp	0	1	+	0	1	blank2r.bmp	500	1	B1r.bmp	500	1	blank2r.bmp	880	5	genießen	880	0	0	0	0	0	0	0	0	0	0	0	0
2024-05-10	11:53:10	12:00:20	430258	6.6.1	4_exp_EVA_AWA_CON	24	A	B	Rpleas_acq	Oppo	Rpleas	2pleas	acq_US_pleas_nomask	acq1_nomask	1	7	0	0	300	300	0	0	648	50	1	0	kreativ	träumen	gütig	gesittet	vergnügt	vertrauen	krank	töten	gierig	geizig	verbissen	versagen	besonnen	anregung	engagiert	kuss	genießen	sonnig	bange	ausrottung	engstirnig	krise	gemein	sterben	1	blank2r.bmp	0	1	+	0	1	blank2r.bmp	500	1	DHJF	500	1	blank2r.bmp	880	1	kreativ	880	0	0	0	0	0	0	0	0	0	0	0	0
2024-05-10	11:53:10	12:00:23	432546	6.6.1	4_exp_EVA_AWA_CON	24	A	B	Rpleas_acq	Oppo	Rpleas	2pleas	acq_new_unple_nomask	acq1_nomask	1	8	0	0	300	300	0	0	804	46	1	0	kreativ	träumen	gütig	gesittet	vergnügt	vertrauen	krank	töten	gierig	geizig	verbissen	versagen	besonnen	anregung	engagiert	kuss	genießen	sonnig	bange	ausrottung	engstirnig	krise	gemein	sterben	1	blank2r.bmp	0	1	+	0	1	blank2r.bmp	500	4	B4r.bmp	500	1	blank2r.bmp	880	3	engstirnig	880	0	0	0	0	0	0	0	0	0	0	0	0
2024-05-10	11:53:10	12:00:25	434666	6.6.1	4_exp_EVA_AWA_CON	24	A	B	Rpleas_acq	Oppo	Rpleas	2pleas	acq_US_pleas_nomask	acq1_nomask	1	9	0	0	300	300	0	0	633	50	1	0	kreativ	träumen	gütig	gesittet	vergnügt	vertrauen	krank	töten	gierig	geizig	verbissen	versagen	besonnen	anregung	engagiert	kuss	genießen	sonnig	bange	ausrottung	engstirnig	krise	gemein	sterben	1	blank2r.bmp	0	1	+	0	1	blank2r.bmp	500	1	DHJF	500	1	blank2r.bmp	880	5	vergnügt	880	0	0	0	0	0	0	0	0	0	0	0	0
2024-05-10	11:53:10	12:00:27	436899	6.6.1	4_exp_EVA_AWA_CON	24	A	B	Rpleas_acq	Oppo	Rpleas	2pleas	acq_new_unple_nomask	acq1_nomask	1	10	0	0	300	300	0	0	744	46	1	0	kreativ	träumen	gütig	gesittet	vergnügt	vertrauen	krank	töten	gierig	geizig	verbissen	versagen	besonnen	anregung	engagiert	kuss	genießen	sonnig	bange	ausrottung	engstirnig	krise	gemein	sterben	1	blank2r.bmp	0	1	+	0	1	blank2r.bmp	500	2	B2r.bmp	500	1	blank2r.bmp	880	1	bange	880	0	0	0	0	0	0	0	0	0	0	0	0
2024-05-10	11:53:10	12:00:29	438962	6.6.1	4_exp_EVA_AWA_CON	24	A	B	Rpleas_acq	Oppo	Rpleas	2pleas	acq_US_unple_nomask	acq1_nomask	1	11	0	0	300	300	0	0	576	46	1	0	kreativ	träumen	gütig	gesittet	vergnügt	vertrauen	krank	töten	gierig	geizig	verbissen	versagen	besonnen	anregung	engagiert	kuss	genießen	sonnig	bange	ausrottung	engstirnig	krise	gemein	sterben	1	blank2r.bmp	0	1	+	0	1	blank2r.bmp	500	1	CPLW	500	1	blank2r.bmp	880	1	krank	880	0	0	0	0	0	0	0	0	0	0	0	0
2024-05-10	11:53:10	12:00:31	441026	6.6.1	4_exp_EVA_AWA_CON	24	A	B	Rpleas_acq	Oppo	Rpleas	2pleas	acq_US_unple_nomask	acq1_nomask	1	12	0	0	300	300	0	0	579	46	1	0	kreativ	träumen	gütig	gesittet	vergnügt	vertrauen	krank	töten	gierig	geizig	verbissen	versagen	besonnen	anregung	engagiert	kuss	genießen	sonnig	bange	ausrottung	engstirnig	krise	gemein	sterben	1	blank2r.bmp	0	1	+	0	1	blank2r.bmp	500	1	CPLW	500	1	blank2r.bmp	880	4	geizig	880	0	0	0	0	0	0	0	0	0	0	0	0
2024-05-10	11:53:10	12:00:33	443082	6.6.1	4_exp_EVA_AWA_CON	24	A	B	Rpleas_acq	Oppo	Rpleas	2pleas	acq_new_unple_nomask	acq1_nomask	1	13	0	0	300	300	0	0	573	46	1	0	kreativ	träumen	gütig	gesittet	vergnügt	vertrauen	krank	töten	gierig	geizig	verbissen	versagen	besonnen	anregung	engagiert	kuss	genießen	sonnig	bange	ausrottung	engstirnig	krise	gemein	sterben	1	blank2r.bmp	0	1	+	0	1	blank2r.bmp	500	8	C4r.bmp	500	1	blank2r.bmp	880	6	sterben	880	0	0	0	0	0	0	0	0	0	0	0	0
2024-05-10	11:53:10	12:00:35	445194	6.6.1	4_exp_EVA_AWA_CON	24	A	B	Rpleas_acq	Oppo	Rpleas	2pleas	acq_new_pleas_nomask	acq1_nomask	1	14	0	0	300	300	0	0	624	50	1	0	kreativ	träumen	gütig	gesittet	vergnügt	vertrauen	krank	töten	gierig	geizig	verbissen	versagen	besonnen	anregung	engagiert	kuss	genießen	sonnig	bange	ausrottung	engstirnig	krise	gemein	sterben	1	blank2r.bmp	0	1	+	0	1	blank2r.bmp	500	3	B3r.bmp	500	1	blank2r.bmp	880	3	engagiert	880	0	0	0	0	0	0	0	0	0	0	0	0
2024-05-10	11:53:10	12:00:37	447323	6.6.1	4_exp_EVA_AWA_CON	24	A	B	Rpleas_acq	Oppo	Rpleas	2pleas	acq_US_pleas_nomask	acq1_nomask	1	15	0	0	300	300	0	0	640	50	1	0	kreativ	träumen	gütig	gesittet	vergnügt	vertrauen	krank	töten	gierig	geizig	verbissen	versagen	besonnen	anregung	engagiert	kuss	genießen	sonnig	bange	ausrottung	engstirnig	krise	gemein	sterben	1	blank2r.bmp	0	1	+	0	1	blank2r.bmp	500	1	DHJF	500	1	blank2r.bmp	880	2	träumen	880	0	0	0	0	0	0	0	0	0	0	0	0
2024-05-10	11:53:10	12:00:39	449410	6.6.1	4_exp_EVA_AWA_CON	24	A	B	Rpleas_acq	Oppo	Rpleas	2pleas	acq_US_pleas_nomask	acq1_nomask	1	16	0	0	300	300	0	0	607	50	1	0	kreativ	träumen	gütig	gesittet	vergnügt	vertrauen	krank	töten	gierig	geizig	verbissen	versagen	besonnen	anregung	engagiert	kuss	genießen	sonnig	bange	ausrottung	engstirnig	krise	gemein	sterben	1	blank2r.bmp	0	1	+	0	1	blank2r.bmp	500	1	DHJF	500	1	blank2r.bmp	880	6	vertrauen	880	0	0	0	0	0	0	0	0	0	0	0	0
2024-05-10	11:53:10	12:00:42	451442	6.6.1	4_exp_EVA_AWA_CON	24	A	B	Rpleas_acq	Oppo	Rpleas	2pleas	acq_US_unple_nomask	acq1_nomask	1	17	0	0	300	300	0	0	548	46	1	0	kreativ	träumen	gütig	gesittet	vergnügt	vertrauen	krank	töten	gierig	geizig	verbissen	versagen	besonnen	anregung	engagiert	kuss	genießen	sonnig	bange	ausrottung	engstirnig	krise	gemein	sterben	1	blank2r.bmp	0	1	+	0	1	blank2r.bmp	500	1	CPLW	500	1	blank2r.bmp	880	5	verbissen	880	0	0	0	0	0	0	0	0	0	0	0	0
2024-05-10	11:53:10	12:00:44	453498	6.6.1	4_exp_EVA_AWA_CON	24	A	B	Rpleas_acq	Oppo	Rpleas	2pleas	acq_new_pleas_nomask	acq1_nomask	1	18	0	0	300	300	0	0	572	50	1	0	kreativ	träumen	gütig	gesittet	vergnügt	vertrauen	krank	töten	gierig	geizig	verbissen	versagen	besonnen	anregung	engagiert	kuss	genießen	sonnig	bange	ausrottung	engstirnig	krise	gemein	sterben	1	blank2r.bmp	0	1	+	0	1	blank2r.bmp	500	8	C4r.bmp	500	1	blank2r.bmp	880	4	kuss	880	0	0	0	0	0	0	0	0	0	0	0	0
2024-05-10	11:53:10	12:00:46	455618	6.6.1	4_exp_EVA_AWA_CON	24	A	B	Rpleas_acq	Oppo	Rpleas	2pleas	acq_US_unple_nomask	acq1_nomask	1	19	0	0	300	300	0	0	631	46	1	0	kreativ	träumen	gütig	gesittet	vergnügt	vertrauen	krank	töten	gierig	geizig	verbissen	versagen	besonnen	anregung	engagiert	kuss	genießen	sonnig	bange	ausrottung	engstirnig	krise	gemein	sterben	1	blank2r.bmp	0	1	+	0	1	blank2r.bmp	500	1	CPLW	500	1	blank2r.bmp	880	6	versagen	880	0	0	0	0	0	0	0	0	0	0	0	0
2024-05-10	11:53:10	12:00:48	457699	6.6.1	4_exp_EVA_AWA_CON	24	A	B	Rpleas_acq	Oppo	Rpleas	2pleas	acq_new_pleas_nomask	acq1_nomask	1	20	0	0	300	300	0	0	600	50	1	0	kreativ	träumen	gütig	gesittet	vergnügt	vertrauen	krank	töten	gierig	geizig	verbissen	versagen	besonnen	anregung	engagiert	kuss	genießen	sonnig	bange	ausrottung	engstirnig	krise	gemein	sterben	1	blank2r.bmp	0	1	+	0	1	blank2r.bmp	500	4	B4r.bmp	500	1	blank2r.bmp	880	6	sonnig	880	0	0	0	0	0	0	0	0	0	0	0	0
2024-05-10	11:53:10	12:00:50	459698	6.6.1	4_exp_EVA_AWA_CON	24	A	B	Rpleas_acq	Oppo	Rpleas	2pleas	acq_US_pleas_nomask	acq1_nomask	1	21	0	0	300	300	0	0	518	50	1	0	kreativ	träumen	gütig	gesittet	vergnügt	vertrauen	krank	töten	gierig	geizig	verbissen	versagen	besonnen	anregung	engagiert	kuss	genießen	sonnig	bange	ausrottung	engstirnig	krise	gemein	sterben	1	blank2r.bmp	0	1	+	0	1	blank2r.bmp	500	1	DHJF	500	1	blank2r.bmp	880	3	gütig	880	0	0	0	0	0	0	0	0	0	0	0	0
2024-05-10	11:53:10	12:00:52	461682	6.6.1	4_exp_EVA_AWA_CON	24	A	B	Rpleas_acq	Oppo	Rpleas	2pleas	acq_new_unple_nomask	acq1_nomask	1	22	0	0	300	300	0	0	501	46	1	0	kreativ	träumen	gütig	gesittet	vergnügt	vertrauen	krank	töten	gierig	geizig	verbissen	versagen	besonnen	anregung	engagiert	kuss	genießen	sonnig	bange	ausrottung	engstirnig	krise	gemein	sterben	1	blank2r.bmp	0	1	+	0	1	blank2r.bmp	500	6	C2r.bmp	500	1	blank2r.bmp	880	5	gemein	880	0	0	0	0	0	0	0	0	0	0	0	0
2024-05-10	11:53:10	12:00:54	463690	6.6.1	4_exp_EVA_AWA_CON	24	A	B	Rpleas_acq	Oppo	Rpleas	2pleas	acq_US_unple_nomask	acq1_nomask	1	23	0	0	300	300	0	0	528	46	1	0	kreativ	träumen	gütig	gesittet	vergnügt	vertrauen	krank	töten	gierig	geizig	verbissen	versagen	besonnen	anregung	engagiert	kuss	genießen	sonnig	bange	ausrottung	engstirnig	krise	gemein	sterben	1	blank2r.bmp	0	1	+	0	1	blank2r.bmp	500	1	CPLW	500	1	blank2r.bmp	880	2	töten	880	0	0	0	0	0	0	0	0	0	0	0	0
2024-05-10	11:53:10	12:00:56	465795	6.6.1	4_exp_EVA_AWA_CON	24	A	B	Rpleas_acq	Oppo	Rpleas	2pleas	acq_new_unple_nomask	acq1_nomask	1	24	0	0	300	300	0	0	620	46	1	0	kreativ	träumen	gütig	gesittet	vergnügt	vertrauen	krank	töten	gierig	geizig	verbissen	versagen	besonnen	anregung	engagiert	kuss	genießen	sonnig	bange	ausrottung	engstirnig	krise	gemein	sterben	1	blank2r.bmp	0	1	+	0	1	blank2r.bmp	500	3	B3r.bmp	500	1	blank2r.bmp	880	2	ausrottung	880	0	0	0	0	0	0	0	0	0	0	0	0
2024-05-10	11:53:10	12:00:58	467810	6.6.1	4_exp_EVA_AWA_CON	24	A	B	Rpleas_acq	Oppo	Rpleas	2pleas	acq_new_pleas_nomask	acq1_nomask	1	25	0	0	300	300	0	0	535	50	1	0	kreativ	träumen	gütig	gesittet	vergnügt	vertrauen	krank	töten	gierig	geizig	verbissen	versagen	besonnen	anregung	engagiert	kuss	genießen	sonnig	bange	ausrottung	engstirnig	krise	gemein	sterben	1	blank2r.bmp	0	1	+	0	1	blank2r.bmp	500	5	C1r.bmp	500	1	blank2r.bmp	880	1	besonnen	880	0	0	0	0	0	0	0	0	0	0	0	0
2024-05-10	11:53:10	12:01:00	469818	6.6.1	4_exp_EVA_AWA_CON	24	A	B	Rpleas_acq	Oppo	Rpleas	2pleas	acq_new_unple_nomask	acq1_nomask	1	26	0	0	300	300	0	0	522	46	1	0	kreativ	träumen	gütig	gesittet	vergnügt	vertrauen	krank	töten	gierig	geizig	verbissen	versagen	besonnen	anregung	engagiert	kuss	genießen	sonnig	bange	ausrottung	engstirnig	krise	gemein	sterben	1	blank2r.bmp	0	1	+	0	1	blank2r.bmp	500	2	B2r.bmp	500	1	blank2r.bmp	880	2	ausrottung	880	0	0	0	0	0	0	0	0	0	0	0	0
2024-05-10	11:53:10	12:01:02	471986	6.6.1	4_exp_EVA_AWA_CON	24	A	B	Rpleas_acq	Oppo	Rpleas	2pleas	acq_US_unple_nomask	acq1_nomask	1	27	0	0	300	300	0	0	678	46	1	0	kreativ	träumen	gütig	gesittet	vergnügt	vertrauen	krank	töten	gierig	geizig	verbissen	versagen	besonnen	anregung	engagiert	kuss	genießen	sonnig	bange	ausrottung	engstirnig	krise	gemein	sterben	1	blank2r.bmp	0	1	+	0	1	blank2r.bmp	500	1	CPLW	500	1	blank2r.bmp	880	6	versagen	880	0	0	0	0	0	0	0	0	0	0	0	0
2024-05-10	11:53:10	12:01:04	474002	6.6.1	4_exp_EVA_AWA_CON	24	A	B	Rpleas_acq	Oppo	Rpleas	2pleas	acq_US_unple_nomask	acq1_nomask	1	28	0	0	300	300	0	0	533	46	1	0	kreativ	träumen	gütig	gesittet	vergnügt	vertrauen	krank	töten	gierig	geizig	verbissen	versagen	besonnen	anregung	engagiert	kuss	genießen	sonnig	bange	ausrottung	engstirnig	krise	gemein	sterben	1	blank2r.bmp	0	1	+	0	1	blank2r.bmp	500	1	CPLW	500	1	blank2r.bmp	880	3	gierig	880	0	0	0	0	0	0	0	0	0	0	0	0
2024-05-10	11:53:10	12:01:06	476074	6.6.1	4_exp_EVA_AWA_CON	24	A	B	Rpleas_acq	Oppo	Rpleas	2pleas	acq_new_unple_nomask	acq1_nomask	1	29	0	0	300	300	0	0	584	46	1	0	kreativ	träumen	gütig	gesittet	vergnügt	vertrauen	krank	töten	gierig	geizig	verbissen	versagen	besonnen	anregung	engagiert	kuss	genießen	sonnig	bange	ausrottung	engstirnig	krise	gemein	sterben	1	blank2r.bmp	0	1	+	0	1	blank2r.bmp	500	1	B1r.bmp	500	1	blank2r.bmp	880	6	sterben	880	0	0	0	0	0	0	0	0	0	0	0	0
2024-05-10	11:53:10	12:01:08	478114	6.6.1	4_exp_EVA_AWA_CON	24	A	B	Rpleas_acq	Oppo	Rpleas	2pleas	acq_US_pleas_nomask	acq1_nomask	1	30	0	0	300	300	0	0	552	50	1	0	kreativ	träumen	gütig	gesittet	vergnügt	vertrauen	krank	töten	gierig	geizig	verbissen	versagen	besonnen	anregung	engagiert	kuss	genießen	sonnig	bange	ausrottung	engstirnig	krise	gemein	sterben	1	blank2r.bmp	0	1	+	0	1	blank2r.bmp	500	1	DHJF	500	1	blank2r.bmp	880	2	träumen	880	0	0	0	0	0	0	0	0	0	0	0	0
2024-05-10	11:53:10	12:01:10	480138	6.6.1	4_exp_EVA_AWA_CON	24	A	B	Rpleas_acq	Oppo	Rpleas	2pleas	acq_new_unple_nomask	acq1_nomask	1	31	0	0	300	300	0	0	535	46	1	0	kreativ	träumen	gütig	gesittet	vergnügt	vertrauen	krank	töten	gierig	geizig	verbissen	versagen	besonnen	anregung	engagiert	kuss	genießen	sonnig	bange	ausrottung	engstirnig	krise	gemein	sterben	1	blank2r.bmp	0	1	+	0	1	blank2r.bmp	500	7	C3r.bmp	500	1	blank2r.bmp	880	1	bange	880	0	0	0	0	0	0	0	0	0	0	0	0
2024-05-10	11:53:10	12:01:12	482122	6.6.1	4_exp_EVA_AWA_CON	24	A	B	Rpleas_acq	Oppo	Rpleas	2pleas	acq_US_unple_nomask	acq1_nomask	1	32	0	0	300	300	0	0	498	46	1	0	kreativ	träumen	gütig	gesittet	vergnügt	vertrauen	krank	töten	gierig	geizig	verbissen	versagen	besonnen	anregung	engagiert	kuss	genießen	sonnig	bange	ausrottung	engstirnig	krise	gemein	sterben	1	blank2r.bmp	0	1	+	0	1	blank2r.bmp	500	1	CPLW	500	1	blank2r.bmp	880	5	verbissen	880	0	0	0	0	0	0	0	0	0	0	0	0
2024-05-10	11:53:10	12:01:14	484114	6.6.1	4_exp_EVA_AWA_CON	24	A	B	Rpleas_acq	Oppo	Rpleas	2pleas	acq_new_pleas_nomask	acq1_nomask	1	33	0	0	300	300	0	0	508	50	1	0	kreativ	träumen	gütig	gesittet	vergnügt	vertrauen	krank	töten	gierig	geizig	verbissen	versagen	besonnen	anregung	engagiert	kuss	genießen	sonnig	bange	ausrottung	engstirnig	krise	gemein	sterben	1	blank2r.bmp	0	1	+	0	1	blank2r.bmp	500	8	C4r.bmp	500	1	blank2r.bmp	880	6	sonnig	880	0	0	0	0	0	0	0	0	0	0	0	0
2024-05-10	11:53:10	12:01:16	486316	6.6.1	4_exp_EVA_AWA_CON	24	A	B	Rpleas_acq	Oppo	Rpleas	2pleas	acq_US_pleas_nomask	acq1_nomask	1	34	0	0	300	300	0	0	517	46	0	0	kreativ	träumen	gütig	gesittet	vergnügt	vertrauen	krank	töten	gierig	geizig	verbissen	versagen	besonnen	anregung	engagiert	kuss	genießen	sonnig	bange	ausrottung	engstirnig	krise	gemein	sterben	1	blank2r.bmp	0	1	+	0	1	blank2r.bmp	500	1	DHJF	500	1	blank2r.bmp	880	6	vertrauen	880	1	FEHLER	1419	0	0	0	0	0	0	0	0	0
2024-05-10	11:53:10	12:01:19	488546	6.6.1	4_exp_EVA_AWA_CON	24	A	B	Rpleas_acq	Oppo	Rpleas	2pleas	acq_new_pleas_nomask	acq1_nomask	1	35	0	0	300	300	0	0	948	50	1	0	kreativ	träumen	gütig	gesittet	vergnügt	vertrauen	krank	töten	gierig	geizig	verbissen	versagen	besonnen	anregung	engagiert	kuss	genießen	sonnig	bange	ausrottung	engstirnig	krise	gemein	sterben	1	blank2r.bmp	0	1	+	0	1	blank2r.bmp	500	7	C3r.bmp	500	1	blank2r.bmp	880	5	genießen	880	0	0	0	0	0	0	0	0	0	0	0	0
2024-05-10	11:53:10	12:01:21	490634	6.6.1	4_exp_EVA_AWA_CON	24	A	B	Rpleas_acq	Oppo	Rpleas	2pleas	acq_US_pleas_nomask	acq1_nomask	1	36	0	0	300	300	0	0	604	50	1	0	kreativ	träumen	gütig	gesittet	vergnügt	vertrauen	krank	töten	gierig	geizig	verbissen	versagen	besonnen	anregung	engagiert	kuss	genießen	sonnig	bange	ausrottung	engstirnig	krise	gemein	sterben	1	blank2r.bmp	0	1	+	0	1	blank2r.bmp	500	1	DHJF	500	1	blank2r.bmp	880	5	vergnügt	880	0	0	0	0	0	0	0	0	0	0	0	0
2024-05-10	11:53:10	12:01:54	523488	6.6.1	4_exp_EVA_AWA_CON	24	A	B	Rpleas_acq	Oppo	Rpleas	2pleas	acq_US_unple_nomask	acq2_nomask	2	1	480	0	300	300	0	0	2224	50	0	0	kreativ	träumen	gütig	gesittet	vergnügt	vertrauen	krank	töten	gierig	geizig	verbissen	versagen	besonnen	anregung	engagiert	kuss	genießen	sonnig	bange	ausrottung	engstirnig	krise	gemein	sterben	1	blank2r.bmp	0	1	+	0	1	blank2r.bmp	500	1	CPLW	500	1	blank2r.bmp	880	4	geizig	880	1	FEHLER	3418	1	!	1312	1	!	-1	0	0	0
2024-05-10	11:53:10	12:01:56	525636	6.6.1	4_exp_EVA_AWA_CON	24	A	B	Rpleas_acq	Oppo	Rpleas	2pleas	acq_new_unple_nomask	acq2_nomask	2	2	480	0	300	300	0	0	573	46	1	0	kreativ	träumen	gütig	gesittet	vergnügt	vertrauen	krank	töten	gierig	geizig	verbissen	versagen	besonnen	anregung	engagiert	kuss	genießen	sonnig	bange	ausrottung	engstirnig	krise	gemein	sterben	1	blank2r.bmp	0	1	+	0	1	blank2r.bmp	500	3	B3r.bmp	500	1	blank2r.bmp	880	4	krise	880	1	!	1312	1	!	-1	0	0	0	0	0	0
2024-05-10	11:53:10	12:01:58	528012	6.6.1	4_exp_EVA_AWA_CON	24	A	B	Rpleas_acq	Oppo	Rpleas	2pleas	acq_US_pleas_nomask	acq2_nomask	2	3	480	0	300	300	0	0	598	50	1	0	kreativ	träumen	gütig	gesittet	vergnügt	vertrauen	krank	töten	gierig	geizig	verbissen	versagen	besonnen	anregung	engagiert	kuss	genießen	sonnig	bange	ausrottung	engstirnig	krise	gemein	sterben	1	blank2r.bmp	0	1	+	0	1	blank2r.bmp	500	1	DHJF	500	1	blank2r.bmp	880	4	gesittet	880	1	!	1312	1	!	-1	0	0	0	0	0	0
2024-05-10	11:53:10	12:02:01	530751	6.6.1	4_exp_EVA_AWA_CON	24	A	B	Rpleas_acq	Oppo	Rpleas	2pleas	acq_new_unple_nomask	acq2_nomask	2	4	480	0	300	300	0	0	762	50	0	0	kreativ	träumen	gütig	gesittet	vergnügt	vertrauen	krank	töten	gierig	geizig	verbissen	versagen	besonnen	anregung	engagiert	kuss	genießen	sonnig	bange	ausrottung	engstirnig	krise	gemein	sterben	1	blank2r.bmp	0	1	+	0	1	blank2r.bmp	500	4	B4r.bmp	500	1	blank2r.bmp	880	5	gemein	880	1	FEHLER	1956	1	!	1312	1	!	-1	0	0	0
2024-05-10	11:53:10	12:02:03	533100	6.6.1	4_exp_EVA_AWA_CON	24	A	B	Rpleas_acq	Oppo	Rpleas	2pleas	acq_new_pleas_nomask	acq2_nomask	2	5	480	0	300	300	0	0	773	50	1	0	kreativ	träumen	gütig	gesittet	vergnügt	vertrauen	krank	töten	gierig	geizig	verbissen	versagen	besonnen	anregung	engagiert	kuss	genießen	sonnig	bange	ausrottung	engstirnig	krise	gemein	sterben	1	blank2r.bmp	0	1	+	0	1	blank2r.bmp	500	5	C1r.bmp	500	1	blank2r.bmp	880	3	engagiert	880	1	!	1313	1	!	-1	0	0	0	0	0	0
2024-05-10	11:53:10	12:02:06	535615	6.6.1	4_exp_EVA_AWA_CON	24	A	B	Rpleas_acq	Oppo	Rpleas	2pleas	acq_new_unple_nomask	acq2_nomask	2	6	480	1	300	300	0	0	533	50	0	0	kreativ	träumen	gütig	gesittet	vergnügt	vertrauen	krank	töten	gierig	geizig	verbissen	versagen	besonnen	anregung	engagiert	kuss	genießen	sonnig	bange	ausrottung	engstirnig	krise	gemein	sterben	1	blank2r.bmp	0	1	+	0	1	blank2r.bmp	500	1	B1r.bmp	500	1	blank2r.bmp	880	3	engstirnig	880	1	FEHLER	1726	1	!	1312	1	!	1435	0	0	0
2024-05-10	11:53:10	12:02:08	537756	6.6.1	4_exp_EVA_AWA_CON	24	A	B	Rpleas_acq	Oppo	Rpleas	2pleas	acq_US_pleas_nomask	acq2_nomask	2	7	480	0	300	300	0	0	566	50	1	0	kreativ	träumen	gütig	gesittet	vergnügt	vertrauen	krank	töten	gierig	geizig	verbissen	versagen	besonnen	anregung	engagiert	kuss	genießen	sonnig	bange	ausrottung	engstirnig	krise	gemein	sterben	1	blank2r.bmp	0	1	+	0	1	blank2r.bmp	500	1	DHJF	500	1	blank2r.bmp	880	3	gütig	880	1	!	1312	1	!	-1	0	0	0	0	0	0
2024-05-10	11:53:10	12:02:10	540038	6.6.1	4_exp_EVA_AWA_CON	24	A	B	Rpleas_acq	Oppo	Rpleas	2pleas	acq_new_pleas_nomask	acq2_nomask	2	8	480	1	300	300	0	0	504	50	1	0	kreativ	träumen	gütig	gesittet	vergnügt	vertrauen	krank	töten	gierig	geizig	verbissen	versagen	besonnen	anregung	engagiert	kuss	genießen	sonnig	bange	ausrottung	engstirnig	krise	gemein	sterben	1	blank2r.bmp	0	1	+	0	1	blank2r.bmp	500	2	B2r.bmp	500	1	blank2r.bmp	880	2	anregung	880	1	!	1313	1	!	1405	0	0	0	0	0	0
2024-05-10	11:53:10	12:02:12	542342	6.6.1	4_exp_EVA_AWA_CON	24	A	B	Rpleas_acq	Oppo	Rpleas	2pleas	acq_US_pleas_nomask	acq2_nomask	2	9	480	1	300	300	0	0	527	50	1	0	kreativ	träumen	gütig	gesittet	vergnügt	vertrauen	krank	töten	gierig	geizig	verbissen	versagen	besonnen	anregung	engagiert	kuss	genießen	sonnig	bange	ausrottung	engstirnig	krise	gemein	sterben	1	blank2r.bmp	0	1	+	0	1	blank2r.bmp	500	1	DHJF	500	1	blank2r.bmp	880	1	kreativ	880	1	!	1313	1	!	1428	0	0	0	0	0	0
2024-05-10	11:53:10	12:02:15	544844	6.6.1	4_exp_EVA_AWA_CON	24	A	B	Rpleas_acq	Oppo	Rpleas	2pleas	acq_new_pleas_nomask	acq2_nomask	2	10	480	0	300	300	0	0	729	50	1	0	kreativ	träumen	gütig	gesittet	vergnügt	vertrauen	krank	töten	gierig	geizig	verbissen	versagen	besonnen	anregung	engagiert	kuss	genießen	sonnig	bange	ausrottung	engstirnig	krise	gemein	sterben	1	blank2r.bmp	0	1	+	0	1	blank2r.bmp	500	6	C2r.bmp	500	1	blank2r.bmp	880	4	kuss	880	1	!	1312	1	!	-1	0	0	0	0	0	0
2024-05-10	11:53:10	12:02:17	547102	6.6.1	4_exp_EVA_AWA_CON	24	A	B	Rpleas_acq	Oppo	Rpleas	2pleas	acq_US_unple_nomask	acq2_nomask	2	11	480	1	300	300	0	0	483	46	1	0	kreativ	träumen	gütig	gesittet	vergnügt	vertrauen	krank	töten	gierig	geizig	verbissen	versagen	besonnen	anregung	engagiert	kuss	genießen	sonnig	bange	ausrottung	engstirnig	krise	gemein	sterben	1	blank2r.bmp	0	1	+	0	1	blank2r.bmp	500	1	CPLW	500	1	blank2r.bmp	880	2	töten	880	1	!	1312	1	!	1385	0	0	0	0	0	0
2024-05-10	11:53:10	12:02:20	549527	6.6.1	4_exp_EVA_AWA_CON	24	A	B	Rpleas_acq	Oppo	Rpleas	2pleas	acq_US_unple_nomask	acq2_nomask	2	12	480	1	300	300	0	0	446	50	0	0	kreativ	träumen	gütig	gesittet	vergnügt	vertrauen	krank	töten	gierig	geizig	verbissen	versagen	besonnen	anregung	engagiert	kuss	genießen	sonnig	bange	ausrottung	engstirnig	krise	gemein	sterben	1	blank2r.bmp	0	1	+	0	1	blank2r.bmp	500	1	CPLW	500	1	blank2r.bmp	880	1	krank	880	1	FEHLER	1639	1	!	1312	1	!	1347	0	0	0
2024-05-10	11:53:10	12:02:22	552012	6.6.1	4_exp_EVA_AWA_CON	24	A	B	Rpleas_acq	Oppo	Rpleas	2pleas	acq_US_unple_nomask	acq2_nomask	2	13	480	0	300	300	0	0	912	46	1	0	kreativ	träumen	gütig	gesittet	vergnügt	vertrauen	krank	töten	gierig	geizig	verbissen	versagen	besonnen	anregung	engagiert	kuss	genießen	sonnig	bange	ausrottung	engstirnig	krise	gemein	sterben	1	blank2r.bmp	0	1	+	0	1	blank2r.bmp	500	1	CPLW	500	1	blank2r.bmp	880	2	töten	880	1	!	1313	1	!	-1	0	0	0	0	0	0
2024-05-10	11:53:10	12:02:24	554334	6.6.1	4_exp_EVA_AWA_CON	24	A	B	Rpleas_acq	Oppo	Rpleas	2pleas	acq_US_unple_nomask	acq2_nomask	2	14	480	1	300	300	0	0	541	46	1	0	kreativ	träumen	gütig	gesittet	vergnügt	vertrauen	krank	töten	gierig	geizig	verbissen	versagen	besonnen	anregung	engagiert	kuss	genießen	sonnig	bange	ausrottung	engstirnig	krise	gemein	sterben	1	blank2r.bmp	0	1	+	0	1	blank2r.bmp	500	1	CPLW	500	1	blank2r.bmp	880	4	geizig	880	1	!	1312	1	!	1442	0	0	0	0	0	0
2024-05-10	11:53:10	12:02:27	556812	6.6.1	4_exp_EVA_AWA_CON	24	A	B	Rpleas_acq	Oppo	Rpleas	2pleas	acq_new_unple_nomask	acq2_nomask	2	15	480	0	300	300	0	0	699	46	1	0	kreativ	träumen	gütig	gesittet	vergnügt	vertrauen	krank	töten	gierig	geizig	verbissen	versagen	besonnen	anregung	engagiert	kuss	genießen	sonnig	bange	ausrottung	engstirnig	krise	gemein	sterben	1	blank2r.bmp	0	1	+	0	1	blank2r.bmp	500	5	C1r.bmp	500	1	blank2r.bmp	880	4	krise	880	1	!	1312	1	!	-1	0	0	0	0	0	0
2024-05-10	11:53:10	12:02:29	559319	6.6.1	4_exp_EVA_AWA_CON	24	A	B	Rpleas_acq	Oppo	Rpleas	2pleas	acq_US_unple_nomask	acq2_nomask	2	16	480	1	300	300	0	0	532	50	0	0	kreativ	träumen	gütig	gesittet	vergnügt	vertrauen	krank	töten	gierig	geizig	verbissen	versagen	besonnen	anregung	engagiert	kuss	genießen	sonnig	bange	ausrottung	engstirnig	krise	gemein	sterben	1	blank2r.bmp	0	1	+	0	1	blank2r.bmp	500	1	CPLW	500	1	blank2r.bmp	880	6	versagen	880	1	FEHLER	1725	1	!	1313	1	!	1433	0	0	0
2024-05-10	11:53:10	12:02:32	561708	6.6.1	4_exp_EVA_AWA_CON	24	A	B	Rpleas_acq	Oppo	Rpleas	2pleas	acq_new_unple_nomask	acq2_nomask	2	17	480	0	300	300	0	0	812	46	1	0	kreativ	träumen	gütig	gesittet	vergnügt	vertrauen	krank	töten	gierig	geizig	verbissen	versagen	besonnen	anregung	engagiert	kuss	genießen	sonnig	bange	ausrottung	engstirnig	krise	gemein	sterben	1	blank2r.bmp	0	1	+	0	1	blank2r.bmp	500	1	B1r.bmp	500	1	blank2r.bmp	880	3	engstirnig	880	1	!	1312	1	!	-1	0	0	0	0	0	0
2024-05-10	11:53:10	12:02:34	564022	6.6.1	4_exp_EVA_AWA_CON	24	A	B	Rpleas_acq	Oppo	Rpleas	2pleas	acq_new_unple_nomask	acq2_nomask	2	18	480	1	300	300	0	0	532	46	1	0	kreativ	träumen	gütig	gesittet	vergnügt	vertrauen	krank	töten	gierig	geizig	verbissen	versagen	besonnen	anregung	engagiert	kuss	genießen	sonnig	bange	ausrottung	engstirnig	krise	gemein	sterben	1	blank2r.bmp	0	1	+	0	1	blank2r.bmp	500	2	B2r.bmp	500	1	blank2r.bmp	880	2	ausrottung	880	1	!	1313	1	!	1434	0	0	0	0	0	0
2024-05-10	11:53:10	12:02:36	566396	6.6.1	4_exp_EVA_AWA_CON	24	A	B	Rpleas_acq	Oppo	Rpleas	2pleas	acq_US_pleas_nomask	acq2_nomask	2	19	480	0	300	300	0	0	597	50	1	0	kreativ	träumen	gütig	gesittet	vergnügt	vertrauen	krank	töten	gierig	geizig	verbissen	versagen	besonnen	anregung	engagiert	kuss	genießen	sonnig	bange	ausrottung	engstirnig	krise	gemein	sterben	1	blank2r.bmp	0	1	+	0	1	blank2r.bmp	500	1	DHJF	500	1	blank2r.bmp	880	6	vertrauen	880	1	!	1312	1	!	-1	0	0	0	0	0	0
2024-05-10	11:53:10	12:02:39	568718	6.6.1	4_exp_EVA_AWA_CON	24	A	B	Rpleas_acq	Oppo	Rpleas	2pleas	acq_US_pleas_nomask	acq2_nomask	2	20	480	1	300	300	0	0	545	50	1	0	kreativ	träumen	gütig	gesittet	vergnügt	vertrauen	krank	töten	gierig	geizig	verbissen	versagen	besonnen	anregung	engagiert	kuss	genießen	sonnig	bange	ausrottung	engstirnig	krise	gemein	sterben	1	blank2r.bmp	0	1	+	0	1	blank2r.bmp	500	1	DHJF	500	1	blank2r.bmp	880	1	kreativ	880	1	!	1312	1	!	1447	0	0	0	0	0	0
2024-05-10	11:53:10	12:02:41	571068	6.6.1	4_exp_EVA_AWA_CON	24	A	B	Rpleas_acq	Oppo	Rpleas	2pleas	acq_new_pleas_nomask	acq2_nomask	2	21	480	0	300	300	0	0	576	50	1	0	kreativ	träumen	gütig	gesittet	vergnügt	vertrauen	krank	töten	gierig	geizig	verbissen	versagen	besonnen	anregung	engagiert	kuss	genießen	sonnig	bange	ausrottung	engstirnig	krise	gemein	sterben	1	blank2r.bmp	0	1	+	0	1	blank2r.bmp	500	7	C3r.bmp	500	1	blank2r.bmp	880	5	genießen	880	1	!	1312	1	!	-1	0	0	0	0	0	0
2024-05-10	11:53:10	12:02:43	573374	6.6.1	4_exp_EVA_AWA_CON	24	A	B	Rpleas_acq	Oppo	Rpleas	2pleas	acq_new_pleas_nomask	acq2_nomask	2	22	480	1	300	300	0	0	528	50	1	0	kreativ	träumen	gütig	gesittet	vergnügt	vertrauen	krank	töten	gierig	geizig	verbissen	versagen	besonnen	anregung	engagiert	kuss	genießen	sonnig	bange	ausrottung	engstirnig	krise	gemein	sterben	1	blank2r.bmp	0	1	+	0	1	blank2r.bmp	500	6	C2r.bmp	500	1	blank2r.bmp	880	2	anregung	880	1	!	1313	1	!	1430	0	0	0	0	0	0
2024-05-10	11:53:10	12:02:46	575630	6.6.1	4_exp_EVA_AWA_CON	24	A	B	Rpleas_acq	Oppo	Rpleas	2pleas	acq_US_pleas_nomask	acq2_nomask	2	23	480	1	300	300	0	0	473	50	1	0	kreativ	träumen	gütig	gesittet	vergnügt	vertrauen	krank	töten	gierig	geizig	verbissen	versagen	besonnen	anregung	engagiert	kuss	genießen	sonnig	bange	ausrottung	engstirnig	krise	gemein	sterben	1	blank2r.bmp	0	1	+	0	1	blank2r.bmp	500	1	DHJF	500	1	blank2r.bmp	880	5	vergnügt	880	1	!	1312	1	!	1374	0	0	0	0	0	0
2024-05-10	11:53:10	12:02:48	577942	6.6.1	4_exp_EVA_AWA_CON	24	A	B	Rpleas_acq	Oppo	Rpleas	2pleas	acq_new_pleas_nomask	acq2_nomask	2	24	480	1	300	300	0	0	533	50	1	0	kreativ	träumen	gütig	gesittet	vergnügt	vertrauen	krank	töten	gierig	geizig	verbissen	versagen	besonnen	anregung	engagiert	kuss	genießen	sonnig	bange	ausrottung	engstirnig	krise	gemein	sterben	1	blank2r.bmp	0	1	+	0	1	blank2r.bmp	500	4	B4r.bmp	500	1	blank2r.bmp	880	6	sonnig	880	1	!	1313	1	!	1435	0	0	0	0	0	0
2024-05-10	11:53:10	12:02:50	580174	6.6.1	4_exp_EVA_AWA_CON	24	A	B	Rpleas_acq	Oppo	Rpleas	2pleas	acq_US_pleas_nomask	acq2_nomask	2	25	480	1	300	300	0	0	454	50	1	0	kreativ	träumen	gütig	gesittet	vergnügt	vertrauen	krank	töten	gierig	geizig	verbissen	versagen	besonnen	anregung	engagiert	kuss	genießen	sonnig	bange	ausrottung	engstirnig	krise	gemein	sterben	1	blank2r.bmp	0	1	+	0	1	blank2r.bmp	500	1	DHJF	500	1	blank2r.bmp	880	2	träumen	880	1	!	1313	1	!	1355	0	0	0	0	0	0
2024-05-10	11:53:10	12:02:53	582502	6.6.1	4_exp_EVA_AWA_CON	24	A	B	Rpleas_acq	Oppo	Rpleas	2pleas	acq_new_pleas_nomask	acq2_nomask	2	26	480	1	300	300	0	0	550	50	1	0	kreativ	träumen	gütig	gesittet	vergnügt	vertrauen	krank	töten	gierig	geizig	verbissen	versagen	besonnen	anregung	engagiert	kuss	genießen	sonnig	bange	ausrottung	engstirnig	krise	gemein	sterben	1	blank2r.bmp	0	1	+	0	1	blank2r.bmp	500	8	C4r.bmp	500	1	blank2r.bmp	880	4	kuss	880	1	!	1312	1	!	1452	0	0	0	0	0	0
2024-05-10	11:53:10	12:02:55	584842	6.6.1	4_exp_EVA_AWA_CON	24	A	B	Rpleas_acq	Oppo	Rpleas	2pleas	acq_US_unple_nomask	acq2_nomask	2	27	480	0	300	300	0	0	563	46	1	0	kreativ	träumen	gütig	gesittet	vergnügt	vertrauen	krank	töten	gierig	geizig	verbissen	versagen	besonnen	anregung	engagiert	kuss	genießen	sonnig	bange	ausrottung	engstirnig	krise	gemein	sterben	1	blank2r.bmp	0	1	+	0	1	blank2r.bmp	500	1	CPLW	500	1	blank2r.bmp	880	3	gierig	880	1	!	1313	1	!	-1	0	0	0	0	0	0
2024-05-10	11:53:10	12:02:57	587102	6.6.1	4_exp_EVA_AWA_CON	24	A	B	Rpleas_acq	Oppo	Rpleas	2pleas	acq_new_pleas_nomask	acq2_nomask	2	28	480	1	300	300	0	0	477	50	1	0	kreativ	träumen	gütig	gesittet	vergnügt	vertrauen	krank	töten	gierig	geizig	verbissen	versagen	besonnen	anregung	engagiert	kuss	genießen	sonnig	bange	ausrottung	engstirnig	krise	gemein	sterben	1	blank2r.bmp	0	1	+	0	1	blank2r.bmp	500	3	B3r.bmp	500	1	blank2r.bmp	880	1	besonnen	880	1	!	1313	1	!	1379	0	0	0	0	0	0
2024-05-10	11:53:10	12:02:59	589414	6.6.1	4_exp_EVA_AWA_CON	24	A	B	Rpleas_acq	Oppo	Rpleas	2pleas	acq_US_pleas_nomask	acq2_nomask	2	29	480	1	300	300	0	0	528	50	1	0	kreativ	träumen	gütig	gesittet	vergnügt	vertrauen	krank	töten	gierig	geizig	verbissen	versagen	besonnen	anregung	engagiert	kuss	genießen	sonnig	bange	ausrottung	engstirnig	krise	gemein	sterben	1	blank2r.bmp	0	1	+	0	1	blank2r.bmp	500	1	DHJF	500	1	blank2r.bmp	880	3	gütig	880	1	!	1312	1	!	1429	0	0	0	0	0	0
2024-05-10	11:53:10	12:03:02	591630	6.6.1	4_exp_EVA_AWA_CON	24	A	B	Rpleas_acq	Oppo	Rpleas	2pleas	acq_new_unple_nomask	acq2_nomask	2	30	480	1	300	300	0	0	432	46	1	0	kreativ	träumen	gütig	gesittet	vergnügt	vertrauen	krank	töten	gierig	geizig	verbissen	versagen	besonnen	anregung	engagiert	kuss	genießen	sonnig	bange	ausrottung	engstirnig	krise	gemein	sterben	1	blank2r.bmp	0	1	+	0	1	blank2r.bmp	500	7	C3r.bmp	500	1	blank2r.bmp	880	6	sterben	880	1	!	1312	1	!	1334	0	0	0	0	0	0
2024-05-10	11:53:10	12:03:04	593894	6.6.1	4_exp_EVA_AWA_CON	24	A	B	Rpleas_acq	Oppo	Rpleas	2pleas	acq_new_unple_nomask	acq2_nomask	2	31	480	1	300	300	0	0	485	46	1	0	kreativ	träumen	gütig	gesittet	vergnügt	vertrauen	krank	töten	gierig	geizig	verbissen	versagen	besonnen	anregung	engagiert	kuss	genießen	sonnig	bange	ausrottung	engstirnig	krise	gemein	sterben	1	blank2r.bmp	0	1	+	0	1	blank2r.bmp	500	5	C1r.bmp	500	1	blank2r.bmp	880	5	gemein	880	1	!	1312	1	!	1386	0	0	0	0	0	0
2024-05-10	11:53:10	12:03:06	596214	6.6.1	4_exp_EVA_AWA_CON	24	A	B	Rpleas_acq	Oppo	Rpleas	2pleas	acq_US_unple_nomask	acq2_nomask	2	32	480	1	300	300	0	0	543	46	1	0	kreativ	träumen	gütig	gesittet	vergnügt	vertrauen	krank	töten	gierig	geizig	verbissen	versagen	besonnen	anregung	engagiert	kuss	genießen	sonnig	bange	ausrottung	engstirnig	krise	gemein	sterben	1	blank2r.bmp	0	1	+	0	1	blank2r.bmp	500	1	CPLW	500	1	blank2r.bmp	880	1	krank	880	1	!	1313	1	!	1445	0	0	0	0	0	0
2024-05-10	11:53:10	12:03:08	598412	6.6.1	4_exp_EVA_AWA_CON	24	A	B	Rpleas_acq	Oppo	Rpleas	2pleas	acq_US_unple_nomask	acq2_nomask	2	33	480	1	300	300	0	0	422	46	1	0	kreativ	träumen	gütig	gesittet	vergnügt	vertrauen	krank	töten	gierig	geizig	verbissen	versagen	besonnen	anregung	engagiert	kuss	genießen	sonnig	bange	ausrottung	engstirnig	krise	gemein	sterben	1	blank2r.bmp	0	1	+	0	1	blank2r.bmp	500	1	CPLW	500	1	blank2r.bmp	880	5	verbissen	880	1	!	1313	1	!	1322	0	0	0	0	0	0
2024-05-10	11:53:10	12:03:11	600746	6.6.1	4_exp_EVA_AWA_CON	24	A	B	Rpleas_acq	Oppo	Rpleas	2pleas	acq_new_pleas_nomask	acq2_nomask	2	34	480	0	300	300	0	0	556	50	1	0	kreativ	träumen	gütig	gesittet	vergnügt	vertrauen	krank	töten	gierig	geizig	verbissen	versagen	besonnen	anregung	engagiert	kuss	genießen	sonnig	bange	ausrottung	engstirnig	krise	gemein	sterben	1	blank2r.bmp	0	1	+	0	1	blank2r.bmp	500	8	C4r.bmp	500	1	blank2r.bmp	880	3	engagiert	880	1	!	1312	1	!	-1	0	0	0	0	0	0
2024-05-10	11:53:10	12:03:13	603263	6.6.1	4_exp_EVA_AWA_CON	24	A	B	Rpleas_acq	Oppo	Rpleas	2pleas	acq_US_pleas_nomask	acq2_nomask	2	35	480	1	300	300	0	0	537	46	0	0	kreativ	träumen	gütig	gesittet	vergnügt	vertrauen	krank	töten	gierig	geizig	verbissen	versagen	besonnen	anregung	engagiert	kuss	genießen	sonnig	bange	ausrottung	engstirnig	krise	gemein	sterben	1	blank2r.bmp	0	1	+	0	1	blank2r.bmp	500	1	DHJF	500	1	blank2r.bmp	880	4	gesittet	880	1	FEHLER	1730	1	!	1313	1	!	1438	0	0	0
2024-05-10	11:53:10	12:03:15	605310	6.6.1	4_exp_EVA_AWA_CON	24	A	B	Rpleas_acq	Oppo	Rpleas	2pleas	acq_new_unple_nomask	acq2_nomask	2	36	480	1	300	300	0	0	473	46	1	0	kreativ	träumen	gütig	gesittet	vergnügt	vertrauen	krank	töten	gierig	geizig	verbissen	versagen	besonnen	anregung	engagiert	kuss	genießen	sonnig	bange	ausrottung	engstirnig	krise	gemein	sterben	1	blank2r.bmp	0	1	+	0	1	blank2r.bmp	500	1	B1r.bmp	500	1	blank2r.bmp	880	1	bange	880	1	!	1313	1	!	1375	0	0	0	0	0	0
2024-05-10	11:53:10	12:03:34	623986	6.6.1	4_exp_EVA_AWA_CON	24	A	B	Rpleas_acq	Oppo	Rpleas	2pleas	acq_US_pleas_nomask	acq3_nomask	3	1	453	0	300	300	0	0	531	50	1	0	kreativ	träumen	gütig	gesittet	vergnügt	vertrauen	krank	töten	gierig	geizig	verbissen	versagen	besonnen	anregung	engagiert	kuss	genießen	sonnig	bange	ausrottung	engstirnig	krise	gemein	sterben	1	blank2r.bmp	0	1	+	0	1	blank2r.bmp	500	1	DHJF	500	1	blank2r.bmp	880	2	träumen	880	1	!	1292	1	!	-1	0	0	0	0	0	0
2024-05-10	11:53:10	12:03:36	626412	6.6.1	4_exp_EVA_AWA_CON	24	A	B	Rpleas_acq	Oppo	Rpleas	2pleas	acq_US_pleas_nomask	acq3_nomask	3	2	453	0	300	300	0	0	644	50	1	0	kreativ	träumen	gütig	gesittet	vergnügt	vertrauen	krank	töten	gierig	geizig	verbissen	versagen	besonnen	anregung	engagiert	kuss	genießen	sonnig	bange	ausrottung	engstirnig	krise	gemein	sterben	1	blank2r.bmp	0	1	+	0	1	blank2r.bmp	500	1	DHJF	500	1	blank2r.bmp	880	3	gütig	880	1	!	1292	1	!	-1	0	0	0	0	0	0
2024-05-10	11:53:10	12:03:39	628702	6.6.1	4_exp_EVA_AWA_CON	24	A	B	Rpleas_acq	Oppo	Rpleas	2pleas	acq_US_pleas_nomask	acq3_nomask	3	3	453	1	300	300	0	0	510	50	1	0	kreativ	träumen	gütig	gesittet	vergnügt	vertrauen	krank	töten	gierig	geizig	verbissen	versagen	besonnen	anregung	engagiert	kuss	genießen	sonnig	bange	ausrottung	engstirnig	krise	gemein	sterben	1	blank2r.bmp	0	1	+	0	1	blank2r.bmp	500	1	DHJF	500	1	blank2r.bmp	880	6	vertrauen	880	1	!	1293	1	!	1412	0	0	0	0	0	0
2024-05-10	11:53:10	12:03:41	631010	6.6.1	4_exp_EVA_AWA_CON	24	A	B	Rpleas_acq	Oppo	Rpleas	2pleas	acq_US_unple_nomask	acq3_nomask	3	4	453	0	300	300	0	0	531	46	1	0	kreativ	träumen	gütig	gesittet	vergnügt	vertrauen	krank	töten	gierig	geizig	verbissen	versagen	besonnen	anregung	engagiert	kuss	genießen	sonnig	bange	ausrottung	engstirnig	krise	gemein	sterben	1	blank2r.bmp	0	1	+	0	1	blank2r.bmp	500	1	CPLW	500	1	blank2r.bmp	880	3	gierig	880	1	!	1293	1	!	-1	0	0	0	0	0	0
2024-05-10	11:53:10	12:03:44	633495	6.6.1	4_exp_EVA_AWA_CON	24	A	B	Rpleas_acq	Oppo	Rpleas	2pleas	acq_US_pleas_nomask	acq3_nomask	3	5	453	1	300	300	0	0	509	46	0	0	kreativ	träumen	gütig	gesittet	vergnügt	vertrauen	krank	töten	gierig	geizig	verbissen	versagen	besonnen	anregung	engagiert	kuss	genießen	sonnig	bange	ausrottung	engstirnig	krise	gemein	sterben	1	blank2r.bmp	0	1	+	0	1	blank2r.bmp	500	1	DHJF	500	1	blank2r.bmp	880	4	gesittet	880	1	FEHLER	1703	1	!	1293	1	!	1411	0	0	0
2024-05-10	11:53:10	12:03:46	635620	6.6.1	4_exp_EVA_AWA_CON	24	A	B	Rpleas_acq	Oppo	Rpleas	2pleas	acq_US_unple_nomask	acq3_nomask	3	6	453	0	300	300	0	0	546	46	1	0	kreativ	träumen	gütig	gesittet	vergnügt	vertrauen	krank	töten	gierig	geizig	verbissen	versagen	besonnen	anregung	engagiert	kuss	genießen	sonnig	bange	ausrottung	engstirnig	krise	gemein	sterben	1	blank2r.bmp	0	1	+	0	1	blank2r.bmp	500	1	CPLW	500	1	blank2r.bmp	880	2	töten	880	1	!	1293	1	!	-1	0	0	0	0	0	0
2024-05-10	11:53:10	12:03:48	638220	6.6.1	4_exp_EVA_AWA_CON	24	A	B	Rpleas_acq	Oppo	Rpleas	2pleas	acq_US_pleas_nomask	acq3_nomask	3	7	453	0	300	300	0	0	824	50	1	0	kreativ	träumen	gütig	gesittet	vergnügt	vertrauen	krank	töten	gierig	geizig	verbissen	versagen	besonnen	anregung	engagiert	kuss	genießen	sonnig	bange	ausrottung	engstirnig	krise	gemein	sterben	1	blank2r.bmp	0	1	+	0	1	blank2r.bmp	500	1	DHJF	500	1	blank2r.bmp	880	5	vergnügt	880	1	!	1292	1	!	-1	0	0	0	0	0	0
2024-05-10	11:53:10	12:03:51	640486	6.6.1	4_exp_EVA_AWA_CON	24	A	B	Rpleas_acq	Oppo	Rpleas	2pleas	acq_US_unple_nomask	acq3_nomask	3	8	453	1	300	300	0	0	486	46	1	0	kreativ	träumen	gütig	gesittet	vergnügt	vertrauen	krank	töten	gierig	geizig	verbissen	versagen	besonnen	anregung	engagiert	kuss	genießen	sonnig	bange	ausrottung	engstirnig	krise	gemein	sterben	1	blank2r.bmp	0	1	+	0	1	blank2r.bmp	500	1	CPLW	500	1	blank2r.bmp	880	5	verbissen	880	1	!	1292	1	!	1388	0	0	0	0	0	0
2024-05-10	11:53:10	12:03:53	642694	6.6.1	4_exp_EVA_AWA_CON	24	A	B	Rpleas_acq	Oppo	Rpleas	2pleas	acq_US_pleas_nomask	acq3_nomask	3	9	453	1	300	300	0	0	433	50	1	0	kreativ	träumen	gütig	gesittet	vergnügt	vertrauen	krank	töten	gierig	geizig	verbissen	versagen	besonnen	anregung	engagiert	kuss	genießen	sonnig	bange	ausrottung	engstirnig	krise	gemein	sterben	1	blank2r.bmp	0	1	+	0	1	blank2r.bmp	500	1	DHJF	500	1	blank2r.bmp	880	1	kreativ	880	1	!	1292	1	!	1334	0	0	0	0	0	0
2024-05-10	11:53:10	12:03:55	644926	6.6.1	4_exp_EVA_AWA_CON	24	A	B	Rpleas_acq	Oppo	Rpleas	2pleas	acq_US_unple_nomask	acq3_nomask	3	10	453	1	300	300	0	0	453	46	1	0	kreativ	träumen	gütig	gesittet	vergnügt	vertrauen	krank	töten	gierig	geizig	verbissen	versagen	besonnen	anregung	engagiert	kuss	genießen	sonnig	bange	ausrottung	engstirnig	krise	gemein	sterben	1	blank2r.bmp	0	1	+	0	1	blank2r.bmp	500	1	CPLW	500	1	blank2r.bmp	880	1	krank	880	1	!	1292	1	!	1355	0	0	0	0	0	0
2024-05-10	11:53:10	12:03:57	647135	6.6.1	4_exp_EVA_AWA_CON	24	A	B	Rpleas_acq	Oppo	Rpleas	2pleas	acq_US_unple_nomask	acq3_nomask	3	11	453	1	300	300	0	0	430	46	1	0	kreativ	träumen	gütig	gesittet	vergnügt	vertrauen	krank	töten	gierig	geizig	verbissen	versagen	besonnen	anregung	engagiert	kuss	genießen	sonnig	bange	ausrottung	engstirnig	krise	gemein	sterben	1	blank2r.bmp	0	1	+	0	1	blank2r.bmp	500	1	CPLW	500	1	blank2r.bmp	880	4	geizig	880	1	!	1293	1	!	1332	0	0	0	0	0	0
2024-05-10	11:53:10	12:03:59	649366	6.6.1	4_exp_EVA_AWA_CON	24	A	B	Rpleas_acq	Oppo	Rpleas	2pleas	acq_US_unple_nomask	acq3_nomask	3	12	453	1	300	300	0	0	450	46	1	0	kreativ	träumen	gütig	gesittet	vergnügt	vertrauen	krank	töten	gierig	geizig	verbissen	versagen	besonnen	anregung	engagiert	kuss	genießen	sonnig	bange	ausrottung	engstirnig	krise	gemein	sterben	1	blank2r.bmp	0	1	+	0	1	blank2r.bmp	500	1	CPLW	500	1	blank2r.bmp	880	6	versagen	880	1	!	1292	1	!	1352	0	0	0	0	0	0
2024-05-10	11:53:10	12:04:02	651896	6.6.1	4_exp_EVA_AWA_CON	24	A	B	Rpleas_acq	Oppo	Rpleas	2pleas	acq_US_pleas_nomask	acq3_nomask	3	13	453	0	300	300	0	0	547	46	0	0	kreativ	träumen	gütig	gesittet	vergnügt	vertrauen	krank	töten	gierig	geizig	verbissen	versagen	besonnen	anregung	engagiert	kuss	genießen	sonnig	bange	ausrottung	engstirnig	krise	gemein	sterben	1	blank2r.bmp	0	1	+	0	1	blank2r.bmp	500	1	DHJF	500	1	blank2r.bmp	880	3	gütig	880	1	FEHLER	1741	1	!	1292	1	!	-1	0	0	0
2024-05-10	11:53:10	12:04:04	654037	6.6.1	4_exp_EVA_AWA_CON	24	A	B	Rpleas_acq	Oppo	Rpleas	2pleas	acq_US_unple_nomask	acq3_nomask	3	14	453	0	300	300	0	0	569	46	1	0	kreativ	träumen	gütig	gesittet	vergnügt	vertrauen	krank	töten	gierig	geizig	verbissen	versagen	besonnen	anregung	engagiert	kuss	genießen	sonnig	bange	ausrottung	engstirnig	krise	gemein	sterben	1	blank2r.bmp	0	1	+	0	1	blank2r.bmp	500	1	CPLW	500	1	blank2r.bmp	880	4	geizig	880	1	!	1292	1	!	-1	0	0	0	0	0	0
2024-05-10	11:53:10	12:04:06	656319	6.6.1	4_exp_EVA_AWA_CON	24	A	B	Rpleas_acq	Oppo	Rpleas	2pleas	acq_US_unple_nomask	acq3_nomask	3	15	453	1	300	300	0	0	498	46	1	0	kreativ	träumen	gütig	gesittet	vergnügt	vertrauen	krank	töten	gierig	geizig	verbissen	versagen	besonnen	anregung	engagiert	kuss	genießen	sonnig	bange	ausrottung	engstirnig	krise	gemein	sterben	1	blank2r.bmp	0	1	+	0	1	blank2r.bmp	500	1	CPLW	500	1	blank2r.bmp	880	5	verbissen	880	1	!	1293	1	!	1400	0	0	0	0	0	0
2024-05-10	11:53:10	12:04:09	658566	6.6.1	4_exp_EVA_AWA_CON	24	A	B	Rpleas_acq	Oppo	Rpleas	2pleas	acq_US_unple_nomask	acq3_nomask	3	16	453	1	300	300	0	0	465	46	1	0	kreativ	träumen	gütig	gesittet	vergnügt	vertrauen	krank	töten	gierig	geizig	verbissen	versagen	besonnen	anregung	engagiert	kuss	genießen	sonnig	bange	ausrottung	engstirnig	krise	gemein	sterben	1	blank2r.bmp	0	1	+	0	1	blank2r.bmp	500	1	CPLW	500	1	blank2r.bmp	880	3	gierig	880	1	!	1292	1	!	1366	0	0	0	0	0	0
2024-05-10	11:53:10	12:04:11	660814	6.6.1	4_exp_EVA_AWA_CON	24	A	B	Rpleas_acq	Oppo	Rpleas	2pleas	acq_US_unple_nomask	acq3_nomask	3	17	453	1	300	300	0	0	471	46	1	0	kreativ	träumen	gütig	gesittet	vergnügt	vertrauen	krank	töten	gierig	geizig	verbissen	versagen	besonnen	anregung	engagiert	kuss	genießen	sonnig	bange	ausrottung	engstirnig	krise	gemein	sterben	1	blank2r.bmp	0	1	+	0	1	blank2r.bmp	500	1	CPLW	500	1	blank2r.bmp	880	2	töten	880	1	!	1292	1	!	1372	0	0	0	0	0	0
2024-05-10	11:53:10	12:04:13	663070	6.6.1	4_exp_EVA_AWA_CON	24	A	B	Rpleas_acq	Oppo	Rpleas	2pleas	acq_US_unple_nomask	acq3_nomask	3	18	453	1	300	300	0	0	476	46	1	0	kreativ	träumen	gütig	gesittet	vergnügt	vertrauen	krank	töten	gierig	geizig	verbissen	versagen	besonnen	anregung	engagiert	kuss	genießen	sonnig	bange	ausrottung	engstirnig	krise	gemein	sterben	1	blank2r.bmp	0	1	+	0	1	blank2r.bmp	500	1	CPLW	500	1	blank2r.bmp	880	1	krank	880	1	!	1292	1	!	1377	0	0	0	0	0	0
2024-05-10	11:53:10	12:04:15	665388	6.6.1	4_exp_EVA_AWA_CON	24	A	B	Rpleas_acq	Oppo	Rpleas	2pleas	acq_US_pleas_nomask	acq3_nomask	3	19	453	0	300	300	0	0	544	50	1	0	kreativ	träumen	gütig	gesittet	vergnügt	vertrauen	krank	töten	gierig	geizig	verbissen	versagen	besonnen	anregung	engagiert	kuss	genießen	sonnig	bange	ausrottung	engstirnig	krise	gemein	sterben	1	blank2r.bmp	0	1	+	0	1	blank2r.bmp	500	1	DHJF	500	1	blank2r.bmp	880	5	vergnügt	880	1	!	1293	1	!	-1	0	0	0	0	0	0
2024-05-10	11:53:10	12:04:18	667614	6.6.1	4_exp_EVA_AWA_CON	24	A	B	Rpleas_acq	Oppo	Rpleas	2pleas	acq_US_pleas_nomask	acq3_nomask	3	20	453	1	300	300	0	0	446	50	1	0	kreativ	träumen	gütig	gesittet	vergnügt	vertrauen	krank	töten	gierig	geizig	verbissen	versagen	besonnen	anregung	engagiert	kuss	genießen	sonnig	bange	ausrottung	engstirnig	krise	gemein	sterben	1	blank2r.bmp	0	1	+	0	1	blank2r.bmp	500	1	DHJF	500	1	blank2r.bmp	880	2	träumen	880	1	!	1292	1	!	1348	0	0	0	0	0	0
2024-05-10	11:53:10	12:04:20	669894	6.6.1	4_exp_EVA_AWA_CON	24	A	B	Rpleas_acq	Oppo	Rpleas	2pleas	acq_US_pleas_nomask	acq3_nomask	3	21	453	1	300	300	0	0	505	50	1	0	kreativ	träumen	gütig	gesittet	vergnügt	vertrauen	krank	töten	gierig	geizig	verbissen	versagen	besonnen	anregung	engagiert	kuss	genießen	sonnig	bange	ausrottung	engstirnig	krise	gemein	sterben	1	blank2r.bmp	0	1	+	0	1	blank2r.bmp	500	1	DHJF	500	1	blank2r.bmp	880	4	gesittet	880	1	!	1293	1	!	1407	0	0	0	0	0	0
2024-05-10	11:53:10	12:04:22	672174	6.6.1	4_exp_EVA_AWA_CON	24	A	B	Rpleas_acq	Oppo	Rpleas	2pleas	acq_US_pleas_nomask	acq3_nomask	3	22	453	1	300	300	0	0	504	50	1	0	kreativ	träumen	gütig	gesittet	vergnügt	vertrauen	krank	töten	gierig	geizig	verbissen	versagen	besonnen	anregung	engagiert	kuss	genießen	sonnig	bange	ausrottung	engstirnig	krise	gemein	sterben	1	blank2r.bmp	0	1	+	0	1	blank2r.bmp	500	1	DHJF	500	1	blank2r.bmp	880	1	kreativ	880	1	!	1293	1	!	1405	0	0	0	0	0	0
2024-05-10	11:53:10	12:04:25	674734	6.6.1	4_exp_EVA_AWA_CON	24	A	B	Rpleas_acq	Oppo	Rpleas	2pleas	acq_US_pleas_nomask	acq3_nomask	3	23	453	0	300	300	0	0	582	46	0	0	kreativ	träumen	gütig	gesittet	vergnügt	vertrauen	krank	töten	gierig	geizig	verbissen	versagen	besonnen	anregung	engagiert	kuss	genießen	sonnig	bange	ausrottung	engstirnig	krise	gemein	sterben	1	blank2r.bmp	0	1	+	0	1	blank2r.bmp	500	1	DHJF	500	1	blank2r.bmp	880	6	vertrauen	880	1	FEHLER	1775	1	!	1293	1	!	-1	0	0	0
2024-05-10	11:53:10	12:04:27	676860	6.6.1	4_exp_EVA_AWA_CON	24	A	B	Rpleas_acq	Oppo	Rpleas	2pleas	acq_US_unple_nomask	acq3_nomask	3	24	453	0	300	300	0	0	549	46	1	0	kreativ	träumen	gütig	gesittet	vergnügt	vertrauen	krank	töten	gierig	geizig	verbissen	versagen	besonnen	anregung	engagiert	kuss	genießen	sonnig	bange	ausrottung	engstirnig	krise	gemein	sterben	1	blank2r.bmp	0	1	+	0	1	blank2r.bmp	500	1	CPLW	500	1	blank2r.bmp	880	6	versagen	880	1	!	1292	1	!	-1	0	0	0	0	0	0
2024-05-10	11:53:10	12:04:29	679212	6.6.1	4_exp_EVA_AWA_CON	24	A	B	Rpleas_acq	Oppo	Rpleas	2pleas	acq_US_pleas_nomask	acq3_nomask	3	25	453	0	300	300	0	0	579	50	1	0	kreativ	träumen	gütig	gesittet	vergnügt	vertrauen	krank	töten	gierig	geizig	verbissen	versagen	besonnen	anregung	engagiert	kuss	genießen	sonnig	bange	ausrottung	engstirnig	krise	gemein	sterben	1	blank2r.bmp	0	1	+	0	1	blank2r.bmp	500	1	DHJF	500	1	blank2r.bmp	880	6	vertrauen	880	1	!	1292	1	!	-1	0	0	0	0	0	0
2024-05-10	11:53:10	12:04:32	681470	6.6.1	4_exp_EVA_AWA_CON	24	A	B	Rpleas_acq	Oppo	Rpleas	2pleas	acq_US_pleas_nomask	acq3_nomask	3	26	453	1	300	300	0	0	484	50	1	0	kreativ	träumen	gütig	gesittet	vergnügt	vertrauen	krank	töten	gierig	geizig	verbissen	versagen	besonnen	anregung	engagiert	kuss	genießen	sonnig	bange	ausrottung	engstirnig	krise	gemein	sterben	1	blank2r.bmp	0	1	+	0	1	blank2r.bmp	500	1	DHJF	500	1	blank2r.bmp	880	4	gesittet	880	1	!	1293	1	!	1385	0	0	0	0	0	0
2024-05-10	11:53:10	12:04:34	683662	6.6.1	4_exp_EVA_AWA_CON	24	A	B	Rpleas_acq	Oppo	Rpleas	2pleas	acq_US_pleas_nomask	acq3_nomask	3	27	453	1	300	300	0	0	414	50	1	0	kreativ	träumen	gütig	gesittet	vergnügt	vertrauen	krank	töten	gierig	geizig	verbissen	versagen	besonnen	anregung	engagiert	kuss	genießen	sonnig	bange	ausrottung	engstirnig	krise	gemein	sterben	1	blank2r.bmp	0	1	+	0	1	blank2r.bmp	500	1	DHJF	500	1	blank2r.bmp	880	3	gütig	880	1	!	1292	1	!	1316	0	0	0	0	0	0
2024-05-10	11:53:10	12:04:36	685862	6.6.1	4_exp_EVA_AWA_CON	24	A	B	Rpleas_acq	Oppo	Rpleas	2pleas	acq_US_unple_nomask	acq3_nomask	3	28	453	1	300	300	0	0	423	46	1	0	kreativ	träumen	gütig	gesittet	vergnügt	vertrauen	krank	töten	gierig	geizig	verbissen	versagen	besonnen	anregung	engagiert	kuss	genießen	sonnig	bange	ausrottung	engstirnig	krise	gemein	sterben	1	blank2r.bmp	0	1	+	0	1	blank2r.bmp	500	1	CPLW	500	1	blank2r.bmp	880	5	verbissen	880	1	!	1293	1	!	1324	0	0	0	0	0	0
2024-05-10	11:53:10	12:04:38	688237	6.6.1	4_exp_EVA_AWA_CON	24	A	B	Rpleas_acq	Oppo	Rpleas	2pleas	acq_US_unple_nomask	acq3_nomask	3	29	453	1	300	300	0	0	397	50	0	0	kreativ	träumen	gütig	gesittet	vergnügt	vertrauen	krank	töten	gierig	geizig	verbissen	versagen	besonnen	anregung	engagiert	kuss	genießen	sonnig	bange	ausrottung	engstirnig	krise	gemein	sterben	1	blank2r.bmp	0	1	+	0	1	blank2r.bmp	500	1	CPLW	500	1	blank2r.bmp	880	4	geizig	880	1	FEHLER	1589	1	!	1292	1	!	1297	0	0	0
2024-05-10	11:53:10	12:04:41	690495	6.6.1	4_exp_EVA_AWA_CON	24	A	B	Rpleas_acq	Oppo	Rpleas	2pleas	acq_US_unple_nomask	acq3_nomask	3	30	453	1	300	300	0	0	482	50	0	0	kreativ	träumen	gütig	gesittet	vergnügt	vertrauen	krank	töten	gierig	geizig	verbissen	versagen	besonnen	anregung	engagiert	kuss	genießen	sonnig	bange	ausrottung	engstirnig	krise	gemein	sterben	1	blank2r.bmp	0	1	+	0	1	blank2r.bmp	500	1	CPLW	500	1	blank2r.bmp	880	6	versagen	880	1	FEHLER	1675	1	!	1292	1	!	1383	0	0	0
2024-05-10	11:53:10	12:04:43	692653	6.6.1	4_exp_EVA_AWA_CON	24	A	B	Rpleas_acq	Oppo	Rpleas	2pleas	acq_US_unple_nomask	acq3_nomask	3	31	453	0	300	300	0	0	580	46	1	0	kreativ	träumen	gütig	gesittet	vergnügt	vertrauen	krank	töten	gierig	geizig	verbissen	versagen	besonnen	anregung	engagiert	kuss	genießen	sonnig	bange	ausrottung	engstirnig	krise	gemein	sterben	1	blank2r.bmp	0	1	+	0	1	blank2r.bmp	500	1	CPLW	500	1	blank2r.bmp	880	2	töten	880	1	!	1292	1	!	-1	0	0	0	0	0	0
2024-05-10	11:53:10	12:04:45	694878	6.6.1	4_exp_EVA_AWA_CON	24	A	B	Rpleas_acq	Oppo	Rpleas	2pleas	acq_US_pleas_nomask	acq3_nomask	3	32	453	1	300	300	0	0	443	50	1	0	kreativ	träumen	gütig	gesittet	vergnügt	vertrauen	krank	töten	gierig	geizig	verbissen	versagen	besonnen	anregung	engagiert	kuss	genießen	sonnig	bange	ausrottung	engstirnig	krise	gemein	sterben	1	blank2r.bmp	0	1	+	0	1	blank2r.bmp	500	1	DHJF	500	1	blank2r.bmp	880	5	vergnügt	880	1	!	1292	1	!	1344	0	0	0	0	0	0
2024-05-10	11:53:10	12:04:47	697087	6.6.1	4_exp_EVA_AWA_CON	24	A	B	Rpleas_acq	Oppo	Rpleas	2pleas	acq_US_unple_nomask	acq3_nomask	3	33	453	1	300	300	0	0	429	46	1	0	kreativ	träumen	gütig	gesittet	vergnügt	vertrauen	krank	töten	gierig	geizig	verbissen	versagen	besonnen	anregung	engagiert	kuss	genießen	sonnig	bange	ausrottung	engstirnig	krise	gemein	sterben	1	blank2r.bmp	0	1	+	0	1	blank2r.bmp	500	1	CPLW	500	1	blank2r.bmp	880	1	krank	880	1	!	1293	1	!	1332	0	0	0	0	0	0
2024-05-10	11:53:10	12:04:50	699452	6.6.1	4_exp_EVA_AWA_CON	24	A	B	Rpleas_acq	Oppo	Rpleas	2pleas	acq_US_unple_nomask	acq3_nomask	3	34	453	0	300	300	0	0	586	46	1	0	kreativ	träumen	gütig	gesittet	vergnügt	vertrauen	krank	töten	gierig	geizig	verbissen	versagen	besonnen	anregung	engagiert	kuss	genießen	sonnig	bange	ausrottung	engstirnig	krise	gemein	sterben	1	blank2r.bmp	0	1	+	0	1	blank2r.bmp	500	1	CPLW	500	1	blank2r.bmp	880	3	gierig	880	1	!	1293	1	!	-1	0	0	0	0	0	0
2024-05-10	11:53:10	12:04:52	701789	6.6.1	4_exp_EVA_AWA_CON	24	A	B	Rpleas_acq	Oppo	Rpleas	2pleas	acq_US_pleas_nomask	acq3_nomask	3	35	453	0	300	300	0	0	560	50	1	0	kreativ	träumen	gütig	gesittet	vergnügt	vertrauen	krank	töten	gierig	geizig	verbissen	versagen	besonnen	anregung	engagiert	kuss	genießen	sonnig	bange	ausrottung	engstirnig	krise	gemein	sterben	1	blank2r.bmp	0	1	+	0	1	blank2r.bmp	500	1	DHJF	500	1	blank2r.bmp	880	1	kreativ	880	1	!	1293	1	!	-1	0	0	0	0	0	0
2024-05-10	11:53:10	12:04:54	703964	6.6.1	4_exp_EVA_AWA_CON	24	A	B	Rpleas_acq	Oppo	Rpleas	2pleas	acq_US_pleas_nomask	acq3_nomask	3	36	453	1	300	300	0	0	395	50	1	0	kreativ	träumen	gütig	gesittet	vergnügt	vertrauen	krank	töten	gierig	geizig	verbissen	versagen	besonnen	anregung	engagiert	kuss	genießen	sonnig	bange	ausrottung	engstirnig	krise	gemein	sterben	1	blank2r.bmp	0	1	+	0	1	blank2r.bmp	500	1	DHJF	500	1	blank2r.bmp	880	2	träumen	880	1	!	1292	1	!	1295	0	0	0	0	0	0
2024-05-10	11:53:10	12:05:15	724573	6.6.1	4_exp_EVA_AWA_CON	24	A	B	Rpleas_acq	Oppo	Rpleas	2pleas	acq_US_unple_nomask	acq45_nomask	4	1	400	0	300	300	0	0	499	46	1	0	kreativ	träumen	gütig	gesittet	vergnügt	vertrauen	krank	töten	gierig	geizig	verbissen	versagen	besonnen	anregung	engagiert	kuss	genießen	sonnig	bange	ausrottung	engstirnig	krise	gemein	sterben	1	blank2r.bmp	0	1	+	0	1	blank2r.bmp	500	1	CPLW	500	1	blank2r.bmp	880	3	gierig	880	1	!	1233	1	!	-1	0	0	0	0	0	0
2024-05-10	11:53:10	12:05:17	726845	6.6.1	4_exp_EVA_AWA_CON	24	A	B	Rpleas_acq	Oppo	Rpleas	2pleas	acq_US_pleas_nomask	acq45_nomask	4	2	400	0	300	300	0	0	490	50	1	0	kreativ	träumen	gütig	gesittet	vergnügt	vertrauen	krank	töten	gierig	geizig	verbissen	versagen	besonnen	anregung	engagiert	kuss	genießen	sonnig	bange	ausrottung	engstirnig	krise	gemein	sterben	1	blank2r.bmp	0	1	+	0	1	blank2r.bmp	500	1	DHJF	500	1	blank2r.bmp	880	2	träumen	880	1	!	1232	1	!	-1	0	0	0	0	0	0
2024-05-10	11:53:10	12:05:19	729078	6.6.1	4_exp_EVA_AWA_CON	24	A	B	Rpleas_acq	Oppo	Rpleas	2pleas	acq_US_unple_nomask	acq45_nomask	4	3	400	1	300	300	0	0	450	46	1	0	kreativ	träumen	gütig	gesittet	vergnügt	vertrauen	krank	töten	gierig	geizig	verbissen	versagen	besonnen	anregung	engagiert	kuss	genießen	sonnig	bange	ausrottung	engstirnig	krise	gemein	sterben	1	blank2r.bmp	0	1	+	0	1	blank2r.bmp	500	1	CPLW	500	1	blank2r.bmp	880	6	versagen	880	1	!	1232	1	!	1352	0	0	0	0	0	0
2024-05-10	11:53:10	12:05:21	731310	6.6.1	4_exp_EVA_AWA_CON	24	A	B	Rpleas_acq	Oppo	Rpleas	2pleas	acq_US_unple_nomask	acq45_nomask	4	4	400	1	300	300	0	0	451	46	1	0	kreativ	träumen	gütig	gesittet	vergnügt	vertrauen	krank	töten	gierig	geizig	verbissen	versagen	besonnen	anregung	engagiert	kuss	genießen	sonnig	bange	ausrottung	engstirnig	krise	gemein	sterben	1	blank2r.bmp	0	1	+	0	1	blank2r.bmp	500	1	CPLW	500	1	blank2r.bmp	880	5	verbissen	880	1	!	1232	1	!	1353	0	0	0	0	0	0
2024-05-10	11:53:10	12:05:24	733580	6.6.1	4_exp_EVA_AWA_CON	24	A	B	Rpleas_acq	Oppo	Rpleas	2pleas	acq_US_pleas_nomask	acq45_nomask	4	5	400	0	300	300	0	0	492	50	1	0	kreativ	träumen	gütig	gesittet	vergnügt	vertrauen	krank	töten	gierig	geizig	verbissen	versagen	besonnen	anregung	engagiert	kuss	genießen	sonnig	bange	ausrottung	engstirnig	krise	gemein	sterben	1	blank2r.bmp	0	1	+	0	1	blank2r.bmp	500	1	DHJF	500	1	blank2r.bmp	880	4	gesittet	880	1	!	1232	1	!	-1	0	0	0	0	0	0
2024-05-10	11:53:10	12:05:26	735892	6.6.1	4_exp_EVA_AWA_CON	24	A	B	Rpleas_acq	Oppo	Rpleas	2pleas	acq_US_unple_nomask	acq45_nomask	4	6	400	0	300	300	0	0	532	46	1	0	kreativ	träumen	gütig	gesittet	vergnügt	vertrauen	krank	töten	gierig	geizig	verbissen	versagen	besonnen	anregung	engagiert	kuss	genießen	sonnig	bange	ausrottung	engstirnig	krise	gemein	sterben	1	blank2r.bmp	0	1	+	0	1	blank2r.bmp	500	1	CPLW	500	1	blank2r.bmp	880	4	geizig	880	1	!	1232	1	!	-1	0	0	0	0	0	0
2024-05-10	11:53:10	12:05:28	738054	6.6.1	4_exp_EVA_AWA_CON	24	A	B	Rpleas_acq	Oppo	Rpleas	2pleas	acq_US_unple_nomask	acq45_nomask	4	7	400	1	300	300	0	0	381	50	0	0	kreativ	träumen	gütig	gesittet	vergnügt	vertrauen	krank	töten	gierig	geizig	verbissen	versagen	besonnen	anregung	engagiert	kuss	genießen	sonnig	bange	ausrottung	engstirnig	krise	gemein	sterben	1	blank2r.bmp	0	1	+	0	1	blank2r.bmp	500	1	CPLW	500	1	blank2r.bmp	880	1	krank	880	1	!	1232	1	!	1282	0	0	0	0	0	0
2024-05-10	11:53:10	12:05:30	740314	6.6.1	4_exp_EVA_AWA_CON	24	A	B	Rpleas_acq	Oppo	Rpleas	2pleas	acq_US_unple_nomask	acq45_nomask	4	8	400	0	300	300	0	0	483	46	1	0	kreativ	träumen	gütig	gesittet	vergnügt	vertrauen	krank	töten	gierig	geizig	verbissen	versagen	besonnen	anregung	engagiert	kuss	genießen	sonnig	bange	ausrottung	engstirnig	krise	gemein	sterben	1	blank2r.bmp	0	1	+	0	1	blank2r.bmp	500	1	CPLW	500	1	blank2r.bmp	880	2	töten	880	1	!	1233	1	!	-1	0	0	0	0	0	0
2024-05-10	11:53:10	12:05:33	742645	6.6.1	4_exp_EVA_AWA_CON	24	A	B	Rpleas_acq	Oppo	Rpleas	2pleas	acq_US_pleas_nomask	acq45_nomask	4	9	400	0	300	300	0	0	550	50	1	0	kreativ	träumen	gütig	gesittet	vergnügt	vertrauen	krank	töten	gierig	geizig	verbissen	versagen	besonnen	anregung	engagiert	kuss	genießen	sonnig	bange	ausrottung	engstirnig	krise	gemein	sterben	1	blank2r.bmp	0	1	+	0	1	blank2r.bmp	500	1	DHJF	500	1	blank2r.bmp	880	3	gütig	880	1	!	1232	1	!	-1	0	0	0	0	0	0
2024-05-10	11:53:10	12:05:35	744898	6.6.1	4_exp_EVA_AWA_CON	24	A	B	Rpleas_acq	Oppo	Rpleas	2pleas	acq_US_pleas_nomask	acq45_nomask	4	10	400	0	300	300	0	0	474	50	1	0	kreativ	träumen	gütig	gesittet	vergnügt	vertrauen	krank	töten	gierig	geizig	verbissen	versagen	besonnen	anregung	engagiert	kuss	genießen	sonnig	bange	ausrottung	engstirnig	krise	gemein	sterben	1	blank2r.bmp	0	1	+	0	1	blank2r.bmp	500	1	DHJF	500	1	blank2r.bmp	880	1	kreativ	880	1	!	1232	1	!	-1	0	0	0	0	0	0
2024-05-10	11:53:10	12:05:37	747268	6.6.1	4_exp_EVA_AWA_CON	24	A	B	Rpleas_acq	Oppo	Rpleas	2pleas	acq_US_pleas_nomask	acq45_nomask	4	11	400	0	300	300	0	0	591	50	1	0	kreativ	träumen	gütig	gesittet	vergnügt	vertrauen	krank	töten	gierig	geizig	verbissen	versagen	besonnen	anregung	engagiert	kuss	genießen	sonnig	bange	ausrottung	engstirnig	krise	gemein	sterben	1	blank2r.bmp	0	1	+	0	1	blank2r.bmp	500	1	DHJF	500	1	blank2r.bmp	880	5	vergnügt	880	1	!	1232	1	!	-1	0	0	0	0	0	0
2024-05-10	11:53:10	12:05:40	749454	6.6.1	4_exp_EVA_AWA_CON	24	A	B	Rpleas_acq	Oppo	Rpleas	2pleas	acq_US_pleas_nomask	acq45_nomask	4	12	400	1	300	300	0	0	403	50	1	0	kreativ	träumen	gütig	gesittet	vergnügt	vertrauen	krank	töten	gierig	geizig	verbissen	versagen	besonnen	anregung	engagiert	kuss	genießen	sonnig	bange	ausrottung	engstirnig	krise	gemein	sterben	1	blank2r.bmp	0	1	+	0	1	blank2r.bmp	500	1	DHJF	500	1	blank2r.bmp	880	6	vertrauen	880	1	!	1232	1	!	1304	0	0	0	0	0	0
2024-05-10	11:53:10	12:05:42	751638	6.6.1	4_exp_EVA_AWA_CON	24	A	B	Rpleas_acq	Oppo	Rpleas	2pleas	acq_US_pleas_nomask	acq45_nomask	4	13	400	1	300	300	0	0	406	50	1	0	kreativ	träumen	gütig	gesittet	vergnügt	vertrauen	krank	töten	gierig	geizig	verbissen	versagen	besonnen	anregung	engagiert	kuss	genießen	sonnig	bange	ausrottung	engstirnig	krise	gemein	sterben	1	blank2r.bmp	0	1	+	0	1	blank2r.bmp	500	1	DHJF	500	1	blank2r.bmp	880	6	vertrauen	880	1	!	1232	1	!	1307	0	0	0	0	0	0
2024-05-10	11:53:10	12:05:44	753766	6.6.1	4_exp_EVA_AWA_CON	24	A	B	Rpleas_acq	Oppo	Rpleas	2pleas	acq_US_unple_nomask	acq45_nomask	4	14	400	1	300	300	0	0	352	50	0	0	kreativ	träumen	gütig	gesittet	vergnügt	vertrauen	krank	töten	gierig	geizig	verbissen	versagen	besonnen	anregung	engagiert	kuss	genießen	sonnig	bange	ausrottung	engstirnig	krise	gemein	sterben	1	blank2r.bmp	0	1	+	0	1	blank2r.bmp	500	1	CPLW	500	1	blank2r.bmp	880	4	geizig	880	1	!	1232	1	!	1254	0	0	0	0	0	0
2024-05-10	11:53:10	12:05:46	756076	6.6.1	4_exp_EVA_AWA_CON	24	A	B	Rpleas_acq	Oppo	Rpleas	2pleas	acq_US_unple_nomask	acq45_nomask	4	15	400	0	300	300	0	0	533	46	1	0	kreativ	träumen	gütig	gesittet	vergnügt	vertrauen	krank	töten	gierig	geizig	verbissen	versagen	besonnen	anregung	engagiert	kuss	genießen	sonnig	bange	ausrottung	engstirnig	krise	gemein	sterben	1	blank2r.bmp	0	1	+	0	1	blank2r.bmp	500	1	CPLW	500	1	blank2r.bmp	880	5	verbissen	880	1	!	1232	1	!	-1	0	0	0	0	0	0
2024-05-10	11:53:10	12:05:48	758254	6.6.1	4_exp_EVA_AWA_CON	24	A	B	Rpleas_acq	Oppo	Rpleas	2pleas	acq_US_pleas_nomask	acq45_nomask	4	16	400	1	300	300	0	0	397	50	1	0	kreativ	träumen	gütig	gesittet	vergnügt	vertrauen	krank	töten	gierig	geizig	verbissen	versagen	besonnen	anregung	engagiert	kuss	genießen	sonnig	bange	ausrottung	engstirnig	krise	gemein	sterben	1	blank2r.bmp	0	1	+	0	1	blank2r.bmp	500	1	DHJF	500	1	blank2r.bmp	880	2	träumen	880	1	!	1232	1	!	1299	0	0	0	0	0	0
2024-05-10	11:53:10	12:05:51	760564	6.6.1	4_exp_EVA_AWA_CON	24	A	B	Rpleas_acq	Oppo	Rpleas	2pleas	acq_US_unple_nomask	acq45_nomask	4	17	400	0	300	300	0	0	538	46	1	0	kreativ	träumen	gütig	gesittet	vergnügt	vertrauen	krank	töten	gierig	geizig	verbissen	versagen	besonnen	anregung	engagiert	kuss	genießen	sonnig	bange	ausrottung	engstirnig	krise	gemein	sterben	1	blank2r.bmp	0	1	+	0	1	blank2r.bmp	500	1	CPLW	500	1	blank2r.bmp	880	6	versagen	880	1	!	1233	1	!	-1	0	0	0	0	0	0
2024-05-10	11:53:10	12:05:53	762829	6.6.1	4_exp_EVA_AWA_CON	24	A	B	Rpleas_acq	Oppo	Rpleas	2pleas	acq_US_pleas_nomask	acq45_nomask	4	18	400	0	300	300	0	0	490	46	0	0	kreativ	träumen	gütig	gesittet	vergnügt	vertrauen	krank	töten	gierig	geizig	verbissen	versagen	besonnen	anregung	engagiert	kuss	genießen	sonnig	bange	ausrottung	engstirnig	krise	gemein	sterben	1	blank2r.bmp	0	1	+	0	1	blank2r.bmp	500	1	DHJF	500	1	blank2r.bmp	880	4	gesittet	880	1	!	1232	1	!	-1	0	0	0	0	0	0
2024-05-10	11:53:10	12:05:55	764998	6.6.1	4_exp_EVA_AWA_CON	24	A	B	Rpleas_acq	Oppo	Rpleas	2pleas	acq_US_pleas_nomask	acq45_nomask	4	19	400	1	300	300	0	0	387	50	1	0	kreativ	träumen	gütig	gesittet	vergnügt	vertrauen	krank	töten	gierig	geizig	verbissen	versagen	besonnen	anregung	engagiert	kuss	genießen	sonnig	bange	ausrottung	engstirnig	krise	gemein	sterben	1	blank2r.bmp	0	1	+	0	1	blank2r.bmp	500	1	DHJF	500	1	blank2r.bmp	880	3	gütig	880	1	!	1232	1	!	1288	0	0	0	0	0	0
2024-05-10	11:53:10	12:05:57	767250	6.6.1	4_exp_EVA_AWA_CON	24	A	B	Rpleas_acq	Oppo	Rpleas	2pleas	acq_US_unple_nomask	acq45_nomask	4	20	400	0	300	300	0	0	482	46	1	0	kreativ	träumen	gütig	gesittet	vergnügt	vertrauen	krank	töten	gierig	geizig	verbissen	versagen	besonnen	anregung	engagiert	kuss	genießen	sonnig	bange	ausrottung	engstirnig	krise	gemein	sterben	1	blank2r.bmp	0	1	+	0	1	blank2r.bmp	500	1	CPLW	500	1	blank2r.bmp	880	3	gierig	880	1	!	1232	1	!	-1	0	0	0	0	0	0
2024-05-10	11:53:10	12:06:00	769478	6.6.1	4_exp_EVA_AWA_CON	24	A	B	Rpleas_acq	Oppo	Rpleas	2pleas	acq_US_pleas_nomask	acq45_nomask	4	21	400	1	300	300	0	0	444	50	1	0	kreativ	träumen	gütig	gesittet	vergnügt	vertrauen	krank	töten	gierig	geizig	verbissen	versagen	besonnen	anregung	engagiert	kuss	genießen	sonnig	bange	ausrottung	engstirnig	krise	gemein	sterben	1	blank2r.bmp	0	1	+	0	1	blank2r.bmp	500	1	DHJF	500	1	blank2r.bmp	880	1	kreativ	880	1	!	1232	1	!	1346	0	0	0	0	0	0
2024-05-10	11:53:10	12:06:02	771630	6.6.1	4_exp_EVA_AWA_CON	24	A	B	Rpleas_acq	Oppo	Rpleas	2pleas	acq_US_pleas_nomask	acq45_nomask	4	22	400	1	300	300	0	0	375	50	1	0	kreativ	träumen	gütig	gesittet	vergnügt	vertrauen	krank	töten	gierig	geizig	verbissen	versagen	besonnen	anregung	engagiert	kuss	genießen	sonnig	bange	ausrottung	engstirnig	krise	gemein	sterben	1	blank2r.bmp	0	1	+	0	1	blank2r.bmp	500	1	DHJF	500	1	blank2r.bmp	880	5	vergnügt	880	1	!	1233	1	!	1276	0	0	0	0	0	0
2024-05-10	11:53:10	12:06:04	773822	6.6.1	4_exp_EVA_AWA_CON	24	A	B	Rpleas_acq	Oppo	Rpleas	2pleas	acq_US_unple_nomask	acq45_nomask	4	23	400	1	300	300	0	0	415	46	1	0	kreativ	träumen	gütig	gesittet	vergnügt	vertrauen	krank	töten	gierig	geizig	verbissen	versagen	besonnen	anregung	engagiert	kuss	genießen	sonnig	bange	ausrottung	engstirnig	krise	gemein	sterben	1	blank2r.bmp	0	1	+	0	1	blank2r.bmp	500	1	CPLW	500	1	blank2r.bmp	880	1	krank	880	1	!	1232	1	!	1317	0	0	0	0	0	0
2024-05-10	11:53:10	12:06:06	776022	6.6.1	4_exp_EVA_AWA_CON	24	A	B	Rpleas_acq	Oppo	Rpleas	2pleas	acq_US_unple_nomask	acq45_nomask	4	24	400	1	300	300	0	0	424	46	1	0	kreativ	träumen	gütig	gesittet	vergnügt	vertrauen	krank	töten	gierig	geizig	verbissen	versagen	besonnen	anregung	engagiert	kuss	genießen	sonnig	bange	ausrottung	engstirnig	krise	gemein	sterben	1	blank2r.bmp	0	1	+	0	1	blank2r.bmp	500	1	CPLW	500	1	blank2r.bmp	880	2	töten	880	1	!	1232	1	!	1325	0	0	0	0	0	0
2024-05-10	11:53:10	12:06:08	778274	6.6.1	4_exp_EVA_AWA_CON	24	A	B	Rpleas_acq	Oppo	Rpleas	2pleas	acq_US_unple_nomask	acq45_nomask	4	25	400	0	300	300	0	0	478	46	1	0	kreativ	träumen	gütig	gesittet	vergnügt	vertrauen	krank	töten	gierig	geizig	verbissen	versagen	besonnen	anregung	engagiert	kuss	genießen	sonnig	bange	ausrottung	engstirnig	krise	gemein	sterben	1	blank2r.bmp	0	1	+	0	1	blank2r.bmp	500	1	CPLW	500	1	blank2r.bmp	880	5	verbissen	880	1	!	1232	1	!	-1	0	0	0	0	0	0
2024-05-10	11:53:10	12:06:11	780530	6.6.1	4_exp_EVA_AWA_CON	24	A	B	Rpleas_acq	Oppo	Rpleas	2pleas	acq_US_unple_nomask	acq45_nomask	4	26	400	0	300	300	0	0	483	46	1	0	kreativ	träumen	gütig	gesittet	vergnügt	vertrauen	krank	töten	gierig	geizig	verbissen	versagen	besonnen	anregung	engagiert	kuss	genießen	sonnig	bange	ausrottung	engstirnig	krise	gemein	sterben	1	blank2r.bmp	0	1	+	0	1	blank2r.bmp	500	1	CPLW	500	1	blank2r.bmp	880	3	gierig	880	1	!	1232	1	!	-1	0	0	0	0	0	0
2024-05-10	11:53:10	12:06:13	782821	6.6.1	4_exp_EVA_AWA_CON	24	A	B	Rpleas_acq	Oppo	Rpleas	2pleas	acq_US_unple_nomask	acq45_nomask	4	27	400	0	300	300	0	0	509	46	1	0	kreativ	träumen	gütig	gesittet	vergnügt	vertrauen	krank	töten	gierig	geizig	verbissen	versagen	besonnen	anregung	engagiert	kuss	genießen	sonnig	bange	ausrottung	engstirnig	krise	gemein	sterben	1	blank2r.bmp	0	1	+	0	1	blank2r.bmp	500	1	CPLW	500	1	blank2r.bmp	880	4	geizig	880	1	!	1233	1	!	-1	0	0	0	0	0	0
2024-05-10	11:53:10	12:06:15	785164	6.6.1	4_exp_EVA_AWA_CON	24	A	B	Rpleas_acq	Oppo	Rpleas	2pleas	acq_US_unple_nomask	acq45_nomask	4	28	400	0	300	300	0	0	562	46	1	0	kreativ	träumen	gütig	gesittet	vergnügt	vertrauen	krank	töten	gierig	geizig	verbissen	versagen	besonnen	anregung	engagiert	kuss	genießen	sonnig	bange	ausrottung	engstirnig	krise	gemein	sterben	1	blank2r.bmp	0	1	+	0	1	blank2r.bmp	500	1	CPLW	500	1	blank2r.bmp	880	6	versagen	880	1	!	1232	1	!	-1	0	0	0	0	0	0
2024-05-10	11:53:10	12:06:17	787375	6.6.1	4_exp_EVA_AWA_CON	24	A	B	Rpleas_acq	Oppo	Rpleas	2pleas	acq_US_pleas_nomask	acq45_nomask	4	29	400	1	300	300	0	0	428	50	1	0	kreativ	träumen	gütig	gesittet	vergnügt	vertrauen	krank	töten	gierig	geizig	verbissen	versagen	besonnen	anregung	engagiert	kuss	genießen	sonnig	bange	ausrottung	engstirnig	krise	gemein	sterben	1	blank2r.bmp	0	1	+	0	1	blank2r.bmp	500	1	DHJF	500	1	blank2r.bmp	880	5	vergnügt	880	1	!	1232	1	!	1330	0	0	0	0	0	0
2024-05-10	11:53:10	12:06:20	789614	6.6.1	4_exp_EVA_AWA_CON	24	A	B	Rpleas_acq	Oppo	Rpleas	2pleas	acq_US_pleas_nomask	acq45_nomask	4	30	400	1	300	300	0	0	457	50	1	0	kreativ	träumen	gütig	gesittet	vergnügt	vertrauen	krank	töten	gierig	geizig	verbissen	versagen	besonnen	anregung	engagiert	kuss	genießen	sonnig	bange	ausrottung	engstirnig	krise	gemein	sterben	1	blank2r.bmp	0	1	+	0	1	blank2r.bmp	500	1	DHJF	500	1	blank2r.bmp	880	3	gütig	880	1	!	1233	1	!	1359	0	0	0	0	0	0
2024-05-10	11:53:10	12:06:22	791814	6.6.1	4_exp_EVA_AWA_CON	24	A	B	Rpleas_acq	Oppo	Rpleas	2pleas	acq_US_pleas_nomask	acq45_nomask	4	31	400	1	300	300	0	0	426	50	1	0	kreativ	träumen	gütig	gesittet	vergnügt	vertrauen	krank	töten	gierig	geizig	verbissen	versagen	besonnen	anregung	engagiert	kuss	genießen	sonnig	bange	ausrottung	engstirnig	krise	gemein	sterben	1	blank2r.bmp	0	1	+	0	1	blank2r.bmp	500	1	DHJF	500	1	blank2r.bmp	880	2	träumen	880	1	!	1233	1	!	1327	0	0	0	0	0	0
2024-05-10	11:53:10	12:06:24	794059	6.6.1	4_exp_EVA_AWA_CON	24	A	B	Rpleas_acq	Oppo	Rpleas	2pleas	acq_US_pleas_nomask	acq45_nomask	4	32	400	0	300	300	0	0	473	50	1	0	kreativ	träumen	gütig	gesittet	vergnügt	vertrauen	krank	töten	gierig	geizig	verbissen	versagen	besonnen	anregung	engagiert	kuss	genießen	sonnig	bange	ausrottung	engstirnig	krise	gemein	sterben	1	blank2r.bmp	0	1	+	0	1	blank2r.bmp	500	1	DHJF	500	1	blank2r.bmp	880	1	kreativ	880	1	!	1232	1	!	-1	0	0	0	0	0	0
2024-05-10	11:53:10	12:06:26	796238	6.6.1	4_exp_EVA_AWA_CON	24	A	B	Rpleas_acq	Oppo	Rpleas	2pleas	acq_US_pleas_nomask	acq45_nomask	4	33	400	1	300	300	0	0	397	50	1	0	kreativ	träumen	gütig	gesittet	vergnügt	vertrauen	krank	töten	gierig	geizig	verbissen	versagen	besonnen	anregung	engagiert	kuss	genießen	sonnig	bange	ausrottung	engstirnig	krise	gemein	sterben	1	blank2r.bmp	0	1	+	0	1	blank2r.bmp	500	1	DHJF	500	1	blank2r.bmp	880	6	vertrauen	880	1	!	1232	1	!	1298	0	0	0	0	0	0
2024-05-10	11:53:10	12:06:29	798572	6.6.1	4_exp_EVA_AWA_CON	24	A	B	Rpleas_acq	Oppo	Rpleas	2pleas	acq_US_unple_nomask	acq45_nomask	4	34	400	0	300	300	0	0	561	46	1	0	kreativ	träumen	gütig	gesittet	vergnügt	vertrauen	krank	töten	gierig	geizig	verbissen	versagen	besonnen	anregung	engagiert	kuss	genießen	sonnig	bange	ausrottung	engstirnig	krise	gemein	sterben	1	blank2r.bmp	0	1	+	0	1	blank2r.bmp	500	1	CPLW	500	1	blank2r.bmp	880	2	töten	880	1	!	1232	1	!	-1	0	0	0	0	0	0
2024-05-10	11:53:10	12:06:31	800782	6.6.1	4_exp_EVA_AWA_CON	24	A	B	Rpleas_acq	Oppo	Rpleas	2pleas	acq_US_unple_nomask	acq45_nomask	4	35	400	1	300	300	0	0	428	46	1	0	kreativ	träumen	gütig	gesittet	vergnügt	vertrauen	krank	töten	gierig	geizig	verbissen	versagen	besonnen	anregung	engagiert	kuss	genießen	sonnig	bange	ausrottung	engstirnig	krise	gemein	sterben	1	blank2r.bmp	0	1	+	0	1	blank2r.bmp	500	1	CPLW	500	1	blank2r.bmp	880	1	krank	880	1	!	1232	1	!	1329	0	0	0	0	0	0
2024-05-10	11:53:10	12:06:33	803015	6.6.1	4_exp_EVA_AWA_CON	24	A	B	Rpleas_acq	Oppo	Rpleas	2pleas	acq_US_pleas_nomask	acq45_nomask	4	36	400	1	300	300	0	0	448	50	1	0	kreativ	träumen	gütig	gesittet	vergnügt	vertrauen	krank	töten	gierig	geizig	verbissen	versagen	besonnen	anregung	engagiert	kuss	genießen	sonnig	bange	ausrottung	engstirnig	krise	gemein	sterben	1	blank2r.bmp	0	1	+	0	1	blank2r.bmp	500	1	DHJF	500	1	blank2r.bmp	880	4	gesittet	880	1	!	1232	1	!	1350	0	0	0	0	0	0
2024-05-10	11:53:10	12:06:47	817324	6.6.1	4_exp_EVA_AWA_CON	24	A	B	Rpleas_acq	Oppo	Rpleas	2pleas	acq_US_unple_nomask	acq45_nomask	5	1	400	0	300	300	0	0	631	46	1	0	kreativ	träumen	gütig	gesittet	vergnügt	vertrauen	krank	töten	gierig	geizig	verbissen	versagen	besonnen	anregung	engagiert	kuss	genießen	sonnig	bange	ausrottung	engstirnig	krise	gemein	sterben	1	blank2r.bmp	0	1	+	0	1	blank2r.bmp	500	1	CPLW	500	1	blank2r.bmp	880	3	gierig	880	1	!	1233	1	!	-1	0	0	0	0	0	0
2024-05-10	11:53:10	12:06:50	819558	6.6.1	4_exp_EVA_AWA_CON	24	A	B	Rpleas_acq	Oppo	Rpleas	2pleas	acq_US_pleas_nomask	acq45_nomask	5	2	400	1	300	300	0	0	451	50	1	0	kreativ	träumen	gütig	gesittet	vergnügt	vertrauen	krank	töten	gierig	geizig	verbissen	versagen	besonnen	anregung	engagiert	kuss	genießen	sonnig	bange	ausrottung	engstirnig	krise	gemein	sterben	1	blank2r.bmp	0	1	+	0	1	blank2r.bmp	500	1	DHJF	500	1	blank2r.bmp	880	6	vertrauen	880	1	!	1232	1	!	1353	0	0	0	0	0	0
2024-05-10	11:53:10	12:06:52	821790	6.6.1	4_exp_EVA_AWA_CON	24	A	B	Rpleas_acq	Oppo	Rpleas	2pleas	acq_US_unple_nomask	acq45_nomask	5	3	400	1	300	300	0	0	452	46	1	0	kreativ	träumen	gütig	gesittet	vergnügt	vertrauen	krank	töten	gierig	geizig	verbissen	versagen	besonnen	anregung	engagiert	kuss	genießen	sonnig	bange	ausrottung	engstirnig	krise	gemein	sterben	1	blank2r.bmp	0	1	+	0	1	blank2r.bmp	500	1	CPLW	500	1	blank2r.bmp	880	1	krank	880	1	!	1233	1	!	1353	0	0	0	0	0	0
2024-05-10	11:53:10	12:06:54	824030	6.6.1	4_exp_EVA_AWA_CON	24	A	B	Rpleas_acq	Oppo	Rpleas	2pleas	acq_US_pleas_nomask	acq45_nomask	5	4	400	1	300	300	0	0	460	50	1	0	kreativ	träumen	gütig	gesittet	vergnügt	vertrauen	krank	töten	gierig	geizig	verbissen	versagen	besonnen	anregung	engagiert	kuss	genießen	sonnig	bange	ausrottung	engstirnig	krise	gemein	sterben	1	blank2r.bmp	0	1	+	0	1	blank2r.bmp	500	1	DHJF	500	1	blank2r.bmp	880	5	vergnügt	880	1	!	1232	1	!	1362	0	0	0	0	0	0
2024-05-10	11:53:10	12:06:56	826316	6.6.1	4_exp_EVA_AWA_CON	24	A	B	Rpleas_acq	Oppo	Rpleas	2pleas	acq_US_pleas_nomask	acq45_nomask	5	5	400	0	300	300	0	0	507	50	1	0	kreativ	träumen	gütig	gesittet	vergnügt	vertrauen	krank	töten	gierig	geizig	verbissen	versagen	besonnen	anregung	engagiert	kuss	genießen	sonnig	bange	ausrottung	engstirnig	krise	gemein	sterben	1	blank2r.bmp	0	1	+	0	1	blank2r.bmp	500	1	DHJF	500	1	blank2r.bmp	880	4	gesittet	880	1	!	1233	1	!	-1	0	0	0	0	0	0
2024-05-10	11:53:10	12:06:59	828644	6.6.1	4_exp_EVA_AWA_CON	24	A	B	Rpleas_acq	Oppo	Rpleas	2pleas	acq_US_unple_nomask	acq45_nomask	5	6	400	0	300	300	0	0	553	46	1	0	kreativ	träumen	gütig	gesittet	vergnügt	vertrauen	krank	töten	gierig	geizig	verbissen	versagen	besonnen	anregung	engagiert	kuss	genießen	sonnig	bange	ausrottung	engstirnig	krise	gemein	sterben	1	blank2r.bmp	0	1	+	0	1	blank2r.bmp	500	1	CPLW	500	1	blank2r.bmp	880	5	verbissen	880	1	!	1232	1	!	-1	0	0	0	0	0	0
2024-05-10	11:53:10	12:07:01	830940	6.6.1	4_exp_EVA_AWA_CON	24	A	B	Rpleas_acq	Oppo	Rpleas	2pleas	acq_US_unple_nomask	acq45_nomask	5	7	400	0	300	300	0	0	518	46	1	0	kreativ	träumen	gütig	gesittet	vergnügt	vertrauen	krank	töten	gierig	geizig	verbissen	versagen	besonnen	anregung	engagiert	kuss	genießen	sonnig	bange	ausrottung	engstirnig	krise	gemein	sterben	1	blank2r.bmp	0	1	+	0	1	blank2r.bmp	500	1	CPLW	500	1	blank2r.bmp	880	6	versagen	880	1	!	1232	1	!	-1	0	0	0	0	0	0
2024-05-10	11:53:10	12:07:03	833118	6.6.1	4_exp_EVA_AWA_CON	24	A	B	Rpleas_acq	Oppo	Rpleas	2pleas	acq_US_unple_nomask	acq45_nomask	5	8	400	1	300	300	0	0	402	46	1	0	kreativ	träumen	gütig	gesittet	vergnügt	vertrauen	krank	töten	gierig	geizig	verbissen	versagen	besonnen	anregung	engagiert	kuss	genießen	sonnig	bange	ausrottung	engstirnig	krise	gemein	sterben	1	blank2r.bmp	0	1	+	0	1	blank2r.bmp	500	1	CPLW	500	1	blank2r.bmp	880	2	töten	880	1	!	1232	1	!	1304	0	0	0	0	0	0
2024-05-10	11:53:10	12:07:06	835452	6.6.1	4_exp_EVA_AWA_CON	24	A	B	Rpleas_acq	Oppo	Rpleas	2pleas	acq_US_unple_nomask	acq45_nomask	5	9	400	0	300	300	0	0	557	50	0	0	kreativ	träumen	gütig	gesittet	vergnügt	vertrauen	krank	töten	gierig	geizig	verbissen	versagen	besonnen	anregung	engagiert	kuss	genießen	sonnig	bange	ausrottung	engstirnig	krise	gemein	sterben	1	blank2r.bmp	0	1	+	0	1	blank2r.bmp	500	1	CPLW	500	1	blank2r.bmp	880	4	geizig	880	1	!	1232	1	!	-1	0	0	0	0	0	0
2024-05-10	11:53:10	12:07:08	837717	6.6.1	4_exp_EVA_AWA_CON	24	A	B	Rpleas_acq	Oppo	Rpleas	2pleas	acq_US_unple_nomask	acq45_nomask	5	10	400	0	300	300	0	0	490	46	1	0	kreativ	träumen	gütig	gesittet	vergnügt	vertrauen	krank	töten	gierig	geizig	verbissen	versagen	besonnen	anregung	engagiert	kuss	genießen	sonnig	bange	ausrottung	engstirnig	krise	gemein	sterben	1	blank2r.bmp	0	1	+	0	1	blank2r.bmp	500	1	CPLW	500	1	blank2r.bmp	880	5	verbissen	880	1	!	1233	1	!	-1	0	0	0	0	0	0
2024-05-10	11:53:10	12:07:10	839966	6.6.1	4_exp_EVA_AWA_CON	24	A	B	Rpleas_acq	Oppo	Rpleas	2pleas	acq_US_unple_nomask	acq45_nomask	5	11	400	1	300	300	0	0	466	46	1	0	kreativ	träumen	gütig	gesittet	vergnügt	vertrauen	krank	töten	gierig	geizig	verbissen	versagen	besonnen	anregung	engagiert	kuss	genießen	sonnig	bange	ausrottung	engstirnig	krise	gemein	sterben	1	blank2r.bmp	0	1	+	0	1	blank2r.bmp	500	1	CPLW	500	1	blank2r.bmp	880	6	versagen	880	1	!	1232	1	!	1368	0	0	0	0	0	0
2024-05-10	11:53:10	12:07:12	842134	6.6.1	4_exp_EVA_AWA_CON	24	A	B	Rpleas_acq	Oppo	Rpleas	2pleas	acq_US_pleas_nomask	acq45_nomask	5	12	400	1	300	300	0	0	393	50	1	0	kreativ	träumen	gütig	gesittet	vergnügt	vertrauen	krank	töten	gierig	geizig	verbissen	versagen	besonnen	anregung	engagiert	kuss	genießen	sonnig	bange	ausrottung	engstirnig	krise	gemein	sterben	1	blank2r.bmp	0	1	+	0	1	blank2r.bmp	500	1	DHJF	500	1	blank2r.bmp	880	2	träumen	880	1	!	1232	1	!	1294	0	0	0	0	0	0
2024-05-10	11:53:10	12:07:15	844436	6.6.1	4_exp_EVA_AWA_CON	24	A	B	Rpleas_acq	Oppo	Rpleas	2pleas	acq_US_unple_nomask	acq45_nomask	5	13	400	0	300	300	0	0	525	46	1	0	kreativ	träumen	gütig	gesittet	vergnügt	vertrauen	krank	töten	gierig	geizig	verbissen	versagen	besonnen	anregung	engagiert	kuss	genießen	sonnig	bange	ausrottung	engstirnig	krise	gemein	sterben	1	blank2r.bmp	0	1	+	0	1	blank2r.bmp	500	1	CPLW	500	1	blank2r.bmp	880	4	geizig	880	1	!	1232	1	!	-1	0	0	0	0	0	0
2024-05-10	11:53:10	12:07:17	846724	6.6.1	4_exp_EVA_AWA_CON	24	A	B	Rpleas_acq	Oppo	Rpleas	2pleas	acq_US_pleas_nomask	acq45_nomask	5	14	400	0	300	300	0	0	512	50	1	0	kreativ	träumen	gütig	gesittet	vergnügt	vertrauen	krank	töten	gierig	geizig	verbissen	versagen	besonnen	anregung	engagiert	kuss	genießen	sonnig	bange	ausrottung	engstirnig	krise	gemein	sterben	1	blank2r.bmp	0	1	+	0	1	blank2r.bmp	500	1	DHJF	500	1	blank2r.bmp	880	3	gütig	880	1	!	1232	1	!	-1	0	0	0	0	0	0
2024-05-10	11:53:10	12:07:19	849045	6.6.1	4_exp_EVA_AWA_CON	24	A	B	Rpleas_acq	Oppo	Rpleas	2pleas	acq_US_pleas_nomask	acq45_nomask	5	15	400	0	300	300	0	0	540	50	1	0	kreativ	träumen	gütig	gesittet	vergnügt	vertrauen	krank	töten	gierig	geizig	verbissen	versagen	besonnen	anregung	engagiert	kuss	genießen	sonnig	bange	ausrottung	engstirnig	krise	gemein	sterben	1	blank2r.bmp	0	1	+	0	1	blank2r.bmp	500	1	DHJF	500	1	blank2r.bmp	880	1	kreativ	880	1	!	1232	1	!	-1	0	0	0	0	0	0
2024-05-10	11:53:10	12:07:21	851298	6.6.1	4_exp_EVA_AWA_CON	24	A	B	Rpleas_acq	Oppo	Rpleas	2pleas	acq_US_pleas_nomask	acq45_nomask	5	16	400	0	300	300	0	0	475	50	1	0	kreativ	träumen	gütig	gesittet	vergnügt	vertrauen	krank	töten	gierig	geizig	verbissen	versagen	besonnen	anregung	engagiert	kuss	genießen	sonnig	bange	ausrottung	engstirnig	krise	gemein	sterben	1	blank2r.bmp	0	1	+	0	1	blank2r.bmp	500	1	DHJF	500	1	blank2r.bmp	880	1	kreativ	880	1	!	1232	1	!	-1	0	0	0	0	0	0
2024-05-10	11:53:10	12:07:24	853554	6.6.1	4_exp_EVA_AWA_CON	24	A	B	Rpleas_acq	Oppo	Rpleas	2pleas	acq_US_pleas_nomask	acq45_nomask	5	17	400	0	300	300	0	0	479	50	1	0	kreativ	träumen	gütig	gesittet	vergnügt	vertrauen	krank	töten	gierig	geizig	verbissen	versagen	besonnen	anregung	engagiert	kuss	genießen	sonnig	bange	ausrottung	engstirnig	krise	gemein	sterben	1	blank2r.bmp	0	1	+	0	1	blank2r.bmp	500	1	DHJF	500	1	blank2r.bmp	880	6	vertrauen	880	1	!	1232	1	!	-1	0	0	0	0	0	0
2024-05-10	11:53:10	12:07:26	855719	6.6.1	4_exp_EVA_AWA_CON	24	A	B	Rpleas_acq	Oppo	Rpleas	2pleas	acq_US_pleas_nomask	acq45_nomask	5	18	400	1	300	300	0	0	388	50	1	0	kreativ	träumen	gütig	gesittet	vergnügt	vertrauen	krank	töten	gierig	geizig	verbissen	versagen	besonnen	anregung	engagiert	kuss	genießen	sonnig	bange	ausrottung	engstirnig	krise	gemein	sterben	1	blank2r.bmp	0	1	+	0	1	blank2r.bmp	500	1	DHJF	500	1	blank2r.bmp	880	3	gütig	880	1	!	1232	1	!	1289	0	0	0	0	0	0
2024-05-10	11:53:10	12:07:28	857894	6.6.1	4_exp_EVA_AWA_CON	24	A	B	Rpleas_acq	Oppo	Rpleas	2pleas	acq_US_unple_nomask	acq45_nomask	5	19	400	1	300	300	0	0	392	46	1	0	kreativ	träumen	gütig	gesittet	vergnügt	vertrauen	krank	töten	gierig	geizig	verbissen	versagen	besonnen	anregung	engagiert	kuss	genießen	sonnig	bange	ausrottung	engstirnig	krise	gemein	sterben	1	blank2r.bmp	0	1	+	0	1	blank2r.bmp	500	1	CPLW	500	1	blank2r.bmp	880	2	töten	880	1	!	1232	1	!	1294	0	0	0	0	0	0
2024-05-10	11:53:10	12:07:30	860086	6.6.1	4_exp_EVA_AWA_CON	24	A	B	Rpleas_acq	Oppo	Rpleas	2pleas	acq_US_unple_nomask	acq45_nomask	5	20	400	1	300	300	0	0	413	46	1	0	kreativ	träumen	gütig	gesittet	vergnügt	vertrauen	krank	töten	gierig	geizig	verbissen	versagen	besonnen	anregung	engagiert	kuss	genießen	sonnig	bange	ausrottung	engstirnig	krise	gemein	sterben	1	blank2r.bmp	0	1	+	0	1	blank2r.bmp	500	1	CPLW	500	1	blank2r.bmp	880	1	krank	880	1	!	1233	1	!	1314	0	0	0	0	0	0
2024-05-10	11:53:10	12:07:32	862335	6.6.1	4_exp_EVA_AWA_CON	24	A	B	Rpleas_acq	Oppo	Rpleas	2pleas	acq_US_pleas_nomask	acq45_nomask	5	21	400	1	300	300	0	0	469	50	1	0	kreativ	träumen	gütig	gesittet	vergnügt	vertrauen	krank	töten	gierig	geizig	verbissen	versagen	besonnen	anregung	engagiert	kuss	genießen	sonnig	bange	ausrottung	engstirnig	krise	gemein	sterben	1	blank2r.bmp	0	1	+	0	1	blank2r.bmp	500	1	DHJF	500	1	blank2r.bmp	880	4	gesittet	880	1	!	1232	1	!	1372	0	0	0	0	0	0
2024-05-10	11:53:10	12:07:35	864518	6.6.1	4_exp_EVA_AWA_CON	24	A	B	Rpleas_acq	Oppo	Rpleas	2pleas	acq_US_pleas_nomask	acq45_nomask	5	22	400	1	300	300	0	0	402	50	1	0	kreativ	träumen	gütig	gesittet	vergnügt	vertrauen	krank	töten	gierig	geizig	verbissen	versagen	besonnen	anregung	engagiert	kuss	genießen	sonnig	bange	ausrottung	engstirnig	krise	gemein	sterben	1	blank2r.bmp	0	1	+	0	1	blank2r.bmp	500	1	DHJF	500	1	blank2r.bmp	880	5	vergnügt	880	1	!	1232	1	!	1304	0	0	0	0	0	0
2024-05-10	11:53:10	12:07:37	866702	6.6.1	4_exp_EVA_AWA_CON	24	A	B	Rpleas_acq	Oppo	Rpleas	2pleas	acq_US_unple_nomask	acq45_nomask	5	23	400	1	300	300	0	0	405	46	1	0	kreativ	träumen	gütig	gesittet	vergnügt	vertrauen	krank	töten	gierig	geizig	verbissen	versagen	besonnen	anregung	engagiert	kuss	genießen	sonnig	bange	ausrottung	engstirnig	krise	gemein	sterben	1	blank2r.bmp	0	1	+	0	1	blank2r.bmp	500	1	CPLW	500	1	blank2r.bmp	880	3	gierig	880	1	!	1232	1	!	1306	0	0	0	0	0	0
2024-05-10	11:53:10	12:07:39	868942	6.6.1	4_exp_EVA_AWA_CON	24	A	B	Rpleas_acq	Oppo	Rpleas	2pleas	acq_US_unple_nomask	acq45_nomask	5	24	400	1	300	300	0	0	463	46	1	0	kreativ	träumen	gütig	gesittet	vergnügt	vertrauen	krank	töten	gierig	geizig	verbissen	versagen	besonnen	anregung	engagiert	kuss	genießen	sonnig	bange	ausrottung	engstirnig	krise	gemein	sterben	1	blank2r.bmp	0	1	+	0	1	blank2r.bmp	500	1	CPLW	500	1	blank2r.bmp	880	6	versagen	880	1	!	1232	1	!	1365	0	0	0	0	0	0
2024-05-10	11:53:10	12:07:41	871126	6.6.1	4_exp_EVA_AWA_CON	24	A	B	Rpleas_acq	Oppo	Rpleas	2pleas	acq_US_unple_nomask	acq45_nomask	5	25	400	1	300	300	0	0	406	46	1	0	kreativ	träumen	gütig	gesittet	vergnügt	vertrauen	krank	töten	gierig	geizig	verbissen	versagen	besonnen	anregung	engagiert	kuss	genießen	sonnig	bange	ausrottung	engstirnig	krise	gemein	sterben	1	blank2r.bmp	0	1	+	0	1	blank2r.bmp	500	1	CPLW	500	1	blank2r.bmp	880	2	töten	880	1	!	1232	1	!	1307	0	0	0	0	0	0
2024-05-10	11:53:10	12:07:43	873270	6.6.1	4_exp_EVA_AWA_CON	24	A	B	Rpleas_acq	Oppo	Rpleas	2pleas	acq_US_unple_nomask	acq45_nomask	5	26	400	1	300	300	0	0	368	46	1	0	kreativ	träumen	gütig	gesittet	vergnügt	vertrauen	krank	töten	gierig	geizig	verbissen	versagen	besonnen	anregung	engagiert	kuss	genießen	sonnig	bange	ausrottung	engstirnig	krise	gemein	sterben	1	blank2r.bmp	0	1	+	0	1	blank2r.bmp	500	1	CPLW	500	1	blank2r.bmp	880	3	gierig	880	1	!	1232	1	!	1270	0	0	0	0	0	0
2024-05-10	11:53:10	12:07:45	875406	6.6.1	4_exp_EVA_AWA_CON	24	A	B	Rpleas_acq	Oppo	Rpleas	2pleas	acq_US_pleas_nomask	acq45_nomask	5	27	400	1	300	300	0	0	353	50	1	0	kreativ	träumen	gütig	gesittet	vergnügt	vertrauen	krank	töten	gierig	geizig	verbissen	versagen	besonnen	anregung	engagiert	kuss	genießen	sonnig	bange	ausrottung	engstirnig	krise	gemein	sterben	1	blank2r.bmp	0	1	+	0	1	blank2r.bmp	500	1	DHJF	500	1	blank2r.bmp	880	2	träumen	880	1	!	1232	1	!	1254	0	0	0	0	0	0
2024-05-10	11:53:10	12:07:48	877550	6.6.1	4_exp_EVA_AWA_CON	24	A	B	Rpleas_acq	Oppo	Rpleas	2pleas	acq_US_pleas_nomask	acq45_nomask	5	28	400	1	300	300	0	0	365	46	0	0	kreativ	träumen	gütig	gesittet	vergnügt	vertrauen	krank	töten	gierig	geizig	verbissen	versagen	besonnen	anregung	engagiert	kuss	genießen	sonnig	bange	ausrottung	engstirnig	krise	gemein	sterben	1	blank2r.bmp	0	1	+	0	1	blank2r.bmp	500	1	DHJF	500	1	blank2r.bmp	880	4	gesittet	880	1	!	1232	1	!	1267	0	0	0	0	0	0
2024-05-10	11:53:10	12:07:50	879836	6.6.1	4_exp_EVA_AWA_CON	24	A	B	Rpleas_acq	Oppo	Rpleas	2pleas	acq_US_pleas_nomask	acq45_nomask	5	29	400	0	300	300	0	0	512	50	1	0	kreativ	träumen	gütig	gesittet	vergnügt	vertrauen	krank	töten	gierig	geizig	verbissen	versagen	besonnen	anregung	engagiert	kuss	genießen	sonnig	bange	ausrottung	engstirnig	krise	gemein	sterben	1	blank2r.bmp	0	1	+	0	1	blank2r.bmp	500	1	DHJF	500	1	blank2r.bmp	880	5	vergnügt	880	1	!	1232	1	!	-1	0	0	0	0	0	0
2024-05-10	11:53:10	12:07:52	882086	6.6.1	4_exp_EVA_AWA_CON	24	A	B	Rpleas_acq	Oppo	Rpleas	2pleas	acq_US_unple_nomask	acq45_nomask	5	30	400	1	300	300	0	0	469	46	1	0	kreativ	träumen	gütig	gesittet	vergnügt	vertrauen	krank	töten	gierig	geizig	verbissen	versagen	besonnen	anregung	engagiert	kuss	genießen	sonnig	bange	ausrottung	engstirnig	krise	gemein	sterben	1	blank2r.bmp	0	1	+	0	1	blank2r.bmp	500	1	CPLW	500	1	blank2r.bmp	880	1	krank	880	1	!	1232	1	!	1370	0	0	0	0	0	0
2024-05-10	11:53:10	12:07:54	884238	6.6.1	4_exp_EVA_AWA_CON	24	A	B	Rpleas_acq	Oppo	Rpleas	2pleas	acq_US_unple_nomask	acq45_nomask	5	31	400	1	300	300	0	0	369	46	1	0	kreativ	träumen	gütig	gesittet	vergnügt	vertrauen	krank	töten	gierig	geizig	verbissen	versagen	besonnen	anregung	engagiert	kuss	genießen	sonnig	bange	ausrottung	engstirnig	krise	gemein	sterben	1	blank2r.bmp	0	1	+	0	1	blank2r.bmp	500	1	CPLW	500	1	blank2r.bmp	880	5	verbissen	880	1	!	1232	1	!	1271	0	0	0	0	0	0
2024-05-10	11:53:10	12:07:56	886414	6.6.1	4_exp_EVA_AWA_CON	24	A	B	Rpleas_acq	Oppo	Rpleas	2pleas	acq_US_pleas_nomask	acq45_nomask	5	32	400	1	300	300	0	0	394	50	1	0	kreativ	träumen	gütig	gesittet	vergnügt	vertrauen	krank	töten	gierig	geizig	verbissen	versagen	besonnen	anregung	engagiert	kuss	genießen	sonnig	bange	ausrottung	engstirnig	krise	gemein	sterben	1	blank2r.bmp	0	1	+	0	1	blank2r.bmp	500	1	DHJF	500	1	blank2r.bmp	880	6	vertrauen	880	1	!	1232	1	!	1295	0	0	0	0	0	0
2024-05-10	11:53:10	12:07:59	888614	6.6.1	4_exp_EVA_AWA_CON	24	A	B	Rpleas_acq	Oppo	Rpleas	2pleas	acq_US_pleas_nomask	acq45_nomask	5	33	400	1	300	300	0	0	422	50	1	0	kreativ	träumen	gütig	gesittet	vergnügt	vertrauen	krank	töten	gierig	geizig	verbissen	versagen	besonnen	anregung	engagiert	kuss	genießen	sonnig	bange	ausrottung	engstirnig	krise	gemein	sterben	1	blank2r.bmp	0	1	+	0	1	blank2r.bmp	500	1	DHJF	500	1	blank2r.bmp	880	1	kreativ	880	1	!	1232	1	!	1324	0	0	0	0	0	0
2024-05-10	11:53:10	12:08:01	890846	6.6.1	4_exp_EVA_AWA_CON	24	A	B	Rpleas_acq	Oppo	Rpleas	2pleas	acq_US_pleas_nomask	acq45_nomask	5	34	400	1	300	300	0	0	453	50	1	0	kreativ	träumen	gütig	gesittet	vergnügt	vertrauen	krank	töten	gierig	geizig	verbissen	versagen	besonnen	anregung	engagiert	kuss	genießen	sonnig	bange	ausrottung	engstirnig	krise	gemein	sterben	1	blank2r.bmp	0	1	+	0	1	blank2r.bmp	500	1	DHJF	500	1	blank2r.bmp	880	3	gütig	880	1	!	1232	1	!	1354	0	0	0	0	0	0
2024-05-10	11:53:10	12:08:03	893173	6.6.1	4_exp_EVA_AWA_CON	24	A	B	Rpleas_acq	Oppo	Rpleas	2pleas	acq_US_pleas_nomask	acq45_nomask	5	35	400	0	300	300	0	0	549	50	1	0	kreativ	träumen	gütig	gesittet	vergnügt	vertrauen	krank	töten	gierig	geizig	verbissen	versagen	besonnen	anregung	engagiert	kuss	genießen	sonnig	bange	ausrottung	engstirnig	krise	gemein	sterben	1	blank2r.bmp	0	1	+	0	1	blank2r.bmp	500	1	DHJF	500	1	blank2r.bmp	880	2	träumen	880	1	!	1232	1	!	-1	0	0	0	0	0	0
2024-05-10	11:53:10	12:08:05	895390	6.6.1	4_exp_EVA_AWA_CON	24	A	B	Rpleas_acq	Oppo	Rpleas	2pleas	acq_US_unple_nomask	acq45_nomask	5	36	400	1	300	300	0	0	434	46	1	0	kreativ	träumen	gütig	gesittet	vergnügt	vertrauen	krank	töten	gierig	geizig	verbissen	versagen	besonnen	anregung	engagiert	kuss	genießen	sonnig	bange	ausrottung	engstirnig	krise	gemein	sterben	1	blank2r.bmp	0	1	+	0	1	blank2r.bmp	500	1	CPLW	500	1	blank2r.bmp	880	4	geizig	880	1	!	1232	1	!	1335	0	0	0	0	0	0
2024-05-10	11:53:10	12:08:36	925432	6.6.1	4_exp_EVA_AWA_CON	24	A	B	Rpleas_acq	Oppo	Lpleas	2pleas	EvalRating_firsttwo	EvalRating_firsttwo	6	1	0	0	300	300	0	0	14779	line	0	0,78125pct	kreativ	träumen	gütig	gesittet	vergnügt	vertrauen	krank	töten	gierig	geizig	verbissen	versagen	besonnen	anregung	engagiert	kuss	genießen	sonnig	bange	ausrottung	engstirnig	krise	gemein	sterben	1		-7	1	Wie angenehm oder unangenehm finden Sie die  Buchstabenkette WDLH?	-7	1		-7	1		-7	1		-7	1	Unangenehm	-7	1	Angenehm	-7	0	0	0	0	0	0	0	0	0
2024-05-10	11:53:10	12:08:42	931808	6.6.1	4_exp_EVA_AWA_CON	24	A	B	Rpleas_acq	Oppo	Lpleas	2pleas	EvalRating_lastfour	EvalRating_lastfour	7	1	0	0	300	300	0	0	4004	line	0	-35,2864583333333285964pct	kreativ	träumen	gütig	gesittet	vergnügt	vertrauen	krank	töten	gierig	geizig	verbissen	versagen	besonnen	anregung	engagiert	kuss	genießen	sonnig	bange	ausrottung	engstirnig	krise	gemein	sterben	1		-7	1	Wie angenehm oder unangenehm finden Sie die  Buchstabenkette CPLW?	-7	1		-7	1		-7	1		-7	1	Unangenehm	-7	1	Angenehm	-7	0	0	0	0	0	0	0	0	0
2024-05-10	11:53:10	12:08:44	934181	6.6.1	4_exp_EVA_AWA_CON	24	A	B	Rpleas_acq	Oppo	Lpleas	2pleas	blank_screen	EvalRating_lastfour	7	3	0	0	300	300	0	0	0	0	0	-35,2864583333333285964pct	kreativ	träumen	gütig	gesittet	vergnügt	vertrauen	krank	töten	gierig	geizig	verbissen	versagen	besonnen	anregung	engagiert	kuss	genießen	sonnig	bange	ausrottung	engstirnig	krise	gemein	sterben	1		-8	0	0	0	0	0	0	0	0	0	0	0	0	0	0	0	0	0	0	0	0	0	0	0	0	0	0	0
2024-05-10	11:53:10	12:08:55	944985	6.6.1	4_exp_EVA_AWA_CON	24	A	B	Rpleas_acq	Oppo	Lpleas	2pleas	EvalRating_lastfour	EvalRating_lastfour	7	4	0	0	300	300	0	0	10215	line	0	-11,328125pct	kreativ	träumen	gütig	gesittet	vergnügt	vertrauen	krank	töten	gierig	geizig	verbissen	versagen	besonnen	anregung	engagiert	kuss	genießen	sonnig	bange	ausrottung	engstirnig	krise	gemein	sterben	1		-7	3	Wie angenehm oder unangenehm finden Sie die  Buchstabenkette FCJP?	-7	1		-7	1		-7	1		-7	1	Unangenehm	-7	1	Angenehm	-7	0	0	0	0	0	0	0	0	0
2024-05-10	11:53:10	12:08:57	947350	6.6.1	4_exp_EVA_AWA_CON	24	A	B	Rpleas_acq	Oppo	Lpleas	2pleas	blank_screen	EvalRating_lastfour	7	6	0	0	300	300	0	0	0	0	0	-11,328125pct	kreativ	träumen	gütig	gesittet	vergnügt	vertrauen	krank	töten	gierig	geizig	verbissen	versagen	besonnen	anregung	engagiert	kuss	genießen	sonnig	bange	ausrottung	engstirnig	krise	gemein	sterben	1		-8	0	0	0	0	0	0	0	0	0	0	0	0	0	0	0	0	0	0	0	0	0	0	0	0	0	0	0
2024-05-10	11:53:10	12:09:02	951585	6.6.1	4_exp_EVA_AWA_CON	24	A	B	Rpleas_acq	Oppo	Lpleas	2pleas	EvalRating_lastfour	EvalRating_lastfour	7	7	0	0	300	300	0	0	3646	line	0	11,5885416666666714036pct	kreativ	träumen	gütig	gesittet	vergnügt	vertrauen	krank	töten	gierig	geizig	verbissen	versagen	besonnen	anregung	engagiert	kuss	genießen	sonnig	bange	ausrottung	engstirnig	krise	gemein	sterben	1		-7	2	Wie angenehm oder unangenehm finden Sie die  Buchstabenkette DHJF?	-7	1		-7	1		-7	1		-7	1	Unangenehm	-7	1	Angenehm	-7	0	0	0	0	0	0	0	0	0
2024-05-10	11:53:10	12:10:13	1022977	6.6.1	4_exp_EVA_AWA_CON	24	A	B	Rpleas_acq	Oppo	Lpleas	2pleas	conawa_CS2_US1	conawa1_nomask	8	1	0	0	300	300	0	0	29502	kreativ	1	11,5885416666666714036pct	kreativ	träumen	gütig	gesittet	vergnügt	vertrauen	krank	töten	gierig	geizig	verbissen	versagen	besonnen	anregung	engagiert	kuss	genießen	sonnig	bange	ausrottung	engstirnig	krise	gemein	sterben	0	0	0	0	0	0	0	0	0	0	0	0	0	0	0	0	0	0	0	0	0	0	0	0	0	0	0	0	0	0
2024-05-10	11:53:10	12:10:13	1022980	6.6.1	4_exp_EVA_AWA_CON	24	A	B	Rpleas_acq	Oppo	Lpleas	2pleas	conawa_CS2_US1_confidence	conawa1_nomask	8	1	0	0	300	300	0	0	29502	guess	1	11,5885416666666714036pct	kreativ	träumen	gütig	gesittet	vergnügt	vertrauen	krank	töten	gierig	geizig	verbissen	versagen	besonnen	anregung	engagiert	kuss	genießen	sonnig	bange	ausrottung	engstirnig	krise	gemein	sterben	0	0	0	0	0	0	0	0	0	0	0	0	0	0	0	0	0	0	0	0	0	0	0	0	0	0	0	0	0	0
2024-05-10	11:53:10	12:10:24	1033524	6.6.1	4_exp_EVA_AWA_CON	24	A	B	Rpleas_acq	Oppo	Lpleas	2pleas	conawa_CS2_US6	conawa1_nomask	8	2	0	0	300	300	0	0	9931	vertrauen	1	11,5885416666666714036pct	kreativ	träumen	gütig	gesittet	vergnügt	vertrauen	krank	töten	gierig	geizig	verbissen	versagen	besonnen	anregung	engagiert	kuss	genießen	sonnig	bange	ausrottung	engstirnig	krise	gemein	sterben	0	0	0	0	0	0	0	0	0	0	0	0	0	0	0	0	0	0	0	0	0	0	0	0	0	0	0	0	0	0
2024-05-10	11:53:10	12:10:24	1033526	6.6.1	4_exp_EVA_AWA_CON	24	A	B	Rpleas_acq	Oppo	Lpleas	2pleas	conawa_CS2_US6_confidence	conawa1_nomask	8	2	0	0	300	300	0	0	9931	guess	1	11,5885416666666714036pct	kreativ	träumen	gütig	gesittet	vergnügt	vertrauen	krank	töten	gierig	geizig	verbissen	versagen	besonnen	anregung	engagiert	kuss	genießen	sonnig	bange	ausrottung	engstirnig	krise	gemein	sterben	0	0	0	0	0	0	0	0	0	0	0	0	0	0	0	0	0	0	0	0	0	0	0	0	0	0	0	0	0	0
2024-05-10	11:53:10	12:10:32	1042230	6.6.1	4_exp_EVA_AWA_CON	24	A	B	Rpleas_acq	Oppo	Lpleas	2pleas	conawa_CS2_US4	conawa1_nomask	8	3	0	0	300	300	0	0	8095	gesittet	1	11,5885416666666714036pct	kreativ	träumen	gütig	gesittet	vergnügt	vertrauen	krank	töten	gierig	geizig	verbissen	versagen	besonnen	anregung	engagiert	kuss	genießen	sonnig	bange	ausrottung	engstirnig	krise	gemein	sterben	0	0	0	0	0	0	0	0	0	0	0	0	0	0	0	0	0	0	0	0	0	0	0	0	0	0	0	0	0	0
2024-05-10	11:53:10	12:10:32	1042232	6.6.1	4_exp_EVA_AWA_CON	24	A	B	Rpleas_acq	Oppo	Lpleas	2pleas	conawa_CS2_US4_confidence	conawa1_nomask	8	3	0	0	300	300	0	0	8095	guess	1	11,5885416666666714036pct	kreativ	träumen	gütig	gesittet	vergnügt	vertrauen	krank	töten	gierig	geizig	verbissen	versagen	besonnen	anregung	engagiert	kuss	genießen	sonnig	bange	ausrottung	engstirnig	krise	gemein	sterben	0	0	0	0	0	0	0	0	0	0	0	0	0	0	0	0	0	0	0	0	0	0	0	0	0	0	0	0	0	0
2024-05-10	11:53:10	12:10:41	1050615	6.6.1	4_exp_EVA_AWA_CON	24	A	B	Rpleas_acq	Oppo	Lpleas	2pleas	conawa_CS1_US1	conawa1_nomask	8	4	0	0	300	300	0	0	7771	bange	1	11,5885416666666714036pct	kreativ	träumen	gütig	gesittet	vergnügt	vertrauen	krank	töten	gierig	geizig	verbissen	versagen	besonnen	anregung	engagiert	kuss	genießen	sonnig	bange	ausrottung	engstirnig	krise	gemein	sterben	0	0	0	0	0	0	0	0	0	0	0	0	0	0	0	0	0	0	0	0	0	0	0	0	0	0	0	0	0	0
2024-05-10	11:53:10	12:10:41	1050618	6.6.1	4_exp_EVA_AWA_CON	24	A	B	Rpleas_acq	Oppo	Lpleas	2pleas	conawa_CS1_US1_confidence	conawa1_nomask	8	4	0	0	300	300	0	0	7771	guess	1	11,5885416666666714036pct	kreativ	träumen	gütig	gesittet	vergnügt	vertrauen	krank	töten	gierig	geizig	verbissen	versagen	besonnen	anregung	engagiert	kuss	genießen	sonnig	bange	ausrottung	engstirnig	krise	gemein	sterben	0	0	0	0	0	0	0	0	0	0	0	0	0	0	0	0	0	0	0	0	0	0	0	0	0	0	0	0	0	0
2024-05-10	11:53:10	12:10:48	1057960	6.6.1	4_exp_EVA_AWA_CON	24	A	B	Rpleas_acq	Oppo	Lpleas	2pleas	conawa_CS1_US4	conawa1_nomask	8	5	0	0	300	300	0	0	6731	krise	1	11,5885416666666714036pct	kreativ	träumen	gütig	gesittet	vergnügt	vertrauen	krank	töten	gierig	geizig	verbissen	versagen	besonnen	anregung	engagiert	kuss	genießen	sonnig	bange	ausrottung	engstirnig	krise	gemein	sterben	0	0	0	0	0	0	0	0	0	0	0	0	0	0	0	0	0	0	0	0	0	0	0	0	0	0	0	0	0	0
2024-05-10	11:53:10	12:10:48	1057962	6.6.1	4_exp_EVA_AWA_CON	24	A	B	Rpleas_acq	Oppo	Lpleas	2pleas	conawa_CS1_US4_confidence	conawa1_nomask	8	5	0	0	300	300	0	0	6731	guess	1	11,5885416666666714036pct	kreativ	träumen	gütig	gesittet	vergnügt	vertrauen	krank	töten	gierig	geizig	verbissen	versagen	besonnen	anregung	engagiert	kuss	genießen	sonnig	bange	ausrottung	engstirnig	krise	gemein	sterben	0	0	0	0	0	0	0	0	0	0	0	0	0	0	0	0	0	0	0	0	0	0	0	0	0	0	0	0	0	0
2024-05-10	11:53:10	12:10:56	1065675	6.6.1	4_exp_EVA_AWA_CON	24	A	B	Rpleas_acq	Oppo	Lpleas	2pleas	conawa_CS2_US5	conawa1_nomask	8	6	0	0	300	300	0	0	7100	sonnig	1	11,5885416666666714036pct	kreativ	träumen	gütig	gesittet	vergnügt	vertrauen	krank	töten	gierig	geizig	verbissen	versagen	besonnen	anregung	engagiert	kuss	genießen	sonnig	bange	ausrottung	engstirnig	krise	gemein	sterben	0	0	0	0	0	0	0	0	0	0	0	0	0	0	0	0	0	0	0	0	0	0	0	0	0	0	0	0	0	0
2024-05-10	11:53:10	12:10:56	1065677	6.6.1	4_exp_EVA_AWA_CON	24	A	B	Rpleas_acq	Oppo	Lpleas	2pleas	conawa_CS2_US5_confidence	conawa1_nomask	8	6	0	0	300	300	0	0	7100	guess	1	11,5885416666666714036pct	kreativ	träumen	gütig	gesittet	vergnügt	vertrauen	krank	töten	gierig	geizig	verbissen	versagen	besonnen	anregung	engagiert	kuss	genießen	sonnig	bange	ausrottung	engstirnig	krise	gemein	sterben	0	0	0	0	0	0	0	0	0	0	0	0	0	0	0	0	0	0	0	0	0	0	0	0	0	0	0	0	0	0
2024-05-10	11:53:10	12:11:03	1073251	6.6.1	4_exp_EVA_AWA_CON	24	A	B	Rpleas_acq	Oppo	Lpleas	2pleas	conawa_CS1_US3	conawa1_nomask	8	7	0	0	300	300	0	0	6960	engstirnig	1	11,5885416666666714036pct	kreativ	träumen	gütig	gesittet	vergnügt	vertrauen	krank	töten	gierig	geizig	verbissen	versagen	besonnen	anregung	engagiert	kuss	genießen	sonnig	bange	ausrottung	engstirnig	krise	gemein	sterben	0	0	0	0	0	0	0	0	0	0	0	0	0	0	0	0	0	0	0	0	0	0	0	0	0	0	0	0	0	0
2024-05-10	11:53:10	12:11:03	1073252	6.6.1	4_exp_EVA_AWA_CON	24	A	B	Rpleas_acq	Oppo	Lpleas	2pleas	conawa_CS1_US3_confidence	conawa1_nomask	8	7	0	0	300	300	0	0	6960	guess	1	11,5885416666666714036pct	kreativ	träumen	gütig	gesittet	vergnügt	vertrauen	krank	töten	gierig	geizig	verbissen	versagen	besonnen	anregung	engagiert	kuss	genießen	sonnig	bange	ausrottung	engstirnig	krise	gemein	sterben	0	0	0	0	0	0	0	0	0	0	0	0	0	0	0	0	0	0	0	0	0	0	0	0	0	0	0	0	0	0
2024-05-10	11:53:10	12:11:11	1081245	6.6.1	4_exp_EVA_AWA_CON	24	A	B	Rpleas_acq	Oppo	Lpleas	2pleas	conawa_CS1_US6	conawa1_nomask	8	8	0	0	300	300	0	0	7377	versagen	1	11,5885416666666714036pct	kreativ	träumen	gütig	gesittet	vergnügt	vertrauen	krank	töten	gierig	geizig	verbissen	versagen	besonnen	anregung	engagiert	kuss	genießen	sonnig	bange	ausrottung	engstirnig	krise	gemein	sterben	0	0	0	0	0	0	0	0	0	0	0	0	0	0	0	0	0	0	0	0	0	0	0	0	0	0	0	0	0	0
2024-05-10	11:53:10	12:11:11	1081247	6.6.1	4_exp_EVA_AWA_CON	24	A	B	Rpleas_acq	Oppo	Lpleas	2pleas	conawa_CS1_US6_confidence	conawa1_nomask	8	8	0	0	300	300	0	0	7377	guess	1	11,5885416666666714036pct	kreativ	träumen	gütig	gesittet	vergnügt	vertrauen	krank	töten	gierig	geizig	verbissen	versagen	besonnen	anregung	engagiert	kuss	genießen	sonnig	bange	ausrottung	engstirnig	krise	gemein	sterben	0	0	0	0	0	0	0	0	0	0	0	0	0	0	0	0	0	0	0	0	0	0	0	0	0	0	0	0	0	0
2024-05-10	11:53:10	12:11:18	1087930	6.6.1	4_exp_EVA_AWA_CON	24	A	B	Rpleas_acq	Oppo	Lpleas	2pleas	conawa_CS2_US2	conawa1_nomask	8	9	0	0	300	300	0	0	6069	träumen	1	11,5885416666666714036pct	kreativ	träumen	gütig	gesittet	vergnügt	vertrauen	krank	töten	gierig	geizig	verbissen	versagen	besonnen	anregung	engagiert	kuss	genießen	sonnig	bange	ausrottung	engstirnig	krise	gemein	sterben	0	0	0	0	0	0	0	0	0	0	0	0	0	0	0	0	0	0	0	0	0	0	0	0	0	0	0	0	0	0
2024-05-10	11:53:10	12:11:18	1087932	6.6.1	4_exp_EVA_AWA_CON	24	A	B	Rpleas_acq	Oppo	Lpleas	2pleas	conawa_CS2_US2_confidence	conawa1_nomask	8	9	0	0	300	300	0	0	6069	guess	1	11,5885416666666714036pct	kreativ	träumen	gütig	gesittet	vergnügt	vertrauen	krank	töten	gierig	geizig	verbissen	versagen	besonnen	anregung	engagiert	kuss	genießen	sonnig	bange	ausrottung	engstirnig	krise	gemein	sterben	0	0	0	0	0	0	0	0	0	0	0	0	0	0	0	0	0	0	0	0	0	0	0	0	0	0	0	0	0	0
2024-05-10	11:53:10	12:11:25	1094574	6.6.1	4_exp_EVA_AWA_CON	24	A	B	Rpleas_acq	Oppo	Lpleas	2pleas	conawa_CS2_US3	conawa1_nomask	8	10	0	0	300	300	0	0	6036	gütig	1	11,5885416666666714036pct	kreativ	träumen	gütig	gesittet	vergnügt	vertrauen	krank	töten	gierig	geizig	verbissen	versagen	besonnen	anregung	engagiert	kuss	genießen	sonnig	bange	ausrottung	engstirnig	krise	gemein	sterben	0	0	0	0	0	0	0	0	0	0	0	0	0	0	0	0	0	0	0	0	0	0	0	0	0	0	0	0	0	0
2024-05-10	11:53:10	12:11:25	1094576	6.6.1	4_exp_EVA_AWA_CON	24	A	B	Rpleas_acq	Oppo	Lpleas	2pleas	conawa_CS2_US3_confidence	conawa1_nomask	8	10	0	0	300	300	0	0	6036	guess	1	11,5885416666666714036pct	kreativ	träumen	gütig	gesittet	vergnügt	vertrauen	krank	töten	gierig	geizig	verbissen	versagen	besonnen	anregung	engagiert	kuss	genießen	sonnig	bange	ausrottung	engstirnig	krise	gemein	sterben	0	0	0	0	0	0	0	0	0	0	0	0	0	0	0	0	0	0	0	0	0	0	0	0	0	0	0	0	0	0
2024-05-10	11:53:10	12:11:30	1100298	6.6.1	4_exp_EVA_AWA_CON	24	A	B	Rpleas_acq	Oppo	Lpleas	2pleas	conawa_CS1_US5	conawa1_nomask	8	11	0	0	300	300	0	0	5110	gemein	1	11,5885416666666714036pct	kreativ	träumen	gütig	gesittet	vergnügt	vertrauen	krank	töten	gierig	geizig	verbissen	versagen	besonnen	anregung	engagiert	kuss	genießen	sonnig	bange	ausrottung	engstirnig	krise	gemein	sterben	0	0	0	0	0	0	0	0	0	0	0	0	0	0	0	0	0	0	0	0	0	0	0	0	0	0	0	0	0	0
2024-05-10	11:53:10	12:11:30	1100300	6.6.1	4_exp_EVA_AWA_CON	24	A	B	Rpleas_acq	Oppo	Lpleas	2pleas	conawa_CS1_US5_confidence	conawa1_nomask	8	11	0	0	300	300	0	0	5110	guess	1	11,5885416666666714036pct	kreativ	träumen	gütig	gesittet	vergnügt	vertrauen	krank	töten	gierig	geizig	verbissen	versagen	besonnen	anregung	engagiert	kuss	genießen	sonnig	bange	ausrottung	engstirnig	krise	gemein	sterben	0	0	0	0	0	0	0	0	0	0	0	0	0	0	0	0	0	0	0	0	0	0	0	0	0	0	0	0	0	0
2024-05-10	11:53:10	12:11:38	1108333	6.6.1	4_exp_EVA_AWA_CON	24	A	B	Rpleas_acq	Oppo	Lpleas	2pleas	conawa_CS1_US2	conawa1_nomask	8	12	0	0	300	300	0	0	7425	ausrottung	1	11,5885416666666714036pct	kreativ	träumen	gütig	gesittet	vergnügt	vertrauen	krank	töten	gierig	geizig	verbissen	versagen	besonnen	anregung	engagiert	kuss	genießen	sonnig	bange	ausrottung	engstirnig	krise	gemein	sterben	0	0	0	0	0	0	0	0	0	0	0	0	0	0	0	0	0	0	0	0	0	0	0	0	0	0	0	0	0	0
2024-05-10	11:53:10	12:11:38	1108335	6.6.1	4_exp_EVA_AWA_CON	24	A	B	Rpleas_acq	Oppo	Lpleas	2pleas	conawa_CS1_US2_confidence	conawa1_nomask	8	12	0	0	300	300	0	0	7425	guess	1	11,5885416666666714036pct	kreativ	träumen	gütig	gesittet	vergnügt	vertrauen	krank	töten	gierig	geizig	verbissen	versagen	besonnen	anregung	engagiert	kuss	genießen	sonnig	bange	ausrottung	engstirnig	krise	gemein	sterben	0	0	0	0	0	0	0	0	0	0	0	0	0	0	0	0	0	0	0	0	0	0	0	0	0	0	0	0	0	0
2024-05-10	11:53:10	12:13:14	1203484	6.6.1	4_exp_EVA_AWA_CON	24	A	B	Rpleas_acq	Oppo	Lpleas	2pleas	cond_US_unple_123_nomask_CS2	condtest_nomask_1	11	1	400	0	300	300	0	0	1049	50	1	11,5885416666666714036pct	kreativ	träumen	gütig	gesittet	vergnügt	vertrauen	krank	töten	gierig	geizig	verbissen	versagen	besonnen	anregung	engagiert	kuss	genießen	sonnig	bange	ausrottung	engstirnig	krise	gemein	sterben	1	blank2r.bmp	0	1	+	0	1	blank2r.bmp	500	1	DHJF	500	1	blank2r.bmp	880	3	töten	880	1	!	1233	1	!	-1	0	0	0	0	0	0
