date	time	currenttime	elapsedtime	build	currentexpt	subject	CS_AB	US_AB	LRpleas_acq	SameOppo	condition_Lpleas	condition_1pleas	trialcode	blockcode	blocknum	trialnum	windowcenter	inwindow	pretrialpause	posttrialpause	trialduration	trialtimeout	latency	response	correct	correctedscore	US_nomask_pleas1	US_nomask_pleas2	US_nomask_pleas3	US_nomask_pleas4	US_nomask_pleas5	US_nomask_pleas6	US_nomask_unple1	US_nomask_unple2	US_nomask_unple3	US_nomask_unple4	US_nomask_unple5	US_nomask_unple6	new_nomask_pleas1	new_nomask_pleas2	new_nomask_pleas3	new_nomask_pleas4	new_nomask_pleas5	new_nomask_pleas6	new_nomask_unple1	new_nomask_unple2	new_nomask_unple3	new_nomask_unple4	new_nomask_unple5	new_nomask_unple6	stimulusnumber1	stimulusitem1	stimulusonset1	stimulusnumber2	stimulusitem2	stimulusonset2	stimulusnumber3	stimulusitem3	stimulusonset3	stimulusnumber4	stimulusitem4	stimulusonset4	stimulusnumber5	stimulusitem5	stimulusonset5	stimulusnumber6	stimulusitem6	stimulusonset6	stimulusnumber7	stimulusitem7	stimulusonset7	stimulusnumber8	stimulusitem8	stimulusonset8	stimulusnumber9	stimulusitem9	stimulusonset9	stimulusnumber10	stimulusitem10	stimulusonset10
2024-05-28	11:28:29	11:30:13	104018	6.6.1	4_exp_EVA_AWA_CON	54	B	A	Rpleas_acq	Oppo	Rpleas	1pleas	acq_US_pleas_nomask	acq1_nomask	1	1	0	0	300	300	0	0	1216	50	1	0	freundlich	schön	spielen	treu	fair	schlau	fanatisch	schlecht	strafen	tot	faul	schroff	lachen	retten	helfen	tolerant	loyal	ehrlich	leiden	rächen	hindern	tyrannisch	lasch	eitel	1	blank2r.bmp	0	1	+	0	1	blank2r.bmp	500	1	BMVZ	500	1	blank2r.bmp	880	2	schön	880	0	0	0	0	0	0	0	0	0	0	0	0
2024-05-28	11:28:29	11:30:16	106425	6.6.1	4_exp_EVA_AWA_CON	54	B	A	Rpleas_acq	Oppo	Rpleas	1pleas	acq_new_pleas_nomask	acq1_nomask	1	2	0	0	300	300	0	0	922	50	1	0	freundlich	schön	spielen	treu	fair	schlau	fanatisch	schlecht	strafen	tot	faul	schroff	lachen	retten	helfen	tolerant	loyal	ehrlich	leiden	rächen	hindern	tyrannisch	lasch	eitel	1	blank2r.bmp	0	1	+	0	1	blank2r.bmp	500	8	C4r.bmp	500	1	blank2r.bmp	880	6	ehrlich	880	0	0	0	0	0	0	0	0	0	0	0	0
2024-05-28	11:28:29	11:30:18	108769	6.6.1	4_exp_EVA_AWA_CON	54	B	A	Rpleas_acq	Oppo	Rpleas	1pleas	acq_new_unple_nomask	acq1_nomask	1	3	0	0	300	300	0	0	855	46	1	0	freundlich	schön	spielen	treu	fair	schlau	fanatisch	schlecht	strafen	tot	faul	schroff	lachen	retten	helfen	tolerant	loyal	ehrlich	leiden	rächen	hindern	tyrannisch	lasch	eitel	1	blank2r.bmp	0	1	+	0	1	blank2r.bmp	500	3	B3r.bmp	500	1	blank2r.bmp	880	4	tyrannisch	880	0	0	0	0	0	0	0	0	0	0	0	0
2024-05-28	11:28:29	11:30:20	111090	6.6.1	4_exp_EVA_AWA_CON	54	B	A	Rpleas_acq	Oppo	Rpleas	1pleas	acq_new_pleas_nomask	acq1_nomask	1	4	0	0	300	300	0	0	833	50	1	0	freundlich	schön	spielen	treu	fair	schlau	fanatisch	schlecht	strafen	tot	faul	schroff	lachen	retten	helfen	tolerant	loyal	ehrlich	leiden	rächen	hindern	tyrannisch	lasch	eitel	1	blank2r.bmp	0	1	+	0	1	blank2r.bmp	500	6	C2r.bmp	500	1	blank2r.bmp	880	2	retten	880	0	0	0	0	0	0	0	0	0	0	0	0
2024-05-28	11:28:29	11:30:23	113290	6.6.1	4_exp_EVA_AWA_CON	54	B	A	Rpleas_acq	Oppo	Rpleas	1pleas	acq_US_unple_nomask	acq1_nomask	1	5	0	0	300	300	0	0	712	46	1	0	freundlich	schön	spielen	treu	fair	schlau	fanatisch	schlecht	strafen	tot	faul	schroff	lachen	retten	helfen	tolerant	loyal	ehrlich	leiden	rächen	hindern	tyrannisch	lasch	eitel	1	blank2r.bmp	0	1	+	0	1	blank2r.bmp	500	1	GKQX	500	1	blank2r.bmp	880	5	faul	880	0	0	0	0	0	0	0	0	0	0	0	0
2024-05-28	11:28:29	11:30:25	115530	6.6.1	4_exp_EVA_AWA_CON	54	B	A	Rpleas_acq	Oppo	Rpleas	1pleas	acq_new_unple_nomask	acq1_nomask	1	6	0	0	300	300	0	0	750	46	1	0	freundlich	schön	spielen	treu	fair	schlau	fanatisch	schlecht	strafen	tot	faul	schroff	lachen	retten	helfen	tolerant	loyal	ehrlich	leiden	rächen	hindern	tyrannisch	lasch	eitel	1	blank2r.bmp	0	1	+	0	1	blank2r.bmp	500	2	B2r.bmp	500	1	blank2r.bmp	880	1	leiden	880	0	0	0	0	0	0	0	0	0	0	0	0
2024-05-28	11:28:29	11:30:27	117626	6.6.1	4_exp_EVA_AWA_CON	54	B	A	Rpleas_acq	Oppo	Rpleas	1pleas	acq_US_pleas_nomask	acq1_nomask	1	7	0	0	300	300	0	0	615	50	1	0	freundlich	schön	spielen	treu	fair	schlau	fanatisch	schlecht	strafen	tot	faul	schroff	lachen	retten	helfen	tolerant	loyal	ehrlich	leiden	rächen	hindern	tyrannisch	lasch	eitel	1	blank2r.bmp	0	1	+	0	1	blank2r.bmp	500	1	BMVZ	500	1	blank2r.bmp	880	3	spielen	880	0	0	0	0	0	0	0	0	0	0	0	0
2024-05-28	11:28:29	11:30:29	119834	6.6.1	4_exp_EVA_AWA_CON	54	B	A	Rpleas_acq	Oppo	Rpleas	1pleas	acq_US_unple_nomask	acq1_nomask	1	8	0	0	300	300	0	0	721	46	1	0	freundlich	schön	spielen	treu	fair	schlau	fanatisch	schlecht	strafen	tot	faul	schroff	lachen	retten	helfen	tolerant	loyal	ehrlich	leiden	rächen	hindern	tyrannisch	lasch	eitel	1	blank2r.bmp	0	1	+	0	1	blank2r.bmp	500	1	GKQX	500	1	blank2r.bmp	880	3	strafen	880	0	0	0	0	0	0	0	0	0	0	0	0
2024-05-28	11:28:29	11:30:31	122010	6.6.1	4_exp_EVA_AWA_CON	54	B	A	Rpleas_acq	Oppo	Rpleas	1pleas	acq_new_pleas_nomask	acq1_nomask	1	9	0	0	300	300	0	0	686	50	1	0	freundlich	schön	spielen	treu	fair	schlau	fanatisch	schlecht	strafen	tot	faul	schroff	lachen	retten	helfen	tolerant	loyal	ehrlich	leiden	rächen	hindern	tyrannisch	lasch	eitel	1	blank2r.bmp	0	1	+	0	1	blank2r.bmp	500	5	C1r.bmp	500	1	blank2r.bmp	880	5	loyal	880	0	0	0	0	0	0	0	0	0	0	0	0
2024-05-28	11:28:29	11:30:34	124490	6.6.1	4_exp_EVA_AWA_CON	54	B	A	Rpleas_acq	Oppo	Rpleas	1pleas	acq_new_unple_nomask	acq1_nomask	1	10	0	0	300	300	0	0	995	46	1	0	freundlich	schön	spielen	treu	fair	schlau	fanatisch	schlecht	strafen	tot	faul	schroff	lachen	retten	helfen	tolerant	loyal	ehrlich	leiden	rächen	hindern	tyrannisch	lasch	eitel	1	blank2r.bmp	0	1	+	0	1	blank2r.bmp	500	7	C3r.bmp	500	1	blank2r.bmp	880	3	hindern	880	0	0	0	0	0	0	0	0	0	0	0	0
2024-05-28	11:28:29	11:30:36	126738	6.6.1	4_exp_EVA_AWA_CON	54	B	A	Rpleas_acq	Oppo	Rpleas	1pleas	acq_US_unple_nomask	acq1_nomask	1	11	0	0	300	300	0	0	760	46	1	0	freundlich	schön	spielen	treu	fair	schlau	fanatisch	schlecht	strafen	tot	faul	schroff	lachen	retten	helfen	tolerant	loyal	ehrlich	leiden	rächen	hindern	tyrannisch	lasch	eitel	1	blank2r.bmp	0	1	+	0	1	blank2r.bmp	500	1	GKQX	500	1	blank2r.bmp	880	2	schlecht	880	0	0	0	0	0	0	0	0	0	0	0	0
2024-05-28	11:28:29	11:30:38	128897	6.6.1	4_exp_EVA_AWA_CON	54	B	A	Rpleas_acq	Oppo	Rpleas	1pleas	acq_US_pleas_nomask	acq1_nomask	1	12	0	0	300	300	0	0	679	50	1	0	freundlich	schön	spielen	treu	fair	schlau	fanatisch	schlecht	strafen	tot	faul	schroff	lachen	retten	helfen	tolerant	loyal	ehrlich	leiden	rächen	hindern	tyrannisch	lasch	eitel	1	blank2r.bmp	0	1	+	0	1	blank2r.bmp	500	1	BMVZ	500	1	blank2r.bmp	880	6	schlau	880	0	0	0	0	0	0	0	0	0	0	0	0
2024-05-28	11:28:29	11:30:40	131186	6.6.1	4_exp_EVA_AWA_CON	54	B	A	Rpleas_acq	Oppo	Rpleas	1pleas	acq_US_pleas_nomask	acq1_nomask	1	13	0	0	300	300	0	0	806	50	1	0	freundlich	schön	spielen	treu	fair	schlau	fanatisch	schlecht	strafen	tot	faul	schroff	lachen	retten	helfen	tolerant	loyal	ehrlich	leiden	rächen	hindern	tyrannisch	lasch	eitel	1	blank2r.bmp	0	1	+	0	1	blank2r.bmp	500	1	BMVZ	500	1	blank2r.bmp	880	4	treu	880	0	0	0	0	0	0	0	0	0	0	0	0
2024-05-28	11:28:29	11:30:43	133322	6.6.1	4_exp_EVA_AWA_CON	54	B	A	Rpleas_acq	Oppo	Rpleas	1pleas	acq_new_pleas_nomask	acq1_nomask	1	14	0	0	300	300	0	0	651	50	1	0	freundlich	schön	spielen	treu	fair	schlau	fanatisch	schlecht	strafen	tot	faul	schroff	lachen	retten	helfen	tolerant	loyal	ehrlich	leiden	rächen	hindern	tyrannisch	lasch	eitel	1	blank2r.bmp	0	1	+	0	1	blank2r.bmp	500	1	B1r.bmp	500	1	blank2r.bmp	880	3	helfen	880	0	0	0	0	0	0	0	0	0	0	0	0
2024-05-28	11:28:29	11:30:45	135410	6.6.1	4_exp_EVA_AWA_CON	54	B	A	Rpleas_acq	Oppo	Rpleas	1pleas	acq_new_unple_nomask	acq1_nomask	1	15	0	0	300	300	0	0	607	46	1	0	freundlich	schön	spielen	treu	fair	schlau	fanatisch	schlecht	strafen	tot	faul	schroff	lachen	retten	helfen	tolerant	loyal	ehrlich	leiden	rächen	hindern	tyrannisch	lasch	eitel	1	blank2r.bmp	0	1	+	0	1	blank2r.bmp	500	4	B4r.bmp	500	1	blank2r.bmp	880	2	rächen	880	0	0	0	0	0	0	0	0	0	0	0	0
2024-05-28	11:28:29	11:30:47	137498	6.6.1	4_exp_EVA_AWA_CON	54	B	A	Rpleas_acq	Oppo	Rpleas	1pleas	acq_new_pleas_nomask	acq1_nomask	1	16	0	0	300	300	0	0	604	50	1	0	freundlich	schön	spielen	treu	fair	schlau	fanatisch	schlecht	strafen	tot	faul	schroff	lachen	retten	helfen	tolerant	loyal	ehrlich	leiden	rächen	hindern	tyrannisch	lasch	eitel	1	blank2r.bmp	0	1	+	0	1	blank2r.bmp	500	6	C2r.bmp	500	1	blank2r.bmp	880	1	lachen	880	0	0	0	0	0	0	0	0	0	0	0	0
2024-05-28	11:28:29	11:30:49	139666	6.6.1	4_exp_EVA_AWA_CON	54	B	A	Rpleas_acq	Oppo	Rpleas	1pleas	acq_new_unple_nomask	acq1_nomask	1	17	0	0	300	300	0	0	680	46	1	0	freundlich	schön	spielen	treu	fair	schlau	fanatisch	schlecht	strafen	tot	faul	schroff	lachen	retten	helfen	tolerant	loyal	ehrlich	leiden	rächen	hindern	tyrannisch	lasch	eitel	1	blank2r.bmp	0	1	+	0	1	blank2r.bmp	500	1	B1r.bmp	500	1	blank2r.bmp	880	6	eitel	880	0	0	0	0	0	0	0	0	0	0	0	0
2024-05-28	11:28:29	11:30:51	141841	6.6.1	4_exp_EVA_AWA_CON	54	B	A	Rpleas_acq	Oppo	Rpleas	1pleas	acq_new_pleas_nomask	acq1_nomask	1	18	0	0	300	300	0	0	694	50	1	0	freundlich	schön	spielen	treu	fair	schlau	fanatisch	schlecht	strafen	tot	faul	schroff	lachen	retten	helfen	tolerant	loyal	ehrlich	leiden	rächen	hindern	tyrannisch	lasch	eitel	1	blank2r.bmp	0	1	+	0	1	blank2r.bmp	500	3	B3r.bmp	500	1	blank2r.bmp	880	4	tolerant	880	0	0	0	0	0	0	0	0	0	0	0	0
2024-05-28	11:28:29	11:30:53	144049	6.6.1	4_exp_EVA_AWA_CON	54	B	A	Rpleas_acq	Oppo	Rpleas	1pleas	acq_US_pleas_nomask	acq1_nomask	1	19	0	0	300	300	0	0	721	50	1	0	freundlich	schön	spielen	treu	fair	schlau	fanatisch	schlecht	strafen	tot	faul	schroff	lachen	retten	helfen	tolerant	loyal	ehrlich	leiden	rächen	hindern	tyrannisch	lasch	eitel	1	blank2r.bmp	0	1	+	0	1	blank2r.bmp	500	1	BMVZ	500	1	blank2r.bmp	880	1	freundlich	880	0	0	0	0	0	0	0	0	0	0	0	0
2024-05-28	11:28:29	11:30:55	146073	6.6.1	4_exp_EVA_AWA_CON	54	B	A	Rpleas_acq	Oppo	Rpleas	1pleas	acq_US_unple_nomask	acq1_nomask	1	20	0	0	300	300	0	0	543	46	1	0	freundlich	schön	spielen	treu	fair	schlau	fanatisch	schlecht	strafen	tot	faul	schroff	lachen	retten	helfen	tolerant	loyal	ehrlich	leiden	rächen	hindern	tyrannisch	lasch	eitel	1	blank2r.bmp	0	1	+	0	1	blank2r.bmp	500	1	GKQX	500	1	blank2r.bmp	880	6	schroff	880	0	0	0	0	0	0	0	0	0	0	0	0
2024-05-28	11:28:29	11:30:57	148145	6.6.1	4_exp_EVA_AWA_CON	54	B	A	Rpleas_acq	Oppo	Rpleas	1pleas	acq_US_pleas_nomask	acq1_nomask	1	21	0	0	300	300	0	0	584	50	1	0	freundlich	schön	spielen	treu	fair	schlau	fanatisch	schlecht	strafen	tot	faul	schroff	lachen	retten	helfen	tolerant	loyal	ehrlich	leiden	rächen	hindern	tyrannisch	lasch	eitel	1	blank2r.bmp	0	1	+	0	1	blank2r.bmp	500	1	BMVZ	500	1	blank2r.bmp	880	5	fair	880	0	0	0	0	0	0	0	0	0	0	0	0
2024-05-28	11:28:29	11:31:00	150785	6.6.1	4_exp_EVA_AWA_CON	54	B	A	Rpleas_acq	Oppo	Rpleas	1pleas	acq_US_unple_nomask	acq1_nomask	1	22	0	0	300	300	0	0	1153	46	1	0	freundlich	schön	spielen	treu	fair	schlau	fanatisch	schlecht	strafen	tot	faul	schroff	lachen	retten	helfen	tolerant	loyal	ehrlich	leiden	rächen	hindern	tyrannisch	lasch	eitel	1	blank2r.bmp	0	1	+	0	1	blank2r.bmp	500	1	GKQX	500	1	blank2r.bmp	880	1	fanatisch	880	0	0	0	0	0	0	0	0	0	0	0	0
2024-05-28	11:28:29	11:31:03	153906	6.6.1	4_exp_EVA_AWA_CON	54	B	A	Rpleas_acq	Oppo	Rpleas	1pleas	acq_new_unple_nomask	acq1_nomask	1	23	0	0	300	300	0	0	1631	46	1	0	freundlich	schön	spielen	treu	fair	schlau	fanatisch	schlecht	strafen	tot	faul	schroff	lachen	retten	helfen	tolerant	loyal	ehrlich	leiden	rächen	hindern	tyrannisch	lasch	eitel	1	blank2r.bmp	0	1	+	0	1	blank2r.bmp	500	5	C1r.bmp	500	1	blank2r.bmp	880	5	lasch	880	0	0	0	0	0	0	0	0	0	0	0	0
2024-05-28	11:28:29	11:31:05	156049	6.6.1	4_exp_EVA_AWA_CON	54	B	A	Rpleas_acq	Oppo	Rpleas	1pleas	acq_US_unple_nomask	acq1_nomask	1	24	0	0	300	300	0	0	663	46	1	0	freundlich	schön	spielen	treu	fair	schlau	fanatisch	schlecht	strafen	tot	faul	schroff	lachen	retten	helfen	tolerant	loyal	ehrlich	leiden	rächen	hindern	tyrannisch	lasch	eitel	1	blank2r.bmp	0	1	+	0	1	blank2r.bmp	500	1	GKQX	500	1	blank2r.bmp	880	4	tot	880	0	0	0	0	0	0	0	0	0	0	0	0
2024-05-28	11:28:29	11:31:08	158418	6.6.1	4_exp_EVA_AWA_CON	54	B	A	Rpleas_acq	Oppo	Rpleas	1pleas	acq_new_pleas_nomask	acq1_nomask	1	25	0	0	300	300	0	0	880	50	1	0	freundlich	schön	spielen	treu	fair	schlau	fanatisch	schlecht	strafen	tot	faul	schroff	lachen	retten	helfen	tolerant	loyal	ehrlich	leiden	rächen	hindern	tyrannisch	lasch	eitel	1	blank2r.bmp	0	1	+	0	1	blank2r.bmp	500	7	C3r.bmp	500	1	blank2r.bmp	880	4	tolerant	880	0	0	0	0	0	0	0	0	0	0	0	0
2024-05-28	11:28:29	11:31:10	160554	6.6.1	4_exp_EVA_AWA_CON	54	B	A	Rpleas_acq	Oppo	Rpleas	1pleas	acq_new_pleas_nomask	acq1_nomask	1	26	0	0	300	300	0	0	655	50	1	0	freundlich	schön	spielen	treu	fair	schlau	fanatisch	schlecht	strafen	tot	faul	schroff	lachen	retten	helfen	tolerant	loyal	ehrlich	leiden	rächen	hindern	tyrannisch	lasch	eitel	1	blank2r.bmp	0	1	+	0	1	blank2r.bmp	500	4	B4r.bmp	500	1	blank2r.bmp	880	6	ehrlich	880	0	0	0	0	0	0	0	0	0	0	0	0
2024-05-28	11:28:29	11:31:12	162593	6.6.1	4_exp_EVA_AWA_CON	54	B	A	Rpleas_acq	Oppo	Rpleas	1pleas	acq_US_pleas_nomask	acq1_nomask	1	27	0	0	300	300	0	0	553	50	1	0	freundlich	schön	spielen	treu	fair	schlau	fanatisch	schlecht	strafen	tot	faul	schroff	lachen	retten	helfen	tolerant	loyal	ehrlich	leiden	rächen	hindern	tyrannisch	lasch	eitel	1	blank2r.bmp	0	1	+	0	1	blank2r.bmp	500	1	BMVZ	500	1	blank2r.bmp	880	2	schön	880	0	0	0	0	0	0	0	0	0	0	0	0
2024-05-28	11:28:29	11:31:14	165201	6.6.1	4_exp_EVA_AWA_CON	54	B	A	Rpleas_acq	Oppo	Rpleas	1pleas	acq_new_unple_nomask	acq1_nomask	1	28	0	0	300	300	0	0	1119	46	1	0	freundlich	schön	spielen	treu	fair	schlau	fanatisch	schlecht	strafen	tot	faul	schroff	lachen	retten	helfen	tolerant	loyal	ehrlich	leiden	rächen	hindern	tyrannisch	lasch	eitel	1	blank2r.bmp	0	1	+	0	1	blank2r.bmp	500	8	C4r.bmp	500	1	blank2r.bmp	880	6	eitel	880	0	0	0	0	0	0	0	0	0	0	0	0
2024-05-28	11:28:29	11:31:17	167257	6.6.1	4_exp_EVA_AWA_CON	54	B	A	Rpleas_acq	Oppo	Rpleas	1pleas	acq_US_pleas_nomask	acq1_nomask	1	29	0	0	300	300	0	0	574	50	1	0	freundlich	schön	spielen	treu	fair	schlau	fanatisch	schlecht	strafen	tot	faul	schroff	lachen	retten	helfen	tolerant	loyal	ehrlich	leiden	rächen	hindern	tyrannisch	lasch	eitel	1	blank2r.bmp	0	1	+	0	1	blank2r.bmp	500	1	BMVZ	500	1	blank2r.bmp	880	1	freundlich	880	0	0	0	0	0	0	0	0	0	0	0	0
2024-05-28	11:28:29	11:31:19	169393	6.6.1	4_exp_EVA_AWA_CON	54	B	A	Rpleas_acq	Oppo	Rpleas	1pleas	acq_US_unple_nomask	acq1_nomask	1	30	0	0	300	300	0	0	648	46	1	0	freundlich	schön	spielen	treu	fair	schlau	fanatisch	schlecht	strafen	tot	faul	schroff	lachen	retten	helfen	tolerant	loyal	ehrlich	leiden	rächen	hindern	tyrannisch	lasch	eitel	1	blank2r.bmp	0	1	+	0	1	blank2r.bmp	500	1	GKQX	500	1	blank2r.bmp	880	3	strafen	880	0	0	0	0	0	0	0	0	0	0	0	0
2024-05-28	11:28:29	11:31:21	171682	6.6.1	4_exp_EVA_AWA_CON	54	B	A	Rpleas_acq	Oppo	Rpleas	1pleas	acq_new_unple_nomask	acq1_nomask	1	31	0	0	300	300	0	0	806	46	1	0	freundlich	schön	spielen	treu	fair	schlau	fanatisch	schlecht	strafen	tot	faul	schroff	lachen	retten	helfen	tolerant	loyal	ehrlich	leiden	rächen	hindern	tyrannisch	lasch	eitel	1	blank2r.bmp	0	1	+	0	1	blank2r.bmp	500	2	B2r.bmp	500	1	blank2r.bmp	880	3	hindern	880	0	0	0	0	0	0	0	0	0	0	0	0
2024-05-28	11:28:29	11:31:23	173761	6.6.1	4_exp_EVA_AWA_CON	54	B	A	Rpleas_acq	Oppo	Rpleas	1pleas	acq_new_pleas_nomask	acq1_nomask	1	32	0	0	300	300	0	0	593	50	1	0	freundlich	schön	spielen	treu	fair	schlau	fanatisch	schlecht	strafen	tot	faul	schroff	lachen	retten	helfen	tolerant	loyal	ehrlich	leiden	rächen	hindern	tyrannisch	lasch	eitel	1	blank2r.bmp	0	1	+	0	1	blank2r.bmp	500	7	C3r.bmp	500	1	blank2r.bmp	880	3	helfen	880	0	0	0	0	0	0	0	0	0	0	0	0
2024-05-28	11:28:29	11:31:25	175913	6.6.1	4_exp_EVA_AWA_CON	54	B	A	Rpleas_acq	Oppo	Rpleas	1pleas	acq_US_unple_nomask	acq1_nomask	1	33	0	0	300	300	0	0	664	46	1	0	freundlich	schön	spielen	treu	fair	schlau	fanatisch	schlecht	strafen	tot	faul	schroff	lachen	retten	helfen	tolerant	loyal	ehrlich	leiden	rächen	hindern	tyrannisch	lasch	eitel	1	blank2r.bmp	0	1	+	0	1	blank2r.bmp	500	1	GKQX	500	1	blank2r.bmp	880	1	fanatisch	880	0	0	0	0	0	0	0	0	0	0	0	0
2024-05-28	11:28:29	11:31:27	178089	6.6.1	4_exp_EVA_AWA_CON	54	B	A	Rpleas_acq	Oppo	Rpleas	1pleas	acq_new_unple_nomask	acq1_nomask	1	34	0	0	300	300	0	0	689	46	1	0	freundlich	schön	spielen	treu	fair	schlau	fanatisch	schlecht	strafen	tot	faul	schroff	lachen	retten	helfen	tolerant	loyal	ehrlich	leiden	rächen	hindern	tyrannisch	lasch	eitel	1	blank2r.bmp	0	1	+	0	1	blank2r.bmp	500	4	B4r.bmp	500	1	blank2r.bmp	880	5	lasch	880	0	0	0	0	0	0	0	0	0	0	0	0
2024-05-28	11:28:29	11:31:29	180113	6.6.1	4_exp_EVA_AWA_CON	54	B	A	Rpleas_acq	Oppo	Rpleas	1pleas	acq_US_unple_nomask	acq1_nomask	1	35	0	0	300	300	0	0	541	46	1	0	freundlich	schön	spielen	treu	fair	schlau	fanatisch	schlecht	strafen	tot	faul	schroff	lachen	retten	helfen	tolerant	loyal	ehrlich	leiden	rächen	hindern	tyrannisch	lasch	eitel	1	blank2r.bmp	0	1	+	0	1	blank2r.bmp	500	1	GKQX	500	1	blank2r.bmp	880	4	tot	880	0	0	0	0	0	0	0	0	0	0	0	0
2024-05-28	11:28:29	11:31:31	182025	6.6.1	4_exp_EVA_AWA_CON	54	B	A	Rpleas_acq	Oppo	Rpleas	1pleas	acq_US_pleas_nomask	acq1_nomask	1	36	0	0	300	300	0	0	422	50	1	0	freundlich	schön	spielen	treu	fair	schlau	fanatisch	schlecht	strafen	tot	faul	schroff	lachen	retten	helfen	tolerant	loyal	ehrlich	leiden	rächen	hindern	tyrannisch	lasch	eitel	1	blank2r.bmp	0	1	+	0	1	blank2r.bmp	500	1	BMVZ	500	1	blank2r.bmp	880	3	spielen	880	0	0	0	0	0	0	0	0	0	0	0	0
2024-05-28	11:28:29	11:32:02	213075	6.6.1	4_exp_EVA_AWA_CON	54	B	A	Rpleas_acq	Oppo	Rpleas	1pleas	acq_US_pleas_nomask	acq2_nomask	2	1	480	0	300	300	0	0	762	50	1	0	freundlich	schön	spielen	treu	fair	schlau	fanatisch	schlecht	strafen	tot	faul	schroff	lachen	retten	helfen	tolerant	loyal	ehrlich	leiden	rächen	hindern	tyrannisch	lasch	eitel	1	blank2r.bmp	0	1	+	0	1	blank2r.bmp	500	1	BMVZ	500	1	blank2r.bmp	880	4	treu	880	1	!	1312	1	!	-1	0	0	0	0	0	0
2024-05-28	11:28:29	11:32:05	215268	6.6.1	4_exp_EVA_AWA_CON	54	B	A	Rpleas_acq	Oppo	Rpleas	1pleas	acq_new_pleas_nomask	acq2_nomask	2	2	480	1	300	300	0	0	413	50	1	0	freundlich	schön	spielen	treu	fair	schlau	fanatisch	schlecht	strafen	tot	faul	schroff	lachen	retten	helfen	tolerant	loyal	ehrlich	leiden	rächen	hindern	tyrannisch	lasch	eitel	1	blank2r.bmp	0	1	+	0	1	blank2r.bmp	500	5	C1r.bmp	500	1	blank2r.bmp	880	1	lachen	880	1	!	1312	1	!	1313	0	0	0	0	0	0
2024-05-28	11:28:29	11:32:07	217459	6.6.1	4_exp_EVA_AWA_CON	54	B	A	Rpleas_acq	Oppo	Rpleas	1pleas	acq_US_pleas_nomask	acq2_nomask	2	3	480	1	300	300	0	0	413	50	1	0	freundlich	schön	spielen	treu	fair	schlau	fanatisch	schlecht	strafen	tot	faul	schroff	lachen	retten	helfen	tolerant	loyal	ehrlich	leiden	rächen	hindern	tyrannisch	lasch	eitel	1	blank2r.bmp	0	1	+	0	1	blank2r.bmp	500	1	BMVZ	500	1	blank2r.bmp	880	5	fair	880	1	!	1312	1	!	1313	0	0	0	0	0	0
2024-05-28	11:28:29	11:32:09	219635	6.6.1	4_exp_EVA_AWA_CON	54	B	A	Rpleas_acq	Oppo	Rpleas	1pleas	acq_US_unple_nomask	acq2_nomask	2	4	480	0	300	300	0	0	398	46	1	0	freundlich	schön	spielen	treu	fair	schlau	fanatisch	schlecht	strafen	tot	faul	schroff	lachen	retten	helfen	tolerant	loyal	ehrlich	leiden	rächen	hindern	tyrannisch	lasch	eitel	1	blank2r.bmp	0	1	+	0	1	blank2r.bmp	500	1	GKQX	500	1	blank2r.bmp	880	5	faul	880	1	!	-1	1	!	-1	0	0	0	0	0	0
2024-05-28	11:28:29	11:32:11	221811	6.6.1	4_exp_EVA_AWA_CON	54	B	A	Rpleas_acq	Oppo	Rpleas	1pleas	acq_new_pleas_nomask	acq2_nomask	2	5	480	0	300	300	0	0	402	50	1	0	freundlich	schön	spielen	treu	fair	schlau	fanatisch	schlecht	strafen	tot	faul	schroff	lachen	retten	helfen	tolerant	loyal	ehrlich	leiden	rächen	hindern	tyrannisch	lasch	eitel	1	blank2r.bmp	0	1	+	0	1	blank2r.bmp	500	2	B2r.bmp	500	1	blank2r.bmp	880	2	retten	880	1	!	-1	1	!	-1	0	0	0	0	0	0
2024-05-28	11:28:29	11:32:14	224251	6.6.1	4_exp_EVA_AWA_CON	54	B	A	Rpleas_acq	Oppo	Rpleas	1pleas	acq_US_unple_nomask	acq2_nomask	2	6	480	0	300	300	0	0	661	46	1	0	freundlich	schön	spielen	treu	fair	schlau	fanatisch	schlecht	strafen	tot	faul	schroff	lachen	retten	helfen	tolerant	loyal	ehrlich	leiden	rächen	hindern	tyrannisch	lasch	eitel	1	blank2r.bmp	0	1	+	0	1	blank2r.bmp	500	1	GKQX	500	1	blank2r.bmp	880	2	schlecht	880	1	!	1313	1	!	-1	0	0	0	0	0	0
2024-05-28	11:28:29	11:32:16	226267	6.6.1	4_exp_EVA_AWA_CON	54	B	A	Rpleas_acq	Oppo	Rpleas	1pleas	acq_new_pleas_nomask	acq2_nomask	2	7	480	0	300	300	0	0	235	50	1	0	freundlich	schön	spielen	treu	fair	schlau	fanatisch	schlecht	strafen	tot	faul	schroff	lachen	retten	helfen	tolerant	loyal	ehrlich	leiden	rächen	hindern	tyrannisch	lasch	eitel	1	blank2r.bmp	0	1	+	0	1	blank2r.bmp	500	8	C4r.bmp	500	1	blank2r.bmp	880	5	loyal	880	1	!	-1	1	!	-1	0	0	0	0	0	0
2024-05-28	11:28:29	11:32:18	228590	6.6.1	4_exp_EVA_AWA_CON	54	B	A	Rpleas_acq	Oppo	Rpleas	1pleas	acq_US_pleas_nomask	acq2_nomask	2	8	480	0	300	300	0	0	344	46	0	0	freundlich	schön	spielen	treu	fair	schlau	fanatisch	schlecht	strafen	tot	faul	schroff	lachen	retten	helfen	tolerant	loyal	ehrlich	leiden	rächen	hindern	tyrannisch	lasch	eitel	1	blank2r.bmp	0	1	+	0	1	blank2r.bmp	500	1	BMVZ	500	1	blank2r.bmp	880	6	schlau	880	1	FEHLER	1537	1	!	-1	1	!	-1	0	0	0
2024-05-28	11:28:29	11:32:20	230685	6.6.1	4_exp_EVA_AWA_CON	54	B	A	Rpleas_acq	Oppo	Rpleas	1pleas	acq_new_unple_nomask	acq2_nomask	2	9	480	1	300	300	0	0	518	46	1	0	freundlich	schön	spielen	treu	fair	schlau	fanatisch	schlecht	strafen	tot	faul	schroff	lachen	retten	helfen	tolerant	loyal	ehrlich	leiden	rächen	hindern	tyrannisch	lasch	eitel	1	blank2r.bmp	0	1	+	0	1	blank2r.bmp	500	1	B1r.bmp	500	1	blank2r.bmp	880	1	leiden	880	1	!	1313	1	!	1420	0	0	0	0	0	0
2024-05-28	11:28:29	11:32:22	233139	6.6.1	4_exp_EVA_AWA_CON	54	B	A	Rpleas_acq	Oppo	Rpleas	1pleas	acq_new_unple_nomask	acq2_nomask	2	10	480	0	300	300	0	0	673	46	1	0	freundlich	schön	spielen	treu	fair	schlau	fanatisch	schlecht	strafen	tot	faul	schroff	lachen	retten	helfen	tolerant	loyal	ehrlich	leiden	rächen	hindern	tyrannisch	lasch	eitel	1	blank2r.bmp	0	1	+	0	1	blank2r.bmp	500	3	B3r.bmp	500	1	blank2r.bmp	880	2	rächen	880	1	!	1312	1	!	-1	0	0	0	0	0	0
2024-05-28	11:28:29	11:32:25	235574	6.6.1	4_exp_EVA_AWA_CON	54	B	A	Rpleas_acq	Oppo	Rpleas	1pleas	acq_US_unple_nomask	acq2_nomask	2	11	480	1	300	300	0	0	453	50	0	0	freundlich	schön	spielen	treu	fair	schlau	fanatisch	schlecht	strafen	tot	faul	schroff	lachen	retten	helfen	tolerant	loyal	ehrlich	leiden	rächen	hindern	tyrannisch	lasch	eitel	1	blank2r.bmp	0	1	+	0	1	blank2r.bmp	500	1	GKQX	500	1	blank2r.bmp	880	6	schroff	880	1	FEHLER	1647	1	!	1312	1	!	1355	0	0	0
2024-05-28	11:28:29	11:32:27	237791	6.6.1	4_exp_EVA_AWA_CON	54	B	A	Rpleas_acq	Oppo	Rpleas	1pleas	acq_new_unple_nomask	acq2_nomask	2	12	480	1	300	300	0	0	438	50	0	0	freundlich	schön	spielen	treu	fair	schlau	fanatisch	schlecht	strafen	tot	faul	schroff	lachen	retten	helfen	tolerant	loyal	ehrlich	leiden	rächen	hindern	tyrannisch	lasch	eitel	1	blank2r.bmp	0	1	+	0	1	blank2r.bmp	500	6	C2r.bmp	500	1	blank2r.bmp	880	4	tyrannisch	880	1	FEHLER	1632	1	!	1313	1	!	1339	0	0	0
2024-05-28	11:28:29	11:32:29	239821	6.6.1	4_exp_EVA_AWA_CON	54	B	A	Rpleas_acq	Oppo	Rpleas	1pleas	acq_US_unple_nomask	acq2_nomask	2	13	480	1	300	300	0	0	448	46	1	0	freundlich	schön	spielen	treu	fair	schlau	fanatisch	schlecht	strafen	tot	faul	schroff	lachen	retten	helfen	tolerant	loyal	ehrlich	leiden	rächen	hindern	tyrannisch	lasch	eitel	1	blank2r.bmp	0	1	+	0	1	blank2r.bmp	500	1	GKQX	500	1	blank2r.bmp	880	5	faul	880	1	!	1312	1	!	1350	0	0	0	0	0	0
2024-05-28	11:28:29	11:32:31	241947	6.6.1	4_exp_EVA_AWA_CON	54	B	A	Rpleas_acq	Oppo	Rpleas	1pleas	acq_new_pleas_nomask	acq2_nomask	2	14	480	0	300	300	0	0	345	50	1	0	freundlich	schön	spielen	treu	fair	schlau	fanatisch	schlecht	strafen	tot	faul	schroff	lachen	retten	helfen	tolerant	loyal	ehrlich	leiden	rächen	hindern	tyrannisch	lasch	eitel	1	blank2r.bmp	0	1	+	0	1	blank2r.bmp	500	8	C4r.bmp	500	1	blank2r.bmp	880	1	lachen	880	1	!	-1	1	!	-1	0	0	0	0	0	0
2024-05-28	11:28:29	11:32:34	244269	6.6.1	4_exp_EVA_AWA_CON	54	B	A	Rpleas_acq	Oppo	Rpleas	1pleas	acq_new_unple_nomask	acq2_nomask	2	15	480	1	300	300	0	0	544	46	1	0	freundlich	schön	spielen	treu	fair	schlau	fanatisch	schlecht	strafen	tot	faul	schroff	lachen	retten	helfen	tolerant	loyal	ehrlich	leiden	rächen	hindern	tyrannisch	lasch	eitel	1	blank2r.bmp	0	1	+	0	1	blank2r.bmp	500	2	B2r.bmp	500	1	blank2r.bmp	880	4	tyrannisch	880	1	!	1312	1	!	1445	0	0	0	0	0	0
2024-05-28	11:28:29	11:32:36	246683	6.6.1	4_exp_EVA_AWA_CON	54	B	A	Rpleas_acq	Oppo	Rpleas	1pleas	acq_US_pleas_nomask	acq2_nomask	2	16	480	0	300	300	0	0	638	50	1	0	freundlich	schön	spielen	treu	fair	schlau	fanatisch	schlecht	strafen	tot	faul	schroff	lachen	retten	helfen	tolerant	loyal	ehrlich	leiden	rächen	hindern	tyrannisch	lasch	eitel	1	blank2r.bmp	0	1	+	0	1	blank2r.bmp	500	1	BMVZ	500	1	blank2r.bmp	880	1	freundlich	880	1	!	1312	1	!	-1	0	0	0	0	0	0
2024-05-28	11:28:29	11:32:38	248893	6.6.1	4_exp_EVA_AWA_CON	54	B	A	Rpleas_acq	Oppo	Rpleas	1pleas	acq_US_pleas_nomask	acq2_nomask	2	17	480	1	300	300	0	0	435	50	1	0	freundlich	schön	spielen	treu	fair	schlau	fanatisch	schlecht	strafen	tot	faul	schroff	lachen	retten	helfen	tolerant	loyal	ehrlich	leiden	rächen	hindern	tyrannisch	lasch	eitel	1	blank2r.bmp	0	1	+	0	1	blank2r.bmp	500	1	BMVZ	500	1	blank2r.bmp	880	2	schön	880	1	!	1312	1	!	1336	0	0	0	0	0	0
2024-05-28	11:28:29	11:32:40	251027	6.6.1	4_exp_EVA_AWA_CON	54	B	A	Rpleas_acq	Oppo	Rpleas	1pleas	acq_new_unple_nomask	acq2_nomask	2	18	480	0	300	300	0	0	359	46	1	0	freundlich	schön	spielen	treu	fair	schlau	fanatisch	schlecht	strafen	tot	faul	schroff	lachen	retten	helfen	tolerant	loyal	ehrlich	leiden	rächen	hindern	tyrannisch	lasch	eitel	1	blank2r.bmp	0	1	+	0	1	blank2r.bmp	500	7	C3r.bmp	500	1	blank2r.bmp	880	5	lasch	880	1	!	-1	1	!	-1	0	0	0	0	0	0
2024-05-28	11:28:29	11:32:42	253203	6.6.1	4_exp_EVA_AWA_CON	54	B	A	Rpleas_acq	Oppo	Rpleas	1pleas	acq_US_pleas_nomask	acq2_nomask	2	19	480	0	300	300	0	0	404	50	1	0	freundlich	schön	spielen	treu	fair	schlau	fanatisch	schlecht	strafen	tot	faul	schroff	lachen	retten	helfen	tolerant	loyal	ehrlich	leiden	rächen	hindern	tyrannisch	lasch	eitel	1	blank2r.bmp	0	1	+	0	1	blank2r.bmp	500	1	BMVZ	500	1	blank2r.bmp	880	4	treu	880	1	!	-1	1	!	-1	0	0	0	0	0	0
2024-05-28	11:28:29	11:32:45	255723	6.6.1	4_exp_EVA_AWA_CON	54	B	A	Rpleas_acq	Oppo	Rpleas	1pleas	acq_new_unple_nomask	acq2_nomask	2	20	480	0	300	300	0	0	742	46	1	0	freundlich	schön	spielen	treu	fair	schlau	fanatisch	schlecht	strafen	tot	faul	schroff	lachen	retten	helfen	tolerant	loyal	ehrlich	leiden	rächen	hindern	tyrannisch	lasch	eitel	1	blank2r.bmp	0	1	+	0	1	blank2r.bmp	500	1	B1r.bmp	500	1	blank2r.bmp	880	6	eitel	880	1	!	1313	1	!	-1	0	0	0	0	0	0
2024-05-28	11:28:29	11:32:47	257859	6.6.1	4_exp_EVA_AWA_CON	54	B	A	Rpleas_acq	Oppo	Rpleas	1pleas	acq_new_pleas_nomask	acq2_nomask	2	21	480	0	300	300	0	0	357	50	1	0	freundlich	schön	spielen	treu	fair	schlau	fanatisch	schlecht	strafen	tot	faul	schroff	lachen	retten	helfen	tolerant	loyal	ehrlich	leiden	rächen	hindern	tyrannisch	lasch	eitel	1	blank2r.bmp	0	1	+	0	1	blank2r.bmp	500	3	B3r.bmp	500	1	blank2r.bmp	880	4	tolerant	880	1	!	-1	1	!	-1	0	0	0	0	0	0
2024-05-28	11:28:29	11:32:49	260117	6.6.1	4_exp_EVA_AWA_CON	54	B	A	Rpleas_acq	Oppo	Rpleas	1pleas	acq_US_unple_nomask	acq2_nomask	2	22	480	1	300	300	0	0	481	46	1	0	freundlich	schön	spielen	treu	fair	schlau	fanatisch	schlecht	strafen	tot	faul	schroff	lachen	retten	helfen	tolerant	loyal	ehrlich	leiden	rächen	hindern	tyrannisch	lasch	eitel	1	blank2r.bmp	0	1	+	0	1	blank2r.bmp	500	1	GKQX	500	1	blank2r.bmp	880	4	tot	880	1	!	1313	1	!	1382	0	0	0	0	0	0
2024-05-28	11:28:29	11:32:52	262614	6.6.1	4_exp_EVA_AWA_CON	54	B	A	Rpleas_acq	Oppo	Rpleas	1pleas	acq_US_unple_nomask	acq2_nomask	2	23	480	1	300	300	0	0	516	50	0	0	freundlich	schön	spielen	treu	fair	schlau	fanatisch	schlecht	strafen	tot	faul	schroff	lachen	retten	helfen	tolerant	loyal	ehrlich	leiden	rächen	hindern	tyrannisch	lasch	eitel	1	blank2r.bmp	0	1	+	0	1	blank2r.bmp	500	1	GKQX	500	1	blank2r.bmp	880	3	strafen	880	1	FEHLER	1709	1	!	1313	1	!	1417	0	0	0
2024-05-28	11:28:29	11:32:54	264963	6.6.1	4_exp_EVA_AWA_CON	54	B	A	Rpleas_acq	Oppo	Rpleas	1pleas	acq_new_pleas_nomask	acq2_nomask	2	24	480	0	300	300	0	0	776	50	1	0	freundlich	schön	spielen	treu	fair	schlau	fanatisch	schlecht	strafen	tot	faul	schroff	lachen	retten	helfen	tolerant	loyal	ehrlich	leiden	rächen	hindern	tyrannisch	lasch	eitel	1	blank2r.bmp	0	1	+	0	1	blank2r.bmp	500	5	C1r.bmp	500	1	blank2r.bmp	880	3	helfen	880	1	!	1313	1	!	-1	0	0	0	0	0	0
2024-05-28	11:28:29	11:32:56	267107	6.6.1	4_exp_EVA_AWA_CON	54	B	A	Rpleas_acq	Oppo	Rpleas	1pleas	acq_US_pleas_nomask	acq2_nomask	2	25	480	0	300	300	0	0	369	50	1	0	freundlich	schön	spielen	treu	fair	schlau	fanatisch	schlecht	strafen	tot	faul	schroff	lachen	retten	helfen	tolerant	loyal	ehrlich	leiden	rächen	hindern	tyrannisch	lasch	eitel	1	blank2r.bmp	0	1	+	0	1	blank2r.bmp	500	1	BMVZ	500	1	blank2r.bmp	880	6	schlau	880	1	!	-1	1	!	-1	0	0	0	0	0	0
2024-05-28	11:28:29	11:32:59	269275	6.6.1	4_exp_EVA_AWA_CON	54	B	A	Rpleas_acq	Oppo	Rpleas	1pleas	acq_new_pleas_nomask	acq2_nomask	2	26	480	0	300	300	0	0	395	50	1	0	freundlich	schön	spielen	treu	fair	schlau	fanatisch	schlecht	strafen	tot	faul	schroff	lachen	retten	helfen	tolerant	loyal	ehrlich	leiden	rächen	hindern	tyrannisch	lasch	eitel	1	blank2r.bmp	0	1	+	0	1	blank2r.bmp	500	4	B4r.bmp	500	1	blank2r.bmp	880	2	retten	880	1	!	-1	1	!	-1	0	0	0	0	0	0
2024-05-28	11:28:29	11:33:01	271766	6.6.1	4_exp_EVA_AWA_CON	54	B	A	Rpleas_acq	Oppo	Rpleas	1pleas	acq_new_unple_nomask	acq2_nomask	2	27	480	1	300	300	0	0	512	50	0	0	freundlich	schön	spielen	treu	fair	schlau	fanatisch	schlecht	strafen	tot	faul	schroff	lachen	retten	helfen	tolerant	loyal	ehrlich	leiden	rächen	hindern	tyrannisch	lasch	eitel	1	blank2r.bmp	0	1	+	0	1	blank2r.bmp	500	6	C2r.bmp	500	1	blank2r.bmp	880	2	rächen	880	1	FEHLER	1705	1	!	1313	1	!	1413	0	0	0
2024-05-28	11:28:29	11:33:03	273797	6.6.1	4_exp_EVA_AWA_CON	54	B	A	Rpleas_acq	Oppo	Rpleas	1pleas	acq_US_pleas_nomask	acq2_nomask	2	28	480	1	300	300	0	0	452	50	1	0	freundlich	schön	spielen	treu	fair	schlau	fanatisch	schlecht	strafen	tot	faul	schroff	lachen	retten	helfen	tolerant	loyal	ehrlich	leiden	rächen	hindern	tyrannisch	lasch	eitel	1	blank2r.bmp	0	1	+	0	1	blank2r.bmp	500	1	BMVZ	500	1	blank2r.bmp	880	3	spielen	880	1	!	1313	1	!	1354	0	0	0	0	0	0
2024-05-28	11:28:29	11:33:05	275971	6.6.1	4_exp_EVA_AWA_CON	54	B	A	Rpleas_acq	Oppo	Rpleas	1pleas	acq_new_unple_nomask	acq2_nomask	2	29	480	0	300	300	0	0	397	46	1	0	freundlich	schön	spielen	treu	fair	schlau	fanatisch	schlecht	strafen	tot	faul	schroff	lachen	retten	helfen	tolerant	loyal	ehrlich	leiden	rächen	hindern	tyrannisch	lasch	eitel	1	blank2r.bmp	0	1	+	0	1	blank2r.bmp	500	4	B4r.bmp	500	1	blank2r.bmp	880	3	hindern	880	1	!	-1	1	!	-1	0	0	0	0	0	0
2024-05-28	11:28:29	11:33:08	278323	6.6.1	4_exp_EVA_AWA_CON	54	B	A	Rpleas_acq	Oppo	Rpleas	1pleas	acq_new_unple_nomask	acq2_nomask	2	30	480	0	300	300	0	0	577	46	1	0	freundlich	schön	spielen	treu	fair	schlau	fanatisch	schlecht	strafen	tot	faul	schroff	lachen	retten	helfen	tolerant	loyal	ehrlich	leiden	rächen	hindern	tyrannisch	lasch	eitel	1	blank2r.bmp	0	1	+	0	1	blank2r.bmp	500	6	C2r.bmp	500	1	blank2r.bmp	880	1	leiden	880	1	!	1312	1	!	-1	0	0	0	0	0	0
2024-05-28	11:28:29	11:33:10	280411	6.6.1	4_exp_EVA_AWA_CON	54	B	A	Rpleas_acq	Oppo	Rpleas	1pleas	acq_US_unple_nomask	acq2_nomask	2	31	480	0	300	300	0	0	314	46	1	0	freundlich	schön	spielen	treu	fair	schlau	fanatisch	schlecht	strafen	tot	faul	schroff	lachen	retten	helfen	tolerant	loyal	ehrlich	leiden	rächen	hindern	tyrannisch	lasch	eitel	1	blank2r.bmp	0	1	+	0	1	blank2r.bmp	500	1	GKQX	500	1	blank2r.bmp	880	2	schlecht	880	1	!	-1	1	!	-1	0	0	0	0	0	0
2024-05-28	11:28:29	11:33:12	283038	6.6.1	4_exp_EVA_AWA_CON	54	B	A	Rpleas_acq	Oppo	Rpleas	1pleas	acq_US_pleas_nomask	acq2_nomask	2	32	480	0	300	300	0	0	646	46	0	0	freundlich	schön	spielen	treu	fair	schlau	fanatisch	schlecht	strafen	tot	faul	schroff	lachen	retten	helfen	tolerant	loyal	ehrlich	leiden	rächen	hindern	tyrannisch	lasch	eitel	1	blank2r.bmp	0	1	+	0	1	blank2r.bmp	500	1	BMVZ	500	1	blank2r.bmp	880	5	fair	880	1	FEHLER	1840	1	!	1312	1	!	-1	0	0	0
2024-05-28	11:28:29	11:33:15	285310	6.6.1	4_exp_EVA_AWA_CON	54	B	A	Rpleas_acq	Oppo	Rpleas	1pleas	acq_US_unple_nomask	acq2_nomask	2	33	480	1	300	300	0	0	497	50	0	0	freundlich	schön	spielen	treu	fair	schlau	fanatisch	schlecht	strafen	tot	faul	schroff	lachen	retten	helfen	tolerant	loyal	ehrlich	leiden	rächen	hindern	tyrannisch	lasch	eitel	1	blank2r.bmp	0	1	+	0	1	blank2r.bmp	500	1	GKQX	500	1	blank2r.bmp	880	1	fanatisch	880	1	FEHLER	1690	1	!	1313	1	!	1398	0	0	0
2024-05-28	11:28:29	11:33:17	287703	6.6.1	4_exp_EVA_AWA_CON	54	B	A	Rpleas_acq	Oppo	Rpleas	1pleas	acq_US_unple_nomask	acq2_nomask	2	34	480	0	300	300	0	0	618	50	0	0	freundlich	schön	spielen	treu	fair	schlau	fanatisch	schlecht	strafen	tot	faul	schroff	lachen	retten	helfen	tolerant	loyal	ehrlich	leiden	rächen	hindern	tyrannisch	lasch	eitel	1	blank2r.bmp	0	1	+	0	1	blank2r.bmp	500	1	GKQX	500	1	blank2r.bmp	880	6	schroff	880	1	FEHLER	1811	1	!	1313	1	!	-1	0	0	0
2024-05-28	11:28:29	11:33:19	289891	6.6.1	4_exp_EVA_AWA_CON	54	B	A	Rpleas_acq	Oppo	Rpleas	1pleas	acq_new_pleas_nomask	acq2_nomask	2	35	480	0	300	300	0	0	618	50	1	0	freundlich	schön	spielen	treu	fair	schlau	fanatisch	schlecht	strafen	tot	faul	schroff	lachen	retten	helfen	tolerant	loyal	ehrlich	leiden	rächen	hindern	tyrannisch	lasch	eitel	1	blank2r.bmp	0	1	+	0	1	blank2r.bmp	500	1	B1r.bmp	500	1	blank2r.bmp	880	6	ehrlich	880	1	!	1313	1	!	-1	0	0	0	0	0	0
2024-05-28	11:28:29	11:33:21	292133	6.6.1	4_exp_EVA_AWA_CON	54	B	A	Rpleas_acq	Oppo	Rpleas	1pleas	acq_new_pleas_nomask	acq2_nomask	2	36	480	1	300	300	0	0	466	50	1	0	freundlich	schön	spielen	treu	fair	schlau	fanatisch	schlecht	strafen	tot	faul	schroff	lachen	retten	helfen	tolerant	loyal	ehrlich	leiden	rächen	hindern	tyrannisch	lasch	eitel	1	blank2r.bmp	0	1	+	0	1	blank2r.bmp	500	5	C1r.bmp	500	1	blank2r.bmp	880	5	loyal	880	1	!	1312	1	!	1368	0	0	0	0	0	0
2024-05-28	11:28:29	11:33:34	305019	6.6.1	4_exp_EVA_AWA_CON	54	B	A	Rpleas_acq	Oppo	Rpleas	1pleas	acq_US_pleas_nomask	acq3_nomask	3	1	453	0	300	300	0	0	276	50	1	0	freundlich	schön	spielen	treu	fair	schlau	fanatisch	schlecht	strafen	tot	faul	schroff	lachen	retten	helfen	tolerant	loyal	ehrlich	leiden	rächen	hindern	tyrannisch	lasch	eitel	1	blank2r.bmp	0	1	+	0	1	blank2r.bmp	500	1	BMVZ	500	1	blank2r.bmp	880	2	schön	880	1	!	-1	1	!	-1	0	0	0	0	0	0
2024-05-28	11:28:29	11:33:37	307269	6.6.1	4_exp_EVA_AWA_CON	54	B	A	Rpleas_acq	Oppo	Rpleas	1pleas	acq_US_unple_nomask	acq3_nomask	3	2	453	1	300	300	0	0	472	46	1	0	freundlich	schön	spielen	treu	fair	schlau	fanatisch	schlecht	strafen	tot	faul	schroff	lachen	retten	helfen	tolerant	loyal	ehrlich	leiden	rächen	hindern	tyrannisch	lasch	eitel	1	blank2r.bmp	0	1	+	0	1	blank2r.bmp	500	1	GKQX	500	1	blank2r.bmp	880	2	schlecht	880	1	!	1292	1	!	1374	0	0	0	0	0	0
2024-05-28	11:28:29	11:33:39	309750	6.6.1	4_exp_EVA_AWA_CON	54	B	A	Rpleas_acq	Oppo	Rpleas	1pleas	acq_US_unple_nomask	acq3_nomask	3	3	453	1	300	300	0	0	501	50	0	0	freundlich	schön	spielen	treu	fair	schlau	fanatisch	schlecht	strafen	tot	faul	schroff	lachen	retten	helfen	tolerant	loyal	ehrlich	leiden	rächen	hindern	tyrannisch	lasch	eitel	1	blank2r.bmp	0	1	+	0	1	blank2r.bmp	500	1	GKQX	500	1	blank2r.bmp	880	6	schroff	880	1	FEHLER	1694	1	!	1292	1	!	1402	0	0	0
2024-05-28	11:28:29	11:33:41	311939	6.6.1	4_exp_EVA_AWA_CON	54	B	A	Rpleas_acq	Oppo	Rpleas	1pleas	acq_US_pleas_nomask	acq3_nomask	3	4	453	0	300	300	0	0	612	50	1	0	freundlich	schön	spielen	treu	fair	schlau	fanatisch	schlecht	strafen	tot	faul	schroff	lachen	retten	helfen	tolerant	loyal	ehrlich	leiden	rächen	hindern	tyrannisch	lasch	eitel	1	blank2r.bmp	0	1	+	0	1	blank2r.bmp	500	1	BMVZ	500	1	blank2r.bmp	880	1	freundlich	880	1	!	1292	1	!	-1	0	0	0	0	0	0
2024-05-28	11:28:29	11:33:44	314406	6.6.1	4_exp_EVA_AWA_CON	54	B	A	Rpleas_acq	Oppo	Rpleas	1pleas	acq_US_unple_nomask	acq3_nomask	3	5	453	1	300	300	0	0	484	50	0	0	freundlich	schön	spielen	treu	fair	schlau	fanatisch	schlecht	strafen	tot	faul	schroff	lachen	retten	helfen	tolerant	loyal	ehrlich	leiden	rächen	hindern	tyrannisch	lasch	eitel	1	blank2r.bmp	0	1	+	0	1	blank2r.bmp	500	1	GKQX	500	1	blank2r.bmp	880	1	fanatisch	880	1	FEHLER	1677	1	!	1292	1	!	1385	0	0	0
2024-05-28	11:28:29	11:33:46	316627	6.6.1	4_exp_EVA_AWA_CON	54	B	A	Rpleas_acq	Oppo	Rpleas	1pleas	acq_US_pleas_nomask	acq3_nomask	3	6	453	0	300	300	0	0	647	50	1	0	freundlich	schön	spielen	treu	fair	schlau	fanatisch	schlecht	strafen	tot	faul	schroff	lachen	retten	helfen	tolerant	loyal	ehrlich	leiden	rächen	hindern	tyrannisch	lasch	eitel	1	blank2r.bmp	0	1	+	0	1	blank2r.bmp	500	1	BMVZ	500	1	blank2r.bmp	880	3	spielen	880	1	!	1292	1	!	-1	0	0	0	0	0	0
2024-05-28	11:28:29	11:33:48	319027	6.6.1	4_exp_EVA_AWA_CON	54	B	A	Rpleas_acq	Oppo	Rpleas	1pleas	acq_US_pleas_nomask	acq3_nomask	3	7	453	0	300	300	0	0	625	50	1	0	freundlich	schön	spielen	treu	fair	schlau	fanatisch	schlecht	strafen	tot	faul	schroff	lachen	retten	helfen	tolerant	loyal	ehrlich	leiden	rächen	hindern	tyrannisch	lasch	eitel	1	blank2r.bmp	0	1	+	0	1	blank2r.bmp	500	1	BMVZ	500	1	blank2r.bmp	880	5	fair	880	1	!	1292	1	!	-1	0	0	0	0	0	0
2024-05-28	11:28:29	11:33:51	321245	6.6.1	4_exp_EVA_AWA_CON	54	B	A	Rpleas_acq	Oppo	Rpleas	1pleas	acq_US_unple_nomask	acq3_nomask	3	8	453	1	300	300	0	0	439	46	1	0	freundlich	schön	spielen	treu	fair	schlau	fanatisch	schlecht	strafen	tot	faul	schroff	lachen	retten	helfen	tolerant	loyal	ehrlich	leiden	rächen	hindern	tyrannisch	lasch	eitel	1	blank2r.bmp	0	1	+	0	1	blank2r.bmp	500	1	GKQX	500	1	blank2r.bmp	880	4	tot	880	1	!	1293	1	!	1342	0	0	0	0	0	0
2024-05-28	11:28:29	11:33:53	323611	6.6.1	4_exp_EVA_AWA_CON	54	B	A	Rpleas_acq	Oppo	Rpleas	1pleas	acq_US_pleas_nomask	acq3_nomask	3	9	453	0	300	300	0	0	586	50	1	0	freundlich	schön	spielen	treu	fair	schlau	fanatisch	schlecht	strafen	tot	faul	schroff	lachen	retten	helfen	tolerant	loyal	ehrlich	leiden	rächen	hindern	tyrannisch	lasch	eitel	1	blank2r.bmp	0	1	+	0	1	blank2r.bmp	500	1	BMVZ	500	1	blank2r.bmp	880	6	schlau	880	1	!	1292	1	!	-1	0	0	0	0	0	0
2024-05-28	11:28:29	11:33:55	325981	6.6.1	4_exp_EVA_AWA_CON	54	B	A	Rpleas_acq	Oppo	Rpleas	1pleas	acq_US_pleas_nomask	acq3_nomask	3	10	453	1	300	300	0	0	393	46	0	0	freundlich	schön	spielen	treu	fair	schlau	fanatisch	schlecht	strafen	tot	faul	schroff	lachen	retten	helfen	tolerant	loyal	ehrlich	leiden	rächen	hindern	tyrannisch	lasch	eitel	1	blank2r.bmp	0	1	+	0	1	blank2r.bmp	500	1	BMVZ	500	1	blank2r.bmp	880	4	treu	880	1	FEHLER	1585	1	!	1292	1	!	1293	0	0	0
2024-05-28	11:28:29	11:33:57	327981	6.6.1	4_exp_EVA_AWA_CON	54	B	A	Rpleas_acq	Oppo	Rpleas	1pleas	acq_US_unple_nomask	acq3_nomask	3	11	453	1	300	300	0	0	421	46	1	0	freundlich	schön	spielen	treu	fair	schlau	fanatisch	schlecht	strafen	tot	faul	schroff	lachen	retten	helfen	tolerant	loyal	ehrlich	leiden	rächen	hindern	tyrannisch	lasch	eitel	1	blank2r.bmp	0	1	+	0	1	blank2r.bmp	500	1	GKQX	500	1	blank2r.bmp	880	3	strafen	880	1	!	1292	1	!	1322	0	0	0	0	0	0
2024-05-28	11:28:29	11:34:00	330294	6.6.1	4_exp_EVA_AWA_CON	54	B	A	Rpleas_acq	Oppo	Rpleas	1pleas	acq_US_unple_nomask	acq3_nomask	3	12	453	0	300	300	0	0	332	50	0	0	freundlich	schön	spielen	treu	fair	schlau	fanatisch	schlecht	strafen	tot	faul	schroff	lachen	retten	helfen	tolerant	loyal	ehrlich	leiden	rächen	hindern	tyrannisch	lasch	eitel	1	blank2r.bmp	0	1	+	0	1	blank2r.bmp	500	1	GKQX	500	1	blank2r.bmp	880	5	faul	880	1	FEHLER	1525	1	!	-1	1	!	-1	0	0	0
2024-05-28	11:28:29	11:34:02	332486	6.6.1	4_exp_EVA_AWA_CON	54	B	A	Rpleas_acq	Oppo	Rpleas	1pleas	acq_US_unple_nomask	acq3_nomask	3	13	453	1	300	300	0	0	412	50	0	0	freundlich	schön	spielen	treu	fair	schlau	fanatisch	schlecht	strafen	tot	faul	schroff	lachen	retten	helfen	tolerant	loyal	ehrlich	leiden	rächen	hindern	tyrannisch	lasch	eitel	1	blank2r.bmp	0	1	+	0	1	blank2r.bmp	500	1	GKQX	500	1	blank2r.bmp	880	2	schlecht	880	1	FEHLER	1606	1	!	1293	1	!	1314	0	0	0
2024-05-28	11:28:29	11:34:04	334476	6.6.1	4_exp_EVA_AWA_CON	54	B	A	Rpleas_acq	Oppo	Rpleas	1pleas	acq_US_pleas_nomask	acq3_nomask	3	14	453	1	300	300	0	0	413	50	1	0	freundlich	schön	spielen	treu	fair	schlau	fanatisch	schlecht	strafen	tot	faul	schroff	lachen	retten	helfen	tolerant	loyal	ehrlich	leiden	rächen	hindern	tyrannisch	lasch	eitel	1	blank2r.bmp	0	1	+	0	1	blank2r.bmp	500	1	BMVZ	500	1	blank2r.bmp	880	3	spielen	880	1	!	1292	1	!	1314	0	0	0	0	0	0
2024-05-28	11:28:29	11:34:06	336547	6.6.1	4_exp_EVA_AWA_CON	54	B	A	Rpleas_acq	Oppo	Rpleas	1pleas	acq_US_unple_nomask	acq3_nomask	3	15	453	0	300	300	0	0	293	46	1	0	freundlich	schön	spielen	treu	fair	schlau	fanatisch	schlecht	strafen	tot	faul	schroff	lachen	retten	helfen	tolerant	loyal	ehrlich	leiden	rächen	hindern	tyrannisch	lasch	eitel	1	blank2r.bmp	0	1	+	0	1	blank2r.bmp	500	1	GKQX	500	1	blank2r.bmp	880	3	strafen	880	1	!	-1	1	!	-1	0	0	0	0	0	0
2024-05-28	11:28:29	11:34:08	338916	6.6.1	4_exp_EVA_AWA_CON	54	B	A	Rpleas_acq	Oppo	Rpleas	1pleas	acq_US_pleas_nomask	acq3_nomask	3	16	453	0	300	300	0	0	590	50	1	0	freundlich	schön	spielen	treu	fair	schlau	fanatisch	schlecht	strafen	tot	faul	schroff	lachen	retten	helfen	tolerant	loyal	ehrlich	leiden	rächen	hindern	tyrannisch	lasch	eitel	1	blank2r.bmp	0	1	+	0	1	blank2r.bmp	500	1	BMVZ	500	1	blank2r.bmp	880	5	fair	880	1	!	1292	1	!	-1	0	0	0	0	0	0
2024-05-28	11:28:29	11:34:10	341059	6.6.1	4_exp_EVA_AWA_CON	54	B	A	Rpleas_acq	Oppo	Rpleas	1pleas	acq_US_pleas_nomask	acq3_nomask	3	17	453	0	300	300	0	0	363	50	1	0	freundlich	schön	spielen	treu	fair	schlau	fanatisch	schlecht	strafen	tot	faul	schroff	lachen	retten	helfen	tolerant	loyal	ehrlich	leiden	rächen	hindern	tyrannisch	lasch	eitel	1	blank2r.bmp	0	1	+	0	1	blank2r.bmp	500	1	BMVZ	500	1	blank2r.bmp	880	1	freundlich	880	1	!	-1	1	!	-1	0	0	0	0	0	0
2024-05-28	11:28:29	11:34:13	343358	6.6.1	4_exp_EVA_AWA_CON	54	B	A	Rpleas_acq	Oppo	Rpleas	1pleas	acq_US_unple_nomask	acq3_nomask	3	18	453	0	300	300	0	0	317	50	0	0	freundlich	schön	spielen	treu	fair	schlau	fanatisch	schlecht	strafen	tot	faul	schroff	lachen	retten	helfen	tolerant	loyal	ehrlich	leiden	rächen	hindern	tyrannisch	lasch	eitel	1	blank2r.bmp	0	1	+	0	1	blank2r.bmp	500	1	GKQX	500	1	blank2r.bmp	880	1	fanatisch	880	1	FEHLER	1510	1	!	-1	1	!	-1	0	0	0
2024-05-28	11:28:29	11:34:15	345357	6.6.1	4_exp_EVA_AWA_CON	54	B	A	Rpleas_acq	Oppo	Rpleas	1pleas	acq_US_pleas_nomask	acq3_nomask	3	19	453	1	300	300	0	0	426	50	1	0	freundlich	schön	spielen	treu	fair	schlau	fanatisch	schlecht	strafen	tot	faul	schroff	lachen	retten	helfen	tolerant	loyal	ehrlich	leiden	rächen	hindern	tyrannisch	lasch	eitel	1	blank2r.bmp	0	1	+	0	1	blank2r.bmp	500	1	BMVZ	500	1	blank2r.bmp	880	6	schlau	880	1	!	1293	1	!	1327	0	0	0	0	0	0
2024-05-28	11:28:29	11:34:17	347657	6.6.1	4_exp_EVA_AWA_CON	54	B	A	Rpleas_acq	Oppo	Rpleas	1pleas	acq_US_unple_nomask	acq3_nomask	3	20	453	0	300	300	0	0	528	46	1	0	freundlich	schön	spielen	treu	fair	schlau	fanatisch	schlecht	strafen	tot	faul	schroff	lachen	retten	helfen	tolerant	loyal	ehrlich	leiden	rächen	hindern	tyrannisch	lasch	eitel	1	blank2r.bmp	0	1	+	0	1	blank2r.bmp	500	1	GKQX	500	1	blank2r.bmp	880	6	schroff	880	1	!	1292	1	!	-1	0	0	0	0	0	0
2024-05-28	11:28:29	11:34:19	349860	6.6.1	4_exp_EVA_AWA_CON	54	B	A	Rpleas_acq	Oppo	Rpleas	1pleas	acq_US_pleas_nomask	acq3_nomask	3	21	453	1	300	300	0	0	427	50	1	0	freundlich	schön	spielen	treu	fair	schlau	fanatisch	schlecht	strafen	tot	faul	schroff	lachen	retten	helfen	tolerant	loyal	ehrlich	leiden	rächen	hindern	tyrannisch	lasch	eitel	1	blank2r.bmp	0	1	+	0	1	blank2r.bmp	500	1	BMVZ	500	1	blank2r.bmp	880	2	schön	880	1	!	1292	1	!	1328	0	0	0	0	0	0
2024-05-28	11:28:29	11:34:21	352116	6.6.1	4_exp_EVA_AWA_CON	54	B	A	Rpleas_acq	Oppo	Rpleas	1pleas	acq_US_pleas_nomask	acq3_nomask	3	22	453	1	300	300	0	0	481	50	1	0	freundlich	schön	spielen	treu	fair	schlau	fanatisch	schlecht	strafen	tot	faul	schroff	lachen	retten	helfen	tolerant	loyal	ehrlich	leiden	rächen	hindern	tyrannisch	lasch	eitel	1	blank2r.bmp	0	1	+	0	1	blank2r.bmp	500	1	BMVZ	500	1	blank2r.bmp	880	4	treu	880	1	!	1292	1	!	1382	0	0	0	0	0	0
2024-05-28	11:28:29	11:34:24	354406	6.6.1	4_exp_EVA_AWA_CON	54	B	A	Rpleas_acq	Oppo	Rpleas	1pleas	acq_US_unple_nomask	acq3_nomask	3	23	453	1	300	300	0	0	508	46	1	0	freundlich	schön	spielen	treu	fair	schlau	fanatisch	schlecht	strafen	tot	faul	schroff	lachen	retten	helfen	tolerant	loyal	ehrlich	leiden	rächen	hindern	tyrannisch	lasch	eitel	1	blank2r.bmp	0	1	+	0	1	blank2r.bmp	500	1	GKQX	500	1	blank2r.bmp	880	5	faul	880	1	!	1292	1	!	1410	0	0	0	0	0	0
2024-05-28	11:28:29	11:34:26	356678	6.6.1	4_exp_EVA_AWA_CON	54	B	A	Rpleas_acq	Oppo	Rpleas	1pleas	acq_US_unple_nomask	acq3_nomask	3	24	453	0	300	300	0	0	288	50	0	0	freundlich	schön	spielen	treu	fair	schlau	fanatisch	schlecht	strafen	tot	faul	schroff	lachen	retten	helfen	tolerant	loyal	ehrlich	leiden	rächen	hindern	tyrannisch	lasch	eitel	1	blank2r.bmp	0	1	+	0	1	blank2r.bmp	500	1	GKQX	500	1	blank2r.bmp	880	4	tot	880	1	FEHLER	1482	1	!	-1	1	!	-1	0	0	0
2024-05-28	11:28:29	11:34:28	358862	6.6.1	4_exp_EVA_AWA_CON	54	B	A	Rpleas_acq	Oppo	Rpleas	1pleas	acq_US_unple_nomask	acq3_nomask	3	25	453	1	300	300	0	0	411	50	0	0	freundlich	schön	spielen	treu	fair	schlau	fanatisch	schlecht	strafen	tot	faul	schroff	lachen	retten	helfen	tolerant	loyal	ehrlich	leiden	rächen	hindern	tyrannisch	lasch	eitel	1	blank2r.bmp	0	1	+	0	1	blank2r.bmp	500	1	GKQX	500	1	blank2r.bmp	880	1	fanatisch	880	1	FEHLER	1604	1	!	1293	1	!	1313	0	0	0
2024-05-28	11:28:29	11:34:30	360934	6.6.1	4_exp_EVA_AWA_CON	54	B	A	Rpleas_acq	Oppo	Rpleas	1pleas	acq_US_pleas_nomask	acq3_nomask	3	26	453	0	300	300	0	0	292	46	0	0	freundlich	schön	spielen	treu	fair	schlau	fanatisch	schlecht	strafen	tot	faul	schroff	lachen	retten	helfen	tolerant	loyal	ehrlich	leiden	rächen	hindern	tyrannisch	lasch	eitel	1	blank2r.bmp	0	1	+	0	1	blank2r.bmp	500	1	BMVZ	500	1	blank2r.bmp	880	5	fair	880	1	FEHLER	1485	1	!	-1	1	!	-1	0	0	0
2024-05-28	11:28:29	11:34:32	363013	6.6.1	4_exp_EVA_AWA_CON	54	B	A	Rpleas_acq	Oppo	Rpleas	1pleas	acq_US_unple_nomask	acq3_nomask	3	27	453	1	300	300	0	0	500	46	1	0	freundlich	schön	spielen	treu	fair	schlau	fanatisch	schlecht	strafen	tot	faul	schroff	lachen	retten	helfen	tolerant	loyal	ehrlich	leiden	rächen	hindern	tyrannisch	lasch	eitel	1	blank2r.bmp	0	1	+	0	1	blank2r.bmp	500	1	GKQX	500	1	blank2r.bmp	880	6	schroff	880	1	!	1292	1	!	1402	0	0	0	0	0	0
2024-05-28	11:28:29	11:34:35	365228	6.6.1	4_exp_EVA_AWA_CON	54	B	A	Rpleas_acq	Oppo	Rpleas	1pleas	acq_US_unple_nomask	acq3_nomask	3	28	453	1	300	300	0	0	435	46	1	0	freundlich	schön	spielen	treu	fair	schlau	fanatisch	schlecht	strafen	tot	faul	schroff	lachen	retten	helfen	tolerant	loyal	ehrlich	leiden	rächen	hindern	tyrannisch	lasch	eitel	1	blank2r.bmp	0	1	+	0	1	blank2r.bmp	500	1	GKQX	500	1	blank2r.bmp	880	2	schlecht	880	1	!	1292	1	!	1336	0	0	0	0	0	0
2024-05-28	11:28:29	11:34:37	367454	6.6.1	4_exp_EVA_AWA_CON	54	B	A	Rpleas_acq	Oppo	Rpleas	1pleas	acq_US_unple_nomask	acq3_nomask	3	29	453	0	300	300	0	0	247	50	0	0	freundlich	schön	spielen	treu	fair	schlau	fanatisch	schlecht	strafen	tot	faul	schroff	lachen	retten	helfen	tolerant	loyal	ehrlich	leiden	rächen	hindern	tyrannisch	lasch	eitel	1	blank2r.bmp	0	1	+	0	1	blank2r.bmp	500	1	GKQX	500	1	blank2r.bmp	880	3	strafen	880	1	FEHLER	1440	1	!	-1	1	!	-1	0	0	0
2024-05-28	11:28:29	11:34:39	369553	6.6.1	4_exp_EVA_AWA_CON	54	B	A	Rpleas_acq	Oppo	Rpleas	1pleas	acq_US_unple_nomask	acq3_nomask	3	30	453	0	300	300	0	0	530	46	1	0	freundlich	schön	spielen	treu	fair	schlau	fanatisch	schlecht	strafen	tot	faul	schroff	lachen	retten	helfen	tolerant	loyal	ehrlich	leiden	rächen	hindern	tyrannisch	lasch	eitel	1	blank2r.bmp	0	1	+	0	1	blank2r.bmp	500	1	GKQX	500	1	blank2r.bmp	880	5	faul	880	1	!	1292	1	!	-1	0	0	0	0	0	0
2024-05-28	11:28:29	11:34:41	371862	6.6.1	4_exp_EVA_AWA_CON	54	B	A	Rpleas_acq	Oppo	Rpleas	1pleas	acq_US_pleas_nomask	acq3_nomask	3	31	453	0	300	300	0	0	333	46	0	0	freundlich	schön	spielen	treu	fair	schlau	fanatisch	schlecht	strafen	tot	faul	schroff	lachen	retten	helfen	tolerant	loyal	ehrlich	leiden	rächen	hindern	tyrannisch	lasch	eitel	1	blank2r.bmp	0	1	+	0	1	blank2r.bmp	500	1	BMVZ	500	1	blank2r.bmp	880	1	freundlich	880	1	FEHLER	1526	1	!	-1	1	!	-1	0	0	0
2024-05-28	11:28:29	11:34:47	377483	6.6.1	4_exp_EVA_AWA_CON	54	B	A	Rpleas_acq	Oppo	Rpleas	1pleas	acq_US_pleas_nomask	acq3_nomask	3	32	453	0	300	300	0	0	4045	50	1	0	freundlich	schön	spielen	treu	fair	schlau	fanatisch	schlecht	strafen	tot	faul	schroff	lachen	retten	helfen	tolerant	loyal	ehrlich	leiden	rächen	hindern	tyrannisch	lasch	eitel	1	blank2r.bmp	0	1	+	0	1	blank2r.bmp	500	1	BMVZ	500	1	blank2r.bmp	880	4	treu	880	1	!	1293	1	!	-1	0	0	0	0	0	0
2024-05-28	11:28:29	11:34:49	379532	6.6.1	4_exp_EVA_AWA_CON	54	B	A	Rpleas_acq	Oppo	Rpleas	1pleas	acq_US_pleas_nomask	acq3_nomask	3	33	453	0	300	300	0	0	269	50	1	0	freundlich	schön	spielen	treu	fair	schlau	fanatisch	schlecht	strafen	tot	faul	schroff	lachen	retten	helfen	tolerant	loyal	ehrlich	leiden	rächen	hindern	tyrannisch	lasch	eitel	1	blank2r.bmp	0	1	+	0	1	blank2r.bmp	500	1	BMVZ	500	1	blank2r.bmp	880	3	spielen	880	1	!	-1	1	!	-1	0	0	0	0	0	0
2024-05-28	11:28:29	11:34:51	381595	6.6.1	4_exp_EVA_AWA_CON	54	B	A	Rpleas_acq	Oppo	Rpleas	1pleas	acq_US_pleas_nomask	acq3_nomask	3	34	453	0	300	300	0	0	282	50	1	0	freundlich	schön	spielen	treu	fair	schlau	fanatisch	schlecht	strafen	tot	faul	schroff	lachen	retten	helfen	tolerant	loyal	ehrlich	leiden	rächen	hindern	tyrannisch	lasch	eitel	1	blank2r.bmp	0	1	+	0	1	blank2r.bmp	500	1	BMVZ	500	1	blank2r.bmp	880	2	schön	880	1	!	-1	1	!	-1	0	0	0	0	0	0
2024-05-28	11:28:29	11:34:53	383747	6.6.1	4_exp_EVA_AWA_CON	54	B	A	Rpleas_acq	Oppo	Rpleas	1pleas	acq_US_unple_nomask	acq3_nomask	3	35	453	0	300	300	0	0	373	46	1	0	freundlich	schön	spielen	treu	fair	schlau	fanatisch	schlecht	strafen	tot	faul	schroff	lachen	retten	helfen	tolerant	loyal	ehrlich	leiden	rächen	hindern	tyrannisch	lasch	eitel	1	blank2r.bmp	0	1	+	0	1	blank2r.bmp	500	1	GKQX	500	1	blank2r.bmp	880	4	tot	880	1	!	-1	1	!	-1	0	0	0	0	0	0
2024-05-28	11:28:29	11:34:55	386005	6.6.1	4_exp_EVA_AWA_CON	54	B	A	Rpleas_acq	Oppo	Rpleas	1pleas	acq_US_pleas_nomask	acq3_nomask	3	36	453	1	300	300	0	0	477	50	1	0	freundlich	schön	spielen	treu	fair	schlau	fanatisch	schlecht	strafen	tot	faul	schroff	lachen	retten	helfen	tolerant	loyal	ehrlich	leiden	rächen	hindern	tyrannisch	lasch	eitel	1	blank2r.bmp	0	1	+	0	1	blank2r.bmp	500	1	BMVZ	500	1	blank2r.bmp	880	6	schlau	880	1	!	1293	1	!	1379	0	0	0	0	0	0
2024-05-28	11:28:29	11:35:15	405227	6.6.1	4_exp_EVA_AWA_CON	54	B	A	Rpleas_acq	Oppo	Rpleas	1pleas	acq_US_unple_nomask	acq45_nomask	4	1	400	0	300	300	0	0	499	46	1	0	freundlich	schön	spielen	treu	fair	schlau	fanatisch	schlecht	strafen	tot	faul	schroff	lachen	retten	helfen	tolerant	loyal	ehrlich	leiden	rächen	hindern	tyrannisch	lasch	eitel	1	blank2r.bmp	0	1	+	0	1	blank2r.bmp	500	1	GKQX	500	1	blank2r.bmp	880	4	tot	880	1	!	1232	1	!	-1	0	0	0	0	0	0
2024-05-28	11:28:29	11:35:16	407107	6.6.1	4_exp_EVA_AWA_CON	54	B	A	Rpleas_acq	Oppo	Rpleas	1pleas	acq_US_unple_nomask	acq45_nomask	4	2	400	0	300	300	0	0	107	46	1	0	freundlich	schön	spielen	treu	fair	schlau	fanatisch	schlecht	strafen	tot	faul	schroff	lachen	retten	helfen	tolerant	loyal	ehrlich	leiden	rächen	hindern	tyrannisch	lasch	eitel	1	blank2r.bmp	0	1	+	0	1	blank2r.bmp	500	1	GKQX	500	1	blank2r.bmp	880	5	faul	880	1	!	-1	1	!	-1	0	0	0	0	0	0
2024-05-28	11:28:29	11:35:22	412555	6.6.1	4_exp_EVA_AWA_CON	54	B	A	Rpleas_acq	Oppo	Rpleas	1pleas	acq_US_unple_nomask	acq45_nomask	4	3	400	0	300	300	0	0	3674	50	0	0	freundlich	schön	spielen	treu	fair	schlau	fanatisch	schlecht	strafen	tot	faul	schroff	lachen	retten	helfen	tolerant	loyal	ehrlich	leiden	rächen	hindern	tyrannisch	lasch	eitel	1	blank2r.bmp	0	1	+	0	1	blank2r.bmp	500	1	GKQX	500	1	blank2r.bmp	880	1	fanatisch	880	1	!	1232	1	!	-1	0	0	0	0	0	0
2024-05-28	11:28:29	11:35:24	414603	6.6.1	4_exp_EVA_AWA_CON	54	B	A	Rpleas_acq	Oppo	Rpleas	1pleas	acq_US_pleas_nomask	acq45_nomask	4	4	400	0	300	300	0	0	269	50	1	0	freundlich	schön	spielen	treu	fair	schlau	fanatisch	schlecht	strafen	tot	faul	schroff	lachen	retten	helfen	tolerant	loyal	ehrlich	leiden	rächen	hindern	tyrannisch	lasch	eitel	1	blank2r.bmp	0	1	+	0	1	blank2r.bmp	500	1	BMVZ	500	1	blank2r.bmp	880	1	freundlich	880	1	!	-1	1	!	-1	0	0	0	0	0	0
2024-05-28	11:28:29	11:35:29	419963	6.6.1	4_exp_EVA_AWA_CON	54	B	A	Rpleas_acq	Oppo	Rpleas	1pleas	acq_US_pleas_nomask	acq45_nomask	4	5	400	0	300	300	0	0	3587	50	1	0	freundlich	schön	spielen	treu	fair	schlau	fanatisch	schlecht	strafen	tot	faul	schroff	lachen	retten	helfen	tolerant	loyal	ehrlich	leiden	rächen	hindern	tyrannisch	lasch	eitel	1	blank2r.bmp	0	1	+	0	1	blank2r.bmp	500	1	BMVZ	500	1	blank2r.bmp	880	2	schön	880	1	!	1232	1	!	-1	0	0	0	0	0	0
2024-05-28	11:28:29	11:35:31	421987	6.6.1	4_exp_EVA_AWA_CON	54	B	A	Rpleas_acq	Oppo	Rpleas	1pleas	acq_US_pleas_nomask	acq45_nomask	4	6	400	0	300	300	0	0	248	50	1	0	freundlich	schön	spielen	treu	fair	schlau	fanatisch	schlecht	strafen	tot	faul	schroff	lachen	retten	helfen	tolerant	loyal	ehrlich	leiden	rächen	hindern	tyrannisch	lasch	eitel	1	blank2r.bmp	0	1	+	0	1	blank2r.bmp	500	1	BMVZ	500	1	blank2r.bmp	880	6	schlau	880	1	!	-1	1	!	-1	0	0	0	0	0	0
2024-05-28	11:28:29	11:35:33	424059	6.6.1	4_exp_EVA_AWA_CON	54	B	A	Rpleas_acq	Oppo	Rpleas	1pleas	acq_US_pleas_nomask	acq45_nomask	4	7	400	0	300	300	0	0	299	50	1	0	freundlich	schön	spielen	treu	fair	schlau	fanatisch	schlecht	strafen	tot	faul	schroff	lachen	retten	helfen	tolerant	loyal	ehrlich	leiden	rächen	hindern	tyrannisch	lasch	eitel	1	blank2r.bmp	0	1	+	0	1	blank2r.bmp	500	1	BMVZ	500	1	blank2r.bmp	880	4	treu	880	1	!	-1	1	!	-1	0	0	0	0	0	0
2024-05-28	11:28:29	11:35:39	429475	6.6.1	4_exp_EVA_AWA_CON	54	B	A	Rpleas_acq	Oppo	Rpleas	1pleas	acq_US_unple_nomask	acq45_nomask	4	8	400	0	300	300	0	0	3643	50	0	0	freundlich	schön	spielen	treu	fair	schlau	fanatisch	schlecht	strafen	tot	faul	schroff	lachen	retten	helfen	tolerant	loyal	ehrlich	leiden	rächen	hindern	tyrannisch	lasch	eitel	1	blank2r.bmp	0	1	+	0	1	blank2r.bmp	500	1	GKQX	500	1	blank2r.bmp	880	2	schlecht	880	1	!	1232	1	!	-1	0	0	0	0	0	0
2024-05-28	11:28:29	11:35:41	431555	6.6.1	4_exp_EVA_AWA_CON	54	B	A	Rpleas_acq	Oppo	Rpleas	1pleas	acq_US_unple_nomask	acq45_nomask	4	9	400	0	300	300	0	0	300	50	0	0	freundlich	schön	spielen	treu	fair	schlau	fanatisch	schlecht	strafen	tot	faul	schroff	lachen	retten	helfen	tolerant	loyal	ehrlich	leiden	rächen	hindern	tyrannisch	lasch	eitel	1	blank2r.bmp	0	1	+	0	1	blank2r.bmp	500	1	GKQX	500	1	blank2r.bmp	880	3	strafen	880	1	!	-1	1	!	-1	0	0	0	0	0	0
2024-05-28	11:28:29	11:35:43	433701	6.6.1	4_exp_EVA_AWA_CON	54	B	A	Rpleas_acq	Oppo	Rpleas	1pleas	acq_US_pleas_nomask	acq45_nomask	4	10	400	1	300	300	0	0	362	50	1	0	freundlich	schön	spielen	treu	fair	schlau	fanatisch	schlecht	strafen	tot	faul	schroff	lachen	retten	helfen	tolerant	loyal	ehrlich	leiden	rächen	hindern	tyrannisch	lasch	eitel	1	blank2r.bmp	0	1	+	0	1	blank2r.bmp	500	1	BMVZ	500	1	blank2r.bmp	880	3	spielen	880	1	!	1232	1	!	1263	0	0	0	0	0	0
2024-05-28	11:28:29	11:35:50	440939	6.6.1	4_exp_EVA_AWA_CON	54	B	A	Rpleas_acq	Oppo	Rpleas	1pleas	acq_US_unple_nomask	acq45_nomask	4	11	400	0	300	300	0	0	5461	50	0	0	freundlich	schön	spielen	treu	fair	schlau	fanatisch	schlecht	strafen	tot	faul	schroff	lachen	retten	helfen	tolerant	loyal	ehrlich	leiden	rächen	hindern	tyrannisch	lasch	eitel	1	blank2r.bmp	0	1	+	0	1	blank2r.bmp	500	1	GKQX	500	1	blank2r.bmp	880	6	schroff	880	1	!	1232	1	!	-1	0	0	0	0	0	0
2024-05-28	11:28:29	11:35:52	443035	6.6.1	4_exp_EVA_AWA_CON	54	B	A	Rpleas_acq	Oppo	Rpleas	1pleas	acq_US_pleas_nomask	acq45_nomask	4	12	400	0	300	300	0	0	322	50	1	0	freundlich	schön	spielen	treu	fair	schlau	fanatisch	schlecht	strafen	tot	faul	schroff	lachen	retten	helfen	tolerant	loyal	ehrlich	leiden	rächen	hindern	tyrannisch	lasch	eitel	1	blank2r.bmp	0	1	+	0	1	blank2r.bmp	500	1	BMVZ	500	1	blank2r.bmp	880	5	fair	880	1	!	-1	1	!	-1	0	0	0	0	0	0
2024-05-28	11:28:29	11:36:00	450283	6.6.1	4_exp_EVA_AWA_CON	54	B	A	Rpleas_acq	Oppo	Rpleas	1pleas	acq_US_pleas_nomask	acq45_nomask	4	13	400	0	300	300	0	0	5469	50	1	0	freundlich	schön	spielen	treu	fair	schlau	fanatisch	schlecht	strafen	tot	faul	schroff	lachen	retten	helfen	tolerant	loyal	ehrlich	leiden	rächen	hindern	tyrannisch	lasch	eitel	1	blank2r.bmp	0	1	+	0	1	blank2r.bmp	500	1	BMVZ	500	1	blank2r.bmp	880	3	spielen	880	1	!	1232	1	!	-1	0	0	0	0	0	0
2024-05-28	11:28:29	11:36:02	452347	6.6.1	4_exp_EVA_AWA_CON	54	B	A	Rpleas_acq	Oppo	Rpleas	1pleas	acq_US_unple_nomask	acq45_nomask	4	14	400	0	300	300	0	0	288	50	0	0	freundlich	schön	spielen	treu	fair	schlau	fanatisch	schlecht	strafen	tot	faul	schroff	lachen	retten	helfen	tolerant	loyal	ehrlich	leiden	rächen	hindern	tyrannisch	lasch	eitel	1	blank2r.bmp	0	1	+	0	1	blank2r.bmp	500	1	GKQX	500	1	blank2r.bmp	880	4	tot	880	1	!	-1	1	!	-1	0	0	0	0	0	0
2024-05-28	11:28:29	11:36:04	454443	6.6.1	4_exp_EVA_AWA_CON	54	B	A	Rpleas_acq	Oppo	Rpleas	1pleas	acq_US_unple_nomask	acq45_nomask	4	15	400	0	300	300	0	0	323	50	0	0	freundlich	schön	spielen	treu	fair	schlau	fanatisch	schlecht	strafen	tot	faul	schroff	lachen	retten	helfen	tolerant	loyal	ehrlich	leiden	rächen	hindern	tyrannisch	lasch	eitel	1	blank2r.bmp	0	1	+	0	1	blank2r.bmp	500	1	GKQX	500	1	blank2r.bmp	880	3	strafen	880	1	!	-1	1	!	-1	0	0	0	0	0	0
2024-05-28	11:28:29	11:36:12	462387	6.6.1	4_exp_EVA_AWA_CON	54	B	A	Rpleas_acq	Oppo	Rpleas	1pleas	acq_US_pleas_nomask	acq45_nomask	4	16	400	0	300	300	0	0	6165	50	1	0	freundlich	schön	spielen	treu	fair	schlau	fanatisch	schlecht	strafen	tot	faul	schroff	lachen	retten	helfen	tolerant	loyal	ehrlich	leiden	rächen	hindern	tyrannisch	lasch	eitel	1	blank2r.bmp	0	1	+	0	1	blank2r.bmp	500	1	BMVZ	500	1	blank2r.bmp	880	1	freundlich	880	1	!	1232	1	!	-1	0	0	0	0	0	0
2024-05-28	11:28:29	11:36:14	464540	6.6.1	4_exp_EVA_AWA_CON	54	B	A	Rpleas_acq	Oppo	Rpleas	1pleas	acq_US_unple_nomask	acq45_nomask	4	17	400	1	300	300	0	0	372	50	0	0	freundlich	schön	spielen	treu	fair	schlau	fanatisch	schlecht	strafen	tot	faul	schroff	lachen	retten	helfen	tolerant	loyal	ehrlich	leiden	rächen	hindern	tyrannisch	lasch	eitel	1	blank2r.bmp	0	1	+	0	1	blank2r.bmp	500	1	GKQX	500	1	blank2r.bmp	880	6	schroff	880	1	!	1232	1	!	1273	0	0	0	0	0	0
2024-05-28	11:28:29	11:36:23	473843	6.6.1	4_exp_EVA_AWA_CON	54	B	A	Rpleas_acq	Oppo	Rpleas	1pleas	acq_US_pleas_nomask	acq45_nomask	4	18	400	0	300	300	0	0	7525	50	1	0	freundlich	schön	spielen	treu	fair	schlau	fanatisch	schlecht	strafen	tot	faul	schroff	lachen	retten	helfen	tolerant	loyal	ehrlich	leiden	rächen	hindern	tyrannisch	lasch	eitel	1	blank2r.bmp	0	1	+	0	1	blank2r.bmp	500	1	BMVZ	500	1	blank2r.bmp	880	6	schlau	880	1	!	1232	1	!	-1	0	0	0	0	0	0
2024-05-28	11:28:29	11:36:25	475883	6.6.1	4_exp_EVA_AWA_CON	54	B	A	Rpleas_acq	Oppo	Rpleas	1pleas	acq_US_unple_nomask	acq45_nomask	4	19	400	0	300	300	0	0	259	50	0	0	freundlich	schön	spielen	treu	fair	schlau	fanatisch	schlecht	strafen	tot	faul	schroff	lachen	retten	helfen	tolerant	loyal	ehrlich	leiden	rächen	hindern	tyrannisch	lasch	eitel	1	blank2r.bmp	0	1	+	0	1	blank2r.bmp	500	1	GKQX	500	1	blank2r.bmp	880	5	faul	880	1	!	-1	1	!	-1	0	0	0	0	0	0
2024-05-28	11:28:29	11:36:27	478012	6.6.1	4_exp_EVA_AWA_CON	54	B	A	Rpleas_acq	Oppo	Rpleas	1pleas	acq_US_unple_nomask	acq45_nomask	4	20	400	1	300	300	0	0	345	50	0	0	freundlich	schön	spielen	treu	fair	schlau	fanatisch	schlecht	strafen	tot	faul	schroff	lachen	retten	helfen	tolerant	loyal	ehrlich	leiden	rächen	hindern	tyrannisch	lasch	eitel	1	blank2r.bmp	0	1	+	0	1	blank2r.bmp	500	1	GKQX	500	1	blank2r.bmp	880	1	fanatisch	880	1	!	1232	1	!	1247	0	0	0	0	0	0
2024-05-28	11:28:29	11:36:32	483171	6.6.1	4_exp_EVA_AWA_CON	54	B	A	Rpleas_acq	Oppo	Rpleas	1pleas	acq_US_unple_nomask	acq45_nomask	4	21	400	0	300	300	0	0	3384	50	0	0	freundlich	schön	spielen	treu	fair	schlau	fanatisch	schlecht	strafen	tot	faul	schroff	lachen	retten	helfen	tolerant	loyal	ehrlich	leiden	rächen	hindern	tyrannisch	lasch	eitel	1	blank2r.bmp	0	1	+	0	1	blank2r.bmp	500	1	GKQX	500	1	blank2r.bmp	880	2	schlecht	880	1	!	1232	1	!	-1	0	0	0	0	0	0
2024-05-28	11:28:29	11:36:35	485324	6.6.1	4_exp_EVA_AWA_CON	54	B	A	Rpleas_acq	Oppo	Rpleas	1pleas	acq_US_unple_nomask	acq45_nomask	4	22	400	1	300	300	0	0	373	50	0	0	freundlich	schön	spielen	treu	fair	schlau	fanatisch	schlecht	strafen	tot	faul	schroff	lachen	retten	helfen	tolerant	loyal	ehrlich	leiden	rächen	hindern	tyrannisch	lasch	eitel	1	blank2r.bmp	0	1	+	0	1	blank2r.bmp	500	1	GKQX	500	1	blank2r.bmp	880	1	fanatisch	880	1	!	1232	1	!	1274	0	0	0	0	0	0
2024-05-28	11:28:29	11:36:37	487603	6.6.1	4_exp_EVA_AWA_CON	54	B	A	Rpleas_acq	Oppo	Rpleas	1pleas	acq_US_pleas_nomask	acq45_nomask	4	23	400	0	300	300	0	0	501	50	1	0	freundlich	schön	spielen	treu	fair	schlau	fanatisch	schlecht	strafen	tot	faul	schroff	lachen	retten	helfen	tolerant	loyal	ehrlich	leiden	rächen	hindern	tyrannisch	lasch	eitel	1	blank2r.bmp	0	1	+	0	1	blank2r.bmp	500	1	BMVZ	500	1	blank2r.bmp	880	5	fair	880	1	!	1232	1	!	-1	0	0	0	0	0	0
2024-05-28	11:28:29	11:36:42	493066	6.6.1	4_exp_EVA_AWA_CON	54	B	A	Rpleas_acq	Oppo	Rpleas	1pleas	acq_US_pleas_nomask	acq45_nomask	4	24	400	0	300	300	0	0	3684	50	1	0	freundlich	schön	spielen	treu	fair	schlau	fanatisch	schlecht	strafen	tot	faul	schroff	lachen	retten	helfen	tolerant	loyal	ehrlich	leiden	rächen	hindern	tyrannisch	lasch	eitel	1	blank2r.bmp	0	1	+	0	1	blank2r.bmp	500	1	BMVZ	500	1	blank2r.bmp	880	2	schön	880	1	!	1232	1	!	-1	0	0	0	0	0	0
2024-05-28	11:28:29	11:36:44	495180	6.6.1	4_exp_EVA_AWA_CON	54	B	A	Rpleas_acq	Oppo	Rpleas	1pleas	acq_US_pleas_nomask	acq45_nomask	4	25	400	1	300	300	0	0	333	50	1	0	freundlich	schön	spielen	treu	fair	schlau	fanatisch	schlecht	strafen	tot	faul	schroff	lachen	retten	helfen	tolerant	loyal	ehrlich	leiden	rächen	hindern	tyrannisch	lasch	eitel	1	blank2r.bmp	0	1	+	0	1	blank2r.bmp	500	1	BMVZ	500	1	blank2r.bmp	880	4	treu	880	1	!	1232	1	!	1233	0	0	0	0	0	0
2024-05-28	11:28:29	11:36:50	500203	6.6.1	4_exp_EVA_AWA_CON	54	B	A	Rpleas_acq	Oppo	Rpleas	1pleas	acq_US_unple_nomask	acq45_nomask	4	26	400	0	300	300	0	0	3245	50	0	0	freundlich	schön	spielen	treu	fair	schlau	fanatisch	schlecht	strafen	tot	faul	schroff	lachen	retten	helfen	tolerant	loyal	ehrlich	leiden	rächen	hindern	tyrannisch	lasch	eitel	1	blank2r.bmp	0	1	+	0	1	blank2r.bmp	500	1	GKQX	500	1	blank2r.bmp	880	3	strafen	880	1	!	1233	1	!	-1	0	0	0	0	0	0
2024-05-28	11:28:29	11:36:52	502282	6.6.1	4_exp_EVA_AWA_CON	54	B	A	Rpleas_acq	Oppo	Rpleas	1pleas	acq_US_pleas_nomask	acq45_nomask	4	27	400	0	300	300	0	0	302	50	1	0	freundlich	schön	spielen	treu	fair	schlau	fanatisch	schlecht	strafen	tot	faul	schroff	lachen	retten	helfen	tolerant	loyal	ehrlich	leiden	rächen	hindern	tyrannisch	lasch	eitel	1	blank2r.bmp	0	1	+	0	1	blank2r.bmp	500	1	BMVZ	500	1	blank2r.bmp	880	1	freundlich	880	1	!	-1	1	!	-1	0	0	0	0	0	0
2024-05-28	11:28:29	11:36:54	504283	6.6.1	4_exp_EVA_AWA_CON	54	B	A	Rpleas_acq	Oppo	Rpleas	1pleas	acq_US_unple_nomask	acq45_nomask	4	28	400	0	300	300	0	0	220	50	0	0	freundlich	schön	spielen	treu	fair	schlau	fanatisch	schlecht	strafen	tot	faul	schroff	lachen	retten	helfen	tolerant	loyal	ehrlich	leiden	rächen	hindern	tyrannisch	lasch	eitel	1	blank2r.bmp	0	1	+	0	1	blank2r.bmp	500	1	GKQX	500	1	blank2r.bmp	880	5	faul	880	1	!	-1	1	!	-1	0	0	0	0	0	0
2024-05-28	11:28:29	11:36:58	508963	6.6.1	4_exp_EVA_AWA_CON	54	B	A	Rpleas_acq	Oppo	Rpleas	1pleas	acq_US_pleas_nomask	acq45_nomask	4	29	400	0	300	300	0	0	2899	50	1	0	freundlich	schön	spielen	treu	fair	schlau	fanatisch	schlecht	strafen	tot	faul	schroff	lachen	retten	helfen	tolerant	loyal	ehrlich	leiden	rächen	hindern	tyrannisch	lasch	eitel	1	blank2r.bmp	0	1	+	0	1	blank2r.bmp	500	1	BMVZ	500	1	blank2r.bmp	880	6	schlau	880	1	!	1232	1	!	-1	0	0	0	0	0	0
2024-05-28	11:28:29	11:37:03	513459	6.6.1	4_exp_EVA_AWA_CON	54	B	A	Rpleas_acq	Oppo	Rpleas	1pleas	acq_US_unple_nomask	acq45_nomask	4	30	400	0	300	300	0	0	2722	50	0	0	freundlich	schön	spielen	treu	fair	schlau	fanatisch	schlecht	strafen	tot	faul	schroff	lachen	retten	helfen	tolerant	loyal	ehrlich	leiden	rächen	hindern	tyrannisch	lasch	eitel	1	blank2r.bmp	0	1	+	0	1	blank2r.bmp	500	1	GKQX	500	1	blank2r.bmp	880	4	tot	880	1	!	1232	1	!	-1	0	0	0	0	0	0
2024-05-28	11:28:29	11:37:05	515451	6.6.1	4_exp_EVA_AWA_CON	54	B	A	Rpleas_acq	Oppo	Rpleas	1pleas	acq_US_pleas_nomask	acq45_nomask	4	31	400	0	300	300	0	0	211	50	1	0	freundlich	schön	spielen	treu	fair	schlau	fanatisch	schlecht	strafen	tot	faul	schroff	lachen	retten	helfen	tolerant	loyal	ehrlich	leiden	rächen	hindern	tyrannisch	lasch	eitel	1	blank2r.bmp	0	1	+	0	1	blank2r.bmp	500	1	BMVZ	500	1	blank2r.bmp	880	3	spielen	880	1	!	-1	1	!	-1	0	0	0	0	0	0
2024-05-28	11:28:29	11:37:08	518803	6.6.1	4_exp_EVA_AWA_CON	54	B	A	Rpleas_acq	Oppo	Rpleas	1pleas	acq_US_unple_nomask	acq45_nomask	4	32	400	0	300	300	0	0	1572	50	0	0	freundlich	schön	spielen	treu	fair	schlau	fanatisch	schlecht	strafen	tot	faul	schroff	lachen	retten	helfen	tolerant	loyal	ehrlich	leiden	rächen	hindern	tyrannisch	lasch	eitel	1	blank2r.bmp	0	1	+	0	1	blank2r.bmp	500	1	GKQX	500	1	blank2r.bmp	880	6	schroff	880	1	!	1232	1	!	-1	0	0	0	0	0	0
2024-05-28	11:28:29	11:37:10	520858	6.6.1	4_exp_EVA_AWA_CON	54	B	A	Rpleas_acq	Oppo	Rpleas	1pleas	acq_US_pleas_nomask	acq45_nomask	4	33	400	0	300	300	0	0	275	50	1	0	freundlich	schön	spielen	treu	fair	schlau	fanatisch	schlecht	strafen	tot	faul	schroff	lachen	retten	helfen	tolerant	loyal	ehrlich	leiden	rächen	hindern	tyrannisch	lasch	eitel	1	blank2r.bmp	0	1	+	0	1	blank2r.bmp	500	1	BMVZ	500	1	blank2r.bmp	880	2	schön	880	1	!	-1	1	!	-1	0	0	0	0	0	0
2024-05-28	11:28:29	11:37:14	524443	6.6.1	4_exp_EVA_AWA_CON	54	B	A	Rpleas_acq	Oppo	Rpleas	1pleas	acq_US_pleas_nomask	acq45_nomask	4	34	400	0	300	300	0	0	1808	50	1	0	freundlich	schön	spielen	treu	fair	schlau	fanatisch	schlecht	strafen	tot	faul	schroff	lachen	retten	helfen	tolerant	loyal	ehrlich	leiden	rächen	hindern	tyrannisch	lasch	eitel	1	blank2r.bmp	0	1	+	0	1	blank2r.bmp	500	1	BMVZ	500	1	blank2r.bmp	880	5	fair	880	1	!	1232	1	!	-1	0	0	0	0	0	0
2024-05-28	11:28:29	11:37:16	526547	6.6.1	4_exp_EVA_AWA_CON	54	B	A	Rpleas_acq	Oppo	Rpleas	1pleas	acq_US_pleas_nomask	acq45_nomask	4	35	400	0	300	300	0	0	330	50	1	0	freundlich	schön	spielen	treu	fair	schlau	fanatisch	schlecht	strafen	tot	faul	schroff	lachen	retten	helfen	tolerant	loyal	ehrlich	leiden	rächen	hindern	tyrannisch	lasch	eitel	1	blank2r.bmp	0	1	+	0	1	blank2r.bmp	500	1	BMVZ	500	1	blank2r.bmp	880	4	treu	880	1	!	-1	1	!	-1	0	0	0	0	0	0
2024-05-28	11:28:29	11:37:18	528579	6.6.1	4_exp_EVA_AWA_CON	54	B	A	Rpleas_acq	Oppo	Rpleas	1pleas	acq_US_unple_nomask	acq45_nomask	4	36	400	0	300	300	0	0	251	50	0	0	freundlich	schön	spielen	treu	fair	schlau	fanatisch	schlecht	strafen	tot	faul	schroff	lachen	retten	helfen	tolerant	loyal	ehrlich	leiden	rächen	hindern	tyrannisch	lasch	eitel	1	blank2r.bmp	0	1	+	0	1	blank2r.bmp	500	1	GKQX	500	1	blank2r.bmp	880	2	schlecht	880	1	!	-1	1	!	-1	0	0	0	0	0	0
2024-05-28	11:28:29	11:37:31	541484	6.6.1	4_exp_EVA_AWA_CON	54	B	A	Rpleas_acq	Oppo	Rpleas	1pleas	acq_US_pleas_nomask	acq45_nomask	5	1	400	1	300	300	0	0	366	50	1	0	freundlich	schön	spielen	treu	fair	schlau	fanatisch	schlecht	strafen	tot	faul	schroff	lachen	retten	helfen	tolerant	loyal	ehrlich	leiden	rächen	hindern	tyrannisch	lasch	eitel	1	blank2r.bmp	0	1	+	0	1	blank2r.bmp	500	1	BMVZ	500	1	blank2r.bmp	880	1	freundlich	880	1	!	1232	1	!	1267	0	0	0	0	0	0
2024-05-28	11:28:29	11:37:33	543621	6.6.1	4_exp_EVA_AWA_CON	54	B	A	Rpleas_acq	Oppo	Rpleas	1pleas	acq_US_pleas_nomask	acq45_nomask	5	2	400	1	300	300	0	0	361	50	1	0	freundlich	schön	spielen	treu	fair	schlau	fanatisch	schlecht	strafen	tot	faul	schroff	lachen	retten	helfen	tolerant	loyal	ehrlich	leiden	rächen	hindern	tyrannisch	lasch	eitel	1	blank2r.bmp	0	1	+	0	1	blank2r.bmp	500	1	BMVZ	500	1	blank2r.bmp	880	4	treu	880	1	!	1232	1	!	1262	0	0	0	0	0	0
2024-05-28	11:28:29	11:37:35	545796	6.6.1	4_exp_EVA_AWA_CON	54	B	A	Rpleas_acq	Oppo	Rpleas	1pleas	acq_US_pleas_nomask	acq45_nomask	5	3	400	1	300	300	0	0	395	50	1	0	freundlich	schön	spielen	treu	fair	schlau	fanatisch	schlecht	strafen	tot	faul	schroff	lachen	retten	helfen	tolerant	loyal	ehrlich	leiden	rächen	hindern	tyrannisch	lasch	eitel	1	blank2r.bmp	0	1	+	0	1	blank2r.bmp	500	1	BMVZ	500	1	blank2r.bmp	880	2	schön	880	1	!	1232	1	!	1296	0	0	0	0	0	0
2024-05-28	11:28:29	11:37:39	549635	6.6.1	4_exp_EVA_AWA_CON	54	B	A	Rpleas_acq	Oppo	Rpleas	1pleas	acq_US_unple_nomask	acq45_nomask	5	4	400	0	300	300	0	0	2064	50	0	0	freundlich	schön	spielen	treu	fair	schlau	fanatisch	schlecht	strafen	tot	faul	schroff	lachen	retten	helfen	tolerant	loyal	ehrlich	leiden	rächen	hindern	tyrannisch	lasch	eitel	1	blank2r.bmp	0	1	+	0	1	blank2r.bmp	500	1	GKQX	500	1	blank2r.bmp	880	2	schlecht	880	1	!	1232	1	!	-1	0	0	0	0	0	0
2024-05-28	11:28:29	11:37:41	551765	6.6.1	4_exp_EVA_AWA_CON	54	B	A	Rpleas_acq	Oppo	Rpleas	1pleas	acq_US_pleas_nomask	acq45_nomask	5	5	400	1	300	300	0	0	350	50	1	0	freundlich	schön	spielen	treu	fair	schlau	fanatisch	schlecht	strafen	tot	faul	schroff	lachen	retten	helfen	tolerant	loyal	ehrlich	leiden	rächen	hindern	tyrannisch	lasch	eitel	1	blank2r.bmp	0	1	+	0	1	blank2r.bmp	500	1	BMVZ	500	1	blank2r.bmp	880	5	fair	880	1	!	1233	1	!	1250	0	0	0	0	0	0
2024-05-28	11:28:29	11:37:43	554035	6.6.1	4_exp_EVA_AWA_CON	54	B	A	Rpleas_acq	Oppo	Rpleas	1pleas	acq_US_pleas_nomask	acq45_nomask	5	6	400	0	300	300	0	0	490	50	1	0	freundlich	schön	spielen	treu	fair	schlau	fanatisch	schlecht	strafen	tot	faul	schroff	lachen	retten	helfen	tolerant	loyal	ehrlich	leiden	rächen	hindern	tyrannisch	lasch	eitel	1	blank2r.bmp	0	1	+	0	1	blank2r.bmp	500	1	BMVZ	500	1	blank2r.bmp	880	6	schlau	880	1	!	1232	1	!	-1	0	0	0	0	0	0
2024-05-28	11:28:29	11:37:46	556277	6.6.1	4_exp_EVA_AWA_CON	54	B	A	Rpleas_acq	Oppo	Rpleas	1pleas	acq_US_unple_nomask	acq45_nomask	5	7	400	1	300	300	0	0	458	50	0	0	freundlich	schön	spielen	treu	fair	schlau	fanatisch	schlecht	strafen	tot	faul	schroff	lachen	retten	helfen	tolerant	loyal	ehrlich	leiden	rächen	hindern	tyrannisch	lasch	eitel	1	blank2r.bmp	0	1	+	0	1	blank2r.bmp	500	1	GKQX	500	1	blank2r.bmp	880	1	fanatisch	880	1	!	1232	1	!	1359	0	0	0	0	0	0
2024-05-28	11:28:29	11:37:48	558452	6.6.1	4_exp_EVA_AWA_CON	54	B	A	Rpleas_acq	Oppo	Rpleas	1pleas	acq_US_pleas_nomask	acq45_nomask	5	8	400	1	300	300	0	0	393	50	1	0	freundlich	schön	spielen	treu	fair	schlau	fanatisch	schlecht	strafen	tot	faul	schroff	lachen	retten	helfen	tolerant	loyal	ehrlich	leiden	rächen	hindern	tyrannisch	lasch	eitel	1	blank2r.bmp	0	1	+	0	1	blank2r.bmp	500	1	BMVZ	500	1	blank2r.bmp	880	3	spielen	880	1	!	1232	1	!	1294	0	0	0	0	0	0
2024-05-28	11:28:29	11:37:50	560786	6.6.1	4_exp_EVA_AWA_CON	54	B	A	Rpleas_acq	Oppo	Rpleas	1pleas	acq_US_unple_nomask	acq45_nomask	5	9	400	0	300	300	0	0	557	50	0	0	freundlich	schön	spielen	treu	fair	schlau	fanatisch	schlecht	strafen	tot	faul	schroff	lachen	retten	helfen	tolerant	loyal	ehrlich	leiden	rächen	hindern	tyrannisch	lasch	eitel	1	blank2r.bmp	0	1	+	0	1	blank2r.bmp	500	1	GKQX	500	1	blank2r.bmp	880	3	strafen	880	1	!	1232	1	!	-1	0	0	0	0	0	0
2024-05-28	11:28:29	11:37:52	562924	6.6.1	4_exp_EVA_AWA_CON	54	B	A	Rpleas_acq	Oppo	Rpleas	1pleas	acq_US_pleas_nomask	acq45_nomask	5	10	400	1	300	300	0	0	361	50	1	0	freundlich	schön	spielen	treu	fair	schlau	fanatisch	schlecht	strafen	tot	faul	schroff	lachen	retten	helfen	tolerant	loyal	ehrlich	leiden	rächen	hindern	tyrannisch	lasch	eitel	1	blank2r.bmp	0	1	+	0	1	blank2r.bmp	500	1	BMVZ	500	1	blank2r.bmp	880	1	freundlich	880	1	!	1232	1	!	1263	0	0	0	0	0	0
2024-05-28	11:28:29	11:37:56	566698	6.6.1	4_exp_EVA_AWA_CON	54	B	A	Rpleas_acq	Oppo	Rpleas	1pleas	acq_US_unple_nomask	acq45_nomask	5	11	400	0	300	300	0	0	1996	50	0	0	freundlich	schön	spielen	treu	fair	schlau	fanatisch	schlecht	strafen	tot	faul	schroff	lachen	retten	helfen	tolerant	loyal	ehrlich	leiden	rächen	hindern	tyrannisch	lasch	eitel	1	blank2r.bmp	0	1	+	0	1	blank2r.bmp	500	1	GKQX	500	1	blank2r.bmp	880	6	schroff	880	1	!	1232	1	!	-1	0	0	0	0	0	0
2024-05-28	11:28:29	11:37:58	568962	6.6.1	4_exp_EVA_AWA_CON	54	B	A	Rpleas_acq	Oppo	Rpleas	1pleas	acq_US_pleas_nomask	acq45_nomask	5	12	400	0	300	300	0	0	487	50	1	0	freundlich	schön	spielen	treu	fair	schlau	fanatisch	schlecht	strafen	tot	faul	schroff	lachen	retten	helfen	tolerant	loyal	ehrlich	leiden	rächen	hindern	tyrannisch	lasch	eitel	1	blank2r.bmp	0	1	+	0	1	blank2r.bmp	500	1	BMVZ	500	1	blank2r.bmp	880	2	schön	880	1	!	1232	1	!	-1	0	0	0	0	0	0
2024-05-28	11:28:29	11:38:02	572362	6.6.1	4_exp_EVA_AWA_CON	54	B	A	Rpleas_acq	Oppo	Rpleas	1pleas	acq_US_unple_nomask	acq45_nomask	5	13	400	0	300	300	0	0	1626	50	0	0	freundlich	schön	spielen	treu	fair	schlau	fanatisch	schlecht	strafen	tot	faul	schroff	lachen	retten	helfen	tolerant	loyal	ehrlich	leiden	rächen	hindern	tyrannisch	lasch	eitel	1	blank2r.bmp	0	1	+	0	1	blank2r.bmp	500	1	GKQX	500	1	blank2r.bmp	880	4	tot	880	1	!	1232	1	!	-1	0	0	0	0	0	0
2024-05-28	11:28:29	11:38:07	577379	6.6.1	4_exp_EVA_AWA_CON	54	B	A	Rpleas_acq	Oppo	Rpleas	1pleas	acq_US_unple_nomask	acq45_nomask	5	14	400	0	300	300	0	0	3241	50	0	0	freundlich	schön	spielen	treu	fair	schlau	fanatisch	schlecht	strafen	tot	faul	schroff	lachen	retten	helfen	tolerant	loyal	ehrlich	leiden	rächen	hindern	tyrannisch	lasch	eitel	1	blank2r.bmp	0	1	+	0	1	blank2r.bmp	500	1	GKQX	500	1	blank2r.bmp	880	5	faul	880	1	!	1232	1	!	-1	0	0	0	0	0	0
2024-05-28	11:28:29	11:38:09	579698	6.6.1	4_exp_EVA_AWA_CON	54	B	A	Rpleas_acq	Oppo	Rpleas	1pleas	acq_US_unple_nomask	acq45_nomask	5	15	400	0	300	300	0	0	546	50	0	0	freundlich	schön	spielen	treu	fair	schlau	fanatisch	schlecht	strafen	tot	faul	schroff	lachen	retten	helfen	tolerant	loyal	ehrlich	leiden	rächen	hindern	tyrannisch	lasch	eitel	1	blank2r.bmp	0	1	+	0	1	blank2r.bmp	500	1	GKQX	500	1	blank2r.bmp	880	1	fanatisch	880	1	!	1232	1	!	-1	0	0	0	0	0	0
2024-05-28	11:28:29	11:38:11	581810	6.6.1	4_exp_EVA_AWA_CON	54	B	A	Rpleas_acq	Oppo	Rpleas	1pleas	acq_US_unple_nomask	acq45_nomask	5	16	400	1	300	300	0	0	337	50	0	0	freundlich	schön	spielen	treu	fair	schlau	fanatisch	schlecht	strafen	tot	faul	schroff	lachen	retten	helfen	tolerant	loyal	ehrlich	leiden	rächen	hindern	tyrannisch	lasch	eitel	1	blank2r.bmp	0	1	+	0	1	blank2r.bmp	500	1	GKQX	500	1	blank2r.bmp	880	6	schroff	880	1	!	1232	1	!	1237	0	0	0	0	0	0
2024-05-28	11:28:29	11:38:13	583906	6.6.1	4_exp_EVA_AWA_CON	54	B	A	Rpleas_acq	Oppo	Rpleas	1pleas	acq_US_unple_nomask	acq45_nomask	5	17	400	0	300	300	0	0	323	50	0	0	freundlich	schön	spielen	treu	fair	schlau	fanatisch	schlecht	strafen	tot	faul	schroff	lachen	retten	helfen	tolerant	loyal	ehrlich	leiden	rächen	hindern	tyrannisch	lasch	eitel	1	blank2r.bmp	0	1	+	0	1	blank2r.bmp	500	1	GKQX	500	1	blank2r.bmp	880	5	faul	880	1	!	-1	1	!	-1	0	0	0	0	0	0
2024-05-28	11:28:29	11:38:15	586077	6.6.1	4_exp_EVA_AWA_CON	54	B	A	Rpleas_acq	Oppo	Rpleas	1pleas	acq_US_pleas_nomask	acq45_nomask	5	18	400	1	300	300	0	0	388	50	1	0	freundlich	schön	spielen	treu	fair	schlau	fanatisch	schlecht	strafen	tot	faul	schroff	lachen	retten	helfen	tolerant	loyal	ehrlich	leiden	rächen	hindern	tyrannisch	lasch	eitel	1	blank2r.bmp	0	1	+	0	1	blank2r.bmp	500	1	BMVZ	500	1	blank2r.bmp	880	6	schlau	880	1	!	1232	1	!	1290	0	0	0	0	0	0
2024-05-28	11:28:29	11:38:18	588236	6.6.1	4_exp_EVA_AWA_CON	54	B	A	Rpleas_acq	Oppo	Rpleas	1pleas	acq_US_unple_nomask	acq45_nomask	5	19	400	1	300	300	0	0	377	50	0	0	freundlich	schön	spielen	treu	fair	schlau	fanatisch	schlecht	strafen	tot	faul	schroff	lachen	retten	helfen	tolerant	loyal	ehrlich	leiden	rächen	hindern	tyrannisch	lasch	eitel	1	blank2r.bmp	0	1	+	0	1	blank2r.bmp	500	1	GKQX	500	1	blank2r.bmp	880	3	strafen	880	1	!	1232	1	!	1279	0	0	0	0	0	0
2024-05-28	11:28:29	11:38:20	590452	6.6.1	4_exp_EVA_AWA_CON	54	B	A	Rpleas_acq	Oppo	Rpleas	1pleas	acq_US_pleas_nomask	acq45_nomask	5	20	400	1	300	300	0	0	441	50	1	0	freundlich	schön	spielen	treu	fair	schlau	fanatisch	schlecht	strafen	tot	faul	schroff	lachen	retten	helfen	tolerant	loyal	ehrlich	leiden	rächen	hindern	tyrannisch	lasch	eitel	1	blank2r.bmp	0	1	+	0	1	blank2r.bmp	500	1	BMVZ	500	1	blank2r.bmp	880	3	spielen	880	1	!	1232	1	!	1343	0	0	0	0	0	0
2024-05-28	11:28:29	11:38:22	592322	6.6.1	4_exp_EVA_AWA_CON	54	B	A	Rpleas_acq	Oppo	Rpleas	1pleas	acq_US_pleas_nomask	acq45_nomask	5	21	400	0	300	300	0	0	92	50	1	0	freundlich	schön	spielen	treu	fair	schlau	fanatisch	schlecht	strafen	tot	faul	schroff	lachen	retten	helfen	tolerant	loyal	ehrlich	leiden	rächen	hindern	tyrannisch	lasch	eitel	1	blank2r.bmp	0	1	+	0	1	blank2r.bmp	500	1	BMVZ	500	1	blank2r.bmp	880	5	fair	880	1	!	-1	1	!	-1	0	0	0	0	0	0
2024-05-28	11:28:29	11:38:24	594524	6.6.1	4_exp_EVA_AWA_CON	54	B	A	Rpleas_acq	Oppo	Rpleas	1pleas	acq_US_unple_nomask	acq45_nomask	5	22	400	1	300	300	0	0	422	50	0	0	freundlich	schön	spielen	treu	fair	schlau	fanatisch	schlecht	strafen	tot	faul	schroff	lachen	retten	helfen	tolerant	loyal	ehrlich	leiden	rächen	hindern	tyrannisch	lasch	eitel	1	blank2r.bmp	0	1	+	0	1	blank2r.bmp	500	1	GKQX	500	1	blank2r.bmp	880	4	tot	880	1	!	1232	1	!	1323	0	0	0	0	0	0
2024-05-28	11:28:29	11:38:26	596858	6.6.1	4_exp_EVA_AWA_CON	54	B	A	Rpleas_acq	Oppo	Rpleas	1pleas	acq_US_unple_nomask	acq45_nomask	5	23	400	0	300	300	0	0	555	50	0	0	freundlich	schön	spielen	treu	fair	schlau	fanatisch	schlecht	strafen	tot	faul	schroff	lachen	retten	helfen	tolerant	loyal	ehrlich	leiden	rächen	hindern	tyrannisch	lasch	eitel	1	blank2r.bmp	0	1	+	0	1	blank2r.bmp	500	1	GKQX	500	1	blank2r.bmp	880	2	schlecht	880	1	!	1232	1	!	-1	0	0	0	0	0	0
2024-05-28	11:28:29	11:38:28	598955	6.6.1	4_exp_EVA_AWA_CON	54	B	A	Rpleas_acq	Oppo	Rpleas	1pleas	acq_US_pleas_nomask	acq45_nomask	5	24	400	0	300	300	0	0	320	50	1	0	freundlich	schön	spielen	treu	fair	schlau	fanatisch	schlecht	strafen	tot	faul	schroff	lachen	retten	helfen	tolerant	loyal	ehrlich	leiden	rächen	hindern	tyrannisch	lasch	eitel	1	blank2r.bmp	0	1	+	0	1	blank2r.bmp	500	1	BMVZ	500	1	blank2r.bmp	880	4	treu	880	1	!	-1	1	!	-1	0	0	0	0	0	0
2024-05-28	11:28:29	11:38:31	601290	6.6.1	4_exp_EVA_AWA_CON	54	B	A	Rpleas_acq	Oppo	Rpleas	1pleas	acq_US_unple_nomask	acq45_nomask	5	25	400	0	300	300	0	0	554	50	0	0	freundlich	schön	spielen	treu	fair	schlau	fanatisch	schlecht	strafen	tot	faul	schroff	lachen	retten	helfen	tolerant	loyal	ehrlich	leiden	rächen	hindern	tyrannisch	lasch	eitel	1	blank2r.bmp	0	1	+	0	1	blank2r.bmp	500	1	GKQX	500	1	blank2r.bmp	880	6	schroff	880	1	!	1232	1	!	-1	0	0	0	0	0	0
2024-05-28	11:28:29	11:38:33	603298	6.6.1	4_exp_EVA_AWA_CON	54	B	A	Rpleas_acq	Oppo	Rpleas	1pleas	acq_US_pleas_nomask	acq45_nomask	5	26	400	0	300	300	0	0	231	50	1	0	freundlich	schön	spielen	treu	fair	schlau	fanatisch	schlecht	strafen	tot	faul	schroff	lachen	retten	helfen	tolerant	loyal	ehrlich	leiden	rächen	hindern	tyrannisch	lasch	eitel	1	blank2r.bmp	0	1	+	0	1	blank2r.bmp	500	1	BMVZ	500	1	blank2r.bmp	880	4	treu	880	1	!	-1	1	!	-1	0	0	0	0	0	0
2024-05-28	11:28:29	11:38:35	605586	6.6.1	4_exp_EVA_AWA_CON	54	B	A	Rpleas_acq	Oppo	Rpleas	1pleas	acq_US_unple_nomask	acq45_nomask	5	27	400	0	300	300	0	0	508	50	0	0	freundlich	schön	spielen	treu	fair	schlau	fanatisch	schlecht	strafen	tot	faul	schroff	lachen	retten	helfen	tolerant	loyal	ehrlich	leiden	rächen	hindern	tyrannisch	lasch	eitel	1	blank2r.bmp	0	1	+	0	1	blank2r.bmp	500	1	GKQX	500	1	blank2r.bmp	880	5	faul	880	1	!	1232	1	!	-1	0	0	0	0	0	0
2024-05-28	11:28:29	11:38:37	607724	6.6.1	4_exp_EVA_AWA_CON	54	B	A	Rpleas_acq	Oppo	Rpleas	1pleas	acq_US_pleas_nomask	acq45_nomask	5	28	400	1	300	300	0	0	362	50	1	0	freundlich	schön	spielen	treu	fair	schlau	fanatisch	schlecht	strafen	tot	faul	schroff	lachen	retten	helfen	tolerant	loyal	ehrlich	leiden	rächen	hindern	tyrannisch	lasch	eitel	1	blank2r.bmp	0	1	+	0	1	blank2r.bmp	500	1	BMVZ	500	1	blank2r.bmp	880	2	schön	880	1	!	1232	1	!	1264	0	0	0	0	0	0
2024-05-28	11:28:29	11:38:39	609722	6.6.1	4_exp_EVA_AWA_CON	54	B	A	Rpleas_acq	Oppo	Rpleas	1pleas	acq_US_pleas_nomask	acq45_nomask	5	29	400	0	300	300	0	0	221	50	1	0	freundlich	schön	spielen	treu	fair	schlau	fanatisch	schlecht	strafen	tot	faul	schroff	lachen	retten	helfen	tolerant	loyal	ehrlich	leiden	rächen	hindern	tyrannisch	lasch	eitel	1	blank2r.bmp	0	1	+	0	1	blank2r.bmp	500	1	BMVZ	500	1	blank2r.bmp	880	3	spielen	880	1	!	-1	1	!	-1	0	0	0	0	0	0
2024-05-28	11:28:29	11:38:41	611826	6.6.1	4_exp_EVA_AWA_CON	54	B	A	Rpleas_acq	Oppo	Rpleas	1pleas	acq_US_pleas_nomask	acq45_nomask	5	30	400	0	300	300	0	0	323	50	1	0	freundlich	schön	spielen	treu	fair	schlau	fanatisch	schlecht	strafen	tot	faul	schroff	lachen	retten	helfen	tolerant	loyal	ehrlich	leiden	rächen	hindern	tyrannisch	lasch	eitel	1	blank2r.bmp	0	1	+	0	1	blank2r.bmp	500	1	BMVZ	500	1	blank2r.bmp	880	6	schlau	880	1	!	-1	1	!	-1	0	0	0	0	0	0
2024-05-28	11:28:29	11:38:43	614170	6.6.1	4_exp_EVA_AWA_CON	54	B	A	Rpleas_acq	Oppo	Rpleas	1pleas	acq_US_unple_nomask	acq45_nomask	5	31	400	0	300	300	0	0	566	50	0	0	freundlich	schön	spielen	treu	fair	schlau	fanatisch	schlecht	strafen	tot	faul	schroff	lachen	retten	helfen	tolerant	loyal	ehrlich	leiden	rächen	hindern	tyrannisch	lasch	eitel	1	blank2r.bmp	0	1	+	0	1	blank2r.bmp	500	1	GKQX	500	1	blank2r.bmp	880	4	tot	880	1	!	1232	1	!	-1	0	0	0	0	0	0
2024-05-28	11:28:29	11:38:46	616258	6.6.1	4_exp_EVA_AWA_CON	54	B	A	Rpleas_acq	Oppo	Rpleas	1pleas	acq_US_pleas_nomask	acq45_nomask	5	32	400	0	300	300	0	0	313	50	1	0	freundlich	schön	spielen	treu	fair	schlau	fanatisch	schlecht	strafen	tot	faul	schroff	lachen	retten	helfen	tolerant	loyal	ehrlich	leiden	rächen	hindern	tyrannisch	lasch	eitel	1	blank2r.bmp	0	1	+	0	1	blank2r.bmp	500	1	BMVZ	500	1	blank2r.bmp	880	1	freundlich	880	1	!	-1	1	!	-1	0	0	0	0	0	0
2024-05-28	11:28:29	11:38:48	618570	6.6.1	4_exp_EVA_AWA_CON	54	B	A	Rpleas_acq	Oppo	Rpleas	1pleas	acq_US_unple_nomask	acq45_nomask	5	33	400	0	300	300	0	0	533	50	0	0	freundlich	schön	spielen	treu	fair	schlau	fanatisch	schlecht	strafen	tot	faul	schroff	lachen	retten	helfen	tolerant	loyal	ehrlich	leiden	rächen	hindern	tyrannisch	lasch	eitel	1	blank2r.bmp	0	1	+	0	1	blank2r.bmp	500	1	GKQX	500	1	blank2r.bmp	880	2	schlecht	880	1	!	1232	1	!	-1	0	0	0	0	0	0
2024-05-28	11:28:29	11:38:50	620804	6.6.1	4_exp_EVA_AWA_CON	54	B	A	Rpleas_acq	Oppo	Rpleas	1pleas	acq_US_pleas_nomask	acq45_nomask	5	34	400	1	300	300	0	0	454	50	1	0	freundlich	schön	spielen	treu	fair	schlau	fanatisch	schlecht	strafen	tot	faul	schroff	lachen	retten	helfen	tolerant	loyal	ehrlich	leiden	rächen	hindern	tyrannisch	lasch	eitel	1	blank2r.bmp	0	1	+	0	1	blank2r.bmp	500	1	BMVZ	500	1	blank2r.bmp	880	5	fair	880	1	!	1232	1	!	1355	0	0	0	0	0	0
2024-05-28	11:28:29	11:38:54	624962	6.6.1	4_exp_EVA_AWA_CON	54	B	A	Rpleas_acq	Oppo	Rpleas	1pleas	acq_US_unple_nomask	acq45_nomask	5	35	400	0	300	300	0	0	2382	50	0	0	freundlich	schön	spielen	treu	fair	schlau	fanatisch	schlecht	strafen	tot	faul	schroff	lachen	retten	helfen	tolerant	loyal	ehrlich	leiden	rächen	hindern	tyrannisch	lasch	eitel	1	blank2r.bmp	0	1	+	0	1	blank2r.bmp	500	1	GKQX	500	1	blank2r.bmp	880	3	strafen	880	1	!	1232	1	!	-1	0	0	0	0	0	0
2024-05-28	11:28:29	11:38:57	627274	6.6.1	4_exp_EVA_AWA_CON	54	B	A	Rpleas_acq	Oppo	Rpleas	1pleas	acq_US_unple_nomask	acq45_nomask	5	36	400	0	300	300	0	0	532	50	0	0	freundlich	schön	spielen	treu	fair	schlau	fanatisch	schlecht	strafen	tot	faul	schroff	lachen	retten	helfen	tolerant	loyal	ehrlich	leiden	rächen	hindern	tyrannisch	lasch	eitel	1	blank2r.bmp	0	1	+	0	1	blank2r.bmp	500	1	GKQX	500	1	blank2r.bmp	880	1	fanatisch	880	1	!	1232	1	!	-1	0	0	0	0	0	0
2024-05-28	11:28:29	11:39:23	653350	6.6.1	4_exp_EVA_AWA_CON	54	B	A	Rpleas_acq	Oppo	Lpleas	1pleas	EvalRating_firsttwo	EvalRating_firsttwo	6	1	0	0	300	300	0	0	11379	line	0	2,8645833333333428072pct	freundlich	schön	spielen	treu	fair	schlau	fanatisch	schlecht	strafen	tot	faul	schroff	lachen	retten	helfen	tolerant	loyal	ehrlich	leiden	rächen	hindern	tyrannisch	lasch	eitel	1		-7	1	Wie angenehm oder unangenehm finden Sie die  Buchstabenkette ZGVK?	-7	1		-7	1		-7	1		-7	1	Unangenehm	-7	1	Angenehm	-7	0	0	0	0	0	0	0	0	0
2024-05-28	11:28:29	11:39:28	658518	6.6.1	4_exp_EVA_AWA_CON	54	B	A	Rpleas_acq	Oppo	Lpleas	1pleas	EvalRating_lastfour	EvalRating_lastfour	7	1	0	0	300	300	0	0	2788	line	0	48,5677083333333428072pct	freundlich	schön	spielen	treu	fair	schlau	fanatisch	schlecht	strafen	tot	faul	schroff	lachen	retten	helfen	tolerant	loyal	ehrlich	leiden	rächen	hindern	tyrannisch	lasch	eitel	1		-7	2	Wie angenehm oder unangenehm finden Sie die  Buchstabenkette GKQX?	-7	1		-7	1		-7	1		-7	1	Unangenehm	-7	1	Angenehm	-7	0	0	0	0	0	0	0	0	0
2024-05-28	11:28:29	11:39:30	660886	6.6.1	4_exp_EVA_AWA_CON	54	B	A	Rpleas_acq	Oppo	Lpleas	1pleas	blank_screen	EvalRating_lastfour	7	3	0	0	300	300	0	0	0	0	0	48,5677083333333428072pct	freundlich	schön	spielen	treu	fair	schlau	fanatisch	schlecht	strafen	tot	faul	schroff	lachen	retten	helfen	tolerant	loyal	ehrlich	leiden	rächen	hindern	tyrannisch	lasch	eitel	1		-8	0	0	0	0	0	0	0	0	0	0	0	0	0	0	0	0	0	0	0	0	0	0	0	0	0	0	0
2024-05-28	11:28:29	11:39:34	664559	6.6.1	4_exp_EVA_AWA_CON	54	B	A	Rpleas_acq	Oppo	Lpleas	1pleas	EvalRating_lastfour	EvalRating_lastfour	7	4	0	0	300	300	0	0	3084	line	0	-74,4791666666666571928pct	freundlich	schön	spielen	treu	fair	schlau	fanatisch	schlecht	strafen	tot	faul	schroff	lachen	retten	helfen	tolerant	loyal	ehrlich	leiden	rächen	hindern	tyrannisch	lasch	eitel	1		-8	3	Wie angenehm oder unangenehm finden Sie die  Buchstabenkette XBQM?	-8	1		-8	1		-8	1		-8	1	Unangenehm	-8	1	Angenehm	-8	0	0	0	0	0	0	0	0	0
2024-05-28	11:28:29	11:39:36	666930	6.6.1	4_exp_EVA_AWA_CON	54	B	A	Rpleas_acq	Oppo	Lpleas	1pleas	blank_screen	EvalRating_lastfour	7	6	0	0	300	300	0	0	0	0	0	-74,4791666666666571928pct	freundlich	schön	spielen	treu	fair	schlau	fanatisch	schlecht	strafen	tot	faul	schroff	lachen	retten	helfen	tolerant	loyal	ehrlich	leiden	rächen	hindern	tyrannisch	lasch	eitel	1		-8	0	0	0	0	0	0	0	0	0	0	0	0	0	0	0	0	0	0	0	0	0	0	0	0	0	0	0
2024-05-28	11:28:29	11:39:39	670016	6.6.1	4_exp_EVA_AWA_CON	54	B	A	Rpleas_acq	Oppo	Lpleas	1pleas	EvalRating_lastfour	EvalRating_lastfour	7	7	0	0	300	300	0	0	2497	line	0	-9,5052083333333285964pct	freundlich	schön	spielen	treu	fair	schlau	fanatisch	schlecht	strafen	tot	faul	schroff	lachen	retten	helfen	tolerant	loyal	ehrlich	leiden	rächen	hindern	tyrannisch	lasch	eitel	1		-8	1	Wie angenehm oder unangenehm finden Sie die  Buchstabenkette BMVZ?	-8	1		-8	1		-8	1		-8	1	Unangenehm	-8	1	Angenehm	-8	0	0	0	0	0	0	0	0	0
2024-05-28	11:28:29	11:40:18	708695	6.6.1	4_exp_EVA_AWA_CON	54	B	A	Rpleas_acq	Oppo	Lpleas	1pleas	conawa_CS1_US4	conawa1_nomask	8	1	0	0	300	300	0	0	13087	tot	1	-9,5052083333333285964pct	freundlich	schön	spielen	treu	fair	schlau	fanatisch	schlecht	strafen	tot	faul	schroff	lachen	retten	helfen	tolerant	loyal	ehrlich	leiden	rächen	hindern	tyrannisch	lasch	eitel	0	0	0	0	0	0	0	0	0	0	0	0	0	0	0	0	0	0	0	0	0	0	0	0	0	0	0	0	0	0
2024-05-28	11:28:29	11:40:18	708697	6.6.1	4_exp_EVA_AWA_CON	54	B	A	Rpleas_acq	Oppo	Lpleas	1pleas	conawa_CS1_US4_confidence	conawa1_nomask	8	1	0	0	300	300	0	0	13087	guess	1	-9,5052083333333285964pct	freundlich	schön	spielen	treu	fair	schlau	fanatisch	schlecht	strafen	tot	faul	schroff	lachen	retten	helfen	tolerant	loyal	ehrlich	leiden	rächen	hindern	tyrannisch	lasch	eitel	0	0	0	0	0	0	0	0	0	0	0	0	0	0	0	0	0	0	0	0	0	0	0	0	0	0	0	0	0	0
2024-05-28	11:28:29	11:40:28	718401	6.6.1	4_exp_EVA_AWA_CON	54	B	A	Rpleas_acq	Oppo	Lpleas	1pleas	conawa_CS2_US6	conawa1_nomask	8	2	0	0	300	300	0	0	9087	leiden	1	-9,5052083333333285964pct	freundlich	schön	spielen	treu	fair	schlau	fanatisch	schlecht	strafen	tot	faul	schroff	lachen	retten	helfen	tolerant	loyal	ehrlich	leiden	rächen	hindern	tyrannisch	lasch	eitel	0	0	0	0	0	0	0	0	0	0	0	0	0	0	0	0	0	0	0	0	0	0	0	0	0	0	0	0	0	0
2024-05-28	11:28:29	11:40:28	718403	6.6.1	4_exp_EVA_AWA_CON	54	B	A	Rpleas_acq	Oppo	Lpleas	1pleas	conawa_CS2_US6_confidence	conawa1_nomask	8	2	0	0	300	300	0	0	9087	guess	1	-9,5052083333333285964pct	freundlich	schön	spielen	treu	fair	schlau	fanatisch	schlecht	strafen	tot	faul	schroff	lachen	retten	helfen	tolerant	loyal	ehrlich	leiden	rächen	hindern	tyrannisch	lasch	eitel	0	0	0	0	0	0	0	0	0	0	0	0	0	0	0	0	0	0	0	0	0	0	0	0	0	0	0	0	0	0
2024-05-28	11:28:29	11:40:35	726006	6.6.1	4_exp_EVA_AWA_CON	54	B	A	Rpleas_acq	Oppo	Lpleas	1pleas	conawa_CS2_US2	conawa1_nomask	8	3	0	0	300	300	0	0	6991	schön	1	-9,5052083333333285964pct	freundlich	schön	spielen	treu	fair	schlau	fanatisch	schlecht	strafen	tot	faul	schroff	lachen	retten	helfen	tolerant	loyal	ehrlich	leiden	rächen	hindern	tyrannisch	lasch	eitel	0	0	0	0	0	0	0	0	0	0	0	0	0	0	0	0	0	0	0	0	0	0	0	0	0	0	0	0	0	0
2024-05-28	11:28:29	11:40:35	726008	6.6.1	4_exp_EVA_AWA_CON	54	B	A	Rpleas_acq	Oppo	Lpleas	1pleas	conawa_CS2_US2_confidence	conawa1_nomask	8	3	0	0	300	300	0	0	6991	guess	1	-9,5052083333333285964pct	freundlich	schön	spielen	treu	fair	schlau	fanatisch	schlecht	strafen	tot	faul	schroff	lachen	retten	helfen	tolerant	loyal	ehrlich	leiden	rächen	hindern	tyrannisch	lasch	eitel	0	0	0	0	0	0	0	0	0	0	0	0	0	0	0	0	0	0	0	0	0	0	0	0	0	0	0	0	0	0
2024-05-28	11:28:29	11:40:46	737164	6.6.1	4_exp_EVA_AWA_CON	54	B	A	Rpleas_acq	Oppo	Lpleas	1pleas	conawa_CS1_US6	conawa1_nomask	8	4	0	0	300	300	0	0	10539	schlau	1	-9,5052083333333285964pct	freundlich	schön	spielen	treu	fair	schlau	fanatisch	schlecht	strafen	tot	faul	schroff	lachen	retten	helfen	tolerant	loyal	ehrlich	leiden	rächen	hindern	tyrannisch	lasch	eitel	0	0	0	0	0	0	0	0	0	0	0	0	0	0	0	0	0	0	0	0	0	0	0	0	0	0	0	0	0	0
2024-05-28	11:28:29	11:40:46	737166	6.6.1	4_exp_EVA_AWA_CON	54	B	A	Rpleas_acq	Oppo	Lpleas	1pleas	conawa_CS1_US6_confidence	conawa1_nomask	8	4	0	0	300	300	0	0	10539	guess	1	-9,5052083333333285964pct	freundlich	schön	spielen	treu	fair	schlau	fanatisch	schlecht	strafen	tot	faul	schroff	lachen	retten	helfen	tolerant	loyal	ehrlich	leiden	rächen	hindern	tyrannisch	lasch	eitel	0	0	0	0	0	0	0	0	0	0	0	0	0	0	0	0	0	0	0	0	0	0	0	0	0	0	0	0	0	0
2024-05-28	11:28:29	11:40:55	745739	6.6.1	4_exp_EVA_AWA_CON	54	B	A	Rpleas_acq	Oppo	Lpleas	1pleas	conawa_CS2_US4	conawa1_nomask	8	5	0	0	300	300	0	0	7964	lasch	1	-9,5052083333333285964pct	freundlich	schön	spielen	treu	fair	schlau	fanatisch	schlecht	strafen	tot	faul	schroff	lachen	retten	helfen	tolerant	loyal	ehrlich	leiden	rächen	hindern	tyrannisch	lasch	eitel	0	0	0	0	0	0	0	0	0	0	0	0	0	0	0	0	0	0	0	0	0	0	0	0	0	0	0	0	0	0
2024-05-28	11:28:29	11:40:55	745741	6.6.1	4_exp_EVA_AWA_CON	54	B	A	Rpleas_acq	Oppo	Lpleas	1pleas	conawa_CS2_US4_confidence	conawa1_nomask	8	5	0	0	300	300	0	0	7964	guess	1	-9,5052083333333285964pct	freundlich	schön	spielen	treu	fair	schlau	fanatisch	schlecht	strafen	tot	faul	schroff	lachen	retten	helfen	tolerant	loyal	ehrlich	leiden	rächen	hindern	tyrannisch	lasch	eitel	0	0	0	0	0	0	0	0	0	0	0	0	0	0	0	0	0	0	0	0	0	0	0	0	0	0	0	0	0	0
2024-05-28	11:28:29	11:41:01	751603	6.6.1	4_exp_EVA_AWA_CON	54	B	A	Rpleas_acq	Oppo	Lpleas	1pleas	conawa_CS1_US2	conawa1_nomask	8	6	0	0	300	300	0	0	5254	retten	1	-9,5052083333333285964pct	freundlich	schön	spielen	treu	fair	schlau	fanatisch	schlecht	strafen	tot	faul	schroff	lachen	retten	helfen	tolerant	loyal	ehrlich	leiden	rächen	hindern	tyrannisch	lasch	eitel	0	0	0	0	0	0	0	0	0	0	0	0	0	0	0	0	0	0	0	0	0	0	0	0	0	0	0	0	0	0
2024-05-28	11:28:29	11:41:01	751605	6.6.1	4_exp_EVA_AWA_CON	54	B	A	Rpleas_acq	Oppo	Lpleas	1pleas	conawa_CS1_US2_confidence	conawa1_nomask	8	6	0	0	300	300	0	0	5254	guess	1	-9,5052083333333285964pct	freundlich	schön	spielen	treu	fair	schlau	fanatisch	schlecht	strafen	tot	faul	schroff	lachen	retten	helfen	tolerant	loyal	ehrlich	leiden	rächen	hindern	tyrannisch	lasch	eitel	0	0	0	0	0	0	0	0	0	0	0	0	0	0	0	0	0	0	0	0	0	0	0	0	0	0	0	0	0	0
2024-05-28	11:28:29	11:41:07	757947	6.6.1	4_exp_EVA_AWA_CON	54	B	A	Rpleas_acq	Oppo	Lpleas	1pleas	conawa_CS1_US1	conawa1_nomask	8	7	0	0	300	300	0	0	5726	fanatisch	1	-9,5052083333333285964pct	freundlich	schön	spielen	treu	fair	schlau	fanatisch	schlecht	strafen	tot	faul	schroff	lachen	retten	helfen	tolerant	loyal	ehrlich	leiden	rächen	hindern	tyrannisch	lasch	eitel	0	0	0	0	0	0	0	0	0	0	0	0	0	0	0	0	0	0	0	0	0	0	0	0	0	0	0	0	0	0
2024-05-28	11:28:29	11:41:07	757949	6.6.1	4_exp_EVA_AWA_CON	54	B	A	Rpleas_acq	Oppo	Lpleas	1pleas	conawa_CS1_US1_confidence	conawa1_nomask	8	7	0	0	300	300	0	0	5726	guess	1	-9,5052083333333285964pct	freundlich	schön	spielen	treu	fair	schlau	fanatisch	schlecht	strafen	tot	faul	schroff	lachen	retten	helfen	tolerant	loyal	ehrlich	leiden	rächen	hindern	tyrannisch	lasch	eitel	0	0	0	0	0	0	0	0	0	0	0	0	0	0	0	0	0	0	0	0	0	0	0	0	0	0	0	0	0	0
2024-05-28	11:28:29	11:41:13	764082	6.6.1	4_exp_EVA_AWA_CON	54	B	A	Rpleas_acq	Oppo	Lpleas	1pleas	conawa_CS2_US3	conawa1_nomask	8	8	0	0	300	300	0	0	5518	spielen	1	-9,5052083333333285964pct	freundlich	schön	spielen	treu	fair	schlau	fanatisch	schlecht	strafen	tot	faul	schroff	lachen	retten	helfen	tolerant	loyal	ehrlich	leiden	rächen	hindern	tyrannisch	lasch	eitel	0	0	0	0	0	0	0	0	0	0	0	0	0	0	0	0	0	0	0	0	0	0	0	0	0	0	0	0	0	0
2024-05-28	11:28:29	11:41:13	764083	6.6.1	4_exp_EVA_AWA_CON	54	B	A	Rpleas_acq	Oppo	Lpleas	1pleas	conawa_CS2_US3_confidence	conawa1_nomask	8	8	0	0	300	300	0	0	5518	guess	1	-9,5052083333333285964pct	freundlich	schön	spielen	treu	fair	schlau	fanatisch	schlecht	strafen	tot	faul	schroff	lachen	retten	helfen	tolerant	loyal	ehrlich	leiden	rächen	hindern	tyrannisch	lasch	eitel	0	0	0	0	0	0	0	0	0	0	0	0	0	0	0	0	0	0	0	0	0	0	0	0	0	0	0	0	0	0
2024-05-28	11:28:29	11:41:21	771487	6.6.1	4_exp_EVA_AWA_CON	54	B	A	Rpleas_acq	Oppo	Lpleas	1pleas	conawa_CS1_US3	conawa1_nomask	8	9	0	0	300	300	0	0	6792	spielen	1	-9,5052083333333285964pct	freundlich	schön	spielen	treu	fair	schlau	fanatisch	schlecht	strafen	tot	faul	schroff	lachen	retten	helfen	tolerant	loyal	ehrlich	leiden	rächen	hindern	tyrannisch	lasch	eitel	0	0	0	0	0	0	0	0	0	0	0	0	0	0	0	0	0	0	0	0	0	0	0	0	0	0	0	0	0	0
2024-05-28	11:28:29	11:41:21	771488	6.6.1	4_exp_EVA_AWA_CON	54	B	A	Rpleas_acq	Oppo	Lpleas	1pleas	conawa_CS1_US3_confidence	conawa1_nomask	8	9	0	0	300	300	0	0	6792	guess	1	-9,5052083333333285964pct	freundlich	schön	spielen	treu	fair	schlau	fanatisch	schlecht	strafen	tot	faul	schroff	lachen	retten	helfen	tolerant	loyal	ehrlich	leiden	rächen	hindern	tyrannisch	lasch	eitel	0	0	0	0	0	0	0	0	0	0	0	0	0	0	0	0	0	0	0	0	0	0	0	0	0	0	0	0	0	0
2024-05-28	11:28:29	11:41:28	778981	6.6.1	4_exp_EVA_AWA_CON	54	B	A	Rpleas_acq	Oppo	Lpleas	1pleas	conawa_CS2_US1	conawa1_nomask	8	10	0	0	300	300	0	0	6883	freundlich	1	-9,5052083333333285964pct	freundlich	schön	spielen	treu	fair	schlau	fanatisch	schlecht	strafen	tot	faul	schroff	lachen	retten	helfen	tolerant	loyal	ehrlich	leiden	rächen	hindern	tyrannisch	lasch	eitel	0	0	0	0	0	0	0	0	0	0	0	0	0	0	0	0	0	0	0	0	0	0	0	0	0	0	0	0	0	0
2024-05-28	11:28:29	11:41:28	778983	6.6.1	4_exp_EVA_AWA_CON	54	B	A	Rpleas_acq	Oppo	Lpleas	1pleas	conawa_CS2_US1_confidence	conawa1_nomask	8	10	0	0	300	300	0	0	6883	guess	1	-9,5052083333333285964pct	freundlich	schön	spielen	treu	fair	schlau	fanatisch	schlecht	strafen	tot	faul	schroff	lachen	retten	helfen	tolerant	loyal	ehrlich	leiden	rächen	hindern	tyrannisch	lasch	eitel	0	0	0	0	0	0	0	0	0	0	0	0	0	0	0	0	0	0	0	0	0	0	0	0	0	0	0	0	0	0
2024-05-28	11:28:29	11:41:35	785786	6.6.1	4_exp_EVA_AWA_CON	54	B	A	Rpleas_acq	Oppo	Lpleas	1pleas	conawa_CS1_US5	conawa1_nomask	8	11	0	0	300	300	0	0	6188	fair	1	-9,5052083333333285964pct	freundlich	schön	spielen	treu	fair	schlau	fanatisch	schlecht	strafen	tot	faul	schroff	lachen	retten	helfen	tolerant	loyal	ehrlich	leiden	rächen	hindern	tyrannisch	lasch	eitel	0	0	0	0	0	0	0	0	0	0	0	0	0	0	0	0	0	0	0	0	0	0	0	0	0	0	0	0	0	0
2024-05-28	11:28:29	11:41:35	785787	6.6.1	4_exp_EVA_AWA_CON	54	B	A	Rpleas_acq	Oppo	Lpleas	1pleas	conawa_CS1_US5_confidence	conawa1_nomask	8	11	0	0	300	300	0	0	6188	guess	1	-9,5052083333333285964pct	freundlich	schön	spielen	treu	fair	schlau	fanatisch	schlecht	strafen	tot	faul	schroff	lachen	retten	helfen	tolerant	loyal	ehrlich	leiden	rächen	hindern	tyrannisch	lasch	eitel	0	0	0	0	0	0	0	0	0	0	0	0	0	0	0	0	0	0	0	0	0	0	0	0	0	0	0	0	0	0
2024-05-28	11:28:29	11:41:41	791999	6.6.1	4_exp_EVA_AWA_CON	54	B	A	Rpleas_acq	Oppo	Lpleas	1pleas	conawa_CS2_US5	conawa1_nomask	8	12	0	0	300	300	0	0	5600	fair	1	-9,5052083333333285964pct	freundlich	schön	spielen	treu	fair	schlau	fanatisch	schlecht	strafen	tot	faul	schroff	lachen	retten	helfen	tolerant	loyal	ehrlich	leiden	rächen	hindern	tyrannisch	lasch	eitel	0	0	0	0	0	0	0	0	0	0	0	0	0	0	0	0	0	0	0	0	0	0	0	0	0	0	0	0	0	0
2024-05-28	11:28:29	11:41:41	792001	6.6.1	4_exp_EVA_AWA_CON	54	B	A	Rpleas_acq	Oppo	Lpleas	1pleas	conawa_CS2_US5_confidence	conawa1_nomask	8	12	0	0	300	300	0	0	5600	guess	1	-9,5052083333333285964pct	freundlich	schön	spielen	treu	fair	schlau	fanatisch	schlecht	strafen	tot	faul	schroff	lachen	retten	helfen	tolerant	loyal	ehrlich	leiden	rächen	hindern	tyrannisch	lasch	eitel	0	0	0	0	0	0	0	0	0	0	0	0	0	0	0	0	0	0	0	0	0	0	0	0	0	0	0	0	0	0
2024-05-28	11:28:29	11:42:54	864354	6.6.1	4_exp_EVA_AWA_CON	54	B	A	Rpleas_acq	Oppo	Lpleas	1pleas	cond_new_pleas_456_nomask_CS1	condtest_nomask_1	11	1	400	0	300	300	0	0	137	46	1	-9,5052083333333285964pct	freundlich	schön	spielen	treu	fair	schlau	fanatisch	schlecht	strafen	tot	faul	schroff	lachen	retten	helfen	tolerant	loyal	ehrlich	leiden	rächen	hindern	tyrannisch	lasch	eitel	1	blank2r.bmp	0	1	+	0	1	blank2r.bmp	500	1	BMVZ	500	1	blank2r.bmp	880	1	tolerant	880	1	!	-1	1	!	-1	0	0	0	0	0	0
2024-05-28	11:28:29	11:42:56	866362	6.6.1	4_exp_EVA_AWA_CON	54	B	A	Rpleas_acq	Oppo	Lpleas	1pleas	cond_US_pleas_123_nomask_CS1	condtest_nomask_1	11	2	400	0	300	300	0	0	234	46	1	-9,5052083333333285964pct	freundlich	schön	spielen	treu	fair	schlau	fanatisch	schlecht	strafen	tot	faul	schroff	lachen	retten	helfen	tolerant	loyal	ehrlich	leiden	rächen	hindern	tyrannisch	lasch	eitel	1	blank2r.bmp	0	1	+	0	1	blank2r.bmp	500	1	BMVZ	500	1	blank2r.bmp	880	2	schön	880	1	!	-1	1	!	-1	0	0	0	0	0	0
2024-05-28	11:28:29	11:42:58	868722	6.6.1	4_exp_EVA_AWA_CON	54	B	A	Rpleas_acq	Oppo	Lpleas	1pleas	cond_US_unple_123_nomask_CS2	condtest_nomask_1	11	3	400	0	300	300	0	0	583	46	0	-9,5052083333333285964pct	freundlich	schön	spielen	treu	fair	schlau	fanatisch	schlecht	strafen	tot	faul	schroff	lachen	retten	helfen	tolerant	loyal	ehrlich	leiden	rächen	hindern	tyrannisch	lasch	eitel	1	blank2r.bmp	0	1	+	0	1	blank2r.bmp	500	1	GKQX	500	1	blank2r.bmp	880	2	fanatisch	880	1	!	1232	1	!	-1	0	0	0	0	0	0
2024-05-28	11:28:29	11:43:00	871034	6.6.1	4_exp_EVA_AWA_CON	54	B	A	Rpleas_acq	Oppo	Lpleas	1pleas	cond_US_unple_123_nomask_CS1	condtest_nomask_1	11	4	400	0	300	300	0	0	533	50	1	-9,5052083333333285964pct	freundlich	schön	spielen	treu	fair	schlau	fanatisch	schlecht	strafen	tot	faul	schroff	lachen	retten	helfen	tolerant	loyal	ehrlich	leiden	rächen	hindern	tyrannisch	lasch	eitel	1	blank2r.bmp	0	1	+	0	1	blank2r.bmp	500	1	BMVZ	500	1	blank2r.bmp	880	3	strafen	880	1	!	1233	1	!	-1	0	0	0	0	0	0
2024-05-28	11:28:29	11:43:03	873288	6.6.1	4_exp_EVA_AWA_CON	54	B	A	Rpleas_acq	Oppo	Lpleas	1pleas	cond_new_pleas_456_nomask_CS2	condtest_nomask_1	11	5	400	0	300	300	0	0	478	50	0	-9,5052083333333285964pct	freundlich	schön	spielen	treu	fair	schlau	fanatisch	schlecht	strafen	tot	faul	schroff	lachen	retten	helfen	tolerant	loyal	ehrlich	leiden	rächen	hindern	tyrannisch	lasch	eitel	1	blank2r.bmp	0	1	+	0	1	blank2r.bmp	500	1	GKQX	500	1	blank2r.bmp	880	3	loyal	880	1	!	1232	1	!	-1	0	0	0	0	0	0
2024-05-28	11:28:29	11:43:05	875586	6.6.1	4_exp_EVA_AWA_CON	54	B	A	Rpleas_acq	Oppo	Lpleas	1pleas	cond_new_unple_456_nomask_CS2	condtest_nomask_1	11	6	400	0	300	300	0	0	522	46	0	-9,5052083333333285964pct	freundlich	schön	spielen	treu	fair	schlau	fanatisch	schlecht	strafen	tot	faul	schroff	lachen	retten	helfen	tolerant	loyal	ehrlich	leiden	rächen	hindern	tyrannisch	lasch	eitel	1	blank2r.bmp	0	1	+	0	1	blank2r.bmp	500	1	GKQX	500	1	blank2r.bmp	880	2	tyrannisch	880	1	!	1232	1	!	-1	0	0	0	0	0	0
2024-05-28	11:28:29	11:43:07	877690	6.6.1	4_exp_EVA_AWA_CON	54	B	A	Rpleas_acq	Oppo	Lpleas	1pleas	cond_US_pleas_123_nomask_CS2	condtest_nomask_1	11	7	400	0	300	300	0	0	325	46	1	-9,5052083333333285964pct	freundlich	schön	spielen	treu	fair	schlau	fanatisch	schlecht	strafen	tot	faul	schroff	lachen	retten	helfen	tolerant	loyal	ehrlich	leiden	rächen	hindern	tyrannisch	lasch	eitel	1	blank2r.bmp	0	1	+	0	1	blank2r.bmp	500	1	GKQX	500	1	blank2r.bmp	880	3	schön	880	1	!	-1	1	!	-1	0	0	0	0	0	0
2024-05-28	11:28:29	11:43:09	879908	6.6.1	4_exp_EVA_AWA_CON	54	B	A	Rpleas_acq	Oppo	Lpleas	1pleas	cond_new_unple_456_nomask_CS1	condtest_nomask_1	11	8	400	1	300	300	0	0	439	46	0	-9,5052083333333285964pct	freundlich	schön	spielen	treu	fair	schlau	fanatisch	schlecht	strafen	tot	faul	schroff	lachen	retten	helfen	tolerant	loyal	ehrlich	leiden	rächen	hindern	tyrannisch	lasch	eitel	1	blank2r.bmp	0	1	+	0	1	blank2r.bmp	500	1	BMVZ	500	1	blank2r.bmp	880	2	lasch	880	1	!	1232	1	!	1340	0	0	0	0	0	0
2024-05-28	11:28:29	11:43:28	898554	6.6.1	4_exp_EVA_AWA_CON	54	B	A	Rpleas_acq	Oppo	Lpleas	1pleas	cond_new_pleas_456_nomask_CS2	condtest_nomask_2	12	1	400	0	300	300	0	0	635	46	1	-9,5052083333333285964pct	freundlich	schön	spielen	treu	fair	schlau	fanatisch	schlecht	strafen	tot	faul	schroff	lachen	retten	helfen	tolerant	loyal	ehrlich	leiden	rächen	hindern	tyrannisch	lasch	eitel	1	blank2r.bmp	0	1	+	0	1	blank2r.bmp	500	1	GKQX	500	1	blank2r.bmp	880	1	ehrlich	880	1	!	1232	1	!	-1	0	0	0	0	0	0
