date	time	currenttime	elapsedtime	build	currentexpt	subject	CS_AB	US_AB	LRpleas_acq	SameOppo	condition_Lpleas	condition_1pleas	trialcode	blockcode	blocknum	trialnum	windowcenter	inwindow	pretrialpause	posttrialpause	trialduration	trialtimeout	latency	response	correct	correctedscore	US_nomask_pleas1	US_nomask_pleas2	US_nomask_pleas3	US_nomask_pleas4	US_nomask_pleas5	US_nomask_pleas6	US_nomask_unple1	US_nomask_unple2	US_nomask_unple3	US_nomask_unple4	US_nomask_unple5	US_nomask_unple6	new_nomask_pleas1	new_nomask_pleas2	new_nomask_pleas3	new_nomask_pleas4	new_nomask_pleas5	new_nomask_pleas6	new_nomask_unple1	new_nomask_unple2	new_nomask_unple3	new_nomask_unple4	new_nomask_unple5	new_nomask_unple6	stimulusnumber1	stimulusitem1	stimulusonset1	stimulusnumber2	stimulusitem2	stimulusonset2	stimulusnumber3	stimulusitem3	stimulusonset3	stimulusnumber4	stimulusitem4	stimulusonset4	stimulusnumber5	stimulusitem5	stimulusonset5	stimulusnumber6	stimulusitem6	stimulusonset6	stimulusnumber7	stimulusitem7	stimulusonset7	stimulusnumber8	stimulusitem8	stimulusonset8	stimulusnumber9	stimulusitem9	stimulusonset9	stimulusnumber10	stimulusitem10	stimulusonset10
2024-04-30	11:23:31	12:50:03	5191655	6.6.1	4_exp_EVA_AWA_CON	3	B	A	Rpleas_acq	Same	Rpleas	2pleas	acq_new_unple_nomask	acq1_nomask	1	1	0	0	300	300	0	0	3178	46	1	0	loyal	freundlich	helfen	treu	spielen	schlau	lasch	fanatisch	hindern	tot	strafen	schroff	lachen	retten	ehrlich	schön	tolerant	fair	leiden	rächen	eitel	schlecht	tyrannisch	faul	1	blank2r.bmp	0	1	+	0	1	blank2r.bmp	500	8	C4r.bmp	500	1	blank2r.bmp	880	3	eitel	880	0	0	0	0	0	0	0	0	0	0	0	0
2024-04-30	11:23:31	12:50:05	5194143	6.6.1	4_exp_EVA_AWA_CON	3	B	A	Rpleas_acq	Same	Rpleas	2pleas	acq_new_pleas_nomask	acq1_nomask	1	2	0	0	300	300	0	0	1003	50	1	0	loyal	freundlich	helfen	treu	spielen	schlau	lasch	fanatisch	hindern	tot	strafen	schroff	lachen	retten	ehrlich	schön	tolerant	fair	leiden	rächen	eitel	schlecht	tyrannisch	faul	1	blank2r.bmp	0	1	+	0	1	blank2r.bmp	500	4	B4r.bmp	500	1	blank2r.bmp	880	1	lachen	880	0	0	0	0	0	0	0	0	0	0	0	0
2024-04-30	11:23:31	12:50:09	5197704	6.6.1	4_exp_EVA_AWA_CON	3	B	A	Rpleas_acq	Same	Rpleas	2pleas	acq_US_unple_nomask	acq1_nomask	1	3	0	0	300	300	0	0	2071	46	1	0	loyal	freundlich	helfen	treu	spielen	schlau	lasch	fanatisch	hindern	tot	strafen	schroff	lachen	retten	ehrlich	schön	tolerant	fair	leiden	rächen	eitel	schlecht	tyrannisch	faul	1	blank2r.bmp	0	1	+	0	1	blank2r.bmp	500	1	BMVZ	500	1	blank2r.bmp	880	3	hindern	880	0	0	0	0	0	0	0	0	0	0	0	0
2024-04-30	11:23:31	12:50:11	5199951	6.6.1	4_exp_EVA_AWA_CON	3	B	A	Rpleas_acq	Same	Rpleas	2pleas	acq_new_unple_nomask	acq1_nomask	1	4	0	0	300	300	0	0	767	46	1	0	loyal	freundlich	helfen	treu	spielen	schlau	lasch	fanatisch	hindern	tot	strafen	schroff	lachen	retten	ehrlich	schön	tolerant	fair	leiden	rächen	eitel	schlecht	tyrannisch	faul	1	blank2r.bmp	0	1	+	0	1	blank2r.bmp	500	5	C1r.bmp	500	1	blank2r.bmp	880	2	rächen	880	0	0	0	0	0	0	0	0	0	0	0	0
2024-04-30	11:23:31	12:50:13	5202111	6.6.1	4_exp_EVA_AWA_CON	3	B	A	Rpleas_acq	Same	Rpleas	2pleas	acq_US_pleas_nomask	acq1_nomask	1	5	0	0	300	300	0	0	675	50	1	0	loyal	freundlich	helfen	treu	spielen	schlau	lasch	fanatisch	hindern	tot	strafen	schroff	lachen	retten	ehrlich	schön	tolerant	fair	leiden	rächen	eitel	schlecht	tyrannisch	faul	1	blank2r.bmp	0	1	+	0	1	blank2r.bmp	500	1	GKQX	500	1	blank2r.bmp	880	4	treu	880	0	0	0	0	0	0	0	0	0	0	0	0
2024-04-30	11:23:31	12:50:16	5204399	6.6.1	4_exp_EVA_AWA_CON	3	B	A	Rpleas_acq	Same	Rpleas	2pleas	acq_US_unple_nomask	acq1_nomask	1	6	0	0	300	300	0	0	802	46	1	0	loyal	freundlich	helfen	treu	spielen	schlau	lasch	fanatisch	hindern	tot	strafen	schroff	lachen	retten	ehrlich	schön	tolerant	fair	leiden	rächen	eitel	schlecht	tyrannisch	faul	1	blank2r.bmp	0	1	+	0	1	blank2r.bmp	500	1	BMVZ	500	1	blank2r.bmp	880	2	fanatisch	880	0	0	0	0	0	0	0	0	0	0	0	0
2024-04-30	11:23:31	12:50:18	5206471	6.6.1	4_exp_EVA_AWA_CON	3	B	A	Rpleas_acq	Same	Rpleas	2pleas	acq_new_unple_nomask	acq1_nomask	1	7	0	0	300	300	0	0	583	46	1	0	loyal	freundlich	helfen	treu	spielen	schlau	lasch	fanatisch	hindern	tot	strafen	schroff	lachen	retten	ehrlich	schön	tolerant	fair	leiden	rächen	eitel	schlecht	tyrannisch	faul	1	blank2r.bmp	0	1	+	0	1	blank2r.bmp	500	1	B1r.bmp	500	1	blank2r.bmp	880	5	tyrannisch	880	0	0	0	0	0	0	0	0	0	0	0	0
2024-04-30	11:23:31	12:50:20	5208560	6.6.1	4_exp_EVA_AWA_CON	3	B	A	Rpleas_acq	Same	Rpleas	2pleas	acq_new_pleas_nomask	acq1_nomask	1	8	0	0	300	300	0	0	599	50	1	0	loyal	freundlich	helfen	treu	spielen	schlau	lasch	fanatisch	hindern	tot	strafen	schroff	lachen	retten	ehrlich	schön	tolerant	fair	leiden	rächen	eitel	schlecht	tyrannisch	faul	1	blank2r.bmp	0	1	+	0	1	blank2r.bmp	500	2	B2r.bmp	500	1	blank2r.bmp	880	2	retten	880	0	0	0	0	0	0	0	0	0	0	0	0
2024-04-30	11:23:31	12:50:22	5210833	6.6.1	4_exp_EVA_AWA_CON	3	B	A	Rpleas_acq	Same	Rpleas	2pleas	acq_US_unple_nomask	acq1_nomask	1	9	0	0	300	300	0	0	590	50	0	0	loyal	freundlich	helfen	treu	spielen	schlau	lasch	fanatisch	hindern	tot	strafen	schroff	lachen	retten	ehrlich	schön	tolerant	fair	leiden	rächen	eitel	schlecht	tyrannisch	faul	1	blank2r.bmp	0	1	+	0	1	blank2r.bmp	500	1	BMVZ	500	1	blank2r.bmp	880	4	tot	880	1	FEHLER	1492	0	0	0	0	0	0	0	0	0
2024-04-30	11:23:31	12:50:24	5212687	6.6.1	4_exp_EVA_AWA_CON	3	B	A	Rpleas_acq	Same	Rpleas	2pleas	acq_US_pleas_nomask	acq1_nomask	1	10	0	0	300	300	0	0	575	50	1	0	loyal	freundlich	helfen	treu	spielen	schlau	lasch	fanatisch	hindern	tot	strafen	schroff	lachen	retten	ehrlich	schön	tolerant	fair	leiden	rächen	eitel	schlecht	tyrannisch	faul	1	blank2r.bmp	0	1	+	0	1	blank2r.bmp	500	1	GKQX	500	1	blank2r.bmp	880	6	schlau	880	0	0	0	0	0	0	0	0	0	0	0	0
2024-04-30	11:23:31	12:50:26	5215032	6.6.1	4_exp_EVA_AWA_CON	3	B	A	Rpleas_acq	Same	Rpleas	2pleas	acq_new_pleas_nomask	acq1_nomask	1	11	0	0	300	300	0	0	657	46	0	0	loyal	freundlich	helfen	treu	spielen	schlau	lasch	fanatisch	hindern	tot	strafen	schroff	lachen	retten	ehrlich	schön	tolerant	fair	leiden	rächen	eitel	schlecht	tyrannisch	faul	1	blank2r.bmp	0	1	+	0	1	blank2r.bmp	500	7	C3r.bmp	500	1	blank2r.bmp	880	4	schön	880	1	FEHLER	1559	0	0	0	0	0	0	0	0	0
2024-04-30	11:23:31	12:50:28	5216863	6.6.1	4_exp_EVA_AWA_CON	3	B	A	Rpleas_acq	Same	Rpleas	2pleas	acq_US_pleas_nomask	acq1_nomask	1	12	0	0	300	300	0	0	548	50	1	0	loyal	freundlich	helfen	treu	spielen	schlau	lasch	fanatisch	hindern	tot	strafen	schroff	lachen	retten	ehrlich	schön	tolerant	fair	leiden	rächen	eitel	schlecht	tyrannisch	faul	1	blank2r.bmp	0	1	+	0	1	blank2r.bmp	500	1	GKQX	500	1	blank2r.bmp	880	2	freundlich	880	0	0	0	0	0	0	0	0	0	0	0	0
2024-04-30	11:23:31	12:50:30	5218927	6.6.1	4_exp_EVA_AWA_CON	3	B	A	Rpleas_acq	Same	Rpleas	2pleas	acq_US_pleas_nomask	acq1_nomask	1	13	0	0	300	300	0	0	580	50	1	0	loyal	freundlich	helfen	treu	spielen	schlau	lasch	fanatisch	hindern	tot	strafen	schroff	lachen	retten	ehrlich	schön	tolerant	fair	leiden	rächen	eitel	schlecht	tyrannisch	faul	1	blank2r.bmp	0	1	+	0	1	blank2r.bmp	500	1	GKQX	500	1	blank2r.bmp	880	5	spielen	880	0	0	0	0	0	0	0	0	0	0	0	0
2024-04-30	11:23:31	12:50:32	5221079	6.6.1	4_exp_EVA_AWA_CON	3	B	A	Rpleas_acq	Same	Rpleas	2pleas	acq_new_pleas_nomask	acq1_nomask	1	14	0	0	300	300	0	0	671	50	1	0	loyal	freundlich	helfen	treu	spielen	schlau	lasch	fanatisch	hindern	tot	strafen	schroff	lachen	retten	ehrlich	schön	tolerant	fair	leiden	rächen	eitel	schlecht	tyrannisch	faul	1	blank2r.bmp	0	1	+	0	1	blank2r.bmp	500	6	C2r.bmp	500	1	blank2r.bmp	880	6	fair	880	0	0	0	0	0	0	0	0	0	0	0	0
2024-04-30	11:23:31	12:50:34	5223127	6.6.1	4_exp_EVA_AWA_CON	3	B	A	Rpleas_acq	Same	Rpleas	2pleas	acq_new_pleas_nomask	acq1_nomask	1	15	0	0	300	300	0	0	558	50	1	0	loyal	freundlich	helfen	treu	spielen	schlau	lasch	fanatisch	hindern	tot	strafen	schroff	lachen	retten	ehrlich	schön	tolerant	fair	leiden	rächen	eitel	schlecht	tyrannisch	faul	1	blank2r.bmp	0	1	+	0	1	blank2r.bmp	500	3	B3r.bmp	500	1	blank2r.bmp	880	3	ehrlich	880	0	0	0	0	0	0	0	0	0	0	0	0
2024-04-30	11:23:31	12:50:37	5225272	6.6.1	4_exp_EVA_AWA_CON	3	B	A	Rpleas_acq	Same	Rpleas	2pleas	acq_new_pleas_nomask	acq1_nomask	1	16	0	0	300	300	0	0	660	50	1	0	loyal	freundlich	helfen	treu	spielen	schlau	lasch	fanatisch	hindern	tot	strafen	schroff	lachen	retten	ehrlich	schön	tolerant	fair	leiden	rächen	eitel	schlecht	tyrannisch	faul	1	blank2r.bmp	0	1	+	0	1	blank2r.bmp	500	6	C2r.bmp	500	1	blank2r.bmp	880	5	tolerant	880	0	0	0	0	0	0	0	0	0	0	0	0
2024-04-30	11:23:31	12:50:39	5227415	6.6.1	4_exp_EVA_AWA_CON	3	B	A	Rpleas_acq	Same	Rpleas	2pleas	acq_new_unple_nomask	acq1_nomask	1	17	0	0	300	300	0	0	663	46	1	0	loyal	freundlich	helfen	treu	spielen	schlau	lasch	fanatisch	hindern	tot	strafen	schroff	lachen	retten	ehrlich	schön	tolerant	fair	leiden	rächen	eitel	schlecht	tyrannisch	faul	1	blank2r.bmp	0	1	+	0	1	blank2r.bmp	500	2	B2r.bmp	500	1	blank2r.bmp	880	6	faul	880	0	0	0	0	0	0	0	0	0	0	0	0
2024-04-30	11:23:31	12:50:41	5229479	6.6.1	4_exp_EVA_AWA_CON	3	B	A	Rpleas_acq	Same	Rpleas	2pleas	acq_US_pleas_nomask	acq1_nomask	1	18	0	0	300	300	0	0	576	50	1	0	loyal	freundlich	helfen	treu	spielen	schlau	lasch	fanatisch	hindern	tot	strafen	schroff	lachen	retten	ehrlich	schön	tolerant	fair	leiden	rächen	eitel	schlecht	tyrannisch	faul	1	blank2r.bmp	0	1	+	0	1	blank2r.bmp	500	1	GKQX	500	1	blank2r.bmp	880	1	loyal	880	0	0	0	0	0	0	0	0	0	0	0	0
2024-04-30	11:23:31	12:50:43	5231639	6.6.1	4_exp_EVA_AWA_CON	3	B	A	Rpleas_acq	Same	Rpleas	2pleas	acq_US_unple_nomask	acq1_nomask	1	19	0	0	300	300	0	0	674	46	1	0	loyal	freundlich	helfen	treu	spielen	schlau	lasch	fanatisch	hindern	tot	strafen	schroff	lachen	retten	ehrlich	schön	tolerant	fair	leiden	rächen	eitel	schlecht	tyrannisch	faul	1	blank2r.bmp	0	1	+	0	1	blank2r.bmp	500	1	BMVZ	500	1	blank2r.bmp	880	1	lasch	880	0	0	0	0	0	0	0	0	0	0	0	0
2024-04-30	11:23:31	12:50:45	5233751	6.6.1	4_exp_EVA_AWA_CON	3	B	A	Rpleas_acq	Same	Rpleas	2pleas	acq_new_unple_nomask	acq1_nomask	1	20	0	0	300	300	0	0	625	46	1	0	loyal	freundlich	helfen	treu	spielen	schlau	lasch	fanatisch	hindern	tot	strafen	schroff	lachen	retten	ehrlich	schön	tolerant	fair	leiden	rächen	eitel	schlecht	tyrannisch	faul	1	blank2r.bmp	0	1	+	0	1	blank2r.bmp	500	5	C1r.bmp	500	1	blank2r.bmp	880	1	leiden	880	0	0	0	0	0	0	0	0	0	0	0	0
2024-04-30	11:23:31	12:50:47	5235879	6.6.1	4_exp_EVA_AWA_CON	3	B	A	Rpleas_acq	Same	Rpleas	2pleas	acq_US_unple_nomask	acq1_nomask	1	21	0	0	300	300	0	0	641	46	1	0	loyal	freundlich	helfen	treu	spielen	schlau	lasch	fanatisch	hindern	tot	strafen	schroff	lachen	retten	ehrlich	schön	tolerant	fair	leiden	rächen	eitel	schlecht	tyrannisch	faul	1	blank2r.bmp	0	1	+	0	1	blank2r.bmp	500	1	BMVZ	500	1	blank2r.bmp	880	5	strafen	880	0	0	0	0	0	0	0	0	0	0	0	0
2024-04-30	11:23:31	12:50:49	5237943	6.6.1	4_exp_EVA_AWA_CON	3	B	A	Rpleas_acq	Same	Rpleas	2pleas	acq_US_pleas_nomask	acq1_nomask	1	22	0	0	300	300	0	0	574	50	1	0	loyal	freundlich	helfen	treu	spielen	schlau	lasch	fanatisch	hindern	tot	strafen	schroff	lachen	retten	ehrlich	schön	tolerant	fair	leiden	rächen	eitel	schlecht	tyrannisch	faul	1	blank2r.bmp	0	1	+	0	1	blank2r.bmp	500	1	GKQX	500	1	blank2r.bmp	880	3	helfen	880	0	0	0	0	0	0	0	0	0	0	0	0
2024-04-30	11:23:31	12:50:52	5240337	6.6.1	4_exp_EVA_AWA_CON	3	B	A	Rpleas_acq	Same	Rpleas	2pleas	acq_new_unple_nomask	acq1_nomask	1	23	0	0	300	300	0	0	705	50	0	0	loyal	freundlich	helfen	treu	spielen	schlau	lasch	fanatisch	hindern	tot	strafen	schroff	lachen	retten	ehrlich	schön	tolerant	fair	leiden	rächen	eitel	schlecht	tyrannisch	faul	1	blank2r.bmp	0	1	+	0	1	blank2r.bmp	500	7	C3r.bmp	500	1	blank2r.bmp	880	4	schlecht	880	1	FEHLER	1607	0	0	0	0	0	0	0	0	0
2024-04-30	11:23:31	12:50:54	5242263	6.6.1	4_exp_EVA_AWA_CON	3	B	A	Rpleas_acq	Same	Rpleas	2pleas	acq_US_unple_nomask	acq1_nomask	1	24	0	0	300	300	0	0	641	46	1	0	loyal	freundlich	helfen	treu	spielen	schlau	lasch	fanatisch	hindern	tot	strafen	schroff	lachen	retten	ehrlich	schön	tolerant	fair	leiden	rächen	eitel	schlecht	tyrannisch	faul	1	blank2r.bmp	0	1	+	0	1	blank2r.bmp	500	1	BMVZ	500	1	blank2r.bmp	880	6	schroff	880	0	0	0	0	0	0	0	0	0	0	0	0
2024-04-30	11:23:31	12:50:56	5244511	6.6.1	4_exp_EVA_AWA_CON	3	B	A	Rpleas_acq	Same	Rpleas	2pleas	acq_new_unple_nomask	acq1_nomask	1	25	0	0	300	300	0	0	758	46	1	0	loyal	freundlich	helfen	treu	spielen	schlau	lasch	fanatisch	hindern	tot	strafen	schroff	lachen	retten	ehrlich	schön	tolerant	fair	leiden	rächen	eitel	schlecht	tyrannisch	faul	1	blank2r.bmp	0	1	+	0	1	blank2r.bmp	500	3	B3r.bmp	500	1	blank2r.bmp	880	3	eitel	880	0	0	0	0	0	0	0	0	0	0	0	0
2024-04-30	11:23:31	12:50:58	5246495	6.6.1	4_exp_EVA_AWA_CON	3	B	A	Rpleas_acq	Same	Rpleas	2pleas	acq_US_unple_nomask	acq1_nomask	1	26	0	0	300	300	0	0	500	46	1	0	loyal	freundlich	helfen	treu	spielen	schlau	lasch	fanatisch	hindern	tot	strafen	schroff	lachen	retten	ehrlich	schön	tolerant	fair	leiden	rächen	eitel	schlecht	tyrannisch	faul	1	blank2r.bmp	0	1	+	0	1	blank2r.bmp	500	1	BMVZ	500	1	blank2r.bmp	880	4	tot	880	0	0	0	0	0	0	0	0	0	0	0	0
2024-04-30	11:23:31	12:51:00	5248623	6.6.1	4_exp_EVA_AWA_CON	3	B	A	Rpleas_acq	Same	Rpleas	2pleas	acq_new_unple_nomask	acq1_nomask	1	27	0	0	300	300	0	0	647	46	1	0	loyal	freundlich	helfen	treu	spielen	schlau	lasch	fanatisch	hindern	tot	strafen	schroff	lachen	retten	ehrlich	schön	tolerant	fair	leiden	rächen	eitel	schlecht	tyrannisch	faul	1	blank2r.bmp	0	1	+	0	1	blank2r.bmp	500	4	B4r.bmp	500	1	blank2r.bmp	880	5	tyrannisch	880	0	0	0	0	0	0	0	0	0	0	0	0
2024-04-30	11:23:31	12:51:02	5250655	6.6.1	4_exp_EVA_AWA_CON	3	B	A	Rpleas_acq	Same	Rpleas	2pleas	acq_new_pleas_nomask	acq1_nomask	1	28	0	0	300	300	0	0	548	50	1	0	loyal	freundlich	helfen	treu	spielen	schlau	lasch	fanatisch	hindern	tot	strafen	schroff	lachen	retten	ehrlich	schön	tolerant	fair	leiden	rächen	eitel	schlecht	tyrannisch	faul	1	blank2r.bmp	0	1	+	0	1	blank2r.bmp	500	8	C4r.bmp	500	1	blank2r.bmp	880	4	schön	880	0	0	0	0	0	0	0	0	0	0	0	0
2024-04-30	11:23:31	12:51:04	5252663	6.6.1	4_exp_EVA_AWA_CON	3	B	A	Rpleas_acq	Same	Rpleas	2pleas	acq_US_unple_nomask	acq1_nomask	1	29	0	0	300	300	0	0	524	46	1	0	loyal	freundlich	helfen	treu	spielen	schlau	lasch	fanatisch	hindern	tot	strafen	schroff	lachen	retten	ehrlich	schön	tolerant	fair	leiden	rächen	eitel	schlecht	tyrannisch	faul	1	blank2r.bmp	0	1	+	0	1	blank2r.bmp	500	1	BMVZ	500	1	blank2r.bmp	880	6	schroff	880	0	0	0	0	0	0	0	0	0	0	0	0
2024-04-30	11:23:31	12:51:06	5254751	6.6.1	4_exp_EVA_AWA_CON	3	B	A	Rpleas_acq	Same	Rpleas	2pleas	acq_US_pleas_nomask	acq1_nomask	1	30	0	0	300	300	0	0	601	50	1	0	loyal	freundlich	helfen	treu	spielen	schlau	lasch	fanatisch	hindern	tot	strafen	schroff	lachen	retten	ehrlich	schön	tolerant	fair	leiden	rächen	eitel	schlecht	tyrannisch	faul	1	blank2r.bmp	0	1	+	0	1	blank2r.bmp	500	1	GKQX	500	1	blank2r.bmp	880	3	helfen	880	0	0	0	0	0	0	0	0	0	0	0	0
2024-04-30	11:23:31	12:51:08	5256943	6.6.1	4_exp_EVA_AWA_CON	3	B	A	Rpleas_acq	Same	Rpleas	2pleas	acq_new_unple_nomask	acq1_nomask	1	31	0	0	300	300	0	0	712	46	1	0	loyal	freundlich	helfen	treu	spielen	schlau	lasch	fanatisch	hindern	tot	strafen	schroff	lachen	retten	ehrlich	schön	tolerant	fair	leiden	rächen	eitel	schlecht	tyrannisch	faul	1	blank2r.bmp	0	1	+	0	1	blank2r.bmp	500	1	B1r.bmp	500	1	blank2r.bmp	880	1	leiden	880	0	0	0	0	0	0	0	0	0	0	0	0
2024-04-30	11:23:31	12:51:10	5259079	6.6.1	4_exp_EVA_AWA_CON	3	B	A	Rpleas_acq	Same	Rpleas	2pleas	acq_US_unple_nomask	acq1_nomask	1	32	0	0	300	300	0	0	646	46	1	0	loyal	freundlich	helfen	treu	spielen	schlau	lasch	fanatisch	hindern	tot	strafen	schroff	lachen	retten	ehrlich	schön	tolerant	fair	leiden	rächen	eitel	schlecht	tyrannisch	faul	1	blank2r.bmp	0	1	+	0	1	blank2r.bmp	500	1	BMVZ	500	1	blank2r.bmp	880	5	strafen	880	0	0	0	0	0	0	0	0	0	0	0	0
2024-04-30	11:23:31	12:51:12	5261063	6.6.1	4_exp_EVA_AWA_CON	3	B	A	Rpleas_acq	Same	Rpleas	2pleas	acq_new_pleas_nomask	acq1_nomask	1	33	0	0	300	300	0	0	499	50	1	0	loyal	freundlich	helfen	treu	spielen	schlau	lasch	fanatisch	hindern	tot	strafen	schroff	lachen	retten	ehrlich	schön	tolerant	fair	leiden	rächen	eitel	schlecht	tyrannisch	faul	1	blank2r.bmp	0	1	+	0	1	blank2r.bmp	500	7	C3r.bmp	500	1	blank2r.bmp	880	6	fair	880	0	0	0	0	0	0	0	0	0	0	0	0
2024-04-30	11:23:31	12:51:15	5263727	6.6.1	4_exp_EVA_AWA_CON	3	B	A	Rpleas_acq	Same	Rpleas	2pleas	acq_new_pleas_nomask	acq1_nomask	1	34	0	0	300	300	0	0	1182	50	1	0	loyal	freundlich	helfen	treu	spielen	schlau	lasch	fanatisch	hindern	tot	strafen	schroff	lachen	retten	ehrlich	schön	tolerant	fair	leiden	rächen	eitel	schlecht	tyrannisch	faul	1	blank2r.bmp	0	1	+	0	1	blank2r.bmp	500	6	C2r.bmp	500	1	blank2r.bmp	880	3	ehrlich	880	0	0	0	0	0	0	0	0	0	0	0	0
2024-04-30	11:23:31	12:51:17	5265703	6.6.1	4_exp_EVA_AWA_CON	3	B	A	Rpleas_acq	Same	Rpleas	2pleas	acq_US_pleas_nomask	acq1_nomask	1	35	0	0	300	300	0	0	486	50	1	0	loyal	freundlich	helfen	treu	spielen	schlau	lasch	fanatisch	hindern	tot	strafen	schroff	lachen	retten	ehrlich	schön	tolerant	fair	leiden	rächen	eitel	schlecht	tyrannisch	faul	1	blank2r.bmp	0	1	+	0	1	blank2r.bmp	500	1	GKQX	500	1	blank2r.bmp	880	4	treu	880	0	0	0	0	0	0	0	0	0	0	0	0
2024-04-30	11:23:31	12:51:19	5267687	6.6.1	4_exp_EVA_AWA_CON	3	B	A	Rpleas_acq	Same	Rpleas	2pleas	acq_US_pleas_nomask	acq1_nomask	1	36	0	0	300	300	0	0	499	50	1	0	loyal	freundlich	helfen	treu	spielen	schlau	lasch	fanatisch	hindern	tot	strafen	schroff	lachen	retten	ehrlich	schön	tolerant	fair	leiden	rächen	eitel	schlecht	tyrannisch	faul	1	blank2r.bmp	0	1	+	0	1	blank2r.bmp	500	1	GKQX	500	1	blank2r.bmp	880	5	spielen	880	0	0	0	0	0	0	0	0	0	0	0	0
2024-04-30	11:23:31	12:52:24	5333057	6.6.1	4_exp_EVA_AWA_CON	3	B	A	Rpleas_acq	Same	Rpleas	2pleas	acq_new_pleas_nomask	acq2_nomask	2	1	480	0	300	300	0	0	977	50	1	0	loyal	freundlich	helfen	treu	spielen	schlau	lasch	fanatisch	hindern	tot	strafen	schroff	lachen	retten	ehrlich	schön	tolerant	fair	leiden	rächen	eitel	schlecht	tyrannisch	faul	1	blank2r.bmp	0	1	+	0	1	blank2r.bmp	500	2	B2r.bmp	500	1	blank2r.bmp	880	5	tolerant	880	1	!	1313	1	!	-1	0	0	0	0	0	0
2024-04-30	11:23:31	12:52:27	5335980	6.6.1	4_exp_EVA_AWA_CON	3	B	A	Rpleas_acq	Same	Rpleas	2pleas	acq_US_pleas_nomask	acq2_nomask	2	2	480	0	300	300	0	0	945	46	0	0	loyal	freundlich	helfen	treu	spielen	schlau	lasch	fanatisch	hindern	tot	strafen	schroff	lachen	retten	ehrlich	schön	tolerant	fair	leiden	rächen	eitel	schlecht	tyrannisch	faul	1	blank2r.bmp	0	1	+	0	1	blank2r.bmp	500	1	GKQX	500	1	blank2r.bmp	880	6	schlau	880	1	FEHLER	2138	1	!	1313	1	!	-1	0	0	0
2024-04-30	11:23:31	12:52:29	5338002	6.6.1	4_exp_EVA_AWA_CON	3	B	A	Rpleas_acq	Same	Rpleas	2pleas	acq_US_pleas_nomask	acq2_nomask	2	3	480	1	300	300	0	0	447	50	1	0	loyal	freundlich	helfen	treu	spielen	schlau	lasch	fanatisch	hindern	tot	strafen	schroff	lachen	retten	ehrlich	schön	tolerant	fair	leiden	rächen	eitel	schlecht	tyrannisch	faul	1	blank2r.bmp	0	1	+	0	1	blank2r.bmp	500	1	GKQX	500	1	blank2r.bmp	880	2	freundlich	880	1	!	1313	1	!	1348	0	0	0	0	0	0
2024-04-30	11:23:31	12:52:32	5340489	6.6.1	4_exp_EVA_AWA_CON	3	B	A	Rpleas_acq	Same	Rpleas	2pleas	acq_US_unple_nomask	acq2_nomask	2	4	480	0	300	300	0	0	713	46	1	0	loyal	freundlich	helfen	treu	spielen	schlau	lasch	fanatisch	hindern	tot	strafen	schroff	lachen	retten	ehrlich	schön	tolerant	fair	leiden	rächen	eitel	schlecht	tyrannisch	faul	1	blank2r.bmp	0	1	+	0	1	blank2r.bmp	500	1	BMVZ	500	1	blank2r.bmp	880	3	hindern	880	1	!	1312	1	!	-1	0	0	0	0	0	0
2024-04-30	11:23:31	12:52:34	5342841	6.6.1	4_exp_EVA_AWA_CON	3	B	A	Rpleas_acq	Same	Rpleas	2pleas	acq_US_pleas_nomask	acq2_nomask	2	5	480	0	300	300	0	0	574	50	1	0	loyal	freundlich	helfen	treu	spielen	schlau	lasch	fanatisch	hindern	tot	strafen	schroff	lachen	retten	ehrlich	schön	tolerant	fair	leiden	rächen	eitel	schlecht	tyrannisch	faul	1	blank2r.bmp	0	1	+	0	1	blank2r.bmp	500	1	GKQX	500	1	blank2r.bmp	880	1	loyal	880	1	!	1313	1	!	-1	0	0	0	0	0	0
2024-04-30	11:23:31	12:52:36	5345091	6.6.1	4_exp_EVA_AWA_CON	3	B	A	Rpleas_acq	Same	Rpleas	2pleas	acq_US_unple_nomask	acq2_nomask	2	6	480	1	300	300	0	0	470	46	1	0	loyal	freundlich	helfen	treu	spielen	schlau	lasch	fanatisch	hindern	tot	strafen	schroff	lachen	retten	ehrlich	schön	tolerant	fair	leiden	rächen	eitel	schlecht	tyrannisch	faul	1	blank2r.bmp	0	1	+	0	1	blank2r.bmp	500	1	BMVZ	500	1	blank2r.bmp	880	2	fanatisch	880	1	!	1313	1	!	1372	0	0	0	0	0	0
2024-04-30	11:23:31	12:52:39	5347241	6.6.1	4_exp_EVA_AWA_CON	3	B	A	Rpleas_acq	Same	Rpleas	2pleas	acq_US_unple_nomask	acq2_nomask	2	7	480	0	300	300	0	0	371	46	1	0	loyal	freundlich	helfen	treu	spielen	schlau	lasch	fanatisch	hindern	tot	strafen	schroff	lachen	retten	ehrlich	schön	tolerant	fair	leiden	rächen	eitel	schlecht	tyrannisch	faul	1	blank2r.bmp	0	1	+	0	1	blank2r.bmp	500	1	BMVZ	500	1	blank2r.bmp	880	1	lasch	880	1	!	-1	1	!	-1	0	0	0	0	0	0
2024-04-30	11:23:31	12:52:41	5349737	6.6.1	4_exp_EVA_AWA_CON	3	B	A	Rpleas_acq	Same	Rpleas	2pleas	acq_new_unple_nomask	acq2_nomask	2	8	480	0	300	300	0	0	715	46	1	0	loyal	freundlich	helfen	treu	spielen	schlau	lasch	fanatisch	hindern	tot	strafen	schroff	lachen	retten	ehrlich	schön	tolerant	fair	leiden	rächen	eitel	schlecht	tyrannisch	faul	1	blank2r.bmp	0	1	+	0	1	blank2r.bmp	500	3	B3r.bmp	500	1	blank2r.bmp	880	2	rächen	880	1	!	1313	1	!	-1	0	0	0	0	0	0
2024-04-30	11:23:31	12:52:43	5351947	6.6.1	4_exp_EVA_AWA_CON	3	B	A	Rpleas_acq	Same	Rpleas	2pleas	acq_new_unple_nomask	acq2_nomask	2	9	480	1	300	300	0	0	432	46	1	0	loyal	freundlich	helfen	treu	spielen	schlau	lasch	fanatisch	hindern	tot	strafen	schroff	lachen	retten	ehrlich	schön	tolerant	fair	leiden	rächen	eitel	schlecht	tyrannisch	faul	1	blank2r.bmp	0	1	+	0	1	blank2r.bmp	500	4	B4r.bmp	500	1	blank2r.bmp	880	4	schlecht	880	1	!	1312	1	!	1333	0	0	0	0	0	0
2024-04-30	11:23:31	12:52:46	5354285	6.6.1	4_exp_EVA_AWA_CON	3	B	A	Rpleas_acq	Same	Rpleas	2pleas	acq_new_pleas_nomask	acq2_nomask	2	10	480	0	300	300	0	0	356	46	0	0	loyal	freundlich	helfen	treu	spielen	schlau	lasch	fanatisch	hindern	tot	strafen	schroff	lachen	retten	ehrlich	schön	tolerant	fair	leiden	rächen	eitel	schlecht	tyrannisch	faul	1	blank2r.bmp	0	1	+	0	1	blank2r.bmp	500	8	C4r.bmp	500	1	blank2r.bmp	880	2	retten	880	1	FEHLER	1550	1	!	-1	1	!	-1	0	0	0
2024-04-30	11:23:31	12:52:48	5356363	6.6.1	4_exp_EVA_AWA_CON	3	B	A	Rpleas_acq	Same	Rpleas	2pleas	acq_new_unple_nomask	acq2_nomask	2	11	480	1	300	300	0	0	505	46	1	0	loyal	freundlich	helfen	treu	spielen	schlau	lasch	fanatisch	hindern	tot	strafen	schroff	lachen	retten	ehrlich	schön	tolerant	fair	leiden	rächen	eitel	schlecht	tyrannisch	faul	1	blank2r.bmp	0	1	+	0	1	blank2r.bmp	500	5	C1r.bmp	500	1	blank2r.bmp	880	6	faul	880	1	!	1313	1	!	1406	0	0	0	0	0	0
2024-04-30	11:23:31	12:52:50	5358788	6.6.1	4_exp_EVA_AWA_CON	3	B	A	Rpleas_acq	Same	Rpleas	2pleas	acq_new_pleas_nomask	acq2_nomask	2	12	480	1	300	300	0	0	448	46	0	0	loyal	freundlich	helfen	treu	spielen	schlau	lasch	fanatisch	hindern	tot	strafen	schroff	lachen	retten	ehrlich	schön	tolerant	fair	leiden	rächen	eitel	schlecht	tyrannisch	faul	1	blank2r.bmp	0	1	+	0	1	blank2r.bmp	500	1	B1r.bmp	500	1	blank2r.bmp	880	1	lachen	880	1	FEHLER	1641	1	!	1313	1	!	1349	0	0	0
2024-04-30	11:23:31	12:52:52	5360795	6.6.1	4_exp_EVA_AWA_CON	3	B	A	Rpleas_acq	Same	Rpleas	2pleas	acq_new_pleas_nomask	acq2_nomask	2	13	480	1	300	300	0	0	434	50	1	0	loyal	freundlich	helfen	treu	spielen	schlau	lasch	fanatisch	hindern	tot	strafen	schroff	lachen	retten	ehrlich	schön	tolerant	fair	leiden	rächen	eitel	schlecht	tyrannisch	faul	1	blank2r.bmp	0	1	+	0	1	blank2r.bmp	500	7	C3r.bmp	500	1	blank2r.bmp	880	4	schön	880	1	!	1313	1	!	1336	0	0	0	0	0	0
2024-04-30	11:23:31	12:52:54	5362977	6.6.1	4_exp_EVA_AWA_CON	3	B	A	Rpleas_acq	Same	Rpleas	2pleas	acq_US_unple_nomask	acq2_nomask	2	14	480	0	300	300	0	0	407	46	1	0	loyal	freundlich	helfen	treu	spielen	schlau	lasch	fanatisch	hindern	tot	strafen	schroff	lachen	retten	ehrlich	schön	tolerant	fair	leiden	rächen	eitel	schlecht	tyrannisch	faul	1	blank2r.bmp	0	1	+	0	1	blank2r.bmp	500	1	BMVZ	500	1	blank2r.bmp	880	4	tot	880	1	!	-1	1	!	-1	0	0	0	0	0	0
2024-04-30	11:23:31	12:52:57	5365227	6.6.1	4_exp_EVA_AWA_CON	3	B	A	Rpleas_acq	Same	Rpleas	2pleas	acq_new_unple_nomask	acq2_nomask	2	15	480	1	300	300	0	0	473	46	1	0	loyal	freundlich	helfen	treu	spielen	schlau	lasch	fanatisch	hindern	tot	strafen	schroff	lachen	retten	ehrlich	schön	tolerant	fair	leiden	rächen	eitel	schlecht	tyrannisch	faul	1	blank2r.bmp	0	1	+	0	1	blank2r.bmp	500	1	B1r.bmp	500	1	blank2r.bmp	880	6	faul	880	1	!	1312	1	!	1375	0	0	0	0	0	0
2024-04-30	11:23:31	12:52:59	5367354	6.6.1	4_exp_EVA_AWA_CON	3	B	A	Rpleas_acq	Same	Rpleas	2pleas	acq_US_unple_nomask	acq2_nomask	2	16	480	0	300	300	0	0	350	46	1	0	loyal	freundlich	helfen	treu	spielen	schlau	lasch	fanatisch	hindern	tot	strafen	schroff	lachen	retten	ehrlich	schön	tolerant	fair	leiden	rächen	eitel	schlecht	tyrannisch	faul	1	blank2r.bmp	0	1	+	0	1	blank2r.bmp	500	1	BMVZ	500	1	blank2r.bmp	880	5	strafen	880	1	!	-1	1	!	-1	0	0	0	0	0	0
2024-04-30	11:23:31	12:53:01	5369553	6.6.1	4_exp_EVA_AWA_CON	3	B	A	Rpleas_acq	Same	Rpleas	2pleas	acq_US_pleas_nomask	acq2_nomask	2	17	480	1	300	300	0	0	418	50	1	0	loyal	freundlich	helfen	treu	spielen	schlau	lasch	fanatisch	hindern	tot	strafen	schroff	lachen	retten	ehrlich	schön	tolerant	fair	leiden	rächen	eitel	schlecht	tyrannisch	faul	1	blank2r.bmp	0	1	+	0	1	blank2r.bmp	500	1	GKQX	500	1	blank2r.bmp	880	4	treu	880	1	!	1312	1	!	1318	0	0	0	0	0	0
2024-04-30	11:23:31	12:53:03	5371905	6.6.1	4_exp_EVA_AWA_CON	3	B	A	Rpleas_acq	Same	Rpleas	2pleas	acq_new_unple_nomask	acq2_nomask	2	18	480	0	300	300	0	0	579	46	1	0	loyal	freundlich	helfen	treu	spielen	schlau	lasch	fanatisch	hindern	tot	strafen	schroff	lachen	retten	ehrlich	schön	tolerant	fair	leiden	rächen	eitel	schlecht	tyrannisch	faul	1	blank2r.bmp	0	1	+	0	1	blank2r.bmp	500	3	B3r.bmp	500	1	blank2r.bmp	880	3	eitel	880	1	!	1313	1	!	-1	0	0	0	0	0	0
2024-04-30	11:23:31	12:53:05	5374105	6.6.1	4_exp_EVA_AWA_CON	3	B	A	Rpleas_acq	Same	Rpleas	2pleas	acq_new_unple_nomask	acq2_nomask	2	19	480	1	300	300	0	0	417	46	1	0	loyal	freundlich	helfen	treu	spielen	schlau	lasch	fanatisch	hindern	tot	strafen	schroff	lachen	retten	ehrlich	schön	tolerant	fair	leiden	rächen	eitel	schlecht	tyrannisch	faul	1	blank2r.bmp	0	1	+	0	1	blank2r.bmp	500	6	C2r.bmp	500	1	blank2r.bmp	880	1	leiden	880	1	!	1313	1	!	1317	0	0	0	0	0	0
2024-04-30	11:23:31	12:53:08	5376421	6.6.1	4_exp_EVA_AWA_CON	3	B	A	Rpleas_acq	Same	Rpleas	2pleas	acq_US_pleas_nomask	acq2_nomask	2	20	480	0	300	300	0	0	338	46	0	0	loyal	freundlich	helfen	treu	spielen	schlau	lasch	fanatisch	hindern	tot	strafen	schroff	lachen	retten	ehrlich	schön	tolerant	fair	leiden	rächen	eitel	schlecht	tyrannisch	faul	1	blank2r.bmp	0	1	+	0	1	blank2r.bmp	500	1	GKQX	500	1	blank2r.bmp	880	3	helfen	880	1	FEHLER	1532	1	!	-1	1	!	-1	0	0	0
2024-04-30	11:23:31	12:53:10	5378892	6.6.1	4_exp_EVA_AWA_CON	3	B	A	Rpleas_acq	Same	Rpleas	2pleas	acq_new_pleas_nomask	acq2_nomask	2	21	480	0	300	300	0	0	699	46	0	0	loyal	freundlich	helfen	treu	spielen	schlau	lasch	fanatisch	hindern	tot	strafen	schroff	lachen	retten	ehrlich	schön	tolerant	fair	leiden	rächen	eitel	schlecht	tyrannisch	faul	1	blank2r.bmp	0	1	+	0	1	blank2r.bmp	500	8	C4r.bmp	500	1	blank2r.bmp	880	3	ehrlich	880	1	FEHLER	1892	1	!	1313	1	!	-1	0	0	0
2024-04-30	11:23:31	12:53:13	5381171	6.6.1	4_exp_EVA_AWA_CON	3	B	A	Rpleas_acq	Same	Rpleas	2pleas	acq_new_pleas_nomask	acq2_nomask	2	22	480	1	300	300	0	0	507	46	0	0	loyal	freundlich	helfen	treu	spielen	schlau	lasch	fanatisch	hindern	tot	strafen	schroff	lachen	retten	ehrlich	schön	tolerant	fair	leiden	rächen	eitel	schlecht	tyrannisch	faul	1	blank2r.bmp	0	1	+	0	1	blank2r.bmp	500	2	B2r.bmp	500	1	blank2r.bmp	880	1	lachen	880	1	FEHLER	1700	1	!	1313	1	!	1409	0	0	0
2024-04-30	11:23:31	12:53:15	5383195	6.6.1	4_exp_EVA_AWA_CON	3	B	A	Rpleas_acq	Same	Rpleas	2pleas	acq_US_pleas_nomask	acq2_nomask	2	23	480	1	300	300	0	0	450	50	1	0	loyal	freundlich	helfen	treu	spielen	schlau	lasch	fanatisch	hindern	tot	strafen	schroff	lachen	retten	ehrlich	schön	tolerant	fair	leiden	rächen	eitel	schlecht	tyrannisch	faul	1	blank2r.bmp	0	1	+	0	1	blank2r.bmp	500	1	GKQX	500	1	blank2r.bmp	880	1	loyal	880	1	!	1313	1	!	1352	0	0	0	0	0	0
2024-04-30	11:23:31	12:53:17	5385535	6.6.1	4_exp_EVA_AWA_CON	3	B	A	Rpleas_acq	Same	Rpleas	2pleas	acq_US_unple_nomask	acq2_nomask	2	24	480	0	300	300	0	0	562	46	1	0	loyal	freundlich	helfen	treu	spielen	schlau	lasch	fanatisch	hindern	tot	strafen	schroff	lachen	retten	ehrlich	schön	tolerant	fair	leiden	rächen	eitel	schlecht	tyrannisch	faul	1	blank2r.bmp	0	1	+	0	1	blank2r.bmp	500	1	BMVZ	500	1	blank2r.bmp	880	2	fanatisch	880	1	!	1312	1	!	-1	0	0	0	0	0	0
2024-04-30	11:23:31	12:53:19	5388012	6.6.1	4_exp_EVA_AWA_CON	3	B	A	Rpleas_acq	Same	Rpleas	2pleas	acq_new_pleas_nomask	acq2_nomask	2	25	480	1	300	300	0	0	493	46	0	0	loyal	freundlich	helfen	treu	spielen	schlau	lasch	fanatisch	hindern	tot	strafen	schroff	lachen	retten	ehrlich	schön	tolerant	fair	leiden	rächen	eitel	schlecht	tyrannisch	faul	1	blank2r.bmp	0	1	+	0	1	blank2r.bmp	500	4	B4r.bmp	500	1	blank2r.bmp	880	2	retten	880	1	FEHLER	1686	1	!	1313	1	!	1394	0	0	0
2024-04-30	11:23:31	12:53:22	5390292	6.6.1	4_exp_EVA_AWA_CON	3	B	A	Rpleas_acq	Same	Rpleas	2pleas	acq_US_unple_nomask	acq2_nomask	2	26	480	1	300	300	0	0	501	50	0	0	loyal	freundlich	helfen	treu	spielen	schlau	lasch	fanatisch	hindern	tot	strafen	schroff	lachen	retten	ehrlich	schön	tolerant	fair	leiden	rächen	eitel	schlecht	tyrannisch	faul	1	blank2r.bmp	0	1	+	0	1	blank2r.bmp	500	1	BMVZ	500	1	blank2r.bmp	880	1	lasch	880	1	FEHLER	1695	1	!	1313	1	!	1403	0	0	0
2024-04-30	11:23:31	12:53:24	5392354	6.6.1	4_exp_EVA_AWA_CON	3	B	A	Rpleas_acq	Same	Rpleas	2pleas	acq_new_pleas_nomask	acq2_nomask	2	27	480	1	300	300	0	0	484	50	1	0	loyal	freundlich	helfen	treu	spielen	schlau	lasch	fanatisch	hindern	tot	strafen	schroff	lachen	retten	ehrlich	schön	tolerant	fair	leiden	rächen	eitel	schlecht	tyrannisch	faul	1	blank2r.bmp	0	1	+	0	1	blank2r.bmp	500	5	C1r.bmp	500	1	blank2r.bmp	880	6	fair	880	1	!	1312	1	!	1385	0	0	0	0	0	0
2024-04-30	11:23:31	12:53:26	5394578	6.6.1	4_exp_EVA_AWA_CON	3	B	A	Rpleas_acq	Same	Rpleas	2pleas	acq_US_unple_nomask	acq2_nomask	2	28	480	1	300	300	0	0	446	46	1	0	loyal	freundlich	helfen	treu	spielen	schlau	lasch	fanatisch	hindern	tot	strafen	schroff	lachen	retten	ehrlich	schön	tolerant	fair	leiden	rächen	eitel	schlecht	tyrannisch	faul	1	blank2r.bmp	0	1	+	0	1	blank2r.bmp	500	1	BMVZ	500	1	blank2r.bmp	880	6	schroff	880	1	!	1312	1	!	1347	0	0	0	0	0	0
2024-04-30	11:23:31	12:53:28	5396753	6.6.1	4_exp_EVA_AWA_CON	3	B	A	Rpleas_acq	Same	Rpleas	2pleas	acq_US_pleas_nomask	acq2_nomask	2	29	480	0	300	300	0	0	401	50	1	0	loyal	freundlich	helfen	treu	spielen	schlau	lasch	fanatisch	hindern	tot	strafen	schroff	lachen	retten	ehrlich	schön	tolerant	fair	leiden	rächen	eitel	schlecht	tyrannisch	faul	1	blank2r.bmp	0	1	+	0	1	blank2r.bmp	500	1	GKQX	500	1	blank2r.bmp	880	2	freundlich	880	1	!	-1	1	!	-1	0	0	0	0	0	0
2024-04-30	11:23:31	12:53:31	5399236	6.6.1	4_exp_EVA_AWA_CON	3	B	A	Rpleas_acq	Same	Rpleas	2pleas	acq_new_pleas_nomask	acq2_nomask	2	30	480	1	300	300	0	0	499	46	0	0	loyal	freundlich	helfen	treu	spielen	schlau	lasch	fanatisch	hindern	tot	strafen	schroff	lachen	retten	ehrlich	schön	tolerant	fair	leiden	rächen	eitel	schlecht	tyrannisch	faul	1	blank2r.bmp	0	1	+	0	1	blank2r.bmp	500	7	C3r.bmp	500	1	blank2r.bmp	880	5	tolerant	880	1	FEHLER	1693	1	!	1313	1	!	1401	0	0	0
2024-04-30	11:23:31	12:53:33	5401274	6.6.1	4_exp_EVA_AWA_CON	3	B	A	Rpleas_acq	Same	Rpleas	2pleas	acq_new_unple_nomask	acq2_nomask	2	31	480	1	300	300	0	0	458	46	1	0	loyal	freundlich	helfen	treu	spielen	schlau	lasch	fanatisch	hindern	tot	strafen	schroff	lachen	retten	ehrlich	schön	tolerant	fair	leiden	rächen	eitel	schlecht	tyrannisch	faul	1	blank2r.bmp	0	1	+	0	1	blank2r.bmp	500	4	B4r.bmp	500	1	blank2r.bmp	880	2	rächen	880	1	!	1312	1	!	1359	0	0	0	0	0	0
2024-04-30	11:23:31	12:53:35	5403482	6.6.1	4_exp_EVA_AWA_CON	3	B	A	Rpleas_acq	Same	Rpleas	2pleas	acq_new_unple_nomask	acq2_nomask	2	32	480	1	300	300	0	0	434	46	1	0	loyal	freundlich	helfen	treu	spielen	schlau	lasch	fanatisch	hindern	tot	strafen	schroff	lachen	retten	ehrlich	schön	tolerant	fair	leiden	rächen	eitel	schlecht	tyrannisch	faul	1	blank2r.bmp	0	1	+	0	1	blank2r.bmp	500	1	B1r.bmp	500	1	blank2r.bmp	880	5	tyrannisch	880	1	!	1312	1	!	1336	0	0	0	0	0	0
2024-04-30	11:23:31	12:53:37	5405747	6.6.1	4_exp_EVA_AWA_CON	3	B	A	Rpleas_acq	Same	Rpleas	2pleas	acq_US_pleas_nomask	acq2_nomask	2	33	480	1	300	300	0	0	487	50	1	0	loyal	freundlich	helfen	treu	spielen	schlau	lasch	fanatisch	hindern	tot	strafen	schroff	lachen	retten	ehrlich	schön	tolerant	fair	leiden	rächen	eitel	schlecht	tyrannisch	faul	1	blank2r.bmp	0	1	+	0	1	blank2r.bmp	500	1	GKQX	500	1	blank2r.bmp	880	6	schlau	880	1	!	1312	1	!	1388	0	0	0	0	0	0
2024-04-30	11:23:31	12:53:39	5408002	6.6.1	4_exp_EVA_AWA_CON	3	B	A	Rpleas_acq	Same	Rpleas	2pleas	acq_new_unple_nomask	acq2_nomask	2	34	480	1	300	300	0	0	481	46	1	0	loyal	freundlich	helfen	treu	spielen	schlau	lasch	fanatisch	hindern	tot	strafen	schroff	lachen	retten	ehrlich	schön	tolerant	fair	leiden	rächen	eitel	schlecht	tyrannisch	faul	1	blank2r.bmp	0	1	+	0	1	blank2r.bmp	500	2	B2r.bmp	500	1	blank2r.bmp	880	4	schlecht	880	1	!	1312	1	!	1383	0	0	0	0	0	0
2024-04-30	11:23:31	12:53:42	5410226	6.6.1	4_exp_EVA_AWA_CON	3	B	A	Rpleas_acq	Same	Rpleas	2pleas	acq_US_pleas_nomask	acq2_nomask	2	35	480	1	300	300	0	0	444	50	1	0	loyal	freundlich	helfen	treu	spielen	schlau	lasch	fanatisch	hindern	tot	strafen	schroff	lachen	retten	ehrlich	schön	tolerant	fair	leiden	rächen	eitel	schlecht	tyrannisch	faul	1	blank2r.bmp	0	1	+	0	1	blank2r.bmp	500	1	GKQX	500	1	blank2r.bmp	880	5	spielen	880	1	!	1312	1	!	1345	0	0	0	0	0	0
2024-04-30	11:23:31	12:53:44	5412466	6.6.1	4_exp_EVA_AWA_CON	3	B	A	Rpleas_acq	Same	Rpleas	2pleas	acq_US_unple_nomask	acq2_nomask	2	36	480	1	300	300	0	0	462	46	1	0	loyal	freundlich	helfen	treu	spielen	schlau	lasch	fanatisch	hindern	tot	strafen	schroff	lachen	retten	ehrlich	schön	tolerant	fair	leiden	rächen	eitel	schlecht	tyrannisch	faul	1	blank2r.bmp	0	1	+	0	1	blank2r.bmp	500	1	BMVZ	500	1	blank2r.bmp	880	3	hindern	880	1	!	1312	1	!	1364	0	0	0	0	0	0
2024-04-30	11:23:31	12:54:08	5436945	6.6.1	4_exp_EVA_AWA_CON	3	B	A	Rpleas_acq	Same	Rpleas	2pleas	acq_US_unple_nomask	acq3_nomask	3	1	453	0	300	300	0	0	537	46	1	0	loyal	freundlich	helfen	treu	spielen	schlau	lasch	fanatisch	hindern	tot	strafen	schroff	lachen	retten	ehrlich	schön	tolerant	fair	leiden	rächen	eitel	schlecht	tyrannisch	faul	1	blank2r.bmp	0	1	+	0	1	blank2r.bmp	500	1	BMVZ	500	1	blank2r.bmp	880	3	hindern	880	1	!	1293	1	!	-1	0	0	0	0	0	0
2024-04-30	11:23:31	12:54:11	5439265	6.6.1	4_exp_EVA_AWA_CON	3	B	A	Rpleas_acq	Same	Rpleas	2pleas	acq_US_pleas_nomask	acq3_nomask	3	2	453	0	300	300	0	0	545	50	1	0	loyal	freundlich	helfen	treu	spielen	schlau	lasch	fanatisch	hindern	tot	strafen	schroff	lachen	retten	ehrlich	schön	tolerant	fair	leiden	rächen	eitel	schlecht	tyrannisch	faul	1	blank2r.bmp	0	1	+	0	1	blank2r.bmp	500	1	GKQX	500	1	blank2r.bmp	880	1	loyal	880	1	!	1292	1	!	-1	0	0	0	0	0	0
2024-04-30	11:23:31	12:54:13	5441523	6.6.1	4_exp_EVA_AWA_CON	3	B	A	Rpleas_acq	Same	Rpleas	2pleas	acq_US_unple_nomask	acq3_nomask	3	3	453	1	300	300	0	0	480	46	1	0	loyal	freundlich	helfen	treu	spielen	schlau	lasch	fanatisch	hindern	tot	strafen	schroff	lachen	retten	ehrlich	schön	tolerant	fair	leiden	rächen	eitel	schlecht	tyrannisch	faul	1	blank2r.bmp	0	1	+	0	1	blank2r.bmp	500	1	BMVZ	500	1	blank2r.bmp	880	6	schroff	880	1	!	1293	1	!	1382	0	0	0	0	0	0
2024-04-30	11:23:31	12:54:15	5443723	6.6.1	4_exp_EVA_AWA_CON	3	B	A	Rpleas_acq	Same	Rpleas	2pleas	acq_US_pleas_nomask	acq3_nomask	3	4	453	1	300	300	0	0	418	50	1	0	loyal	freundlich	helfen	treu	spielen	schlau	lasch	fanatisch	hindern	tot	strafen	schroff	lachen	retten	ehrlich	schön	tolerant	fair	leiden	rächen	eitel	schlecht	tyrannisch	faul	1	blank2r.bmp	0	1	+	0	1	blank2r.bmp	500	1	GKQX	500	1	blank2r.bmp	880	4	treu	880	1	!	1293	1	!	1319	0	0	0	0	0	0
2024-04-30	11:23:31	12:54:17	5445930	6.6.1	4_exp_EVA_AWA_CON	3	B	A	Rpleas_acq	Same	Rpleas	2pleas	acq_US_unple_nomask	acq3_nomask	3	5	453	1	300	300	0	0	435	46	1	0	loyal	freundlich	helfen	treu	spielen	schlau	lasch	fanatisch	hindern	tot	strafen	schroff	lachen	retten	ehrlich	schön	tolerant	fair	leiden	rächen	eitel	schlecht	tyrannisch	faul	1	blank2r.bmp	0	1	+	0	1	blank2r.bmp	500	1	BMVZ	500	1	blank2r.bmp	880	4	tot	880	1	!	1292	1	!	1336	0	0	0	0	0	0
2024-04-30	11:23:31	12:54:20	5448237	6.6.1	4_exp_EVA_AWA_CON	3	B	A	Rpleas_acq	Same	Rpleas	2pleas	acq_US_unple_nomask	acq3_nomask	3	6	453	0	300	300	0	0	327	50	0	0	loyal	freundlich	helfen	treu	spielen	schlau	lasch	fanatisch	hindern	tot	strafen	schroff	lachen	retten	ehrlich	schön	tolerant	fair	leiden	rächen	eitel	schlecht	tyrannisch	faul	1	blank2r.bmp	0	1	+	0	1	blank2r.bmp	500	1	BMVZ	500	1	blank2r.bmp	880	2	fanatisch	880	1	FEHLER	1521	1	!	-1	1	!	-1	0	0	0
2024-04-30	11:23:31	12:54:22	5450489	6.6.1	4_exp_EVA_AWA_CON	3	B	A	Rpleas_acq	Same	Rpleas	2pleas	acq_US_pleas_nomask	acq3_nomask	3	7	453	0	300	300	0	0	682	50	1	0	loyal	freundlich	helfen	treu	spielen	schlau	lasch	fanatisch	hindern	tot	strafen	schroff	lachen	retten	ehrlich	schön	tolerant	fair	leiden	rächen	eitel	schlecht	tyrannisch	faul	1	blank2r.bmp	0	1	+	0	1	blank2r.bmp	500	1	GKQX	500	1	blank2r.bmp	880	6	schlau	880	1	!	1293	1	!	-1	0	0	0	0	0	0
2024-04-30	11:23:31	12:54:24	5452900	6.6.1	4_exp_EVA_AWA_CON	3	B	A	Rpleas_acq	Same	Rpleas	2pleas	acq_US_pleas_nomask	acq3_nomask	3	8	453	1	300	300	0	0	428	46	0	0	loyal	freundlich	helfen	treu	spielen	schlau	lasch	fanatisch	hindern	tot	strafen	schroff	lachen	retten	ehrlich	schön	tolerant	fair	leiden	rächen	eitel	schlecht	tyrannisch	faul	1	blank2r.bmp	0	1	+	0	1	blank2r.bmp	500	1	GKQX	500	1	blank2r.bmp	880	3	helfen	880	1	FEHLER	1622	1	!	1293	1	!	1329	0	0	0
2024-04-30	11:23:31	12:54:26	5454931	6.6.1	4_exp_EVA_AWA_CON	3	B	A	Rpleas_acq	Same	Rpleas	2pleas	acq_US_pleas_nomask	acq3_nomask	3	9	453	1	300	300	0	0	449	50	1	0	loyal	freundlich	helfen	treu	spielen	schlau	lasch	fanatisch	hindern	tot	strafen	schroff	lachen	retten	ehrlich	schön	tolerant	fair	leiden	rächen	eitel	schlecht	tyrannisch	faul	1	blank2r.bmp	0	1	+	0	1	blank2r.bmp	500	1	GKQX	500	1	blank2r.bmp	880	2	freundlich	880	1	!	1293	1	!	1350	0	0	0	0	0	0
2024-04-30	11:23:31	12:54:28	5457163	6.6.1	4_exp_EVA_AWA_CON	3	B	A	Rpleas_acq	Same	Rpleas	2pleas	acq_US_unple_nomask	acq3_nomask	3	10	453	1	300	300	0	0	449	46	1	0	loyal	freundlich	helfen	treu	spielen	schlau	lasch	fanatisch	hindern	tot	strafen	schroff	lachen	retten	ehrlich	schön	tolerant	fair	leiden	rächen	eitel	schlecht	tyrannisch	faul	1	blank2r.bmp	0	1	+	0	1	blank2r.bmp	500	1	BMVZ	500	1	blank2r.bmp	880	5	strafen	880	1	!	1292	1	!	1351	0	0	0	0	0	0
2024-04-30	11:23:31	12:54:31	5459481	6.6.1	4_exp_EVA_AWA_CON	3	B	A	Rpleas_acq	Same	Rpleas	2pleas	acq_US_unple_nomask	acq3_nomask	3	11	453	0	300	300	0	0	538	46	1	0	loyal	freundlich	helfen	treu	spielen	schlau	lasch	fanatisch	hindern	tot	strafen	schroff	lachen	retten	ehrlich	schön	tolerant	fair	leiden	rächen	eitel	schlecht	tyrannisch	faul	1	blank2r.bmp	0	1	+	0	1	blank2r.bmp	500	1	BMVZ	500	1	blank2r.bmp	880	1	lasch	880	1	!	1293	1	!	-1	0	0	0	0	0	0
2024-04-30	11:23:31	12:54:33	5461845	6.6.1	4_exp_EVA_AWA_CON	3	B	A	Rpleas_acq	Same	Rpleas	2pleas	acq_US_pleas_nomask	acq3_nomask	3	12	453	0	300	300	0	0	386	46	0	0	loyal	freundlich	helfen	treu	spielen	schlau	lasch	fanatisch	hindern	tot	strafen	schroff	lachen	retten	ehrlich	schön	tolerant	fair	leiden	rächen	eitel	schlecht	tyrannisch	faul	1	blank2r.bmp	0	1	+	0	1	blank2r.bmp	500	1	GKQX	500	1	blank2r.bmp	880	5	spielen	880	1	FEHLER	1580	1	!	-1	1	!	-1	0	0	0
2024-04-30	11:23:31	12:54:35	5463930	6.6.1	4_exp_EVA_AWA_CON	3	B	A	Rpleas_acq	Same	Rpleas	2pleas	acq_US_unple_nomask	acq3_nomask	3	13	453	1	300	300	0	0	513	46	1	0	loyal	freundlich	helfen	treu	spielen	schlau	lasch	fanatisch	hindern	tot	strafen	schroff	lachen	retten	ehrlich	schön	tolerant	fair	leiden	rächen	eitel	schlecht	tyrannisch	faul	1	blank2r.bmp	0	1	+	0	1	blank2r.bmp	500	1	BMVZ	500	1	blank2r.bmp	880	5	strafen	880	1	!	1293	1	!	1414	0	0	0	0	0	0
2024-04-30	11:23:31	12:54:38	5466300	6.6.1	4_exp_EVA_AWA_CON	3	B	A	Rpleas_acq	Same	Rpleas	2pleas	acq_US_pleas_nomask	acq3_nomask	3	14	453	0	300	300	0	0	389	46	0	0	loyal	freundlich	helfen	treu	spielen	schlau	lasch	fanatisch	hindern	tot	strafen	schroff	lachen	retten	ehrlich	schön	tolerant	fair	leiden	rächen	eitel	schlecht	tyrannisch	faul	1	blank2r.bmp	0	1	+	0	1	blank2r.bmp	500	1	GKQX	500	1	blank2r.bmp	880	5	spielen	880	1	FEHLER	1583	1	!	-1	1	!	-1	0	0	0
2024-04-30	11:23:31	12:54:40	5468481	6.6.1	4_exp_EVA_AWA_CON	3	B	A	Rpleas_acq	Same	Rpleas	2pleas	acq_US_unple_nomask	acq3_nomask	3	15	453	0	300	300	0	0	602	46	1	0	loyal	freundlich	helfen	treu	spielen	schlau	lasch	fanatisch	hindern	tot	strafen	schroff	lachen	retten	ehrlich	schön	tolerant	fair	leiden	rächen	eitel	schlecht	tyrannisch	faul	1	blank2r.bmp	0	1	+	0	1	blank2r.bmp	500	1	BMVZ	500	1	blank2r.bmp	880	2	fanatisch	880	1	!	1292	1	!	-1	0	0	0	0	0	0
2024-04-30	11:23:31	12:54:42	5470836	6.6.1	4_exp_EVA_AWA_CON	3	B	A	Rpleas_acq	Same	Rpleas	2pleas	acq_US_pleas_nomask	acq3_nomask	3	16	453	0	300	300	0	0	372	46	0	0	loyal	freundlich	helfen	treu	spielen	schlau	lasch	fanatisch	hindern	tot	strafen	schroff	lachen	retten	ehrlich	schön	tolerant	fair	leiden	rächen	eitel	schlecht	tyrannisch	faul	1	blank2r.bmp	0	1	+	0	1	blank2r.bmp	500	1	GKQX	500	1	blank2r.bmp	880	4	treu	880	1	FEHLER	1566	1	!	-1	1	!	-1	0	0	0
2024-04-30	11:23:31	12:54:44	5472883	6.6.1	4_exp_EVA_AWA_CON	3	B	A	Rpleas_acq	Same	Rpleas	2pleas	acq_US_unple_nomask	acq3_nomask	3	17	453	1	300	300	0	0	469	46	1	0	loyal	freundlich	helfen	treu	spielen	schlau	lasch	fanatisch	hindern	tot	strafen	schroff	lachen	retten	ehrlich	schön	tolerant	fair	leiden	rächen	eitel	schlecht	tyrannisch	faul	1	blank2r.bmp	0	1	+	0	1	blank2r.bmp	500	1	BMVZ	500	1	blank2r.bmp	880	4	tot	880	1	!	1292	1	!	1370	0	0	0	0	0	0
2024-04-30	11:23:31	12:54:46	5474994	6.6.1	4_exp_EVA_AWA_CON	3	B	A	Rpleas_acq	Same	Rpleas	2pleas	acq_US_unple_nomask	acq3_nomask	3	18	453	0	300	300	0	0	330	46	1	0	loyal	freundlich	helfen	treu	spielen	schlau	lasch	fanatisch	hindern	tot	strafen	schroff	lachen	retten	ehrlich	schön	tolerant	fair	leiden	rächen	eitel	schlecht	tyrannisch	faul	1	blank2r.bmp	0	1	+	0	1	blank2r.bmp	500	1	BMVZ	500	1	blank2r.bmp	880	1	lasch	880	1	!	-1	1	!	-1	0	0	0	0	0	0
2024-04-30	11:23:31	12:54:49	5477324	6.6.1	4_exp_EVA_AWA_CON	3	B	A	Rpleas_acq	Same	Rpleas	2pleas	acq_US_pleas_nomask	acq3_nomask	3	19	453	0	300	300	0	0	346	46	0	0	loyal	freundlich	helfen	treu	spielen	schlau	lasch	fanatisch	hindern	tot	strafen	schroff	lachen	retten	ehrlich	schön	tolerant	fair	leiden	rächen	eitel	schlecht	tyrannisch	faul	1	blank2r.bmp	0	1	+	0	1	blank2r.bmp	500	1	GKQX	500	1	blank2r.bmp	880	3	helfen	880	1	FEHLER	1540	1	!	-1	1	!	-1	0	0	0
2024-04-30	11:23:31	12:54:51	5479516	6.6.1	4_exp_EVA_AWA_CON	3	B	A	Rpleas_acq	Same	Rpleas	2pleas	acq_US_pleas_nomask	acq3_nomask	3	20	453	1	300	300	0	0	417	46	0	0	loyal	freundlich	helfen	treu	spielen	schlau	lasch	fanatisch	hindern	tot	strafen	schroff	lachen	retten	ehrlich	schön	tolerant	fair	leiden	rächen	eitel	schlecht	tyrannisch	faul	1	blank2r.bmp	0	1	+	0	1	blank2r.bmp	500	1	GKQX	500	1	blank2r.bmp	880	1	loyal	880	1	FEHLER	1610	1	!	1293	1	!	1318	0	0	0
2024-04-30	11:23:31	12:54:53	5481570	6.6.1	4_exp_EVA_AWA_CON	3	B	A	Rpleas_acq	Same	Rpleas	2pleas	acq_US_pleas_nomask	acq3_nomask	3	21	453	1	300	300	0	0	481	50	1	0	loyal	freundlich	helfen	treu	spielen	schlau	lasch	fanatisch	hindern	tot	strafen	schroff	lachen	retten	ehrlich	schön	tolerant	fair	leiden	rächen	eitel	schlecht	tyrannisch	faul	1	blank2r.bmp	0	1	+	0	1	blank2r.bmp	500	1	GKQX	500	1	blank2r.bmp	880	2	freundlich	880	1	!	1293	1	!	1383	0	0	0	0	0	0
2024-04-30	11:23:31	12:54:55	5483786	6.6.1	4_exp_EVA_AWA_CON	3	B	A	Rpleas_acq	Same	Rpleas	2pleas	acq_US_unple_nomask	acq3_nomask	3	22	453	1	300	300	0	0	436	46	1	0	loyal	freundlich	helfen	treu	spielen	schlau	lasch	fanatisch	hindern	tot	strafen	schroff	lachen	retten	ehrlich	schön	tolerant	fair	leiden	rächen	eitel	schlecht	tyrannisch	faul	1	blank2r.bmp	0	1	+	0	1	blank2r.bmp	500	1	BMVZ	500	1	blank2r.bmp	880	3	hindern	880	1	!	1292	1	!	1337	0	0	0	0	0	0
2024-04-30	11:23:31	12:54:57	5485833	6.6.1	4_exp_EVA_AWA_CON	3	B	A	Rpleas_acq	Same	Rpleas	2pleas	acq_US_pleas_nomask	acq3_nomask	3	23	453	0	300	300	0	0	273	50	1	0	loyal	freundlich	helfen	treu	spielen	schlau	lasch	fanatisch	hindern	tot	strafen	schroff	lachen	retten	ehrlich	schön	tolerant	fair	leiden	rächen	eitel	schlecht	tyrannisch	faul	1	blank2r.bmp	0	1	+	0	1	blank2r.bmp	500	1	GKQX	500	1	blank2r.bmp	880	6	schlau	880	1	!	-1	1	!	-1	0	0	0	0	0	0
2024-04-30	11:23:31	12:54:59	5488026	6.6.1	4_exp_EVA_AWA_CON	3	B	A	Rpleas_acq	Same	Rpleas	2pleas	acq_US_unple_nomask	acq3_nomask	3	24	453	1	300	300	0	0	413	46	1	0	loyal	freundlich	helfen	treu	spielen	schlau	lasch	fanatisch	hindern	tot	strafen	schroff	lachen	retten	ehrlich	schön	tolerant	fair	leiden	rächen	eitel	schlecht	tyrannisch	faul	1	blank2r.bmp	0	1	+	0	1	blank2r.bmp	500	1	BMVZ	500	1	blank2r.bmp	880	6	schroff	880	1	!	1292	1	!	1314	0	0	0	0	0	0
2024-04-30	11:23:31	12:55:02	5490284	6.6.1	4_exp_EVA_AWA_CON	3	B	A	Rpleas_acq	Same	Rpleas	2pleas	acq_US_unple_nomask	acq3_nomask	3	25	453	0	300	300	0	0	278	50	0	0	loyal	freundlich	helfen	treu	spielen	schlau	lasch	fanatisch	hindern	tot	strafen	schroff	lachen	retten	ehrlich	schön	tolerant	fair	leiden	rächen	eitel	schlecht	tyrannisch	faul	1	blank2r.bmp	0	1	+	0	1	blank2r.bmp	500	1	BMVZ	500	1	blank2r.bmp	880	5	strafen	880	1	FEHLER	1471	1	!	-1	1	!	-1	0	0	0
2024-04-30	11:23:31	12:55:04	5492201	6.6.1	4_exp_EVA_AWA_CON	3	B	A	Rpleas_acq	Same	Rpleas	2pleas	acq_US_unple_nomask	acq3_nomask	3	26	453	0	300	300	0	0	346	46	1	0	loyal	freundlich	helfen	treu	spielen	schlau	lasch	fanatisch	hindern	tot	strafen	schroff	lachen	retten	ehrlich	schön	tolerant	fair	leiden	rächen	eitel	schlecht	tyrannisch	faul	1	blank2r.bmp	0	1	+	0	1	blank2r.bmp	500	1	BMVZ	500	1	blank2r.bmp	880	6	schroff	880	1	!	-1	1	!	-1	0	0	0	0	0	0
2024-04-30	11:23:31	12:55:06	5494434	6.6.1	4_exp_EVA_AWA_CON	3	B	A	Rpleas_acq	Same	Rpleas	2pleas	acq_US_pleas_nomask	acq3_nomask	3	27	453	1	300	300	0	0	457	50	1	0	loyal	freundlich	helfen	treu	spielen	schlau	lasch	fanatisch	hindern	tot	strafen	schroff	lachen	retten	ehrlich	schön	tolerant	fair	leiden	rächen	eitel	schlecht	tyrannisch	faul	1	blank2r.bmp	0	1	+	0	1	blank2r.bmp	500	1	GKQX	500	1	blank2r.bmp	880	2	freundlich	880	1	!	1293	1	!	1358	0	0	0	0	0	0
2024-04-30	11:23:31	12:55:08	5496642	6.6.1	4_exp_EVA_AWA_CON	3	B	A	Rpleas_acq	Same	Rpleas	2pleas	acq_US_pleas_nomask	acq3_nomask	3	28	453	1	300	300	0	0	434	50	1	0	loyal	freundlich	helfen	treu	spielen	schlau	lasch	fanatisch	hindern	tot	strafen	schroff	lachen	retten	ehrlich	schön	tolerant	fair	leiden	rächen	eitel	schlecht	tyrannisch	faul	1	blank2r.bmp	0	1	+	0	1	blank2r.bmp	500	1	GKQX	500	1	blank2r.bmp	880	5	spielen	880	1	!	1292	1	!	1335	0	0	0	0	0	0
2024-04-30	11:23:31	12:55:10	5498851	6.6.1	4_exp_EVA_AWA_CON	3	B	A	Rpleas_acq	Same	Rpleas	2pleas	acq_US_unple_nomask	acq3_nomask	3	29	453	1	300	300	0	0	430	46	1	0	loyal	freundlich	helfen	treu	spielen	schlau	lasch	fanatisch	hindern	tot	strafen	schroff	lachen	retten	ehrlich	schön	tolerant	fair	leiden	rächen	eitel	schlecht	tyrannisch	faul	1	blank2r.bmp	0	1	+	0	1	blank2r.bmp	500	1	BMVZ	500	1	blank2r.bmp	880	1	lasch	880	1	!	1292	1	!	1332	0	0	0	0	0	0
2024-04-30	11:23:31	12:55:13	5501188	6.6.1	4_exp_EVA_AWA_CON	3	B	A	Rpleas_acq	Same	Rpleas	2pleas	acq_US_pleas_nomask	acq3_nomask	3	30	453	0	300	300	0	0	355	46	0	0	loyal	freundlich	helfen	treu	spielen	schlau	lasch	fanatisch	hindern	tot	strafen	schroff	lachen	retten	ehrlich	schön	tolerant	fair	leiden	rächen	eitel	schlecht	tyrannisch	faul	1	blank2r.bmp	0	1	+	0	1	blank2r.bmp	500	1	GKQX	500	1	blank2r.bmp	880	6	schlau	880	1	FEHLER	1548	1	!	-1	1	!	-1	0	0	0
2024-04-30	11:23:31	12:55:15	5503499	6.6.1	4_exp_EVA_AWA_CON	3	B	A	Rpleas_acq	Same	Rpleas	2pleas	acq_US_unple_nomask	acq3_nomask	3	31	453	0	300	300	0	0	535	50	0	0	loyal	freundlich	helfen	treu	spielen	schlau	lasch	fanatisch	hindern	tot	strafen	schroff	lachen	retten	ehrlich	schön	tolerant	fair	leiden	rächen	eitel	schlecht	tyrannisch	faul	1	blank2r.bmp	0	1	+	0	1	blank2r.bmp	500	1	BMVZ	500	1	blank2r.bmp	880	2	fanatisch	880	1	FEHLER	1728	1	!	1293	1	!	-1	0	0	0
2024-04-30	11:23:31	12:55:17	5505530	6.6.1	4_exp_EVA_AWA_CON	3	B	A	Rpleas_acq	Same	Rpleas	2pleas	acq_US_unple_nomask	acq3_nomask	3	32	453	1	300	300	0	0	456	46	1	0	loyal	freundlich	helfen	treu	spielen	schlau	lasch	fanatisch	hindern	tot	strafen	schroff	lachen	retten	ehrlich	schön	tolerant	fair	leiden	rächen	eitel	schlecht	tyrannisch	faul	1	blank2r.bmp	0	1	+	0	1	blank2r.bmp	500	1	BMVZ	500	1	blank2r.bmp	880	4	tot	880	1	!	1293	1	!	1357	0	0	0	0	0	0
2024-04-30	11:23:31	12:55:19	5507802	6.6.1	4_exp_EVA_AWA_CON	3	B	A	Rpleas_acq	Same	Rpleas	2pleas	acq_US_pleas_nomask	acq3_nomask	3	33	453	1	300	300	0	0	496	50	1	0	loyal	freundlich	helfen	treu	spielen	schlau	lasch	fanatisch	hindern	tot	strafen	schroff	lachen	retten	ehrlich	schön	tolerant	fair	leiden	rächen	eitel	schlecht	tyrannisch	faul	1	blank2r.bmp	0	1	+	0	1	blank2r.bmp	500	1	GKQX	500	1	blank2r.bmp	880	3	helfen	880	1	!	1292	1	!	1398	0	0	0	0	0	0
2024-04-30	11:23:31	12:55:22	5510196	6.6.1	4_exp_EVA_AWA_CON	3	B	A	Rpleas_acq	Same	Rpleas	2pleas	acq_US_pleas_nomask	acq3_nomask	3	34	453	1	300	300	0	0	417	46	0	0	loyal	freundlich	helfen	treu	spielen	schlau	lasch	fanatisch	hindern	tot	strafen	schroff	lachen	retten	ehrlich	schön	tolerant	fair	leiden	rächen	eitel	schlecht	tyrannisch	faul	1	blank2r.bmp	0	1	+	0	1	blank2r.bmp	500	1	GKQX	500	1	blank2r.bmp	880	4	treu	880	1	FEHLER	1610	1	!	1292	1	!	1318	0	0	0
2024-04-30	11:23:31	12:55:24	5512492	6.6.1	4_exp_EVA_AWA_CON	3	B	A	Rpleas_acq	Same	Rpleas	2pleas	acq_US_unple_nomask	acq3_nomask	3	35	453	0	300	300	0	0	523	50	0	0	loyal	freundlich	helfen	treu	spielen	schlau	lasch	fanatisch	hindern	tot	strafen	schroff	lachen	retten	ehrlich	schön	tolerant	fair	leiden	rächen	eitel	schlecht	tyrannisch	faul	1	blank2r.bmp	0	1	+	0	1	blank2r.bmp	500	1	BMVZ	500	1	blank2r.bmp	880	3	hindern	880	1	FEHLER	1715	1	!	1292	1	!	-1	0	0	0
2024-04-30	11:23:31	12:55:26	5514649	6.6.1	4_exp_EVA_AWA_CON	3	B	A	Rpleas_acq	Same	Rpleas	2pleas	acq_US_pleas_nomask	acq3_nomask	3	36	453	0	300	300	0	0	580	50	1	0	loyal	freundlich	helfen	treu	spielen	schlau	lasch	fanatisch	hindern	tot	strafen	schroff	lachen	retten	ehrlich	schön	tolerant	fair	leiden	rächen	eitel	schlecht	tyrannisch	faul	1	blank2r.bmp	0	1	+	0	1	blank2r.bmp	500	1	GKQX	500	1	blank2r.bmp	880	1	loyal	880	1	!	1293	1	!	-1	0	0	0	0	0	0
2024-04-30	11:23:31	12:55:46	5534483	6.6.1	4_exp_EVA_AWA_CON	3	B	A	Rpleas_acq	Same	Rpleas	2pleas	acq_US_unple_nomask	acq45_nomask	4	1	400	1	300	300	0	0	469	46	1	0	loyal	freundlich	helfen	treu	spielen	schlau	lasch	fanatisch	hindern	tot	strafen	schroff	lachen	retten	ehrlich	schön	tolerant	fair	leiden	rächen	eitel	schlecht	tyrannisch	faul	1	blank2r.bmp	0	1	+	0	1	blank2r.bmp	500	1	BMVZ	500	1	blank2r.bmp	880	1	lasch	880	1	!	1232	1	!	1370	0	0	0	0	0	0
2024-04-30	11:23:31	12:55:48	5536618	6.6.1	4_exp_EVA_AWA_CON	3	B	A	Rpleas_acq	Same	Rpleas	2pleas	acq_US_pleas_nomask	acq45_nomask	4	2	400	1	300	300	0	0	353	50	1	0	loyal	freundlich	helfen	treu	spielen	schlau	lasch	fanatisch	hindern	tot	strafen	schroff	lachen	retten	ehrlich	schön	tolerant	fair	leiden	rächen	eitel	schlecht	tyrannisch	faul	1	blank2r.bmp	0	1	+	0	1	blank2r.bmp	500	1	GKQX	500	1	blank2r.bmp	880	2	freundlich	880	1	!	1232	1	!	1255	0	0	0	0	0	0
2024-04-30	11:23:31	12:55:50	5538810	6.6.1	4_exp_EVA_AWA_CON	3	B	A	Rpleas_acq	Same	Rpleas	2pleas	acq_US_unple_nomask	acq45_nomask	4	3	400	1	300	300	0	0	414	46	1	0	loyal	freundlich	helfen	treu	spielen	schlau	lasch	fanatisch	hindern	tot	strafen	schroff	lachen	retten	ehrlich	schön	tolerant	fair	leiden	rächen	eitel	schlecht	tyrannisch	faul	1	blank2r.bmp	0	1	+	0	1	blank2r.bmp	500	1	BMVZ	500	1	blank2r.bmp	880	6	schroff	880	1	!	1232	1	!	1315	0	0	0	0	0	0
2024-04-30	11:23:31	12:55:52	5541010	6.6.1	4_exp_EVA_AWA_CON	3	B	A	Rpleas_acq	Same	Rpleas	2pleas	acq_US_pleas_nomask	acq45_nomask	4	4	400	1	300	300	0	0	423	50	1	0	loyal	freundlich	helfen	treu	spielen	schlau	lasch	fanatisch	hindern	tot	strafen	schroff	lachen	retten	ehrlich	schön	tolerant	fair	leiden	rächen	eitel	schlecht	tyrannisch	faul	1	blank2r.bmp	0	1	+	0	1	blank2r.bmp	500	1	GKQX	500	1	blank2r.bmp	880	5	spielen	880	1	!	1232	1	!	1324	0	0	0	0	0	0
2024-04-30	11:23:31	12:55:54	5543129	6.6.1	4_exp_EVA_AWA_CON	3	B	A	Rpleas_acq	Same	Rpleas	2pleas	acq_US_unple_nomask	acq45_nomask	4	5	400	1	300	300	0	0	341	46	1	0	loyal	freundlich	helfen	treu	spielen	schlau	lasch	fanatisch	hindern	tot	strafen	schroff	lachen	retten	ehrlich	schön	tolerant	fair	leiden	rächen	eitel	schlecht	tyrannisch	faul	1	blank2r.bmp	0	1	+	0	1	blank2r.bmp	500	1	BMVZ	500	1	blank2r.bmp	880	2	fanatisch	880	1	!	1232	1	!	1241	0	0	0	0	0	0
2024-04-30	11:23:31	12:55:57	5545449	6.6.1	4_exp_EVA_AWA_CON	3	B	A	Rpleas_acq	Same	Rpleas	2pleas	acq_US_pleas_nomask	acq45_nomask	4	6	400	0	300	300	0	0	540	50	1	0	loyal	freundlich	helfen	treu	spielen	schlau	lasch	fanatisch	hindern	tot	strafen	schroff	lachen	retten	ehrlich	schön	tolerant	fair	leiden	rächen	eitel	schlecht	tyrannisch	faul	1	blank2r.bmp	0	1	+	0	1	blank2r.bmp	500	1	GKQX	500	1	blank2r.bmp	880	1	loyal	880	1	!	1232	1	!	-1	0	0	0	0	0	0
2024-04-30	11:23:31	12:55:59	5547674	6.6.1	4_exp_EVA_AWA_CON	3	B	A	Rpleas_acq	Same	Rpleas	2pleas	acq_US_unple_nomask	acq45_nomask	4	7	400	1	300	300	0	0	442	46	1	0	loyal	freundlich	helfen	treu	spielen	schlau	lasch	fanatisch	hindern	tot	strafen	schroff	lachen	retten	ehrlich	schön	tolerant	fair	leiden	rächen	eitel	schlecht	tyrannisch	faul	1	blank2r.bmp	0	1	+	0	1	blank2r.bmp	500	1	BMVZ	500	1	blank2r.bmp	880	5	strafen	880	1	!	1232	1	!	1343	0	0	0	0	0	0
2024-04-30	11:23:31	12:56:01	5549923	6.6.1	4_exp_EVA_AWA_CON	3	B	A	Rpleas_acq	Same	Rpleas	2pleas	acq_US_pleas_nomask	acq45_nomask	4	8	400	1	300	300	0	0	469	50	1	0	loyal	freundlich	helfen	treu	spielen	schlau	lasch	fanatisch	hindern	tot	strafen	schroff	lachen	retten	ehrlich	schön	tolerant	fair	leiden	rächen	eitel	schlecht	tyrannisch	faul	1	blank2r.bmp	0	1	+	0	1	blank2r.bmp	500	1	GKQX	500	1	blank2r.bmp	880	3	helfen	880	1	!	1232	1	!	1370	0	0	0	0	0	0
2024-04-30	11:23:31	12:56:04	5552175	6.6.1	4_exp_EVA_AWA_CON	3	B	A	Rpleas_acq	Same	Rpleas	2pleas	acq_US_pleas_nomask	acq45_nomask	4	9	400	0	300	300	0	0	473	46	0	0	loyal	freundlich	helfen	treu	spielen	schlau	lasch	fanatisch	hindern	tot	strafen	schroff	lachen	retten	ehrlich	schön	tolerant	fair	leiden	rächen	eitel	schlecht	tyrannisch	faul	1	blank2r.bmp	0	1	+	0	1	blank2r.bmp	500	1	GKQX	500	1	blank2r.bmp	880	4	treu	880	1	!	1232	1	!	-1	0	0	0	0	0	0
2024-04-30	11:23:31	12:56:06	5554440	6.6.1	4_exp_EVA_AWA_CON	3	B	A	Rpleas_acq	Same	Rpleas	2pleas	acq_US_pleas_nomask	acq45_nomask	4	10	400	0	300	300	0	0	486	50	1	0	loyal	freundlich	helfen	treu	spielen	schlau	lasch	fanatisch	hindern	tot	strafen	schroff	lachen	retten	ehrlich	schön	tolerant	fair	leiden	rächen	eitel	schlecht	tyrannisch	faul	1	blank2r.bmp	0	1	+	0	1	blank2r.bmp	500	1	GKQX	500	1	blank2r.bmp	880	6	schlau	880	1	!	1233	1	!	-1	0	0	0	0	0	0
2024-04-30	11:23:31	12:56:08	5556529	6.6.1	4_exp_EVA_AWA_CON	3	B	A	Rpleas_acq	Same	Rpleas	2pleas	acq_US_pleas_nomask	acq45_nomask	4	11	400	0	300	300	0	0	312	50	1	0	loyal	freundlich	helfen	treu	spielen	schlau	lasch	fanatisch	hindern	tot	strafen	schroff	lachen	retten	ehrlich	schön	tolerant	fair	leiden	rächen	eitel	schlecht	tyrannisch	faul	1	blank2r.bmp	0	1	+	0	1	blank2r.bmp	500	1	GKQX	500	1	blank2r.bmp	880	3	helfen	880	1	!	-1	1	!	-1	0	0	0	0	0	0
2024-04-30	11:23:31	12:56:10	5558793	6.6.1	4_exp_EVA_AWA_CON	3	B	A	Rpleas_acq	Same	Rpleas	2pleas	acq_US_unple_nomask	acq45_nomask	4	12	400	0	300	300	0	0	485	46	1	0	loyal	freundlich	helfen	treu	spielen	schlau	lasch	fanatisch	hindern	tot	strafen	schroff	lachen	retten	ehrlich	schön	tolerant	fair	leiden	rächen	eitel	schlecht	tyrannisch	faul	1	blank2r.bmp	0	1	+	0	1	blank2r.bmp	500	1	BMVZ	500	1	blank2r.bmp	880	4	tot	880	1	!	1232	1	!	-1	0	0	0	0	0	0
2024-04-30	11:23:31	12:56:12	5561097	6.6.1	4_exp_EVA_AWA_CON	3	B	A	Rpleas_acq	Same	Rpleas	2pleas	acq_US_unple_nomask	acq45_nomask	4	13	400	0	300	300	0	0	528	46	1	0	loyal	freundlich	helfen	treu	spielen	schlau	lasch	fanatisch	hindern	tot	strafen	schroff	lachen	retten	ehrlich	schön	tolerant	fair	leiden	rächen	eitel	schlecht	tyrannisch	faul	1	blank2r.bmp	0	1	+	0	1	blank2r.bmp	500	1	BMVZ	500	1	blank2r.bmp	880	3	hindern	880	1	!	1233	1	!	-1	0	0	0	0	0	0
2024-04-30	11:23:31	12:56:15	5563209	6.6.1	4_exp_EVA_AWA_CON	3	B	A	Rpleas_acq	Same	Rpleas	2pleas	acq_US_unple_nomask	acq45_nomask	4	14	400	1	300	300	0	0	338	50	0	0	loyal	freundlich	helfen	treu	spielen	schlau	lasch	fanatisch	hindern	tot	strafen	schroff	lachen	retten	ehrlich	schön	tolerant	fair	leiden	rächen	eitel	schlecht	tyrannisch	faul	1	blank2r.bmp	0	1	+	0	1	blank2r.bmp	500	1	BMVZ	500	1	blank2r.bmp	880	6	schroff	880	1	!	1233	1	!	1238	0	0	0	0	0	0
2024-04-30	11:23:31	12:56:17	5565355	6.6.1	4_exp_EVA_AWA_CON	3	B	A	Rpleas_acq	Same	Rpleas	2pleas	acq_US_unple_nomask	acq45_nomask	4	15	400	1	300	300	0	0	371	46	1	0	loyal	freundlich	helfen	treu	spielen	schlau	lasch	fanatisch	hindern	tot	strafen	schroff	lachen	retten	ehrlich	schön	tolerant	fair	leiden	rächen	eitel	schlecht	tyrannisch	faul	1	blank2r.bmp	0	1	+	0	1	blank2r.bmp	500	1	BMVZ	500	1	blank2r.bmp	880	4	tot	880	1	!	1232	1	!	1272	0	0	0	0	0	0
2024-04-30	11:23:31	12:56:19	5567515	6.6.1	4_exp_EVA_AWA_CON	3	B	A	Rpleas_acq	Same	Rpleas	2pleas	acq_US_unple_nomask	acq45_nomask	4	16	400	1	300	300	0	0	379	46	1	0	loyal	freundlich	helfen	treu	spielen	schlau	lasch	fanatisch	hindern	tot	strafen	schroff	lachen	retten	ehrlich	schön	tolerant	fair	leiden	rächen	eitel	schlecht	tyrannisch	faul	1	blank2r.bmp	0	1	+	0	1	blank2r.bmp	500	1	BMVZ	500	1	blank2r.bmp	880	1	lasch	880	1	!	1232	1	!	1280	0	0	0	0	0	0
2024-04-30	11:23:31	12:56:21	5569601	6.6.1	4_exp_EVA_AWA_CON	3	B	A	Rpleas_acq	Same	Rpleas	2pleas	acq_US_pleas_nomask	acq45_nomask	4	17	400	0	300	300	0	0	306	46	0	0	loyal	freundlich	helfen	treu	spielen	schlau	lasch	fanatisch	hindern	tot	strafen	schroff	lachen	retten	ehrlich	schön	tolerant	fair	leiden	rächen	eitel	schlecht	tyrannisch	faul	1	blank2r.bmp	0	1	+	0	1	blank2r.bmp	500	1	GKQX	500	1	blank2r.bmp	880	2	freundlich	880	1	!	-1	1	!	-1	0	0	0	0	0	0
2024-04-30	11:23:31	12:56:23	5571865	6.6.1	4_exp_EVA_AWA_CON	3	B	A	Rpleas_acq	Same	Rpleas	2pleas	acq_US_pleas_nomask	acq45_nomask	4	18	400	0	300	300	0	0	489	46	0	0	loyal	freundlich	helfen	treu	spielen	schlau	lasch	fanatisch	hindern	tot	strafen	schroff	lachen	retten	ehrlich	schön	tolerant	fair	leiden	rächen	eitel	schlecht	tyrannisch	faul	1	blank2r.bmp	0	1	+	0	1	blank2r.bmp	500	1	GKQX	500	1	blank2r.bmp	880	4	treu	880	1	!	1232	1	!	-1	0	0	0	0	0	0
2024-04-30	11:23:31	12:56:26	5574345	6.6.1	4_exp_EVA_AWA_CON	3	B	A	Rpleas_acq	Same	Rpleas	2pleas	acq_US_pleas_nomask	acq45_nomask	4	19	400	0	300	300	0	0	707	50	1	0	loyal	freundlich	helfen	treu	spielen	schlau	lasch	fanatisch	hindern	tot	strafen	schroff	lachen	retten	ehrlich	schön	tolerant	fair	leiden	rächen	eitel	schlecht	tyrannisch	faul	1	blank2r.bmp	0	1	+	0	1	blank2r.bmp	500	1	GKQX	500	1	blank2r.bmp	880	1	loyal	880	1	!	1232	1	!	-1	0	0	0	0	0	0
2024-04-30	11:23:31	12:56:29	5577537	6.6.1	4_exp_EVA_AWA_CON	3	B	A	Rpleas_acq	Same	Rpleas	2pleas	acq_US_unple_nomask	acq45_nomask	4	20	400	0	300	300	0	0	1418	46	1	0	loyal	freundlich	helfen	treu	spielen	schlau	lasch	fanatisch	hindern	tot	strafen	schroff	lachen	retten	ehrlich	schön	tolerant	fair	leiden	rächen	eitel	schlecht	tyrannisch	faul	1	blank2r.bmp	0	1	+	0	1	blank2r.bmp	500	1	BMVZ	500	1	blank2r.bmp	880	3	hindern	880	1	!	1233	1	!	-1	0	0	0	0	0	0
2024-04-30	11:23:31	12:56:31	5579857	6.6.1	4_exp_EVA_AWA_CON	3	B	A	Rpleas_acq	Same	Rpleas	2pleas	acq_US_unple_nomask	acq45_nomask	4	21	400	0	300	300	0	0	545	50	0	0	loyal	freundlich	helfen	treu	spielen	schlau	lasch	fanatisch	hindern	tot	strafen	schroff	lachen	retten	ehrlich	schön	tolerant	fair	leiden	rächen	eitel	schlecht	tyrannisch	faul	1	blank2r.bmp	0	1	+	0	1	blank2r.bmp	500	1	BMVZ	500	1	blank2r.bmp	880	2	fanatisch	880	1	!	1232	1	!	-1	0	0	0	0	0	0
2024-04-30	11:23:31	12:56:34	5582385	6.6.1	4_exp_EVA_AWA_CON	3	B	A	Rpleas_acq	Same	Rpleas	2pleas	acq_US_unple_nomask	acq45_nomask	4	22	400	0	300	300	0	0	752	46	1	0	loyal	freundlich	helfen	treu	spielen	schlau	lasch	fanatisch	hindern	tot	strafen	schroff	lachen	retten	ehrlich	schön	tolerant	fair	leiden	rächen	eitel	schlecht	tyrannisch	faul	1	blank2r.bmp	0	1	+	0	1	blank2r.bmp	500	1	BMVZ	500	1	blank2r.bmp	880	5	strafen	880	1	!	1232	1	!	-1	0	0	0	0	0	0
2024-04-30	11:23:31	12:56:36	5584649	6.6.1	4_exp_EVA_AWA_CON	3	B	A	Rpleas_acq	Same	Rpleas	2pleas	acq_US_pleas_nomask	acq45_nomask	4	23	400	0	300	300	0	0	484	50	1	0	loyal	freundlich	helfen	treu	spielen	schlau	lasch	fanatisch	hindern	tot	strafen	schroff	lachen	retten	ehrlich	schön	tolerant	fair	leiden	rächen	eitel	schlecht	tyrannisch	faul	1	blank2r.bmp	0	1	+	0	1	blank2r.bmp	500	1	GKQX	500	1	blank2r.bmp	880	5	spielen	880	1	!	1233	1	!	-1	0	0	0	0	0	0
2024-04-30	11:23:31	12:56:38	5586834	6.6.1	4_exp_EVA_AWA_CON	3	B	A	Rpleas_acq	Same	Rpleas	2pleas	acq_US_unple_nomask	acq45_nomask	4	24	400	1	300	300	0	0	407	46	1	0	loyal	freundlich	helfen	treu	spielen	schlau	lasch	fanatisch	hindern	tot	strafen	schroff	lachen	retten	ehrlich	schön	tolerant	fair	leiden	rächen	eitel	schlecht	tyrannisch	faul	1	blank2r.bmp	0	1	+	0	1	blank2r.bmp	500	1	BMVZ	500	1	blank2r.bmp	880	1	lasch	880	1	!	1233	1	!	1308	0	0	0	0	0	0
2024-04-30	11:23:31	12:56:40	5589042	6.6.1	4_exp_EVA_AWA_CON	3	B	A	Rpleas_acq	Same	Rpleas	2pleas	acq_US_unple_nomask	acq45_nomask	4	25	400	1	300	300	0	0	433	46	1	0	loyal	freundlich	helfen	treu	spielen	schlau	lasch	fanatisch	hindern	tot	strafen	schroff	lachen	retten	ehrlich	schön	tolerant	fair	leiden	rächen	eitel	schlecht	tyrannisch	faul	1	blank2r.bmp	0	1	+	0	1	blank2r.bmp	500	1	BMVZ	500	1	blank2r.bmp	880	4	tot	880	1	!	1232	1	!	1334	0	0	0	0	0	0
2024-04-30	11:23:31	12:56:43	5591313	6.6.1	4_exp_EVA_AWA_CON	3	B	A	Rpleas_acq	Same	Rpleas	2pleas	acq_US_unple_nomask	acq45_nomask	4	26	400	0	300	300	0	0	494	46	1	0	loyal	freundlich	helfen	treu	spielen	schlau	lasch	fanatisch	hindern	tot	strafen	schroff	lachen	retten	ehrlich	schön	tolerant	fair	leiden	rächen	eitel	schlecht	tyrannisch	faul	1	blank2r.bmp	0	1	+	0	1	blank2r.bmp	500	1	BMVZ	500	1	blank2r.bmp	880	2	fanatisch	880	1	!	1232	1	!	-1	0	0	0	0	0	0
2024-04-30	11:23:31	12:56:45	5593433	6.6.1	4_exp_EVA_AWA_CON	3	B	A	Rpleas_acq	Same	Rpleas	2pleas	acq_US_pleas_nomask	acq45_nomask	4	27	400	1	300	300	0	0	342	46	0	0	loyal	freundlich	helfen	treu	spielen	schlau	lasch	fanatisch	hindern	tot	strafen	schroff	lachen	retten	ehrlich	schön	tolerant	fair	leiden	rächen	eitel	schlecht	tyrannisch	faul	1	blank2r.bmp	0	1	+	0	1	blank2r.bmp	500	1	GKQX	500	1	blank2r.bmp	880	6	schlau	880	1	!	1232	1	!	1242	0	0	0	0	0	0
2024-04-30	11:23:31	12:56:47	5595675	6.6.1	4_exp_EVA_AWA_CON	3	B	A	Rpleas_acq	Same	Rpleas	2pleas	acq_US_unple_nomask	acq45_nomask	4	28	400	1	300	300	0	0	461	46	1	0	loyal	freundlich	helfen	treu	spielen	schlau	lasch	fanatisch	hindern	tot	strafen	schroff	lachen	retten	ehrlich	schön	tolerant	fair	leiden	rächen	eitel	schlecht	tyrannisch	faul	1	blank2r.bmp	0	1	+	0	1	blank2r.bmp	500	1	BMVZ	500	1	blank2r.bmp	880	6	schroff	880	1	!	1233	1	!	1363	0	0	0	0	0	0
2024-04-30	11:23:31	12:56:49	5597818	6.6.1	4_exp_EVA_AWA_CON	3	B	A	Rpleas_acq	Same	Rpleas	2pleas	acq_US_unple_nomask	acq45_nomask	4	29	400	1	300	300	0	0	364	46	1	0	loyal	freundlich	helfen	treu	spielen	schlau	lasch	fanatisch	hindern	tot	strafen	schroff	lachen	retten	ehrlich	schön	tolerant	fair	leiden	rächen	eitel	schlecht	tyrannisch	faul	1	blank2r.bmp	0	1	+	0	1	blank2r.bmp	500	1	BMVZ	500	1	blank2r.bmp	880	5	strafen	880	1	!	1232	1	!	1265	0	0	0	0	0	0
2024-04-30	11:23:31	12:56:51	5600161	6.6.1	4_exp_EVA_AWA_CON	3	B	A	Rpleas_acq	Same	Rpleas	2pleas	acq_US_unple_nomask	acq45_nomask	4	30	400	0	300	300	0	0	566	50	0	0	loyal	freundlich	helfen	treu	spielen	schlau	lasch	fanatisch	hindern	tot	strafen	schroff	lachen	retten	ehrlich	schön	tolerant	fair	leiden	rächen	eitel	schlecht	tyrannisch	faul	1	blank2r.bmp	0	1	+	0	1	blank2r.bmp	500	1	BMVZ	500	1	blank2r.bmp	880	3	hindern	880	1	!	1232	1	!	-1	0	0	0	0	0	0
2024-04-30	11:23:31	12:56:54	5602457	6.6.1	4_exp_EVA_AWA_CON	3	B	A	Rpleas_acq	Same	Rpleas	2pleas	acq_US_pleas_nomask	acq45_nomask	4	31	400	0	300	300	0	0	521	50	1	0	loyal	freundlich	helfen	treu	spielen	schlau	lasch	fanatisch	hindern	tot	strafen	schroff	lachen	retten	ehrlich	schön	tolerant	fair	leiden	rächen	eitel	schlecht	tyrannisch	faul	1	blank2r.bmp	0	1	+	0	1	blank2r.bmp	500	1	GKQX	500	1	blank2r.bmp	880	2	freundlich	880	1	!	1232	1	!	-1	0	0	0	0	0	0
2024-04-30	11:23:31	12:56:56	5604729	6.6.1	4_exp_EVA_AWA_CON	3	B	A	Rpleas_acq	Same	Rpleas	2pleas	acq_US_pleas_nomask	acq45_nomask	4	32	400	0	300	300	0	0	491	46	0	0	loyal	freundlich	helfen	treu	spielen	schlau	lasch	fanatisch	hindern	tot	strafen	schroff	lachen	retten	ehrlich	schön	tolerant	fair	leiden	rächen	eitel	schlecht	tyrannisch	faul	1	blank2r.bmp	0	1	+	0	1	blank2r.bmp	500	1	GKQX	500	1	blank2r.bmp	880	4	treu	880	1	!	1233	1	!	-1	0	0	0	0	0	0
2024-04-30	11:23:31	12:56:58	5607009	6.6.1	4_exp_EVA_AWA_CON	3	B	A	Rpleas_acq	Same	Rpleas	2pleas	acq_US_pleas_nomask	acq45_nomask	4	33	400	0	300	300	0	0	500	50	1	0	loyal	freundlich	helfen	treu	spielen	schlau	lasch	fanatisch	hindern	tot	strafen	schroff	lachen	retten	ehrlich	schön	tolerant	fair	leiden	rächen	eitel	schlecht	tyrannisch	faul	1	blank2r.bmp	0	1	+	0	1	blank2r.bmp	500	1	GKQX	500	1	blank2r.bmp	880	6	schlau	880	1	!	1232	1	!	-1	0	0	0	0	0	0
2024-04-30	11:23:31	12:57:01	5609258	6.6.1	4_exp_EVA_AWA_CON	3	B	A	Rpleas_acq	Same	Rpleas	2pleas	acq_US_pleas_nomask	acq45_nomask	4	34	400	1	300	300	0	0	466	50	1	0	loyal	freundlich	helfen	treu	spielen	schlau	lasch	fanatisch	hindern	tot	strafen	schroff	lachen	retten	ehrlich	schön	tolerant	fair	leiden	rächen	eitel	schlecht	tyrannisch	faul	1	blank2r.bmp	0	1	+	0	1	blank2r.bmp	500	1	GKQX	500	1	blank2r.bmp	880	5	spielen	880	1	!	1232	1	!	1367	0	0	0	0	0	0
2024-04-30	11:23:31	12:57:03	5611544	6.6.1	4_exp_EVA_AWA_CON	3	B	A	Rpleas_acq	Same	Rpleas	2pleas	acq_US_pleas_nomask	acq45_nomask	4	35	400	0	300	300	0	0	513	50	1	0	loyal	freundlich	helfen	treu	spielen	schlau	lasch	fanatisch	hindern	tot	strafen	schroff	lachen	retten	ehrlich	schön	tolerant	fair	leiden	rächen	eitel	schlecht	tyrannisch	faul	1	blank2r.bmp	0	1	+	0	1	blank2r.bmp	500	1	GKQX	500	1	blank2r.bmp	880	1	loyal	880	1	!	1232	1	!	-1	0	0	0	0	0	0
2024-04-30	11:23:31	12:57:05	5613690	6.6.1	4_exp_EVA_AWA_CON	3	B	A	Rpleas_acq	Same	Rpleas	2pleas	acq_US_pleas_nomask	acq45_nomask	4	36	400	1	300	300	0	0	365	50	1	0	loyal	freundlich	helfen	treu	spielen	schlau	lasch	fanatisch	hindern	tot	strafen	schroff	lachen	retten	ehrlich	schön	tolerant	fair	leiden	rächen	eitel	schlecht	tyrannisch	faul	1	blank2r.bmp	0	1	+	0	1	blank2r.bmp	500	1	GKQX	500	1	blank2r.bmp	880	3	helfen	880	1	!	1232	1	!	1266	0	0	0	0	0	0
2024-04-30	11:23:31	12:57:23	5631305	6.6.1	4_exp_EVA_AWA_CON	3	B	A	Rpleas_acq	Same	Rpleas	2pleas	acq_US_unple_nomask	acq45_nomask	5	1	400	0	300	300	0	0	610	46	1	0	loyal	freundlich	helfen	treu	spielen	schlau	lasch	fanatisch	hindern	tot	strafen	schroff	lachen	retten	ehrlich	schön	tolerant	fair	leiden	rächen	eitel	schlecht	tyrannisch	faul	1	blank2r.bmp	0	1	+	0	1	blank2r.bmp	500	1	BMVZ	500	1	blank2r.bmp	880	3	hindern	880	1	!	1232	1	!	-1	0	0	0	0	0	0
2024-04-30	11:23:31	12:57:25	5633514	6.6.1	4_exp_EVA_AWA_CON	3	B	A	Rpleas_acq	Same	Rpleas	2pleas	acq_US_unple_nomask	acq45_nomask	5	2	400	1	300	300	0	0	426	46	1	0	loyal	freundlich	helfen	treu	spielen	schlau	lasch	fanatisch	hindern	tot	strafen	schroff	lachen	retten	ehrlich	schön	tolerant	fair	leiden	rächen	eitel	schlecht	tyrannisch	faul	1	blank2r.bmp	0	1	+	0	1	blank2r.bmp	500	1	BMVZ	500	1	blank2r.bmp	880	2	fanatisch	880	1	!	1232	1	!	1328	0	0	0	0	0	0
2024-04-30	11:23:31	12:57:27	5635585	6.6.1	4_exp_EVA_AWA_CON	3	B	A	Rpleas_acq	Same	Rpleas	2pleas	acq_US_pleas_nomask	acq45_nomask	5	3	400	0	300	300	0	0	297	46	0	0	loyal	freundlich	helfen	treu	spielen	schlau	lasch	fanatisch	hindern	tot	strafen	schroff	lachen	retten	ehrlich	schön	tolerant	fair	leiden	rächen	eitel	schlecht	tyrannisch	faul	1	blank2r.bmp	0	1	+	0	1	blank2r.bmp	500	1	GKQX	500	1	blank2r.bmp	880	2	freundlich	880	1	!	-1	1	!	-1	0	0	0	0	0	0
2024-04-30	11:23:31	12:57:29	5637794	6.6.1	4_exp_EVA_AWA_CON	3	B	A	Rpleas_acq	Same	Rpleas	2pleas	acq_US_unple_nomask	acq45_nomask	5	4	400	1	300	300	0	0	433	46	1	0	loyal	freundlich	helfen	treu	spielen	schlau	lasch	fanatisch	hindern	tot	strafen	schroff	lachen	retten	ehrlich	schön	tolerant	fair	leiden	rächen	eitel	schlecht	tyrannisch	faul	1	blank2r.bmp	0	1	+	0	1	blank2r.bmp	500	1	BMVZ	500	1	blank2r.bmp	880	6	schroff	880	1	!	1232	1	!	1335	0	0	0	0	0	0
2024-04-30	11:23:31	12:57:31	5639923	6.6.1	4_exp_EVA_AWA_CON	3	B	A	Rpleas_acq	Same	Rpleas	2pleas	acq_US_unple_nomask	acq45_nomask	5	5	400	1	300	300	0	0	350	46	1	0	loyal	freundlich	helfen	treu	spielen	schlau	lasch	fanatisch	hindern	tot	strafen	schroff	lachen	retten	ehrlich	schön	tolerant	fair	leiden	rächen	eitel	schlecht	tyrannisch	faul	1	blank2r.bmp	0	1	+	0	1	blank2r.bmp	500	1	BMVZ	500	1	blank2r.bmp	880	5	strafen	880	1	!	1232	1	!	1252	0	0	0	0	0	0
2024-04-30	11:23:31	12:57:33	5642175	6.6.1	4_exp_EVA_AWA_CON	3	B	A	Rpleas_acq	Same	Rpleas	2pleas	acq_US_pleas_nomask	acq45_nomask	5	6	400	0	300	300	0	0	475	50	1	0	loyal	freundlich	helfen	treu	spielen	schlau	lasch	fanatisch	hindern	tot	strafen	schroff	lachen	retten	ehrlich	schön	tolerant	fair	leiden	rächen	eitel	schlecht	tyrannisch	faul	1	blank2r.bmp	0	1	+	0	1	blank2r.bmp	500	1	GKQX	500	1	blank2r.bmp	880	1	loyal	880	1	!	1233	1	!	-1	0	0	0	0	0	0
2024-04-30	11:23:31	12:57:36	5644378	6.6.1	4_exp_EVA_AWA_CON	3	B	A	Rpleas_acq	Same	Rpleas	2pleas	acq_US_unple_nomask	acq45_nomask	5	7	400	1	300	300	0	0	423	50	0	0	loyal	freundlich	helfen	treu	spielen	schlau	lasch	fanatisch	hindern	tot	strafen	schroff	lachen	retten	ehrlich	schön	tolerant	fair	leiden	rächen	eitel	schlecht	tyrannisch	faul	1	blank2r.bmp	0	1	+	0	1	blank2r.bmp	500	1	BMVZ	500	1	blank2r.bmp	880	1	lasch	880	1	!	1232	1	!	1324	0	0	0	0	0	0
2024-04-30	11:23:31	12:57:38	5646409	6.6.1	4_exp_EVA_AWA_CON	3	B	A	Rpleas_acq	Same	Rpleas	2pleas	acq_US_pleas_nomask	acq45_nomask	5	8	400	0	300	300	0	0	254	46	0	0	loyal	freundlich	helfen	treu	spielen	schlau	lasch	fanatisch	hindern	tot	strafen	schroff	lachen	retten	ehrlich	schön	tolerant	fair	leiden	rächen	eitel	schlecht	tyrannisch	faul	1	blank2r.bmp	0	1	+	0	1	blank2r.bmp	500	1	GKQX	500	1	blank2r.bmp	880	5	spielen	880	1	!	-1	1	!	-1	0	0	0	0	0	0
2024-04-30	11:23:31	12:57:40	5648663	6.6.1	4_exp_EVA_AWA_CON	3	B	A	Rpleas_acq	Same	Rpleas	2pleas	acq_US_pleas_nomask	acq45_nomask	5	9	400	0	300	300	0	0	478	46	0	0	loyal	freundlich	helfen	treu	spielen	schlau	lasch	fanatisch	hindern	tot	strafen	schroff	lachen	retten	ehrlich	schön	tolerant	fair	leiden	rächen	eitel	schlecht	tyrannisch	faul	1	blank2r.bmp	0	1	+	0	1	blank2r.bmp	500	1	GKQX	500	1	blank2r.bmp	880	3	helfen	880	1	!	1232	1	!	-1	0	0	0	0	0	0
2024-04-30	11:23:31	12:57:42	5650929	6.6.1	4_exp_EVA_AWA_CON	3	B	A	Rpleas_acq	Same	Rpleas	2pleas	acq_US_pleas_nomask	acq45_nomask	5	10	400	0	300	300	0	0	491	46	0	0	loyal	freundlich	helfen	treu	spielen	schlau	lasch	fanatisch	hindern	tot	strafen	schroff	lachen	retten	ehrlich	schön	tolerant	fair	leiden	rächen	eitel	schlecht	tyrannisch	faul	1	blank2r.bmp	0	1	+	0	1	blank2r.bmp	500	1	GKQX	500	1	blank2r.bmp	880	6	schlau	880	1	!	1233	1	!	-1	0	0	0	0	0	0
2024-04-30	11:23:31	12:57:44	5653138	6.6.1	4_exp_EVA_AWA_CON	3	B	A	Rpleas_acq	Same	Rpleas	2pleas	acq_US_unple_nomask	acq45_nomask	5	11	400	1	300	300	0	0	428	46	1	0	loyal	freundlich	helfen	treu	spielen	schlau	lasch	fanatisch	hindern	tot	strafen	schroff	lachen	retten	ehrlich	schön	tolerant	fair	leiden	rächen	eitel	schlecht	tyrannisch	faul	1	blank2r.bmp	0	1	+	0	1	blank2r.bmp	500	1	BMVZ	500	1	blank2r.bmp	880	4	tot	880	1	!	1232	1	!	1329	0	0	0	0	0	0
2024-04-30	11:23:31	12:57:47	5655330	6.6.1	4_exp_EVA_AWA_CON	3	B	A	Rpleas_acq	Same	Rpleas	2pleas	acq_US_unple_nomask	acq45_nomask	5	12	400	1	300	300	0	0	418	46	1	0	loyal	freundlich	helfen	treu	spielen	schlau	lasch	fanatisch	hindern	tot	strafen	schroff	lachen	retten	ehrlich	schön	tolerant	fair	leiden	rächen	eitel	schlecht	tyrannisch	faul	1	blank2r.bmp	0	1	+	0	1	blank2r.bmp	500	1	BMVZ	500	1	blank2r.bmp	880	3	hindern	880	1	!	1232	1	!	1319	0	0	0	0	0	0
2024-04-30	11:23:31	12:57:49	5657538	6.6.1	4_exp_EVA_AWA_CON	3	B	A	Rpleas_acq	Same	Rpleas	2pleas	acq_US_unple_nomask	acq45_nomask	5	13	400	1	300	300	0	0	435	46	1	0	loyal	freundlich	helfen	treu	spielen	schlau	lasch	fanatisch	hindern	tot	strafen	schroff	lachen	retten	ehrlich	schön	tolerant	fair	leiden	rächen	eitel	schlecht	tyrannisch	faul	1	blank2r.bmp	0	1	+	0	1	blank2r.bmp	500	1	BMVZ	500	1	blank2r.bmp	880	4	tot	880	1	!	1233	1	!	1336	0	0	0	0	0	0
2024-04-30	11:23:31	12:57:51	5659888	6.6.1	4_exp_EVA_AWA_CON	3	B	A	Rpleas_acq	Same	Rpleas	2pleas	acq_US_pleas_nomask	acq45_nomask	5	14	400	0	300	300	0	0	575	50	1	0	loyal	freundlich	helfen	treu	spielen	schlau	lasch	fanatisch	hindern	tot	strafen	schroff	lachen	retten	ehrlich	schön	tolerant	fair	leiden	rächen	eitel	schlecht	tyrannisch	faul	1	blank2r.bmp	0	1	+	0	1	blank2r.bmp	500	1	GKQX	500	1	blank2r.bmp	880	4	treu	880	1	!	1232	1	!	-1	0	0	0	0	0	0
2024-04-30	11:23:31	12:57:53	5662074	6.6.1	4_exp_EVA_AWA_CON	3	B	A	Rpleas_acq	Same	Rpleas	2pleas	acq_US_pleas_nomask	acq45_nomask	5	15	400	1	300	300	0	0	408	50	1	0	loyal	freundlich	helfen	treu	spielen	schlau	lasch	fanatisch	hindern	tot	strafen	schroff	lachen	retten	ehrlich	schön	tolerant	fair	leiden	rächen	eitel	schlecht	tyrannisch	faul	1	blank2r.bmp	0	1	+	0	1	blank2r.bmp	500	1	GKQX	500	1	blank2r.bmp	880	5	spielen	880	1	!	1232	1	!	1309	0	0	0	0	0	0
2024-04-30	11:23:31	12:57:56	5664353	6.6.1	4_exp_EVA_AWA_CON	3	B	A	Rpleas_acq	Same	Rpleas	2pleas	acq_US_pleas_nomask	acq45_nomask	5	16	400	0	300	300	0	0	506	50	1	0	loyal	freundlich	helfen	treu	spielen	schlau	lasch	fanatisch	hindern	tot	strafen	schroff	lachen	retten	ehrlich	schön	tolerant	fair	leiden	rächen	eitel	schlecht	tyrannisch	faul	1	blank2r.bmp	0	1	+	0	1	blank2r.bmp	500	1	GKQX	500	1	blank2r.bmp	880	6	schlau	880	1	!	1232	1	!	-1	0	0	0	0	0	0
2024-04-30	11:23:31	12:57:58	5666539	6.6.1	4_exp_EVA_AWA_CON	3	B	A	Rpleas_acq	Same	Rpleas	2pleas	acq_US_pleas_nomask	acq45_nomask	5	17	400	1	300	300	0	0	409	50	1	0	loyal	freundlich	helfen	treu	spielen	schlau	lasch	fanatisch	hindern	tot	strafen	schroff	lachen	retten	ehrlich	schön	tolerant	fair	leiden	rächen	eitel	schlecht	tyrannisch	faul	1	blank2r.bmp	0	1	+	0	1	blank2r.bmp	500	1	GKQX	500	1	blank2r.bmp	880	2	freundlich	880	1	!	1232	1	!	1310	0	0	0	0	0	0
2024-04-30	11:23:31	12:58:00	5668786	6.6.1	4_exp_EVA_AWA_CON	3	B	A	Rpleas_acq	Same	Rpleas	2pleas	acq_US_unple_nomask	acq45_nomask	5	18	400	1	300	300	0	0	465	50	0	0	loyal	freundlich	helfen	treu	spielen	schlau	lasch	fanatisch	hindern	tot	strafen	schroff	lachen	retten	ehrlich	schön	tolerant	fair	leiden	rächen	eitel	schlecht	tyrannisch	faul	1	blank2r.bmp	0	1	+	0	1	blank2r.bmp	500	1	BMVZ	500	1	blank2r.bmp	880	2	fanatisch	880	1	!	1232	1	!	1366	0	0	0	0	0	0
2024-04-30	11:23:31	12:58:02	5670978	6.6.1	4_exp_EVA_AWA_CON	3	B	A	Rpleas_acq	Same	Rpleas	2pleas	acq_US_unple_nomask	acq45_nomask	5	19	400	1	300	300	0	0	416	50	0	0	loyal	freundlich	helfen	treu	spielen	schlau	lasch	fanatisch	hindern	tot	strafen	schroff	lachen	retten	ehrlich	schön	tolerant	fair	leiden	rächen	eitel	schlecht	tyrannisch	faul	1	blank2r.bmp	0	1	+	0	1	blank2r.bmp	500	1	BMVZ	500	1	blank2r.bmp	880	6	schroff	880	1	!	1232	1	!	1317	0	0	0	0	0	0
2024-04-30	11:23:31	12:58:04	5673130	6.6.1	4_exp_EVA_AWA_CON	3	B	A	Rpleas_acq	Same	Rpleas	2pleas	acq_US_pleas_nomask	acq45_nomask	5	20	400	1	300	300	0	0	377	46	0	0	loyal	freundlich	helfen	treu	spielen	schlau	lasch	fanatisch	hindern	tot	strafen	schroff	lachen	retten	ehrlich	schön	tolerant	fair	leiden	rächen	eitel	schlecht	tyrannisch	faul	1	blank2r.bmp	0	1	+	0	1	blank2r.bmp	500	1	GKQX	500	1	blank2r.bmp	880	4	treu	880	1	!	1232	1	!	1278	0	0	0	0	0	0
2024-04-30	11:23:31	12:58:07	5675417	6.6.1	4_exp_EVA_AWA_CON	3	B	A	Rpleas_acq	Same	Rpleas	2pleas	acq_US_unple_nomask	acq45_nomask	5	21	400	0	300	300	0	0	513	46	1	0	loyal	freundlich	helfen	treu	spielen	schlau	lasch	fanatisch	hindern	tot	strafen	schroff	lachen	retten	ehrlich	schön	tolerant	fair	leiden	rächen	eitel	schlecht	tyrannisch	faul	1	blank2r.bmp	0	1	+	0	1	blank2r.bmp	500	1	BMVZ	500	1	blank2r.bmp	880	5	strafen	880	1	!	1232	1	!	-1	0	0	0	0	0	0
2024-04-30	11:23:31	12:58:09	5677689	6.6.1	4_exp_EVA_AWA_CON	3	B	A	Rpleas_acq	Same	Rpleas	2pleas	acq_US_pleas_nomask	acq45_nomask	5	22	400	0	300	300	0	0	494	50	1	0	loyal	freundlich	helfen	treu	spielen	schlau	lasch	fanatisch	hindern	tot	strafen	schroff	lachen	retten	ehrlich	schön	tolerant	fair	leiden	rächen	eitel	schlecht	tyrannisch	faul	1	blank2r.bmp	0	1	+	0	1	blank2r.bmp	500	1	GKQX	500	1	blank2r.bmp	880	3	helfen	880	1	!	1232	1	!	-1	0	0	0	0	0	0
2024-04-30	11:23:31	12:58:11	5679968	6.6.1	4_exp_EVA_AWA_CON	3	B	A	Rpleas_acq	Same	Rpleas	2pleas	acq_US_pleas_nomask	acq45_nomask	5	23	400	0	300	300	0	0	502	50	1	0	loyal	freundlich	helfen	treu	spielen	schlau	lasch	fanatisch	hindern	tot	strafen	schroff	lachen	retten	ehrlich	schön	tolerant	fair	leiden	rächen	eitel	schlecht	tyrannisch	faul	1	blank2r.bmp	0	1	+	0	1	blank2r.bmp	500	1	GKQX	500	1	blank2r.bmp	880	1	loyal	880	1	!	1232	1	!	-1	0	0	0	0	0	0
2024-04-30	11:23:31	12:58:13	5682131	6.6.1	4_exp_EVA_AWA_CON	3	B	A	Rpleas_acq	Same	Rpleas	2pleas	acq_US_pleas_nomask	acq45_nomask	5	24	400	1	300	300	0	0	381	50	1	0	loyal	freundlich	helfen	treu	spielen	schlau	lasch	fanatisch	hindern	tot	strafen	schroff	lachen	retten	ehrlich	schön	tolerant	fair	leiden	rächen	eitel	schlecht	tyrannisch	faul	1	blank2r.bmp	0	1	+	0	1	blank2r.bmp	500	1	GKQX	500	1	blank2r.bmp	880	1	loyal	880	1	!	1232	1	!	1282	0	0	0	0	0	0
2024-04-30	11:23:31	12:58:16	5684282	6.6.1	4_exp_EVA_AWA_CON	3	B	A	Rpleas_acq	Same	Rpleas	2pleas	acq_US_pleas_nomask	acq45_nomask	5	25	400	1	300	300	0	0	371	46	0	0	loyal	freundlich	helfen	treu	spielen	schlau	lasch	fanatisch	hindern	tot	strafen	schroff	lachen	retten	ehrlich	schön	tolerant	fair	leiden	rächen	eitel	schlecht	tyrannisch	faul	1	blank2r.bmp	0	1	+	0	1	blank2r.bmp	500	1	GKQX	500	1	blank2r.bmp	880	6	schlau	880	1	!	1232	1	!	1272	0	0	0	0	0	0
2024-04-30	11:23:31	12:58:18	5686394	6.6.1	4_exp_EVA_AWA_CON	3	B	A	Rpleas_acq	Same	Rpleas	2pleas	acq_US_pleas_nomask	acq45_nomask	5	26	400	1	300	300	0	0	333	50	1	0	loyal	freundlich	helfen	treu	spielen	schlau	lasch	fanatisch	hindern	tot	strafen	schroff	lachen	retten	ehrlich	schön	tolerant	fair	leiden	rächen	eitel	schlecht	tyrannisch	faul	1	blank2r.bmp	0	1	+	0	1	blank2r.bmp	500	1	GKQX	500	1	blank2r.bmp	880	2	freundlich	880	1	!	1232	1	!	1233	0	0	0	0	0	0
2024-04-30	11:23:31	12:58:20	5688448	6.6.1	4_exp_EVA_AWA_CON	3	B	A	Rpleas_acq	Same	Rpleas	2pleas	acq_US_unple_nomask	acq45_nomask	5	27	400	0	300	300	0	0	276	50	0	0	loyal	freundlich	helfen	treu	spielen	schlau	lasch	fanatisch	hindern	tot	strafen	schroff	lachen	retten	ehrlich	schön	tolerant	fair	leiden	rächen	eitel	schlecht	tyrannisch	faul	1	blank2r.bmp	0	1	+	0	1	blank2r.bmp	500	1	BMVZ	500	1	blank2r.bmp	880	1	lasch	880	1	!	-1	1	!	-1	0	0	0	0	0	0
2024-04-30	11:23:31	12:58:22	5690745	6.6.1	4_exp_EVA_AWA_CON	3	B	A	Rpleas_acq	Same	Rpleas	2pleas	acq_US_unple_nomask	acq45_nomask	5	28	400	0	300	300	0	0	521	46	1	0	loyal	freundlich	helfen	treu	spielen	schlau	lasch	fanatisch	hindern	tot	strafen	schroff	lachen	retten	ehrlich	schön	tolerant	fair	leiden	rächen	eitel	schlecht	tyrannisch	faul	1	blank2r.bmp	0	1	+	0	1	blank2r.bmp	500	1	BMVZ	500	1	blank2r.bmp	880	5	strafen	880	1	!	1232	1	!	-1	0	0	0	0	0	0
2024-04-30	11:23:31	12:58:24	5692833	6.6.1	4_exp_EVA_AWA_CON	3	B	A	Rpleas_acq	Same	Rpleas	2pleas	acq_US_pleas_nomask	acq45_nomask	5	29	400	0	300	300	0	0	308	46	0	0	loyal	freundlich	helfen	treu	spielen	schlau	lasch	fanatisch	hindern	tot	strafen	schroff	lachen	retten	ehrlich	schön	tolerant	fair	leiden	rächen	eitel	schlecht	tyrannisch	faul	1	blank2r.bmp	0	1	+	0	1	blank2r.bmp	500	1	GKQX	500	1	blank2r.bmp	880	3	helfen	880	1	!	-1	1	!	-1	0	0	0	0	0	0
2024-04-30	11:23:31	12:58:26	5694929	6.6.1	4_exp_EVA_AWA_CON	3	B	A	Rpleas_acq	Same	Rpleas	2pleas	acq_US_pleas_nomask	acq45_nomask	5	30	400	0	300	300	0	0	322	50	1	0	loyal	freundlich	helfen	treu	spielen	schlau	lasch	fanatisch	hindern	tot	strafen	schroff	lachen	retten	ehrlich	schön	tolerant	fair	leiden	rächen	eitel	schlecht	tyrannisch	faul	1	blank2r.bmp	0	1	+	0	1	blank2r.bmp	500	1	GKQX	500	1	blank2r.bmp	880	4	treu	880	1	!	-1	1	!	-1	0	0	0	0	0	0
2024-04-30	11:23:31	12:58:28	5697139	6.6.1	4_exp_EVA_AWA_CON	3	B	A	Rpleas_acq	Same	Rpleas	2pleas	acq_US_unple_nomask	acq45_nomask	5	31	400	1	300	300	0	0	429	50	0	0	loyal	freundlich	helfen	treu	spielen	schlau	lasch	fanatisch	hindern	tot	strafen	schroff	lachen	retten	ehrlich	schön	tolerant	fair	leiden	rächen	eitel	schlecht	tyrannisch	faul	1	blank2r.bmp	0	1	+	0	1	blank2r.bmp	500	1	BMVZ	500	1	blank2r.bmp	880	2	fanatisch	880	1	!	1232	1	!	1330	0	0	0	0	0	0
2024-04-30	11:23:31	12:58:31	5699465	6.6.1	4_exp_EVA_AWA_CON	3	B	A	Rpleas_acq	Same	Rpleas	2pleas	acq_US_unple_nomask	acq45_nomask	5	32	400	0	300	300	0	0	545	46	1	0	loyal	freundlich	helfen	treu	spielen	schlau	lasch	fanatisch	hindern	tot	strafen	schroff	lachen	retten	ehrlich	schön	tolerant	fair	leiden	rächen	eitel	schlecht	tyrannisch	faul	1	blank2r.bmp	0	1	+	0	1	blank2r.bmp	500	1	BMVZ	500	1	blank2r.bmp	880	6	schroff	880	1	!	1232	1	!	-1	0	0	0	0	0	0
2024-04-30	11:23:31	12:58:33	5701561	6.6.1	4_exp_EVA_AWA_CON	3	B	A	Rpleas_acq	Same	Rpleas	2pleas	acq_US_unple_nomask	acq45_nomask	5	33	400	0	300	300	0	0	320	46	1	0	loyal	freundlich	helfen	treu	spielen	schlau	lasch	fanatisch	hindern	tot	strafen	schroff	lachen	retten	ehrlich	schön	tolerant	fair	leiden	rächen	eitel	schlecht	tyrannisch	faul	1	blank2r.bmp	0	1	+	0	1	blank2r.bmp	500	1	BMVZ	500	1	blank2r.bmp	880	4	tot	880	1	!	-1	1	!	-1	0	0	0	0	0	0
2024-04-30	11:23:31	12:58:35	5703665	6.6.1	4_exp_EVA_AWA_CON	3	B	A	Rpleas_acq	Same	Rpleas	2pleas	acq_US_unple_nomask	acq45_nomask	5	34	400	0	300	300	0	0	323	46	1	0	loyal	freundlich	helfen	treu	spielen	schlau	lasch	fanatisch	hindern	tot	strafen	schroff	lachen	retten	ehrlich	schön	tolerant	fair	leiden	rächen	eitel	schlecht	tyrannisch	faul	1	blank2r.bmp	0	1	+	0	1	blank2r.bmp	500	1	BMVZ	500	1	blank2r.bmp	880	1	lasch	880	1	!	-1	1	!	-1	0	0	0	0	0	0
2024-04-30	11:23:31	12:58:37	5705882	6.6.1	4_exp_EVA_AWA_CON	3	B	A	Rpleas_acq	Same	Rpleas	2pleas	acq_US_unple_nomask	acq45_nomask	5	35	400	1	300	300	0	0	437	46	1	0	loyal	freundlich	helfen	treu	spielen	schlau	lasch	fanatisch	hindern	tot	strafen	schroff	lachen	retten	ehrlich	schön	tolerant	fair	leiden	rächen	eitel	schlecht	tyrannisch	faul	1	blank2r.bmp	0	1	+	0	1	blank2r.bmp	500	1	BMVZ	500	1	blank2r.bmp	880	3	hindern	880	1	!	1232	1	!	1338	0	0	0	0	0	0
2024-04-30	11:23:31	12:58:39	5708010	6.6.1	4_exp_EVA_AWA_CON	3	B	A	Rpleas_acq	Same	Rpleas	2pleas	acq_US_pleas_nomask	acq45_nomask	5	36	400	1	300	300	0	0	354	46	0	0	loyal	freundlich	helfen	treu	spielen	schlau	lasch	fanatisch	hindern	tot	strafen	schroff	lachen	retten	ehrlich	schön	tolerant	fair	leiden	rächen	eitel	schlecht	tyrannisch	faul	1	blank2r.bmp	0	1	+	0	1	blank2r.bmp	500	1	GKQX	500	1	blank2r.bmp	880	5	spielen	880	1	!	1232	1	!	1255	0	0	0	0	0	0
2024-04-30	11:23:31	12:59:32	5760870	6.6.1	4_exp_EVA_AWA_CON	3	B	A	Rpleas_acq	Same	Rpleas	2pleas	EvalRating_firsttwo	EvalRating_firsttwo	6	1	0	0	300	300	0	0	24536	line	0	-9,2447916666666571928pct	loyal	freundlich	helfen	treu	spielen	schlau	lasch	fanatisch	hindern	tot	strafen	schroff	lachen	retten	ehrlich	schön	tolerant	fair	leiden	rächen	eitel	schlecht	tyrannisch	faul	1		-8	1	Wie angenehm oder unangenehm finden Sie die  Buchstabenkette ZGVK?	-8	1		-8	1		-8	1		-8	1	Unangenehm	-8	1	Angenehm	-8	0	0	0	0	0	0	0	0	0
2024-04-30	11:23:31	12:59:41	5769614	6.6.1	4_exp_EVA_AWA_CON	3	B	A	Rpleas_acq	Same	Rpleas	2pleas	EvalRating_lastfour	EvalRating_lastfour	7	1	0	0	300	300	0	0	6363	line	0	-91,40625pct	loyal	freundlich	helfen	treu	spielen	schlau	lasch	fanatisch	hindern	tot	strafen	schroff	lachen	retten	ehrlich	schön	tolerant	fair	leiden	rächen	eitel	schlecht	tyrannisch	faul	1		-8	2	Wie angenehm oder unangenehm finden Sie die  Buchstabenkette GKQX?	-8	1		-8	1		-8	1		-8	1	Unangenehm	-8	1	Angenehm	-8	0	0	0	0	0	0	0	0	0
2024-04-30	11:23:31	12:59:43	5771978	6.6.1	4_exp_EVA_AWA_CON	3	B	A	Rpleas_acq	Same	Rpleas	2pleas	blank_screen	EvalRating_lastfour	7	3	0	0	300	300	0	0	0	0	0	-91,40625pct	loyal	freundlich	helfen	treu	spielen	schlau	lasch	fanatisch	hindern	tot	strafen	schroff	lachen	retten	ehrlich	schön	tolerant	fair	leiden	rächen	eitel	schlecht	tyrannisch	faul	1		-8	0	0	0	0	0	0	0	0	0	0	0	0	0	0	0	0	0	0	0	0	0	0	0	0	0	0	0
2024-04-30	11:23:31	12:59:50	5778669	6.6.1	4_exp_EVA_AWA_CON	3	B	A	Rpleas_acq	Same	Rpleas	2pleas	EvalRating_lastfour	EvalRating_lastfour	7	4	0	0	300	300	0	0	6103	line	0	18,2291666666666714036pct	loyal	freundlich	helfen	treu	spielen	schlau	lasch	fanatisch	hindern	tot	strafen	schroff	lachen	retten	ehrlich	schön	tolerant	fair	leiden	rächen	eitel	schlecht	tyrannisch	faul	1		-8	1	Wie angenehm oder unangenehm finden Sie die  Buchstabenkette BMVZ?	-8	1		-8	1		-8	1		-8	1	Unangenehm	-8	1	Angenehm	-8	0	0	0	0	0	0	0	0	0
2024-04-30	11:23:31	12:59:52	5781034	6.6.1	4_exp_EVA_AWA_CON	3	B	A	Rpleas_acq	Same	Rpleas	2pleas	blank_screen	EvalRating_lastfour	7	6	0	0	300	300	0	0	0	0	0	18,2291666666666714036pct	loyal	freundlich	helfen	treu	spielen	schlau	lasch	fanatisch	hindern	tot	strafen	schroff	lachen	retten	ehrlich	schön	tolerant	fair	leiden	rächen	eitel	schlecht	tyrannisch	faul	1		-8	0	0	0	0	0	0	0	0	0	0	0	0	0	0	0	0	0	0	0	0	0	0	0	0	0	0	0
2024-04-30	11:23:31	12:59:57	5785589	6.6.1	4_exp_EVA_AWA_CON	3	B	A	Rpleas_acq	Same	Rpleas	2pleas	EvalRating_lastfour	EvalRating_lastfour	7	7	0	0	300	300	0	0	3967	line	0	-81,25pct	loyal	freundlich	helfen	treu	spielen	schlau	lasch	fanatisch	hindern	tot	strafen	schroff	lachen	retten	ehrlich	schön	tolerant	fair	leiden	rächen	eitel	schlecht	tyrannisch	faul	1		-8	3	Wie angenehm oder unangenehm finden Sie die  Buchstabenkette XBQM?	-8	1		-8	1		-8	1		-8	1	Unangenehm	-8	1	Angenehm	-8	0	0	0	0	0	0	0	0	0
2024-04-30	11:23:31	13:00:27	5815955	6.6.1	4_exp_EVA_AWA_CON	3	B	A	Rpleas_acq	Same	Rpleas	2pleas	conawa_CS1_US4	conawa1_nomask	8	1	0	0	300	300	0	0	8782	schlecht	1	-81,25pct	loyal	freundlich	helfen	treu	spielen	schlau	lasch	fanatisch	hindern	tot	strafen	schroff	lachen	retten	ehrlich	schön	tolerant	fair	leiden	rächen	eitel	schlecht	tyrannisch	faul	0	0	0	0	0	0	0	0	0	0	0	0	0	0	0	0	0	0	0	0	0	0	0	0	0	0	0	0	0	0
2024-04-30	11:23:31	13:00:27	5815957	6.6.1	4_exp_EVA_AWA_CON	3	B	A	Rpleas_acq	Same	Rpleas	2pleas	conawa_CS1_US4_confidence	conawa1_nomask	8	1	0	0	300	300	0	0	8782	guess	1	-81,25pct	loyal	freundlich	helfen	treu	spielen	schlau	lasch	fanatisch	hindern	tot	strafen	schroff	lachen	retten	ehrlich	schön	tolerant	fair	leiden	rächen	eitel	schlecht	tyrannisch	faul	0	0	0	0	0	0	0	0	0	0	0	0	0	0	0	0	0	0	0	0	0	0	0	0	0	0	0	0	0	0
2024-04-30	11:23:31	13:00:39	5827633	6.6.1	4_exp_EVA_AWA_CON	3	B	A	Rpleas_acq	Same	Rpleas	2pleas	conawa_CS1_US2	conawa1_nomask	8	2	0	0	300	300	0	0	11058	fanatisch	1	-81,25pct	loyal	freundlich	helfen	treu	spielen	schlau	lasch	fanatisch	hindern	tot	strafen	schroff	lachen	retten	ehrlich	schön	tolerant	fair	leiden	rächen	eitel	schlecht	tyrannisch	faul	0	0	0	0	0	0	0	0	0	0	0	0	0	0	0	0	0	0	0	0	0	0	0	0	0	0	0	0	0	0
2024-04-30	11:23:31	13:00:39	5827634	6.6.1	4_exp_EVA_AWA_CON	3	B	A	Rpleas_acq	Same	Rpleas	2pleas	conawa_CS1_US2_confidence	conawa1_nomask	8	2	0	0	300	300	0	0	11058	guess	1	-81,25pct	loyal	freundlich	helfen	treu	spielen	schlau	lasch	fanatisch	hindern	tot	strafen	schroff	lachen	retten	ehrlich	schön	tolerant	fair	leiden	rächen	eitel	schlecht	tyrannisch	faul	0	0	0	0	0	0	0	0	0	0	0	0	0	0	0	0	0	0	0	0	0	0	0	0	0	0	0	0	0	0
2024-04-30	11:23:31	13:00:50	5838840	6.6.1	4_exp_EVA_AWA_CON	3	B	A	Rpleas_acq	Same	Rpleas	2pleas	conawa_CS1_US3	conawa1_nomask	8	3	0	0	300	300	0	0	10590	hindern	1	-81,25pct	loyal	freundlich	helfen	treu	spielen	schlau	lasch	fanatisch	hindern	tot	strafen	schroff	lachen	retten	ehrlich	schön	tolerant	fair	leiden	rächen	eitel	schlecht	tyrannisch	faul	0	0	0	0	0	0	0	0	0	0	0	0	0	0	0	0	0	0	0	0	0	0	0	0	0	0	0	0	0	0
2024-04-30	11:23:31	13:00:50	5838842	6.6.1	4_exp_EVA_AWA_CON	3	B	A	Rpleas_acq	Same	Rpleas	2pleas	conawa_CS1_US3_confidence	conawa1_nomask	8	3	0	0	300	300	0	0	10590	guess	1	-81,25pct	loyal	freundlich	helfen	treu	spielen	schlau	lasch	fanatisch	hindern	tot	strafen	schroff	lachen	retten	ehrlich	schön	tolerant	fair	leiden	rächen	eitel	schlecht	tyrannisch	faul	0	0	0	0	0	0	0	0	0	0	0	0	0	0	0	0	0	0	0	0	0	0	0	0	0	0	0	0	0	0
2024-04-30	11:23:31	13:00:57	5845885	6.6.1	4_exp_EVA_AWA_CON	3	B	A	Rpleas_acq	Same	Rpleas	2pleas	conawa_CS2_US4	conawa1_nomask	8	4	0	0	300	300	0	0	6427	tot	1	-81,25pct	loyal	freundlich	helfen	treu	spielen	schlau	lasch	fanatisch	hindern	tot	strafen	schroff	lachen	retten	ehrlich	schön	tolerant	fair	leiden	rächen	eitel	schlecht	tyrannisch	faul	0	0	0	0	0	0	0	0	0	0	0	0	0	0	0	0	0	0	0	0	0	0	0	0	0	0	0	0	0	0
2024-04-30	11:23:31	13:00:57	5845887	6.6.1	4_exp_EVA_AWA_CON	3	B	A	Rpleas_acq	Same	Rpleas	2pleas	conawa_CS2_US4_confidence	conawa1_nomask	8	4	0	0	300	300	0	0	6427	guess	1	-81,25pct	loyal	freundlich	helfen	treu	spielen	schlau	lasch	fanatisch	hindern	tot	strafen	schroff	lachen	retten	ehrlich	schön	tolerant	fair	leiden	rächen	eitel	schlecht	tyrannisch	faul	0	0	0	0	0	0	0	0	0	0	0	0	0	0	0	0	0	0	0	0	0	0	0	0	0	0	0	0	0	0
2024-04-30	11:23:31	13:01:06	5854520	6.6.1	4_exp_EVA_AWA_CON	3	B	A	Rpleas_acq	Same	Rpleas	2pleas	conawa_CS2_US3	conawa1_nomask	8	5	0	0	300	300	0	0	8019	helfen	1	-81,25pct	loyal	freundlich	helfen	treu	spielen	schlau	lasch	fanatisch	hindern	tot	strafen	schroff	lachen	retten	ehrlich	schön	tolerant	fair	leiden	rächen	eitel	schlecht	tyrannisch	faul	0	0	0	0	0	0	0	0	0	0	0	0	0	0	0	0	0	0	0	0	0	0	0	0	0	0	0	0	0	0
2024-04-30	11:23:31	13:01:06	5854522	6.6.1	4_exp_EVA_AWA_CON	3	B	A	Rpleas_acq	Same	Rpleas	2pleas	conawa_CS2_US3_confidence	conawa1_nomask	8	5	0	0	300	300	0	0	8019	guess	1	-81,25pct	loyal	freundlich	helfen	treu	spielen	schlau	lasch	fanatisch	hindern	tot	strafen	schroff	lachen	retten	ehrlich	schön	tolerant	fair	leiden	rächen	eitel	schlecht	tyrannisch	faul	0	0	0	0	0	0	0	0	0	0	0	0	0	0	0	0	0	0	0	0	0	0	0	0	0	0	0	0	0	0
2024-04-30	11:23:31	13:01:15	5863506	6.6.1	4_exp_EVA_AWA_CON	3	B	A	Rpleas_acq	Same	Rpleas	2pleas	conawa_CS2_US1	conawa1_nomask	8	6	0	0	300	300	0	0	8376	lasch	1	-81,25pct	loyal	freundlich	helfen	treu	spielen	schlau	lasch	fanatisch	hindern	tot	strafen	schroff	lachen	retten	ehrlich	schön	tolerant	fair	leiden	rächen	eitel	schlecht	tyrannisch	faul	0	0	0	0	0	0	0	0	0	0	0	0	0	0	0	0	0	0	0	0	0	0	0	0	0	0	0	0	0	0
2024-04-30	11:23:31	13:01:15	5863507	6.6.1	4_exp_EVA_AWA_CON	3	B	A	Rpleas_acq	Same	Rpleas	2pleas	conawa_CS2_US1_confidence	conawa1_nomask	8	6	0	0	300	300	0	0	8376	guess	1	-81,25pct	loyal	freundlich	helfen	treu	spielen	schlau	lasch	fanatisch	hindern	tot	strafen	schroff	lachen	retten	ehrlich	schön	tolerant	fair	leiden	rächen	eitel	schlecht	tyrannisch	faul	0	0	0	0	0	0	0	0	0	0	0	0	0	0	0	0	0	0	0	0	0	0	0	0	0	0	0	0	0	0
2024-04-30	11:23:31	13:01:23	5871681	6.6.1	4_exp_EVA_AWA_CON	3	B	A	Rpleas_acq	Same	Rpleas	2pleas	conawa_CS2_US5	conawa1_nomask	8	7	0	0	300	300	0	0	7564	spielen	1	-81,25pct	loyal	freundlich	helfen	treu	spielen	schlau	lasch	fanatisch	hindern	tot	strafen	schroff	lachen	retten	ehrlich	schön	tolerant	fair	leiden	rächen	eitel	schlecht	tyrannisch	faul	0	0	0	0	0	0	0	0	0	0	0	0	0	0	0	0	0	0	0	0	0	0	0	0	0	0	0	0	0	0
2024-04-30	11:23:31	13:01:23	5871683	6.6.1	4_exp_EVA_AWA_CON	3	B	A	Rpleas_acq	Same	Rpleas	2pleas	conawa_CS2_US5_confidence	conawa1_nomask	8	7	0	0	300	300	0	0	7564	guess	1	-81,25pct	loyal	freundlich	helfen	treu	spielen	schlau	lasch	fanatisch	hindern	tot	strafen	schroff	lachen	retten	ehrlich	schön	tolerant	fair	leiden	rächen	eitel	schlecht	tyrannisch	faul	0	0	0	0	0	0	0	0	0	0	0	0	0	0	0	0	0	0	0	0	0	0	0	0	0	0	0	0	0	0
2024-04-30	11:23:31	13:01:41	5889443	6.6.1	4_exp_EVA_AWA_CON	3	B	A	Rpleas_acq	Same	Rpleas	2pleas	conawa_CS2_US6	conawa1_nomask	8	8	0	0	300	300	0	0	17149	leiden	1	-81,25pct	loyal	freundlich	helfen	treu	spielen	schlau	lasch	fanatisch	hindern	tot	strafen	schroff	lachen	retten	ehrlich	schön	tolerant	fair	leiden	rächen	eitel	schlecht	tyrannisch	faul	0	0	0	0	0	0	0	0	0	0	0	0	0	0	0	0	0	0	0	0	0	0	0	0	0	0	0	0	0	0
2024-04-30	11:23:31	13:01:41	5889445	6.6.1	4_exp_EVA_AWA_CON	3	B	A	Rpleas_acq	Same	Rpleas	2pleas	conawa_CS2_US6_confidence	conawa1_nomask	8	8	0	0	300	300	0	0	17149	guess	1	-81,25pct	loyal	freundlich	helfen	treu	spielen	schlau	lasch	fanatisch	hindern	tot	strafen	schroff	lachen	retten	ehrlich	schön	tolerant	fair	leiden	rächen	eitel	schlecht	tyrannisch	faul	0	0	0	0	0	0	0	0	0	0	0	0	0	0	0	0	0	0	0	0	0	0	0	0	0	0	0	0	0	0
2024-04-30	11:23:31	13:01:55	5903192	6.6.1	4_exp_EVA_AWA_CON	3	B	A	Rpleas_acq	Same	Rpleas	2pleas	conawa_CS1_US6	conawa1_nomask	8	9	0	0	300	300	0	0	13132	schlau	1	-81,25pct	loyal	freundlich	helfen	treu	spielen	schlau	lasch	fanatisch	hindern	tot	strafen	schroff	lachen	retten	ehrlich	schön	tolerant	fair	leiden	rächen	eitel	schlecht	tyrannisch	faul	0	0	0	0	0	0	0	0	0	0	0	0	0	0	0	0	0	0	0	0	0	0	0	0	0	0	0	0	0	0
2024-04-30	11:23:31	13:01:55	5903194	6.6.1	4_exp_EVA_AWA_CON	3	B	A	Rpleas_acq	Same	Rpleas	2pleas	conawa_CS1_US6_confidence	conawa1_nomask	8	9	0	0	300	300	0	0	13132	guess	1	-81,25pct	loyal	freundlich	helfen	treu	spielen	schlau	lasch	fanatisch	hindern	tot	strafen	schroff	lachen	retten	ehrlich	schön	tolerant	fair	leiden	rächen	eitel	schlecht	tyrannisch	faul	0	0	0	0	0	0	0	0	0	0	0	0	0	0	0	0	0	0	0	0	0	0	0	0	0	0	0	0	0	0
2024-04-30	11:23:31	13:02:10	5918252	6.6.1	4_exp_EVA_AWA_CON	3	B	A	Rpleas_acq	Same	Rpleas	2pleas	conawa_CS1_US5	conawa1_nomask	8	10	0	0	300	300	0	0	14447	tyrannisch	1	-81,25pct	loyal	freundlich	helfen	treu	spielen	schlau	lasch	fanatisch	hindern	tot	strafen	schroff	lachen	retten	ehrlich	schön	tolerant	fair	leiden	rächen	eitel	schlecht	tyrannisch	faul	0	0	0	0	0	0	0	0	0	0	0	0	0	0	0	0	0	0	0	0	0	0	0	0	0	0	0	0	0	0
2024-04-30	11:23:31	13:02:10	5918253	6.6.1	4_exp_EVA_AWA_CON	3	B	A	Rpleas_acq	Same	Rpleas	2pleas	conawa_CS1_US5_confidence	conawa1_nomask	8	10	0	0	300	300	0	0	14447	guess	1	-81,25pct	loyal	freundlich	helfen	treu	spielen	schlau	lasch	fanatisch	hindern	tot	strafen	schroff	lachen	retten	ehrlich	schön	tolerant	fair	leiden	rächen	eitel	schlecht	tyrannisch	faul	0	0	0	0	0	0	0	0	0	0	0	0	0	0	0	0	0	0	0	0	0	0	0	0	0	0	0	0	0	0
2024-04-30	11:23:31	13:02:16	5924696	6.6.1	4_exp_EVA_AWA_CON	3	B	A	Rpleas_acq	Same	Rpleas	2pleas	conawa_CS2_US2	conawa1_nomask	8	11	0	0	300	300	0	0	5827	fanatisch	1	-81,25pct	loyal	freundlich	helfen	treu	spielen	schlau	lasch	fanatisch	hindern	tot	strafen	schroff	lachen	retten	ehrlich	schön	tolerant	fair	leiden	rächen	eitel	schlecht	tyrannisch	faul	0	0	0	0	0	0	0	0	0	0	0	0	0	0	0	0	0	0	0	0	0	0	0	0	0	0	0	0	0	0
2024-04-30	11:23:31	13:02:16	5924698	6.6.1	4_exp_EVA_AWA_CON	3	B	A	Rpleas_acq	Same	Rpleas	2pleas	conawa_CS2_US2_confidence	conawa1_nomask	8	11	0	0	300	300	0	0	5827	guess	1	-81,25pct	loyal	freundlich	helfen	treu	spielen	schlau	lasch	fanatisch	hindern	tot	strafen	schroff	lachen	retten	ehrlich	schön	tolerant	fair	leiden	rächen	eitel	schlecht	tyrannisch	faul	0	0	0	0	0	0	0	0	0	0	0	0	0	0	0	0	0	0	0	0	0	0	0	0	0	0	0	0	0	0
2024-04-30	11:23:31	13:02:25	5934142	6.6.1	4_exp_EVA_AWA_CON	3	B	A	Rpleas_acq	Same	Rpleas	2pleas	conawa_CS1_US1	conawa1_nomask	8	12	0	0	300	300	0	0	8831	lasch	1	-81,25pct	loyal	freundlich	helfen	treu	spielen	schlau	lasch	fanatisch	hindern	tot	strafen	schroff	lachen	retten	ehrlich	schön	tolerant	fair	leiden	rächen	eitel	schlecht	tyrannisch	faul	0	0	0	0	0	0	0	0	0	0	0	0	0	0	0	0	0	0	0	0	0	0	0	0	0	0	0	0	0	0
2024-04-30	11:23:31	13:02:25	5934144	6.6.1	4_exp_EVA_AWA_CON	3	B	A	Rpleas_acq	Same	Rpleas	2pleas	conawa_CS1_US1_confidence	conawa1_nomask	8	12	0	0	300	300	0	0	8831	guess	1	-81,25pct	loyal	freundlich	helfen	treu	spielen	schlau	lasch	fanatisch	hindern	tot	strafen	schroff	lachen	retten	ehrlich	schön	tolerant	fair	leiden	rächen	eitel	schlecht	tyrannisch	faul	0	0	0	0	0	0	0	0	0	0	0	0	0	0	0	0	0	0	0	0	0	0	0	0	0	0	0	0	0	0
2024-04-30	11:23:31	13:03:52	6021104	6.6.1	4_exp_EVA_AWA_CON	3	B	A	Rpleas_acq	Same	Rpleas	2pleas	cond_US_unple_123_nomask_CS1	condtest_nomask_1	11	1	400	0	300	300	0	0	926	46	1	-81,25pct	loyal	freundlich	helfen	treu	spielen	schlau	lasch	fanatisch	hindern	tot	strafen	schroff	lachen	retten	ehrlich	schön	tolerant	fair	leiden	rächen	eitel	schlecht	tyrannisch	faul	1	blank2r.bmp	0	1	+	0	1	blank2r.bmp	500	1	BMVZ	500	1	blank2r.bmp	880	1	lasch	880	1	!	1232	1	!	-1	0	0	0	0	0	0
2024-04-30	11:23:31	13:03:55	6023416	6.6.1	4_exp_EVA_AWA_CON	3	B	A	Rpleas_acq	Same	Rpleas	2pleas	cond_US_pleas_123_nomask_CS2	condtest_nomask_1	11	2	400	0	300	300	0	0	535	50	1	-81,25pct	loyal	freundlich	helfen	treu	spielen	schlau	lasch	fanatisch	hindern	tot	strafen	schroff	lachen	retten	ehrlich	schön	tolerant	fair	leiden	rächen	eitel	schlecht	tyrannisch	faul	1	blank2r.bmp	0	1	+	0	1	blank2r.bmp	500	1	GKQX	500	1	blank2r.bmp	880	1	helfen	880	1	!	1232	1	!	-1	0	0	0	0	0	0
2024-04-30	11:23:31	13:03:57	6025896	6.6.1	4_exp_EVA_AWA_CON	3	B	A	Rpleas_acq	Same	Rpleas	2pleas	cond_US_unple_123_nomask_CS2	condtest_nomask_1	11	3	400	0	300	300	0	0	704	46	1	-81,25pct	loyal	freundlich	helfen	treu	spielen	schlau	lasch	fanatisch	hindern	tot	strafen	schroff	lachen	retten	ehrlich	schön	tolerant	fair	leiden	rächen	eitel	schlecht	tyrannisch	faul	1	blank2r.bmp	0	1	+	0	1	blank2r.bmp	500	1	GKQX	500	1	blank2r.bmp	880	3	fanatisch	880	1	!	1232	1	!	-1	0	0	0	0	0	0
2024-04-30	11:23:31	13:04:00	6028200	6.6.1	4_exp_EVA_AWA_CON	3	B	A	Rpleas_acq	Same	Rpleas	2pleas	cond_new_pleas_456_nomask_CS2	condtest_nomask_1	11	4	400	0	300	300	0	0	526	46	0	-81,25pct	loyal	freundlich	helfen	treu	spielen	schlau	lasch	fanatisch	hindern	tot	strafen	schroff	lachen	retten	ehrlich	schön	tolerant	fair	leiden	rächen	eitel	schlecht	tyrannisch	faul	1	blank2r.bmp	0	1	+	0	1	blank2r.bmp	500	1	GKQX	500	1	blank2r.bmp	880	1	fair	880	1	!	1232	1	!	-1	0	0	0	0	0	0
2024-04-30	11:23:31	13:04:02	6030454	6.6.1	4_exp_EVA_AWA_CON	3	B	A	Rpleas_acq	Same	Rpleas	2pleas	cond_US_pleas_123_nomask_CS1	condtest_nomask_1	11	5	400	0	300	300	0	0	481	50	1	-81,25pct	loyal	freundlich	helfen	treu	spielen	schlau	lasch	fanatisch	hindern	tot	strafen	schroff	lachen	retten	ehrlich	schön	tolerant	fair	leiden	rächen	eitel	schlecht	tyrannisch	faul	1	blank2r.bmp	0	1	+	0	1	blank2r.bmp	500	1	BMVZ	500	1	blank2r.bmp	880	2	freundlich	880	1	!	1232	1	!	-1	0	0	0	0	0	0
2024-04-30	11:23:31	13:04:04	6032650	6.6.1	4_exp_EVA_AWA_CON	3	B	A	Rpleas_acq	Same	Rpleas	2pleas	cond_new_pleas_456_nomask_CS1	condtest_nomask_1	11	6	400	1	300	300	0	0	421	50	1	-81,25pct	loyal	freundlich	helfen	treu	spielen	schlau	lasch	fanatisch	hindern	tot	strafen	schroff	lachen	retten	ehrlich	schön	tolerant	fair	leiden	rächen	eitel	schlecht	tyrannisch	faul	1	blank2r.bmp	0	1	+	0	1	blank2r.bmp	500	1	BMVZ	500	1	blank2r.bmp	880	1	schön	880	1	!	1232	1	!	1323	0	0	0	0	0	0
2024-04-30	11:23:31	13:04:06	6034984	6.6.1	4_exp_EVA_AWA_CON	3	B	A	Rpleas_acq	Same	Rpleas	2pleas	cond_new_unple_456_nomask_CS1	condtest_nomask_1	11	7	400	0	300	300	0	0	556	46	1	-81,25pct	loyal	freundlich	helfen	treu	spielen	schlau	lasch	fanatisch	hindern	tot	strafen	schroff	lachen	retten	ehrlich	schön	tolerant	fair	leiden	rächen	eitel	schlecht	tyrannisch	faul	1	blank2r.bmp	0	1	+	0	1	blank2r.bmp	500	1	BMVZ	500	1	blank2r.bmp	880	3	faul	880	1	!	1232	1	!	-1	0	0	0	0	0	0
2024-04-30	11:23:31	13:04:09	6037304	6.6.1	4_exp_EVA_AWA_CON	3	B	A	Rpleas_acq	Same	Rpleas	2pleas	cond_new_unple_456_nomask_CS2	condtest_nomask_1	11	8	400	0	300	300	0	0	545	46	1	-81,25pct	loyal	freundlich	helfen	treu	spielen	schlau	lasch	fanatisch	hindern	tot	strafen	schroff	lachen	retten	ehrlich	schön	tolerant	fair	leiden	rächen	eitel	schlecht	tyrannisch	faul	1	blank2r.bmp	0	1	+	0	1	blank2r.bmp	500	1	GKQX	500	1	blank2r.bmp	880	1	faul	880	1	!	1232	1	!	-1	0	0	0	0	0	0
2024-04-30	11:23:31	13:04:25	6053498	6.6.1	4_exp_EVA_AWA_CON	3	B	A	Rpleas_acq	Same	Rpleas	2pleas	cond_US_pleas_123_nomask_CS1	condtest_nomask_2	12	1	400	1	300	300	0	0	406	50	1	-81,25pct	loyal	freundlich	helfen	treu	spielen	schlau	lasch	fanatisch	hindern	tot	strafen	schroff	lachen	retten	ehrlich	schön	tolerant	fair	leiden	rächen	eitel	schlecht	tyrannisch	faul	1	blank2r.bmp	0	1	+	0	1	blank2r.bmp	500	1	BMVZ	500	1	blank2r.bmp	880	3	helfen	880	1	!	1232	1	!	1307	0	0	0	0	0	0
2024-04-30	11:23:31	13:04:27	6055593	6.6.1	4_exp_EVA_AWA_CON	3	B	A	Rpleas_acq	Same	Rpleas	2pleas	cond_US_unple_123_nomask_CS1	condtest_nomask_2	12	2	400	0	300	300	0	0	321	50	0	-81,25pct	loyal	freundlich	helfen	treu	spielen	schlau	lasch	fanatisch	hindern	tot	strafen	schroff	lachen	retten	ehrlich	schön	tolerant	fair	leiden	rächen	eitel	schlecht	tyrannisch	faul	1	blank2r.bmp	0	1	+	0	1	blank2r.bmp	500	1	BMVZ	500	1	blank2r.bmp	880	3	hindern	880	1	!	-1	1	!	-1	0	0	0	0	0	0
