date	time	currenttime	elapsedtime	build	currentexpt	subject	CS_AB	US_AB	LRpleas_acq	SameOppo	condition_Lpleas	condition_1pleas	trialcode	blockcode	blocknum	trialnum	windowcenter	inwindow	pretrialpause	posttrialpause	trialduration	trialtimeout	latency	response	correct	correctedscore	US_nomask_pleas1	US_nomask_pleas2	US_nomask_pleas3	US_nomask_pleas4	US_nomask_pleas5	US_nomask_pleas6	US_nomask_unple1	US_nomask_unple2	US_nomask_unple3	US_nomask_unple4	US_nomask_unple5	US_nomask_unple6	new_nomask_pleas1	new_nomask_pleas2	new_nomask_pleas3	new_nomask_pleas4	new_nomask_pleas5	new_nomask_pleas6	new_nomask_unple1	new_nomask_unple2	new_nomask_unple3	new_nomask_unple4	new_nomask_unple5	new_nomask_unple6	stimulusnumber1	stimulusitem1	stimulusonset1	stimulusnumber2	stimulusitem2	stimulusonset2	stimulusnumber3	stimulusitem3	stimulusonset3	stimulusnumber4	stimulusitem4	stimulusonset4	stimulusnumber5	stimulusitem5	stimulusonset5	stimulusnumber6	stimulusitem6	stimulusonset6	stimulusnumber7	stimulusitem7	stimulusonset7	stimulusnumber8	stimulusitem8	stimulusonset8	stimulusnumber9	stimulusitem9	stimulusonset9	stimulusnumber10	stimulusitem10	stimulusonset10
2024-05-23	11:13:31	11:17:18	226159	6.6.1	4_exp_EVA_AWA_CON	49	A	B	Rpleas_acq	Same	Rpleas	1pleas	acq_US_unple_nomask	acq1_nomask	1	1	0	0	300	300	0	0	882	46	1	0	kreativ	anregung	engagiert	träumen	sonnig	gütig	krank	ausrottung	engstirnig	töten	sterben	gierig	vertrauen	genießen	kuss	besonnen	vergnügt	gesittet	versagen	gemein	krise	bange	verbissen	geizig	1	blank2r.bmp	0	1	+	0	1	blank2r.bmp	500	1	DHJF	500	1	blank2r.bmp	880	4	töten	880	0	0	0	0	0	0	0	0	0	0	0	0
2024-05-23	11:13:31	11:17:20	228279	6.6.1	4_exp_EVA_AWA_CON	49	A	B	Rpleas_acq	Same	Rpleas	1pleas	acq_US_pleas_nomask	acq1_nomask	1	2	0	0	300	300	0	0	631	50	1	0	kreativ	anregung	engagiert	träumen	sonnig	gütig	krank	ausrottung	engstirnig	töten	sterben	gierig	vertrauen	genießen	kuss	besonnen	vergnügt	gesittet	versagen	gemein	krise	bange	verbissen	geizig	1	blank2r.bmp	0	1	+	0	1	blank2r.bmp	500	1	CPLW	500	1	blank2r.bmp	880	3	engagiert	880	0	0	0	0	0	0	0	0	0	0	0	0
2024-05-23	11:13:31	11:17:22	230423	6.6.1	4_exp_EVA_AWA_CON	49	A	B	Rpleas_acq	Same	Rpleas	1pleas	acq_new_unple_nomask	acq1_nomask	1	3	0	0	300	300	0	0	663	46	1	0	kreativ	anregung	engagiert	träumen	sonnig	gütig	krank	ausrottung	engstirnig	töten	sterben	gierig	vertrauen	genießen	kuss	besonnen	vergnügt	gesittet	versagen	gemein	krise	bange	verbissen	geizig	1	blank2r.bmp	0	1	+	0	1	blank2r.bmp	500	2	B2r.bmp	500	1	blank2r.bmp	880	5	verbissen	880	0	0	0	0	0	0	0	0	0	0	0	0
2024-05-23	11:13:31	11:17:24	232407	6.6.1	4_exp_EVA_AWA_CON	49	A	B	Rpleas_acq	Same	Rpleas	1pleas	acq_US_pleas_nomask	acq1_nomask	1	4	0	0	300	300	0	0	496	50	1	0	kreativ	anregung	engagiert	träumen	sonnig	gütig	krank	ausrottung	engstirnig	töten	sterben	gierig	vertrauen	genießen	kuss	besonnen	vergnügt	gesittet	versagen	gemein	krise	bange	verbissen	geizig	1	blank2r.bmp	0	1	+	0	1	blank2r.bmp	500	1	CPLW	500	1	blank2r.bmp	880	5	sonnig	880	0	0	0	0	0	0	0	0	0	0	0	0
2024-05-23	11:13:31	11:17:26	234575	6.6.1	4_exp_EVA_AWA_CON	49	A	B	Rpleas_acq	Same	Rpleas	1pleas	acq_new_unple_nomask	acq1_nomask	1	5	0	0	300	300	0	0	683	46	1	0	kreativ	anregung	engagiert	träumen	sonnig	gütig	krank	ausrottung	engstirnig	töten	sterben	gierig	vertrauen	genießen	kuss	besonnen	vergnügt	gesittet	versagen	gemein	krise	bange	verbissen	geizig	1	blank2r.bmp	0	1	+	0	1	blank2r.bmp	500	4	B4r.bmp	500	1	blank2r.bmp	880	6	geizig	880	0	0	0	0	0	0	0	0	0	0	0	0
2024-05-23	11:13:31	11:17:28	236647	6.6.1	4_exp_EVA_AWA_CON	49	A	B	Rpleas_acq	Same	Rpleas	1pleas	acq_new_unple_nomask	acq1_nomask	1	6	0	0	300	300	0	0	584	46	1	0	kreativ	anregung	engagiert	träumen	sonnig	gütig	krank	ausrottung	engstirnig	töten	sterben	gierig	vertrauen	genießen	kuss	besonnen	vergnügt	gesittet	versagen	gemein	krise	bange	verbissen	geizig	1	blank2r.bmp	0	1	+	0	1	blank2r.bmp	500	1	B1r.bmp	500	1	blank2r.bmp	880	3	krise	880	0	0	0	0	0	0	0	0	0	0	0	0
2024-05-23	11:13:31	11:17:30	238775	6.6.1	4_exp_EVA_AWA_CON	49	A	B	Rpleas_acq	Same	Rpleas	1pleas	acq_US_pleas_nomask	acq1_nomask	1	7	0	0	300	300	0	0	640	50	1	0	kreativ	anregung	engagiert	träumen	sonnig	gütig	krank	ausrottung	engstirnig	töten	sterben	gierig	vertrauen	genießen	kuss	besonnen	vergnügt	gesittet	versagen	gemein	krise	bange	verbissen	geizig	1	blank2r.bmp	0	1	+	0	1	blank2r.bmp	500	1	CPLW	500	1	blank2r.bmp	880	6	gütig	880	0	0	0	0	0	0	0	0	0	0	0	0
2024-05-23	11:13:31	11:17:33	240799	6.6.1	4_exp_EVA_AWA_CON	49	A	B	Rpleas_acq	Same	Rpleas	1pleas	acq_new_pleas_nomask	acq1_nomask	1	8	0	0	300	300	0	0	542	50	1	0	kreativ	anregung	engagiert	träumen	sonnig	gütig	krank	ausrottung	engstirnig	töten	sterben	gierig	vertrauen	genießen	kuss	besonnen	vergnügt	gesittet	versagen	gemein	krise	bange	verbissen	geizig	1	blank2r.bmp	0	1	+	0	1	blank2r.bmp	500	5	C1r.bmp	500	1	blank2r.bmp	880	2	genießen	880	0	0	0	0	0	0	0	0	0	0	0	0
2024-05-23	11:13:31	11:17:35	242879	6.6.1	4_exp_EVA_AWA_CON	49	A	B	Rpleas_acq	Same	Rpleas	1pleas	acq_new_pleas_nomask	acq1_nomask	1	9	0	0	300	300	0	0	591	50	1	0	kreativ	anregung	engagiert	träumen	sonnig	gütig	krank	ausrottung	engstirnig	töten	sterben	gierig	vertrauen	genießen	kuss	besonnen	vergnügt	gesittet	versagen	gemein	krise	bange	verbissen	geizig	1	blank2r.bmp	0	1	+	0	1	blank2r.bmp	500	3	B3r.bmp	500	1	blank2r.bmp	880	5	vergnügt	880	0	0	0	0	0	0	0	0	0	0	0	0
2024-05-23	11:13:31	11:17:37	244903	6.6.1	4_exp_EVA_AWA_CON	49	A	B	Rpleas_acq	Same	Rpleas	1pleas	acq_new_pleas_nomask	acq1_nomask	1	10	0	0	300	300	0	0	534	50	1	0	kreativ	anregung	engagiert	träumen	sonnig	gütig	krank	ausrottung	engstirnig	töten	sterben	gierig	vertrauen	genießen	kuss	besonnen	vergnügt	gesittet	versagen	gemein	krise	bange	verbissen	geizig	1	blank2r.bmp	0	1	+	0	1	blank2r.bmp	500	8	C4r.bmp	500	1	blank2r.bmp	880	1	vertrauen	880	0	0	0	0	0	0	0	0	0	0	0	0
2024-05-23	11:13:31	11:17:39	246823	6.6.1	4_exp_EVA_AWA_CON	49	A	B	Rpleas_acq	Same	Rpleas	1pleas	acq_US_unple_nomask	acq1_nomask	1	11	0	0	300	300	0	0	433	46	1	0	kreativ	anregung	engagiert	träumen	sonnig	gütig	krank	ausrottung	engstirnig	töten	sterben	gierig	vertrauen	genießen	kuss	besonnen	vergnügt	gesittet	versagen	gemein	krise	bange	verbissen	geizig	1	blank2r.bmp	0	1	+	0	1	blank2r.bmp	500	1	DHJF	500	1	blank2r.bmp	880	1	krank	880	0	0	0	0	0	0	0	0	0	0	0	0
2024-05-23	11:13:31	11:17:41	249080	6.6.1	4_exp_EVA_AWA_CON	49	A	B	Rpleas_acq	Same	Rpleas	1pleas	acq_US_unple_nomask	acq1_nomask	1	12	0	0	300	300	0	0	567	50	0	0	kreativ	anregung	engagiert	träumen	sonnig	gütig	krank	ausrottung	engstirnig	töten	sterben	gierig	vertrauen	genießen	kuss	besonnen	vergnügt	gesittet	versagen	gemein	krise	bange	verbissen	geizig	1	blank2r.bmp	0	1	+	0	1	blank2r.bmp	500	1	DHJF	500	1	blank2r.bmp	880	5	sterben	880	1	FEHLER	1469	0	0	0	0	0	0	0	0	0
2024-05-23	11:13:31	11:17:43	251039	6.6.1	4_exp_EVA_AWA_CON	49	A	B	Rpleas_acq	Same	Rpleas	1pleas	acq_US_unple_nomask	acq1_nomask	1	13	0	0	300	300	0	0	676	46	1	0	kreativ	anregung	engagiert	träumen	sonnig	gütig	krank	ausrottung	engstirnig	töten	sterben	gierig	vertrauen	genießen	kuss	besonnen	vergnügt	gesittet	versagen	gemein	krise	bange	verbissen	geizig	1	blank2r.bmp	0	1	+	0	1	blank2r.bmp	500	1	DHJF	500	1	blank2r.bmp	880	2	ausrottung	880	0	0	0	0	0	0	0	0	0	0	0	0
2024-05-23	11:13:31	11:17:45	253023	6.6.1	4_exp_EVA_AWA_CON	49	A	B	Rpleas_acq	Same	Rpleas	1pleas	acq_US_pleas_nomask	acq1_nomask	1	14	0	0	300	300	0	0	499	50	1	0	kreativ	anregung	engagiert	träumen	sonnig	gütig	krank	ausrottung	engstirnig	töten	sterben	gierig	vertrauen	genießen	kuss	besonnen	vergnügt	gesittet	versagen	gemein	krise	bange	verbissen	geizig	1	blank2r.bmp	0	1	+	0	1	blank2r.bmp	500	1	CPLW	500	1	blank2r.bmp	880	4	träumen	880	0	0	0	0	0	0	0	0	0	0	0	0
2024-05-23	11:13:31	11:17:47	255039	6.6.1	4_exp_EVA_AWA_CON	49	A	B	Rpleas_acq	Same	Rpleas	1pleas	acq_US_pleas_nomask	acq1_nomask	1	15	0	0	300	300	0	0	533	50	1	0	kreativ	anregung	engagiert	träumen	sonnig	gütig	krank	ausrottung	engstirnig	töten	sterben	gierig	vertrauen	genießen	kuss	besonnen	vergnügt	gesittet	versagen	gemein	krise	bange	verbissen	geizig	1	blank2r.bmp	0	1	+	0	1	blank2r.bmp	500	1	CPLW	500	1	blank2r.bmp	880	2	anregung	880	0	0	0	0	0	0	0	0	0	0	0	0
2024-05-23	11:13:31	11:17:49	257015	6.6.1	4_exp_EVA_AWA_CON	49	A	B	Rpleas_acq	Same	Rpleas	1pleas	acq_new_pleas_nomask	acq1_nomask	1	16	0	0	300	300	0	0	488	50	1	0	kreativ	anregung	engagiert	träumen	sonnig	gütig	krank	ausrottung	engstirnig	töten	sterben	gierig	vertrauen	genießen	kuss	besonnen	vergnügt	gesittet	versagen	gemein	krise	bange	verbissen	geizig	1	blank2r.bmp	0	1	+	0	1	blank2r.bmp	500	6	C2r.bmp	500	1	blank2r.bmp	880	3	kuss	880	0	0	0	0	0	0	0	0	0	0	0	0
2024-05-23	11:13:31	11:17:51	259119	6.6.1	4_exp_EVA_AWA_CON	49	A	B	Rpleas_acq	Same	Rpleas	1pleas	acq_new_unple_nomask	acq1_nomask	1	17	0	0	300	300	0	0	621	46	1	0	kreativ	anregung	engagiert	träumen	sonnig	gütig	krank	ausrottung	engstirnig	töten	sterben	gierig	vertrauen	genießen	kuss	besonnen	vergnügt	gesittet	versagen	gemein	krise	bange	verbissen	geizig	1	blank2r.bmp	0	1	+	0	1	blank2r.bmp	500	7	C3r.bmp	500	1	blank2r.bmp	880	2	gemein	880	0	0	0	0	0	0	0	0	0	0	0	0
2024-05-23	11:13:31	11:17:53	261063	6.6.1	4_exp_EVA_AWA_CON	49	A	B	Rpleas_acq	Same	Rpleas	1pleas	acq_US_pleas_nomask	acq1_nomask	1	18	0	0	300	300	0	0	453	50	1	0	kreativ	anregung	engagiert	träumen	sonnig	gütig	krank	ausrottung	engstirnig	töten	sterben	gierig	vertrauen	genießen	kuss	besonnen	vergnügt	gesittet	versagen	gemein	krise	bange	verbissen	geizig	1	blank2r.bmp	0	1	+	0	1	blank2r.bmp	500	1	CPLW	500	1	blank2r.bmp	880	1	kreativ	880	0	0	0	0	0	0	0	0	0	0	0	0
2024-05-23	11:13:31	11:17:55	263079	6.6.1	4_exp_EVA_AWA_CON	49	A	B	Rpleas_acq	Same	Rpleas	1pleas	acq_new_pleas_nomask	acq1_nomask	1	19	0	0	300	300	0	0	528	50	1	0	kreativ	anregung	engagiert	träumen	sonnig	gütig	krank	ausrottung	engstirnig	töten	sterben	gierig	vertrauen	genießen	kuss	besonnen	vergnügt	gesittet	versagen	gemein	krise	bange	verbissen	geizig	1	blank2r.bmp	0	1	+	0	1	blank2r.bmp	500	3	B3r.bmp	500	1	blank2r.bmp	880	4	besonnen	880	0	0	0	0	0	0	0	0	0	0	0	0
2024-05-23	11:13:31	11:17:57	265151	6.6.1	4_exp_EVA_AWA_CON	49	A	B	Rpleas_acq	Same	Rpleas	1pleas	acq_new_pleas_nomask	acq1_nomask	1	20	0	0	300	300	0	0	589	50	1	0	kreativ	anregung	engagiert	träumen	sonnig	gütig	krank	ausrottung	engstirnig	töten	sterben	gierig	vertrauen	genießen	kuss	besonnen	vergnügt	gesittet	versagen	gemein	krise	bange	verbissen	geizig	1	blank2r.bmp	0	1	+	0	1	blank2r.bmp	500	1	B1r.bmp	500	1	blank2r.bmp	880	6	gesittet	880	0	0	0	0	0	0	0	0	0	0	0	0
2024-05-23	11:13:31	11:17:59	267208	6.6.1	4_exp_EVA_AWA_CON	49	A	B	Rpleas_acq	Same	Rpleas	1pleas	acq_US_unple_nomask	acq1_nomask	1	21	0	0	300	300	0	0	574	46	1	0	kreativ	anregung	engagiert	träumen	sonnig	gütig	krank	ausrottung	engstirnig	töten	sterben	gierig	vertrauen	genießen	kuss	besonnen	vergnügt	gesittet	versagen	gemein	krise	bange	verbissen	geizig	1	blank2r.bmp	0	1	+	0	1	blank2r.bmp	500	1	DHJF	500	1	blank2r.bmp	880	6	gierig	880	0	0	0	0	0	0	0	0	0	0	0	0
2024-05-23	11:13:31	11:18:01	269223	6.6.1	4_exp_EVA_AWA_CON	49	A	B	Rpleas_acq	Same	Rpleas	1pleas	acq_new_unple_nomask	acq1_nomask	1	22	0	0	300	300	0	0	528	46	1	0	kreativ	anregung	engagiert	träumen	sonnig	gütig	krank	ausrottung	engstirnig	töten	sterben	gierig	vertrauen	genießen	kuss	besonnen	vergnügt	gesittet	versagen	gemein	krise	bange	verbissen	geizig	1	blank2r.bmp	0	1	+	0	1	blank2r.bmp	500	7	C3r.bmp	500	1	blank2r.bmp	880	1	versagen	880	0	0	0	0	0	0	0	0	0	0	0	0
2024-05-23	11:13:31	11:18:03	271560	6.6.1	4_exp_EVA_AWA_CON	49	A	B	Rpleas_acq	Same	Rpleas	1pleas	acq_US_unple_nomask	acq1_nomask	1	23	0	0	300	300	0	0	653	50	0	0	kreativ	anregung	engagiert	träumen	sonnig	gütig	krank	ausrottung	engstirnig	töten	sterben	gierig	vertrauen	genießen	kuss	besonnen	vergnügt	gesittet	versagen	gemein	krise	bange	verbissen	geizig	1	blank2r.bmp	0	1	+	0	1	blank2r.bmp	500	1	DHJF	500	1	blank2r.bmp	880	3	engstirnig	880	1	FEHLER	1555	0	0	0	0	0	0	0	0	0
2024-05-23	11:13:31	11:18:05	273543	6.6.1	4_exp_EVA_AWA_CON	49	A	B	Rpleas_acq	Same	Rpleas	1pleas	acq_new_unple_nomask	acq1_nomask	1	24	0	0	300	300	0	0	696	46	1	0	kreativ	anregung	engagiert	träumen	sonnig	gütig	krank	ausrottung	engstirnig	töten	sterben	gierig	vertrauen	genießen	kuss	besonnen	vergnügt	gesittet	versagen	gemein	krise	bange	verbissen	geizig	1	blank2r.bmp	0	1	+	0	1	blank2r.bmp	500	4	B4r.bmp	500	1	blank2r.bmp	880	4	bange	880	0	0	0	0	0	0	0	0	0	0	0	0
2024-05-23	11:13:31	11:18:07	275567	6.6.1	4_exp_EVA_AWA_CON	49	A	B	Rpleas_acq	Same	Rpleas	1pleas	acq_new_unple_nomask	acq1_nomask	1	25	0	0	300	300	0	0	538	46	1	0	kreativ	anregung	engagiert	träumen	sonnig	gütig	krank	ausrottung	engstirnig	töten	sterben	gierig	vertrauen	genießen	kuss	besonnen	vergnügt	gesittet	versagen	gemein	krise	bange	verbissen	geizig	1	blank2r.bmp	0	1	+	0	1	blank2r.bmp	500	8	C4r.bmp	500	1	blank2r.bmp	880	2	gemein	880	0	0	0	0	0	0	0	0	0	0	0	0
2024-05-23	11:13:31	11:18:09	277511	6.6.1	4_exp_EVA_AWA_CON	49	A	B	Rpleas_acq	Same	Rpleas	1pleas	acq_US_unple_nomask	acq1_nomask	1	26	0	0	300	300	0	0	461	46	1	0	kreativ	anregung	engagiert	träumen	sonnig	gütig	krank	ausrottung	engstirnig	töten	sterben	gierig	vertrauen	genießen	kuss	besonnen	vergnügt	gesittet	versagen	gemein	krise	bange	verbissen	geizig	1	blank2r.bmp	0	1	+	0	1	blank2r.bmp	500	1	DHJF	500	1	blank2r.bmp	880	4	töten	880	0	0	0	0	0	0	0	0	0	0	0	0
2024-05-23	11:13:31	11:18:11	279559	6.6.1	4_exp_EVA_AWA_CON	49	A	B	Rpleas_acq	Same	Rpleas	1pleas	acq_new_pleas_nomask	acq1_nomask	1	27	0	0	300	300	0	0	558	50	1	0	kreativ	anregung	engagiert	träumen	sonnig	gütig	krank	ausrottung	engstirnig	töten	sterben	gierig	vertrauen	genießen	kuss	besonnen	vergnügt	gesittet	versagen	gemein	krise	bange	verbissen	geizig	1	blank2r.bmp	0	1	+	0	1	blank2r.bmp	500	5	C1r.bmp	500	1	blank2r.bmp	880	1	vertrauen	880	0	0	0	0	0	0	0	0	0	0	0	0
2024-05-23	11:13:31	11:18:13	281479	6.6.1	4_exp_EVA_AWA_CON	49	A	B	Rpleas_acq	Same	Rpleas	1pleas	acq_US_pleas_nomask	acq1_nomask	1	28	0	0	300	300	0	0	436	50	1	0	kreativ	anregung	engagiert	träumen	sonnig	gütig	krank	ausrottung	engstirnig	töten	sterben	gierig	vertrauen	genießen	kuss	besonnen	vergnügt	gesittet	versagen	gemein	krise	bange	verbissen	geizig	1	blank2r.bmp	0	1	+	0	1	blank2r.bmp	500	1	CPLW	500	1	blank2r.bmp	880	5	sonnig	880	0	0	0	0	0	0	0	0	0	0	0	0
2024-05-23	11:13:31	11:18:15	283471	6.6.1	4_exp_EVA_AWA_CON	49	A	B	Rpleas_acq	Same	Rpleas	1pleas	acq_new_pleas_nomask	acq1_nomask	1	29	0	0	300	300	0	0	507	50	1	0	kreativ	anregung	engagiert	träumen	sonnig	gütig	krank	ausrottung	engstirnig	töten	sterben	gierig	vertrauen	genießen	kuss	besonnen	vergnügt	gesittet	versagen	gemein	krise	bange	verbissen	geizig	1	blank2r.bmp	0	1	+	0	1	blank2r.bmp	500	6	C2r.bmp	500	1	blank2r.bmp	880	2	genießen	880	0	0	0	0	0	0	0	0	0	0	0	0
2024-05-23	11:13:31	11:18:17	285391	6.6.1	4_exp_EVA_AWA_CON	49	A	B	Rpleas_acq	Same	Rpleas	1pleas	acq_US_pleas_nomask	acq1_nomask	1	30	0	0	300	300	0	0	436	50	1	0	kreativ	anregung	engagiert	träumen	sonnig	gütig	krank	ausrottung	engstirnig	töten	sterben	gierig	vertrauen	genießen	kuss	besonnen	vergnügt	gesittet	versagen	gemein	krise	bange	verbissen	geizig	1	blank2r.bmp	0	1	+	0	1	blank2r.bmp	500	1	CPLW	500	1	blank2r.bmp	880	3	engagiert	880	0	0	0	0	0	0	0	0	0	0	0	0
2024-05-23	11:13:31	11:18:19	287319	6.6.1	4_exp_EVA_AWA_CON	49	A	B	Rpleas_acq	Same	Rpleas	1pleas	acq_US_pleas_nomask	acq1_nomask	1	31	0	0	300	300	0	0	443	50	1	0	kreativ	anregung	engagiert	träumen	sonnig	gütig	krank	ausrottung	engstirnig	töten	sterben	gierig	vertrauen	genießen	kuss	besonnen	vergnügt	gesittet	versagen	gemein	krise	bange	verbissen	geizig	1	blank2r.bmp	0	1	+	0	1	blank2r.bmp	500	1	CPLW	500	1	blank2r.bmp	880	4	träumen	880	0	0	0	0	0	0	0	0	0	0	0	0
2024-05-23	11:13:31	11:18:21	289295	6.6.1	4_exp_EVA_AWA_CON	49	A	B	Rpleas_acq	Same	Rpleas	1pleas	acq_new_unple_nomask	acq1_nomask	1	32	0	0	300	300	0	0	487	46	1	0	kreativ	anregung	engagiert	träumen	sonnig	gütig	krank	ausrottung	engstirnig	töten	sterben	gierig	vertrauen	genießen	kuss	besonnen	vergnügt	gesittet	versagen	gemein	krise	bange	verbissen	geizig	1	blank2r.bmp	0	1	+	0	1	blank2r.bmp	500	2	B2r.bmp	500	1	blank2r.bmp	880	1	versagen	880	0	0	0	0	0	0	0	0	0	0	0	0
2024-05-23	11:13:31	11:18:23	291303	6.6.1	4_exp_EVA_AWA_CON	49	A	B	Rpleas_acq	Same	Rpleas	1pleas	acq_new_unple_nomask	acq1_nomask	1	33	0	0	300	300	0	0	525	46	1	0	kreativ	anregung	engagiert	träumen	sonnig	gütig	krank	ausrottung	engstirnig	töten	sterben	gierig	vertrauen	genießen	kuss	besonnen	vergnügt	gesittet	versagen	gemein	krise	bange	verbissen	geizig	1	blank2r.bmp	0	1	+	0	1	blank2r.bmp	500	2	B2r.bmp	500	1	blank2r.bmp	880	5	verbissen	880	0	0	0	0	0	0	0	0	0	0	0	0
2024-05-23	11:13:31	11:18:25	293279	6.6.1	4_exp_EVA_AWA_CON	49	A	B	Rpleas_acq	Same	Rpleas	1pleas	acq_US_unple_nomask	acq1_nomask	1	34	0	0	300	300	0	0	489	46	1	0	kreativ	anregung	engagiert	träumen	sonnig	gütig	krank	ausrottung	engstirnig	töten	sterben	gierig	vertrauen	genießen	kuss	besonnen	vergnügt	gesittet	versagen	gemein	krise	bange	verbissen	geizig	1	blank2r.bmp	0	1	+	0	1	blank2r.bmp	500	1	DHJF	500	1	blank2r.bmp	880	2	ausrottung	880	0	0	0	0	0	0	0	0	0	0	0	0
2024-05-23	11:13:31	11:18:27	295303	6.6.1	4_exp_EVA_AWA_CON	49	A	B	Rpleas_acq	Same	Rpleas	1pleas	acq_new_pleas_nomask	acq1_nomask	1	35	0	0	300	300	0	0	541	50	1	0	kreativ	anregung	engagiert	träumen	sonnig	gütig	krank	ausrottung	engstirnig	töten	sterben	gierig	vertrauen	genießen	kuss	besonnen	vergnügt	gesittet	versagen	gemein	krise	bange	verbissen	geizig	1	blank2r.bmp	0	1	+	0	1	blank2r.bmp	500	4	B4r.bmp	500	1	blank2r.bmp	880	4	besonnen	880	0	0	0	0	0	0	0	0	0	0	0	0
2024-05-23	11:13:31	11:18:29	297511	6.6.1	4_exp_EVA_AWA_CON	49	A	B	Rpleas_acq	Same	Rpleas	1pleas	acq_US_unple_nomask	acq1_nomask	1	36	0	0	300	300	0	0	718	46	1	0	kreativ	anregung	engagiert	träumen	sonnig	gütig	krank	ausrottung	engstirnig	töten	sterben	gierig	vertrauen	genießen	kuss	besonnen	vergnügt	gesittet	versagen	gemein	krise	bange	verbissen	geizig	1	blank2r.bmp	0	1	+	0	1	blank2r.bmp	500	1	DHJF	500	1	blank2r.bmp	880	3	engstirnig	880	0	0	0	0	0	0	0	0	0	0	0	0
2024-05-23	11:13:31	11:18:56	324089	6.6.1	4_exp_EVA_AWA_CON	49	A	B	Rpleas_acq	Same	Rpleas	1pleas	acq_new_unple_nomask	acq2_nomask	2	1	480	0	300	300	0	0	629	46	1	0	kreativ	anregung	engagiert	träumen	sonnig	gütig	krank	ausrottung	engstirnig	töten	sterben	gierig	vertrauen	genießen	kuss	besonnen	vergnügt	gesittet	versagen	gemein	krise	bange	verbissen	geizig	1	blank2r.bmp	0	1	+	0	1	blank2r.bmp	500	7	C3r.bmp	500	1	blank2r.bmp	880	4	bange	880	1	!	1313	1	!	-1	0	0	0	0	0	0
2024-05-23	11:13:31	11:18:58	326363	6.6.1	4_exp_EVA_AWA_CON	49	A	B	Rpleas_acq	Same	Rpleas	1pleas	acq_US_unple_nomask	acq2_nomask	2	2	480	1	300	300	0	0	490	46	1	0	kreativ	anregung	engagiert	träumen	sonnig	gütig	krank	ausrottung	engstirnig	töten	sterben	gierig	vertrauen	genießen	kuss	besonnen	vergnügt	gesittet	versagen	gemein	krise	bange	verbissen	geizig	1	blank2r.bmp	0	1	+	0	1	blank2r.bmp	500	1	DHJF	500	1	blank2r.bmp	880	5	sterben	880	1	!	1313	1	!	1392	0	0	0	0	0	0
2024-05-23	11:13:31	11:19:01	328841	6.6.1	4_exp_EVA_AWA_CON	49	A	B	Rpleas_acq	Same	Rpleas	1pleas	acq_US_unple_nomask	acq2_nomask	2	3	480	0	300	300	0	0	698	46	1	0	kreativ	anregung	engagiert	träumen	sonnig	gütig	krank	ausrottung	engstirnig	töten	sterben	gierig	vertrauen	genießen	kuss	besonnen	vergnügt	gesittet	versagen	gemein	krise	bange	verbissen	geizig	1	blank2r.bmp	0	1	+	0	1	blank2r.bmp	500	1	DHJF	500	1	blank2r.bmp	880	6	gierig	880	1	!	1313	1	!	-1	0	0	0	0	0	0
2024-05-23	11:13:31	11:19:03	330993	6.6.1	4_exp_EVA_AWA_CON	49	A	B	Rpleas_acq	Same	Rpleas	1pleas	acq_new_pleas_nomask	acq2_nomask	2	4	480	0	300	300	0	0	379	50	1	0	kreativ	anregung	engagiert	träumen	sonnig	gütig	krank	ausrottung	engstirnig	töten	sterben	gierig	vertrauen	genießen	kuss	besonnen	vergnügt	gesittet	versagen	gemein	krise	bange	verbissen	geizig	1	blank2r.bmp	0	1	+	0	1	blank2r.bmp	500	1	B1r.bmp	500	1	blank2r.bmp	880	5	vergnügt	880	1	!	-1	1	!	-1	0	0	0	0	0	0
2024-05-23	11:13:31	11:19:05	333481	6.6.1	4_exp_EVA_AWA_CON	49	A	B	Rpleas_acq	Same	Rpleas	1pleas	acq_US_pleas_nomask	acq2_nomask	2	5	480	0	300	300	0	0	715	50	1	0	kreativ	anregung	engagiert	träumen	sonnig	gütig	krank	ausrottung	engstirnig	töten	sterben	gierig	vertrauen	genießen	kuss	besonnen	vergnügt	gesittet	versagen	gemein	krise	bange	verbissen	geizig	1	blank2r.bmp	0	1	+	0	1	blank2r.bmp	500	1	CPLW	500	1	blank2r.bmp	880	1	kreativ	880	1	!	1312	1	!	-1	0	0	0	0	0	0
2024-05-23	11:13:31	11:19:08	335889	6.6.1	4_exp_EVA_AWA_CON	49	A	B	Rpleas_acq	Same	Rpleas	1pleas	acq_US_pleas_nomask	acq2_nomask	2	6	480	0	300	300	0	0	632	50	1	0	kreativ	anregung	engagiert	träumen	sonnig	gütig	krank	ausrottung	engstirnig	töten	sterben	gierig	vertrauen	genießen	kuss	besonnen	vergnügt	gesittet	versagen	gemein	krise	bange	verbissen	geizig	1	blank2r.bmp	0	1	+	0	1	blank2r.bmp	500	1	CPLW	500	1	blank2r.bmp	880	2	anregung	880	1	!	1313	1	!	-1	0	0	0	0	0	0
2024-05-23	11:13:31	11:19:10	338001	6.6.1	4_exp_EVA_AWA_CON	49	A	B	Rpleas_acq	Same	Rpleas	1pleas	acq_new_unple_nomask	acq2_nomask	2	7	480	0	300	300	0	0	332	46	1	0	kreativ	anregung	engagiert	träumen	sonnig	gütig	krank	ausrottung	engstirnig	töten	sterben	gierig	vertrauen	genießen	kuss	besonnen	vergnügt	gesittet	versagen	gemein	krise	bange	verbissen	geizig	1	blank2r.bmp	0	1	+	0	1	blank2r.bmp	500	5	C1r.bmp	500	1	blank2r.bmp	880	3	krise	880	1	!	-1	1	!	-1	0	0	0	0	0	0
2024-05-23	11:13:31	11:19:12	340314	6.6.1	4_exp_EVA_AWA_CON	49	A	B	Rpleas_acq	Same	Rpleas	1pleas	acq_new_pleas_nomask	acq2_nomask	2	8	480	1	300	300	0	0	533	50	1	0	kreativ	anregung	engagiert	träumen	sonnig	gütig	krank	ausrottung	engstirnig	töten	sterben	gierig	vertrauen	genießen	kuss	besonnen	vergnügt	gesittet	versagen	gemein	krise	bange	verbissen	geizig	1	blank2r.bmp	0	1	+	0	1	blank2r.bmp	500	3	B3r.bmp	500	1	blank2r.bmp	880	6	gesittet	880	1	!	1312	1	!	1434	0	0	0	0	0	0
2024-05-23	11:13:31	11:19:14	342586	6.6.1	4_exp_EVA_AWA_CON	49	A	B	Rpleas_acq	Same	Rpleas	1pleas	acq_US_unple_nomask	acq2_nomask	2	9	480	1	300	300	0	0	493	46	1	0	kreativ	anregung	engagiert	träumen	sonnig	gütig	krank	ausrottung	engstirnig	töten	sterben	gierig	vertrauen	genießen	kuss	besonnen	vergnügt	gesittet	versagen	gemein	krise	bange	verbissen	geizig	1	blank2r.bmp	0	1	+	0	1	blank2r.bmp	500	1	DHJF	500	1	blank2r.bmp	880	1	krank	880	1	!	1313	1	!	1395	0	0	0	0	0	0
2024-05-23	11:13:31	11:19:17	344915	6.6.1	4_exp_EVA_AWA_CON	49	A	B	Rpleas_acq	Same	Rpleas	1pleas	acq_US_pleas_nomask	acq2_nomask	2	10	480	1	300	300	0	0	550	50	1	0	kreativ	anregung	engagiert	träumen	sonnig	gütig	krank	ausrottung	engstirnig	töten	sterben	gierig	vertrauen	genießen	kuss	besonnen	vergnügt	gesittet	versagen	gemein	krise	bange	verbissen	geizig	1	blank2r.bmp	0	1	+	0	1	blank2r.bmp	500	1	CPLW	500	1	blank2r.bmp	880	6	gütig	880	1	!	1313	1	!	1452	0	0	0	0	0	0
2024-05-23	11:13:31	11:19:19	347218	6.6.1	4_exp_EVA_AWA_CON	49	A	B	Rpleas_acq	Same	Rpleas	1pleas	acq_new_unple_nomask	acq2_nomask	2	11	480	1	300	300	0	0	522	46	1	0	kreativ	anregung	engagiert	träumen	sonnig	gütig	krank	ausrottung	engstirnig	töten	sterben	gierig	vertrauen	genießen	kuss	besonnen	vergnügt	gesittet	versagen	gemein	krise	bange	verbissen	geizig	1	blank2r.bmp	0	1	+	0	1	blank2r.bmp	500	8	C4r.bmp	500	1	blank2r.bmp	880	6	geizig	880	1	!	1312	1	!	1424	0	0	0	0	0	0
2024-05-23	11:13:31	11:19:21	349547	6.6.1	4_exp_EVA_AWA_CON	49	A	B	Rpleas_acq	Same	Rpleas	1pleas	acq_new_pleas_nomask	acq2_nomask	2	12	480	1	300	300	0	0	549	50	1	0	kreativ	anregung	engagiert	träumen	sonnig	gütig	krank	ausrottung	engstirnig	töten	sterben	gierig	vertrauen	genießen	kuss	besonnen	vergnügt	gesittet	versagen	gemein	krise	bange	verbissen	geizig	1	blank2r.bmp	0	1	+	0	1	blank2r.bmp	500	6	C2r.bmp	500	1	blank2r.bmp	880	3	kuss	880	1	!	1313	1	!	1451	0	0	0	0	0	0
2024-05-23	11:13:31	11:19:24	351866	6.6.1	4_exp_EVA_AWA_CON	49	A	B	Rpleas_acq	Same	Rpleas	1pleas	acq_new_pleas_nomask	acq2_nomask	2	13	480	1	300	300	0	0	537	50	1	0	kreativ	anregung	engagiert	träumen	sonnig	gütig	krank	ausrottung	engstirnig	töten	sterben	gierig	vertrauen	genießen	kuss	besonnen	vergnügt	gesittet	versagen	gemein	krise	bange	verbissen	geizig	1	blank2r.bmp	0	1	+	0	1	blank2r.bmp	500	2	B2r.bmp	500	1	blank2r.bmp	880	1	vertrauen	880	1	!	1313	1	!	1439	0	0	0	0	0	0
2024-05-23	11:13:31	11:19:26	354233	6.6.1	4_exp_EVA_AWA_CON	49	A	B	Rpleas_acq	Same	Rpleas	1pleas	acq_new_unple_nomask	acq2_nomask	2	14	480	0	300	300	0	0	594	46	1	0	kreativ	anregung	engagiert	träumen	sonnig	gütig	krank	ausrottung	engstirnig	töten	sterben	gierig	vertrauen	genießen	kuss	besonnen	vergnügt	gesittet	versagen	gemein	krise	bange	verbissen	geizig	1	blank2r.bmp	0	1	+	0	1	blank2r.bmp	500	1	B1r.bmp	500	1	blank2r.bmp	880	3	krise	880	1	!	1313	1	!	-1	0	0	0	0	0	0
2024-05-23	11:13:31	11:19:28	356577	6.6.1	4_exp_EVA_AWA_CON	49	A	B	Rpleas_acq	Same	Rpleas	1pleas	acq_new_pleas_nomask	acq2_nomask	2	15	480	0	300	300	0	0	566	50	1	0	kreativ	anregung	engagiert	träumen	sonnig	gütig	krank	ausrottung	engstirnig	töten	sterben	gierig	vertrauen	genießen	kuss	besonnen	vergnügt	gesittet	versagen	gemein	krise	bange	verbissen	geizig	1	blank2r.bmp	0	1	+	0	1	blank2r.bmp	500	4	B4r.bmp	500	1	blank2r.bmp	880	5	vergnügt	880	1	!	1312	1	!	-1	0	0	0	0	0	0
2024-05-23	11:13:31	11:19:30	358721	6.6.1	4_exp_EVA_AWA_CON	49	A	B	Rpleas_acq	Same	Rpleas	1pleas	acq_US_pleas_nomask	acq2_nomask	2	16	480	0	300	300	0	0	369	50	1	0	kreativ	anregung	engagiert	träumen	sonnig	gütig	krank	ausrottung	engstirnig	töten	sterben	gierig	vertrauen	genießen	kuss	besonnen	vergnügt	gesittet	versagen	gemein	krise	bange	verbissen	geizig	1	blank2r.bmp	0	1	+	0	1	blank2r.bmp	500	1	CPLW	500	1	blank2r.bmp	880	5	sonnig	880	1	!	-1	1	!	-1	0	0	0	0	0	0
2024-05-23	11:13:31	11:19:33	360995	6.6.1	4_exp_EVA_AWA_CON	49	A	B	Rpleas_acq	Same	Rpleas	1pleas	acq_US_unple_nomask	acq2_nomask	2	17	480	1	300	300	0	0	489	46	1	0	kreativ	anregung	engagiert	träumen	sonnig	gütig	krank	ausrottung	engstirnig	töten	sterben	gierig	vertrauen	genießen	kuss	besonnen	vergnügt	gesittet	versagen	gemein	krise	bange	verbissen	geizig	1	blank2r.bmp	0	1	+	0	1	blank2r.bmp	500	1	DHJF	500	1	blank2r.bmp	880	6	gierig	880	1	!	1312	1	!	1392	0	0	0	0	0	0
2024-05-23	11:13:31	11:19:35	363369	6.6.1	4_exp_EVA_AWA_CON	49	A	B	Rpleas_acq	Same	Rpleas	1pleas	acq_new_unple_nomask	acq2_nomask	2	18	480	0	300	300	0	0	594	46	1	0	kreativ	anregung	engagiert	träumen	sonnig	gütig	krank	ausrottung	engstirnig	töten	sterben	gierig	vertrauen	genießen	kuss	besonnen	vergnügt	gesittet	versagen	gemein	krise	bange	verbissen	geizig	1	blank2r.bmp	0	1	+	0	1	blank2r.bmp	500	8	C4r.bmp	500	1	blank2r.bmp	880	5	verbissen	880	1	!	1312	1	!	-1	0	0	0	0	0	0
2024-05-23	11:13:31	11:19:37	365602	6.6.1	4_exp_EVA_AWA_CON	49	A	B	Rpleas_acq	Same	Rpleas	1pleas	acq_US_unple_nomask	acq2_nomask	2	19	480	1	300	300	0	0	455	46	1	0	kreativ	anregung	engagiert	träumen	sonnig	gütig	krank	ausrottung	engstirnig	töten	sterben	gierig	vertrauen	genießen	kuss	besonnen	vergnügt	gesittet	versagen	gemein	krise	bange	verbissen	geizig	1	blank2r.bmp	0	1	+	0	1	blank2r.bmp	500	1	DHJF	500	1	blank2r.bmp	880	2	ausrottung	880	1	!	1312	1	!	1356	0	0	0	0	0	0
2024-05-23	11:13:31	11:19:39	367753	6.6.1	4_exp_EVA_AWA_CON	49	A	B	Rpleas_acq	Same	Rpleas	1pleas	acq_US_pleas_nomask	acq2_nomask	2	20	480	0	300	300	0	0	375	50	1	0	kreativ	anregung	engagiert	träumen	sonnig	gütig	krank	ausrottung	engstirnig	töten	sterben	gierig	vertrauen	genießen	kuss	besonnen	vergnügt	gesittet	versagen	gemein	krise	bange	verbissen	geizig	1	blank2r.bmp	0	1	+	0	1	blank2r.bmp	500	1	CPLW	500	1	blank2r.bmp	880	1	kreativ	880	1	!	-1	1	!	-1	0	0	0	0	0	0
2024-05-23	11:13:31	11:19:42	370209	6.6.1	4_exp_EVA_AWA_CON	49	A	B	Rpleas_acq	Same	Rpleas	1pleas	acq_US_pleas_nomask	acq2_nomask	2	21	480	0	300	300	0	0	680	50	1	0	kreativ	anregung	engagiert	träumen	sonnig	gütig	krank	ausrottung	engstirnig	töten	sterben	gierig	vertrauen	genießen	kuss	besonnen	vergnügt	gesittet	versagen	gemein	krise	bange	verbissen	geizig	1	blank2r.bmp	0	1	+	0	1	blank2r.bmp	500	1	CPLW	500	1	blank2r.bmp	880	3	engagiert	880	1	!	1312	1	!	-1	0	0	0	0	0	0
2024-05-23	11:13:31	11:19:44	372491	6.6.1	4_exp_EVA_AWA_CON	49	A	B	Rpleas_acq	Same	Rpleas	1pleas	acq_new_unple_nomask	acq2_nomask	2	22	480	1	300	300	0	0	498	46	1	0	kreativ	anregung	engagiert	träumen	sonnig	gütig	krank	ausrottung	engstirnig	töten	sterben	gierig	vertrauen	genießen	kuss	besonnen	vergnügt	gesittet	versagen	gemein	krise	bange	verbissen	geizig	1	blank2r.bmp	0	1	+	0	1	blank2r.bmp	500	5	C1r.bmp	500	1	blank2r.bmp	880	4	bange	880	1	!	1313	1	!	1400	0	0	0	0	0	0
2024-05-23	11:13:31	11:19:46	374625	6.6.1	4_exp_EVA_AWA_CON	49	A	B	Rpleas_acq	Same	Rpleas	1pleas	acq_new_pleas_nomask	acq2_nomask	2	23	480	0	300	300	0	0	353	50	1	0	kreativ	anregung	engagiert	träumen	sonnig	gütig	krank	ausrottung	engstirnig	töten	sterben	gierig	vertrauen	genießen	kuss	besonnen	vergnügt	gesittet	versagen	gemein	krise	bange	verbissen	geizig	1	blank2r.bmp	0	1	+	0	1	blank2r.bmp	500	6	C2r.bmp	500	1	blank2r.bmp	880	3	kuss	880	1	!	-1	1	!	-1	0	0	0	0	0	0
2024-05-23	11:13:31	11:19:49	376835	6.6.1	4_exp_EVA_AWA_CON	49	A	B	Rpleas_acq	Same	Rpleas	1pleas	acq_US_unple_nomask	acq2_nomask	2	24	480	1	300	300	0	0	429	46	1	0	kreativ	anregung	engagiert	träumen	sonnig	gütig	krank	ausrottung	engstirnig	töten	sterben	gierig	vertrauen	genießen	kuss	besonnen	vergnügt	gesittet	versagen	gemein	krise	bange	verbissen	geizig	1	blank2r.bmp	0	1	+	0	1	blank2r.bmp	500	1	DHJF	500	1	blank2r.bmp	880	4	töten	880	1	!	1312	1	!	1332	0	0	0	0	0	0
2024-05-23	11:13:31	11:19:51	379162	6.6.1	4_exp_EVA_AWA_CON	49	A	B	Rpleas_acq	Same	Rpleas	1pleas	acq_new_unple_nomask	acq2_nomask	2	25	480	1	300	300	0	0	546	46	1	0	kreativ	anregung	engagiert	träumen	sonnig	gütig	krank	ausrottung	engstirnig	töten	sterben	gierig	vertrauen	genießen	kuss	besonnen	vergnügt	gesittet	versagen	gemein	krise	bange	verbissen	geizig	1	blank2r.bmp	0	1	+	0	1	blank2r.bmp	500	3	B3r.bmp	500	1	blank2r.bmp	880	2	gemein	880	1	!	1312	1	!	1448	0	0	0	0	0	0
2024-05-23	11:13:31	11:19:53	381513	6.6.1	4_exp_EVA_AWA_CON	49	A	B	Rpleas_acq	Same	Rpleas	1pleas	acq_US_unple_nomask	acq2_nomask	2	26	480	0	300	300	0	0	576	46	1	0	kreativ	anregung	engagiert	träumen	sonnig	gütig	krank	ausrottung	engstirnig	töten	sterben	gierig	vertrauen	genießen	kuss	besonnen	vergnügt	gesittet	versagen	gemein	krise	bange	verbissen	geizig	1	blank2r.bmp	0	1	+	0	1	blank2r.bmp	500	1	DHJF	500	1	blank2r.bmp	880	3	engstirnig	880	1	!	1313	1	!	-1	0	0	0	0	0	0
2024-05-23	11:13:31	11:19:55	383779	6.6.1	4_exp_EVA_AWA_CON	49	A	B	Rpleas_acq	Same	Rpleas	1pleas	acq_new_unple_nomask	acq2_nomask	2	27	480	1	300	300	0	0	489	46	1	0	kreativ	anregung	engagiert	träumen	sonnig	gütig	krank	ausrottung	engstirnig	töten	sterben	gierig	vertrauen	genießen	kuss	besonnen	vergnügt	gesittet	versagen	gemein	krise	bange	verbissen	geizig	1	blank2r.bmp	0	1	+	0	1	blank2r.bmp	500	7	C3r.bmp	500	1	blank2r.bmp	880	6	geizig	880	1	!	1312	1	!	1391	0	0	0	0	0	0
2024-05-23	11:13:31	11:19:58	386193	6.6.1	4_exp_EVA_AWA_CON	49	A	B	Rpleas_acq	Same	Rpleas	1pleas	acq_US_pleas_nomask	acq2_nomask	2	28	480	0	300	300	0	0	633	50	1	0	kreativ	anregung	engagiert	träumen	sonnig	gütig	krank	ausrottung	engstirnig	töten	sterben	gierig	vertrauen	genießen	kuss	besonnen	vergnügt	gesittet	versagen	gemein	krise	bange	verbissen	geizig	1	blank2r.bmp	0	1	+	0	1	blank2r.bmp	500	1	CPLW	500	1	blank2r.bmp	880	6	gütig	880	1	!	1313	1	!	-1	0	0	0	0	0	0
2024-05-23	11:13:31	11:20:00	388506	6.6.1	4_exp_EVA_AWA_CON	49	A	B	Rpleas_acq	Same	Rpleas	1pleas	acq_US_pleas_nomask	acq2_nomask	2	29	480	1	300	300	0	0	534	50	1	0	kreativ	anregung	engagiert	träumen	sonnig	gütig	krank	ausrottung	engstirnig	töten	sterben	gierig	vertrauen	genießen	kuss	besonnen	vergnügt	gesittet	versagen	gemein	krise	bange	verbissen	geizig	1	blank2r.bmp	0	1	+	0	1	blank2r.bmp	500	1	CPLW	500	1	blank2r.bmp	880	4	träumen	880	1	!	1313	1	!	1435	0	0	0	0	0	0
2024-05-23	11:13:31	11:20:03	390921	6.6.1	4_exp_EVA_AWA_CON	49	A	B	Rpleas_acq	Same	Rpleas	1pleas	acq_new_pleas_nomask	acq2_nomask	2	30	480	0	300	300	0	0	638	50	1	0	kreativ	anregung	engagiert	träumen	sonnig	gütig	krank	ausrottung	engstirnig	töten	sterben	gierig	vertrauen	genießen	kuss	besonnen	vergnügt	gesittet	versagen	gemein	krise	bange	verbissen	geizig	1	blank2r.bmp	0	1	+	0	1	blank2r.bmp	500	7	C3r.bmp	500	1	blank2r.bmp	880	6	gesittet	880	1	!	1312	1	!	-1	0	0	0	0	0	0
2024-05-23	11:13:31	11:20:05	393371	6.6.1	4_exp_EVA_AWA_CON	49	A	B	Rpleas_acq	Same	Rpleas	1pleas	acq_US_pleas_nomask	acq2_nomask	2	31	480	1	300	300	0	0	475	46	0	0	kreativ	anregung	engagiert	träumen	sonnig	gütig	krank	ausrottung	engstirnig	töten	sterben	gierig	vertrauen	genießen	kuss	besonnen	vergnügt	gesittet	versagen	gemein	krise	bange	verbissen	geizig	1	blank2r.bmp	0	1	+	0	1	blank2r.bmp	500	1	CPLW	500	1	blank2r.bmp	880	2	anregung	880	1	FEHLER	1668	1	!	1312	1	!	1376	0	0	0
2024-05-23	11:13:31	11:20:07	395419	6.6.1	4_exp_EVA_AWA_CON	49	A	B	Rpleas_acq	Same	Rpleas	1pleas	acq_new_pleas_nomask	acq2_nomask	2	32	480	1	300	300	0	0	471	50	1	0	kreativ	anregung	engagiert	träumen	sonnig	gütig	krank	ausrottung	engstirnig	töten	sterben	gierig	vertrauen	genießen	kuss	besonnen	vergnügt	gesittet	versagen	gemein	krise	bange	verbissen	geizig	1	blank2r.bmp	0	1	+	0	1	blank2r.bmp	500	2	B2r.bmp	500	1	blank2r.bmp	880	2	genießen	880	1	!	1312	1	!	1373	0	0	0	0	0	0
2024-05-23	11:13:31	11:20:10	397857	6.6.1	4_exp_EVA_AWA_CON	49	A	B	Rpleas_acq	Same	Rpleas	1pleas	acq_new_unple_nomask	acq2_nomask	2	33	480	0	300	300	0	0	660	46	1	0	kreativ	anregung	engagiert	träumen	sonnig	gütig	krank	ausrottung	engstirnig	töten	sterben	gierig	vertrauen	genießen	kuss	besonnen	vergnügt	gesittet	versagen	gemein	krise	bange	verbissen	geizig	1	blank2r.bmp	0	1	+	0	1	blank2r.bmp	500	5	C1r.bmp	500	1	blank2r.bmp	880	1	versagen	880	1	!	1312	1	!	-1	0	0	0	0	0	0
2024-05-23	11:13:31	11:20:12	400066	6.6.1	4_exp_EVA_AWA_CON	49	A	B	Rpleas_acq	Same	Rpleas	1pleas	acq_new_pleas_nomask	acq2_nomask	2	34	480	1	300	300	0	0	426	50	1	0	kreativ	anregung	engagiert	träumen	sonnig	gütig	krank	ausrottung	engstirnig	töten	sterben	gierig	vertrauen	genießen	kuss	besonnen	vergnügt	gesittet	versagen	gemein	krise	bange	verbissen	geizig	1	blank2r.bmp	0	1	+	0	1	blank2r.bmp	500	1	B1r.bmp	500	1	blank2r.bmp	880	4	besonnen	880	1	!	1313	1	!	1328	0	0	0	0	0	0
2024-05-23	11:13:31	11:20:14	402299	6.6.1	4_exp_EVA_AWA_CON	49	A	B	Rpleas_acq	Same	Rpleas	1pleas	acq_US_unple_nomask	acq2_nomask	2	35	480	1	300	300	0	0	457	46	1	0	kreativ	anregung	engagiert	träumen	sonnig	gütig	krank	ausrottung	engstirnig	töten	sterben	gierig	vertrauen	genießen	kuss	besonnen	vergnügt	gesittet	versagen	gemein	krise	bange	verbissen	geizig	1	blank2r.bmp	0	1	+	0	1	blank2r.bmp	500	1	DHJF	500	1	blank2r.bmp	880	5	sterben	880	1	!	1313	1	!	1359	0	0	0	0	0	0
2024-05-23	11:13:31	11:20:16	404530	6.6.1	4_exp_EVA_AWA_CON	49	A	B	Rpleas_acq	Same	Rpleas	1pleas	acq_US_unple_nomask	acq2_nomask	2	36	480	1	300	300	0	0	458	46	1	0	kreativ	anregung	engagiert	träumen	sonnig	gütig	krank	ausrottung	engstirnig	töten	sterben	gierig	vertrauen	genießen	kuss	besonnen	vergnügt	gesittet	versagen	gemein	krise	bange	verbissen	geizig	1	blank2r.bmp	0	1	+	0	1	blank2r.bmp	500	1	DHJF	500	1	blank2r.bmp	880	1	krank	880	1	!	1313	1	!	1359	0	0	0	0	0	0
2024-05-23	11:13:31	11:20:35	423498	6.6.1	4_exp_EVA_AWA_CON	49	A	B	Rpleas_acq	Same	Rpleas	1pleas	acq_US_pleas_nomask	acq3_nomask	3	1	453	1	300	300	0	0	503	50	1	0	kreativ	anregung	engagiert	träumen	sonnig	gütig	krank	ausrottung	engstirnig	töten	sterben	gierig	vertrauen	genießen	kuss	besonnen	vergnügt	gesittet	versagen	gemein	krise	bange	verbissen	geizig	1	blank2r.bmp	0	1	+	0	1	blank2r.bmp	500	1	CPLW	500	1	blank2r.bmp	880	1	kreativ	880	1	!	1293	1	!	1405	0	0	0	0	0	0
2024-05-23	11:13:31	11:20:37	425730	6.6.1	4_exp_EVA_AWA_CON	49	A	B	Rpleas_acq	Same	Rpleas	1pleas	acq_US_unple_nomask	acq3_nomask	3	2	453	1	300	300	0	0	454	46	1	0	kreativ	anregung	engagiert	träumen	sonnig	gütig	krank	ausrottung	engstirnig	töten	sterben	gierig	vertrauen	genießen	kuss	besonnen	vergnügt	gesittet	versagen	gemein	krise	bange	verbissen	geizig	1	blank2r.bmp	0	1	+	0	1	blank2r.bmp	500	1	DHJF	500	1	blank2r.bmp	880	4	töten	880	1	!	1292	1	!	1356	0	0	0	0	0	0
2024-05-23	11:13:31	11:20:40	428148	6.6.1	4_exp_EVA_AWA_CON	49	A	B	Rpleas_acq	Same	Rpleas	1pleas	acq_US_unple_nomask	acq3_nomask	3	3	453	1	300	300	0	0	439	50	0	0	kreativ	anregung	engagiert	träumen	sonnig	gütig	krank	ausrottung	engstirnig	töten	sterben	gierig	vertrauen	genießen	kuss	besonnen	vergnügt	gesittet	versagen	gemein	krise	bange	verbissen	geizig	1	blank2r.bmp	0	1	+	0	1	blank2r.bmp	500	1	DHJF	500	1	blank2r.bmp	880	5	sterben	880	1	FEHLER	1632	1	!	1292	1	!	1340	0	0	0
2024-05-23	11:13:31	11:20:42	430420	6.6.1	4_exp_EVA_AWA_CON	49	A	B	Rpleas_acq	Same	Rpleas	1pleas	acq_US_pleas_nomask	acq3_nomask	3	4	453	1	300	300	0	0	489	46	0	0	kreativ	anregung	engagiert	träumen	sonnig	gütig	krank	ausrottung	engstirnig	töten	sterben	gierig	vertrauen	genießen	kuss	besonnen	vergnügt	gesittet	versagen	gemein	krise	bange	verbissen	geizig	1	blank2r.bmp	0	1	+	0	1	blank2r.bmp	500	1	CPLW	500	1	blank2r.bmp	880	3	engagiert	880	1	FEHLER	1683	1	!	1292	1	!	1391	0	0	0
2024-05-23	11:13:31	11:20:44	432633	6.6.1	4_exp_EVA_AWA_CON	49	A	B	Rpleas_acq	Same	Rpleas	1pleas	acq_US_unple_nomask	acq3_nomask	3	5	453	0	300	300	0	0	634	46	1	0	kreativ	anregung	engagiert	träumen	sonnig	gütig	krank	ausrottung	engstirnig	töten	sterben	gierig	vertrauen	genießen	kuss	besonnen	vergnügt	gesittet	versagen	gemein	krise	bange	verbissen	geizig	1	blank2r.bmp	0	1	+	0	1	blank2r.bmp	500	1	DHJF	500	1	blank2r.bmp	880	1	krank	880	1	!	1292	1	!	-1	0	0	0	0	0	0
2024-05-23	11:13:31	11:20:47	434953	6.6.1	4_exp_EVA_AWA_CON	49	A	B	Rpleas_acq	Same	Rpleas	1pleas	acq_US_unple_nomask	acq3_nomask	3	6	453	0	300	300	0	0	542	46	1	0	kreativ	anregung	engagiert	träumen	sonnig	gütig	krank	ausrottung	engstirnig	töten	sterben	gierig	vertrauen	genießen	kuss	besonnen	vergnügt	gesittet	versagen	gemein	krise	bange	verbissen	geizig	1	blank2r.bmp	0	1	+	0	1	blank2r.bmp	500	1	DHJF	500	1	blank2r.bmp	880	6	gierig	880	1	!	1292	1	!	-1	0	0	0	0	0	0
2024-05-23	11:13:31	11:20:49	437089	6.6.1	4_exp_EVA_AWA_CON	49	A	B	Rpleas_acq	Same	Rpleas	1pleas	acq_US_pleas_nomask	acq3_nomask	3	7	453	0	300	300	0	0	357	50	1	0	kreativ	anregung	engagiert	träumen	sonnig	gütig	krank	ausrottung	engstirnig	töten	sterben	gierig	vertrauen	genießen	kuss	besonnen	vergnügt	gesittet	versagen	gemein	krise	bange	verbissen	geizig	1	blank2r.bmp	0	1	+	0	1	blank2r.bmp	500	1	CPLW	500	1	blank2r.bmp	880	5	sonnig	880	1	!	-1	1	!	-1	0	0	0	0	0	0
2024-05-23	11:13:31	11:20:51	439370	6.6.1	4_exp_EVA_AWA_CON	49	A	B	Rpleas_acq	Same	Rpleas	1pleas	acq_US_pleas_nomask	acq3_nomask	3	8	453	1	300	300	0	0	505	50	1	0	kreativ	anregung	engagiert	träumen	sonnig	gütig	krank	ausrottung	engstirnig	töten	sterben	gierig	vertrauen	genießen	kuss	besonnen	vergnügt	gesittet	versagen	gemein	krise	bange	verbissen	geizig	1	blank2r.bmp	0	1	+	0	1	blank2r.bmp	500	1	CPLW	500	1	blank2r.bmp	880	2	anregung	880	1	!	1292	1	!	1407	0	0	0	0	0	0
2024-05-23	11:13:31	11:20:54	441771	6.6.1	4_exp_EVA_AWA_CON	49	A	B	Rpleas_acq	Same	Rpleas	1pleas	acq_US_pleas_nomask	acq3_nomask	3	9	453	1	300	300	0	0	424	46	0	0	kreativ	anregung	engagiert	träumen	sonnig	gütig	krank	ausrottung	engstirnig	töten	sterben	gierig	vertrauen	genießen	kuss	besonnen	vergnügt	gesittet	versagen	gemein	krise	bange	verbissen	geizig	1	blank2r.bmp	0	1	+	0	1	blank2r.bmp	500	1	CPLW	500	1	blank2r.bmp	880	6	gütig	880	1	FEHLER	1617	1	!	1292	1	!	1325	0	0	0
2024-05-23	11:13:31	11:20:56	443921	6.6.1	4_exp_EVA_AWA_CON	49	A	B	Rpleas_acq	Same	Rpleas	1pleas	acq_US_unple_nomask	acq3_nomask	3	10	453	0	300	300	0	0	574	46	1	0	kreativ	anregung	engagiert	träumen	sonnig	gütig	krank	ausrottung	engstirnig	töten	sterben	gierig	vertrauen	genießen	kuss	besonnen	vergnügt	gesittet	versagen	gemein	krise	bange	verbissen	geizig	1	blank2r.bmp	0	1	+	0	1	blank2r.bmp	500	1	DHJF	500	1	blank2r.bmp	880	2	ausrottung	880	1	!	1292	1	!	-1	0	0	0	0	0	0
2024-05-23	11:13:31	11:20:58	446146	6.6.1	4_exp_EVA_AWA_CON	49	A	B	Rpleas_acq	Same	Rpleas	1pleas	acq_US_pleas_nomask	acq3_nomask	3	11	453	1	300	300	0	0	447	50	1	0	kreativ	anregung	engagiert	träumen	sonnig	gütig	krank	ausrottung	engstirnig	töten	sterben	gierig	vertrauen	genießen	kuss	besonnen	vergnügt	gesittet	versagen	gemein	krise	bange	verbissen	geizig	1	blank2r.bmp	0	1	+	0	1	blank2r.bmp	500	1	CPLW	500	1	blank2r.bmp	880	4	träumen	880	1	!	1292	1	!	1348	0	0	0	0	0	0
2024-05-23	11:13:31	11:21:00	448633	6.6.1	4_exp_EVA_AWA_CON	49	A	B	Rpleas_acq	Same	Rpleas	1pleas	acq_US_unple_nomask	acq3_nomask	3	12	453	0	300	300	0	0	713	46	1	0	kreativ	anregung	engagiert	träumen	sonnig	gütig	krank	ausrottung	engstirnig	töten	sterben	gierig	vertrauen	genießen	kuss	besonnen	vergnügt	gesittet	versagen	gemein	krise	bange	verbissen	geizig	1	blank2r.bmp	0	1	+	0	1	blank2r.bmp	500	1	DHJF	500	1	blank2r.bmp	880	3	engstirnig	880	1	!	1293	1	!	-1	0	0	0	0	0	0
2024-05-23	11:13:31	11:21:03	450809	6.6.1	4_exp_EVA_AWA_CON	49	A	B	Rpleas_acq	Same	Rpleas	1pleas	acq_US_pleas_nomask	acq3_nomask	3	13	453	1	300	300	0	0	398	50	1	0	kreativ	anregung	engagiert	träumen	sonnig	gütig	krank	ausrottung	engstirnig	töten	sterben	gierig	vertrauen	genießen	kuss	besonnen	vergnügt	gesittet	versagen	gemein	krise	bange	verbissen	geizig	1	blank2r.bmp	0	1	+	0	1	blank2r.bmp	500	1	CPLW	500	1	blank2r.bmp	880	1	kreativ	880	1	!	1292	1	!	1298	0	0	0	0	0	0
2024-05-23	11:13:31	11:21:05	453058	6.6.1	4_exp_EVA_AWA_CON	49	A	B	Rpleas_acq	Same	Rpleas	1pleas	acq_US_unple_nomask	acq3_nomask	3	14	453	1	300	300	0	0	474	46	1	0	kreativ	anregung	engagiert	träumen	sonnig	gütig	krank	ausrottung	engstirnig	töten	sterben	gierig	vertrauen	genießen	kuss	besonnen	vergnügt	gesittet	versagen	gemein	krise	bange	verbissen	geizig	1	blank2r.bmp	0	1	+	0	1	blank2r.bmp	500	1	DHJF	500	1	blank2r.bmp	880	6	gierig	880	1	!	1292	1	!	1376	0	0	0	0	0	0
2024-05-23	11:13:31	11:21:07	455338	6.6.1	4_exp_EVA_AWA_CON	49	A	B	Rpleas_acq	Same	Rpleas	1pleas	acq_US_unple_nomask	acq3_nomask	3	15	453	1	300	300	0	0	503	46	1	0	kreativ	anregung	engagiert	träumen	sonnig	gütig	krank	ausrottung	engstirnig	töten	sterben	gierig	vertrauen	genießen	kuss	besonnen	vergnügt	gesittet	versagen	gemein	krise	bange	verbissen	geizig	1	blank2r.bmp	0	1	+	0	1	blank2r.bmp	500	1	DHJF	500	1	blank2r.bmp	880	5	sterben	880	1	!	1292	1	!	1405	0	0	0	0	0	0
2024-05-23	11:13:31	11:21:10	457804	6.6.1	4_exp_EVA_AWA_CON	49	A	B	Rpleas_acq	Same	Rpleas	1pleas	acq_US_unple_nomask	acq3_nomask	3	16	453	1	300	300	0	0	486	50	0	0	kreativ	anregung	engagiert	träumen	sonnig	gütig	krank	ausrottung	engstirnig	töten	sterben	gierig	vertrauen	genießen	kuss	besonnen	vergnügt	gesittet	versagen	gemein	krise	bange	verbissen	geizig	1	blank2r.bmp	0	1	+	0	1	blank2r.bmp	500	1	DHJF	500	1	blank2r.bmp	880	2	ausrottung	880	1	FEHLER	1679	1	!	1293	1	!	1387	0	0	0
2024-05-23	11:13:31	11:21:12	459834	6.6.1	4_exp_EVA_AWA_CON	49	A	B	Rpleas_acq	Same	Rpleas	1pleas	acq_US_unple_nomask	acq3_nomask	3	17	453	1	300	300	0	0	456	46	1	0	kreativ	anregung	engagiert	träumen	sonnig	gütig	krank	ausrottung	engstirnig	töten	sterben	gierig	vertrauen	genießen	kuss	besonnen	vergnügt	gesittet	versagen	gemein	krise	bange	verbissen	geizig	1	blank2r.bmp	0	1	+	0	1	blank2r.bmp	500	1	DHJF	500	1	blank2r.bmp	880	4	töten	880	1	!	1292	1	!	1357	0	0	0	0	0	0
2024-05-23	11:13:31	11:21:14	462122	6.6.1	4_exp_EVA_AWA_CON	49	A	B	Rpleas_acq	Same	Rpleas	1pleas	acq_US_pleas_nomask	acq3_nomask	3	18	453	1	300	300	0	0	513	50	1	0	kreativ	anregung	engagiert	träumen	sonnig	gütig	krank	ausrottung	engstirnig	töten	sterben	gierig	vertrauen	genießen	kuss	besonnen	vergnügt	gesittet	versagen	gemein	krise	bange	verbissen	geizig	1	blank2r.bmp	0	1	+	0	1	blank2r.bmp	500	1	CPLW	500	1	blank2r.bmp	880	3	engagiert	880	1	!	1293	1	!	1414	0	0	0	0	0	0
2024-05-23	11:13:31	11:21:16	464521	6.6.1	4_exp_EVA_AWA_CON	49	A	B	Rpleas_acq	Same	Rpleas	1pleas	acq_US_pleas_nomask	acq3_nomask	3	19	453	0	300	300	0	0	621	50	1	0	kreativ	anregung	engagiert	träumen	sonnig	gütig	krank	ausrottung	engstirnig	töten	sterben	gierig	vertrauen	genießen	kuss	besonnen	vergnügt	gesittet	versagen	gemein	krise	bange	verbissen	geizig	1	blank2r.bmp	0	1	+	0	1	blank2r.bmp	500	1	CPLW	500	1	blank2r.bmp	880	2	anregung	880	1	!	1292	1	!	-1	0	0	0	0	0	0
2024-05-23	11:13:31	11:21:19	466857	6.6.1	4_exp_EVA_AWA_CON	49	A	B	Rpleas_acq	Same	Rpleas	1pleas	acq_US_unple_nomask	acq3_nomask	3	20	453	0	300	300	0	0	556	46	1	0	kreativ	anregung	engagiert	träumen	sonnig	gütig	krank	ausrottung	engstirnig	töten	sterben	gierig	vertrauen	genießen	kuss	besonnen	vergnügt	gesittet	versagen	gemein	krise	bange	verbissen	geizig	1	blank2r.bmp	0	1	+	0	1	blank2r.bmp	500	1	DHJF	500	1	blank2r.bmp	880	3	engstirnig	880	1	!	1292	1	!	-1	0	0	0	0	0	0
2024-05-23	11:13:31	11:21:21	469075	6.6.1	4_exp_EVA_AWA_CON	49	A	B	Rpleas_acq	Same	Rpleas	1pleas	acq_US_pleas_nomask	acq3_nomask	3	21	453	1	300	300	0	0	440	50	1	0	kreativ	anregung	engagiert	träumen	sonnig	gütig	krank	ausrottung	engstirnig	töten	sterben	gierig	vertrauen	genießen	kuss	besonnen	vergnügt	gesittet	versagen	gemein	krise	bange	verbissen	geizig	1	blank2r.bmp	0	1	+	0	1	blank2r.bmp	500	1	CPLW	500	1	blank2r.bmp	880	4	träumen	880	1	!	1292	1	!	1342	0	0	0	0	0	0
2024-05-23	11:13:31	11:21:23	471307	6.6.1	4_exp_EVA_AWA_CON	49	A	B	Rpleas_acq	Same	Rpleas	1pleas	acq_US_unple_nomask	acq3_nomask	3	22	453	1	300	300	0	0	451	46	1	0	kreativ	anregung	engagiert	träumen	sonnig	gütig	krank	ausrottung	engstirnig	töten	sterben	gierig	vertrauen	genießen	kuss	besonnen	vergnügt	gesittet	versagen	gemein	krise	bange	verbissen	geizig	1	blank2r.bmp	0	1	+	0	1	blank2r.bmp	500	1	DHJF	500	1	blank2r.bmp	880	1	krank	880	1	!	1293	1	!	1353	0	0	0	0	0	0
2024-05-23	11:13:31	11:21:25	473489	6.6.1	4_exp_EVA_AWA_CON	49	A	B	Rpleas_acq	Same	Rpleas	1pleas	acq_US_pleas_nomask	acq3_nomask	3	23	453	1	300	300	0	0	403	50	1	0	kreativ	anregung	engagiert	träumen	sonnig	gütig	krank	ausrottung	engstirnig	töten	sterben	gierig	vertrauen	genießen	kuss	besonnen	vergnügt	gesittet	versagen	gemein	krise	bange	verbissen	geizig	1	blank2r.bmp	0	1	+	0	1	blank2r.bmp	500	1	CPLW	500	1	blank2r.bmp	880	5	sonnig	880	1	!	1292	1	!	1303	0	0	0	0	0	0
2024-05-23	11:13:31	11:21:28	475860	6.6.1	4_exp_EVA_AWA_CON	49	A	B	Rpleas_acq	Same	Rpleas	1pleas	acq_US_pleas_nomask	acq3_nomask	3	24	453	0	300	300	0	0	390	46	0	0	kreativ	anregung	engagiert	träumen	sonnig	gütig	krank	ausrottung	engstirnig	töten	sterben	gierig	vertrauen	genießen	kuss	besonnen	vergnügt	gesittet	versagen	gemein	krise	bange	verbissen	geizig	1	blank2r.bmp	0	1	+	0	1	blank2r.bmp	500	1	CPLW	500	1	blank2r.bmp	880	6	gütig	880	1	FEHLER	1584	1	!	-1	1	!	-1	0	0	0
2024-05-23	11:13:31	11:21:30	478076	6.6.1	4_exp_EVA_AWA_CON	49	A	B	Rpleas_acq	Same	Rpleas	1pleas	acq_US_unple_nomask	acq3_nomask	3	25	453	1	300	300	0	0	434	50	0	0	kreativ	anregung	engagiert	träumen	sonnig	gütig	krank	ausrottung	engstirnig	töten	sterben	gierig	vertrauen	genießen	kuss	besonnen	vergnügt	gesittet	versagen	gemein	krise	bange	verbissen	geizig	1	blank2r.bmp	0	1	+	0	1	blank2r.bmp	500	1	DHJF	500	1	blank2r.bmp	880	3	engstirnig	880	1	FEHLER	1628	1	!	1292	1	!	1336	0	0	0
2024-05-23	11:13:31	11:21:32	480091	6.6.1	4_exp_EVA_AWA_CON	49	A	B	Rpleas_acq	Same	Rpleas	1pleas	acq_US_pleas_nomask	acq3_nomask	3	26	453	1	300	300	0	0	439	50	1	0	kreativ	anregung	engagiert	träumen	sonnig	gütig	krank	ausrottung	engstirnig	töten	sterben	gierig	vertrauen	genießen	kuss	besonnen	vergnügt	gesittet	versagen	gemein	krise	bange	verbissen	geizig	1	blank2r.bmp	0	1	+	0	1	blank2r.bmp	500	1	CPLW	500	1	blank2r.bmp	880	5	sonnig	880	1	!	1292	1	!	1341	0	0	0	0	0	0
2024-05-23	11:13:31	11:21:34	482265	6.6.1	4_exp_EVA_AWA_CON	49	A	B	Rpleas_acq	Same	Rpleas	1pleas	acq_US_unple_nomask	acq3_nomask	3	27	453	1	300	300	0	0	394	46	1	0	kreativ	anregung	engagiert	träumen	sonnig	gütig	krank	ausrottung	engstirnig	töten	sterben	gierig	vertrauen	genießen	kuss	besonnen	vergnügt	gesittet	versagen	gemein	krise	bange	verbissen	geizig	1	blank2r.bmp	0	1	+	0	1	blank2r.bmp	500	1	DHJF	500	1	blank2r.bmp	880	1	krank	880	1	!	1292	1	!	1294	0	0	0	0	0	0
2024-05-23	11:13:31	11:21:36	484617	6.6.1	4_exp_EVA_AWA_CON	49	A	B	Rpleas_acq	Same	Rpleas	1pleas	acq_US_pleas_nomask	acq3_nomask	3	28	453	0	300	300	0	0	574	50	1	0	kreativ	anregung	engagiert	träumen	sonnig	gütig	krank	ausrottung	engstirnig	töten	sterben	gierig	vertrauen	genießen	kuss	besonnen	vergnügt	gesittet	versagen	gemein	krise	bange	verbissen	geizig	1	blank2r.bmp	0	1	+	0	1	blank2r.bmp	500	1	CPLW	500	1	blank2r.bmp	880	2	anregung	880	1	!	1293	1	!	-1	0	0	0	0	0	0
2024-05-23	11:13:31	11:21:39	486953	6.6.1	4_exp_EVA_AWA_CON	49	A	B	Rpleas_acq	Same	Rpleas	1pleas	acq_US_unple_nomask	acq3_nomask	3	29	453	0	300	300	0	0	559	46	1	0	kreativ	anregung	engagiert	träumen	sonnig	gütig	krank	ausrottung	engstirnig	töten	sterben	gierig	vertrauen	genießen	kuss	besonnen	vergnügt	gesittet	versagen	gemein	krise	bange	verbissen	geizig	1	blank2r.bmp	0	1	+	0	1	blank2r.bmp	500	1	DHJF	500	1	blank2r.bmp	880	2	ausrottung	880	1	!	1293	1	!	-1	0	0	0	0	0	0
2024-05-23	11:13:31	11:21:41	489210	6.6.1	4_exp_EVA_AWA_CON	49	A	B	Rpleas_acq	Same	Rpleas	1pleas	acq_US_pleas_nomask	acq3_nomask	3	30	453	1	300	300	0	0	473	50	1	0	kreativ	anregung	engagiert	träumen	sonnig	gütig	krank	ausrottung	engstirnig	töten	sterben	gierig	vertrauen	genießen	kuss	besonnen	vergnügt	gesittet	versagen	gemein	krise	bange	verbissen	geizig	1	blank2r.bmp	0	1	+	0	1	blank2r.bmp	500	1	CPLW	500	1	blank2r.bmp	880	3	engagiert	880	1	!	1292	1	!	1375	0	0	0	0	0	0
2024-05-23	11:13:31	11:21:43	491369	6.6.1	4_exp_EVA_AWA_CON	49	A	B	Rpleas_acq	Same	Rpleas	1pleas	acq_US_pleas_nomask	acq3_nomask	3	31	453	0	300	300	0	0	382	50	1	0	kreativ	anregung	engagiert	träumen	sonnig	gütig	krank	ausrottung	engstirnig	töten	sterben	gierig	vertrauen	genießen	kuss	besonnen	vergnügt	gesittet	versagen	gemein	krise	bange	verbissen	geizig	1	blank2r.bmp	0	1	+	0	1	blank2r.bmp	500	1	CPLW	500	1	blank2r.bmp	880	6	gütig	880	1	!	-1	1	!	-1	0	0	0	0	0	0
2024-05-23	11:13:31	11:21:45	493602	6.6.1	4_exp_EVA_AWA_CON	49	A	B	Rpleas_acq	Same	Rpleas	1pleas	acq_US_pleas_nomask	acq3_nomask	3	32	453	1	300	300	0	0	452	50	1	0	kreativ	anregung	engagiert	träumen	sonnig	gütig	krank	ausrottung	engstirnig	töten	sterben	gierig	vertrauen	genießen	kuss	besonnen	vergnügt	gesittet	versagen	gemein	krise	bange	verbissen	geizig	1	blank2r.bmp	0	1	+	0	1	blank2r.bmp	500	1	CPLW	500	1	blank2r.bmp	880	4	träumen	880	1	!	1292	1	!	1354	0	0	0	0	0	0
2024-05-23	11:13:31	11:21:48	495818	6.6.1	4_exp_EVA_AWA_CON	49	A	B	Rpleas_acq	Same	Rpleas	1pleas	acq_US_unple_nomask	acq3_nomask	3	33	453	1	300	300	0	0	437	46	1	0	kreativ	anregung	engagiert	träumen	sonnig	gütig	krank	ausrottung	engstirnig	töten	sterben	gierig	vertrauen	genießen	kuss	besonnen	vergnügt	gesittet	versagen	gemein	krise	bange	verbissen	geizig	1	blank2r.bmp	0	1	+	0	1	blank2r.bmp	500	1	DHJF	500	1	blank2r.bmp	880	4	töten	880	1	!	1292	1	!	1339	0	0	0	0	0	0
2024-05-23	11:13:31	11:21:50	498236	6.6.1	4_exp_EVA_AWA_CON	49	A	B	Rpleas_acq	Same	Rpleas	1pleas	acq_US_unple_nomask	acq3_nomask	3	34	453	1	300	300	0	0	442	50	0	0	kreativ	anregung	engagiert	träumen	sonnig	gütig	krank	ausrottung	engstirnig	töten	sterben	gierig	vertrauen	genießen	kuss	besonnen	vergnügt	gesittet	versagen	gemein	krise	bange	verbissen	geizig	1	blank2r.bmp	0	1	+	0	1	blank2r.bmp	500	1	DHJF	500	1	blank2r.bmp	880	6	gierig	880	1	FEHLER	1635	1	!	1293	1	!	1343	0	0	0
2024-05-23	11:13:31	11:21:52	500258	6.6.1	4_exp_EVA_AWA_CON	49	A	B	Rpleas_acq	Same	Rpleas	1pleas	acq_US_unple_nomask	acq3_nomask	3	35	453	1	300	300	0	0	444	46	1	0	kreativ	anregung	engagiert	träumen	sonnig	gütig	krank	ausrottung	engstirnig	töten	sterben	gierig	vertrauen	genießen	kuss	besonnen	vergnügt	gesittet	versagen	gemein	krise	bange	verbissen	geizig	1	blank2r.bmp	0	1	+	0	1	blank2r.bmp	500	1	DHJF	500	1	blank2r.bmp	880	5	sterben	880	1	!	1292	1	!	1346	0	0	0	0	0	0
2024-05-23	11:13:31	11:21:54	502482	6.6.1	4_exp_EVA_AWA_CON	49	A	B	Rpleas_acq	Same	Rpleas	1pleas	acq_US_pleas_nomask	acq3_nomask	3	36	453	1	300	300	0	0	447	50	1	0	kreativ	anregung	engagiert	träumen	sonnig	gütig	krank	ausrottung	engstirnig	töten	sterben	gierig	vertrauen	genießen	kuss	besonnen	vergnügt	gesittet	versagen	gemein	krise	bange	verbissen	geizig	1	blank2r.bmp	0	1	+	0	1	blank2r.bmp	500	1	CPLW	500	1	blank2r.bmp	880	1	kreativ	880	1	!	1292	1	!	1348	0	0	0	0	0	0
2024-05-23	11:13:31	11:22:11	519587	6.6.1	4_exp_EVA_AWA_CON	49	A	B	Rpleas_acq	Same	Rpleas	1pleas	acq_US_unple_nomask	acq45_nomask	4	1	400	1	300	300	0	0	470	46	1	0	kreativ	anregung	engagiert	träumen	sonnig	gütig	krank	ausrottung	engstirnig	töten	sterben	gierig	vertrauen	genießen	kuss	besonnen	vergnügt	gesittet	versagen	gemein	krise	bange	verbissen	geizig	1	blank2r.bmp	0	1	+	0	1	blank2r.bmp	500	1	DHJF	500	1	blank2r.bmp	880	1	krank	880	1	!	1232	1	!	1372	0	0	0	0	0	0
2024-05-23	11:13:31	11:22:14	521839	6.6.1	4_exp_EVA_AWA_CON	49	A	B	Rpleas_acq	Same	Rpleas	1pleas	acq_US_pleas_nomask	acq45_nomask	4	2	400	0	300	300	0	0	474	50	1	0	kreativ	anregung	engagiert	träumen	sonnig	gütig	krank	ausrottung	engstirnig	töten	sterben	gierig	vertrauen	genießen	kuss	besonnen	vergnügt	gesittet	versagen	gemein	krise	bange	verbissen	geizig	1	blank2r.bmp	0	1	+	0	1	blank2r.bmp	500	1	CPLW	500	1	blank2r.bmp	880	1	kreativ	880	1	!	1232	1	!	-1	0	0	0	0	0	0
2024-05-23	11:13:31	11:22:16	524010	6.6.1	4_exp_EVA_AWA_CON	49	A	B	Rpleas_acq	Same	Rpleas	1pleas	acq_US_pleas_nomask	acq45_nomask	4	3	400	1	300	300	0	0	391	46	0	0	kreativ	anregung	engagiert	träumen	sonnig	gütig	krank	ausrottung	engstirnig	töten	sterben	gierig	vertrauen	genießen	kuss	besonnen	vergnügt	gesittet	versagen	gemein	krise	bange	verbissen	geizig	1	blank2r.bmp	0	1	+	0	1	blank2r.bmp	500	1	CPLW	500	1	blank2r.bmp	880	6	gütig	880	1	!	1232	1	!	1293	0	0	0	0	0	0
2024-05-23	11:13:31	11:22:18	526234	6.6.1	4_exp_EVA_AWA_CON	49	A	B	Rpleas_acq	Same	Rpleas	1pleas	acq_US_pleas_nomask	acq45_nomask	4	4	400	1	300	300	0	0	443	50	1	0	kreativ	anregung	engagiert	träumen	sonnig	gütig	krank	ausrottung	engstirnig	töten	sterben	gierig	vertrauen	genießen	kuss	besonnen	vergnügt	gesittet	versagen	gemein	krise	bange	verbissen	geizig	1	blank2r.bmp	0	1	+	0	1	blank2r.bmp	500	1	CPLW	500	1	blank2r.bmp	880	5	sonnig	880	1	!	1232	1	!	1345	0	0	0	0	0	0
2024-05-23	11:13:31	11:22:20	528458	6.6.1	4_exp_EVA_AWA_CON	49	A	B	Rpleas_acq	Same	Rpleas	1pleas	acq_US_pleas_nomask	acq45_nomask	4	5	400	1	300	300	0	0	446	50	1	0	kreativ	anregung	engagiert	träumen	sonnig	gütig	krank	ausrottung	engstirnig	töten	sterben	gierig	vertrauen	genießen	kuss	besonnen	vergnügt	gesittet	versagen	gemein	krise	bange	verbissen	geizig	1	blank2r.bmp	0	1	+	0	1	blank2r.bmp	500	1	CPLW	500	1	blank2r.bmp	880	3	engagiert	880	1	!	1232	1	!	1348	0	0	0	0	0	0
2024-05-23	11:13:31	11:22:22	530658	6.6.1	4_exp_EVA_AWA_CON	49	A	B	Rpleas_acq	Same	Rpleas	1pleas	acq_US_unple_nomask	acq45_nomask	4	6	400	1	300	300	0	0	425	46	1	0	kreativ	anregung	engagiert	träumen	sonnig	gütig	krank	ausrottung	engstirnig	töten	sterben	gierig	vertrauen	genießen	kuss	besonnen	vergnügt	gesittet	versagen	gemein	krise	bange	verbissen	geizig	1	blank2r.bmp	0	1	+	0	1	blank2r.bmp	500	1	DHJF	500	1	blank2r.bmp	880	4	töten	880	1	!	1233	1	!	1326	0	0	0	0	0	0
2024-05-23	11:13:31	11:22:25	532858	6.6.1	4_exp_EVA_AWA_CON	49	A	B	Rpleas_acq	Same	Rpleas	1pleas	acq_US_pleas_nomask	acq45_nomask	4	7	400	1	300	300	0	0	423	50	1	0	kreativ	anregung	engagiert	träumen	sonnig	gütig	krank	ausrottung	engstirnig	töten	sterben	gierig	vertrauen	genießen	kuss	besonnen	vergnügt	gesittet	versagen	gemein	krise	bange	verbissen	geizig	1	blank2r.bmp	0	1	+	0	1	blank2r.bmp	500	1	CPLW	500	1	blank2r.bmp	880	4	träumen	880	1	!	1232	1	!	1325	0	0	0	0	0	0
2024-05-23	11:13:31	11:22:27	535145	6.6.1	4_exp_EVA_AWA_CON	49	A	B	Rpleas_acq	Same	Rpleas	1pleas	acq_US_pleas_nomask	acq45_nomask	4	8	400	0	300	300	0	0	510	50	1	0	kreativ	anregung	engagiert	träumen	sonnig	gütig	krank	ausrottung	engstirnig	töten	sterben	gierig	vertrauen	genießen	kuss	besonnen	vergnügt	gesittet	versagen	gemein	krise	bange	verbissen	geizig	1	blank2r.bmp	0	1	+	0	1	blank2r.bmp	500	1	CPLW	500	1	blank2r.bmp	880	2	anregung	880	1	!	1233	1	!	-1	0	0	0	0	0	0
2024-05-23	11:13:31	11:22:29	537425	6.6.1	4_exp_EVA_AWA_CON	49	A	B	Rpleas_acq	Same	Rpleas	1pleas	acq_US_unple_nomask	acq45_nomask	4	9	400	0	300	300	0	0	498	50	0	0	kreativ	anregung	engagiert	träumen	sonnig	gütig	krank	ausrottung	engstirnig	töten	sterben	gierig	vertrauen	genießen	kuss	besonnen	vergnügt	gesittet	versagen	gemein	krise	bange	verbissen	geizig	1	blank2r.bmp	0	1	+	0	1	blank2r.bmp	500	1	DHJF	500	1	blank2r.bmp	880	3	engstirnig	880	1	!	1232	1	!	-1	0	0	0	0	0	0
2024-05-23	11:13:31	11:22:31	539666	6.6.1	4_exp_EVA_AWA_CON	49	A	B	Rpleas_acq	Same	Rpleas	1pleas	acq_US_unple_nomask	acq45_nomask	4	10	400	1	300	300	0	0	467	46	1	0	kreativ	anregung	engagiert	träumen	sonnig	gütig	krank	ausrottung	engstirnig	töten	sterben	gierig	vertrauen	genießen	kuss	besonnen	vergnügt	gesittet	versagen	gemein	krise	bange	verbissen	geizig	1	blank2r.bmp	0	1	+	0	1	blank2r.bmp	500	1	DHJF	500	1	blank2r.bmp	880	6	gierig	880	1	!	1232	1	!	1368	0	0	0	0	0	0
2024-05-23	11:13:31	11:22:34	541961	6.6.1	4_exp_EVA_AWA_CON	49	A	B	Rpleas_acq	Same	Rpleas	1pleas	acq_US_unple_nomask	acq45_nomask	4	11	400	0	300	300	0	0	521	46	1	0	kreativ	anregung	engagiert	träumen	sonnig	gütig	krank	ausrottung	engstirnig	töten	sterben	gierig	vertrauen	genießen	kuss	besonnen	vergnügt	gesittet	versagen	gemein	krise	bange	verbissen	geizig	1	blank2r.bmp	0	1	+	0	1	blank2r.bmp	500	1	DHJF	500	1	blank2r.bmp	880	5	sterben	880	1	!	1232	1	!	-1	0	0	0	0	0	0
2024-05-23	11:13:31	11:22:36	544138	6.6.1	4_exp_EVA_AWA_CON	49	A	B	Rpleas_acq	Same	Rpleas	1pleas	acq_US_unple_nomask	acq45_nomask	4	12	400	1	300	300	0	0	396	50	0	0	kreativ	anregung	engagiert	träumen	sonnig	gütig	krank	ausrottung	engstirnig	töten	sterben	gierig	vertrauen	genießen	kuss	besonnen	vergnügt	gesittet	versagen	gemein	krise	bange	verbissen	geizig	1	blank2r.bmp	0	1	+	0	1	blank2r.bmp	500	1	DHJF	500	1	blank2r.bmp	880	2	ausrottung	880	1	!	1232	1	!	1297	0	0	0	0	0	0
2024-05-23	11:13:31	11:22:38	546378	6.6.1	4_exp_EVA_AWA_CON	49	A	B	Rpleas_acq	Same	Rpleas	1pleas	acq_US_unple_nomask	acq45_nomask	4	13	400	1	300	300	0	0	465	46	1	0	kreativ	anregung	engagiert	träumen	sonnig	gütig	krank	ausrottung	engstirnig	töten	sterben	gierig	vertrauen	genießen	kuss	besonnen	vergnügt	gesittet	versagen	gemein	krise	bange	verbissen	geizig	1	blank2r.bmp	0	1	+	0	1	blank2r.bmp	500	1	DHJF	500	1	blank2r.bmp	880	5	sterben	880	1	!	1233	1	!	1366	0	0	0	0	0	0
2024-05-23	11:13:31	11:22:40	548657	6.6.1	4_exp_EVA_AWA_CON	49	A	B	Rpleas_acq	Same	Rpleas	1pleas	acq_US_unple_nomask	acq45_nomask	4	14	400	0	300	300	0	0	503	46	1	0	kreativ	anregung	engagiert	träumen	sonnig	gütig	krank	ausrottung	engstirnig	töten	sterben	gierig	vertrauen	genießen	kuss	besonnen	vergnügt	gesittet	versagen	gemein	krise	bange	verbissen	geizig	1	blank2r.bmp	0	1	+	0	1	blank2r.bmp	500	1	DHJF	500	1	blank2r.bmp	880	4	töten	880	1	!	1232	1	!	-1	0	0	0	0	0	0
2024-05-23	11:13:31	11:22:43	550961	6.6.1	4_exp_EVA_AWA_CON	49	A	B	Rpleas_acq	Same	Rpleas	1pleas	acq_US_unple_nomask	acq45_nomask	4	15	400	0	300	300	0	0	526	46	1	0	kreativ	anregung	engagiert	träumen	sonnig	gütig	krank	ausrottung	engstirnig	töten	sterben	gierig	vertrauen	genießen	kuss	besonnen	vergnügt	gesittet	versagen	gemein	krise	bange	verbissen	geizig	1	blank2r.bmp	0	1	+	0	1	blank2r.bmp	500	1	DHJF	500	1	blank2r.bmp	880	2	ausrottung	880	1	!	1232	1	!	-1	0	0	0	0	0	0
2024-05-23	11:13:31	11:22:45	553179	6.6.1	4_exp_EVA_AWA_CON	49	A	B	Rpleas_acq	Same	Rpleas	1pleas	acq_US_pleas_nomask	acq45_nomask	4	16	400	1	300	300	0	0	440	50	1	0	kreativ	anregung	engagiert	träumen	sonnig	gütig	krank	ausrottung	engstirnig	töten	sterben	gierig	vertrauen	genießen	kuss	besonnen	vergnügt	gesittet	versagen	gemein	krise	bange	verbissen	geizig	1	blank2r.bmp	0	1	+	0	1	blank2r.bmp	500	1	CPLW	500	1	blank2r.bmp	880	3	engagiert	880	1	!	1232	1	!	1342	0	0	0	0	0	0
2024-05-23	11:13:31	11:22:47	555346	6.6.1	4_exp_EVA_AWA_CON	49	A	B	Rpleas_acq	Same	Rpleas	1pleas	acq_US_pleas_nomask	acq45_nomask	4	17	400	1	300	300	0	0	387	50	1	0	kreativ	anregung	engagiert	träumen	sonnig	gütig	krank	ausrottung	engstirnig	töten	sterben	gierig	vertrauen	genießen	kuss	besonnen	vergnügt	gesittet	versagen	gemein	krise	bange	verbissen	geizig	1	blank2r.bmp	0	1	+	0	1	blank2r.bmp	500	1	CPLW	500	1	blank2r.bmp	880	5	sonnig	880	1	!	1232	1	!	1288	0	0	0	0	0	0
2024-05-23	11:13:31	11:22:49	557546	6.6.1	4_exp_EVA_AWA_CON	49	A	B	Rpleas_acq	Same	Rpleas	1pleas	acq_US_pleas_nomask	acq45_nomask	4	18	400	1	300	300	0	0	425	46	0	0	kreativ	anregung	engagiert	träumen	sonnig	gütig	krank	ausrottung	engstirnig	töten	sterben	gierig	vertrauen	genießen	kuss	besonnen	vergnügt	gesittet	versagen	gemein	krise	bange	verbissen	geizig	1	blank2r.bmp	0	1	+	0	1	blank2r.bmp	500	1	CPLW	500	1	blank2r.bmp	880	2	anregung	880	1	!	1232	1	!	1327	0	0	0	0	0	0
2024-05-23	11:13:31	11:22:52	559771	6.6.1	4_exp_EVA_AWA_CON	49	A	B	Rpleas_acq	Same	Rpleas	1pleas	acq_US_pleas_nomask	acq45_nomask	4	19	400	1	300	300	0	0	448	50	1	0	kreativ	anregung	engagiert	träumen	sonnig	gütig	krank	ausrottung	engstirnig	töten	sterben	gierig	vertrauen	genießen	kuss	besonnen	vergnügt	gesittet	versagen	gemein	krise	bange	verbissen	geizig	1	blank2r.bmp	0	1	+	0	1	blank2r.bmp	500	1	CPLW	500	1	blank2r.bmp	880	4	träumen	880	1	!	1232	1	!	1350	0	0	0	0	0	0
2024-05-23	11:13:31	11:22:54	562041	6.6.1	4_exp_EVA_AWA_CON	49	A	B	Rpleas_acq	Same	Rpleas	1pleas	acq_US_unple_nomask	acq45_nomask	4	20	400	0	300	300	0	0	488	46	1	0	kreativ	anregung	engagiert	träumen	sonnig	gütig	krank	ausrottung	engstirnig	töten	sterben	gierig	vertrauen	genießen	kuss	besonnen	vergnügt	gesittet	versagen	gemein	krise	bange	verbissen	geizig	1	blank2r.bmp	0	1	+	0	1	blank2r.bmp	500	1	DHJF	500	1	blank2r.bmp	880	1	krank	880	1	!	1232	1	!	-1	0	0	0	0	0	0
2024-05-23	11:13:31	11:22:56	564321	6.6.1	4_exp_EVA_AWA_CON	49	A	B	Rpleas_acq	Same	Rpleas	1pleas	acq_US_unple_nomask	acq45_nomask	4	21	400	0	300	300	0	0	507	46	1	0	kreativ	anregung	engagiert	träumen	sonnig	gütig	krank	ausrottung	engstirnig	töten	sterben	gierig	vertrauen	genießen	kuss	besonnen	vergnügt	gesittet	versagen	gemein	krise	bange	verbissen	geizig	1	blank2r.bmp	0	1	+	0	1	blank2r.bmp	500	1	DHJF	500	1	blank2r.bmp	880	6	gierig	880	1	!	1232	1	!	-1	0	0	0	0	0	0
2024-05-23	11:13:31	11:22:58	566575	6.6.1	4_exp_EVA_AWA_CON	49	A	B	Rpleas_acq	Same	Rpleas	1pleas	acq_US_pleas_nomask	acq45_nomask	4	22	400	0	300	300	0	0	482	50	1	0	kreativ	anregung	engagiert	träumen	sonnig	gütig	krank	ausrottung	engstirnig	töten	sterben	gierig	vertrauen	genießen	kuss	besonnen	vergnügt	gesittet	versagen	gemein	krise	bange	verbissen	geizig	1	blank2r.bmp	0	1	+	0	1	blank2r.bmp	500	1	CPLW	500	1	blank2r.bmp	880	6	gütig	880	1	!	1232	1	!	-1	0	0	0	0	0	0
2024-05-23	11:13:31	11:23:01	568827	6.6.1	4_exp_EVA_AWA_CON	49	A	B	Rpleas_acq	Same	Rpleas	1pleas	acq_US_unple_nomask	acq45_nomask	4	23	400	1	300	300	0	0	468	50	0	0	kreativ	anregung	engagiert	träumen	sonnig	gütig	krank	ausrottung	engstirnig	töten	sterben	gierig	vertrauen	genießen	kuss	besonnen	vergnügt	gesittet	versagen	gemein	krise	bange	verbissen	geizig	1	blank2r.bmp	0	1	+	0	1	blank2r.bmp	500	1	DHJF	500	1	blank2r.bmp	880	3	engstirnig	880	1	!	1232	1	!	1370	0	0	0	0	0	0
2024-05-23	11:13:31	11:23:03	571002	6.6.1	4_exp_EVA_AWA_CON	49	A	B	Rpleas_acq	Same	Rpleas	1pleas	acq_US_unple_nomask	acq45_nomask	4	24	400	1	300	300	0	0	393	50	0	0	kreativ	anregung	engagiert	träumen	sonnig	gütig	krank	ausrottung	engstirnig	töten	sterben	gierig	vertrauen	genießen	kuss	besonnen	vergnügt	gesittet	versagen	gemein	krise	bange	verbissen	geizig	1	blank2r.bmp	0	1	+	0	1	blank2r.bmp	500	1	DHJF	500	1	blank2r.bmp	880	6	gierig	880	1	!	1232	1	!	1294	0	0	0	0	0	0
2024-05-23	11:13:31	11:23:05	573265	6.6.1	4_exp_EVA_AWA_CON	49	A	B	Rpleas_acq	Same	Rpleas	1pleas	acq_US_pleas_nomask	acq45_nomask	4	25	400	0	300	300	0	0	485	50	1	0	kreativ	anregung	engagiert	träumen	sonnig	gütig	krank	ausrottung	engstirnig	töten	sterben	gierig	vertrauen	genießen	kuss	besonnen	vergnügt	gesittet	versagen	gemein	krise	bange	verbissen	geizig	1	blank2r.bmp	0	1	+	0	1	blank2r.bmp	500	1	CPLW	500	1	blank2r.bmp	880	1	kreativ	880	1	!	1232	1	!	-1	0	0	0	0	0	0
2024-05-23	11:13:31	11:23:08	575913	6.6.1	4_exp_EVA_AWA_CON	49	A	B	Rpleas_acq	Same	Rpleas	1pleas	acq_US_pleas_nomask	acq45_nomask	4	26	400	0	300	300	0	0	872	50	1	0	kreativ	anregung	engagiert	träumen	sonnig	gütig	krank	ausrottung	engstirnig	töten	sterben	gierig	vertrauen	genießen	kuss	besonnen	vergnügt	gesittet	versagen	gemein	krise	bange	verbissen	geizig	1	blank2r.bmp	0	1	+	0	1	blank2r.bmp	500	1	CPLW	500	1	blank2r.bmp	880	3	engagiert	880	1	!	1232	1	!	-1	0	0	0	0	0	0
2024-05-23	11:13:31	11:23:10	578130	6.6.1	4_exp_EVA_AWA_CON	49	A	B	Rpleas_acq	Same	Rpleas	1pleas	acq_US_pleas_nomask	acq45_nomask	4	27	400	1	300	300	0	0	436	50	1	0	kreativ	anregung	engagiert	träumen	sonnig	gütig	krank	ausrottung	engstirnig	töten	sterben	gierig	vertrauen	genießen	kuss	besonnen	vergnügt	gesittet	versagen	gemein	krise	bange	verbissen	geizig	1	blank2r.bmp	0	1	+	0	1	blank2r.bmp	500	1	CPLW	500	1	blank2r.bmp	880	2	anregung	880	1	!	1232	1	!	1338	0	0	0	0	0	0
2024-05-23	11:13:31	11:23:12	580409	6.6.1	4_exp_EVA_AWA_CON	49	A	B	Rpleas_acq	Same	Rpleas	1pleas	acq_US_unple_nomask	acq45_nomask	4	28	400	0	300	300	0	0	505	46	1	0	kreativ	anregung	engagiert	träumen	sonnig	gütig	krank	ausrottung	engstirnig	töten	sterben	gierig	vertrauen	genießen	kuss	besonnen	vergnügt	gesittet	versagen	gemein	krise	bange	verbissen	geizig	1	blank2r.bmp	0	1	+	0	1	blank2r.bmp	500	1	DHJF	500	1	blank2r.bmp	880	3	engstirnig	880	1	!	1232	1	!	-1	0	0	0	0	0	0
2024-05-23	11:13:31	11:23:14	582663	6.6.1	4_exp_EVA_AWA_CON	49	A	B	Rpleas_acq	Same	Rpleas	1pleas	acq_US_pleas_nomask	acq45_nomask	4	29	400	0	300	300	0	0	479	50	1	0	kreativ	anregung	engagiert	träumen	sonnig	gütig	krank	ausrottung	engstirnig	töten	sterben	gierig	vertrauen	genießen	kuss	besonnen	vergnügt	gesittet	versagen	gemein	krise	bange	verbissen	geizig	1	blank2r.bmp	0	1	+	0	1	blank2r.bmp	500	1	CPLW	500	1	blank2r.bmp	880	4	träumen	880	1	!	1232	1	!	-1	0	0	0	0	0	0
2024-05-23	11:13:31	11:23:17	584874	6.6.1	4_exp_EVA_AWA_CON	49	A	B	Rpleas_acq	Same	Rpleas	1pleas	acq_US_unple_nomask	acq45_nomask	4	30	400	1	300	300	0	0	436	46	1	0	kreativ	anregung	engagiert	träumen	sonnig	gütig	krank	ausrottung	engstirnig	töten	sterben	gierig	vertrauen	genießen	kuss	besonnen	vergnügt	gesittet	versagen	gemein	krise	bange	verbissen	geizig	1	blank2r.bmp	0	1	+	0	1	blank2r.bmp	500	1	DHJF	500	1	blank2r.bmp	880	4	töten	880	1	!	1232	1	!	1337	0	0	0	0	0	0
2024-05-23	11:13:31	11:23:19	587106	6.6.1	4_exp_EVA_AWA_CON	49	A	B	Rpleas_acq	Same	Rpleas	1pleas	acq_US_unple_nomask	acq45_nomask	4	31	400	1	300	300	0	0	456	46	1	0	kreativ	anregung	engagiert	träumen	sonnig	gütig	krank	ausrottung	engstirnig	töten	sterben	gierig	vertrauen	genießen	kuss	besonnen	vergnügt	gesittet	versagen	gemein	krise	bange	verbissen	geizig	1	blank2r.bmp	0	1	+	0	1	blank2r.bmp	500	1	DHJF	500	1	blank2r.bmp	880	2	ausrottung	880	1	!	1232	1	!	1358	0	0	0	0	0	0
2024-05-23	11:13:31	11:23:21	589359	6.6.1	4_exp_EVA_AWA_CON	49	A	B	Rpleas_acq	Same	Rpleas	1pleas	acq_US_pleas_nomask	acq45_nomask	4	32	400	0	300	300	0	0	481	50	1	0	kreativ	anregung	engagiert	träumen	sonnig	gütig	krank	ausrottung	engstirnig	töten	sterben	gierig	vertrauen	genießen	kuss	besonnen	vergnügt	gesittet	versagen	gemein	krise	bange	verbissen	geizig	1	blank2r.bmp	0	1	+	0	1	blank2r.bmp	500	1	CPLW	500	1	blank2r.bmp	880	1	kreativ	880	1	!	1232	1	!	-1	0	0	0	0	0	0
2024-05-23	11:13:31	11:23:23	591641	6.6.1	4_exp_EVA_AWA_CON	49	A	B	Rpleas_acq	Same	Rpleas	1pleas	acq_US_pleas_nomask	acq45_nomask	4	33	400	0	300	300	0	0	499	50	1	0	kreativ	anregung	engagiert	träumen	sonnig	gütig	krank	ausrottung	engstirnig	töten	sterben	gierig	vertrauen	genießen	kuss	besonnen	vergnügt	gesittet	versagen	gemein	krise	bange	verbissen	geizig	1	blank2r.bmp	0	1	+	0	1	blank2r.bmp	500	1	CPLW	500	1	blank2r.bmp	880	6	gütig	880	1	!	1232	1	!	-1	0	0	0	0	0	0
2024-05-23	11:13:31	11:23:26	593913	6.6.1	4_exp_EVA_AWA_CON	49	A	B	Rpleas_acq	Same	Rpleas	1pleas	acq_US_unple_nomask	acq45_nomask	4	34	400	0	300	300	0	0	490	46	1	0	kreativ	anregung	engagiert	träumen	sonnig	gütig	krank	ausrottung	engstirnig	töten	sterben	gierig	vertrauen	genießen	kuss	besonnen	vergnügt	gesittet	versagen	gemein	krise	bange	verbissen	geizig	1	blank2r.bmp	0	1	+	0	1	blank2r.bmp	500	1	DHJF	500	1	blank2r.bmp	880	1	krank	880	1	!	1232	1	!	-1	0	0	0	0	0	0
2024-05-23	11:13:31	11:23:28	596122	6.6.1	4_exp_EVA_AWA_CON	49	A	B	Rpleas_acq	Same	Rpleas	1pleas	acq_US_pleas_nomask	acq45_nomask	4	35	400	1	300	300	0	0	427	50	1	0	kreativ	anregung	engagiert	träumen	sonnig	gütig	krank	ausrottung	engstirnig	töten	sterben	gierig	vertrauen	genießen	kuss	besonnen	vergnügt	gesittet	versagen	gemein	krise	bange	verbissen	geizig	1	blank2r.bmp	0	1	+	0	1	blank2r.bmp	500	1	CPLW	500	1	blank2r.bmp	880	5	sonnig	880	1	!	1233	1	!	1328	0	0	0	0	0	0
2024-05-23	11:13:31	11:23:30	598307	6.6.1	4_exp_EVA_AWA_CON	49	A	B	Rpleas_acq	Same	Rpleas	1pleas	acq_US_unple_nomask	acq45_nomask	4	36	400	1	300	300	0	0	409	46	1	0	kreativ	anregung	engagiert	träumen	sonnig	gütig	krank	ausrottung	engstirnig	töten	sterben	gierig	vertrauen	genießen	kuss	besonnen	vergnügt	gesittet	versagen	gemein	krise	bange	verbissen	geizig	1	blank2r.bmp	0	1	+	0	1	blank2r.bmp	500	1	DHJF	500	1	blank2r.bmp	880	5	sterben	880	1	!	1232	1	!	1311	0	0	0	0	0	0
2024-05-23	11:13:31	11:23:42	609859	6.6.1	4_exp_EVA_AWA_CON	49	A	B	Rpleas_acq	Same	Rpleas	1pleas	acq_US_pleas_nomask	acq45_nomask	5	1	400	1	300	300	0	0	414	46	0	0	kreativ	anregung	engagiert	träumen	sonnig	gütig	krank	ausrottung	engstirnig	töten	sterben	gierig	vertrauen	genießen	kuss	besonnen	vergnügt	gesittet	versagen	gemein	krise	bange	verbissen	geizig	1	blank2r.bmp	0	1	+	0	1	blank2r.bmp	500	1	CPLW	500	1	blank2r.bmp	880	1	kreativ	880	1	!	1232	1	!	1315	0	0	0	0	0	0
2024-05-23	11:13:31	11:23:44	612090	6.6.1	4_exp_EVA_AWA_CON	49	A	B	Rpleas_acq	Same	Rpleas	1pleas	acq_US_pleas_nomask	acq45_nomask	5	2	400	1	300	300	0	0	454	50	1	0	kreativ	anregung	engagiert	träumen	sonnig	gütig	krank	ausrottung	engstirnig	töten	sterben	gierig	vertrauen	genießen	kuss	besonnen	vergnügt	gesittet	versagen	gemein	krise	bange	verbissen	geizig	1	blank2r.bmp	0	1	+	0	1	blank2r.bmp	500	1	CPLW	500	1	blank2r.bmp	880	6	gütig	880	1	!	1232	1	!	1356	0	0	0	0	0	0
2024-05-23	11:13:31	11:23:46	614298	6.6.1	4_exp_EVA_AWA_CON	49	A	B	Rpleas_acq	Same	Rpleas	1pleas	acq_US_pleas_nomask	acq45_nomask	5	3	400	1	300	300	0	0	431	50	1	0	kreativ	anregung	engagiert	träumen	sonnig	gütig	krank	ausrottung	engstirnig	töten	sterben	gierig	vertrauen	genießen	kuss	besonnen	vergnügt	gesittet	versagen	gemein	krise	bange	verbissen	geizig	1	blank2r.bmp	0	1	+	0	1	blank2r.bmp	500	1	CPLW	500	1	blank2r.bmp	880	5	sonnig	880	1	!	1232	1	!	1332	0	0	0	0	0	0
2024-05-23	11:13:31	11:23:48	616514	6.6.1	4_exp_EVA_AWA_CON	49	A	B	Rpleas_acq	Same	Rpleas	1pleas	acq_US_unple_nomask	acq45_nomask	5	4	400	1	300	300	0	0	435	46	1	0	kreativ	anregung	engagiert	träumen	sonnig	gütig	krank	ausrottung	engstirnig	töten	sterben	gierig	vertrauen	genießen	kuss	besonnen	vergnügt	gesittet	versagen	gemein	krise	bange	verbissen	geizig	1	blank2r.bmp	0	1	+	0	1	blank2r.bmp	500	1	DHJF	500	1	blank2r.bmp	880	2	ausrottung	880	1	!	1232	1	!	1337	0	0	0	0	0	0
2024-05-23	11:13:31	11:23:50	618714	6.6.1	4_exp_EVA_AWA_CON	49	A	B	Rpleas_acq	Same	Rpleas	1pleas	acq_US_unple_nomask	acq45_nomask	5	5	400	1	300	300	0	0	424	46	1	0	kreativ	anregung	engagiert	träumen	sonnig	gütig	krank	ausrottung	engstirnig	töten	sterben	gierig	vertrauen	genießen	kuss	besonnen	vergnügt	gesittet	versagen	gemein	krise	bange	verbissen	geizig	1	blank2r.bmp	0	1	+	0	1	blank2r.bmp	500	1	DHJF	500	1	blank2r.bmp	880	1	krank	880	1	!	1232	1	!	1326	0	0	0	0	0	0
2024-05-23	11:13:31	11:23:53	620967	6.6.1	4_exp_EVA_AWA_CON	49	A	B	Rpleas_acq	Same	Rpleas	1pleas	acq_US_pleas_nomask	acq45_nomask	5	6	400	0	300	300	0	0	479	50	1	0	kreativ	anregung	engagiert	träumen	sonnig	gütig	krank	ausrottung	engstirnig	töten	sterben	gierig	vertrauen	genießen	kuss	besonnen	vergnügt	gesittet	versagen	gemein	krise	bange	verbissen	geizig	1	blank2r.bmp	0	1	+	0	1	blank2r.bmp	500	1	CPLW	500	1	blank2r.bmp	880	4	träumen	880	1	!	1232	1	!	-1	0	0	0	0	0	0
2024-05-23	11:13:31	11:23:55	623194	6.6.1	4_exp_EVA_AWA_CON	49	A	B	Rpleas_acq	Same	Rpleas	1pleas	acq_US_unple_nomask	acq45_nomask	5	7	400	1	300	300	0	0	451	46	1	0	kreativ	anregung	engagiert	träumen	sonnig	gütig	krank	ausrottung	engstirnig	töten	sterben	gierig	vertrauen	genießen	kuss	besonnen	vergnügt	gesittet	versagen	gemein	krise	bange	verbissen	geizig	1	blank2r.bmp	0	1	+	0	1	blank2r.bmp	500	1	DHJF	500	1	blank2r.bmp	880	5	sterben	880	1	!	1232	1	!	1353	0	0	0	0	0	0
2024-05-23	11:13:31	11:23:57	625447	6.6.1	4_exp_EVA_AWA_CON	49	A	B	Rpleas_acq	Same	Rpleas	1pleas	acq_US_pleas_nomask	acq45_nomask	5	8	400	0	300	300	0	0	476	50	1	0	kreativ	anregung	engagiert	träumen	sonnig	gütig	krank	ausrottung	engstirnig	töten	sterben	gierig	vertrauen	genießen	kuss	besonnen	vergnügt	gesittet	versagen	gemein	krise	bange	verbissen	geizig	1	blank2r.bmp	0	1	+	0	1	blank2r.bmp	500	1	CPLW	500	1	blank2r.bmp	880	3	engagiert	880	1	!	1233	1	!	-1	0	0	0	0	0	0
2024-05-23	11:13:31	11:23:59	627690	6.6.1	4_exp_EVA_AWA_CON	49	A	B	Rpleas_acq	Same	Rpleas	1pleas	acq_US_unple_nomask	acq45_nomask	5	9	400	1	300	300	0	0	464	46	1	0	kreativ	anregung	engagiert	träumen	sonnig	gütig	krank	ausrottung	engstirnig	töten	sterben	gierig	vertrauen	genießen	kuss	besonnen	vergnügt	gesittet	versagen	gemein	krise	bange	verbissen	geizig	1	blank2r.bmp	0	1	+	0	1	blank2r.bmp	500	1	DHJF	500	1	blank2r.bmp	880	6	gierig	880	1	!	1232	1	!	1366	0	0	0	0	0	0
2024-05-23	11:13:31	11:24:02	630041	6.6.1	4_exp_EVA_AWA_CON	49	A	B	Rpleas_acq	Same	Rpleas	1pleas	acq_US_unple_nomask	acq45_nomask	5	10	400	0	300	300	0	0	575	46	1	0	kreativ	anregung	engagiert	träumen	sonnig	gütig	krank	ausrottung	engstirnig	töten	sterben	gierig	vertrauen	genießen	kuss	besonnen	vergnügt	gesittet	versagen	gemein	krise	bange	verbissen	geizig	1	blank2r.bmp	0	1	+	0	1	blank2r.bmp	500	1	DHJF	500	1	blank2r.bmp	880	3	engstirnig	880	1	!	1232	1	!	-1	0	0	0	0	0	0
2024-05-23	11:13:31	11:24:04	632321	6.6.1	4_exp_EVA_AWA_CON	49	A	B	Rpleas_acq	Same	Rpleas	1pleas	acq_US_pleas_nomask	acq45_nomask	5	11	400	0	300	300	0	0	503	50	1	0	kreativ	anregung	engagiert	träumen	sonnig	gütig	krank	ausrottung	engstirnig	töten	sterben	gierig	vertrauen	genießen	kuss	besonnen	vergnügt	gesittet	versagen	gemein	krise	bange	verbissen	geizig	1	blank2r.bmp	0	1	+	0	1	blank2r.bmp	500	1	CPLW	500	1	blank2r.bmp	880	2	anregung	880	1	!	1232	1	!	-1	0	0	0	0	0	0
2024-05-23	11:13:31	11:24:06	634506	6.6.1	4_exp_EVA_AWA_CON	49	A	B	Rpleas_acq	Same	Rpleas	1pleas	acq_US_unple_nomask	acq45_nomask	5	12	400	1	300	300	0	0	406	46	1	0	kreativ	anregung	engagiert	träumen	sonnig	gütig	krank	ausrottung	engstirnig	töten	sterben	gierig	vertrauen	genießen	kuss	besonnen	vergnügt	gesittet	versagen	gemein	krise	bange	verbissen	geizig	1	blank2r.bmp	0	1	+	0	1	blank2r.bmp	500	1	DHJF	500	1	blank2r.bmp	880	4	töten	880	1	!	1232	1	!	1307	0	0	0	0	0	0
2024-05-23	11:13:31	11:24:08	636738	6.6.1	4_exp_EVA_AWA_CON	49	A	B	Rpleas_acq	Same	Rpleas	1pleas	acq_US_pleas_nomask	acq45_nomask	5	13	400	1	300	300	0	0	456	50	1	0	kreativ	anregung	engagiert	träumen	sonnig	gütig	krank	ausrottung	engstirnig	töten	sterben	gierig	vertrauen	genießen	kuss	besonnen	vergnügt	gesittet	versagen	gemein	krise	bange	verbissen	geizig	1	blank2r.bmp	0	1	+	0	1	blank2r.bmp	500	1	CPLW	500	1	blank2r.bmp	880	5	sonnig	880	1	!	1232	1	!	1358	0	0	0	0	0	0
2024-05-23	11:13:31	11:24:11	639025	6.6.1	4_exp_EVA_AWA_CON	49	A	B	Rpleas_acq	Same	Rpleas	1pleas	acq_US_pleas_nomask	acq45_nomask	5	14	400	0	300	300	0	0	513	50	1	0	kreativ	anregung	engagiert	träumen	sonnig	gütig	krank	ausrottung	engstirnig	töten	sterben	gierig	vertrauen	genießen	kuss	besonnen	vergnügt	gesittet	versagen	gemein	krise	bange	verbissen	geizig	1	blank2r.bmp	0	1	+	0	1	blank2r.bmp	500	1	CPLW	500	1	blank2r.bmp	880	4	träumen	880	1	!	1232	1	!	-1	0	0	0	0	0	0
2024-05-23	11:13:31	11:24:13	641226	6.6.1	4_exp_EVA_AWA_CON	49	A	B	Rpleas_acq	Same	Rpleas	1pleas	acq_US_unple_nomask	acq45_nomask	5	15	400	1	300	300	0	0	422	46	1	0	kreativ	anregung	engagiert	träumen	sonnig	gütig	krank	ausrottung	engstirnig	töten	sterben	gierig	vertrauen	genießen	kuss	besonnen	vergnügt	gesittet	versagen	gemein	krise	bange	verbissen	geizig	1	blank2r.bmp	0	1	+	0	1	blank2r.bmp	500	1	DHJF	500	1	blank2r.bmp	880	3	engstirnig	880	1	!	1232	1	!	1323	0	0	0	0	0	0
2024-05-23	11:13:31	11:24:15	643505	6.6.1	4_exp_EVA_AWA_CON	49	A	B	Rpleas_acq	Same	Rpleas	1pleas	acq_US_unple_nomask	acq45_nomask	5	16	400	0	300	300	0	0	500	46	1	0	kreativ	anregung	engagiert	träumen	sonnig	gütig	krank	ausrottung	engstirnig	töten	sterben	gierig	vertrauen	genießen	kuss	besonnen	vergnügt	gesittet	versagen	gemein	krise	bange	verbissen	geizig	1	blank2r.bmp	0	1	+	0	1	blank2r.bmp	500	1	DHJF	500	1	blank2r.bmp	880	5	sterben	880	1	!	1233	1	!	-1	0	0	0	0	0	0
2024-05-23	11:13:31	11:24:18	645849	6.6.1	4_exp_EVA_AWA_CON	49	A	B	Rpleas_acq	Same	Rpleas	1pleas	acq_US_pleas_nomask	acq45_nomask	5	17	400	0	300	300	0	0	563	50	1	0	kreativ	anregung	engagiert	träumen	sonnig	gütig	krank	ausrottung	engstirnig	töten	sterben	gierig	vertrauen	genießen	kuss	besonnen	vergnügt	gesittet	versagen	gemein	krise	bange	verbissen	geizig	1	blank2r.bmp	0	1	+	0	1	blank2r.bmp	500	1	CPLW	500	1	blank2r.bmp	880	6	gütig	880	1	!	1232	1	!	-1	0	0	0	0	0	0
2024-05-23	11:13:31	11:24:20	648058	6.6.1	4_exp_EVA_AWA_CON	49	A	B	Rpleas_acq	Same	Rpleas	1pleas	acq_US_unple_nomask	acq45_nomask	5	18	400	1	300	300	0	0	429	46	1	0	kreativ	anregung	engagiert	träumen	sonnig	gütig	krank	ausrottung	engstirnig	töten	sterben	gierig	vertrauen	genießen	kuss	besonnen	vergnügt	gesittet	versagen	gemein	krise	bange	verbissen	geizig	1	blank2r.bmp	0	1	+	0	1	blank2r.bmp	500	1	DHJF	500	1	blank2r.bmp	880	2	ausrottung	880	1	!	1232	1	!	1331	0	0	0	0	0	0
2024-05-23	11:13:31	11:24:22	650337	6.6.1	4_exp_EVA_AWA_CON	49	A	B	Rpleas_acq	Same	Rpleas	1pleas	acq_US_pleas_nomask	acq45_nomask	5	19	400	0	300	300	0	0	498	50	1	0	kreativ	anregung	engagiert	träumen	sonnig	gütig	krank	ausrottung	engstirnig	töten	sterben	gierig	vertrauen	genießen	kuss	besonnen	vergnügt	gesittet	versagen	gemein	krise	bange	verbissen	geizig	1	blank2r.bmp	0	1	+	0	1	blank2r.bmp	500	1	CPLW	500	1	blank2r.bmp	880	1	kreativ	880	1	!	1232	1	!	-1	0	0	0	0	0	0
2024-05-23	11:13:31	11:24:24	652554	6.6.1	4_exp_EVA_AWA_CON	49	A	B	Rpleas_acq	Same	Rpleas	1pleas	acq_US_unple_nomask	acq45_nomask	5	20	400	1	300	300	0	0	442	46	1	0	kreativ	anregung	engagiert	träumen	sonnig	gütig	krank	ausrottung	engstirnig	töten	sterben	gierig	vertrauen	genießen	kuss	besonnen	vergnügt	gesittet	versagen	gemein	krise	bange	verbissen	geizig	1	blank2r.bmp	0	1	+	0	1	blank2r.bmp	500	1	DHJF	500	1	blank2r.bmp	880	1	krank	880	1	!	1232	1	!	1344	0	0	0	0	0	0
2024-05-23	11:13:31	11:24:27	654985	6.6.1	4_exp_EVA_AWA_CON	49	A	B	Rpleas_acq	Same	Rpleas	1pleas	acq_US_unple_nomask	acq45_nomask	5	21	400	0	300	300	0	0	653	46	1	0	kreativ	anregung	engagiert	träumen	sonnig	gütig	krank	ausrottung	engstirnig	töten	sterben	gierig	vertrauen	genießen	kuss	besonnen	vergnügt	gesittet	versagen	gemein	krise	bange	verbissen	geizig	1	blank2r.bmp	0	1	+	0	1	blank2r.bmp	500	1	DHJF	500	1	blank2r.bmp	880	6	gierig	880	1	!	1232	1	!	-1	0	0	0	0	0	0
2024-05-23	11:13:31	11:24:29	657226	6.6.1	4_exp_EVA_AWA_CON	49	A	B	Rpleas_acq	Same	Rpleas	1pleas	acq_US_unple_nomask	acq45_nomask	5	22	400	1	300	300	0	0	461	46	1	0	kreativ	anregung	engagiert	träumen	sonnig	gütig	krank	ausrottung	engstirnig	töten	sterben	gierig	vertrauen	genießen	kuss	besonnen	vergnügt	gesittet	versagen	gemein	krise	bange	verbissen	geizig	1	blank2r.bmp	0	1	+	0	1	blank2r.bmp	500	1	DHJF	500	1	blank2r.bmp	880	4	töten	880	1	!	1232	1	!	1363	0	0	0	0	0	0
2024-05-23	11:13:31	11:24:31	659513	6.6.1	4_exp_EVA_AWA_CON	49	A	B	Rpleas_acq	Same	Rpleas	1pleas	acq_US_pleas_nomask	acq45_nomask	5	23	400	0	300	300	0	0	508	50	1	0	kreativ	anregung	engagiert	träumen	sonnig	gütig	krank	ausrottung	engstirnig	töten	sterben	gierig	vertrauen	genießen	kuss	besonnen	vergnügt	gesittet	versagen	gemein	krise	bange	verbissen	geizig	1	blank2r.bmp	0	1	+	0	1	blank2r.bmp	500	1	CPLW	500	1	blank2r.bmp	880	3	engagiert	880	1	!	1233	1	!	-1	0	0	0	0	0	0
2024-05-23	11:13:31	11:24:34	661785	6.6.1	4_exp_EVA_AWA_CON	49	A	B	Rpleas_acq	Same	Rpleas	1pleas	acq_US_pleas_nomask	acq45_nomask	5	24	400	0	300	300	0	0	499	50	1	0	kreativ	anregung	engagiert	träumen	sonnig	gütig	krank	ausrottung	engstirnig	töten	sterben	gierig	vertrauen	genießen	kuss	besonnen	vergnügt	gesittet	versagen	gemein	krise	bange	verbissen	geizig	1	blank2r.bmp	0	1	+	0	1	blank2r.bmp	500	1	CPLW	500	1	blank2r.bmp	880	2	anregung	880	1	!	1233	1	!	-1	0	0	0	0	0	0
2024-05-23	11:13:31	11:24:36	664002	6.6.1	4_exp_EVA_AWA_CON	49	A	B	Rpleas_acq	Same	Rpleas	1pleas	acq_US_unple_nomask	acq45_nomask	5	25	400	1	300	300	0	0	443	46	1	0	kreativ	anregung	engagiert	träumen	sonnig	gütig	krank	ausrottung	engstirnig	töten	sterben	gierig	vertrauen	genießen	kuss	besonnen	vergnügt	gesittet	versagen	gemein	krise	bange	verbissen	geizig	1	blank2r.bmp	0	1	+	0	1	blank2r.bmp	500	1	DHJF	500	1	blank2r.bmp	880	5	sterben	880	1	!	1233	1	!	1345	0	0	0	0	0	0
2024-05-23	11:13:31	11:24:38	666234	6.6.1	4_exp_EVA_AWA_CON	49	A	B	Rpleas_acq	Same	Rpleas	1pleas	acq_US_pleas_nomask	acq45_nomask	5	26	400	1	300	300	0	0	454	50	1	0	kreativ	anregung	engagiert	träumen	sonnig	gütig	krank	ausrottung	engstirnig	töten	sterben	gierig	vertrauen	genießen	kuss	besonnen	vergnügt	gesittet	versagen	gemein	krise	bange	verbissen	geizig	1	blank2r.bmp	0	1	+	0	1	blank2r.bmp	500	1	CPLW	500	1	blank2r.bmp	880	3	engagiert	880	1	!	1232	1	!	1355	0	0	0	0	0	0
2024-05-23	11:13:31	11:24:40	668434	6.6.1	4_exp_EVA_AWA_CON	49	A	B	Rpleas_acq	Same	Rpleas	1pleas	acq_US_unple_nomask	acq45_nomask	5	27	400	1	300	300	0	0	422	46	1	0	kreativ	anregung	engagiert	träumen	sonnig	gütig	krank	ausrottung	engstirnig	töten	sterben	gierig	vertrauen	genießen	kuss	besonnen	vergnügt	gesittet	versagen	gemein	krise	bange	verbissen	geizig	1	blank2r.bmp	0	1	+	0	1	blank2r.bmp	500	1	DHJF	500	1	blank2r.bmp	880	2	ausrottung	880	1	!	1232	1	!	1324	0	0	0	0	0	0
2024-05-23	11:13:31	11:24:42	670683	6.6.1	4_exp_EVA_AWA_CON	49	A	B	Rpleas_acq	Same	Rpleas	1pleas	acq_US_pleas_nomask	acq45_nomask	5	28	400	1	300	300	0	0	469	50	1	0	kreativ	anregung	engagiert	träumen	sonnig	gütig	krank	ausrottung	engstirnig	töten	sterben	gierig	vertrauen	genießen	kuss	besonnen	vergnügt	gesittet	versagen	gemein	krise	bange	verbissen	geizig	1	blank2r.bmp	0	1	+	0	1	blank2r.bmp	500	1	CPLW	500	1	blank2r.bmp	880	1	kreativ	880	1	!	1232	1	!	1370	0	0	0	0	0	0
2024-05-23	11:13:31	11:24:45	673057	6.6.1	4_exp_EVA_AWA_CON	49	A	B	Rpleas_acq	Same	Rpleas	1pleas	acq_US_unple_nomask	acq45_nomask	5	29	400	0	300	300	0	0	593	46	1	0	kreativ	anregung	engagiert	träumen	sonnig	gütig	krank	ausrottung	engstirnig	töten	sterben	gierig	vertrauen	genießen	kuss	besonnen	vergnügt	gesittet	versagen	gemein	krise	bange	verbissen	geizig	1	blank2r.bmp	0	1	+	0	1	blank2r.bmp	500	1	DHJF	500	1	blank2r.bmp	880	3	engstirnig	880	1	!	1232	1	!	-1	0	0	0	0	0	0
2024-05-23	11:13:31	11:24:47	675329	6.6.1	4_exp_EVA_AWA_CON	49	A	B	Rpleas_acq	Same	Rpleas	1pleas	acq_US_unple_nomask	acq45_nomask	5	30	400	0	300	300	0	0	494	50	0	0	kreativ	anregung	engagiert	träumen	sonnig	gütig	krank	ausrottung	engstirnig	töten	sterben	gierig	vertrauen	genießen	kuss	besonnen	vergnügt	gesittet	versagen	gemein	krise	bange	verbissen	geizig	1	blank2r.bmp	0	1	+	0	1	blank2r.bmp	500	1	DHJF	500	1	blank2r.bmp	880	4	töten	880	1	!	1232	1	!	-1	0	0	0	0	0	0
2024-05-23	11:13:31	11:24:49	677608	6.6.1	4_exp_EVA_AWA_CON	49	A	B	Rpleas_acq	Same	Rpleas	1pleas	acq_US_pleas_nomask	acq45_nomask	5	31	400	0	300	300	0	0	502	50	1	0	kreativ	anregung	engagiert	träumen	sonnig	gütig	krank	ausrottung	engstirnig	töten	sterben	gierig	vertrauen	genießen	kuss	besonnen	vergnügt	gesittet	versagen	gemein	krise	bange	verbissen	geizig	1	blank2r.bmp	0	1	+	0	1	blank2r.bmp	500	1	CPLW	500	1	blank2r.bmp	880	4	träumen	880	1	!	1232	1	!	-1	0	0	0	0	0	0
2024-05-23	11:13:31	11:24:52	679850	6.6.1	4_exp_EVA_AWA_CON	49	A	B	Rpleas_acq	Same	Rpleas	1pleas	acq_US_pleas_nomask	acq45_nomask	5	32	400	1	300	300	0	0	461	50	1	0	kreativ	anregung	engagiert	träumen	sonnig	gütig	krank	ausrottung	engstirnig	töten	sterben	gierig	vertrauen	genießen	kuss	besonnen	vergnügt	gesittet	versagen	gemein	krise	bange	verbissen	geizig	1	blank2r.bmp	0	1	+	0	1	blank2r.bmp	500	1	CPLW	500	1	blank2r.bmp	880	5	sonnig	880	1	!	1232	1	!	1362	0	0	0	0	0	0
2024-05-23	11:13:31	11:24:54	682082	6.6.1	4_exp_EVA_AWA_CON	49	A	B	Rpleas_acq	Same	Rpleas	1pleas	acq_US_unple_nomask	acq45_nomask	5	33	400	1	300	300	0	0	451	46	1	0	kreativ	anregung	engagiert	träumen	sonnig	gütig	krank	ausrottung	engstirnig	töten	sterben	gierig	vertrauen	genießen	kuss	besonnen	vergnügt	gesittet	versagen	gemein	krise	bange	verbissen	geizig	1	blank2r.bmp	0	1	+	0	1	blank2r.bmp	500	1	DHJF	500	1	blank2r.bmp	880	6	gierig	880	1	!	1233	1	!	1353	0	0	0	0	0	0
2024-05-23	11:13:31	11:24:56	684657	6.6.1	4_exp_EVA_AWA_CON	49	A	B	Rpleas_acq	Same	Rpleas	1pleas	acq_US_pleas_nomask	acq45_nomask	5	34	400	0	300	300	0	0	796	50	1	0	kreativ	anregung	engagiert	träumen	sonnig	gütig	krank	ausrottung	engstirnig	töten	sterben	gierig	vertrauen	genießen	kuss	besonnen	vergnügt	gesittet	versagen	gemein	krise	bange	verbissen	geizig	1	blank2r.bmp	0	1	+	0	1	blank2r.bmp	500	1	CPLW	500	1	blank2r.bmp	880	2	anregung	880	1	!	1232	1	!	-1	0	0	0	0	0	0
2024-05-23	11:13:31	11:24:59	686850	6.6.1	4_exp_EVA_AWA_CON	49	A	B	Rpleas_acq	Same	Rpleas	1pleas	acq_US_pleas_nomask	acq45_nomask	5	35	400	1	300	300	0	0	416	46	0	0	kreativ	anregung	engagiert	träumen	sonnig	gütig	krank	ausrottung	engstirnig	töten	sterben	gierig	vertrauen	genießen	kuss	besonnen	vergnügt	gesittet	versagen	gemein	krise	bange	verbissen	geizig	1	blank2r.bmp	0	1	+	0	1	blank2r.bmp	500	1	CPLW	500	1	blank2r.bmp	880	6	gütig	880	1	!	1232	1	!	1318	0	0	0	0	0	0
2024-05-23	11:13:31	11:25:01	689137	6.6.1	4_exp_EVA_AWA_CON	49	A	B	Rpleas_acq	Same	Rpleas	1pleas	acq_US_unple_nomask	acq45_nomask	5	36	400	0	300	300	0	0	513	46	1	0	kreativ	anregung	engagiert	träumen	sonnig	gütig	krank	ausrottung	engstirnig	töten	sterben	gierig	vertrauen	genießen	kuss	besonnen	vergnügt	gesittet	versagen	gemein	krise	bange	verbissen	geizig	1	blank2r.bmp	0	1	+	0	1	blank2r.bmp	500	1	DHJF	500	1	blank2r.bmp	880	1	krank	880	1	!	1232	1	!	-1	0	0	0	0	0	0
2024-05-23	11:13:31	11:25:20	708157	6.6.1	4_exp_EVA_AWA_CON	49	A	B	Rpleas_acq	Same	Rpleas	1pleas	EvalRating_firsttwo	EvalRating_firsttwo	6	1	0	0	300	300	0	0	4725	line	0	24,21875pct	kreativ	anregung	engagiert	träumen	sonnig	gütig	krank	ausrottung	engstirnig	töten	sterben	gierig	vertrauen	genießen	kuss	besonnen	vergnügt	gesittet	versagen	gemein	krise	bange	verbissen	geizig	1		-7	1	Wie angenehm oder unangenehm finden Sie die  Buchstabenkette WDLH?	-7	1		-7	1		-7	1		-7	1	Unangenehm	-7	1	Angenehm	-7	0	0	0	0	0	0	0	0	0
2024-05-23	11:13:31	11:25:25	713429	6.6.1	4_exp_EVA_AWA_CON	49	A	B	Rpleas_acq	Same	Rpleas	1pleas	EvalRating_lastfour	EvalRating_lastfour	7	1	0	0	300	300	0	0	2892	line	0	-26,8229166666666571928pct	kreativ	anregung	engagiert	träumen	sonnig	gütig	krank	ausrottung	engstirnig	töten	sterben	gierig	vertrauen	genießen	kuss	besonnen	vergnügt	gesittet	versagen	gemein	krise	bange	verbissen	geizig	1		-7	1	Wie angenehm oder unangenehm finden Sie die  Buchstabenkette CPLW?	-7	1		-7	1		-7	1		-7	1	Unangenehm	-7	1	Angenehm	-7	0	0	0	0	0	0	0	0	0
2024-05-23	11:13:31	11:25:28	715803	6.6.1	4_exp_EVA_AWA_CON	49	A	B	Rpleas_acq	Same	Rpleas	1pleas	blank_screen	EvalRating_lastfour	7	3	0	0	300	300	0	0	0	0	0	-26,8229166666666571928pct	kreativ	anregung	engagiert	träumen	sonnig	gütig	krank	ausrottung	engstirnig	töten	sterben	gierig	vertrauen	genießen	kuss	besonnen	vergnügt	gesittet	versagen	gemein	krise	bange	verbissen	geizig	1		-8	0	0	0	0	0	0	0	0	0	0	0	0	0	0	0	0	0	0	0	0	0	0	0	0	0	0	0
2024-05-23	11:13:31	11:25:30	717806	6.6.1	4_exp_EVA_AWA_CON	49	A	B	Rpleas_acq	Same	Rpleas	1pleas	EvalRating_lastfour	EvalRating_lastfour	7	4	0	0	300	300	0	0	1414	line	0	-31,1197916666666571928pct	kreativ	anregung	engagiert	träumen	sonnig	gütig	krank	ausrottung	engstirnig	töten	sterben	gierig	vertrauen	genießen	kuss	besonnen	vergnügt	gesittet	versagen	gemein	krise	bange	verbissen	geizig	1		-8	3	Wie angenehm oder unangenehm finden Sie die  Buchstabenkette FCJP?	-8	1		-8	1		-8	1		-8	1	Unangenehm	-8	1	Angenehm	-8	0	0	0	0	0	0	0	0	0
2024-05-23	11:13:31	11:25:32	720175	6.6.1	4_exp_EVA_AWA_CON	49	A	B	Rpleas_acq	Same	Rpleas	1pleas	blank_screen	EvalRating_lastfour	7	6	0	0	300	300	0	0	0	0	0	-31,1197916666666571928pct	kreativ	anregung	engagiert	träumen	sonnig	gütig	krank	ausrottung	engstirnig	töten	sterben	gierig	vertrauen	genießen	kuss	besonnen	vergnügt	gesittet	versagen	gemein	krise	bange	verbissen	geizig	1		-8	0	0	0	0	0	0	0	0	0	0	0	0	0	0	0	0	0	0	0	0	0	0	0	0	0	0	0
2024-05-23	11:13:31	11:25:34	722645	6.6.1	4_exp_EVA_AWA_CON	49	A	B	Rpleas_acq	Same	Rpleas	1pleas	EvalRating_lastfour	EvalRating_lastfour	7	7	0	0	300	300	0	0	1881	line	0	17,3177083333333428072pct	kreativ	anregung	engagiert	träumen	sonnig	gütig	krank	ausrottung	engstirnig	töten	sterben	gierig	vertrauen	genießen	kuss	besonnen	vergnügt	gesittet	versagen	gemein	krise	bange	verbissen	geizig	1		-8	2	Wie angenehm oder unangenehm finden Sie die  Buchstabenkette DHJF?	-8	1		-8	1		-8	1		-8	1	Unangenehm	-8	1	Angenehm	-8	0	0	0	0	0	0	0	0	0
2024-05-23	11:13:31	11:26:16	764402	6.6.1	4_exp_EVA_AWA_CON	49	A	B	Rpleas_acq	Same	Rpleas	1pleas	conawa_CS2_US1	conawa1_nomask	8	1	0	0	300	300	0	0	10652	gemein	1	17,3177083333333428072pct	kreativ	anregung	engagiert	träumen	sonnig	gütig	krank	ausrottung	engstirnig	töten	sterben	gierig	vertrauen	genießen	kuss	besonnen	vergnügt	gesittet	versagen	gemein	krise	bange	verbissen	geizig	0	0	0	0	0	0	0	0	0	0	0	0	0	0	0	0	0	0	0	0	0	0	0	0	0	0	0	0	0	0
2024-05-23	11:13:31	11:26:16	764403	6.6.1	4_exp_EVA_AWA_CON	49	A	B	Rpleas_acq	Same	Rpleas	1pleas	conawa_CS2_US1_confidence	conawa1_nomask	8	1	0	0	300	300	0	0	10652	probably	1	17,3177083333333428072pct	kreativ	anregung	engagiert	träumen	sonnig	gütig	krank	ausrottung	engstirnig	töten	sterben	gierig	vertrauen	genießen	kuss	besonnen	vergnügt	gesittet	versagen	gemein	krise	bange	verbissen	geizig	0	0	0	0	0	0	0	0	0	0	0	0	0	0	0	0	0	0	0	0	0	0	0	0	0	0	0	0	0	0
2024-05-23	11:13:31	11:26:25	773478	6.6.1	4_exp_EVA_AWA_CON	49	A	B	Rpleas_acq	Same	Rpleas	1pleas	conawa_CS1_US5	conawa1_nomask	8	2	0	0	300	300	0	0	8458	verbissen	1	17,3177083333333428072pct	kreativ	anregung	engagiert	träumen	sonnig	gütig	krank	ausrottung	engstirnig	töten	sterben	gierig	vertrauen	genießen	kuss	besonnen	vergnügt	gesittet	versagen	gemein	krise	bange	verbissen	geizig	0	0	0	0	0	0	0	0	0	0	0	0	0	0	0	0	0	0	0	0	0	0	0	0	0	0	0	0	0	0
2024-05-23	11:13:31	11:26:25	773479	6.6.1	4_exp_EVA_AWA_CON	49	A	B	Rpleas_acq	Same	Rpleas	1pleas	conawa_CS1_US5_confidence	conawa1_nomask	8	2	0	0	300	300	0	0	8458	probably	1	17,3177083333333428072pct	kreativ	anregung	engagiert	träumen	sonnig	gütig	krank	ausrottung	engstirnig	töten	sterben	gierig	vertrauen	genießen	kuss	besonnen	vergnügt	gesittet	versagen	gemein	krise	bange	verbissen	geizig	0	0	0	0	0	0	0	0	0	0	0	0	0	0	0	0	0	0	0	0	0	0	0	0	0	0	0	0	0	0
2024-05-23	11:13:31	11:26:35	782783	6.6.1	4_exp_EVA_AWA_CON	49	A	B	Rpleas_acq	Same	Rpleas	1pleas	conawa_CS2_US3	conawa1_nomask	8	3	0	0	300	300	0	0	8689	engagiert	1	17,3177083333333428072pct	kreativ	anregung	engagiert	träumen	sonnig	gütig	krank	ausrottung	engstirnig	töten	sterben	gierig	vertrauen	genießen	kuss	besonnen	vergnügt	gesittet	versagen	gemein	krise	bange	verbissen	geizig	0	0	0	0	0	0	0	0	0	0	0	0	0	0	0	0	0	0	0	0	0	0	0	0	0	0	0	0	0	0
2024-05-23	11:13:31	11:26:35	782784	6.6.1	4_exp_EVA_AWA_CON	49	A	B	Rpleas_acq	Same	Rpleas	1pleas	conawa_CS2_US3_confidence	conawa1_nomask	8	3	0	0	300	300	0	0	8689	probably	1	17,3177083333333428072pct	kreativ	anregung	engagiert	träumen	sonnig	gütig	krank	ausrottung	engstirnig	töten	sterben	gierig	vertrauen	genießen	kuss	besonnen	vergnügt	gesittet	versagen	gemein	krise	bange	verbissen	geizig	0	0	0	0	0	0	0	0	0	0	0	0	0	0	0	0	0	0	0	0	0	0	0	0	0	0	0	0	0	0
2024-05-23	11:13:31	11:26:46	794301	6.6.1	4_exp_EVA_AWA_CON	49	A	B	Rpleas_acq	Same	Rpleas	1pleas	conawa_CS2_US4	conawa1_nomask	8	4	0	0	300	300	0	0	10903	vergnügt	1	17,3177083333333428072pct	kreativ	anregung	engagiert	träumen	sonnig	gütig	krank	ausrottung	engstirnig	töten	sterben	gierig	vertrauen	genießen	kuss	besonnen	vergnügt	gesittet	versagen	gemein	krise	bange	verbissen	geizig	0	0	0	0	0	0	0	0	0	0	0	0	0	0	0	0	0	0	0	0	0	0	0	0	0	0	0	0	0	0
2024-05-23	11:13:31	11:26:46	794302	6.6.1	4_exp_EVA_AWA_CON	49	A	B	Rpleas_acq	Same	Rpleas	1pleas	conawa_CS2_US4_confidence	conawa1_nomask	8	4	0	0	300	300	0	0	10903	guess	1	17,3177083333333428072pct	kreativ	anregung	engagiert	träumen	sonnig	gütig	krank	ausrottung	engstirnig	töten	sterben	gierig	vertrauen	genießen	kuss	besonnen	vergnügt	gesittet	versagen	gemein	krise	bange	verbissen	geizig	0	0	0	0	0	0	0	0	0	0	0	0	0	0	0	0	0	0	0	0	0	0	0	0	0	0	0	0	0	0
2024-05-23	11:13:31	11:26:58	806349	6.6.1	4_exp_EVA_AWA_CON	49	A	B	Rpleas_acq	Same	Rpleas	1pleas	conawa_CS2_US6	conawa1_nomask	8	5	0	0	300	300	0	0	11433	gütig	1	17,3177083333333428072pct	kreativ	anregung	engagiert	träumen	sonnig	gütig	krank	ausrottung	engstirnig	töten	sterben	gierig	vertrauen	genießen	kuss	besonnen	vergnügt	gesittet	versagen	gemein	krise	bange	verbissen	geizig	0	0	0	0	0	0	0	0	0	0	0	0	0	0	0	0	0	0	0	0	0	0	0	0	0	0	0	0	0	0
2024-05-23	11:13:31	11:26:58	806350	6.6.1	4_exp_EVA_AWA_CON	49	A	B	Rpleas_acq	Same	Rpleas	1pleas	conawa_CS2_US6_confidence	conawa1_nomask	8	5	0	0	300	300	0	0	11433	probably	1	17,3177083333333428072pct	kreativ	anregung	engagiert	träumen	sonnig	gütig	krank	ausrottung	engstirnig	töten	sterben	gierig	vertrauen	genießen	kuss	besonnen	vergnügt	gesittet	versagen	gemein	krise	bange	verbissen	geizig	0	0	0	0	0	0	0	0	0	0	0	0	0	0	0	0	0	0	0	0	0	0	0	0	0	0	0	0	0	0
2024-05-23	11:13:31	11:27:04	812603	6.6.1	4_exp_EVA_AWA_CON	49	A	B	Rpleas_acq	Same	Rpleas	1pleas	conawa_CS2_US2	conawa1_nomask	8	6	0	0	300	300	0	0	5633	anregung	1	17,3177083333333428072pct	kreativ	anregung	engagiert	träumen	sonnig	gütig	krank	ausrottung	engstirnig	töten	sterben	gierig	vertrauen	genießen	kuss	besonnen	vergnügt	gesittet	versagen	gemein	krise	bange	verbissen	geizig	0	0	0	0	0	0	0	0	0	0	0	0	0	0	0	0	0	0	0	0	0	0	0	0	0	0	0	0	0	0
2024-05-23	11:13:31	11:27:04	812604	6.6.1	4_exp_EVA_AWA_CON	49	A	B	Rpleas_acq	Same	Rpleas	1pleas	conawa_CS2_US2_confidence	conawa1_nomask	8	6	0	0	300	300	0	0	5633	probably	1	17,3177083333333428072pct	kreativ	anregung	engagiert	träumen	sonnig	gütig	krank	ausrottung	engstirnig	töten	sterben	gierig	vertrauen	genießen	kuss	besonnen	vergnügt	gesittet	versagen	gemein	krise	bange	verbissen	geizig	0	0	0	0	0	0	0	0	0	0	0	0	0	0	0	0	0	0	0	0	0	0	0	0	0	0	0	0	0	0
2024-05-23	11:13:31	11:27:09	817286	6.6.1	4_exp_EVA_AWA_CON	49	A	B	Rpleas_acq	Same	Rpleas	1pleas	conawa_CS1_US4	conawa1_nomask	8	7	0	0	300	300	0	0	4067	bange	1	17,3177083333333428072pct	kreativ	anregung	engagiert	träumen	sonnig	gütig	krank	ausrottung	engstirnig	töten	sterben	gierig	vertrauen	genießen	kuss	besonnen	vergnügt	gesittet	versagen	gemein	krise	bange	verbissen	geizig	0	0	0	0	0	0	0	0	0	0	0	0	0	0	0	0	0	0	0	0	0	0	0	0	0	0	0	0	0	0
2024-05-23	11:13:31	11:27:09	817286	6.6.1	4_exp_EVA_AWA_CON	49	A	B	Rpleas_acq	Same	Rpleas	1pleas	conawa_CS1_US4_confidence	conawa1_nomask	8	7	0	0	300	300	0	0	4067	probably	1	17,3177083333333428072pct	kreativ	anregung	engagiert	träumen	sonnig	gütig	krank	ausrottung	engstirnig	töten	sterben	gierig	vertrauen	genießen	kuss	besonnen	vergnügt	gesittet	versagen	gemein	krise	bange	verbissen	geizig	0	0	0	0	0	0	0	0	0	0	0	0	0	0	0	0	0	0	0	0	0	0	0	0	0	0	0	0	0	0
2024-05-23	11:13:31	11:27:14	821899	6.6.1	4_exp_EVA_AWA_CON	49	A	B	Rpleas_acq	Same	Rpleas	1pleas	conawa_CS1_US3	conawa1_nomask	8	8	0	0	300	300	0	0	4000	engstirnig	1	17,3177083333333428072pct	kreativ	anregung	engagiert	träumen	sonnig	gütig	krank	ausrottung	engstirnig	töten	sterben	gierig	vertrauen	genießen	kuss	besonnen	vergnügt	gesittet	versagen	gemein	krise	bange	verbissen	geizig	0	0	0	0	0	0	0	0	0	0	0	0	0	0	0	0	0	0	0	0	0	0	0	0	0	0	0	0	0	0
2024-05-23	11:13:31	11:27:14	821900	6.6.1	4_exp_EVA_AWA_CON	49	A	B	Rpleas_acq	Same	Rpleas	1pleas	conawa_CS1_US3_confidence	conawa1_nomask	8	8	0	0	300	300	0	0	4000	guess	1	17,3177083333333428072pct	kreativ	anregung	engagiert	träumen	sonnig	gütig	krank	ausrottung	engstirnig	töten	sterben	gierig	vertrauen	genießen	kuss	besonnen	vergnügt	gesittet	versagen	gemein	krise	bange	verbissen	geizig	0	0	0	0	0	0	0	0	0	0	0	0	0	0	0	0	0	0	0	0	0	0	0	0	0	0	0	0	0	0
2024-05-23	11:13:31	11:27:20	828443	6.6.1	4_exp_EVA_AWA_CON	49	A	B	Rpleas_acq	Same	Rpleas	1pleas	conawa_CS1_US6	conawa1_nomask	8	9	0	0	300	300	0	0	5933	gierig	1	17,3177083333333428072pct	kreativ	anregung	engagiert	träumen	sonnig	gütig	krank	ausrottung	engstirnig	töten	sterben	gierig	vertrauen	genießen	kuss	besonnen	vergnügt	gesittet	versagen	gemein	krise	bange	verbissen	geizig	0	0	0	0	0	0	0	0	0	0	0	0	0	0	0	0	0	0	0	0	0	0	0	0	0	0	0	0	0	0
2024-05-23	11:13:31	11:27:20	828444	6.6.1	4_exp_EVA_AWA_CON	49	A	B	Rpleas_acq	Same	Rpleas	1pleas	conawa_CS1_US6_confidence	conawa1_nomask	8	9	0	0	300	300	0	0	5933	probably	1	17,3177083333333428072pct	kreativ	anregung	engagiert	träumen	sonnig	gütig	krank	ausrottung	engstirnig	töten	sterben	gierig	vertrauen	genießen	kuss	besonnen	vergnügt	gesittet	versagen	gemein	krise	bange	verbissen	geizig	0	0	0	0	0	0	0	0	0	0	0	0	0	0	0	0	0	0	0	0	0	0	0	0	0	0	0	0	0	0
2024-05-23	11:13:31	11:27:26	834156	6.6.1	4_exp_EVA_AWA_CON	49	A	B	Rpleas_acq	Same	Rpleas	1pleas	conawa_CS1_US2	conawa1_nomask	8	10	0	0	300	300	0	0	5101	gemein	1	17,3177083333333428072pct	kreativ	anregung	engagiert	träumen	sonnig	gütig	krank	ausrottung	engstirnig	töten	sterben	gierig	vertrauen	genießen	kuss	besonnen	vergnügt	gesittet	versagen	gemein	krise	bange	verbissen	geizig	0	0	0	0	0	0	0	0	0	0	0	0	0	0	0	0	0	0	0	0	0	0	0	0	0	0	0	0	0	0
2024-05-23	11:13:31	11:27:26	834157	6.6.1	4_exp_EVA_AWA_CON	49	A	B	Rpleas_acq	Same	Rpleas	1pleas	conawa_CS1_US2_confidence	conawa1_nomask	8	10	0	0	300	300	0	0	5101	probably	1	17,3177083333333428072pct	kreativ	anregung	engagiert	träumen	sonnig	gütig	krank	ausrottung	engstirnig	töten	sterben	gierig	vertrauen	genießen	kuss	besonnen	vergnügt	gesittet	versagen	gemein	krise	bange	verbissen	geizig	0	0	0	0	0	0	0	0	0	0	0	0	0	0	0	0	0	0	0	0	0	0	0	0	0	0	0	0	0	0
2024-05-23	11:13:31	11:27:32	839940	6.6.1	4_exp_EVA_AWA_CON	49	A	B	Rpleas_acq	Same	Rpleas	1pleas	conawa_CS2_US5	conawa1_nomask	8	11	0	0	300	300	0	0	5169	gesittet	1	17,3177083333333428072pct	kreativ	anregung	engagiert	träumen	sonnig	gütig	krank	ausrottung	engstirnig	töten	sterben	gierig	vertrauen	genießen	kuss	besonnen	vergnügt	gesittet	versagen	gemein	krise	bange	verbissen	geizig	0	0	0	0	0	0	0	0	0	0	0	0	0	0	0	0	0	0	0	0	0	0	0	0	0	0	0	0	0	0
2024-05-23	11:13:31	11:27:32	839941	6.6.1	4_exp_EVA_AWA_CON	49	A	B	Rpleas_acq	Same	Rpleas	1pleas	conawa_CS2_US5_confidence	conawa1_nomask	8	11	0	0	300	300	0	0	5169	probably	1	17,3177083333333428072pct	kreativ	anregung	engagiert	träumen	sonnig	gütig	krank	ausrottung	engstirnig	töten	sterben	gierig	vertrauen	genießen	kuss	besonnen	vergnügt	gesittet	versagen	gemein	krise	bange	verbissen	geizig	0	0	0	0	0	0	0	0	0	0	0	0	0	0	0	0	0	0	0	0	0	0	0	0	0	0	0	0	0	0
2024-05-23	11:13:31	11:27:40	847805	6.6.1	4_exp_EVA_AWA_CON	49	A	B	Rpleas_acq	Same	Rpleas	1pleas	conawa_CS1_US1	conawa1_nomask	8	12	0	0	300	300	0	0	7252	krank	1	17,3177083333333428072pct	kreativ	anregung	engagiert	träumen	sonnig	gütig	krank	ausrottung	engstirnig	töten	sterben	gierig	vertrauen	genießen	kuss	besonnen	vergnügt	gesittet	versagen	gemein	krise	bange	verbissen	geizig	0	0	0	0	0	0	0	0	0	0	0	0	0	0	0	0	0	0	0	0	0	0	0	0	0	0	0	0	0	0
2024-05-23	11:13:31	11:27:40	847806	6.6.1	4_exp_EVA_AWA_CON	49	A	B	Rpleas_acq	Same	Rpleas	1pleas	conawa_CS1_US1_confidence	conawa1_nomask	8	12	0	0	300	300	0	0	7252	probably	1	17,3177083333333428072pct	kreativ	anregung	engagiert	träumen	sonnig	gütig	krank	ausrottung	engstirnig	töten	sterben	gierig	vertrauen	genießen	kuss	besonnen	vergnügt	gesittet	versagen	gemein	krise	bange	verbissen	geizig	0	0	0	0	0	0	0	0	0	0	0	0	0	0	0	0	0	0	0	0	0	0	0	0	0	0	0	0	0	0
2024-05-23	11:13:31	11:28:35	903601	6.6.1	4_exp_EVA_AWA_CON	49	A	B	Rpleas_acq	Same	Rpleas	1pleas	cond_US_pleas_123_nomask_CS1	condtest_nomask_1	11	1	400	0	300	300	0	0	589	50	1	17,3177083333333428072pct	kreativ	anregung	engagiert	träumen	sonnig	gütig	krank	ausrottung	engstirnig	töten	sterben	gierig	vertrauen	genießen	kuss	besonnen	vergnügt	gesittet	versagen	gemein	krise	bange	verbissen	geizig	1	blank2r.bmp	0	1	+	0	1	blank2r.bmp	500	1	CPLW	500	1	blank2r.bmp	880	3	engagiert	880	1	!	1232	1	!	-1	0	0	0	0	0	0
