subject_nr,block,trialnr,trial_target,trial_prime,prime_color,prime_role,prime_us,prime_relation,correct_response,target_valence,prime_valence,color_counter,correct_first_response,response_first_response,response_time_first_response,fixation_show,prime_show,target_show
48,first,0,schön,IAT_purple1.bmp,purple,starting_scream,scream,starting,m,positive,negative,ES_green,1,m,536,1443478,1443983,1444187
48,first,1,lustig,IAT_yellow1.bmp,yellow,starting_melody,melody,starting,m,positive,positive,ES_green,1,m,449,1445800,1446304,1446508
48,first,2,geizig,IAT_yellow4.bmp,yellow,starting_melody,melody,starting,c,negative,positive,ES_green,1,c,537,1448033,1448538,1448742
48,first,3,gerecht,IAT_yellow3.bmp,yellow,starting_melody,melody,starting,m,positive,positive,ES_green,1,m,522,1450360,1450865,1451069
48,first,4,lästig,IAT_yellow1.bmp,yellow,starting_melody,melody,starting,c,negative,positive,ES_green,1,c,425,1452666,1453170,1453374
48,first,5,falsch,IAT_green4.bmp,green,ending_scream,scream,ending,c,negative,positive,ES_green,0,m,520,1454894,1455398,1455603
48,first,6,sonnig,IAT_green1.bmp,green,ending_scream,scream,ending,m,positive,positive,ES_green,1,m,522,1457698,1458202,1458406
48,first,7,teuer,IAT_green4.bmp,green,ending_scream,scream,ending,c,negative,positive,ES_green,1,c,612,1460001,1460505,1460709
48,first,8,heiter,IAT_red3.bmp,red,ending_melody,melody,ending,m,positive,negative,ES_green,1,m,525,1462396,1462900,1463104
48,first,9,gesund,IAT_green1.bmp,green,ending_scream,scream,ending,m,positive,positive,ES_green,1,m,604,1464703,1465207,1465411
48,first,10,heiter,IAT_purple3.bmp,purple,starting_scream,scream,starting,m,positive,negative,ES_green,0,c,587,1467118,1467622,1467826
48,first,11,schön,IAT_purple4.bmp,purple,starting_scream,scream,starting,m,positive,negative,ES_green,1,m,474,1469987,1470492,1470696
48,first,12,sozial,IAT_yellow3.bmp,yellow,starting_melody,melody,starting,m,positive,positive,ES_green,1,m,621,1472243,1472748,1472953
48,first,13,human,IAT_purple2.bmp,purple,starting_scream,scream,starting,m,positive,negative,ES_green,1,m,492,1474649,1475153,1475357
48,first,14,sozial,IAT_purple1.bmp,purple,starting_scream,scream,starting,m,positive,negative,ES_green,1,m,448,1476924,1477428,1477633
48,first,15,brutal,IAT_red2.bmp,red,ending_melody,melody,ending,c,negative,negative,ES_green,1,c,548,1479180,1479684,1479888
48,first,16,sonnig,IAT_green1.bmp,green,ending_scream,scream,ending,m,positive,positive,ES_green,1,m,651,1481509,1482014,1482218
48,first,17,krank,IAT_yellow3.bmp,yellow,starting_melody,melody,starting,c,negative,positive,ES_green,1,c,497,1483944,1484448,1484652
48,first,18,gierig,IAT_purple2.bmp,purple,starting_scream,scream,starting,c,negative,negative,ES_green,0,m,407,1486224,1486728,1486932
48,first,19,sanft,IAT_green3.bmp,green,ending_scream,scream,ending,m,positive,positive,ES_green,1,m,563,1488914,1489418,1489623
48,first,20,gerecht,IAT_yellow4.bmp,yellow,starting_melody,melody,starting,m,positive,positive,ES_green,1,m,531,1491260,1491765,1491969
48,first,21,ehrlich,IAT_green3.bmp,green,ending_scream,scream,ending,m,positive,positive,ES_green,1,m,617,1493575,1494080,1494284
48,first,22,gesund,IAT_green4.bmp,green,ending_scream,scream,ending,m,positive,positive,ES_green,1,m,600,1495975,1496479,1496683
48,first,23,feige,IAT_red2.bmp,red,ending_melody,melody,ending,c,negative,negative,ES_green,1,c,605,1498357,1498861,1499065
48,first,24,kaputt,IAT_red1.bmp,red,ending_melody,melody,ending,c,negative,negative,ES_green,1,c,645,1500743,1501248,1501452
48,first,25,streng,IAT_green1.bmp,green,ending_scream,scream,ending,c,negative,positive,ES_green,1,c,587,1503170,1503674,1503878
48,first,26,falsch,IAT_purple4.bmp,purple,starting_scream,scream,starting,c,negative,negative,ES_green,1,c,469,1505540,1506044,1506248
48,first,27,geizig,IAT_purple1.bmp,purple,starting_scream,scream,starting,c,negative,negative,ES_green,1,c,549,1507791,1508295,1508499
48,first,28,human,IAT_purple1.bmp,purple,starting_scream,scream,starting,m,positive,negative,ES_green,1,m,493,1510123,1510627,1510831
48,first,29,teuer,IAT_purple3.bmp,purple,starting_scream,scream,starting,c,negative,negative,ES_green,1,c,739,1512397,1512901,1513105
48,first,30,sanft,IAT_purple1.bmp,purple,starting_scream,scream,starting,m,positive,negative,ES_green,1,m,614,1514918,1515423,1515628
48,first,31,einsam,IAT_green2.bmp,green,ending_scream,scream,ending,c,negative,positive,ES_green,1,c,692,1517315,1517820,1518025
48,first,32,teuer,IAT_purple4.bmp,purple,starting_scream,scream,starting,c,negative,negative,ES_green,1,c,733,1519790,1520295,1520499
48,first,33,brutal,IAT_yellow3.bmp,yellow,starting_melody,melody,starting,c,negative,positive,ES_green,1,c,484,1522307,1522812,1523016
48,first,34,lustig,IAT_green2.bmp,green,ending_scream,scream,ending,m,positive,positive,ES_green,1,m,555,1524574,1525079,1525284
48,first,35,sonnig,IAT_green3.bmp,green,ending_scream,scream,ending,m,positive,positive,ES_green,1,m,498,1526913,1527417,1527621
48,first,36,streng,IAT_green3.bmp,green,ending_scream,scream,ending,c,negative,positive,ES_green,1,c,500,1529194,1529698,1529902
48,first,37,geizig,IAT_purple3.bmp,purple,starting_scream,scream,starting,c,negative,negative,ES_green,1,c,584,1531476,1531980,1532185
48,first,38,ehrlich,IAT_green3.bmp,green,ending_scream,scream,ending,m,positive,positive,ES_green,1,m,613,1533843,1534348,1534552
48,first,39,gierig,IAT_purple2.bmp,purple,starting_scream,scream,starting,c,negative,negative,ES_green,1,c,469,1536239,1536744,1536948
48,first,40,munter,IAT_yellow1.bmp,yellow,starting_melody,melody,starting,m,positive,positive,ES_green,1,m,653,1538493,1538997,1539202
48,first,41,heiter,IAT_purple3.bmp,purple,starting_scream,scream,starting,m,positive,negative,ES_green,1,m,505,1540929,1541433,1541637
48,first,42,morsch,IAT_red2.bmp,red,ending_melody,melody,ending,c,negative,negative,ES_green,1,c,518,1543217,1543721,1543925
48,first,43,gierig,IAT_green2.bmp,green,ending_scream,scream,ending,c,negative,positive,ES_green,1,c,496,1545517,1546021,1546226
48,first,44,feige,IAT_yellow1.bmp,yellow,starting_melody,melody,starting,c,negative,positive,ES_green,1,c,631,1547795,1548299,1548503
48,first,45,lästig,IAT_red3.bmp,red,ending_melody,melody,ending,c,negative,negative,ES_green,1,c,615,1550209,1550714,1550918
48,first,46,kaputt,IAT_red2.bmp,red,ending_melody,melody,ending,c,negative,negative,ES_green,1,c,437,1552609,1553113,1553318
48,first,47,lästig,IAT_yellow4.bmp,yellow,starting_melody,melody,starting,c,negative,positive,ES_green,1,c,670,1554829,1555334,1555538
48,first,48,einsam,IAT_purple4.bmp,purple,starting_scream,scream,starting,c,negative,negative,ES_green,1,c,548,1557282,1557787,1557992
48,first,49,sozial,IAT_red3.bmp,red,ending_melody,melody,ending,m,positive,negative,ES_green,1,m,517,1559613,1560118,1560322
48,first,50,sonnig,IAT_red1.bmp,red,ending_melody,melody,ending,m,positive,negative,ES_green,1,m,468,1561913,1562417,1562621
48,first,51,morsch,IAT_green1.bmp,green,ending_scream,scream,ending,c,negative,positive,ES_green,1,c,451,1564162,1564667,1564871
48,first,52,kaputt,IAT_red4.bmp,red,ending_melody,melody,ending,c,negative,negative,ES_green,1,c,392,1566396,1566900,1567104
48,first,53,witzig,IAT_purple3.bmp,purple,starting_scream,scream,starting,m,positive,negative,ES_green,1,m,489,1568570,1569074,1569278
48,first,54,gerecht,IAT_red2.bmp,red,ending_melody,melody,ending,m,positive,negative,ES_green,1,m,541,1570842,1571346,1571550
48,first,55,einsam,IAT_red4.bmp,red,ending_melody,melody,ending,c,negative,negative,ES_green,1,c,466,1573166,1573671,1573875
48,first,56,munter,IAT_red1.bmp,red,ending_melody,melody,ending,m,positive,negative,ES_green,0,c,547,1575416,1575920,1576125
48,first,57,witzig,IAT_green2.bmp,green,ending_scream,scream,ending,m,positive,positive,ES_green,1,m,554,1578245,1578750,1578954
48,first,58,krank,IAT_purple2.bmp,purple,starting_scream,scream,starting,c,negative,negative,ES_green,1,c,456,1580583,1581088,1581292
48,first,59,brutal,IAT_red4.bmp,red,ending_melody,melody,ending,c,negative,negative,ES_green,1,c,425,1582823,1583328,1583532
48,first,60,gesund,IAT_red3.bmp,red,ending_melody,melody,ending,m,positive,negative,ES_green,1,m,456,1585031,1585535,1585739
48,first,61,lustig,IAT_yellow1.bmp,yellow,starting_melody,melody,starting,m,positive,positive,ES_green,1,m,406,1587270,1587774,1587978
48,first,62,sanft,IAT_yellow2.bmp,yellow,starting_melody,melody,starting,m,positive,positive,ES_green,1,m,460,1589460,1589964,1590168
48,first,63,geizig,IAT_yellow4.bmp,yellow,starting_melody,melody,starting,c,negative,positive,ES_green,1,c,511,1591703,1592207,1592412
48,first,64,krank,IAT_yellow2.bmp,yellow,starting_melody,melody,starting,c,negative,positive,ES_green,1,c,866,1593997,1594502,1594706
48,first,65,human,IAT_red1.bmp,red,ending_melody,melody,ending,m,positive,negative,ES_green,1,m,473,1596646,1597151,1597356
48,first,66,falsch,IAT_red4.bmp,red,ending_melody,melody,ending,c,negative,negative,ES_green,1,c,604,1598904,1599408,1599612
48,first,67,lästig,IAT_green2.bmp,green,ending_scream,scream,ending,c,negative,positive,ES_green,0,m,493,1601290,1601794,1601998
48,first,68,ehrlich,IAT_red4.bmp,red,ending_melody,melody,ending,m,positive,negative,ES_green,1,m,554,1604066,1604570,1604775
48,first,69,einsam,IAT_green3.bmp,green,ending_scream,scream,ending,c,negative,positive,ES_green,1,c,552,1606403,1606908,1607112
48,first,70,sanft,IAT_purple2.bmp,purple,starting_scream,scream,starting,m,positive,negative,ES_green,1,m,524,1608739,1609243,1609447
48,first,71,feige,IAT_purple4.bmp,purple,starting_scream,scream,starting,c,negative,negative,ES_green,1,c,654,1611046,1611550,1611755
48,first,72,lustig,IAT_yellow4.bmp,yellow,starting_melody,melody,starting,m,positive,positive,ES_green,1,m,461,1613483,1613988,1614193
48,first,73,brutal,IAT_red3.bmp,red,ending_melody,melody,ending,c,negative,negative,ES_green,1,c,568,1615729,1616234,1616438
48,first,74,ehrlich,IAT_red4.bmp,red,ending_melody,melody,ending,m,positive,negative,ES_green,1,m,552,1618082,1618586,1618790
48,first,75,gierig,IAT_green4.bmp,green,ending_scream,scream,ending,c,negative,positive,ES_green,1,c,576,1620418,1620922,1621126
48,first,76,streng,IAT_green2.bmp,green,ending_scream,scream,ending,c,negative,positive,ES_green,1,c,681,1622778,1623282,1623486
48,first,77,gesund,IAT_yellow3.bmp,yellow,starting_melody,melody,starting,m,positive,positive,ES_green,1,m,444,1625243,1625747,1625952
48,first,78,morsch,IAT_purple2.bmp,purple,starting_scream,scream,starting,c,negative,negative,ES_green,1,c,499,1627470,1627974,1628178
48,first,79,teuer,IAT_red1.bmp,red,ending_melody,melody,ending,c,negative,negative,ES_green,1,c,601,1629752,1630256,1630460
48,first,80,kaputt,IAT_yellow4.bmp,yellow,starting_melody,melody,starting,c,negative,positive,ES_green,1,c,516,1632136,1632640,1632844
48,first,81,schön,IAT_red1.bmp,red,ending_melody,melody,ending,m,positive,negative,ES_green,1,m,439,1634437,1634942,1635146
48,first,82,heiter,IAT_green4.bmp,green,ending_scream,scream,ending,m,positive,positive,ES_green,1,m,538,1636659,1637163,1637367
48,first,83,schön,IAT_yellow1.bmp,yellow,starting_melody,melody,starting,m,positive,positive,ES_green,1,m,453,1638981,1639486,1639690
48,first,84,krank,IAT_yellow2.bmp,yellow,starting_melody,melody,starting,c,negative,positive,ES_green,1,c,402,1641217,1641722,1641926
48,first,85,gerecht,IAT_red2.bmp,red,ending_melody,melody,ending,m,positive,negative,ES_green,1,m,463,1643403,1643907,1644112
48,first,86,streng,IAT_yellow2.bmp,yellow,starting_melody,melody,starting,c,negative,positive,ES_green,1,c,519,1645649,1646154,1646358
48,first,87,sozial,IAT_purple3.bmp,purple,starting_scream,scream,starting,m,positive,negative,ES_green,1,m,415,1647952,1648456,1648660
48,first,88,feige,IAT_yellow2.bmp,yellow,starting_melody,melody,starting,c,negative,positive,ES_green,1,c,485,1650150,1650655,1650859
48,first,89,witzig,IAT_yellow3.bmp,yellow,starting_melody,melody,starting,m,positive,positive,ES_green,1,m,444,1652419,1652923,1653127
48,first,90,munter,IAT_green1.bmp,green,ending_scream,scream,ending,m,positive,positive,ES_green,1,m,429,1654646,1655150,1655355
48,first,91,human,IAT_red3.bmp,red,ending_melody,melody,ending,m,positive,negative,ES_green,1,m,480,1656860,1657364,1657568
48,first,92,morsch,IAT_purple1.bmp,purple,starting_scream,scream,starting,c,negative,negative,ES_green,1,c,383,1659124,1659629,1659833
48,first,93,witzig,IAT_purple4.bmp,purple,starting_scream,scream,starting,m,positive,negative,ES_green,1,m,442,1661291,1661795,1661999
48,first,94,falsch,IAT_green4.bmp,green,ending_scream,scream,ending,c,negative,positive,ES_green,1,c,448,1663516,1664020,1664225
48,first,95,munter,IAT_yellow2.bmp,yellow,starting_melody,melody,starting,m,positive,positive,ES_green,1,m,696,1665748,1666252,1666456
48,second,0,morsch,IAT_green2.bmp,green,ending_scream,scream,ending,c,negative,positive,ES_green,1,c,501,1680453,1680957,1681162
48,second,1,sonnig,IAT_purple4.bmp,purple,starting_scream,scream,starting,m,positive,negative,ES_green,1,m,497,1682738,1683242,1683446
48,second,2,sanft,IAT_purple3.bmp,purple,starting_scream,scream,starting,m,positive,negative,ES_green,1,m,335,1685016,1685520,1685725
48,second,3,streng,IAT_purple2.bmp,purple,starting_scream,scream,starting,c,negative,negative,ES_green,1,c,476,1687133,1687638,1687843
48,second,4,krank,IAT_yellow3.bmp,yellow,starting_melody,melody,starting,c,negative,positive,ES_green,0,m,417,1689393,1689897,1690101
48,second,5,ehrlich,IAT_yellow1.bmp,yellow,starting_melody,melody,starting,m,positive,positive,ES_green,1,m,470,1692095,1692599,1692804
48,second,6,gierig,IAT_yellow4.bmp,yellow,starting_melody,melody,starting,c,negative,positive,ES_green,1,c,486,1694349,1694853,1695057
48,second,7,sozial,IAT_purple1.bmp,purple,starting_scream,scream,starting,m,positive,negative,ES_green,1,m,426,1696619,1697123,1697327
48,second,8,witzig,IAT_red1.bmp,red,ending_melody,melody,ending,m,positive,negative,ES_green,0,c,417,1698828,1699332,1699536
48,second,9,munter,IAT_yellow4.bmp,yellow,starting_melody,melody,starting,m,positive,positive,ES_green,1,m,467,1701527,1702032,1702236
48,second,10,human,IAT_purple3.bmp,purple,starting_scream,scream,starting,m,positive,negative,ES_green,1,m,389,1703776,1704281,1704485
48,second,11,sonnig,IAT_green1.bmp,green,ending_scream,scream,ending,m,positive,positive,ES_green,1,m,381,1705948,1706452,1706656
48,second,12,heiter,IAT_purple3.bmp,purple,starting_scream,scream,starting,m,positive,negative,ES_green,1,m,480,1708111,1708615,1708819
48,second,13,gesund,IAT_red1.bmp,red,ending_melody,melody,ending,m,positive,negative,ES_green,1,m,362,1710374,1710878,1711083
48,second,14,heiter,IAT_yellow1.bmp,yellow,starting_melody,melody,starting,m,positive,positive,ES_green,1,m,313,1712519,1713024,1713228
48,second,15,lustig,IAT_purple1.bmp,purple,starting_scream,scream,starting,m,positive,negative,ES_green,1,m,372,1714616,1715121,1715325
48,second,16,krank,IAT_yellow2.bmp,yellow,starting_melody,melody,starting,c,negative,positive,ES_green,0,m,323,1716771,1717275,1717479
48,second,17,gierig,IAT_red1.bmp,red,ending_melody,melody,ending,c,negative,negative,ES_green,0,m,764,1719377,1719881,1720086
48,second,18,sonnig,IAT_green3.bmp,green,ending_scream,scream,ending,m,positive,positive,ES_green,1,m,540,1722425,1722929,1723134
48,second,19,falsch,IAT_purple4.bmp,purple,starting_scream,scream,starting,c,negative,negative,ES_green,1,c,454,1724748,1725252,1725456
48,second,20,geizig,IAT_yellow2.bmp,yellow,starting_melody,melody,starting,c,negative,positive,ES_green,1,c,521,1726984,1727488,1727692
48,second,21,feige,IAT_red2.bmp,red,ending_melody,melody,ending,c,negative,negative,ES_green,1,c,569,1729288,1729793,1729997
48,second,22,einsam,IAT_red4.bmp,red,ending_melody,melody,ending,c,negative,negative,ES_green,1,c,432,1731641,1732145,1732349
48,second,23,witzig,IAT_yellow3.bmp,yellow,starting_melody,melody,starting,m,positive,positive,ES_green,1,m,459,1733858,1734363,1734567
48,second,24,morsch,IAT_yellow3.bmp,yellow,starting_melody,melody,starting,c,negative,positive,ES_green,1,c,460,1736100,1736604,1736808
48,second,25,kaputt,IAT_green1.bmp,green,ending_scream,scream,ending,c,negative,positive,ES_green,0,m,404,1738343,1738847,1739052
48,second,26,gerecht,IAT_yellow2.bmp,yellow,starting_melody,melody,starting,m,positive,positive,ES_green,1,m,1204,1741030,1741534,1741738
48,second,27,munter,IAT_red4.bmp,red,ending_melody,melody,ending,m,positive,negative,ES_green,0,c,979,1744018,1744522,1744726
48,second,28,falsch,IAT_red4.bmp,red,ending_melody,melody,ending,c,negative,negative,ES_green,1,c,522,1747279,1747783,1747987
48,second,29,sanft,IAT_red1.bmp,red,ending_melody,melody,ending,m,positive,negative,ES_green,1,m,427,1749585,1750089,1750293
48,second,30,feige,IAT_green4.bmp,green,ending_scream,scream,ending,c,negative,positive,ES_green,1,c,636,1751794,1752298,1752503
48,second,31,kaputt,IAT_purple4.bmp,purple,starting_scream,scream,starting,c,negative,negative,ES_green,1,c,460,1754213,1754717,1754922
48,second,32,schön,IAT_yellow3.bmp,yellow,starting_melody,melody,starting,m,positive,positive,ES_green,1,m,385,1756456,1756961,1757165
48,second,33,geizig,IAT_yellow4.bmp,yellow,starting_melody,melody,starting,c,negative,positive,ES_green,1,c,503,1758625,1759129,1759333
48,second,34,brutal,IAT_purple2.bmp,purple,starting_scream,scream,starting,c,negative,negative,ES_green,1,c,408,1760911,1761415,1761619
48,second,35,geizig,IAT_green4.bmp,green,ending_scream,scream,ending,c,negative,positive,ES_green,1,c,390,1763102,1763606,1763810
48,second,36,falsch,IAT_red3.bmp,red,ending_melody,melody,ending,c,negative,negative,ES_green,1,c,368,1765274,1765779,1765983
48,second,37,gesund,IAT_red2.bmp,red,ending_melody,melody,ending,m,positive,negative,ES_green,1,m,436,1767425,1767929,1768133
48,second,38,witzig,IAT_purple2.bmp,purple,starting_scream,scream,starting,m,positive,negative,ES_green,1,m,495,1769643,1770148,1770353
48,second,39,ehrlich,IAT_yellow3.bmp,yellow,starting_melody,melody,starting,m,positive,positive,ES_green,1,m,401,1771922,1772426,1772630
48,second,40,heiter,IAT_yellow1.bmp,yellow,starting_melody,melody,starting,m,positive,positive,ES_green,0,c,707,1774106,1774610,1774814
48,second,41,gierig,IAT_purple2.bmp,purple,starting_scream,scream,starting,c,negative,negative,ES_green,0,m,451,1777096,1777600,1777804
48,second,42,gerecht,IAT_yellow3.bmp,yellow,starting_melody,melody,starting,m,positive,positive,ES_green,1,m,649,1779829,1780334,1780538
48,second,43,sozial,IAT_yellow4.bmp,yellow,starting_melody,melody,starting,m,positive,positive,ES_green,1,m,583,1782261,1782766,1782970
48,second,44,teuer,IAT_red2.bmp,red,ending_melody,melody,ending,c,negative,negative,ES_green,0,m,520,1784628,1785132,1785336
48,second,45,einsam,IAT_red4.bmp,red,ending_melody,melody,ending,c,negative,negative,ES_green,1,c,633,1787430,1787935,1788139
48,second,46,lustig,IAT_red4.bmp,red,ending_melody,melody,ending,m,positive,negative,ES_green,1,m,542,1789847,1790351,1790555
48,second,47,sonnig,IAT_purple2.bmp,purple,starting_scream,scream,starting,m,positive,negative,ES_green,1,m,503,1792173,1792677,1792882
48,second,48,heiter,IAT_green1.bmp,green,ending_scream,scream,ending,m,positive,positive,ES_green,1,m,660,1794459,1794963,1795167
48,second,49,morsch,IAT_red3.bmp,red,ending_melody,melody,ending,c,negative,negative,ES_green,1,c,556,1796901,1797405,1797609
48,second,50,ehrlich,IAT_green4.bmp,green,ending_scream,scream,ending,m,positive,positive,ES_green,1,m,571,1799240,1799744,1799948
48,second,51,lästig,IAT_purple1.bmp,purple,starting_scream,scream,starting,c,negative,negative,ES_green,0,m,432,1801595,1802099,1802303
48,second,52,gesund,IAT_red3.bmp,red,ending_melody,melody,ending,m,positive,negative,ES_green,1,m,480,1804311,1804815,1805019
48,second,53,teuer,IAT_red4.bmp,red,ending_melody,melody,ending,c,negative,negative,ES_green,1,c,657,1806575,1807080,1807284
48,second,54,sozial,IAT_green3.bmp,green,ending_scream,scream,ending,m,positive,positive,ES_green,1,m,655,1809016,1809521,1809726
48,second,55,streng,IAT_green2.bmp,green,ending_scream,scream,ending,c,negative,positive,ES_green,1,c,504,1811456,1811960,1812164
48,second,56,munter,IAT_red3.bmp,red,ending_melody,melody,ending,m,positive,negative,ES_green,1,m,815,1813742,1814247,1814451
48,second,57,schön,IAT_red3.bmp,red,ending_melody,melody,ending,m,positive,negative,ES_green,1,m,505,1816340,1816844,1817048
48,second,58,krank,IAT_yellow1.bmp,yellow,starting_melody,melody,starting,c,negative,positive,ES_green,1,c,593,1818629,1819140,1819348
48,second,59,morsch,IAT_green2.bmp,green,ending_scream,scream,ending,c,negative,positive,ES_green,1,c,461,1821015,1821519,1821724
48,second,60,lustig,IAT_red2.bmp,red,ending_melody,melody,ending,m,positive,negative,ES_green,1,m,552,1823261,1823765,1823969
48,second,61,lästig,IAT_yellow4.bmp,yellow,starting_melody,melody,starting,c,negative,positive,ES_green,1,c,611,1825597,1826101,1826305
48,second,62,feige,IAT_green4.bmp,green,ending_scream,scream,ending,c,negative,positive,ES_green,1,c,637,1827991,1828495,1828699
48,second,63,schön,IAT_green3.bmp,green,ending_scream,scream,ending,m,positive,positive,ES_green,1,m,542,1830411,1830915,1831119
48,second,64,geizig,IAT_purple3.bmp,purple,starting_scream,scream,starting,c,negative,negative,ES_green,1,c,485,1832738,1833242,1833446
48,second,65,feige,IAT_red2.bmp,red,ending_melody,melody,ending,c,negative,negative,ES_green,1,c,666,1835007,1835511,1835715
48,second,66,brutal,IAT_purple3.bmp,purple,starting_scream,scream,starting,c,negative,negative,ES_green,1,c,479,1837457,1837961,1838165
48,second,67,lästig,IAT_green1.bmp,green,ending_scream,scream,ending,c,negative,positive,ES_green,1,c,665,1839719,1840223,1840427
48,second,68,sanft,IAT_green4.bmp,green,ending_scream,scream,ending,m,positive,positive,ES_green,1,m,496,1842168,1842672,1842876
48,second,69,teuer,IAT_green4.bmp,green,ending_scream,scream,ending,c,negative,positive,ES_green,1,c,527,1844448,1844952,1845157
48,second,70,human,IAT_red3.bmp,red,ending_melody,melody,ending,m,positive,negative,ES_green,1,m,437,1846761,1847265,1847469
48,second,71,schön,IAT_green2.bmp,green,ending_scream,scream,ending,m,positive,positive,ES_green,1,m,481,1848980,1849484,1849688
48,second,72,einsam,IAT_red2.bmp,red,ending_melody,melody,ending,c,negative,negative,ES_green,1,c,738,1851244,1851748,1851953
48,second,73,gerecht,IAT_red1.bmp,red,ending_melody,melody,ending,m,positive,negative,ES_green,1,m,1376,1853768,1854272,1854476
48,second,74,kaputt,IAT_green3.bmp,green,ending_scream,scream,ending,c,negative,positive,ES_green,1,c,566,1856928,1857432,1857636
48,second,75,lustig,IAT_purple1.bmp,purple,starting_scream,scream,starting,m,positive,negative,ES_green,1,m,449,1859278,1859783,1859987
48,second,76,einsam,IAT_purple2.bmp,purple,starting_scream,scream,starting,c,negative,negative,ES_green,1,c,936,1861511,1862015,1862219
48,second,77,kaputt,IAT_green2.bmp,green,ending_scream,scream,ending,c,negative,positive,ES_green,1,c,447,1864231,1864735,1864939
48,second,78,human,IAT_yellow2.bmp,yellow,starting_melody,melody,starting,m,positive,positive,ES_green,1,m,604,1866463,1866968,1867172
48,second,79,lästig,IAT_yellow1.bmp,yellow,starting_melody,melody,starting,c,negative,positive,ES_green,1,c,540,1868852,1869356,1869560
48,second,80,ehrlich,IAT_purple1.bmp,purple,starting_scream,scream,starting,m,positive,negative,ES_green,1,m,608,1871176,1871680,1871885
48,second,81,streng,IAT_red1.bmp,red,ending_melody,melody,ending,c,negative,negative,ES_green,1,c,483,1873569,1874073,1874277
48,second,82,sozial,IAT_green1.bmp,green,ending_scream,scream,ending,m,positive,positive,ES_green,1,m,454,1875834,1876339,1876543
48,second,83,falsch,IAT_purple1.bmp,purple,starting_scream,scream,starting,c,negative,negative,ES_green,1,c,751,1878073,1878577,1878782
48,second,84,brutal,IAT_yellow2.bmp,yellow,starting_melody,melody,starting,c,negative,positive,ES_green,1,c,501,1880609,1881114,1881318
48,second,85,streng,IAT_green3.bmp,green,ending_scream,scream,ending,c,negative,positive,ES_green,0,m,408,1882896,1883400,1883604
48,second,86,witzig,IAT_yellow1.bmp,yellow,starting_melody,melody,starting,m,positive,positive,ES_green,1,m,640,1885588,1886093,1886297
48,second,87,brutal,IAT_purple4.bmp,purple,starting_scream,scream,starting,c,negative,negative,ES_green,1,c,500,1888013,1888517,1888722
48,second,88,human,IAT_purple4.bmp,purple,starting_scream,scream,starting,m,positive,negative,ES_green,1,m,661,1890298,1890802,1891006
48,second,89,krank,IAT_yellow2.bmp,yellow,starting_melody,melody,starting,c,negative,positive,ES_green,1,c,650,1892742,1893246,1893450
48,second,90,munter,IAT_purple3.bmp,purple,starting_scream,scream,starting,m,positive,negative,ES_green,1,m,826,1895176,1895681,1895885
48,second,91,sanft,IAT_green2.bmp,green,ending_scream,scream,ending,m,positive,positive,ES_green,1,m,524,1897786,1898290,1898494
48,second,92,gesund,IAT_green1.bmp,green,ending_scream,scream,ending,m,positive,positive,ES_green,1,m,689,1900095,1900599,1900803
48,second,93,gerecht,IAT_green3.bmp,green,ending_scream,scream,ending,m,positive,positive,ES_green,1,m,681,1902568,1903073,1903277
48,second,94,gierig,IAT_yellow4.bmp,yellow,starting_melody,melody,starting,c,negative,positive,ES_green,1,c,562,1905035,1905540,1905744
48,second,95,teuer,IAT_purple4.bmp,purple,starting_scream,scream,starting,c,negative,negative,ES_green,1,c,507,1907380,1907884,1908088
48,third,0,gierig,IAT_red2.bmp,red,ending_melody,melody,ending,c,negative,negative,ES_green,1,c,671,1914592,1915096,1915300
48,third,1,lästig,IAT_yellow2.bmp,yellow,starting_melody,melody,starting,c,negative,positive,ES_green,0,m,404,1917048,1917552,1917756
48,third,2,kaputt,IAT_green2.bmp,green,ending_scream,scream,ending,c,negative,positive,ES_green,1,c,554,1919735,1920239,1920444
48,third,3,munter,IAT_green1.bmp,green,ending_scream,scream,ending,m,positive,positive,ES_green,1,m,515,1922073,1922577,1922782
48,third,4,feige,IAT_green4.bmp,green,ending_scream,scream,ending,c,negative,positive,ES_green,1,c,480,1924370,1924875,1925079
48,third,5,kaputt,IAT_green3.bmp,green,ending_scream,scream,ending,c,negative,positive,ES_green,1,c,463,1926634,1927138,1927343
48,third,6,krank,IAT_green4.bmp,green,ending_scream,scream,ending,c,negative,positive,ES_green,1,c,338,1928880,1929384,1929588
48,third,7,lästig,IAT_purple2.bmp,purple,starting_scream,scream,starting,c,negative,negative,ES_green,1,c,582,1931002,1931506,1931710
48,third,8,lustig,IAT_green4.bmp,green,ending_scream,scream,ending,m,positive,positive,ES_green,1,m,433,1933367,1933872,1934076
48,third,9,sanft,IAT_red4.bmp,red,ending_melody,melody,ending,m,positive,negative,ES_green,0,c,430,1935583,1936088,1936292
48,third,10,lustig,IAT_red3.bmp,red,ending_melody,melody,ending,m,positive,negative,ES_green,1,m,481,1938296,1938801,1939005
48,third,11,gerecht,IAT_red1.bmp,red,ending_melody,melody,ending,m,positive,negative,ES_green,1,m,518,1940560,1941064,1941268
48,third,12,schön,IAT_green3.bmp,green,ending_scream,scream,ending,m,positive,positive,ES_green,1,m,533,1942862,1943367,1943572
48,third,13,sonnig,IAT_red1.bmp,red,ending_melody,melody,ending,m,positive,negative,ES_green,1,m,477,1945179,1945683,1945887
48,third,14,ehrlich,IAT_red3.bmp,red,ending_melody,melody,ending,m,positive,negative,ES_green,1,m,644,1947440,1947944,1948148
48,third,15,einsam,IAT_purple4.bmp,purple,starting_scream,scream,starting,c,negative,negative,ES_green,1,c,625,1949866,1950371,1950575
48,third,16,geizig,IAT_green1.bmp,green,ending_scream,scream,ending,c,negative,positive,ES_green,0,m,473,1952274,1952778,1952983
48,third,17,einsam,IAT_red2.bmp,red,ending_melody,melody,ending,c,negative,negative,ES_green,0,m,1128,1955030,1955534,1955738
48,third,18,feige,IAT_yellow2.bmp,yellow,starting_melody,melody,starting,c,negative,positive,ES_green,1,c,555,1958441,1958945,1959149
48,third,19,brutal,IAT_purple1.bmp,purple,starting_scream,scream,starting,c,negative,negative,ES_green,1,c,573,1960780,1961284,1961488
48,third,20,kaputt,IAT_purple3.bmp,purple,starting_scream,scream,starting,c,negative,negative,ES_green,1,c,503,1963136,1963641,1963845
48,third,21,human,IAT_purple1.bmp,purple,starting_scream,scream,starting,m,positive,negative,ES_green,1,m,510,1965423,1965927,1966131
48,third,22,morsch,IAT_red2.bmp,red,ending_melody,melody,ending,c,negative,negative,ES_green,1,c,475,1967717,1968221,1968426
48,third,23,ehrlich,IAT_red3.bmp,red,ending_melody,melody,ending,m,positive,negative,ES_green,1,m,641,1969976,1970480,1970684
48,third,24,sonnig,IAT_purple4.bmp,purple,starting_scream,scream,starting,m,positive,negative,ES_green,1,m,560,1972399,1972903,1973107
48,third,25,geizig,IAT_yellow3.bmp,yellow,starting_melody,melody,starting,c,negative,positive,ES_green,1,c,495,1974741,1975245,1975449
48,third,26,witzig,IAT_yellow1.bmp,yellow,starting_melody,melody,starting,m,positive,positive,ES_green,1,m,524,1977019,1977524,1977728
48,third,27,gesund,IAT_purple2.bmp,purple,starting_scream,scream,starting,m,positive,negative,ES_green,1,m,613,1979328,1979833,1980037
48,third,28,kaputt,IAT_red4.bmp,red,ending_melody,melody,ending,c,negative,negative,ES_green,1,c,436,1981724,1982228,1982432
48,third,29,falsch,IAT_green4.bmp,green,ending_scream,scream,ending,c,negative,positive,ES_green,1,c,522,1983943,1984447,1984651
48,third,30,human,IAT_purple1.bmp,purple,starting_scream,scream,starting,m,positive,negative,ES_green,1,m,784,1986248,1986753,1986957
48,third,31,einsam,IAT_purple1.bmp,purple,starting_scream,scream,starting,c,negative,negative,ES_green,1,c,587,1988816,1989320,1989524
48,third,32,witzig,IAT_green3.bmp,green,ending_scream,scream,ending,m,positive,positive,ES_green,1,m,797,1991186,1991690,1991895
48,third,33,streng,IAT_red4.bmp,red,ending_melody,melody,ending,c,negative,negative,ES_green,1,c,330,1993767,1994271,1994475
48,third,34,human,IAT_red1.bmp,red,ending_melody,melody,ending,m,positive,negative,ES_green,1,m,1464,1995880,1996384,1996588
48,third,35,morsch,IAT_yellow4.bmp,yellow,starting_melody,melody,starting,c,negative,positive,ES_green,1,c,475,1999129,1999633,1999837
48,third,36,sonnig,IAT_purple4.bmp,purple,starting_scream,scream,starting,m,positive,negative,ES_green,1,m,560,2001388,2001893,2002097
48,third,37,krank,IAT_yellow4.bmp,yellow,starting_melody,melody,starting,c,negative,positive,ES_green,1,c,735,2003732,2004236,2004440
48,third,38,teuer,IAT_purple2.bmp,purple,starting_scream,scream,starting,c,negative,negative,ES_green,1,c,495,2006250,2006754,2006958
48,third,39,lästig,IAT_green2.bmp,green,ending_scream,scream,ending,c,negative,positive,ES_green,0,m,472,2008528,2009032,2009236
48,third,40,heiter,IAT_green2.bmp,green,ending_scream,scream,ending,m,positive,positive,ES_green,1,m,1163,2011282,2011787,2011992
48,third,41,geizig,IAT_red3.bmp,red,ending_melody,melody,ending,c,negative,negative,ES_green,1,c,385,2014230,2014734,2014938
48,third,42,einsam,IAT_green3.bmp,green,ending_scream,scream,ending,c,negative,positive,ES_green,1,c,498,2016399,2016904,2017108
48,third,43,teuer,IAT_yellow4.bmp,yellow,starting_melody,melody,starting,c,negative,positive,ES_green,1,c,544,2018681,2019185,2019389
48,third,44,gesund,IAT_yellow3.bmp,yellow,starting_melody,melody,starting,m,positive,positive,ES_green,1,m,491,2021009,2021513,2021717
48,third,45,krank,IAT_purple3.bmp,purple,starting_scream,scream,starting,c,negative,negative,ES_green,1,c,485,2023282,2023787,2023991
48,third,46,witzig,IAT_green1.bmp,green,ending_scream,scream,ending,m,positive,positive,ES_green,1,m,581,2025550,2026055,2026260
48,third,47,lustig,IAT_red2.bmp,red,ending_melody,melody,ending,m,positive,negative,ES_green,1,m,573,2027917,2028422,2028626
48,third,48,gerecht,IAT_green2.bmp,green,ending_scream,scream,ending,m,positive,positive,ES_green,0,c,386,2030273,2030780,2030985
48,third,49,gesund,IAT_red2.bmp,red,ending_melody,melody,ending,m,positive,negative,ES_green,1,m,481,2032946,2033450,2033654
48,third,50,streng,IAT_green1.bmp,green,ending_scream,scream,ending,c,negative,positive,ES_green,1,c,629,2035210,2035714,2035918
48,third,51,sozial,IAT_yellow4.bmp,yellow,starting_melody,melody,starting,m,positive,positive,ES_green,1,m,538,2037622,2038126,2038330
48,third,52,krank,IAT_red4.bmp,red,ending_melody,melody,ending,c,negative,negative,ES_green,0,m,800,2039943,2040447,2040652
48,third,53,morsch,IAT_purple2.bmp,purple,starting_scream,scream,starting,c,negative,negative,ES_green,1,c,686,2043028,2043532,2043736
48,third,54,heiter,IAT_yellow1.bmp,yellow,starting_melody,melody,starting,m,positive,positive,ES_green,1,m,488,2045497,2046002,2046206
48,third,55,falsch,IAT_yellow3.bmp,yellow,starting_melody,melody,starting,c,negative,positive,ES_green,1,c,676,2047769,2048273,2048477
48,third,56,sanft,IAT_yellow1.bmp,yellow,starting_melody,melody,starting,m,positive,positive,ES_green,1,m,525,2050230,2050734,2050938
48,third,57,sonnig,IAT_red1.bmp,red,ending_melody,melody,ending,m,positive,negative,ES_green,1,m,570,2052539,2053043,2053247
48,third,58,streng,IAT_red3.bmp,red,ending_melody,melody,ending,c,negative,negative,ES_green,1,c,407,2054892,2055396,2055600
48,third,59,munter,IAT_purple3.bmp,purple,starting_scream,scream,starting,m,positive,negative,ES_green,1,m,404,2057083,2057588,2057792
48,third,60,heiter,IAT_green1.bmp,green,ending_scream,scream,ending,m,positive,positive,ES_green,1,m,533,2059270,2059775,2059979
48,third,61,munter,IAT_purple1.bmp,purple,starting_scream,scream,starting,m,positive,negative,ES_green,1,m,730,2061588,2062093,2062297
48,third,62,sanft,IAT_yellow1.bmp,yellow,starting_melody,melody,starting,m,positive,positive,ES_green,1,m,521,2064104,2064608,2064813
48,third,63,falsch,IAT_yellow1.bmp,yellow,starting_melody,melody,starting,c,negative,positive,ES_green,1,c,501,2066409,2066913,2067117
48,third,64,feige,IAT_green2.bmp,green,ending_scream,scream,ending,c,negative,positive,ES_green,1,c,525,2068693,2069197,2069401
48,third,65,human,IAT_red4.bmp,red,ending_melody,melody,ending,m,positive,negative,ES_green,0,c,433,2071001,2071505,2071709
48,third,66,teuer,IAT_green4.bmp,green,ending_scream,scream,ending,c,negative,positive,ES_green,1,c,738,2073718,2074223,2074428
48,third,67,lästig,IAT_yellow2.bmp,yellow,starting_melody,melody,starting,c,negative,positive,ES_green,0,m,328,2076241,2076745,2076949
48,third,68,falsch,IAT_yellow1.bmp,yellow,starting_melody,melody,starting,c,negative,positive,ES_green,1,c,630,2078854,2079358,2079563
48,third,69,sozial,IAT_yellow3.bmp,yellow,starting_melody,melody,starting,m,positive,positive,ES_green,1,m,488,2081268,2081773,2081977
48,third,70,schön,IAT_yellow2.bmp,yellow,starting_melody,melody,starting,m,positive,positive,ES_green,1,m,475,2083541,2084045,2084249
48,third,71,gerecht,IAT_purple1.bmp,purple,starting_scream,scream,starting,m,positive,negative,ES_green,1,m,490,2085800,2086304,2086508
48,third,72,geizig,IAT_yellow2.bmp,yellow,starting_melody,melody,starting,c,negative,positive,ES_green,1,c,452,2088075,2088579,2088784
48,third,73,ehrlich,IAT_red3.bmp,red,ending_melody,melody,ending,m,positive,negative,ES_green,1,m,600,2090311,2090815,2091019
48,third,74,brutal,IAT_green2.bmp,green,ending_scream,scream,ending,c,negative,positive,ES_green,1,c,512,2092694,2093199,2093404
48,third,75,sanft,IAT_yellow3.bmp,yellow,starting_melody,melody,starting,m,positive,positive,ES_green,1,m,614,2094991,2095495,2095699
48,third,76,gerecht,IAT_yellow4.bmp,yellow,starting_melody,melody,starting,m,positive,positive,ES_green,1,m,608,2097388,2097893,2098097
48,third,77,gierig,IAT_purple4.bmp,purple,starting_scream,scream,starting,c,negative,negative,ES_green,1,c,570,2099781,2100285,2100489
48,third,78,sozial,IAT_purple3.bmp,purple,starting_scream,scream,starting,m,positive,negative,ES_green,1,m,543,2102135,2102640,2102844
48,third,79,schön,IAT_green3.bmp,green,ending_scream,scream,ending,m,positive,positive,ES_green,1,m,694,2104464,2104968,2105173
48,third,80,munter,IAT_purple2.bmp,purple,starting_scream,scream,starting,m,positive,negative,ES_green,1,m,866,2106942,2107446,2107650
48,third,81,heiter,IAT_yellow3.bmp,yellow,starting_melody,melody,starting,m,positive,positive,ES_green,1,m,996,2109591,2110095,2110299
48,third,82,gesund,IAT_green1.bmp,green,ending_scream,scream,ending,m,positive,positive,ES_green,1,m,707,2112371,2112875,2113079
48,third,83,feige,IAT_red2.bmp,red,ending_melody,melody,ending,c,negative,negative,ES_green,1,c,465,2114863,2115367,2115572
48,third,84,witzig,IAT_yellow2.bmp,yellow,starting_melody,melody,starting,m,positive,positive,ES_green,1,m,920,2117113,2117617,2117822
48,third,85,lustig,IAT_green3.bmp,green,ending_scream,scream,ending,m,positive,positive,ES_green,1,m,498,2119817,2120321,2120526
48,third,86,sozial,IAT_purple3.bmp,purple,starting_scream,scream,starting,m,positive,negative,ES_green,1,m,471,2122099,2122603,2122807
48,third,87,schön,IAT_purple3.bmp,purple,starting_scream,scream,starting,m,positive,negative,ES_green,1,m,513,2124354,2124858,2125063
48,third,88,streng,IAT_yellow4.bmp,yellow,starting_melody,melody,starting,c,negative,positive,ES_green,1,c,474,2126652,2127156,2127360
48,third,89,teuer,IAT_purple2.bmp,purple,starting_scream,scream,starting,c,negative,negative,ES_green,1,c,592,2128909,2129414,2129618
48,third,90,gierig,IAT_red4.bmp,red,ending_melody,melody,ending,c,negative,negative,ES_green,1,c,427,2131288,2131792,2131996
48,third,91,brutal,IAT_purple4.bmp,purple,starting_scream,scream,starting,c,negative,negative,ES_green,1,c,451,2133499,2134003,2134207
48,third,92,ehrlich,IAT_green4.bmp,green,ending_scream,scream,ending,m,positive,positive,ES_green,1,m,591,2135734,2136238,2136443
48,third,93,gierig,IAT_purple4.bmp,purple,starting_scream,scream,starting,c,negative,negative,ES_green,1,c,441,2138109,2138613,2138817
48,third,94,brutal,IAT_red1.bmp,red,ending_melody,melody,ending,c,negative,negative,ES_green,1,c,405,2140333,2140837,2141041
48,third,95,morsch,IAT_red1.bmp,red,ending_melody,melody,ending,c,negative,negative,ES_green,1,c,471,2142522,2143026,2143230
48,forth,0,witzig,IAT_green3.bmp,green,ending_scream,scream,ending,m,positive,positive,ES_green,1,m,522,2149631,2150135,2150339
48,forth,1,ehrlich,IAT_red4.bmp,red,ending_melody,melody,ending,m,positive,negative,ES_green,1,m,579,2151939,2152443,2152647
48,forth,2,gesund,IAT_yellow4.bmp,yellow,starting_melody,melody,starting,m,positive,positive,ES_green,1,m,489,2154302,2154806,2155010
48,forth,3,heiter,IAT_red3.bmp,red,ending_melody,melody,ending,m,positive,negative,ES_green,1,m,545,2156573,2157077,2157281
48,forth,4,morsch,IAT_purple2.bmp,purple,starting_scream,scream,starting,c,negative,negative,ES_green,1,c,599,2158902,2159406,2159610
48,forth,5,krank,IAT_purple2.bmp,purple,starting_scream,scream,starting,c,negative,negative,ES_green,1,c,556,2161284,2161788,2161992
48,forth,6,teuer,IAT_yellow2.bmp,yellow,starting_melody,melody,starting,c,negative,positive,ES_green,1,c,676,2163623,2164128,2164333
48,forth,7,morsch,IAT_yellow3.bmp,yellow,starting_melody,melody,starting,c,negative,positive,ES_green,1,c,590,2166083,2166587,2166792
48,forth,8,sozial,IAT_green3.bmp,green,ending_scream,scream,ending,m,positive,positive,ES_green,1,m,558,2168457,2168962,2169166
48,forth,9,sanft,IAT_green2.bmp,green,ending_scream,scream,ending,m,positive,positive,ES_green,0,c,1022,2170799,2171303,2171507
48,forth,10,kaputt,IAT_green2.bmp,green,ending_scream,scream,ending,c,negative,positive,ES_green,1,c,563,2174106,2174610,2174814
48,forth,11,heiter,IAT_yellow4.bmp,yellow,starting_melody,melody,starting,m,positive,positive,ES_green,1,m,476,2176451,2176956,2177160
48,forth,12,teuer,IAT_red3.bmp,red,ending_melody,melody,ending,c,negative,negative,ES_green,1,c,1290,2178713,2179217,2179422
48,forth,13,gerecht,IAT_yellow2.bmp,yellow,starting_melody,melody,starting,m,positive,positive,ES_green,1,m,568,2181787,2182291,2182495
48,forth,14,schön,IAT_purple3.bmp,purple,starting_scream,scream,starting,m,positive,negative,ES_green,1,m,507,2184138,2184642,2184846
48,forth,15,lästig,IAT_red2.bmp,red,ending_melody,melody,ending,c,negative,negative,ES_green,1,c,1043,2186429,2186933,2187137
48,forth,16,feige,IAT_purple2.bmp,purple,starting_scream,scream,starting,c,negative,negative,ES_green,1,c,637,2189256,2189760,2189964
48,forth,17,human,IAT_yellow1.bmp,yellow,starting_melody,melody,starting,m,positive,positive,ES_green,1,m,546,2191677,2192181,2192385
48,forth,18,sonnig,IAT_purple3.bmp,purple,starting_scream,scream,starting,m,positive,negative,ES_green,0,None,1500,2194006,2194510,2194714
48,forth,19,streng,IAT_yellow1.bmp,yellow,starting_melody,melody,starting,c,negative,positive,ES_green,1,c,469,2198289,2198793,2198997
48,forth,20,heiter,IAT_green1.bmp,green,ending_scream,scream,ending,m,positive,positive,ES_green,1,m,489,2200541,2201045,2201249
48,forth,21,geizig,IAT_yellow3.bmp,yellow,starting_melody,melody,starting,c,negative,positive,ES_green,1,c,537,2202814,2203318,2203523
48,forth,22,munter,IAT_purple2.bmp,purple,starting_scream,scream,starting,m,positive,negative,ES_green,1,m,533,2205135,2205639,2205844
48,forth,23,gierig,IAT_yellow4.bmp,yellow,starting_melody,melody,starting,c,negative,positive,ES_green,1,c,520,2207454,2207958,2208163
48,forth,24,schön,IAT_red1.bmp,red,ending_melody,melody,ending,m,positive,negative,ES_green,1,m,536,2209759,2210263,2210467
48,forth,25,geizig,IAT_red3.bmp,red,ending_melody,melody,ending,c,negative,negative,ES_green,1,c,589,2212079,2212583,2212787
48,forth,26,gerecht,IAT_purple4.bmp,purple,starting_scream,scream,starting,m,positive,negative,ES_green,1,m,568,2214452,2214956,2215160
48,forth,27,morsch,IAT_green1.bmp,green,ending_scream,scream,ending,c,negative,positive,ES_green,1,c,468,2216804,2217308,2217513
48,forth,28,falsch,IAT_green3.bmp,green,ending_scream,scream,ending,c,negative,positive,ES_green,1,c,942,2219056,2219561,2219765
48,forth,29,schön,IAT_yellow1.bmp,yellow,starting_melody,melody,starting,m,positive,positive,ES_green,1,m,379,2221782,2222286,2222490
48,forth,30,witzig,IAT_purple1.bmp,purple,starting_scream,scream,starting,m,positive,negative,ES_green,1,m,462,2223944,2224449,2224653
48,forth,31,feige,IAT_yellow4.bmp,yellow,starting_melody,melody,starting,c,negative,positive,ES_green,1,c,513,2226190,2226695,2226899
48,forth,32,gesund,IAT_green4.bmp,green,ending_scream,scream,ending,m,positive,positive,ES_green,1,m,556,2228488,2228992,2229196
48,forth,33,einsam,IAT_purple1.bmp,purple,starting_scream,scream,starting,c,negative,negative,ES_green,0,m,953,2230827,2231332,2231536
48,forth,34,gierig,IAT_yellow2.bmp,yellow,starting_melody,melody,starting,c,negative,positive,ES_green,1,c,613,2234064,2234569,2234774
48,forth,35,brutal,IAT_red2.bmp,red,ending_melody,melody,ending,c,negative,negative,ES_green,1,c,411,2236463,2236968,2237172
48,forth,36,krank,IAT_red2.bmp,red,ending_melody,melody,ending,c,negative,negative,ES_green,1,c,573,2238659,2239163,2239367
48,forth,37,heiter,IAT_green3.bmp,green,ending_scream,scream,ending,m,positive,positive,ES_green,1,m,708,2241017,2241521,2241726
48,forth,38,witzig,IAT_yellow1.bmp,yellow,starting_melody,melody,starting,m,positive,positive,ES_green,1,m,530,2243510,2244015,2244219
48,forth,39,lustig,IAT_yellow1.bmp,yellow,starting_melody,melody,starting,m,positive,positive,ES_green,1,m,332,2245826,2246330,2246534
48,forth,40,falsch,IAT_purple1.bmp,purple,starting_scream,scream,starting,c,negative,negative,ES_green,1,c,447,2247944,2248448,2248653
48,forth,41,sanft,IAT_yellow3.bmp,yellow,starting_melody,melody,starting,m,positive,positive,ES_green,1,m,520,2250175,2250679,2250883
48,forth,42,sozial,IAT_red3.bmp,red,ending_melody,melody,ending,m,positive,negative,ES_green,1,m,513,2252479,2252983,2253187
48,forth,43,geizig,IAT_green4.bmp,green,ending_scream,scream,ending,c,negative,positive,ES_green,1,c,444,2254776,2255280,2255484
48,forth,44,brutal,IAT_red1.bmp,red,ending_melody,melody,ending,c,negative,negative,ES_green,1,c,493,2257003,2257507,2257712
48,forth,45,lustig,IAT_red1.bmp,red,ending_melody,melody,ending,m,positive,negative,ES_green,1,m,515,2259280,2259785,2259989
48,forth,46,einsam,IAT_red1.bmp,red,ending_melody,melody,ending,c,negative,negative,ES_green,1,c,527,2261580,2262085,2262289
48,forth,47,witzig,IAT_purple3.bmp,purple,starting_scream,scream,starting,m,positive,negative,ES_green,1,m,840,2263892,2264397,2264602
48,forth,48,brutal,IAT_red4.bmp,red,ending_melody,melody,ending,c,negative,negative,ES_green,1,c,1208,2266519,2267023,2267227
48,forth,49,sanft,IAT_red3.bmp,red,ending_melody,melody,ending,m,positive,negative,ES_green,1,m,608,2269511,2270015,2270219
48,forth,50,einsam,IAT_yellow2.bmp,yellow,starting_melody,melody,starting,c,negative,positive,ES_green,1,c,362,2271903,2272408,2272612
48,forth,51,geizig,IAT_purple4.bmp,purple,starting_scream,scream,starting,c,negative,negative,ES_green,1,c,574,2274049,2274554,2274758
48,forth,52,sonnig,IAT_purple1.bmp,purple,starting_scream,scream,starting,m,positive,negative,ES_green,1,m,584,2276409,2276914,2277118
48,forth,53,gerecht,IAT_red3.bmp,red,ending_melody,melody,ending,m,positive,negative,ES_green,0,c,453,2278779,2279283,2279487
48,forth,54,sozial,IAT_red2.bmp,red,ending_melody,melody,ending,m,positive,negative,ES_green,1,m,474,2281516,2282020,2282225
48,forth,55,morsch,IAT_green1.bmp,green,ending_scream,scream,ending,c,negative,positive,ES_green,1,c,410,2283774,2284278,2284482
48,forth,56,human,IAT_green1.bmp,green,ending_scream,scream,ending,m,positive,positive,ES_green,1,m,513,2285967,2286472,2286676
48,forth,57,kaputt,IAT_yellow1.bmp,yellow,starting_melody,melody,starting,c,negative,positive,ES_green,1,c,479,2288265,2288769,2288973
48,forth,58,streng,IAT_purple4.bmp,purple,starting_scream,scream,starting,c,negative,negative,ES_green,0,m,551,2290528,2291032,2291236
48,forth,59,kaputt,IAT_yellow4.bmp,yellow,starting_melody,melody,starting,c,negative,positive,ES_green,1,c,516,2293362,2293866,2294070
48,forth,60,lästig,IAT_green2.bmp,green,ending_scream,scream,ending,c,negative,positive,ES_green,0,m,758,2295661,2296165,2296369
48,forth,61,ehrlich,IAT_purple1.bmp,purple,starting_scream,scream,starting,m,positive,negative,ES_green,1,m,1280,2298704,2299208,2299413
48,forth,62,munter,IAT_red4.bmp,red,ending_melody,melody,ending,m,positive,negative,ES_green,1,m,540,2301769,2302273,2302477
48,forth,63,falsch,IAT_purple3.bmp,purple,starting_scream,scream,starting,c,negative,negative,ES_green,1,c,623,2304093,2304597,2304802
48,forth,64,einsam,IAT_yellow4.bmp,yellow,starting_melody,melody,starting,c,negative,positive,ES_green,1,c,619,2306501,2307005,2307209
48,forth,65,schön,IAT_purple3.bmp,purple,starting_scream,scream,starting,m,positive,negative,ES_green,1,m,444,2308902,2309406,2309610
48,forth,66,teuer,IAT_red4.bmp,red,ending_melody,melody,ending,c,negative,negative,ES_green,1,c,656,2311129,2311634,2311838
48,forth,67,munter,IAT_green4.bmp,green,ending_scream,scream,ending,m,positive,positive,ES_green,1,m,508,2313570,2314074,2314278
48,forth,68,sonnig,IAT_green3.bmp,green,ending_scream,scream,ending,m,positive,positive,ES_green,1,m,572,2315861,2316366,2316570
48,forth,69,human,IAT_red2.bmp,red,ending_melody,melody,ending,m,positive,negative,ES_green,1,m,504,2318219,2318723,2318927
48,forth,70,krank,IAT_green4.bmp,green,ending_scream,scream,ending,c,negative,positive,ES_green,1,c,582,2320507,2321012,2321216
48,forth,71,gierig,IAT_purple2.bmp,purple,starting_scream,scream,starting,c,negative,negative,ES_green,1,c,494,2322874,2323378,2323583
48,forth,72,ehrlich,IAT_yellow3.bmp,yellow,starting_melody,melody,starting,m,positive,positive,ES_green,1,m,642,2325152,2325656,2325860
48,forth,73,brutal,IAT_green2.bmp,green,ending_scream,scream,ending,c,negative,positive,ES_green,1,c,500,2327577,2328081,2328285
48,forth,74,sonnig,IAT_purple1.bmp,purple,starting_scream,scream,starting,m,positive,negative,ES_green,1,m,467,2329861,2330365,2330569
48,forth,75,feige,IAT_yellow2.bmp,yellow,starting_melody,melody,starting,c,negative,positive,ES_green,1,c,602,2332112,2332617,2332821
48,forth,76,gesund,IAT_green1.bmp,green,ending_scream,scream,ending,m,positive,positive,ES_green,1,m,583,2334501,2335005,2335209
48,forth,77,lästig,IAT_red2.bmp,red,ending_melody,melody,ending,c,negative,negative,ES_green,1,c,529,2336870,2337374,2337578
48,forth,78,feige,IAT_green2.bmp,green,ending_scream,scream,ending,c,negative,positive,ES_green,0,m,791,2339185,2339689,2339893
48,forth,79,streng,IAT_red4.bmp,red,ending_melody,melody,ending,c,negative,negative,ES_green,1,c,410,2342259,2342764,2342968
48,forth,80,gerecht,IAT_yellow2.bmp,yellow,starting_melody,melody,starting,m,positive,positive,ES_green,1,m,523,2344454,2344958,2345162
48,forth,81,munter,IAT_green2.bmp,green,ending_scream,scream,ending,m,positive,positive,ES_green,1,m,794,2346760,2347264,2347468
48,forth,82,sozial,IAT_yellow3.bmp,yellow,starting_melody,melody,starting,m,positive,positive,ES_green,1,m,550,2349339,2349843,2350047
48,forth,83,falsch,IAT_purple4.bmp,purple,starting_scream,scream,starting,c,negative,negative,ES_green,1,c,516,2351671,2352176,2352380
48,forth,84,ehrlich,IAT_red1.bmp,red,ending_melody,melody,ending,m,positive,negative,ES_green,1,m,535,2353972,2354476,2354680
48,forth,85,lustig,IAT_purple4.bmp,purple,starting_scream,scream,starting,m,positive,negative,ES_green,1,m,471,2356291,2356795,2356999
48,forth,86,teuer,IAT_green4.bmp,green,ending_scream,scream,ending,c,negative,positive,ES_green,1,c,614,2358548,2359052,2359256
48,forth,87,sanft,IAT_green1.bmp,green,ending_scream,scream,ending,m,positive,positive,ES_green,1,m,436,2360945,2361450,2361654
48,forth,88,streng,IAT_green4.bmp,green,ending_scream,scream,ending,c,negative,positive,ES_green,1,c,471,2363166,2363671,2363875
48,forth,89,kaputt,IAT_red4.bmp,red,ending_melody,melody,ending,c,negative,negative,ES_green,1,c,476,2365421,2365925,2366129
48,forth,90,human,IAT_purple2.bmp,purple,starting_scream,scream,starting,m,positive,negative,ES_green,1,m,499,2367682,2368186,2368390
48,forth,91,lustig,IAT_red1.bmp,red,ending_melody,melody,ending,m,positive,negative,ES_green,1,m,533,2369966,2370470,2370674
48,forth,92,lästig,IAT_purple3.bmp,purple,starting_scream,scream,starting,c,negative,negative,ES_green,1,c,549,2372283,2372787,2372991
48,forth,93,gesund,IAT_yellow3.bmp,yellow,starting_melody,melody,starting,m,positive,positive,ES_green,1,m,428,2374618,2375122,2375326
48,forth,94,gierig,IAT_green3.bmp,green,ending_scream,scream,ending,c,negative,positive,ES_green,1,c,630,2376830,2377335,2377539
48,forth,95,krank,IAT_purple4.bmp,purple,starting_scream,scream,starting,c,negative,negative,ES_green,1,c,478,2379245,2379750,2379954
