subject_nr,block,trialnr,trial_target,trial_prime,prime_color,prime_role,prime_us,prime_relation,correct_response,target_valence,prime_valence,color_counter,correct_first_response,response_first_response,response_time_first_response,fixation_show,prime_show,target_show
105,first,0,falsch,IAT_green4.bmp,green,starting_melody,melody,starting,c,negative,positive,ES_purple,0,None,1500,1422747,1423251,1423455
105,first,1,kaputt,IAT_yellow4.bmp,yellow,ending_melody,melody,ending,c,negative,negative,ES_purple,1,c,555,1426531,1427036,1427240
105,first,2,teuer,IAT_green2.bmp,green,starting_melody,melody,starting,c,negative,positive,ES_purple,0,m,704,1428868,1429372,1429576
105,first,3,einsam,IAT_yellow2.bmp,yellow,ending_melody,melody,ending,c,negative,negative,ES_purple,1,c,618,1431853,1432358,1432562
105,first,4,heiter,IAT_green1.bmp,green,starting_melody,melody,starting,m,positive,positive,ES_purple,1,m,707,1434253,1434757,1434961
105,first,5,gesund,IAT_green3.bmp,green,starting_melody,melody,starting,m,positive,positive,ES_purple,1,m,734,1436742,1437246,1437450
105,first,6,sonnig,IAT_red2.bmp,red,starting_scream,scream,starting,m,positive,negative,ES_purple,1,m,772,1439259,1439763,1439967
105,first,7,munter,IAT_green1.bmp,green,starting_melody,melody,starting,m,positive,positive,ES_purple,1,m,556,1441812,1442316,1442520
105,first,8,feige,IAT_purple4.bmp,purple,ending_scream,scream,ending,c,negative,positive,ES_purple,1,c,475,1444149,1444653,1444857
105,first,9,brutal,IAT_yellow4.bmp,yellow,ending_melody,melody,ending,c,negative,negative,ES_purple,1,c,607,1446405,1446910,1447114
105,first,10,teuer,IAT_yellow2.bmp,yellow,ending_melody,melody,ending,c,negative,negative,ES_purple,1,c,762,1448794,1449298,1449502
105,first,11,witzig,IAT_red1.bmp,red,starting_scream,scream,starting,m,positive,negative,ES_purple,1,m,430,1451337,1451841,1452045
105,first,12,krank,IAT_yellow2.bmp,yellow,ending_melody,melody,ending,c,negative,negative,ES_purple,1,c,752,1453549,1454053,1454257
105,first,13,human,IAT_purple1.bmp,purple,ending_scream,scream,ending,m,positive,positive,ES_purple,1,m,594,1456082,1456587,1456791
105,first,14,brutal,IAT_purple2.bmp,purple,ending_scream,scream,ending,c,negative,positive,ES_purple,1,c,644,1458459,1458963,1459167
105,first,15,einsam,IAT_yellow1.bmp,yellow,ending_melody,melody,ending,c,negative,negative,ES_purple,1,c,633,1460884,1461388,1461592
105,first,16,lästig,IAT_red1.bmp,red,starting_scream,scream,starting,c,negative,negative,ES_purple,1,c,568,1463299,1463804,1464008
105,first,17,gerecht,IAT_green1.bmp,green,starting_melody,melody,starting,m,positive,positive,ES_purple,1,m,669,1465650,1466154,1466358
105,first,18,morsch,IAT_green1.bmp,green,starting_melody,melody,starting,c,negative,positive,ES_purple,1,c,594,1468101,1468606,1468810
105,first,19,sozial,IAT_yellow3.bmp,yellow,ending_melody,melody,ending,m,positive,negative,ES_purple,1,m,702,1470478,1470982,1471186
105,first,20,gierig,IAT_purple2.bmp,purple,ending_scream,scream,ending,c,negative,positive,ES_purple,1,c,669,1472963,1473467,1473671
105,first,21,geizig,IAT_purple2.bmp,purple,ending_scream,scream,ending,c,negative,positive,ES_purple,1,c,1032,1475413,1475917,1476121
105,first,22,feige,IAT_green4.bmp,green,starting_melody,melody,starting,c,negative,positive,ES_purple,1,c,560,1478226,1478730,1478934
105,first,23,kaputt,IAT_yellow4.bmp,yellow,ending_melody,melody,ending,c,negative,negative,ES_purple,1,c,537,1480567,1481071,1481276
105,first,24,witzig,IAT_yellow1.bmp,yellow,ending_melody,melody,ending,m,positive,negative,ES_purple,1,m,556,1482887,1483391,1483595
105,first,25,human,IAT_green3.bmp,green,starting_melody,melody,starting,m,positive,positive,ES_purple,1,m,571,1485224,1485728,1485932
105,first,26,geizig,IAT_red4.bmp,red,starting_scream,scream,starting,c,negative,negative,ES_purple,1,c,617,1487576,1488080,1488284
105,first,27,brutal,IAT_green3.bmp,green,starting_melody,melody,starting,c,negative,positive,ES_purple,1,c,622,1489975,1490479,1490683
105,first,28,streng,IAT_green2.bmp,green,starting_melody,melody,starting,c,negative,positive,ES_purple,1,c,864,1492378,1492882,1493086
105,first,29,kaputt,IAT_yellow4.bmp,yellow,ending_melody,melody,ending,c,negative,negative,ES_purple,1,c,482,1495024,1495528,1495732
105,first,30,sonnig,IAT_green3.bmp,green,starting_melody,melody,starting,m,positive,positive,ES_purple,1,m,747,1497287,1497791,1497995
105,first,31,falsch,IAT_red4.bmp,red,starting_scream,scream,starting,c,negative,negative,ES_purple,1,c,737,1499816,1500320,1500524
105,first,32,ehrlich,IAT_red3.bmp,red,starting_scream,scream,starting,m,positive,negative,ES_purple,1,m,778,1502335,1502839,1503043
105,first,33,sozial,IAT_purple1.bmp,purple,ending_scream,scream,ending,m,positive,positive,ES_purple,1,m,779,1504894,1505398,1505602
105,first,34,morsch,IAT_purple4.bmp,purple,ending_scream,scream,ending,c,negative,positive,ES_purple,1,c,625,1507453,1507957,1508161
105,first,35,ehrlich,IAT_red3.bmp,red,starting_scream,scream,starting,m,positive,negative,ES_purple,0,c,862,1509859,1510363,1510567
105,first,36,kaputt,IAT_green4.bmp,green,starting_melody,melody,starting,c,negative,positive,ES_purple,1,c,610,1513004,1513508,1513712
105,first,37,gesund,IAT_green3.bmp,green,starting_melody,melody,starting,m,positive,positive,ES_purple,1,m,448,1515398,1515902,1516106
105,first,38,sanft,IAT_yellow1.bmp,yellow,ending_melody,melody,ending,m,positive,negative,ES_purple,1,m,674,1517628,1518133,1518337
105,first,39,lästig,IAT_purple4.bmp,purple,ending_scream,scream,ending,c,negative,positive,ES_purple,1,c,711,1520083,1520588,1520792
105,first,40,schön,IAT_red1.bmp,red,starting_scream,scream,starting,m,positive,negative,ES_purple,1,m,600,1522577,1523081,1523285
105,first,41,sanft,IAT_yellow2.bmp,yellow,ending_melody,melody,ending,m,positive,negative,ES_purple,1,m,501,1524959,1525463,1525667
105,first,42,heiter,IAT_purple4.bmp,purple,ending_scream,scream,ending,m,positive,positive,ES_purple,1,m,674,1527242,1527746,1527950
105,first,43,lustig,IAT_green1.bmp,green,starting_melody,melody,starting,m,positive,positive,ES_purple,1,m,418,1529697,1530202,1530406
105,first,44,heiter,IAT_purple1.bmp,purple,ending_scream,scream,ending,m,positive,positive,ES_purple,1,m,738,1531898,1532402,1532606
105,first,45,streng,IAT_red2.bmp,red,starting_scream,scream,starting,c,negative,negative,ES_purple,1,c,780,1534418,1534922,1535126
105,first,46,schön,IAT_purple2.bmp,purple,ending_scream,scream,ending,m,positive,positive,ES_purple,1,m,641,1536979,1537483,1537687
105,first,47,gerecht,IAT_yellow3.bmp,yellow,ending_melody,melody,ending,m,positive,negative,ES_purple,0,c,843,1539402,1539906,1540110
105,first,48,teuer,IAT_purple2.bmp,purple,ending_scream,scream,ending,c,negative,positive,ES_purple,0,m,1098,1542526,1543030,1543234
105,first,49,witzig,IAT_red2.bmp,red,starting_scream,scream,starting,m,positive,negative,ES_purple,1,m,652,1545906,1546410,1546614
105,first,50,streng,IAT_purple4.bmp,purple,ending_scream,scream,ending,c,negative,positive,ES_purple,1,c,779,1548351,1548855,1549059
105,first,51,morsch,IAT_purple3.bmp,purple,ending_scream,scream,ending,c,negative,positive,ES_purple,1,c,636,1550912,1551416,1551620
105,first,52,munter,IAT_purple3.bmp,purple,ending_scream,scream,ending,m,positive,positive,ES_purple,1,m,613,1553330,1553834,1554038
105,first,53,ehrlich,IAT_yellow4.bmp,yellow,ending_melody,melody,ending,m,positive,negative,ES_purple,1,m,592,1555726,1556230,1556434
105,first,54,lästig,IAT_red3.bmp,red,starting_scream,scream,starting,c,negative,negative,ES_purple,0,m,486,1558100,1558605,1558809
105,first,55,geizig,IAT_purple1.bmp,purple,ending_scream,scream,ending,c,negative,positive,ES_purple,1,c,1120,1560870,1561374,1561578
105,first,56,morsch,IAT_green4.bmp,green,starting_melody,melody,starting,c,negative,positive,ES_purple,1,c,639,1563772,1564276,1564480
105,first,57,gierig,IAT_red2.bmp,red,starting_scream,scream,starting,c,negative,negative,ES_purple,1,c,543,1566193,1566697,1566901
105,first,58,gerecht,IAT_yellow3.bmp,yellow,ending_melody,melody,ending,m,positive,negative,ES_purple,1,m,737,1568518,1569022,1569227
105,first,59,einsam,IAT_red3.bmp,red,starting_scream,scream,starting,c,negative,negative,ES_purple,1,c,767,1571038,1571542,1571746
105,first,60,heiter,IAT_purple4.bmp,purple,ending_scream,scream,ending,m,positive,positive,ES_purple,1,m,567,1573587,1574091,1574295
105,first,61,krank,IAT_green1.bmp,green,starting_melody,melody,starting,c,negative,positive,ES_purple,1,c,590,1575935,1576440,1576644
105,first,62,feige,IAT_red1.bmp,red,starting_scream,scream,starting,c,negative,negative,ES_purple,1,c,844,1578308,1578812,1579016
105,first,63,sanft,IAT_red4.bmp,red,starting_scream,scream,starting,m,positive,negative,ES_purple,0,c,937,1580934,1581438,1581642
105,first,64,human,IAT_yellow2.bmp,yellow,ending_melody,melody,ending,m,positive,negative,ES_purple,1,m,786,1584153,1584657,1584861
105,first,65,gesund,IAT_yellow1.bmp,yellow,ending_melody,melody,ending,m,positive,negative,ES_purple,1,m,642,1586721,1587226,1587430
105,first,66,streng,IAT_red4.bmp,red,starting_scream,scream,starting,c,negative,negative,ES_purple,1,c,766,1589146,1589651,1589855
105,first,67,krank,IAT_red4.bmp,red,starting_scream,scream,starting,c,negative,negative,ES_purple,0,m,1004,1591695,1592199,1592403
105,first,68,lustig,IAT_red3.bmp,red,starting_scream,scream,starting,m,positive,negative,ES_purple,1,m,609,1594981,1595486,1595690
105,first,69,munter,IAT_purple1.bmp,purple,ending_scream,scream,ending,m,positive,positive,ES_purple,1,m,564,1597374,1597878,1598082
105,first,70,schön,IAT_green4.bmp,green,starting_melody,melody,starting,m,positive,positive,ES_purple,1,m,531,1599720,1600225,1600429
105,first,71,geizig,IAT_green2.bmp,green,starting_melody,melody,starting,c,negative,positive,ES_purple,1,c,730,1602033,1602538,1602742
105,first,72,feige,IAT_yellow3.bmp,yellow,ending_melody,melody,ending,c,negative,negative,ES_purple,1,c,1003,1604546,1605050,1605254
105,first,73,sozial,IAT_green2.bmp,green,starting_melody,melody,starting,m,positive,positive,ES_purple,1,m,957,1607331,1607835,1608039
105,first,74,lästig,IAT_green3.bmp,green,starting_melody,melody,starting,c,negative,positive,ES_purple,1,c,1433,1610071,1610575,1610779
105,first,75,sonnig,IAT_purple2.bmp,purple,ending_scream,scream,ending,m,positive,positive,ES_purple,1,m,926,1613286,1613790,1613994
105,first,76,sanft,IAT_red4.bmp,red,starting_scream,scream,starting,m,positive,negative,ES_purple,1,m,963,1615995,1616499,1616703
105,first,77,einsam,IAT_yellow2.bmp,yellow,ending_melody,melody,ending,c,negative,negative,ES_purple,0,m,830,1618741,1619245,1619449
105,first,78,ehrlich,IAT_green2.bmp,green,starting_melody,melody,starting,m,positive,positive,ES_purple,1,m,874,1621852,1622357,1622561
105,first,79,brutal,IAT_purple1.bmp,purple,ending_scream,scream,ending,c,negative,positive,ES_purple,1,c,1126,1624509,1625013,1625217
105,first,80,sozial,IAT_purple3.bmp,purple,ending_scream,scream,ending,m,positive,positive,ES_purple,1,m,658,1627417,1627921,1628125
105,first,81,falsch,IAT_yellow3.bmp,yellow,ending_melody,melody,ending,c,negative,negative,ES_purple,1,c,1013,1629857,1630361,1630565
105,first,82,teuer,IAT_red2.bmp,red,starting_scream,scream,starting,c,negative,negative,ES_purple,1,c,1194,1632652,1633156,1633360
105,first,83,gierig,IAT_red2.bmp,red,starting_scream,scream,starting,c,negative,negative,ES_purple,1,c,532,1635628,1636132,1636336
105,first,84,falsch,IAT_green2.bmp,green,starting_melody,melody,starting,c,negative,positive,ES_purple,1,c,614,1637942,1638446,1638650
105,first,85,human,IAT_yellow3.bmp,yellow,ending_melody,melody,ending,m,positive,negative,ES_purple,1,m,594,1640338,1640842,1641046
105,first,86,sonnig,IAT_red1.bmp,red,starting_scream,scream,starting,m,positive,negative,ES_purple,1,m,587,1642714,1643218,1643422
105,first,87,munter,IAT_purple3.bmp,purple,ending_scream,scream,ending,m,positive,positive,ES_purple,1,m,535,1645083,1645587,1645791
105,first,88,gesund,IAT_purple3.bmp,purple,ending_scream,scream,ending,m,positive,positive,ES_purple,1,m,773,1647401,1647905,1648109
105,first,89,gierig,IAT_purple3.bmp,purple,ending_scream,scream,ending,c,negative,positive,ES_purple,1,c,943,1649957,1650461,1650665
105,first,90,krank,IAT_yellow1.bmp,yellow,ending_melody,melody,ending,c,negative,negative,ES_purple,1,c,613,1652683,1653187,1653391
105,first,91,lustig,IAT_red1.bmp,red,starting_scream,scream,starting,m,positive,negative,ES_purple,1,m,573,1655078,1655582,1655786
105,first,92,gerecht,IAT_red3.bmp,red,starting_scream,scream,starting,m,positive,negative,ES_purple,0,c,496,1657433,1657937,1658141
105,first,93,lustig,IAT_green4.bmp,green,starting_melody,melody,starting,m,positive,positive,ES_purple,1,m,474,1660211,1660716,1660920
105,first,94,schön,IAT_yellow4.bmp,yellow,ending_melody,melody,ending,m,positive,negative,ES_purple,1,m,439,1662468,1662972,1663176
105,first,95,witzig,IAT_yellow1.bmp,yellow,ending_melody,melody,ending,m,positive,negative,ES_purple,1,m,911,1664689,1665194,1665398
105,second,0,geizig,IAT_purple3.bmp,purple,ending_scream,scream,ending,c,negative,positive,ES_purple,1,c,937,1681008,1681513,1681717
105,second,1,teuer,IAT_red4.bmp,red,starting_scream,scream,starting,c,negative,negative,ES_purple,1,c,652,1683730,1684234,1684438
105,second,2,gesund,IAT_purple2.bmp,purple,ending_scream,scream,ending,m,positive,positive,ES_purple,1,m,486,1686165,1686669,1686873
105,second,3,sonnig,IAT_red4.bmp,red,starting_scream,scream,starting,m,positive,negative,ES_purple,1,m,652,1688434,1688939,1689144
105,second,4,geizig,IAT_yellow3.bmp,yellow,ending_melody,melody,ending,c,negative,negative,ES_purple,1,c,656,1690870,1691374,1691578
105,second,5,human,IAT_yellow3.bmp,yellow,ending_melody,melody,ending,m,positive,negative,ES_purple,1,m,679,1693308,1693812,1694016
105,second,6,gerecht,IAT_red1.bmp,red,starting_scream,scream,starting,m,positive,negative,ES_purple,1,m,610,1695770,1696274,1696478
105,second,7,lästig,IAT_purple1.bmp,purple,ending_scream,scream,ending,c,negative,positive,ES_purple,0,m,404,1698163,1698668,1698872
105,second,8,streng,IAT_red4.bmp,red,starting_scream,scream,starting,c,negative,negative,ES_purple,1,c,907,1700853,1701357,1701561
105,second,9,brutal,IAT_red2.bmp,red,starting_scream,scream,starting,c,negative,negative,ES_purple,1,c,836,1703543,1704047,1704251
105,second,10,falsch,IAT_purple4.bmp,purple,ending_scream,scream,ending,c,negative,positive,ES_purple,1,c,760,1706162,1706666,1706870
105,second,11,feige,IAT_green1.bmp,green,starting_melody,melody,starting,c,negative,positive,ES_purple,1,c,761,1708704,1709208,1709412
105,second,12,ehrlich,IAT_green2.bmp,green,starting_melody,melody,starting,m,positive,positive,ES_purple,1,m,634,1711247,1711751,1711955
105,second,13,streng,IAT_yellow2.bmp,yellow,ending_melody,melody,ending,c,negative,negative,ES_purple,1,c,531,1713663,1714167,1714371
105,second,14,schön,IAT_red3.bmp,red,starting_scream,scream,starting,m,positive,negative,ES_purple,1,m,488,1715975,1716479,1716683
105,second,15,sozial,IAT_purple3.bmp,purple,ending_scream,scream,ending,m,positive,positive,ES_purple,0,c,501,1718243,1718747,1718951
105,second,16,lustig,IAT_green2.bmp,green,starting_melody,melody,starting,m,positive,positive,ES_purple,1,m,651,1721026,1721531,1721735
105,second,17,brutal,IAT_red3.bmp,red,starting_scream,scream,starting,c,negative,negative,ES_purple,1,c,977,1723459,1723964,1724168
105,second,18,sonnig,IAT_purple1.bmp,purple,ending_scream,scream,ending,m,positive,positive,ES_purple,1,m,610,1726219,1726723,1726927
105,second,19,sozial,IAT_green3.bmp,green,starting_melody,melody,starting,m,positive,positive,ES_purple,1,m,588,1728612,1729116,1729320
105,second,20,schön,IAT_red1.bmp,red,starting_scream,scream,starting,m,positive,negative,ES_purple,1,m,559,1730981,1731485,1731689
105,second,21,feige,IAT_yellow2.bmp,yellow,ending_melody,melody,ending,c,negative,negative,ES_purple,1,c,641,1733322,1733826,1734030
105,second,22,sanft,IAT_green1.bmp,green,starting_melody,melody,starting,m,positive,positive,ES_purple,1,m,817,1735745,1736249,1736453
105,second,23,lustig,IAT_yellow1.bmp,yellow,ending_melody,melody,ending,m,positive,negative,ES_purple,1,m,785,1738345,1738849,1739053
105,second,24,human,IAT_yellow4.bmp,yellow,ending_melody,melody,ending,m,positive,negative,ES_purple,1,m,906,1740912,1741417,1741621
105,second,25,einsam,IAT_red2.bmp,red,starting_scream,scream,starting,c,negative,negative,ES_purple,0,m,591,1743602,1744106,1744310
105,second,26,streng,IAT_green2.bmp,green,starting_melody,melody,starting,c,negative,positive,ES_purple,0,m,877,1746474,1746978,1747182
105,second,27,ehrlich,IAT_red4.bmp,red,starting_scream,scream,starting,m,positive,negative,ES_purple,0,None,1500,1749633,1750137,1750341
105,second,28,kaputt,IAT_green1.bmp,green,starting_melody,melody,starting,c,negative,positive,ES_purple,1,c,684,1753413,1753918,1754122
105,second,29,lästig,IAT_purple4.bmp,purple,ending_scream,scream,ending,c,negative,positive,ES_purple,1,c,827,1755880,1756384,1756588
105,second,30,schön,IAT_purple3.bmp,purple,ending_scream,scream,ending,m,positive,positive,ES_purple,1,m,631,1758488,1758993,1759197
105,second,31,morsch,IAT_purple2.bmp,purple,ending_scream,scream,ending,c,negative,positive,ES_purple,1,c,655,1760902,1761406,1761610
105,second,32,einsam,IAT_green2.bmp,green,starting_melody,melody,starting,c,negative,positive,ES_purple,1,c,761,1763338,1763842,1764047
105,second,33,kaputt,IAT_purple2.bmp,purple,ending_scream,scream,ending,c,negative,positive,ES_purple,1,c,789,1765882,1766386,1766590
105,second,34,brutal,IAT_purple2.bmp,purple,ending_scream,scream,ending,c,negative,positive,ES_purple,1,c,748,1768453,1768957,1769161
105,second,35,sanft,IAT_red3.bmp,red,starting_scream,scream,starting,m,positive,negative,ES_purple,1,m,721,1770983,1771488,1771692
105,second,36,lästig,IAT_green3.bmp,green,starting_melody,melody,starting,c,negative,positive,ES_purple,1,c,744,1773487,1773991,1774195
105,second,37,geizig,IAT_yellow1.bmp,yellow,ending_melody,melody,ending,c,negative,negative,ES_purple,1,c,565,1776013,1776517,1776721
105,second,38,gerecht,IAT_purple3.bmp,purple,ending_scream,scream,ending,m,positive,positive,ES_purple,1,m,693,1778360,1778864,1779068
105,second,39,krank,IAT_red2.bmp,red,starting_scream,scream,starting,c,negative,negative,ES_purple,1,c,974,1780836,1781340,1781544
105,second,40,teuer,IAT_green2.bmp,green,starting_melody,melody,starting,c,negative,positive,ES_purple,0,m,767,1783593,1784097,1784301
105,second,41,heiter,IAT_yellow3.bmp,yellow,ending_melody,melody,ending,m,positive,negative,ES_purple,1,m,676,1786642,1787146,1787350
105,second,42,morsch,IAT_yellow2.bmp,yellow,ending_melody,melody,ending,c,negative,negative,ES_purple,1,c,591,1789102,1789606,1789810
105,second,43,gesund,IAT_purple4.bmp,purple,ending_scream,scream,ending,m,positive,positive,ES_purple,1,m,765,1791474,1791979,1792183
105,second,44,sozial,IAT_purple1.bmp,purple,ending_scream,scream,ending,m,positive,positive,ES_purple,1,m,619,1794022,1794526,1794730
105,second,45,lustig,IAT_purple3.bmp,purple,ending_scream,scream,ending,m,positive,positive,ES_purple,1,m,522,1796423,1796927,1797131
105,second,46,heiter,IAT_green1.bmp,green,starting_melody,melody,starting,m,positive,positive,ES_purple,1,m,610,1798727,1799232,1799436
105,second,47,human,IAT_green4.bmp,green,starting_melody,melody,starting,m,positive,positive,ES_purple,1,m,563,1801120,1801624,1801828
105,second,48,einsam,IAT_red4.bmp,red,starting_scream,scream,starting,c,negative,negative,ES_purple,1,c,851,1803465,1803969,1804173
105,second,49,munter,IAT_yellow3.bmp,yellow,ending_melody,melody,ending,m,positive,negative,ES_purple,1,m,641,1806098,1806602,1806806
105,second,50,kaputt,IAT_red3.bmp,red,starting_scream,scream,starting,c,negative,negative,ES_purple,1,c,555,1808521,1809025,1809229
105,second,51,falsch,IAT_red2.bmp,red,starting_scream,scream,starting,c,negative,negative,ES_purple,1,c,569,1810858,1811362,1811566
105,second,52,ehrlich,IAT_red1.bmp,red,starting_scream,scream,starting,m,positive,negative,ES_purple,1,m,407,1813209,1813713,1813917
105,second,53,gesund,IAT_green1.bmp,green,starting_melody,melody,starting,m,positive,positive,ES_purple,1,m,583,1815397,1815901,1816105
105,second,54,morsch,IAT_purple4.bmp,purple,ending_scream,scream,ending,c,negative,positive,ES_purple,1,c,748,1817762,1818266,1818470
105,second,55,witzig,IAT_red2.bmp,red,starting_scream,scream,starting,m,positive,negative,ES_purple,1,m,419,1820292,1820796,1821000
105,second,56,munter,IAT_purple2.bmp,purple,ending_scream,scream,ending,m,positive,positive,ES_purple,1,m,810,1822493,1822997,1823201
105,second,57,sonnig,IAT_red3.bmp,red,starting_scream,scream,starting,m,positive,negative,ES_purple,1,m,401,1825085,1825589,1825793
105,second,58,sanft,IAT_purple1.bmp,purple,ending_scream,scream,ending,m,positive,positive,ES_purple,1,m,534,1827269,1827773,1827977
105,second,59,feige,IAT_green4.bmp,green,starting_melody,melody,starting,c,negative,positive,ES_purple,0,m,492,1829585,1830090,1830294
105,second,60,witzig,IAT_yellow1.bmp,yellow,ending_melody,melody,ending,m,positive,negative,ES_purple,0,c,905,1832362,1832866,1833070
105,second,61,kaputt,IAT_yellow2.bmp,yellow,ending_melody,melody,ending,c,negative,negative,ES_purple,1,c,903,1835551,1836055,1836259
105,second,62,krank,IAT_red4.bmp,red,starting_scream,scream,starting,c,negative,negative,ES_purple,1,c,912,1838237,1838741,1838945
105,second,63,munter,IAT_green4.bmp,green,starting_melody,melody,starting,m,positive,positive,ES_purple,1,m,517,1840931,1841435,1841639
105,second,64,sonnig,IAT_yellow1.bmp,yellow,ending_melody,melody,ending,m,positive,negative,ES_purple,1,m,660,1843231,1843736,1843940
105,second,65,brutal,IAT_yellow4.bmp,yellow,ending_melody,melody,ending,c,negative,negative,ES_purple,1,c,745,1845675,1846179,1846383
105,second,66,morsch,IAT_red1.bmp,red,starting_scream,scream,starting,c,negative,negative,ES_purple,1,c,774,1848203,1848707,1848911
105,second,67,krank,IAT_yellow4.bmp,yellow,ending_melody,melody,ending,c,negative,negative,ES_purple,1,c,673,1850759,1851263,1851467
105,second,68,feige,IAT_yellow4.bmp,yellow,ending_melody,melody,ending,c,negative,negative,ES_purple,1,c,492,1853214,1853718,1853922
105,second,69,gesund,IAT_purple1.bmp,purple,ending_scream,scream,ending,m,positive,positive,ES_purple,0,c,708,1855489,1855993,1856197
105,second,70,sanft,IAT_yellow4.bmp,yellow,ending_melody,melody,ending,m,positive,negative,ES_purple,1,m,610,1858479,1858983,1859187
105,second,71,gierig,IAT_yellow4.bmp,yellow,ending_melody,melody,ending,c,negative,negative,ES_purple,1,c,815,1860872,1861376,1861580
105,second,72,heiter,IAT_yellow2.bmp,yellow,ending_melody,melody,ending,m,positive,negative,ES_purple,1,m,514,1863469,1863974,1864178
105,second,73,lästig,IAT_purple4.bmp,purple,ending_scream,scream,ending,c,negative,positive,ES_purple,1,c,765,1865765,1866270,1866474
105,second,74,gierig,IAT_yellow1.bmp,yellow,ending_melody,melody,ending,c,negative,negative,ES_purple,1,c,763,1868315,1868820,1869024
105,second,75,lustig,IAT_yellow3.bmp,yellow,ending_melody,melody,ending,m,positive,negative,ES_purple,0,c,634,1870862,1871366,1871570
105,second,76,munter,IAT_purple4.bmp,purple,ending_scream,scream,ending,m,positive,positive,ES_purple,1,m,671,1873777,1874281,1874485
105,second,77,einsam,IAT_red1.bmp,red,starting_scream,scream,starting,c,negative,negative,ES_purple,1,c,625,1876231,1876735,1876939
105,second,78,schön,IAT_green3.bmp,green,starting_melody,melody,starting,m,positive,positive,ES_purple,1,m,485,1878638,1879142,1879346
105,second,79,teuer,IAT_green4.bmp,green,starting_melody,melody,starting,c,negative,positive,ES_purple,0,m,800,1880904,1881409,1881613
105,second,80,streng,IAT_purple1.bmp,purple,ending_scream,scream,ending,c,negative,positive,ES_purple,1,c,793,1883987,1884491,1884696
105,second,81,sozial,IAT_red2.bmp,red,starting_scream,scream,starting,m,positive,negative,ES_purple,1,m,581,1886564,1887068,1887272
105,second,82,gierig,IAT_yellow3.bmp,yellow,ending_melody,melody,ending,c,negative,negative,ES_purple,1,c,888,1888927,1889431,1889635
105,second,83,gerecht,IAT_green3.bmp,green,starting_melody,melody,starting,m,positive,positive,ES_purple,1,m,837,1891598,1892102,1892307
105,second,84,falsch,IAT_green4.bmp,green,starting_melody,melody,starting,c,negative,positive,ES_purple,1,c,528,1894218,1894723,1894927
105,second,85,human,IAT_green3.bmp,green,starting_melody,melody,starting,m,positive,positive,ES_purple,1,m,520,1896530,1897035,1897239
105,second,86,witzig,IAT_red3.bmp,red,starting_scream,scream,starting,m,positive,negative,ES_purple,1,m,990,1898833,1899337,1899541
105,second,87,gierig,IAT_green3.bmp,green,starting_melody,melody,starting,c,negative,positive,ES_purple,1,c,697,1901607,1902111,1902315
105,second,88,gerecht,IAT_red1.bmp,red,starting_scream,scream,starting,m,positive,negative,ES_purple,1,m,526,1904087,1904591,1904795
105,second,89,geizig,IAT_purple3.bmp,purple,ending_scream,scream,ending,c,negative,positive,ES_purple,1,c,752,1906395,1906900,1907104
105,second,90,heiter,IAT_green1.bmp,green,starting_melody,melody,starting,m,positive,positive,ES_purple,1,m,611,1908931,1909435,1909639
105,second,91,ehrlich,IAT_yellow1.bmp,yellow,ending_melody,melody,ending,m,positive,negative,ES_purple,0,c,867,1911324,1911829,1912033
105,second,92,krank,IAT_purple2.bmp,purple,ending_scream,scream,ending,c,negative,positive,ES_purple,1,c,719,1914474,1914979,1915183
105,second,93,witzig,IAT_yellow2.bmp,yellow,ending_melody,melody,ending,m,positive,negative,ES_purple,1,m,616,1916977,1917481,1917685
105,second,94,falsch,IAT_green2.bmp,green,starting_melody,melody,starting,c,negative,positive,ES_purple,1,c,706,1919375,1919879,1920083
105,second,95,teuer,IAT_green4.bmp,green,starting_melody,melody,starting,c,negative,positive,ES_purple,1,c,787,1921863,1922367,1922571
105,third,0,krank,IAT_red1.bmp,red,starting_scream,scream,starting,c,negative,negative,ES_purple,1,c,750,1936187,1936691,1936895
105,third,1,geizig,IAT_yellow2.bmp,yellow,ending_melody,melody,ending,c,negative,negative,ES_purple,1,c,786,1938723,1939227,1939431
105,third,2,kaputt,IAT_purple2.bmp,purple,ending_scream,scream,ending,c,negative,positive,ES_purple,1,c,528,1941292,1941796,1942000
105,third,3,schön,IAT_yellow4.bmp,yellow,ending_melody,melody,ending,m,positive,negative,ES_purple,0,c,674,1943604,1944108,1944312
105,third,4,feige,IAT_green4.bmp,green,starting_melody,melody,starting,c,negative,positive,ES_purple,1,c,610,1946563,1947067,1947271
105,third,5,einsam,IAT_purple4.bmp,purple,ending_scream,scream,ending,c,negative,positive,ES_purple,1,c,493,1948955,1949460,1949664
105,third,6,sonnig,IAT_yellow3.bmp,yellow,ending_melody,melody,ending,m,positive,negative,ES_purple,1,m,379,1951232,1951736,1951940
105,third,7,falsch,IAT_red1.bmp,red,starting_scream,scream,starting,c,negative,negative,ES_purple,1,c,605,1953394,1953899,1954104
105,third,8,feige,IAT_red2.bmp,red,starting_scream,scream,starting,c,negative,negative,ES_purple,1,c,829,1955784,1956288,1956492
105,third,9,krank,IAT_red2.bmp,red,starting_scream,scream,starting,c,negative,negative,ES_purple,1,c,589,1958395,1958900,1959104
105,third,10,streng,IAT_red4.bmp,red,starting_scream,scream,starting,c,negative,negative,ES_purple,1,c,662,1960768,1961272,1961477
105,third,11,human,IAT_purple1.bmp,purple,ending_scream,scream,ending,m,positive,positive,ES_purple,1,m,687,1963215,1963719,1963923
105,third,12,brutal,IAT_red3.bmp,red,starting_scream,scream,starting,c,negative,negative,ES_purple,1,c,748,1965684,1966188,1966392
105,third,13,morsch,IAT_green2.bmp,green,starting_melody,melody,starting,c,negative,positive,ES_purple,1,c,604,1968215,1968719,1968923
105,third,14,sozial,IAT_red3.bmp,red,starting_scream,scream,starting,m,positive,negative,ES_purple,1,m,691,1970603,1971107,1971311
105,third,15,krank,IAT_purple2.bmp,purple,ending_scream,scream,ending,c,negative,positive,ES_purple,1,c,736,1973078,1973582,1973786
105,third,16,schön,IAT_green4.bmp,green,starting_melody,melody,starting,m,positive,positive,ES_purple,1,m,857,1975597,1976101,1976305
105,third,17,morsch,IAT_purple4.bmp,purple,ending_scream,scream,ending,c,negative,positive,ES_purple,1,c,595,1978236,1978740,1978945
105,third,18,sonnig,IAT_green1.bmp,green,starting_melody,melody,starting,m,positive,positive,ES_purple,1,m,1436,1980614,1981119,1981323
105,third,19,schön,IAT_yellow4.bmp,yellow,ending_melody,melody,ending,m,positive,negative,ES_purple,1,m,446,1983835,1984339,1984543
105,third,20,einsam,IAT_purple3.bmp,purple,ending_scream,scream,ending,c,negative,positive,ES_purple,1,c,604,1986063,1986567,1986771
105,third,21,kaputt,IAT_red3.bmp,red,starting_scream,scream,starting,c,negative,negative,ES_purple,0,m,746,1988450,1988955,1989159
105,third,22,ehrlich,IAT_purple3.bmp,purple,ending_scream,scream,ending,m,positive,positive,ES_purple,1,m,696,1991480,1991984,1992188
105,third,23,streng,IAT_red2.bmp,red,starting_scream,scream,starting,c,negative,negative,ES_purple,0,m,1293,1993958,1994463,1994667
105,third,24,sanft,IAT_red1.bmp,red,starting_scream,scream,starting,m,positive,negative,ES_purple,1,m,662,1997535,1998039,1998243
105,third,25,munter,IAT_purple1.bmp,purple,ending_scream,scream,ending,m,positive,positive,ES_purple,1,m,727,1999980,2000485,2000689
105,third,26,geizig,IAT_red4.bmp,red,starting_scream,scream,starting,c,negative,negative,ES_purple,1,c,748,2002491,2002995,2003199
105,third,27,feige,IAT_purple1.bmp,purple,ending_scream,scream,ending,c,negative,positive,ES_purple,1,c,766,2005023,2005527,2005731
105,third,28,gerecht,IAT_red2.bmp,red,starting_scream,scream,starting,m,positive,negative,ES_purple,0,c,895,2007573,2008077,2008281
105,third,29,lästig,IAT_green3.bmp,green,starting_melody,melody,starting,c,negative,positive,ES_purple,1,c,866,2010751,2011255,2011459
105,third,30,ehrlich,IAT_yellow1.bmp,yellow,ending_melody,melody,ending,m,positive,negative,ES_purple,1,m,690,2013400,2013905,2014109
105,third,31,gierig,IAT_yellow3.bmp,yellow,ending_melody,melody,ending,c,negative,negative,ES_purple,1,c,1374,2015875,2016379,2016583
105,third,32,teuer,IAT_yellow1.bmp,yellow,ending_melody,melody,ending,c,negative,negative,ES_purple,1,c,703,2019032,2019536,2019740
105,third,33,lustig,IAT_purple4.bmp,purple,ending_scream,scream,ending,m,positive,positive,ES_purple,1,m,684,2021517,2022022,2022226
105,third,34,gierig,IAT_red4.bmp,red,starting_scream,scream,starting,c,negative,negative,ES_purple,1,c,715,2023986,2024490,2024694
105,third,35,gesund,IAT_yellow1.bmp,yellow,ending_melody,melody,ending,m,positive,negative,ES_purple,1,m,531,2026484,2026988,2027192
105,third,36,morsch,IAT_yellow4.bmp,yellow,ending_melody,melody,ending,c,negative,negative,ES_purple,1,c,902,2028799,2029304,2029508
105,third,37,witzig,IAT_purple4.bmp,purple,ending_scream,scream,ending,m,positive,positive,ES_purple,1,m,580,2031484,2031988,2032192
105,third,38,sozial,IAT_green3.bmp,green,starting_melody,melody,starting,m,positive,positive,ES_purple,1,m,1175,2033847,2034351,2034555
105,third,39,gesund,IAT_yellow3.bmp,yellow,ending_melody,melody,ending,m,positive,negative,ES_purple,1,m,1008,2036806,2037310,2037515
105,third,40,kaputt,IAT_green1.bmp,green,starting_melody,melody,starting,c,negative,positive,ES_purple,1,c,643,2039597,2040102,2040306
105,third,41,sonnig,IAT_purple2.bmp,purple,ending_scream,scream,ending,m,positive,positive,ES_purple,1,m,1288,2042024,2042529,2042733
105,third,42,feige,IAT_yellow3.bmp,yellow,ending_melody,melody,ending,c,negative,negative,ES_purple,1,c,805,2045097,2045601,2045805
105,third,43,ehrlich,IAT_yellow1.bmp,yellow,ending_melody,melody,ending,m,positive,negative,ES_purple,0,c,1422,2047685,2048189,2048393
105,third,44,falsch,IAT_red2.bmp,red,starting_scream,scream,starting,c,negative,negative,ES_purple,1,c,855,2051392,2051896,2052100
105,third,45,heiter,IAT_purple1.bmp,purple,ending_scream,scream,ending,m,positive,positive,ES_purple,1,m,509,2054031,2054536,2054740
105,third,46,streng,IAT_yellow2.bmp,yellow,ending_melody,melody,ending,c,negative,negative,ES_purple,1,c,553,2056326,2056830,2057034
105,third,47,munter,IAT_red1.bmp,red,starting_scream,scream,starting,m,positive,negative,ES_purple,1,m,809,2058662,2059167,2059372
105,third,48,sanft,IAT_red3.bmp,red,starting_scream,scream,starting,m,positive,negative,ES_purple,0,c,532,2061257,2061761,2061965
105,third,49,gesund,IAT_green3.bmp,green,starting_melody,melody,starting,m,positive,positive,ES_purple,1,m,640,2064072,2064576,2064780
105,third,50,witzig,IAT_red1.bmp,red,starting_scream,scream,starting,m,positive,negative,ES_purple,1,m,915,2066496,2067000,2067204
105,third,51,teuer,IAT_green4.bmp,green,starting_melody,melody,starting,c,negative,positive,ES_purple,0,m,529,2069194,2069698,2069902
105,third,52,einsam,IAT_green4.bmp,green,starting_melody,melody,starting,c,negative,positive,ES_purple,1,c,600,2072005,2072510,2072714
105,third,53,sozial,IAT_green2.bmp,green,starting_melody,melody,starting,m,positive,positive,ES_purple,0,c,605,2074389,2074893,2075097
105,third,54,lästig,IAT_purple1.bmp,purple,ending_scream,scream,ending,c,negative,positive,ES_purple,1,c,916,2077278,2077783,2077987
105,third,55,teuer,IAT_yellow4.bmp,yellow,ending_melody,melody,ending,c,negative,negative,ES_purple,1,c,601,2079978,2080482,2080686
105,third,56,ehrlich,IAT_purple3.bmp,purple,ending_scream,scream,ending,m,positive,positive,ES_purple,1,m,665,2082362,2082866,2083070
105,third,57,krank,IAT_yellow2.bmp,yellow,ending_melody,melody,ending,c,negative,negative,ES_purple,1,c,1044,2084812,2085316,2085520
105,third,58,human,IAT_yellow1.bmp,yellow,ending_melody,melody,ending,m,positive,negative,ES_purple,1,m,1094,2087642,2088146,2088350
105,third,59,einsam,IAT_purple2.bmp,purple,ending_scream,scream,ending,c,negative,positive,ES_purple,1,c,824,2090520,2091024,2091228
105,third,60,schön,IAT_green1.bmp,green,starting_melody,melody,starting,m,positive,positive,ES_purple,1,m,709,2093128,2093632,2093836
105,third,61,sonnig,IAT_green2.bmp,green,starting_melody,melody,starting,m,positive,positive,ES_purple,1,m,1393,2095619,2096124,2096328
105,third,62,human,IAT_purple2.bmp,purple,ending_scream,scream,ending,m,positive,positive,ES_purple,0,None,1500,2098796,2099301,2099505
105,third,63,kaputt,IAT_green2.bmp,green,starting_melody,melody,starting,c,negative,positive,ES_purple,1,c,1046,2102580,2103084,2103288
105,third,64,gerecht,IAT_purple3.bmp,purple,ending_scream,scream,ending,m,positive,positive,ES_purple,1,m,783,2105409,2105914,2106118
105,third,65,brutal,IAT_red4.bmp,red,starting_scream,scream,starting,c,negative,negative,ES_purple,1,c,1079,2107977,2108481,2108685
105,third,66,geizig,IAT_green1.bmp,green,starting_melody,melody,starting,c,negative,positive,ES_purple,1,c,910,2110840,2111344,2111548
105,third,67,brutal,IAT_yellow4.bmp,yellow,ending_melody,melody,ending,c,negative,negative,ES_purple,0,m,882,2113534,2114038,2114242
105,third,68,heiter,IAT_yellow3.bmp,yellow,ending_melody,melody,ending,m,positive,negative,ES_purple,1,m,705,2116701,2117205,2117409
105,third,69,lustig,IAT_yellow2.bmp,yellow,ending_melody,melody,ending,m,positive,negative,ES_purple,1,m,1338,2119190,2119695,2119899
105,third,70,munter,IAT_red3.bmp,red,starting_scream,scream,starting,m,positive,negative,ES_purple,0,None,1500,2122313,2122817,2123021
105,third,71,lästig,IAT_green3.bmp,green,starting_melody,melody,starting,c,negative,positive,ES_purple,1,c,646,2126096,2126600,2126804
105,third,72,human,IAT_green3.bmp,green,starting_melody,melody,starting,m,positive,positive,ES_purple,1,m,1242,2128526,2129030,2129235
105,third,73,witzig,IAT_red2.bmp,red,starting_scream,scream,starting,m,positive,negative,ES_purple,0,c,575,2131553,2132058,2132262
105,third,74,munter,IAT_green4.bmp,green,starting_melody,melody,starting,m,positive,positive,ES_purple,1,m,660,2134412,2134916,2135120
105,third,75,morsch,IAT_yellow1.bmp,yellow,ending_melody,melody,ending,c,negative,negative,ES_purple,1,c,842,2136856,2137360,2137565
105,third,76,geizig,IAT_purple4.bmp,purple,ending_scream,scream,ending,c,negative,positive,ES_purple,1,c,644,2139483,2139987,2140191
105,third,77,brutal,IAT_purple4.bmp,purple,ending_scream,scream,ending,c,negative,positive,ES_purple,1,c,747,2141911,2142415,2142619
105,third,78,heiter,IAT_purple1.bmp,purple,ending_scream,scream,ending,m,positive,positive,ES_purple,1,m,579,2144442,2144946,2145150
105,third,79,gerecht,IAT_green1.bmp,green,starting_melody,melody,starting,m,positive,positive,ES_purple,0,c,695,2146804,2147309,2147513
105,third,80,sanft,IAT_red1.bmp,red,starting_scream,scream,starting,m,positive,negative,ES_purple,1,m,1220,2149795,2150299,2150503
105,third,81,witzig,IAT_green3.bmp,green,starting_melody,melody,starting,m,positive,positive,ES_purple,1,m,897,2152800,2153304,2153508
105,third,82,gerecht,IAT_yellow2.bmp,yellow,ending_melody,melody,ending,m,positive,negative,ES_purple,1,m,738,2155482,2155986,2156190
105,third,83,teuer,IAT_purple2.bmp,purple,ending_scream,scream,ending,c,negative,positive,ES_purple,1,c,603,2158005,2158509,2158713
105,third,84,gierig,IAT_green2.bmp,green,starting_melody,melody,starting,c,negative,positive,ES_purple,0,m,1171,2160392,2160897,2161101
105,third,85,sozial,IAT_red3.bmp,red,starting_scream,scream,starting,m,positive,negative,ES_purple,1,m,556,2163848,2164353,2164557
105,third,86,falsch,IAT_green2.bmp,green,starting_melody,melody,starting,c,negative,positive,ES_purple,1,c,556,2166189,2166693,2166897
105,third,87,gierig,IAT_yellow4.bmp,yellow,ending_melody,melody,ending,c,negative,negative,ES_purple,1,c,728,2168531,2169035,2169239
105,third,88,gesund,IAT_green1.bmp,green,starting_melody,melody,starting,m,positive,positive,ES_purple,1,m,694,2171043,2171548,2171752
105,third,89,lustig,IAT_red4.bmp,red,starting_scream,scream,starting,m,positive,negative,ES_purple,1,m,688,2173523,2174028,2174232
105,third,90,heiter,IAT_red4.bmp,red,starting_scream,scream,starting,m,positive,negative,ES_purple,1,m,668,2175996,2176500,2176704
105,third,91,sanft,IAT_purple3.bmp,purple,ending_scream,scream,ending,m,positive,positive,ES_purple,0,c,820,2178448,2178953,2179157
105,third,92,lästig,IAT_purple3.bmp,purple,ending_scream,scream,ending,c,negative,positive,ES_purple,1,c,1004,2181553,2182057,2182261
105,third,93,lustig,IAT_yellow3.bmp,yellow,ending_melody,melody,ending,m,positive,negative,ES_purple,1,m,618,2184342,2184846,2185050
105,third,94,falsch,IAT_yellow2.bmp,yellow,ending_melody,melody,ending,c,negative,negative,ES_purple,1,c,853,2186745,2187249,2187453
105,third,95,streng,IAT_green4.bmp,green,starting_melody,melody,starting,c,negative,positive,ES_purple,0,None,1500,2189382,2189886,2190090
105,forth,0,sozial,IAT_red3.bmp,red,starting_scream,scream,starting,m,positive,negative,ES_purple,0,None,1500,2209345,2209850,2210054
105,forth,1,schön,IAT_red1.bmp,red,starting_scream,scream,starting,m,positive,negative,ES_purple,1,m,781,2213632,2214136,2214340
105,forth,2,morsch,IAT_red4.bmp,red,starting_scream,scream,starting,c,negative,negative,ES_purple,1,c,494,2216195,2216700,2216904
105,forth,3,krank,IAT_red1.bmp,red,starting_scream,scream,starting,c,negative,negative,ES_purple,1,c,608,2218473,2218977,2219181
105,forth,4,gierig,IAT_yellow4.bmp,yellow,ending_melody,melody,ending,c,negative,negative,ES_purple,0,m,444,2220864,2221368,2221572
105,forth,5,human,IAT_green3.bmp,green,starting_melody,melody,starting,m,positive,positive,ES_purple,1,m,613,2223593,2224097,2224301
105,forth,6,falsch,IAT_red3.bmp,red,starting_scream,scream,starting,c,negative,negative,ES_purple,1,c,415,2225989,2226494,2226698
105,forth,7,morsch,IAT_green2.bmp,green,starting_melody,melody,starting,c,negative,positive,ES_purple,1,c,585,2228188,2228692,2228896
105,forth,8,lästig,IAT_yellow4.bmp,yellow,ending_melody,melody,ending,c,negative,negative,ES_purple,1,c,631,2230557,2231061,2231266
105,forth,9,schön,IAT_red2.bmp,red,starting_scream,scream,starting,m,positive,negative,ES_purple,1,m,534,2232973,2233477,2233681
105,forth,10,kaputt,IAT_purple3.bmp,purple,ending_scream,scream,ending,c,negative,positive,ES_purple,1,c,811,2235290,2235794,2235999
105,forth,11,ehrlich,IAT_yellow4.bmp,yellow,ending_melody,melody,ending,m,positive,negative,ES_purple,1,m,643,2237886,2238390,2238594
105,forth,12,gerecht,IAT_yellow1.bmp,yellow,ending_melody,melody,ending,m,positive,negative,ES_purple,1,m,606,2240313,2240817,2241021
105,forth,13,einsam,IAT_green4.bmp,green,starting_melody,melody,starting,c,negative,positive,ES_purple,1,c,639,2242702,2243207,2243411
105,forth,14,ehrlich,IAT_purple1.bmp,purple,ending_scream,scream,ending,m,positive,positive,ES_purple,1,m,1020,2245128,2245633,2245837
105,forth,15,sonnig,IAT_yellow2.bmp,yellow,ending_melody,melody,ending,m,positive,negative,ES_purple,1,m,442,2247932,2248436,2248640
105,forth,16,lästig,IAT_yellow1.bmp,yellow,ending_melody,melody,ending,c,negative,negative,ES_purple,0,m,622,2250159,2250663,2250868
105,forth,17,sanft,IAT_green1.bmp,green,starting_melody,melody,starting,m,positive,positive,ES_purple,1,m,624,2253065,2253570,2253774
105,forth,18,brutal,IAT_yellow2.bmp,yellow,ending_melody,melody,ending,c,negative,negative,ES_purple,1,c,751,2255473,2255977,2256181
105,forth,19,witzig,IAT_purple3.bmp,purple,ending_scream,scream,ending,m,positive,positive,ES_purple,1,m,610,2258008,2258512,2258716
105,forth,20,lustig,IAT_yellow1.bmp,yellow,ending_melody,melody,ending,m,positive,negative,ES_purple,1,m,521,2260401,2260906,2261110
105,forth,21,munter,IAT_yellow4.bmp,yellow,ending_melody,melody,ending,m,positive,negative,ES_purple,1,m,495,2262707,2263211,2263415
105,forth,22,heiter,IAT_green1.bmp,green,starting_melody,melody,starting,m,positive,positive,ES_purple,1,m,627,2264986,2265490,2265694
105,forth,23,munter,IAT_red3.bmp,red,starting_scream,scream,starting,m,positive,negative,ES_purple,1,m,595,2267396,2267900,2268104
105,forth,24,feige,IAT_green2.bmp,green,starting_melody,melody,starting,c,negative,positive,ES_purple,0,m,497,2269774,2270278,2270482
105,forth,25,gerecht,IAT_yellow1.bmp,yellow,ending_melody,melody,ending,m,positive,negative,ES_purple,1,m,526,2272554,2273058,2273262
105,forth,26,lästig,IAT_purple2.bmp,purple,ending_scream,scream,ending,c,negative,positive,ES_purple,1,c,722,2274864,2275368,2275572
105,forth,27,streng,IAT_green1.bmp,green,starting_melody,melody,starting,c,negative,positive,ES_purple,1,c,843,2277370,2277874,2278078
105,forth,28,falsch,IAT_green2.bmp,green,starting_melody,melody,starting,c,negative,positive,ES_purple,1,c,650,2279996,2280502,2280706
105,forth,29,schön,IAT_green4.bmp,green,starting_melody,melody,starting,m,positive,positive,ES_purple,1,m,751,2282432,2282936,2283140
105,forth,30,kaputt,IAT_green2.bmp,green,starting_melody,melody,starting,c,negative,positive,ES_purple,1,c,496,2284967,2285471,2285675
105,forth,31,ehrlich,IAT_purple2.bmp,purple,ending_scream,scream,ending,m,positive,positive,ES_purple,1,m,943,2287248,2287752,2287956
105,forth,32,sonnig,IAT_green1.bmp,green,starting_melody,melody,starting,m,positive,positive,ES_purple,1,m,498,2289974,2290478,2290682
105,forth,33,human,IAT_red1.bmp,red,starting_scream,scream,starting,m,positive,negative,ES_purple,1,m,735,2292256,2292761,2292966
105,forth,34,lustig,IAT_purple2.bmp,purple,ending_scream,scream,ending,m,positive,positive,ES_purple,1,m,796,2294777,2295281,2295485
105,forth,35,gesund,IAT_purple1.bmp,purple,ending_scream,scream,ending,m,positive,positive,ES_purple,1,m,732,2297357,2297861,2298065
105,forth,36,human,IAT_red1.bmp,red,starting_scream,scream,starting,m,positive,negative,ES_purple,1,m,929,2299873,2300377,2300581
105,forth,37,sonnig,IAT_yellow3.bmp,yellow,ending_melody,melody,ending,m,positive,negative,ES_purple,1,m,668,2302586,2303090,2303294
105,forth,38,lustig,IAT_green3.bmp,green,starting_melody,melody,starting,m,positive,positive,ES_purple,1,m,830,2305038,2305542,2305746
105,forth,39,heiter,IAT_green3.bmp,green,starting_melody,melody,starting,m,positive,positive,ES_purple,1,m,628,2307653,2308158,2308362
105,forth,40,gerecht,IAT_purple1.bmp,purple,ending_scream,scream,ending,m,positive,positive,ES_purple,1,m,601,2310066,2310570,2310775
105,forth,41,sanft,IAT_green1.bmp,green,starting_melody,melody,starting,m,positive,positive,ES_purple,1,m,1069,2312452,2312956,2313160
105,forth,42,feige,IAT_yellow2.bmp,yellow,ending_melody,melody,ending,c,negative,negative,ES_purple,0,m,973,2315305,2315809,2316013
105,forth,43,heiter,IAT_yellow1.bmp,yellow,ending_melody,melody,ending,m,positive,negative,ES_purple,1,m,1063,2318563,2319067,2319271
105,forth,44,gierig,IAT_purple2.bmp,purple,ending_scream,scream,ending,c,negative,positive,ES_purple,1,c,759,2321410,2321915,2322119
105,forth,45,sozial,IAT_yellow3.bmp,yellow,ending_melody,melody,ending,m,positive,negative,ES_purple,1,m,664,2323953,2324458,2324662
105,forth,46,streng,IAT_red2.bmp,red,starting_scream,scream,starting,c,negative,negative,ES_purple,1,c,740,2326402,2326906,2327110
105,forth,47,gierig,IAT_red2.bmp,red,starting_scream,scream,starting,c,negative,negative,ES_purple,1,c,827,2328926,2329430,2329635
105,forth,48,einsam,IAT_purple2.bmp,purple,ending_scream,scream,ending,c,negative,positive,ES_purple,1,c,533,2331539,2332043,2332247
105,forth,49,geizig,IAT_green4.bmp,green,starting_melody,melody,starting,c,negative,positive,ES_purple,1,c,669,2333856,2334361,2334565
105,forth,50,falsch,IAT_purple3.bmp,purple,ending_scream,scream,ending,c,negative,positive,ES_purple,1,c,491,2336311,2336815,2337019
105,forth,51,sanft,IAT_green2.bmp,green,starting_melody,melody,starting,m,positive,positive,ES_purple,1,m,522,2338585,2339090,2339294
105,forth,52,brutal,IAT_yellow3.bmp,yellow,ending_melody,melody,ending,c,negative,negative,ES_purple,1,c,486,2340893,2341397,2341601
105,forth,53,heiter,IAT_purple1.bmp,purple,ending_scream,scream,ending,m,positive,positive,ES_purple,0,c,511,2343164,2343668,2343872
105,forth,54,geizig,IAT_purple1.bmp,purple,ending_scream,scream,ending,c,negative,positive,ES_purple,1,c,795,2345960,2346464,2346668
105,forth,55,teuer,IAT_purple2.bmp,purple,ending_scream,scream,ending,c,negative,positive,ES_purple,1,c,662,2348539,2349043,2349247
105,forth,56,lästig,IAT_red2.bmp,red,starting_scream,scream,starting,c,negative,negative,ES_purple,1,c,862,2350985,2351490,2351694
105,forth,57,krank,IAT_red2.bmp,red,starting_scream,scream,starting,c,negative,negative,ES_purple,1,c,867,2353632,2354137,2354341
105,forth,58,schön,IAT_purple3.bmp,purple,ending_scream,scream,ending,m,positive,positive,ES_purple,0,None,1500,2356283,2356788,2356992
105,forth,59,witzig,IAT_purple4.bmp,purple,ending_scream,scream,ending,m,positive,positive,ES_purple,1,m,485,2360568,2361072,2361276
105,forth,60,gesund,IAT_red3.bmp,red,starting_scream,scream,starting,m,positive,negative,ES_purple,1,m,634,2362837,2363341,2363546
105,forth,61,streng,IAT_green1.bmp,green,starting_melody,melody,starting,c,negative,positive,ES_purple,1,c,1164,2365256,2365760,2365965
105,forth,62,sanft,IAT_red3.bmp,red,starting_scream,scream,starting,m,positive,negative,ES_purple,0,None,1500,2368205,2368709,2368913
105,forth,63,munter,IAT_purple3.bmp,purple,ending_scream,scream,ending,m,positive,positive,ES_purple,1,m,601,2372488,2372992,2373197
105,forth,64,gerecht,IAT_yellow3.bmp,yellow,ending_melody,melody,ending,m,positive,negative,ES_purple,1,m,589,2374874,2375378,2375582
105,forth,65,brutal,IAT_yellow4.bmp,yellow,ending_melody,melody,ending,c,negative,negative,ES_purple,1,c,516,2377248,2377752,2377956
105,forth,66,gierig,IAT_yellow2.bmp,yellow,ending_melody,melody,ending,c,negative,negative,ES_purple,1,c,669,2379548,2380052,2380256
105,forth,67,munter,IAT_purple3.bmp,purple,ending_scream,scream,ending,m,positive,positive,ES_purple,1,m,533,2382001,2382506,2382710
105,forth,68,morsch,IAT_yellow2.bmp,yellow,ending_melody,melody,ending,c,negative,negative,ES_purple,1,c,581,2384321,2384825,2385029
105,forth,69,sozial,IAT_red2.bmp,red,starting_scream,scream,starting,m,positive,negative,ES_purple,1,m,653,2386687,2387191,2387395
105,forth,70,witzig,IAT_red4.bmp,red,starting_scream,scream,starting,m,positive,negative,ES_purple,0,c,145,2389124,2389629,2389833
105,forth,71,brutal,IAT_red3.bmp,red,starting_scream,scream,starting,c,negative,negative,ES_purple,1,c,908,2391554,2392058,2392262
105,forth,72,ehrlich,IAT_yellow2.bmp,yellow,ending_melody,melody,ending,m,positive,negative,ES_purple,0,None,1500,2394247,2394751,2394955
105,forth,73,sonnig,IAT_purple4.bmp,purple,ending_scream,scream,ending,m,positive,positive,ES_purple,1,m,460,2398531,2399035,2399239
105,forth,74,witzig,IAT_green3.bmp,green,starting_melody,melody,starting,m,positive,positive,ES_purple,1,m,438,2400775,2401279,2401483
105,forth,75,geizig,IAT_purple4.bmp,purple,ending_scream,scream,ending,c,negative,positive,ES_purple,0,m,512,2402998,2403502,2403706
105,forth,76,einsam,IAT_red1.bmp,red,starting_scream,scream,starting,c,negative,negative,ES_purple,1,c,875,2405793,2406298,2406502
105,forth,77,krank,IAT_yellow1.bmp,yellow,ending_melody,melody,ending,c,negative,negative,ES_purple,1,c,470,2408453,2408957,2409161
105,forth,78,teuer,IAT_green3.bmp,green,starting_melody,melody,starting,c,negative,positive,ES_purple,1,c,654,2410707,2411212,2411416
105,forth,79,krank,IAT_yellow4.bmp,yellow,ending_melody,melody,ending,c,negative,negative,ES_purple,1,c,703,2413147,2413652,2413856
105,forth,80,human,IAT_yellow3.bmp,yellow,ending_melody,melody,ending,m,positive,negative,ES_purple,0,c,1132,2415636,2416140,2416344
105,forth,81,gesund,IAT_green2.bmp,green,starting_melody,melody,starting,m,positive,positive,ES_purple,1,m,615,2419052,2419556,2419760
105,forth,82,feige,IAT_purple4.bmp,purple,ending_scream,scream,ending,c,negative,positive,ES_purple,0,m,527,2421451,2421955,2422159
105,forth,83,streng,IAT_yellow3.bmp,yellow,ending_melody,melody,ending,c,negative,negative,ES_purple,0,m,1103,2424263,2424767,2424971
105,forth,84,morsch,IAT_red4.bmp,red,starting_scream,scream,starting,c,negative,negative,ES_purple,1,c,1038,2427651,2428156,2428360
105,forth,85,einsam,IAT_green4.bmp,green,starting_melody,melody,starting,c,negative,positive,ES_purple,1,c,602,2430473,2430978,2431182
105,forth,86,teuer,IAT_purple4.bmp,purple,ending_scream,scream,ending,c,negative,positive,ES_purple,1,c,483,2432861,2433365,2433569
105,forth,87,geizig,IAT_green3.bmp,green,starting_melody,melody,starting,c,negative,positive,ES_purple,1,c,590,2435129,2435633,2435837
105,forth,88,kaputt,IAT_red4.bmp,red,starting_scream,scream,starting,c,negative,negative,ES_purple,1,c,1175,2437503,2438008,2438212
105,forth,89,sozial,IAT_green4.bmp,green,starting_melody,melody,starting,m,positive,positive,ES_purple,1,m,604,2440463,2440967,2441171
105,forth,90,feige,IAT_purple1.bmp,purple,ending_scream,scream,ending,c,negative,positive,ES_purple,1,c,608,2442852,2443356,2443560
105,forth,91,lustig,IAT_red4.bmp,red,starting_scream,scream,starting,m,positive,negative,ES_purple,1,m,994,2445244,2445748,2445952
105,forth,92,falsch,IAT_red4.bmp,red,starting_scream,scream,starting,c,negative,negative,ES_purple,1,c,1195,2448023,2448528,2448732
105,forth,93,gesund,IAT_red1.bmp,red,starting_scream,scream,starting,m,positive,negative,ES_purple,1,m,565,2451004,2451508,2451712
105,forth,94,teuer,IAT_green4.bmp,green,starting_melody,melody,starting,c,negative,positive,ES_purple,1,c,751,2453353,2453857,2454061
105,forth,95,kaputt,IAT_purple4.bmp,purple,ending_scream,scream,ending,c,negative,positive,ES_purple,1,c,543,2455887,2456392,2456596
