subject_nr,block,trialnr,trial_target,trial_prime,prime_color,prime_role,prime_us,prime_relation,correct_response,target_valence,prime_valence,color_counter,correct_first_response,response_first_response,response_time_first_response,fixation_show,prime_show,target_show
6,first,0,morsch,IAT_red2.bmp,red,ending_scream,scream,ending,c,negative,positive,ES_red,1,c,701,1375712,1376216,1376420
6,first,1,munter,IAT_yellow3.bmp,yellow,starting_scream,scream,starting,m,positive,negative,ES_red,1,m,551,1378195,1378699,1378903
6,first,2,lästig,IAT_purple2.bmp,purple,starting_melody,melody,starting,c,negative,positive,ES_red,1,c,1137,1380527,1381031,1381235
6,first,3,falsch,IAT_green2.bmp,green,ending_melody,melody,ending,c,negative,negative,ES_red,1,c,867,1383444,1383948,1384152
6,first,4,brutal,IAT_red2.bmp,red,ending_scream,scream,ending,c,negative,positive,ES_red,1,c,671,1386091,1386595,1386799
6,first,5,geizig,IAT_purple4.bmp,purple,starting_melody,melody,starting,c,negative,positive,ES_red,0,m,559,1388543,1389047,1389251
6,first,6,ehrlich,IAT_red4.bmp,red,ending_scream,scream,ending,m,positive,positive,ES_red,0,c,647,1391383,1391887,1392091
6,first,7,schön,IAT_yellow1.bmp,yellow,starting_scream,scream,starting,m,positive,negative,ES_red,0,None,1500,1394311,1394815,1395019
6,first,8,feige,IAT_yellow3.bmp,yellow,starting_scream,scream,starting,c,negative,negative,ES_red,1,c,655,1398091,1398595,1398799
6,first,9,munter,IAT_red3.bmp,red,ending_scream,scream,ending,m,positive,positive,ES_red,1,m,562,1400527,1401032,1401236
6,first,10,einsam,IAT_purple2.bmp,purple,starting_melody,melody,starting,c,negative,positive,ES_red,0,m,606,1402870,1403375,1403579
6,first,11,geizig,IAT_yellow4.bmp,yellow,starting_scream,scream,starting,c,negative,negative,ES_red,1,c,630,1405757,1406262,1406466
6,first,12,einsam,IAT_yellow2.bmp,yellow,starting_scream,scream,starting,c,negative,negative,ES_red,1,c,605,1408169,1408674,1408878
6,first,13,falsch,IAT_green1.bmp,green,ending_melody,melody,ending,c,negative,negative,ES_red,0,m,422,1410556,1411060,1411264
6,first,14,gierig,IAT_green4.bmp,green,ending_melody,melody,ending,c,negative,negative,ES_red,1,c,533,1413258,1413762,1413966
6,first,15,brutal,IAT_purple1.bmp,purple,starting_melody,melody,starting,c,negative,positive,ES_red,1,c,1477,1415571,1416076,1416280
6,first,16,sozial,IAT_purple3.bmp,purple,starting_melody,melody,starting,m,positive,positive,ES_red,0,c,1327,1418829,1419333,1419537
6,first,17,gesund,IAT_green3.bmp,green,ending_melody,melody,ending,m,positive,negative,ES_red,0,None,1500,1422437,1422941,1423145
6,first,18,sanft,IAT_yellow3.bmp,yellow,starting_scream,scream,starting,m,positive,negative,ES_red,0,c,935,1426217,1426721,1426925
6,first,19,sozial,IAT_purple4.bmp,purple,starting_melody,melody,starting,m,positive,positive,ES_red,1,m,994,1429431,1429935,1430139
6,first,20,krank,IAT_red2.bmp,red,ending_scream,scream,ending,c,negative,positive,ES_red,1,c,846,1432205,1432709,1432913
6,first,21,munter,IAT_green3.bmp,green,ending_melody,melody,ending,m,positive,negative,ES_red,1,m,633,1434831,1435335,1435539
6,first,22,gesund,IAT_yellow3.bmp,yellow,starting_scream,scream,starting,m,positive,negative,ES_red,1,m,950,1437245,1437749,1437953
6,first,23,lustig,IAT_green4.bmp,green,ending_melody,melody,ending,m,positive,negative,ES_red,1,m,518,1439976,1440480,1440684
6,first,24,witzig,IAT_green2.bmp,green,ending_melody,melody,ending,m,positive,negative,ES_red,1,m,564,1442274,1442779,1442983
6,first,25,schön,IAT_purple1.bmp,purple,starting_melody,melody,starting,m,positive,positive,ES_red,1,m,445,1444619,1445124,1445328
6,first,26,witzig,IAT_purple3.bmp,purple,starting_melody,melody,starting,m,positive,positive,ES_red,1,m,494,1446845,1447350,1447555
6,first,27,human,IAT_purple2.bmp,purple,starting_melody,melody,starting,m,positive,positive,ES_red,1,m,494,1449121,1449625,1449829
6,first,28,sozial,IAT_purple3.bmp,purple,starting_melody,melody,starting,m,positive,positive,ES_red,1,m,788,1451395,1451900,1452104
6,first,29,kaputt,IAT_purple2.bmp,purple,starting_melody,melody,starting,c,negative,positive,ES_red,1,c,798,1453964,1454468,1454672
6,first,30,sonnig,IAT_purple1.bmp,purple,starting_melody,melody,starting,m,positive,positive,ES_red,0,c,291,1456542,1457047,1457251
6,first,31,streng,IAT_purple4.bmp,purple,starting_melody,melody,starting,c,negative,positive,ES_red,0,m,409,1459114,1459618,1459823
6,first,32,einsam,IAT_green4.bmp,green,ending_melody,melody,ending,c,negative,negative,ES_red,1,c,1237,1461805,1462309,1462513
6,first,33,feige,IAT_green4.bmp,green,ending_melody,melody,ending,c,negative,negative,ES_red,1,c,535,1464823,1465327,1465531
6,first,34,kaputt,IAT_purple1.bmp,purple,starting_melody,melody,starting,c,negative,positive,ES_red,0,m,923,1467140,1467644,1467848
6,first,35,heiter,IAT_green4.bmp,green,ending_melody,melody,ending,m,positive,negative,ES_red,1,m,1268,1470343,1470847,1471051
6,first,36,streng,IAT_red4.bmp,red,ending_scream,scream,ending,c,negative,positive,ES_red,1,c,577,1473391,1473896,1474100
6,first,37,teuer,IAT_purple2.bmp,purple,starting_melody,melody,starting,c,negative,positive,ES_red,1,c,1031,1475750,1476255,1476459
6,first,38,geizig,IAT_red4.bmp,red,ending_scream,scream,ending,c,negative,positive,ES_red,1,c,886,1478563,1479067,1479271
6,first,39,schön,IAT_red2.bmp,red,ending_scream,scream,ending,m,positive,positive,ES_red,1,m,562,1481229,1481733,1481937
6,first,40,human,IAT_green1.bmp,green,ending_melody,melody,ending,m,positive,negative,ES_red,1,m,793,1483571,1484075,1484279
6,first,41,sonnig,IAT_yellow4.bmp,yellow,starting_scream,scream,starting,m,positive,negative,ES_red,0,c,332,1486145,1486649,1486853
6,first,42,lästig,IAT_purple3.bmp,purple,starting_melody,melody,starting,c,negative,positive,ES_red,0,m,318,1488758,1489262,1489466
6,first,43,sanft,IAT_yellow1.bmp,yellow,starting_scream,scream,starting,m,positive,negative,ES_red,0,c,637,1491357,1491862,1492066
6,first,44,geizig,IAT_green2.bmp,green,ending_melody,melody,ending,c,negative,negative,ES_red,0,m,408,1494276,1494780,1494984
6,first,45,gierig,IAT_red2.bmp,red,ending_scream,scream,ending,c,negative,positive,ES_red,1,c,801,1496964,1497468,1497672
6,first,46,gerecht,IAT_yellow3.bmp,yellow,starting_scream,scream,starting,m,positive,negative,ES_red,0,c,1488,1499546,1500051,1500255
6,first,47,streng,IAT_yellow2.bmp,yellow,starting_scream,scream,starting,c,negative,negative,ES_red,1,c,629,1503316,1503820,1504024
6,first,48,einsam,IAT_yellow4.bmp,yellow,starting_scream,scream,starting,c,negative,negative,ES_red,1,c,516,1505727,1506231,1506435
6,first,49,gierig,IAT_green2.bmp,green,ending_melody,melody,ending,c,negative,negative,ES_red,0,m,1116,1508022,1508527,1508731
6,first,50,streng,IAT_yellow2.bmp,yellow,starting_scream,scream,starting,c,negative,negative,ES_red,1,c,720,1511420,1511924,1512128
6,first,51,gierig,IAT_purple4.bmp,purple,starting_melody,melody,starting,c,negative,positive,ES_red,1,c,576,1513921,1514425,1514629
6,first,52,falsch,IAT_yellow4.bmp,yellow,starting_scream,scream,starting,c,negative,negative,ES_red,1,c,533,1516279,1516783,1516987
6,first,53,lustig,IAT_red1.bmp,red,ending_scream,scream,ending,m,positive,positive,ES_red,1,m,366,1518594,1519099,1519303
6,first,54,brutal,IAT_yellow1.bmp,yellow,starting_scream,scream,starting,c,negative,negative,ES_red,1,c,292,1520742,1521246,1521450
6,first,55,gerecht,IAT_yellow4.bmp,yellow,starting_scream,scream,starting,m,positive,negative,ES_red,0,c,197,1522814,1523318,1523522
6,first,56,ehrlich,IAT_yellow2.bmp,yellow,starting_scream,scream,starting,m,positive,negative,ES_red,0,c,368,1525292,1525796,1526000
6,first,57,kaputt,IAT_green2.bmp,green,ending_melody,melody,ending,c,negative,negative,ES_red,0,m,619,1527941,1528445,1528649
6,first,58,sonnig,IAT_purple4.bmp,purple,starting_melody,melody,starting,m,positive,positive,ES_red,1,m,570,1530841,1531345,1531549
6,first,59,morsch,IAT_yellow4.bmp,yellow,starting_scream,scream,starting,c,negative,negative,ES_red,1,c,443,1533193,1533697,1533901
6,first,60,lustig,IAT_green1.bmp,green,ending_melody,melody,ending,m,positive,negative,ES_red,0,c,632,1535416,1535920,1536124
6,first,61,teuer,IAT_yellow3.bmp,yellow,starting_scream,scream,starting,c,negative,negative,ES_red,1,c,773,1538329,1538833,1539037
6,first,62,witzig,IAT_red1.bmp,red,ending_scream,scream,ending,m,positive,positive,ES_red,1,m,493,1540883,1541387,1541591
6,first,63,morsch,IAT_yellow1.bmp,yellow,starting_scream,scream,starting,c,negative,negative,ES_red,1,c,294,1543157,1543662,1543866
6,first,64,krank,IAT_red4.bmp,red,ending_scream,scream,ending,c,negative,positive,ES_red,1,c,804,1545233,1545737,1545941
6,first,65,lästig,IAT_green3.bmp,green,ending_melody,melody,ending,c,negative,negative,ES_red,0,m,629,1547818,1548323,1548527
6,first,66,sozial,IAT_red1.bmp,red,ending_scream,scream,ending,m,positive,positive,ES_red,0,c,642,1550729,1551233,1551437
6,first,67,teuer,IAT_red3.bmp,red,ending_scream,scream,ending,c,negative,positive,ES_red,0,m,732,1553651,1554155,1554359
6,first,68,gerecht,IAT_green1.bmp,green,ending_melody,melody,ending,m,positive,negative,ES_red,1,m,927,1556664,1557168,1557372
6,first,69,gesund,IAT_purple1.bmp,purple,starting_melody,melody,starting,m,positive,positive,ES_red,1,m,428,1559372,1559876,1560080
6,first,70,brutal,IAT_red4.bmp,red,ending_scream,scream,ending,c,negative,positive,ES_red,1,c,625,1561581,1562085,1562289
6,first,71,sonnig,IAT_green2.bmp,green,ending_melody,melody,ending,m,positive,negative,ES_red,1,m,466,1563987,1564491,1564695
6,first,72,witzig,IAT_purple1.bmp,purple,starting_melody,melody,starting,m,positive,positive,ES_red,1,m,552,1566234,1566738,1566943
6,first,73,human,IAT_yellow1.bmp,yellow,starting_scream,scream,starting,m,positive,negative,ES_red,0,c,853,1568569,1569073,1569277
6,first,74,schön,IAT_red3.bmp,red,ending_scream,scream,ending,m,positive,positive,ES_red,1,m,550,1571703,1572207,1572411
6,first,75,munter,IAT_red3.bmp,red,ending_scream,scream,ending,m,positive,positive,ES_red,1,m,506,1574034,1574538,1574742
6,first,76,gesund,IAT_green3.bmp,green,ending_melody,melody,ending,m,positive,negative,ES_red,1,m,398,1576321,1576825,1577029
6,first,77,ehrlich,IAT_yellow2.bmp,yellow,starting_scream,scream,starting,m,positive,negative,ES_red,0,c,410,1578500,1579005,1579209
6,first,78,lustig,IAT_red3.bmp,red,ending_scream,scream,ending,m,positive,positive,ES_red,1,m,562,1581192,1581696,1581900
6,first,79,ehrlich,IAT_green3.bmp,green,ending_melody,melody,ending,m,positive,negative,ES_red,1,m,641,1583535,1584040,1584244
6,first,80,sanft,IAT_red2.bmp,red,ending_scream,scream,ending,m,positive,positive,ES_red,1,m,716,1585959,1586463,1586667
6,first,81,lästig,IAT_red1.bmp,red,ending_scream,scream,ending,c,negative,positive,ES_red,0,m,354,1588456,1588960,1589164
6,first,82,heiter,IAT_red4.bmp,red,ending_scream,scream,ending,m,positive,positive,ES_red,1,m,620,1591092,1591596,1591800
6,first,83,krank,IAT_green4.bmp,green,ending_melody,melody,ending,c,negative,negative,ES_red,1,c,861,1593493,1593997,1594201
6,first,84,feige,IAT_red1.bmp,red,ending_scream,scream,ending,c,negative,positive,ES_red,1,c,667,1596135,1596639,1596843
6,first,85,human,IAT_purple3.bmp,purple,starting_melody,melody,starting,m,positive,positive,ES_red,0,c,719,1598584,1599088,1599292
6,first,86,kaputt,IAT_green1.bmp,green,ending_melody,melody,ending,c,negative,negative,ES_red,0,m,626,1601584,1602088,1602292
6,first,87,morsch,IAT_purple3.bmp,purple,starting_melody,melody,starting,c,negative,positive,ES_red,1,c,585,1604491,1604995,1605199
6,first,88,gerecht,IAT_purple2.bmp,purple,starting_melody,melody,starting,m,positive,positive,ES_red,0,c,829,1606857,1607362,1607566
6,first,89,falsch,IAT_green3.bmp,green,ending_melody,melody,ending,c,negative,negative,ES_red,0,None,1500,1609970,1610474,1610678
6,first,90,krank,IAT_yellow2.bmp,yellow,starting_scream,scream,starting,c,negative,negative,ES_red,1,c,483,1613751,1614255,1614459
6,first,91,feige,IAT_red3.bmp,red,ending_scream,scream,ending,c,negative,positive,ES_red,0,m,334,1616015,1616519,1616723
6,first,92,heiter,IAT_yellow1.bmp,yellow,starting_scream,scream,starting,m,positive,negative,ES_red,0,c,335,1618630,1619135,1619339
6,first,93,sanft,IAT_red1.bmp,red,ending_scream,scream,ending,m,positive,positive,ES_red,1,m,776,1621247,1621751,1621955
6,first,94,teuer,IAT_purple4.bmp,purple,starting_melody,melody,starting,c,negative,positive,ES_red,0,None,1500,1623804,1624308,1624512
6,first,95,heiter,IAT_green1.bmp,green,ending_melody,melody,ending,m,positive,negative,ES_red,1,m,523,1627585,1628089,1628293
6,second,0,schön,IAT_yellow1.bmp,yellow,starting_scream,scream,starting,m,positive,negative,ES_red,1,m,754,1635772,1636276,1636480
6,second,1,ehrlich,IAT_red3.bmp,red,ending_scream,scream,ending,m,positive,positive,ES_red,0,c,838,1638309,1638813,1639017
6,second,2,sozial,IAT_red4.bmp,red,ending_scream,scream,ending,m,positive,positive,ES_red,1,m,622,1641430,1641935,1642139
6,second,3,feige,IAT_purple4.bmp,purple,starting_melody,melody,starting,c,negative,positive,ES_red,1,c,612,1643833,1644337,1644541
6,second,4,falsch,IAT_purple1.bmp,purple,starting_melody,melody,starting,c,negative,positive,ES_red,0,m,540,1646225,1646729,1646933
6,second,5,gierig,IAT_green3.bmp,green,ending_melody,melody,ending,c,negative,negative,ES_red,0,m,743,1649046,1649551,1649755
6,second,6,geizig,IAT_green2.bmp,green,ending_melody,melody,ending,c,negative,negative,ES_red,1,c,732,1652071,1652575,1652779
6,second,7,gierig,IAT_purple4.bmp,purple,starting_melody,melody,starting,c,negative,positive,ES_red,1,c,819,1654584,1655088,1655292
6,second,8,falsch,IAT_red1.bmp,red,ending_scream,scream,ending,c,negative,positive,ES_red,0,m,1284,1657184,1657688,1657892
6,second,9,teuer,IAT_green4.bmp,green,ending_melody,melody,ending,c,negative,negative,ES_red,0,m,764,1660750,1661254,1661458
6,second,10,krank,IAT_green4.bmp,green,ending_melody,melody,ending,c,negative,negative,ES_red,1,c,979,1663795,1664299,1664503
6,second,11,gerecht,IAT_yellow4.bmp,yellow,starting_scream,scream,starting,m,positive,negative,ES_red,1,m,682,1666556,1667060,1667264
6,second,12,feige,IAT_red4.bmp,red,ending_scream,scream,ending,c,negative,positive,ES_red,1,c,577,1669019,1669524,1669728
6,second,13,lustig,IAT_purple4.bmp,purple,starting_melody,melody,starting,m,positive,positive,ES_red,1,m,730,1671379,1671883,1672087
6,second,14,brutal,IAT_green1.bmp,green,ending_melody,melody,ending,c,negative,negative,ES_red,1,c,668,1673890,1674394,1674598
6,second,15,sonnig,IAT_red3.bmp,red,ending_scream,scream,ending,m,positive,positive,ES_red,0,c,729,1676339,1676843,1677047
6,second,16,morsch,IAT_red4.bmp,red,ending_scream,scream,ending,c,negative,positive,ES_red,0,m,454,1679350,1679855,1680059
6,second,17,ehrlich,IAT_yellow3.bmp,yellow,starting_scream,scream,starting,m,positive,negative,ES_red,0,c,865,1682086,1682590,1682794
6,second,18,geizig,IAT_green2.bmp,green,ending_melody,melody,ending,c,negative,negative,ES_red,1,c,719,1685231,1685735,1685939
6,second,19,sanft,IAT_purple2.bmp,purple,starting_melody,melody,starting,m,positive,positive,ES_red,1,m,501,1687731,1688236,1688440
6,second,20,sonnig,IAT_purple1.bmp,purple,starting_melody,melody,starting,m,positive,positive,ES_red,0,c,851,1690014,1690519,1690723
6,second,21,krank,IAT_yellow1.bmp,yellow,starting_scream,scream,starting,c,negative,negative,ES_red,1,c,451,1693147,1693651,1693855
6,second,22,human,IAT_purple2.bmp,purple,starting_melody,melody,starting,m,positive,positive,ES_red,1,m,498,1695380,1695884,1696088
6,second,23,kaputt,IAT_green4.bmp,green,ending_melody,melody,ending,c,negative,negative,ES_red,1,c,1069,1697660,1698164,1698368
6,second,24,lästig,IAT_yellow4.bmp,yellow,starting_scream,scream,starting,c,negative,negative,ES_red,1,c,619,1700510,1701015,1701219
6,second,25,brutal,IAT_yellow4.bmp,yellow,starting_scream,scream,starting,c,negative,negative,ES_red,1,c,362,1702911,1703415,1703619
6,second,26,feige,IAT_green2.bmp,green,ending_melody,melody,ending,c,negative,negative,ES_red,0,m,434,1705054,1705558,1705762
6,second,27,lustig,IAT_red1.bmp,red,ending_scream,scream,ending,m,positive,positive,ES_red,0,c,1149,1707769,1708274,1708478
6,second,28,sonnig,IAT_red1.bmp,red,ending_scream,scream,ending,m,positive,positive,ES_red,1,m,433,1711201,1711705,1711909
6,second,29,geizig,IAT_red2.bmp,red,ending_scream,scream,ending,c,negative,positive,ES_red,1,c,656,1713414,1713919,1714123
6,second,30,heiter,IAT_yellow3.bmp,yellow,starting_scream,scream,starting,m,positive,negative,ES_red,0,c,290,1715851,1716356,1716560
6,second,31,gerecht,IAT_yellow3.bmp,yellow,starting_scream,scream,starting,m,positive,negative,ES_red,0,c,478,1718424,1718928,1719132
6,second,32,falsch,IAT_green4.bmp,green,ending_melody,melody,ending,c,negative,negative,ES_red,0,m,684,1721183,1721687,1721891
6,second,33,streng,IAT_red1.bmp,red,ending_scream,scream,ending,c,negative,positive,ES_red,1,c,1070,1724149,1724653,1724857
6,second,34,ehrlich,IAT_red1.bmp,red,ending_scream,scream,ending,m,positive,positive,ES_red,1,m,743,1727001,1727505,1727709
6,second,35,munter,IAT_purple3.bmp,purple,starting_melody,melody,starting,m,positive,positive,ES_red,1,m,505,1729525,1730029,1730233
6,second,36,schön,IAT_green4.bmp,green,ending_melody,melody,ending,m,positive,negative,ES_red,1,m,529,1731811,1732315,1732519
6,second,37,human,IAT_purple1.bmp,purple,starting_melody,melody,starting,m,positive,positive,ES_red,1,m,268,1734121,1734626,1734830
6,second,38,lästig,IAT_purple4.bmp,purple,starting_melody,melody,starting,c,negative,positive,ES_red,1,c,590,1736171,1736675,1736879
6,second,39,gierig,IAT_green1.bmp,green,ending_melody,melody,ending,c,negative,negative,ES_red,1,c,994,1738542,1739046,1739250
6,second,40,teuer,IAT_purple2.bmp,purple,starting_melody,melody,starting,c,negative,positive,ES_red,0,m,664,1741318,1741823,1742027
6,second,41,witzig,IAT_green2.bmp,green,ending_melody,melody,ending,m,positive,negative,ES_red,1,m,997,1744264,1744768,1744972
6,second,42,einsam,IAT_purple1.bmp,purple,starting_melody,melody,starting,c,negative,positive,ES_red,0,m,724,1747042,1747546,1747750
6,second,43,gerecht,IAT_green1.bmp,green,ending_melody,melody,ending,m,positive,negative,ES_red,0,c,737,1750047,1750552,1750756
6,second,44,geizig,IAT_green3.bmp,green,ending_melody,melody,ending,c,negative,negative,ES_red,0,m,763,1753066,1753570,1753774
6,second,45,streng,IAT_purple3.bmp,purple,starting_melody,melody,starting,c,negative,positive,ES_red,0,m,728,1756110,1756614,1756818
6,second,46,heiter,IAT_yellow1.bmp,yellow,starting_scream,scream,starting,m,positive,negative,ES_red,0,c,706,1759120,1759624,1759828
6,second,47,human,IAT_purple1.bmp,purple,starting_melody,melody,starting,m,positive,positive,ES_red,1,m,658,1762108,1762612,1762816
6,second,48,lästig,IAT_yellow4.bmp,yellow,starting_scream,scream,starting,c,negative,negative,ES_red,1,c,499,1764549,1765053,1765257
6,second,49,kaputt,IAT_purple2.bmp,purple,starting_melody,melody,starting,c,negative,positive,ES_red,0,m,371,1766830,1767335,1767539
6,second,50,witzig,IAT_green1.bmp,green,ending_melody,melody,ending,m,positive,negative,ES_red,1,m,538,1769482,1769987,1770191
6,second,51,brutal,IAT_red3.bmp,red,ending_scream,scream,ending,c,negative,positive,ES_red,1,c,575,1771803,1772307,1772511
6,second,52,einsam,IAT_red2.bmp,red,ending_scream,scream,ending,c,negative,positive,ES_red,1,c,485,1774159,1774664,1774868
6,second,53,lustig,IAT_green2.bmp,green,ending_melody,melody,ending,m,positive,negative,ES_red,1,m,546,1776425,1776930,1777134
6,second,54,streng,IAT_red2.bmp,red,ending_scream,scream,ending,c,negative,positive,ES_red,1,c,696,1778755,1779259,1779463
6,second,55,sanft,IAT_yellow2.bmp,yellow,starting_scream,scream,starting,m,positive,negative,ES_red,0,c,331,1781232,1781736,1781940
6,second,56,schön,IAT_red3.bmp,red,ending_scream,scream,ending,m,positive,positive,ES_red,1,m,648,1783845,1784349,1784553
6,second,57,gesund,IAT_purple1.bmp,purple,starting_melody,melody,starting,m,positive,positive,ES_red,1,m,518,1786275,1786779,1786983
6,second,58,sozial,IAT_green4.bmp,green,ending_melody,melody,ending,m,positive,negative,ES_red,1,m,474,1788575,1789079,1789283
6,second,59,sanft,IAT_green3.bmp,green,ending_melody,melody,ending,m,positive,negative,ES_red,1,m,495,1790830,1791335,1791539
6,second,60,feige,IAT_yellow2.bmp,yellow,starting_scream,scream,starting,c,negative,negative,ES_red,1,c,425,1793108,1793613,1793817
6,second,61,witzig,IAT_purple3.bmp,purple,starting_melody,melody,starting,m,positive,positive,ES_red,1,m,326,1795315,1795819,1796023
6,second,62,brutal,IAT_green2.bmp,green,ending_melody,melody,ending,c,negative,negative,ES_red,1,c,550,1797423,1797927,1798131
6,second,63,sonnig,IAT_purple4.bmp,purple,starting_melody,melody,starting,m,positive,positive,ES_red,1,m,335,1799754,1800259,1800463
6,second,64,streng,IAT_yellow4.bmp,yellow,starting_scream,scream,starting,c,negative,negative,ES_red,1,c,373,1801872,1802377,1802581
6,second,65,teuer,IAT_purple2.bmp,purple,starting_melody,melody,starting,c,negative,positive,ES_red,0,m,478,1804027,1804532,1804736
6,second,66,gerecht,IAT_red3.bmp,red,ending_scream,scream,ending,m,positive,positive,ES_red,1,m,378,1806789,1807293,1807497
6,second,67,morsch,IAT_purple4.bmp,purple,starting_melody,melody,starting,c,negative,positive,ES_red,1,c,701,1808949,1809453,1809657
6,second,68,sozial,IAT_yellow3.bmp,yellow,starting_scream,scream,starting,m,positive,negative,ES_red,0,c,542,1811431,1811935,1812139
6,second,69,schön,IAT_purple3.bmp,purple,starting_melody,melody,starting,m,positive,positive,ES_red,1,m,515,1814255,1814760,1814964
6,second,70,gierig,IAT_red4.bmp,red,ending_scream,scream,ending,c,negative,positive,ES_red,1,c,503,1816552,1817056,1817261
6,second,71,einsam,IAT_yellow3.bmp,yellow,starting_scream,scream,starting,c,negative,negative,ES_red,1,c,341,1818839,1819343,1819547
6,second,72,kaputt,IAT_purple2.bmp,purple,starting_melody,melody,starting,c,negative,positive,ES_red,1,c,566,1820961,1821466,1821670
6,second,73,falsch,IAT_red2.bmp,red,ending_scream,scream,ending,c,negative,positive,ES_red,1,c,602,1823310,1823814,1824018
6,second,74,kaputt,IAT_yellow2.bmp,yellow,starting_scream,scream,starting,c,negative,negative,ES_red,1,c,408,1825694,1826199,1826403
6,second,75,lästig,IAT_yellow3.bmp,yellow,starting_scream,scream,starting,c,negative,negative,ES_red,1,c,285,1827885,1828389,1828593
6,second,76,krank,IAT_red3.bmp,red,ending_scream,scream,ending,c,negative,positive,ES_red,0,m,364,1829953,1830457,1830661
6,second,77,morsch,IAT_yellow2.bmp,yellow,starting_scream,scream,starting,c,negative,negative,ES_red,1,c,356,1832600,1833104,1833308
6,second,78,witzig,IAT_green3.bmp,green,ending_melody,melody,ending,m,positive,negative,ES_red,1,m,438,1834739,1835243,1835447
6,second,79,krank,IAT_purple3.bmp,purple,starting_melody,melody,starting,c,negative,positive,ES_red,0,m,391,1836959,1837464,1837668
6,second,80,teuer,IAT_yellow1.bmp,yellow,starting_scream,scream,starting,c,negative,negative,ES_red,1,c,622,1839632,1840137,1840341
6,second,81,lustig,IAT_yellow4.bmp,yellow,starting_scream,scream,starting,m,positive,negative,ES_red,1,m,541,1842038,1842543,1842747
6,second,82,morsch,IAT_red4.bmp,red,ending_scream,scream,ending,c,negative,positive,ES_red,0,m,911,1844361,1844865,1845069
6,second,83,munter,IAT_purple3.bmp,purple,starting_melody,melody,starting,m,positive,positive,ES_red,1,m,514,1847553,1848057,1848261
6,second,84,heiter,IAT_yellow1.bmp,yellow,starting_scream,scream,starting,m,positive,negative,ES_red,0,c,530,1849850,1850354,1850558
6,second,85,sozial,IAT_yellow2.bmp,yellow,starting_scream,scream,starting,m,positive,negative,ES_red,0,c,431,1852662,1853167,1853371
6,second,86,munter,IAT_green3.bmp,green,ending_melody,melody,ending,m,positive,negative,ES_red,1,m,437,1855376,1855880,1856084
6,second,87,gesund,IAT_green1.bmp,green,ending_melody,melody,ending,m,positive,negative,ES_red,1,m,408,1857595,1858099,1858303
6,second,88,human,IAT_red2.bmp,red,ending_scream,scream,ending,m,positive,positive,ES_red,1,m,446,1859785,1860289,1860493
6,second,89,einsam,IAT_yellow2.bmp,yellow,starting_scream,scream,starting,c,negative,negative,ES_red,1,c,516,1862013,1862517,1862721
6,second,90,heiter,IAT_green3.bmp,green,ending_melody,melody,ending,m,positive,negative,ES_red,1,m,450,1864310,1864815,1865019
6,second,91,munter,IAT_red1.bmp,red,ending_scream,scream,ending,m,positive,positive,ES_red,1,m,410,1866543,1867047,1867251
6,second,92,gesund,IAT_green1.bmp,green,ending_melody,melody,ending,m,positive,negative,ES_red,1,m,385,1868734,1869238,1869442
6,second,93,sanft,IAT_red2.bmp,red,ending_scream,scream,ending,m,positive,positive,ES_red,1,m,432,1870902,1871406,1871610
6,second,94,gesund,IAT_red4.bmp,red,ending_scream,scream,ending,m,positive,positive,ES_red,1,m,292,1873116,1873620,1873824
6,second,95,ehrlich,IAT_yellow1.bmp,yellow,starting_scream,scream,starting,m,positive,negative,ES_red,0,c,293,1875190,1875695,1875899
6,third,0,teuer,IAT_purple1.bmp,purple,starting_melody,melody,starting,c,negative,positive,ES_red,0,m,1056,1913315,1913819,1914023
6,third,1,sozial,IAT_green1.bmp,green,ending_melody,melody,ending,m,positive,negative,ES_red,1,m,398,1916653,1917158,1917363
6,third,2,munter,IAT_purple1.bmp,purple,starting_melody,melody,starting,m,positive,positive,ES_red,1,m,540,1918833,1919337,1919541
6,third,3,heiter,IAT_purple4.bmp,purple,starting_melody,melody,starting,m,positive,positive,ES_red,1,m,528,1921153,1921657,1921861
6,third,4,einsam,IAT_yellow2.bmp,yellow,starting_scream,scream,starting,c,negative,negative,ES_red,1,c,345,1923463,1923967,1924171
6,third,5,streng,IAT_yellow2.bmp,yellow,starting_scream,scream,starting,c,negative,negative,ES_red,1,c,293,1925590,1926095,1926299
6,third,6,sonnig,IAT_green3.bmp,green,ending_melody,melody,ending,m,positive,negative,ES_red,1,m,241,1927665,1928169,1928373
6,third,7,human,IAT_yellow3.bmp,yellow,starting_scream,scream,starting,m,positive,negative,ES_red,0,c,258,1929687,1930192,1930396
6,third,8,sanft,IAT_green3.bmp,green,ending_melody,melody,ending,m,positive,negative,ES_red,1,m,318,1932228,1932732,1932936
6,third,9,gerecht,IAT_red1.bmp,red,ending_scream,scream,ending,m,positive,positive,ES_red,1,m,19,1934327,1934832,1935036
6,third,10,teuer,IAT_red2.bmp,red,ending_scream,scream,ending,c,negative,positive,ES_red,0,m,200,1936129,1936633,1936837
6,third,11,krank,IAT_red2.bmp,red,ending_scream,scream,ending,c,negative,positive,ES_red,0,m,443,1938611,1939115,1939319
6,third,12,lustig,IAT_green1.bmp,green,ending_melody,melody,ending,m,positive,negative,ES_red,1,m,624,1941335,1941839,1942043
6,third,13,feige,IAT_red3.bmp,red,ending_scream,scream,ending,c,negative,positive,ES_red,0,m,591,1943741,1944245,1944449
6,third,14,lästig,IAT_green2.bmp,green,ending_melody,melody,ending,c,negative,negative,ES_red,0,m,507,1946613,1947117,1947321
6,third,15,munter,IAT_red4.bmp,red,ending_scream,scream,ending,m,positive,positive,ES_red,1,m,1136,1949401,1949906,1950110
6,third,16,gesund,IAT_yellow3.bmp,yellow,starting_scream,scream,starting,m,positive,negative,ES_red,1,m,558,1952320,1952824,1953028
6,third,17,morsch,IAT_red1.bmp,red,ending_scream,scream,ending,c,negative,positive,ES_red,0,m,517,1954662,1955166,1955370
6,third,18,ehrlich,IAT_yellow4.bmp,yellow,starting_scream,scream,starting,m,positive,negative,ES_red,0,c,418,1957461,1957965,1958169
6,third,19,gesund,IAT_yellow2.bmp,yellow,starting_scream,scream,starting,m,positive,negative,ES_red,0,c,153,1960161,1960665,1960869
6,third,20,gierig,IAT_purple3.bmp,purple,starting_melody,melody,starting,c,negative,positive,ES_red,0,m,386,1962595,1963100,1963304
6,third,21,lästig,IAT_yellow3.bmp,yellow,starting_scream,scream,starting,c,negative,negative,ES_red,1,c,748,1965264,1965768,1965973
6,third,22,sozial,IAT_green1.bmp,green,ending_melody,melody,ending,m,positive,negative,ES_red,1,m,489,1967794,1968298,1968503
6,third,23,feige,IAT_green1.bmp,green,ending_melody,melody,ending,c,negative,negative,ES_red,0,m,334,1970065,1970570,1970774
6,third,24,gierig,IAT_yellow4.bmp,yellow,starting_scream,scream,starting,c,negative,negative,ES_red,1,c,537,1972682,1973186,1973390
6,third,25,gerecht,IAT_purple3.bmp,purple,starting_melody,melody,starting,m,positive,positive,ES_red,1,m,317,1975000,1975504,1975708
6,third,26,munter,IAT_green4.bmp,green,ending_melody,melody,ending,m,positive,negative,ES_red,1,m,390,1977099,1977603,1977807
6,third,27,feige,IAT_green4.bmp,green,ending_melody,melody,ending,c,negative,negative,ES_red,1,c,597,1979270,1979774,1979978
6,third,28,krank,IAT_green4.bmp,green,ending_melody,melody,ending,c,negative,negative,ES_red,1,c,540,1981649,1982154,1982358
6,third,29,heiter,IAT_yellow3.bmp,yellow,starting_scream,scream,starting,m,positive,negative,ES_red,0,c,510,1983972,1984477,1984681
6,third,30,schön,IAT_red3.bmp,red,ending_scream,scream,ending,m,positive,positive,ES_red,1,m,439,1986765,1987269,1987474
6,third,31,teuer,IAT_purple4.bmp,purple,starting_melody,melody,starting,c,negative,positive,ES_red,1,c,575,1988987,1989491,1989695
6,third,32,geizig,IAT_yellow1.bmp,yellow,starting_scream,scream,starting,c,negative,negative,ES_red,1,c,731,1991344,1991848,1992052
6,third,33,gesund,IAT_green1.bmp,green,ending_melody,melody,ending,m,positive,negative,ES_red,1,m,499,1993856,1994360,1994564
6,third,34,sonnig,IAT_red1.bmp,red,ending_scream,scream,ending,m,positive,positive,ES_red,1,m,484,1996138,1996642,1996846
6,third,35,streng,IAT_green2.bmp,green,ending_melody,melody,ending,c,negative,negative,ES_red,1,c,558,1998403,1998908,1999112
6,third,36,falsch,IAT_green3.bmp,green,ending_melody,melody,ending,c,negative,negative,ES_red,0,m,420,2000744,2001248,2001452
6,third,37,witzig,IAT_green3.bmp,green,ending_melody,melody,ending,m,positive,negative,ES_red,1,m,420,2003445,2003950,2004154
6,third,38,kaputt,IAT_yellow1.bmp,yellow,starting_scream,scream,starting,c,negative,negative,ES_red,1,c,338,2005649,2006153,2006357
6,third,39,sanft,IAT_red3.bmp,red,ending_scream,scream,ending,m,positive,positive,ES_red,1,m,382,2007769,2008273,2008477
6,third,40,ehrlich,IAT_red2.bmp,red,ending_scream,scream,ending,m,positive,positive,ES_red,1,m,482,2009932,2010437,2010641
6,third,41,human,IAT_yellow1.bmp,yellow,starting_scream,scream,starting,m,positive,negative,ES_red,0,c,304,2012197,2012701,2012905
6,third,42,brutal,IAT_red2.bmp,red,ending_scream,scream,ending,c,negative,positive,ES_red,1,c,589,2014782,2015286,2015490
6,third,43,sozial,IAT_yellow1.bmp,yellow,starting_scream,scream,starting,m,positive,negative,ES_red,1,m,691,2017154,2017658,2017862
6,third,44,geizig,IAT_purple4.bmp,purple,starting_melody,melody,starting,c,negative,positive,ES_red,0,m,542,2019626,2020130,2020334
6,third,45,morsch,IAT_purple2.bmp,purple,starting_melody,melody,starting,c,negative,positive,ES_red,0,m,1139,2022450,2022954,2023158
6,third,46,gerecht,IAT_purple3.bmp,purple,starting_melody,melody,starting,m,positive,positive,ES_red,1,m,485,2025871,2026376,2026580
6,third,47,witzig,IAT_red1.bmp,red,ending_scream,scream,ending,m,positive,positive,ES_red,0,c,489,2028139,2028643,2028847
6,third,48,einsam,IAT_red4.bmp,red,ending_scream,scream,ending,c,negative,positive,ES_red,0,m,440,2030911,2031415,2031622
6,third,49,gesund,IAT_red3.bmp,red,ending_scream,scream,ending,m,positive,positive,ES_red,1,m,477,2033636,2034140,2034344
6,third,50,falsch,IAT_green3.bmp,green,ending_melody,melody,ending,c,negative,negative,ES_red,1,c,625,2035895,2036399,2036603
6,third,51,einsam,IAT_green2.bmp,green,ending_melody,melody,ending,c,negative,negative,ES_red,1,c,639,2038301,2038805,2039009
6,third,52,sozial,IAT_green2.bmp,green,ending_melody,melody,ending,m,positive,negative,ES_red,1,m,544,2040721,2041226,2041430
6,third,53,sonnig,IAT_green4.bmp,green,ending_melody,melody,ending,m,positive,negative,ES_red,1,m,610,2043049,2043553,2043757
6,third,54,streng,IAT_yellow4.bmp,yellow,starting_scream,scream,starting,c,negative,negative,ES_red,1,c,408,2045441,2045945,2046149
6,third,55,sanft,IAT_purple1.bmp,purple,starting_melody,melody,starting,m,positive,positive,ES_red,1,m,473,2047632,2048136,2048340
6,third,56,gerecht,IAT_purple1.bmp,purple,starting_melody,melody,starting,m,positive,positive,ES_red,0,c,582,2049886,2050390,2050594
6,third,57,sonnig,IAT_purple3.bmp,purple,starting_melody,melody,starting,m,positive,positive,ES_red,1,m,36,2052749,2053254,2053458
6,third,58,lästig,IAT_green1.bmp,green,ending_melody,melody,ending,c,negative,negative,ES_red,1,c,703,2054570,2055074,2055278
6,third,59,kaputt,IAT_red4.bmp,red,ending_scream,scream,ending,c,negative,positive,ES_red,0,m,422,2057056,2057560,2057764
6,third,60,geizig,IAT_green4.bmp,green,ending_melody,melody,ending,c,negative,negative,ES_red,1,c,891,2059761,2060265,2060469
6,third,61,krank,IAT_yellow4.bmp,yellow,starting_scream,scream,starting,c,negative,negative,ES_red,1,c,570,2062435,2062939,2063143
6,third,62,feige,IAT_red3.bmp,red,ending_scream,scream,ending,c,negative,positive,ES_red,1,c,642,2064788,2065292,2065496
6,third,63,ehrlich,IAT_red2.bmp,red,ending_scream,scream,ending,m,positive,positive,ES_red,1,m,479,2067213,2067717,2067921
6,third,64,gierig,IAT_purple4.bmp,purple,starting_melody,melody,starting,c,negative,positive,ES_red,1,c,766,2069473,2069977,2070181
6,third,65,human,IAT_purple2.bmp,purple,starting_melody,melody,starting,m,positive,positive,ES_red,1,m,375,2072021,2072525,2072729
6,third,66,brutal,IAT_yellow2.bmp,yellow,starting_scream,scream,starting,c,negative,negative,ES_red,1,c,362,2074179,2074684,2074888
6,third,67,falsch,IAT_purple1.bmp,purple,starting_melody,melody,starting,c,negative,positive,ES_red,0,m,363,2076323,2076828,2077032
6,third,68,morsch,IAT_purple2.bmp,purple,starting_melody,melody,starting,c,negative,positive,ES_red,0,m,476,2078970,2079474,2079678
6,third,69,falsch,IAT_green2.bmp,green,ending_melody,melody,ending,c,negative,negative,ES_red,1,c,522,2081726,2082231,2082435
6,third,70,lustig,IAT_red3.bmp,red,ending_scream,scream,ending,m,positive,positive,ES_red,1,m,522,2084030,2084535,2084739
6,third,71,kaputt,IAT_purple4.bmp,purple,starting_melody,melody,starting,c,negative,positive,ES_red,0,m,380,2086335,2086839,2087043
6,third,72,krank,IAT_red4.bmp,red,ending_scream,scream,ending,c,negative,positive,ES_red,0,m,463,2088997,2089502,2089706
6,third,73,schön,IAT_red4.bmp,red,ending_scream,scream,ending,m,positive,positive,ES_red,1,m,530,2091743,2092247,2092451
6,third,74,teuer,IAT_yellow2.bmp,yellow,starting_scream,scream,starting,c,negative,negative,ES_red,1,c,377,2094056,2094560,2094764
6,third,75,heiter,IAT_purple4.bmp,purple,starting_melody,melody,starting,m,positive,positive,ES_red,1,m,459,2096215,2096720,2096924
6,third,76,kaputt,IAT_red1.bmp,red,ending_scream,scream,ending,c,negative,positive,ES_red,1,c,546,2098457,2098962,2099166
6,third,77,lästig,IAT_purple3.bmp,purple,starting_melody,melody,starting,c,negative,positive,ES_red,1,c,809,2100785,2101290,2101494
6,third,78,einsam,IAT_purple2.bmp,purple,starting_melody,melody,starting,c,negative,positive,ES_red,1,c,729,2103376,2103880,2104084
6,third,79,brutal,IAT_purple2.bmp,purple,starting_melody,melody,starting,c,negative,positive,ES_red,1,c,460,2105886,2106390,2106594
6,third,80,witzig,IAT_red1.bmp,red,ending_scream,scream,ending,m,positive,positive,ES_red,1,m,427,2108128,2108633,2108837
6,third,81,lustig,IAT_purple3.bmp,purple,starting_melody,melody,starting,m,positive,positive,ES_red,0,c,778,2110337,2110841,2111045
6,third,82,witzig,IAT_purple1.bmp,purple,starting_melody,melody,starting,m,positive,positive,ES_red,1,m,472,2113398,2113902,2114106
6,third,83,munter,IAT_yellow4.bmp,yellow,starting_scream,scream,starting,m,positive,negative,ES_red,0,c,477,2115653,2116157,2116361
6,third,84,morsch,IAT_yellow3.bmp,yellow,starting_scream,scream,starting,c,negative,negative,ES_red,1,c,419,2118412,2118916,2119120
6,third,85,gierig,IAT_red2.bmp,red,ending_scream,scream,ending,c,negative,positive,ES_red,0,m,456,2120614,2121118,2121322
6,third,86,lustig,IAT_yellow2.bmp,yellow,starting_scream,scream,starting,m,positive,negative,ES_red,1,m,567,2123352,2123857,2124061
6,third,87,heiter,IAT_yellow3.bmp,yellow,starting_scream,scream,starting,m,positive,negative,ES_red,0,c,298,2125701,2126205,2126409
6,third,88,schön,IAT_green3.bmp,green,ending_melody,melody,ending,m,positive,negative,ES_red,1,m,346,2128281,2128785,2128989
6,third,89,geizig,IAT_yellow4.bmp,yellow,starting_scream,scream,starting,c,negative,negative,ES_red,1,c,429,2130410,2130914,2131118
6,third,90,ehrlich,IAT_yellow1.bmp,yellow,starting_scream,scream,starting,m,positive,negative,ES_red,0,c,358,2132621,2133125,2133329
6,third,91,brutal,IAT_red4.bmp,red,ending_scream,scream,ending,c,negative,positive,ES_red,1,c,663,2135261,2135766,2135970
6,third,92,streng,IAT_green4.bmp,green,ending_melody,melody,ending,c,negative,negative,ES_red,0,m,331,2137708,2138212,2138416
6,third,93,human,IAT_purple2.bmp,purple,starting_melody,melody,starting,m,positive,positive,ES_red,1,m,371,2140321,2140826,2141030
6,third,94,sanft,IAT_yellow1.bmp,yellow,starting_scream,scream,starting,m,positive,negative,ES_red,0,c,446,2142475,2142980,2143184
6,third,95,schön,IAT_green2.bmp,green,ending_melody,melody,ending,m,positive,negative,ES_red,1,m,455,2145204,2145709,2145913
6,forth,0,heiter,IAT_green3.bmp,green,ending_melody,melody,ending,m,positive,negative,ES_red,1,m,559,2151687,2152191,2152395
6,forth,1,teuer,IAT_red3.bmp,red,ending_scream,scream,ending,c,negative,positive,ES_red,1,c,485,2154029,2154534,2154738
6,forth,2,gerecht,IAT_green1.bmp,green,ending_melody,melody,ending,m,positive,negative,ES_red,1,m,388,2156295,2156800,2157004
6,forth,3,schön,IAT_purple4.bmp,purple,starting_melody,melody,starting,m,positive,positive,ES_red,1,m,427,2158465,2158970,2159174
6,forth,4,ehrlich,IAT_green2.bmp,green,ending_melody,melody,ending,m,positive,negative,ES_red,0,c,784,2160674,2161179,2161383
6,forth,5,krank,IAT_yellow2.bmp,yellow,starting_scream,scream,starting,c,negative,negative,ES_red,1,c,409,2163741,2164246,2164450
6,forth,6,sozial,IAT_red3.bmp,red,ending_scream,scream,ending,m,positive,positive,ES_red,1,m,505,2165932,2166436,2166640
6,forth,7,human,IAT_yellow2.bmp,yellow,starting_scream,scream,starting,m,positive,negative,ES_red,0,c,642,2168219,2168723,2168927
6,forth,8,streng,IAT_red3.bmp,red,ending_scream,scream,ending,c,negative,positive,ES_red,1,c,652,2171143,2171647,2171851
6,forth,9,lästig,IAT_red2.bmp,red,ending_scream,scream,ending,c,negative,positive,ES_red,0,m,391,2173578,2174083,2174287
6,forth,10,munter,IAT_green3.bmp,green,ending_melody,melody,ending,m,positive,negative,ES_red,1,m,574,2176251,2176756,2176960
6,forth,11,witzig,IAT_red1.bmp,red,ending_scream,scream,ending,m,positive,positive,ES_red,1,m,422,2178609,2179113,2179317
6,forth,12,sanft,IAT_red3.bmp,red,ending_scream,scream,ending,m,positive,positive,ES_red,1,m,397,2180813,2181317,2181521
6,forth,13,sonnig,IAT_red4.bmp,red,ending_scream,scream,ending,m,positive,positive,ES_red,1,m,360,2182991,2183495,2183699
6,forth,14,streng,IAT_red4.bmp,red,ending_scream,scream,ending,c,negative,positive,ES_red,0,m,274,2185132,2185636,2185840
6,forth,15,einsam,IAT_yellow4.bmp,yellow,starting_scream,scream,starting,c,negative,negative,ES_red,1,c,284,2187689,2188194,2188398
6,forth,16,falsch,IAT_purple1.bmp,purple,starting_melody,melody,starting,c,negative,positive,ES_red,1,c,709,2189756,2190261,2190465
6,forth,17,krank,IAT_green1.bmp,green,ending_melody,melody,ending,c,negative,negative,ES_red,0,m,516,2192247,2192752,2192956
6,forth,18,lustig,IAT_yellow3.bmp,yellow,starting_scream,scream,starting,m,positive,negative,ES_red,0,c,310,2195046,2195550,2195754
6,forth,19,falsch,IAT_red4.bmp,red,ending_scream,scream,ending,c,negative,positive,ES_red,0,m,279,2197639,2198143,2198347
6,forth,20,krank,IAT_green2.bmp,green,ending_melody,melody,ending,c,negative,negative,ES_red,1,c,478,2200200,2200704,2200908
6,forth,21,kaputt,IAT_purple2.bmp,purple,starting_melody,melody,starting,c,negative,positive,ES_red,0,m,472,2202460,2202965,2203169
6,forth,22,witzig,IAT_red4.bmp,red,ending_scream,scream,ending,m,positive,positive,ES_red,1,m,153,2205214,2205718,2205922
6,forth,23,einsam,IAT_purple1.bmp,purple,starting_melody,melody,starting,c,negative,positive,ES_red,1,c,533,2207150,2207654,2207858
6,forth,24,gesund,IAT_green3.bmp,green,ending_melody,melody,ending,m,positive,negative,ES_red,1,m,329,2209465,2209969,2210173
6,forth,25,brutal,IAT_green4.bmp,green,ending_melody,melody,ending,c,negative,negative,ES_red,1,c,530,2211575,2212079,2212283
6,forth,26,sozial,IAT_red2.bmp,red,ending_scream,scream,ending,m,positive,positive,ES_red,1,m,320,2213888,2214392,2214596
6,forth,27,sanft,IAT_green2.bmp,green,ending_melody,melody,ending,m,positive,negative,ES_red,0,c,443,2215990,2216494,2216698
6,forth,28,gesund,IAT_purple3.bmp,purple,starting_melody,melody,starting,m,positive,positive,ES_red,1,m,797,2218715,2219220,2219424
6,forth,29,ehrlich,IAT_red3.bmp,red,ending_scream,scream,ending,m,positive,positive,ES_red,1,m,369,2221294,2221799,2222003
6,forth,30,kaputt,IAT_purple3.bmp,purple,starting_melody,melody,starting,c,negative,positive,ES_red,1,c,423,2223445,2223950,2224154
6,forth,31,gerecht,IAT_yellow1.bmp,yellow,starting_scream,scream,starting,m,positive,negative,ES_red,0,c,397,2225652,2226156,2226360
6,forth,32,einsam,IAT_purple4.bmp,purple,starting_melody,melody,starting,c,negative,positive,ES_red,0,m,64,2228330,2228834,2229038
6,forth,33,sozial,IAT_yellow1.bmp,yellow,starting_scream,scream,starting,m,positive,negative,ES_red,0,c,299,2230677,2231181,2231385
6,forth,34,sonnig,IAT_purple1.bmp,purple,starting_melody,melody,starting,m,positive,positive,ES_red,1,m,299,2233259,2233763,2233967
6,forth,35,kaputt,IAT_green2.bmp,green,ending_melody,melody,ending,c,negative,negative,ES_red,0,m,421,2235339,2235844,2236048
6,forth,36,gesund,IAT_purple1.bmp,purple,starting_melody,melody,starting,m,positive,positive,ES_red,1,m,339,2238042,2238546,2238750
6,forth,37,witzig,IAT_yellow1.bmp,yellow,starting_scream,scream,starting,m,positive,negative,ES_red,0,c,371,2240163,2240667,2240871
6,forth,38,ehrlich,IAT_red1.bmp,red,ending_scream,scream,ending,m,positive,positive,ES_red,1,m,410,2242816,2243321,2243525
6,forth,39,munter,IAT_purple2.bmp,purple,starting_melody,melody,starting,m,positive,positive,ES_red,1,m,364,2245009,2245513,2245717
6,forth,40,sonnig,IAT_green3.bmp,green,ending_melody,melody,ending,m,positive,negative,ES_red,1,m,470,2247155,2247659,2247863
6,forth,41,falsch,IAT_purple4.bmp,purple,starting_melody,melody,starting,c,negative,positive,ES_red,0,m,364,2249407,2249911,2250115
6,forth,42,feige,IAT_purple2.bmp,purple,starting_melody,melody,starting,c,negative,positive,ES_red,1,c,509,2252052,2252557,2252761
6,forth,43,sozial,IAT_yellow4.bmp,yellow,starting_scream,scream,starting,m,positive,negative,ES_red,1,m,808,2254343,2254847,2255051
6,forth,44,schön,IAT_purple4.bmp,purple,starting_melody,melody,starting,m,positive,positive,ES_red,1,m,447,2256933,2257437,2257641
6,forth,45,gerecht,IAT_yellow3.bmp,yellow,starting_scream,scream,starting,m,positive,negative,ES_red,1,m,489,2259162,2259666,2259870
6,forth,46,lästig,IAT_yellow2.bmp,yellow,starting_scream,scream,starting,c,negative,negative,ES_red,1,c,835,2261433,2261938,2262142
6,forth,47,schön,IAT_yellow1.bmp,yellow,starting_scream,scream,starting,m,positive,negative,ES_red,1,m,424,2264052,2264556,2264760
6,forth,48,teuer,IAT_green3.bmp,green,ending_melody,melody,ending,c,negative,negative,ES_red,1,c,996,2266259,2266764,2266968
6,forth,49,heiter,IAT_purple3.bmp,purple,starting_melody,melody,starting,m,positive,positive,ES_red,1,m,531,2269038,2269543,2269747
6,forth,50,lästig,IAT_green1.bmp,green,ending_melody,melody,ending,c,negative,negative,ES_red,0,m,335,2271352,2271856,2272060
6,forth,51,feige,IAT_green2.bmp,green,ending_melody,melody,ending,c,negative,negative,ES_red,0,m,145,2273969,2274474,2274678
6,forth,52,teuer,IAT_purple4.bmp,purple,starting_melody,melody,starting,c,negative,positive,ES_red,1,c,1411,2276397,2276902,2277106
6,forth,53,human,IAT_red3.bmp,red,ending_scream,scream,ending,m,positive,positive,ES_red,1,m,436,2279591,2280096,2280300
6,forth,54,sanft,IAT_green1.bmp,green,ending_melody,melody,ending,m,positive,negative,ES_red,1,m,507,2281810,2282314,2282518
6,forth,55,streng,IAT_yellow1.bmp,yellow,starting_scream,scream,starting,c,negative,negative,ES_red,1,c,426,2284100,2284604,2284808
6,forth,56,einsam,IAT_red1.bmp,red,ending_scream,scream,ending,c,negative,positive,ES_red,0,m,309,2286308,2286814,2287018
6,forth,57,feige,IAT_green3.bmp,green,ending_melody,melody,ending,c,negative,negative,ES_red,0,m,378,2288900,2289405,2289609
6,forth,58,falsch,IAT_yellow2.bmp,yellow,starting_scream,scream,starting,c,negative,negative,ES_red,1,c,327,2291562,2292066,2292270
6,forth,59,munter,IAT_green1.bmp,green,ending_melody,melody,ending,m,positive,negative,ES_red,1,m,384,2293671,2294175,2294379
6,forth,60,feige,IAT_purple2.bmp,purple,starting_melody,melody,starting,c,negative,positive,ES_red,1,c,741,2295837,2296342,2296547
6,forth,61,gierig,IAT_purple4.bmp,purple,starting_melody,melody,starting,c,negative,positive,ES_red,0,m,525,2298362,2298866,2299070
6,forth,62,lustig,IAT_yellow3.bmp,yellow,starting_scream,scream,starting,m,positive,negative,ES_red,0,c,610,2301170,2301674,2301878
6,forth,63,witzig,IAT_yellow2.bmp,yellow,starting_scream,scream,starting,m,positive,negative,ES_red,0,c,306,2304064,2304569,2304773
6,forth,64,streng,IAT_red4.bmp,red,ending_scream,scream,ending,c,negative,positive,ES_red,1,c,581,2306653,2307157,2307361
6,forth,65,gerecht,IAT_purple2.bmp,purple,starting_melody,melody,starting,m,positive,positive,ES_red,1,m,302,2309016,2309520,2309724
6,forth,66,morsch,IAT_yellow4.bmp,yellow,starting_scream,scream,starting,c,negative,negative,ES_red,1,c,589,2311101,2311605,2311809
6,forth,67,gierig,IAT_yellow3.bmp,yellow,starting_scream,scream,starting,c,negative,negative,ES_red,1,c,404,2313472,2313976,2314180
6,forth,68,brutal,IAT_red4.bmp,red,ending_scream,scream,ending,c,negative,positive,ES_red,0,m,396,2315659,2316163,2316367
6,forth,69,geizig,IAT_yellow1.bmp,yellow,starting_scream,scream,starting,c,negative,negative,ES_red,1,c,58,2318338,2318842,2319046
6,forth,70,sonnig,IAT_yellow4.bmp,yellow,starting_scream,scream,starting,m,positive,negative,ES_red,0,c,153,2320179,2320683,2320887
6,forth,71,kaputt,IAT_purple2.bmp,purple,starting_melody,melody,starting,c,negative,positive,ES_red,0,m,425,2322615,2323119,2323323
6,forth,72,morsch,IAT_yellow2.bmp,yellow,starting_scream,scream,starting,c,negative,negative,ES_red,0,m,455,2325323,2325827,2326031
6,forth,73,brutal,IAT_purple3.bmp,purple,starting_melody,melody,starting,c,negative,positive,ES_red,0,m,155,2328072,2328576,2328780
6,forth,74,gesund,IAT_green4.bmp,green,ending_melody,melody,ending,m,positive,negative,ES_red,1,m,3,2330509,2331014,2331218
6,forth,75,morsch,IAT_yellow4.bmp,yellow,starting_scream,scream,starting,c,negative,negative,ES_red,1,c,909,2332296,2332801,2333005
6,forth,76,munter,IAT_red1.bmp,red,ending_scream,scream,ending,m,positive,positive,ES_red,1,m,414,2334989,2335493,2335698
6,forth,77,lästig,IAT_yellow3.bmp,yellow,starting_scream,scream,starting,c,negative,negative,ES_red,1,c,246,2337189,2337693,2337897
6,forth,78,geizig,IAT_red2.bmp,red,ending_scream,scream,ending,c,negative,positive,ES_red,0,m,270,2339219,2339723,2339927
6,forth,79,brutal,IAT_green4.bmp,green,ending_melody,melody,ending,c,negative,negative,ES_red,1,c,22,2341771,2342276,2342480
6,forth,80,morsch,IAT_red2.bmp,red,ending_scream,scream,ending,c,negative,positive,ES_red,0,m,357,2343578,2344082,2344286
6,forth,81,teuer,IAT_red1.bmp,red,ending_scream,scream,ending,c,negative,positive,ES_red,1,c,139,2346218,2346722,2346926
6,forth,82,lustig,IAT_purple1.bmp,purple,starting_melody,melody,starting,m,positive,positive,ES_red,1,m,429,2348140,2348644,2348848
6,forth,83,gierig,IAT_green4.bmp,green,ending_melody,melody,ending,c,negative,negative,ES_red,1,c,377,2350351,2350856,2351060
6,forth,84,heiter,IAT_purple3.bmp,purple,starting_melody,melody,starting,m,positive,positive,ES_red,1,m,177,2352511,2353015,2353219
6,forth,85,human,IAT_red2.bmp,red,ending_scream,scream,ending,m,positive,positive,ES_red,1,m,619,2354470,2354975,2355179
6,forth,86,geizig,IAT_green4.bmp,green,ending_melody,melody,ending,c,negative,negative,ES_red,0,m,347,2356872,2357377,2357581
6,forth,87,lustig,IAT_green1.bmp,green,ending_melody,melody,ending,m,positive,negative,ES_red,1,m,375,2359502,2360006,2360210
6,forth,88,heiter,IAT_green4.bmp,green,ending_melody,melody,ending,m,positive,negative,ES_red,1,m,169,2361660,2362164,2362368
6,forth,89,krank,IAT_green2.bmp,green,ending_melody,melody,ending,c,negative,negative,ES_red,0,m,410,2363611,2364116,2364320
6,forth,90,human,IAT_purple1.bmp,purple,starting_melody,melody,starting,m,positive,positive,ES_red,1,m,368,2366305,2366809,2367013
6,forth,91,ehrlich,IAT_yellow3.bmp,yellow,starting_scream,scream,starting,m,positive,negative,ES_red,0,c,314,2368455,2368959,2369163
6,forth,92,sanft,IAT_purple3.bmp,purple,starting_melody,melody,starting,m,positive,positive,ES_red,1,m,227,2371052,2371556,2371760
6,forth,93,gierig,IAT_red2.bmp,red,ending_scream,scream,ending,c,negative,positive,ES_red,0,m,350,2373062,2373567,2373771
6,forth,94,schön,IAT_red1.bmp,red,ending_scream,scream,ending,m,positive,positive,ES_red,1,m,347,2375695,2376200,2376404
6,forth,95,geizig,IAT_yellow4.bmp,yellow,starting_scream,scream,starting,c,negative,negative,ES_red,1,c,295,2377825,2378330,2378534
