subject_nr,block,trialnr,trial_target,trial_prime,prime_color,prime_role,prime_us,prime_relation,correct_response,target_valence,prime_valence,color_counter,correct_first_response,response_first_response,response_time_first_response,fixation_show,prime_show,target_show
117,first,0,gerecht,IAT_red1.bmp,red,ending_melody,melody,ending,m,positive,negative,ES_green,0,None,1500,1397152,1397656,1397861
117,first,1,witzig,IAT_purple1.bmp,purple,starting_scream,scream,starting,m,positive,negative,ES_green,1,m,517,1400935,1401441,1401645
117,first,2,sanft,IAT_yellow3.bmp,yellow,starting_melody,melody,starting,m,positive,positive,ES_green,1,m,862,1403272,1403776,1403981
117,first,3,gerecht,IAT_purple3.bmp,purple,starting_scream,scream,starting,m,positive,negative,ES_green,1,m,464,1405959,1406464,1406669
117,first,4,ehrlich,IAT_yellow3.bmp,yellow,starting_melody,melody,starting,m,positive,positive,ES_green,1,m,426,1408208,1408712,1408917
117,first,5,lustig,IAT_green2.bmp,green,ending_scream,scream,ending,m,positive,positive,ES_green,1,m,488,1410417,1410921,1411126
117,first,6,gesund,IAT_green3.bmp,green,ending_scream,scream,ending,m,positive,positive,ES_green,1,m,496,1412688,1413193,1413398
117,first,7,falsch,IAT_red4.bmp,red,ending_melody,melody,ending,c,negative,negative,ES_green,1,c,513,1414968,1415472,1415677
117,first,8,geizig,IAT_purple4.bmp,purple,starting_scream,scream,starting,c,negative,negative,ES_green,1,c,618,1417264,1417768,1417972
117,first,9,falsch,IAT_purple1.bmp,purple,starting_scream,scream,starting,c,negative,negative,ES_green,1,c,463,1419665,1420169,1420373
117,first,10,teuer,IAT_red2.bmp,red,ending_melody,melody,ending,c,negative,negative,ES_green,0,m,504,1421947,1422452,1422657
117,first,11,witzig,IAT_green1.bmp,green,ending_scream,scream,ending,m,positive,positive,ES_green,1,m,796,1424734,1425238,1425442
117,first,12,lästig,IAT_yellow3.bmp,yellow,starting_melody,melody,starting,c,negative,positive,ES_green,1,c,741,1427312,1427817,1428021
117,first,13,munter,IAT_yellow4.bmp,yellow,starting_melody,melody,starting,m,positive,positive,ES_green,1,m,544,1429837,1430342,1430547
117,first,14,sonnig,IAT_red1.bmp,red,ending_melody,melody,ending,m,positive,negative,ES_green,1,m,522,1432165,1432671,1432875
117,first,15,lustig,IAT_yellow1.bmp,yellow,starting_melody,melody,starting,m,positive,positive,ES_green,1,m,581,1434471,1434976,1435180
117,first,16,einsam,IAT_green2.bmp,green,ending_scream,scream,ending,c,negative,positive,ES_green,1,c,711,1436836,1437341,1437545
117,first,17,feige,IAT_purple3.bmp,purple,starting_scream,scream,starting,c,negative,negative,ES_green,1,c,674,1439331,1439835,1440041
117,first,18,einsam,IAT_yellow4.bmp,yellow,starting_melody,melody,starting,c,negative,positive,ES_green,1,c,602,1441789,1442294,1442498
117,first,19,teuer,IAT_yellow1.bmp,yellow,starting_melody,melody,starting,c,negative,positive,ES_green,1,c,573,1444174,1444679,1444883
117,first,20,brutal,IAT_green1.bmp,green,ending_scream,scream,ending,c,negative,positive,ES_green,1,c,541,1446531,1447035,1447239
117,first,21,witzig,IAT_yellow1.bmp,yellow,starting_melody,melody,starting,m,positive,positive,ES_green,1,m,586,1448856,1449360,1449564
117,first,22,schön,IAT_red3.bmp,red,ending_melody,melody,ending,m,positive,negative,ES_green,1,m,449,1451225,1451730,1451935
117,first,23,feige,IAT_red1.bmp,red,ending_melody,melody,ending,c,negative,negative,ES_green,1,c,545,1453459,1453964,1454169
117,first,24,heiter,IAT_purple2.bmp,purple,starting_scream,scream,starting,m,positive,negative,ES_green,0,c,638,1455791,1456295,1456499
117,first,25,ehrlich,IAT_green1.bmp,green,ending_scream,scream,ending,m,positive,positive,ES_green,1,m,519,1458712,1459216,1459420
117,first,26,gesund,IAT_purple3.bmp,purple,starting_scream,scream,starting,m,positive,negative,ES_green,1,m,499,1461014,1461518,1461722
117,first,27,teuer,IAT_red3.bmp,red,ending_melody,melody,ending,c,negative,negative,ES_green,1,c,606,1463295,1463799,1464003
117,first,28,kaputt,IAT_purple3.bmp,purple,starting_scream,scream,starting,c,negative,negative,ES_green,1,c,572,1465683,1466187,1466391
117,first,29,sonnig,IAT_green4.bmp,green,ending_scream,scream,ending,m,positive,positive,ES_green,1,m,659,1468065,1468569,1468773
117,first,30,human,IAT_green1.bmp,green,ending_scream,scream,ending,m,positive,positive,ES_green,1,m,531,1470507,1471011,1471216
117,first,31,einsam,IAT_green3.bmp,green,ending_scream,scream,ending,c,negative,positive,ES_green,1,c,654,1472822,1473326,1473531
117,first,32,streng,IAT_green3.bmp,green,ending_scream,scream,ending,c,negative,positive,ES_green,1,c,660,1475259,1475764,1475968
117,first,33,gierig,IAT_red2.bmp,red,ending_melody,melody,ending,c,negative,negative,ES_green,1,c,574,1477703,1478207,1478412
117,first,34,morsch,IAT_red3.bmp,red,ending_melody,melody,ending,c,negative,negative,ES_green,1,c,625,1480062,1480566,1480771
117,first,35,brutal,IAT_purple4.bmp,purple,starting_scream,scream,starting,c,negative,negative,ES_green,1,c,599,1482471,1482975,1483179
117,first,36,ehrlich,IAT_yellow2.bmp,yellow,starting_melody,melody,starting,m,positive,positive,ES_green,1,m,534,1484852,1485357,1485562
117,first,37,kaputt,IAT_red2.bmp,red,ending_melody,melody,ending,c,negative,negative,ES_green,1,c,545,1487172,1487676,1487880
117,first,38,gierig,IAT_purple4.bmp,purple,starting_scream,scream,starting,c,negative,negative,ES_green,1,c,578,1489501,1490005,1490211
117,first,39,streng,IAT_yellow2.bmp,yellow,starting_melody,melody,starting,c,negative,positive,ES_green,1,c,701,1491863,1492367,1492571
117,first,40,witzig,IAT_purple4.bmp,purple,starting_scream,scream,starting,m,positive,negative,ES_green,1,m,651,1494347,1494852,1495057
117,first,41,kaputt,IAT_yellow2.bmp,yellow,starting_melody,melody,starting,c,negative,positive,ES_green,1,c,525,1496783,1497287,1497491
117,first,42,gierig,IAT_green4.bmp,green,ending_scream,scream,ending,c,negative,positive,ES_green,1,c,627,1499092,1499596,1499800
117,first,43,sanft,IAT_red1.bmp,red,ending_melody,melody,ending,m,positive,negative,ES_green,1,m,469,1501503,1502007,1502211
117,first,44,gesund,IAT_yellow3.bmp,yellow,starting_melody,melody,starting,m,positive,positive,ES_green,1,m,664,1503755,1504259,1504463
117,first,45,human,IAT_purple1.bmp,purple,starting_scream,scream,starting,m,positive,negative,ES_green,1,m,561,1506202,1506707,1506911
117,first,46,schön,IAT_purple2.bmp,purple,starting_scream,scream,starting,m,positive,negative,ES_green,1,m,538,1508547,1509052,1509257
117,first,47,sozial,IAT_red3.bmp,red,ending_melody,melody,ending,m,positive,negative,ES_green,1,m,804,1510871,1511375,1511579
117,first,48,gesund,IAT_yellow4.bmp,yellow,starting_melody,melody,starting,m,positive,positive,ES_green,1,m,427,1513457,1513961,1514166
117,first,49,sanft,IAT_purple1.bmp,purple,starting_scream,scream,starting,m,positive,negative,ES_green,1,m,615,1515667,1516171,1516376
117,first,50,gerecht,IAT_purple1.bmp,purple,starting_scream,scream,starting,m,positive,negative,ES_green,1,m,552,1518066,1518570,1518774
117,first,51,streng,IAT_purple2.bmp,purple,starting_scream,scream,starting,c,negative,negative,ES_green,1,c,647,1520402,1520906,1521110
117,first,52,morsch,IAT_green4.bmp,green,ending_scream,scream,ending,c,negative,positive,ES_green,1,c,545,1522832,1523336,1523541
117,first,53,sozial,IAT_purple4.bmp,purple,starting_scream,scream,starting,m,positive,negative,ES_green,1,m,549,1525161,1525666,1525871
117,first,54,streng,IAT_red4.bmp,red,ending_melody,melody,ending,c,negative,negative,ES_green,0,m,718,1527494,1527998,1528202
117,first,55,lustig,IAT_green4.bmp,green,ending_scream,scream,ending,m,positive,positive,ES_green,1,m,572,1530495,1531000,1531205
117,first,56,kaputt,IAT_yellow4.bmp,yellow,starting_melody,melody,starting,c,negative,positive,ES_green,1,c,656,1532853,1533357,1533561
117,first,57,gerecht,IAT_yellow1.bmp,yellow,starting_melody,melody,starting,m,positive,positive,ES_green,1,m,1219,1535293,1535797,1536001
117,first,58,brutal,IAT_green1.bmp,green,ending_scream,scream,ending,c,negative,positive,ES_green,1,c,618,1538296,1538800,1539005
117,first,59,heiter,IAT_green3.bmp,green,ending_scream,scream,ending,m,positive,positive,ES_green,0,c,561,1540697,1541201,1541406
117,first,60,falsch,IAT_green4.bmp,green,ending_scream,scream,ending,c,negative,positive,ES_green,1,c,584,1543543,1544047,1544252
117,first,61,sonnig,IAT_green2.bmp,green,ending_scream,scream,ending,m,positive,positive,ES_green,1,m,725,1545912,1546416,1546620
117,first,62,geizig,IAT_purple2.bmp,purple,starting_scream,scream,starting,c,negative,negative,ES_green,1,c,622,1548421,1548925,1549129
117,first,63,lästig,IAT_red1.bmp,red,ending_melody,melody,ending,c,negative,negative,ES_green,1,c,598,1550825,1551331,1551535
117,first,64,falsch,IAT_yellow2.bmp,yellow,starting_melody,melody,starting,c,negative,positive,ES_green,1,c,544,1553208,1553712,1553917
117,first,65,teuer,IAT_yellow3.bmp,yellow,starting_melody,melody,starting,c,negative,positive,ES_green,1,c,530,1555536,1556041,1556245
117,first,66,sozial,IAT_purple3.bmp,purple,starting_scream,scream,starting,m,positive,negative,ES_green,1,m,563,1557850,1558354,1558559
117,first,67,einsam,IAT_yellow1.bmp,yellow,starting_melody,melody,starting,c,negative,positive,ES_green,1,c,656,1560197,1560702,1560907
117,first,68,heiter,IAT_green1.bmp,green,ending_scream,scream,ending,m,positive,positive,ES_green,0,c,593,1562637,1563142,1563347
117,first,69,brutal,IAT_green2.bmp,green,ending_scream,scream,ending,c,negative,positive,ES_green,1,c,610,1565514,1566018,1566222
117,first,70,geizig,IAT_yellow4.bmp,yellow,starting_melody,melody,starting,c,negative,positive,ES_green,1,c,599,1567907,1568412,1568617
117,first,71,sonnig,IAT_red2.bmp,red,ending_melody,melody,ending,m,positive,negative,ES_green,1,m,492,1570291,1570795,1570999
117,first,72,munter,IAT_green3.bmp,green,ending_scream,scream,ending,m,positive,positive,ES_green,1,m,495,1572566,1573070,1573274
117,first,73,krank,IAT_purple2.bmp,purple,starting_scream,scream,starting,c,negative,negative,ES_green,1,c,581,1574844,1575348,1575552
117,first,74,feige,IAT_green2.bmp,green,ending_scream,scream,ending,c,negative,positive,ES_green,1,c,554,1577208,1577712,1577917
117,first,75,lästig,IAT_yellow4.bmp,yellow,starting_melody,melody,starting,c,negative,positive,ES_green,1,c,609,1579545,1580051,1580255
117,first,76,krank,IAT_green4.bmp,green,ending_scream,scream,ending,c,negative,positive,ES_green,1,c,462,1581937,1582442,1582647
117,first,77,heiter,IAT_yellow3.bmp,yellow,starting_melody,melody,starting,m,positive,positive,ES_green,1,m,543,1584183,1584687,1584892
117,first,78,morsch,IAT_green2.bmp,green,ending_scream,scream,ending,c,negative,positive,ES_green,1,c,487,1586511,1587015,1587219
117,first,79,ehrlich,IAT_red4.bmp,red,ending_melody,melody,ending,m,positive,negative,ES_green,1,m,567,1588782,1589287,1589492
117,first,80,human,IAT_red1.bmp,red,ending_melody,melody,ending,m,positive,negative,ES_green,1,m,573,1591134,1591638,1591842
117,first,81,krank,IAT_red4.bmp,red,ending_melody,melody,ending,c,negative,negative,ES_green,1,c,574,1593491,1593995,1594199
117,first,82,lästig,IAT_yellow2.bmp,yellow,starting_melody,melody,starting,c,negative,positive,ES_green,1,c,1125,1595847,1596351,1596556
117,first,83,lustig,IAT_red3.bmp,red,ending_melody,melody,ending,m,positive,negative,ES_green,1,m,529,1598756,1599261,1599466
117,first,84,human,IAT_yellow1.bmp,yellow,starting_melody,melody,starting,m,positive,positive,ES_green,1,m,465,1601073,1601577,1601781
117,first,85,feige,IAT_red2.bmp,red,ending_melody,melody,ending,c,negative,negative,ES_green,1,c,508,1603322,1603827,1604031
117,first,86,geizig,IAT_purple4.bmp,purple,starting_scream,scream,starting,c,negative,negative,ES_green,0,m,500,1605614,1606118,1606323
117,first,87,schön,IAT_yellow2.bmp,yellow,starting_melody,melody,starting,m,positive,positive,ES_green,1,m,486,1608398,1608902,1609107
117,first,88,munter,IAT_red2.bmp,red,ending_melody,melody,ending,m,positive,negative,ES_green,1,m,600,1610669,1611173,1611378
117,first,89,schön,IAT_red3.bmp,red,ending_melody,melody,ending,m,positive,negative,ES_green,1,m,458,1613053,1613558,1613763
117,first,90,sanft,IAT_green3.bmp,green,ending_scream,scream,ending,m,positive,positive,ES_green,1,m,516,1615297,1615801,1616006
117,first,91,munter,IAT_purple3.bmp,purple,starting_scream,scream,starting,m,positive,negative,ES_green,1,m,636,1617597,1618101,1618306
117,first,92,morsch,IAT_red4.bmp,red,ending_melody,melody,ending,c,negative,negative,ES_green,0,m,418,1620017,1620521,1620726
117,first,93,krank,IAT_purple2.bmp,purple,starting_scream,scream,starting,c,negative,negative,ES_green,1,c,519,1622721,1623225,1623429
117,first,94,gierig,IAT_purple1.bmp,purple,starting_scream,scream,starting,c,negative,negative,ES_green,1,c,649,1625023,1625528,1625732
117,first,95,sozial,IAT_red4.bmp,red,ending_melody,melody,ending,m,positive,negative,ES_green,1,m,549,1627457,1627962,1628167
117,second,0,heiter,IAT_purple4.bmp,purple,starting_scream,scream,starting,m,positive,negative,ES_green,0,None,1500,1642474,1642979,1643184
117,second,1,gerecht,IAT_green4.bmp,green,ending_scream,scream,ending,m,positive,positive,ES_green,1,m,1422,1646260,1646764,1646969
117,second,2,einsam,IAT_green4.bmp,green,ending_scream,scream,ending,c,negative,positive,ES_green,1,c,719,1649466,1649972,1650176
117,second,3,witzig,IAT_red3.bmp,red,ending_melody,melody,ending,m,positive,negative,ES_green,1,m,609,1651970,1652474,1652678
117,second,4,sonnig,IAT_red1.bmp,red,ending_melody,melody,ending,m,positive,negative,ES_green,1,m,532,1654362,1654866,1655070
117,second,5,teuer,IAT_purple3.bmp,purple,starting_scream,scream,starting,c,negative,negative,ES_green,1,c,792,1656677,1657181,1657386
117,second,6,lustig,IAT_green2.bmp,green,ending_scream,scream,ending,m,positive,positive,ES_green,1,m,532,1659253,1659757,1659962
117,second,7,kaputt,IAT_yellow3.bmp,yellow,starting_melody,melody,starting,c,negative,positive,ES_green,1,c,632,1661569,1662073,1662278
117,second,8,feige,IAT_purple4.bmp,purple,starting_scream,scream,starting,c,negative,negative,ES_green,1,c,576,1663984,1664488,1664694
117,second,9,heiter,IAT_purple1.bmp,purple,starting_scream,scream,starting,m,positive,negative,ES_green,0,c,497,1666344,1666848,1667052
117,second,10,schön,IAT_yellow1.bmp,yellow,starting_melody,melody,starting,m,positive,positive,ES_green,1,m,500,1669126,1669630,1669835
117,second,11,heiter,IAT_green1.bmp,green,ending_scream,scream,ending,m,positive,positive,ES_green,1,m,582,1671411,1671915,1672119
117,second,12,gierig,IAT_red4.bmp,red,ending_melody,melody,ending,c,negative,negative,ES_green,1,c,519,1673775,1674280,1674485
117,second,13,lästig,IAT_yellow1.bmp,yellow,starting_melody,melody,starting,c,negative,positive,ES_green,1,c,600,1676079,1676583,1676788
117,second,14,streng,IAT_red4.bmp,red,ending_melody,melody,ending,c,negative,negative,ES_green,1,c,587,1678463,1678968,1679172
117,second,15,krank,IAT_red2.bmp,red,ending_melody,melody,ending,c,negative,negative,ES_green,1,c,674,1680835,1681339,1681543
117,second,16,lästig,IAT_red3.bmp,red,ending_melody,melody,ending,c,negative,negative,ES_green,1,c,529,1683292,1683796,1684001
117,second,17,morsch,IAT_purple2.bmp,purple,starting_scream,scream,starting,c,negative,negative,ES_green,1,c,550,1685604,1686108,1686312
117,second,18,ehrlich,IAT_red3.bmp,red,ending_melody,melody,ending,m,positive,negative,ES_green,1,m,516,1687937,1688441,1688646
117,second,19,human,IAT_purple2.bmp,purple,starting_scream,scream,starting,m,positive,negative,ES_green,1,m,478,1690236,1690741,1690946
117,second,20,streng,IAT_yellow2.bmp,yellow,starting_melody,melody,starting,c,negative,positive,ES_green,1,c,665,1692501,1693005,1693209
117,second,21,geizig,IAT_red4.bmp,red,ending_melody,melody,ending,c,negative,negative,ES_green,1,c,1207,1694948,1695452,1695657
117,second,22,witzig,IAT_yellow1.bmp,yellow,starting_melody,melody,starting,m,positive,positive,ES_green,1,m,499,1697940,1698444,1698649
117,second,23,kaputt,IAT_purple2.bmp,purple,starting_scream,scream,starting,c,negative,negative,ES_green,1,c,526,1700222,1700727,1700931
117,second,24,geizig,IAT_purple1.bmp,purple,starting_scream,scream,starting,c,negative,negative,ES_green,1,c,627,1702533,1703039,1703244
117,second,25,falsch,IAT_purple4.bmp,purple,starting_scream,scream,starting,c,negative,negative,ES_green,1,c,944,1704945,1705449,1705653
117,second,26,gesund,IAT_purple4.bmp,purple,starting_scream,scream,starting,m,positive,negative,ES_green,1,m,613,1707672,1708176,1708380
117,second,27,krank,IAT_red1.bmp,red,ending_melody,melody,ending,c,negative,negative,ES_green,1,c,810,1710069,1710573,1710778
117,second,28,gierig,IAT_green1.bmp,green,ending_scream,scream,ending,c,negative,positive,ES_green,1,c,642,1712663,1713167,1713372
117,second,29,sonnig,IAT_green3.bmp,green,ending_scream,scream,ending,m,positive,positive,ES_green,1,m,550,1715091,1715595,1715799
117,second,30,sanft,IAT_purple3.bmp,purple,starting_scream,scream,starting,m,positive,negative,ES_green,0,c,475,1717423,1717927,1718131
117,second,31,teuer,IAT_red2.bmp,red,ending_melody,melody,ending,c,negative,negative,ES_green,1,c,771,1720182,1720686,1720890
117,second,32,munter,IAT_yellow3.bmp,yellow,starting_melody,melody,starting,m,positive,positive,ES_green,1,m,628,1722736,1723240,1723445
117,second,33,lustig,IAT_red3.bmp,red,ending_melody,melody,ending,m,positive,negative,ES_green,1,m,509,1725150,1725654,1725859
117,second,34,sozial,IAT_red4.bmp,red,ending_melody,melody,ending,m,positive,negative,ES_green,1,m,619,1727443,1727948,1728152
117,second,35,human,IAT_yellow3.bmp,yellow,starting_melody,melody,starting,m,positive,positive,ES_green,1,m,553,1729847,1730351,1730556
117,second,36,ehrlich,IAT_yellow3.bmp,yellow,starting_melody,melody,starting,m,positive,positive,ES_green,1,m,544,1732184,1732689,1732893
117,second,37,krank,IAT_green1.bmp,green,ending_scream,scream,ending,c,negative,positive,ES_green,1,c,499,1734512,1735016,1735220
117,second,38,lustig,IAT_purple3.bmp,purple,starting_scream,scream,starting,m,positive,negative,ES_green,1,m,694,1736794,1737298,1737502
117,second,39,gesund,IAT_green1.bmp,green,ending_scream,scream,ending,m,positive,positive,ES_green,1,m,571,1739272,1739777,1739981
117,second,40,gerecht,IAT_yellow1.bmp,yellow,starting_melody,melody,starting,m,positive,positive,ES_green,1,m,568,1741627,1742132,1742337
117,second,41,kaputt,IAT_green3.bmp,green,ending_scream,scream,ending,c,negative,positive,ES_green,1,c,569,1743980,1744484,1744688
117,second,42,einsam,IAT_yellow4.bmp,yellow,starting_melody,melody,starting,c,negative,positive,ES_green,1,c,1337,1746333,1746837,1747042
117,second,43,falsch,IAT_green2.bmp,green,ending_scream,scream,ending,c,negative,positive,ES_green,1,c,709,1749453,1749957,1750161
117,second,44,lustig,IAT_red4.bmp,red,ending_melody,melody,ending,m,positive,negative,ES_green,1,m,717,1751945,1752449,1752654
117,second,45,schön,IAT_green2.bmp,green,ending_scream,scream,ending,m,positive,positive,ES_green,1,m,491,1754447,1754951,1755156
117,second,46,munter,IAT_yellow4.bmp,yellow,starting_melody,melody,starting,m,positive,positive,ES_green,1,m,660,1756722,1757227,1757431
117,second,47,brutal,IAT_yellow2.bmp,yellow,starting_melody,melody,starting,c,negative,positive,ES_green,1,c,606,1759167,1759671,1759876
117,second,48,human,IAT_yellow4.bmp,yellow,starting_melody,melody,starting,m,positive,positive,ES_green,1,m,625,1761558,1762063,1762268
117,second,49,sanft,IAT_purple3.bmp,purple,starting_scream,scream,starting,m,positive,negative,ES_green,1,m,881,1763969,1764473,1764678
117,second,50,feige,IAT_red4.bmp,red,ending_melody,melody,ending,c,negative,negative,ES_green,1,c,654,1766634,1767138,1767342
117,second,51,sozial,IAT_yellow2.bmp,yellow,starting_melody,melody,starting,m,positive,positive,ES_green,1,m,625,1769073,1769577,1769781
117,second,52,sanft,IAT_green1.bmp,green,ending_scream,scream,ending,m,positive,positive,ES_green,1,m,591,1771482,1771987,1772191
117,second,53,gerecht,IAT_red2.bmp,red,ending_melody,melody,ending,m,positive,negative,ES_green,1,m,542,1773858,1774362,1774567
117,second,54,munter,IAT_red1.bmp,red,ending_melody,melody,ending,m,positive,negative,ES_green,1,m,635,1776184,1776688,1776892
117,second,55,falsch,IAT_green2.bmp,green,ending_scream,scream,ending,c,negative,positive,ES_green,1,c,601,1778602,1779106,1779312
117,second,56,morsch,IAT_purple4.bmp,purple,starting_scream,scream,starting,c,negative,negative,ES_green,1,c,548,1780988,1781492,1781697
117,second,57,kaputt,IAT_purple2.bmp,purple,starting_scream,scream,starting,c,negative,negative,ES_green,1,c,594,1783321,1783825,1784029
117,second,58,teuer,IAT_green4.bmp,green,ending_scream,scream,ending,c,negative,positive,ES_green,1,c,680,1785698,1786202,1786407
117,second,59,human,IAT_green4.bmp,green,ending_scream,scream,ending,m,positive,positive,ES_green,1,m,625,1788163,1788667,1788871
117,second,60,streng,IAT_green4.bmp,green,ending_scream,scream,ending,c,negative,positive,ES_green,1,c,555,1790572,1791076,1791280
117,second,61,einsam,IAT_green2.bmp,green,ending_scream,scream,ending,c,negative,positive,ES_green,1,c,656,1792911,1793416,1793621
117,second,62,sozial,IAT_red1.bmp,red,ending_melody,melody,ending,m,positive,negative,ES_green,1,m,795,1795352,1795857,1796061
117,second,63,brutal,IAT_red3.bmp,red,ending_melody,melody,ending,c,negative,negative,ES_green,1,c,530,1797932,1798438,1798642
117,second,64,geizig,IAT_green3.bmp,green,ending_scream,scream,ending,c,negative,positive,ES_green,1,c,752,1800248,1800753,1800958
117,second,65,lästig,IAT_purple1.bmp,purple,starting_scream,scream,starting,c,negative,negative,ES_green,1,c,623,1802786,1803290,1803495
117,second,66,ehrlich,IAT_yellow2.bmp,yellow,starting_melody,melody,starting,m,positive,positive,ES_green,1,m,445,1805194,1805698,1805902
117,second,67,geizig,IAT_yellow3.bmp,yellow,starting_melody,melody,starting,c,negative,positive,ES_green,1,c,615,1807423,1807928,1808132
117,second,68,einsam,IAT_yellow2.bmp,yellow,starting_melody,melody,starting,c,negative,positive,ES_green,1,c,634,1809823,1810327,1810531
117,second,69,feige,IAT_red2.bmp,red,ending_melody,melody,ending,c,negative,negative,ES_green,0,m,628,1812242,1812746,1812950
117,second,70,brutal,IAT_yellow1.bmp,yellow,starting_melody,melody,starting,c,negative,positive,ES_green,1,c,1133,1815154,1815659,1815863
117,second,71,sonnig,IAT_purple1.bmp,purple,starting_scream,scream,starting,m,positive,negative,ES_green,1,m,532,1818073,1818577,1818781
117,second,72,krank,IAT_green2.bmp,green,ending_scream,scream,ending,c,negative,positive,ES_green,1,c,486,1820388,1820893,1821098
117,second,73,gesund,IAT_red2.bmp,red,ending_melody,melody,ending,m,positive,negative,ES_green,1,m,500,1822659,1823164,1823369
117,second,74,schön,IAT_green3.bmp,green,ending_scream,scream,ending,m,positive,positive,ES_green,1,m,460,1824945,1825449,1825653
117,second,75,sanft,IAT_green1.bmp,green,ending_scream,scream,ending,m,positive,positive,ES_green,1,m,667,1827189,1827693,1827898
117,second,76,teuer,IAT_yellow4.bmp,yellow,starting_melody,melody,starting,c,negative,positive,ES_green,1,c,727,1829641,1830145,1830349
117,second,77,streng,IAT_purple4.bmp,purple,starting_scream,scream,starting,c,negative,negative,ES_green,1,c,572,1832151,1832655,1832859
117,second,78,sonnig,IAT_red1.bmp,red,ending_melody,melody,ending,m,positive,negative,ES_green,1,m,645,1834506,1835012,1835216
117,second,79,ehrlich,IAT_yellow3.bmp,yellow,starting_melody,melody,starting,m,positive,positive,ES_green,1,m,469,1836936,1837440,1837645
117,second,80,sozial,IAT_purple2.bmp,purple,starting_scream,scream,starting,m,positive,negative,ES_green,1,m,658,1839191,1839695,1839899
117,second,81,heiter,IAT_red3.bmp,red,ending_melody,melody,ending,m,positive,negative,ES_green,1,m,604,1841632,1842136,1842341
117,second,82,munter,IAT_green3.bmp,green,ending_scream,scream,ending,m,positive,positive,ES_green,1,m,510,1844022,1844526,1844730
117,second,83,lästig,IAT_yellow4.bmp,yellow,starting_melody,melody,starting,c,negative,positive,ES_green,1,c,598,1846316,1846821,1847026
117,second,84,gesund,IAT_green3.bmp,green,ending_scream,scream,ending,m,positive,positive,ES_green,1,m,764,1848699,1849204,1849408
117,second,85,gierig,IAT_green4.bmp,green,ending_scream,scream,ending,c,negative,positive,ES_green,0,m,805,1851247,1851752,1851957
117,second,86,morsch,IAT_purple2.bmp,purple,starting_scream,scream,starting,c,negative,negative,ES_green,1,c,546,1854337,1854841,1855046
117,second,87,witzig,IAT_purple1.bmp,purple,starting_scream,scream,starting,m,positive,negative,ES_green,1,m,618,1856667,1857173,1857377
117,second,88,falsch,IAT_yellow4.bmp,yellow,starting_melody,melody,starting,c,negative,positive,ES_green,1,c,489,1859072,1859576,1859781
117,second,89,schön,IAT_purple1.bmp,purple,starting_scream,scream,starting,m,positive,negative,ES_green,1,m,419,1861345,1861849,1862053
117,second,90,morsch,IAT_purple3.bmp,purple,starting_scream,scream,starting,c,negative,negative,ES_green,1,c,491,1863549,1864053,1864258
117,second,91,feige,IAT_yellow2.bmp,yellow,starting_melody,melody,starting,c,negative,positive,ES_green,1,c,610,1865825,1866329,1866533
117,second,92,gierig,IAT_red2.bmp,red,ending_melody,melody,ending,c,negative,negative,ES_green,1,c,526,1868220,1868724,1868930
117,second,93,gerecht,IAT_purple3.bmp,purple,starting_scream,scream,starting,m,positive,negative,ES_green,0,c,583,1870531,1871036,1871240
117,second,94,witzig,IAT_yellow1.bmp,yellow,starting_melody,melody,starting,m,positive,positive,ES_green,1,m,561,1873401,1873905,1874109
117,second,95,brutal,IAT_red1.bmp,red,ending_melody,melody,ending,c,negative,negative,ES_green,1,c,643,1875745,1876251,1876455
117,third,0,falsch,IAT_red3.bmp,red,ending_melody,melody,ending,c,negative,negative,ES_green,1,c,527,1885165,1885670,1885875
117,third,1,sanft,IAT_purple3.bmp,purple,starting_scream,scream,starting,m,positive,negative,ES_green,1,m,541,1887477,1887981,1888186
117,third,2,schön,IAT_red2.bmp,red,ending_melody,melody,ending,m,positive,negative,ES_green,1,m,520,1889802,1890307,1890512
117,third,3,gierig,IAT_yellow4.bmp,yellow,starting_melody,melody,starting,c,negative,positive,ES_green,1,c,506,1892108,1892612,1892817
117,third,4,human,IAT_purple3.bmp,purple,starting_scream,scream,starting,m,positive,negative,ES_green,1,m,578,1894396,1894901,1895106
117,third,5,feige,IAT_green2.bmp,green,ending_scream,scream,ending,c,negative,positive,ES_green,1,c,482,1896757,1897262,1897469
117,third,6,teuer,IAT_green4.bmp,green,ending_scream,scream,ending,c,negative,positive,ES_green,1,c,734,1899025,1899529,1899733
117,third,7,gesund,IAT_yellow3.bmp,yellow,starting_melody,melody,starting,m,positive,positive,ES_green,1,m,453,1901542,1902047,1902252
117,third,8,sozial,IAT_green2.bmp,green,ending_scream,scream,ending,m,positive,positive,ES_green,1,m,561,1903781,1904286,1904490
117,third,9,kaputt,IAT_purple3.bmp,purple,starting_scream,scream,starting,c,negative,negative,ES_green,1,c,499,1906125,1906630,1906835
117,third,10,gierig,IAT_red4.bmp,red,ending_melody,melody,ending,c,negative,negative,ES_green,0,m,412,1908409,1908914,1909119
117,third,11,brutal,IAT_green2.bmp,green,ending_scream,scream,ending,c,negative,positive,ES_green,1,c,579,1911107,1911611,1911816
117,third,12,munter,IAT_yellow1.bmp,yellow,starting_melody,melody,starting,m,positive,positive,ES_green,1,m,414,1913471,1913975,1914179
117,third,13,gerecht,IAT_green1.bmp,green,ending_scream,scream,ending,m,positive,positive,ES_green,1,m,508,1915667,1916171,1916376
117,third,14,falsch,IAT_green1.bmp,green,ending_scream,scream,ending,c,negative,positive,ES_green,1,c,437,1917959,1918463,1918668
117,third,15,geizig,IAT_purple1.bmp,purple,starting_scream,scream,starting,c,negative,negative,ES_green,1,c,586,1920181,1920685,1920889
117,third,16,streng,IAT_green4.bmp,green,ending_scream,scream,ending,c,negative,positive,ES_green,1,c,685,1922551,1923055,1923259
117,third,17,gesund,IAT_yellow3.bmp,yellow,starting_melody,melody,starting,m,positive,positive,ES_green,0,c,781,1925021,1925525,1925729
117,third,18,teuer,IAT_yellow2.bmp,yellow,starting_melody,melody,starting,c,negative,positive,ES_green,1,c,559,1928085,1928589,1928794
117,third,19,geizig,IAT_yellow2.bmp,yellow,starting_melody,melody,starting,c,negative,positive,ES_green,1,c,714,1930430,1930934,1931139
117,third,20,einsam,IAT_red1.bmp,red,ending_melody,melody,ending,c,negative,negative,ES_green,0,m,516,1932928,1933432,1933637
117,third,21,munter,IAT_red3.bmp,red,ending_melody,melody,ending,m,positive,negative,ES_green,1,m,496,1935729,1936234,1936438
117,third,22,feige,IAT_purple2.bmp,purple,starting_scream,scream,starting,c,negative,negative,ES_green,1,c,680,1938011,1938515,1938719
117,third,23,sozial,IAT_green1.bmp,green,ending_scream,scream,ending,m,positive,positive,ES_green,1,m,662,1940474,1940978,1941182
117,third,24,heiter,IAT_yellow4.bmp,yellow,starting_melody,melody,starting,m,positive,positive,ES_green,1,m,519,1942921,1943425,1943629
117,third,25,gesund,IAT_purple3.bmp,purple,starting_scream,scream,starting,m,positive,negative,ES_green,1,m,654,1945222,1945726,1945931
117,third,26,gerecht,IAT_red3.bmp,red,ending_melody,melody,ending,m,positive,negative,ES_green,1,m,739,1947659,1948164,1948369
117,third,27,lustig,IAT_purple2.bmp,purple,starting_scream,scream,starting,m,positive,negative,ES_green,1,m,552,1950183,1950687,1950891
117,third,28,brutal,IAT_red2.bmp,red,ending_melody,melody,ending,c,negative,negative,ES_green,1,c,602,1952519,1953024,1953228
117,third,29,sozial,IAT_purple4.bmp,purple,starting_scream,scream,starting,m,positive,negative,ES_green,1,m,535,1954905,1955409,1955613
117,third,30,heiter,IAT_red4.bmp,red,ending_melody,melody,ending,m,positive,negative,ES_green,1,m,543,1957224,1957728,1957932
117,third,31,lästig,IAT_purple4.bmp,purple,starting_scream,scream,starting,c,negative,negative,ES_green,1,c,634,1959551,1960056,1960261
117,third,32,einsam,IAT_red4.bmp,red,ending_melody,melody,ending,c,negative,negative,ES_green,0,m,547,1961971,1962475,1962679
117,third,33,gierig,IAT_yellow4.bmp,yellow,starting_melody,melody,starting,c,negative,positive,ES_green,1,c,654,1964803,1965307,1965511
117,third,34,witzig,IAT_green4.bmp,green,ending_scream,scream,ending,m,positive,positive,ES_green,1,m,640,1967240,1967745,1967949
117,third,35,ehrlich,IAT_red3.bmp,red,ending_melody,melody,ending,m,positive,negative,ES_green,1,m,853,1969663,1970167,1970371
117,third,36,kaputt,IAT_green3.bmp,green,ending_scream,scream,ending,c,negative,positive,ES_green,1,c,570,1972301,1972805,1973010
117,third,37,munter,IAT_red1.bmp,red,ending_melody,melody,ending,m,positive,negative,ES_green,1,m,481,1974654,1975162,1975366
117,third,38,human,IAT_yellow3.bmp,yellow,starting_melody,melody,starting,m,positive,positive,ES_green,1,m,558,1976922,1977427,1977631
117,third,39,brutal,IAT_yellow1.bmp,yellow,starting_melody,melody,starting,c,negative,positive,ES_green,1,c,613,1979265,1979771,1979975
117,third,40,teuer,IAT_red2.bmp,red,ending_melody,melody,ending,c,negative,negative,ES_green,1,c,1330,1981664,1982168,1982372
117,third,41,sonnig,IAT_purple1.bmp,purple,starting_scream,scream,starting,m,positive,negative,ES_green,1,m,557,1984778,1985283,1985488
117,third,42,schön,IAT_green3.bmp,green,ending_scream,scream,ending,m,positive,positive,ES_green,0,c,448,1987121,1987626,1987830
117,third,43,kaputt,IAT_green1.bmp,green,ending_scream,scream,ending,c,negative,positive,ES_green,1,c,519,1989853,1990357,1990561
117,third,44,krank,IAT_red4.bmp,red,ending_melody,melody,ending,c,negative,negative,ES_green,1,c,587,1992156,1992660,1992864
117,third,45,morsch,IAT_purple4.bmp,purple,starting_scream,scream,starting,c,negative,negative,ES_green,1,c,587,1994527,1995031,1995236
117,third,46,witzig,IAT_purple1.bmp,purple,starting_scream,scream,starting,m,positive,negative,ES_green,1,m,586,1996899,1997403,1997608
117,third,47,lustig,IAT_yellow1.bmp,yellow,starting_melody,melody,starting,m,positive,positive,ES_green,1,m,514,1999270,1999774,1999978
117,third,48,einsam,IAT_red2.bmp,red,ending_melody,melody,ending,c,negative,negative,ES_green,1,c,696,2001567,2002071,2002276
117,third,49,teuer,IAT_green2.bmp,green,ending_scream,scream,ending,c,negative,positive,ES_green,0,m,896,2004046,2004550,2004755
117,third,50,geizig,IAT_yellow2.bmp,yellow,starting_melody,melody,starting,c,negative,positive,ES_green,1,c,647,2007226,2007730,2007935
117,third,51,munter,IAT_red1.bmp,red,ending_melody,melody,ending,m,positive,negative,ES_green,1,m,535,2009658,2010162,2010367
117,third,52,human,IAT_yellow3.bmp,yellow,starting_melody,melody,starting,m,positive,positive,ES_green,1,m,571,2011979,2012483,2012688
117,third,53,lästig,IAT_red4.bmp,red,ending_melody,melody,ending,c,negative,negative,ES_green,1,c,1191,2014334,2014838,2015043
117,third,54,morsch,IAT_green2.bmp,green,ending_scream,scream,ending,c,negative,positive,ES_green,1,c,599,2017309,2017813,2018018
117,third,55,einsam,IAT_red3.bmp,red,ending_melody,melody,ending,c,negative,negative,ES_green,1,c,808,2019693,2020197,2020401
117,third,56,schön,IAT_yellow4.bmp,yellow,starting_melody,melody,starting,m,positive,positive,ES_green,1,m,494,2022286,2022791,2022995
117,third,57,kaputt,IAT_yellow3.bmp,yellow,starting_melody,melody,starting,c,negative,positive,ES_green,1,c,581,2024565,2025069,2025273
117,third,58,lustig,IAT_purple4.bmp,purple,starting_scream,scream,starting,m,positive,negative,ES_green,1,m,666,2026930,2027434,2027639
117,third,59,gierig,IAT_red2.bmp,red,ending_melody,melody,ending,c,negative,negative,ES_green,1,c,546,2029381,2029885,2030089
117,third,60,streng,IAT_yellow4.bmp,yellow,starting_melody,melody,starting,c,negative,positive,ES_green,0,m,878,2031711,2032215,2032419
117,third,61,feige,IAT_yellow2.bmp,yellow,starting_melody,melody,starting,c,negative,positive,ES_green,1,c,852,2034873,2035377,2035582
117,third,62,human,IAT_green3.bmp,green,ending_scream,scream,ending,m,positive,positive,ES_green,1,m,608,2037511,2038016,2038220
117,third,63,falsch,IAT_purple1.bmp,purple,starting_scream,scream,starting,c,negative,negative,ES_green,1,c,734,2039904,2040408,2040612
117,third,64,heiter,IAT_green1.bmp,green,ending_scream,scream,ending,m,positive,positive,ES_green,1,m,912,2042422,2042926,2043130
117,third,65,ehrlich,IAT_green2.bmp,green,ending_scream,scream,ending,m,positive,positive,ES_green,1,m,650,2045118,2045623,2045828
117,third,66,krank,IAT_purple4.bmp,purple,starting_scream,scream,starting,c,negative,negative,ES_green,1,c,607,2047553,2048057,2048262
117,third,67,feige,IAT_purple3.bmp,purple,starting_scream,scream,starting,c,negative,negative,ES_green,1,c,774,2049944,2050449,2050653
117,third,68,schön,IAT_yellow1.bmp,yellow,starting_melody,melody,starting,m,positive,positive,ES_green,1,m,471,2052503,2053007,2053211
117,third,69,sozial,IAT_red2.bmp,red,ending_melody,melody,ending,m,positive,negative,ES_green,1,m,530,2054758,2055262,2055467
117,third,70,heiter,IAT_yellow2.bmp,yellow,starting_melody,melody,starting,m,positive,positive,ES_green,1,m,551,2057073,2057577,2057781
117,third,71,gerecht,IAT_purple3.bmp,purple,starting_scream,scream,starting,m,positive,negative,ES_green,1,m,721,2059409,2059914,2060118
117,third,72,lästig,IAT_yellow4.bmp,yellow,starting_melody,melody,starting,c,negative,positive,ES_green,1,c,691,2061914,2062418,2062622
117,third,73,ehrlich,IAT_red4.bmp,red,ending_melody,melody,ending,m,positive,negative,ES_green,1,m,562,2064389,2064894,2065099
117,third,74,lustig,IAT_green4.bmp,green,ending_scream,scream,ending,m,positive,positive,ES_green,1,m,560,2066736,2067240,2067445
117,third,75,ehrlich,IAT_yellow1.bmp,yellow,starting_melody,melody,starting,m,positive,positive,ES_green,1,m,586,2069081,2069585,2069789
117,third,76,sonnig,IAT_red3.bmp,red,ending_melody,melody,ending,m,positive,negative,ES_green,1,m,619,2071451,2071955,2072160
117,third,77,gesund,IAT_red1.bmp,red,ending_melody,melody,ending,m,positive,negative,ES_green,1,m,628,2073855,2074359,2074563
117,third,78,streng,IAT_yellow1.bmp,yellow,starting_melody,melody,starting,c,negative,positive,ES_green,1,c,1069,2076269,2076777,2076981
117,third,79,brutal,IAT_green4.bmp,green,ending_scream,scream,ending,c,negative,positive,ES_green,1,c,708,2079126,2079630,2079835
117,third,80,krank,IAT_purple2.bmp,purple,starting_scream,scream,starting,c,negative,negative,ES_green,1,c,642,2081618,2082122,2082327
117,third,81,morsch,IAT_green4.bmp,green,ending_scream,scream,ending,c,negative,positive,ES_green,1,c,633,2084044,2084548,2084752
117,third,82,krank,IAT_green3.bmp,green,ending_scream,scream,ending,c,negative,positive,ES_green,1,c,680,2086462,2086966,2087171
117,third,83,streng,IAT_red1.bmp,red,ending_melody,melody,ending,c,negative,negative,ES_green,1,c,674,2088926,2089431,2089636
117,third,84,lästig,IAT_purple2.bmp,purple,starting_scream,scream,starting,c,negative,negative,ES_green,1,c,1357,2091386,2091891,2092096
117,third,85,sanft,IAT_purple1.bmp,purple,starting_scream,scream,starting,m,positive,negative,ES_green,1,m,659,2094530,2095034,2095239
117,third,86,sonnig,IAT_green3.bmp,green,ending_scream,scream,ending,m,positive,positive,ES_green,1,m,617,2096973,2097477,2097682
117,third,87,morsch,IAT_purple2.bmp,purple,starting_scream,scream,starting,c,negative,negative,ES_green,1,c,519,2099375,2099879,2100083
117,third,88,gerecht,IAT_yellow2.bmp,yellow,starting_melody,melody,starting,m,positive,positive,ES_green,1,m,736,2101680,2102184,2102389
117,third,89,falsch,IAT_yellow3.bmp,yellow,starting_melody,melody,starting,c,negative,positive,ES_green,1,c,813,2104201,2104705,2104909
117,third,90,witzig,IAT_red1.bmp,red,ending_melody,melody,ending,m,positive,negative,ES_green,1,m,558,2106797,2107301,2107506
117,third,91,sanft,IAT_green3.bmp,green,ending_scream,scream,ending,m,positive,positive,ES_green,1,m,560,2109139,2109644,2109849
117,third,92,geizig,IAT_purple4.bmp,purple,starting_scream,scream,starting,c,negative,negative,ES_green,1,c,797,2111486,2111990,2112194
117,third,93,witzig,IAT_purple1.bmp,purple,starting_scream,scream,starting,m,positive,negative,ES_green,1,m,1101,2114068,2114573,2114777
117,third,94,sanft,IAT_green1.bmp,green,ending_scream,scream,ending,m,positive,positive,ES_green,1,m,522,2116954,2117458,2117662
117,third,95,sonnig,IAT_purple2.bmp,purple,starting_scream,scream,starting,m,positive,negative,ES_green,1,m,530,2119261,2119765,2119969
117,forth,0,brutal,IAT_green1.bmp,green,ending_scream,scream,ending,c,negative,positive,ES_green,1,c,620,2125879,2126383,2126588
117,forth,1,krank,IAT_red2.bmp,red,ending_melody,melody,ending,c,negative,negative,ES_green,0,m,380,2128284,2128788,2128992
117,forth,2,lustig,IAT_green1.bmp,green,ending_scream,scream,ending,m,positive,positive,ES_green,1,m,535,2130947,2131452,2131657
117,forth,3,teuer,IAT_purple4.bmp,purple,starting_scream,scream,starting,c,negative,negative,ES_green,1,c,715,2133267,2133771,2133976
117,forth,4,gerecht,IAT_purple3.bmp,purple,starting_scream,scream,starting,m,positive,negative,ES_green,1,m,544,2135767,2136271,2136476
117,forth,5,falsch,IAT_red2.bmp,red,ending_melody,melody,ending,c,negative,negative,ES_green,1,c,503,2138096,2138601,2138805
117,forth,6,gierig,IAT_red4.bmp,red,ending_melody,melody,ending,c,negative,negative,ES_green,1,c,651,2140383,2140887,2141091
117,forth,7,einsam,IAT_yellow1.bmp,yellow,starting_melody,melody,starting,c,negative,positive,ES_green,1,c,1012,2142818,2143322,2143527
117,forth,8,teuer,IAT_green2.bmp,green,ending_scream,scream,ending,c,negative,positive,ES_green,1,c,736,2145614,2146119,2146323
117,forth,9,lästig,IAT_red2.bmp,red,ending_melody,melody,ending,c,negative,negative,ES_green,1,c,668,2148135,2148639,2148843
117,forth,10,falsch,IAT_red4.bmp,red,ending_melody,melody,ending,c,negative,negative,ES_green,1,c,630,2150586,2151090,2151294
117,forth,11,gierig,IAT_green2.bmp,green,ending_scream,scream,ending,c,negative,positive,ES_green,1,c,807,2153000,2153505,2153709
117,forth,12,feige,IAT_purple1.bmp,purple,starting_scream,scream,starting,c,negative,negative,ES_green,1,c,582,2155592,2156096,2156301
117,forth,13,schön,IAT_red2.bmp,red,ending_melody,melody,ending,m,positive,negative,ES_green,1,m,685,2157958,2158462,2158667
117,forth,14,lästig,IAT_green4.bmp,green,ending_scream,scream,ending,c,negative,positive,ES_green,1,c,603,2160428,2160932,2161137
117,forth,15,krank,IAT_green4.bmp,green,ending_scream,scream,ending,c,negative,positive,ES_green,1,c,551,2162815,2163320,2163524
117,forth,16,sanft,IAT_red1.bmp,red,ending_melody,melody,ending,m,positive,negative,ES_green,1,m,605,2165150,2165655,2165859
117,forth,17,geizig,IAT_red2.bmp,red,ending_melody,melody,ending,c,negative,negative,ES_green,1,c,585,2167539,2168043,2168248
117,forth,18,sonnig,IAT_purple3.bmp,purple,starting_scream,scream,starting,m,positive,negative,ES_green,1,m,722,2169907,2170411,2170616
117,forth,19,ehrlich,IAT_yellow1.bmp,yellow,starting_melody,melody,starting,m,positive,positive,ES_green,1,m,553,2172413,2172918,2173123
117,forth,20,heiter,IAT_red1.bmp,red,ending_melody,melody,ending,m,positive,negative,ES_green,1,m,555,2174752,2175257,2175461
117,forth,21,lustig,IAT_yellow4.bmp,yellow,starting_melody,melody,starting,m,positive,positive,ES_green,1,m,528,2177093,2177597,2177802
117,forth,22,heiter,IAT_yellow2.bmp,yellow,starting_melody,melody,starting,m,positive,positive,ES_green,1,m,443,2179406,2179911,2180116
117,forth,23,lästig,IAT_yellow1.bmp,yellow,starting_melody,melody,starting,c,negative,positive,ES_green,1,c,696,2181634,2182139,2182343
117,forth,24,einsam,IAT_yellow2.bmp,yellow,starting_melody,melody,starting,c,negative,positive,ES_green,1,c,647,2184116,2184620,2184824
117,forth,25,gesund,IAT_green2.bmp,green,ending_scream,scream,ending,m,positive,positive,ES_green,1,m,951,2186547,2187051,2187256
117,forth,26,morsch,IAT_red3.bmp,red,ending_melody,melody,ending,c,negative,negative,ES_green,1,c,1095,2189283,2189787,2189991
117,forth,27,munter,IAT_green4.bmp,green,ending_scream,scream,ending,m,positive,positive,ES_green,1,m,552,2192162,2192667,2192871
117,forth,28,geizig,IAT_green3.bmp,green,ending_scream,scream,ending,c,negative,positive,ES_green,1,c,554,2194499,2195004,2195209
117,forth,29,human,IAT_red2.bmp,red,ending_melody,melody,ending,m,positive,negative,ES_green,0,c,592,2196843,2197347,2197551
117,forth,30,heiter,IAT_purple1.bmp,purple,starting_scream,scream,starting,m,positive,negative,ES_green,1,m,533,2199719,2200224,2200429
117,forth,31,human,IAT_green4.bmp,green,ending_scream,scream,ending,m,positive,positive,ES_green,1,m,525,2202037,2202541,2202746
117,forth,32,gerecht,IAT_red4.bmp,red,ending_melody,melody,ending,m,positive,negative,ES_green,1,m,550,2204347,2204851,2205056
117,forth,33,witzig,IAT_red1.bmp,red,ending_melody,melody,ending,m,positive,negative,ES_green,1,m,594,2206682,2207187,2207391
117,forth,34,human,IAT_green2.bmp,green,ending_scream,scream,ending,m,positive,positive,ES_green,1,m,574,2209061,2209565,2209771
117,forth,35,kaputt,IAT_red4.bmp,red,ending_melody,melody,ending,c,negative,negative,ES_green,1,c,804,2211421,2211925,2212129
117,forth,36,sozial,IAT_green1.bmp,green,ending_scream,scream,ending,m,positive,positive,ES_green,1,m,664,2214007,2214512,2214717
117,forth,37,falsch,IAT_yellow4.bmp,yellow,starting_melody,melody,starting,c,negative,positive,ES_green,1,c,604,2216457,2216961,2217166
117,forth,38,witzig,IAT_red1.bmp,red,ending_melody,melody,ending,m,positive,negative,ES_green,0,c,535,2218846,2219350,2219554
117,forth,39,kaputt,IAT_purple4.bmp,purple,starting_scream,scream,starting,c,negative,negative,ES_green,1,c,571,2221664,2222169,2222373
117,forth,40,ehrlich,IAT_green1.bmp,green,ending_scream,scream,ending,m,positive,positive,ES_green,1,m,668,2224020,2224524,2224729
117,forth,41,krank,IAT_yellow4.bmp,yellow,starting_melody,melody,starting,c,negative,positive,ES_green,1,c,717,2226473,2226977,2227182
117,forth,42,streng,IAT_red1.bmp,red,ending_melody,melody,ending,c,negative,negative,ES_green,1,c,644,2228975,2229480,2229686
117,forth,43,sozial,IAT_green3.bmp,green,ending_scream,scream,ending,m,positive,positive,ES_green,1,m,618,2231405,2231909,2232113
117,forth,44,gesund,IAT_yellow3.bmp,yellow,starting_melody,melody,starting,m,positive,positive,ES_green,1,m,667,2233807,2234311,2234516
117,forth,45,munter,IAT_purple2.bmp,purple,starting_scream,scream,starting,m,positive,negative,ES_green,0,c,826,2236258,2236763,2236968
117,forth,46,feige,IAT_purple3.bmp,purple,starting_scream,scream,starting,c,negative,negative,ES_green,1,c,580,2239371,2239875,2240080
117,forth,47,human,IAT_purple1.bmp,purple,starting_scream,scream,starting,m,positive,negative,ES_green,1,m,586,2241736,2242241,2242446
117,forth,48,sanft,IAT_red3.bmp,red,ending_melody,melody,ending,m,positive,negative,ES_green,1,m,519,2244107,2244612,2244817
117,forth,49,gerecht,IAT_purple2.bmp,purple,starting_scream,scream,starting,m,positive,negative,ES_green,1,m,485,2246413,2246917,2247121
117,forth,50,gesund,IAT_yellow3.bmp,yellow,starting_melody,melody,starting,m,positive,positive,ES_green,1,m,487,2248683,2249187,2249391
117,forth,51,gierig,IAT_yellow4.bmp,yellow,starting_melody,melody,starting,c,negative,positive,ES_green,1,c,612,2250955,2251460,2251665
117,forth,52,ehrlich,IAT_green1.bmp,green,ending_scream,scream,ending,m,positive,positive,ES_green,1,m,536,2253353,2253857,2254061
117,forth,53,krank,IAT_purple2.bmp,purple,starting_scream,scream,starting,c,negative,negative,ES_green,1,c,509,2255673,2256177,2256381
117,forth,54,streng,IAT_green2.bmp,green,ending_scream,scream,ending,c,negative,positive,ES_green,1,c,769,2257967,2258472,2258676
117,forth,55,brutal,IAT_yellow2.bmp,yellow,starting_melody,melody,starting,c,negative,positive,ES_green,1,c,545,2260522,2261027,2261232
117,forth,56,einsam,IAT_purple4.bmp,purple,starting_scream,scream,starting,c,negative,negative,ES_green,1,c,567,2262853,2263358,2263562
117,forth,57,sozial,IAT_red3.bmp,red,ending_melody,melody,ending,m,positive,negative,ES_green,1,m,493,2265207,2265711,2265916
117,forth,58,lustig,IAT_purple3.bmp,purple,starting_scream,scream,starting,m,positive,negative,ES_green,1,m,576,2267485,2267989,2268193
117,forth,59,gierig,IAT_green2.bmp,green,ending_scream,scream,ending,c,negative,positive,ES_green,1,c,1119,2269846,2270350,2270554
117,forth,60,streng,IAT_green4.bmp,green,ending_scream,scream,ending,c,negative,positive,ES_green,0,m,574,2272749,2273253,2273458
117,forth,61,einsam,IAT_purple2.bmp,purple,starting_scream,scream,starting,c,negative,negative,ES_green,1,c,855,2275607,2276112,2276317
117,forth,62,schön,IAT_yellow4.bmp,yellow,starting_melody,melody,starting,m,positive,positive,ES_green,1,m,484,2278249,2278754,2278958
117,forth,63,sonnig,IAT_yellow3.bmp,yellow,starting_melody,melody,starting,m,positive,positive,ES_green,1,m,590,2280518,2281022,2281227
117,forth,64,witzig,IAT_green3.bmp,green,ending_scream,scream,ending,m,positive,positive,ES_green,1,m,938,2282892,2283397,2283601
117,forth,65,kaputt,IAT_yellow4.bmp,yellow,starting_melody,melody,starting,c,negative,positive,ES_green,1,c,585,2285615,2286120,2286325
117,forth,66,geizig,IAT_purple2.bmp,purple,starting_scream,scream,starting,c,negative,negative,ES_green,1,c,1261,2287985,2288489,2288693
117,forth,67,sanft,IAT_green3.bmp,green,ending_scream,scream,ending,m,positive,positive,ES_green,0,None,1500,2291031,2291535,2291741
117,forth,68,falsch,IAT_yellow2.bmp,yellow,starting_melody,melody,starting,c,negative,positive,ES_green,1,c,542,2295316,2295821,2296026
117,forth,69,teuer,IAT_red4.bmp,red,ending_melody,melody,ending,c,negative,negative,ES_green,1,c,550,2297643,2298147,2298351
117,forth,70,heiter,IAT_purple4.bmp,purple,starting_scream,scream,starting,m,positive,negative,ES_green,1,m,532,2299977,2300482,2300687
117,forth,71,streng,IAT_yellow3.bmp,yellow,starting_melody,melody,starting,c,negative,positive,ES_green,1,c,535,2302295,2302800,2303005
117,forth,72,brutal,IAT_purple3.bmp,purple,starting_scream,scream,starting,c,negative,negative,ES_green,1,c,511,2304617,2305121,2305326
117,forth,73,ehrlich,IAT_purple1.bmp,purple,starting_scream,scream,starting,m,positive,negative,ES_green,1,m,543,2306913,2307418,2307622
117,forth,74,witzig,IAT_yellow1.bmp,yellow,starting_melody,melody,starting,m,positive,positive,ES_green,1,m,574,2309242,2309748,2309952
117,forth,75,schön,IAT_yellow1.bmp,yellow,starting_melody,melody,starting,m,positive,positive,ES_green,1,m,530,2311603,2312107,2312311
117,forth,76,teuer,IAT_red1.bmp,red,ending_melody,melody,ending,c,negative,negative,ES_green,1,c,1261,2313918,2314422,2314627
117,forth,77,morsch,IAT_green3.bmp,green,ending_scream,scream,ending,c,negative,positive,ES_green,1,c,529,2316964,2317468,2317673
117,forth,78,sonnig,IAT_red3.bmp,red,ending_melody,melody,ending,m,positive,negative,ES_green,1,m,686,2319279,2319784,2319988
117,forth,79,feige,IAT_yellow2.bmp,yellow,starting_melody,melody,starting,c,negative,positive,ES_green,1,c,651,2321754,2322258,2322462
117,forth,80,kaputt,IAT_purple4.bmp,purple,starting_scream,scream,starting,c,negative,negative,ES_green,1,c,564,2324189,2324693,2324898
117,forth,81,munter,IAT_red3.bmp,red,ending_melody,melody,ending,m,positive,negative,ES_green,1,m,627,2326537,2327043,2327247
117,forth,82,sonnig,IAT_red4.bmp,red,ending_melody,melody,ending,m,positive,negative,ES_green,1,m,584,2328951,2329455,2329659
117,forth,83,gesund,IAT_yellow2.bmp,yellow,starting_melody,melody,starting,m,positive,positive,ES_green,1,m,513,2331319,2331825,2332029
117,forth,84,sozial,IAT_green3.bmp,green,ending_scream,scream,ending,m,positive,positive,ES_green,1,m,531,2333618,2334122,2334327
117,forth,85,gerecht,IAT_purple1.bmp,purple,starting_scream,scream,starting,m,positive,negative,ES_green,1,m,565,2335935,2336440,2336645
117,forth,86,brutal,IAT_purple2.bmp,purple,starting_scream,scream,starting,c,negative,negative,ES_green,1,c,580,2338286,2338790,2338995
117,forth,87,lustig,IAT_yellow1.bmp,yellow,starting_melody,melody,starting,m,positive,positive,ES_green,1,m,740,2340651,2341155,2341359
117,forth,88,morsch,IAT_yellow3.bmp,yellow,starting_melody,melody,starting,c,negative,positive,ES_green,1,c,451,2343175,2343679,2343883
117,forth,89,geizig,IAT_green1.bmp,green,ending_scream,scream,ending,c,negative,positive,ES_green,0,m,470,2345411,2345915,2346119
117,forth,90,munter,IAT_yellow3.bmp,yellow,starting_melody,melody,starting,m,positive,positive,ES_green,1,m,542,2348165,2348669,2348874
117,forth,91,morsch,IAT_green4.bmp,green,ending_scream,scream,ending,c,negative,positive,ES_green,1,c,565,2350493,2350997,2351201
117,forth,92,sanft,IAT_purple4.bmp,purple,starting_scream,scream,starting,m,positive,negative,ES_green,1,m,544,2352842,2353347,2353551
117,forth,93,schön,IAT_purple3.bmp,purple,starting_scream,scream,starting,m,positive,negative,ES_green,1,m,515,2355172,2355677,2355881
117,forth,94,lästig,IAT_purple1.bmp,purple,starting_scream,scream,starting,c,negative,negative,ES_green,1,c,555,2357474,2357978,2358183
117,forth,95,feige,IAT_red3.bmp,red,ending_melody,melody,ending,c,negative,negative,ES_green,1,c,582,2359814,2360319,2360523
