subject_nr,block,trialnr,trial_target,trial_prime,prime_color,prime_role,prime_us,prime_relation,correct_response,target_valence,prime_valence,color_counter,correct_first_response,response_first_response,response_time_first_response,fixation_show,prime_show,target_show
67,first,0,heiter,IAT_red1.bmp,red,ending_melody,melody,ending,m,positive,negative,ES_green,1,m,664,1432359,1432863,1433067
67,first,1,munter,IAT_purple1.bmp,purple,starting_scream,scream,starting,m,positive,negative,ES_green,1,m,522,1434805,1435310,1435514
67,first,2,ehrlich,IAT_yellow3.bmp,yellow,starting_melody,melody,starting,m,positive,positive,ES_green,1,m,568,1437109,1437614,1437818
67,first,3,sonnig,IAT_purple3.bmp,purple,starting_scream,scream,starting,m,positive,negative,ES_green,1,m,535,1439459,1439963,1440167
67,first,4,gierig,IAT_purple2.bmp,purple,starting_scream,scream,starting,c,negative,negative,ES_green,1,c,533,1441774,1442279,1442483
67,first,5,sozial,IAT_red4.bmp,red,ending_melody,melody,ending,m,positive,negative,ES_green,1,m,581,1444088,1444593,1444797
67,first,6,feige,IAT_yellow3.bmp,yellow,starting_melody,melody,starting,c,negative,positive,ES_green,1,c,949,1446451,1446955,1447159
67,first,7,morsch,IAT_red3.bmp,red,ending_melody,melody,ending,c,negative,negative,ES_green,1,c,622,1449180,1449685,1449889
67,first,8,sonnig,IAT_yellow1.bmp,yellow,starting_melody,melody,starting,m,positive,positive,ES_green,1,m,668,1451584,1452088,1452292
67,first,9,gerecht,IAT_green1.bmp,green,ending_scream,scream,ending,m,positive,positive,ES_green,1,m,757,1454033,1454537,1454741
67,first,10,krank,IAT_green2.bmp,green,ending_scream,scream,ending,c,negative,positive,ES_green,1,c,651,1456579,1457083,1457287
67,first,11,falsch,IAT_green3.bmp,green,ending_scream,scream,ending,c,negative,positive,ES_green,1,c,488,1459011,1459515,1459719
67,first,12,geizig,IAT_purple4.bmp,purple,starting_scream,scream,starting,c,negative,negative,ES_green,0,m,571,1461280,1461784,1461988
67,first,13,morsch,IAT_red2.bmp,red,ending_melody,melody,ending,c,negative,negative,ES_green,1,c,745,1464133,1464637,1464841
67,first,14,brutal,IAT_green4.bmp,green,ending_scream,scream,ending,c,negative,positive,ES_green,1,c,505,1466659,1467163,1467367
67,first,15,ehrlich,IAT_red2.bmp,red,ending_melody,melody,ending,m,positive,negative,ES_green,1,m,832,1468945,1469449,1469653
67,first,16,sanft,IAT_green3.bmp,green,ending_scream,scream,ending,m,positive,positive,ES_green,0,None,1500,1471558,1472062,1472266
67,first,17,falsch,IAT_green1.bmp,green,ending_scream,scream,ending,c,negative,positive,ES_green,1,c,641,1475338,1475843,1476047
67,first,18,lustig,IAT_green2.bmp,green,ending_scream,scream,ending,m,positive,positive,ES_green,1,m,630,1477762,1478266,1478470
67,first,19,brutal,IAT_green4.bmp,green,ending_scream,scream,ending,c,negative,positive,ES_green,1,c,612,1480174,1480678,1480882
67,first,20,teuer,IAT_yellow4.bmp,yellow,starting_melody,melody,starting,c,negative,positive,ES_green,0,m,911,1482568,1483072,1483276
67,first,21,kaputt,IAT_purple2.bmp,purple,starting_scream,scream,starting,c,negative,negative,ES_green,1,c,1294,1485760,1486264,1486468
67,first,22,ehrlich,IAT_purple2.bmp,purple,starting_scream,scream,starting,m,positive,negative,ES_green,1,m,601,1488836,1489340,1489544
67,first,23,brutal,IAT_red4.bmp,red,ending_melody,melody,ending,c,negative,negative,ES_green,1,c,579,1491218,1491722,1491926
67,first,24,feige,IAT_purple3.bmp,purple,starting_scream,scream,starting,c,negative,negative,ES_green,1,c,803,1493578,1494082,1494286
67,first,25,sonnig,IAT_red3.bmp,red,ending_melody,melody,ending,m,positive,negative,ES_green,1,m,1115,1496162,1496666,1496870
67,first,26,lästig,IAT_purple4.bmp,purple,starting_scream,scream,starting,c,negative,negative,ES_green,1,c,947,1499058,1499562,1499766
67,first,27,witzig,IAT_red2.bmp,red,ending_melody,melody,ending,m,positive,negative,ES_green,1,m,755,1501786,1502290,1502494
67,first,28,gerecht,IAT_green1.bmp,green,ending_scream,scream,ending,m,positive,positive,ES_green,1,m,678,1504321,1504826,1505030
67,first,29,teuer,IAT_yellow1.bmp,yellow,starting_melody,melody,starting,c,negative,positive,ES_green,1,c,651,1506783,1507287,1507491
67,first,30,sozial,IAT_green2.bmp,green,ending_scream,scream,ending,m,positive,positive,ES_green,1,m,612,1509215,1509719,1509923
67,first,31,geizig,IAT_yellow1.bmp,yellow,starting_melody,melody,starting,c,negative,positive,ES_green,1,c,660,1511609,1512113,1512317
67,first,32,munter,IAT_purple4.bmp,purple,starting_scream,scream,starting,m,positive,negative,ES_green,1,m,779,1514050,1514555,1514759
67,first,33,sozial,IAT_green4.bmp,green,ending_scream,scream,ending,m,positive,positive,ES_green,1,m,630,1516611,1517115,1517319
67,first,34,feige,IAT_yellow3.bmp,yellow,starting_melody,melody,starting,c,negative,positive,ES_green,1,c,502,1519022,1519526,1519730
67,first,35,lästig,IAT_yellow2.bmp,yellow,starting_melody,melody,starting,c,negative,positive,ES_green,1,c,503,1521305,1521810,1522014
67,first,36,streng,IAT_green4.bmp,green,ending_scream,scream,ending,c,negative,positive,ES_green,1,c,544,1523591,1524095,1524299
67,first,37,sanft,IAT_yellow3.bmp,yellow,starting_melody,melody,starting,m,positive,positive,ES_green,1,m,703,1525917,1526421,1526625
67,first,38,kaputt,IAT_red2.bmp,red,ending_melody,melody,ending,c,negative,negative,ES_green,1,c,721,1528401,1528905,1529109
67,first,39,krank,IAT_red1.bmp,red,ending_melody,melody,ending,c,negative,negative,ES_green,1,c,507,1530903,1531408,1531612
67,first,40,einsam,IAT_yellow2.bmp,yellow,starting_melody,melody,starting,c,negative,positive,ES_green,0,m,687,1533193,1533698,1533902
67,first,41,teuer,IAT_red3.bmp,red,ending_melody,melody,ending,c,negative,negative,ES_green,1,c,592,1536163,1536667,1536871
67,first,42,munter,IAT_red3.bmp,red,ending_melody,melody,ending,m,positive,negative,ES_green,0,c,760,1538537,1539042,1539246
67,first,43,gerecht,IAT_purple3.bmp,purple,starting_scream,scream,starting,m,positive,negative,ES_green,1,m,694,1541579,1542083,1542287
67,first,44,gesund,IAT_red3.bmp,red,ending_melody,melody,ending,m,positive,negative,ES_green,1,m,706,1544054,1544558,1544762
67,first,45,krank,IAT_red2.bmp,red,ending_melody,melody,ending,c,negative,negative,ES_green,1,c,636,1546543,1547047,1547251
67,first,46,sonnig,IAT_red3.bmp,red,ending_melody,melody,ending,m,positive,negative,ES_green,1,m,677,1548961,1549465,1549669
67,first,47,human,IAT_green3.bmp,green,ending_scream,scream,ending,m,positive,positive,ES_green,1,m,835,1551419,1551923,1552127
67,first,48,morsch,IAT_purple4.bmp,purple,starting_scream,scream,starting,c,negative,negative,ES_green,1,c,642,1554035,1554539,1554743
67,first,49,schön,IAT_yellow1.bmp,yellow,starting_melody,melody,starting,m,positive,positive,ES_green,1,m,793,1556459,1556964,1557168
67,first,50,einsam,IAT_yellow2.bmp,yellow,starting_melody,melody,starting,c,negative,positive,ES_green,1,c,696,1559035,1559539,1559743
67,first,51,gierig,IAT_green2.bmp,green,ending_scream,scream,ending,c,negative,positive,ES_green,1,c,830,1561513,1562017,1562221
67,first,52,einsam,IAT_red4.bmp,red,ending_melody,melody,ending,c,negative,negative,ES_green,1,c,676,1564126,1564630,1564834
67,first,53,streng,IAT_purple1.bmp,purple,starting_scream,scream,starting,c,negative,negative,ES_green,1,c,676,1566584,1567088,1567292
67,first,54,lästig,IAT_purple1.bmp,purple,starting_scream,scream,starting,c,negative,negative,ES_green,1,c,466,1569042,1569546,1569750
67,first,55,munter,IAT_yellow3.bmp,yellow,starting_melody,melody,starting,m,positive,positive,ES_green,1,m,845,1571291,1571795,1571999
67,first,56,gesund,IAT_purple1.bmp,purple,starting_scream,scream,starting,m,positive,negative,ES_green,1,m,847,1573918,1574422,1574626
67,first,57,teuer,IAT_green2.bmp,green,ending_scream,scream,ending,c,negative,positive,ES_green,1,c,831,1576545,1577049,1577253
67,first,58,schön,IAT_green4.bmp,green,ending_scream,scream,ending,m,positive,positive,ES_green,0,c,485,1579158,1579662,1579866
67,first,59,krank,IAT_green4.bmp,green,ending_scream,scream,ending,c,negative,positive,ES_green,1,c,582,1581925,1582429,1582633
67,first,60,brutal,IAT_red2.bmp,red,ending_melody,melody,ending,c,negative,negative,ES_green,1,c,607,1584289,1584793,1584997
67,first,61,geizig,IAT_red1.bmp,red,ending_melody,melody,ending,c,negative,negative,ES_green,1,c,777,1586678,1587182,1587386
67,first,62,witzig,IAT_purple2.bmp,purple,starting_scream,scream,starting,m,positive,negative,ES_green,1,m,819,1589237,1589741,1589945
67,first,63,lustig,IAT_purple3.bmp,purple,starting_scream,scream,starting,m,positive,negative,ES_green,1,m,833,1591837,1592341,1592545
67,first,64,ehrlich,IAT_yellow4.bmp,yellow,starting_melody,melody,starting,m,positive,positive,ES_green,1,m,609,1594453,1594957,1595161
67,first,65,morsch,IAT_yellow4.bmp,yellow,starting_melody,melody,starting,c,negative,positive,ES_green,1,c,611,1596844,1597348,1597552
67,first,66,lästig,IAT_red4.bmp,red,ending_melody,melody,ending,c,negative,negative,ES_green,1,c,615,1599237,1599741,1599945
67,first,67,lustig,IAT_yellow1.bmp,yellow,starting_melody,melody,starting,m,positive,positive,ES_green,0,c,503,1601634,1602139,1602343
67,first,68,sanft,IAT_yellow4.bmp,yellow,starting_melody,melody,starting,m,positive,positive,ES_green,0,c,621,1604420,1604924,1605128
67,first,69,human,IAT_purple4.bmp,purple,starting_scream,scream,starting,m,positive,negative,ES_green,0,None,1500,1607323,1607827,1608031
67,first,70,gesund,IAT_red1.bmp,red,ending_melody,melody,ending,m,positive,negative,ES_green,1,m,637,1611104,1611609,1611813
67,first,71,falsch,IAT_green3.bmp,green,ending_scream,scream,ending,c,negative,positive,ES_green,1,c,750,1613524,1614028,1614232
67,first,72,schön,IAT_purple1.bmp,purple,starting_scream,scream,starting,m,positive,negative,ES_green,1,m,583,1616055,1616560,1616764
67,first,73,heiter,IAT_green3.bmp,green,ending_scream,scream,ending,m,positive,positive,ES_green,1,m,772,1618421,1618926,1619130
67,first,74,gerecht,IAT_purple3.bmp,purple,starting_scream,scream,starting,m,positive,negative,ES_green,1,m,1319,1620974,1621479,1621683
67,first,75,heiter,IAT_yellow3.bmp,yellow,starting_melody,melody,starting,m,positive,positive,ES_green,1,m,1047,1624076,1624580,1624784
67,first,76,kaputt,IAT_purple3.bmp,purple,starting_scream,scream,starting,c,negative,negative,ES_green,1,c,648,1626905,1627409,1627613
67,first,77,lustig,IAT_yellow2.bmp,yellow,starting_melody,melody,starting,m,positive,positive,ES_green,1,m,599,1629335,1629839,1630043
67,first,78,geizig,IAT_green1.bmp,green,ending_scream,scream,ending,c,negative,positive,ES_green,1,c,1191,1631715,1632219,1632423
67,first,79,human,IAT_green3.bmp,green,ending_scream,scream,ending,m,positive,positive,ES_green,1,m,1276,1634688,1635192,1635396
67,first,80,gesund,IAT_red1.bmp,red,ending_melody,melody,ending,m,positive,negative,ES_green,1,m,726,1637746,1638251,1638455
67,first,81,gierig,IAT_purple2.bmp,purple,starting_scream,scream,starting,c,negative,negative,ES_green,0,m,1028,1640255,1640759,1640963
67,first,82,sanft,IAT_green1.bmp,green,ending_scream,scream,ending,m,positive,positive,ES_green,1,m,684,1643564,1644068,1644272
67,first,83,witzig,IAT_red1.bmp,red,ending_melody,melody,ending,m,positive,negative,ES_green,0,c,1354,1646031,1646535,1646739
67,first,84,schön,IAT_red4.bmp,red,ending_melody,melody,ending,m,positive,negative,ES_green,1,m,606,1649667,1650171,1650375
67,first,85,feige,IAT_purple2.bmp,purple,starting_scream,scream,starting,c,negative,negative,ES_green,1,c,543,1652054,1652559,1652763
67,first,86,sozial,IAT_yellow1.bmp,yellow,starting_melody,melody,starting,m,positive,positive,ES_green,1,m,515,1654381,1654885,1655089
67,first,87,witzig,IAT_purple1.bmp,purple,starting_scream,scream,starting,m,positive,negative,ES_green,1,m,618,1656678,1657182,1657386
67,first,88,streng,IAT_yellow4.bmp,yellow,starting_melody,melody,starting,c,negative,positive,ES_green,0,m,627,1659078,1659582,1659786
67,first,89,human,IAT_green1.bmp,green,ending_scream,scream,ending,m,positive,positive,ES_green,1,m,592,1661986,1662491,1662695
67,first,90,einsam,IAT_green2.bmp,green,ending_scream,scream,ending,c,negative,positive,ES_green,1,c,760,1664360,1664864,1665068
67,first,91,falsch,IAT_red4.bmp,red,ending_melody,melody,ending,c,negative,negative,ES_green,1,c,492,1666902,1667406,1667610
67,first,92,kaputt,IAT_purple4.bmp,purple,starting_scream,scream,starting,c,negative,negative,ES_green,1,c,509,1669177,1669681,1669885
67,first,93,heiter,IAT_yellow2.bmp,yellow,starting_melody,melody,starting,m,positive,positive,ES_green,1,m,570,1671468,1671972,1672176
67,first,94,streng,IAT_yellow4.bmp,yellow,starting_melody,melody,starting,c,negative,positive,ES_green,1,c,1184,1673820,1674324,1674528
67,first,95,gierig,IAT_yellow2.bmp,yellow,starting_melody,melody,starting,c,negative,positive,ES_green,0,m,699,1676786,1677290,1677494
67,second,0,lästig,IAT_purple1.bmp,purple,starting_scream,scream,starting,c,negative,negative,ES_green,1,c,635,1692199,1692704,1692908
67,second,1,lustig,IAT_green4.bmp,green,ending_scream,scream,ending,m,positive,positive,ES_green,1,m,476,1694618,1695122,1695326
67,second,2,geizig,IAT_green3.bmp,green,ending_scream,scream,ending,c,negative,positive,ES_green,1,c,663,1696875,1697379,1697583
67,second,3,witzig,IAT_green3.bmp,green,ending_scream,scream,ending,m,positive,positive,ES_green,1,m,592,1699319,1699823,1700027
67,second,4,teuer,IAT_red2.bmp,red,ending_melody,melody,ending,c,negative,negative,ES_green,1,c,523,1701693,1702197,1702401
67,second,5,human,IAT_yellow4.bmp,yellow,starting_melody,melody,starting,m,positive,positive,ES_green,1,m,533,1703998,1704502,1704706
67,second,6,ehrlich,IAT_yellow3.bmp,yellow,starting_melody,melody,starting,m,positive,positive,ES_green,1,m,614,1706313,1706817,1707021
67,second,7,lustig,IAT_purple4.bmp,purple,starting_scream,scream,starting,m,positive,negative,ES_green,1,m,589,1708708,1709212,1709416
67,second,8,ehrlich,IAT_green3.bmp,green,ending_scream,scream,ending,m,positive,positive,ES_green,1,m,865,1711079,1711584,1711788
67,second,9,morsch,IAT_purple4.bmp,purple,starting_scream,scream,starting,c,negative,negative,ES_green,1,c,641,1713725,1714230,1714434
67,second,10,lustig,IAT_red1.bmp,red,ending_melody,melody,ending,m,positive,negative,ES_green,1,m,573,1716148,1716652,1716857
67,second,11,witzig,IAT_yellow1.bmp,yellow,starting_melody,melody,starting,m,positive,positive,ES_green,1,m,527,1718504,1719009,1719213
67,second,12,ehrlich,IAT_yellow4.bmp,yellow,starting_melody,melody,starting,m,positive,positive,ES_green,1,m,547,1720814,1721318,1721522
67,second,13,sozial,IAT_red1.bmp,red,ending_melody,melody,ending,m,positive,negative,ES_green,1,m,633,1723143,1723647,1723851
67,second,14,streng,IAT_yellow2.bmp,yellow,starting_melody,melody,starting,c,negative,positive,ES_green,0,m,558,1725558,1726062,1726266
67,second,15,morsch,IAT_purple3.bmp,purple,starting_scream,scream,starting,c,negative,negative,ES_green,1,c,537,1728398,1728902,1729106
67,second,16,feige,IAT_purple1.bmp,purple,starting_scream,scream,starting,c,negative,negative,ES_green,1,c,574,1730717,1731221,1731425
67,second,17,gerecht,IAT_yellow1.bmp,yellow,starting_melody,melody,starting,m,positive,positive,ES_green,1,m,599,1733074,1733578,1733782
67,second,18,morsch,IAT_red4.bmp,red,ending_melody,melody,ending,c,negative,negative,ES_green,1,c,585,1735455,1735959,1736163
67,second,19,geizig,IAT_green2.bmp,green,ending_scream,scream,ending,c,negative,positive,ES_green,1,c,718,1737820,1738324,1738528
67,second,20,streng,IAT_purple4.bmp,purple,starting_scream,scream,starting,c,negative,negative,ES_green,1,c,1008,1740318,1740823,1741027
67,second,21,human,IAT_red2.bmp,red,ending_melody,melody,ending,m,positive,negative,ES_green,1,m,615,1743108,1743612,1743816
67,second,22,einsam,IAT_red2.bmp,red,ending_melody,melody,ending,c,negative,negative,ES_green,1,c,650,1745505,1746009,1746213
67,second,23,krank,IAT_red3.bmp,red,ending_melody,melody,ending,c,negative,negative,ES_green,1,c,666,1747937,1748441,1748645
67,second,24,witzig,IAT_green3.bmp,green,ending_scream,scream,ending,m,positive,positive,ES_green,1,m,620,1750384,1750888,1751092
67,second,25,feige,IAT_yellow2.bmp,yellow,starting_melody,melody,starting,c,negative,positive,ES_green,1,c,513,1752786,1753290,1753494
67,second,26,sozial,IAT_purple4.bmp,purple,starting_scream,scream,starting,m,positive,negative,ES_green,1,m,869,1755080,1755584,1755788
67,second,27,heiter,IAT_green1.bmp,green,ending_scream,scream,ending,m,positive,positive,ES_green,1,m,662,1757731,1758235,1758439
67,second,28,sonnig,IAT_red4.bmp,red,ending_melody,melody,ending,m,positive,negative,ES_green,1,m,607,1760174,1760679,1760883
67,second,29,human,IAT_red3.bmp,red,ending_melody,melody,ending,m,positive,negative,ES_green,1,m,643,1762564,1763068,1763272
67,second,30,schön,IAT_red1.bmp,red,ending_melody,melody,ending,m,positive,negative,ES_green,1,m,450,1764989,1765493,1765697
67,second,31,einsam,IAT_yellow1.bmp,yellow,starting_melody,melody,starting,c,negative,positive,ES_green,1,c,649,1767220,1767724,1767928
67,second,32,kaputt,IAT_purple4.bmp,purple,starting_scream,scream,starting,c,negative,negative,ES_green,1,c,565,1769650,1770154,1770358
67,second,33,sozial,IAT_yellow3.bmp,yellow,starting_melody,melody,starting,m,positive,positive,ES_green,1,m,528,1771997,1772502,1772706
67,second,34,lästig,IAT_yellow4.bmp,yellow,starting_melody,melody,starting,c,negative,positive,ES_green,1,c,694,1774308,1774812,1775016
67,second,35,gierig,IAT_green4.bmp,green,ending_scream,scream,ending,c,negative,positive,ES_green,1,c,565,1776784,1777288,1777492
67,second,36,krank,IAT_yellow3.bmp,yellow,starting_melody,melody,starting,c,negative,positive,ES_green,1,c,693,1779131,1779635,1779839
67,second,37,streng,IAT_purple2.bmp,purple,starting_scream,scream,starting,c,negative,negative,ES_green,1,c,1090,1781604,1782109,1782313
67,second,38,gierig,IAT_green2.bmp,green,ending_scream,scream,ending,c,negative,positive,ES_green,1,c,505,1784476,1784980,1785184
67,second,39,lästig,IAT_red3.bmp,red,ending_melody,melody,ending,c,negative,negative,ES_green,1,c,592,1786763,1787268,1787472
67,second,40,feige,IAT_green2.bmp,green,ending_scream,scream,ending,c,negative,positive,ES_green,0,m,460,1789138,1789642,1789846
67,second,41,kaputt,IAT_yellow1.bmp,yellow,starting_melody,melody,starting,c,negative,positive,ES_green,1,c,1157,1791880,1792384,1792588
67,second,42,krank,IAT_red1.bmp,red,ending_melody,melody,ending,c,negative,negative,ES_green,1,c,617,1794819,1795324,1795528
67,second,43,sonnig,IAT_red3.bmp,red,ending_melody,melody,ending,m,positive,negative,ES_green,1,m,784,1797218,1797723,1797927
67,second,44,gerecht,IAT_yellow1.bmp,yellow,starting_melody,melody,starting,m,positive,positive,ES_green,1,m,931,1799784,1800288,1800492
67,second,45,witzig,IAT_yellow2.bmp,yellow,starting_melody,melody,starting,m,positive,positive,ES_green,1,m,1371,1802497,1803001,1803205
67,second,46,gierig,IAT_green1.bmp,green,ending_scream,scream,ending,c,negative,positive,ES_green,1,c,633,1805649,1806153,1806357
67,second,47,brutal,IAT_green2.bmp,green,ending_scream,scream,ending,c,negative,positive,ES_green,1,c,643,1808063,1808568,1808772
67,second,48,munter,IAT_green2.bmp,green,ending_scream,scream,ending,m,positive,positive,ES_green,0,c,1005,1810490,1810994,1811198
67,second,49,kaputt,IAT_yellow3.bmp,yellow,starting_melody,melody,starting,c,negative,positive,ES_green,1,c,614,1813777,1814281,1814485
67,second,50,gerecht,IAT_red4.bmp,red,ending_melody,melody,ending,m,positive,negative,ES_green,0,c,847,1816173,1816677,1816881
67,second,51,sanft,IAT_green2.bmp,green,ending_scream,scream,ending,m,positive,positive,ES_green,1,m,689,1819302,1819806,1820010
67,second,52,munter,IAT_green4.bmp,green,ending_scream,scream,ending,m,positive,positive,ES_green,1,m,744,1821773,1822277,1822481
67,second,53,gesund,IAT_yellow1.bmp,yellow,starting_melody,melody,starting,m,positive,positive,ES_green,1,m,548,1824298,1824802,1825006
67,second,54,geizig,IAT_purple3.bmp,purple,starting_scream,scream,starting,c,negative,negative,ES_green,1,c,1000,1826628,1827132,1827336
67,second,55,schön,IAT_red1.bmp,red,ending_melody,melody,ending,m,positive,negative,ES_green,1,m,589,1829411,1829915,1830119
67,second,56,human,IAT_yellow2.bmp,yellow,starting_melody,melody,starting,m,positive,positive,ES_green,1,m,555,1831782,1832286,1832490
67,second,57,morsch,IAT_red2.bmp,red,ending_melody,melody,ending,c,negative,negative,ES_green,1,c,679,1834119,1834623,1834827
67,second,58,kaputt,IAT_red1.bmp,red,ending_melody,melody,ending,c,negative,negative,ES_green,1,c,717,1836581,1837085,1837289
67,second,59,ehrlich,IAT_green1.bmp,green,ending_scream,scream,ending,m,positive,positive,ES_green,1,m,587,1839079,1839583,1839787
67,second,60,brutal,IAT_yellow4.bmp,yellow,starting_melody,melody,starting,c,negative,positive,ES_green,1,c,605,1841448,1841953,1842157
67,second,61,gierig,IAT_yellow4.bmp,yellow,starting_melody,melody,starting,c,negative,positive,ES_green,1,c,622,1843836,1844340,1844544
67,second,62,heiter,IAT_purple1.bmp,purple,starting_scream,scream,starting,m,positive,negative,ES_green,1,m,527,1846240,1846744,1846948
67,second,63,sanft,IAT_purple2.bmp,purple,starting_scream,scream,starting,m,positive,negative,ES_green,1,m,619,1848550,1849054,1849258
67,second,64,munter,IAT_green3.bmp,green,ending_scream,scream,ending,m,positive,positive,ES_green,1,m,562,1850952,1851456,1851660
67,second,65,heiter,IAT_purple3.bmp,purple,starting_scream,scream,starting,m,positive,negative,ES_green,1,m,791,1853295,1853799,1854003
67,second,66,brutal,IAT_green4.bmp,green,ending_scream,scream,ending,c,negative,positive,ES_green,1,c,717,1855867,1856372,1856576
67,second,67,schön,IAT_purple3.bmp,purple,starting_scream,scream,starting,m,positive,negative,ES_green,1,m,466,1858367,1858871,1859075
67,second,68,sozial,IAT_purple3.bmp,purple,starting_scream,scream,starting,m,positive,negative,ES_green,1,m,544,1860614,1861118,1861322
67,second,69,gerecht,IAT_purple3.bmp,purple,starting_scream,scream,starting,m,positive,negative,ES_green,1,m,528,1862939,1863443,1863647
67,second,70,lästig,IAT_green1.bmp,green,ending_scream,scream,ending,c,negative,positive,ES_green,1,c,479,1865249,1865753,1865957
67,second,71,falsch,IAT_red4.bmp,red,ending_melody,melody,ending,c,negative,negative,ES_green,1,c,752,1867511,1868015,1868219
67,second,72,gesund,IAT_green1.bmp,green,ending_scream,scream,ending,m,positive,positive,ES_green,1,m,610,1870045,1870549,1870753
67,second,73,sonnig,IAT_red2.bmp,red,ending_melody,melody,ending,m,positive,negative,ES_green,1,m,503,1872437,1872941,1873145
67,second,74,teuer,IAT_yellow4.bmp,yellow,starting_melody,melody,starting,c,negative,positive,ES_green,0,m,711,1874722,1875226,1875430
67,second,75,sanft,IAT_purple1.bmp,purple,starting_scream,scream,starting,m,positive,negative,ES_green,1,m,649,1877715,1878219,1878423
67,second,76,falsch,IAT_green3.bmp,green,ending_scream,scream,ending,c,negative,positive,ES_green,1,c,492,1880146,1880651,1880855
67,second,77,geizig,IAT_purple2.bmp,purple,starting_scream,scream,starting,c,negative,negative,ES_green,0,m,574,1882421,1882925,1883129
67,second,78,sonnig,IAT_red3.bmp,red,ending_melody,melody,ending,m,positive,negative,ES_green,1,m,757,1885278,1885782,1885986
67,second,79,einsam,IAT_red2.bmp,red,ending_melody,melody,ending,c,negative,negative,ES_green,0,m,523,1887818,1888323,1888527
67,second,80,gesund,IAT_yellow3.bmp,yellow,starting_melody,melody,starting,m,positive,positive,ES_green,1,m,723,1890625,1891129,1891333
67,second,81,feige,IAT_yellow2.bmp,yellow,starting_melody,melody,starting,c,negative,positive,ES_green,1,c,831,1893131,1893635,1893839
67,second,82,heiter,IAT_yellow3.bmp,yellow,starting_melody,melody,starting,m,positive,positive,ES_green,1,m,655,1895744,1896248,1896452
67,second,83,schön,IAT_purple1.bmp,purple,starting_scream,scream,starting,m,positive,negative,ES_green,1,m,539,1898181,1898685,1898889
67,second,84,munter,IAT_purple1.bmp,purple,starting_scream,scream,starting,m,positive,negative,ES_green,1,m,513,1900503,1901007,1901211
67,second,85,einsam,IAT_red4.bmp,red,ending_melody,melody,ending,c,negative,negative,ES_green,1,c,821,1902799,1903303,1903507
67,second,86,brutal,IAT_yellow2.bmp,yellow,starting_melody,melody,starting,c,negative,positive,ES_green,1,c,654,1905402,1905906,1906110
67,second,87,falsch,IAT_red4.bmp,red,ending_melody,melody,ending,c,negative,negative,ES_green,1,c,844,1907837,1908342,1908547
67,second,88,krank,IAT_purple2.bmp,purple,starting_scream,scream,starting,c,negative,negative,ES_green,1,c,620,1910466,1910970,1911174
67,second,89,lustig,IAT_green1.bmp,green,ending_scream,scream,ending,m,positive,positive,ES_green,1,m,517,1912867,1913371,1913575
67,second,90,teuer,IAT_purple2.bmp,purple,starting_scream,scream,starting,c,negative,negative,ES_green,1,c,566,1915165,1915670,1915874
67,second,91,streng,IAT_green4.bmp,green,ending_scream,scream,ending,c,negative,positive,ES_green,0,m,672,1917514,1918019,1918223
67,second,92,gesund,IAT_purple2.bmp,purple,starting_scream,scream,starting,m,positive,negative,ES_green,1,m,796,1920470,1920975,1921179
67,second,93,teuer,IAT_purple4.bmp,purple,starting_scream,scream,starting,c,negative,negative,ES_green,1,c,693,1923048,1923553,1923757
67,second,94,sanft,IAT_red3.bmp,red,ending_melody,melody,ending,m,positive,negative,ES_green,0,c,611,1925525,1926029,1926233
67,second,95,falsch,IAT_green4.bmp,green,ending_scream,scream,ending,c,negative,positive,ES_green,1,c,519,1928417,1928922,1929127
67,third,0,heiter,IAT_yellow4.bmp,yellow,starting_melody,melody,starting,m,positive,positive,ES_green,1,m,564,1938986,1939491,1939695
67,third,1,sozial,IAT_red3.bmp,red,ending_melody,melody,ending,m,positive,negative,ES_green,1,m,547,1941334,1941838,1942042
67,third,2,gierig,IAT_red4.bmp,red,ending_melody,melody,ending,c,negative,negative,ES_green,1,c,588,1943664,1944168,1944372
67,third,3,einsam,IAT_green4.bmp,green,ending_scream,scream,ending,c,negative,positive,ES_green,1,c,569,1946034,1946538,1946742
67,third,4,falsch,IAT_purple4.bmp,purple,starting_scream,scream,starting,c,negative,negative,ES_green,1,c,494,1948383,1948887,1949091
67,third,5,ehrlich,IAT_red4.bmp,red,ending_melody,melody,ending,m,positive,negative,ES_green,1,m,819,1950659,1951163,1951367
67,third,6,kaputt,IAT_yellow1.bmp,yellow,starting_melody,melody,starting,c,negative,positive,ES_green,1,c,540,1953261,1953765,1953969
67,third,7,witzig,IAT_yellow3.bmp,yellow,starting_melody,melody,starting,m,positive,positive,ES_green,1,m,559,1955583,1956087,1956291
67,third,8,gerecht,IAT_purple2.bmp,purple,starting_scream,scream,starting,m,positive,negative,ES_green,1,m,687,1957924,1958428,1958632
67,third,9,ehrlich,IAT_purple3.bmp,purple,starting_scream,scream,starting,m,positive,negative,ES_green,1,m,560,1960393,1960897,1961101
67,third,10,gierig,IAT_purple3.bmp,purple,starting_scream,scream,starting,c,negative,negative,ES_green,1,c,623,1962733,1963238,1963442
67,third,11,einsam,IAT_purple4.bmp,purple,starting_scream,scream,starting,c,negative,negative,ES_green,1,c,651,1965138,1965642,1965846
67,third,12,sozial,IAT_yellow1.bmp,yellow,starting_melody,melody,starting,m,positive,positive,ES_green,1,m,822,1967571,1968075,1968279
67,third,13,gierig,IAT_red4.bmp,red,ending_melody,melody,ending,c,negative,negative,ES_green,1,c,921,1970174,1970679,1970883
67,third,14,heiter,IAT_green4.bmp,green,ending_scream,scream,ending,m,positive,positive,ES_green,1,m,631,1972877,1973381,1973585
67,third,15,sozial,IAT_purple4.bmp,purple,starting_scream,scream,starting,m,positive,negative,ES_green,1,m,638,1975289,1975793,1975997
67,third,16,krank,IAT_red3.bmp,red,ending_melody,melody,ending,c,negative,negative,ES_green,1,c,420,1977709,1978214,1978418
67,third,17,lästig,IAT_red1.bmp,red,ending_melody,melody,ending,c,negative,negative,ES_green,1,c,604,1979912,1980416,1980620
67,third,18,geizig,IAT_yellow3.bmp,yellow,starting_melody,melody,starting,c,negative,positive,ES_green,1,c,666,1982298,1982803,1983007
67,third,19,lästig,IAT_yellow2.bmp,yellow,starting_melody,melody,starting,c,negative,positive,ES_green,1,c,652,1984747,1985251,1985455
67,third,20,sonnig,IAT_red3.bmp,red,ending_melody,melody,ending,m,positive,negative,ES_green,1,m,523,1987182,1987686,1987890
67,third,21,krank,IAT_purple2.bmp,purple,starting_scream,scream,starting,c,negative,negative,ES_green,1,c,615,1989487,1989991,1990195
67,third,22,morsch,IAT_yellow4.bmp,yellow,starting_melody,melody,starting,c,negative,positive,ES_green,1,c,566,1991884,1992388,1992592
67,third,23,sanft,IAT_red2.bmp,red,ending_melody,melody,ending,m,positive,negative,ES_green,1,m,577,1994233,1994737,1994941
67,third,24,witzig,IAT_purple1.bmp,purple,starting_scream,scream,starting,m,positive,negative,ES_green,1,m,797,1996592,1997096,1997300
67,third,25,lustig,IAT_purple3.bmp,purple,starting_scream,scream,starting,m,positive,negative,ES_green,1,m,626,1999170,1999674,1999878
67,third,26,kaputt,IAT_green1.bmp,green,ending_scream,scream,ending,c,negative,positive,ES_green,1,c,815,2001578,2002082,2002286
67,third,27,sonnig,IAT_yellow3.bmp,yellow,starting_melody,melody,starting,m,positive,positive,ES_green,1,m,640,2004175,2004679,2004883
67,third,28,sanft,IAT_green3.bmp,green,ending_scream,scream,ending,m,positive,positive,ES_green,1,m,752,2006596,2007101,2007305
67,third,29,gesund,IAT_purple2.bmp,purple,starting_scream,scream,starting,m,positive,negative,ES_green,0,c,462,2009131,2009636,2009840
67,third,30,sonnig,IAT_green4.bmp,green,ending_scream,scream,ending,m,positive,positive,ES_green,1,m,645,2011877,2012381,2012585
67,third,31,schön,IAT_purple1.bmp,purple,starting_scream,scream,starting,m,positive,negative,ES_green,1,m,686,2014304,2014808,2015012
67,third,32,human,IAT_purple1.bmp,purple,starting_scream,scream,starting,m,positive,negative,ES_green,1,m,750,2016773,2017278,2017482
67,third,33,schön,IAT_green3.bmp,green,ending_scream,scream,ending,m,positive,positive,ES_green,1,m,738,2019305,2019810,2020014
67,third,34,sozial,IAT_yellow1.bmp,yellow,starting_melody,melody,starting,m,positive,positive,ES_green,1,m,659,2021826,2022330,2022534
67,third,35,gesund,IAT_red1.bmp,red,ending_melody,melody,ending,m,positive,negative,ES_green,0,c,784,2024267,2024771,2024975
67,third,36,schön,IAT_yellow3.bmp,yellow,starting_melody,melody,starting,m,positive,positive,ES_green,1,m,624,2027334,2027839,2028043
67,third,37,geizig,IAT_yellow1.bmp,yellow,starting_melody,melody,starting,c,negative,positive,ES_green,1,c,968,2029741,2030245,2030449
67,third,38,feige,IAT_green2.bmp,green,ending_scream,scream,ending,c,negative,positive,ES_green,0,m,926,2032490,2032995,2033199
67,third,39,teuer,IAT_yellow4.bmp,yellow,starting_melody,melody,starting,c,negative,positive,ES_green,1,c,817,2035699,2036204,2036408
67,third,40,morsch,IAT_green1.bmp,green,ending_scream,scream,ending,c,negative,positive,ES_green,1,c,586,2038298,2038802,2039006
67,third,41,lustig,IAT_purple3.bmp,purple,starting_scream,scream,starting,m,positive,negative,ES_green,1,m,959,2040665,2041170,2041374
67,third,42,gerecht,IAT_purple1.bmp,purple,starting_scream,scream,starting,m,positive,negative,ES_green,1,m,669,2043407,2043912,2044116
67,third,43,gesund,IAT_red3.bmp,red,ending_melody,melody,ending,m,positive,negative,ES_green,1,m,614,2045859,2046363,2046567
67,third,44,munter,IAT_green1.bmp,green,ending_scream,scream,ending,m,positive,positive,ES_green,1,m,851,2048255,2048760,2048964
67,third,45,lästig,IAT_yellow2.bmp,yellow,starting_melody,melody,starting,c,negative,positive,ES_green,1,c,1069,2050889,2051393,2051597
67,third,46,teuer,IAT_purple2.bmp,purple,starting_scream,scream,starting,c,negative,negative,ES_green,1,c,734,2053740,2054244,2054448
67,third,47,witzig,IAT_red1.bmp,red,ending_melody,melody,ending,m,positive,negative,ES_green,1,m,750,2056257,2056761,2056965
67,third,48,sanft,IAT_green2.bmp,green,ending_scream,scream,ending,m,positive,positive,ES_green,1,m,601,2058791,2059295,2059499
67,third,49,kaputt,IAT_red4.bmp,red,ending_melody,melody,ending,c,negative,negative,ES_green,1,c,932,2061174,2061678,2061882
67,third,50,krank,IAT_red4.bmp,red,ending_melody,melody,ending,c,negative,negative,ES_green,1,c,687,2063888,2064392,2064596
67,third,51,human,IAT_red1.bmp,red,ending_melody,melody,ending,m,positive,negative,ES_green,1,m,719,2066357,2066861,2067065
67,third,52,falsch,IAT_purple4.bmp,purple,starting_scream,scream,starting,c,negative,negative,ES_green,1,c,748,2068858,2069362,2069566
67,third,53,einsam,IAT_yellow2.bmp,yellow,starting_melody,melody,starting,c,negative,positive,ES_green,1,c,575,2071388,2071892,2072096
67,third,54,feige,IAT_red2.bmp,red,ending_melody,melody,ending,c,negative,negative,ES_green,1,c,862,2073746,2074250,2074454
67,third,55,morsch,IAT_green2.bmp,green,ending_scream,scream,ending,c,negative,positive,ES_green,1,c,624,2076391,2076895,2077099
67,third,56,brutal,IAT_green4.bmp,green,ending_scream,scream,ending,c,negative,positive,ES_green,1,c,706,2078798,2079302,2079506
67,third,57,munter,IAT_red4.bmp,red,ending_melody,melody,ending,m,positive,negative,ES_green,0,c,943,2081286,2081791,2081995
67,third,58,geizig,IAT_red2.bmp,red,ending_melody,melody,ending,c,negative,negative,ES_green,0,m,867,2084512,2085016,2085220
67,third,59,streng,IAT_red1.bmp,red,ending_melody,melody,ending,c,negative,negative,ES_green,1,c,991,2087661,2088165,2088369
67,third,60,kaputt,IAT_purple4.bmp,purple,starting_scream,scream,starting,c,negative,negative,ES_green,1,c,800,2090433,2090938,2091142
67,third,61,lästig,IAT_yellow4.bmp,yellow,starting_melody,melody,starting,c,negative,positive,ES_green,1,c,761,2093017,2093521,2093725
67,third,62,morsch,IAT_purple3.bmp,purple,starting_scream,scream,starting,c,negative,negative,ES_green,1,c,560,2095561,2096066,2096270
67,third,63,falsch,IAT_red2.bmp,red,ending_melody,melody,ending,c,negative,negative,ES_green,1,c,814,2097904,2098408,2098612
67,third,64,schön,IAT_green3.bmp,green,ending_scream,scream,ending,m,positive,positive,ES_green,1,m,533,2100500,2101004,2101208
67,third,65,geizig,IAT_purple1.bmp,purple,starting_scream,scream,starting,c,negative,negative,ES_green,1,c,733,2102816,2103320,2103524
67,third,66,sanft,IAT_red1.bmp,red,ending_melody,melody,ending,m,positive,negative,ES_green,1,m,690,2105332,2105837,2106041
67,third,67,ehrlich,IAT_green1.bmp,green,ending_scream,scream,ending,m,positive,positive,ES_green,1,m,701,2107805,2108309,2108513
67,third,68,munter,IAT_yellow1.bmp,yellow,starting_melody,melody,starting,m,positive,positive,ES_green,1,m,643,2110289,2110793,2110997
67,third,69,streng,IAT_green2.bmp,green,ending_scream,scream,ending,c,negative,positive,ES_green,1,c,718,2112714,2113218,2113422
67,third,70,feige,IAT_green3.bmp,green,ending_scream,scream,ending,c,negative,positive,ES_green,1,c,973,2115214,2115719,2115923
67,third,71,teuer,IAT_green2.bmp,green,ending_scream,scream,ending,c,negative,positive,ES_green,1,c,886,2117969,2118473,2118677
67,third,72,sonnig,IAT_red3.bmp,red,ending_melody,melody,ending,m,positive,negative,ES_green,1,m,1275,2120638,2121142,2121346
67,third,73,streng,IAT_red3.bmp,red,ending_melody,melody,ending,c,negative,negative,ES_green,1,c,725,2123695,2124200,2124404
67,third,74,gerecht,IAT_green1.bmp,green,ending_scream,scream,ending,m,positive,positive,ES_green,0,c,836,2126203,2126707,2126911
67,third,75,gesund,IAT_green1.bmp,green,ending_scream,scream,ending,m,positive,positive,ES_green,1,m,689,2129322,2129826,2130030
67,third,76,falsch,IAT_yellow2.bmp,yellow,starting_melody,melody,starting,c,negative,positive,ES_green,1,c,709,2131793,2132297,2132501
67,third,77,brutal,IAT_green4.bmp,green,ending_scream,scream,ending,c,negative,positive,ES_green,1,c,585,2134285,2134789,2134993
67,third,78,lustig,IAT_red2.bmp,red,ending_melody,melody,ending,m,positive,negative,ES_green,1,m,912,2136653,2137158,2137362
67,third,79,einsam,IAT_green4.bmp,green,ending_scream,scream,ending,c,negative,positive,ES_green,0,m,653,2139349,2139853,2140057
67,third,80,heiter,IAT_yellow3.bmp,yellow,starting_melody,melody,starting,m,positive,positive,ES_green,0,c,829,2142284,2142788,2142992
67,third,81,human,IAT_green3.bmp,green,ending_scream,scream,ending,m,positive,positive,ES_green,1,m,1138,2145395,2145899,2146103
67,third,82,teuer,IAT_yellow3.bmp,yellow,starting_melody,melody,starting,c,negative,positive,ES_green,1,c,820,2148316,2148820,2149024
67,third,83,heiter,IAT_yellow2.bmp,yellow,starting_melody,melody,starting,m,positive,positive,ES_green,1,m,658,2150919,2151423,2151627
67,third,84,ehrlich,IAT_purple3.bmp,purple,starting_scream,scream,starting,m,positive,negative,ES_green,1,m,633,2153359,2153864,2154068
67,third,85,witzig,IAT_purple4.bmp,purple,starting_scream,scream,starting,m,positive,negative,ES_green,1,m,537,2155776,2156280,2156484
67,third,86,feige,IAT_purple1.bmp,purple,starting_scream,scream,starting,c,negative,negative,ES_green,1,c,963,2158095,2158599,2158803
67,third,87,streng,IAT_red2.bmp,red,ending_melody,melody,ending,c,negative,negative,ES_green,1,c,809,2160841,2161345,2161549
67,third,88,gierig,IAT_purple2.bmp,purple,starting_scream,scream,starting,c,negative,negative,ES_green,1,c,871,2163434,2163938,2164142
67,third,89,human,IAT_yellow1.bmp,yellow,starting_melody,melody,starting,m,positive,positive,ES_green,1,m,658,2166088,2166592,2166796
67,third,90,brutal,IAT_yellow4.bmp,yellow,starting_melody,melody,starting,c,negative,positive,ES_green,1,c,569,2168529,2169033,2169237
67,third,91,gerecht,IAT_green2.bmp,green,ending_scream,scream,ending,m,positive,positive,ES_green,0,c,683,2170881,2171385,2171589
67,third,92,krank,IAT_green3.bmp,green,ending_scream,scream,ending,c,negative,positive,ES_green,1,c,706,2173847,2174351,2174555
67,third,93,brutal,IAT_purple2.bmp,purple,starting_scream,scream,starting,c,negative,negative,ES_green,1,c,567,2176335,2176839,2177043
67,third,94,lustig,IAT_yellow2.bmp,yellow,starting_melody,melody,starting,m,positive,positive,ES_green,0,c,665,2178685,2179189,2179393
67,third,95,munter,IAT_yellow4.bmp,yellow,starting_melody,melody,starting,m,positive,positive,ES_green,1,m,736,2181634,2182138,2182342
67,forth,0,heiter,IAT_purple1.bmp,purple,starting_scream,scream,starting,m,positive,negative,ES_green,1,m,727,2191488,2191992,2192196
67,forth,1,lustig,IAT_purple3.bmp,purple,starting_scream,scream,starting,m,positive,negative,ES_green,1,m,612,2193999,2194503,2194707
67,forth,2,gierig,IAT_green4.bmp,green,ending_scream,scream,ending,c,negative,positive,ES_green,0,m,612,2196393,2196898,2197102
67,forth,3,morsch,IAT_yellow2.bmp,yellow,starting_melody,melody,starting,c,negative,positive,ES_green,1,c,1124,2199290,2199795,2199999
67,forth,4,brutal,IAT_yellow4.bmp,yellow,starting_melody,melody,starting,c,negative,positive,ES_green,1,c,708,2202197,2202701,2202905
67,forth,5,morsch,IAT_purple1.bmp,purple,starting_scream,scream,starting,c,negative,negative,ES_green,1,c,529,2204687,2205191,2205395
67,forth,6,munter,IAT_yellow3.bmp,yellow,starting_melody,melody,starting,m,positive,positive,ES_green,1,m,659,2206997,2207502,2207706
67,forth,7,gesund,IAT_yellow1.bmp,yellow,starting_melody,melody,starting,m,positive,positive,ES_green,1,m,553,2209439,2209943,2210147
67,forth,8,gerecht,IAT_red4.bmp,red,ending_melody,melody,ending,m,positive,negative,ES_green,0,c,694,2211774,2212278,2212482
67,forth,9,kaputt,IAT_red4.bmp,red,ending_melody,melody,ending,c,negative,negative,ES_green,1,c,1039,2214750,2215254,2215458
67,forth,10,streng,IAT_purple4.bmp,purple,starting_scream,scream,starting,c,negative,negative,ES_green,0,m,713,2217572,2218076,2218280
67,forth,11,heiter,IAT_green4.bmp,green,ending_scream,scream,ending,m,positive,positive,ES_green,1,m,820,2220566,2221070,2221274
67,forth,12,gesund,IAT_yellow3.bmp,yellow,starting_melody,melody,starting,m,positive,positive,ES_green,0,c,689,2223167,2223672,2223876
67,forth,13,sonnig,IAT_yellow1.bmp,yellow,starting_melody,melody,starting,m,positive,positive,ES_green,1,m,565,2226139,2226643,2226847
67,forth,14,gerecht,IAT_green2.bmp,green,ending_scream,scream,ending,m,positive,positive,ES_green,1,m,655,2228485,2228989,2229193
67,forth,15,lustig,IAT_red3.bmp,red,ending_melody,melody,ending,m,positive,negative,ES_green,1,m,828,2230922,2231426,2231630
67,forth,16,human,IAT_red3.bmp,red,ending_melody,melody,ending,m,positive,negative,ES_green,1,m,578,2233532,2234037,2234241
67,forth,17,geizig,IAT_yellow2.bmp,yellow,starting_melody,melody,starting,c,negative,positive,ES_green,0,m,542,2235894,2236398,2236602
67,forth,18,teuer,IAT_purple2.bmp,purple,starting_scream,scream,starting,c,negative,negative,ES_green,1,c,754,2238719,2239223,2239427
67,forth,19,schön,IAT_red1.bmp,red,ending_melody,melody,ending,m,positive,negative,ES_green,1,m,658,2241256,2241760,2241964
67,forth,20,munter,IAT_red3.bmp,red,ending_melody,melody,ending,m,positive,negative,ES_green,1,m,716,2243695,2244200,2244404
67,forth,21,sanft,IAT_red2.bmp,red,ending_melody,melody,ending,m,positive,negative,ES_green,1,m,701,2246194,2246698,2246902
67,forth,22,sozial,IAT_green4.bmp,green,ending_scream,scream,ending,m,positive,positive,ES_green,1,m,610,2248678,2249182,2249386
67,forth,23,gierig,IAT_yellow2.bmp,yellow,starting_melody,melody,starting,c,negative,positive,ES_green,0,m,590,2251071,2251575,2251779
67,forth,24,sanft,IAT_red2.bmp,red,ending_melody,melody,ending,m,positive,negative,ES_green,1,m,995,2253944,2254448,2254652
67,forth,25,falsch,IAT_yellow2.bmp,yellow,starting_melody,melody,starting,c,negative,positive,ES_green,1,c,666,2256723,2257227,2257431
67,forth,26,kaputt,IAT_yellow3.bmp,yellow,starting_melody,melody,starting,c,negative,positive,ES_green,1,c,957,2259172,2259676,2259880
67,forth,27,morsch,IAT_green1.bmp,green,ending_scream,scream,ending,c,negative,positive,ES_green,1,c,707,2261910,2262415,2262620
67,forth,28,streng,IAT_red1.bmp,red,ending_melody,melody,ending,c,negative,negative,ES_green,0,m,725,2264401,2264905,2265109
67,forth,29,ehrlich,IAT_red3.bmp,red,ending_melody,melody,ending,m,positive,negative,ES_green,1,m,609,2267409,2267913,2268117
67,forth,30,brutal,IAT_purple4.bmp,purple,starting_scream,scream,starting,c,negative,negative,ES_green,1,c,497,2269799,2270303,2270507
67,forth,31,witzig,IAT_purple4.bmp,purple,starting_scream,scream,starting,m,positive,negative,ES_green,1,m,583,2272078,2272582,2272786
67,forth,32,einsam,IAT_purple2.bmp,purple,starting_scream,scream,starting,c,negative,negative,ES_green,0,m,485,2274444,2274948,2275152
67,forth,33,brutal,IAT_red2.bmp,red,ending_melody,melody,ending,c,negative,negative,ES_green,1,c,542,2277212,2277716,2277920
67,forth,34,geizig,IAT_purple4.bmp,purple,starting_scream,scream,starting,c,negative,negative,ES_green,1,c,1209,2279535,2280039,2280243
67,forth,35,feige,IAT_purple2.bmp,purple,starting_scream,scream,starting,c,negative,negative,ES_green,1,c,574,2282527,2283031,2283235
67,forth,36,heiter,IAT_green1.bmp,green,ending_scream,scream,ending,m,positive,positive,ES_green,1,m,521,2284884,2285388,2285592
67,forth,37,sonnig,IAT_yellow1.bmp,yellow,starting_melody,melody,starting,m,positive,positive,ES_green,1,m,572,2287187,2287691,2287895
67,forth,38,gesund,IAT_green3.bmp,green,ending_scream,scream,ending,m,positive,positive,ES_green,1,m,498,2289542,2290046,2290250
67,forth,39,einsam,IAT_yellow4.bmp,yellow,starting_melody,melody,starting,c,negative,positive,ES_green,1,c,820,2291823,2292327,2292531
67,forth,40,ehrlich,IAT_purple4.bmp,purple,starting_scream,scream,starting,m,positive,negative,ES_green,1,m,1025,2294425,2294929,2295133
67,forth,41,teuer,IAT_red2.bmp,red,ending_melody,melody,ending,c,negative,negative,ES_green,1,c,643,2297233,2297737,2297941
67,forth,42,schön,IAT_yellow2.bmp,yellow,starting_melody,melody,starting,m,positive,positive,ES_green,1,m,649,2299657,2300162,2300366
67,forth,43,gerecht,IAT_yellow3.bmp,yellow,starting_melody,melody,starting,m,positive,positive,ES_green,1,m,700,2302090,2302594,2302798
67,forth,44,witzig,IAT_green1.bmp,green,ending_scream,scream,ending,m,positive,positive,ES_green,1,m,834,2304572,2305077,2305281
67,forth,45,gierig,IAT_purple4.bmp,purple,starting_scream,scream,starting,c,negative,negative,ES_green,1,c,587,2307189,2307693,2307897
67,forth,46,krank,IAT_purple1.bmp,purple,starting_scream,scream,starting,c,negative,negative,ES_green,1,c,929,2309557,2310062,2310266
67,forth,47,human,IAT_purple1.bmp,purple,starting_scream,scream,starting,m,positive,negative,ES_green,1,m,722,2312270,2312774,2312978
67,forth,48,einsam,IAT_green3.bmp,green,ending_scream,scream,ending,c,negative,positive,ES_green,1,c,787,2314774,2315278,2315482
67,forth,49,sonnig,IAT_purple1.bmp,purple,starting_scream,scream,starting,m,positive,negative,ES_green,1,m,711,2317344,2317848,2318052
67,forth,50,morsch,IAT_green2.bmp,green,ending_scream,scream,ending,c,negative,positive,ES_green,1,c,557,2319837,2320342,2320546
67,forth,51,lästig,IAT_yellow1.bmp,yellow,starting_melody,melody,starting,c,negative,positive,ES_green,1,c,780,2322177,2322681,2322885
67,forth,52,ehrlich,IAT_red1.bmp,red,ending_melody,melody,ending,m,positive,negative,ES_green,1,m,797,2324740,2325244,2325448
67,forth,53,sozial,IAT_green3.bmp,green,ending_scream,scream,ending,m,positive,positive,ES_green,1,m,576,2327319,2327823,2328027
67,forth,54,witzig,IAT_green3.bmp,green,ending_scream,scream,ending,m,positive,positive,ES_green,1,m,510,2329678,2330182,2330387
67,forth,55,human,IAT_purple1.bmp,purple,starting_scream,scream,starting,m,positive,negative,ES_green,1,m,514,2331972,2332476,2332680
67,forth,56,feige,IAT_red4.bmp,red,ending_melody,melody,ending,c,negative,negative,ES_green,0,m,496,2334269,2334773,2334977
67,forth,57,sanft,IAT_yellow2.bmp,yellow,starting_melody,melody,starting,m,positive,positive,ES_green,1,m,725,2337048,2337552,2337756
67,forth,58,einsam,IAT_yellow4.bmp,yellow,starting_melody,melody,starting,c,negative,positive,ES_green,1,c,707,2339556,2340060,2340264
67,forth,59,lästig,IAT_green2.bmp,green,ending_scream,scream,ending,c,negative,positive,ES_green,1,c,897,2342045,2342549,2342753
67,forth,60,sonnig,IAT_green2.bmp,green,ending_scream,scream,ending,m,positive,positive,ES_green,1,m,630,2344724,2345228,2345432
67,forth,61,krank,IAT_red3.bmp,red,ending_melody,melody,ending,c,negative,negative,ES_green,1,c,508,2347138,2347642,2347846
67,forth,62,teuer,IAT_yellow3.bmp,yellow,starting_melody,melody,starting,c,negative,positive,ES_green,1,c,1024,2349428,2349932,2350136
67,forth,63,lästig,IAT_red4.bmp,red,ending_melody,melody,ending,c,negative,negative,ES_green,1,c,1168,2352235,2352739,2352943
67,forth,64,witzig,IAT_green1.bmp,green,ending_scream,scream,ending,m,positive,positive,ES_green,1,m,657,2355185,2355689,2355893
67,forth,65,brutal,IAT_red1.bmp,red,ending_melody,melody,ending,c,negative,negative,ES_green,1,c,544,2357624,2358129,2358333
67,forth,66,lustig,IAT_green3.bmp,green,ending_scream,scream,ending,m,positive,positive,ES_green,0,c,563,2359952,2360456,2360660
67,forth,67,geizig,IAT_yellow1.bmp,yellow,starting_melody,melody,starting,c,negative,positive,ES_green,1,c,617,2362798,2363303,2363507
67,forth,68,falsch,IAT_red2.bmp,red,ending_melody,melody,ending,c,negative,negative,ES_green,1,c,559,2365198,2365703,2365907
67,forth,69,schön,IAT_purple3.bmp,purple,starting_scream,scream,starting,m,positive,negative,ES_green,1,m,594,2367541,2368046,2368250
67,forth,70,kaputt,IAT_yellow4.bmp,yellow,starting_melody,melody,starting,c,negative,positive,ES_green,1,c,768,2369919,2370423,2370627
67,forth,71,streng,IAT_purple3.bmp,purple,starting_scream,scream,starting,c,negative,negative,ES_green,1,c,878,2372471,2372975,2373179
67,forth,72,feige,IAT_purple3.bmp,purple,starting_scream,scream,starting,c,negative,negative,ES_green,1,c,1098,2375132,2375636,2375840
67,forth,73,geizig,IAT_green2.bmp,green,ending_scream,scream,ending,c,negative,positive,ES_green,0,None,1500,2378013,2378517,2378721
67,forth,74,feige,IAT_red3.bmp,red,ending_melody,melody,ending,c,negative,negative,ES_green,1,c,776,2382295,2382800,2383004
67,forth,75,gierig,IAT_green1.bmp,green,ending_scream,scream,ending,c,negative,positive,ES_green,0,m,640,2384854,2385358,2385562
67,forth,76,gesund,IAT_yellow4.bmp,yellow,starting_melody,melody,starting,m,positive,positive,ES_green,1,m,644,2387776,2388281,2388485
67,forth,77,krank,IAT_green2.bmp,green,ending_scream,scream,ending,c,negative,positive,ES_green,1,c,563,2390203,2390708,2390912
67,forth,78,ehrlich,IAT_green1.bmp,green,ending_scream,scream,ending,m,positive,positive,ES_green,1,m,601,2392549,2393053,2393257
67,forth,79,falsch,IAT_red2.bmp,red,ending_melody,melody,ending,c,negative,negative,ES_green,1,c,506,2394933,2395437,2395641
67,forth,80,schön,IAT_red1.bmp,red,ending_melody,melody,ending,m,positive,negative,ES_green,0,None,1500,2397223,2397727,2397931
67,forth,81,munter,IAT_purple3.bmp,purple,starting_scream,scream,starting,m,positive,negative,ES_green,0,None,1500,2401505,2402009,2402213
67,forth,82,kaputt,IAT_red4.bmp,red,ending_melody,melody,ending,c,negative,negative,ES_green,1,c,610,2405787,2406291,2406495
67,forth,83,sozial,IAT_red4.bmp,red,ending_melody,melody,ending,m,positive,negative,ES_green,1,m,594,2408181,2408685,2408889
67,forth,84,streng,IAT_green4.bmp,green,ending_scream,scream,ending,c,negative,positive,ES_green,1,c,922,2410558,2411062,2411266
67,forth,85,lästig,IAT_green4.bmp,green,ending_scream,scream,ending,c,negative,positive,ES_green,1,c,646,2413263,2413767,2413971
67,forth,86,lustig,IAT_purple2.bmp,purple,starting_scream,scream,starting,m,positive,negative,ES_green,0,c,580,2415693,2416197,2416401
67,forth,87,munter,IAT_yellow1.bmp,yellow,starting_melody,melody,starting,m,positive,positive,ES_green,1,m,636,2418556,2419060,2419264
67,forth,88,gerecht,IAT_yellow3.bmp,yellow,starting_melody,melody,starting,m,positive,positive,ES_green,1,m,934,2420974,2421479,2421683
67,forth,89,krank,IAT_purple2.bmp,purple,starting_scream,scream,starting,c,negative,negative,ES_green,1,c,447,2423692,2424196,2424400
67,forth,90,teuer,IAT_green4.bmp,green,ending_scream,scream,ending,c,negative,positive,ES_green,1,c,819,2425923,2426430,2426634
67,forth,91,sozial,IAT_red1.bmp,red,ending_melody,melody,ending,m,positive,negative,ES_green,1,m,713,2428528,2429032,2429236
67,forth,92,falsch,IAT_green3.bmp,green,ending_scream,scream,ending,c,negative,positive,ES_green,1,c,616,2431024,2431528,2431732
67,forth,93,heiter,IAT_purple3.bmp,purple,starting_scream,scream,starting,m,positive,negative,ES_green,1,m,521,2433422,2433927,2434131
67,forth,94,sanft,IAT_yellow4.bmp,yellow,starting_melody,melody,starting,m,positive,positive,ES_green,1,m,600,2435727,2436231,2436435
67,forth,95,human,IAT_purple2.bmp,purple,starting_scream,scream,starting,m,positive,negative,ES_green,0,c,553,2438109,2438614,2438818
