subject_nr,block,trialnr,trial_target,trial_prime,prime_color,prime_role,prime_us,prime_relation,correct_response,target_valence,prime_valence,color_counter,correct_first_response,response_first_response,response_time_first_response,fixation_show,prime_show,target_show
24,first,0,heiter,IAT_red4.bmp,red,starting_melody,melody,starting,m,positive,positive,ES_yellow,1,m,792,1379081,1379585,1379789
24,first,1,brutal,IAT_purple2.bmp,purple,ending_melody,melody,ending,c,negative,negative,ES_yellow,1,c,608,1381657,1382161,1382365
24,first,2,gierig,IAT_green1.bmp,green,starting_scream,scream,starting,c,negative,negative,ES_yellow,1,c,453,1384046,1384550,1384755
24,first,3,geizig,IAT_green3.bmp,green,starting_scream,scream,starting,c,negative,negative,ES_yellow,1,c,486,1386282,1386787,1386991
24,first,4,falsch,IAT_green2.bmp,green,starting_scream,scream,starting,c,negative,negative,ES_yellow,1,c,541,1388550,1389054,1389258
24,first,5,feige,IAT_purple4.bmp,purple,ending_melody,melody,ending,c,negative,negative,ES_yellow,1,c,580,1390873,1391380,1391584
24,first,6,munter,IAT_purple2.bmp,purple,ending_melody,melody,ending,m,positive,negative,ES_yellow,1,m,494,1393238,1393742,1393946
24,first,7,sonnig,IAT_yellow2.bmp,yellow,ending_scream,scream,ending,m,positive,positive,ES_yellow,1,m,478,1395514,1396018,1396222
24,first,8,einsam,IAT_yellow4.bmp,yellow,ending_scream,scream,ending,c,negative,positive,ES_yellow,1,c,533,1397773,1398277,1398481
24,first,9,feige,IAT_purple4.bmp,purple,ending_melody,melody,ending,c,negative,negative,ES_yellow,1,c,697,1400087,1400591,1400795
24,first,10,witzig,IAT_purple3.bmp,purple,ending_melody,melody,ending,m,positive,negative,ES_yellow,0,c,588,1402564,1403068,1403272
24,first,11,lustig,IAT_purple2.bmp,purple,ending_melody,melody,ending,m,positive,negative,ES_yellow,1,m,844,1405433,1405937,1406142
24,first,12,schön,IAT_purple4.bmp,purple,ending_melody,melody,ending,m,positive,negative,ES_yellow,1,m,506,1408058,1408562,1408766
24,first,13,human,IAT_red1.bmp,red,starting_melody,melody,starting,m,positive,positive,ES_yellow,1,m,401,1410345,1410849,1411053
24,first,14,einsam,IAT_red2.bmp,red,starting_melody,melody,starting,c,negative,positive,ES_yellow,1,c,765,1412527,1413031,1413235
24,first,15,teuer,IAT_green4.bmp,green,starting_scream,scream,starting,c,negative,negative,ES_yellow,1,c,672,1415073,1415577,1415781
24,first,16,heiter,IAT_green3.bmp,green,starting_scream,scream,starting,m,positive,negative,ES_yellow,1,m,664,1417526,1418030,1418234
24,first,17,krank,IAT_purple1.bmp,purple,ending_melody,melody,ending,c,negative,negative,ES_yellow,1,c,716,1419972,1420476,1420680
24,first,18,gierig,IAT_red2.bmp,red,starting_melody,melody,starting,c,negative,positive,ES_yellow,1,c,515,1422469,1422973,1423177
24,first,19,lustig,IAT_green1.bmp,green,starting_scream,scream,starting,m,positive,negative,ES_yellow,1,m,556,1424766,1425270,1425474
24,first,20,witzig,IAT_red3.bmp,red,starting_melody,melody,starting,m,positive,positive,ES_yellow,1,m,565,1427103,1427607,1427811
24,first,21,human,IAT_red2.bmp,red,starting_melody,melody,starting,m,positive,positive,ES_yellow,1,m,569,1429450,1429954,1430158
24,first,22,streng,IAT_red3.bmp,red,starting_melody,melody,starting,c,negative,positive,ES_yellow,1,c,648,1431801,1432305,1432509
24,first,23,ehrlich,IAT_yellow3.bmp,yellow,ending_scream,scream,ending,m,positive,positive,ES_yellow,1,m,648,1434231,1434735,1434939
24,first,24,sanft,IAT_green3.bmp,green,starting_scream,scream,starting,m,positive,negative,ES_yellow,1,m,740,1436661,1437166,1437370
24,first,25,schön,IAT_red1.bmp,red,starting_melody,melody,starting,m,positive,positive,ES_yellow,1,m,477,1439184,1439688,1439892
24,first,26,feige,IAT_green2.bmp,green,starting_scream,scream,starting,c,negative,negative,ES_yellow,1,c,503,1441443,1441947,1442151
24,first,27,lästig,IAT_yellow3.bmp,yellow,ending_scream,scream,ending,c,negative,positive,ES_yellow,0,m,659,1443727,1444231,1444435
24,first,28,munter,IAT_purple3.bmp,purple,ending_melody,melody,ending,m,positive,negative,ES_yellow,1,m,550,1446667,1447171,1447375
24,first,29,teuer,IAT_green1.bmp,green,starting_scream,scream,starting,c,negative,negative,ES_yellow,1,c,604,1448999,1449503,1449707
24,first,30,brutal,IAT_yellow4.bmp,yellow,ending_scream,scream,ending,c,negative,positive,ES_yellow,1,c,623,1451384,1451888,1452092
24,first,31,schön,IAT_green1.bmp,green,starting_scream,scream,starting,m,positive,negative,ES_yellow,1,m,622,1453788,1454292,1454496
24,first,32,morsch,IAT_red1.bmp,red,starting_melody,melody,starting,c,negative,positive,ES_yellow,1,c,598,1456192,1456696,1456900
24,first,33,munter,IAT_green3.bmp,green,starting_scream,scream,starting,m,positive,negative,ES_yellow,1,m,1017,1458572,1459076,1459280
24,first,34,gierig,IAT_yellow2.bmp,yellow,ending_scream,scream,ending,c,negative,positive,ES_yellow,1,c,539,1461371,1461875,1462079
24,first,35,human,IAT_red1.bmp,red,starting_melody,melody,starting,m,positive,positive,ES_yellow,1,m,607,1463692,1464196,1464400
24,first,36,sanft,IAT_yellow4.bmp,yellow,ending_scream,scream,ending,m,positive,positive,ES_yellow,1,m,570,1466081,1466585,1466789
24,first,37,gesund,IAT_yellow2.bmp,yellow,ending_scream,scream,ending,m,positive,positive,ES_yellow,1,m,743,1468433,1468937,1469141
24,first,38,brutal,IAT_yellow1.bmp,yellow,ending_scream,scream,ending,c,negative,positive,ES_yellow,1,c,826,1470959,1471463,1471667
24,first,39,lästig,IAT_purple2.bmp,purple,ending_melody,melody,ending,c,negative,negative,ES_yellow,1,c,930,1473567,1474071,1474275
24,first,40,ehrlich,IAT_purple1.bmp,purple,ending_melody,melody,ending,m,positive,negative,ES_yellow,0,c,776,1476279,1476783,1476987
24,first,41,sanft,IAT_purple1.bmp,purple,ending_melody,melody,ending,m,positive,negative,ES_yellow,0,c,571,1479337,1479841,1480045
24,first,42,sonnig,IAT_green4.bmp,green,starting_scream,scream,starting,m,positive,negative,ES_yellow,1,m,1025,1482189,1482694,1482898
24,first,43,gerecht,IAT_yellow1.bmp,yellow,ending_scream,scream,ending,m,positive,positive,ES_yellow,1,m,594,1484997,1485501,1485705
24,first,44,einsam,IAT_green4.bmp,green,starting_scream,scream,starting,c,negative,negative,ES_yellow,1,c,646,1487373,1487877,1488081
24,first,45,gesund,IAT_red3.bmp,red,starting_melody,melody,starting,m,positive,positive,ES_yellow,1,m,483,1489801,1490305,1490509
24,first,46,lustig,IAT_red3.bmp,red,starting_melody,melody,starting,m,positive,positive,ES_yellow,1,m,637,1492064,1492569,1492773
24,first,47,krank,IAT_purple3.bmp,purple,ending_melody,melody,ending,c,negative,negative,ES_yellow,1,c,546,1494483,1494987,1495191
24,first,48,falsch,IAT_purple2.bmp,purple,ending_melody,melody,ending,c,negative,negative,ES_yellow,1,c,549,1496811,1497315,1497519
24,first,49,ehrlich,IAT_yellow1.bmp,yellow,ending_scream,scream,ending,m,positive,positive,ES_yellow,1,m,763,1499142,1499646,1499850
24,first,50,witzig,IAT_green2.bmp,green,starting_scream,scream,starting,m,positive,negative,ES_yellow,1,m,700,1501685,1502190,1502394
24,first,51,lästig,IAT_yellow4.bmp,yellow,ending_scream,scream,ending,c,negative,positive,ES_yellow,1,c,757,1504168,1504672,1504876
24,first,52,streng,IAT_green3.bmp,green,starting_scream,scream,starting,c,negative,negative,ES_yellow,1,c,883,1506707,1507211,1507415
24,first,53,falsch,IAT_yellow3.bmp,yellow,ending_scream,scream,ending,c,negative,positive,ES_yellow,1,c,605,1509372,1509876,1510080
24,first,54,sonnig,IAT_purple1.bmp,purple,ending_melody,melody,ending,m,positive,negative,ES_yellow,1,m,523,1511759,1512263,1512467
24,first,55,gesund,IAT_yellow3.bmp,yellow,ending_scream,scream,ending,m,positive,positive,ES_yellow,1,m,717,1514063,1514567,1514771
24,first,56,gerecht,IAT_purple3.bmp,purple,ending_melody,melody,ending,m,positive,negative,ES_yellow,1,m,752,1516561,1517066,1517270
24,first,57,lustig,IAT_purple4.bmp,purple,ending_melody,melody,ending,m,positive,negative,ES_yellow,1,m,676,1519095,1519600,1519804
24,first,58,ehrlich,IAT_purple3.bmp,purple,ending_melody,melody,ending,m,positive,negative,ES_yellow,1,m,507,1521552,1522057,1522261
24,first,59,kaputt,IAT_purple4.bmp,purple,ending_melody,melody,ending,c,negative,negative,ES_yellow,1,c,595,1523841,1524346,1524550
24,first,60,munter,IAT_yellow1.bmp,yellow,ending_scream,scream,ending,m,positive,positive,ES_yellow,1,m,566,1526218,1526723,1526927
24,first,61,witzig,IAT_red1.bmp,red,starting_melody,melody,starting,m,positive,positive,ES_yellow,1,m,444,1528567,1529071,1529275
24,first,62,sozial,IAT_yellow3.bmp,yellow,ending_scream,scream,ending,m,positive,positive,ES_yellow,1,m,512,1530793,1531297,1531501
24,first,63,geizig,IAT_green4.bmp,green,starting_scream,scream,starting,c,negative,negative,ES_yellow,1,c,521,1533087,1533591,1533795
24,first,64,krank,IAT_yellow2.bmp,yellow,ending_scream,scream,ending,c,negative,positive,ES_yellow,1,c,711,1535390,1535894,1536098
24,first,65,brutal,IAT_red4.bmp,red,starting_melody,melody,starting,c,negative,positive,ES_yellow,1,c,643,1537883,1538387,1538591
24,first,66,heiter,IAT_green1.bmp,green,starting_scream,scream,starting,m,positive,negative,ES_yellow,1,m,543,1540307,1540812,1541016
24,first,67,streng,IAT_red4.bmp,red,starting_melody,melody,starting,c,negative,positive,ES_yellow,1,c,560,1542633,1543137,1543341
24,first,68,gerecht,IAT_yellow4.bmp,yellow,ending_scream,scream,ending,m,positive,positive,ES_yellow,1,m,503,1544974,1545478,1545682
24,first,69,morsch,IAT_red1.bmp,red,starting_melody,melody,starting,c,negative,positive,ES_yellow,1,c,548,1547259,1547763,1547967
24,first,70,sozial,IAT_green4.bmp,green,starting_scream,scream,starting,m,positive,negative,ES_yellow,1,m,559,1549587,1550092,1550296
24,first,71,heiter,IAT_green1.bmp,green,starting_scream,scream,starting,m,positive,negative,ES_yellow,1,m,500,1551928,1552432,1552636
24,first,72,kaputt,IAT_green2.bmp,green,starting_scream,scream,starting,c,negative,negative,ES_yellow,0,m,473,1554210,1554714,1554918
24,first,73,geizig,IAT_purple4.bmp,purple,ending_melody,melody,ending,c,negative,negative,ES_yellow,0,m,593,1556964,1557468,1557672
24,first,74,lästig,IAT_yellow4.bmp,yellow,ending_scream,scream,ending,c,negative,positive,ES_yellow,1,c,671,1559839,1560343,1560547
24,first,75,einsam,IAT_purple2.bmp,purple,ending_melody,melody,ending,c,negative,negative,ES_yellow,1,c,642,1562292,1562796,1563000
24,first,76,krank,IAT_yellow2.bmp,yellow,ending_scream,scream,ending,c,negative,positive,ES_yellow,1,c,467,1564716,1565220,1565424
24,first,77,human,IAT_yellow3.bmp,yellow,ending_scream,scream,ending,m,positive,positive,ES_yellow,1,m,638,1566964,1567468,1567672
24,first,78,sozial,IAT_red2.bmp,red,starting_melody,melody,starting,m,positive,positive,ES_yellow,1,m,547,1569383,1569888,1570092
24,first,79,falsch,IAT_green4.bmp,green,starting_scream,scream,starting,c,negative,negative,ES_yellow,1,c,505,1571712,1572217,1572421
24,first,80,gesund,IAT_red3.bmp,red,starting_melody,melody,starting,m,positive,positive,ES_yellow,1,m,467,1574001,1574506,1574710
24,first,81,feige,IAT_yellow2.bmp,yellow,ending_scream,scream,ending,c,negative,positive,ES_yellow,1,c,442,1576251,1576756,1576960
24,first,82,kaputt,IAT_yellow1.bmp,yellow,ending_scream,scream,ending,c,negative,positive,ES_yellow,1,c,532,1578476,1578980,1579184
24,first,83,teuer,IAT_red4.bmp,red,starting_melody,melody,starting,c,negative,positive,ES_yellow,1,c,624,1580791,1581295,1581499
24,first,84,morsch,IAT_red2.bmp,red,starting_melody,melody,starting,c,negative,positive,ES_yellow,0,m,531,1583197,1583701,1583905
24,first,85,sozial,IAT_red4.bmp,red,starting_melody,melody,starting,m,positive,positive,ES_yellow,1,m,1158,1586010,1586514,1586718
24,first,86,geizig,IAT_green2.bmp,green,starting_scream,scream,starting,c,negative,negative,ES_yellow,1,c,552,1588949,1589454,1589658
24,first,87,schön,IAT_green3.bmp,green,starting_scream,scream,starting,m,positive,negative,ES_yellow,1,m,587,1591284,1591789,1591993
24,first,88,sanft,IAT_green2.bmp,green,starting_scream,scream,starting,m,positive,negative,ES_yellow,1,m,674,1593653,1594157,1594361
24,first,89,streng,IAT_purple1.bmp,purple,ending_melody,melody,ending,c,negative,negative,ES_yellow,1,c,561,1596110,1596614,1596818
24,first,90,kaputt,IAT_purple3.bmp,purple,ending_melody,melody,ending,c,negative,negative,ES_yellow,1,c,568,1598452,1598956,1599160
24,first,91,gerecht,IAT_yellow1.bmp,yellow,ending_scream,scream,ending,m,positive,positive,ES_yellow,1,m,804,1600802,1601306,1601510
24,first,92,gierig,IAT_red3.bmp,red,starting_melody,melody,starting,c,negative,positive,ES_yellow,1,c,566,1603388,1603892,1604096
24,first,93,sonnig,IAT_purple1.bmp,purple,ending_melody,melody,ending,m,positive,negative,ES_yellow,1,m,534,1605736,1606240,1606444
24,first,94,morsch,IAT_red4.bmp,red,starting_melody,melody,starting,c,negative,positive,ES_yellow,1,c,533,1608051,1608556,1608760
24,first,95,teuer,IAT_red2.bmp,red,starting_melody,melody,starting,c,negative,positive,ES_yellow,0,m,760,1610366,1610871,1611075
24,second,0,human,IAT_yellow2.bmp,yellow,ending_scream,scream,ending,m,positive,positive,ES_yellow,1,m,645,1621171,1621675,1621879
24,second,1,gesund,IAT_green3.bmp,green,starting_scream,scream,starting,m,positive,negative,ES_yellow,1,m,526,1623599,1624103,1624307
24,second,2,falsch,IAT_green3.bmp,green,starting_scream,scream,starting,c,negative,negative,ES_yellow,1,c,477,1625908,1626412,1626616
24,second,3,teuer,IAT_purple2.bmp,purple,ending_melody,melody,ending,c,negative,negative,ES_yellow,0,m,608,1628166,1628670,1628874
24,second,4,ehrlich,IAT_yellow2.bmp,yellow,ending_scream,scream,ending,m,positive,positive,ES_yellow,1,m,811,1631057,1631561,1631765
24,second,5,einsam,IAT_yellow4.bmp,yellow,ending_scream,scream,ending,c,negative,positive,ES_yellow,1,c,631,1633651,1634155,1634359
24,second,6,human,IAT_purple1.bmp,purple,ending_melody,melody,ending,m,positive,negative,ES_yellow,1,m,817,1636064,1636568,1636772
24,second,7,gierig,IAT_yellow4.bmp,yellow,ending_scream,scream,ending,c,negative,positive,ES_yellow,1,c,585,1638662,1639167,1639371
24,second,8,streng,IAT_red2.bmp,red,starting_melody,melody,starting,c,negative,positive,ES_yellow,1,c,793,1641029,1641533,1641737
24,second,9,geizig,IAT_yellow2.bmp,yellow,ending_scream,scream,ending,c,negative,positive,ES_yellow,1,c,847,1643604,1644108,1644312
24,second,10,krank,IAT_purple3.bmp,purple,ending_melody,melody,ending,c,negative,negative,ES_yellow,1,c,562,1646233,1646737,1646941
24,second,11,streng,IAT_red4.bmp,red,starting_melody,melody,starting,c,negative,positive,ES_yellow,1,c,517,1648576,1649080,1649284
24,second,12,sozial,IAT_green4.bmp,green,starting_scream,scream,starting,m,positive,negative,ES_yellow,1,m,606,1650874,1651378,1651582
24,second,13,ehrlich,IAT_purple2.bmp,purple,ending_melody,melody,ending,m,positive,negative,ES_yellow,1,m,487,1653262,1653766,1653970
24,second,14,gesund,IAT_purple3.bmp,purple,ending_melody,melody,ending,m,positive,negative,ES_yellow,1,m,421,1655530,1656035,1656239
24,second,15,morsch,IAT_green4.bmp,green,starting_scream,scream,starting,c,negative,negative,ES_yellow,1,c,651,1657733,1658237,1658441
24,second,16,gerecht,IAT_green4.bmp,green,starting_scream,scream,starting,m,positive,negative,ES_yellow,1,m,685,1660166,1660671,1660875
24,second,17,kaputt,IAT_yellow2.bmp,yellow,ending_scream,scream,ending,c,negative,positive,ES_yellow,1,c,541,1662634,1663138,1663342
24,second,18,streng,IAT_red2.bmp,red,starting_melody,melody,starting,c,negative,positive,ES_yellow,1,c,602,1664957,1665462,1665666
24,second,19,kaputt,IAT_purple2.bmp,purple,ending_melody,melody,ending,c,negative,negative,ES_yellow,1,c,538,1667342,1667847,1668051
24,second,20,lustig,IAT_green2.bmp,green,starting_scream,scream,starting,m,positive,negative,ES_yellow,0,c,611,1669663,1670167,1670371
24,second,21,gerecht,IAT_yellow1.bmp,yellow,ending_scream,scream,ending,m,positive,positive,ES_yellow,1,m,522,1672555,1673060,1673264
24,second,22,human,IAT_red2.bmp,red,starting_melody,melody,starting,m,positive,positive,ES_yellow,1,m,569,1674861,1675365,1675569
24,second,23,lustig,IAT_yellow3.bmp,yellow,ending_scream,scream,ending,m,positive,positive,ES_yellow,1,m,493,1677212,1677716,1677920
24,second,24,heiter,IAT_yellow1.bmp,yellow,ending_scream,scream,ending,m,positive,positive,ES_yellow,1,m,502,1679487,1679991,1680195
24,second,25,gierig,IAT_green2.bmp,green,starting_scream,scream,starting,c,negative,negative,ES_yellow,1,c,517,1681786,1682290,1682494
24,second,26,schön,IAT_purple1.bmp,purple,ending_melody,melody,ending,m,positive,negative,ES_yellow,1,m,600,1684084,1684588,1684792
24,second,27,gesund,IAT_red1.bmp,red,starting_melody,melody,starting,m,positive,positive,ES_yellow,1,m,965,1686465,1686969,1687173
24,second,28,feige,IAT_yellow4.bmp,yellow,ending_scream,scream,ending,c,negative,positive,ES_yellow,1,c,556,1689212,1689717,1689921
24,second,29,witzig,IAT_red2.bmp,red,starting_melody,melody,starting,m,positive,positive,ES_yellow,1,m,669,1691551,1692056,1692260
24,second,30,schön,IAT_yellow1.bmp,yellow,ending_scream,scream,ending,m,positive,positive,ES_yellow,1,m,603,1694003,1694507,1694712
24,second,31,falsch,IAT_green2.bmp,green,starting_scream,scream,starting,c,negative,negative,ES_yellow,1,c,438,1696389,1696893,1697097
24,second,32,gierig,IAT_purple3.bmp,purple,ending_melody,melody,ending,c,negative,negative,ES_yellow,1,c,420,1698609,1699114,1699318
24,second,33,feige,IAT_red1.bmp,red,starting_melody,melody,starting,c,negative,positive,ES_yellow,1,c,515,1700812,1701317,1701521
24,second,34,brutal,IAT_purple4.bmp,purple,ending_melody,melody,ending,c,negative,negative,ES_yellow,1,c,685,1703110,1703614,1703818
24,second,35,sonnig,IAT_red3.bmp,red,starting_melody,melody,starting,m,positive,positive,ES_yellow,1,m,473,1705577,1706081,1706285
24,second,36,schön,IAT_green1.bmp,green,starting_scream,scream,starting,m,positive,negative,ES_yellow,1,m,594,1707832,1708336,1708540
24,second,37,krank,IAT_green2.bmp,green,starting_scream,scream,starting,c,negative,negative,ES_yellow,1,c,406,1710207,1710711,1710915
24,second,38,sanft,IAT_red1.bmp,red,starting_melody,melody,starting,m,positive,positive,ES_yellow,1,m,674,1712395,1712899,1713104
24,second,39,sonnig,IAT_green3.bmp,green,starting_scream,scream,starting,m,positive,negative,ES_yellow,1,m,541,1714852,1715356,1715560
24,second,40,teuer,IAT_green3.bmp,green,starting_scream,scream,starting,c,negative,negative,ES_yellow,0,m,531,1717175,1717679,1717883
24,second,41,falsch,IAT_yellow2.bmp,yellow,ending_scream,scream,ending,c,negative,positive,ES_yellow,1,c,568,1719988,1720492,1720696
24,second,42,gierig,IAT_yellow3.bmp,yellow,ending_scream,scream,ending,c,negative,positive,ES_yellow,1,c,946,1722338,1722842,1723046
24,second,43,gerecht,IAT_green1.bmp,green,starting_scream,scream,starting,m,positive,negative,ES_yellow,1,m,704,1725066,1725570,1725774
24,second,44,kaputt,IAT_purple4.bmp,purple,ending_melody,melody,ending,c,negative,negative,ES_yellow,1,c,568,1727552,1728056,1728260
24,second,45,lustig,IAT_red1.bmp,red,starting_melody,melody,starting,m,positive,positive,ES_yellow,1,m,618,1729902,1730407,1730611
24,second,46,lästig,IAT_green4.bmp,green,starting_scream,scream,starting,c,negative,negative,ES_yellow,1,c,482,1732303,1732807,1733011
24,second,47,sanft,IAT_purple3.bmp,purple,ending_melody,melody,ending,m,positive,negative,ES_yellow,0,c,540,1734567,1735071,1735275
24,second,48,krank,IAT_purple1.bmp,purple,ending_melody,melody,ending,c,negative,negative,ES_yellow,1,c,567,1737390,1737894,1738098
24,second,49,ehrlich,IAT_yellow3.bmp,yellow,ending_scream,scream,ending,m,positive,positive,ES_yellow,0,c,573,1739739,1740243,1740447
24,second,50,human,IAT_purple1.bmp,purple,ending_melody,melody,ending,m,positive,negative,ES_yellow,1,m,608,1742594,1743098,1743302
24,second,51,heiter,IAT_purple1.bmp,purple,ending_melody,melody,ending,m,positive,negative,ES_yellow,1,m,572,1744984,1745488,1745692
24,second,52,streng,IAT_yellow2.bmp,yellow,ending_scream,scream,ending,c,negative,positive,ES_yellow,1,c,608,1747339,1747844,1748048
24,second,53,krank,IAT_yellow3.bmp,yellow,ending_scream,scream,ending,c,negative,positive,ES_yellow,1,c,552,1749730,1750235,1750439
24,second,54,gesund,IAT_yellow3.bmp,yellow,ending_scream,scream,ending,m,positive,positive,ES_yellow,1,m,622,1752064,1752569,1752773
24,second,55,lustig,IAT_red3.bmp,red,starting_melody,melody,starting,m,positive,positive,ES_yellow,1,m,618,1754470,1754974,1755178
24,second,56,geizig,IAT_green4.bmp,green,starting_scream,scream,starting,c,negative,negative,ES_yellow,1,c,529,1756871,1757375,1757579
24,second,57,sonnig,IAT_purple3.bmp,purple,ending_melody,melody,ending,m,positive,negative,ES_yellow,1,m,566,1759183,1759687,1759891
24,second,58,morsch,IAT_yellow1.bmp,yellow,ending_scream,scream,ending,c,negative,positive,ES_yellow,1,c,514,1761532,1762037,1762241
24,second,59,einsam,IAT_green1.bmp,green,starting_scream,scream,starting,c,negative,negative,ES_yellow,1,c,632,1763829,1764333,1764537
24,second,60,kaputt,IAT_yellow4.bmp,yellow,ending_scream,scream,ending,c,negative,positive,ES_yellow,1,c,724,1766243,1766747,1766951
24,second,61,munter,IAT_green3.bmp,green,starting_scream,scream,starting,m,positive,negative,ES_yellow,1,m,569,1768750,1769254,1769458
24,second,62,witzig,IAT_red3.bmp,red,starting_melody,melody,starting,m,positive,positive,ES_yellow,1,m,556,1771102,1771606,1771810
24,second,63,falsch,IAT_red4.bmp,red,starting_melody,melody,starting,c,negative,positive,ES_yellow,1,c,492,1773440,1773945,1774149
24,second,64,sozial,IAT_purple4.bmp,purple,ending_melody,melody,ending,m,positive,negative,ES_yellow,1,m,867,1775714,1776218,1776422
24,second,65,munter,IAT_green3.bmp,green,starting_scream,scream,starting,m,positive,negative,ES_yellow,1,m,600,1778363,1778867,1779071
24,second,66,lästig,IAT_purple2.bmp,purple,ending_melody,melody,ending,c,negative,negative,ES_yellow,1,c,725,1780745,1781249,1781453
24,second,67,geizig,IAT_red2.bmp,red,starting_melody,melody,starting,c,negative,positive,ES_yellow,1,c,580,1783252,1783757,1783961
24,second,68,teuer,IAT_red1.bmp,red,starting_melody,melody,starting,c,negative,positive,ES_yellow,0,m,805,1785616,1786120,1786324
24,second,69,witzig,IAT_yellow1.bmp,yellow,ending_scream,scream,ending,m,positive,positive,ES_yellow,1,m,696,1788704,1789209,1789413
24,second,70,einsam,IAT_purple1.bmp,purple,ending_melody,melody,ending,c,negative,negative,ES_yellow,1,c,541,1791183,1791687,1791891
24,second,71,brutal,IAT_red4.bmp,red,starting_melody,melody,starting,c,negative,positive,ES_yellow,1,c,495,1793507,1794012,1794216
24,second,72,munter,IAT_green1.bmp,green,starting_scream,scream,starting,m,positive,negative,ES_yellow,1,m,1108,1795786,1796290,1796494
24,second,73,morsch,IAT_purple4.bmp,purple,ending_melody,melody,ending,c,negative,negative,ES_yellow,1,c,578,1798676,1799181,1799385
24,second,74,feige,IAT_green4.bmp,green,starting_scream,scream,starting,c,negative,negative,ES_yellow,1,c,527,1801036,1801541,1801745
24,second,75,sanft,IAT_yellow4.bmp,yellow,ending_scream,scream,ending,m,positive,positive,ES_yellow,0,c,550,1803347,1803851,1804056
24,second,76,morsch,IAT_red3.bmp,red,starting_melody,melody,starting,c,negative,positive,ES_yellow,1,c,574,1806180,1806684,1806888
24,second,77,schön,IAT_yellow4.bmp,yellow,ending_scream,scream,ending,m,positive,positive,ES_yellow,1,m,643,1808536,1809040,1809244
24,second,78,heiter,IAT_red1.bmp,red,starting_melody,melody,starting,m,positive,positive,ES_yellow,1,m,544,1810961,1811466,1811670
24,second,79,ehrlich,IAT_red4.bmp,red,starting_melody,melody,starting,m,positive,positive,ES_yellow,1,m,516,1813289,1813793,1813997
24,second,80,sonnig,IAT_yellow3.bmp,yellow,ending_scream,scream,ending,m,positive,positive,ES_yellow,1,m,501,1815589,1816093,1816297
24,second,81,einsam,IAT_yellow1.bmp,yellow,ending_scream,scream,ending,c,negative,positive,ES_yellow,1,c,667,1817873,1818377,1818581
24,second,82,feige,IAT_red3.bmp,red,starting_melody,melody,starting,c,negative,positive,ES_yellow,1,c,576,1820323,1820827,1821031
24,second,83,lästig,IAT_purple2.bmp,purple,ending_melody,melody,ending,c,negative,negative,ES_yellow,1,c,655,1822681,1823186,1823390
24,second,84,gerecht,IAT_red3.bmp,red,starting_melody,melody,starting,m,positive,positive,ES_yellow,1,m,548,1825119,1825623,1825827
24,second,85,brutal,IAT_red4.bmp,red,starting_melody,melody,starting,c,negative,positive,ES_yellow,1,c,584,1827449,1827953,1828157
24,second,86,heiter,IAT_purple4.bmp,purple,ending_melody,melody,ending,m,positive,negative,ES_yellow,1,m,854,1829814,1830319,1830523
24,second,87,sanft,IAT_green2.bmp,green,starting_scream,scream,starting,m,positive,negative,ES_yellow,1,m,740,1832452,1832956,1833160
24,second,88,lästig,IAT_green2.bmp,green,starting_scream,scream,starting,c,negative,negative,ES_yellow,1,c,630,1834974,1835478,1835682
24,second,89,sozial,IAT_purple2.bmp,purple,ending_melody,melody,ending,m,positive,negative,ES_yellow,1,m,635,1837386,1837890,1838094
24,second,90,witzig,IAT_purple3.bmp,purple,ending_melody,melody,ending,m,positive,negative,ES_yellow,1,m,708,1839803,1840307,1840511
24,second,91,geizig,IAT_green1.bmp,green,starting_scream,scream,starting,c,negative,negative,ES_yellow,1,c,591,1842293,1842798,1843002
24,second,92,brutal,IAT_purple4.bmp,purple,ending_melody,melody,ending,c,negative,negative,ES_yellow,1,c,631,1844667,1845172,1845376
24,second,93,munter,IAT_red4.bmp,red,starting_melody,melody,starting,m,positive,positive,ES_yellow,1,m,562,1847081,1847585,1847789
24,second,94,sozial,IAT_green1.bmp,green,starting_scream,scream,starting,m,positive,negative,ES_yellow,1,m,884,1849426,1849930,1850134
24,second,95,teuer,IAT_red2.bmp,red,starting_melody,melody,starting,c,negative,positive,ES_yellow,1,c,678,1852093,1852597,1852801
24,third,0,sanft,IAT_green3.bmp,green,starting_scream,scream,starting,m,positive,negative,ES_yellow,1,m,737,1859332,1859837,1860041
24,third,1,morsch,IAT_red2.bmp,red,starting_melody,melody,starting,c,negative,positive,ES_yellow,1,c,563,1861853,1862357,1862561
24,third,2,krank,IAT_purple4.bmp,purple,ending_melody,melody,ending,c,negative,negative,ES_yellow,1,c,628,1864197,1864701,1864905
24,third,3,einsam,IAT_purple2.bmp,purple,ending_melody,melody,ending,c,negative,negative,ES_yellow,1,c,798,1866606,1867110,1867314
24,third,4,streng,IAT_green1.bmp,green,starting_scream,scream,starting,c,negative,negative,ES_yellow,1,c,511,1869185,1869689,1869893
24,third,5,gesund,IAT_yellow1.bmp,yellow,ending_scream,scream,ending,m,positive,positive,ES_yellow,1,m,546,1871478,1871982,1872186
24,third,6,schön,IAT_green1.bmp,green,starting_scream,scream,starting,m,positive,negative,ES_yellow,1,m,477,1873804,1874309,1874513
24,third,7,lästig,IAT_yellow2.bmp,yellow,ending_scream,scream,ending,c,negative,positive,ES_yellow,1,c,518,1876064,1876568,1876772
24,third,8,einsam,IAT_red1.bmp,red,starting_melody,melody,starting,c,negative,positive,ES_yellow,1,c,604,1878363,1878867,1879071
24,third,9,gerecht,IAT_purple1.bmp,purple,ending_melody,melody,ending,m,positive,negative,ES_yellow,1,m,534,1880748,1881252,1881456
24,third,10,kaputt,IAT_purple4.bmp,purple,ending_melody,melody,ending,c,negative,negative,ES_yellow,1,c,579,1883063,1883567,1883771
24,third,11,lustig,IAT_purple3.bmp,purple,ending_melody,melody,ending,m,positive,negative,ES_yellow,1,m,487,1885424,1885928,1886132
24,third,12,brutal,IAT_red3.bmp,red,starting_melody,melody,starting,c,negative,positive,ES_yellow,1,c,597,1887692,1888196,1888400
24,third,13,sonnig,IAT_yellow2.bmp,yellow,ending_scream,scream,ending,m,positive,positive,ES_yellow,1,m,448,1890070,1890575,1890779
24,third,14,witzig,IAT_red1.bmp,red,starting_melody,melody,starting,m,positive,positive,ES_yellow,1,m,444,1892301,1892805,1893009
24,third,15,krank,IAT_green4.bmp,green,starting_scream,scream,starting,c,negative,negative,ES_yellow,1,c,516,1894526,1895030,1895234
24,third,16,sonnig,IAT_green3.bmp,green,starting_scream,scream,starting,m,positive,negative,ES_yellow,1,m,402,1896823,1897328,1897532
24,third,17,munter,IAT_green1.bmp,green,starting_scream,scream,starting,m,positive,negative,ES_yellow,1,m,417,1899007,1899511,1899715
24,third,18,morsch,IAT_red4.bmp,red,starting_melody,melody,starting,c,negative,positive,ES_yellow,1,c,476,1901207,1901711,1901915
24,third,19,lustig,IAT_purple3.bmp,purple,ending_melody,melody,ending,m,positive,negative,ES_yellow,1,m,452,1903463,1903968,1904172
24,third,20,lästig,IAT_purple4.bmp,purple,ending_melody,melody,ending,c,negative,negative,ES_yellow,1,c,481,1905699,1906203,1906407
24,third,21,munter,IAT_yellow4.bmp,yellow,ending_scream,scream,ending,m,positive,positive,ES_yellow,1,m,387,1907962,1908466,1908670
24,third,22,falsch,IAT_green4.bmp,green,starting_scream,scream,starting,c,negative,negative,ES_yellow,0,m,479,1910130,1910635,1910839
24,third,23,teuer,IAT_red2.bmp,red,starting_melody,melody,starting,c,negative,positive,ES_yellow,1,c,639,1912893,1913397,1913601
24,third,24,gierig,IAT_purple2.bmp,purple,ending_melody,melody,ending,c,negative,negative,ES_yellow,1,c,546,1915313,1915818,1916022
24,third,25,schön,IAT_purple2.bmp,purple,ending_melody,melody,ending,m,positive,negative,ES_yellow,1,m,529,1917642,1918147,1918351
24,third,26,witzig,IAT_yellow1.bmp,yellow,ending_scream,scream,ending,m,positive,positive,ES_yellow,1,m,544,1919953,1920458,1920662
24,third,27,teuer,IAT_yellow2.bmp,yellow,ending_scream,scream,ending,c,negative,positive,ES_yellow,1,c,726,1922280,1922784,1922988
24,third,28,gerecht,IAT_yellow3.bmp,yellow,ending_scream,scream,ending,m,positive,positive,ES_yellow,1,m,509,1924788,1925292,1925496
24,third,29,sanft,IAT_green2.bmp,green,starting_scream,scream,starting,m,positive,negative,ES_yellow,1,m,652,1927079,1927583,1927787
24,third,30,sonnig,IAT_red1.bmp,red,starting_melody,melody,starting,m,positive,positive,ES_yellow,1,m,458,1929513,1930017,1930221
24,third,31,schön,IAT_red3.bmp,red,starting_melody,melody,starting,m,positive,positive,ES_yellow,1,m,402,1931754,1932258,1932462
24,third,32,morsch,IAT_purple3.bmp,purple,ending_melody,melody,ending,c,negative,negative,ES_yellow,1,c,573,1933937,1934441,1934645
24,third,33,brutal,IAT_yellow3.bmp,yellow,ending_scream,scream,ending,c,negative,positive,ES_yellow,1,c,556,1936292,1936796,1937000
24,third,34,lästig,IAT_red4.bmp,red,starting_melody,melody,starting,c,negative,positive,ES_yellow,1,c,482,1938631,1939135,1939339
24,third,35,kaputt,IAT_yellow3.bmp,yellow,ending_scream,scream,ending,c,negative,positive,ES_yellow,1,c,473,1940894,1941398,1941602
24,third,36,gerecht,IAT_red4.bmp,red,starting_melody,melody,starting,m,positive,positive,ES_yellow,1,m,1018,1943148,1943653,1943857
24,third,37,gesund,IAT_yellow3.bmp,yellow,ending_scream,scream,ending,m,positive,positive,ES_yellow,1,m,485,1945950,1946454,1946658
24,third,38,streng,IAT_purple1.bmp,purple,ending_melody,melody,ending,c,negative,negative,ES_yellow,1,c,586,1948217,1948721,1948925
24,third,39,ehrlich,IAT_green1.bmp,green,starting_scream,scream,starting,m,positive,negative,ES_yellow,1,m,631,1950585,1951089,1951293
24,third,40,feige,IAT_red4.bmp,red,starting_melody,melody,starting,c,negative,positive,ES_yellow,1,c,599,1952999,1953503,1953707
24,third,41,morsch,IAT_green4.bmp,green,starting_scream,scream,starting,c,negative,negative,ES_yellow,1,c,582,1955381,1955885,1956089
24,third,42,heiter,IAT_yellow4.bmp,yellow,ending_scream,scream,ending,m,positive,positive,ES_yellow,1,m,632,1957745,1958249,1958453
24,third,43,geizig,IAT_green4.bmp,green,starting_scream,scream,starting,c,negative,negative,ES_yellow,1,c,544,1960159,1960664,1960868
24,third,44,ehrlich,IAT_purple1.bmp,purple,ending_melody,melody,ending,m,positive,negative,ES_yellow,0,c,505,1962486,1962990,1963194
24,third,45,sozial,IAT_purple3.bmp,purple,ending_melody,melody,ending,m,positive,negative,ES_yellow,1,m,609,1965273,1965777,1965981
24,third,46,feige,IAT_yellow1.bmp,yellow,ending_scream,scream,ending,c,negative,positive,ES_yellow,1,c,462,1967663,1968168,1968372
24,third,47,lästig,IAT_yellow4.bmp,yellow,ending_scream,scream,ending,c,negative,positive,ES_yellow,1,c,622,1969908,1970412,1970616
24,third,48,falsch,IAT_purple2.bmp,purple,ending_melody,melody,ending,c,negative,negative,ES_yellow,1,c,518,1972313,1972817,1973021
24,third,49,lustig,IAT_red1.bmp,red,starting_melody,melody,starting,m,positive,positive,ES_yellow,1,m,550,1974612,1975117,1975321
24,third,50,schön,IAT_red4.bmp,red,starting_melody,melody,starting,m,positive,positive,ES_yellow,1,m,468,1976944,1977449,1977653
24,third,51,teuer,IAT_red1.bmp,red,starting_melody,melody,starting,c,negative,positive,ES_yellow,0,m,594,1979194,1979699,1979903
24,third,52,witzig,IAT_green3.bmp,green,starting_scream,scream,starting,m,positive,negative,ES_yellow,1,m,652,1982072,1982576,1982780
24,third,53,falsch,IAT_yellow4.bmp,yellow,ending_scream,scream,ending,c,negative,positive,ES_yellow,1,c,528,1984506,1985010,1985214
24,third,54,gierig,IAT_green2.bmp,green,starting_scream,scream,starting,c,negative,negative,ES_yellow,1,c,592,1986821,1987325,1987529
24,third,55,human,IAT_yellow2.bmp,yellow,ending_scream,scream,ending,m,positive,positive,ES_yellow,1,m,483,1989194,1989698,1989902
24,third,56,streng,IAT_green2.bmp,green,starting_scream,scream,starting,c,negative,negative,ES_yellow,1,c,673,1991458,1991962,1992166
24,third,57,sozial,IAT_red1.bmp,red,starting_melody,melody,starting,m,positive,positive,ES_yellow,1,m,496,1993914,1994418,1994622
24,third,58,witzig,IAT_green1.bmp,green,starting_scream,scream,starting,m,positive,negative,ES_yellow,0,c,559,1996191,1996696,1996900
24,third,59,sanft,IAT_purple4.bmp,purple,ending_melody,melody,ending,m,positive,negative,ES_yellow,1,m,547,1999032,1999536,1999740
24,third,60,human,IAT_yellow3.bmp,yellow,ending_scream,scream,ending,m,positive,positive,ES_yellow,1,m,548,2001361,2001865,2002069
24,third,61,munter,IAT_green3.bmp,green,starting_scream,scream,starting,m,positive,negative,ES_yellow,1,m,552,2003692,2004196,2004400
24,third,62,lustig,IAT_red3.bmp,red,starting_melody,melody,starting,m,positive,positive,ES_yellow,1,m,497,2006027,2006531,2006735
24,third,63,krank,IAT_yellow4.bmp,yellow,ending_scream,scream,ending,c,negative,positive,ES_yellow,1,c,485,2008307,2008811,2009015
24,third,64,geizig,IAT_purple2.bmp,purple,ending_melody,melody,ending,c,negative,negative,ES_yellow,1,c,843,2010576,2011080,2011284
24,third,65,heiter,IAT_red2.bmp,red,starting_melody,melody,starting,m,positive,positive,ES_yellow,1,m,521,2013202,2013706,2013910
24,third,66,kaputt,IAT_yellow2.bmp,yellow,ending_scream,scream,ending,c,negative,positive,ES_yellow,0,m,496,2015504,2016008,2016212
24,third,67,gierig,IAT_green3.bmp,green,starting_scream,scream,starting,c,negative,negative,ES_yellow,1,c,555,2018283,2018787,2018991
24,third,68,sozial,IAT_green2.bmp,green,starting_scream,scream,starting,m,positive,negative,ES_yellow,1,m,535,2020619,2021123,2021327
24,third,69,falsch,IAT_purple3.bmp,purple,ending_melody,melody,ending,c,negative,negative,ES_yellow,1,c,526,2022935,2023439,2023643
24,third,70,gerecht,IAT_yellow1.bmp,yellow,ending_scream,scream,ending,m,positive,positive,ES_yellow,1,m,583,2025243,2025747,2025951
24,third,71,streng,IAT_yellow1.bmp,yellow,ending_scream,scream,ending,c,negative,positive,ES_yellow,1,c,555,2027609,2028113,2028317
24,third,72,heiter,IAT_purple2.bmp,purple,ending_melody,melody,ending,m,positive,negative,ES_yellow,1,m,723,2029946,2030451,2030655
24,third,73,krank,IAT_red3.bmp,red,starting_melody,melody,starting,c,negative,positive,ES_yellow,1,c,533,2032452,2032957,2033161
24,third,74,einsam,IAT_green2.bmp,green,starting_scream,scream,starting,c,negative,negative,ES_yellow,1,c,629,2034767,2035272,2035476
24,third,75,gesund,IAT_purple1.bmp,purple,ending_melody,melody,ending,m,positive,negative,ES_yellow,1,m,470,2037179,2037684,2037888
24,third,76,sozial,IAT_green4.bmp,green,starting_scream,scream,starting,m,positive,negative,ES_yellow,1,m,568,2039432,2039936,2040140
24,third,77,geizig,IAT_purple1.bmp,purple,ending_melody,melody,ending,c,negative,negative,ES_yellow,1,c,474,2041782,2042287,2042491
24,third,78,feige,IAT_red2.bmp,red,starting_melody,melody,starting,c,negative,positive,ES_yellow,1,c,479,2044039,2044544,2044748
24,third,79,kaputt,IAT_green3.bmp,green,starting_scream,scream,starting,c,negative,negative,ES_yellow,1,c,437,2046302,2046806,2047010
24,third,80,brutal,IAT_purple4.bmp,purple,ending_melody,melody,ending,c,negative,negative,ES_yellow,1,c,1034,2048521,2049026,2049230
24,third,81,feige,IAT_yellow2.bmp,yellow,ending_scream,scream,ending,c,negative,positive,ES_yellow,1,c,540,2051339,2051843,2052047
24,third,82,munter,IAT_purple1.bmp,purple,ending_melody,melody,ending,m,positive,negative,ES_yellow,1,m,583,2053662,2054166,2054370
24,third,83,human,IAT_red3.bmp,red,starting_melody,melody,starting,m,positive,positive,ES_yellow,1,m,573,2056027,2056532,2056736
24,third,84,teuer,IAT_yellow4.bmp,yellow,ending_scream,scream,ending,c,negative,positive,ES_yellow,1,c,697,2058384,2058888,2059092
24,third,85,brutal,IAT_green1.bmp,green,starting_scream,scream,starting,c,negative,negative,ES_yellow,1,c,465,2060863,2061367,2061571
24,third,86,einsam,IAT_red2.bmp,red,starting_melody,melody,starting,c,negative,positive,ES_yellow,1,c,609,2063110,2063614,2063818
24,third,87,ehrlich,IAT_red3.bmp,red,starting_melody,melody,starting,m,positive,positive,ES_yellow,1,m,666,2065502,2066006,2066210
24,third,88,gesund,IAT_yellow3.bmp,yellow,ending_scream,scream,ending,m,positive,positive,ES_yellow,1,m,521,2067951,2068455,2068659
24,third,89,sanft,IAT_red2.bmp,red,starting_melody,melody,starting,m,positive,positive,ES_yellow,1,m,540,2070254,2070758,2070962
24,third,90,ehrlich,IAT_purple4.bmp,purple,ending_melody,melody,ending,m,positive,negative,ES_yellow,1,m,595,2072576,2073080,2073284
24,third,91,geizig,IAT_green2.bmp,green,starting_scream,scream,starting,c,negative,negative,ES_yellow,1,c,484,2074953,2075457,2075661
24,third,92,gierig,IAT_red4.bmp,red,starting_melody,melody,starting,c,negative,positive,ES_yellow,1,c,530,2077220,2077724,2077928
24,third,93,human,IAT_green4.bmp,green,starting_scream,scream,starting,m,positive,negative,ES_yellow,1,m,608,2079532,2080036,2080240
24,third,94,sonnig,IAT_yellow1.bmp,yellow,ending_scream,scream,ending,m,positive,positive,ES_yellow,1,m,532,2081923,2082427,2082631
24,third,95,heiter,IAT_purple3.bmp,purple,ending_melody,melody,ending,m,positive,negative,ES_yellow,1,m,484,2084237,2084741,2084945
24,forth,0,schön,IAT_purple2.bmp,purple,ending_melody,melody,ending,m,positive,negative,ES_yellow,1,m,545,2092371,2092875,2093079
24,forth,1,kaputt,IAT_red2.bmp,red,starting_melody,melody,starting,c,negative,positive,ES_yellow,1,c,578,2094700,2095204,2095408
24,forth,2,gerecht,IAT_yellow2.bmp,yellow,ending_scream,scream,ending,m,positive,positive,ES_yellow,1,m,560,2097059,2097564,2097768
24,forth,3,lästig,IAT_green2.bmp,green,starting_scream,scream,starting,c,negative,negative,ES_yellow,1,c,686,2099402,2099906,2100110
24,forth,4,sonnig,IAT_purple3.bmp,purple,ending_melody,melody,ending,m,positive,negative,ES_yellow,1,m,467,2101870,2102374,2102578
24,forth,5,munter,IAT_purple1.bmp,purple,ending_melody,melody,ending,m,positive,negative,ES_yellow,1,m,497,2104119,2104624,2104828
24,forth,6,human,IAT_yellow1.bmp,yellow,ending_scream,scream,ending,m,positive,positive,ES_yellow,1,m,547,2106399,2106903,2107107
24,forth,7,lustig,IAT_purple1.bmp,purple,ending_melody,melody,ending,m,positive,negative,ES_yellow,1,m,435,2108727,2109232,2109436
24,forth,8,geizig,IAT_purple4.bmp,purple,ending_melody,melody,ending,c,negative,negative,ES_yellow,1,c,531,2110945,2111450,2111654
24,forth,9,sozial,IAT_green4.bmp,green,starting_scream,scream,starting,m,positive,negative,ES_yellow,1,m,488,2113258,2113762,2113966
24,forth,10,einsam,IAT_green2.bmp,green,starting_scream,scream,starting,c,negative,negative,ES_yellow,0,m,506,2115529,2116033,2116237
24,forth,11,feige,IAT_green4.bmp,green,starting_scream,scream,starting,c,negative,negative,ES_yellow,1,c,566,2118318,2118822,2119026
24,forth,12,munter,IAT_green3.bmp,green,starting_scream,scream,starting,m,positive,negative,ES_yellow,1,m,478,2120667,2121171,2121375
24,forth,13,kaputt,IAT_red4.bmp,red,starting_melody,melody,starting,c,negative,positive,ES_yellow,1,c,565,2122928,2123433,2123637
24,forth,14,gesund,IAT_green1.bmp,green,starting_scream,scream,starting,m,positive,negative,ES_yellow,0,c,499,2125275,2125779,2125983
24,forth,15,falsch,IAT_red3.bmp,red,starting_melody,melody,starting,c,negative,positive,ES_yellow,1,c,552,2128057,2128561,2128765
24,forth,16,witzig,IAT_purple4.bmp,purple,ending_melody,melody,ending,m,positive,negative,ES_yellow,1,m,640,2130393,2130897,2131101
24,forth,17,morsch,IAT_purple4.bmp,purple,ending_melody,melody,ending,c,negative,negative,ES_yellow,1,c,611,2132815,2133319,2133523
24,forth,18,gerecht,IAT_yellow2.bmp,yellow,ending_scream,scream,ending,m,positive,positive,ES_yellow,1,m,646,2135210,2135714,2135918
24,forth,19,witzig,IAT_red3.bmp,red,starting_melody,melody,starting,m,positive,positive,ES_yellow,1,m,592,2137638,2138142,2138346
24,forth,20,einsam,IAT_purple1.bmp,purple,ending_melody,melody,ending,c,negative,negative,ES_yellow,1,c,535,2140012,2140516,2140720
24,forth,21,brutal,IAT_green1.bmp,green,starting_scream,scream,starting,c,negative,negative,ES_yellow,1,c,477,2142329,2142834,2143039
24,forth,22,sonnig,IAT_green3.bmp,green,starting_scream,scream,starting,m,positive,negative,ES_yellow,1,m,545,2144592,2145096,2145300
24,forth,23,kaputt,IAT_red2.bmp,red,starting_melody,melody,starting,c,negative,positive,ES_yellow,1,c,565,2146920,2147424,2147628
24,forth,24,human,IAT_red1.bmp,red,starting_melody,melody,starting,m,positive,positive,ES_yellow,1,m,621,2149267,2149771,2149975
24,forth,25,sozial,IAT_yellow4.bmp,yellow,ending_scream,scream,ending,m,positive,positive,ES_yellow,1,m,595,2151671,2152176,2152380
24,forth,26,heiter,IAT_red3.bmp,red,starting_melody,melody,starting,m,positive,positive,ES_yellow,1,m,624,2154050,2154554,2154758
24,forth,27,gierig,IAT_purple2.bmp,purple,ending_melody,melody,ending,c,negative,negative,ES_yellow,1,c,548,2156457,2156961,2157165
24,forth,28,human,IAT_yellow3.bmp,yellow,ending_scream,scream,ending,m,positive,positive,ES_yellow,1,m,468,2158788,2159292,2159496
24,forth,29,lästig,IAT_yellow2.bmp,yellow,ending_scream,scream,ending,c,negative,positive,ES_yellow,1,c,502,2161038,2161542,2161746
24,forth,30,kaputt,IAT_yellow4.bmp,yellow,ending_scream,scream,ending,c,negative,positive,ES_yellow,1,c,547,2163323,2163827,2164031
24,forth,31,einsam,IAT_yellow4.bmp,yellow,ending_scream,scream,ending,c,negative,positive,ES_yellow,1,c,518,2165653,2166157,2166361
24,forth,32,krank,IAT_green1.bmp,green,starting_scream,scream,starting,c,negative,negative,ES_yellow,1,c,525,2167953,2168457,2168661
24,forth,33,sanft,IAT_yellow4.bmp,yellow,ending_scream,scream,ending,m,positive,positive,ES_yellow,0,c,517,2170260,2170764,2170968
24,forth,34,geizig,IAT_red3.bmp,red,starting_melody,melody,starting,c,negative,positive,ES_yellow,1,c,588,2173060,2173564,2173768
24,forth,35,krank,IAT_purple2.bmp,purple,ending_melody,melody,ending,c,negative,negative,ES_yellow,1,c,471,2175432,2175936,2176140
24,forth,36,ehrlich,IAT_yellow1.bmp,yellow,ending_scream,scream,ending,m,positive,positive,ES_yellow,1,m,579,2177686,2178190,2178394
24,forth,37,lästig,IAT_purple2.bmp,purple,ending_melody,melody,ending,c,negative,negative,ES_yellow,1,c,512,2180048,2180552,2180756
24,forth,38,human,IAT_green1.bmp,green,starting_scream,scream,starting,m,positive,negative,ES_yellow,1,m,596,2182341,2182846,2183050
24,forth,39,falsch,IAT_purple2.bmp,purple,ending_melody,melody,ending,c,negative,negative,ES_yellow,1,c,545,2184721,2185226,2185430
24,forth,40,streng,IAT_green2.bmp,green,starting_scream,scream,starting,c,negative,negative,ES_yellow,1,c,745,2187050,2187554,2187758
24,forth,41,sanft,IAT_green1.bmp,green,starting_scream,scream,starting,m,positive,negative,ES_yellow,0,c,486,2189576,2190081,2190285
24,forth,42,lustig,IAT_purple3.bmp,purple,ending_melody,melody,ending,m,positive,negative,ES_yellow,1,m,629,2192347,2192851,2193055
24,forth,43,geizig,IAT_red1.bmp,red,starting_melody,melody,starting,c,negative,positive,ES_yellow,1,c,506,2194759,2195263,2195467
24,forth,44,falsch,IAT_yellow2.bmp,yellow,ending_scream,scream,ending,c,negative,positive,ES_yellow,1,c,568,2197048,2197552,2197756
24,forth,45,krank,IAT_purple4.bmp,purple,ending_melody,melody,ending,c,negative,negative,ES_yellow,1,c,533,2199398,2199903,2200107
24,forth,46,falsch,IAT_green4.bmp,green,starting_scream,scream,starting,c,negative,negative,ES_yellow,1,c,479,2201713,2202218,2202422
24,forth,47,teuer,IAT_purple3.bmp,purple,ending_melody,melody,ending,c,negative,negative,ES_yellow,1,c,532,2203974,2204478,2204682
24,forth,48,schön,IAT_purple3.bmp,purple,ending_melody,melody,ending,m,positive,negative,ES_yellow,1,m,527,2206289,2206793,2206997
24,forth,49,ehrlich,IAT_green3.bmp,green,starting_scream,scream,starting,m,positive,negative,ES_yellow,1,m,621,2208598,2209102,2209306
24,forth,50,gerecht,IAT_yellow3.bmp,yellow,ending_scream,scream,ending,m,positive,positive,ES_yellow,1,m,565,2211002,2211507,2211711
24,forth,51,brutal,IAT_red4.bmp,red,starting_melody,melody,starting,c,negative,positive,ES_yellow,1,c,799,2213351,2213855,2214059
24,forth,52,sonnig,IAT_red2.bmp,red,starting_melody,melody,starting,m,positive,positive,ES_yellow,1,m,549,2215932,2216437,2216641
24,forth,53,streng,IAT_purple4.bmp,purple,ending_melody,melody,ending,c,negative,negative,ES_yellow,1,c,711,2218264,2218769,2218973
24,forth,54,krank,IAT_yellow3.bmp,yellow,ending_scream,scream,ending,c,negative,positive,ES_yellow,1,c,576,2220758,2221263,2221467
24,forth,55,feige,IAT_green4.bmp,green,starting_scream,scream,starting,c,negative,negative,ES_yellow,1,c,530,2223116,2223621,2223825
24,forth,56,sanft,IAT_yellow3.bmp,yellow,ending_scream,scream,ending,m,positive,positive,ES_yellow,0,c,524,2225430,2225935,2226139
24,forth,57,morsch,IAT_red2.bmp,red,starting_melody,melody,starting,c,negative,positive,ES_yellow,1,c,636,2228237,2228741,2228945
24,forth,58,lustig,IAT_purple2.bmp,purple,ending_melody,melody,ending,m,positive,negative,ES_yellow,1,m,860,2230655,2231159,2231363
24,forth,59,munter,IAT_purple3.bmp,purple,ending_melody,melody,ending,m,positive,negative,ES_yellow,1,m,924,2233298,2233802,2234006
24,forth,60,feige,IAT_red4.bmp,red,starting_melody,melody,starting,c,negative,positive,ES_yellow,1,c,514,2236004,2236509,2236713
24,forth,61,heiter,IAT_red1.bmp,red,starting_melody,melody,starting,m,positive,positive,ES_yellow,1,m,855,2238302,2238806,2239010
24,forth,62,sanft,IAT_red1.bmp,red,starting_melody,melody,starting,m,positive,positive,ES_yellow,1,m,538,2240940,2241445,2241649
24,forth,63,teuer,IAT_green4.bmp,green,starting_scream,scream,starting,c,negative,negative,ES_yellow,1,c,762,2243262,2243766,2243970
24,forth,64,brutal,IAT_purple1.bmp,purple,ending_melody,melody,ending,c,negative,negative,ES_yellow,1,c,814,2245807,2246311,2246515
24,forth,65,gesund,IAT_green2.bmp,green,starting_scream,scream,starting,m,positive,negative,ES_yellow,1,m,570,2248404,2248908,2249112
24,forth,66,geizig,IAT_yellow1.bmp,yellow,ending_scream,scream,ending,c,negative,positive,ES_yellow,1,c,694,2250757,2251261,2251465
24,forth,67,gierig,IAT_green3.bmp,green,starting_scream,scream,starting,c,negative,negative,ES_yellow,1,c,606,2253233,2253738,2253942
24,forth,68,heiter,IAT_yellow1.bmp,yellow,ending_scream,scream,ending,m,positive,positive,ES_yellow,1,m,840,2255623,2256128,2256332
24,forth,69,sozial,IAT_red1.bmp,red,starting_melody,melody,starting,m,positive,positive,ES_yellow,1,m,537,2258247,2258751,2258955
24,forth,70,morsch,IAT_green3.bmp,green,starting_scream,scream,starting,c,negative,negative,ES_yellow,1,c,623,2260567,2261071,2261275
24,forth,71,witzig,IAT_green4.bmp,green,starting_scream,scream,starting,m,positive,negative,ES_yellow,1,m,552,2262973,2263478,2263682
24,forth,72,gerecht,IAT_red4.bmp,red,starting_melody,melody,starting,m,positive,positive,ES_yellow,1,m,583,2265309,2265813,2266017
24,forth,73,teuer,IAT_yellow2.bmp,yellow,ending_scream,scream,ending,c,negative,positive,ES_yellow,1,c,718,2267675,2268179,2268383
24,forth,74,einsam,IAT_green2.bmp,green,starting_scream,scream,starting,c,negative,negative,ES_yellow,1,c,934,2270175,2270679,2270883
24,forth,75,brutal,IAT_yellow1.bmp,yellow,ending_scream,scream,ending,c,negative,positive,ES_yellow,1,c,802,2272892,2273396,2273600
24,forth,76,heiter,IAT_green3.bmp,green,starting_scream,scream,starting,m,positive,negative,ES_yellow,1,m,588,2275477,2275981,2276186
24,forth,77,streng,IAT_red2.bmp,red,starting_melody,melody,starting,c,negative,positive,ES_yellow,1,c,602,2277849,2278353,2278557
24,forth,78,gesund,IAT_yellow3.bmp,yellow,ending_scream,scream,ending,m,positive,positive,ES_yellow,1,m,702,2280233,2280738,2280942
24,forth,79,gierig,IAT_red4.bmp,red,starting_melody,melody,starting,c,negative,positive,ES_yellow,1,c,505,2282719,2283223,2283427
24,forth,80,sozial,IAT_red4.bmp,red,starting_melody,melody,starting,m,positive,positive,ES_yellow,1,m,501,2285007,2285511,2285715
24,forth,81,witzig,IAT_green2.bmp,green,starting_scream,scream,starting,m,positive,negative,ES_yellow,1,m,611,2287291,2287795,2287999
24,forth,82,schön,IAT_green1.bmp,green,starting_scream,scream,starting,m,positive,negative,ES_yellow,1,m,520,2289684,2290189,2290393
24,forth,83,morsch,IAT_yellow4.bmp,yellow,ending_scream,scream,ending,c,negative,positive,ES_yellow,1,c,644,2291988,2292492,2292696
24,forth,84,teuer,IAT_yellow4.bmp,yellow,ending_scream,scream,ending,c,negative,positive,ES_yellow,0,m,568,2294415,2294919,2295123
24,forth,85,gesund,IAT_purple1.bmp,purple,ending_melody,melody,ending,m,positive,negative,ES_yellow,1,m,661,2297266,2297771,2297975
24,forth,86,gierig,IAT_purple3.bmp,purple,ending_melody,melody,ending,c,negative,negative,ES_yellow,1,c,496,2299711,2300216,2300420
24,forth,87,lästig,IAT_red1.bmp,red,starting_melody,melody,starting,c,negative,positive,ES_yellow,1,c,464,2301991,2302495,2302699
24,forth,88,feige,IAT_yellow3.bmp,yellow,ending_scream,scream,ending,c,negative,positive,ES_yellow,1,c,463,2304238,2304742,2304946
24,forth,89,ehrlich,IAT_purple4.bmp,purple,ending_melody,melody,ending,m,positive,negative,ES_yellow,1,m,534,2306484,2306988,2307192
24,forth,90,lustig,IAT_red2.bmp,red,starting_melody,melody,starting,m,positive,positive,ES_yellow,1,m,549,2308801,2309305,2309509
24,forth,91,streng,IAT_yellow2.bmp,yellow,ending_scream,scream,ending,c,negative,positive,ES_yellow,0,m,575,2311133,2311637,2311841
24,forth,92,schön,IAT_red3.bmp,red,starting_melody,melody,starting,m,positive,positive,ES_yellow,1,m,569,2313992,2314496,2314700
24,forth,93,sonnig,IAT_red3.bmp,red,starting_melody,melody,starting,m,positive,positive,ES_yellow,1,m,578,2316344,2316848,2317052
24,forth,94,ehrlich,IAT_purple1.bmp,purple,ending_melody,melody,ending,m,positive,negative,ES_yellow,1,m,643,2318706,2319210,2319414
24,forth,95,munter,IAT_yellow1.bmp,yellow,ending_scream,scream,ending,m,positive,positive,ES_yellow,1,m,548,2321133,2321637,2321841
