subject_nr,block,trialnr,trial_target,trial_prime,prime_color,prime_role,prime_us,prime_relation,correct_response,target_valence,prime_valence,color_counter,correct_first_response,response_first_response,response_time_first_response,fixation_show,prime_show,target_show
3,first,0,munter,IAT_green4.bmp,green,starting_melody,melody,starting,m,positive,positive,ES_purple,1,m,802,1391054,1391559,1391763
3,first,1,ehrlich,IAT_green1.bmp,green,starting_melody,melody,starting,m,positive,positive,ES_purple,1,m,436,1393641,1394145,1394349
3,first,2,sanft,IAT_green3.bmp,green,starting_melody,melody,starting,m,positive,positive,ES_purple,1,m,363,1395860,1396364,1396568
3,first,3,sonnig,IAT_purple3.bmp,purple,ending_scream,scream,ending,m,positive,positive,ES_purple,1,m,537,1398006,1398510,1398714
3,first,4,gerecht,IAT_purple1.bmp,purple,ending_scream,scream,ending,m,positive,positive,ES_purple,1,m,350,1400325,1400829,1401033
3,first,5,morsch,IAT_purple3.bmp,purple,ending_scream,scream,ending,c,negative,positive,ES_purple,0,m,249,1402456,1402961,1403165
3,first,6,einsam,IAT_purple3.bmp,purple,ending_scream,scream,ending,c,negative,positive,ES_purple,1,c,583,1404989,1405493,1405697
3,first,7,heiter,IAT_red2.bmp,red,starting_scream,scream,starting,m,positive,negative,ES_purple,1,m,934,1407354,1407858,1408062
3,first,8,kaputt,IAT_yellow2.bmp,yellow,ending_melody,melody,ending,c,negative,negative,ES_purple,1,c,608,1410071,1410575,1410779
3,first,9,teuer,IAT_green1.bmp,green,starting_melody,melody,starting,c,negative,positive,ES_purple,1,c,619,1412460,1412964,1413168
3,first,10,sanft,IAT_purple2.bmp,purple,ending_scream,scream,ending,m,positive,positive,ES_purple,0,c,342,1414861,1415365,1415569
3,first,11,sozial,IAT_purple4.bmp,purple,ending_scream,scream,ending,m,positive,positive,ES_purple,1,m,297,1417486,1417990,1418194
3,first,12,brutal,IAT_purple4.bmp,purple,ending_scream,scream,ending,c,negative,positive,ES_purple,0,m,281,1419566,1420070,1420274
3,first,13,gierig,IAT_green4.bmp,green,starting_melody,melody,starting,c,negative,positive,ES_purple,1,c,742,1422130,1422635,1422839
3,first,14,lästig,IAT_red2.bmp,red,starting_scream,scream,starting,c,negative,negative,ES_purple,1,c,649,1424656,1425160,1425364
3,first,15,krank,IAT_green4.bmp,green,starting_melody,melody,starting,c,negative,positive,ES_purple,1,c,677,1427088,1427593,1427797
3,first,16,teuer,IAT_green3.bmp,green,starting_melody,melody,starting,c,negative,positive,ES_purple,1,c,648,1429549,1430053,1430257
3,first,17,human,IAT_purple4.bmp,purple,ending_scream,scream,ending,m,positive,positive,ES_purple,1,m,461,1431980,1432484,1432688
3,first,18,brutal,IAT_red3.bmp,red,starting_scream,scream,starting,c,negative,negative,ES_purple,1,c,386,1434223,1434727,1434931
3,first,19,lustig,IAT_green4.bmp,green,starting_melody,melody,starting,m,positive,positive,ES_purple,1,m,315,1436391,1436895,1437099
3,first,20,heiter,IAT_green2.bmp,green,starting_melody,melody,starting,m,positive,positive,ES_purple,1,m,727,1438489,1438994,1439198
3,first,21,lustig,IAT_red1.bmp,red,starting_scream,scream,starting,m,positive,negative,ES_purple,0,c,138,1441000,1441504,1441708
3,first,22,gerecht,IAT_red4.bmp,red,starting_scream,scream,starting,m,positive,negative,ES_purple,0,c,459,1443421,1443925,1444129
3,first,23,gesund,IAT_yellow1.bmp,yellow,ending_melody,melody,ending,m,positive,negative,ES_purple,1,m,932,1446162,1446666,1446870
3,first,24,feige,IAT_yellow1.bmp,yellow,ending_melody,melody,ending,c,negative,negative,ES_purple,1,c,772,1448877,1449381,1449585
3,first,25,einsam,IAT_green2.bmp,green,starting_melody,melody,starting,c,negative,positive,ES_purple,1,c,720,1451431,1451935,1452139
3,first,26,feige,IAT_red2.bmp,red,starting_scream,scream,starting,c,negative,negative,ES_purple,1,c,720,1453933,1454437,1454641
3,first,27,gierig,IAT_red3.bmp,red,starting_scream,scream,starting,c,negative,negative,ES_purple,1,c,358,1456437,1456941,1457145
3,first,28,teuer,IAT_red2.bmp,red,starting_scream,scream,starting,c,negative,negative,ES_purple,1,c,336,1458577,1459082,1459286
3,first,29,sonnig,IAT_green1.bmp,green,starting_melody,melody,starting,m,positive,positive,ES_purple,1,m,575,1460697,1461201,1461405
3,first,30,human,IAT_red1.bmp,red,starting_scream,scream,starting,m,positive,negative,ES_purple,1,m,578,1463056,1463560,1463764
3,first,31,schön,IAT_red1.bmp,red,starting_scream,scream,starting,m,positive,negative,ES_purple,1,m,401,1465417,1465921,1466125
3,first,32,kaputt,IAT_yellow1.bmp,yellow,ending_melody,melody,ending,c,negative,negative,ES_purple,1,c,362,1467603,1468107,1468311
3,first,33,krank,IAT_green2.bmp,green,starting_melody,melody,starting,c,negative,positive,ES_purple,1,c,431,1469747,1470251,1470455
3,first,34,morsch,IAT_red4.bmp,red,starting_scream,scream,starting,c,negative,negative,ES_purple,1,c,339,1471961,1472466,1472670
3,first,35,geizig,IAT_yellow3.bmp,yellow,ending_melody,melody,ending,c,negative,negative,ES_purple,1,c,502,1474086,1474590,1474794
3,first,36,feige,IAT_yellow4.bmp,yellow,ending_melody,melody,ending,c,negative,negative,ES_purple,1,c,394,1476370,1476875,1477079
3,first,37,sozial,IAT_red3.bmp,red,starting_scream,scream,starting,m,positive,negative,ES_purple,1,m,483,1478549,1479053,1479257
3,first,38,geizig,IAT_purple2.bmp,purple,ending_scream,scream,ending,c,negative,positive,ES_purple,0,m,339,1480815,1481319,1481523
3,first,39,ehrlich,IAT_yellow3.bmp,yellow,ending_melody,melody,ending,m,positive,negative,ES_purple,1,m,527,1483438,1483942,1484146
3,first,40,feige,IAT_purple4.bmp,purple,ending_scream,scream,ending,c,negative,positive,ES_purple,1,c,288,1485748,1486252,1486456
3,first,41,munter,IAT_green1.bmp,green,starting_melody,melody,starting,m,positive,positive,ES_purple,1,m,396,1487819,1488323,1488527
3,first,42,heiter,IAT_yellow1.bmp,yellow,ending_melody,melody,ending,m,positive,negative,ES_purple,0,c,379,1489999,1490504,1490708
3,first,43,human,IAT_green3.bmp,green,starting_melody,melody,starting,m,positive,positive,ES_purple,1,m,885,1492661,1493165,1493369
3,first,44,streng,IAT_yellow2.bmp,yellow,ending_melody,melody,ending,c,negative,negative,ES_purple,0,m,405,1495329,1495834,1496038
3,first,45,geizig,IAT_yellow4.bmp,yellow,ending_melody,melody,ending,c,negative,negative,ES_purple,1,c,477,1498019,1498523,1498727
3,first,46,streng,IAT_purple4.bmp,purple,ending_scream,scream,ending,c,negative,positive,ES_purple,1,c,677,1500279,1500783,1500987
3,first,47,sozial,IAT_purple1.bmp,purple,ending_scream,scream,ending,m,positive,positive,ES_purple,0,c,334,1502739,1503244,1503448
3,first,48,lustig,IAT_yellow3.bmp,yellow,ending_melody,melody,ending,m,positive,negative,ES_purple,0,c,1205,1505358,1505862,1506066
3,first,49,sonnig,IAT_purple3.bmp,purple,ending_scream,scream,ending,m,positive,positive,ES_purple,1,m,508,1508846,1509350,1509554
3,first,50,munter,IAT_yellow1.bmp,yellow,ending_melody,melody,ending,m,positive,negative,ES_purple,1,m,286,1511138,1511642,1511846
3,first,51,falsch,IAT_yellow4.bmp,yellow,ending_melody,melody,ending,c,negative,negative,ES_purple,0,m,138,1513208,1513712,1513916
3,first,52,witzig,IAT_yellow4.bmp,yellow,ending_melody,melody,ending,m,positive,negative,ES_purple,1,m,385,1515630,1516134,1516338
3,first,53,morsch,IAT_green2.bmp,green,starting_melody,melody,starting,c,negative,positive,ES_purple,1,c,575,1517798,1518302,1518506
3,first,54,schön,IAT_purple1.bmp,purple,ending_scream,scream,ending,m,positive,positive,ES_purple,1,m,586,1520156,1520661,1520865
3,first,55,witzig,IAT_yellow4.bmp,yellow,ending_melody,melody,ending,m,positive,negative,ES_purple,1,m,924,1522526,1523030,1523234
3,first,56,falsch,IAT_purple1.bmp,purple,ending_scream,scream,ending,c,negative,positive,ES_purple,1,c,450,1525232,1525737,1525941
3,first,57,gerecht,IAT_red2.bmp,red,starting_scream,scream,starting,m,positive,negative,ES_purple,1,m,517,1527466,1527971,1528175
3,first,58,krank,IAT_green4.bmp,green,starting_melody,melody,starting,c,negative,positive,ES_purple,1,c,307,1529767,1530272,1530476
3,first,59,witzig,IAT_green2.bmp,green,starting_melody,melody,starting,m,positive,positive,ES_purple,1,m,443,1531858,1532363,1532567
3,first,60,lästig,IAT_red4.bmp,red,starting_scream,scream,starting,c,negative,negative,ES_purple,1,c,7,1534085,1534589,1534793
3,first,61,teuer,IAT_yellow3.bmp,yellow,ending_melody,melody,ending,c,negative,negative,ES_purple,0,m,583,1535874,1536378,1536582
3,first,62,ehrlich,IAT_green1.bmp,green,starting_melody,melody,starting,m,positive,positive,ES_purple,0,c,195,1538742,1539246,1539450
3,first,63,falsch,IAT_green4.bmp,green,starting_melody,melody,starting,c,negative,positive,ES_purple,0,m,191,1541221,1541725,1541929
3,first,64,gesund,IAT_red3.bmp,red,starting_scream,scream,starting,m,positive,negative,ES_purple,1,m,611,1543695,1544200,1544404
3,first,65,einsam,IAT_purple2.bmp,purple,ending_scream,scream,ending,c,negative,positive,ES_purple,1,c,367,1546090,1546594,1546798
3,first,66,human,IAT_yellow2.bmp,yellow,ending_melody,melody,ending,m,positive,negative,ES_purple,1,m,472,1548241,1548745,1548949
3,first,67,sonnig,IAT_yellow3.bmp,yellow,ending_melody,melody,ending,m,positive,negative,ES_purple,1,m,472,1550496,1551000,1551204
3,first,68,munter,IAT_purple3.bmp,purple,ending_scream,scream,ending,m,positive,positive,ES_purple,1,m,375,1552751,1553255,1553459
3,first,69,falsch,IAT_purple1.bmp,purple,ending_scream,scream,ending,c,negative,positive,ES_purple,1,c,586,1554910,1555414,1555618
3,first,70,gesund,IAT_purple1.bmp,purple,ending_scream,scream,ending,m,positive,positive,ES_purple,1,m,435,1557280,1557784,1557988
3,first,71,lästig,IAT_red4.bmp,red,starting_scream,scream,starting,c,negative,negative,ES_purple,0,m,1224,1559500,1560004,1560208
3,first,72,streng,IAT_red1.bmp,red,starting_scream,scream,starting,c,negative,negative,ES_purple,0,m,533,1563008,1563512,1563716
3,first,73,brutal,IAT_green3.bmp,green,starting_melody,melody,starting,c,negative,positive,ES_purple,0,None,1500,1565825,1566329,1566533
3,first,74,morsch,IAT_yellow2.bmp,yellow,ending_melody,melody,ending,c,negative,negative,ES_purple,1,c,712,1569609,1570113,1570317
3,first,75,brutal,IAT_red1.bmp,red,starting_scream,scream,starting,c,negative,negative,ES_purple,1,c,407,1572104,1572609,1572813
3,first,76,sozial,IAT_yellow3.bmp,yellow,ending_melody,melody,ending,m,positive,negative,ES_purple,1,m,510,1574296,1574801,1575005
3,first,77,lästig,IAT_purple2.bmp,purple,ending_scream,scream,ending,c,negative,positive,ES_purple,1,c,568,1576591,1577095,1577299
3,first,78,sanft,IAT_yellow1.bmp,yellow,ending_melody,melody,ending,m,positive,negative,ES_purple,1,m,86,1578943,1579447,1579651
3,first,79,gesund,IAT_yellow2.bmp,yellow,ending_melody,melody,ending,m,positive,negative,ES_purple,0,c,275,1580812,1581317,1581522
3,first,80,kaputt,IAT_green1.bmp,green,starting_melody,melody,starting,c,negative,positive,ES_purple,0,m,63,1583372,1583876,1584080
3,first,81,schön,IAT_red3.bmp,red,starting_scream,scream,starting,m,positive,negative,ES_purple,1,m,526,1585719,1586223,1586427
3,first,82,einsam,IAT_purple2.bmp,purple,ending_scream,scream,ending,c,negative,positive,ES_purple,1,c,516,1588038,1588542,1588746
3,first,83,geizig,IAT_red2.bmp,red,starting_scream,scream,starting,c,negative,negative,ES_purple,1,c,417,1590337,1590841,1591045
3,first,84,gierig,IAT_purple4.bmp,purple,ending_scream,scream,ending,c,negative,positive,ES_purple,0,m,369,1592537,1593041,1593245
3,first,85,streng,IAT_red4.bmp,red,starting_scream,scream,starting,c,negative,negative,ES_purple,1,c,542,1595189,1595694,1595898
3,first,86,witzig,IAT_red3.bmp,red,starting_scream,scream,starting,m,positive,negative,ES_purple,1,m,522,1597515,1598019,1598223
3,first,87,gerecht,IAT_red1.bmp,red,starting_scream,scream,starting,m,positive,negative,ES_purple,1,m,592,1599819,1600324,1600528
3,first,88,heiter,IAT_purple3.bmp,purple,ending_scream,scream,ending,m,positive,positive,ES_purple,1,m,527,1602194,1602698,1602902
3,first,89,sanft,IAT_red4.bmp,red,starting_scream,scream,starting,m,positive,negative,ES_purple,1,m,360,1604504,1605008,1605212
3,first,90,lustig,IAT_purple2.bmp,purple,ending_scream,scream,ending,m,positive,positive,ES_purple,1,m,305,1606647,1607151,1607355
3,first,91,kaputt,IAT_yellow2.bmp,yellow,ending_melody,melody,ending,c,negative,negative,ES_purple,0,m,358,1608735,1609239,1609443
3,first,92,krank,IAT_green2.bmp,green,starting_melody,melody,starting,c,negative,positive,ES_purple,1,c,592,1611376,1611880,1612084
3,first,93,gierig,IAT_yellow4.bmp,yellow,ending_melody,melody,ending,c,negative,negative,ES_purple,1,c,625,1613751,1614255,1614459
3,first,94,ehrlich,IAT_green3.bmp,green,starting_melody,melody,starting,m,positive,positive,ES_purple,1,m,558,1616159,1616663,1616867
3,first,95,schön,IAT_green3.bmp,green,starting_melody,melody,starting,m,positive,positive,ES_purple,0,c,95,1618500,1619004,1619208
3,second,0,morsch,IAT_green2.bmp,green,starting_melody,melody,starting,c,negative,positive,ES_purple,1,c,694,1628319,1628823,1629027
3,second,1,krank,IAT_green2.bmp,green,starting_melody,melody,starting,c,negative,positive,ES_purple,0,m,47,1630796,1631300,1631504
3,second,2,einsam,IAT_purple2.bmp,purple,ending_scream,scream,ending,c,negative,positive,ES_purple,1,c,547,1633127,1633631,1633835
3,second,3,kaputt,IAT_yellow2.bmp,yellow,ending_melody,melody,ending,c,negative,negative,ES_purple,1,c,519,1635457,1635961,1636165
3,second,4,lästig,IAT_green4.bmp,green,starting_melody,melody,starting,c,negative,positive,ES_purple,1,c,570,1637758,1638263,1638467
3,second,5,falsch,IAT_green4.bmp,green,starting_melody,melody,starting,c,negative,positive,ES_purple,1,c,376,1640111,1640615,1640819
3,second,6,krank,IAT_red1.bmp,red,starting_scream,scream,starting,c,negative,negative,ES_purple,1,c,375,1642269,1642774,1642978
3,second,7,gerecht,IAT_purple1.bmp,purple,ending_scream,scream,ending,m,positive,positive,ES_purple,0,c,267,1644427,1644931,1645135
3,second,8,brutal,IAT_purple2.bmp,purple,ending_scream,scream,ending,c,negative,positive,ES_purple,1,c,590,1646977,1647481,1647685
3,second,9,kaputt,IAT_red4.bmp,red,starting_scream,scream,starting,c,negative,negative,ES_purple,1,c,462,1649349,1649853,1650057
3,second,10,sanft,IAT_green1.bmp,green,starting_melody,melody,starting,m,positive,positive,ES_purple,1,m,497,1651592,1652097,1652302
3,second,11,human,IAT_red1.bmp,red,starting_scream,scream,starting,m,positive,negative,ES_purple,1,m,516,1653872,1654376,1654580
3,second,12,einsam,IAT_red1.bmp,red,starting_scream,scream,starting,c,negative,negative,ES_purple,1,c,894,1656170,1656674,1656878
3,second,13,gierig,IAT_yellow1.bmp,yellow,ending_melody,melody,ending,c,negative,negative,ES_purple,1,c,857,1658847,1659351,1659555
3,second,14,schön,IAT_red4.bmp,red,starting_scream,scream,starting,m,positive,negative,ES_purple,1,m,538,1661486,1661991,1662195
3,second,15,morsch,IAT_red2.bmp,red,starting_scream,scream,starting,c,negative,negative,ES_purple,1,c,492,1663807,1664312,1664516
3,second,16,gerecht,IAT_yellow1.bmp,yellow,ending_melody,melody,ending,m,positive,negative,ES_purple,1,m,216,1666083,1666588,1666792
3,second,17,ehrlich,IAT_yellow3.bmp,yellow,ending_melody,melody,ending,m,positive,negative,ES_purple,0,c,361,1668082,1668587,1668791
3,second,18,kaputt,IAT_purple1.bmp,purple,ending_scream,scream,ending,c,negative,positive,ES_purple,1,c,588,1670725,1671229,1671433
3,second,19,gerecht,IAT_yellow1.bmp,yellow,ending_melody,melody,ending,m,positive,negative,ES_purple,1,m,414,1673095,1673599,1673803
3,second,20,geizig,IAT_green1.bmp,green,starting_melody,melody,starting,c,negative,positive,ES_purple,1,c,269,1675291,1675796,1676000
3,second,21,schön,IAT_yellow4.bmp,yellow,ending_melody,melody,ending,m,positive,negative,ES_purple,1,m,226,1677344,1677848,1678052
3,second,22,sonnig,IAT_green4.bmp,green,starting_melody,melody,starting,m,positive,positive,ES_purple,0,c,263,1679353,1679857,1680061
3,second,23,einsam,IAT_yellow2.bmp,yellow,ending_melody,melody,ending,c,negative,negative,ES_purple,1,c,1449,1681899,1682404,1682608
3,second,24,sanft,IAT_green2.bmp,green,starting_melody,melody,starting,m,positive,positive,ES_purple,1,m,506,1685130,1685634,1685838
3,second,25,falsch,IAT_purple4.bmp,purple,ending_scream,scream,ending,c,negative,positive,ES_purple,1,c,428,1687418,1687922,1688126
3,second,26,lästig,IAT_green1.bmp,green,starting_melody,melody,starting,c,negative,positive,ES_purple,0,m,506,1689627,1690132,1690336
3,second,27,streng,IAT_yellow4.bmp,yellow,ending_melody,melody,ending,c,negative,negative,ES_purple,1,c,523,1692417,1692922,1693126
3,second,28,morsch,IAT_red3.bmp,red,starting_scream,scream,starting,c,negative,negative,ES_purple,1,c,521,1694724,1695228,1695432
3,second,29,witzig,IAT_green1.bmp,green,starting_melody,melody,starting,m,positive,positive,ES_purple,1,m,595,1697027,1697532,1697736
3,second,30,geizig,IAT_yellow4.bmp,yellow,ending_melody,melody,ending,c,negative,negative,ES_purple,1,c,515,1699406,1699911,1700115
3,second,31,heiter,IAT_red4.bmp,red,starting_scream,scream,starting,m,positive,negative,ES_purple,1,m,650,1701705,1702209,1702413
3,second,32,gerecht,IAT_yellow1.bmp,yellow,ending_melody,melody,ending,m,positive,negative,ES_purple,1,m,538,1704138,1704642,1704846
3,second,33,witzig,IAT_green2.bmp,green,starting_melody,melody,starting,m,positive,positive,ES_purple,1,m,542,1706459,1706963,1707167
3,second,34,brutal,IAT_purple2.bmp,purple,ending_scream,scream,ending,c,negative,positive,ES_purple,1,c,680,1708784,1709288,1709492
3,second,35,lustig,IAT_purple4.bmp,purple,ending_scream,scream,ending,m,positive,positive,ES_purple,1,m,612,1711246,1711750,1711954
3,second,36,sanft,IAT_red3.bmp,red,starting_scream,scream,starting,m,positive,negative,ES_purple,1,m,770,1713640,1714145,1714349
3,second,37,streng,IAT_green4.bmp,green,starting_melody,melody,starting,c,negative,positive,ES_purple,1,c,761,1716193,1716698,1716902
3,second,38,gierig,IAT_purple4.bmp,purple,ending_scream,scream,ending,c,negative,positive,ES_purple,1,c,480,1718737,1719241,1719445
3,second,39,sozial,IAT_red3.bmp,red,starting_scream,scream,starting,m,positive,negative,ES_purple,1,m,893,1721000,1721504,1721708
3,second,40,feige,IAT_yellow4.bmp,yellow,ending_melody,melody,ending,c,negative,negative,ES_purple,1,c,688,1723676,1724180,1724384
3,second,41,brutal,IAT_red2.bmp,red,starting_scream,scream,starting,c,negative,negative,ES_purple,1,c,583,1726147,1726651,1726855
3,second,42,feige,IAT_purple2.bmp,purple,ending_scream,scream,ending,c,negative,positive,ES_purple,1,c,584,1728513,1729017,1729221
3,second,43,ehrlich,IAT_green3.bmp,green,starting_melody,melody,starting,m,positive,positive,ES_purple,1,m,664,1730880,1731384,1731588
3,second,44,morsch,IAT_green2.bmp,green,starting_melody,melody,starting,c,negative,positive,ES_purple,1,c,667,1733327,1733831,1734035
3,second,45,sozial,IAT_red3.bmp,red,starting_scream,scream,starting,m,positive,negative,ES_purple,1,m,661,1735776,1736281,1736485
3,second,46,falsch,IAT_red2.bmp,red,starting_scream,scream,starting,c,negative,negative,ES_purple,1,c,491,1738220,1738725,1738929
3,second,47,teuer,IAT_yellow3.bmp,yellow,ending_melody,melody,ending,c,negative,negative,ES_purple,1,c,863,1740494,1740999,1741203
3,second,48,munter,IAT_green3.bmp,green,starting_melody,melody,starting,m,positive,positive,ES_purple,1,m,704,1743140,1743645,1743849
3,second,49,sozial,IAT_green4.bmp,green,starting_melody,melody,starting,m,positive,positive,ES_purple,1,m,816,1745628,1746133,1746337
3,second,50,schön,IAT_green3.bmp,green,starting_melody,melody,starting,m,positive,positive,ES_purple,1,m,517,1748228,1748732,1748936
3,second,51,gesund,IAT_purple3.bmp,purple,ending_scream,scream,ending,m,positive,positive,ES_purple,0,c,388,1750527,1751032,1751236
3,second,52,geizig,IAT_yellow2.bmp,yellow,ending_melody,melody,ending,c,negative,negative,ES_purple,1,c,588,1753199,1753703,1753907
3,second,53,feige,IAT_yellow2.bmp,yellow,ending_melody,melody,ending,c,negative,negative,ES_purple,1,c,465,1755570,1756074,1756278
3,second,54,munter,IAT_purple1.bmp,purple,ending_scream,scream,ending,m,positive,positive,ES_purple,0,c,324,1757818,1758322,1758526
3,second,55,lästig,IAT_yellow3.bmp,yellow,ending_melody,melody,ending,c,negative,negative,ES_purple,1,c,633,1760424,1760928,1761132
3,second,56,ehrlich,IAT_purple2.bmp,purple,ending_scream,scream,ending,m,positive,positive,ES_purple,1,m,283,1762840,1763344,1763548
3,second,57,kaputt,IAT_green4.bmp,green,starting_melody,melody,starting,c,negative,positive,ES_purple,1,c,270,1764907,1765411,1765615
3,second,58,lustig,IAT_purple3.bmp,purple,ending_scream,scream,ending,m,positive,positive,ES_purple,1,m,271,1766960,1767464,1767668
3,second,59,heiter,IAT_yellow3.bmp,yellow,ending_melody,melody,ending,m,positive,negative,ES_purple,0,c,47,1769014,1769518,1769722
3,second,60,witzig,IAT_purple3.bmp,purple,ending_scream,scream,ending,m,positive,positive,ES_purple,1,m,526,1771344,1771848,1772052
3,second,61,gierig,IAT_red4.bmp,red,starting_scream,scream,starting,c,negative,negative,ES_purple,1,c,631,1773652,1774157,1774362
3,second,62,gesund,IAT_purple2.bmp,purple,ending_scream,scream,ending,m,positive,positive,ES_purple,0,c,554,1776068,1776572,1776776
3,second,63,human,IAT_red3.bmp,red,starting_scream,scream,starting,m,positive,negative,ES_purple,1,m,651,1778905,1779410,1779614
3,second,64,teuer,IAT_red2.bmp,red,starting_scream,scream,starting,c,negative,negative,ES_purple,1,c,874,1781340,1781844,1782048
3,second,65,falsch,IAT_yellow4.bmp,yellow,ending_melody,melody,ending,c,negative,negative,ES_purple,1,c,578,1783998,1784502,1784706
3,second,66,lustig,IAT_red2.bmp,red,starting_scream,scream,starting,m,positive,negative,ES_purple,1,m,762,1786359,1786863,1787067
3,second,67,human,IAT_green1.bmp,green,starting_melody,melody,starting,m,positive,positive,ES_purple,1,m,668,1788904,1789408,1789612
3,second,68,sanft,IAT_red2.bmp,red,starting_scream,scream,starting,m,positive,negative,ES_purple,1,m,588,1791355,1791859,1792063
3,second,69,human,IAT_green3.bmp,green,starting_melody,melody,starting,m,positive,positive,ES_purple,1,m,330,1793726,1794230,1794434
3,second,70,teuer,IAT_yellow1.bmp,yellow,ending_melody,melody,ending,c,negative,negative,ES_purple,0,m,368,1795840,1796344,1796548
3,second,71,einsam,IAT_red4.bmp,red,starting_scream,scream,starting,c,negative,negative,ES_purple,0,m,91,1798491,1798995,1799199
3,second,72,heiter,IAT_yellow3.bmp,yellow,ending_melody,melody,ending,m,positive,negative,ES_purple,1,m,686,1800865,1801369,1801573
3,second,73,gierig,IAT_red3.bmp,red,starting_scream,scream,starting,c,negative,negative,ES_purple,1,c,624,1803333,1803838,1804042
3,second,74,gesund,IAT_red1.bmp,red,starting_scream,scream,starting,m,positive,negative,ES_purple,1,m,575,1805740,1806244,1806448
3,second,75,geizig,IAT_green2.bmp,green,starting_melody,melody,starting,c,negative,positive,ES_purple,1,c,396,1808097,1808602,1808806
3,second,76,krank,IAT_purple3.bmp,purple,ending_scream,scream,ending,c,negative,positive,ES_purple,0,m,467,1810277,1810782,1810986
3,second,77,lästig,IAT_purple4.bmp,purple,ending_scream,scream,ending,c,negative,positive,ES_purple,1,c,520,1813027,1813532,1813736
3,second,78,feige,IAT_purple1.bmp,purple,ending_scream,scream,ending,c,negative,positive,ES_purple,1,c,446,1815331,1815835,1816039
3,second,79,sonnig,IAT_red1.bmp,red,starting_scream,scream,starting,m,positive,negative,ES_purple,1,m,697,1817560,1818065,1818269
3,second,80,munter,IAT_yellow4.bmp,yellow,ending_melody,melody,ending,m,positive,negative,ES_purple,1,m,450,1820041,1820546,1820750
3,second,81,brutal,IAT_red4.bmp,red,starting_scream,scream,starting,c,negative,negative,ES_purple,1,c,833,1822276,1822781,1822985
3,second,82,ehrlich,IAT_yellow3.bmp,yellow,ending_melody,melody,ending,m,positive,negative,ES_purple,1,m,649,1824892,1825397,1825601
3,second,83,gesund,IAT_purple1.bmp,purple,ending_scream,scream,ending,m,positive,positive,ES_purple,1,m,371,1827325,1827829,1828033
3,second,84,sozial,IAT_purple4.bmp,purple,ending_scream,scream,ending,m,positive,positive,ES_purple,1,m,65,1829478,1829983,1830187
3,second,85,streng,IAT_green3.bmp,green,starting_melody,melody,starting,c,negative,positive,ES_purple,1,c,645,1831328,1831832,1832036
3,second,86,heiter,IAT_purple3.bmp,purple,ending_scream,scream,ending,m,positive,positive,ES_purple,1,m,522,1833756,1834260,1834464
3,second,87,teuer,IAT_purple3.bmp,purple,ending_scream,scream,ending,c,negative,positive,ES_purple,0,m,322,1836061,1836565,1836769
3,second,88,lustig,IAT_yellow2.bmp,yellow,ending_melody,melody,ending,m,positive,negative,ES_purple,1,m,501,1838667,1839171,1839375
3,second,89,sonnig,IAT_yellow1.bmp,yellow,ending_melody,melody,ending,m,positive,negative,ES_purple,1,m,416,1840951,1841455,1841659
3,second,90,munter,IAT_purple1.bmp,purple,ending_scream,scream,ending,m,positive,positive,ES_purple,1,m,596,1843150,1843654,1843858
3,second,91,schön,IAT_green1.bmp,green,starting_melody,melody,starting,m,positive,positive,ES_purple,1,m,500,1845528,1846032,1846236
3,second,92,krank,IAT_purple4.bmp,purple,ending_scream,scream,ending,c,negative,positive,ES_purple,1,c,500,1847810,1848315,1848519
3,second,93,streng,IAT_green3.bmp,green,starting_melody,melody,starting,c,negative,positive,ES_purple,1,c,354,1850094,1850598,1850802
3,second,94,witzig,IAT_red1.bmp,red,starting_scream,scream,starting,m,positive,negative,ES_purple,1,m,556,1852231,1852736,1852940
3,second,95,sonnig,IAT_yellow2.bmp,yellow,ending_melody,melody,ending,m,positive,negative,ES_purple,1,m,532,1854570,1855075,1855279
3,third,0,sonnig,IAT_green4.bmp,green,starting_melody,melody,starting,m,positive,positive,ES_purple,0,None,1500,1863990,1864494,1864698
3,third,1,gierig,IAT_purple2.bmp,purple,ending_scream,scream,ending,c,negative,positive,ES_purple,1,c,589,1867774,1868278,1868482
3,third,2,gerecht,IAT_yellow2.bmp,yellow,ending_melody,melody,ending,m,positive,negative,ES_purple,0,c,401,1870146,1870650,1870854
3,third,3,geizig,IAT_red4.bmp,red,starting_scream,scream,starting,c,negative,negative,ES_purple,1,c,579,1872830,1873334,1873538
3,third,4,lästig,IAT_green3.bmp,green,starting_melody,melody,starting,c,negative,positive,ES_purple,1,c,602,1875192,1875697,1875901
3,third,5,munter,IAT_green2.bmp,green,starting_melody,melody,starting,m,positive,positive,ES_purple,1,m,507,1877578,1878083,1878287
3,third,6,teuer,IAT_purple3.bmp,purple,ending_scream,scream,ending,c,negative,positive,ES_purple,0,m,294,1879870,1880374,1880578
3,third,7,gerecht,IAT_red1.bmp,red,starting_scream,scream,starting,m,positive,negative,ES_purple,1,m,483,1882447,1882952,1883156
3,third,8,gesund,IAT_yellow2.bmp,yellow,ending_melody,melody,ending,m,positive,negative,ES_purple,1,m,424,1884714,1885219,1885423
3,third,9,schön,IAT_red3.bmp,red,starting_scream,scream,starting,m,positive,negative,ES_purple,1,m,350,1886922,1887426,1887630
3,third,10,witzig,IAT_yellow3.bmp,yellow,ending_melody,melody,ending,m,positive,negative,ES_purple,1,m,363,1889055,1889560,1889764
3,third,11,feige,IAT_yellow1.bmp,yellow,ending_melody,melody,ending,c,negative,negative,ES_purple,0,m,336,1891203,1891707,1891911
3,third,12,brutal,IAT_green2.bmp,green,starting_melody,melody,starting,c,negative,positive,ES_purple,0,m,383,1893821,1894326,1894530
3,third,13,kaputt,IAT_red2.bmp,red,starting_scream,scream,starting,c,negative,negative,ES_purple,1,c,494,1896489,1896993,1897197
3,third,14,brutal,IAT_green2.bmp,green,starting_melody,melody,starting,c,negative,positive,ES_purple,1,c,570,1898769,1899273,1899477
3,third,15,streng,IAT_purple4.bmp,purple,ending_scream,scream,ending,c,negative,positive,ES_purple,1,c,688,1901122,1901626,1901830
3,third,16,munter,IAT_red1.bmp,red,starting_scream,scream,starting,m,positive,negative,ES_purple,0,c,398,1903593,1904097,1904301
3,third,17,sozial,IAT_purple2.bmp,purple,ending_scream,scream,ending,m,positive,positive,ES_purple,0,c,301,1906275,1906779,1906983
3,third,18,morsch,IAT_purple4.bmp,purple,ending_scream,scream,ending,c,negative,positive,ES_purple,1,c,706,1908859,1909363,1909567
3,third,19,schön,IAT_yellow1.bmp,yellow,ending_melody,melody,ending,m,positive,negative,ES_purple,1,m,675,1911350,1911854,1912058
3,third,20,lästig,IAT_purple4.bmp,purple,ending_scream,scream,ending,c,negative,positive,ES_purple,1,c,834,1913809,1914313,1914517
3,third,21,kaputt,IAT_yellow2.bmp,yellow,ending_melody,melody,ending,c,negative,negative,ES_purple,1,c,359,1916429,1916933,1917137
3,third,22,witzig,IAT_red3.bmp,red,starting_scream,scream,starting,m,positive,negative,ES_purple,1,m,484,1918572,1919076,1919280
3,third,23,lästig,IAT_red1.bmp,red,starting_scream,scream,starting,c,negative,negative,ES_purple,1,c,587,1920841,1921345,1921549
3,third,24,ehrlich,IAT_green3.bmp,green,starting_melody,melody,starting,m,positive,positive,ES_purple,1,m,1294,1923212,1923716,1923920
3,third,25,feige,IAT_purple2.bmp,purple,ending_scream,scream,ending,c,negative,positive,ES_purple,1,c,610,1926290,1926794,1926998
3,third,26,teuer,IAT_green4.bmp,green,starting_melody,melody,starting,c,negative,positive,ES_purple,1,c,451,1928683,1929187,1929391
3,third,27,streng,IAT_red2.bmp,red,starting_scream,scream,starting,c,negative,negative,ES_purple,1,c,449,1930918,1931422,1931626
3,third,28,lustig,IAT_green2.bmp,green,starting_melody,melody,starting,m,positive,positive,ES_purple,1,m,351,1933150,1933654,1933858
3,third,29,morsch,IAT_yellow1.bmp,yellow,ending_melody,melody,ending,c,negative,negative,ES_purple,1,c,511,1935285,1935789,1935993
3,third,30,teuer,IAT_yellow4.bmp,yellow,ending_melody,melody,ending,c,negative,negative,ES_purple,1,c,326,1937580,1938084,1938288
3,third,31,streng,IAT_green3.bmp,green,starting_melody,melody,starting,c,negative,positive,ES_purple,0,m,259,1939690,1940194,1940398
3,third,32,feige,IAT_green4.bmp,green,starting_melody,melody,starting,c,negative,positive,ES_purple,1,c,52,1942232,1942736,1942940
3,third,33,gesund,IAT_red3.bmp,red,starting_scream,scream,starting,m,positive,negative,ES_purple,0,c,541,1944068,1944572,1944776
3,third,34,lustig,IAT_green1.bmp,green,starting_melody,melody,starting,m,positive,positive,ES_purple,0,c,579,1946891,1947396,1947600
3,third,35,einsam,IAT_yellow2.bmp,yellow,ending_melody,melody,ending,c,negative,negative,ES_purple,1,c,637,1949755,1950260,1950464
3,third,36,munter,IAT_red1.bmp,red,starting_scream,scream,starting,m,positive,negative,ES_purple,1,m,713,1952177,1952681,1952885
3,third,37,gerecht,IAT_green1.bmp,green,starting_melody,melody,starting,m,positive,positive,ES_purple,1,m,415,1954673,1955177,1955381
3,third,38,heiter,IAT_yellow3.bmp,yellow,ending_melody,melody,ending,m,positive,negative,ES_purple,1,m,409,1956872,1957376,1957580
3,third,39,streng,IAT_green1.bmp,green,starting_melody,melody,starting,c,negative,positive,ES_purple,1,c,558,1959065,1959569,1959773
3,third,40,einsam,IAT_green2.bmp,green,starting_melody,melody,starting,c,negative,positive,ES_purple,1,c,641,1961406,1961910,1962114
3,third,41,sonnig,IAT_purple3.bmp,purple,ending_scream,scream,ending,m,positive,positive,ES_purple,0,c,696,1963830,1964334,1964538
3,third,42,ehrlich,IAT_red4.bmp,red,starting_scream,scream,starting,m,positive,negative,ES_purple,0,c,602,1966810,1967314,1967518
3,third,43,kaputt,IAT_red4.bmp,red,starting_scream,scream,starting,c,negative,negative,ES_purple,1,c,603,1969696,1970200,1970404
3,third,44,falsch,IAT_purple4.bmp,purple,ending_scream,scream,ending,c,negative,positive,ES_purple,1,c,622,1972082,1972586,1972790
3,third,45,human,IAT_yellow3.bmp,yellow,ending_melody,melody,ending,m,positive,negative,ES_purple,1,m,863,1974488,1974993,1975197
3,third,46,ehrlich,IAT_yellow1.bmp,yellow,ending_melody,melody,ending,m,positive,negative,ES_purple,1,m,475,1977136,1977640,1977844
3,third,47,sanft,IAT_red2.bmp,red,starting_scream,scream,starting,m,positive,negative,ES_purple,1,m,440,1979394,1979899,1980103
3,third,48,sozial,IAT_red1.bmp,red,starting_scream,scream,starting,m,positive,negative,ES_purple,1,m,532,1981619,1982124,1982328
3,third,49,teuer,IAT_green2.bmp,green,starting_melody,melody,starting,c,negative,positive,ES_purple,1,c,557,1983935,1984441,1984645
3,third,50,feige,IAT_red4.bmp,red,starting_scream,scream,starting,c,negative,negative,ES_purple,1,c,301,1986278,1986783,1986987
3,third,51,krank,IAT_yellow4.bmp,yellow,ending_melody,melody,ending,c,negative,negative,ES_purple,1,c,437,1988365,1988869,1989073
3,third,52,morsch,IAT_yellow4.bmp,yellow,ending_melody,melody,ending,c,negative,negative,ES_purple,1,c,412,1990586,1991090,1991294
3,third,53,human,IAT_yellow1.bmp,yellow,ending_melody,melody,ending,m,positive,negative,ES_purple,1,m,657,1992781,1993286,1993490
3,third,54,gierig,IAT_red3.bmp,red,starting_scream,scream,starting,c,negative,negative,ES_purple,0,m,371,1995222,1995727,1995931
3,third,55,krank,IAT_purple2.bmp,purple,ending_scream,scream,ending,c,negative,positive,ES_purple,1,c,473,1997879,1998383,1998587
3,third,56,schön,IAT_purple4.bmp,purple,ending_scream,scream,ending,m,positive,positive,ES_purple,1,m,522,2000137,2000641,2000845
3,third,57,heiter,IAT_purple4.bmp,purple,ending_scream,scream,ending,m,positive,positive,ES_purple,1,m,438,2002443,2002947,2003152
3,third,58,einsam,IAT_red3.bmp,red,starting_scream,scream,starting,c,negative,negative,ES_purple,1,c,835,2004666,2005170,2005374
3,third,59,gesund,IAT_green1.bmp,green,starting_melody,melody,starting,m,positive,positive,ES_purple,1,m,503,2007284,2007788,2007992
3,third,60,sonnig,IAT_yellow4.bmp,yellow,ending_melody,melody,ending,m,positive,negative,ES_purple,0,c,401,2009571,2010075,2010279
3,third,61,lustig,IAT_purple2.bmp,purple,ending_scream,scream,ending,m,positive,positive,ES_purple,1,m,347,2012256,2012760,2012964
3,third,62,falsch,IAT_yellow2.bmp,yellow,ending_melody,melody,ending,c,negative,negative,ES_purple,1,c,630,2014388,2014892,2015096
3,third,63,sanft,IAT_green3.bmp,green,starting_melody,melody,starting,m,positive,positive,ES_purple,1,m,899,2016801,2017305,2017509
3,third,64,heiter,IAT_red4.bmp,red,starting_scream,scream,starting,m,positive,negative,ES_purple,1,m,526,2019483,2019988,2020192
3,third,65,lästig,IAT_yellow2.bmp,yellow,ending_melody,melody,ending,c,negative,negative,ES_purple,0,m,431,2021795,2022299,2022503
3,third,66,krank,IAT_red1.bmp,red,starting_scream,scream,starting,c,negative,negative,ES_purple,0,m,451,2024511,2025015,2025219
3,third,67,geizig,IAT_purple1.bmp,purple,ending_scream,scream,ending,c,negative,positive,ES_purple,1,c,968,2027245,2027749,2027953
3,third,68,sanft,IAT_purple1.bmp,purple,ending_scream,scream,ending,m,positive,positive,ES_purple,1,m,551,2029998,2030502,2030706
3,third,69,krank,IAT_yellow4.bmp,yellow,ending_melody,melody,ending,c,negative,negative,ES_purple,1,c,559,2032333,2032838,2033042
3,third,70,schön,IAT_yellow1.bmp,yellow,ending_melody,melody,ending,m,positive,negative,ES_purple,0,c,309,2034677,2035181,2035385
3,third,71,gierig,IAT_green4.bmp,green,starting_melody,melody,starting,c,negative,positive,ES_purple,1,c,730,2037270,2037774,2037978
3,third,72,sozial,IAT_purple1.bmp,purple,ending_scream,scream,ending,m,positive,positive,ES_purple,1,m,823,2039785,2040289,2040493
3,third,73,sanft,IAT_yellow3.bmp,yellow,ending_melody,melody,ending,m,positive,negative,ES_purple,1,m,744,2042391,2042895,2043099
3,third,74,human,IAT_green3.bmp,green,starting_melody,melody,starting,m,positive,positive,ES_purple,1,m,843,2044920,2045424,2045628
3,third,75,geizig,IAT_red2.bmp,red,starting_scream,scream,starting,c,negative,negative,ES_purple,1,c,569,2047547,2048051,2048255
3,third,76,brutal,IAT_yellow3.bmp,yellow,ending_melody,melody,ending,c,negative,negative,ES_purple,0,m,613,2049900,2050405,2050609
3,third,77,falsch,IAT_red2.bmp,red,starting_scream,scream,starting,c,negative,negative,ES_purple,1,c,535,2052799,2053303,2053507
3,third,78,witzig,IAT_purple3.bmp,purple,ending_scream,scream,ending,m,positive,positive,ES_purple,1,m,523,2055119,2055623,2055827
3,third,79,gerecht,IAT_purple3.bmp,purple,ending_scream,scream,ending,m,positive,positive,ES_purple,1,m,785,2057425,2057929,2058133
3,third,80,geizig,IAT_purple2.bmp,purple,ending_scream,scream,ending,c,negative,positive,ES_purple,0,m,263,2059996,2060501,2060705
3,third,81,ehrlich,IAT_purple1.bmp,purple,ending_scream,scream,ending,m,positive,positive,ES_purple,0,c,354,2062544,2063049,2063253
3,third,82,heiter,IAT_green3.bmp,green,starting_melody,melody,starting,m,positive,positive,ES_purple,1,m,486,2065183,2065688,2065892
3,third,83,kaputt,IAT_green1.bmp,green,starting_melody,melody,starting,c,negative,positive,ES_purple,1,c,643,2067455,2067959,2068163
3,third,84,lustig,IAT_red3.bmp,red,starting_scream,scream,starting,m,positive,negative,ES_purple,1,m,332,2069882,2070387,2070591
3,third,85,gesund,IAT_red2.bmp,red,starting_scream,scream,starting,m,positive,negative,ES_purple,0,c,530,2072000,2072504,2072708
3,third,86,human,IAT_green1.bmp,green,starting_melody,melody,starting,m,positive,positive,ES_purple,1,m,388,2074814,2075318,2075522
3,third,87,witzig,IAT_green4.bmp,green,starting_melody,melody,starting,m,positive,positive,ES_purple,1,m,855,2076986,2077491,2077695
3,third,88,morsch,IAT_purple1.bmp,purple,ending_scream,scream,ending,c,negative,positive,ES_purple,1,c,471,2079626,2080130,2080334
3,third,89,sonnig,IAT_purple1.bmp,purple,ending_scream,scream,ending,m,positive,positive,ES_purple,0,c,370,2081881,2082385,2082589
3,third,90,sozial,IAT_yellow4.bmp,yellow,ending_melody,melody,ending,m,positive,negative,ES_purple,0,None,1500,2084535,2085040,2085244
3,third,91,munter,IAT_purple3.bmp,purple,ending_scream,scream,ending,m,positive,positive,ES_purple,1,m,524,2088320,2088824,2089028
3,third,92,einsam,IAT_red4.bmp,red,starting_scream,scream,starting,c,negative,negative,ES_purple,1,c,478,2090630,2091134,2091338
3,third,93,gierig,IAT_yellow3.bmp,yellow,ending_melody,melody,ending,c,negative,negative,ES_purple,0,m,276,2092892,2093397,2093601
3,third,94,falsch,IAT_green4.bmp,green,starting_melody,melody,starting,c,negative,positive,ES_purple,1,c,549,2095452,2095956,2096160
3,third,95,brutal,IAT_purple3.bmp,purple,ending_scream,scream,ending,c,negative,positive,ES_purple,0,m,378,2097785,2098289,2098493
3,forth,0,brutal,IAT_purple2.bmp,purple,ending_scream,scream,ending,c,negative,positive,ES_purple,0,None,1500,2110265,2110769,2110973
3,forth,1,human,IAT_green3.bmp,green,starting_melody,melody,starting,m,positive,positive,ES_purple,1,m,463,2114550,2115054,2115258
3,forth,2,ehrlich,IAT_yellow1.bmp,yellow,ending_melody,melody,ending,m,positive,negative,ES_purple,1,m,459,2116796,2117301,2117505
3,forth,3,human,IAT_yellow1.bmp,yellow,ending_melody,melody,ending,m,positive,negative,ES_purple,1,m,395,2119040,2119544,2119748
3,forth,4,einsam,IAT_green2.bmp,green,starting_melody,melody,starting,c,negative,positive,ES_purple,1,c,523,2121219,2121723,2121927
3,forth,5,brutal,IAT_yellow1.bmp,yellow,ending_melody,melody,ending,c,negative,negative,ES_purple,1,c,417,2123526,2124030,2124234
3,forth,6,kaputt,IAT_purple4.bmp,purple,ending_scream,scream,ending,c,negative,positive,ES_purple,1,c,284,2125727,2126231,2126435
3,forth,7,falsch,IAT_yellow2.bmp,yellow,ending_melody,melody,ending,c,negative,negative,ES_purple,1,c,303,2127795,2128299,2128503
3,forth,8,krank,IAT_red1.bmp,red,starting_scream,scream,starting,c,negative,negative,ES_purple,1,c,335,2129881,2130385,2130589
3,forth,9,sozial,IAT_green2.bmp,green,starting_melody,melody,starting,m,positive,positive,ES_purple,1,m,332,2132000,2132505,2132709
3,forth,10,teuer,IAT_green4.bmp,green,starting_melody,melody,starting,c,negative,positive,ES_purple,0,m,268,2134116,2134621,2134825
3,forth,11,feige,IAT_yellow4.bmp,yellow,ending_melody,melody,ending,c,negative,negative,ES_purple,1,c,646,2136670,2137174,2137378
3,forth,12,streng,IAT_green4.bmp,green,starting_melody,melody,starting,c,negative,positive,ES_purple,1,c,641,2139099,2139603,2139807
3,forth,13,geizig,IAT_yellow3.bmp,yellow,ending_melody,melody,ending,c,negative,negative,ES_purple,1,c,547,2141523,2142028,2142232
3,forth,14,gesund,IAT_red3.bmp,red,starting_scream,scream,starting,m,positive,negative,ES_purple,1,m,705,2143854,2144359,2144563
3,forth,15,witzig,IAT_yellow1.bmp,yellow,ending_melody,melody,ending,m,positive,negative,ES_purple,1,m,662,2146344,2146849,2147053
3,forth,16,munter,IAT_red3.bmp,red,starting_scream,scream,starting,m,positive,negative,ES_purple,0,c,551,2148790,2149295,2149499
3,forth,17,morsch,IAT_purple3.bmp,purple,ending_scream,scream,ending,c,negative,positive,ES_purple,1,c,537,2151625,2152129,2152333
3,forth,18,kaputt,IAT_red3.bmp,red,starting_scream,scream,starting,c,negative,negative,ES_purple,1,c,582,2153946,2154450,2154654
3,forth,19,streng,IAT_purple4.bmp,purple,ending_scream,scream,ending,c,negative,positive,ES_purple,0,m,560,2156311,2156815,2157019
3,forth,20,morsch,IAT_purple2.bmp,purple,ending_scream,scream,ending,c,negative,positive,ES_purple,1,c,639,2159154,2159659,2159863
3,forth,21,heiter,IAT_red2.bmp,red,starting_scream,scream,starting,m,positive,negative,ES_purple,1,m,871,2161579,2162083,2162287
3,forth,22,sanft,IAT_green4.bmp,green,starting_melody,melody,starting,m,positive,positive,ES_purple,1,m,902,2164233,2164738,2164942
3,forth,23,munter,IAT_red3.bmp,red,starting_scream,scream,starting,m,positive,negative,ES_purple,1,m,507,2166920,2167424,2167628
3,forth,24,lustig,IAT_green1.bmp,green,starting_melody,melody,starting,m,positive,positive,ES_purple,1,m,471,2169210,2169715,2169919
3,forth,25,gesund,IAT_green4.bmp,green,starting_melody,melody,starting,m,positive,positive,ES_purple,1,m,390,2171466,2171971,2172175
3,forth,26,sozial,IAT_red3.bmp,red,starting_scream,scream,starting,m,positive,negative,ES_purple,1,m,432,2173640,2174145,2174349
3,forth,27,gierig,IAT_yellow1.bmp,yellow,ending_melody,melody,ending,c,negative,negative,ES_purple,1,c,643,2175857,2176361,2176565
3,forth,28,witzig,IAT_green3.bmp,green,starting_melody,melody,starting,m,positive,positive,ES_purple,1,m,549,2178284,2178788,2178992
3,forth,29,feige,IAT_red2.bmp,red,starting_scream,scream,starting,c,negative,negative,ES_purple,1,c,399,2180618,2181123,2181327
3,forth,30,geizig,IAT_yellow2.bmp,yellow,ending_melody,melody,ending,c,negative,negative,ES_purple,0,m,396,2182803,2183307,2183511
3,forth,31,schön,IAT_red4.bmp,red,starting_scream,scream,starting,m,positive,negative,ES_purple,1,m,1014,2185482,2185986,2186194
3,forth,32,gerecht,IAT_red1.bmp,red,starting_scream,scream,starting,m,positive,negative,ES_purple,0,None,1500,2188284,2188788,2188992
3,forth,33,lästig,IAT_green3.bmp,green,starting_melody,melody,starting,c,negative,positive,ES_purple,1,c,727,2192568,2193073,2193277
3,forth,34,sanft,IAT_yellow4.bmp,yellow,ending_melody,melody,ending,m,positive,negative,ES_purple,0,c,406,2195081,2195585,2195789
3,forth,35,falsch,IAT_green3.bmp,green,starting_melody,melody,starting,c,negative,positive,ES_purple,1,c,505,2197771,2198275,2198479
3,forth,36,sonnig,IAT_purple4.bmp,purple,ending_scream,scream,ending,m,positive,positive,ES_purple,1,m,342,2200060,2200564,2200768
3,forth,37,feige,IAT_purple2.bmp,purple,ending_scream,scream,ending,c,negative,positive,ES_purple,1,c,810,2202186,2202690,2202894
3,forth,38,krank,IAT_purple1.bmp,purple,ending_scream,scream,ending,c,negative,positive,ES_purple,1,c,682,2204780,2205284,2205488
3,forth,39,heiter,IAT_green1.bmp,green,starting_melody,melody,starting,m,positive,positive,ES_purple,1,m,497,2207245,2207750,2207954
3,forth,40,witzig,IAT_purple3.bmp,purple,ending_scream,scream,ending,m,positive,positive,ES_purple,0,c,366,2209527,2210031,2210235
3,forth,41,schön,IAT_red1.bmp,red,starting_scream,scream,starting,m,positive,negative,ES_purple,1,m,738,2212176,2212680,2212884
3,forth,42,morsch,IAT_yellow4.bmp,yellow,ending_melody,melody,ending,c,negative,negative,ES_purple,1,c,404,2214698,2215203,2215407
3,forth,43,streng,IAT_yellow2.bmp,yellow,ending_melody,melody,ending,c,negative,negative,ES_purple,1,c,361,2216887,2217392,2217596
3,forth,44,sanft,IAT_yellow3.bmp,yellow,ending_melody,melody,ending,m,positive,negative,ES_purple,0,c,350,2219031,2219536,2219740
3,forth,45,gierig,IAT_red1.bmp,red,starting_scream,scream,starting,c,negative,negative,ES_purple,1,c,584,2221666,2222170,2222374
3,forth,46,human,IAT_yellow4.bmp,yellow,ending_melody,melody,ending,m,positive,negative,ES_purple,1,m,506,2224034,2224538,2224742
3,forth,47,gerecht,IAT_red2.bmp,red,starting_scream,scream,starting,m,positive,negative,ES_purple,1,m,470,2226324,2226828,2227032
3,forth,48,geizig,IAT_red4.bmp,red,starting_scream,scream,starting,c,negative,negative,ES_purple,1,c,580,2228578,2229083,2229287
3,forth,49,einsam,IAT_green2.bmp,green,starting_melody,melody,starting,c,negative,positive,ES_purple,1,c,547,2230943,2231447,2231651
3,forth,50,munter,IAT_yellow3.bmp,yellow,ending_melody,melody,ending,m,positive,negative,ES_purple,1,m,617,2233273,2233777,2233981
3,forth,51,ehrlich,IAT_red1.bmp,red,starting_scream,scream,starting,m,positive,negative,ES_purple,0,c,466,2235674,2236178,2236382
3,forth,52,gesund,IAT_purple2.bmp,purple,ending_scream,scream,ending,m,positive,positive,ES_purple,0,None,1500,2238423,2238927,2239131
3,forth,53,kaputt,IAT_red2.bmp,red,starting_scream,scream,starting,c,negative,negative,ES_purple,1,c,533,2242708,2243212,2243416
3,forth,54,teuer,IAT_purple3.bmp,purple,ending_scream,scream,ending,c,negative,positive,ES_purple,1,c,421,2245025,2245529,2245733
3,forth,55,streng,IAT_red4.bmp,red,starting_scream,scream,starting,c,negative,negative,ES_purple,1,c,387,2247230,2247734,2247938
3,forth,56,lästig,IAT_yellow4.bmp,yellow,ending_melody,melody,ending,c,negative,negative,ES_purple,0,m,506,2249403,2249907,2250111
3,forth,57,heiter,IAT_green3.bmp,green,starting_melody,melody,starting,m,positive,positive,ES_purple,1,m,667,2252193,2252697,2252901
3,forth,58,morsch,IAT_red4.bmp,red,starting_scream,scream,starting,c,negative,negative,ES_purple,1,c,566,2254644,2255148,2255352
3,forth,59,sanft,IAT_purple1.bmp,purple,ending_scream,scream,ending,m,positive,positive,ES_purple,0,c,341,2256994,2257498,2257702
3,forth,60,sonnig,IAT_yellow2.bmp,yellow,ending_melody,melody,ending,m,positive,negative,ES_purple,0,c,332,2259620,2260124,2260328
3,forth,61,heiter,IAT_purple3.bmp,purple,ending_scream,scream,ending,m,positive,positive,ES_purple,1,m,518,2262235,2262740,2262944
3,forth,62,ehrlich,IAT_purple1.bmp,purple,ending_scream,scream,ending,m,positive,positive,ES_purple,1,m,450,2264538,2265043,2265247
3,forth,63,sozial,IAT_purple3.bmp,purple,ending_scream,scream,ending,m,positive,positive,ES_purple,1,m,329,2266772,2267277,2267481
3,forth,64,teuer,IAT_yellow3.bmp,yellow,ending_melody,melody,ending,c,negative,negative,ES_purple,0,m,311,2268886,2269390,2269594
3,forth,65,lustig,IAT_purple3.bmp,purple,ending_scream,scream,ending,m,positive,positive,ES_purple,1,m,406,2271481,2271985,2272189
3,forth,66,falsch,IAT_green4.bmp,green,starting_melody,melody,starting,c,negative,positive,ES_purple,0,m,435,2273671,2274175,2274379
3,forth,67,brutal,IAT_purple2.bmp,purple,ending_scream,scream,ending,c,negative,positive,ES_purple,0,m,362,2276390,2276895,2277099
3,forth,68,gesund,IAT_yellow3.bmp,yellow,ending_melody,melody,ending,m,positive,negative,ES_purple,1,m,658,2279038,2279542,2279746
3,forth,69,lästig,IAT_red3.bmp,red,starting_scream,scream,starting,c,negative,negative,ES_purple,1,c,519,2281480,2281984,2282188
3,forth,70,schön,IAT_purple2.bmp,purple,ending_scream,scream,ending,m,positive,positive,ES_purple,1,m,364,2283783,2284287,2284491
3,forth,71,teuer,IAT_red4.bmp,red,starting_scream,scream,starting,c,negative,negative,ES_purple,1,c,399,2285931,2286435,2286639
3,forth,72,einsam,IAT_green2.bmp,green,starting_melody,melody,starting,c,negative,positive,ES_purple,0,m,269,2288113,2288618,2288822
3,forth,73,falsch,IAT_purple1.bmp,purple,ending_scream,scream,ending,c,negative,positive,ES_purple,0,m,617,2290668,2291172,2291376
3,forth,74,gierig,IAT_yellow4.bmp,yellow,ending_melody,melody,ending,c,negative,negative,ES_purple,1,c,592,2293570,2294074,2294278
3,forth,75,einsam,IAT_purple4.bmp,purple,ending_scream,scream,ending,c,negative,positive,ES_purple,1,c,465,2295946,2296450,2296654
3,forth,76,krank,IAT_red2.bmp,red,starting_scream,scream,starting,c,negative,negative,ES_purple,1,c,462,2298195,2298699,2298903
3,forth,77,lustig,IAT_green1.bmp,green,starting_melody,melody,starting,m,positive,positive,ES_purple,1,m,564,2300440,2300945,2301149
3,forth,78,sonnig,IAT_green2.bmp,green,starting_melody,melody,starting,m,positive,positive,ES_purple,1,m,617,2302789,2303293,2303497
3,forth,79,witzig,IAT_yellow1.bmp,yellow,ending_melody,melody,ending,m,positive,negative,ES_purple,1,m,563,2305191,2305695,2305899
3,forth,80,gerecht,IAT_green1.bmp,green,starting_melody,melody,starting,m,positive,positive,ES_purple,1,m,512,2307538,2308042,2308246
3,forth,81,lästig,IAT_purple4.bmp,purple,ending_scream,scream,ending,c,negative,positive,ES_purple,0,m,411,2309833,2310338,2310542
3,forth,82,geizig,IAT_green1.bmp,green,starting_melody,melody,starting,c,negative,positive,ES_purple,1,c,741,2312530,2313034,2313238
3,forth,83,human,IAT_red1.bmp,red,starting_scream,scream,starting,m,positive,negative,ES_purple,1,m,503,2315055,2315560,2315764
3,forth,84,kaputt,IAT_green1.bmp,green,starting_melody,melody,starting,c,negative,positive,ES_purple,1,c,745,2317343,2317847,2318051
3,forth,85,sozial,IAT_green3.bmp,green,starting_melody,melody,starting,m,positive,positive,ES_purple,1,m,466,2319872,2320376,2320580
3,forth,86,gerecht,IAT_yellow2.bmp,yellow,ending_melody,melody,ending,m,positive,negative,ES_purple,1,m,560,2322122,2322626,2322830
3,forth,87,sonnig,IAT_red4.bmp,red,starting_scream,scream,starting,m,positive,negative,ES_purple,0,c,482,2324467,2324971,2325175
3,forth,88,lustig,IAT_purple4.bmp,purple,ending_scream,scream,ending,m,positive,positive,ES_purple,1,m,299,2327234,2327738,2327942
3,forth,89,gierig,IAT_green4.bmp,green,starting_melody,melody,starting,c,negative,positive,ES_purple,1,c,628,2329317,2329821,2330025
3,forth,90,schön,IAT_yellow3.bmp,yellow,ending_melody,melody,ending,m,positive,negative,ES_purple,0,c,473,2331730,2332234,2332438
3,forth,91,munter,IAT_purple1.bmp,purple,ending_scream,scream,ending,m,positive,positive,ES_purple,0,c,596,2334488,2334992,2335196
3,forth,92,feige,IAT_green2.bmp,green,starting_melody,melody,starting,c,negative,positive,ES_purple,0,m,669,2337368,2337873,2338077
3,forth,93,brutal,IAT_yellow2.bmp,yellow,ending_melody,melody,ending,c,negative,negative,ES_purple,1,c,727,2340322,2340826,2341030
3,forth,94,krank,IAT_red2.bmp,red,starting_scream,scream,starting,c,negative,negative,ES_purple,1,c,485,2342834,2343338,2343542
3,forth,95,ehrlich,IAT_purple1.bmp,purple,ending_scream,scream,ending,m,positive,positive,ES_purple,0,c,323,2345103,2345607,2345811
