subject_nr,block,trialnr,trial_target,trial_prime,prime_color,prime_role,prime_us,prime_relation,correct_response,target_valence,prime_valence,color_counter,correct_first_response,response_first_response,response_time_first_response,fixation_show,prime_show,target_show
17,first,0,lustig,IAT_yellow4.bmp,yellow,starting_melody,melody,starting,m,positive,positive,ES_green,1,m,837,1594307,1594811,1595015
17,first,1,munter,IAT_yellow1.bmp,yellow,starting_melody,melody,starting,m,positive,positive,ES_green,1,m,619,1596927,1597432,1597636
17,first,2,gierig,IAT_purple2.bmp,purple,starting_scream,scream,starting,c,negative,negative,ES_green,1,c,599,1599329,1599834,1600038
17,first,3,streng,IAT_purple1.bmp,purple,starting_scream,scream,starting,c,negative,negative,ES_green,1,c,783,1601710,1602214,1602418
17,first,4,ehrlich,IAT_red2.bmp,red,ending_melody,melody,ending,m,positive,negative,ES_green,1,m,609,1604275,1604779,1604983
17,first,5,teuer,IAT_green4.bmp,green,ending_scream,scream,ending,c,negative,positive,ES_green,1,c,581,1606665,1607169,1607373
17,first,6,einsam,IAT_red2.bmp,red,ending_melody,melody,ending,c,negative,negative,ES_green,1,c,718,1609028,1609532,1609736
17,first,7,krank,IAT_purple2.bmp,purple,starting_scream,scream,starting,c,negative,negative,ES_green,1,c,541,1611527,1612031,1612235
17,first,8,gesund,IAT_purple3.bmp,purple,starting_scream,scream,starting,m,positive,negative,ES_green,1,m,668,1613848,1614352,1614556
17,first,9,ehrlich,IAT_yellow3.bmp,yellow,starting_melody,melody,starting,m,positive,positive,ES_green,1,m,619,1616297,1616802,1617006
17,first,10,lustig,IAT_red3.bmp,red,ending_melody,melody,ending,m,positive,negative,ES_green,1,m,957,1618699,1619203,1619407
17,first,11,einsam,IAT_red4.bmp,red,ending_melody,melody,ending,c,negative,negative,ES_green,1,c,612,1621437,1621942,1622146
17,first,12,sonnig,IAT_red3.bmp,red,ending_melody,melody,ending,m,positive,negative,ES_green,1,m,671,1623834,1624338,1624542
17,first,13,brutal,IAT_yellow2.bmp,yellow,starting_melody,melody,starting,c,negative,positive,ES_green,1,c,555,1626286,1626791,1626995
17,first,14,gerecht,IAT_purple2.bmp,purple,starting_scream,scream,starting,m,positive,negative,ES_green,1,m,547,1628623,1629127,1629331
17,first,15,feige,IAT_yellow4.bmp,yellow,starting_melody,melody,starting,c,negative,positive,ES_green,1,c,578,1630951,1631455,1631659
17,first,16,krank,IAT_red3.bmp,red,ending_melody,melody,ending,c,negative,negative,ES_green,1,c,581,1633310,1633815,1634019
17,first,17,munter,IAT_red1.bmp,red,ending_melody,melody,ending,m,positive,negative,ES_green,1,m,559,1635674,1636178,1636382
17,first,18,sonnig,IAT_yellow3.bmp,yellow,starting_melody,melody,starting,m,positive,positive,ES_green,1,m,686,1638013,1638518,1638722
17,first,19,lästig,IAT_green3.bmp,green,ending_scream,scream,ending,c,negative,positive,ES_green,1,c,579,1640482,1640986,1641190
17,first,20,human,IAT_green1.bmp,green,ending_scream,scream,ending,m,positive,positive,ES_green,1,m,981,1642842,1643347,1643551
17,first,21,falsch,IAT_yellow3.bmp,yellow,starting_melody,melody,starting,c,negative,positive,ES_green,1,c,702,1645606,1646110,1646314
17,first,22,gierig,IAT_green3.bmp,green,ending_scream,scream,ending,c,negative,positive,ES_green,0,None,1500,1648090,1648594,1648798
17,first,23,kaputt,IAT_red1.bmp,red,ending_melody,melody,ending,c,negative,negative,ES_green,1,c,743,1651873,1652377,1652581
17,first,24,geizig,IAT_red2.bmp,red,ending_melody,melody,ending,c,negative,negative,ES_green,1,c,694,1654397,1654901,1655105
17,first,25,lästig,IAT_yellow3.bmp,yellow,starting_melody,melody,starting,c,negative,positive,ES_green,1,c,505,1656872,1657376,1657580
17,first,26,feige,IAT_yellow4.bmp,yellow,starting_melody,melody,starting,c,negative,positive,ES_green,1,c,602,1659158,1659663,1659867
17,first,27,sozial,IAT_green4.bmp,green,ending_scream,scream,ending,m,positive,positive,ES_green,1,m,697,1661543,1662047,1662251
17,first,28,kaputt,IAT_green1.bmp,green,ending_scream,scream,ending,c,negative,positive,ES_green,1,c,779,1664021,1664525,1664729
17,first,29,human,IAT_green3.bmp,green,ending_scream,scream,ending,m,positive,positive,ES_green,1,m,534,1666582,1667087,1667291
17,first,30,sanft,IAT_purple1.bmp,purple,starting_scream,scream,starting,m,positive,negative,ES_green,0,c,553,1668899,1669403,1669607
17,first,31,munter,IAT_purple4.bmp,purple,starting_scream,scream,starting,m,positive,negative,ES_green,1,m,971,1671733,1672238,1672442
17,first,32,sozial,IAT_purple1.bmp,purple,starting_scream,scream,starting,m,positive,negative,ES_green,0,c,684,1674487,1674991,1675195
17,first,33,geizig,IAT_red1.bmp,red,ending_melody,melody,ending,c,negative,negative,ES_green,1,c,1143,1677452,1677956,1678160
17,first,34,streng,IAT_yellow2.bmp,yellow,starting_melody,melody,starting,c,negative,positive,ES_green,1,c,803,1680376,1680881,1681085
17,first,35,teuer,IAT_purple4.bmp,purple,starting_scream,scream,starting,c,negative,negative,ES_green,0,m,1201,1682962,1683466,1683670
17,first,36,witzig,IAT_yellow2.bmp,yellow,starting_melody,melody,starting,m,positive,positive,ES_green,0,None,1500,1686444,1686948,1687152
17,first,37,ehrlich,IAT_yellow4.bmp,yellow,starting_melody,melody,starting,m,positive,positive,ES_green,1,m,963,1690225,1690729,1690933
17,first,38,gierig,IAT_green2.bmp,green,ending_scream,scream,ending,c,negative,positive,ES_green,1,c,627,1692969,1693474,1693678
17,first,39,heiter,IAT_yellow1.bmp,yellow,starting_melody,melody,starting,m,positive,positive,ES_green,1,m,735,1695378,1695883,1696087
17,first,40,sozial,IAT_green1.bmp,green,ending_scream,scream,ending,m,positive,positive,ES_green,1,m,1275,1697894,1698399,1698603
17,first,41,lästig,IAT_red4.bmp,red,ending_melody,melody,ending,c,negative,negative,ES_green,1,c,926,1700952,1701456,1701660
17,first,42,kaputt,IAT_purple1.bmp,purple,starting_scream,scream,starting,c,negative,negative,ES_green,1,c,1143,1703661,1704165,1704369
17,first,43,lustig,IAT_green2.bmp,green,ending_scream,scream,ending,m,positive,positive,ES_green,1,m,758,1706584,1707088,1707292
17,first,44,streng,IAT_red4.bmp,red,ending_melody,melody,ending,c,negative,negative,ES_green,1,c,1165,1709123,1709628,1709832
17,first,45,heiter,IAT_purple1.bmp,purple,starting_scream,scream,starting,m,positive,negative,ES_green,1,m,555,1712070,1712575,1712779
17,first,46,morsch,IAT_red2.bmp,red,ending_melody,melody,ending,c,negative,negative,ES_green,1,c,739,1714407,1714911,1715115
17,first,47,geizig,IAT_yellow4.bmp,yellow,starting_melody,melody,starting,c,negative,positive,ES_green,1,c,771,1716928,1717432,1717636
17,first,48,gesund,IAT_red1.bmp,red,ending_melody,melody,ending,m,positive,negative,ES_green,1,m,864,1719481,1719985,1720189
17,first,49,ehrlich,IAT_purple4.bmp,purple,starting_scream,scream,starting,m,positive,negative,ES_green,1,m,631,1722127,1722631,1722835
17,first,50,kaputt,IAT_purple3.bmp,purple,starting_scream,scream,starting,c,negative,negative,ES_green,1,c,572,1724539,1725044,1725248
17,first,51,schön,IAT_green1.bmp,green,ending_scream,scream,ending,m,positive,positive,ES_green,1,m,582,1726893,1727397,1727601
17,first,52,gerecht,IAT_red1.bmp,red,ending_melody,melody,ending,m,positive,negative,ES_green,1,m,842,1729258,1729763,1729967
17,first,53,witzig,IAT_green3.bmp,green,ending_scream,scream,ending,m,positive,positive,ES_green,1,m,744,1731883,1732387,1732591
17,first,54,schön,IAT_red2.bmp,red,ending_melody,melody,ending,m,positive,negative,ES_green,1,m,859,1734408,1734912,1735116
17,first,55,sanft,IAT_yellow3.bmp,yellow,starting_melody,melody,starting,m,positive,positive,ES_green,1,m,910,1737049,1737554,1737758
17,first,56,sozial,IAT_purple2.bmp,purple,starting_scream,scream,starting,m,positive,negative,ES_green,1,m,682,1739741,1740246,1740450
17,first,57,gerecht,IAT_green3.bmp,green,ending_scream,scream,ending,m,positive,positive,ES_green,1,m,637,1742205,1742710,1742914
17,first,58,brutal,IAT_green4.bmp,green,ending_scream,scream,ending,c,negative,positive,ES_green,1,c,573,1744625,1745129,1745333
17,first,59,sanft,IAT_yellow1.bmp,yellow,starting_melody,melody,starting,m,positive,positive,ES_green,1,m,614,1746979,1747484,1747688
17,first,60,gesund,IAT_purple3.bmp,purple,starting_scream,scream,starting,m,positive,negative,ES_green,1,m,705,1749376,1749880,1750084
17,first,61,witzig,IAT_red3.bmp,red,ending_melody,melody,ending,m,positive,negative,ES_green,1,m,647,1751864,1752368,1752572
17,first,62,morsch,IAT_purple2.bmp,purple,starting_scream,scream,starting,c,negative,negative,ES_green,1,c,1062,1754292,1754797,1755001
17,first,63,brutal,IAT_purple2.bmp,purple,starting_scream,scream,starting,c,negative,negative,ES_green,1,c,865,1757137,1757642,1757846
17,first,64,lustig,IAT_purple3.bmp,purple,starting_scream,scream,starting,m,positive,negative,ES_green,1,m,755,1759784,1760288,1760492
17,first,65,einsam,IAT_green2.bmp,green,ending_scream,scream,ending,c,negative,positive,ES_green,1,c,749,1762320,1762824,1763028
17,first,66,schön,IAT_red4.bmp,red,ending_melody,melody,ending,m,positive,negative,ES_green,1,m,515,1764852,1765356,1765560
17,first,67,streng,IAT_yellow1.bmp,yellow,starting_melody,melody,starting,c,negative,positive,ES_green,1,c,1013,1767149,1767653,1767857
17,first,68,heiter,IAT_green2.bmp,green,ending_scream,scream,ending,m,positive,positive,ES_green,1,m,650,1769943,1770448,1770652
17,first,69,gerecht,IAT_red1.bmp,red,ending_melody,melody,ending,m,positive,negative,ES_green,1,m,749,1772377,1772881,1773085
17,first,70,heiter,IAT_yellow3.bmp,yellow,starting_melody,melody,starting,m,positive,positive,ES_green,1,m,1301,1774908,1775412,1775616
17,first,71,krank,IAT_green2.bmp,green,ending_scream,scream,ending,c,negative,positive,ES_green,1,c,777,1777990,1778494,1778698
17,first,72,falsch,IAT_yellow2.bmp,yellow,starting_melody,melody,starting,c,negative,positive,ES_green,1,c,793,1780549,1781053,1781257
17,first,73,witzig,IAT_green1.bmp,green,ending_scream,scream,ending,m,positive,positive,ES_green,1,m,609,1783125,1783629,1783833
17,first,74,munter,IAT_green3.bmp,green,ending_scream,scream,ending,m,positive,positive,ES_green,1,m,1118,1785516,1786020,1786224
17,first,75,feige,IAT_green4.bmp,green,ending_scream,scream,ending,c,negative,positive,ES_green,1,c,618,1788416,1788920,1789124
17,first,76,einsam,IAT_red2.bmp,red,ending_melody,melody,ending,c,negative,negative,ES_green,1,c,594,1790817,1791321,1791525
17,first,77,gesund,IAT_red4.bmp,red,ending_melody,melody,ending,m,positive,negative,ES_green,1,m,556,1793192,1793696,1793900
17,first,78,sonnig,IAT_yellow1.bmp,yellow,starting_melody,melody,starting,m,positive,positive,ES_green,1,m,678,1795530,1796034,1796238
17,first,79,morsch,IAT_red4.bmp,red,ending_melody,melody,ending,c,negative,negative,ES_green,1,c,550,1797990,1798495,1798699
17,first,80,teuer,IAT_purple4.bmp,purple,starting_scream,scream,starting,c,negative,negative,ES_green,0,m,839,1800322,1800827,1801031
17,first,81,morsch,IAT_yellow4.bmp,yellow,starting_melody,melody,starting,c,negative,positive,ES_green,1,c,876,1803444,1803948,1804152
17,first,82,krank,IAT_purple4.bmp,purple,starting_scream,scream,starting,c,negative,negative,ES_green,1,c,1308,1806102,1806606,1806810
17,first,83,human,IAT_purple3.bmp,purple,starting_scream,scream,starting,m,positive,negative,ES_green,1,m,1119,1809192,1809696,1809900
17,first,84,falsch,IAT_red3.bmp,red,ending_melody,melody,ending,c,negative,negative,ES_green,1,c,1045,1812093,1812597,1812801
17,first,85,geizig,IAT_purple3.bmp,purple,starting_scream,scream,starting,c,negative,negative,ES_green,1,c,1297,1814919,1815423,1815627
17,first,86,falsch,IAT_green2.bmp,green,ending_scream,scream,ending,c,negative,positive,ES_green,1,c,578,1817998,1818502,1818706
17,first,87,gierig,IAT_green1.bmp,green,ending_scream,scream,ending,c,negative,positive,ES_green,1,c,1418,1820357,1820862,1821066
17,first,88,feige,IAT_yellow2.bmp,yellow,starting_melody,melody,starting,c,negative,positive,ES_green,1,c,985,1823559,1824063,1824267
17,first,89,sonnig,IAT_green4.bmp,green,ending_scream,scream,ending,m,positive,positive,ES_green,1,m,724,1826326,1826831,1827035
17,first,90,schön,IAT_yellow2.bmp,yellow,starting_melody,melody,starting,m,positive,positive,ES_green,1,m,721,1828833,1829337,1829541
17,first,91,sanft,IAT_red3.bmp,red,ending_melody,melody,ending,m,positive,negative,ES_green,0,c,973,1831337,1831841,1832045
17,first,92,lästig,IAT_yellow1.bmp,yellow,starting_melody,melody,starting,c,negative,positive,ES_green,1,c,909,1834592,1835097,1835301
17,first,93,brutal,IAT_purple4.bmp,purple,starting_scream,scream,starting,c,negative,negative,ES_green,1,c,794,1837283,1837788,1837992
17,first,94,human,IAT_purple1.bmp,purple,starting_scream,scream,starting,m,positive,negative,ES_green,1,m,1135,1839861,1840365,1840569
17,first,95,teuer,IAT_green4.bmp,green,ending_scream,scream,ending,c,negative,positive,ES_green,1,c,861,1842779,1843283,1843487
17,second,0,munter,IAT_red4.bmp,red,ending_melody,melody,ending,m,positive,negative,ES_green,1,m,759,1851931,1852435,1852639
17,second,1,sonnig,IAT_green3.bmp,green,ending_scream,scream,ending,m,positive,positive,ES_green,1,m,613,1854472,1854977,1855181
17,second,2,gesund,IAT_green1.bmp,green,ending_scream,scream,ending,m,positive,positive,ES_green,1,m,516,1856868,1857372,1857576
17,second,3,lustig,IAT_purple3.bmp,purple,starting_scream,scream,starting,m,positive,negative,ES_green,1,m,615,1859164,1859668,1859872
17,second,4,krank,IAT_green4.bmp,green,ending_scream,scream,ending,c,negative,positive,ES_green,1,c,631,1861561,1862065,1862269
17,second,5,falsch,IAT_purple4.bmp,purple,starting_scream,scream,starting,c,negative,negative,ES_green,1,c,515,1863973,1864478,1864682
17,second,6,brutal,IAT_red4.bmp,red,ending_melody,melody,ending,c,negative,negative,ES_green,1,c,553,1866271,1866775,1866979
17,second,7,sozial,IAT_yellow1.bmp,yellow,starting_melody,melody,starting,m,positive,positive,ES_green,1,m,700,1868607,1869111,1869315
17,second,8,feige,IAT_red4.bmp,red,ending_melody,melody,ending,c,negative,negative,ES_green,1,c,617,1871089,1871593,1871797
17,second,9,lustig,IAT_red2.bmp,red,ending_melody,melody,ending,m,positive,negative,ES_green,1,m,630,1873488,1873992,1874196
17,second,10,kaputt,IAT_yellow4.bmp,yellow,starting_melody,melody,starting,c,negative,positive,ES_green,1,c,575,1875899,1876403,1876607
17,second,11,feige,IAT_green1.bmp,green,ending_scream,scream,ending,c,negative,positive,ES_green,1,c,523,1878256,1878760,1878964
17,second,12,kaputt,IAT_red3.bmp,red,ending_melody,melody,ending,c,negative,negative,ES_green,1,c,558,1880561,1881065,1881269
17,second,13,brutal,IAT_green1.bmp,green,ending_scream,scream,ending,c,negative,positive,ES_green,1,c,545,1882899,1883403,1883607
17,second,14,witzig,IAT_red4.bmp,red,ending_melody,melody,ending,m,positive,negative,ES_green,1,m,1253,1885226,1885730,1885934
17,second,15,sonnig,IAT_purple2.bmp,purple,starting_scream,scream,starting,m,positive,negative,ES_green,1,m,1020,1888261,1888766,1888970
17,second,16,krank,IAT_yellow1.bmp,yellow,starting_melody,melody,starting,c,negative,positive,ES_green,1,c,650,1891064,1891568,1891772
17,second,17,morsch,IAT_yellow2.bmp,yellow,starting_melody,melody,starting,c,negative,positive,ES_green,1,c,628,1893495,1893999,1894203
17,second,18,falsch,IAT_purple2.bmp,purple,starting_scream,scream,starting,c,negative,negative,ES_green,1,c,575,1895904,1896411,1896619
17,second,19,sanft,IAT_purple2.bmp,purple,starting_scream,scream,starting,m,positive,negative,ES_green,1,m,1010,1898268,1898772,1898976
17,second,20,gesund,IAT_yellow2.bmp,yellow,starting_melody,melody,starting,m,positive,positive,ES_green,0,c,1342,1901060,1901564,1901768
17,second,21,brutal,IAT_red4.bmp,red,ending_melody,melody,ending,c,negative,negative,ES_green,1,c,784,1904686,1905190,1905394
17,second,22,ehrlich,IAT_green1.bmp,green,ending_scream,scream,ending,m,positive,positive,ES_green,1,m,927,1907251,1907755,1907959
17,second,23,human,IAT_green2.bmp,green,ending_scream,scream,ending,m,positive,positive,ES_green,1,m,677,1909958,1910462,1910666
17,second,24,gesund,IAT_red3.bmp,red,ending_melody,melody,ending,m,positive,negative,ES_green,1,m,900,1912417,1912922,1913126
17,second,25,morsch,IAT_green2.bmp,green,ending_scream,scream,ending,c,negative,positive,ES_green,1,c,971,1915099,1915603,1915807
17,second,26,krank,IAT_purple1.bmp,purple,starting_scream,scream,starting,c,negative,negative,ES_green,1,c,853,1917852,1918356,1918560
17,second,27,kaputt,IAT_green2.bmp,green,ending_scream,scream,ending,c,negative,positive,ES_green,0,m,868,1920485,1920990,1921194
17,second,28,lästig,IAT_purple4.bmp,purple,starting_scream,scream,starting,c,negative,negative,ES_green,1,c,1213,1923636,1924140,1924344
17,second,29,falsch,IAT_yellow2.bmp,yellow,starting_melody,melody,starting,c,negative,positive,ES_green,1,c,784,1926631,1927136,1927341
17,second,30,schön,IAT_green4.bmp,green,ending_scream,scream,ending,m,positive,positive,ES_green,1,m,821,1929199,1929703,1929907
17,second,31,witzig,IAT_green2.bmp,green,ending_scream,scream,ending,m,positive,positive,ES_green,1,m,631,1931802,1932306,1932510
17,second,32,sanft,IAT_yellow1.bmp,yellow,starting_melody,melody,starting,m,positive,positive,ES_green,1,m,1087,1934214,1934718,1934922
17,second,33,teuer,IAT_red2.bmp,red,ending_melody,melody,ending,c,negative,negative,ES_green,1,c,1121,1937083,1937587,1937791
17,second,34,gerecht,IAT_green1.bmp,green,ending_scream,scream,ending,m,positive,positive,ES_green,1,m,1294,1939985,1940490,1940694
17,second,35,streng,IAT_red2.bmp,red,ending_melody,melody,ending,c,negative,negative,ES_green,1,c,989,1943061,1943565,1943769
17,second,36,einsam,IAT_purple4.bmp,purple,starting_scream,scream,starting,c,negative,negative,ES_green,1,c,1061,1945832,1946336,1946540
17,second,37,witzig,IAT_yellow4.bmp,yellow,starting_melody,melody,starting,m,positive,positive,ES_green,1,m,707,1948675,1949179,1949383
17,second,38,lustig,IAT_purple4.bmp,purple,starting_scream,scream,starting,m,positive,negative,ES_green,1,m,795,1951163,1951667,1951871
17,second,39,schön,IAT_yellow1.bmp,yellow,starting_melody,melody,starting,m,positive,positive,ES_green,1,m,537,1953740,1954244,1954448
17,second,40,streng,IAT_yellow2.bmp,yellow,starting_melody,melody,starting,c,negative,positive,ES_green,1,c,1067,1956059,1956563,1956767
17,second,41,witzig,IAT_red1.bmp,red,ending_melody,melody,ending,m,positive,negative,ES_green,1,m,1104,1958908,1959412,1959616
17,second,42,human,IAT_purple3.bmp,purple,starting_scream,scream,starting,m,positive,negative,ES_green,0,None,1500,1961794,1962299,1962503
17,second,43,heiter,IAT_red2.bmp,red,ending_melody,melody,ending,m,positive,negative,ES_green,0,c,883,1965577,1966081,1966285
17,second,44,sozial,IAT_red3.bmp,red,ending_melody,melody,ending,m,positive,negative,ES_green,1,m,742,1968742,1969247,1969451
17,second,45,einsam,IAT_purple3.bmp,purple,starting_scream,scream,starting,c,negative,negative,ES_green,1,c,685,1971267,1971771,1971975
17,second,46,lustig,IAT_purple1.bmp,purple,starting_scream,scream,starting,m,positive,negative,ES_green,1,m,952,1973734,1974238,1974442
17,second,47,streng,IAT_red2.bmp,red,ending_melody,melody,ending,c,negative,negative,ES_green,1,c,770,1976468,1976972,1977176
17,second,48,sonnig,IAT_red1.bmp,red,ending_melody,melody,ending,m,positive,negative,ES_green,1,m,675,1979021,1979525,1979729
17,second,49,gerecht,IAT_purple3.bmp,purple,starting_scream,scream,starting,m,positive,negative,ES_green,1,m,1160,1981477,1981982,1982186
17,second,50,morsch,IAT_yellow3.bmp,yellow,starting_melody,melody,starting,c,negative,positive,ES_green,1,c,955,1984419,1984924,1985128
17,second,51,sozial,IAT_yellow3.bmp,yellow,starting_melody,melody,starting,m,positive,positive,ES_green,1,m,620,1987158,1987662,1987866
17,second,52,gierig,IAT_yellow3.bmp,yellow,starting_melody,melody,starting,c,negative,positive,ES_green,1,c,646,1989560,1990064,1990268
17,second,53,teuer,IAT_red1.bmp,red,ending_melody,melody,ending,c,negative,negative,ES_green,0,m,609,1991988,1992492,1992696
17,second,54,munter,IAT_red3.bmp,red,ending_melody,melody,ending,m,positive,negative,ES_green,0,None,1500,1994879,1995383,1995587
17,second,55,geizig,IAT_purple2.bmp,purple,starting_scream,scream,starting,c,negative,negative,ES_green,1,c,705,1998661,1999165,1999369
17,second,56,lästig,IAT_purple2.bmp,purple,starting_scream,scream,starting,c,negative,negative,ES_green,1,c,1223,2001148,2001652,2001856
17,second,57,human,IAT_yellow3.bmp,yellow,starting_melody,melody,starting,m,positive,positive,ES_green,1,m,809,2004153,2004658,2004862
17,second,58,gesund,IAT_purple3.bmp,purple,starting_scream,scream,starting,m,positive,negative,ES_green,1,m,1135,2006746,2007250,2007454
17,second,59,geizig,IAT_green3.bmp,green,ending_scream,scream,ending,c,negative,positive,ES_green,1,c,703,2009663,2010167,2010371
17,second,60,gerecht,IAT_yellow4.bmp,yellow,starting_melody,melody,starting,m,positive,positive,ES_green,1,m,869,2012148,2012652,2012856
17,second,61,schön,IAT_red1.bmp,red,ending_melody,melody,ending,m,positive,negative,ES_green,1,m,778,2014800,2015304,2015508
17,second,62,einsam,IAT_green3.bmp,green,ending_scream,scream,ending,c,negative,positive,ES_green,1,c,736,2017359,2017864,2018068
17,second,63,heiter,IAT_yellow3.bmp,yellow,starting_melody,melody,starting,m,positive,positive,ES_green,1,m,878,2019877,2020382,2020586
17,second,64,streng,IAT_yellow4.bmp,yellow,starting_melody,melody,starting,c,negative,positive,ES_green,0,None,1500,2022538,2023042,2023246
17,second,65,teuer,IAT_green4.bmp,green,ending_scream,scream,ending,c,negative,positive,ES_green,0,m,724,2026319,2026823,2027027
17,second,66,brutal,IAT_green4.bmp,green,ending_scream,scream,ending,c,negative,positive,ES_green,1,c,774,2029324,2029828,2030032
17,second,67,ehrlich,IAT_yellow3.bmp,yellow,starting_melody,melody,starting,m,positive,positive,ES_green,1,m,1061,2031880,2032384,2032588
17,second,68,sozial,IAT_green1.bmp,green,ending_scream,scream,ending,m,positive,positive,ES_green,1,m,1081,2034723,2035227,2035431
17,second,69,heiter,IAT_purple4.bmp,purple,starting_scream,scream,starting,m,positive,negative,ES_green,0,None,1500,2037585,2038089,2038293
17,second,70,gierig,IAT_yellow1.bmp,yellow,starting_melody,melody,starting,c,negative,positive,ES_green,1,c,814,2041368,2041872,2042076
17,second,71,geizig,IAT_red1.bmp,red,ending_melody,melody,ending,c,negative,negative,ES_green,1,c,958,2043964,2044469,2044673
17,second,72,ehrlich,IAT_green3.bmp,green,ending_scream,scream,ending,m,positive,positive,ES_green,1,m,555,2046706,2047210,2047414
17,second,73,kaputt,IAT_green2.bmp,green,ending_scream,scream,ending,c,negative,positive,ES_green,1,c,669,2049044,2049549,2049753
17,second,74,teuer,IAT_yellow4.bmp,yellow,starting_melody,melody,starting,c,negative,positive,ES_green,1,c,913,2051496,2052000,2052204
17,second,75,lästig,IAT_green2.bmp,green,ending_scream,scream,ending,c,negative,positive,ES_green,1,c,992,2054190,2054695,2054899
17,second,76,feige,IAT_purple1.bmp,purple,starting_scream,scream,starting,c,negative,negative,ES_green,1,c,705,2056965,2057469,2057673
17,second,77,schön,IAT_red3.bmp,red,ending_melody,melody,ending,m,positive,negative,ES_green,1,m,924,2059453,2059957,2060161
17,second,78,gierig,IAT_yellow4.bmp,yellow,starting_melody,melody,starting,c,negative,positive,ES_green,1,c,805,2062159,2062663,2062867
17,second,79,sonnig,IAT_green3.bmp,green,ending_scream,scream,ending,m,positive,positive,ES_green,1,m,673,2064746,2065250,2065454
17,second,80,human,IAT_green4.bmp,green,ending_scream,scream,ending,m,positive,positive,ES_green,1,m,701,2067200,2067704,2067908
17,second,81,feige,IAT_red2.bmp,red,ending_melody,melody,ending,c,negative,negative,ES_green,1,c,545,2069682,2070187,2070391
17,second,82,gierig,IAT_yellow2.bmp,yellow,starting_melody,melody,starting,c,negative,positive,ES_green,1,c,551,2072011,2072515,2072719
17,second,83,geizig,IAT_purple4.bmp,purple,starting_scream,scream,starting,c,negative,negative,ES_green,1,c,909,2074344,2074848,2075052
17,second,84,morsch,IAT_purple3.bmp,purple,starting_scream,scream,starting,c,negative,negative,ES_green,1,c,690,2077035,2077540,2077744
17,second,85,einsam,IAT_red3.bmp,red,ending_melody,melody,ending,c,negative,negative,ES_green,1,c,703,2079508,2080012,2080216
17,second,86,munter,IAT_purple1.bmp,purple,starting_scream,scream,starting,m,positive,negative,ES_green,1,m,610,2081993,2082497,2082701
17,second,87,sanft,IAT_yellow2.bmp,yellow,starting_melody,melody,starting,m,positive,positive,ES_green,1,m,667,2084386,2084890,2085094
17,second,88,krank,IAT_purple2.bmp,purple,starting_scream,scream,starting,c,negative,negative,ES_green,1,c,575,2086836,2087340,2087544
17,second,89,lästig,IAT_green4.bmp,green,ending_scream,scream,ending,c,negative,positive,ES_green,0,None,1500,2089193,2089697,2089901
17,second,90,falsch,IAT_red4.bmp,red,ending_melody,melody,ending,c,negative,negative,ES_green,1,c,809,2092975,2093479,2093683
17,second,91,munter,IAT_green3.bmp,green,ending_scream,scream,ending,m,positive,positive,ES_green,1,m,652,2095567,2096071,2096275
17,second,92,ehrlich,IAT_purple1.bmp,purple,starting_scream,scream,starting,m,positive,negative,ES_green,1,m,1363,2098002,2098506,2098710
17,second,93,sanft,IAT_yellow1.bmp,yellow,starting_melody,melody,starting,m,positive,positive,ES_green,0,c,534,2101148,2101652,2101856
17,second,94,heiter,IAT_red1.bmp,red,ending_melody,melody,ending,m,positive,negative,ES_green,0,None,1500,2103964,2104469,2104673
17,second,95,gerecht,IAT_purple1.bmp,purple,starting_scream,scream,starting,m,positive,negative,ES_green,1,m,41,2107747,2108252,2108456
17,third,0,gierig,IAT_green3.bmp,green,ending_scream,scream,ending,c,negative,positive,ES_green,1,c,1356,2119778,2120282,2120486
17,third,1,lustig,IAT_red3.bmp,red,ending_melody,melody,ending,m,positive,negative,ES_green,1,m,621,2122919,2123423,2123627
17,third,2,heiter,IAT_purple3.bmp,purple,starting_scream,scream,starting,m,positive,negative,ES_green,1,m,824,2125322,2125827,2126031
17,third,3,brutal,IAT_purple2.bmp,purple,starting_scream,scream,starting,c,negative,negative,ES_green,1,c,566,2127930,2128434,2128638
17,third,4,lästig,IAT_red4.bmp,red,ending_melody,melody,ending,c,negative,negative,ES_green,1,c,604,2130279,2130783,2130987
17,third,5,sonnig,IAT_red4.bmp,red,ending_melody,melody,ending,m,positive,negative,ES_green,1,m,472,2132667,2133171,2133375
17,third,6,falsch,IAT_green1.bmp,green,ending_scream,scream,ending,c,negative,positive,ES_green,1,c,580,2134921,2135426,2135630
17,third,7,sanft,IAT_yellow1.bmp,yellow,starting_melody,melody,starting,m,positive,positive,ES_green,1,m,778,2137285,2137790,2137994
17,third,8,morsch,IAT_yellow2.bmp,yellow,starting_melody,melody,starting,c,negative,positive,ES_green,1,c,801,2139848,2140352,2140556
17,third,9,munter,IAT_yellow1.bmp,yellow,starting_melody,melody,starting,m,positive,positive,ES_green,1,m,981,2142432,2142936,2143140
17,third,10,sozial,IAT_green3.bmp,green,ending_scream,scream,ending,m,positive,positive,ES_green,0,c,714,2145196,2145701,2145905
17,third,11,teuer,IAT_yellow1.bmp,yellow,starting_melody,melody,starting,c,negative,positive,ES_green,1,c,1112,2148196,2148701,2148905
17,third,12,geizig,IAT_red4.bmp,red,ending_melody,melody,ending,c,negative,negative,ES_green,0,None,1500,2151092,2151597,2151801
17,third,13,morsch,IAT_green3.bmp,green,ending_scream,scream,ending,c,negative,positive,ES_green,1,c,660,2154877,2155381,2155585
17,third,14,heiter,IAT_purple4.bmp,purple,starting_scream,scream,starting,m,positive,negative,ES_green,1,m,713,2157320,2157824,2158028
17,third,15,gierig,IAT_yellow4.bmp,yellow,starting_melody,melody,starting,c,negative,positive,ES_green,1,c,889,2159817,2160321,2160525
17,third,16,sonnig,IAT_green4.bmp,green,ending_scream,scream,ending,m,positive,positive,ES_green,1,m,608,2162489,2162993,2163197
17,third,17,gerecht,IAT_yellow3.bmp,yellow,starting_melody,melody,starting,m,positive,positive,ES_green,1,m,825,2164880,2165384,2165588
17,third,18,lustig,IAT_green1.bmp,green,ending_scream,scream,ending,m,positive,positive,ES_green,0,c,1245,2167488,2167992,2168196
17,third,19,einsam,IAT_purple1.bmp,purple,starting_scream,scream,starting,c,negative,negative,ES_green,1,c,758,2171018,2171522,2171726
17,third,20,gerecht,IAT_purple1.bmp,purple,starting_scream,scream,starting,m,positive,negative,ES_green,1,m,646,2173560,2174064,2174268
17,third,21,sanft,IAT_yellow1.bmp,yellow,starting_melody,melody,starting,m,positive,positive,ES_green,0,c,568,2175990,2176495,2176699
17,third,22,gierig,IAT_green2.bmp,green,ending_scream,scream,ending,c,negative,positive,ES_green,0,None,1500,2178842,2179346,2179550
17,third,23,sozial,IAT_purple3.bmp,purple,starting_scream,scream,starting,m,positive,negative,ES_green,1,m,1178,2182625,2183130,2183334
17,third,24,krank,IAT_yellow4.bmp,yellow,starting_melody,melody,starting,c,negative,positive,ES_green,0,None,1500,2185588,2186092,2186296
17,third,25,einsam,IAT_purple4.bmp,purple,starting_scream,scream,starting,c,negative,negative,ES_green,1,c,715,2189372,2189876,2190080
17,third,26,gesund,IAT_red1.bmp,red,ending_melody,melody,ending,m,positive,negative,ES_green,1,m,603,2191870,2192375,2192579
17,third,27,heiter,IAT_yellow4.bmp,yellow,starting_melody,melody,starting,m,positive,positive,ES_green,1,m,866,2194258,2194762,2194966
17,third,28,witzig,IAT_green3.bmp,green,ending_scream,scream,ending,m,positive,positive,ES_green,1,m,583,2196908,2197412,2197616
17,third,29,schön,IAT_yellow3.bmp,yellow,starting_melody,melody,starting,m,positive,positive,ES_green,1,m,545,2199275,2199779,2199983
17,third,30,ehrlich,IAT_yellow4.bmp,yellow,starting_melody,melody,starting,m,positive,positive,ES_green,1,m,737,2201605,2202110,2202314
17,third,31,brutal,IAT_yellow3.bmp,yellow,starting_melody,melody,starting,c,negative,positive,ES_green,1,c,1174,2204128,2204632,2204836
17,third,32,munter,IAT_green1.bmp,green,ending_scream,scream,ending,m,positive,positive,ES_green,1,m,900,2207085,2207589,2207793
17,third,33,sonnig,IAT_green1.bmp,green,ending_scream,scream,ending,m,positive,positive,ES_green,1,m,1276,2209768,2210272,2210476
17,third,34,human,IAT_green1.bmp,green,ending_scream,scream,ending,m,positive,positive,ES_green,1,m,1072,2212827,2213332,2213536
17,third,35,falsch,IAT_red2.bmp,red,ending_melody,melody,ending,c,negative,negative,ES_green,1,c,1002,2215683,2216188,2216392
17,third,36,geizig,IAT_green1.bmp,green,ending_scream,scream,ending,c,negative,positive,ES_green,1,c,613,2218469,2218974,2219178
17,third,37,sonnig,IAT_yellow3.bmp,yellow,starting_melody,melody,starting,m,positive,positive,ES_green,1,m,683,2220867,2221371,2221575
17,third,38,morsch,IAT_red4.bmp,red,ending_melody,melody,ending,c,negative,negative,ES_green,1,c,920,2223334,2223838,2224042
17,third,39,lästig,IAT_yellow2.bmp,yellow,starting_melody,melody,starting,c,negative,positive,ES_green,1,c,765,2226039,2226543,2226747
17,third,40,schön,IAT_red3.bmp,red,ending_melody,melody,ending,m,positive,negative,ES_green,0,c,672,2228589,2229093,2229297
17,third,41,gesund,IAT_yellow2.bmp,yellow,starting_melody,melody,starting,m,positive,positive,ES_green,1,m,940,2231545,2232049,2232253
17,third,42,streng,IAT_yellow2.bmp,yellow,starting_melody,melody,starting,c,negative,positive,ES_green,1,c,1070,2234269,2234773,2234977
17,third,43,falsch,IAT_red2.bmp,red,ending_melody,melody,ending,c,negative,negative,ES_green,1,c,798,2237122,2237627,2237831
17,third,44,lästig,IAT_red3.bmp,red,ending_melody,melody,ending,c,negative,negative,ES_green,1,c,1188,2239706,2240210,2240414
17,third,45,streng,IAT_yellow1.bmp,yellow,starting_melody,melody,starting,c,negative,positive,ES_green,1,c,707,2242678,2243182,2243386
17,third,46,schön,IAT_red3.bmp,red,ending_melody,melody,ending,m,positive,negative,ES_green,1,m,678,2245169,2245673,2245877
17,third,47,kaputt,IAT_green2.bmp,green,ending_scream,scream,ending,c,negative,positive,ES_green,1,c,664,2247631,2248135,2248339
17,third,48,heiter,IAT_yellow2.bmp,yellow,starting_melody,melody,starting,m,positive,positive,ES_green,0,c,821,2250080,2250584,2250788
17,third,49,krank,IAT_red2.bmp,red,ending_melody,melody,ending,c,negative,negative,ES_green,0,m,74,2253186,2253690,2253894
17,third,50,morsch,IAT_purple2.bmp,purple,starting_scream,scream,starting,c,negative,negative,ES_green,1,c,639,2255544,2256048,2256252
17,third,51,sozial,IAT_red1.bmp,red,ending_melody,melody,ending,m,positive,negative,ES_green,0,None,1500,2257968,2258472,2258676
17,third,52,falsch,IAT_purple4.bmp,purple,starting_scream,scream,starting,c,negative,negative,ES_green,1,c,1349,2261751,2262255,2262459
17,third,53,feige,IAT_yellow4.bmp,yellow,starting_melody,melody,starting,c,negative,positive,ES_green,1,c,599,2264883,2265388,2265592
17,third,54,ehrlich,IAT_purple3.bmp,purple,starting_scream,scream,starting,m,positive,negative,ES_green,1,m,566,2267268,2267772,2267976
17,third,55,sanft,IAT_green3.bmp,green,ending_scream,scream,ending,m,positive,positive,ES_green,1,m,884,2269618,2270123,2270327
17,third,56,human,IAT_green3.bmp,green,ending_scream,scream,ending,m,positive,positive,ES_green,1,m,744,2272287,2272791,2272995
17,third,57,lustig,IAT_green2.bmp,green,ending_scream,scream,ending,m,positive,positive,ES_green,0,c,724,2274815,2275319,2275523
17,third,58,ehrlich,IAT_red1.bmp,red,ending_melody,melody,ending,m,positive,negative,ES_green,1,m,1074,2277823,2278328,2278532
17,third,59,witzig,IAT_red2.bmp,red,ending_melody,melody,ending,m,positive,negative,ES_green,1,m,849,2280682,2281186,2281390
17,third,60,streng,IAT_purple4.bmp,purple,starting_scream,scream,starting,c,negative,negative,ES_green,0,m,594,2283314,2283818,2284022
17,third,61,teuer,IAT_red4.bmp,red,ending_melody,melody,ending,c,negative,negative,ES_green,0,m,884,2286192,2286697,2286901
17,third,62,human,IAT_yellow1.bmp,yellow,starting_melody,melody,starting,m,positive,positive,ES_green,1,m,1004,2289361,2289866,2290071
17,third,63,einsam,IAT_purple1.bmp,purple,starting_scream,scream,starting,c,negative,negative,ES_green,0,None,1500,2292152,2292656,2292860
17,third,64,gerecht,IAT_yellow3.bmp,yellow,starting_melody,melody,starting,m,positive,positive,ES_green,1,m,989,2295936,2296440,2296644
17,third,65,geizig,IAT_purple3.bmp,purple,starting_scream,scream,starting,c,negative,negative,ES_green,1,c,987,2298709,2299213,2299417
17,third,66,lästig,IAT_green2.bmp,green,ending_scream,scream,ending,c,negative,positive,ES_green,1,c,775,2301480,2301984,2302188
17,third,67,geizig,IAT_green2.bmp,green,ending_scream,scream,ending,c,negative,positive,ES_green,1,c,690,2304039,2304544,2304748
17,third,68,feige,IAT_red1.bmp,red,ending_melody,melody,ending,c,negative,negative,ES_green,1,c,742,2306514,2307019,2307223
17,third,69,streng,IAT_purple4.bmp,purple,starting_scream,scream,starting,c,negative,negative,ES_green,1,c,970,2309041,2309546,2309750
17,third,70,kaputt,IAT_green4.bmp,green,ending_scream,scream,ending,c,negative,positive,ES_green,1,c,739,2311796,2312300,2312504
17,third,71,teuer,IAT_purple2.bmp,purple,starting_scream,scream,starting,c,negative,negative,ES_green,1,c,604,2314319,2314824,2315028
17,third,72,kaputt,IAT_yellow3.bmp,yellow,starting_melody,melody,starting,c,negative,positive,ES_green,1,c,742,2316709,2317213,2317417
17,third,73,krank,IAT_purple2.bmp,purple,starting_scream,scream,starting,c,negative,negative,ES_green,1,c,661,2319236,2319740,2319944
17,third,74,feige,IAT_green4.bmp,green,ending_scream,scream,ending,c,negative,positive,ES_green,1,c,556,2321680,2322184,2322388
17,third,75,munter,IAT_purple2.bmp,purple,starting_scream,scream,starting,m,positive,negative,ES_green,1,m,1489,2324020,2324524,2324728
17,third,76,gerecht,IAT_purple1.bmp,purple,starting_scream,scream,starting,m,positive,negative,ES_green,1,m,934,2327294,2327798,2328002
17,third,77,gierig,IAT_purple3.bmp,purple,starting_scream,scream,starting,c,negative,negative,ES_green,0,m,746,2330012,2330516,2330720
17,third,78,feige,IAT_yellow4.bmp,yellow,starting_melody,melody,starting,c,negative,positive,ES_green,0,None,1500,2333042,2333546,2333750
17,third,79,schön,IAT_green2.bmp,green,ending_scream,scream,ending,m,positive,positive,ES_green,1,m,620,2336825,2337329,2337533
17,third,80,brutal,IAT_red2.bmp,red,ending_melody,melody,ending,c,negative,negative,ES_green,1,c,845,2339230,2339734,2339938
17,third,81,teuer,IAT_green4.bmp,green,ending_scream,scream,ending,c,negative,positive,ES_green,1,c,1248,2341859,2342364,2342568
17,third,82,ehrlich,IAT_red3.bmp,red,ending_melody,melody,ending,m,positive,negative,ES_green,1,m,650,2344891,2345396,2345600
17,third,83,krank,IAT_green4.bmp,green,ending_scream,scream,ending,c,negative,positive,ES_green,1,c,1266,2347327,2347831,2348035
17,third,84,human,IAT_purple3.bmp,purple,starting_scream,scream,starting,m,positive,negative,ES_green,1,m,1006,2350377,2350882,2351086
17,third,85,sozial,IAT_purple1.bmp,purple,starting_scream,scream,starting,m,positive,negative,ES_green,1,m,1403,2353169,2353673,2353877
17,third,86,witzig,IAT_purple4.bmp,purple,starting_scream,scream,starting,m,positive,negative,ES_green,0,c,1383,2356356,2356860,2357064
17,third,87,munter,IAT_purple2.bmp,purple,starting_scream,scream,starting,m,positive,negative,ES_green,1,m,1007,2360024,2360528,2360732
17,third,88,kaputt,IAT_red1.bmp,red,ending_melody,melody,ending,c,negative,negative,ES_green,1,c,1250,2362815,2363320,2363524
17,third,89,brutal,IAT_red3.bmp,red,ending_melody,melody,ending,c,negative,negative,ES_green,1,c,876,2365851,2366355,2366559
17,third,90,lustig,IAT_red1.bmp,red,ending_melody,melody,ending,m,positive,negative,ES_green,0,c,742,2368511,2369015,2369219
17,third,91,einsam,IAT_yellow2.bmp,yellow,starting_melody,melody,starting,c,negative,positive,ES_green,1,c,1323,2371538,2372042,2372246
17,third,92,gesund,IAT_purple1.bmp,purple,starting_scream,scream,starting,m,positive,negative,ES_green,0,None,1500,2374646,2375150,2375354
17,third,93,sanft,IAT_green4.bmp,green,ending_scream,scream,ending,m,positive,positive,ES_green,1,m,896,2378429,2378933,2379137
17,third,94,witzig,IAT_red2.bmp,red,ending_melody,melody,ending,m,positive,negative,ES_green,0,c,984,2381110,2381614,2381818
17,third,95,gesund,IAT_red4.bmp,red,ending_melody,melody,ending,m,positive,negative,ES_green,1,m,888,2384379,2384883,2385087
17,forth,0,lästig,IAT_red2.bmp,red,ending_melody,melody,ending,c,negative,negative,ES_green,1,c,710,2409835,2410340,2410544
17,forth,1,lustig,IAT_yellow4.bmp,yellow,starting_melody,melody,starting,m,positive,positive,ES_green,1,m,536,2412331,2412835,2413039
17,forth,2,gerecht,IAT_yellow1.bmp,yellow,starting_melody,melody,starting,m,positive,positive,ES_green,1,m,653,2414651,2415155,2415359
17,forth,3,einsam,IAT_red4.bmp,red,ending_melody,melody,ending,c,negative,negative,ES_green,1,c,883,2417089,2417593,2417797
17,forth,4,teuer,IAT_green3.bmp,green,ending_scream,scream,ending,c,negative,positive,ES_green,1,c,1257,2419756,2420260,2420464
17,forth,5,geizig,IAT_yellow2.bmp,yellow,starting_melody,melody,starting,c,negative,positive,ES_green,1,c,814,2422797,2423301,2423505
17,forth,6,heiter,IAT_red3.bmp,red,ending_melody,melody,ending,m,positive,negative,ES_green,0,c,869,2425395,2425899,2426103
17,forth,7,schön,IAT_yellow1.bmp,yellow,starting_melody,melody,starting,m,positive,positive,ES_green,0,None,1500,2428549,2429054,2429258
17,forth,8,gierig,IAT_green1.bmp,green,ending_scream,scream,ending,c,negative,positive,ES_green,1,c,710,2432833,2433338,2433542
17,forth,9,sonnig,IAT_green3.bmp,green,ending_scream,scream,ending,m,positive,positive,ES_green,1,m,727,2435329,2435833,2436037
17,forth,10,gerecht,IAT_red1.bmp,red,ending_melody,melody,ending,m,positive,negative,ES_green,1,m,887,2437840,2438344,2438548
17,forth,11,lästig,IAT_red4.bmp,red,ending_melody,melody,ending,c,negative,negative,ES_green,1,c,990,2440511,2441015,2441219
17,forth,12,schön,IAT_green1.bmp,green,ending_scream,scream,ending,m,positive,positive,ES_green,0,c,781,2443284,2443789,2443993
17,forth,13,human,IAT_purple2.bmp,purple,starting_scream,scream,starting,m,positive,negative,ES_green,1,m,985,2446349,2446854,2447058
17,forth,14,sonnig,IAT_purple4.bmp,purple,starting_scream,scream,starting,m,positive,negative,ES_green,1,m,1160,2449119,2449623,2449827
17,forth,15,human,IAT_red1.bmp,red,ending_melody,melody,ending,m,positive,negative,ES_green,1,m,916,2452063,2452567,2452771
17,forth,16,witzig,IAT_red4.bmp,red,ending_melody,melody,ending,m,positive,negative,ES_green,1,m,1368,2454763,2455267,2455471
17,forth,17,streng,IAT_yellow2.bmp,yellow,starting_melody,melody,starting,c,negative,positive,ES_green,1,c,1184,2457916,2458420,2458624
17,forth,18,sanft,IAT_purple1.bmp,purple,starting_scream,scream,starting,m,positive,negative,ES_green,1,m,821,2460885,2461389,2461593
17,forth,19,geizig,IAT_yellow2.bmp,yellow,starting_melody,melody,starting,c,negative,positive,ES_green,1,c,887,2463490,2463994,2464198
17,forth,20,brutal,IAT_yellow4.bmp,yellow,starting_melody,melody,starting,c,negative,positive,ES_green,1,c,950,2466161,2466665,2466869
17,forth,21,morsch,IAT_purple1.bmp,purple,starting_scream,scream,starting,c,negative,negative,ES_green,1,c,883,2468896,2469401,2469605
17,forth,22,munter,IAT_red4.bmp,red,ending_melody,melody,ending,m,positive,negative,ES_green,1,m,978,2471565,2472070,2472274
17,forth,23,einsam,IAT_yellow3.bmp,yellow,starting_melody,melody,starting,c,negative,positive,ES_green,0,None,1500,2474329,2474833,2475037
17,forth,24,gerecht,IAT_green3.bmp,green,ending_scream,scream,ending,m,positive,positive,ES_green,1,m,1036,2478613,2479117,2479321
17,forth,25,krank,IAT_yellow1.bmp,yellow,starting_melody,melody,starting,c,negative,positive,ES_green,1,c,1375,2481435,2481939,2482143
17,forth,26,munter,IAT_yellow4.bmp,yellow,starting_melody,melody,starting,m,positive,positive,ES_green,1,m,1372,2484595,2485099,2485303
17,forth,27,lästig,IAT_red3.bmp,red,ending_melody,melody,ending,c,negative,negative,ES_green,1,c,1168,2487752,2488256,2488460
17,forth,28,gesund,IAT_green4.bmp,green,ending_scream,scream,ending,m,positive,positive,ES_green,1,m,666,2490705,2491209,2491413
17,forth,29,sonnig,IAT_red2.bmp,red,ending_melody,melody,ending,m,positive,negative,ES_green,1,m,734,2493155,2493659,2493863
17,forth,30,teuer,IAT_green4.bmp,green,ending_scream,scream,ending,c,negative,positive,ES_green,0,m,769,2495674,2496179,2496383
17,forth,31,sanft,IAT_yellow1.bmp,yellow,starting_melody,melody,starting,m,positive,positive,ES_green,1,m,1276,2498729,2499233,2499437
17,forth,32,kaputt,IAT_red4.bmp,red,ending_melody,melody,ending,c,negative,negative,ES_green,1,c,1465,2501789,2502293,2502497
17,forth,33,heiter,IAT_yellow3.bmp,yellow,starting_melody,melody,starting,m,positive,positive,ES_green,1,m,908,2505039,2505543,2505747
17,forth,34,schön,IAT_red1.bmp,red,ending_melody,melody,ending,m,positive,negative,ES_green,1,m,796,2507730,2508234,2508438
17,forth,35,lustig,IAT_green4.bmp,green,ending_scream,scream,ending,m,positive,positive,ES_green,1,m,816,2510309,2510814,2511018
17,forth,36,lästig,IAT_yellow4.bmp,yellow,starting_melody,melody,starting,c,negative,positive,ES_green,1,c,780,2512910,2513415,2513619
17,forth,37,gerecht,IAT_red3.bmp,red,ending_melody,melody,ending,m,positive,negative,ES_green,1,m,851,2515476,2515981,2516185
17,forth,38,sanft,IAT_green3.bmp,green,ending_scream,scream,ending,m,positive,positive,ES_green,1,m,679,2518112,2518617,2518821
17,forth,39,krank,IAT_purple3.bmp,purple,starting_scream,scream,starting,c,negative,negative,ES_green,1,c,951,2520576,2521081,2521285
17,forth,40,feige,IAT_purple4.bmp,purple,starting_scream,scream,starting,c,negative,negative,ES_green,1,c,1277,2523312,2523816,2524020
17,forth,41,ehrlich,IAT_green1.bmp,green,ending_scream,scream,ending,m,positive,positive,ES_green,1,m,850,2526373,2526877,2527081
17,forth,42,gesund,IAT_yellow3.bmp,yellow,starting_melody,melody,starting,m,positive,positive,ES_green,0,None,1500,2529008,2529512,2529716
17,forth,43,heiter,IAT_purple3.bmp,purple,starting_scream,scream,starting,m,positive,negative,ES_green,1,m,1149,2533291,2533795,2533999
17,forth,44,einsam,IAT_green2.bmp,green,ending_scream,scream,ending,c,negative,positive,ES_green,1,c,1103,2536224,2536729,2536933
17,forth,45,krank,IAT_red2.bmp,red,ending_melody,melody,ending,c,negative,negative,ES_green,1,c,1200,2539112,2539616,2539820
17,forth,46,munter,IAT_purple4.bmp,purple,starting_scream,scream,starting,m,positive,negative,ES_green,1,m,799,2542097,2542601,2542805
17,forth,47,ehrlich,IAT_yellow3.bmp,yellow,starting_melody,melody,starting,m,positive,positive,ES_green,1,m,651,2544680,2545184,2545388
17,forth,48,sozial,IAT_purple1.bmp,purple,starting_scream,scream,starting,m,positive,negative,ES_green,1,m,835,2547116,2547620,2547824
17,forth,49,munter,IAT_green3.bmp,green,ending_scream,scream,ending,m,positive,positive,ES_green,1,m,748,2549735,2550239,2550443
17,forth,50,kaputt,IAT_purple2.bmp,purple,starting_scream,scream,starting,c,negative,negative,ES_green,0,m,567,2552268,2552772,2552976
17,forth,51,witzig,IAT_purple1.bmp,purple,starting_scream,scream,starting,m,positive,negative,ES_green,0,None,1500,2555120,2555624,2555828
17,forth,52,morsch,IAT_purple4.bmp,purple,starting_scream,scream,starting,c,negative,negative,ES_green,1,c,882,2559403,2559907,2560111
17,forth,53,falsch,IAT_green3.bmp,green,ending_scream,scream,ending,c,negative,positive,ES_green,0,None,1500,2562070,2562574,2562778
17,forth,54,feige,IAT_red1.bmp,red,ending_melody,melody,ending,c,negative,negative,ES_green,1,c,638,2566353,2566857,2567061
17,forth,55,lustig,IAT_red1.bmp,red,ending_melody,melody,ending,m,positive,negative,ES_green,1,m,820,2568775,2569280,2569484
17,forth,56,teuer,IAT_green4.bmp,green,ending_scream,scream,ending,c,negative,positive,ES_green,1,c,1063,2571380,2571884,2572088
17,forth,57,witzig,IAT_purple1.bmp,purple,starting_scream,scream,starting,m,positive,negative,ES_green,1,m,978,2574228,2574732,2574936
17,forth,58,streng,IAT_green2.bmp,green,ending_scream,scream,ending,c,negative,positive,ES_green,1,c,1085,2576990,2577494,2577698
17,forth,59,gierig,IAT_red1.bmp,red,ending_melody,melody,ending,c,negative,negative,ES_green,1,c,1039,2579859,2580364,2580568
17,forth,60,brutal,IAT_yellow4.bmp,yellow,starting_melody,melody,starting,c,negative,positive,ES_green,1,c,782,2582683,2583188,2583392
17,forth,61,falsch,IAT_green4.bmp,green,ending_scream,scream,ending,c,negative,positive,ES_green,1,c,741,2585250,2585754,2585958
17,forth,62,schön,IAT_purple3.bmp,purple,starting_scream,scream,starting,m,positive,negative,ES_green,1,m,779,2587775,2588279,2588483
17,forth,63,sozial,IAT_yellow2.bmp,yellow,starting_melody,melody,starting,m,positive,positive,ES_green,0,c,828,2590339,2590843,2591047
17,forth,64,sonnig,IAT_green2.bmp,green,ending_scream,scream,ending,m,positive,positive,ES_green,1,m,1190,2593451,2593955,2594159
17,forth,65,human,IAT_red3.bmp,red,ending_melody,melody,ending,m,positive,negative,ES_green,1,m,1154,2596425,2596930,2597134
17,forth,66,sozial,IAT_yellow2.bmp,yellow,starting_melody,melody,starting,m,positive,positive,ES_green,1,m,1492,2599364,2599869,2600073
17,forth,67,human,IAT_purple3.bmp,purple,starting_scream,scream,starting,m,positive,negative,ES_green,1,m,968,2602641,2603145,2603349
17,forth,68,sozial,IAT_red2.bmp,red,ending_melody,melody,ending,m,positive,negative,ES_green,1,m,642,2605393,2605898,2606102
17,forth,69,brutal,IAT_green4.bmp,green,ending_scream,scream,ending,c,negative,positive,ES_green,1,c,684,2607820,2608324,2608528
17,forth,70,gierig,IAT_purple2.bmp,purple,starting_scream,scream,starting,c,negative,negative,ES_green,0,None,1500,2610289,2610793,2610997
17,forth,71,falsch,IAT_yellow4.bmp,yellow,starting_melody,melody,starting,c,negative,positive,ES_green,1,c,699,2614574,2615078,2615282
17,forth,72,geizig,IAT_purple2.bmp,purple,starting_scream,scream,starting,c,negative,negative,ES_green,1,c,757,2617058,2617562,2617766
17,forth,73,sanft,IAT_purple3.bmp,purple,starting_scream,scream,starting,m,positive,negative,ES_green,0,c,978,2619599,2620103,2620307
17,forth,74,kaputt,IAT_purple2.bmp,purple,starting_scream,scream,starting,c,negative,negative,ES_green,0,None,1500,2622861,2623365,2623569
17,forth,75,teuer,IAT_green1.bmp,green,ending_scream,scream,ending,c,negative,positive,ES_green,1,c,678,2627145,2627649,2627853
17,forth,76,geizig,IAT_purple4.bmp,purple,starting_scream,scream,starting,c,negative,negative,ES_green,1,c,975,2629608,2630113,2630317
17,forth,77,brutal,IAT_yellow1.bmp,yellow,starting_melody,melody,starting,c,negative,positive,ES_green,1,c,1110,2632370,2632874,2633078
17,forth,78,feige,IAT_purple3.bmp,purple,starting_scream,scream,starting,c,negative,negative,ES_green,1,c,1328,2635264,2635768,2635972
17,forth,79,gesund,IAT_red3.bmp,red,ending_melody,melody,ending,m,positive,negative,ES_green,1,m,1355,2638377,2638882,2639086
17,forth,80,einsam,IAT_green2.bmp,green,ending_scream,scream,ending,c,negative,positive,ES_green,1,c,1159,2641517,2642021,2642225
17,forth,81,streng,IAT_red2.bmp,red,ending_melody,melody,ending,c,negative,negative,ES_green,0,None,1500,2644460,2644964,2645168
17,forth,82,feige,IAT_green2.bmp,green,ending_scream,scream,ending,c,negative,positive,ES_green,0,None,1500,2648745,2649249,2649453
17,forth,83,morsch,IAT_red4.bmp,red,ending_melody,melody,ending,c,negative,negative,ES_green,1,c,852,2653030,2653534,2653738
17,forth,84,gierig,IAT_purple4.bmp,purple,starting_scream,scream,starting,c,negative,negative,ES_green,1,c,616,2655666,2656171,2656375
17,forth,85,ehrlich,IAT_yellow3.bmp,yellow,starting_melody,melody,starting,m,positive,positive,ES_green,1,m,635,2658069,2658573,2658777
17,forth,86,krank,IAT_yellow2.bmp,yellow,starting_melody,melody,starting,c,negative,positive,ES_green,1,c,783,2660489,2660993,2661197
17,forth,87,witzig,IAT_purple2.bmp,purple,starting_scream,scream,starting,m,positive,negative,ES_green,0,c,589,2663057,2663561,2663765
17,forth,88,streng,IAT_red3.bmp,red,ending_melody,melody,ending,c,negative,negative,ES_green,0,m,668,2665930,2666435,2666639
17,forth,89,heiter,IAT_green2.bmp,green,ending_scream,scream,ending,m,positive,positive,ES_green,0,None,1500,2668883,2669387,2669591
17,forth,90,ehrlich,IAT_green1.bmp,green,ending_scream,scream,ending,m,positive,positive,ES_green,0,None,1500,2673167,2673672,2673876
17,forth,91,lustig,IAT_green1.bmp,green,ending_scream,scream,ending,m,positive,positive,ES_green,1,m,719,2677452,2677956,2678160
17,forth,92,morsch,IAT_yellow3.bmp,yellow,starting_melody,melody,starting,c,negative,positive,ES_green,1,c,562,2679956,2680460,2680664
17,forth,93,gesund,IAT_yellow1.bmp,yellow,starting_melody,melody,starting,m,positive,positive,ES_green,1,m,581,2682303,2682807,2683011
17,forth,94,kaputt,IAT_red2.bmp,red,ending_melody,melody,ending,c,negative,negative,ES_green,1,c,685,2684669,2685173,2685377
17,forth,95,falsch,IAT_purple1.bmp,purple,starting_scream,scream,starting,c,negative,negative,ES_green,1,c,695,2687139,2687644,2687848
