subject_nr,block,trialnr,trial_target,trial_prime,prime_color,prime_role,prime_us,prime_relation,correct_response,target_valence,prime_valence,color_counter,correct_first_response,response_first_response,response_time_first_response,fixation_show,prime_show,target_show
45,first,0,falsch,IAT_yellow2.bmp,yellow,starting_scream,scream,starting,c,negative,negative,ES_red,1,c,674,1416099,1416603,1416807
45,first,1,sanft,IAT_yellow3.bmp,yellow,starting_scream,scream,starting,m,positive,negative,ES_red,1,m,761,1418556,1419060,1419264
45,first,2,sozial,IAT_green4.bmp,green,ending_melody,melody,ending,m,positive,negative,ES_red,1,m,738,1421098,1421602,1421806
45,first,3,gesund,IAT_purple1.bmp,purple,starting_melody,melody,starting,m,positive,positive,ES_red,1,m,561,1423617,1424121,1424325
45,first,4,feige,IAT_red3.bmp,red,ending_scream,scream,ending,c,negative,positive,ES_red,1,c,658,1425959,1426463,1426667
45,first,5,heiter,IAT_green1.bmp,green,ending_melody,melody,ending,m,positive,negative,ES_red,1,m,575,1428397,1428901,1429105
45,first,6,brutal,IAT_green4.bmp,green,ending_melody,melody,ending,c,negative,negative,ES_red,1,c,586,1430757,1431261,1431465
45,first,7,feige,IAT_purple4.bmp,purple,starting_melody,melody,starting,c,negative,positive,ES_red,1,c,542,1433123,1433627,1433831
45,first,8,sanft,IAT_red3.bmp,red,ending_scream,scream,ending,m,positive,positive,ES_red,1,m,468,1435446,1435950,1436155
45,first,9,morsch,IAT_green2.bmp,green,ending_melody,melody,ending,c,negative,negative,ES_red,1,c,1084,1437695,1438199,1438403
45,first,10,schön,IAT_yellow3.bmp,yellow,starting_scream,scream,starting,m,positive,negative,ES_red,1,m,483,1440560,1441064,1441268
45,first,11,gerecht,IAT_red3.bmp,red,ending_scream,scream,ending,m,positive,positive,ES_red,1,m,749,1442824,1443328,1443532
45,first,12,teuer,IAT_green4.bmp,green,ending_melody,melody,ending,c,negative,negative,ES_red,1,c,459,1445353,1445858,1446062
45,first,13,human,IAT_yellow1.bmp,yellow,starting_scream,scream,starting,m,positive,negative,ES_red,1,m,595,1447594,1448098,1448302
45,first,14,lästig,IAT_yellow3.bmp,yellow,starting_scream,scream,starting,c,negative,negative,ES_red,1,c,852,1449970,1450474,1450678
45,first,15,gesund,IAT_red4.bmp,red,ending_scream,scream,ending,m,positive,positive,ES_red,1,m,468,1452603,1453107,1453311
45,first,16,morsch,IAT_purple1.bmp,purple,starting_melody,melody,starting,c,negative,positive,ES_red,1,c,655,1454852,1455356,1455560
45,first,17,sozial,IAT_yellow2.bmp,yellow,starting_scream,scream,starting,m,positive,negative,ES_red,1,m,593,1457288,1457792,1457996
45,first,18,heiter,IAT_red4.bmp,red,ending_scream,scream,ending,m,positive,positive,ES_red,1,m,631,1459662,1460167,1460371
45,first,19,schön,IAT_yellow1.bmp,yellow,starting_scream,scream,starting,m,positive,negative,ES_red,1,m,471,1462075,1462579,1462783
45,first,20,witzig,IAT_green3.bmp,green,ending_melody,melody,ending,m,positive,negative,ES_red,1,m,612,1464327,1464831,1465035
45,first,21,lustig,IAT_purple4.bmp,purple,starting_melody,melody,starting,m,positive,positive,ES_red,1,m,436,1466721,1467226,1467430
45,first,22,krank,IAT_yellow3.bmp,yellow,starting_scream,scream,starting,c,negative,negative,ES_red,1,c,552,1468938,1469443,1469647
45,first,23,kaputt,IAT_green4.bmp,green,ending_melody,melody,ending,c,negative,negative,ES_red,1,c,679,1471272,1471776,1471980
45,first,24,gerecht,IAT_purple1.bmp,purple,starting_melody,melody,starting,m,positive,positive,ES_red,0,c,1114,1473732,1474237,1474441
45,first,25,witzig,IAT_red2.bmp,red,ending_scream,scream,ending,m,positive,positive,ES_red,1,m,754,1477129,1477633,1477837
45,first,26,heiter,IAT_yellow3.bmp,yellow,starting_scream,scream,starting,m,positive,negative,ES_red,1,m,544,1479664,1480169,1480373
45,first,27,sonnig,IAT_purple4.bmp,purple,starting_melody,melody,starting,m,positive,positive,ES_red,1,m,496,1481991,1482496,1482700
45,first,28,lästig,IAT_green4.bmp,green,ending_melody,melody,ending,c,negative,negative,ES_red,1,c,686,1484268,1484773,1484977
45,first,29,streng,IAT_green1.bmp,green,ending_melody,melody,ending,c,negative,negative,ES_red,1,c,598,1486736,1487241,1487445
45,first,30,krank,IAT_red3.bmp,red,ending_scream,scream,ending,c,negative,positive,ES_red,1,c,518,1489117,1489621,1489825
45,first,31,munter,IAT_purple1.bmp,purple,starting_melody,melody,starting,m,positive,positive,ES_red,1,m,550,1491416,1491920,1492124
45,first,32,human,IAT_yellow4.bmp,yellow,starting_scream,scream,starting,m,positive,negative,ES_red,1,m,710,1493747,1494251,1494455
45,first,33,gesund,IAT_yellow2.bmp,yellow,starting_scream,scream,starting,m,positive,negative,ES_red,1,m,481,1496238,1496742,1496946
45,first,34,munter,IAT_purple3.bmp,purple,starting_melody,melody,starting,m,positive,positive,ES_red,1,m,608,1498501,1499005,1499209
45,first,35,streng,IAT_red4.bmp,red,ending_scream,scream,ending,c,negative,positive,ES_red,1,c,597,1500891,1501395,1501599
45,first,36,einsam,IAT_green2.bmp,green,ending_melody,melody,ending,c,negative,negative,ES_red,0,m,587,1503269,1503774,1503978
45,first,37,sozial,IAT_purple2.bmp,purple,starting_melody,melody,starting,m,positive,positive,ES_red,1,m,656,1506139,1506644,1506848
45,first,38,gierig,IAT_yellow4.bmp,yellow,starting_scream,scream,starting,c,negative,negative,ES_red,1,c,704,1508577,1509081,1509285
45,first,39,lustig,IAT_red3.bmp,red,ending_scream,scream,ending,m,positive,positive,ES_red,1,m,737,1511062,1511566,1511770
45,first,40,geizig,IAT_yellow2.bmp,yellow,starting_scream,scream,starting,c,negative,negative,ES_red,1,c,717,1513581,1514085,1514289
45,first,41,schön,IAT_purple3.bmp,purple,starting_melody,melody,starting,m,positive,positive,ES_red,1,m,568,1516079,1516584,1516788
45,first,42,einsam,IAT_green2.bmp,green,ending_melody,melody,ending,c,negative,negative,ES_red,1,c,669,1518430,1518934,1519138
45,first,43,lustig,IAT_green1.bmp,green,ending_melody,melody,ending,m,positive,negative,ES_red,1,m,455,1520880,1521384,1521588
45,first,44,geizig,IAT_yellow2.bmp,yellow,starting_scream,scream,starting,c,negative,negative,ES_red,1,c,711,1523116,1523620,1523824
45,first,45,teuer,IAT_green1.bmp,green,ending_melody,melody,ending,c,negative,negative,ES_red,1,c,711,1525608,1526112,1526316
45,first,46,feige,IAT_purple2.bmp,purple,starting_melody,melody,starting,c,negative,positive,ES_red,1,c,572,1528100,1528604,1528808
45,first,47,ehrlich,IAT_green2.bmp,green,ending_melody,melody,ending,m,positive,negative,ES_red,1,m,520,1530454,1530958,1531162
45,first,48,sanft,IAT_red1.bmp,red,ending_scream,scream,ending,m,positive,positive,ES_red,1,m,673,1532756,1533260,1533464
45,first,49,einsam,IAT_red2.bmp,red,ending_scream,scream,ending,c,negative,positive,ES_red,0,m,595,1535211,1535715,1535919
45,first,50,lästig,IAT_red4.bmp,red,ending_scream,scream,ending,c,negative,positive,ES_red,0,m,795,1538087,1538591,1538795
45,first,51,teuer,IAT_red4.bmp,red,ending_scream,scream,ending,c,negative,positive,ES_red,1,c,663,1541163,1541668,1541872
45,first,52,kaputt,IAT_purple4.bmp,purple,starting_melody,melody,starting,c,negative,positive,ES_red,1,c,629,1543607,1544111,1544315
45,first,53,heiter,IAT_red1.bmp,red,ending_scream,scream,ending,m,positive,positive,ES_red,1,m,772,1546018,1546522,1546726
45,first,54,ehrlich,IAT_green2.bmp,green,ending_melody,melody,ending,m,positive,negative,ES_red,1,m,602,1548571,1549076,1549280
45,first,55,lustig,IAT_green1.bmp,green,ending_melody,melody,ending,m,positive,negative,ES_red,1,m,538,1550954,1551458,1551662
45,first,56,einsam,IAT_purple2.bmp,purple,starting_melody,melody,starting,c,negative,positive,ES_red,1,c,527,1553273,1553778,1553982
45,first,57,falsch,IAT_green2.bmp,green,ending_melody,melody,ending,c,negative,negative,ES_red,1,c,623,1555582,1556086,1556290
45,first,58,human,IAT_yellow3.bmp,yellow,starting_scream,scream,starting,m,positive,negative,ES_red,1,m,684,1557987,1558491,1558695
45,first,59,kaputt,IAT_red4.bmp,red,ending_scream,scream,ending,c,negative,positive,ES_red,1,c,662,1560453,1560958,1561162
45,first,60,brutal,IAT_red2.bmp,red,ending_scream,scream,ending,c,negative,positive,ES_red,1,c,635,1562898,1563402,1563606
45,first,61,witzig,IAT_red2.bmp,red,ending_scream,scream,ending,m,positive,positive,ES_red,1,m,548,1565314,1565818,1566022
45,first,62,sonnig,IAT_purple1.bmp,purple,starting_melody,melody,starting,m,positive,positive,ES_red,1,m,579,1567643,1568148,1568352
45,first,63,gierig,IAT_purple2.bmp,purple,starting_melody,melody,starting,c,negative,positive,ES_red,1,c,653,1570005,1570509,1570713
45,first,64,ehrlich,IAT_red1.bmp,red,ending_scream,scream,ending,m,positive,positive,ES_red,1,m,476,1572440,1572944,1573148
45,first,65,sonnig,IAT_green1.bmp,green,ending_melody,melody,ending,m,positive,negative,ES_red,1,m,506,1574697,1575201,1575405
45,first,66,streng,IAT_yellow4.bmp,yellow,starting_scream,scream,starting,c,negative,negative,ES_red,1,c,564,1576986,1577490,1577694
45,first,67,gerecht,IAT_purple3.bmp,purple,starting_melody,melody,starting,m,positive,positive,ES_red,1,m,731,1579332,1579836,1580040
45,first,68,schön,IAT_green3.bmp,green,ending_melody,melody,ending,m,positive,negative,ES_red,1,m,576,1581844,1582349,1582553
45,first,69,gerecht,IAT_red1.bmp,red,ending_scream,scream,ending,m,positive,positive,ES_red,1,m,682,1584203,1584707,1584911
45,first,70,gierig,IAT_purple3.bmp,purple,starting_melody,melody,starting,c,negative,positive,ES_red,1,c,555,1586667,1587171,1587375
45,first,71,geizig,IAT_red2.bmp,red,ending_scream,scream,ending,c,negative,positive,ES_red,1,c,735,1589003,1589508,1589712
45,first,72,sozial,IAT_purple2.bmp,purple,starting_melody,melody,starting,m,positive,positive,ES_red,1,m,506,1591521,1592025,1592229
45,first,73,brutal,IAT_yellow1.bmp,yellow,starting_scream,scream,starting,c,negative,negative,ES_red,0,m,529,1593809,1594314,1594518
45,first,74,falsch,IAT_purple4.bmp,purple,starting_melody,melody,starting,c,negative,positive,ES_red,1,c,602,1596620,1597125,1597329
45,first,75,morsch,IAT_purple4.bmp,purple,starting_melody,melody,starting,c,negative,positive,ES_red,1,c,752,1599004,1599508,1599712
45,first,76,kaputt,IAT_green3.bmp,green,ending_melody,melody,ending,c,negative,negative,ES_red,1,c,550,1601539,1602043,1602247
45,first,77,munter,IAT_yellow1.bmp,yellow,starting_scream,scream,starting,m,positive,negative,ES_red,1,m,649,1603871,1604376,1604580
45,first,78,geizig,IAT_yellow2.bmp,yellow,starting_scream,scream,starting,c,negative,negative,ES_red,1,c,670,1606303,1606807,1607011
45,first,79,human,IAT_green3.bmp,green,ending_melody,melody,ending,m,positive,negative,ES_red,1,m,599,1608755,1609259,1609463
45,first,80,feige,IAT_green3.bmp,green,ending_melody,melody,ending,c,negative,negative,ES_red,1,c,517,1611136,1611640,1611845
45,first,81,sanft,IAT_green3.bmp,green,ending_melody,melody,ending,m,positive,negative,ES_red,1,m,493,1613436,1613940,1614144
45,first,82,falsch,IAT_red1.bmp,red,ending_scream,scream,ending,c,negative,positive,ES_red,1,c,676,1615711,1616215,1616419
45,first,83,sonnig,IAT_yellow4.bmp,yellow,starting_scream,scream,starting,m,positive,negative,ES_red,1,m,484,1618171,1618675,1618879
45,first,84,morsch,IAT_yellow4.bmp,yellow,starting_scream,scream,starting,c,negative,negative,ES_red,1,c,468,1620437,1620941,1621145
45,first,85,gierig,IAT_purple2.bmp,purple,starting_melody,melody,starting,c,negative,positive,ES_red,1,c,930,1622687,1623191,1623395
45,first,86,teuer,IAT_purple3.bmp,purple,starting_melody,melody,starting,c,negative,positive,ES_red,1,c,809,1625398,1625903,1626107
45,first,87,witzig,IAT_green4.bmp,green,ending_melody,melody,ending,m,positive,negative,ES_red,1,m,676,1627991,1628495,1628699
45,first,88,ehrlich,IAT_yellow1.bmp,yellow,starting_scream,scream,starting,m,positive,negative,ES_red,1,m,649,1630449,1630953,1631157
45,first,89,brutal,IAT_yellow1.bmp,yellow,starting_scream,scream,starting,c,negative,negative,ES_red,1,c,641,1632880,1633384,1633588
45,first,90,krank,IAT_red2.bmp,red,ending_scream,scream,ending,c,negative,positive,ES_red,1,c,751,1635303,1635808,1636012
45,first,91,lästig,IAT_purple1.bmp,purple,starting_melody,melody,starting,c,negative,positive,ES_red,1,c,725,1637837,1638341,1638545
45,first,92,streng,IAT_yellow4.bmp,yellow,starting_scream,scream,starting,c,negative,negative,ES_red,1,c,481,1640345,1640849,1641053
45,first,93,munter,IAT_red3.bmp,red,ending_scream,scream,ending,m,positive,positive,ES_red,0,c,446,1642609,1643113,1643317
45,first,94,gesund,IAT_purple3.bmp,purple,starting_melody,melody,starting,m,positive,positive,ES_red,1,m,765,1645337,1645841,1646045
45,first,95,krank,IAT_red1.bmp,red,ending_scream,scream,ending,c,negative,positive,ES_red,1,c,570,1647883,1648388,1648592
45,second,0,sonnig,IAT_green2.bmp,green,ending_melody,melody,ending,m,positive,negative,ES_red,1,m,1302,1664882,1665387,1665591
45,second,1,geizig,IAT_purple3.bmp,purple,starting_melody,melody,starting,c,negative,positive,ES_red,1,c,708,1667968,1668472,1668676
45,second,2,gierig,IAT_yellow2.bmp,yellow,starting_scream,scream,starting,c,negative,negative,ES_red,1,c,559,1670457,1670962,1671166
45,second,3,ehrlich,IAT_red2.bmp,red,ending_scream,scream,ending,m,positive,positive,ES_red,1,m,678,1672797,1673302,1673506
45,second,4,gerecht,IAT_red3.bmp,red,ending_scream,scream,ending,m,positive,positive,ES_red,1,m,721,1675258,1675762,1675966
45,second,5,human,IAT_yellow3.bmp,yellow,starting_scream,scream,starting,m,positive,negative,ES_red,1,m,508,1677761,1678265,1678469
45,second,6,schön,IAT_red3.bmp,red,ending_scream,scream,ending,m,positive,positive,ES_red,1,m,469,1680051,1680555,1680759
45,second,7,heiter,IAT_yellow3.bmp,yellow,starting_scream,scream,starting,m,positive,negative,ES_red,1,m,477,1682302,1682806,1683010
45,second,8,falsch,IAT_red2.bmp,red,ending_scream,scream,ending,c,negative,positive,ES_red,1,c,546,1684560,1685065,1685269
45,second,9,gerecht,IAT_yellow1.bmp,yellow,starting_scream,scream,starting,m,positive,negative,ES_red,1,m,391,1686888,1687392,1687596
45,second,10,lustig,IAT_green3.bmp,green,ending_melody,melody,ending,m,positive,negative,ES_red,1,m,608,1689061,1689566,1689770
45,second,11,streng,IAT_red4.bmp,red,ending_scream,scream,ending,c,negative,positive,ES_red,1,c,680,1691452,1691957,1692161
45,second,12,sozial,IAT_purple3.bmp,purple,starting_melody,melody,starting,m,positive,positive,ES_red,1,m,558,1693913,1694418,1694622
45,second,13,geizig,IAT_yellow3.bmp,yellow,starting_scream,scream,starting,c,negative,negative,ES_red,1,c,625,1696253,1696757,1696961
45,second,14,ehrlich,IAT_yellow3.bmp,yellow,starting_scream,scream,starting,m,positive,negative,ES_red,1,m,480,1698660,1699165,1699369
45,second,15,witzig,IAT_yellow3.bmp,yellow,starting_scream,scream,starting,m,positive,negative,ES_red,1,m,798,1700923,1701427,1701631
45,second,16,gierig,IAT_yellow4.bmp,yellow,starting_scream,scream,starting,c,negative,negative,ES_red,1,c,527,1703503,1704007,1704211
45,second,17,einsam,IAT_green4.bmp,green,ending_melody,melody,ending,c,negative,negative,ES_red,0,m,517,1705812,1706316,1706520
45,second,18,krank,IAT_red3.bmp,red,ending_scream,scream,ending,c,negative,positive,ES_red,1,c,765,1708614,1709118,1709322
45,second,19,gesund,IAT_purple1.bmp,purple,starting_melody,melody,starting,m,positive,positive,ES_red,1,m,723,1711161,1711666,1711870
45,second,20,teuer,IAT_green3.bmp,green,ending_melody,melody,ending,c,negative,negative,ES_red,1,c,1195,1713667,1714171,1714375
45,second,21,einsam,IAT_yellow2.bmp,yellow,starting_scream,scream,starting,c,negative,negative,ES_red,0,m,643,1716643,1717148,1717352
45,second,22,brutal,IAT_yellow4.bmp,yellow,starting_scream,scream,starting,c,negative,negative,ES_red,1,c,787,1719568,1720072,1720276
45,second,23,sanft,IAT_yellow2.bmp,yellow,starting_scream,scream,starting,m,positive,negative,ES_red,1,m,693,1722137,1722642,1722846
45,second,24,morsch,IAT_yellow2.bmp,yellow,starting_scream,scream,starting,c,negative,negative,ES_red,0,m,1230,1724613,1725117,1725321
45,second,25,gesund,IAT_yellow1.bmp,yellow,starting_scream,scream,starting,m,positive,negative,ES_red,1,m,797,1728125,1728629,1728833
45,second,26,sozial,IAT_purple3.bmp,purple,starting_melody,melody,starting,m,positive,positive,ES_red,1,m,779,1730704,1731208,1731412
45,second,27,krank,IAT_purple1.bmp,purple,starting_melody,melody,starting,c,negative,positive,ES_red,1,c,502,1733265,1733769,1733973
45,second,28,falsch,IAT_purple1.bmp,purple,starting_melody,melody,starting,c,negative,positive,ES_red,1,c,498,1735548,1736052,1736256
45,second,29,lästig,IAT_yellow2.bmp,yellow,starting_scream,scream,starting,c,negative,negative,ES_red,1,c,1256,1737828,1738333,1738537
45,second,30,lustig,IAT_green3.bmp,green,ending_melody,melody,ending,m,positive,negative,ES_red,1,m,541,1740867,1741371,1741575
45,second,31,heiter,IAT_purple1.bmp,purple,starting_melody,melody,starting,m,positive,positive,ES_red,1,m,649,1743190,1743695,1743899
45,second,32,krank,IAT_purple4.bmp,purple,starting_melody,melody,starting,c,negative,positive,ES_red,1,c,742,1745622,1746126,1746330
45,second,33,munter,IAT_yellow2.bmp,yellow,starting_scream,scream,starting,m,positive,negative,ES_red,1,m,715,1748145,1748650,1748854
45,second,34,schön,IAT_green4.bmp,green,ending_melody,melody,ending,m,positive,negative,ES_red,1,m,579,1750642,1751147,1751351
45,second,35,lästig,IAT_red2.bmp,red,ending_scream,scream,ending,c,negative,positive,ES_red,1,c,625,1753004,1753508,1753712
45,second,36,gierig,IAT_yellow4.bmp,yellow,starting_scream,scream,starting,c,negative,negative,ES_red,1,c,1037,1755412,1755916,1756120
45,second,37,streng,IAT_red2.bmp,red,ending_scream,scream,ending,c,negative,positive,ES_red,1,c,697,1758231,1758735,1758939
45,second,38,munter,IAT_green1.bmp,green,ending_melody,melody,ending,m,positive,negative,ES_red,1,m,462,1760710,1761214,1761418
45,second,39,brutal,IAT_green2.bmp,green,ending_melody,melody,ending,c,negative,negative,ES_red,1,c,652,1762953,1763458,1763662
45,second,40,heiter,IAT_purple2.bmp,purple,starting_melody,melody,starting,m,positive,positive,ES_red,1,m,504,1765387,1765892,1766096
45,second,41,witzig,IAT_green1.bmp,green,ending_melody,melody,ending,m,positive,negative,ES_red,1,m,814,1767673,1768178,1768382
45,second,42,sanft,IAT_purple3.bmp,purple,starting_melody,melody,starting,m,positive,positive,ES_red,1,m,696,1770270,1770774,1770978
45,second,43,morsch,IAT_purple2.bmp,purple,starting_melody,melody,starting,c,negative,positive,ES_red,1,c,661,1772748,1773252,1773456
45,second,44,streng,IAT_green4.bmp,green,ending_melody,melody,ending,c,negative,negative,ES_red,1,c,620,1775191,1775696,1775900
45,second,45,lustig,IAT_purple1.bmp,purple,starting_melody,melody,starting,m,positive,positive,ES_red,1,m,516,1777594,1778098,1778302
45,second,46,sonnig,IAT_green3.bmp,green,ending_melody,melody,ending,m,positive,negative,ES_red,1,m,778,1779892,1780397,1780601
45,second,47,kaputt,IAT_yellow1.bmp,yellow,starting_scream,scream,starting,c,negative,negative,ES_red,1,c,772,1782453,1782957,1783161
45,second,48,lästig,IAT_green1.bmp,green,ending_melody,melody,ending,c,negative,negative,ES_red,0,m,683,1785007,1785511,1785715
45,second,49,brutal,IAT_red2.bmp,red,ending_scream,scream,ending,c,negative,positive,ES_red,1,c,607,1787972,1788476,1788680
45,second,50,einsam,IAT_purple4.bmp,purple,starting_melody,melody,starting,c,negative,positive,ES_red,1,c,1134,1790361,1790865,1791069
45,second,51,sozial,IAT_red3.bmp,red,ending_scream,scream,ending,m,positive,positive,ES_red,1,m,698,1793277,1793782,1793986
45,second,52,sanft,IAT_yellow4.bmp,yellow,starting_scream,scream,starting,m,positive,negative,ES_red,1,m,526,1795758,1796262,1796466
45,second,53,munter,IAT_red3.bmp,red,ending_scream,scream,ending,m,positive,positive,ES_red,1,m,757,1798066,1798570,1798774
45,second,54,falsch,IAT_purple2.bmp,purple,starting_melody,melody,starting,c,negative,positive,ES_red,1,c,505,1800605,1801109,1801313
45,second,55,sonnig,IAT_purple2.bmp,purple,starting_melody,melody,starting,m,positive,positive,ES_red,1,m,545,1802892,1803396,1803600
45,second,56,kaputt,IAT_red3.bmp,red,ending_scream,scream,ending,c,negative,positive,ES_red,1,c,576,1805220,1805724,1805928
45,second,57,human,IAT_red2.bmp,red,ending_scream,scream,ending,m,positive,positive,ES_red,1,m,536,1807578,1808083,1808287
45,second,58,munter,IAT_red1.bmp,red,ending_scream,scream,ending,m,positive,positive,ES_red,1,m,515,1809897,1810401,1810605
45,second,59,einsam,IAT_purple4.bmp,purple,starting_melody,melody,starting,c,negative,positive,ES_red,0,m,432,1812193,1812698,1812902
45,second,60,streng,IAT_red1.bmp,red,ending_scream,scream,ending,c,negative,positive,ES_red,1,c,722,1814908,1815412,1815616
45,second,61,ehrlich,IAT_red1.bmp,red,ending_scream,scream,ending,m,positive,positive,ES_red,1,m,564,1817412,1817916,1818120
45,second,62,witzig,IAT_purple4.bmp,purple,starting_melody,melody,starting,m,positive,positive,ES_red,1,m,582,1819757,1820261,1820465
45,second,63,heiter,IAT_green4.bmp,green,ending_melody,melody,ending,m,positive,negative,ES_red,1,m,547,1822122,1822626,1822830
45,second,64,geizig,IAT_green1.bmp,green,ending_melody,melody,ending,c,negative,negative,ES_red,1,c,1056,1824451,1824956,1825160
45,second,65,kaputt,IAT_red4.bmp,red,ending_scream,scream,ending,c,negative,positive,ES_red,0,None,1500,1827291,1827796,1828000
45,second,66,feige,IAT_purple3.bmp,purple,starting_melody,melody,starting,c,negative,positive,ES_red,1,c,880,1831074,1831578,1831782
45,second,67,sanft,IAT_green2.bmp,green,ending_melody,melody,ending,m,positive,negative,ES_red,1,m,534,1833735,1834240,1834444
45,second,68,geizig,IAT_yellow4.bmp,yellow,starting_scream,scream,starting,c,negative,negative,ES_red,1,c,1119,1836052,1836556,1836760
45,second,69,kaputt,IAT_red4.bmp,red,ending_scream,scream,ending,c,negative,positive,ES_red,1,c,618,1838953,1839457,1839661
45,second,70,feige,IAT_green2.bmp,green,ending_melody,melody,ending,c,negative,negative,ES_red,1,c,1152,1841353,1841857,1842061
45,second,71,brutal,IAT_purple4.bmp,purple,starting_melody,melody,starting,c,negative,positive,ES_red,1,c,629,1844287,1844791,1844995
45,second,72,morsch,IAT_red4.bmp,red,ending_scream,scream,ending,c,negative,positive,ES_red,1,c,641,1846698,1847202,1847406
45,second,73,feige,IAT_purple2.bmp,purple,starting_melody,melody,starting,c,negative,positive,ES_red,1,c,535,1849121,1849625,1849829
45,second,74,teuer,IAT_green4.bmp,green,ending_melody,melody,ending,c,negative,negative,ES_red,1,c,736,1851439,1851944,1852148
45,second,75,schön,IAT_purple4.bmp,purple,starting_melody,melody,starting,m,positive,positive,ES_red,1,m,513,1853957,1854461,1854665
45,second,76,human,IAT_purple1.bmp,purple,starting_melody,melody,starting,m,positive,positive,ES_red,1,m,595,1856253,1856757,1856961
45,second,77,lästig,IAT_yellow1.bmp,yellow,starting_scream,scream,starting,c,negative,negative,ES_red,1,c,778,1858631,1859135,1859339
45,second,78,krank,IAT_red1.bmp,red,ending_scream,scream,ending,c,negative,positive,ES_red,1,c,700,1861191,1861696,1861900
45,second,79,feige,IAT_green4.bmp,green,ending_melody,melody,ending,c,negative,negative,ES_red,1,c,509,1863674,1864179,1864383
45,second,80,sozial,IAT_green1.bmp,green,ending_melody,melody,ending,m,positive,negative,ES_red,1,m,658,1865966,1866471,1866675
45,second,81,sonnig,IAT_purple3.bmp,purple,starting_melody,melody,starting,m,positive,positive,ES_red,1,m,643,1868407,1868911,1869115
45,second,82,teuer,IAT_purple2.bmp,purple,starting_melody,melody,starting,c,negative,positive,ES_red,1,c,621,1870833,1871337,1871541
45,second,83,gerecht,IAT_red4.bmp,red,ending_scream,scream,ending,m,positive,positive,ES_red,1,m,926,1873237,1873741,1873945
45,second,84,schön,IAT_red4.bmp,red,ending_scream,scream,ending,m,positive,positive,ES_red,1,m,599,1875945,1876449,1876653
45,second,85,witzig,IAT_red1.bmp,red,ending_scream,scream,ending,m,positive,positive,ES_red,1,m,635,1878326,1878830,1879034
45,second,86,gesund,IAT_yellow4.bmp,yellow,starting_scream,scream,starting,m,positive,negative,ES_red,1,m,857,1880744,1881248,1881452
45,second,87,morsch,IAT_green2.bmp,green,ending_melody,melody,ending,c,negative,negative,ES_red,1,c,644,1883384,1883889,1884093
45,second,88,falsch,IAT_yellow3.bmp,yellow,starting_scream,scream,starting,c,negative,negative,ES_red,1,c,636,1885811,1886315,1886519
45,second,89,gerecht,IAT_yellow1.bmp,yellow,starting_scream,scream,starting,m,positive,negative,ES_red,0,c,653,1888231,1888735,1888939
45,second,90,ehrlich,IAT_red1.bmp,red,ending_scream,scream,ending,m,positive,positive,ES_red,1,m,646,1891168,1891672,1891876
45,second,91,human,IAT_green3.bmp,green,ending_melody,melody,ending,m,positive,negative,ES_red,1,m,599,1893596,1894100,1894304
45,second,92,gesund,IAT_green1.bmp,green,ending_melody,melody,ending,m,positive,negative,ES_red,1,m,599,1895977,1896482,1896686
45,second,93,lustig,IAT_yellow1.bmp,yellow,starting_scream,scream,starting,m,positive,negative,ES_red,1,m,475,1898361,1898865,1899069
45,second,94,gierig,IAT_green3.bmp,green,ending_melody,melody,ending,c,negative,negative,ES_red,1,c,598,1900618,1901122,1901326
45,second,95,teuer,IAT_green2.bmp,green,ending_melody,melody,ending,c,negative,negative,ES_red,1,c,690,1902999,1903503,1903707
45,third,0,sonnig,IAT_yellow2.bmp,yellow,starting_scream,scream,starting,m,positive,negative,ES_red,1,m,676,1914945,1915450,1915654
45,third,1,morsch,IAT_green1.bmp,green,ending_melody,melody,ending,c,negative,negative,ES_red,0,m,466,1917406,1917910,1918114
45,third,2,einsam,IAT_green4.bmp,green,ending_melody,melody,ending,c,negative,negative,ES_red,1,c,860,1920154,1920658,1920862
45,third,3,lästig,IAT_red4.bmp,red,ending_scream,scream,ending,c,negative,positive,ES_red,1,c,680,1922795,1923299,1923503
45,third,4,geizig,IAT_purple4.bmp,purple,starting_melody,melody,starting,c,negative,positive,ES_red,1,c,704,1925256,1925761,1925965
45,third,5,gierig,IAT_green4.bmp,green,ending_melody,melody,ending,c,negative,negative,ES_red,1,c,710,1927743,1928247,1928451
45,third,6,sozial,IAT_green2.bmp,green,ending_melody,melody,ending,m,positive,negative,ES_red,1,m,553,1930234,1930738,1930942
45,third,7,teuer,IAT_green1.bmp,green,ending_melody,melody,ending,c,negative,negative,ES_red,1,c,553,1932568,1933072,1933277
45,third,8,munter,IAT_red3.bmp,red,ending_scream,scream,ending,m,positive,positive,ES_red,0,c,614,1934904,1935408,1935612
45,third,9,schön,IAT_purple4.bmp,purple,starting_melody,melody,starting,m,positive,positive,ES_red,1,m,511,1937801,1938305,1938509
45,third,10,munter,IAT_red4.bmp,red,ending_scream,scream,ending,m,positive,positive,ES_red,1,m,819,1940093,1940598,1940802
45,third,11,heiter,IAT_purple3.bmp,purple,starting_melody,melody,starting,m,positive,positive,ES_red,1,m,710,1942694,1943198,1943402
45,third,12,sonnig,IAT_purple2.bmp,purple,starting_melody,melody,starting,m,positive,positive,ES_red,1,m,518,1945186,1945691,1945895
45,third,13,streng,IAT_green2.bmp,green,ending_melody,melody,ending,c,negative,negative,ES_red,1,c,518,1947486,1947990,1948194
45,third,14,gierig,IAT_yellow3.bmp,yellow,starting_scream,scream,starting,c,negative,negative,ES_red,1,c,624,1949786,1950290,1950494
45,third,15,falsch,IAT_green3.bmp,green,ending_melody,melody,ending,c,negative,negative,ES_red,1,c,468,1952193,1952697,1952901
45,third,16,munter,IAT_red4.bmp,red,ending_scream,scream,ending,m,positive,positive,ES_red,1,m,623,1954443,1954947,1955151
45,third,17,heiter,IAT_green2.bmp,green,ending_melody,melody,ending,m,positive,negative,ES_red,1,m,996,1956848,1957352,1957556
45,third,18,morsch,IAT_purple2.bmp,purple,starting_melody,melody,starting,c,negative,positive,ES_red,1,c,522,1959626,1960130,1960334
45,third,19,gesund,IAT_yellow1.bmp,yellow,starting_scream,scream,starting,m,positive,negative,ES_red,1,m,540,1961930,1962434,1962638
45,third,20,ehrlich,IAT_purple4.bmp,purple,starting_melody,melody,starting,m,positive,positive,ES_red,1,m,636,1964253,1964757,1964961
45,third,21,krank,IAT_green4.bmp,green,ending_melody,melody,ending,c,negative,negative,ES_red,1,c,495,1966671,1967176,1967380
45,third,22,heiter,IAT_yellow1.bmp,yellow,starting_scream,scream,starting,m,positive,negative,ES_red,1,m,445,1968949,1969454,1969658
45,third,23,lästig,IAT_red2.bmp,red,ending_scream,scream,ending,c,negative,positive,ES_red,1,c,692,1971177,1971681,1971885
45,third,24,falsch,IAT_red4.bmp,red,ending_scream,scream,ending,c,negative,positive,ES_red,1,c,482,1973651,1974156,1974360
45,third,25,morsch,IAT_yellow2.bmp,yellow,starting_scream,scream,starting,c,negative,negative,ES_red,1,c,627,1975916,1976420,1976624
45,third,26,munter,IAT_yellow1.bmp,yellow,starting_scream,scream,starting,m,positive,negative,ES_red,0,c,375,1978325,1978829,1979033
45,third,27,krank,IAT_green4.bmp,green,ending_melody,melody,ending,c,negative,negative,ES_red,1,c,526,1980982,1981486,1981690
45,third,28,kaputt,IAT_yellow4.bmp,yellow,starting_scream,scream,starting,c,negative,negative,ES_red,1,c,503,1983291,1983795,1983999
45,third,29,brutal,IAT_yellow2.bmp,yellow,starting_scream,scream,starting,c,negative,negative,ES_red,1,c,546,1985576,1986080,1986284
45,third,30,ehrlich,IAT_green4.bmp,green,ending_melody,melody,ending,m,positive,negative,ES_red,1,m,521,1987904,1988408,1988612
45,third,31,sanft,IAT_red1.bmp,red,ending_scream,scream,ending,m,positive,positive,ES_red,1,m,652,1990208,1990712,1990916
45,third,32,witzig,IAT_purple1.bmp,purple,starting_melody,melody,starting,m,positive,positive,ES_red,1,m,466,1992642,1993146,1993350
45,third,33,morsch,IAT_purple3.bmp,purple,starting_melody,melody,starting,c,negative,positive,ES_red,0,m,604,1994890,1995394,1995598
45,third,34,lustig,IAT_purple1.bmp,purple,starting_melody,melody,starting,m,positive,positive,ES_red,1,m,661,1997777,1998281,1998485
45,third,35,streng,IAT_yellow3.bmp,yellow,starting_scream,scream,starting,c,negative,negative,ES_red,1,c,974,2000220,2000724,2000928
45,third,36,witzig,IAT_green3.bmp,green,ending_melody,melody,ending,m,positive,negative,ES_red,1,m,666,2002977,2003481,2003685
45,third,37,lästig,IAT_green2.bmp,green,ending_melody,melody,ending,c,negative,negative,ES_red,1,c,812,2005425,2005929,2006133
45,third,38,geizig,IAT_yellow2.bmp,yellow,starting_scream,scream,starting,c,negative,negative,ES_red,1,c,487,2008019,2008523,2008727
45,third,39,sozial,IAT_green3.bmp,green,ending_melody,melody,ending,m,positive,negative,ES_red,1,m,644,2010287,2010792,2010996
45,third,40,kaputt,IAT_red4.bmp,red,ending_scream,scream,ending,c,negative,positive,ES_red,1,c,730,2012715,2013220,2013424
45,third,41,human,IAT_red3.bmp,red,ending_scream,scream,ending,m,positive,positive,ES_red,1,m,603,2015229,2015733,2015937
45,third,42,krank,IAT_purple1.bmp,purple,starting_melody,melody,starting,c,negative,positive,ES_red,1,c,540,2017614,2018118,2018322
45,third,43,teuer,IAT_yellow1.bmp,yellow,starting_scream,scream,starting,c,negative,negative,ES_red,1,c,680,2019938,2020442,2020646
45,third,44,sozial,IAT_green1.bmp,green,ending_melody,melody,ending,m,positive,negative,ES_red,1,m,438,2022400,2022904,2023108
45,third,45,brutal,IAT_purple2.bmp,purple,starting_melody,melody,starting,c,negative,positive,ES_red,1,c,679,2024620,2025124,2025328
45,third,46,schön,IAT_red1.bmp,red,ending_scream,scream,ending,m,positive,positive,ES_red,1,m,524,2027081,2027586,2027790
45,third,47,feige,IAT_purple4.bmp,purple,starting_melody,melody,starting,c,negative,positive,ES_red,1,c,495,2029389,2029893,2030097
45,third,48,sonnig,IAT_red1.bmp,red,ending_scream,scream,ending,m,positive,positive,ES_red,1,m,435,2031666,2032170,2032374
45,third,49,human,IAT_yellow3.bmp,yellow,starting_scream,scream,starting,m,positive,negative,ES_red,1,m,633,2033883,2034387,2034591
45,third,50,teuer,IAT_purple4.bmp,purple,starting_melody,melody,starting,c,negative,positive,ES_red,1,c,542,2036298,2036803,2037007
45,third,51,geizig,IAT_green2.bmp,green,ending_melody,melody,ending,c,negative,negative,ES_red,1,c,609,2038622,2039127,2039331
45,third,52,feige,IAT_yellow1.bmp,yellow,starting_scream,scream,starting,c,negative,negative,ES_red,1,c,871,2041015,2041519,2041723
45,third,53,kaputt,IAT_red4.bmp,red,ending_scream,scream,ending,c,negative,positive,ES_red,1,c,523,2043669,2044174,2044378
45,third,54,gierig,IAT_yellow2.bmp,yellow,starting_scream,scream,starting,c,negative,negative,ES_red,1,c,685,2045975,2046479,2046683
45,third,55,krank,IAT_yellow4.bmp,yellow,starting_scream,scream,starting,c,negative,negative,ES_red,1,c,562,2048442,2048946,2049150
45,third,56,lustig,IAT_purple3.bmp,purple,starting_melody,melody,starting,m,positive,positive,ES_red,1,m,602,2050789,2051293,2051497
45,third,57,heiter,IAT_red2.bmp,red,ending_scream,scream,ending,m,positive,positive,ES_red,1,m,713,2053173,2053677,2053881
45,third,58,gesund,IAT_yellow1.bmp,yellow,starting_scream,scream,starting,m,positive,negative,ES_red,1,m,632,2055668,2056172,2056376
45,third,59,sozial,IAT_green1.bmp,green,ending_melody,melody,ending,m,positive,negative,ES_red,1,m,596,2058083,2058587,2058791
45,third,60,ehrlich,IAT_red1.bmp,red,ending_scream,scream,ending,m,positive,positive,ES_red,1,m,555,2060462,2060966,2061170
45,third,61,einsam,IAT_red1.bmp,red,ending_scream,scream,ending,c,negative,positive,ES_red,0,m,988,2062800,2063304,2063508
45,third,62,falsch,IAT_red2.bmp,red,ending_scream,scream,ending,c,negative,positive,ES_red,1,c,575,2066071,2066575,2066779
45,third,63,feige,IAT_yellow4.bmp,yellow,starting_scream,scream,starting,c,negative,negative,ES_red,1,c,630,2068429,2068933,2069137
45,third,64,gierig,IAT_red2.bmp,red,ending_scream,scream,ending,c,negative,positive,ES_red,1,c,733,2070841,2071345,2071549
45,third,65,einsam,IAT_red3.bmp,red,ending_scream,scream,ending,c,negative,positive,ES_red,0,m,526,2073357,2073862,2074066
45,third,66,schön,IAT_purple1.bmp,purple,starting_melody,melody,starting,m,positive,positive,ES_red,1,m,573,2076166,2076670,2076874
45,third,67,human,IAT_red3.bmp,red,ending_scream,scream,ending,m,positive,positive,ES_red,1,m,578,2078521,2079025,2079229
45,third,68,lustig,IAT_purple3.bmp,purple,starting_melody,melody,starting,m,positive,positive,ES_red,1,m,645,2080881,2081385,2081589
45,third,69,kaputt,IAT_red3.bmp,red,ending_scream,scream,ending,c,negative,positive,ES_red,1,c,587,2083307,2083812,2084016
45,third,70,gerecht,IAT_red2.bmp,red,ending_scream,scream,ending,m,positive,positive,ES_red,1,m,684,2085677,2086181,2086385
45,third,71,lustig,IAT_red3.bmp,red,ending_scream,scream,ending,m,positive,positive,ES_red,1,m,792,2088144,2088648,2088852
45,third,72,schön,IAT_green1.bmp,green,ending_melody,melody,ending,m,positive,negative,ES_red,1,m,488,2090718,2091222,2091426
45,third,73,sanft,IAT_green4.bmp,green,ending_melody,melody,ending,m,positive,negative,ES_red,0,None,1500,2092988,2093492,2093696
45,third,74,gerecht,IAT_green3.bmp,green,ending_melody,melody,ending,m,positive,negative,ES_red,1,m,655,2096771,2097275,2097479
45,third,75,sanft,IAT_yellow3.bmp,yellow,starting_scream,scream,starting,m,positive,negative,ES_red,1,m,516,2099209,2099714,2099918
45,third,76,gerecht,IAT_purple3.bmp,purple,starting_melody,melody,starting,m,positive,positive,ES_red,1,m,582,2101509,2102013,2102217
45,third,77,ehrlich,IAT_yellow2.bmp,yellow,starting_scream,scream,starting,m,positive,negative,ES_red,1,m,898,2103874,2104378,2104582
45,third,78,gesund,IAT_yellow4.bmp,yellow,starting_scream,scream,starting,m,positive,negative,ES_red,1,m,735,2106556,2107060,2107264
45,third,79,brutal,IAT_red1.bmp,red,ending_scream,scream,ending,c,negative,positive,ES_red,1,c,596,2109074,2109578,2109782
45,third,80,witzig,IAT_yellow4.bmp,yellow,starting_scream,scream,starting,m,positive,negative,ES_red,1,m,577,2111453,2111957,2112161
45,third,81,falsch,IAT_yellow4.bmp,yellow,starting_scream,scream,starting,c,negative,negative,ES_red,1,c,440,2113813,2114318,2114522
45,third,82,einsam,IAT_purple1.bmp,purple,starting_melody,melody,starting,c,negative,positive,ES_red,1,c,877,2116037,2116541,2116745
45,third,83,streng,IAT_purple3.bmp,purple,starting_melody,melody,starting,c,negative,positive,ES_red,1,c,552,2118697,2119201,2119405
45,third,84,brutal,IAT_red2.bmp,red,ending_scream,scream,ending,c,negative,positive,ES_red,1,c,472,2121032,2121537,2121741
45,third,85,gerecht,IAT_yellow3.bmp,yellow,starting_scream,scream,starting,m,positive,negative,ES_red,1,m,736,2123288,2123792,2123996
45,third,86,lästig,IAT_purple2.bmp,purple,starting_melody,melody,starting,c,negative,positive,ES_red,1,c,814,2125807,2126311,2126515
45,third,87,geizig,IAT_green2.bmp,green,ending_melody,melody,ending,c,negative,negative,ES_red,1,c,599,2128404,2128908,2129112
45,third,88,witzig,IAT_green1.bmp,green,ending_melody,melody,ending,m,positive,negative,ES_red,1,m,545,2130784,2131288,2131492
45,third,89,sonnig,IAT_green3.bmp,green,ending_melody,melody,ending,m,positive,negative,ES_red,1,m,676,2133112,2133616,2133820
45,third,90,sanft,IAT_yellow3.bmp,yellow,starting_scream,scream,starting,m,positive,negative,ES_red,1,m,837,2135571,2136076,2136280
45,third,91,gesund,IAT_purple2.bmp,purple,starting_melody,melody,starting,m,positive,positive,ES_red,1,m,503,2138193,2138698,2138902
45,third,92,feige,IAT_purple4.bmp,purple,starting_melody,melody,starting,c,negative,positive,ES_red,1,c,609,2140480,2140984,2141188
45,third,93,teuer,IAT_purple2.bmp,purple,starting_melody,melody,starting,c,negative,positive,ES_red,1,c,950,2142872,2143377,2143581
45,third,94,human,IAT_purple1.bmp,purple,starting_melody,melody,starting,m,positive,positive,ES_red,1,m,544,2145604,2146109,2146313
45,third,95,streng,IAT_green3.bmp,green,ending_melody,melody,ending,c,negative,negative,ES_red,1,c,746,2147932,2148436,2148640
45,forth,0,munter,IAT_red2.bmp,red,ending_scream,scream,ending,m,positive,positive,ES_red,1,m,699,2158992,2159496,2159700
45,forth,1,sanft,IAT_purple2.bmp,purple,starting_melody,melody,starting,m,positive,positive,ES_red,1,m,464,2161474,2161978,2162182
45,forth,2,gesund,IAT_red1.bmp,red,ending_scream,scream,ending,m,positive,positive,ES_red,1,m,551,2163722,2164226,2164430
45,forth,3,munter,IAT_green3.bmp,green,ending_melody,melody,ending,m,positive,negative,ES_red,1,m,616,2166055,2166559,2166763
45,forth,4,geizig,IAT_green1.bmp,green,ending_melody,melody,ending,c,negative,negative,ES_red,1,c,616,2168453,2168958,2169162
45,forth,5,streng,IAT_red2.bmp,red,ending_scream,scream,ending,c,negative,positive,ES_red,1,c,614,2170852,2171356,2171560
45,forth,6,schön,IAT_green2.bmp,green,ending_melody,melody,ending,m,positive,negative,ES_red,1,m,641,2173248,2173752,2173956
45,forth,7,feige,IAT_red2.bmp,red,ending_scream,scream,ending,c,negative,positive,ES_red,1,c,492,2175671,2176176,2176380
45,forth,8,sozial,IAT_green3.bmp,green,ending_melody,melody,ending,m,positive,negative,ES_red,1,m,567,2177946,2178451,2178655
45,forth,9,schön,IAT_yellow2.bmp,yellow,starting_scream,scream,starting,m,positive,negative,ES_red,1,m,730,2180297,2180801,2181005
45,forth,10,sonnig,IAT_purple1.bmp,purple,starting_melody,melody,starting,m,positive,positive,ES_red,1,m,543,2182809,2183313,2183517
45,forth,11,lästig,IAT_green2.bmp,green,ending_melody,melody,ending,c,negative,negative,ES_red,1,c,588,2185133,2185637,2185841
45,forth,12,gerecht,IAT_red4.bmp,red,ending_scream,scream,ending,m,positive,positive,ES_red,1,m,1076,2187503,2188008,2188212
45,forth,13,witzig,IAT_red3.bmp,red,ending_scream,scream,ending,m,positive,positive,ES_red,1,m,517,2190363,2190868,2191072
45,forth,14,einsam,IAT_red4.bmp,red,ending_scream,scream,ending,c,negative,positive,ES_red,0,m,437,2192664,2193168,2193372
45,forth,15,falsch,IAT_yellow4.bmp,yellow,starting_scream,scream,starting,c,negative,negative,ES_red,1,c,917,2195385,2195889,2196093
45,forth,16,schön,IAT_yellow4.bmp,yellow,starting_scream,scream,starting,m,positive,negative,ES_red,1,m,670,2198083,2198588,2198792
45,forth,17,gesund,IAT_yellow3.bmp,yellow,starting_scream,scream,starting,m,positive,negative,ES_red,1,m,690,2200536,2201040,2201244
45,forth,18,krank,IAT_red4.bmp,red,ending_scream,scream,ending,c,negative,positive,ES_red,1,c,650,2203009,2203513,2203717
45,forth,19,streng,IAT_red4.bmp,red,ending_scream,scream,ending,c,negative,positive,ES_red,1,c,1040,2205441,2205945,2206149
45,forth,20,munter,IAT_red2.bmp,red,ending_scream,scream,ending,m,positive,positive,ES_red,1,m,576,2208263,2208767,2208971
45,forth,21,krank,IAT_purple1.bmp,purple,starting_melody,melody,starting,c,negative,positive,ES_red,1,c,566,2210623,2211127,2211331
45,forth,22,einsam,IAT_yellow3.bmp,yellow,starting_scream,scream,starting,c,negative,negative,ES_red,0,m,611,2212972,2213476,2213680
45,forth,23,heiter,IAT_purple3.bmp,purple,starting_melody,melody,starting,m,positive,positive,ES_red,1,m,537,2215864,2216368,2216572
45,forth,24,sonnig,IAT_green1.bmp,green,ending_melody,melody,ending,m,positive,negative,ES_red,1,m,584,2218184,2218688,2218892
45,forth,25,morsch,IAT_yellow4.bmp,yellow,starting_scream,scream,starting,c,negative,negative,ES_red,1,c,581,2220551,2221056,2221260
45,forth,26,gesund,IAT_purple1.bmp,purple,starting_melody,melody,starting,m,positive,positive,ES_red,1,m,502,2222915,2223419,2223623
45,forth,27,munter,IAT_red1.bmp,red,ending_scream,scream,ending,m,positive,positive,ES_red,1,m,457,2225201,2225705,2225909
45,forth,28,falsch,IAT_red2.bmp,red,ending_scream,scream,ending,c,negative,positive,ES_red,1,c,467,2227440,2227944,2228148
45,forth,29,human,IAT_green1.bmp,green,ending_melody,melody,ending,m,positive,negative,ES_red,1,m,542,2229688,2230192,2230396
45,forth,30,lustig,IAT_purple3.bmp,purple,starting_melody,melody,starting,m,positive,positive,ES_red,1,m,604,2232013,2232517,2232721
45,forth,31,morsch,IAT_purple1.bmp,purple,starting_melody,melody,starting,c,negative,positive,ES_red,1,c,657,2234400,2234904,2235108
45,forth,32,brutal,IAT_red1.bmp,red,ending_scream,scream,ending,c,negative,positive,ES_red,1,c,967,2236839,2237343,2237547
45,forth,33,kaputt,IAT_yellow3.bmp,yellow,starting_scream,scream,starting,c,negative,negative,ES_red,1,c,483,2239589,2240093,2240297
45,forth,34,witzig,IAT_green3.bmp,green,ending_melody,melody,ending,m,positive,negative,ES_red,1,m,548,2241854,2242358,2242562
45,forth,35,human,IAT_purple3.bmp,purple,starting_melody,melody,starting,m,positive,positive,ES_red,1,m,566,2244185,2244689,2244893
45,forth,36,krank,IAT_yellow2.bmp,yellow,starting_scream,scream,starting,c,negative,negative,ES_red,1,c,535,2246534,2247038,2247242
45,forth,37,kaputt,IAT_red1.bmp,red,ending_scream,scream,ending,c,negative,positive,ES_red,0,m,453,2248852,2249356,2249560
45,forth,38,morsch,IAT_green3.bmp,green,ending_melody,melody,ending,c,negative,negative,ES_red,1,c,730,2251588,2252092,2252296
45,forth,39,teuer,IAT_red3.bmp,red,ending_scream,scream,ending,c,negative,positive,ES_red,1,c,622,2254101,2254606,2254810
45,forth,40,ehrlich,IAT_green1.bmp,green,ending_melody,melody,ending,m,positive,negative,ES_red,1,m,717,2256506,2257011,2257215
45,forth,41,sanft,IAT_purple4.bmp,purple,starting_melody,melody,starting,m,positive,positive,ES_red,1,m,863,2259006,2259510,2259714
45,forth,42,sozial,IAT_purple1.bmp,purple,starting_melody,melody,starting,m,positive,positive,ES_red,1,m,582,2261652,2262156,2262360
45,forth,43,lästig,IAT_yellow1.bmp,yellow,starting_scream,scream,starting,c,negative,negative,ES_red,1,c,764,2264017,2264521,2264725
45,forth,44,gerecht,IAT_yellow1.bmp,yellow,starting_scream,scream,starting,m,positive,negative,ES_red,1,m,555,2266564,2267068,2267272
45,forth,45,gesund,IAT_yellow3.bmp,yellow,starting_scream,scream,starting,m,positive,negative,ES_red,1,m,426,2268902,2269406,2269610
45,forth,46,gerecht,IAT_purple4.bmp,purple,starting_melody,melody,starting,m,positive,positive,ES_red,1,m,418,2271109,2271614,2271818
45,forth,47,human,IAT_purple3.bmp,purple,starting_melody,melody,starting,m,positive,positive,ES_red,1,m,621,2273311,2273815,2274019
45,forth,48,gierig,IAT_purple3.bmp,purple,starting_melody,melody,starting,c,negative,positive,ES_red,1,c,667,2275714,2276218,2276422
45,forth,49,ehrlich,IAT_green4.bmp,green,ending_melody,melody,ending,m,positive,negative,ES_red,1,m,577,2278163,2278667,2278871
45,forth,50,witzig,IAT_green2.bmp,green,ending_melody,melody,ending,m,positive,negative,ES_red,1,m,493,2280524,2281028,2281232
45,forth,51,sanft,IAT_yellow4.bmp,yellow,starting_scream,scream,starting,m,positive,negative,ES_red,1,m,574,2282800,2283304,2283508
45,forth,52,ehrlich,IAT_red3.bmp,red,ending_scream,scream,ending,m,positive,positive,ES_red,0,c,552,2285157,2285661,2285865
45,forth,53,lustig,IAT_red3.bmp,red,ending_scream,scream,ending,m,positive,positive,ES_red,1,m,417,2287992,2288496,2288700
45,forth,54,sonnig,IAT_red4.bmp,red,ending_scream,scream,ending,m,positive,positive,ES_red,1,m,464,2290193,2290697,2290901
45,forth,55,einsam,IAT_yellow1.bmp,yellow,starting_scream,scream,starting,c,negative,negative,ES_red,1,c,640,2292440,2292945,2293149
45,forth,56,brutal,IAT_purple2.bmp,purple,starting_melody,melody,starting,c,negative,positive,ES_red,0,m,345,2294864,2295368,2295572
45,forth,57,feige,IAT_red2.bmp,red,ending_scream,scream,ending,c,negative,positive,ES_red,0,m,822,2297492,2297996,2298200
45,forth,58,schön,IAT_red1.bmp,red,ending_scream,scream,ending,m,positive,positive,ES_red,1,m,515,2300597,2301101,2301305
45,forth,59,lästig,IAT_purple4.bmp,purple,starting_melody,melody,starting,c,negative,positive,ES_red,1,c,1187,2302894,2303398,2303602
45,forth,60,sozial,IAT_green4.bmp,green,ending_melody,melody,ending,m,positive,negative,ES_red,1,m,622,2305863,2306367,2306571
45,forth,61,heiter,IAT_yellow3.bmp,yellow,starting_scream,scream,starting,m,positive,negative,ES_red,1,m,713,2308268,2308773,2308977
45,forth,62,geizig,IAT_purple3.bmp,purple,starting_melody,melody,starting,c,negative,positive,ES_red,1,c,928,2310766,2311270,2311474
45,forth,63,teuer,IAT_red4.bmp,red,ending_scream,scream,ending,c,negative,positive,ES_red,0,m,598,2313476,2313980,2314184
45,forth,64,sozial,IAT_yellow2.bmp,yellow,starting_scream,scream,starting,m,positive,negative,ES_red,1,m,642,2316357,2316862,2317066
45,forth,65,ehrlich,IAT_yellow1.bmp,yellow,starting_scream,scream,starting,m,positive,negative,ES_red,1,m,509,2318783,2319287,2319491
45,forth,66,gierig,IAT_green1.bmp,green,ending_melody,melody,ending,c,negative,negative,ES_red,1,c,951,2321074,2321579,2321783
45,forth,67,brutal,IAT_purple2.bmp,purple,starting_melody,melody,starting,c,negative,positive,ES_red,1,c,741,2323810,2324314,2324518
45,forth,68,feige,IAT_green3.bmp,green,ending_melody,melody,ending,c,negative,negative,ES_red,1,c,672,2326334,2326838,2327042
45,forth,69,witzig,IAT_purple1.bmp,purple,starting_melody,melody,starting,m,positive,positive,ES_red,1,m,518,2328791,2329295,2329499
45,forth,70,heiter,IAT_green1.bmp,green,ending_melody,melody,ending,m,positive,negative,ES_red,1,m,563,2331092,2331596,2331800
45,forth,71,human,IAT_red3.bmp,red,ending_scream,scream,ending,m,positive,positive,ES_red,1,m,643,2333437,2333941,2334145
45,forth,72,lästig,IAT_green2.bmp,green,ending_melody,melody,ending,c,negative,negative,ES_red,0,m,406,2335863,2336367,2336571
45,forth,73,einsam,IAT_green2.bmp,green,ending_melody,melody,ending,c,negative,negative,ES_red,1,c,851,2338552,2339056,2339260
45,forth,74,sonnig,IAT_red1.bmp,red,ending_scream,scream,ending,m,positive,positive,ES_red,1,m,519,2341186,2341691,2341895
45,forth,75,heiter,IAT_purple2.bmp,purple,starting_melody,melody,starting,m,positive,positive,ES_red,1,m,705,2343491,2343995,2344199
45,forth,76,gerecht,IAT_yellow3.bmp,yellow,starting_scream,scream,starting,m,positive,negative,ES_red,1,m,763,2345980,2346485,2346689
45,forth,77,geizig,IAT_purple4.bmp,purple,starting_melody,melody,starting,c,negative,positive,ES_red,1,c,724,2348527,2349031,2349235
45,forth,78,lustig,IAT_green3.bmp,green,ending_melody,melody,ending,m,positive,negative,ES_red,1,m,813,2351034,2351538,2351742
45,forth,79,streng,IAT_yellow2.bmp,yellow,starting_scream,scream,starting,c,negative,negative,ES_red,1,c,689,2353631,2354135,2354339
45,forth,80,sanft,IAT_yellow1.bmp,yellow,starting_scream,scream,starting,m,positive,negative,ES_red,1,m,773,2356104,2356608,2356812
45,forth,81,falsch,IAT_green4.bmp,green,ending_melody,melody,ending,c,negative,negative,ES_red,1,c,478,2358661,2359165,2359369
45,forth,82,feige,IAT_yellow2.bmp,yellow,starting_scream,scream,starting,c,negative,negative,ES_red,1,c,492,2360922,2361426,2361630
45,forth,83,lustig,IAT_yellow1.bmp,yellow,starting_scream,scream,starting,m,positive,negative,ES_red,1,m,390,2363198,2363702,2363906
45,forth,84,falsch,IAT_purple2.bmp,purple,starting_melody,melody,starting,c,negative,positive,ES_red,1,c,582,2365371,2365876,2366080
45,forth,85,kaputt,IAT_green4.bmp,green,ending_melody,melody,ending,c,negative,negative,ES_red,1,c,589,2367737,2368241,2368445
45,forth,86,gierig,IAT_yellow4.bmp,yellow,starting_scream,scream,starting,c,negative,negative,ES_red,0,m,1251,2370110,2370614,2370818
45,forth,87,geizig,IAT_yellow4.bmp,yellow,starting_scream,scream,starting,c,negative,negative,ES_red,1,c,507,2373644,2374148,2374352
45,forth,88,kaputt,IAT_green4.bmp,green,ending_melody,melody,ending,c,negative,negative,ES_red,1,c,560,2375933,2376438,2376642
45,forth,89,krank,IAT_green4.bmp,green,ending_melody,melody,ending,c,negative,negative,ES_red,1,c,534,2378277,2378782,2378986
45,forth,90,gierig,IAT_purple2.bmp,purple,starting_melody,melody,starting,c,negative,positive,ES_red,1,c,616,2380595,2381099,2381303
45,forth,91,morsch,IAT_red3.bmp,red,ending_scream,scream,ending,c,negative,positive,ES_red,1,c,654,2382994,2383499,2383703
45,forth,92,brutal,IAT_yellow2.bmp,yellow,starting_scream,scream,starting,c,negative,negative,ES_red,1,c,506,2385434,2385938,2386142
45,forth,93,teuer,IAT_green2.bmp,green,ending_melody,melody,ending,c,negative,negative,ES_red,1,c,499,2387723,2388227,2388431
45,forth,94,streng,IAT_purple4.bmp,purple,starting_melody,melody,starting,c,negative,positive,ES_red,1,c,473,2390004,2390508,2390712
45,forth,95,teuer,IAT_purple4.bmp,purple,starting_melody,melody,starting,c,negative,positive,ES_red,1,c,531,2392261,2392765,2392969
