subject_nr,block,trialnr,trial_target,trial_prime,prime_color,prime_role,prime_us,prime_relation,correct_response,target_valence,prime_valence,color_counter,correct_first_response,response_first_response,response_time_first_response,fixation_show,prime_show,target_show
74,first,0,witzig,IAT_green1.bmp,green,starting_melody,melody,starting,m,positive,positive,ES_purple,1,m,654,1486994,1487498,1487702
74,first,1,ehrlich,IAT_yellow3.bmp,yellow,ending_melody,melody,ending,m,positive,negative,ES_purple,1,m,503,1489429,1489933,1490137
74,first,2,munter,IAT_yellow4.bmp,yellow,ending_melody,melody,ending,m,positive,negative,ES_purple,1,m,465,1491713,1492217,1492421
74,first,3,heiter,IAT_green1.bmp,green,starting_melody,melody,starting,m,positive,positive,ES_purple,1,m,476,1493960,1494464,1494668
74,first,4,gesund,IAT_yellow1.bmp,yellow,ending_melody,melody,ending,m,positive,negative,ES_purple,1,m,452,1496217,1496721,1496925
74,first,5,schön,IAT_purple4.bmp,purple,ending_scream,scream,ending,m,positive,positive,ES_purple,1,m,409,1498450,1498954,1499158
74,first,6,falsch,IAT_yellow4.bmp,yellow,ending_melody,melody,ending,c,negative,negative,ES_purple,1,c,542,1500641,1501145,1501349
74,first,7,teuer,IAT_red4.bmp,red,starting_scream,scream,starting,c,negative,negative,ES_purple,1,c,603,1502963,1503468,1503672
74,first,8,sozial,IAT_yellow1.bmp,yellow,ending_melody,melody,ending,m,positive,negative,ES_purple,1,m,631,1505348,1505852,1506056
74,first,9,schön,IAT_yellow2.bmp,yellow,ending_melody,melody,ending,m,positive,negative,ES_purple,1,m,462,1507760,1508264,1508468
74,first,10,sanft,IAT_red3.bmp,red,starting_scream,scream,starting,m,positive,negative,ES_purple,1,m,443,1510003,1510507,1510711
74,first,11,feige,IAT_yellow2.bmp,yellow,ending_melody,melody,ending,c,negative,negative,ES_purple,1,c,518,1512227,1512731,1512935
74,first,12,gesund,IAT_yellow1.bmp,yellow,ending_melody,melody,ending,m,positive,negative,ES_purple,1,m,485,1514526,1515030,1515234
74,first,13,ehrlich,IAT_red4.bmp,red,starting_scream,scream,starting,m,positive,negative,ES_purple,1,m,459,1516792,1517296,1517500
74,first,14,gerecht,IAT_red2.bmp,red,starting_scream,scream,starting,m,positive,negative,ES_purple,1,m,670,1519033,1519537,1519741
74,first,15,gierig,IAT_purple4.bmp,purple,ending_scream,scream,ending,c,negative,positive,ES_purple,1,c,534,1521483,1521987,1522191
74,first,16,lustig,IAT_green1.bmp,green,starting_melody,melody,starting,m,positive,positive,ES_purple,1,m,460,1523799,1524303,1524507
74,first,17,ehrlich,IAT_purple2.bmp,purple,ending_scream,scream,ending,m,positive,positive,ES_purple,1,m,528,1526041,1526545,1526749
74,first,18,sozial,IAT_red3.bmp,red,starting_scream,scream,starting,m,positive,negative,ES_purple,1,m,516,1528350,1528854,1529058
74,first,19,geizig,IAT_yellow2.bmp,yellow,ending_melody,melody,ending,c,negative,negative,ES_purple,1,c,632,1530647,1531151,1531355
74,first,20,morsch,IAT_green2.bmp,green,starting_melody,melody,starting,c,negative,positive,ES_purple,1,c,845,1533060,1533564,1533768
74,first,21,geizig,IAT_red2.bmp,red,starting_scream,scream,starting,c,negative,negative,ES_purple,1,c,625,1535686,1536190,1536394
74,first,22,einsam,IAT_purple2.bmp,purple,ending_scream,scream,ending,c,negative,positive,ES_purple,1,c,679,1538092,1538596,1538800
74,first,23,krank,IAT_red2.bmp,red,starting_scream,scream,starting,c,negative,negative,ES_purple,1,c,501,1540552,1541056,1541260
74,first,24,heiter,IAT_yellow3.bmp,yellow,ending_melody,melody,ending,m,positive,negative,ES_purple,1,m,645,1542834,1543338,1543542
74,first,25,falsch,IAT_yellow4.bmp,yellow,ending_melody,melody,ending,c,negative,negative,ES_purple,1,c,684,1545260,1545764,1545968
74,first,26,morsch,IAT_red4.bmp,red,starting_scream,scream,starting,c,negative,negative,ES_purple,1,c,604,1547726,1548230,1548434
74,first,27,sanft,IAT_purple4.bmp,purple,ending_scream,scream,ending,m,positive,positive,ES_purple,1,m,491,1550111,1550616,1550820
74,first,28,sonnig,IAT_green4.bmp,green,starting_melody,melody,starting,m,positive,positive,ES_purple,1,m,345,1552383,1552887,1553091
74,first,29,gierig,IAT_green3.bmp,green,starting_melody,melody,starting,c,negative,positive,ES_purple,1,c,530,1554509,1555013,1555217
74,first,30,lustig,IAT_green3.bmp,green,starting_melody,melody,starting,m,positive,positive,ES_purple,1,m,416,1556820,1557325,1557529
74,first,31,einsam,IAT_yellow2.bmp,yellow,ending_melody,melody,ending,c,negative,negative,ES_purple,1,c,586,1559017,1559522,1559726
74,first,32,munter,IAT_purple2.bmp,purple,ending_scream,scream,ending,m,positive,positive,ES_purple,1,m,432,1561385,1561890,1562094
74,first,33,lustig,IAT_green3.bmp,green,starting_melody,melody,starting,m,positive,positive,ES_purple,1,m,552,1563600,1564105,1564309
74,first,34,ehrlich,IAT_purple1.bmp,purple,ending_scream,scream,ending,m,positive,positive,ES_purple,1,m,462,1565935,1566439,1566643
74,first,35,heiter,IAT_green2.bmp,green,starting_melody,melody,starting,m,positive,positive,ES_purple,1,m,405,1568178,1568682,1568886
74,first,36,streng,IAT_red4.bmp,red,starting_scream,scream,starting,c,negative,negative,ES_purple,1,c,600,1570364,1570868,1571072
74,first,37,teuer,IAT_purple2.bmp,purple,ending_scream,scream,ending,c,negative,positive,ES_purple,1,c,783,1572746,1573250,1573454
74,first,38,lästig,IAT_red4.bmp,red,starting_scream,scream,starting,c,negative,negative,ES_purple,0,m,732,1575313,1575817,1576021
74,first,39,human,IAT_purple3.bmp,purple,ending_scream,scream,ending,m,positive,positive,ES_purple,1,m,551,1578325,1578830,1579034
74,first,40,kaputt,IAT_yellow4.bmp,yellow,ending_melody,melody,ending,c,negative,negative,ES_purple,1,c,778,1580659,1581164,1581368
74,first,41,sanft,IAT_yellow3.bmp,yellow,ending_melody,melody,ending,m,positive,negative,ES_purple,1,m,770,1583219,1583723,1583927
74,first,42,lästig,IAT_purple3.bmp,purple,ending_scream,scream,ending,c,negative,positive,ES_purple,1,c,627,1585769,1586274,1586478
74,first,43,kaputt,IAT_purple4.bmp,purple,ending_scream,scream,ending,c,negative,positive,ES_purple,1,c,545,1588178,1588683,1588887
74,first,44,witzig,IAT_green4.bmp,green,starting_melody,melody,starting,m,positive,positive,ES_purple,1,m,587,1590506,1591010,1591214
74,first,45,morsch,IAT_green4.bmp,green,starting_melody,melody,starting,c,negative,positive,ES_purple,0,m,460,1592874,1593378,1593582
74,first,46,human,IAT_purple1.bmp,purple,ending_scream,scream,ending,m,positive,positive,ES_purple,1,m,569,1595615,1596119,1596323
74,first,47,krank,IAT_green3.bmp,green,starting_melody,melody,starting,c,negative,positive,ES_purple,1,c,407,1597965,1598469,1598673
74,first,48,gerecht,IAT_green3.bmp,green,starting_melody,melody,starting,m,positive,positive,ES_purple,1,m,670,1600153,1600657,1600861
74,first,49,feige,IAT_red2.bmp,red,starting_scream,scream,starting,c,negative,negative,ES_purple,1,c,450,1602604,1603108,1603312
74,first,50,brutal,IAT_red3.bmp,red,starting_scream,scream,starting,c,negative,negative,ES_purple,1,c,622,1604834,1605339,1605543
74,first,51,sonnig,IAT_green2.bmp,green,starting_melody,melody,starting,m,positive,positive,ES_purple,1,m,471,1607237,1607741,1607945
74,first,52,falsch,IAT_green1.bmp,green,starting_melody,melody,starting,c,negative,positive,ES_purple,1,c,519,1609488,1609992,1610196
74,first,53,lästig,IAT_red1.bmp,red,starting_scream,scream,starting,c,negative,negative,ES_purple,1,c,656,1611788,1612292,1612496
74,first,54,brutal,IAT_purple2.bmp,purple,ending_scream,scream,ending,c,negative,positive,ES_purple,1,c,551,1614225,1614729,1614933
74,first,55,einsam,IAT_green2.bmp,green,starting_melody,melody,starting,c,negative,positive,ES_purple,1,c,581,1616557,1617061,1617265
74,first,56,morsch,IAT_yellow3.bmp,yellow,ending_melody,melody,ending,c,negative,negative,ES_purple,1,c,569,1618920,1619424,1619628
74,first,57,einsam,IAT_yellow1.bmp,yellow,ending_melody,melody,ending,c,negative,negative,ES_purple,1,c,557,1621270,1621774,1621978
74,first,58,munter,IAT_red1.bmp,red,starting_scream,scream,starting,m,positive,negative,ES_purple,1,m,598,1623609,1624113,1624317
74,first,59,kaputt,IAT_red2.bmp,red,starting_scream,scream,starting,c,negative,negative,ES_purple,1,c,574,1625989,1626493,1626697
74,first,60,teuer,IAT_purple2.bmp,purple,ending_scream,scream,ending,c,negative,positive,ES_purple,1,c,598,1628345,1628849,1629053
74,first,61,streng,IAT_red1.bmp,red,starting_scream,scream,starting,c,negative,negative,ES_purple,1,c,415,1630724,1631229,1631433
74,first,62,sozial,IAT_yellow1.bmp,yellow,ending_melody,melody,ending,m,positive,negative,ES_purple,1,m,569,1632922,1633426,1633630
74,first,63,geizig,IAT_green2.bmp,green,starting_melody,melody,starting,c,negative,positive,ES_purple,1,c,545,1635273,1635777,1635981
74,first,64,human,IAT_green3.bmp,green,starting_melody,melody,starting,m,positive,positive,ES_purple,1,m,525,1637600,1638104,1638308
74,first,65,gierig,IAT_yellow3.bmp,yellow,ending_melody,melody,ending,c,negative,negative,ES_purple,1,c,1028,1639906,1640411,1640615
74,first,66,geizig,IAT_red3.bmp,red,starting_scream,scream,starting,c,negative,negative,ES_purple,1,c,473,1642717,1643221,1643425
74,first,67,gesund,IAT_red1.bmp,red,starting_scream,scream,starting,m,positive,negative,ES_purple,1,m,597,1644972,1645476,1645680
74,first,68,gierig,IAT_yellow2.bmp,yellow,ending_melody,melody,ending,c,negative,negative,ES_purple,1,c,473,1647351,1647855,1648059
74,first,69,kaputt,IAT_yellow4.bmp,yellow,ending_melody,melody,ending,c,negative,negative,ES_purple,1,c,530,1649606,1650110,1650314
74,first,70,lästig,IAT_green4.bmp,green,starting_melody,melody,starting,c,negative,positive,ES_purple,0,m,622,1651919,1652423,1652627
74,first,71,streng,IAT_purple4.bmp,purple,ending_scream,scream,ending,c,negative,positive,ES_purple,1,c,488,1654822,1655326,1655530
74,first,72,krank,IAT_purple4.bmp,purple,ending_scream,scream,ending,c,negative,positive,ES_purple,1,c,369,1657091,1657596,1657800
74,first,73,feige,IAT_green4.bmp,green,starting_melody,melody,starting,c,negative,positive,ES_purple,1,c,461,1659243,1659747,1659951
74,first,74,schön,IAT_purple3.bmp,purple,ending_scream,scream,ending,m,positive,positive,ES_purple,0,c,351,1661485,1661990,1662194
74,first,75,sonnig,IAT_red1.bmp,red,starting_scream,scream,starting,m,positive,negative,ES_purple,1,m,711,1664117,1664622,1664826
74,first,76,brutal,IAT_yellow1.bmp,yellow,ending_melody,melody,ending,c,negative,negative,ES_purple,1,c,476,1666613,1667117,1667321
74,first,77,gesund,IAT_red2.bmp,red,starting_scream,scream,starting,m,positive,negative,ES_purple,1,m,447,1668871,1669375,1669579
74,first,78,sozial,IAT_red4.bmp,red,starting_scream,scream,starting,m,positive,negative,ES_purple,0,c,366,1671100,1671604,1671808
74,first,79,witzig,IAT_green1.bmp,green,starting_melody,melody,starting,m,positive,positive,ES_purple,1,m,591,1673747,1674252,1674456
74,first,80,sonnig,IAT_yellow2.bmp,yellow,ending_melody,melody,ending,m,positive,negative,ES_purple,1,m,361,1676121,1676626,1676830
74,first,81,streng,IAT_green2.bmp,green,starting_melody,melody,starting,c,negative,positive,ES_purple,1,c,504,1678264,1678768,1678972
74,first,82,heiter,IAT_red3.bmp,red,starting_scream,scream,starting,m,positive,negative,ES_purple,0,c,519,1680550,1681054,1681258
74,first,83,munter,IAT_red3.bmp,red,starting_scream,scream,starting,m,positive,negative,ES_purple,1,m,558,1683351,1683855,1684059
74,first,84,gerecht,IAT_yellow4.bmp,yellow,ending_melody,melody,ending,m,positive,negative,ES_purple,0,c,372,1685691,1686195,1686399
74,first,85,schön,IAT_purple1.bmp,purple,ending_scream,scream,ending,m,positive,positive,ES_purple,1,m,529,1688345,1688849,1689053
74,first,86,feige,IAT_green1.bmp,green,starting_melody,melody,starting,c,negative,positive,ES_purple,1,c,519,1690656,1691161,1691365
74,first,87,human,IAT_purple3.bmp,purple,ending_scream,scream,ending,m,positive,positive,ES_purple,1,m,535,1692957,1693461,1693665
74,first,88,sanft,IAT_purple1.bmp,purple,ending_scream,scream,ending,m,positive,positive,ES_purple,0,c,433,1695273,1695778,1695982
74,first,89,witzig,IAT_red1.bmp,red,starting_scream,scream,starting,m,positive,negative,ES_purple,1,m,531,1697989,1698493,1698697
74,first,90,gerecht,IAT_purple3.bmp,purple,ending_scream,scream,ending,m,positive,positive,ES_purple,1,m,626,1700301,1700805,1701009
74,first,91,teuer,IAT_green4.bmp,green,starting_melody,melody,starting,c,negative,positive,ES_purple,0,m,516,1702708,1703213,1703417
74,first,92,krank,IAT_purple3.bmp,purple,ending_scream,scream,ending,c,negative,positive,ES_purple,1,c,683,1705507,1706011,1706215
74,first,93,lustig,IAT_yellow3.bmp,yellow,ending_melody,melody,ending,m,positive,negative,ES_purple,1,m,625,1707972,1708476,1708680
74,first,94,falsch,IAT_purple1.bmp,purple,ending_scream,scream,ending,c,negative,positive,ES_purple,1,c,509,1710379,1710883,1711087
74,first,95,brutal,IAT_purple1.bmp,purple,ending_scream,scream,ending,c,negative,positive,ES_purple,1,c,411,1712671,1713175,1713379
74,second,0,witzig,IAT_green1.bmp,green,starting_melody,melody,starting,m,positive,positive,ES_purple,1,m,515,1730130,1730634,1730838
74,second,1,sanft,IAT_purple4.bmp,purple,ending_scream,scream,ending,m,positive,positive,ES_purple,0,c,333,1732425,1732930,1733134
74,second,2,gerecht,IAT_red4.bmp,red,starting_scream,scream,starting,m,positive,negative,ES_purple,1,m,635,1735040,1735545,1735749
74,second,3,krank,IAT_yellow2.bmp,yellow,ending_melody,melody,ending,c,negative,negative,ES_purple,1,c,442,1737458,1737962,1738166
74,second,4,lästig,IAT_purple4.bmp,purple,ending_scream,scream,ending,c,negative,positive,ES_purple,1,c,590,1739681,1740185,1740389
74,second,5,morsch,IAT_green3.bmp,green,starting_melody,melody,starting,c,negative,positive,ES_purple,1,c,567,1742052,1742556,1742760
74,second,6,gesund,IAT_purple1.bmp,purple,ending_scream,scream,ending,m,positive,positive,ES_purple,1,m,497,1744401,1744905,1745109
74,second,7,ehrlich,IAT_red2.bmp,red,starting_scream,scream,starting,m,positive,negative,ES_purple,0,c,355,1746679,1747183,1747387
74,second,8,teuer,IAT_purple2.bmp,purple,ending_scream,scream,ending,c,negative,positive,ES_purple,0,m,511,1749316,1749820,1750024
74,second,9,sozial,IAT_green3.bmp,green,starting_melody,melody,starting,m,positive,positive,ES_purple,1,m,476,1752108,1752612,1752816
74,second,10,gerecht,IAT_yellow1.bmp,yellow,ending_melody,melody,ending,m,positive,negative,ES_purple,0,c,559,1754366,1754870,1755074
74,second,11,kaputt,IAT_purple4.bmp,purple,ending_scream,scream,ending,c,negative,positive,ES_purple,1,c,678,1757206,1757710,1757914
74,second,12,lustig,IAT_green3.bmp,green,starting_melody,melody,starting,m,positive,positive,ES_purple,1,m,460,1759666,1760170,1760374
74,second,13,gierig,IAT_red4.bmp,red,starting_scream,scream,starting,c,negative,negative,ES_purple,1,c,561,1761907,1762412,1762616
74,second,14,gerecht,IAT_purple3.bmp,purple,ending_scream,scream,ending,m,positive,positive,ES_purple,1,m,879,1764250,1764754,1764958
74,second,15,brutal,IAT_red1.bmp,red,starting_scream,scream,starting,c,negative,negative,ES_purple,1,c,720,1766910,1767414,1767618
74,second,16,kaputt,IAT_red3.bmp,red,starting_scream,scream,starting,c,negative,negative,ES_purple,1,c,418,1769412,1769916,1770120
74,second,17,teuer,IAT_purple2.bmp,purple,ending_scream,scream,ending,c,negative,positive,ES_purple,1,c,742,1771611,1772116,1772320
74,second,18,gesund,IAT_yellow3.bmp,yellow,ending_melody,melody,ending,m,positive,negative,ES_purple,1,m,801,1774135,1774639,1774843
74,second,19,feige,IAT_green1.bmp,green,starting_melody,melody,starting,c,negative,positive,ES_purple,1,c,536,1776717,1777221,1777425
74,second,20,sonnig,IAT_purple4.bmp,purple,ending_scream,scream,ending,m,positive,positive,ES_purple,1,m,507,1779033,1779537,1779741
74,second,21,munter,IAT_red1.bmp,red,starting_scream,scream,starting,m,positive,negative,ES_purple,1,m,518,1781322,1781827,1782031
74,second,22,geizig,IAT_red2.bmp,red,starting_scream,scream,starting,c,negative,negative,ES_purple,1,c,687,1783623,1784127,1784331
74,second,23,sanft,IAT_green3.bmp,green,starting_melody,melody,starting,m,positive,positive,ES_purple,1,m,395,1786091,1786595,1786799
74,second,24,human,IAT_red4.bmp,red,starting_scream,scream,starting,m,positive,negative,ES_purple,1,m,518,1788267,1788771,1788975
74,second,25,falsch,IAT_yellow4.bmp,yellow,ending_melody,melody,ending,c,negative,negative,ES_purple,1,c,477,1790567,1791071,1791275
74,second,26,kaputt,IAT_purple3.bmp,purple,ending_scream,scream,ending,c,negative,positive,ES_purple,0,m,440,1792826,1793330,1793534
74,second,27,feige,IAT_red4.bmp,red,starting_scream,scream,starting,c,negative,negative,ES_purple,1,c,556,1795547,1796052,1796256
74,second,28,einsam,IAT_purple4.bmp,purple,ending_scream,scream,ending,c,negative,positive,ES_purple,1,c,628,1797886,1798390,1798594
74,second,29,gesund,IAT_yellow4.bmp,yellow,ending_melody,melody,ending,m,positive,negative,ES_purple,1,m,550,1800296,1800800,1801004
74,second,30,streng,IAT_red3.bmp,red,starting_scream,scream,starting,c,negative,negative,ES_purple,1,c,455,1802628,1803132,1803336
74,second,31,witzig,IAT_yellow3.bmp,yellow,ending_melody,melody,ending,m,positive,negative,ES_purple,1,m,687,1804864,1805368,1805572
74,second,32,brutal,IAT_yellow1.bmp,yellow,ending_melody,melody,ending,c,negative,negative,ES_purple,1,c,694,1807332,1807836,1808040
74,second,33,teuer,IAT_green4.bmp,green,starting_melody,melody,starting,c,negative,positive,ES_purple,0,m,478,1809807,1810311,1810515
74,second,34,lästig,IAT_yellow4.bmp,yellow,ending_melody,melody,ending,c,negative,negative,ES_purple,1,c,666,1812567,1813071,1813275
74,second,35,sanft,IAT_red1.bmp,red,starting_scream,scream,starting,m,positive,negative,ES_purple,1,m,605,1815015,1815519,1815723
74,second,36,schön,IAT_yellow2.bmp,yellow,ending_melody,melody,ending,m,positive,negative,ES_purple,0,c,373,1817402,1817906,1818110
74,second,37,sonnig,IAT_yellow4.bmp,yellow,ending_melody,melody,ending,m,positive,negative,ES_purple,1,m,595,1820057,1820561,1820765
74,second,38,streng,IAT_yellow3.bmp,yellow,ending_melody,melody,ending,c,negative,negative,ES_purple,1,c,435,1822432,1822937,1823141
74,second,39,krank,IAT_red4.bmp,red,starting_scream,scream,starting,c,negative,negative,ES_purple,1,c,456,1824650,1825154,1825358
74,second,40,morsch,IAT_purple3.bmp,purple,ending_scream,scream,ending,c,negative,positive,ES_purple,1,c,480,1826887,1827391,1827595
74,second,41,falsch,IAT_green4.bmp,green,starting_melody,melody,starting,c,negative,positive,ES_purple,1,c,491,1829149,1829653,1829857
74,second,42,ehrlich,IAT_yellow3.bmp,yellow,ending_melody,melody,ending,m,positive,negative,ES_purple,1,m,492,1831422,1831926,1832130
74,second,43,gierig,IAT_yellow1.bmp,yellow,ending_melody,melody,ending,c,negative,negative,ES_purple,1,c,794,1833696,1834200,1834404
74,second,44,schön,IAT_yellow1.bmp,yellow,ending_melody,melody,ending,m,positive,negative,ES_purple,1,m,626,1836272,1836776,1836980
74,second,45,einsam,IAT_green2.bmp,green,starting_melody,melody,starting,c,negative,positive,ES_purple,1,c,557,1838679,1839184,1839388
74,second,46,kaputt,IAT_green2.bmp,green,starting_melody,melody,starting,c,negative,positive,ES_purple,1,c,601,1841019,1841523,1841727
74,second,47,geizig,IAT_yellow2.bmp,yellow,ending_melody,melody,ending,c,negative,negative,ES_purple,1,c,556,1843402,1843906,1844110
74,second,48,brutal,IAT_green4.bmp,green,starting_melody,melody,starting,c,negative,positive,ES_purple,1,c,444,1845741,1846245,1846449
74,second,49,munter,IAT_purple1.bmp,purple,ending_scream,scream,ending,m,positive,positive,ES_purple,0,c,558,1847967,1848471,1848675
74,second,50,heiter,IAT_red1.bmp,red,starting_scream,scream,starting,m,positive,negative,ES_purple,1,m,712,1850807,1851311,1851515
74,second,51,sozial,IAT_purple2.bmp,purple,ending_scream,scream,ending,m,positive,positive,ES_purple,1,m,922,1853302,1853806,1854010
74,second,52,geizig,IAT_purple2.bmp,purple,ending_scream,scream,ending,c,negative,positive,ES_purple,1,c,559,1856006,1856510,1856714
74,second,53,feige,IAT_yellow4.bmp,yellow,ending_melody,melody,ending,c,negative,negative,ES_purple,1,c,856,1858347,1858851,1859055
74,second,54,lästig,IAT_green1.bmp,green,starting_melody,melody,starting,c,negative,positive,ES_purple,1,c,586,1860984,1861488,1861692
74,second,55,falsch,IAT_green3.bmp,green,starting_melody,melody,starting,c,negative,positive,ES_purple,1,c,489,1863352,1863856,1864060
74,second,56,feige,IAT_yellow4.bmp,yellow,ending_melody,melody,ending,c,negative,negative,ES_purple,1,c,524,1865623,1866127,1866331
74,second,57,human,IAT_yellow1.bmp,yellow,ending_melody,melody,ending,m,positive,negative,ES_purple,1,m,555,1867929,1868433,1868637
74,second,58,sonnig,IAT_red3.bmp,red,starting_scream,scream,starting,m,positive,negative,ES_purple,1,m,540,1870266,1870770,1870974
74,second,59,lustig,IAT_purple3.bmp,purple,ending_scream,scream,ending,m,positive,positive,ES_purple,1,m,705,1872587,1873092,1873296
74,second,60,ehrlich,IAT_red2.bmp,red,starting_scream,scream,starting,m,positive,negative,ES_purple,0,c,467,1875075,1875579,1875783
74,second,61,munter,IAT_green2.bmp,green,starting_melody,melody,starting,m,positive,positive,ES_purple,1,m,385,1877823,1878327,1878531
74,second,62,ehrlich,IAT_purple1.bmp,purple,ending_scream,scream,ending,m,positive,positive,ES_purple,1,m,441,1879991,1880495,1880699
74,second,63,schön,IAT_green4.bmp,green,starting_melody,melody,starting,m,positive,positive,ES_purple,1,m,399,1882215,1882719,1882923
74,second,64,human,IAT_red1.bmp,red,starting_scream,scream,starting,m,positive,negative,ES_purple,1,m,573,1884396,1884900,1885104
74,second,65,gerecht,IAT_green2.bmp,green,starting_melody,melody,starting,m,positive,positive,ES_purple,1,m,901,1886751,1887255,1887459
74,second,66,heiter,IAT_purple3.bmp,purple,ending_scream,scream,ending,m,positive,positive,ES_purple,1,m,513,1889434,1889938,1890142
74,second,67,streng,IAT_green2.bmp,green,starting_melody,melody,starting,c,negative,positive,ES_purple,1,c,521,1891730,1892234,1892438
74,second,68,munter,IAT_purple1.bmp,purple,ending_scream,scream,ending,m,positive,positive,ES_purple,1,m,683,1894033,1894537,1894741
74,second,69,einsam,IAT_green4.bmp,green,starting_melody,melody,starting,c,negative,positive,ES_purple,1,c,468,1896498,1897002,1897206
74,second,70,krank,IAT_red1.bmp,red,starting_scream,scream,starting,c,negative,negative,ES_purple,1,c,433,1898749,1899253,1899457
74,second,71,heiter,IAT_yellow3.bmp,yellow,ending_melody,melody,ending,m,positive,negative,ES_purple,1,m,551,1900964,1901468,1901672
74,second,72,lustig,IAT_yellow1.bmp,yellow,ending_melody,melody,ending,m,positive,negative,ES_purple,1,m,403,1903297,1903801,1904005
74,second,73,heiter,IAT_green4.bmp,green,starting_melody,melody,starting,m,positive,positive,ES_purple,1,m,525,1905483,1905987,1906191
74,second,74,lästig,IAT_yellow2.bmp,yellow,ending_melody,melody,ending,c,negative,negative,ES_purple,1,c,490,1907791,1908295,1908499
74,second,75,sanft,IAT_purple3.bmp,purple,ending_scream,scream,ending,m,positive,positive,ES_purple,1,m,539,1910062,1910566,1910770
74,second,76,krank,IAT_red4.bmp,red,starting_scream,scream,starting,c,negative,negative,ES_purple,1,c,459,1912383,1912887,1913091
74,second,77,gesund,IAT_yellow2.bmp,yellow,ending_melody,melody,ending,m,positive,negative,ES_purple,1,m,545,1914624,1915129,1915333
74,second,78,lustig,IAT_purple2.bmp,purple,ending_scream,scream,ending,m,positive,positive,ES_purple,1,m,508,1916952,1917456,1917660
74,second,79,teuer,IAT_purple1.bmp,purple,ending_scream,scream,ending,c,negative,positive,ES_purple,0,m,316,1919242,1919746,1919950
74,second,80,sozial,IAT_red3.bmp,red,starting_scream,scream,starting,m,positive,negative,ES_purple,1,m,583,1921841,1922346,1922550
74,second,81,morsch,IAT_purple1.bmp,purple,ending_scream,scream,ending,c,negative,positive,ES_purple,1,c,423,1924207,1924711,1924915
74,second,82,witzig,IAT_red3.bmp,red,starting_scream,scream,starting,m,positive,negative,ES_purple,1,m,591,1926412,1926916,1927120
74,second,83,streng,IAT_purple2.bmp,purple,ending_scream,scream,ending,c,negative,positive,ES_purple,1,c,487,1928785,1929289,1929493
74,second,84,geizig,IAT_purple4.bmp,purple,ending_scream,scream,ending,c,negative,positive,ES_purple,1,c,651,1931054,1931558,1931762
74,second,85,morsch,IAT_red2.bmp,red,starting_scream,scream,starting,c,negative,negative,ES_purple,1,c,504,1933487,1933991,1934195
74,second,86,sonnig,IAT_green1.bmp,green,starting_melody,melody,starting,m,positive,positive,ES_purple,1,m,449,1935772,1936277,1936481
74,second,87,gierig,IAT_red2.bmp,red,starting_scream,scream,starting,c,negative,negative,ES_purple,1,c,500,1938004,1938508,1938712
74,second,88,sozial,IAT_green3.bmp,green,starting_melody,melody,starting,m,positive,positive,ES_purple,1,m,444,1940287,1940791,1940995
74,second,89,brutal,IAT_green2.bmp,green,starting_melody,melody,starting,c,negative,positive,ES_purple,1,c,550,1942513,1943018,1943222
74,second,90,human,IAT_green1.bmp,green,starting_melody,melody,starting,m,positive,positive,ES_purple,1,m,478,1944845,1945350,1945554
74,second,91,gierig,IAT_red2.bmp,red,starting_scream,scream,starting,c,negative,negative,ES_purple,1,c,390,1947106,1947610,1947814
74,second,92,schön,IAT_red3.bmp,red,starting_scream,scream,starting,m,positive,negative,ES_purple,1,m,543,1949278,1949782,1949986
74,second,93,einsam,IAT_yellow3.bmp,yellow,ending_melody,melody,ending,c,negative,negative,ES_purple,1,c,499,1951603,1952107,1952311
74,second,94,falsch,IAT_yellow2.bmp,yellow,ending_melody,melody,ending,c,negative,negative,ES_purple,1,c,490,1953883,1954388,1954592
74,second,95,witzig,IAT_green1.bmp,green,starting_melody,melody,starting,m,positive,positive,ES_purple,1,m,697,1956157,1956661,1956865
74,third,0,einsam,IAT_green1.bmp,green,starting_melody,melody,starting,c,negative,positive,ES_purple,1,c,574,1980555,1981059,1981263
74,third,1,ehrlich,IAT_purple4.bmp,purple,ending_scream,scream,ending,m,positive,positive,ES_purple,1,m,494,1982910,1983415,1983619
74,third,2,witzig,IAT_purple4.bmp,purple,ending_scream,scream,ending,m,positive,positive,ES_purple,1,m,625,1985186,1985691,1985895
74,third,3,lustig,IAT_purple1.bmp,purple,ending_scream,scream,ending,m,positive,positive,ES_purple,1,m,444,1987594,1988098,1988302
74,third,4,geizig,IAT_red4.bmp,red,starting_scream,scream,starting,c,negative,negative,ES_purple,1,c,444,1989819,1990324,1990528
74,third,5,morsch,IAT_yellow1.bmp,yellow,ending_melody,melody,ending,c,negative,negative,ES_purple,1,c,442,1992046,1992550,1992754
74,third,6,kaputt,IAT_purple1.bmp,purple,ending_scream,scream,ending,c,negative,positive,ES_purple,1,c,460,1994269,1994774,1994978
74,third,7,human,IAT_yellow1.bmp,yellow,ending_melody,melody,ending,m,positive,negative,ES_purple,1,m,477,1996512,1997016,1997220
74,third,8,schön,IAT_purple1.bmp,purple,ending_scream,scream,ending,m,positive,positive,ES_purple,1,m,354,1998771,1999275,1999479
74,third,9,feige,IAT_red2.bmp,red,starting_scream,scream,starting,c,negative,negative,ES_purple,1,c,326,2000906,2001411,2001615
74,third,10,sonnig,IAT_yellow4.bmp,yellow,ending_melody,melody,ending,m,positive,negative,ES_purple,1,m,589,2003015,2003519,2003723
74,third,11,falsch,IAT_purple2.bmp,purple,ending_scream,scream,ending,c,negative,positive,ES_purple,1,c,440,2005386,2005890,2006094
74,third,12,ehrlich,IAT_red1.bmp,red,starting_scream,scream,starting,m,positive,negative,ES_purple,1,m,439,2007608,2008112,2008316
74,third,13,sonnig,IAT_red3.bmp,red,starting_scream,scream,starting,m,positive,negative,ES_purple,0,c,379,2009828,2010333,2010537
74,third,14,schön,IAT_red3.bmp,red,starting_scream,scream,starting,m,positive,negative,ES_purple,1,m,407,2012490,2012994,2013198
74,third,15,streng,IAT_purple3.bmp,purple,ending_scream,scream,ending,c,negative,positive,ES_purple,1,c,470,2014678,2015182,2015386
74,third,16,gesund,IAT_yellow2.bmp,yellow,ending_melody,melody,ending,m,positive,negative,ES_purple,1,m,480,2016930,2017434,2017638
74,third,17,feige,IAT_purple4.bmp,purple,ending_scream,scream,ending,c,negative,positive,ES_purple,1,c,362,2019192,2019696,2019900
74,third,18,morsch,IAT_red2.bmp,red,starting_scream,scream,starting,c,negative,negative,ES_purple,1,c,477,2021335,2021840,2022044
74,third,19,munter,IAT_purple1.bmp,purple,ending_scream,scream,ending,m,positive,positive,ES_purple,0,c,494,2023595,2024099,2024303
74,third,20,ehrlich,IAT_red4.bmp,red,starting_scream,scream,starting,m,positive,negative,ES_purple,1,m,447,2026371,2026875,2027079
74,third,21,heiter,IAT_green2.bmp,green,starting_melody,melody,starting,m,positive,positive,ES_purple,1,m,588,2028599,2029103,2029307
74,third,22,teuer,IAT_purple4.bmp,purple,ending_scream,scream,ending,c,negative,positive,ES_purple,1,c,454,2030968,2031472,2031676
74,third,23,krank,IAT_purple2.bmp,purple,ending_scream,scream,ending,c,negative,positive,ES_purple,1,c,518,2033204,2033708,2033912
74,third,24,sozial,IAT_green4.bmp,green,starting_melody,melody,starting,m,positive,positive,ES_purple,1,m,441,2035503,2036007,2036211
74,third,25,munter,IAT_red2.bmp,red,starting_scream,scream,starting,m,positive,negative,ES_purple,1,m,447,2037725,2038230,2038434
74,third,26,kaputt,IAT_purple4.bmp,purple,ending_scream,scream,ending,c,negative,positive,ES_purple,1,c,468,2039955,2040459,2040663
74,third,27,einsam,IAT_yellow4.bmp,yellow,ending_melody,melody,ending,c,negative,negative,ES_purple,1,c,455,2042205,2042709,2042913
74,third,28,streng,IAT_green2.bmp,green,starting_melody,melody,starting,c,negative,positive,ES_purple,1,c,436,2044441,2044946,2045150
74,third,29,sanft,IAT_green1.bmp,green,starting_melody,melody,starting,m,positive,positive,ES_purple,1,m,561,2046660,2047164,2047368
74,third,30,lästig,IAT_purple1.bmp,purple,ending_scream,scream,ending,c,negative,positive,ES_purple,1,c,497,2049002,2049507,2049711
74,third,31,kaputt,IAT_green4.bmp,green,starting_melody,melody,starting,c,negative,positive,ES_purple,1,c,579,2051281,2051786,2051990
74,third,32,gierig,IAT_green3.bmp,green,starting_melody,melody,starting,c,negative,positive,ES_purple,0,m,481,2053643,2054147,2054351
74,third,33,human,IAT_yellow2.bmp,yellow,ending_melody,melody,ending,m,positive,negative,ES_purple,1,m,664,2056406,2056910,2057114
74,third,34,lästig,IAT_red2.bmp,red,starting_scream,scream,starting,c,negative,negative,ES_purple,1,c,367,2058852,2059357,2059561
74,third,35,heiter,IAT_yellow1.bmp,yellow,ending_melody,melody,ending,m,positive,negative,ES_purple,1,m,586,2061003,2061508,2061712
74,third,36,gerecht,IAT_green1.bmp,green,starting_melody,melody,starting,m,positive,positive,ES_purple,0,c,512,2063371,2063875,2064079
74,third,37,teuer,IAT_yellow4.bmp,yellow,ending_melody,melody,ending,c,negative,negative,ES_purple,0,m,736,2066164,2066669,2066873
74,third,38,sanft,IAT_yellow3.bmp,yellow,ending_melody,melody,ending,m,positive,negative,ES_purple,1,m,538,2069183,2069687,2069891
74,third,39,munter,IAT_red1.bmp,red,starting_scream,scream,starting,m,positive,negative,ES_purple,0,c,433,2071502,2072007,2072211
74,third,40,feige,IAT_green2.bmp,green,starting_melody,melody,starting,c,negative,positive,ES_purple,1,c,489,2074217,2074722,2074926
74,third,41,ehrlich,IAT_yellow3.bmp,yellow,ending_melody,melody,ending,m,positive,negative,ES_purple,1,m,548,2076490,2076994,2077198
74,third,42,sozial,IAT_red4.bmp,red,starting_scream,scream,starting,m,positive,negative,ES_purple,1,m,567,2078821,2079325,2079529
74,third,43,sonnig,IAT_red3.bmp,red,starting_scream,scream,starting,m,positive,negative,ES_purple,1,m,459,2081170,2081674,2081878
74,third,44,teuer,IAT_red3.bmp,red,starting_scream,scream,starting,c,negative,negative,ES_purple,1,c,451,2083412,2083916,2084120
74,third,45,gesund,IAT_green4.bmp,green,starting_melody,melody,starting,m,positive,positive,ES_purple,1,m,458,2085644,2086148,2086352
74,third,46,lästig,IAT_red1.bmp,red,starting_scream,scream,starting,c,negative,negative,ES_purple,0,m,470,2087883,2088388,2088592
74,third,47,krank,IAT_red4.bmp,red,starting_scream,scream,starting,c,negative,negative,ES_purple,1,c,498,2090636,2091141,2091345
74,third,48,sozial,IAT_green1.bmp,green,starting_melody,melody,starting,m,positive,positive,ES_purple,1,m,483,2092916,2093420,2093624
74,third,49,morsch,IAT_green4.bmp,green,starting_melody,melody,starting,c,negative,positive,ES_purple,1,c,500,2095182,2095686,2095890
74,third,50,sanft,IAT_green3.bmp,green,starting_melody,melody,starting,m,positive,positive,ES_purple,1,m,715,2097465,2097969,2098173
74,third,51,falsch,IAT_red1.bmp,red,starting_scream,scream,starting,c,negative,negative,ES_purple,1,c,830,2099962,2100466,2100670
74,third,52,krank,IAT_green2.bmp,green,starting_melody,melody,starting,c,negative,positive,ES_purple,1,c,603,2102573,2103077,2103281
74,third,53,heiter,IAT_purple3.bmp,purple,ending_scream,scream,ending,m,positive,positive,ES_purple,1,m,497,2104959,2105463,2105667
74,third,54,brutal,IAT_green4.bmp,green,starting_melody,melody,starting,c,negative,positive,ES_purple,1,c,471,2107238,2107743,2107947
74,third,55,kaputt,IAT_purple3.bmp,purple,ending_scream,scream,ending,c,negative,positive,ES_purple,1,c,450,2109491,2109995,2110199
74,third,56,gesund,IAT_green3.bmp,green,starting_melody,melody,starting,m,positive,positive,ES_purple,1,m,510,2111724,2112228,2112432
74,third,57,schön,IAT_purple2.bmp,purple,ending_scream,scream,ending,m,positive,positive,ES_purple,1,m,545,2114015,2114520,2114724
74,third,58,geizig,IAT_yellow3.bmp,yellow,ending_melody,melody,ending,c,negative,negative,ES_purple,1,c,459,2116342,2116847,2117051
74,third,59,gierig,IAT_yellow1.bmp,yellow,ending_melody,melody,ending,c,negative,negative,ES_purple,1,c,465,2118585,2119089,2119293
74,third,60,brutal,IAT_yellow3.bmp,yellow,ending_melody,melody,ending,c,negative,negative,ES_purple,1,c,389,2120832,2121336,2121540
74,third,61,lustig,IAT_yellow3.bmp,yellow,ending_melody,melody,ending,m,positive,negative,ES_purple,1,m,511,2123003,2123507,2123711
74,third,62,gierig,IAT_purple2.bmp,purple,ending_scream,scream,ending,c,negative,positive,ES_purple,1,c,507,2125296,2125800,2126004
74,third,63,munter,IAT_red2.bmp,red,starting_scream,scream,starting,m,positive,negative,ES_purple,1,m,551,2127586,2128090,2128294
74,third,64,lästig,IAT_green2.bmp,green,starting_melody,melody,starting,c,negative,positive,ES_purple,1,c,460,2129919,2130423,2130627
74,third,65,morsch,IAT_yellow4.bmp,yellow,ending_melody,melody,ending,c,negative,negative,ES_purple,1,c,483,2132161,2132665,2132869
74,third,66,lustig,IAT_green3.bmp,green,starting_melody,melody,starting,m,positive,positive,ES_purple,1,m,556,2134427,2134931,2135135
74,third,67,heiter,IAT_red1.bmp,red,starting_scream,scream,starting,m,positive,negative,ES_purple,1,m,535,2136765,2137270,2137474
74,third,68,witzig,IAT_green2.bmp,green,starting_melody,melody,starting,m,positive,positive,ES_purple,1,m,578,2139083,2139587,2139791
74,third,69,schön,IAT_purple2.bmp,purple,ending_scream,scream,ending,m,positive,positive,ES_purple,1,m,614,2141442,2141947,2142151
74,third,70,einsam,IAT_purple4.bmp,purple,ending_scream,scream,ending,c,negative,positive,ES_purple,1,c,454,2143838,2144342,2144546
74,third,71,streng,IAT_green1.bmp,green,starting_melody,melody,starting,c,negative,positive,ES_purple,1,c,569,2146074,2146579,2146783
74,third,72,gerecht,IAT_red1.bmp,red,starting_scream,scream,starting,m,positive,negative,ES_purple,1,m,676,2148427,2148931,2149135
74,third,73,human,IAT_yellow3.bmp,yellow,ending_melody,melody,ending,m,positive,negative,ES_purple,1,m,595,2150884,2151388,2151592
74,third,74,sanft,IAT_purple1.bmp,purple,ending_scream,scream,ending,m,positive,positive,ES_purple,1,m,588,2153262,2153766,2153970
74,third,75,einsam,IAT_red4.bmp,red,starting_scream,scream,starting,c,negative,negative,ES_purple,1,c,674,2155632,2156136,2156340
74,third,76,falsch,IAT_yellow2.bmp,yellow,ending_melody,melody,ending,c,negative,negative,ES_purple,1,c,537,2158088,2158593,2158797
74,third,77,feige,IAT_red3.bmp,red,starting_scream,scream,starting,c,negative,negative,ES_purple,1,c,508,2160409,2160913,2161117
74,third,78,geizig,IAT_green4.bmp,green,starting_melody,melody,starting,c,negative,positive,ES_purple,1,c,519,2162700,2163204,2163408
74,third,79,gerecht,IAT_purple3.bmp,purple,ending_scream,scream,ending,m,positive,positive,ES_purple,0,c,490,2165001,2165506,2165710
74,third,80,streng,IAT_purple2.bmp,purple,ending_scream,scream,ending,c,negative,positive,ES_purple,1,c,476,2167774,2168278,2168482
74,third,81,falsch,IAT_red2.bmp,red,starting_scream,scream,starting,c,negative,negative,ES_purple,1,c,526,2170032,2170536,2170740
74,third,82,brutal,IAT_yellow2.bmp,yellow,ending_melody,melody,ending,c,negative,negative,ES_purple,1,c,446,2172341,2172845,2173049
74,third,83,lustig,IAT_green3.bmp,green,starting_melody,melody,starting,m,positive,positive,ES_purple,1,m,529,2174568,2175073,2175277
74,third,84,witzig,IAT_purple3.bmp,purple,ending_scream,scream,ending,m,positive,positive,ES_purple,0,c,515,2176881,2177385,2177589
74,third,85,gerecht,IAT_yellow4.bmp,yellow,ending_melody,melody,ending,m,positive,negative,ES_purple,0,c,493,2179679,2180183,2180387
74,third,86,witzig,IAT_yellow1.bmp,yellow,ending_melody,melody,ending,m,positive,negative,ES_purple,1,m,625,2182455,2182959,2183163
74,third,87,geizig,IAT_green3.bmp,green,starting_melody,melody,starting,c,negative,positive,ES_purple,1,c,473,2184863,2185367,2185571
74,third,88,gesund,IAT_yellow1.bmp,yellow,ending_melody,melody,ending,m,positive,negative,ES_purple,1,m,597,2187119,2187623,2187827
74,third,89,sonnig,IAT_red3.bmp,red,starting_scream,scream,starting,m,positive,negative,ES_purple,1,m,505,2189498,2190003,2190207
74,third,90,gierig,IAT_yellow2.bmp,yellow,ending_melody,melody,ending,c,negative,negative,ES_purple,1,c,608,2191787,2192291,2192495
74,third,91,sozial,IAT_green1.bmp,green,starting_melody,melody,starting,m,positive,positive,ES_purple,1,m,515,2194177,2194681,2194885
74,third,92,brutal,IAT_red4.bmp,red,starting_scream,scream,starting,c,negative,negative,ES_purple,1,c,609,2196474,2196979,2197183
74,third,93,teuer,IAT_yellow4.bmp,yellow,ending_melody,melody,ending,c,negative,negative,ES_purple,1,c,643,2198867,2199371,2199575
74,third,94,krank,IAT_yellow2.bmp,yellow,ending_melody,melody,ending,c,negative,negative,ES_purple,1,c,569,2201293,2201797,2202001
74,third,95,human,IAT_purple3.bmp,purple,ending_scream,scream,ending,m,positive,positive,ES_purple,1,m,597,2203644,2204148,2204352
74,forth,0,brutal,IAT_yellow2.bmp,yellow,ending_melody,melody,ending,c,negative,negative,ES_purple,1,c,514,2213572,2214076,2214280
74,forth,1,sonnig,IAT_purple4.bmp,purple,ending_scream,scream,ending,m,positive,positive,ES_purple,1,m,368,2215869,2216373,2216577
74,forth,2,sozial,IAT_red2.bmp,red,starting_scream,scream,starting,m,positive,negative,ES_purple,1,m,503,2218020,2218524,2218728
74,forth,3,streng,IAT_yellow1.bmp,yellow,ending_melody,melody,ending,c,negative,negative,ES_purple,1,c,474,2220304,2220808,2221012
74,forth,4,krank,IAT_purple2.bmp,purple,ending_scream,scream,ending,c,negative,positive,ES_purple,1,c,488,2222559,2223064,2223268
74,forth,5,gerecht,IAT_yellow3.bmp,yellow,ending_melody,melody,ending,m,positive,negative,ES_purple,1,m,743,2224831,2225335,2225539
74,forth,6,lästig,IAT_green4.bmp,green,starting_melody,melody,starting,c,negative,positive,ES_purple,1,c,784,2227355,2227859,2228063
74,forth,7,streng,IAT_green2.bmp,green,starting_melody,melody,starting,c,negative,positive,ES_purple,1,c,506,2229920,2230424,2230628
74,forth,8,witzig,IAT_red1.bmp,red,starting_scream,scream,starting,m,positive,negative,ES_purple,1,m,524,2232209,2232713,2232917
74,forth,9,morsch,IAT_green2.bmp,green,starting_melody,melody,starting,c,negative,positive,ES_purple,1,c,482,2234514,2235019,2235223
74,forth,10,gesund,IAT_green1.bmp,green,starting_melody,melody,starting,m,positive,positive,ES_purple,1,m,495,2236779,2237283,2237487
74,forth,11,heiter,IAT_yellow1.bmp,yellow,ending_melody,melody,ending,m,positive,negative,ES_purple,1,m,493,2239055,2239560,2239764
74,forth,12,lustig,IAT_green1.bmp,green,starting_melody,melody,starting,m,positive,positive,ES_purple,0,c,615,2241330,2241834,2242038
74,forth,13,gierig,IAT_red4.bmp,red,starting_scream,scream,starting,c,negative,negative,ES_purple,1,c,521,2244228,2244732,2244936
74,forth,14,geizig,IAT_yellow3.bmp,yellow,ending_melody,melody,ending,c,negative,negative,ES_purple,1,c,529,2246531,2247035,2247239
74,forth,15,sozial,IAT_green3.bmp,green,starting_melody,melody,starting,m,positive,positive,ES_purple,1,m,439,2248841,2249346,2249550
74,forth,16,gierig,IAT_green2.bmp,green,starting_melody,melody,starting,c,negative,positive,ES_purple,1,c,520,2251062,2251566,2251770
74,forth,17,schön,IAT_red3.bmp,red,starting_scream,scream,starting,m,positive,negative,ES_purple,1,m,466,2253363,2253867,2254071
74,forth,18,feige,IAT_purple2.bmp,purple,ending_scream,scream,ending,c,negative,positive,ES_purple,1,c,405,2255612,2256116,2256320
74,forth,19,lästig,IAT_purple1.bmp,purple,ending_scream,scream,ending,c,negative,positive,ES_purple,1,c,509,2257798,2258303,2258507
74,forth,20,munter,IAT_yellow2.bmp,yellow,ending_melody,melody,ending,m,positive,negative,ES_purple,1,m,561,2260089,2260594,2260798
74,forth,21,sanft,IAT_green1.bmp,green,starting_melody,melody,starting,m,positive,positive,ES_purple,0,c,458,2262432,2262937,2263141
74,forth,22,brutal,IAT_green4.bmp,green,starting_melody,melody,starting,c,negative,positive,ES_purple,1,c,504,2265173,2265677,2265881
74,forth,23,teuer,IAT_purple2.bmp,purple,ending_scream,scream,ending,c,negative,positive,ES_purple,0,m,583,2267458,2267962,2268166
74,forth,24,kaputt,IAT_green3.bmp,green,starting_melody,melody,starting,c,negative,positive,ES_purple,1,c,550,2270323,2270827,2271031
74,forth,25,geizig,IAT_yellow3.bmp,yellow,ending_melody,melody,ending,c,negative,negative,ES_purple,1,c,619,2272654,2273158,2273362
74,forth,26,heiter,IAT_purple4.bmp,purple,ending_scream,scream,ending,m,positive,positive,ES_purple,1,m,622,2275055,2275559,2275763
74,forth,27,falsch,IAT_green2.bmp,green,starting_melody,melody,starting,c,negative,positive,ES_purple,1,c,474,2277459,2277963,2278167
74,forth,28,sozial,IAT_yellow4.bmp,yellow,ending_melody,melody,ending,m,positive,negative,ES_purple,1,m,554,2279715,2280220,2280425
74,forth,29,teuer,IAT_red4.bmp,red,starting_scream,scream,starting,c,negative,negative,ES_purple,1,c,409,2282053,2282557,2282761
74,forth,30,witzig,IAT_yellow1.bmp,yellow,ending_melody,melody,ending,m,positive,negative,ES_purple,1,m,599,2284244,2284748,2284952
74,forth,31,sanft,IAT_purple3.bmp,purple,ending_scream,scream,ending,m,positive,positive,ES_purple,1,m,571,2286625,2287129,2287333
74,forth,32,feige,IAT_red1.bmp,red,starting_scream,scream,starting,c,negative,negative,ES_purple,1,c,473,2288979,2289483,2289687
74,forth,33,gerecht,IAT_yellow2.bmp,yellow,ending_melody,melody,ending,m,positive,negative,ES_purple,1,m,523,2291234,2291738,2291942
74,forth,34,sozial,IAT_yellow3.bmp,yellow,ending_melody,melody,ending,m,positive,negative,ES_purple,1,m,573,2293539,2294043,2294247
74,forth,35,geizig,IAT_green4.bmp,green,starting_melody,melody,starting,c,negative,positive,ES_purple,1,c,503,2295894,2296398,2296602
74,forth,36,falsch,IAT_yellow2.bmp,yellow,ending_melody,melody,ending,c,negative,negative,ES_purple,1,c,665,2298180,2298684,2298888
74,forth,37,ehrlich,IAT_red3.bmp,red,starting_scream,scream,starting,m,positive,negative,ES_purple,1,m,599,2300627,2301131,2301335
74,forth,38,witzig,IAT_red4.bmp,red,starting_scream,scream,starting,m,positive,negative,ES_purple,1,m,464,2303008,2303512,2303716
74,forth,39,brutal,IAT_green4.bmp,green,starting_melody,melody,starting,c,negative,positive,ES_purple,1,c,423,2305255,2305759,2305963
74,forth,40,heiter,IAT_purple2.bmp,purple,ending_scream,scream,ending,m,positive,positive,ES_purple,1,m,543,2307459,2307963,2308167
74,forth,41,feige,IAT_yellow2.bmp,yellow,ending_melody,melody,ending,c,negative,negative,ES_purple,1,c,392,2309784,2310288,2310492
74,forth,42,human,IAT_green4.bmp,green,starting_melody,melody,starting,m,positive,positive,ES_purple,1,m,374,2311958,2312462,2312666
74,forth,43,kaputt,IAT_purple3.bmp,purple,ending_scream,scream,ending,c,negative,positive,ES_purple,1,c,432,2314114,2314618,2314822
74,forth,44,teuer,IAT_yellow4.bmp,yellow,ending_melody,melody,ending,c,negative,negative,ES_purple,0,m,482,2316328,2316832,2317036
74,forth,45,gesund,IAT_red2.bmp,red,starting_scream,scream,starting,m,positive,negative,ES_purple,0,c,386,2319092,2319596,2319800
74,forth,46,falsch,IAT_red2.bmp,red,starting_scream,scream,starting,c,negative,negative,ES_purple,1,c,484,2321760,2322265,2322469
74,forth,47,streng,IAT_red4.bmp,red,starting_scream,scream,starting,c,negative,negative,ES_purple,1,c,428,2324027,2324531,2324735
74,forth,48,gerecht,IAT_red3.bmp,red,starting_scream,scream,starting,m,positive,negative,ES_purple,0,c,445,2326237,2326742,2326946
74,forth,49,ehrlich,IAT_red1.bmp,red,starting_scream,scream,starting,m,positive,negative,ES_purple,1,m,524,2328964,2329468,2329672
74,forth,50,witzig,IAT_purple3.bmp,purple,ending_scream,scream,ending,m,positive,positive,ES_purple,1,m,479,2331270,2331774,2331978
74,forth,51,morsch,IAT_green3.bmp,green,starting_melody,melody,starting,c,negative,positive,ES_purple,0,m,414,2333532,2334036,2334240
74,forth,52,sonnig,IAT_purple3.bmp,purple,ending_scream,scream,ending,m,positive,positive,ES_purple,1,m,680,2336228,2336733,2336937
74,forth,53,gesund,IAT_purple2.bmp,purple,ending_scream,scream,ending,m,positive,positive,ES_purple,0,None,1500,2338690,2339195,2339399
74,forth,54,schön,IAT_yellow1.bmp,yellow,ending_melody,melody,ending,m,positive,negative,ES_purple,1,m,475,2342972,2343477,2343681
74,forth,55,human,IAT_green1.bmp,green,starting_melody,melody,starting,m,positive,positive,ES_purple,1,m,481,2345231,2345735,2345939
74,forth,56,krank,IAT_red3.bmp,red,starting_scream,scream,starting,c,negative,negative,ES_purple,1,c,464,2347494,2347998,2348202
74,forth,57,feige,IAT_green1.bmp,green,starting_melody,melody,starting,c,negative,positive,ES_purple,0,m,363,2349740,2350244,2350448
74,forth,58,gierig,IAT_yellow4.bmp,yellow,ending_melody,melody,ending,c,negative,negative,ES_purple,1,c,430,2352385,2352889,2353093
74,forth,59,sanft,IAT_yellow3.bmp,yellow,ending_melody,melody,ending,m,positive,negative,ES_purple,1,m,477,2354596,2355101,2355305
74,forth,60,ehrlich,IAT_purple1.bmp,purple,ending_scream,scream,ending,m,positive,positive,ES_purple,1,m,605,2356857,2357361,2357565
74,forth,61,sonnig,IAT_red1.bmp,red,starting_scream,scream,starting,m,positive,negative,ES_purple,1,m,528,2359244,2359749,2359953
74,forth,62,munter,IAT_red4.bmp,red,starting_scream,scream,starting,m,positive,negative,ES_purple,1,m,540,2361556,2362060,2362264
74,forth,63,heiter,IAT_green3.bmp,green,starting_melody,melody,starting,m,positive,positive,ES_purple,0,c,482,2363879,2364383,2364587
74,forth,64,morsch,IAT_red1.bmp,red,starting_scream,scream,starting,c,negative,negative,ES_purple,1,c,706,2366644,2367149,2367353
74,forth,65,lästig,IAT_purple4.bmp,purple,ending_scream,scream,ending,c,negative,positive,ES_purple,1,c,426,2369133,2369637,2369841
74,forth,66,einsam,IAT_red4.bmp,red,starting_scream,scream,starting,c,negative,negative,ES_purple,1,c,648,2371342,2371846,2372050
74,forth,67,munter,IAT_purple1.bmp,purple,ending_scream,scream,ending,m,positive,positive,ES_purple,1,m,463,2373772,2374277,2374481
74,forth,68,kaputt,IAT_yellow2.bmp,yellow,ending_melody,melody,ending,c,negative,negative,ES_purple,1,c,511,2376019,2376523,2376727
74,forth,69,streng,IAT_purple1.bmp,purple,ending_scream,scream,ending,c,negative,positive,ES_purple,1,c,442,2378313,2378817,2379021
74,forth,70,teuer,IAT_purple4.bmp,purple,ending_scream,scream,ending,c,negative,positive,ES_purple,1,c,428,2380537,2381042,2381246
74,forth,71,morsch,IAT_yellow4.bmp,yellow,ending_melody,melody,ending,c,negative,negative,ES_purple,1,c,440,2382748,2383253,2383457
74,forth,72,lästig,IAT_red2.bmp,red,starting_scream,scream,starting,c,negative,negative,ES_purple,1,c,604,2384972,2385476,2385680
74,forth,73,lustig,IAT_green4.bmp,green,starting_melody,melody,starting,m,positive,positive,ES_purple,0,c,463,2387358,2387863,2388067
74,forth,74,falsch,IAT_purple4.bmp,purple,ending_scream,scream,ending,c,negative,positive,ES_purple,1,c,476,2390104,2390608,2390812
74,forth,75,geizig,IAT_yellow1.bmp,yellow,ending_melody,melody,ending,c,negative,negative,ES_purple,1,c,553,2392363,2392867,2393071
74,forth,76,sonnig,IAT_yellow4.bmp,yellow,ending_melody,melody,ending,m,positive,negative,ES_purple,1,m,501,2394699,2395203,2395407
74,forth,77,einsam,IAT_purple4.bmp,purple,ending_scream,scream,ending,c,negative,positive,ES_purple,1,c,544,2396982,2397487,2397691
74,forth,78,krank,IAT_red2.bmp,red,starting_scream,scream,starting,c,negative,negative,ES_purple,1,c,432,2399310,2399814,2400018
74,forth,79,brutal,IAT_yellow4.bmp,yellow,ending_melody,melody,ending,c,negative,negative,ES_purple,1,c,463,2401524,2402029,2402233
74,forth,80,sanft,IAT_green3.bmp,green,starting_melody,melody,starting,m,positive,positive,ES_purple,1,m,597,2403771,2404275,2404479
74,forth,81,schön,IAT_yellow1.bmp,yellow,ending_melody,melody,ending,m,positive,negative,ES_purple,1,m,519,2406152,2406656,2406860
74,forth,82,ehrlich,IAT_purple1.bmp,purple,ending_scream,scream,ending,m,positive,positive,ES_purple,1,m,533,2408453,2408957,2409161
74,forth,83,kaputt,IAT_red3.bmp,red,starting_scream,scream,starting,c,negative,negative,ES_purple,1,c,405,2410769,2411273,2411477
74,forth,84,human,IAT_red1.bmp,red,starting_scream,scream,starting,m,positive,negative,ES_purple,1,m,627,2412956,2413461,2413665
74,forth,85,munter,IAT_green2.bmp,green,starting_melody,melody,starting,m,positive,positive,ES_purple,1,m,471,2415366,2415870,2416074
74,forth,86,lustig,IAT_green2.bmp,green,starting_melody,melody,starting,m,positive,positive,ES_purple,0,c,427,2417619,2418124,2418328
74,forth,87,schön,IAT_yellow3.bmp,yellow,ending_melody,melody,ending,m,positive,negative,ES_purple,0,c,509,2420329,2420834,2421038
74,forth,88,krank,IAT_purple3.bmp,purple,ending_scream,scream,ending,c,negative,positive,ES_purple,1,c,474,2423121,2423625,2423829
74,forth,89,human,IAT_purple3.bmp,purple,ending_scream,scream,ending,m,positive,positive,ES_purple,1,m,614,2425379,2425883,2426087
74,forth,90,einsam,IAT_purple2.bmp,purple,ending_scream,scream,ending,c,negative,positive,ES_purple,1,c,454,2427775,2428279,2428483
74,forth,91,gerecht,IAT_red3.bmp,red,starting_scream,scream,starting,m,positive,negative,ES_purple,1,m,946,2430012,2430516,2430720
74,forth,92,lustig,IAT_green3.bmp,green,starting_melody,melody,starting,m,positive,positive,ES_purple,1,m,847,2432741,2433246,2433450
74,forth,93,gesund,IAT_purple1.bmp,purple,ending_scream,scream,ending,m,positive,positive,ES_purple,1,m,595,2435372,2435876,2436080
74,forth,94,gierig,IAT_red2.bmp,red,starting_scream,scream,starting,c,negative,negative,ES_purple,1,c,596,2437750,2438255,2438459
74,forth,95,einsam,IAT_green1.bmp,green,starting_melody,melody,starting,c,negative,positive,ES_purple,1,c,619,2440129,2440634,2440838
