subject_nr,block,trialnr,trial_target,trial_prime,prime_color,prime_role,prime_us,prime_relation,correct_response,target_valence,prime_valence,color_counter,correct_first_response,response_first_response,response_time_first_response,fixation_show,prime_show,target_show
57,first,0,heiter,IAT_red3.bmp,red,ending_scream,scream,ending,m,positive,positive,ES_red,1,m,454,1496467,1496971,1497175
57,first,1,human,IAT_red2.bmp,red,ending_scream,scream,ending,m,positive,positive,ES_red,1,m,498,1498704,1499208,1499412
57,first,2,gesund,IAT_yellow1.bmp,yellow,starting_scream,scream,starting,m,positive,negative,ES_red,1,m,500,1500984,1501488,1501692
57,first,3,witzig,IAT_yellow1.bmp,yellow,starting_scream,scream,starting,m,positive,negative,ES_red,1,m,416,1503265,1503769,1503973
57,first,4,human,IAT_green3.bmp,green,ending_melody,melody,ending,m,positive,negative,ES_red,1,m,469,1505462,1505966,1506170
57,first,5,feige,IAT_purple1.bmp,purple,starting_melody,melody,starting,c,negative,positive,ES_red,1,c,650,1507713,1508217,1508421
57,first,6,teuer,IAT_yellow1.bmp,yellow,starting_scream,scream,starting,c,negative,negative,ES_red,1,c,589,1510144,1510648,1510852
57,first,7,kaputt,IAT_green1.bmp,green,ending_melody,melody,ending,c,negative,negative,ES_red,0,m,449,1512514,1513018,1513222
57,first,8,sozial,IAT_yellow3.bmp,yellow,starting_scream,scream,starting,m,positive,negative,ES_red,1,m,606,1515245,1515750,1515954
57,first,9,falsch,IAT_yellow2.bmp,yellow,starting_scream,scream,starting,c,negative,negative,ES_red,1,c,541,1517633,1518137,1518341
57,first,10,sonnig,IAT_red2.bmp,red,ending_scream,scream,ending,m,positive,positive,ES_red,1,m,459,1519956,1520461,1520665
57,first,11,gesund,IAT_green1.bmp,green,ending_melody,melody,ending,m,positive,negative,ES_red,1,m,563,1522197,1522701,1522905
57,first,12,lästig,IAT_yellow4.bmp,yellow,starting_scream,scream,starting,c,negative,negative,ES_red,1,c,494,1524542,1525046,1525250
57,first,13,feige,IAT_purple4.bmp,purple,starting_melody,melody,starting,c,negative,positive,ES_red,0,m,412,1526817,1527321,1527525
57,first,14,sonnig,IAT_green1.bmp,green,ending_melody,melody,ending,m,positive,negative,ES_red,1,m,582,1529510,1530014,1530218
57,first,15,einsam,IAT_red2.bmp,red,ending_scream,scream,ending,c,negative,positive,ES_red,0,m,448,1531873,1532378,1532582
57,first,16,ehrlich,IAT_purple2.bmp,purple,starting_melody,melody,starting,m,positive,positive,ES_red,1,m,359,1534603,1535107,1535311
57,first,17,sozial,IAT_yellow2.bmp,yellow,starting_scream,scream,starting,m,positive,negative,ES_red,1,m,532,1536743,1537247,1537451
57,first,18,ehrlich,IAT_yellow1.bmp,yellow,starting_scream,scream,starting,m,positive,negative,ES_red,1,m,481,1539056,1539560,1539764
57,first,19,brutal,IAT_red4.bmp,red,ending_scream,scream,ending,c,negative,positive,ES_red,1,c,523,1541318,1541822,1542026
57,first,20,human,IAT_purple4.bmp,purple,starting_melody,melody,starting,m,positive,positive,ES_red,1,m,476,1543622,1544126,1544330
57,first,21,einsam,IAT_yellow4.bmp,yellow,starting_scream,scream,starting,c,negative,negative,ES_red,1,c,615,1545879,1546383,1546587
57,first,22,falsch,IAT_red3.bmp,red,ending_scream,scream,ending,c,negative,positive,ES_red,1,c,564,1548275,1548779,1548983
57,first,23,gierig,IAT_green2.bmp,green,ending_melody,melody,ending,c,negative,negative,ES_red,1,c,615,1550620,1551125,1551329
57,first,24,geizig,IAT_green3.bmp,green,ending_melody,melody,ending,c,negative,negative,ES_red,1,c,505,1553017,1553521,1553725
57,first,25,schön,IAT_green1.bmp,green,ending_melody,melody,ending,m,positive,negative,ES_red,1,m,549,1555303,1555807,1556011
57,first,26,sozial,IAT_red3.bmp,red,ending_scream,scream,ending,m,positive,positive,ES_red,1,m,471,1557635,1558139,1558343
57,first,27,schön,IAT_green4.bmp,green,ending_melody,melody,ending,m,positive,negative,ES_red,1,m,441,1559887,1560391,1560595
57,first,28,streng,IAT_purple4.bmp,purple,starting_melody,melody,starting,c,negative,positive,ES_red,0,m,351,1562109,1562613,1562817
57,first,29,morsch,IAT_red1.bmp,red,ending_scream,scream,ending,c,negative,positive,ES_red,1,c,554,1564744,1565248,1565452
57,first,30,lustig,IAT_red4.bmp,red,ending_scream,scream,ending,m,positive,positive,ES_red,1,m,545,1567079,1567583,1567787
57,first,31,krank,IAT_purple4.bmp,purple,starting_melody,melody,starting,c,negative,positive,ES_red,1,c,541,1569404,1569908,1570112
57,first,32,sanft,IAT_red3.bmp,red,ending_scream,scream,ending,m,positive,positive,ES_red,1,m,600,1571727,1572232,1572436
57,first,33,ehrlich,IAT_purple3.bmp,purple,starting_melody,melody,starting,m,positive,positive,ES_red,1,m,487,1574108,1574613,1574817
57,first,34,morsch,IAT_purple2.bmp,purple,starting_melody,melody,starting,c,negative,positive,ES_red,1,c,553,1576378,1576882,1577086
57,first,35,gerecht,IAT_green3.bmp,green,ending_melody,melody,ending,m,positive,negative,ES_red,0,c,498,1578713,1579218,1579422
57,first,36,gesund,IAT_red1.bmp,red,ending_scream,scream,ending,m,positive,positive,ES_red,1,m,801,1581493,1581998,1582202
57,first,37,brutal,IAT_green3.bmp,green,ending_melody,melody,ending,c,negative,negative,ES_red,1,c,531,1584076,1584581,1584785
57,first,38,einsam,IAT_red4.bmp,red,ending_scream,scream,ending,c,negative,positive,ES_red,1,c,621,1586390,1586894,1587098
57,first,39,krank,IAT_green2.bmp,green,ending_melody,melody,ending,c,negative,negative,ES_red,1,c,463,1588793,1589297,1589501
57,first,40,heiter,IAT_purple4.bmp,purple,starting_melody,melody,starting,m,positive,positive,ES_red,1,m,498,1591037,1591541,1591745
57,first,41,gerecht,IAT_green3.bmp,green,ending_melody,melody,ending,m,positive,negative,ES_red,0,c,780,1593317,1593821,1594025
57,first,42,ehrlich,IAT_purple1.bmp,purple,starting_melody,melody,starting,m,positive,positive,ES_red,1,m,484,1596378,1596883,1597087
57,first,43,gerecht,IAT_green1.bmp,green,ending_melody,melody,ending,m,positive,negative,ES_red,1,m,807,1598643,1599148,1599352
57,first,44,teuer,IAT_green4.bmp,green,ending_melody,melody,ending,c,negative,negative,ES_red,1,c,573,1601232,1601736,1601940
57,first,45,witzig,IAT_green4.bmp,green,ending_melody,melody,ending,m,positive,negative,ES_red,0,c,682,1603587,1604091,1604295
57,first,46,feige,IAT_yellow4.bmp,yellow,starting_scream,scream,starting,c,negative,negative,ES_red,1,c,581,1606551,1607055,1607259
57,first,47,gesund,IAT_green3.bmp,green,ending_melody,melody,ending,m,positive,negative,ES_red,1,m,745,1608914,1609418,1609622
57,first,48,streng,IAT_red4.bmp,red,ending_scream,scream,ending,c,negative,positive,ES_red,1,c,580,1611441,1611945,1612149
57,first,49,munter,IAT_purple1.bmp,purple,starting_melody,melody,starting,m,positive,positive,ES_red,1,m,583,1613803,1614307,1614511
57,first,50,schön,IAT_red4.bmp,red,ending_scream,scream,ending,m,positive,positive,ES_red,1,m,567,1616168,1616673,1616877
57,first,51,lustig,IAT_purple3.bmp,purple,starting_melody,melody,starting,m,positive,positive,ES_red,1,m,658,1618518,1619022,1619226
57,first,52,kaputt,IAT_yellow2.bmp,yellow,starting_scream,scream,starting,c,negative,negative,ES_red,1,c,502,1620957,1621461,1621665
57,first,53,krank,IAT_red3.bmp,red,ending_scream,scream,ending,c,negative,positive,ES_red,1,c,654,1623240,1623744,1623948
57,first,54,falsch,IAT_purple3.bmp,purple,starting_melody,melody,starting,c,negative,positive,ES_red,1,c,523,1625676,1626181,1626385
57,first,55,geizig,IAT_purple1.bmp,purple,starting_melody,melody,starting,c,negative,positive,ES_red,1,c,384,1627982,1628486,1628690
57,first,56,heiter,IAT_purple1.bmp,purple,starting_melody,melody,starting,m,positive,positive,ES_red,1,m,449,1630148,1630652,1630856
57,first,57,feige,IAT_yellow2.bmp,yellow,starting_scream,scream,starting,c,negative,negative,ES_red,1,c,637,1632379,1632884,1633088
57,first,58,lästig,IAT_green4.bmp,green,ending_melody,melody,ending,c,negative,negative,ES_red,1,c,676,1634799,1635303,1635507
57,first,59,morsch,IAT_green1.bmp,green,ending_melody,melody,ending,c,negative,negative,ES_red,1,c,454,1637257,1637761,1637965
57,first,60,einsam,IAT_red2.bmp,red,ending_scream,scream,ending,c,negative,positive,ES_red,1,c,493,1639493,1639997,1640201
57,first,61,gierig,IAT_purple4.bmp,purple,starting_melody,melody,starting,c,negative,positive,ES_red,1,c,642,1641767,1642271,1642475
57,first,62,munter,IAT_purple1.bmp,purple,starting_melody,melody,starting,m,positive,positive,ES_red,0,c,672,1644190,1644694,1644898
57,first,63,geizig,IAT_green2.bmp,green,ending_melody,melody,ending,c,negative,negative,ES_red,1,c,826,1647144,1647648,1647852
57,first,64,brutal,IAT_red2.bmp,red,ending_scream,scream,ending,c,negative,positive,ES_red,1,c,643,1649751,1650255,1650459
57,first,65,gerecht,IAT_red1.bmp,red,ending_scream,scream,ending,m,positive,positive,ES_red,1,m,649,1652176,1652680,1652884
57,first,66,lustig,IAT_yellow3.bmp,yellow,starting_scream,scream,starting,m,positive,negative,ES_red,1,m,635,1654607,1655112,1655316
57,first,67,munter,IAT_red3.bmp,red,ending_scream,scream,ending,m,positive,positive,ES_red,1,m,462,1657025,1657529,1657733
57,first,68,sonnig,IAT_green2.bmp,green,ending_melody,melody,ending,m,positive,negative,ES_red,1,m,537,1659268,1659772,1659976
57,first,69,heiter,IAT_yellow2.bmp,yellow,starting_scream,scream,starting,m,positive,negative,ES_red,1,m,534,1661587,1662092,1662296
57,first,70,gierig,IAT_yellow3.bmp,yellow,starting_scream,scream,starting,c,negative,negative,ES_red,1,c,581,1663904,1664408,1664612
57,first,71,brutal,IAT_yellow3.bmp,yellow,starting_scream,scream,starting,c,negative,negative,ES_red,1,c,556,1666267,1666771,1666975
57,first,72,munter,IAT_purple2.bmp,purple,starting_melody,melody,starting,m,positive,positive,ES_red,1,m,702,1668605,1669110,1669314
57,first,73,morsch,IAT_yellow4.bmp,yellow,starting_scream,scream,starting,c,negative,negative,ES_red,1,c,559,1671090,1671594,1671798
57,first,74,teuer,IAT_purple2.bmp,purple,starting_melody,melody,starting,c,negative,positive,ES_red,1,c,617,1673431,1673936,1674140
57,first,75,falsch,IAT_green2.bmp,green,ending_melody,melody,ending,c,negative,negative,ES_red,1,c,604,1675831,1676335,1676539
57,first,76,lästig,IAT_green4.bmp,green,ending_melody,melody,ending,c,negative,negative,ES_red,1,c,619,1678217,1678721,1678925
57,first,77,gierig,IAT_purple2.bmp,purple,starting_melody,melody,starting,c,negative,positive,ES_red,1,c,492,1680618,1681122,1681326
57,first,78,streng,IAT_purple2.bmp,purple,starting_melody,melody,starting,c,negative,positive,ES_red,1,c,562,1682892,1683396,1683600
57,first,79,sozial,IAT_yellow1.bmp,yellow,starting_scream,scream,starting,m,positive,negative,ES_red,1,m,531,1685236,1685740,1685944
57,first,80,kaputt,IAT_yellow2.bmp,yellow,starting_scream,scream,starting,c,negative,negative,ES_red,1,c,569,1687549,1688053,1688257
57,first,81,krank,IAT_yellow1.bmp,yellow,starting_scream,scream,starting,c,negative,negative,ES_red,1,c,505,1689900,1690404,1690608
57,first,82,sanft,IAT_yellow3.bmp,yellow,starting_scream,scream,starting,m,positive,negative,ES_red,1,m,556,1692187,1692692,1692896
57,first,83,teuer,IAT_red2.bmp,red,ending_scream,scream,ending,c,negative,positive,ES_red,1,c,525,1694526,1695031,1695235
57,first,84,lästig,IAT_red4.bmp,red,ending_scream,scream,ending,c,negative,positive,ES_red,1,c,504,1696834,1697338,1697542
57,first,85,lustig,IAT_yellow3.bmp,yellow,starting_scream,scream,starting,m,positive,negative,ES_red,1,m,571,1699121,1699625,1699829
57,first,86,sanft,IAT_purple3.bmp,purple,starting_melody,melody,starting,m,positive,positive,ES_red,1,m,610,1701473,1701977,1702181
57,first,87,geizig,IAT_red1.bmp,red,ending_scream,scream,ending,c,negative,positive,ES_red,1,c,579,1703864,1704368,1704572
57,first,88,sonnig,IAT_yellow4.bmp,yellow,starting_scream,scream,starting,m,positive,negative,ES_red,1,m,506,1706225,1706730,1706934
57,first,89,witzig,IAT_red1.bmp,red,ending_scream,scream,ending,m,positive,positive,ES_red,1,m,972,1708513,1709018,1709222
57,first,90,streng,IAT_green4.bmp,green,ending_melody,melody,ending,c,negative,negative,ES_red,1,c,506,1711268,1711772,1711976
57,first,91,schön,IAT_yellow4.bmp,yellow,starting_scream,scream,starting,m,positive,negative,ES_red,1,m,431,1713557,1714062,1714266
57,first,92,witzig,IAT_green2.bmp,green,ending_melody,melody,ending,m,positive,negative,ES_red,1,m,669,1715770,1716274,1716478
57,first,93,sanft,IAT_red1.bmp,red,ending_scream,scream,ending,m,positive,positive,ES_red,1,m,449,1718221,1718725,1718929
57,first,94,kaputt,IAT_purple3.bmp,purple,starting_melody,melody,starting,c,negative,positive,ES_red,1,c,516,1720452,1720956,1721160
57,first,95,human,IAT_purple3.bmp,purple,starting_melody,melody,starting,m,positive,positive,ES_red,1,m,537,1722749,1723253,1723457
57,second,0,ehrlich,IAT_green4.bmp,green,ending_melody,melody,ending,m,positive,negative,ES_red,1,m,748,1743878,1744383,1744587
57,second,1,falsch,IAT_purple4.bmp,purple,starting_melody,melody,starting,c,negative,positive,ES_red,1,c,462,1746408,1746913,1747117
57,second,2,witzig,IAT_green4.bmp,green,ending_melody,melody,ending,m,positive,negative,ES_red,1,m,324,1748652,1749156,1749360
57,second,3,krank,IAT_yellow2.bmp,yellow,starting_scream,scream,starting,c,negative,negative,ES_red,1,c,455,1750758,1751263,1751467
57,second,4,einsam,IAT_red3.bmp,red,ending_scream,scream,ending,c,negative,positive,ES_red,0,m,364,1752996,1753500,1753704
57,second,5,gierig,IAT_red4.bmp,red,ending_scream,scream,ending,c,negative,positive,ES_red,1,c,557,1755643,1756147,1756351
57,second,6,gesund,IAT_green1.bmp,green,ending_melody,melody,ending,m,positive,negative,ES_red,1,m,467,1757981,1758486,1758690
57,second,7,gerecht,IAT_purple2.bmp,purple,starting_melody,melody,starting,m,positive,positive,ES_red,0,c,321,1760229,1760734,1760938
57,second,8,teuer,IAT_green2.bmp,green,ending_melody,melody,ending,c,negative,negative,ES_red,1,c,649,1762832,1763336,1763541
57,second,9,ehrlich,IAT_purple4.bmp,purple,starting_melody,melody,starting,m,positive,positive,ES_red,1,m,470,1765262,1765767,1765971
57,second,10,gerecht,IAT_purple2.bmp,purple,starting_melody,melody,starting,m,positive,positive,ES_red,1,m,501,1767515,1768019,1768223
57,second,11,sonnig,IAT_yellow2.bmp,yellow,starting_scream,scream,starting,m,positive,negative,ES_red,1,m,560,1769798,1770302,1770506
57,second,12,sanft,IAT_green1.bmp,green,ending_melody,melody,ending,m,positive,negative,ES_red,1,m,563,1772138,1772642,1772846
57,second,13,sozial,IAT_purple1.bmp,purple,starting_melody,melody,starting,m,positive,positive,ES_red,1,m,528,1774482,1774986,1775190
57,second,14,sanft,IAT_red3.bmp,red,ending_scream,scream,ending,m,positive,positive,ES_red,1,m,494,1776791,1777295,1777499
57,second,15,heiter,IAT_purple1.bmp,purple,starting_melody,melody,starting,m,positive,positive,ES_red,1,m,485,1779067,1779571,1779775
57,second,16,sonnig,IAT_purple3.bmp,purple,starting_melody,melody,starting,m,positive,positive,ES_red,1,m,385,1781333,1781837,1782041
57,second,17,streng,IAT_purple2.bmp,purple,starting_melody,melody,starting,c,negative,positive,ES_red,0,m,379,1783499,1784004,1784208
57,second,18,morsch,IAT_yellow3.bmp,yellow,starting_scream,scream,starting,c,negative,negative,ES_red,1,c,446,1786160,1786664,1786868
57,second,19,gierig,IAT_red4.bmp,red,ending_scream,scream,ending,c,negative,positive,ES_red,1,c,590,1788388,1788892,1789096
57,second,20,schön,IAT_purple1.bmp,purple,starting_melody,melody,starting,m,positive,positive,ES_red,1,m,467,1790759,1791263,1791467
57,second,21,human,IAT_green3.bmp,green,ending_melody,melody,ending,m,positive,negative,ES_red,1,m,551,1793007,1793511,1793715
57,second,22,streng,IAT_purple1.bmp,purple,starting_melody,melody,starting,c,negative,positive,ES_red,1,c,446,1795339,1795843,1796047
57,second,23,teuer,IAT_green4.bmp,green,ending_melody,melody,ending,c,negative,negative,ES_red,1,c,557,1797567,1798071,1798275
57,second,24,falsch,IAT_red1.bmp,red,ending_scream,scream,ending,c,negative,positive,ES_red,1,c,540,1799906,1800411,1800615
57,second,25,ehrlich,IAT_red3.bmp,red,ending_scream,scream,ending,m,positive,positive,ES_red,1,m,625,1802228,1802733,1802937
57,second,26,gesund,IAT_green3.bmp,green,ending_melody,melody,ending,m,positive,negative,ES_red,1,m,569,1804636,1805141,1805345
57,second,27,streng,IAT_red4.bmp,red,ending_scream,scream,ending,c,negative,positive,ES_red,1,c,512,1806988,1807492,1807696
57,second,28,morsch,IAT_green4.bmp,green,ending_melody,melody,ending,c,negative,negative,ES_red,1,c,511,1809280,1809784,1809988
57,second,29,munter,IAT_yellow1.bmp,yellow,starting_scream,scream,starting,m,positive,negative,ES_red,1,m,691,1811573,1812077,1812281
57,second,30,geizig,IAT_purple2.bmp,purple,starting_melody,melody,starting,c,negative,positive,ES_red,1,c,635,1814046,1814550,1814754
57,second,31,heiter,IAT_yellow1.bmp,yellow,starting_scream,scream,starting,m,positive,negative,ES_red,1,m,646,1816463,1816967,1817171
57,second,32,sozial,IAT_red4.bmp,red,ending_scream,scream,ending,m,positive,positive,ES_red,1,m,595,1818891,1819395,1819599
57,second,33,brutal,IAT_red2.bmp,red,ending_scream,scream,ending,c,negative,positive,ES_red,1,c,601,1821268,1821772,1821976
57,second,34,lästig,IAT_green3.bmp,green,ending_melody,melody,ending,c,negative,negative,ES_red,1,c,544,1823650,1824155,1824359
57,second,35,teuer,IAT_green3.bmp,green,ending_melody,melody,ending,c,negative,negative,ES_red,1,c,657,1825977,1826482,1826686
57,second,36,krank,IAT_yellow1.bmp,yellow,starting_scream,scream,starting,c,negative,negative,ES_red,1,c,605,1828417,1828921,1829125
57,second,37,kaputt,IAT_yellow4.bmp,yellow,starting_scream,scream,starting,c,negative,negative,ES_red,1,c,476,1830803,1831308,1831512
57,second,38,streng,IAT_yellow2.bmp,yellow,starting_scream,scream,starting,c,negative,negative,ES_red,1,c,521,1833061,1833565,1833769
57,second,39,heiter,IAT_red1.bmp,red,ending_scream,scream,ending,m,positive,positive,ES_red,1,m,477,1835362,1835867,1836071
57,second,40,sonnig,IAT_yellow4.bmp,yellow,starting_scream,scream,starting,m,positive,negative,ES_red,1,m,497,1837621,1838125,1838329
57,second,41,kaputt,IAT_green1.bmp,green,ending_melody,melody,ending,c,negative,negative,ES_red,1,c,556,1839899,1840404,1840608
57,second,42,brutal,IAT_green4.bmp,green,ending_melody,melody,ending,c,negative,negative,ES_red,1,c,496,1842238,1842742,1842946
57,second,43,human,IAT_red4.bmp,red,ending_scream,scream,ending,m,positive,positive,ES_red,1,m,649,1844516,1845020,1845224
57,second,44,witzig,IAT_yellow3.bmp,yellow,starting_scream,scream,starting,m,positive,negative,ES_red,1,m,568,1846947,1847451,1847655
57,second,45,ehrlich,IAT_yellow1.bmp,yellow,starting_scream,scream,starting,m,positive,negative,ES_red,1,m,470,1849297,1849802,1850006
57,second,46,munter,IAT_red1.bmp,red,ending_scream,scream,ending,m,positive,positive,ES_red,1,m,861,1851549,1852054,1852258
57,second,47,krank,IAT_yellow1.bmp,yellow,starting_scream,scream,starting,c,negative,negative,ES_red,1,c,454,1854193,1854697,1854901
57,second,48,schön,IAT_red1.bmp,red,ending_scream,scream,ending,m,positive,positive,ES_red,1,m,577,1856429,1856933,1857137
57,second,49,falsch,IAT_red2.bmp,red,ending_scream,scream,ending,c,negative,positive,ES_red,1,c,517,1858788,1859292,1859496
57,second,50,teuer,IAT_yellow2.bmp,yellow,starting_scream,scream,starting,c,negative,negative,ES_red,1,c,578,1861087,1861591,1861795
57,second,51,witzig,IAT_purple3.bmp,purple,starting_melody,melody,starting,m,positive,positive,ES_red,1,m,490,1863447,1863951,1864155
57,second,52,sozial,IAT_yellow3.bmp,yellow,starting_scream,scream,starting,m,positive,negative,ES_red,1,m,588,1865719,1866223,1866427
57,second,53,sanft,IAT_red2.bmp,red,ending_scream,scream,ending,m,positive,positive,ES_red,1,m,474,1868089,1868593,1868797
57,second,54,einsam,IAT_purple4.bmp,purple,starting_melody,melody,starting,c,negative,positive,ES_red,0,m,403,1870345,1870849,1871053
57,second,55,geizig,IAT_purple4.bmp,purple,starting_melody,melody,starting,c,negative,positive,ES_red,1,c,723,1873029,1873533,1873737
57,second,56,feige,IAT_green1.bmp,green,ending_melody,melody,ending,c,negative,negative,ES_red,1,c,528,1875533,1876037,1876241
57,second,57,krank,IAT_red1.bmp,red,ending_scream,scream,ending,c,negative,positive,ES_red,1,c,506,1877843,1878348,1878552
57,second,58,kaputt,IAT_green4.bmp,green,ending_melody,melody,ending,c,negative,negative,ES_red,1,c,556,1880131,1880636,1880840
57,second,59,lästig,IAT_yellow3.bmp,yellow,starting_scream,scream,starting,c,negative,negative,ES_red,1,c,519,1882469,1882973,1883177
57,second,60,sonnig,IAT_purple1.bmp,purple,starting_melody,melody,starting,m,positive,positive,ES_red,1,m,460,1884770,1885274,1885478
57,second,61,human,IAT_green2.bmp,green,ending_melody,melody,ending,m,positive,negative,ES_red,1,m,580,1887011,1887515,1887719
57,second,62,sanft,IAT_red3.bmp,red,ending_scream,scream,ending,m,positive,positive,ES_red,1,m,359,1889372,1889877,1890081
57,second,63,munter,IAT_green3.bmp,green,ending_melody,melody,ending,m,positive,negative,ES_red,1,m,613,1891514,1892018,1892222
57,second,64,feige,IAT_purple2.bmp,purple,starting_melody,melody,starting,c,negative,positive,ES_red,1,c,504,1893909,1894413,1894617
57,second,65,gierig,IAT_yellow2.bmp,yellow,starting_scream,scream,starting,c,negative,negative,ES_red,0,m,459,1896195,1896699,1896903
57,second,66,heiter,IAT_purple3.bmp,purple,starting_melody,melody,starting,m,positive,positive,ES_red,1,m,531,1898936,1899440,1899644
57,second,67,morsch,IAT_purple3.bmp,purple,starting_melody,melody,starting,c,negative,positive,ES_red,1,c,526,1901248,1901752,1901956
57,second,68,gesund,IAT_red2.bmp,red,ending_scream,scream,ending,m,positive,positive,ES_red,1,m,620,1903557,1904061,1904265
57,second,69,geizig,IAT_yellow4.bmp,yellow,starting_scream,scream,starting,c,negative,negative,ES_red,1,c,529,1905959,1906463,1906667
57,second,70,gierig,IAT_yellow4.bmp,yellow,starting_scream,scream,starting,c,negative,negative,ES_red,1,c,550,1908271,1908775,1908979
57,second,71,lustig,IAT_yellow3.bmp,yellow,starting_scream,scream,starting,m,positive,negative,ES_red,1,m,666,1910603,1911107,1911311
57,second,72,lästig,IAT_purple1.bmp,purple,starting_melody,melody,starting,c,negative,positive,ES_red,1,c,580,1913052,1913556,1913760
57,second,73,feige,IAT_red2.bmp,red,ending_scream,scream,ending,c,negative,positive,ES_red,1,c,555,1915414,1915919,1916123
57,second,74,schön,IAT_green2.bmp,green,ending_melody,melody,ending,m,positive,negative,ES_red,1,m,538,1917752,1918256,1918460
57,second,75,lustig,IAT_green1.bmp,green,ending_melody,melody,ending,m,positive,negative,ES_red,1,m,682,1920072,1920576,1920781
57,second,76,sozial,IAT_purple4.bmp,purple,starting_melody,melody,starting,m,positive,positive,ES_red,1,m,698,1922536,1923041,1923245
57,second,77,gerecht,IAT_green3.bmp,green,ending_melody,melody,ending,m,positive,negative,ES_red,1,m,590,1925017,1925521,1925725
57,second,78,munter,IAT_red3.bmp,red,ending_scream,scream,ending,m,positive,positive,ES_red,1,m,553,1927389,1927893,1928097
57,second,79,morsch,IAT_yellow4.bmp,yellow,starting_scream,scream,starting,c,negative,negative,ES_red,1,c,527,1929725,1930229,1930433
57,second,80,gesund,IAT_yellow2.bmp,yellow,starting_scream,scream,starting,m,positive,negative,ES_red,1,m,564,1932034,1932538,1932742
57,second,81,gerecht,IAT_yellow4.bmp,yellow,starting_scream,scream,starting,m,positive,negative,ES_red,1,m,556,1934380,1934884,1935088
57,second,82,geizig,IAT_red2.bmp,red,ending_scream,scream,ending,c,negative,positive,ES_red,1,c,750,1936718,1937222,1937426
57,second,83,human,IAT_green1.bmp,green,ending_melody,melody,ending,m,positive,negative,ES_red,1,m,578,1939250,1939754,1939958
57,second,84,kaputt,IAT_green2.bmp,green,ending_melody,melody,ending,c,negative,negative,ES_red,1,c,519,1941611,1942115,1942319
57,second,85,lustig,IAT_red1.bmp,red,ending_scream,scream,ending,m,positive,positive,ES_red,1,m,686,1943913,1944417,1944621
57,second,86,brutal,IAT_red4.bmp,red,ending_scream,scream,ending,c,negative,positive,ES_red,1,c,533,1946380,1946884,1947088
57,second,87,witzig,IAT_purple3.bmp,purple,starting_melody,melody,starting,m,positive,positive,ES_red,1,m,650,1948696,1949200,1949404
57,second,88,einsam,IAT_purple3.bmp,purple,starting_melody,melody,starting,c,negative,positive,ES_red,1,c,563,1951128,1951632,1951836
57,second,89,brutal,IAT_red3.bmp,red,ending_scream,scream,ending,c,negative,positive,ES_red,1,c,584,1953474,1953978,1954182
57,second,90,falsch,IAT_purple4.bmp,purple,starting_melody,melody,starting,c,negative,positive,ES_red,1,c,626,1955839,1956343,1956547
57,second,91,einsam,IAT_green2.bmp,green,ending_melody,melody,ending,c,negative,negative,ES_red,1,c,641,1958247,1958752,1958956
57,second,92,feige,IAT_green2.bmp,green,ending_melody,melody,ending,c,negative,negative,ES_red,1,c,659,1960671,1961175,1961379
57,second,93,lustig,IAT_yellow1.bmp,yellow,starting_scream,scream,starting,m,positive,negative,ES_red,1,m,584,1963112,1963616,1963820
57,second,94,schön,IAT_yellow3.bmp,yellow,starting_scream,scream,starting,m,positive,negative,ES_red,1,m,452,1965479,1965983,1966187
57,second,95,lästig,IAT_purple2.bmp,purple,starting_melody,melody,starting,c,negative,positive,ES_red,1,c,638,1967714,1968218,1968422
57,third,0,gierig,IAT_purple4.bmp,purple,starting_melody,melody,starting,c,negative,positive,ES_red,1,c,558,1983670,1984175,1984379
57,third,1,gesund,IAT_red4.bmp,red,ending_scream,scream,ending,m,positive,positive,ES_red,1,m,456,1986012,1986516,1986720
57,third,2,sonnig,IAT_red4.bmp,red,ending_scream,scream,ending,m,positive,positive,ES_red,1,m,457,1988250,1988754,1988958
57,third,3,witzig,IAT_red3.bmp,red,ending_scream,scream,ending,m,positive,positive,ES_red,1,m,418,1990489,1990993,1991197
57,third,4,schön,IAT_red1.bmp,red,ending_scream,scream,ending,m,positive,positive,ES_red,1,m,395,1992688,1993193,1993397
57,third,5,kaputt,IAT_red2.bmp,red,ending_scream,scream,ending,c,negative,positive,ES_red,1,c,433,1994866,1995370,1995574
57,third,6,brutal,IAT_red2.bmp,red,ending_scream,scream,ending,c,negative,positive,ES_red,1,c,403,1997080,1997584,1997788
57,third,7,teuer,IAT_purple4.bmp,purple,starting_melody,melody,starting,c,negative,positive,ES_red,0,m,691,1999263,1999767,1999971
57,third,8,brutal,IAT_red4.bmp,red,ending_scream,scream,ending,c,negative,positive,ES_red,1,c,468,2002237,2002742,2002946
57,third,9,kaputt,IAT_red3.bmp,red,ending_scream,scream,ending,c,negative,positive,ES_red,1,c,397,2004488,2004992,2005196
57,third,10,streng,IAT_purple2.bmp,purple,starting_melody,melody,starting,c,negative,positive,ES_red,1,c,531,2006667,2007171,2007375
57,third,11,lustig,IAT_purple4.bmp,purple,starting_melody,melody,starting,m,positive,positive,ES_red,1,m,476,2008979,2009483,2009687
57,third,12,teuer,IAT_yellow2.bmp,yellow,starting_scream,scream,starting,c,negative,negative,ES_red,1,c,547,2011237,2011741,2011945
57,third,13,krank,IAT_purple4.bmp,purple,starting_melody,melody,starting,c,negative,positive,ES_red,1,c,435,2013565,2014071,2014275
57,third,14,streng,IAT_green1.bmp,green,ending_melody,melody,ending,c,negative,negative,ES_red,1,c,467,2015783,2016287,2016491
57,third,15,teuer,IAT_yellow4.bmp,yellow,starting_scream,scream,starting,c,negative,negative,ES_red,1,c,390,2018032,2018536,2018740
57,third,16,heiter,IAT_green3.bmp,green,ending_melody,melody,ending,m,positive,negative,ES_red,1,m,470,2020203,2020708,2020912
57,third,17,geizig,IAT_green2.bmp,green,ending_melody,melody,ending,c,negative,negative,ES_red,1,c,584,2022455,2022959,2023163
57,third,18,gerecht,IAT_yellow1.bmp,yellow,starting_scream,scream,starting,m,positive,negative,ES_red,1,m,564,2024821,2025325,2025529
57,third,19,munter,IAT_yellow3.bmp,yellow,starting_scream,scream,starting,m,positive,negative,ES_red,1,m,592,2027167,2027671,2027875
57,third,20,sozial,IAT_red2.bmp,red,ending_scream,scream,ending,m,positive,positive,ES_red,1,m,543,2029540,2030045,2030249
57,third,21,einsam,IAT_green4.bmp,green,ending_melody,melody,ending,c,negative,negative,ES_red,1,c,557,2031865,2032370,2032574
57,third,22,ehrlich,IAT_green1.bmp,green,ending_melody,melody,ending,m,positive,negative,ES_red,1,m,513,2034204,2034708,2034912
57,third,23,morsch,IAT_red4.bmp,red,ending_scream,scream,ending,c,negative,positive,ES_red,1,c,504,2036499,2037003,2037207
57,third,24,lästig,IAT_purple2.bmp,purple,starting_melody,melody,starting,c,negative,positive,ES_red,1,c,616,2038785,2039289,2039493
57,third,25,geizig,IAT_green1.bmp,green,ending_melody,melody,ending,c,negative,negative,ES_red,1,c,571,2041182,2041686,2041890
57,third,26,feige,IAT_green2.bmp,green,ending_melody,melody,ending,c,negative,negative,ES_red,1,c,484,2043536,2044041,2044245
57,third,27,sozial,IAT_yellow4.bmp,yellow,starting_scream,scream,starting,m,positive,negative,ES_red,1,m,539,2045802,2046307,2046511
57,third,28,falsch,IAT_yellow2.bmp,yellow,starting_scream,scream,starting,c,negative,negative,ES_red,1,c,392,2048123,2048628,2048832
57,third,29,munter,IAT_green1.bmp,green,ending_melody,melody,ending,m,positive,negative,ES_red,1,m,526,2050298,2050802,2051006
57,third,30,einsam,IAT_purple4.bmp,purple,starting_melody,melody,starting,c,negative,positive,ES_red,1,c,531,2052607,2053111,2053315
57,third,31,streng,IAT_red3.bmp,red,ending_scream,scream,ending,c,negative,positive,ES_red,1,c,496,2054919,2055424,2055628
57,third,32,gerecht,IAT_red3.bmp,red,ending_scream,scream,ending,m,positive,positive,ES_red,0,c,367,2057198,2057702,2057906
57,third,33,brutal,IAT_yellow4.bmp,yellow,starting_scream,scream,starting,c,negative,negative,ES_red,1,c,575,2059848,2060352,2060556
57,third,34,witzig,IAT_purple2.bmp,purple,starting_melody,melody,starting,m,positive,positive,ES_red,1,m,528,2062206,2062710,2062914
57,third,35,human,IAT_yellow3.bmp,yellow,starting_scream,scream,starting,m,positive,negative,ES_red,1,m,533,2064516,2065021,2065225
57,third,36,sonnig,IAT_red1.bmp,red,ending_scream,scream,ending,m,positive,positive,ES_red,1,m,440,2066832,2067336,2067540
57,third,37,krank,IAT_green4.bmp,green,ending_melody,melody,ending,c,negative,negative,ES_red,1,c,452,2069053,2069557,2069761
57,third,38,gesund,IAT_red3.bmp,red,ending_scream,scream,ending,m,positive,positive,ES_red,1,m,537,2071287,2071792,2071996
57,third,39,feige,IAT_purple3.bmp,purple,starting_melody,melody,starting,c,negative,positive,ES_red,1,c,521,2073607,2074111,2074315
57,third,40,lustig,IAT_green3.bmp,green,ending_melody,melody,ending,m,positive,negative,ES_red,1,m,509,2075910,2076414,2076618
57,third,41,gierig,IAT_red2.bmp,red,ending_scream,scream,ending,c,negative,positive,ES_red,1,c,594,2078201,2078706,2078911
57,third,42,krank,IAT_green4.bmp,green,ending_melody,melody,ending,c,negative,negative,ES_red,1,c,498,2080578,2081082,2081286
57,third,43,ehrlich,IAT_red1.bmp,red,ending_scream,scream,ending,m,positive,positive,ES_red,1,m,576,2082858,2083362,2083566
57,third,44,lästig,IAT_yellow4.bmp,yellow,starting_scream,scream,starting,c,negative,negative,ES_red,1,c,339,2085217,2085721,2085925
57,third,45,heiter,IAT_red2.bmp,red,ending_scream,scream,ending,m,positive,positive,ES_red,1,m,412,2087338,2087842,2088046
57,third,46,gesund,IAT_yellow2.bmp,yellow,starting_scream,scream,starting,m,positive,negative,ES_red,0,c,332,2089533,2090038,2090242
57,third,47,teuer,IAT_purple1.bmp,purple,starting_melody,melody,starting,c,negative,positive,ES_red,1,c,671,2092148,2092652,2092856
57,third,48,sozial,IAT_yellow1.bmp,yellow,starting_scream,scream,starting,m,positive,negative,ES_red,1,m,440,2094601,2095106,2095310
57,third,49,sonnig,IAT_green1.bmp,green,ending_melody,melody,ending,m,positive,negative,ES_red,1,m,439,2096824,2097329,2097533
57,third,50,munter,IAT_green4.bmp,green,ending_melody,melody,ending,m,positive,negative,ES_red,1,m,680,2099045,2099550,2099754
57,third,51,heiter,IAT_purple1.bmp,purple,starting_melody,melody,starting,m,positive,positive,ES_red,1,m,528,2101508,2102013,2102217
57,third,52,schön,IAT_yellow4.bmp,yellow,starting_scream,scream,starting,m,positive,negative,ES_red,1,m,503,2103820,2104324,2104528
57,third,53,lustig,IAT_red3.bmp,red,ending_scream,scream,ending,m,positive,positive,ES_red,1,m,463,2106106,2106610,2106814
57,third,54,morsch,IAT_yellow3.bmp,yellow,starting_scream,scream,starting,c,negative,negative,ES_red,1,c,418,2108351,2108855,2109059
57,third,55,falsch,IAT_yellow2.bmp,yellow,starting_scream,scream,starting,c,negative,negative,ES_red,1,c,405,2110550,2111054,2111258
57,third,56,kaputt,IAT_red1.bmp,red,ending_scream,scream,ending,c,negative,positive,ES_red,1,c,560,2112737,2113241,2113445
57,third,57,lästig,IAT_purple2.bmp,purple,starting_melody,melody,starting,c,negative,positive,ES_red,1,c,487,2115078,2115583,2115787
57,third,58,geizig,IAT_purple1.bmp,purple,starting_melody,melody,starting,c,negative,positive,ES_red,1,c,416,2117349,2117853,2118057
57,third,59,gerecht,IAT_purple4.bmp,purple,starting_melody,melody,starting,m,positive,positive,ES_red,1,m,775,2119547,2120051,2120255
57,third,60,feige,IAT_green3.bmp,green,ending_melody,melody,ending,c,negative,negative,ES_red,1,c,635,2122103,2122608,2122812
57,third,61,kaputt,IAT_green4.bmp,green,ending_melody,melody,ending,c,negative,negative,ES_red,1,c,751,2124520,2125024,2125228
57,third,62,sanft,IAT_purple3.bmp,purple,starting_melody,melody,starting,m,positive,positive,ES_red,1,m,486,2127052,2127557,2127761
57,third,63,brutal,IAT_yellow1.bmp,yellow,starting_scream,scream,starting,c,negative,negative,ES_red,1,c,497,2129322,2129826,2130031
57,third,64,krank,IAT_red2.bmp,red,ending_scream,scream,ending,c,negative,positive,ES_red,1,c,758,2131601,2132106,2132310
57,third,65,sonnig,IAT_green4.bmp,green,ending_melody,melody,ending,m,positive,negative,ES_red,1,m,395,2134142,2134647,2134851
57,third,66,falsch,IAT_purple3.bmp,purple,starting_melody,melody,starting,c,negative,positive,ES_red,1,c,455,2136320,2136824,2137028
57,third,67,lustig,IAT_yellow3.bmp,yellow,starting_scream,scream,starting,m,positive,negative,ES_red,1,m,570,2138558,2139062,2139266
57,third,68,schön,IAT_green2.bmp,green,ending_melody,melody,ending,m,positive,negative,ES_red,1,m,523,2140909,2141413,2141617
57,third,69,munter,IAT_purple1.bmp,purple,starting_melody,melody,starting,m,positive,positive,ES_red,0,c,319,2143214,2143719,2143923
57,third,70,ehrlich,IAT_yellow2.bmp,yellow,starting_scream,scream,starting,m,positive,negative,ES_red,1,m,653,2145818,2146322,2146526
57,third,71,geizig,IAT_red4.bmp,red,ending_scream,scream,ending,c,negative,positive,ES_red,1,c,534,2148252,2148756,2148961
57,third,72,gesund,IAT_yellow3.bmp,yellow,starting_scream,scream,starting,m,positive,negative,ES_red,1,m,471,2150569,2151073,2151277
57,third,73,feige,IAT_red4.bmp,red,ending_scream,scream,ending,c,negative,positive,ES_red,1,c,398,2152823,2153327,2153531
57,third,74,gierig,IAT_yellow4.bmp,yellow,starting_scream,scream,starting,c,negative,negative,ES_red,0,m,428,2155003,2155507,2155711
57,third,75,sanft,IAT_green1.bmp,green,ending_melody,melody,ending,m,positive,negative,ES_red,1,m,632,2157713,2158217,2158421
57,third,76,witzig,IAT_red1.bmp,red,ending_scream,scream,ending,m,positive,positive,ES_red,0,c,672,2160128,2160632,2160836
57,third,77,einsam,IAT_red1.bmp,red,ending_scream,scream,ending,c,negative,positive,ES_red,1,c,728,2163082,2163587,2163791
57,third,78,lästig,IAT_purple2.bmp,purple,starting_melody,melody,starting,c,negative,positive,ES_red,1,c,557,2165592,2166097,2166301
57,third,79,sanft,IAT_purple2.bmp,purple,starting_melody,melody,starting,m,positive,positive,ES_red,1,m,456,2167933,2168437,2168641
57,third,80,sozial,IAT_purple3.bmp,purple,starting_melody,melody,starting,m,positive,positive,ES_red,1,m,472,2170170,2170674,2170878
57,third,81,falsch,IAT_yellow1.bmp,yellow,starting_scream,scream,starting,c,negative,negative,ES_red,1,c,428,2172425,2172929,2173133
57,third,82,sanft,IAT_yellow1.bmp,yellow,starting_scream,scream,starting,m,positive,negative,ES_red,1,m,422,2174636,2175141,2175345
57,third,83,human,IAT_purple3.bmp,purple,starting_melody,melody,starting,m,positive,positive,ES_red,1,m,563,2176840,2177344,2177548
57,third,84,ehrlich,IAT_purple3.bmp,purple,starting_melody,melody,starting,m,positive,positive,ES_red,1,m,421,2179185,2179689,2179893
57,third,85,morsch,IAT_green2.bmp,green,ending_melody,melody,ending,c,negative,negative,ES_red,1,c,482,2181388,2181892,2182096
57,third,86,human,IAT_yellow1.bmp,yellow,starting_scream,scream,starting,m,positive,negative,ES_red,1,m,544,2183653,2184157,2184361
57,third,87,streng,IAT_yellow2.bmp,yellow,starting_scream,scream,starting,c,negative,negative,ES_red,1,c,569,2185979,2186484,2186688
57,third,88,schön,IAT_purple1.bmp,purple,starting_melody,melody,starting,m,positive,positive,ES_red,1,m,427,2188332,2188836,2189040
57,third,89,witzig,IAT_green3.bmp,green,ending_melody,melody,ending,m,positive,negative,ES_red,0,c,414,2190542,2191046,2191250
57,third,90,human,IAT_purple1.bmp,purple,starting_melody,melody,starting,m,positive,positive,ES_red,1,m,479,2193239,2193743,2193947
57,third,91,gerecht,IAT_green2.bmp,green,ending_melody,melody,ending,m,positive,negative,ES_red,1,m,496,2195500,2196004,2196208
57,third,92,morsch,IAT_yellow3.bmp,yellow,starting_scream,scream,starting,c,negative,negative,ES_red,1,c,517,2197779,2198283,2198487
57,third,93,gierig,IAT_green2.bmp,green,ending_melody,melody,ending,c,negative,negative,ES_red,1,c,651,2200078,2200582,2200786
57,third,94,einsam,IAT_green3.bmp,green,ending_melody,melody,ending,c,negative,negative,ES_red,1,c,567,2202511,2203015,2203219
57,third,95,heiter,IAT_green3.bmp,green,ending_melody,melody,ending,m,positive,negative,ES_red,1,m,594,2204861,2205365,2205569
57,forth,0,gerecht,IAT_green3.bmp,green,ending_melody,melody,ending,m,positive,negative,ES_red,1,m,512,2226188,2226693,2226897
57,forth,1,geizig,IAT_purple4.bmp,purple,starting_melody,melody,starting,c,negative,positive,ES_red,1,c,486,2228483,2228988,2229192
57,forth,2,schön,IAT_green2.bmp,green,ending_melody,melody,ending,m,positive,negative,ES_red,1,m,399,2230752,2231257,2231461
57,forth,3,munter,IAT_yellow1.bmp,yellow,starting_scream,scream,starting,m,positive,negative,ES_red,0,c,515,2232933,2233438,2233642
57,forth,4,heiter,IAT_purple3.bmp,purple,starting_melody,melody,starting,m,positive,positive,ES_red,1,m,574,2235731,2236235,2236439
57,forth,5,einsam,IAT_yellow2.bmp,yellow,starting_scream,scream,starting,c,negative,negative,ES_red,1,c,373,2238087,2238592,2238796
57,forth,6,kaputt,IAT_red2.bmp,red,ending_scream,scream,ending,c,negative,positive,ES_red,1,c,504,2240243,2240747,2240951
57,forth,7,human,IAT_purple2.bmp,purple,starting_melody,melody,starting,m,positive,positive,ES_red,1,m,573,2242529,2243033,2243237
57,forth,8,witzig,IAT_purple1.bmp,purple,starting_melody,melody,starting,m,positive,positive,ES_red,1,m,498,2244884,2245388,2245592
57,forth,9,gierig,IAT_yellow4.bmp,yellow,starting_scream,scream,starting,c,negative,negative,ES_red,1,c,484,2247165,2247669,2247873
57,forth,10,lästig,IAT_yellow2.bmp,yellow,starting_scream,scream,starting,c,negative,negative,ES_red,1,c,450,2249432,2249936,2250140
57,forth,11,lustig,IAT_yellow3.bmp,yellow,starting_scream,scream,starting,m,positive,negative,ES_red,0,c,718,2251664,2252168,2252372
57,forth,12,witzig,IAT_green4.bmp,green,ending_melody,melody,ending,m,positive,negative,ES_red,1,m,950,2254665,2255169,2255373
57,forth,13,human,IAT_yellow3.bmp,yellow,starting_scream,scream,starting,m,positive,negative,ES_red,1,m,619,2257398,2257902,2258106
57,forth,14,schön,IAT_green3.bmp,green,ending_melody,melody,ending,m,positive,negative,ES_red,1,m,471,2259799,2260304,2260508
57,forth,15,ehrlich,IAT_green2.bmp,green,ending_melody,melody,ending,m,positive,negative,ES_red,1,m,530,2262053,2262557,2262761
57,forth,16,teuer,IAT_purple3.bmp,purple,starting_melody,melody,starting,c,negative,positive,ES_red,1,c,534,2264364,2264868,2265072
57,forth,17,munter,IAT_green1.bmp,green,ending_melody,melody,ending,m,positive,negative,ES_red,1,m,606,2266680,2267184,2267388
57,forth,18,sonnig,IAT_purple3.bmp,purple,starting_melody,melody,starting,m,positive,positive,ES_red,1,m,499,2269067,2269572,2269776
57,forth,19,gierig,IAT_green4.bmp,green,ending_melody,melody,ending,c,negative,negative,ES_red,1,c,823,2271352,2271856,2272061
57,forth,20,gesund,IAT_red1.bmp,red,ending_scream,scream,ending,m,positive,positive,ES_red,1,m,789,2273958,2274462,2274666
57,forth,21,lästig,IAT_purple4.bmp,purple,starting_melody,melody,starting,c,negative,positive,ES_red,1,c,546,2276529,2277033,2277237
57,forth,22,morsch,IAT_red2.bmp,red,ending_scream,scream,ending,c,negative,positive,ES_red,1,c,489,2278858,2279362,2279566
57,forth,23,kaputt,IAT_yellow2.bmp,yellow,starting_scream,scream,starting,c,negative,negative,ES_red,1,c,548,2281130,2281634,2281838
57,forth,24,human,IAT_red4.bmp,red,ending_scream,scream,ending,m,positive,positive,ES_red,1,m,449,2283459,2283964,2284168
57,forth,25,feige,IAT_red4.bmp,red,ending_scream,scream,ending,c,negative,positive,ES_red,1,c,494,2285691,2286196,2286400
57,forth,26,krank,IAT_green2.bmp,green,ending_melody,melody,ending,c,negative,negative,ES_red,1,c,465,2287969,2288473,2288677
57,forth,27,morsch,IAT_red1.bmp,red,ending_scream,scream,ending,c,negative,positive,ES_red,1,c,439,2290216,2290720,2290924
57,forth,28,sozial,IAT_red1.bmp,red,ending_scream,scream,ending,m,positive,positive,ES_red,1,m,476,2292438,2292942,2293146
57,forth,29,heiter,IAT_purple4.bmp,purple,starting_melody,melody,starting,m,positive,positive,ES_red,1,m,390,2294697,2295201,2295405
57,forth,30,gerecht,IAT_purple3.bmp,purple,starting_melody,melody,starting,m,positive,positive,ES_red,0,c,472,2296869,2297373,2297577
57,forth,31,kaputt,IAT_green2.bmp,green,ending_melody,melody,ending,c,negative,negative,ES_red,1,c,553,2299624,2300128,2300332
57,forth,32,teuer,IAT_purple4.bmp,purple,starting_melody,melody,starting,c,negative,positive,ES_red,1,c,453,2301959,2302463,2302667
57,forth,33,einsam,IAT_red4.bmp,red,ending_scream,scream,ending,c,negative,positive,ES_red,1,c,627,2304195,2304699,2304903
57,forth,34,sanft,IAT_purple1.bmp,purple,starting_melody,melody,starting,m,positive,positive,ES_red,1,m,454,2306605,2307109,2307313
57,forth,35,feige,IAT_green3.bmp,green,ending_melody,melody,ending,c,negative,negative,ES_red,1,c,537,2308842,2309346,2309550
57,forth,36,brutal,IAT_green4.bmp,green,ending_melody,melody,ending,c,negative,negative,ES_red,1,c,526,2311162,2311666,2311870
57,forth,37,witzig,IAT_red1.bmp,red,ending_scream,scream,ending,m,positive,positive,ES_red,1,m,609,2313472,2313976,2314180
57,forth,38,munter,IAT_purple2.bmp,purple,starting_melody,melody,starting,m,positive,positive,ES_red,1,m,802,2315864,2316368,2316572
57,forth,39,falsch,IAT_green2.bmp,green,ending_melody,melody,ending,c,negative,negative,ES_red,1,c,487,2318448,2318952,2319156
57,forth,40,geizig,IAT_yellow4.bmp,yellow,starting_scream,scream,starting,c,negative,negative,ES_red,0,m,532,2320718,2321222,2321426
57,forth,41,sanft,IAT_green3.bmp,green,ending_melody,melody,ending,m,positive,negative,ES_red,1,m,513,2323533,2324037,2324241
57,forth,42,sonnig,IAT_green1.bmp,green,ending_melody,melody,ending,m,positive,negative,ES_red,1,m,498,2325828,2326333,2326537
57,forth,43,teuer,IAT_green3.bmp,green,ending_melody,melody,ending,c,negative,negative,ES_red,1,c,520,2328110,2328614,2328818
57,forth,44,streng,IAT_green1.bmp,green,ending_melody,melody,ending,c,negative,negative,ES_red,1,c,512,2330412,2330916,2331120
57,forth,45,brutal,IAT_green4.bmp,green,ending_melody,melody,ending,c,negative,negative,ES_red,1,c,465,2332709,2333213,2333417
57,forth,46,gesund,IAT_yellow4.bmp,yellow,starting_scream,scream,starting,m,positive,negative,ES_red,1,m,494,2334958,2335462,2335666
57,forth,47,lustig,IAT_red3.bmp,red,ending_scream,scream,ending,m,positive,positive,ES_red,1,m,468,2337235,2337739,2337943
57,forth,48,feige,IAT_red4.bmp,red,ending_scream,scream,ending,c,negative,positive,ES_red,1,c,522,2339486,2339991,2340195
57,forth,49,gesund,IAT_red4.bmp,red,ending_scream,scream,ending,m,positive,positive,ES_red,1,m,449,2341792,2342296,2342500
57,forth,50,einsam,IAT_yellow4.bmp,yellow,starting_scream,scream,starting,c,negative,negative,ES_red,1,c,436,2344024,2344528,2344732
57,forth,51,ehrlich,IAT_purple1.bmp,purple,starting_melody,melody,starting,m,positive,positive,ES_red,1,m,352,2346243,2346747,2346951
57,forth,52,schön,IAT_yellow3.bmp,yellow,starting_scream,scream,starting,m,positive,negative,ES_red,0,c,383,2348378,2348882,2349086
57,forth,53,krank,IAT_red3.bmp,red,ending_scream,scream,ending,c,negative,positive,ES_red,1,c,477,2351044,2351548,2351752
57,forth,54,sozial,IAT_yellow2.bmp,yellow,starting_scream,scream,starting,m,positive,negative,ES_red,1,m,528,2353304,2353808,2354012
57,forth,55,falsch,IAT_green2.bmp,green,ending_melody,melody,ending,c,negative,negative,ES_red,1,c,413,2355614,2356118,2356322
57,forth,56,streng,IAT_purple2.bmp,purple,starting_melody,melody,starting,c,negative,positive,ES_red,1,c,613,2357809,2358314,2358518
57,forth,57,munter,IAT_yellow1.bmp,yellow,starting_scream,scream,starting,m,positive,negative,ES_red,0,c,507,2360207,2360711,2360915
57,forth,58,geizig,IAT_purple1.bmp,purple,starting_melody,melody,starting,c,negative,positive,ES_red,1,c,717,2362997,2363501,2363705
57,forth,59,streng,IAT_yellow3.bmp,yellow,starting_scream,scream,starting,c,negative,negative,ES_red,1,c,518,2365497,2366002,2366206
57,forth,60,sanft,IAT_green1.bmp,green,ending_melody,melody,ending,m,positive,negative,ES_red,1,m,508,2367798,2368303,2368507
57,forth,61,geizig,IAT_yellow1.bmp,yellow,starting_scream,scream,starting,c,negative,negative,ES_red,1,c,664,2370090,2370594,2370798
57,forth,62,feige,IAT_yellow1.bmp,yellow,starting_scream,scream,starting,c,negative,negative,ES_red,1,c,556,2372538,2373042,2373246
57,forth,63,krank,IAT_purple2.bmp,purple,starting_melody,melody,starting,c,negative,positive,ES_red,1,c,857,2374878,2375382,2375586
57,forth,64,sonnig,IAT_green1.bmp,green,ending_melody,melody,ending,m,positive,negative,ES_red,1,m,491,2377518,2378022,2378226
57,forth,65,lustig,IAT_purple1.bmp,purple,starting_melody,melody,starting,m,positive,positive,ES_red,1,m,622,2379791,2380296,2380500
57,forth,66,streng,IAT_purple3.bmp,purple,starting_melody,melody,starting,c,negative,positive,ES_red,1,c,562,2382196,2382700,2382904
57,forth,67,sozial,IAT_yellow1.bmp,yellow,starting_scream,scream,starting,m,positive,negative,ES_red,1,m,529,2384541,2385045,2385249
57,forth,68,lästig,IAT_red3.bmp,red,ending_scream,scream,ending,c,negative,positive,ES_red,1,c,490,2386854,2387358,2387562
57,forth,69,witzig,IAT_green4.bmp,green,ending_melody,melody,ending,m,positive,negative,ES_red,1,m,505,2389127,2389631,2389835
57,forth,70,heiter,IAT_purple3.bmp,purple,starting_melody,melody,starting,m,positive,positive,ES_red,1,m,568,2391414,2391918,2392122
57,forth,71,krank,IAT_red4.bmp,red,ending_scream,scream,ending,c,negative,positive,ES_red,1,c,485,2393764,2394269,2394473
57,forth,72,gesund,IAT_yellow4.bmp,yellow,starting_scream,scream,starting,m,positive,negative,ES_red,1,m,579,2396033,2396538,2396742
57,forth,73,morsch,IAT_yellow3.bmp,yellow,starting_scream,scream,starting,c,negative,negative,ES_red,1,c,503,2398397,2398901,2399105
57,forth,74,sanft,IAT_green3.bmp,green,ending_melody,melody,ending,m,positive,negative,ES_red,1,m,706,2400682,2401187,2401391
57,forth,75,ehrlich,IAT_yellow2.bmp,yellow,starting_scream,scream,starting,m,positive,negative,ES_red,0,c,388,2403172,2403676,2403880
57,forth,76,gerecht,IAT_red3.bmp,red,ending_scream,scream,ending,m,positive,positive,ES_red,1,m,649,2405843,2406348,2406552
57,forth,77,gierig,IAT_green1.bmp,green,ending_melody,melody,ending,c,negative,negative,ES_red,1,c,700,2408276,2408781,2408985
57,forth,78,lästig,IAT_purple1.bmp,purple,starting_melody,melody,starting,c,negative,positive,ES_red,1,c,830,2410759,2411264,2411468
57,forth,79,sozial,IAT_red3.bmp,red,ending_scream,scream,ending,m,positive,positive,ES_red,1,m,625,2413373,2413877,2414081
57,forth,80,morsch,IAT_purple2.bmp,purple,starting_melody,melody,starting,c,negative,positive,ES_red,1,c,554,2415781,2416285,2416489
57,forth,81,heiter,IAT_red2.bmp,red,ending_scream,scream,ending,m,positive,positive,ES_red,1,m,512,2418118,2418622,2418826
57,forth,82,human,IAT_yellow3.bmp,yellow,starting_scream,scream,starting,m,positive,negative,ES_red,1,m,608,2420413,2420917,2421121
57,forth,83,falsch,IAT_green4.bmp,green,ending_melody,melody,ending,c,negative,negative,ES_red,1,c,504,2422804,2423309,2423513
57,forth,84,brutal,IAT_red1.bmp,red,ending_scream,scream,ending,c,negative,positive,ES_red,1,c,501,2425092,2425596,2425801
57,forth,85,gierig,IAT_red2.bmp,red,ending_scream,scream,ending,c,negative,positive,ES_red,1,c,444,2427379,2427883,2428087
57,forth,86,teuer,IAT_purple4.bmp,purple,starting_melody,melody,starting,c,negative,positive,ES_red,1,c,455,2429605,2430110,2430314
57,forth,87,kaputt,IAT_yellow2.bmp,yellow,starting_scream,scream,starting,c,negative,negative,ES_red,1,c,401,2431845,2432349,2432553
57,forth,88,ehrlich,IAT_red3.bmp,red,ending_scream,scream,ending,m,positive,positive,ES_red,0,c,449,2434030,2434534,2434738
57,forth,89,gerecht,IAT_purple4.bmp,purple,starting_melody,melody,starting,m,positive,positive,ES_red,0,c,491,2436763,2437267,2437471
57,forth,90,schön,IAT_red1.bmp,red,ending_scream,scream,ending,m,positive,positive,ES_red,1,m,430,2439538,2440042,2440246
57,forth,91,brutal,IAT_purple2.bmp,purple,starting_melody,melody,starting,c,negative,positive,ES_red,1,c,520,2441751,2442255,2442459
57,forth,92,sonnig,IAT_yellow1.bmp,yellow,starting_scream,scream,starting,m,positive,negative,ES_red,1,m,536,2444055,2444559,2444763
57,forth,93,einsam,IAT_red2.bmp,red,ending_scream,scream,ending,c,negative,positive,ES_red,1,c,590,2446374,2446878,2447082
57,forth,94,lustig,IAT_red2.bmp,red,ending_scream,scream,ending,m,positive,positive,ES_red,1,m,494,2448747,2449251,2449455
57,forth,95,falsch,IAT_yellow4.bmp,yellow,starting_scream,scream,starting,c,negative,negative,ES_red,1,c,440,2451024,2451528,2451732
