subject_nr,block,trialnr,trial_target,trial_prime,prime_color,prime_role,prime_us,prime_relation,correct_response,target_valence,prime_valence,color_counter,correct_first_response,response_first_response,response_time_first_response,fixation_show,prime_show,target_show
52,first,0,lustig,IAT_purple3.bmp,purple,starting_melody,melody,starting,m,positive,positive,ES_red,1,m,702,1492901,1493405,1493609
52,first,1,brutal,IAT_yellow4.bmp,yellow,starting_scream,scream,starting,c,negative,negative,ES_red,0,m,465,1495385,1495890,1496094
52,first,2,schön,IAT_purple2.bmp,purple,starting_melody,melody,starting,m,positive,positive,ES_red,1,m,534,1498133,1498637,1498841
52,first,3,sonnig,IAT_red1.bmp,red,ending_scream,scream,ending,m,positive,positive,ES_red,1,m,497,1500449,1500953,1501157
52,first,4,krank,IAT_yellow4.bmp,yellow,starting_scream,scream,starting,c,negative,negative,ES_red,1,c,534,1502728,1503232,1503436
52,first,5,ehrlich,IAT_yellow3.bmp,yellow,starting_scream,scream,starting,m,positive,negative,ES_red,1,m,521,1505042,1505547,1505751
52,first,6,morsch,IAT_green1.bmp,green,ending_melody,melody,ending,c,negative,negative,ES_red,1,c,604,1507346,1507850,1508054
52,first,7,gerecht,IAT_red2.bmp,red,ending_scream,scream,ending,m,positive,positive,ES_red,1,m,611,1509732,1510236,1510440
52,first,8,gierig,IAT_red3.bmp,red,ending_scream,scream,ending,c,negative,positive,ES_red,1,c,774,1512123,1512628,1512832
52,first,9,teuer,IAT_yellow2.bmp,yellow,starting_scream,scream,starting,c,negative,negative,ES_red,1,c,626,1514679,1515183,1515387
52,first,10,falsch,IAT_green4.bmp,green,ending_melody,melody,ending,c,negative,negative,ES_red,1,c,553,1517086,1517590,1517794
52,first,11,heiter,IAT_green3.bmp,green,ending_melody,melody,ending,m,positive,negative,ES_red,1,m,574,1519422,1519926,1520130
52,first,12,lästig,IAT_red2.bmp,red,ending_scream,scream,ending,c,negative,positive,ES_red,1,c,726,1521778,1522282,1522486
52,first,13,gerecht,IAT_yellow2.bmp,yellow,starting_scream,scream,starting,m,positive,negative,ES_red,1,m,545,1524285,1524789,1524993
52,first,14,sanft,IAT_green4.bmp,green,ending_melody,melody,ending,m,positive,negative,ES_red,1,m,547,1526612,1527116,1527320
52,first,15,krank,IAT_yellow3.bmp,yellow,starting_scream,scream,starting,c,negative,negative,ES_red,1,c,563,1528941,1529445,1529649
52,first,16,einsam,IAT_red1.bmp,red,ending_scream,scream,ending,c,negative,positive,ES_red,0,m,567,1531294,1531798,1532002
52,first,17,human,IAT_yellow2.bmp,yellow,starting_scream,scream,starting,m,positive,negative,ES_red,1,m,578,1534144,1534648,1534852
52,first,18,teuer,IAT_green2.bmp,green,ending_melody,melody,ending,c,negative,negative,ES_red,1,c,547,1536503,1537007,1537211
52,first,19,munter,IAT_green1.bmp,green,ending_melody,melody,ending,m,positive,negative,ES_red,1,m,684,1538831,1539335,1539539
52,first,20,lustig,IAT_purple1.bmp,purple,starting_melody,melody,starting,m,positive,positive,ES_red,1,m,499,1541297,1541801,1542005
52,first,21,gesund,IAT_green3.bmp,green,ending_melody,melody,ending,m,positive,negative,ES_red,1,m,706,1543578,1544082,1544286
52,first,22,falsch,IAT_yellow1.bmp,yellow,starting_scream,scream,starting,c,negative,negative,ES_red,1,c,588,1546066,1546570,1546774
52,first,23,kaputt,IAT_yellow4.bmp,yellow,starting_scream,scream,starting,c,negative,negative,ES_red,1,c,601,1548436,1548941,1549146
52,first,24,brutal,IAT_purple2.bmp,purple,starting_melody,melody,starting,c,negative,positive,ES_red,1,c,590,1550821,1551325,1551529
52,first,25,lustig,IAT_yellow4.bmp,yellow,starting_scream,scream,starting,m,positive,negative,ES_red,1,m,536,1553193,1553697,1553901
52,first,26,feige,IAT_purple2.bmp,purple,starting_melody,melody,starting,c,negative,positive,ES_red,1,c,575,1555511,1556015,1556219
52,first,27,brutal,IAT_purple3.bmp,purple,starting_melody,melody,starting,c,negative,positive,ES_red,1,c,614,1557867,1558371,1558575
52,first,28,munter,IAT_red3.bmp,red,ending_scream,scream,ending,m,positive,positive,ES_red,1,m,590,1560262,1560767,1560971
52,first,29,einsam,IAT_yellow2.bmp,yellow,starting_scream,scream,starting,c,negative,negative,ES_red,1,c,646,1562634,1563138,1563342
52,first,30,lästig,IAT_green1.bmp,green,ending_melody,melody,ending,c,negative,negative,ES_red,1,c,589,1565062,1565566,1565770
52,first,31,feige,IAT_purple4.bmp,purple,starting_melody,melody,starting,c,negative,positive,ES_red,1,c,619,1567433,1567937,1568141
52,first,32,human,IAT_green1.bmp,green,ending_melody,melody,ending,m,positive,negative,ES_red,1,m,590,1569833,1570337,1570541
52,first,33,sanft,IAT_red1.bmp,red,ending_scream,scream,ending,m,positive,positive,ES_red,1,m,559,1572206,1572710,1572914
52,first,34,witzig,IAT_purple3.bmp,purple,starting_melody,melody,starting,m,positive,positive,ES_red,1,m,511,1574546,1575051,1575255
52,first,35,geizig,IAT_purple4.bmp,purple,starting_melody,melody,starting,c,negative,positive,ES_red,1,c,568,1576840,1577344,1577548
52,first,36,human,IAT_purple4.bmp,purple,starting_melody,melody,starting,m,positive,positive,ES_red,1,m,499,1579190,1579695,1579899
52,first,37,morsch,IAT_purple3.bmp,purple,starting_melody,melody,starting,c,negative,positive,ES_red,1,c,560,1581471,1581976,1582180
52,first,38,sozial,IAT_purple3.bmp,purple,starting_melody,melody,starting,m,positive,positive,ES_red,1,m,521,1583813,1584317,1584521
52,first,39,kaputt,IAT_yellow4.bmp,yellow,starting_scream,scream,starting,c,negative,negative,ES_red,1,c,695,1586116,1586620,1586825
52,first,40,streng,IAT_purple4.bmp,purple,starting_melody,melody,starting,c,negative,positive,ES_red,1,c,655,1588594,1589098,1589302
52,first,41,gierig,IAT_purple2.bmp,purple,starting_melody,melody,starting,c,negative,positive,ES_red,1,c,527,1591032,1591536,1591740
52,first,42,schön,IAT_red4.bmp,red,ending_scream,scream,ending,m,positive,positive,ES_red,1,m,899,1593341,1593845,1594049
52,first,43,morsch,IAT_green4.bmp,green,ending_melody,melody,ending,c,negative,negative,ES_red,1,c,468,1596022,1596526,1596730
52,first,44,geizig,IAT_red4.bmp,red,ending_scream,scream,ending,c,negative,positive,ES_red,1,c,604,1598274,1598778,1598982
52,first,45,falsch,IAT_green4.bmp,green,ending_melody,melody,ending,c,negative,negative,ES_red,1,c,529,1600660,1601164,1601368
52,first,46,witzig,IAT_yellow3.bmp,yellow,starting_scream,scream,starting,m,positive,negative,ES_red,1,m,557,1602971,1603475,1603679
52,first,47,feige,IAT_purple2.bmp,purple,starting_melody,melody,starting,c,negative,positive,ES_red,1,c,555,1605311,1605815,1606019
52,first,48,kaputt,IAT_green3.bmp,green,ending_melody,melody,ending,c,negative,negative,ES_red,1,c,610,1607648,1608152,1608356
52,first,49,krank,IAT_purple1.bmp,purple,starting_melody,melody,starting,c,negative,positive,ES_red,1,c,722,1610041,1610546,1610750
52,first,50,munter,IAT_green1.bmp,green,ending_melody,melody,ending,m,positive,negative,ES_red,1,m,677,1612546,1613050,1613254
52,first,51,lästig,IAT_yellow2.bmp,yellow,starting_scream,scream,starting,c,negative,negative,ES_red,1,c,579,1615005,1615509,1615713
52,first,52,streng,IAT_red3.bmp,red,ending_scream,scream,ending,c,negative,positive,ES_red,1,c,672,1617366,1617870,1618075
52,first,53,heiter,IAT_yellow1.bmp,yellow,starting_scream,scream,starting,m,positive,negative,ES_red,1,m,735,1619821,1620325,1620529
52,first,54,sonnig,IAT_red2.bmp,red,ending_scream,scream,ending,m,positive,positive,ES_red,1,m,546,1622338,1622843,1623047
52,first,55,witzig,IAT_red1.bmp,red,ending_scream,scream,ending,m,positive,positive,ES_red,1,m,512,1624667,1625171,1625375
52,first,56,einsam,IAT_purple4.bmp,purple,starting_melody,melody,starting,c,negative,positive,ES_red,1,c,616,1626961,1627466,1627670
52,first,57,teuer,IAT_red2.bmp,red,ending_scream,scream,ending,c,negative,positive,ES_red,1,c,619,1629361,1629865,1630069
52,first,58,brutal,IAT_purple1.bmp,purple,starting_melody,melody,starting,c,negative,positive,ES_red,1,c,607,1631762,1632267,1632471
52,first,59,einsam,IAT_green3.bmp,green,ending_melody,melody,ending,c,negative,negative,ES_red,1,c,690,1634152,1634656,1634860
52,first,60,morsch,IAT_green2.bmp,green,ending_melody,melody,ending,c,negative,negative,ES_red,1,c,510,1636623,1637128,1637332
52,first,61,sonnig,IAT_green4.bmp,green,ending_melody,melody,ending,m,positive,negative,ES_red,1,m,641,1638917,1639421,1639625
52,first,62,schön,IAT_yellow1.bmp,yellow,starting_scream,scream,starting,m,positive,negative,ES_red,1,m,543,1641341,1641845,1642049
52,first,63,falsch,IAT_yellow1.bmp,yellow,starting_scream,scream,starting,c,negative,negative,ES_red,1,c,434,1643667,1644171,1644375
52,first,64,sanft,IAT_purple1.bmp,purple,starting_melody,melody,starting,m,positive,positive,ES_red,1,m,501,1645883,1646387,1646591
52,first,65,heiter,IAT_purple1.bmp,purple,starting_melody,melody,starting,m,positive,positive,ES_red,1,m,494,1648166,1648670,1648874
52,first,66,streng,IAT_red4.bmp,red,ending_scream,scream,ending,c,negative,positive,ES_red,1,c,510,1650443,1650947,1651151
52,first,67,lästig,IAT_red4.bmp,red,ending_scream,scream,ending,c,negative,positive,ES_red,1,c,652,1652735,1653239,1653443
52,first,68,feige,IAT_red2.bmp,red,ending_scream,scream,ending,c,negative,positive,ES_red,1,c,592,1655169,1655673,1655877
52,first,69,gerecht,IAT_green3.bmp,green,ending_melody,melody,ending,m,positive,negative,ES_red,1,m,589,1657543,1658047,1658251
52,first,70,gierig,IAT_red2.bmp,red,ending_scream,scream,ending,c,negative,positive,ES_red,1,c,584,1659914,1660418,1660622
52,first,71,gesund,IAT_yellow1.bmp,yellow,starting_scream,scream,starting,m,positive,negative,ES_red,1,m,586,1662282,1662786,1662990
52,first,72,ehrlich,IAT_red3.bmp,red,ending_scream,scream,ending,m,positive,positive,ES_red,1,m,576,1664650,1665154,1665358
52,first,73,gesund,IAT_red1.bmp,red,ending_scream,scream,ending,m,positive,positive,ES_red,1,m,531,1667008,1667513,1667717
52,first,74,human,IAT_red3.bmp,red,ending_scream,scream,ending,m,positive,positive,ES_red,1,m,512,1669322,1669827,1670031
52,first,75,schön,IAT_purple3.bmp,purple,starting_melody,melody,starting,m,positive,positive,ES_red,1,m,572,1671618,1672122,1672326
52,first,76,ehrlich,IAT_yellow4.bmp,yellow,starting_scream,scream,starting,m,positive,negative,ES_red,1,m,737,1673972,1674477,1674681
52,first,77,teuer,IAT_red4.bmp,red,ending_scream,scream,ending,c,negative,positive,ES_red,1,c,563,1676492,1676996,1677200
52,first,78,krank,IAT_red1.bmp,red,ending_scream,scream,ending,c,negative,positive,ES_red,1,c,566,1678837,1679341,1679545
52,first,79,heiter,IAT_yellow1.bmp,yellow,starting_scream,scream,starting,m,positive,negative,ES_red,1,m,544,1681185,1681689,1681893
52,first,80,kaputt,IAT_yellow2.bmp,yellow,starting_scream,scream,starting,c,negative,negative,ES_red,1,c,514,1683511,1684015,1684219
52,first,81,geizig,IAT_green2.bmp,green,ending_melody,melody,ending,c,negative,negative,ES_red,1,c,611,1685808,1686312,1686516
52,first,82,gerecht,IAT_green2.bmp,green,ending_melody,melody,ending,m,positive,negative,ES_red,1,m,735,1688201,1688705,1688909
52,first,83,sanft,IAT_purple2.bmp,purple,starting_melody,melody,starting,m,positive,positive,ES_red,1,m,569,1690718,1691222,1691426
52,first,84,sozial,IAT_green2.bmp,green,ending_melody,melody,ending,m,positive,negative,ES_red,1,m,512,1693069,1693573,1693777
52,first,85,ehrlich,IAT_purple4.bmp,purple,starting_melody,melody,starting,m,positive,positive,ES_red,1,m,631,1695362,1695867,1696071
52,first,86,gesund,IAT_green3.bmp,green,ending_melody,melody,ending,m,positive,negative,ES_red,1,m,466,1697776,1698280,1698484
52,first,87,sozial,IAT_yellow3.bmp,yellow,starting_scream,scream,starting,m,positive,negative,ES_red,1,m,472,1700023,1700528,1700732
52,first,88,lustig,IAT_green1.bmp,green,ending_melody,melody,ending,m,positive,negative,ES_red,1,m,543,1702279,1702783,1702987
52,first,89,sonnig,IAT_red4.bmp,red,ending_scream,scream,ending,m,positive,positive,ES_red,1,m,423,1704604,1705108,1705312
52,first,90,munter,IAT_red3.bmp,red,ending_scream,scream,ending,m,positive,positive,ES_red,1,m,528,1706810,1707315,1707519
52,first,91,gierig,IAT_yellow3.bmp,yellow,starting_scream,scream,starting,c,negative,negative,ES_red,1,c,600,1709121,1709626,1709830
52,first,92,streng,IAT_green2.bmp,green,ending_melody,melody,ending,c,negative,negative,ES_red,1,c,606,1711503,1712007,1712211
52,first,93,geizig,IAT_green4.bmp,green,ending_melody,melody,ending,c,negative,negative,ES_red,1,c,604,1713892,1714396,1714600
52,first,94,witzig,IAT_yellow3.bmp,yellow,starting_scream,scream,starting,m,positive,negative,ES_red,1,m,528,1716279,1716784,1716988
52,first,95,sozial,IAT_purple1.bmp,purple,starting_melody,melody,starting,m,positive,positive,ES_red,1,m,481,1718591,1719095,1719299
52,second,0,kaputt,IAT_green2.bmp,green,ending_melody,melody,ending,c,negative,negative,ES_red,1,c,580,1744533,1745038,1745242
52,second,1,gerecht,IAT_green3.bmp,green,ending_melody,melody,ending,m,positive,negative,ES_red,1,m,518,1746896,1747401,1747605
52,second,2,heiter,IAT_purple3.bmp,purple,starting_melody,melody,starting,m,positive,positive,ES_red,1,m,529,1749196,1749700,1749904
52,second,3,lustig,IAT_purple1.bmp,purple,starting_melody,melody,starting,m,positive,positive,ES_red,1,m,462,1751506,1752010,1752214
52,second,4,sonnig,IAT_green3.bmp,green,ending_melody,melody,ending,m,positive,negative,ES_red,1,m,505,1753750,1754254,1754458
52,second,5,einsam,IAT_purple1.bmp,purple,starting_melody,melody,starting,c,negative,positive,ES_red,1,c,615,1756037,1756541,1756745
52,second,6,krank,IAT_green1.bmp,green,ending_melody,melody,ending,c,negative,negative,ES_red,1,c,551,1758433,1758937,1759141
52,second,7,streng,IAT_purple4.bmp,purple,starting_melody,melody,starting,c,negative,positive,ES_red,1,c,559,1760765,1761269,1761473
52,second,8,teuer,IAT_red4.bmp,red,ending_scream,scream,ending,c,negative,positive,ES_red,1,c,526,1763104,1763609,1763813
52,second,9,streng,IAT_yellow4.bmp,yellow,starting_scream,scream,starting,c,negative,negative,ES_red,1,c,566,1765413,1765917,1766121
52,second,10,ehrlich,IAT_red3.bmp,red,ending_scream,scream,ending,m,positive,positive,ES_red,1,m,700,1767761,1768265,1768469
52,second,11,krank,IAT_purple3.bmp,purple,starting_melody,melody,starting,c,negative,positive,ES_red,1,c,490,1770242,1770746,1770950
52,second,12,geizig,IAT_red2.bmp,red,ending_scream,scream,ending,c,negative,positive,ES_red,1,c,576,1772513,1773017,1773221
52,second,13,streng,IAT_yellow4.bmp,yellow,starting_scream,scream,starting,c,negative,negative,ES_red,1,c,507,1774871,1775375,1775579
52,second,14,brutal,IAT_green4.bmp,green,ending_melody,melody,ending,c,negative,negative,ES_red,1,c,497,1777159,1777664,1777868
52,second,15,schön,IAT_yellow4.bmp,yellow,starting_scream,scream,starting,m,positive,negative,ES_red,1,m,489,1779440,1779944,1780148
52,second,16,geizig,IAT_purple2.bmp,purple,starting_melody,melody,starting,c,negative,positive,ES_red,1,c,519,1781712,1782216,1782420
52,second,17,gierig,IAT_red3.bmp,red,ending_scream,scream,ending,c,negative,positive,ES_red,0,m,559,1784012,1784517,1784721
52,second,18,human,IAT_red2.bmp,red,ending_scream,scream,ending,m,positive,positive,ES_red,1,m,660,1786855,1787359,1787563
52,second,19,gesund,IAT_green3.bmp,green,ending_melody,melody,ending,m,positive,negative,ES_red,1,m,624,1789296,1789801,1790005
52,second,20,streng,IAT_green3.bmp,green,ending_melody,melody,ending,c,negative,negative,ES_red,1,c,599,1791702,1792207,1792411
52,second,21,sanft,IAT_yellow3.bmp,yellow,starting_scream,scream,starting,m,positive,negative,ES_red,1,m,482,1794084,1794588,1794792
52,second,22,sonnig,IAT_yellow3.bmp,yellow,starting_scream,scream,starting,m,positive,negative,ES_red,1,m,521,1796348,1796852,1797056
52,second,23,lustig,IAT_green3.bmp,green,ending_melody,melody,ending,m,positive,negative,ES_red,1,m,508,1798651,1799155,1799359
52,second,24,sozial,IAT_green1.bmp,green,ending_melody,melody,ending,m,positive,negative,ES_red,1,m,533,1800941,1801445,1801649
52,second,25,falsch,IAT_green2.bmp,green,ending_melody,melody,ending,c,negative,negative,ES_red,1,c,495,1803255,1803760,1803964
52,second,26,krank,IAT_yellow3.bmp,yellow,starting_scream,scream,starting,c,negative,negative,ES_red,1,c,573,1805532,1806036,1806240
52,second,27,sanft,IAT_purple1.bmp,purple,starting_melody,melody,starting,m,positive,positive,ES_red,1,m,539,1807886,1808390,1808594
52,second,28,gesund,IAT_green1.bmp,green,ending_melody,melody,ending,m,positive,negative,ES_red,1,m,491,1810207,1810711,1810915
52,second,29,lustig,IAT_purple2.bmp,purple,starting_melody,melody,starting,m,positive,positive,ES_red,1,m,478,1812480,1812984,1813188
52,second,30,lästig,IAT_yellow1.bmp,yellow,starting_scream,scream,starting,c,negative,negative,ES_red,1,c,608,1814742,1815246,1815450
52,second,31,morsch,IAT_purple2.bmp,purple,starting_melody,melody,starting,c,negative,positive,ES_red,1,c,605,1817133,1817637,1817841
52,second,32,human,IAT_purple1.bmp,purple,starting_melody,melody,starting,m,positive,positive,ES_red,1,m,505,1819520,1820024,1820228
52,second,33,schön,IAT_red1.bmp,red,ending_scream,scream,ending,m,positive,positive,ES_red,1,m,457,1821806,1822311,1822515
52,second,34,sanft,IAT_purple3.bmp,purple,starting_melody,melody,starting,m,positive,positive,ES_red,1,m,551,1824046,1824550,1824754
52,second,35,sonnig,IAT_red1.bmp,red,ending_scream,scream,ending,m,positive,positive,ES_red,1,m,509,1826379,1826883,1827087
52,second,36,falsch,IAT_purple4.bmp,purple,starting_melody,melody,starting,c,negative,positive,ES_red,1,c,534,1828670,1829174,1829378
52,second,37,sozial,IAT_yellow4.bmp,yellow,starting_scream,scream,starting,m,positive,negative,ES_red,1,m,529,1830986,1831491,1831695
52,second,38,sanft,IAT_purple3.bmp,purple,starting_melody,melody,starting,m,positive,positive,ES_red,1,m,467,1833297,1833801,1834005
52,second,39,gierig,IAT_green2.bmp,green,ending_melody,melody,ending,c,negative,negative,ES_red,1,c,576,1835546,1836050,1836254
52,second,40,munter,IAT_yellow3.bmp,yellow,starting_scream,scream,starting,m,positive,negative,ES_red,1,m,582,1837904,1838408,1838612
52,second,41,morsch,IAT_red2.bmp,red,ending_scream,scream,ending,c,negative,positive,ES_red,1,c,500,1840268,1840772,1840976
52,second,42,ehrlich,IAT_purple2.bmp,purple,starting_melody,melody,starting,m,positive,positive,ES_red,1,m,592,1842550,1843054,1843258
52,second,43,brutal,IAT_purple2.bmp,purple,starting_melody,melody,starting,c,negative,positive,ES_red,1,c,505,1844925,1845430,1845635
52,second,44,morsch,IAT_green1.bmp,green,ending_melody,melody,ending,c,negative,negative,ES_red,1,c,543,1847214,1847718,1847922
52,second,45,schön,IAT_green1.bmp,green,ending_melody,melody,ending,m,positive,negative,ES_red,1,m,511,1849538,1850043,1850247
52,second,46,brutal,IAT_yellow3.bmp,yellow,starting_scream,scream,starting,c,negative,negative,ES_red,1,c,485,1851832,1852337,1852541
52,second,47,kaputt,IAT_purple4.bmp,purple,starting_melody,melody,starting,c,negative,positive,ES_red,1,c,655,1854100,1854604,1854808
52,second,48,munter,IAT_red4.bmp,red,ending_scream,scream,ending,m,positive,positive,ES_red,1,m,679,1856537,1857041,1857245
52,second,49,gerecht,IAT_yellow1.bmp,yellow,starting_scream,scream,starting,m,positive,negative,ES_red,1,m,560,1859000,1859504,1859708
52,second,50,feige,IAT_yellow1.bmp,yellow,starting_scream,scream,starting,c,negative,negative,ES_red,1,c,466,1861343,1861847,1862051
52,second,51,brutal,IAT_green4.bmp,green,ending_melody,melody,ending,c,negative,negative,ES_red,1,c,574,1863591,1864095,1864299
52,second,52,witzig,IAT_red3.bmp,red,ending_scream,scream,ending,m,positive,positive,ES_red,1,m,547,1865947,1866452,1866656
52,second,53,teuer,IAT_green2.bmp,green,ending_melody,melody,ending,c,negative,negative,ES_red,1,c,455,1868277,1868781,1868985
52,second,54,krank,IAT_yellow2.bmp,yellow,starting_scream,scream,starting,c,negative,negative,ES_red,1,c,485,1870515,1871019,1871223
52,second,55,gierig,IAT_red4.bmp,red,ending_scream,scream,ending,c,negative,positive,ES_red,1,c,537,1872782,1873287,1873491
52,second,56,sozial,IAT_yellow1.bmp,yellow,starting_scream,scream,starting,m,positive,negative,ES_red,1,m,525,1875102,1875606,1875810
52,second,57,heiter,IAT_red3.bmp,red,ending_scream,scream,ending,m,positive,positive,ES_red,1,m,750,1877410,1877915,1878119
52,second,58,lustig,IAT_purple1.bmp,purple,starting_melody,melody,starting,m,positive,positive,ES_red,1,m,476,1879943,1880447,1880651
52,second,59,ehrlich,IAT_yellow1.bmp,yellow,starting_scream,scream,starting,m,positive,negative,ES_red,1,m,554,1882203,1882707,1882911
52,second,60,feige,IAT_green4.bmp,green,ending_melody,melody,ending,c,negative,negative,ES_red,1,c,602,1884539,1885043,1885247
52,second,61,falsch,IAT_yellow4.bmp,yellow,starting_scream,scream,starting,c,negative,negative,ES_red,1,c,503,1886923,1887427,1887631
52,second,62,gierig,IAT_purple3.bmp,purple,starting_melody,melody,starting,c,negative,positive,ES_red,1,c,631,1889208,1889712,1889916
52,second,63,munter,IAT_red4.bmp,red,ending_scream,scream,ending,m,positive,positive,ES_red,1,m,627,1891622,1892126,1892330
52,second,64,human,IAT_purple3.bmp,purple,starting_melody,melody,starting,m,positive,positive,ES_red,1,m,527,1894031,1894535,1894739
52,second,65,lästig,IAT_red1.bmp,red,ending_scream,scream,ending,c,negative,positive,ES_red,1,c,678,1896342,1896846,1897051
52,second,66,einsam,IAT_red4.bmp,red,ending_scream,scream,ending,c,negative,positive,ES_red,1,c,748,1898803,1899307,1899511
52,second,67,lästig,IAT_yellow2.bmp,yellow,starting_scream,scream,starting,c,negative,negative,ES_red,1,c,593,1901333,1901837,1902041
52,second,68,feige,IAT_yellow4.bmp,yellow,starting_scream,scream,starting,c,negative,negative,ES_red,1,c,591,1903710,1904214,1904418
52,second,69,gerecht,IAT_yellow2.bmp,yellow,starting_scream,scream,starting,m,positive,negative,ES_red,1,m,712,1906083,1906587,1906791
52,second,70,einsam,IAT_red4.bmp,red,ending_scream,scream,ending,c,negative,positive,ES_red,1,c,685,1908578,1909082,1909286
52,second,71,teuer,IAT_yellow2.bmp,yellow,starting_scream,scream,starting,c,negative,negative,ES_red,1,c,604,1911046,1911550,1911754
52,second,72,gesund,IAT_red3.bmp,red,ending_scream,scream,ending,m,positive,positive,ES_red,1,m,622,1913433,1913937,1914141
52,second,73,heiter,IAT_green4.bmp,green,ending_melody,melody,ending,m,positive,negative,ES_red,1,m,576,1915837,1916341,1916545
52,second,74,gerecht,IAT_purple4.bmp,purple,starting_melody,melody,starting,m,positive,positive,ES_red,1,m,698,1918195,1918700,1918905
52,second,75,kaputt,IAT_green3.bmp,green,ending_melody,melody,ending,c,negative,negative,ES_red,1,c,603,1920677,1921181,1921385
52,second,76,lästig,IAT_purple1.bmp,purple,starting_melody,melody,starting,c,negative,positive,ES_red,1,c,723,1923062,1923566,1923770
52,second,77,einsam,IAT_red3.bmp,red,ending_scream,scream,ending,c,negative,positive,ES_red,1,c,658,1925568,1926073,1926277
52,second,78,falsch,IAT_yellow2.bmp,yellow,starting_scream,scream,starting,c,negative,negative,ES_red,1,c,567,1928010,1928514,1928718
52,second,79,gesund,IAT_green4.bmp,green,ending_melody,melody,ending,m,positive,negative,ES_red,1,m,524,1930360,1930864,1931068
52,second,80,geizig,IAT_purple4.bmp,purple,starting_melody,melody,starting,c,negative,positive,ES_red,1,c,833,1932666,1933170,1933375
52,second,81,ehrlich,IAT_yellow2.bmp,yellow,starting_scream,scream,starting,m,positive,negative,ES_red,1,m,521,1935283,1935787,1935991
52,second,82,human,IAT_red1.bmp,red,ending_scream,scream,ending,m,positive,positive,ES_red,1,m,514,1937587,1938091,1938295
52,second,83,witzig,IAT_yellow1.bmp,yellow,starting_scream,scream,starting,m,positive,negative,ES_red,1,m,562,1939883,1940387,1940591
52,second,84,morsch,IAT_purple2.bmp,purple,starting_melody,melody,starting,c,negative,positive,ES_red,1,c,539,1942228,1942732,1942936
52,second,85,teuer,IAT_red2.bmp,red,ending_scream,scream,ending,c,negative,positive,ES_red,1,c,609,1944550,1945054,1945258
52,second,86,sonnig,IAT_red2.bmp,red,ending_scream,scream,ending,m,positive,positive,ES_red,1,m,535,1946942,1947446,1947650
52,second,87,sozial,IAT_red1.bmp,red,ending_scream,scream,ending,m,positive,positive,ES_red,1,m,450,1949260,1949765,1949969
52,second,88,schön,IAT_green1.bmp,green,ending_melody,melody,ending,m,positive,negative,ES_red,1,m,595,1951493,1951997,1952201
52,second,89,witzig,IAT_green2.bmp,green,ending_melody,melody,ending,m,positive,negative,ES_red,1,m,491,1953871,1954375,1954579
52,second,90,kaputt,IAT_red2.bmp,red,ending_scream,scream,ending,c,negative,positive,ES_red,1,c,597,1956145,1956649,1956853
52,second,91,feige,IAT_red1.bmp,red,ending_scream,scream,ending,c,negative,positive,ES_red,1,c,505,1958523,1959028,1959232
52,second,92,geizig,IAT_green4.bmp,green,ending_melody,melody,ending,c,negative,negative,ES_red,1,c,538,1960812,1961316,1961520
52,second,93,heiter,IAT_yellow3.bmp,yellow,starting_scream,scream,starting,m,positive,negative,ES_red,1,m,564,1963133,1963637,1963841
52,second,94,munter,IAT_green2.bmp,green,ending_melody,melody,ending,m,positive,negative,ES_red,0,c,523,1965479,1965984,1966188
52,second,95,witzig,IAT_purple4.bmp,purple,starting_melody,melody,starting,m,positive,positive,ES_red,1,m,813,1968287,1968791,1968995
52,third,0,einsam,IAT_yellow3.bmp,yellow,starting_scream,scream,starting,c,negative,negative,ES_red,1,c,663,2003109,2003613,2003817
52,third,1,gerecht,IAT_purple2.bmp,purple,starting_melody,melody,starting,m,positive,positive,ES_red,1,m,699,2005554,2006059,2006263
52,third,2,sanft,IAT_red1.bmp,red,ending_scream,scream,ending,m,positive,positive,ES_red,1,m,666,2008035,2008539,2008743
52,third,3,morsch,IAT_red3.bmp,red,ending_scream,scream,ending,c,negative,positive,ES_red,1,c,537,2010483,2010987,2011191
52,third,4,gierig,IAT_yellow3.bmp,yellow,starting_scream,scream,starting,c,negative,negative,ES_red,1,c,521,2012801,2013306,2013510
52,third,5,kaputt,IAT_purple3.bmp,purple,starting_melody,melody,starting,c,negative,positive,ES_red,0,m,425,2015104,2015608,2015812
52,third,6,brutal,IAT_purple4.bmp,purple,starting_melody,melody,starting,c,negative,positive,ES_red,1,c,572,2017811,2018316,2018520
52,third,7,witzig,IAT_yellow4.bmp,yellow,starting_scream,scream,starting,m,positive,negative,ES_red,1,m,531,2020167,2020671,2020875
52,third,8,sonnig,IAT_green1.bmp,green,ending_melody,melody,ending,m,positive,negative,ES_red,1,m,478,2022480,2022985,2023189
52,third,9,human,IAT_purple1.bmp,purple,starting_melody,melody,starting,m,positive,positive,ES_red,1,m,508,2024742,2025246,2025450
52,third,10,feige,IAT_purple3.bmp,purple,starting_melody,melody,starting,c,negative,positive,ES_red,1,c,517,2027032,2027536,2027740
52,third,11,geizig,IAT_red1.bmp,red,ending_scream,scream,ending,c,negative,positive,ES_red,1,c,519,2029332,2029836,2030040
52,third,12,lästig,IAT_green2.bmp,green,ending_melody,melody,ending,c,negative,negative,ES_red,1,c,586,2031633,2032137,2032341
52,third,13,gesund,IAT_yellow4.bmp,yellow,starting_scream,scream,starting,m,positive,negative,ES_red,1,m,502,2034001,2034506,2034710
52,third,14,kaputt,IAT_green4.bmp,green,ending_melody,melody,ending,c,negative,negative,ES_red,1,c,541,2036286,2036790,2036994
52,third,15,ehrlich,IAT_green3.bmp,green,ending_melody,melody,ending,m,positive,negative,ES_red,1,m,635,2038610,2039115,2039319
52,third,16,falsch,IAT_yellow2.bmp,yellow,starting_scream,scream,starting,c,negative,negative,ES_red,1,c,474,2041028,2041532,2041736
52,third,17,geizig,IAT_purple2.bmp,purple,starting_melody,melody,starting,c,negative,positive,ES_red,1,c,541,2043286,2043790,2043994
52,third,18,krank,IAT_green2.bmp,green,ending_melody,melody,ending,c,negative,negative,ES_red,1,c,584,2045610,2046114,2046318
52,third,19,teuer,IAT_yellow4.bmp,yellow,starting_scream,scream,starting,c,negative,negative,ES_red,1,c,519,2047976,2048480,2048684
52,third,20,morsch,IAT_purple4.bmp,purple,starting_melody,melody,starting,c,negative,positive,ES_red,1,c,516,2050277,2050781,2050985
52,third,21,lästig,IAT_red4.bmp,red,ending_scream,scream,ending,c,negative,positive,ES_red,1,c,530,2052576,2053080,2053284
52,third,22,gierig,IAT_red1.bmp,red,ending_scream,scream,ending,c,negative,positive,ES_red,1,c,540,2054887,2055392,2055596
52,third,23,sozial,IAT_red1.bmp,red,ending_scream,scream,ending,m,positive,positive,ES_red,1,m,432,2057210,2057715,2057919
52,third,24,lustig,IAT_yellow1.bmp,yellow,starting_scream,scream,starting,m,positive,negative,ES_red,1,m,495,2059425,2059930,2060134
52,third,25,lästig,IAT_green1.bmp,green,ending_melody,melody,ending,c,negative,negative,ES_red,1,c,524,2061702,2062207,2062411
52,third,26,ehrlich,IAT_purple2.bmp,purple,starting_melody,melody,starting,m,positive,positive,ES_red,1,m,518,2064010,2064515,2064719
52,third,27,geizig,IAT_purple1.bmp,purple,starting_melody,melody,starting,c,negative,positive,ES_red,1,c,540,2066312,2066816,2067020
52,third,28,feige,IAT_yellow4.bmp,yellow,starting_scream,scream,starting,c,negative,negative,ES_red,1,c,539,2068634,2069138,2069342
52,third,29,witzig,IAT_red2.bmp,red,ending_scream,scream,ending,m,positive,positive,ES_red,1,m,554,2070955,2071459,2071663
52,third,30,falsch,IAT_red2.bmp,red,ending_scream,scream,ending,c,negative,positive,ES_red,1,c,479,2073292,2073796,2074000
52,third,31,einsam,IAT_green2.bmp,green,ending_melody,melody,ending,c,negative,negative,ES_red,1,c,585,2075555,2076059,2076263
52,third,32,krank,IAT_red2.bmp,red,ending_scream,scream,ending,c,negative,positive,ES_red,1,c,519,2077923,2078427,2078631
52,third,33,falsch,IAT_purple2.bmp,purple,starting_melody,melody,starting,c,negative,positive,ES_red,1,c,558,2080226,2080730,2080935
52,third,34,munter,IAT_red4.bmp,red,ending_scream,scream,ending,m,positive,positive,ES_red,1,m,645,2082567,2083071,2083275
52,third,35,lustig,IAT_purple3.bmp,purple,starting_melody,melody,starting,m,positive,positive,ES_red,1,m,517,2084993,2085497,2085701
52,third,36,heiter,IAT_yellow3.bmp,yellow,starting_scream,scream,starting,m,positive,negative,ES_red,1,m,550,2087292,2087796,2088000
52,third,37,sonnig,IAT_yellow2.bmp,yellow,starting_scream,scream,starting,m,positive,negative,ES_red,1,m,527,2089625,2090129,2090333
52,third,38,krank,IAT_red4.bmp,red,ending_scream,scream,ending,c,negative,positive,ES_red,1,c,529,2091935,2092439,2092643
52,third,39,brutal,IAT_yellow4.bmp,yellow,starting_scream,scream,starting,c,negative,negative,ES_red,1,c,577,2094249,2094753,2094957
52,third,40,gierig,IAT_purple4.bmp,purple,starting_melody,melody,starting,c,negative,positive,ES_red,1,c,567,2096608,2097113,2097317
52,third,41,teuer,IAT_green4.bmp,green,ending_melody,melody,ending,c,negative,negative,ES_red,1,c,514,2098959,2099463,2099667
52,third,42,heiter,IAT_green1.bmp,green,ending_melody,melody,ending,m,positive,negative,ES_red,1,m,538,2101256,2101760,2101964
52,third,43,munter,IAT_green3.bmp,green,ending_melody,melody,ending,m,positive,negative,ES_red,1,m,569,2103576,2104080,2104284
52,third,44,streng,IAT_red4.bmp,red,ending_scream,scream,ending,c,negative,positive,ES_red,1,c,572,2105927,2106431,2106635
52,third,45,schön,IAT_yellow1.bmp,yellow,starting_scream,scream,starting,m,positive,negative,ES_red,1,m,536,2108283,2108787,2108991
52,third,46,gerecht,IAT_yellow3.bmp,yellow,starting_scream,scream,starting,m,positive,negative,ES_red,1,m,572,2110602,2111106,2111310
52,third,47,sonnig,IAT_green1.bmp,green,ending_melody,melody,ending,m,positive,negative,ES_red,1,m,539,2112956,2113460,2113664
52,third,48,witzig,IAT_red3.bmp,red,ending_scream,scream,ending,m,positive,positive,ES_red,1,m,459,2115278,2115783,2115987
52,third,49,brutal,IAT_green4.bmp,green,ending_melody,melody,ending,c,negative,negative,ES_red,1,c,588,2117521,2118025,2118229
52,third,50,human,IAT_green4.bmp,green,ending_melody,melody,ending,m,positive,negative,ES_red,1,m,512,2119892,2120396,2120600
52,third,51,gesund,IAT_purple1.bmp,purple,starting_melody,melody,starting,m,positive,positive,ES_red,1,m,497,2122186,2122691,2122895
52,third,52,sozial,IAT_green2.bmp,green,ending_melody,melody,ending,m,positive,negative,ES_red,1,m,495,2124467,2124971,2125175
52,third,53,witzig,IAT_green4.bmp,green,ending_melody,melody,ending,m,positive,negative,ES_red,1,m,482,2126745,2127249,2127453
52,third,54,ehrlich,IAT_red4.bmp,red,ending_scream,scream,ending,m,positive,positive,ES_red,1,m,472,2129010,2129514,2129718
52,third,55,teuer,IAT_purple1.bmp,purple,starting_melody,melody,starting,c,negative,positive,ES_red,1,c,512,2131266,2131771,2131975
52,third,56,streng,IAT_red3.bmp,red,ending_scream,scream,ending,c,negative,positive,ES_red,0,m,484,2133563,2134067,2134271
52,third,57,sonnig,IAT_purple4.bmp,purple,starting_melody,melody,starting,m,positive,positive,ES_red,1,m,584,2136330,2136834,2137038
52,third,58,munter,IAT_green3.bmp,green,ending_melody,melody,ending,m,positive,negative,ES_red,1,m,605,2138696,2139201,2139405
52,third,59,human,IAT_red1.bmp,red,ending_scream,scream,ending,m,positive,positive,ES_red,1,m,488,2141084,2141589,2141793
52,third,60,kaputt,IAT_green3.bmp,green,ending_melody,melody,ending,c,negative,negative,ES_red,1,c,489,2143355,2143860,2144065
52,third,61,sanft,IAT_red2.bmp,red,ending_scream,scream,ending,m,positive,positive,ES_red,1,m,528,2145629,2146134,2146338
52,third,62,gesund,IAT_purple3.bmp,purple,starting_melody,melody,starting,m,positive,positive,ES_red,1,m,483,2147941,2148445,2148649
52,third,63,schön,IAT_purple1.bmp,purple,starting_melody,melody,starting,m,positive,positive,ES_red,1,m,556,2150207,2150711,2150915
52,third,64,brutal,IAT_purple2.bmp,purple,starting_melody,melody,starting,c,negative,positive,ES_red,1,c,582,2152547,2153051,2153255
52,third,65,morsch,IAT_purple2.bmp,purple,starting_melody,melody,starting,c,negative,positive,ES_red,1,c,528,2154912,2155416,2155620
52,third,66,sanft,IAT_red3.bmp,red,ending_scream,scream,ending,m,positive,positive,ES_red,1,m,549,2157223,2157727,2157931
52,third,67,ehrlich,IAT_red3.bmp,red,ending_scream,scream,ending,m,positive,positive,ES_red,1,m,552,2159555,2160059,2160263
52,third,68,feige,IAT_red4.bmp,red,ending_scream,scream,ending,c,negative,positive,ES_red,1,c,505,2161890,2162395,2162599
52,third,69,einsam,IAT_yellow2.bmp,yellow,starting_scream,scream,starting,c,negative,negative,ES_red,1,c,609,2164179,2164684,2164888
52,third,70,heiter,IAT_purple1.bmp,purple,starting_melody,melody,starting,m,positive,positive,ES_red,1,m,509,2166572,2167077,2167281
52,third,71,krank,IAT_green4.bmp,green,ending_melody,melody,ending,c,negative,negative,ES_red,1,c,471,2168866,2169370,2169574
52,third,72,human,IAT_yellow1.bmp,yellow,starting_scream,scream,starting,m,positive,negative,ES_red,1,m,592,2171120,2171625,2171829
52,third,73,falsch,IAT_green3.bmp,green,ending_melody,melody,ending,c,negative,negative,ES_red,1,c,412,2173495,2173999,2174203
52,third,74,lustig,IAT_red3.bmp,red,ending_scream,scream,ending,m,positive,positive,ES_red,1,m,545,2175691,2176195,2176399
52,third,75,feige,IAT_yellow1.bmp,yellow,starting_scream,scream,starting,c,negative,negative,ES_red,1,c,446,2178019,2178523,2178727
52,third,76,sozial,IAT_purple3.bmp,purple,starting_melody,melody,starting,m,positive,positive,ES_red,1,m,467,2180247,2180751,2180955
52,third,77,sanft,IAT_yellow3.bmp,yellow,starting_scream,scream,starting,m,positive,negative,ES_red,1,m,500,2182497,2183001,2183205
52,third,78,geizig,IAT_yellow1.bmp,yellow,starting_scream,scream,starting,c,negative,negative,ES_red,0,m,483,2184780,2185285,2185489
52,third,79,sozial,IAT_green3.bmp,green,ending_melody,melody,ending,m,positive,negative,ES_red,1,m,604,2187546,2188051,2188255
52,third,80,gerecht,IAT_yellow2.bmp,yellow,starting_scream,scream,starting,m,positive,negative,ES_red,1,m,641,2189934,2190438,2190642
52,third,81,teuer,IAT_red2.bmp,red,ending_scream,scream,ending,c,negative,positive,ES_red,1,c,517,2192358,2192862,2193066
52,third,82,einsam,IAT_green1.bmp,green,ending_melody,melody,ending,c,negative,negative,ES_red,1,c,1014,2194657,2195162,2195366
52,third,83,morsch,IAT_red2.bmp,red,ending_scream,scream,ending,c,negative,positive,ES_red,1,c,523,2197455,2197960,2198165
52,third,84,streng,IAT_yellow2.bmp,yellow,starting_scream,scream,starting,c,negative,negative,ES_red,1,c,516,2199763,2200267,2200471
52,third,85,heiter,IAT_purple4.bmp,purple,starting_melody,melody,starting,m,positive,positive,ES_red,1,m,520,2202062,2202566,2202770
52,third,86,gierig,IAT_green2.bmp,green,ending_melody,melody,ending,c,negative,negative,ES_red,1,c,499,2204365,2204869,2205073
52,third,87,kaputt,IAT_yellow4.bmp,yellow,starting_scream,scream,starting,c,negative,negative,ES_red,1,c,467,2206648,2207152,2207356
52,third,88,lustig,IAT_yellow3.bmp,yellow,starting_scream,scream,starting,m,positive,negative,ES_red,1,m,550,2208898,2209402,2209606
52,third,89,streng,IAT_purple4.bmp,purple,starting_melody,melody,starting,c,negative,positive,ES_red,1,c,517,2211232,2211736,2211940
52,third,90,schön,IAT_purple3.bmp,purple,starting_melody,melody,starting,m,positive,positive,ES_red,1,m,382,2213531,2214036,2214240
52,third,91,munter,IAT_green2.bmp,green,ending_melody,melody,ending,m,positive,negative,ES_red,0,c,384,2215698,2216203,2216407
52,third,92,gesund,IAT_green1.bmp,green,ending_melody,melody,ending,m,positive,negative,ES_red,1,m,668,2218366,2218871,2219075
52,third,93,lästig,IAT_yellow2.bmp,yellow,starting_scream,scream,starting,c,negative,negative,ES_red,1,c,541,2220817,2221321,2221525
52,third,94,schön,IAT_yellow1.bmp,yellow,starting_scream,scream,starting,m,positive,negative,ES_red,1,m,424,2223141,2223645,2223849
52,third,95,gerecht,IAT_red1.bmp,red,ending_scream,scream,ending,m,positive,positive,ES_red,1,m,525,2225348,2225853,2226057
52,forth,0,human,IAT_green3.bmp,green,ending_melody,melody,ending,m,positive,negative,ES_red,1,m,465,2270479,2270983,2271187
52,forth,1,munter,IAT_red2.bmp,red,ending_scream,scream,ending,m,positive,positive,ES_red,1,m,388,2272728,2273232,2273436
52,forth,2,schön,IAT_red3.bmp,red,ending_scream,scream,ending,m,positive,positive,ES_red,1,m,413,2274899,2275403,2275607
52,forth,3,heiter,IAT_red2.bmp,red,ending_scream,scream,ending,m,positive,positive,ES_red,0,c,440,2277094,2277598,2277802
52,forth,4,human,IAT_purple3.bmp,purple,starting_melody,melody,starting,m,positive,positive,ES_red,1,m,384,2279817,2280322,2280526
52,forth,5,ehrlich,IAT_yellow1.bmp,yellow,starting_scream,scream,starting,m,positive,negative,ES_red,0,c,375,2281983,2282487,2282691
52,forth,6,streng,IAT_green4.bmp,green,ending_melody,melody,ending,c,negative,negative,ES_red,1,c,792,2284641,2285145,2285349
52,forth,7,gerecht,IAT_green2.bmp,green,ending_melody,melody,ending,m,positive,negative,ES_red,0,c,573,2287214,2287719,2287923
52,forth,8,ehrlich,IAT_purple3.bmp,purple,starting_melody,melody,starting,m,positive,positive,ES_red,1,m,417,2290070,2290574,2290778
52,forth,9,heiter,IAT_red4.bmp,red,ending_scream,scream,ending,m,positive,positive,ES_red,1,m,376,2292269,2292773,2292977
52,forth,10,sozial,IAT_yellow3.bmp,yellow,starting_scream,scream,starting,m,positive,negative,ES_red,1,m,525,2294427,2294931,2295135
52,forth,11,sanft,IAT_yellow3.bmp,yellow,starting_scream,scream,starting,m,positive,negative,ES_red,1,m,452,2296733,2297237,2297441
52,forth,12,einsam,IAT_red4.bmp,red,ending_scream,scream,ending,c,negative,positive,ES_red,0,m,353,2298967,2299471,2299675
52,forth,13,human,IAT_green4.bmp,green,ending_melody,melody,ending,m,positive,negative,ES_red,1,m,451,2301603,2302108,2302312
52,forth,14,sozial,IAT_purple3.bmp,purple,starting_melody,melody,starting,m,positive,positive,ES_red,1,m,427,2303837,2304341,2304545
52,forth,15,geizig,IAT_yellow4.bmp,yellow,starting_scream,scream,starting,c,negative,negative,ES_red,1,c,531,2306046,2306550,2306754
52,forth,16,munter,IAT_red1.bmp,red,ending_scream,scream,ending,m,positive,positive,ES_red,0,c,465,2308361,2308865,2309069
52,forth,17,krank,IAT_green3.bmp,green,ending_melody,melody,ending,c,negative,negative,ES_red,1,c,450,2311109,2311614,2311818
52,forth,18,teuer,IAT_purple4.bmp,purple,starting_melody,melody,starting,c,negative,positive,ES_red,0,m,337,2313342,2313846,2314050
52,forth,19,lustig,IAT_purple4.bmp,purple,starting_melody,melody,starting,m,positive,positive,ES_red,1,m,503,2315960,2316465,2316669
52,forth,20,feige,IAT_yellow4.bmp,yellow,starting_scream,scream,starting,c,negative,negative,ES_red,1,c,499,2318247,2318751,2318955
52,forth,21,sonnig,IAT_red1.bmp,red,ending_scream,scream,ending,m,positive,positive,ES_red,1,m,451,2320530,2321034,2321238
52,forth,22,schön,IAT_purple3.bmp,purple,starting_melody,melody,starting,m,positive,positive,ES_red,1,m,377,2322763,2323267,2323471
52,forth,23,morsch,IAT_yellow4.bmp,yellow,starting_scream,scream,starting,c,negative,negative,ES_red,1,c,430,2324922,2325426,2325630
52,forth,24,sonnig,IAT_purple1.bmp,purple,starting_melody,melody,starting,m,positive,positive,ES_red,1,m,394,2327135,2327639,2327844
52,forth,25,gesund,IAT_yellow2.bmp,yellow,starting_scream,scream,starting,m,positive,negative,ES_red,1,m,502,2329313,2329817,2330021
52,forth,26,munter,IAT_yellow1.bmp,yellow,starting_scream,scream,starting,m,positive,negative,ES_red,1,m,457,2331599,2332103,2332307
52,forth,27,sanft,IAT_green1.bmp,green,ending_melody,melody,ending,m,positive,negative,ES_red,1,m,434,2333840,2334344,2334548
52,forth,28,witzig,IAT_green3.bmp,green,ending_melody,melody,ending,m,positive,negative,ES_red,1,m,373,2336056,2336560,2336765
52,forth,29,teuer,IAT_yellow1.bmp,yellow,starting_scream,scream,starting,c,negative,negative,ES_red,1,c,454,2338213,2338717,2338921
52,forth,30,gerecht,IAT_yellow4.bmp,yellow,starting_scream,scream,starting,m,positive,negative,ES_red,1,m,477,2340451,2340955,2341159
52,forth,31,krank,IAT_yellow2.bmp,yellow,starting_scream,scream,starting,c,negative,negative,ES_red,1,c,496,2342711,2343215,2343419
52,forth,32,ehrlich,IAT_green4.bmp,green,ending_melody,melody,ending,m,positive,negative,ES_red,1,m,419,2344990,2345495,2345699
52,forth,33,streng,IAT_green1.bmp,green,ending_melody,melody,ending,c,negative,negative,ES_red,1,c,438,2347193,2347697,2347901
52,forth,34,morsch,IAT_green2.bmp,green,ending_melody,melody,ending,c,negative,negative,ES_red,1,c,469,2349413,2349917,2350121
52,forth,35,sonnig,IAT_purple1.bmp,purple,starting_melody,melody,starting,m,positive,positive,ES_red,1,m,379,2351665,2352170,2352375
52,forth,36,schön,IAT_red4.bmp,red,ending_scream,scream,ending,m,positive,positive,ES_red,1,m,456,2353829,2354333,2354537
52,forth,37,brutal,IAT_red1.bmp,red,ending_scream,scream,ending,c,negative,positive,ES_red,1,c,504,2356068,2356572,2356776
52,forth,38,lästig,IAT_purple2.bmp,purple,starting_melody,melody,starting,c,negative,positive,ES_red,1,c,557,2358354,2358858,2359062
52,forth,39,feige,IAT_green2.bmp,green,ending_melody,melody,ending,c,negative,negative,ES_red,1,c,445,2360693,2361197,2361401
52,forth,40,streng,IAT_yellow2.bmp,yellow,starting_scream,scream,starting,c,negative,negative,ES_red,1,c,523,2362921,2363425,2363629
52,forth,41,lästig,IAT_red4.bmp,red,ending_scream,scream,ending,c,negative,positive,ES_red,1,c,531,2365227,2365731,2365935
52,forth,42,sonnig,IAT_yellow2.bmp,yellow,starting_scream,scream,starting,m,positive,negative,ES_red,1,m,441,2367541,2368046,2368250
52,forth,43,gesund,IAT_red1.bmp,red,ending_scream,scream,ending,m,positive,positive,ES_red,1,m,443,2369766,2370270,2370474
52,forth,44,sanft,IAT_red3.bmp,red,ending_scream,scream,ending,m,positive,positive,ES_red,1,m,432,2371992,2372496,2372700
52,forth,45,falsch,IAT_red2.bmp,red,ending_scream,scream,ending,c,negative,positive,ES_red,1,c,459,2374208,2374712,2374916
52,forth,46,munter,IAT_yellow1.bmp,yellow,starting_scream,scream,starting,m,positive,negative,ES_red,0,c,539,2376450,2376955,2377159
52,forth,47,kaputt,IAT_green1.bmp,green,ending_melody,melody,ending,c,negative,negative,ES_red,1,c,491,2379274,2379778,2379982
52,forth,48,einsam,IAT_red2.bmp,red,ending_scream,scream,ending,c,negative,positive,ES_red,0,m,431,2381549,2382053,2382257
52,forth,49,gesund,IAT_green2.bmp,green,ending_melody,melody,ending,m,positive,negative,ES_red,1,m,516,2384263,2384767,2384971
52,forth,50,teuer,IAT_red1.bmp,red,ending_scream,scream,ending,c,negative,positive,ES_red,1,c,453,2386562,2387066,2387270
52,forth,51,gierig,IAT_green2.bmp,green,ending_melody,melody,ending,c,negative,negative,ES_red,1,c,533,2388797,2389301,2389505
52,forth,52,sanft,IAT_yellow4.bmp,yellow,starting_scream,scream,starting,m,positive,negative,ES_red,1,m,485,2391113,2391617,2391821
52,forth,53,einsam,IAT_green4.bmp,green,ending_melody,melody,ending,c,negative,negative,ES_red,1,c,628,2393381,2393885,2394089
52,forth,54,morsch,IAT_red2.bmp,red,ending_scream,scream,ending,c,negative,positive,ES_red,1,c,482,2395792,2396296,2396500
52,forth,55,witzig,IAT_green1.bmp,green,ending_melody,melody,ending,m,positive,negative,ES_red,1,m,526,2398057,2398561,2398765
52,forth,56,feige,IAT_yellow2.bmp,yellow,starting_scream,scream,starting,c,negative,negative,ES_red,1,c,480,2400366,2400870,2401074
52,forth,57,heiter,IAT_red1.bmp,red,ending_scream,scream,ending,m,positive,positive,ES_red,0,c,542,2402628,2403133,2403337
52,forth,58,brutal,IAT_purple4.bmp,purple,starting_melody,melody,starting,c,negative,positive,ES_red,1,c,534,2405453,2405958,2406162
52,forth,59,schön,IAT_purple4.bmp,purple,starting_melody,melody,starting,m,positive,positive,ES_red,1,m,460,2407771,2408275,2408479
52,forth,60,geizig,IAT_purple2.bmp,purple,starting_melody,melody,starting,c,negative,positive,ES_red,1,c,519,2410014,2410518,2410722
52,forth,61,lustig,IAT_green3.bmp,green,ending_melody,melody,ending,m,positive,negative,ES_red,1,m,483,2412317,2412822,2413026
52,forth,62,kaputt,IAT_purple1.bmp,purple,starting_melody,melody,starting,c,negative,positive,ES_red,1,c,475,2414584,2415088,2415292
52,forth,63,ehrlich,IAT_purple2.bmp,purple,starting_melody,melody,starting,m,positive,positive,ES_red,1,m,421,2416842,2417346,2417550
52,forth,64,lästig,IAT_purple1.bmp,purple,starting_melody,melody,starting,c,negative,positive,ES_red,0,m,409,2419046,2419550,2419754
52,forth,65,gierig,IAT_yellow3.bmp,yellow,starting_scream,scream,starting,c,negative,negative,ES_red,1,c,500,2421737,2422242,2422446
52,forth,66,morsch,IAT_green4.bmp,green,ending_melody,melody,ending,c,negative,negative,ES_red,1,c,513,2424021,2424525,2424729
52,forth,67,brutal,IAT_red3.bmp,red,ending_scream,scream,ending,c,negative,positive,ES_red,1,c,547,2426317,2426821,2427025
52,forth,68,gierig,IAT_purple2.bmp,purple,starting_melody,melody,starting,c,negative,positive,ES_red,1,c,480,2428647,2429151,2429355
52,forth,69,krank,IAT_red2.bmp,red,ending_scream,scream,ending,c,negative,positive,ES_red,1,c,517,2430910,2431415,2431619
52,forth,70,geizig,IAT_yellow1.bmp,yellow,starting_scream,scream,starting,c,negative,negative,ES_red,1,c,433,2433211,2433716,2433920
52,forth,71,lästig,IAT_yellow3.bmp,yellow,starting_scream,scream,starting,c,negative,negative,ES_red,1,c,538,2435428,2435932,2436136
52,forth,72,geizig,IAT_purple3.bmp,purple,starting_melody,melody,starting,c,negative,positive,ES_red,1,c,459,2437749,2438253,2438457
52,forth,73,feige,IAT_purple2.bmp,purple,starting_melody,melody,starting,c,negative,positive,ES_red,1,c,453,2439991,2440495,2440699
52,forth,74,human,IAT_green1.bmp,green,ending_melody,melody,ending,m,positive,negative,ES_red,1,m,481,2442227,2442732,2442936
52,forth,75,falsch,IAT_purple4.bmp,purple,starting_melody,melody,starting,c,negative,positive,ES_red,1,c,452,2444492,2444996,2445200
52,forth,76,kaputt,IAT_green3.bmp,green,ending_melody,melody,ending,c,negative,negative,ES_red,1,c,446,2446727,2447231,2447435
52,forth,77,teuer,IAT_red4.bmp,red,ending_scream,scream,ending,c,negative,positive,ES_red,1,c,475,2448957,2449461,2449665
52,forth,78,witzig,IAT_red3.bmp,red,ending_scream,scream,ending,m,positive,positive,ES_red,1,m,415,2451215,2451720,2451924
52,forth,79,heiter,IAT_yellow1.bmp,yellow,starting_scream,scream,starting,m,positive,negative,ES_red,0,c,520,2453414,2453918,2454122
52,forth,80,krank,IAT_purple4.bmp,purple,starting_melody,melody,starting,c,negative,positive,ES_red,1,c,514,2456218,2456723,2456927
52,forth,81,witzig,IAT_yellow3.bmp,yellow,starting_scream,scream,starting,m,positive,negative,ES_red,1,m,472,2458516,2459020,2459224
52,forth,82,streng,IAT_yellow4.bmp,yellow,starting_scream,scream,starting,c,negative,negative,ES_red,1,c,507,2460771,2461275,2461479
52,forth,83,einsam,IAT_yellow2.bmp,yellow,starting_scream,scream,starting,c,negative,negative,ES_red,0,m,556,2463062,2463566,2463770
52,forth,84,lustig,IAT_purple1.bmp,purple,starting_melody,melody,starting,m,positive,positive,ES_red,1,m,536,2465901,2466405,2466609
52,forth,85,sozial,IAT_purple1.bmp,purple,starting_melody,melody,starting,m,positive,positive,ES_red,1,m,570,2468220,2468725,2468929
52,forth,86,gerecht,IAT_green1.bmp,green,ending_melody,melody,ending,m,positive,negative,ES_red,1,m,643,2470576,2471080,2471284
52,forth,87,kaputt,IAT_green2.bmp,green,ending_melody,melody,ending,c,negative,negative,ES_red,1,c,486,2473002,2473507,2473711
52,forth,88,brutal,IAT_red4.bmp,red,ending_scream,scream,ending,c,negative,positive,ES_red,1,c,501,2475272,2475776,2475980
52,forth,89,falsch,IAT_purple3.bmp,purple,starting_melody,melody,starting,c,negative,positive,ES_red,1,c,457,2477557,2478061,2478265
52,forth,90,gesund,IAT_green3.bmp,green,ending_melody,melody,ending,m,positive,negative,ES_red,1,m,526,2479798,2480302,2480506
52,forth,91,sozial,IAT_purple2.bmp,purple,starting_melody,melody,starting,m,positive,positive,ES_red,1,m,506,2482108,2482612,2482816
52,forth,92,gierig,IAT_red3.bmp,red,ending_scream,scream,ending,c,negative,positive,ES_red,1,c,539,2484398,2484903,2485107
52,forth,93,gerecht,IAT_red3.bmp,red,ending_scream,scream,ending,m,positive,positive,ES_red,1,m,576,2486721,2487225,2487429
52,forth,94,lustig,IAT_yellow3.bmp,yellow,starting_scream,scream,starting,m,positive,negative,ES_red,1,m,546,2489080,2489584,2489788
52,forth,95,falsch,IAT_green4.bmp,green,ending_melody,melody,ending,c,negative,negative,ES_red,1,c,475,2491411,2491915,2492119
