subject_nr,block,trialnr,trial_target,trial_prime,prime_color,prime_role,prime_us,prime_relation,correct_response,target_valence,prime_valence,color_counter,correct_first_response,response_first_response,response_time_first_response,fixation_show,prime_show,target_show
37,first,0,kaputt,IAT_red3.bmp,red,ending_melody,melody,ending,c,negative,negative,ES_green,1,c,542,1363739,1364244,1364448
37,first,1,geizig,IAT_red4.bmp,red,ending_melody,melody,ending,c,negative,negative,ES_green,1,c,509,1366063,1366567,1366771
37,first,2,sonnig,IAT_purple4.bmp,purple,starting_scream,scream,starting,m,positive,negative,ES_green,1,m,431,1368352,1368856,1369060
37,first,3,sozial,IAT_green1.bmp,green,ending_scream,scream,ending,m,positive,positive,ES_green,1,m,468,1370568,1371072,1371276
37,first,4,human,IAT_green4.bmp,green,ending_scream,scream,ending,m,positive,positive,ES_green,0,c,410,1372816,1373321,1373525
37,first,5,gierig,IAT_red4.bmp,red,ending_melody,melody,ending,c,negative,negative,ES_green,1,c,661,1375507,1376012,1376216
37,first,6,brutal,IAT_red2.bmp,red,ending_melody,melody,ending,c,negative,negative,ES_green,1,c,514,1377950,1378454,1378658
37,first,7,munter,IAT_yellow1.bmp,yellow,starting_melody,melody,starting,m,positive,positive,ES_green,1,m,471,1380245,1380749,1380953
37,first,8,feige,IAT_yellow2.bmp,yellow,starting_melody,melody,starting,c,negative,positive,ES_green,1,c,387,1382497,1383001,1383205
37,first,9,sanft,IAT_yellow3.bmp,yellow,starting_melody,melody,starting,m,positive,positive,ES_green,1,m,489,1384665,1385169,1385373
37,first,10,lustig,IAT_purple1.bmp,purple,starting_scream,scream,starting,m,positive,negative,ES_green,1,m,560,1386935,1387439,1387643
37,first,11,streng,IAT_yellow4.bmp,yellow,starting_melody,melody,starting,c,negative,positive,ES_green,1,c,403,1389276,1389780,1389984
37,first,12,sonnig,IAT_green3.bmp,green,ending_scream,scream,ending,m,positive,positive,ES_green,1,m,473,1391460,1391965,1392169
37,first,13,lästig,IAT_red1.bmp,red,ending_melody,melody,ending,c,negative,negative,ES_green,1,c,434,1393716,1394220,1394424
37,first,14,brutal,IAT_purple1.bmp,purple,starting_scream,scream,starting,c,negative,negative,ES_green,1,c,418,1395931,1396435,1396639
37,first,15,streng,IAT_green2.bmp,green,ending_scream,scream,ending,c,negative,positive,ES_green,1,c,435,1398130,1398634,1398838
37,first,16,geizig,IAT_red4.bmp,red,ending_melody,melody,ending,c,negative,negative,ES_green,1,c,469,1400346,1400850,1401054
37,first,17,einsam,IAT_purple4.bmp,purple,starting_scream,scream,starting,c,negative,negative,ES_green,1,c,462,1402595,1403099,1403303
37,first,18,munter,IAT_yellow1.bmp,yellow,starting_melody,melody,starting,m,positive,positive,ES_green,1,m,525,1404838,1405343,1405547
37,first,19,gerecht,IAT_red4.bmp,red,ending_melody,melody,ending,m,positive,negative,ES_green,1,m,631,1407145,1407649,1407853
37,first,20,heiter,IAT_green1.bmp,green,ending_scream,scream,ending,m,positive,positive,ES_green,1,m,514,1409555,1410060,1410264
37,first,21,gesund,IAT_green3.bmp,green,ending_scream,scream,ending,m,positive,positive,ES_green,1,m,461,1411851,1412356,1412560
37,first,22,witzig,IAT_purple1.bmp,purple,starting_scream,scream,starting,m,positive,negative,ES_green,1,m,542,1414095,1414599,1414803
37,first,23,schön,IAT_red3.bmp,red,ending_melody,melody,ending,m,positive,negative,ES_green,1,m,475,1416418,1416922,1417126
37,first,24,sonnig,IAT_yellow1.bmp,yellow,starting_melody,melody,starting,m,positive,positive,ES_green,1,m,390,1418675,1419179,1419383
37,first,25,streng,IAT_green4.bmp,green,ending_scream,scream,ending,c,negative,positive,ES_green,1,c,404,1420845,1421350,1421554
37,first,26,witzig,IAT_green1.bmp,green,ending_scream,scream,ending,m,positive,positive,ES_green,1,m,509,1423031,1423535,1423739
37,first,27,sanft,IAT_green2.bmp,green,ending_scream,scream,ending,m,positive,positive,ES_green,1,m,579,1425320,1425824,1426028
37,first,28,kaputt,IAT_green2.bmp,green,ending_scream,scream,ending,c,negative,positive,ES_green,1,c,467,1427680,1428184,1428388
37,first,29,gesund,IAT_yellow3.bmp,yellow,starting_melody,melody,starting,m,positive,positive,ES_green,1,m,553,1429929,1430433,1430637
37,first,30,lästig,IAT_purple3.bmp,purple,starting_scream,scream,starting,c,negative,negative,ES_green,1,c,500,1432264,1432768,1432972
37,first,31,einsam,IAT_purple4.bmp,purple,starting_scream,scream,starting,c,negative,negative,ES_green,1,c,502,1434544,1435048,1435252
37,first,32,krank,IAT_yellow2.bmp,yellow,starting_melody,melody,starting,c,negative,positive,ES_green,1,c,444,1436828,1437332,1437536
37,first,33,gerecht,IAT_red2.bmp,red,ending_melody,melody,ending,m,positive,negative,ES_green,1,m,459,1439053,1439558,1439762
37,first,34,ehrlich,IAT_purple3.bmp,purple,starting_scream,scream,starting,m,positive,negative,ES_green,1,m,514,1441293,1441798,1442002
37,first,35,witzig,IAT_purple2.bmp,purple,starting_scream,scream,starting,m,positive,negative,ES_green,1,m,430,1443589,1444093,1444297
37,first,36,teuer,IAT_yellow1.bmp,yellow,starting_melody,melody,starting,c,negative,positive,ES_green,1,c,418,1445801,1446305,1446509
37,first,37,human,IAT_red3.bmp,red,ending_melody,melody,ending,m,positive,negative,ES_green,1,m,435,1448000,1448504,1448708
37,first,38,feige,IAT_red3.bmp,red,ending_melody,melody,ending,c,negative,negative,ES_green,1,c,448,1450215,1450719,1450923
37,first,39,brutal,IAT_purple4.bmp,purple,starting_scream,scream,starting,c,negative,negative,ES_green,1,c,468,1452443,1452948,1453152
37,first,40,morsch,IAT_green2.bmp,green,ending_scream,scream,ending,c,negative,positive,ES_green,1,c,438,1454694,1455198,1455402
37,first,41,gierig,IAT_yellow4.bmp,yellow,starting_melody,melody,starting,c,negative,positive,ES_green,1,c,463,1456912,1457417,1457621
37,first,42,morsch,IAT_green2.bmp,green,ending_scream,scream,ending,c,negative,positive,ES_green,1,c,382,1459156,1459660,1459864
37,first,43,gerecht,IAT_yellow2.bmp,yellow,starting_melody,melody,starting,m,positive,positive,ES_green,1,m,496,1461320,1461824,1462028
37,first,44,teuer,IAT_yellow2.bmp,yellow,starting_melody,melody,starting,c,negative,positive,ES_green,1,c,425,1463596,1464100,1464304
37,first,45,schön,IAT_red1.bmp,red,ending_melody,melody,ending,m,positive,negative,ES_green,1,m,416,1465801,1466306,1466510
37,first,46,falsch,IAT_green1.bmp,green,ending_scream,scream,ending,c,negative,positive,ES_green,1,c,544,1467999,1468504,1468708
37,first,47,ehrlich,IAT_green4.bmp,green,ending_scream,scream,ending,m,positive,positive,ES_green,1,m,454,1470325,1470829,1471033
37,first,48,witzig,IAT_purple2.bmp,purple,starting_scream,scream,starting,m,positive,negative,ES_green,1,m,846,1472560,1473065,1473269
37,first,49,brutal,IAT_yellow3.bmp,yellow,starting_melody,melody,starting,c,negative,positive,ES_green,1,c,482,1475189,1475694,1475898
37,first,50,geizig,IAT_red2.bmp,red,ending_melody,melody,ending,c,negative,negative,ES_green,0,m,626,1477452,1477957,1478161
37,first,51,kaputt,IAT_green4.bmp,green,ending_scream,scream,ending,c,negative,positive,ES_green,1,c,467,1480360,1480865,1481069
37,first,52,lustig,IAT_yellow4.bmp,yellow,starting_melody,melody,starting,m,positive,positive,ES_green,1,m,533,1482610,1483114,1483318
37,first,53,morsch,IAT_green3.bmp,green,ending_scream,scream,ending,c,negative,positive,ES_green,1,c,447,1484924,1485429,1485633
37,first,54,human,IAT_red1.bmp,red,ending_melody,melody,ending,m,positive,negative,ES_green,1,m,509,1487152,1487656,1487860
37,first,55,falsch,IAT_purple2.bmp,purple,starting_scream,scream,starting,c,negative,negative,ES_green,1,c,587,1489443,1489947,1490151
37,first,56,sozial,IAT_purple1.bmp,purple,starting_scream,scream,starting,m,positive,negative,ES_green,1,m,494,1491811,1492316,1492520
37,first,57,morsch,IAT_purple1.bmp,purple,starting_scream,scream,starting,c,negative,negative,ES_green,1,c,443,1494088,1494592,1494796
37,first,58,teuer,IAT_green4.bmp,green,ending_scream,scream,ending,c,negative,positive,ES_green,1,c,497,1496312,1496816,1497020
37,first,59,krank,IAT_red2.bmp,red,ending_melody,melody,ending,c,negative,negative,ES_green,1,c,417,1498591,1499095,1499299
37,first,60,gierig,IAT_red4.bmp,red,ending_melody,melody,ending,c,negative,negative,ES_green,1,c,477,1500791,1501295,1501499
37,first,61,gerecht,IAT_green3.bmp,green,ending_scream,scream,ending,m,positive,positive,ES_green,0,c,417,1503050,1503554,1503758
37,first,62,einsam,IAT_purple2.bmp,purple,starting_scream,scream,starting,c,negative,negative,ES_green,1,c,564,1505749,1506254,1506458
37,first,63,falsch,IAT_yellow4.bmp,yellow,starting_melody,melody,starting,c,negative,positive,ES_green,1,c,539,1508095,1508600,1508804
37,first,64,schön,IAT_red3.bmp,red,ending_melody,melody,ending,m,positive,negative,ES_green,1,m,466,1510416,1510920,1511124
37,first,65,gesund,IAT_purple1.bmp,purple,starting_scream,scream,starting,m,positive,negative,ES_green,1,m,750,1512664,1513168,1513372
37,first,66,krank,IAT_purple4.bmp,purple,starting_scream,scream,starting,c,negative,negative,ES_green,1,c,525,1515194,1515699,1515903
37,first,67,munter,IAT_green1.bmp,green,ending_scream,scream,ending,m,positive,positive,ES_green,1,m,626,1517501,1518005,1518209
37,first,68,sanft,IAT_red1.bmp,red,ending_melody,melody,ending,m,positive,negative,ES_green,1,m,508,1519909,1520413,1520617
37,first,69,lästig,IAT_green3.bmp,green,ending_scream,scream,ending,c,negative,positive,ES_green,1,c,517,1522199,1522703,1522907
37,first,70,teuer,IAT_yellow1.bmp,yellow,starting_melody,melody,starting,c,negative,positive,ES_green,1,c,460,1524498,1525002,1525206
37,first,71,einsam,IAT_purple3.bmp,purple,starting_scream,scream,starting,c,negative,negative,ES_green,1,c,509,1526739,1527244,1527448
37,first,72,heiter,IAT_green2.bmp,green,ending_scream,scream,ending,m,positive,positive,ES_green,1,m,655,1529030,1529535,1529739
37,first,73,kaputt,IAT_green4.bmp,green,ending_scream,scream,ending,c,negative,positive,ES_green,1,c,426,1531467,1531971,1532175
37,first,74,geizig,IAT_green1.bmp,green,ending_scream,scream,ending,c,negative,positive,ES_green,1,c,429,1533674,1534178,1534382
37,first,75,feige,IAT_purple2.bmp,purple,starting_scream,scream,starting,c,negative,negative,ES_green,1,c,545,1535885,1536389,1536593
37,first,76,schön,IAT_red2.bmp,red,ending_melody,melody,ending,m,positive,negative,ES_green,1,m,458,1538211,1538716,1538920
37,first,77,heiter,IAT_purple4.bmp,purple,starting_scream,scream,starting,m,positive,negative,ES_green,1,m,683,1540451,1540955,1541159
37,first,78,ehrlich,IAT_yellow3.bmp,yellow,starting_melody,melody,starting,m,positive,positive,ES_green,1,m,587,1542915,1543419,1543623
37,first,79,sozial,IAT_green3.bmp,green,ending_scream,scream,ending,m,positive,positive,ES_green,1,m,618,1545284,1545788,1545992
37,first,80,munter,IAT_red1.bmp,red,ending_melody,melody,ending,m,positive,negative,ES_green,1,m,435,1547683,1548188,1548392
37,first,81,human,IAT_yellow1.bmp,yellow,starting_melody,melody,starting,m,positive,positive,ES_green,1,m,509,1549901,1550405,1550609
37,first,82,lustig,IAT_purple3.bmp,purple,starting_scream,scream,starting,m,positive,negative,ES_green,1,m,460,1552191,1552696,1552900
37,first,83,sonnig,IAT_yellow3.bmp,yellow,starting_melody,melody,starting,m,positive,positive,ES_green,1,m,466,1554434,1554938,1555142
37,first,84,ehrlich,IAT_red3.bmp,red,ending_melody,melody,ending,m,positive,negative,ES_green,1,m,514,1556682,1557186,1557390
37,first,85,lästig,IAT_red2.bmp,red,ending_melody,melody,ending,c,negative,negative,ES_green,1,c,441,1558978,1559482,1559686
37,first,86,heiter,IAT_yellow2.bmp,yellow,starting_melody,melody,starting,m,positive,positive,ES_green,1,m,464,1561201,1561705,1561909
37,first,87,falsch,IAT_purple2.bmp,purple,starting_scream,scream,starting,c,negative,negative,ES_green,1,c,569,1563447,1563951,1564155
37,first,88,krank,IAT_yellow4.bmp,yellow,starting_melody,melody,starting,c,negative,positive,ES_green,1,c,455,1565798,1566302,1566506
37,first,89,lustig,IAT_red4.bmp,red,ending_melody,melody,ending,m,positive,negative,ES_green,1,m,488,1568035,1568539,1568743
37,first,90,sozial,IAT_purple3.bmp,purple,starting_scream,scream,starting,m,positive,negative,ES_green,1,m,480,1570304,1570809,1571014
37,first,91,sanft,IAT_yellow4.bmp,yellow,starting_melody,melody,starting,m,positive,positive,ES_green,1,m,479,1572568,1573072,1573276
37,first,92,feige,IAT_yellow3.bmp,yellow,starting_melody,melody,starting,c,negative,positive,ES_green,1,c,516,1574830,1575334,1575538
37,first,93,streng,IAT_red1.bmp,red,ending_melody,melody,ending,c,negative,negative,ES_green,1,c,501,1577129,1577633,1577837
37,first,94,gesund,IAT_purple3.bmp,purple,starting_scream,scream,starting,m,positive,negative,ES_green,1,m,470,1579411,1579915,1580119
37,first,95,gierig,IAT_yellow2.bmp,yellow,starting_melody,melody,starting,c,negative,positive,ES_green,1,c,792,1581663,1582167,1582371
37,second,0,krank,IAT_red2.bmp,red,ending_melody,melody,ending,c,negative,negative,ES_green,1,c,742,1592114,1592618,1592822
37,second,1,einsam,IAT_yellow4.bmp,yellow,starting_melody,melody,starting,c,negative,positive,ES_green,1,c,564,1594640,1595145,1595349
37,second,2,gesund,IAT_red4.bmp,red,ending_melody,melody,ending,m,positive,negative,ES_green,1,m,478,1596985,1597490,1597694
37,second,3,brutal,IAT_green2.bmp,green,ending_scream,scream,ending,c,negative,positive,ES_green,1,c,538,1599244,1599748,1599952
37,second,4,feige,IAT_red3.bmp,red,ending_melody,melody,ending,c,negative,negative,ES_green,1,c,536,1601564,1602068,1602272
37,second,5,human,IAT_green2.bmp,green,ending_scream,scream,ending,m,positive,positive,ES_green,1,m,489,1603881,1604385,1604589
37,second,6,krank,IAT_green2.bmp,green,ending_scream,scream,ending,c,negative,positive,ES_green,1,c,576,1606151,1606655,1606859
37,second,7,kaputt,IAT_green4.bmp,green,ending_scream,scream,ending,c,negative,positive,ES_green,1,c,436,1608509,1609013,1609217
37,second,8,feige,IAT_red2.bmp,red,ending_melody,melody,ending,c,negative,negative,ES_green,1,c,421,1610725,1611229,1611433
37,second,9,kaputt,IAT_purple2.bmp,purple,starting_scream,scream,starting,c,negative,negative,ES_green,1,c,389,1612926,1613431,1613635
37,second,10,schön,IAT_red3.bmp,red,ending_melody,melody,ending,m,positive,negative,ES_green,1,m,430,1615097,1615601,1615805
37,second,11,lästig,IAT_red2.bmp,red,ending_melody,melody,ending,c,negative,negative,ES_green,1,c,582,1617309,1617813,1618017
37,second,12,teuer,IAT_green4.bmp,green,ending_scream,scream,ending,c,negative,positive,ES_green,1,c,419,1619672,1620176,1620380
37,second,13,sozial,IAT_green3.bmp,green,ending_scream,scream,ending,m,positive,positive,ES_green,1,m,500,1621871,1622376,1622580
37,second,14,sonnig,IAT_red3.bmp,red,ending_melody,melody,ending,m,positive,negative,ES_green,1,m,544,1624153,1624657,1624861
37,second,15,sanft,IAT_purple3.bmp,purple,starting_scream,scream,starting,m,positive,negative,ES_green,1,m,500,1626476,1626981,1627185
37,second,16,gierig,IAT_green4.bmp,green,ending_scream,scream,ending,c,negative,positive,ES_green,1,c,496,1628759,1629263,1629467
37,second,17,lustig,IAT_yellow1.bmp,yellow,starting_melody,melody,starting,m,positive,positive,ES_green,1,m,529,1631037,1631541,1631745
37,second,18,brutal,IAT_purple1.bmp,purple,starting_scream,scream,starting,c,negative,negative,ES_green,1,c,488,1633347,1633852,1634056
37,second,19,morsch,IAT_red4.bmp,red,ending_melody,melody,ending,c,negative,negative,ES_green,1,c,455,1635617,1636122,1636326
37,second,20,ehrlich,IAT_red4.bmp,red,ending_melody,melody,ending,m,positive,negative,ES_green,1,m,534,1637853,1638357,1638561
37,second,21,lästig,IAT_yellow2.bmp,yellow,starting_melody,melody,starting,c,negative,positive,ES_green,1,c,461,1640168,1640673,1640877
37,second,22,einsam,IAT_red4.bmp,red,ending_melody,melody,ending,c,negative,negative,ES_green,1,c,577,1642410,1642915,1643119
37,second,23,brutal,IAT_purple4.bmp,purple,starting_scream,scream,starting,c,negative,negative,ES_green,1,c,376,1644769,1645273,1645477
37,second,24,krank,IAT_purple1.bmp,purple,starting_scream,scream,starting,c,negative,negative,ES_green,1,c,386,1646925,1647430,1647634
37,second,25,heiter,IAT_red2.bmp,red,ending_melody,melody,ending,m,positive,negative,ES_green,1,m,553,1649093,1649598,1649802
37,second,26,geizig,IAT_red1.bmp,red,ending_melody,melody,ending,c,negative,negative,ES_green,1,c,515,1651429,1651933,1652137
37,second,27,kaputt,IAT_red1.bmp,red,ending_melody,melody,ending,c,negative,negative,ES_green,1,c,507,1653724,1654228,1654432
37,second,28,witzig,IAT_yellow2.bmp,yellow,starting_melody,melody,starting,m,positive,positive,ES_green,1,m,510,1656012,1656516,1656720
37,second,29,gesund,IAT_green1.bmp,green,ending_scream,scream,ending,m,positive,positive,ES_green,0,c,469,1658302,1658807,1659011
37,second,30,morsch,IAT_purple2.bmp,purple,starting_scream,scream,starting,c,negative,negative,ES_green,1,c,472,1661053,1661558,1661762
37,second,31,human,IAT_green3.bmp,green,ending_scream,scream,ending,m,positive,positive,ES_green,1,m,524,1663307,1663812,1664016
37,second,32,schön,IAT_purple3.bmp,purple,starting_scream,scream,starting,m,positive,negative,ES_green,1,m,480,1665613,1666117,1666321
37,second,33,sozial,IAT_yellow3.bmp,yellow,starting_melody,melody,starting,m,positive,positive,ES_green,1,m,454,1667873,1668377,1668581
37,second,34,krank,IAT_purple2.bmp,purple,starting_scream,scream,starting,c,negative,negative,ES_green,1,c,505,1670109,1670613,1670817
37,second,35,einsam,IAT_yellow1.bmp,yellow,starting_melody,melody,starting,c,negative,positive,ES_green,1,c,606,1672394,1672899,1673103
37,second,36,sanft,IAT_yellow1.bmp,yellow,starting_melody,melody,starting,m,positive,positive,ES_green,1,m,547,1674782,1675287,1675491
37,second,37,sonnig,IAT_green2.bmp,green,ending_scream,scream,ending,m,positive,positive,ES_green,1,m,505,1677111,1677615,1677819
37,second,38,gerecht,IAT_purple3.bmp,purple,starting_scream,scream,starting,m,positive,negative,ES_green,1,m,856,1679397,1679901,1680105
37,second,39,lustig,IAT_red3.bmp,red,ending_melody,melody,ending,m,positive,negative,ES_green,1,m,496,1682034,1682538,1682742
37,second,40,munter,IAT_red3.bmp,red,ending_melody,melody,ending,m,positive,negative,ES_green,1,m,696,1684311,1684816,1685020
37,second,41,streng,IAT_green1.bmp,green,ending_scream,scream,ending,c,negative,positive,ES_green,1,c,465,1686789,1687293,1687497
37,second,42,lästig,IAT_yellow4.bmp,yellow,starting_melody,melody,starting,c,negative,positive,ES_green,1,c,563,1689036,1689540,1689744
37,second,43,witzig,IAT_purple1.bmp,purple,starting_scream,scream,starting,m,positive,negative,ES_green,1,m,469,1691381,1691885,1692089
37,second,44,schön,IAT_red1.bmp,red,ending_melody,melody,ending,m,positive,negative,ES_green,1,m,585,1693631,1694136,1694340
37,second,45,ehrlich,IAT_purple3.bmp,purple,starting_scream,scream,starting,m,positive,negative,ES_green,1,m,518,1695998,1696502,1696706
37,second,46,teuer,IAT_green4.bmp,green,ending_scream,scream,ending,c,negative,positive,ES_green,1,c,684,1698297,1698802,1699006
37,second,47,gierig,IAT_green3.bmp,green,ending_scream,scream,ending,c,negative,positive,ES_green,1,c,587,1700763,1701267,1701471
37,second,48,teuer,IAT_purple3.bmp,purple,starting_scream,scream,starting,c,negative,negative,ES_green,1,c,398,1703131,1703635,1703839
37,second,49,sozial,IAT_green1.bmp,green,ending_scream,scream,ending,m,positive,positive,ES_green,1,m,574,1705310,1705814,1706018
37,second,50,sanft,IAT_green3.bmp,green,ending_scream,scream,ending,m,positive,positive,ES_green,1,m,519,1707666,1708170,1708374
37,second,51,heiter,IAT_yellow3.bmp,yellow,starting_melody,melody,starting,m,positive,positive,ES_green,1,m,478,1709967,1710471,1710675
37,second,52,munter,IAT_purple4.bmp,purple,starting_scream,scream,starting,m,positive,negative,ES_green,1,m,456,1712227,1712731,1712935
37,second,53,streng,IAT_green3.bmp,green,ending_scream,scream,ending,c,negative,positive,ES_green,1,c,570,1714464,1714969,1715173
37,second,54,sonnig,IAT_green3.bmp,green,ending_scream,scream,ending,m,positive,positive,ES_green,1,m,472,1716816,1717320,1717524
37,second,55,gierig,IAT_purple2.bmp,purple,starting_scream,scream,starting,c,negative,negative,ES_green,1,c,568,1719071,1719575,1719779
37,second,56,lästig,IAT_red3.bmp,red,ending_melody,melody,ending,c,negative,negative,ES_green,1,c,468,1721420,1721925,1722129
37,second,57,feige,IAT_purple4.bmp,purple,starting_scream,scream,starting,c,negative,negative,ES_green,1,c,455,1723670,1724174,1724378
37,second,58,lustig,IAT_red1.bmp,red,ending_melody,melody,ending,m,positive,negative,ES_green,1,m,606,1725907,1726411,1726615
37,second,59,sozial,IAT_green4.bmp,green,ending_scream,scream,ending,m,positive,positive,ES_green,1,m,556,1728294,1728798,1729002
37,second,60,witzig,IAT_purple1.bmp,purple,starting_scream,scream,starting,m,positive,negative,ES_green,1,m,430,1730631,1731136,1731340
37,second,61,heiter,IAT_purple4.bmp,purple,starting_scream,scream,starting,m,positive,negative,ES_green,1,m,526,1732843,1733347,1733551
37,second,62,munter,IAT_yellow4.bmp,yellow,starting_melody,melody,starting,m,positive,positive,ES_green,1,m,417,1735151,1735655,1735859
37,second,63,gerecht,IAT_yellow1.bmp,yellow,starting_melody,melody,starting,m,positive,positive,ES_green,1,m,892,1737351,1737855,1738059
37,second,64,morsch,IAT_green2.bmp,green,ending_scream,scream,ending,c,negative,positive,ES_green,1,c,549,1740024,1740528,1740732
37,second,65,lustig,IAT_red1.bmp,red,ending_melody,melody,ending,m,positive,negative,ES_green,1,m,482,1742355,1742859,1743063
37,second,66,human,IAT_green1.bmp,green,ending_scream,scream,ending,m,positive,positive,ES_green,1,m,478,1744618,1745122,1745326
37,second,67,sanft,IAT_yellow1.bmp,yellow,starting_melody,melody,starting,m,positive,positive,ES_green,1,m,414,1746878,1747383,1747587
37,second,68,streng,IAT_yellow4.bmp,yellow,starting_melody,melody,starting,c,negative,positive,ES_green,1,c,434,1749074,1749579,1749783
37,second,69,teuer,IAT_purple3.bmp,purple,starting_scream,scream,starting,c,negative,negative,ES_green,1,c,573,1751290,1751794,1751998
37,second,70,schön,IAT_purple1.bmp,purple,starting_scream,scream,starting,m,positive,negative,ES_green,1,m,450,1753645,1754149,1754353
37,second,71,geizig,IAT_yellow2.bmp,yellow,starting_melody,melody,starting,c,negative,positive,ES_green,1,c,468,1755878,1756382,1756586
37,second,72,falsch,IAT_yellow3.bmp,yellow,starting_melody,melody,starting,c,negative,positive,ES_green,1,c,422,1758127,1758632,1758836
37,second,73,sonnig,IAT_purple2.bmp,purple,starting_scream,scream,starting,m,positive,negative,ES_green,1,m,437,1760331,1760835,1761039
37,second,74,gerecht,IAT_yellow4.bmp,yellow,starting_melody,melody,starting,m,positive,positive,ES_green,1,m,675,1762551,1763055,1763259
37,second,75,ehrlich,IAT_green1.bmp,green,ending_scream,scream,ending,m,positive,positive,ES_green,1,m,449,1765008,1765512,1765716
37,second,76,heiter,IAT_yellow3.bmp,yellow,starting_melody,melody,starting,m,positive,positive,ES_green,1,m,435,1767240,1767744,1767948
37,second,77,ehrlich,IAT_red2.bmp,red,ending_melody,melody,ending,m,positive,negative,ES_green,1,m,475,1769457,1769962,1770166
37,second,78,einsam,IAT_red2.bmp,red,ending_melody,melody,ending,c,negative,negative,ES_green,0,m,389,1771714,1772218,1772422
37,second,79,witzig,IAT_green4.bmp,green,ending_scream,scream,ending,m,positive,positive,ES_green,1,m,595,1774384,1774889,1775093
37,second,80,gesund,IAT_red1.bmp,red,ending_melody,melody,ending,m,positive,negative,ES_green,1,m,551,1776761,1777266,1777470
37,second,81,morsch,IAT_purple4.bmp,purple,starting_scream,scream,starting,c,negative,negative,ES_green,1,c,522,1779094,1779598,1779802
37,second,82,human,IAT_yellow2.bmp,yellow,starting_melody,melody,starting,m,positive,positive,ES_green,1,m,456,1781398,1781902,1782106
37,second,83,falsch,IAT_red4.bmp,red,ending_melody,melody,ending,c,negative,negative,ES_green,1,c,672,1783637,1784141,1784345
37,second,84,kaputt,IAT_red4.bmp,red,ending_melody,melody,ending,c,negative,negative,ES_green,1,c,493,1786091,1786596,1786800
37,second,85,falsch,IAT_yellow4.bmp,yellow,starting_melody,melody,starting,c,negative,positive,ES_green,1,c,441,1788367,1788872,1789076
37,second,86,geizig,IAT_yellow2.bmp,yellow,starting_melody,melody,starting,c,negative,positive,ES_green,1,c,513,1790591,1791095,1791299
37,second,87,gesund,IAT_purple1.bmp,purple,starting_scream,scream,starting,m,positive,negative,ES_green,1,m,493,1792886,1793391,1793595
37,second,88,streng,IAT_green2.bmp,green,ending_scream,scream,ending,c,negative,positive,ES_green,1,c,548,1795161,1795665,1795869
37,second,89,brutal,IAT_yellow1.bmp,yellow,starting_melody,melody,starting,c,negative,positive,ES_green,1,c,497,1797492,1797997,1798201
37,second,90,geizig,IAT_green1.bmp,green,ending_scream,scream,ending,c,negative,positive,ES_green,1,c,575,1799771,1800275,1800479
37,second,91,munter,IAT_purple2.bmp,purple,starting_scream,scream,starting,m,positive,negative,ES_green,1,m,520,1802127,1802632,1802836
37,second,92,gerecht,IAT_yellow3.bmp,yellow,starting_melody,melody,starting,m,positive,positive,ES_green,1,m,592,1804429,1804934,1805138
37,second,93,falsch,IAT_yellow2.bmp,yellow,starting_melody,melody,starting,c,negative,positive,ES_green,1,c,543,1806804,1807308,1807512
37,second,94,gierig,IAT_yellow3.bmp,yellow,starting_melody,melody,starting,c,negative,positive,ES_green,1,c,497,1809128,1809633,1809837
37,second,95,feige,IAT_purple4.bmp,purple,starting_scream,scream,starting,c,negative,negative,ES_green,1,c,506,1811408,1811912,1812116
37,third,0,ehrlich,IAT_red1.bmp,red,ending_melody,melody,ending,m,positive,negative,ES_green,1,m,997,1819603,1820107,1820311
37,third,1,sanft,IAT_red3.bmp,red,ending_melody,melody,ending,m,positive,negative,ES_green,1,m,566,1822383,1822887,1823091
37,third,2,kaputt,IAT_purple3.bmp,purple,starting_scream,scream,starting,c,negative,negative,ES_green,1,c,510,1824730,1825234,1825438
37,third,3,geizig,IAT_yellow3.bmp,yellow,starting_melody,melody,starting,c,negative,positive,ES_green,1,c,470,1827021,1827525,1827729
37,third,4,witzig,IAT_green4.bmp,green,ending_scream,scream,ending,m,positive,positive,ES_green,1,m,495,1829273,1829777,1829981
37,third,5,ehrlich,IAT_purple1.bmp,purple,starting_scream,scream,starting,m,positive,negative,ES_green,1,m,985,1831550,1832054,1832258
37,third,6,heiter,IAT_yellow1.bmp,yellow,starting_melody,melody,starting,m,positive,positive,ES_green,1,m,542,1834317,1834821,1835025
37,third,7,lästig,IAT_yellow1.bmp,yellow,starting_melody,melody,starting,c,negative,positive,ES_green,1,c,626,1836641,1837145,1837349
37,third,8,streng,IAT_green2.bmp,green,ending_scream,scream,ending,c,negative,positive,ES_green,1,c,459,1839049,1839553,1839757
37,third,9,sozial,IAT_purple1.bmp,purple,starting_scream,scream,starting,m,positive,negative,ES_green,1,m,519,1841290,1841794,1841998
37,third,10,feige,IAT_purple4.bmp,purple,starting_scream,scream,starting,c,negative,negative,ES_green,1,c,596,1843590,1844094,1844298
37,third,11,morsch,IAT_red4.bmp,red,ending_melody,melody,ending,c,negative,negative,ES_green,1,c,529,1845969,1846473,1846677
37,third,12,schön,IAT_red1.bmp,red,ending_melody,melody,ending,m,positive,negative,ES_green,1,m,469,1848280,1848784,1848988
37,third,13,sanft,IAT_red3.bmp,red,ending_melody,melody,ending,m,positive,negative,ES_green,1,m,557,1850530,1851035,1851239
37,third,14,lästig,IAT_yellow3.bmp,yellow,starting_melody,melody,starting,c,negative,positive,ES_green,1,c,543,1852871,1853375,1853579
37,third,15,lustig,IAT_yellow1.bmp,yellow,starting_melody,melody,starting,m,positive,positive,ES_green,1,m,831,1855196,1855700,1855904
37,third,16,kaputt,IAT_red1.bmp,red,ending_melody,melody,ending,c,negative,negative,ES_green,1,c,482,1857809,1858313,1858517
37,third,17,krank,IAT_green3.bmp,green,ending_scream,scream,ending,c,negative,positive,ES_green,1,c,509,1860072,1860576,1860780
37,third,18,gierig,IAT_green1.bmp,green,ending_scream,scream,ending,c,negative,positive,ES_green,1,c,488,1862362,1862866,1863070
37,third,19,sonnig,IAT_purple3.bmp,purple,starting_scream,scream,starting,m,positive,negative,ES_green,1,m,491,1864631,1865135,1865339
37,third,20,ehrlich,IAT_green2.bmp,green,ending_scream,scream,ending,m,positive,positive,ES_green,1,m,513,1866903,1867407,1867611
37,third,21,heiter,IAT_yellow1.bmp,yellow,starting_melody,melody,starting,m,positive,positive,ES_green,1,m,483,1869198,1869702,1869906
37,third,22,sonnig,IAT_purple3.bmp,purple,starting_scream,scream,starting,m,positive,negative,ES_green,1,m,428,1871463,1871968,1872172
37,third,23,falsch,IAT_yellow1.bmp,yellow,starting_melody,melody,starting,c,negative,positive,ES_green,1,c,397,1873674,1874178,1874382
37,third,24,munter,IAT_green1.bmp,green,ending_scream,scream,ending,m,positive,positive,ES_green,1,m,497,1875852,1876356,1876560
37,third,25,witzig,IAT_red3.bmp,red,ending_melody,melody,ending,m,positive,negative,ES_green,1,m,448,1878131,1878635,1878839
37,third,26,teuer,IAT_purple1.bmp,purple,starting_scream,scream,starting,c,negative,negative,ES_green,1,c,451,1880360,1880865,1881069
37,third,27,geizig,IAT_red4.bmp,red,ending_melody,melody,ending,c,negative,negative,ES_green,1,c,460,1882595,1883099,1883304
37,third,28,sonnig,IAT_yellow4.bmp,yellow,starting_melody,melody,starting,m,positive,positive,ES_green,1,m,422,1884839,1885344,1885548
37,third,29,brutal,IAT_green2.bmp,green,ending_scream,scream,ending,c,negative,positive,ES_green,1,c,628,1887042,1887547,1887751
37,third,30,munter,IAT_green3.bmp,green,ending_scream,scream,ending,m,positive,positive,ES_green,1,m,608,1889452,1889956,1890160
37,third,31,gerecht,IAT_yellow3.bmp,yellow,starting_melody,melody,starting,m,positive,positive,ES_green,1,m,600,1891841,1892346,1892550
37,third,32,lästig,IAT_red4.bmp,red,ending_melody,melody,ending,c,negative,negative,ES_green,1,c,399,1894224,1894728,1894932
37,third,33,kaputt,IAT_green1.bmp,green,ending_scream,scream,ending,c,negative,positive,ES_green,1,c,414,1896404,1896908,1897112
37,third,34,einsam,IAT_green2.bmp,green,ending_scream,scream,ending,c,negative,positive,ES_green,0,m,453,1898600,1899104,1899308
37,third,35,teuer,IAT_yellow2.bmp,yellow,starting_melody,melody,starting,c,negative,positive,ES_green,1,c,508,1901337,1901841,1902045
37,third,36,sanft,IAT_red3.bmp,red,ending_melody,melody,ending,m,positive,negative,ES_green,1,m,508,1903627,1904131,1904335
37,third,37,streng,IAT_purple2.bmp,purple,starting_scream,scream,starting,c,negative,negative,ES_green,1,c,496,1905916,1906421,1906625
37,third,38,gesund,IAT_purple3.bmp,purple,starting_scream,scream,starting,m,positive,negative,ES_green,1,m,553,1908195,1908699,1908903
37,third,39,sonnig,IAT_red1.bmp,red,ending_melody,melody,ending,m,positive,negative,ES_green,1,m,520,1910530,1911034,1911238
37,third,40,lästig,IAT_purple3.bmp,purple,starting_scream,scream,starting,c,negative,negative,ES_green,1,c,589,1912831,1913335,1913539
37,third,41,gierig,IAT_green4.bmp,green,ending_scream,scream,ending,c,negative,positive,ES_green,1,c,564,1915201,1915705,1915909
37,third,42,einsam,IAT_yellow4.bmp,yellow,starting_melody,melody,starting,c,negative,positive,ES_green,1,c,855,1917548,1918053,1918257
37,third,43,gierig,IAT_purple4.bmp,purple,starting_scream,scream,starting,c,negative,negative,ES_green,1,c,500,1920185,1920689,1920893
37,third,44,lustig,IAT_yellow3.bmp,yellow,starting_melody,melody,starting,m,positive,positive,ES_green,1,m,455,1922466,1922970,1923174
37,third,45,brutal,IAT_yellow4.bmp,yellow,starting_melody,melody,starting,c,negative,positive,ES_green,1,c,428,1924703,1925207,1925411
37,third,46,falsch,IAT_green3.bmp,green,ending_scream,scream,ending,c,negative,positive,ES_green,1,c,542,1926912,1927417,1927621
37,third,47,geizig,IAT_purple4.bmp,purple,starting_scream,scream,starting,c,negative,negative,ES_green,1,c,385,1929237,1929742,1929946
37,third,48,heiter,IAT_purple2.bmp,purple,starting_scream,scream,starting,m,positive,negative,ES_green,1,m,555,1931405,1931909,1932116
37,third,49,sozial,IAT_green2.bmp,green,ending_scream,scream,ending,m,positive,positive,ES_green,1,m,541,1933744,1934248,1934452
37,third,50,feige,IAT_yellow2.bmp,yellow,starting_melody,melody,starting,c,negative,positive,ES_green,1,c,703,1936067,1936572,1936776
37,third,51,heiter,IAT_green1.bmp,green,ending_scream,scream,ending,m,positive,positive,ES_green,1,m,970,1938553,1939057,1939261
37,third,52,schön,IAT_green3.bmp,green,ending_scream,scream,ending,m,positive,positive,ES_green,1,m,516,1941304,1941809,1942013
37,third,53,krank,IAT_purple4.bmp,purple,starting_scream,scream,starting,c,negative,negative,ES_green,1,c,621,1943602,1944107,1944311
37,third,54,teuer,IAT_red1.bmp,red,ending_melody,melody,ending,c,negative,negative,ES_green,1,c,813,1946007,1946511,1946715
37,third,55,krank,IAT_purple2.bmp,purple,starting_scream,scream,starting,c,negative,negative,ES_green,1,c,507,1948602,1949106,1949310
37,third,56,munter,IAT_yellow2.bmp,yellow,starting_melody,melody,starting,m,positive,positive,ES_green,1,m,543,1950891,1951396,1951600
37,third,57,lustig,IAT_red4.bmp,red,ending_melody,melody,ending,m,positive,negative,ES_green,1,m,490,1953218,1953722,1953926
37,third,58,human,IAT_purple4.bmp,purple,starting_scream,scream,starting,m,positive,negative,ES_green,1,m,618,1955489,1955994,1956198
37,third,59,geizig,IAT_red2.bmp,red,ending_melody,melody,ending,c,negative,negative,ES_green,1,c,650,1957891,1958395,1958599
37,third,60,falsch,IAT_yellow2.bmp,yellow,starting_melody,melody,starting,c,negative,positive,ES_green,1,c,642,1960322,1960827,1961031
37,third,61,witzig,IAT_green1.bmp,green,ending_scream,scream,ending,m,positive,positive,ES_green,1,m,845,1962746,1963250,1963454
37,third,62,gesund,IAT_red2.bmp,red,ending_melody,melody,ending,m,positive,negative,ES_green,1,m,804,1965373,1965878,1966082
37,third,63,human,IAT_purple3.bmp,purple,starting_scream,scream,starting,m,positive,negative,ES_green,1,m,443,1967961,1968465,1968669
37,third,64,witzig,IAT_red1.bmp,red,ending_melody,melody,ending,m,positive,negative,ES_green,1,m,467,1970187,1970691,1970896
37,third,65,sozial,IAT_green4.bmp,green,ending_scream,scream,ending,m,positive,positive,ES_green,1,m,395,1972439,1972943,1973147
37,third,66,brutal,IAT_green4.bmp,green,ending_scream,scream,ending,c,negative,positive,ES_green,1,c,357,1974616,1975121,1975325
37,third,67,streng,IAT_purple2.bmp,purple,starting_scream,scream,starting,c,negative,negative,ES_green,1,c,359,1976757,1977261,1977465
37,third,68,feige,IAT_yellow2.bmp,yellow,starting_melody,melody,starting,c,negative,positive,ES_green,1,c,432,1978898,1979402,1979606
37,third,69,falsch,IAT_red2.bmp,red,ending_melody,melody,ending,c,negative,negative,ES_green,1,c,376,1981112,1981617,1981821
37,third,70,gerecht,IAT_green3.bmp,green,ending_scream,scream,ending,m,positive,positive,ES_green,0,c,378,1983272,1983776,1983980
37,third,71,streng,IAT_red2.bmp,red,ending_melody,melody,ending,c,negative,negative,ES_green,1,c,463,1985932,1986437,1986641
37,third,72,munter,IAT_red4.bmp,red,ending_melody,melody,ending,m,positive,negative,ES_green,1,m,602,1988179,1988683,1988887
37,third,73,sozial,IAT_yellow3.bmp,yellow,starting_melody,melody,starting,m,positive,positive,ES_green,1,m,544,1990563,1991067,1991271
37,third,74,human,IAT_yellow1.bmp,yellow,starting_melody,melody,starting,m,positive,positive,ES_green,1,m,460,1992890,1993394,1993598
37,third,75,lustig,IAT_green3.bmp,green,ending_scream,scream,ending,m,positive,positive,ES_green,1,m,424,1995132,1995638,1995842
37,third,76,morsch,IAT_yellow4.bmp,yellow,starting_melody,melody,starting,c,negative,positive,ES_green,1,c,438,1997340,1997845,1998049
37,third,77,gerecht,IAT_red2.bmp,red,ending_melody,melody,ending,m,positive,negative,ES_green,1,m,582,1999561,2000065,2000269
37,third,78,schön,IAT_purple1.bmp,purple,starting_scream,scream,starting,m,positive,negative,ES_green,1,m,496,2001925,2002429,2002633
37,third,79,human,IAT_yellow4.bmp,yellow,starting_melody,melody,starting,m,positive,positive,ES_green,1,m,482,2004204,2004709,2004914
37,third,80,gesund,IAT_yellow3.bmp,yellow,starting_melody,melody,starting,m,positive,positive,ES_green,1,m,487,2006471,2006975,2007179
37,third,81,brutal,IAT_red4.bmp,red,ending_melody,melody,ending,c,negative,negative,ES_green,1,c,449,2008742,2009246,2009450
37,third,82,gierig,IAT_red3.bmp,red,ending_melody,melody,ending,c,negative,negative,ES_green,1,c,634,2010974,2011478,2011682
37,third,83,einsam,IAT_yellow4.bmp,yellow,starting_melody,melody,starting,c,negative,positive,ES_green,1,c,517,2013391,2013895,2014099
37,third,84,morsch,IAT_green4.bmp,green,ending_scream,scream,ending,c,negative,positive,ES_green,1,c,491,2015691,2016195,2016399
37,third,85,schön,IAT_purple4.bmp,purple,starting_scream,scream,starting,m,positive,negative,ES_green,1,m,478,2017965,2018469,2018673
37,third,86,krank,IAT_purple2.bmp,purple,starting_scream,scream,starting,c,negative,negative,ES_green,1,c,465,2020225,2020729,2020933
37,third,87,einsam,IAT_red3.bmp,red,ending_melody,melody,ending,c,negative,negative,ES_green,1,c,474,2022471,2022976,2023180
37,third,88,sanft,IAT_purple1.bmp,purple,starting_scream,scream,starting,m,positive,negative,ES_green,1,m,516,2024729,2025233,2025437
37,third,89,gesund,IAT_purple2.bmp,purple,starting_scream,scream,starting,m,positive,negative,ES_green,1,m,494,2027028,2027532,2027736
37,third,90,feige,IAT_red2.bmp,red,ending_melody,melody,ending,c,negative,negative,ES_green,1,c,687,2029304,2029808,2030012
37,third,91,kaputt,IAT_purple1.bmp,purple,starting_scream,scream,starting,c,negative,negative,ES_green,1,c,581,2031773,2032278,2032482
37,third,92,ehrlich,IAT_green1.bmp,green,ending_scream,scream,ending,m,positive,positive,ES_green,1,m,544,2034137,2034642,2034846
37,third,93,gerecht,IAT_yellow2.bmp,yellow,starting_melody,melody,starting,m,positive,positive,ES_green,1,m,506,2036465,2036969,2037173
37,third,94,morsch,IAT_green2.bmp,green,ending_scream,scream,ending,c,negative,positive,ES_green,1,c,456,2038753,2039257,2039461
37,third,95,teuer,IAT_green4.bmp,green,ending_scream,scream,ending,c,negative,positive,ES_green,0,m,525,2040991,2041496,2041700
37,forth,0,sozial,IAT_purple1.bmp,purple,starting_scream,scream,starting,m,positive,negative,ES_green,1,m,996,2050083,2050588,2050792
37,forth,1,geizig,IAT_purple3.bmp,purple,starting_scream,scream,starting,c,negative,negative,ES_green,1,c,504,2052862,2053366,2053570
37,forth,2,einsam,IAT_purple1.bmp,purple,starting_scream,scream,starting,c,negative,negative,ES_green,1,c,540,2055148,2055652,2055856
37,forth,3,teuer,IAT_green4.bmp,green,ending_scream,scream,ending,c,negative,positive,ES_green,1,c,547,2057469,2057974,2058178
37,forth,4,gesund,IAT_green3.bmp,green,ending_scream,scream,ending,m,positive,positive,ES_green,1,m,500,2059799,2060304,2060508
37,forth,5,ehrlich,IAT_purple4.bmp,purple,starting_scream,scream,starting,m,positive,negative,ES_green,1,m,654,2062082,2062586,2062790
37,forth,6,gesund,IAT_green3.bmp,green,ending_scream,scream,ending,m,positive,positive,ES_green,1,m,515,2064518,2065022,2065226
37,forth,7,lästig,IAT_red4.bmp,red,ending_melody,melody,ending,c,negative,negative,ES_green,1,c,391,2066814,2067319,2067523
37,forth,8,teuer,IAT_yellow2.bmp,yellow,starting_melody,melody,starting,c,negative,positive,ES_green,1,c,550,2068988,2069492,2069696
37,forth,9,human,IAT_red3.bmp,red,ending_melody,melody,ending,m,positive,negative,ES_green,1,m,531,2071320,2071824,2072028
37,forth,10,brutal,IAT_red1.bmp,red,ending_melody,melody,ending,c,negative,negative,ES_green,1,c,718,2073633,2074137,2074341
37,forth,11,lustig,IAT_green1.bmp,green,ending_scream,scream,ending,m,positive,positive,ES_green,1,m,541,2076133,2076637,2076841
37,forth,12,heiter,IAT_yellow1.bmp,yellow,starting_melody,melody,starting,m,positive,positive,ES_green,1,m,587,2078456,2078961,2079165
37,forth,13,lustig,IAT_yellow3.bmp,yellow,starting_melody,melody,starting,m,positive,positive,ES_green,1,m,429,2080826,2081330,2081534
37,forth,14,sozial,IAT_purple1.bmp,purple,starting_scream,scream,starting,m,positive,negative,ES_green,1,m,460,2083037,2083542,2083746
37,forth,15,heiter,IAT_green1.bmp,green,ending_scream,scream,ending,m,positive,positive,ES_green,1,m,526,2085280,2085784,2085988
37,forth,16,human,IAT_purple2.bmp,purple,starting_scream,scream,starting,m,positive,negative,ES_green,1,m,442,2087589,2088093,2088297
37,forth,17,munter,IAT_purple1.bmp,purple,starting_scream,scream,starting,m,positive,negative,ES_green,1,m,406,2089812,2090316,2090520
37,forth,18,kaputt,IAT_yellow1.bmp,yellow,starting_melody,melody,starting,c,negative,positive,ES_green,1,c,393,2092000,2092505,2092710
37,forth,19,gierig,IAT_yellow2.bmp,yellow,starting_melody,melody,starting,c,negative,positive,ES_green,1,c,484,2094177,2094682,2094886
37,forth,20,lustig,IAT_red2.bmp,red,ending_melody,melody,ending,m,positive,negative,ES_green,1,m,455,2096444,2096949,2097153
37,forth,21,schön,IAT_purple3.bmp,purple,starting_scream,scream,starting,m,positive,negative,ES_green,1,m,511,2098682,2099186,2099390
37,forth,22,geizig,IAT_purple1.bmp,purple,starting_scream,scream,starting,c,negative,negative,ES_green,1,c,451,2100975,2101479,2101683
37,forth,23,ehrlich,IAT_red1.bmp,red,ending_melody,melody,ending,m,positive,negative,ES_green,1,m,501,2103209,2103713,2103917
37,forth,24,schön,IAT_purple3.bmp,purple,starting_scream,scream,starting,m,positive,negative,ES_green,1,m,425,2105491,2105996,2106200
37,forth,25,falsch,IAT_purple4.bmp,purple,starting_scream,scream,starting,c,negative,negative,ES_green,1,c,462,2107699,2108204,2108408
37,forth,26,feige,IAT_green1.bmp,green,ending_scream,scream,ending,c,negative,positive,ES_green,1,c,579,2109944,2110449,2110653
37,forth,27,sozial,IAT_purple3.bmp,purple,starting_scream,scream,starting,m,positive,negative,ES_green,1,m,464,2112305,2112809,2113013
37,forth,28,einsam,IAT_red3.bmp,red,ending_melody,melody,ending,c,negative,negative,ES_green,1,c,527,2114551,2115055,2115259
37,forth,29,human,IAT_purple2.bmp,purple,starting_scream,scream,starting,m,positive,negative,ES_green,1,m,443,2116860,2117364,2117568
37,forth,30,gesund,IAT_yellow1.bmp,yellow,starting_melody,melody,starting,m,positive,positive,ES_green,1,m,525,2119086,2119590,2119794
37,forth,31,munter,IAT_yellow4.bmp,yellow,starting_melody,melody,starting,m,positive,positive,ES_green,1,m,428,2121392,2121896,2122100
37,forth,32,morsch,IAT_green1.bmp,green,ending_scream,scream,ending,c,negative,positive,ES_green,1,c,510,2123601,2124105,2124309
37,forth,33,schön,IAT_green2.bmp,green,ending_scream,scream,ending,m,positive,positive,ES_green,1,m,487,2125892,2126396,2126600
37,forth,34,gerecht,IAT_purple1.bmp,purple,starting_scream,scream,starting,m,positive,negative,ES_green,1,m,512,2128161,2128666,2128870
37,forth,35,einsam,IAT_purple4.bmp,purple,starting_scream,scream,starting,c,negative,negative,ES_green,1,c,385,2130456,2130960,2131164
37,forth,36,geizig,IAT_red4.bmp,red,ending_melody,melody,ending,c,negative,negative,ES_green,1,c,483,2132622,2133127,2133331
37,forth,37,brutal,IAT_purple3.bmp,purple,starting_scream,scream,starting,c,negative,negative,ES_green,1,c,439,2134889,2135393,2135597
37,forth,38,witzig,IAT_yellow1.bmp,yellow,starting_melody,melody,starting,m,positive,positive,ES_green,1,m,422,2137111,2137615,2137819
37,forth,39,heiter,IAT_green1.bmp,green,ending_scream,scream,ending,m,positive,positive,ES_green,1,m,1301,2139315,2139819,2140023
37,forth,40,lästig,IAT_red1.bmp,red,ending_melody,melody,ending,c,negative,negative,ES_green,1,c,502,2142399,2142903,2143107
37,forth,41,kaputt,IAT_green4.bmp,green,ending_scream,scream,ending,c,negative,positive,ES_green,1,c,447,2144684,2145188,2145392
37,forth,42,einsam,IAT_yellow3.bmp,yellow,starting_melody,melody,starting,c,negative,positive,ES_green,1,c,496,2146912,2147416,2147620
37,forth,43,morsch,IAT_purple4.bmp,purple,starting_scream,scream,starting,c,negative,negative,ES_green,1,c,625,2149190,2149695,2149899
37,forth,44,gierig,IAT_red2.bmp,red,ending_melody,melody,ending,c,negative,negative,ES_green,1,c,460,2151599,2152103,2152307
37,forth,45,sanft,IAT_red3.bmp,red,ending_melody,melody,ending,m,positive,negative,ES_green,1,m,582,2153840,2154345,2154549
37,forth,46,kaputt,IAT_green2.bmp,green,ending_scream,scream,ending,c,negative,positive,ES_green,1,c,642,2156205,2156709,2156913
37,forth,47,falsch,IAT_green4.bmp,green,ending_scream,scream,ending,c,negative,positive,ES_green,1,c,558,2158629,2159134,2159338
37,forth,48,ehrlich,IAT_yellow1.bmp,yellow,starting_melody,melody,starting,m,positive,positive,ES_green,1,m,561,2160970,2161474,2161678
37,forth,49,sonnig,IAT_red3.bmp,red,ending_melody,melody,ending,m,positive,negative,ES_green,1,m,559,2163312,2163817,2164021
37,forth,50,schön,IAT_red3.bmp,red,ending_melody,melody,ending,m,positive,negative,ES_green,1,m,519,2165654,2166159,2166363
37,forth,51,ehrlich,IAT_yellow3.bmp,yellow,starting_melody,melody,starting,m,positive,positive,ES_green,1,m,478,2167955,2168459,2168663
37,forth,52,streng,IAT_purple4.bmp,purple,starting_scream,scream,starting,c,negative,negative,ES_green,1,c,549,2170215,2170719,2170923
37,forth,53,witzig,IAT_green3.bmp,green,ending_scream,scream,ending,m,positive,positive,ES_green,1,m,802,2172546,2173050,2173254
37,forth,54,krank,IAT_red2.bmp,red,ending_melody,melody,ending,c,negative,negative,ES_green,1,c,440,2175130,2175635,2175839
37,forth,55,lästig,IAT_purple2.bmp,purple,starting_scream,scream,starting,c,negative,negative,ES_green,1,c,725,2177354,2177858,2178062
37,forth,56,munter,IAT_red1.bmp,red,ending_melody,melody,ending,m,positive,negative,ES_green,1,m,660,2179861,2180366,2180570
37,forth,57,brutal,IAT_yellow2.bmp,yellow,starting_melody,melody,starting,c,negative,positive,ES_green,1,c,551,2182304,2182809,2183013
37,forth,58,lästig,IAT_green4.bmp,green,ending_scream,scream,ending,c,negative,positive,ES_green,1,c,521,2184639,2185143,2185347
37,forth,59,morsch,IAT_red4.bmp,red,ending_melody,melody,ending,c,negative,negative,ES_green,1,c,446,2186942,2187446,2187650
37,forth,60,krank,IAT_red4.bmp,red,ending_melody,melody,ending,c,negative,negative,ES_green,1,c,387,2189170,2189675,2189879
37,forth,61,lustig,IAT_yellow2.bmp,yellow,starting_melody,melody,starting,m,positive,positive,ES_green,1,m,434,2191341,2191845,2192049
37,forth,62,teuer,IAT_yellow1.bmp,yellow,starting_melody,melody,starting,c,negative,positive,ES_green,1,c,386,2193558,2194063,2194267
37,forth,63,feige,IAT_red2.bmp,red,ending_melody,melody,ending,c,negative,negative,ES_green,1,c,531,2195728,2196232,2196436
37,forth,64,teuer,IAT_green3.bmp,green,ending_scream,scream,ending,c,negative,positive,ES_green,1,c,466,2198042,2198546,2198750
37,forth,65,gierig,IAT_green2.bmp,green,ending_scream,scream,ending,c,negative,positive,ES_green,1,c,947,2200290,2200795,2200999
37,forth,66,sonnig,IAT_red1.bmp,red,ending_melody,melody,ending,m,positive,negative,ES_green,1,m,471,2203021,2203525,2203729
37,forth,67,morsch,IAT_red3.bmp,red,ending_melody,melody,ending,c,negative,negative,ES_green,1,c,569,2205275,2205779,2205983
37,forth,68,feige,IAT_purple2.bmp,purple,starting_scream,scream,starting,c,negative,negative,ES_green,1,c,421,2207626,2208130,2208335
37,forth,69,sanft,IAT_green1.bmp,green,ending_scream,scream,ending,m,positive,positive,ES_green,1,m,412,2209830,2210334,2210538
37,forth,70,kaputt,IAT_green2.bmp,green,ending_scream,scream,ending,c,negative,positive,ES_green,1,c,485,2212024,2212528,2212732
37,forth,71,sonnig,IAT_red1.bmp,red,ending_melody,melody,ending,m,positive,negative,ES_green,1,m,496,2214291,2214796,2215000
37,forth,72,heiter,IAT_yellow2.bmp,yellow,starting_melody,melody,starting,m,positive,positive,ES_green,1,m,519,2216571,2217075,2217279
37,forth,73,munter,IAT_red4.bmp,red,ending_melody,melody,ending,m,positive,negative,ES_green,1,m,404,2218873,2219377,2219581
37,forth,74,brutal,IAT_purple2.bmp,purple,starting_scream,scream,starting,c,negative,negative,ES_green,1,c,875,2221060,2221564,2221768
37,forth,75,streng,IAT_yellow4.bmp,yellow,starting_melody,melody,starting,c,negative,positive,ES_green,1,c,435,2223718,2224222,2224426
37,forth,76,falsch,IAT_yellow4.bmp,yellow,starting_melody,melody,starting,c,negative,positive,ES_green,1,c,485,2225937,2226441,2226645
37,forth,77,feige,IAT_red2.bmp,red,ending_melody,melody,ending,c,negative,negative,ES_green,1,c,472,2228204,2228709,2228913
37,forth,78,streng,IAT_purple2.bmp,purple,starting_scream,scream,starting,c,negative,negative,ES_green,1,c,367,2230460,2230964,2231168
37,forth,79,gerecht,IAT_yellow4.bmp,yellow,starting_melody,melody,starting,m,positive,positive,ES_green,1,m,649,2232611,2233115,2233319
37,forth,80,falsch,IAT_green3.bmp,green,ending_scream,scream,ending,c,negative,positive,ES_green,1,c,450,2235042,2235546,2235750
37,forth,81,sanft,IAT_red2.bmp,red,ending_melody,melody,ending,m,positive,negative,ES_green,1,m,542,2237275,2237779,2237983
37,forth,82,krank,IAT_yellow4.bmp,yellow,starting_melody,melody,starting,c,negative,positive,ES_green,1,c,424,2239601,2240105,2240309
37,forth,83,gerecht,IAT_green2.bmp,green,ending_scream,scream,ending,m,positive,positive,ES_green,1,m,491,2241807,2242311,2242515
37,forth,84,streng,IAT_yellow3.bmp,yellow,starting_melody,melody,starting,c,negative,positive,ES_green,1,c,379,2244081,2244585,2244789
37,forth,85,gierig,IAT_yellow2.bmp,yellow,starting_melody,melody,starting,c,negative,positive,ES_green,1,c,478,2246244,2246748,2246952
37,forth,86,sanft,IAT_purple4.bmp,purple,starting_scream,scream,starting,m,positive,negative,ES_green,1,m,455,2248504,2249008,2249212
37,forth,87,sozial,IAT_green4.bmp,green,ending_scream,scream,ending,m,positive,positive,ES_green,1,m,585,2250741,2251246,2251450
37,forth,88,sonnig,IAT_purple3.bmp,purple,starting_scream,scream,starting,m,positive,negative,ES_green,1,m,501,2253109,2253614,2253818
37,forth,89,geizig,IAT_green2.bmp,green,ending_scream,scream,ending,c,negative,positive,ES_green,1,c,421,2255393,2255897,2256101
37,forth,90,krank,IAT_yellow4.bmp,yellow,starting_melody,melody,starting,c,negative,positive,ES_green,1,c,378,2257597,2258101,2258305
37,forth,91,human,IAT_yellow3.bmp,yellow,starting_melody,melody,starting,m,positive,positive,ES_green,1,m,485,2259758,2260262,2260466
37,forth,92,witzig,IAT_yellow3.bmp,yellow,starting_melody,melody,starting,m,positive,positive,ES_green,0,c,542,2262026,2262531,2262735
37,forth,93,gerecht,IAT_green4.bmp,green,ending_scream,scream,ending,m,positive,positive,ES_green,1,m,583,2264852,2265357,2265561
37,forth,94,witzig,IAT_green3.bmp,green,ending_scream,scream,ending,m,positive,positive,ES_green,1,m,429,2267220,2267724,2267928
37,forth,95,gesund,IAT_red4.bmp,red,ending_melody,melody,ending,m,positive,negative,ES_green,1,m,503,2269431,2269936,2270140
