subject_nr,block,trialnr,trial_target,trial_prime,prime_color,prime_role,prime_us,prime_relation,correct_response,target_valence,prime_valence,color_counter,correct_first_response,response_first_response,response_time_first_response,fixation_show,prime_show,target_show
88,first,0,gierig,IAT_yellow2.bmp,yellow,starting_scream,scream,starting,c,negative,negative,ES_red,1,c,660,1467415,1467923,1468127
88,first,1,witzig,IAT_yellow4.bmp,yellow,starting_scream,scream,starting,m,positive,negative,ES_red,1,m,482,1469861,1470365,1470569
88,first,2,sanft,IAT_yellow3.bmp,yellow,starting_scream,scream,starting,m,positive,negative,ES_red,0,c,526,1472125,1472629,1472833
88,first,3,ehrlich,IAT_purple3.bmp,purple,starting_melody,melody,starting,m,positive,positive,ES_red,1,m,469,1474932,1475437,1475641
88,first,4,streng,IAT_purple2.bmp,purple,starting_melody,melody,starting,c,negative,positive,ES_red,0,m,411,1477183,1477687,1477891
88,first,5,geizig,IAT_red2.bmp,red,ending_scream,scream,ending,c,negative,positive,ES_red,0,m,619,1479875,1480379,1480583
88,first,6,sonnig,IAT_green4.bmp,green,ending_melody,melody,ending,m,positive,negative,ES_red,1,m,389,1482775,1483279,1483483
88,first,7,krank,IAT_red2.bmp,red,ending_scream,scream,ending,c,negative,positive,ES_red,1,c,453,1484945,1485449,1485653
88,first,8,einsam,IAT_green3.bmp,green,ending_melody,melody,ending,c,negative,negative,ES_red,0,m,434,1487179,1487683,1487887
88,first,9,morsch,IAT_red4.bmp,red,ending_scream,scream,ending,c,negative,positive,ES_red,1,c,410,1489894,1490398,1490602
88,first,10,munter,IAT_yellow1.bmp,yellow,starting_scream,scream,starting,m,positive,negative,ES_red,1,m,571,1492088,1492592,1492796
88,first,11,kaputt,IAT_yellow4.bmp,yellow,starting_scream,scream,starting,c,negative,negative,ES_red,1,c,535,1494440,1494944,1495148
88,first,12,human,IAT_yellow2.bmp,yellow,starting_scream,scream,starting,m,positive,negative,ES_red,1,m,445,1496756,1497260,1497464
88,first,13,sanft,IAT_purple4.bmp,purple,starting_melody,melody,starting,m,positive,positive,ES_red,1,m,459,1498982,1499486,1499690
88,first,14,munter,IAT_purple1.bmp,purple,starting_melody,melody,starting,m,positive,positive,ES_red,1,m,592,1501223,1501728,1501932
88,first,15,sozial,IAT_green3.bmp,green,ending_melody,melody,ending,m,positive,negative,ES_red,1,m,491,1503598,1504102,1504306
88,first,16,gierig,IAT_green2.bmp,green,ending_melody,melody,ending,c,negative,negative,ES_red,0,m,408,1505871,1506375,1506579
88,first,17,teuer,IAT_purple4.bmp,purple,starting_melody,melody,starting,c,negative,positive,ES_red,1,c,589,1508560,1509065,1509269
88,first,18,sonnig,IAT_purple4.bmp,purple,starting_melody,melody,starting,m,positive,positive,ES_red,1,m,642,1510932,1511436,1511640
88,first,19,einsam,IAT_yellow1.bmp,yellow,starting_scream,scream,starting,c,negative,negative,ES_red,1,c,533,1513355,1513860,1514064
88,first,20,heiter,IAT_purple1.bmp,purple,starting_melody,melody,starting,m,positive,positive,ES_red,1,m,601,1515670,1516174,1516378
88,first,21,gerecht,IAT_purple3.bmp,purple,starting_melody,melody,starting,m,positive,positive,ES_red,1,m,573,1518053,1518557,1518761
88,first,22,gierig,IAT_purple2.bmp,purple,starting_melody,melody,starting,c,negative,positive,ES_red,1,c,519,1520407,1520911,1521115
88,first,23,brutal,IAT_green4.bmp,green,ending_melody,melody,ending,c,negative,negative,ES_red,1,c,485,1522708,1523212,1523416
88,first,24,gierig,IAT_yellow2.bmp,yellow,starting_scream,scream,starting,c,negative,negative,ES_red,0,m,442,1524975,1525479,1525683
88,first,25,gesund,IAT_red3.bmp,red,ending_scream,scream,ending,m,positive,positive,ES_red,1,m,450,1527698,1528202,1528406
88,first,26,kaputt,IAT_green4.bmp,green,ending_melody,melody,ending,c,negative,negative,ES_red,1,c,488,1529931,1530435,1530639
88,first,27,lustig,IAT_yellow3.bmp,yellow,starting_scream,scream,starting,m,positive,negative,ES_red,0,c,594,1532202,1532706,1532910
88,first,28,falsch,IAT_yellow3.bmp,yellow,starting_scream,scream,starting,c,negative,negative,ES_red,1,c,427,1535078,1535582,1535786
88,first,29,streng,IAT_purple3.bmp,purple,starting_melody,melody,starting,c,negative,positive,ES_red,1,c,451,1537286,1537790,1537994
88,first,30,witzig,IAT_red1.bmp,red,ending_scream,scream,ending,m,positive,positive,ES_red,1,m,484,1539518,1540022,1540226
88,first,31,gesund,IAT_green3.bmp,green,ending_melody,melody,ending,m,positive,negative,ES_red,1,m,443,1541783,1542287,1542491
88,first,32,ehrlich,IAT_green3.bmp,green,ending_melody,melody,ending,m,positive,negative,ES_red,1,m,533,1544007,1544511,1544715
88,first,33,munter,IAT_green2.bmp,green,ending_melody,melody,ending,m,positive,negative,ES_red,1,m,418,1546321,1546826,1547030
88,first,34,sozial,IAT_green2.bmp,green,ending_melody,melody,ending,m,positive,negative,ES_red,1,m,395,1548521,1549026,1549230
88,first,35,krank,IAT_purple1.bmp,purple,starting_melody,melody,starting,c,negative,positive,ES_red,1,c,539,1550700,1551204,1551408
88,first,36,streng,IAT_green4.bmp,green,ending_melody,melody,ending,c,negative,negative,ES_red,1,c,504,1553021,1553525,1553729
88,first,37,lästig,IAT_green1.bmp,green,ending_melody,melody,ending,c,negative,negative,ES_red,0,m,443,1555305,1555810,1556014
88,first,38,streng,IAT_red1.bmp,red,ending_scream,scream,ending,c,negative,positive,ES_red,1,c,461,1558031,1558535,1558739
88,first,39,schön,IAT_yellow4.bmp,yellow,starting_scream,scream,starting,m,positive,negative,ES_red,1,m,513,1560274,1560779,1560983
88,first,40,falsch,IAT_green2.bmp,green,ending_melody,melody,ending,c,negative,negative,ES_red,1,c,535,1562581,1563086,1563290
88,first,41,witzig,IAT_yellow1.bmp,yellow,starting_scream,scream,starting,m,positive,negative,ES_red,1,m,542,1564900,1565404,1565608
88,first,42,brutal,IAT_green1.bmp,green,ending_melody,melody,ending,c,negative,negative,ES_red,1,c,475,1567224,1567728,1567932
88,first,43,heiter,IAT_red2.bmp,red,ending_scream,scream,ending,m,positive,positive,ES_red,1,m,476,1569481,1569986,1570190
88,first,44,ehrlich,IAT_purple2.bmp,purple,starting_melody,melody,starting,m,positive,positive,ES_red,0,c,605,1571739,1572243,1572447
88,first,45,schön,IAT_green3.bmp,green,ending_melody,melody,ending,m,positive,negative,ES_red,1,m,477,1574627,1575131,1575335
88,first,46,sonnig,IAT_purple3.bmp,purple,starting_melody,melody,starting,m,positive,positive,ES_red,1,m,538,1576885,1577390,1577594
88,first,47,krank,IAT_yellow4.bmp,yellow,starting_scream,scream,starting,c,negative,negative,ES_red,1,c,493,1579206,1579710,1579914
88,first,48,einsam,IAT_purple1.bmp,purple,starting_melody,melody,starting,c,negative,positive,ES_red,1,c,470,1581480,1581984,1582188
88,first,49,kaputt,IAT_green2.bmp,green,ending_melody,melody,ending,c,negative,negative,ES_red,1,c,467,1583731,1584236,1584440
88,first,50,einsam,IAT_red3.bmp,red,ending_scream,scream,ending,c,negative,positive,ES_red,1,c,466,1585981,1586485,1586689
88,first,51,morsch,IAT_yellow3.bmp,yellow,starting_scream,scream,starting,c,negative,negative,ES_red,1,c,483,1588229,1588733,1588937
88,first,52,gesund,IAT_red4.bmp,red,ending_scream,scream,ending,m,positive,positive,ES_red,1,m,378,1590494,1590998,1591202
88,first,53,sozial,IAT_red2.bmp,red,ending_scream,scream,ending,m,positive,positive,ES_red,1,m,429,1592654,1593159,1593363
88,first,54,sanft,IAT_red3.bmp,red,ending_scream,scream,ending,m,positive,positive,ES_red,1,m,488,1594866,1595370,1595574
88,first,55,teuer,IAT_yellow2.bmp,yellow,starting_scream,scream,starting,c,negative,negative,ES_red,0,m,339,1597136,1597641,1597845
88,first,56,falsch,IAT_red1.bmp,red,ending_scream,scream,ending,c,negative,positive,ES_red,1,c,537,1599757,1600262,1600466
88,first,57,lästig,IAT_yellow1.bmp,yellow,starting_scream,scream,starting,c,negative,negative,ES_red,1,c,348,1602078,1602582,1602786
88,first,58,brutal,IAT_purple4.bmp,purple,starting_melody,melody,starting,c,negative,positive,ES_red,1,c,444,1604207,1604712,1604916
88,first,59,feige,IAT_red4.bmp,red,ending_scream,scream,ending,c,negative,positive,ES_red,1,c,414,1606434,1606939,1607143
88,first,60,schön,IAT_red1.bmp,red,ending_scream,scream,ending,m,positive,positive,ES_red,1,m,394,1608631,1609135,1609339
88,first,61,sanft,IAT_red1.bmp,red,ending_scream,scream,ending,m,positive,positive,ES_red,1,m,402,1610806,1611310,1611515
88,first,62,heiter,IAT_green4.bmp,green,ending_melody,melody,ending,m,positive,negative,ES_red,0,c,521,1612990,1613494,1613698
88,first,63,brutal,IAT_red2.bmp,red,ending_scream,scream,ending,c,negative,positive,ES_red,1,c,699,1615794,1616298,1616502
88,first,64,teuer,IAT_purple3.bmp,purple,starting_melody,melody,starting,c,negative,positive,ES_red,0,m,1025,1618275,1618779,1618983
88,first,65,sozial,IAT_yellow1.bmp,yellow,starting_scream,scream,starting,m,positive,negative,ES_red,1,m,634,1621583,1622087,1622291
88,first,66,munter,IAT_yellow3.bmp,yellow,starting_scream,scream,starting,m,positive,negative,ES_red,1,m,458,1623998,1624502,1624707
88,first,67,feige,IAT_green3.bmp,green,ending_melody,melody,ending,c,negative,negative,ES_red,1,c,529,1626238,1626742,1626946
88,first,68,morsch,IAT_green4.bmp,green,ending_melody,melody,ending,c,negative,negative,ES_red,1,c,583,1628547,1629051,1629255
88,first,69,krank,IAT_red4.bmp,red,ending_scream,scream,ending,c,negative,positive,ES_red,1,c,519,1630912,1631416,1631620
88,first,70,gerecht,IAT_yellow1.bmp,yellow,starting_scream,scream,starting,m,positive,negative,ES_red,1,m,524,1633214,1633718,1633922
88,first,71,human,IAT_red3.bmp,red,ending_scream,scream,ending,m,positive,positive,ES_red,1,m,559,1635519,1636023,1636227
88,first,72,feige,IAT_purple4.bmp,purple,starting_melody,melody,starting,c,negative,positive,ES_red,1,c,547,1637860,1638364,1638568
88,first,73,witzig,IAT_red3.bmp,red,ending_scream,scream,ending,m,positive,positive,ES_red,1,m,571,1640189,1640693,1640897
88,first,74,geizig,IAT_purple2.bmp,purple,starting_melody,melody,starting,c,negative,positive,ES_red,1,c,591,1642542,1643047,1643251
88,first,75,heiter,IAT_yellow3.bmp,yellow,starting_scream,scream,starting,m,positive,negative,ES_red,1,m,527,1644916,1645420,1645624
88,first,76,lustig,IAT_red4.bmp,red,ending_scream,scream,ending,m,positive,positive,ES_red,1,m,696,1647225,1647729,1647933
88,first,77,lästig,IAT_yellow2.bmp,yellow,starting_scream,scream,starting,c,negative,negative,ES_red,1,c,576,1649703,1650208,1650412
88,first,78,feige,IAT_purple4.bmp,purple,starting_melody,melody,starting,c,negative,positive,ES_red,1,c,553,1652062,1652566,1652770
88,first,79,geizig,IAT_yellow4.bmp,yellow,starting_scream,scream,starting,c,negative,negative,ES_red,1,c,570,1654397,1654901,1655105
88,first,80,sonnig,IAT_purple3.bmp,purple,starting_melody,melody,starting,m,positive,positive,ES_red,1,m,504,1656748,1657252,1657456
88,first,81,falsch,IAT_green2.bmp,green,ending_melody,melody,ending,c,negative,negative,ES_red,1,c,557,1659034,1659538,1659742
88,first,82,gerecht,IAT_red1.bmp,red,ending_scream,scream,ending,m,positive,positive,ES_red,1,m,786,1661373,1661877,1662081
88,first,83,gesund,IAT_yellow2.bmp,yellow,starting_scream,scream,starting,m,positive,negative,ES_red,1,m,604,1663941,1664445,1664649
88,first,84,morsch,IAT_yellow4.bmp,yellow,starting_scream,scream,starting,c,negative,negative,ES_red,1,c,634,1666327,1666831,1667035
88,first,85,teuer,IAT_red3.bmp,red,ending_scream,scream,ending,c,negative,positive,ES_red,1,c,741,1668744,1669248,1669452
88,first,86,lustig,IAT_purple1.bmp,purple,starting_melody,melody,starting,m,positive,positive,ES_red,1,m,484,1671267,1671771,1671975
88,first,87,human,IAT_green1.bmp,green,ending_melody,melody,ending,m,positive,negative,ES_red,1,m,867,1673533,1674037,1674241
88,first,88,lästig,IAT_red4.bmp,red,ending_scream,scream,ending,c,negative,positive,ES_red,1,c,606,1676182,1676687,1676891
88,first,89,schön,IAT_green1.bmp,green,ending_melody,melody,ending,m,positive,negative,ES_red,1,m,481,1678571,1679076,1679280
88,first,90,human,IAT_green1.bmp,green,ending_melody,melody,ending,m,positive,negative,ES_red,1,m,545,1680835,1681339,1681543
88,first,91,gerecht,IAT_green1.bmp,green,ending_melody,melody,ending,m,positive,negative,ES_red,1,m,487,1683162,1683666,1683870
88,first,92,ehrlich,IAT_purple1.bmp,purple,starting_melody,melody,starting,m,positive,positive,ES_red,1,m,435,1685432,1685936,1686140
88,first,93,lustig,IAT_purple2.bmp,purple,starting_melody,melody,starting,m,positive,positive,ES_red,1,m,395,1687649,1688153,1688357
88,first,94,kaputt,IAT_red2.bmp,red,ending_scream,scream,ending,c,negative,positive,ES_red,1,c,447,1689826,1690330,1690534
88,first,95,geizig,IAT_purple2.bmp,purple,starting_melody,melody,starting,c,negative,positive,ES_red,1,c,500,1692056,1692560,1692764
88,second,0,brutal,IAT_red2.bmp,red,ending_scream,scream,ending,c,negative,positive,ES_red,1,c,572,1704483,1704988,1705192
88,second,1,krank,IAT_red3.bmp,red,ending_scream,scream,ending,c,negative,positive,ES_red,1,c,359,1706838,1707342,1707546
88,second,2,sanft,IAT_green1.bmp,green,ending_melody,melody,ending,m,positive,negative,ES_red,1,m,541,1708977,1709482,1709686
88,second,3,heiter,IAT_purple3.bmp,purple,starting_melody,melody,starting,m,positive,positive,ES_red,1,m,509,1711309,1711813,1712017
88,second,4,munter,IAT_purple3.bmp,purple,starting_melody,melody,starting,m,positive,positive,ES_red,1,m,498,1713599,1714104,1714308
88,second,5,sanft,IAT_yellow2.bmp,yellow,starting_scream,scream,starting,m,positive,negative,ES_red,1,m,561,1715879,1716383,1716587
88,second,6,falsch,IAT_purple4.bmp,purple,starting_melody,melody,starting,c,negative,positive,ES_red,1,c,483,1718221,1718725,1718929
88,second,7,einsam,IAT_yellow1.bmp,yellow,starting_scream,scream,starting,c,negative,negative,ES_red,1,c,488,1720487,1720991,1721195
88,second,8,krank,IAT_red4.bmp,red,ending_scream,scream,ending,c,negative,positive,ES_red,1,c,419,1722756,1723260,1723464
88,second,9,gerecht,IAT_purple3.bmp,purple,starting_melody,melody,starting,m,positive,positive,ES_red,1,m,668,1724955,1725459,1725663
88,second,10,gierig,IAT_yellow2.bmp,yellow,starting_scream,scream,starting,c,negative,negative,ES_red,1,c,575,1727404,1727910,1728114
88,second,11,geizig,IAT_green3.bmp,green,ending_melody,melody,ending,c,negative,negative,ES_red,1,c,526,1729762,1730266,1730470
88,second,12,streng,IAT_purple1.bmp,purple,starting_melody,melody,starting,c,negative,positive,ES_red,0,m,484,1732070,1732574,1732778
88,second,13,feige,IAT_green1.bmp,green,ending_melody,melody,ending,c,negative,negative,ES_red,0,m,410,1734837,1735341,1735545
88,second,14,geizig,IAT_yellow2.bmp,yellow,starting_scream,scream,starting,c,negative,negative,ES_red,0,m,586,1737528,1738032,1738236
88,second,15,gesund,IAT_yellow2.bmp,yellow,starting_scream,scream,starting,m,positive,negative,ES_red,1,m,507,1740395,1740899,1741103
88,second,16,feige,IAT_purple2.bmp,purple,starting_melody,melody,starting,c,negative,positive,ES_red,1,c,511,1742685,1743189,1743393
88,second,17,sozial,IAT_yellow1.bmp,yellow,starting_scream,scream,starting,m,positive,negative,ES_red,1,m,567,1744979,1745483,1745687
88,second,18,lästig,IAT_purple2.bmp,purple,starting_melody,melody,starting,c,negative,positive,ES_red,1,c,432,1747327,1747832,1748036
88,second,19,gerecht,IAT_red3.bmp,red,ending_scream,scream,ending,m,positive,positive,ES_red,0,c,351,1749542,1750047,1750251
88,second,20,sonnig,IAT_red4.bmp,red,ending_scream,scream,ending,m,positive,positive,ES_red,1,m,459,1752176,1752680,1752884
88,second,21,brutal,IAT_yellow4.bmp,yellow,starting_scream,scream,starting,c,negative,negative,ES_red,1,c,435,1754417,1754921,1755125
88,second,22,kaputt,IAT_red4.bmp,red,ending_scream,scream,ending,c,negative,positive,ES_red,1,c,598,1756634,1757139,1757343
88,second,23,falsch,IAT_purple1.bmp,purple,starting_melody,melody,starting,c,negative,positive,ES_red,1,c,420,1759015,1759519,1759723
88,second,24,krank,IAT_green4.bmp,green,ending_melody,melody,ending,c,negative,negative,ES_red,1,c,498,1761216,1761720,1761924
88,second,25,morsch,IAT_red1.bmp,red,ending_scream,scream,ending,c,negative,positive,ES_red,1,c,415,1763496,1764001,1764205
88,second,26,heiter,IAT_red4.bmp,red,ending_scream,scream,ending,m,positive,positive,ES_red,1,m,547,1765703,1766207,1766411
88,second,27,human,IAT_red3.bmp,red,ending_scream,scream,ending,m,positive,positive,ES_red,1,m,564,1768032,1768536,1768740
88,second,28,witzig,IAT_red1.bmp,red,ending_scream,scream,ending,m,positive,positive,ES_red,0,c,445,1770378,1770882,1771086
88,second,29,gesund,IAT_purple2.bmp,purple,starting_melody,melody,starting,m,positive,positive,ES_red,1,m,478,1773105,1773610,1773814
88,second,30,human,IAT_red2.bmp,red,ending_scream,scream,ending,m,positive,positive,ES_red,1,m,411,1775366,1775870,1776074
88,second,31,falsch,IAT_green1.bmp,green,ending_melody,melody,ending,c,negative,negative,ES_red,1,c,463,1777560,1778064,1778268
88,second,32,sanft,IAT_yellow3.bmp,yellow,starting_scream,scream,starting,m,positive,negative,ES_red,1,m,572,1779805,1780309,1780513
88,second,33,ehrlich,IAT_green3.bmp,green,ending_melody,melody,ending,m,positive,negative,ES_red,1,m,505,1782159,1782664,1782868
88,second,34,sonnig,IAT_green3.bmp,green,ending_melody,melody,ending,m,positive,negative,ES_red,1,m,365,1784447,1784951,1785156
88,second,35,lästig,IAT_yellow3.bmp,yellow,starting_scream,scream,starting,c,negative,negative,ES_red,1,c,447,1786595,1787099,1787303
88,second,36,brutal,IAT_green2.bmp,green,ending_melody,melody,ending,c,negative,negative,ES_red,1,c,1099,1788824,1789328,1789532
88,second,37,morsch,IAT_green2.bmp,green,ending_melody,melody,ending,c,negative,negative,ES_red,1,c,528,1791705,1792209,1792413
88,second,38,schön,IAT_purple4.bmp,purple,starting_melody,melody,starting,m,positive,positive,ES_red,1,m,490,1794015,1794520,1794724
88,second,39,gierig,IAT_purple3.bmp,purple,starting_melody,melody,starting,c,negative,positive,ES_red,1,c,551,1796287,1796792,1796996
88,second,40,teuer,IAT_red2.bmp,red,ending_scream,scream,ending,c,negative,positive,ES_red,1,c,629,1798621,1799126,1799330
88,second,41,kaputt,IAT_green4.bmp,green,ending_melody,melody,ending,c,negative,negative,ES_red,1,c,531,1801034,1801538,1801742
88,second,42,sozial,IAT_green4.bmp,green,ending_melody,melody,ending,m,positive,negative,ES_red,1,m,566,1803346,1803851,1804055
88,second,43,sanft,IAT_purple1.bmp,purple,starting_melody,melody,starting,m,positive,positive,ES_red,1,m,419,1805695,1806200,1806404
88,second,44,teuer,IAT_green4.bmp,green,ending_melody,melody,ending,c,negative,negative,ES_red,0,m,383,1807896,1808401,1808605
88,second,45,gerecht,IAT_green1.bmp,green,ending_melody,melody,ending,m,positive,negative,ES_red,1,m,443,1810563,1811067,1811271
88,second,46,ehrlich,IAT_red3.bmp,red,ending_scream,scream,ending,m,positive,positive,ES_red,1,m,585,1812788,1813292,1813496
88,second,47,gesund,IAT_green2.bmp,green,ending_melody,melody,ending,m,positive,negative,ES_red,1,m,438,1815155,1815659,1815863
88,second,48,streng,IAT_green3.bmp,green,ending_melody,melody,ending,c,negative,negative,ES_red,1,c,501,1817375,1817879,1818083
88,second,49,kaputt,IAT_purple4.bmp,purple,starting_melody,melody,starting,c,negative,positive,ES_red,1,c,654,1819657,1820162,1820366
88,second,50,witzig,IAT_green4.bmp,green,ending_melody,melody,ending,m,positive,negative,ES_red,1,m,527,1822094,1822598,1822802
88,second,51,lustig,IAT_purple1.bmp,purple,starting_melody,melody,starting,m,positive,positive,ES_red,1,m,529,1824403,1824907,1825111
88,second,52,human,IAT_green3.bmp,green,ending_melody,melody,ending,m,positive,negative,ES_red,1,m,496,1826714,1827218,1827422
88,second,53,witzig,IAT_yellow1.bmp,yellow,starting_scream,scream,starting,m,positive,negative,ES_red,1,m,462,1828992,1829496,1829700
88,second,54,einsam,IAT_red1.bmp,red,ending_scream,scream,ending,c,negative,positive,ES_red,0,m,601,1831237,1831741,1831945
88,second,55,geizig,IAT_purple4.bmp,purple,starting_melody,melody,starting,c,negative,positive,ES_red,1,c,527,1834120,1834624,1834828
88,second,56,sozial,IAT_purple4.bmp,purple,starting_melody,melody,starting,m,positive,positive,ES_red,1,m,668,1836428,1836933,1837137
88,second,57,lustig,IAT_green2.bmp,green,ending_melody,melody,ending,m,positive,negative,ES_red,1,m,572,1838879,1839383,1839587
88,second,58,gierig,IAT_red4.bmp,red,ending_scream,scream,ending,c,negative,positive,ES_red,1,c,595,1841234,1841738,1841942
88,second,59,kaputt,IAT_yellow4.bmp,yellow,starting_scream,scream,starting,c,negative,negative,ES_red,1,c,517,1843611,1844115,1844319
88,second,60,gerecht,IAT_green1.bmp,green,ending_melody,melody,ending,m,positive,negative,ES_red,0,c,372,1845910,1846414,1846618
88,second,61,feige,IAT_yellow1.bmp,yellow,starting_scream,scream,starting,c,negative,negative,ES_red,1,c,564,1848564,1849069,1849273
88,second,62,munter,IAT_red1.bmp,red,ending_scream,scream,ending,m,positive,positive,ES_red,1,m,592,1850912,1851416,1851620
88,second,63,gierig,IAT_yellow2.bmp,yellow,starting_scream,scream,starting,c,negative,negative,ES_red,1,c,595,1853286,1853791,1853995
88,second,64,witzig,IAT_green1.bmp,green,ending_melody,melody,ending,m,positive,negative,ES_red,1,m,473,1855664,1856168,1856372
88,second,65,morsch,IAT_green4.bmp,green,ending_melody,melody,ending,c,negative,negative,ES_red,0,m,447,1857919,1858423,1858627
88,second,66,teuer,IAT_purple2.bmp,purple,starting_melody,melody,starting,c,negative,positive,ES_red,0,m,561,1860648,1861153,1861358
88,second,67,schön,IAT_red3.bmp,red,ending_scream,scream,ending,m,positive,positive,ES_red,1,m,727,1863494,1863998,1864202
88,second,68,falsch,IAT_green2.bmp,green,ending_melody,melody,ending,c,negative,negative,ES_red,1,c,502,1866003,1866507,1866711
88,second,69,lästig,IAT_purple4.bmp,purple,starting_melody,melody,starting,c,negative,positive,ES_red,1,c,658,1868287,1868791,1868995
88,second,70,feige,IAT_yellow4.bmp,yellow,starting_scream,scream,starting,c,negative,negative,ES_red,1,c,611,1870728,1871232,1871436
88,second,71,lästig,IAT_red3.bmp,red,ending_scream,scream,ending,c,negative,positive,ES_red,1,c,563,1873122,1873626,1873830
88,second,72,ehrlich,IAT_yellow4.bmp,yellow,starting_scream,scream,starting,m,positive,negative,ES_red,1,m,546,1875467,1875971,1876175
88,second,73,heiter,IAT_yellow3.bmp,yellow,starting_scream,scream,starting,m,positive,negative,ES_red,1,m,773,1877795,1878300,1878504
88,second,74,ehrlich,IAT_red1.bmp,red,ending_scream,scream,ending,m,positive,positive,ES_red,1,m,567,1880352,1880857,1881061
88,second,75,gesund,IAT_green3.bmp,green,ending_melody,melody,ending,m,positive,negative,ES_red,1,m,469,1882702,1883207,1883411
88,second,76,geizig,IAT_yellow3.bmp,yellow,starting_scream,scream,starting,c,negative,negative,ES_red,1,c,470,1884954,1885458,1885662
88,second,77,einsam,IAT_green2.bmp,green,ending_melody,melody,ending,c,negative,negative,ES_red,1,c,554,1887206,1887710,1887914
88,second,78,sonnig,IAT_purple1.bmp,purple,starting_melody,melody,starting,m,positive,positive,ES_red,0,c,441,1889543,1890047,1890251
88,second,79,brutal,IAT_red2.bmp,red,ending_scream,scream,ending,c,negative,positive,ES_red,1,c,554,1892267,1892771,1892975
88,second,80,lustig,IAT_red1.bmp,red,ending_scream,scream,ending,m,positive,positive,ES_red,1,m,562,1894604,1895109,1895313
88,second,81,teuer,IAT_yellow2.bmp,yellow,starting_scream,scream,starting,c,negative,negative,ES_red,1,c,759,1896949,1897453,1897658
88,second,82,morsch,IAT_red2.bmp,red,ending_scream,scream,ending,c,negative,positive,ES_red,1,c,657,1899492,1899996,1900200
88,second,83,streng,IAT_purple3.bmp,purple,starting_melody,melody,starting,c,negative,positive,ES_red,1,c,564,1901932,1902436,1902640
88,second,84,einsam,IAT_purple2.bmp,purple,starting_melody,melody,starting,c,negative,positive,ES_red,1,c,919,1904279,1904783,1904987
88,second,85,schön,IAT_yellow4.bmp,yellow,starting_scream,scream,starting,m,positive,negative,ES_red,1,m,600,1906981,1907485,1907689
88,second,86,sozial,IAT_yellow1.bmp,yellow,starting_scream,scream,starting,m,positive,negative,ES_red,1,m,677,1909365,1909869,1910074
88,second,87,streng,IAT_yellow4.bmp,yellow,starting_scream,scream,starting,c,negative,negative,ES_red,1,c,523,1911825,1912329,1912533
88,second,88,schön,IAT_yellow3.bmp,yellow,starting_scream,scream,starting,m,positive,negative,ES_red,1,m,510,1914131,1914635,1914839
88,second,89,lustig,IAT_purple2.bmp,purple,starting_melody,melody,starting,m,positive,positive,ES_red,1,m,647,1916424,1916929,1917133
88,second,90,sonnig,IAT_yellow1.bmp,yellow,starting_scream,scream,starting,m,positive,negative,ES_red,1,m,491,1918855,1919360,1919564
88,second,91,krank,IAT_red4.bmp,red,ending_scream,scream,ending,c,negative,positive,ES_red,1,c,401,1921130,1921634,1921838
88,second,92,munter,IAT_red2.bmp,red,ending_scream,scream,ending,m,positive,positive,ES_red,1,m,475,1923314,1923819,1924023
88,second,93,human,IAT_purple1.bmp,purple,starting_melody,melody,starting,m,positive,positive,ES_red,1,m,700,1925573,1926078,1926282
88,second,94,munter,IAT_purple3.bmp,purple,starting_melody,melody,starting,m,positive,positive,ES_red,1,m,420,1928055,1928560,1928764
88,second,95,heiter,IAT_yellow3.bmp,yellow,starting_scream,scream,starting,m,positive,negative,ES_red,1,m,575,1930259,1930763,1930967
88,third,0,sonnig,IAT_purple1.bmp,purple,starting_melody,melody,starting,m,positive,positive,ES_red,1,m,596,1941790,1942294,1942498
88,third,1,kaputt,IAT_yellow3.bmp,yellow,starting_scream,scream,starting,c,negative,negative,ES_red,1,c,526,1944168,1944673,1944877
88,third,2,sanft,IAT_purple3.bmp,purple,starting_melody,melody,starting,m,positive,positive,ES_red,1,m,666,1946476,1946980,1947184
88,third,3,brutal,IAT_purple3.bmp,purple,starting_melody,melody,starting,c,negative,positive,ES_red,1,c,533,1948923,1949428,1949632
88,third,4,feige,IAT_purple4.bmp,purple,starting_melody,melody,starting,c,negative,positive,ES_red,1,c,558,1951238,1951742,1951946
88,third,5,lästig,IAT_purple1.bmp,purple,starting_melody,melody,starting,c,negative,positive,ES_red,1,c,537,1953578,1954082,1954286
88,third,6,morsch,IAT_red1.bmp,red,ending_scream,scream,ending,c,negative,positive,ES_red,1,c,467,1955896,1956401,1956605
88,third,7,heiter,IAT_yellow4.bmp,yellow,starting_scream,scream,starting,m,positive,negative,ES_red,1,m,652,1958148,1958652,1958856
88,third,8,schön,IAT_yellow1.bmp,yellow,starting_scream,scream,starting,m,positive,negative,ES_red,1,m,385,1960583,1961087,1961291
88,third,9,brutal,IAT_yellow4.bmp,yellow,starting_scream,scream,starting,c,negative,negative,ES_red,1,c,537,1962750,1963254,1963458
88,third,10,human,IAT_yellow3.bmp,yellow,starting_scream,scream,starting,m,positive,negative,ES_red,1,m,457,1965067,1965571,1965775
88,third,11,streng,IAT_purple2.bmp,purple,starting_melody,melody,starting,c,negative,positive,ES_red,1,c,444,1967306,1967810,1968014
88,third,12,feige,IAT_purple4.bmp,purple,starting_melody,melody,starting,c,negative,positive,ES_red,0,m,438,1969531,1970035,1970239
88,third,13,lustig,IAT_yellow1.bmp,yellow,starting_scream,scream,starting,m,positive,negative,ES_red,1,m,491,1972253,1972757,1972961
88,third,14,lästig,IAT_yellow4.bmp,yellow,starting_scream,scream,starting,c,negative,negative,ES_red,0,m,482,1974526,1975030,1975234
88,third,15,sonnig,IAT_green1.bmp,green,ending_melody,melody,ending,m,positive,negative,ES_red,1,m,415,1977290,1977794,1977998
88,third,16,heiter,IAT_purple1.bmp,purple,starting_melody,melody,starting,m,positive,positive,ES_red,0,c,379,1979486,1979991,1980195
88,third,17,morsch,IAT_red2.bmp,red,ending_scream,scream,ending,c,negative,positive,ES_red,1,c,569,1982148,1982653,1982857
88,third,18,sanft,IAT_red3.bmp,red,ending_scream,scream,ending,m,positive,positive,ES_red,1,m,433,1984500,1985004,1985209
88,third,19,witzig,IAT_purple2.bmp,purple,starting_melody,melody,starting,m,positive,positive,ES_red,1,m,910,1986717,1987221,1987425
88,third,20,geizig,IAT_purple4.bmp,purple,starting_melody,melody,starting,c,negative,positive,ES_red,1,c,582,1989409,1989913,1990117
88,third,21,schön,IAT_yellow1.bmp,yellow,starting_scream,scream,starting,m,positive,negative,ES_red,1,m,519,1991773,1992278,1992482
88,third,22,sozial,IAT_purple1.bmp,purple,starting_melody,melody,starting,m,positive,positive,ES_red,0,c,418,1994075,1994579,1994783
88,third,23,lustig,IAT_green4.bmp,green,ending_melody,melody,ending,m,positive,negative,ES_red,1,m,484,1996776,1997280,1997484
88,third,24,falsch,IAT_green2.bmp,green,ending_melody,melody,ending,c,negative,negative,ES_red,1,c,531,1999043,1999547,1999751
88,third,25,gesund,IAT_purple2.bmp,purple,starting_melody,melody,starting,m,positive,positive,ES_red,1,m,504,2001356,2001860,2002064
88,third,26,munter,IAT_yellow2.bmp,yellow,starting_scream,scream,starting,m,positive,negative,ES_red,1,m,446,2003644,2004148,2004352
88,third,27,gesund,IAT_green3.bmp,green,ending_melody,melody,ending,m,positive,negative,ES_red,1,m,526,2005874,2006378,2006582
88,third,28,schön,IAT_green1.bmp,green,ending_melody,melody,ending,m,positive,negative,ES_red,1,m,426,2008182,2008686,2008890
88,third,29,lästig,IAT_yellow1.bmp,yellow,starting_scream,scream,starting,c,negative,negative,ES_red,1,c,701,2010391,2010895,2011099
88,third,30,falsch,IAT_green4.bmp,green,ending_melody,melody,ending,c,negative,negative,ES_red,0,m,559,2012874,2013379,2013583
88,third,31,human,IAT_yellow1.bmp,yellow,starting_scream,scream,starting,m,positive,negative,ES_red,1,m,539,2015716,2016220,2016424
88,third,32,brutal,IAT_purple2.bmp,purple,starting_melody,melody,starting,c,negative,positive,ES_red,1,c,494,2018036,2018541,2018745
88,third,33,krank,IAT_yellow2.bmp,yellow,starting_scream,scream,starting,c,negative,negative,ES_red,0,m,608,2020314,2020818,2021022
88,third,34,teuer,IAT_purple2.bmp,purple,starting_melody,melody,starting,c,negative,positive,ES_red,1,c,551,2023205,2023709,2023913
88,third,35,sanft,IAT_red1.bmp,red,ending_scream,scream,ending,m,positive,positive,ES_red,1,m,492,2025538,2026042,2026246
88,third,36,krank,IAT_green2.bmp,green,ending_melody,melody,ending,c,negative,negative,ES_red,1,c,589,2027813,2028317,2028521
88,third,37,feige,IAT_red3.bmp,red,ending_scream,scream,ending,c,negative,positive,ES_red,1,c,562,2030185,2030690,2030894
88,third,38,gerecht,IAT_red1.bmp,red,ending_scream,scream,ending,m,positive,positive,ES_red,1,m,528,2032530,2033034,2033238
88,third,39,streng,IAT_green4.bmp,green,ending_melody,melody,ending,c,negative,negative,ES_red,1,c,1315,2034841,2035345,2035549
88,third,40,heiter,IAT_red3.bmp,red,ending_scream,scream,ending,m,positive,positive,ES_red,1,m,591,2037938,2038442,2038646
88,third,41,geizig,IAT_green3.bmp,green,ending_melody,melody,ending,c,negative,negative,ES_red,1,c,647,2040311,2040815,2041019
88,third,42,einsam,IAT_yellow2.bmp,yellow,starting_scream,scream,starting,c,negative,negative,ES_red,1,c,542,2042740,2043245,2043449
88,third,43,streng,IAT_green1.bmp,green,ending_melody,melody,ending,c,negative,negative,ES_red,1,c,397,2045064,2045569,2045773
88,third,44,lustig,IAT_purple4.bmp,purple,starting_melody,melody,starting,m,positive,positive,ES_red,1,m,440,2047244,2047748,2047952
88,third,45,gierig,IAT_red4.bmp,red,ending_scream,scream,ending,c,negative,positive,ES_red,1,c,467,2049466,2049970,2050174
88,third,46,geizig,IAT_green2.bmp,green,ending_melody,melody,ending,c,negative,negative,ES_red,1,c,431,2051716,2052220,2052424
88,third,47,gerecht,IAT_red3.bmp,red,ending_scream,scream,ending,m,positive,positive,ES_red,1,m,540,2053929,2054433,2054637
88,third,48,munter,IAT_purple3.bmp,purple,starting_melody,melody,starting,m,positive,positive,ES_red,0,c,452,2056250,2056754,2056958
88,third,49,morsch,IAT_purple4.bmp,purple,starting_melody,melody,starting,c,negative,positive,ES_red,0,m,349,2058986,2059490,2059694
88,third,50,sanft,IAT_red1.bmp,red,ending_scream,scream,ending,m,positive,positive,ES_red,1,m,572,2061618,2062122,2062326
88,third,51,sozial,IAT_purple1.bmp,purple,starting_melody,melody,starting,m,positive,positive,ES_red,0,c,449,2063973,2064478,2064682
88,third,52,falsch,IAT_red4.bmp,red,ending_scream,scream,ending,c,negative,positive,ES_red,0,m,618,2066706,2067210,2067414
88,third,53,streng,IAT_yellow4.bmp,yellow,starting_scream,scream,starting,c,negative,negative,ES_red,1,c,541,2069607,2070111,2070315
88,third,54,witzig,IAT_green1.bmp,green,ending_melody,melody,ending,m,positive,negative,ES_red,1,m,465,2071930,2072434,2072638
88,third,55,sonnig,IAT_green3.bmp,green,ending_melody,melody,ending,m,positive,negative,ES_red,1,m,511,2074178,2074683,2074887
88,third,56,ehrlich,IAT_yellow3.bmp,yellow,starting_scream,scream,starting,m,positive,negative,ES_red,1,m,530,2076473,2076978,2077182
88,third,57,sozial,IAT_purple3.bmp,purple,starting_melody,melody,starting,m,positive,positive,ES_red,1,m,492,2078786,2079290,2079494
88,third,58,teuer,IAT_green2.bmp,green,ending_melody,melody,ending,c,negative,negative,ES_red,1,c,715,2081060,2081564,2081768
88,third,59,human,IAT_red2.bmp,red,ending_scream,scream,ending,m,positive,positive,ES_red,1,m,557,2083557,2084061,2084265
88,third,60,einsam,IAT_purple2.bmp,purple,starting_melody,melody,starting,c,negative,positive,ES_red,1,c,642,2085896,2086401,2086605
88,third,61,gerecht,IAT_red4.bmp,red,ending_scream,scream,ending,m,positive,positive,ES_red,1,m,476,2088322,2088826,2089030
88,third,62,ehrlich,IAT_green1.bmp,green,ending_melody,melody,ending,m,positive,negative,ES_red,1,m,521,2090580,2091085,2091289
88,third,63,sonnig,IAT_green3.bmp,green,ending_melody,melody,ending,m,positive,negative,ES_red,1,m,542,2092886,2093390,2093595
88,third,64,teuer,IAT_green1.bmp,green,ending_melody,melody,ending,c,negative,negative,ES_red,1,c,659,2095210,2095714,2095918
88,third,65,lästig,IAT_red2.bmp,red,ending_scream,scream,ending,c,negative,positive,ES_red,1,c,483,2097653,2098157,2098361
88,third,66,gerecht,IAT_green3.bmp,green,ending_melody,melody,ending,m,positive,negative,ES_red,1,m,581,2099918,2100422,2100626
88,third,67,gierig,IAT_yellow1.bmp,yellow,starting_scream,scream,starting,c,negative,negative,ES_red,1,c,632,2102282,2102786,2102990
88,third,68,krank,IAT_yellow3.bmp,yellow,starting_scream,scream,starting,c,negative,negative,ES_red,1,c,448,2104697,2105201,2105405
88,third,69,witzig,IAT_green4.bmp,green,ending_melody,melody,ending,m,positive,negative,ES_red,1,m,417,2106928,2107432,2107636
88,third,70,falsch,IAT_purple3.bmp,purple,starting_melody,melody,starting,c,negative,positive,ES_red,1,c,569,2109128,2109632,2109836
88,third,71,schön,IAT_green2.bmp,green,ending_melody,melody,ending,m,positive,negative,ES_red,1,m,580,2111479,2111983,2112187
88,third,72,teuer,IAT_purple1.bmp,purple,starting_melody,melody,starting,c,negative,positive,ES_red,1,c,1063,2113843,2114347,2114551
88,third,73,gesund,IAT_red3.bmp,red,ending_scream,scream,ending,m,positive,positive,ES_red,1,m,547,2116688,2117192,2117396
88,third,74,ehrlich,IAT_green2.bmp,green,ending_melody,melody,ending,m,positive,negative,ES_red,1,m,562,2119017,2119521,2119725
88,third,75,gesund,IAT_yellow3.bmp,yellow,starting_scream,scream,starting,m,positive,negative,ES_red,1,m,572,2121361,2121865,2122069
88,third,76,munter,IAT_red2.bmp,red,ending_scream,scream,ending,m,positive,positive,ES_red,1,m,524,2123716,2124220,2124424
88,third,77,kaputt,IAT_red2.bmp,red,ending_scream,scream,ending,c,negative,positive,ES_red,1,c,594,2126023,2126527,2126731
88,third,78,gierig,IAT_green4.bmp,green,ending_melody,melody,ending,c,negative,negative,ES_red,1,c,540,2128400,2128904,2129108
88,third,79,krank,IAT_yellow4.bmp,yellow,starting_scream,scream,starting,c,negative,negative,ES_red,1,c,575,2130724,2131228,2131432
88,third,80,sozial,IAT_purple4.bmp,purple,starting_melody,melody,starting,m,positive,positive,ES_red,1,m,587,2133080,2133585,2133789
88,third,81,morsch,IAT_yellow2.bmp,yellow,starting_scream,scream,starting,c,negative,negative,ES_red,1,c,485,2135452,2135956,2136160
88,third,82,heiter,IAT_yellow2.bmp,yellow,starting_scream,scream,starting,m,positive,negative,ES_red,1,m,450,2137722,2138226,2138430
88,third,83,gierig,IAT_green3.bmp,green,ending_melody,melody,ending,c,negative,negative,ES_red,1,c,513,2139955,2140459,2140663
88,third,84,geizig,IAT_yellow2.bmp,yellow,starting_scream,scream,starting,c,negative,negative,ES_red,1,c,438,2142250,2142754,2142958
88,third,85,einsam,IAT_green4.bmp,green,ending_melody,melody,ending,c,negative,negative,ES_red,1,c,600,2144471,2144975,2145179
88,third,86,lustig,IAT_red1.bmp,red,ending_scream,scream,ending,m,positive,positive,ES_red,1,m,531,2146854,2147358,2147562
88,third,87,witzig,IAT_yellow3.bmp,yellow,starting_scream,scream,starting,m,positive,negative,ES_red,1,m,580,2149167,2149671,2149875
88,third,88,kaputt,IAT_red4.bmp,red,ending_scream,scream,ending,c,negative,positive,ES_red,1,c,495,2151531,2152035,2152239
88,third,89,ehrlich,IAT_red4.bmp,red,ending_scream,scream,ending,m,positive,positive,ES_red,0,c,432,2153809,2154314,2154518
88,third,90,human,IAT_purple3.bmp,purple,starting_melody,melody,starting,m,positive,positive,ES_red,1,m,645,2156525,2157029,2157233
88,third,91,munter,IAT_yellow4.bmp,yellow,starting_scream,scream,starting,m,positive,negative,ES_red,1,m,599,2158953,2159458,2159662
88,third,92,einsam,IAT_red4.bmp,red,ending_scream,scream,ending,c,negative,positive,ES_red,1,c,589,2161336,2161840,2162044
88,third,93,brutal,IAT_red1.bmp,red,ending_scream,scream,ending,c,negative,positive,ES_red,1,c,522,2163708,2164212,2164416
88,third,94,kaputt,IAT_red3.bmp,red,ending_scream,scream,ending,c,negative,positive,ES_red,1,c,430,2166013,2166517,2166721
88,third,95,feige,IAT_red2.bmp,red,ending_scream,scream,ending,c,negative,positive,ES_red,1,c,415,2168225,2168730,2168934
88,forth,0,lästig,IAT_yellow4.bmp,yellow,starting_scream,scream,starting,c,negative,negative,ES_red,1,c,630,2184914,2185419,2185623
88,forth,1,streng,IAT_purple2.bmp,purple,starting_melody,melody,starting,c,negative,positive,ES_red,1,c,406,2187328,2187832,2188036
88,forth,2,munter,IAT_purple3.bmp,purple,starting_melody,melody,starting,m,positive,positive,ES_red,1,m,403,2189515,2190020,2190224
88,forth,3,human,IAT_purple1.bmp,purple,starting_melody,melody,starting,m,positive,positive,ES_red,1,m,560,2191700,2192204,2192408
88,forth,4,geizig,IAT_yellow2.bmp,yellow,starting_scream,scream,starting,c,negative,negative,ES_red,1,c,1173,2194043,2194547,2194751
88,forth,5,gierig,IAT_red2.bmp,red,ending_scream,scream,ending,c,negative,positive,ES_red,1,c,616,2196999,2197503,2197707
88,forth,6,geizig,IAT_green4.bmp,green,ending_melody,melody,ending,c,negative,negative,ES_red,1,c,573,2199397,2199901,2200105
88,forth,7,sozial,IAT_green4.bmp,green,ending_melody,melody,ending,m,positive,negative,ES_red,1,m,505,2201751,2202256,2202460
88,forth,8,falsch,IAT_yellow1.bmp,yellow,starting_scream,scream,starting,c,negative,negative,ES_red,1,c,457,2204039,2204543,2204747
88,forth,9,teuer,IAT_yellow4.bmp,yellow,starting_scream,scream,starting,c,negative,negative,ES_red,1,c,949,2206278,2206783,2206987
88,forth,10,geizig,IAT_green4.bmp,green,ending_melody,melody,ending,c,negative,negative,ES_red,1,c,911,2209010,2209514,2209718
88,forth,11,einsam,IAT_green3.bmp,green,ending_melody,melody,ending,c,negative,negative,ES_red,1,c,666,2211704,2212208,2212412
88,forth,12,gierig,IAT_red3.bmp,red,ending_scream,scream,ending,c,negative,positive,ES_red,1,c,536,2214152,2214656,2214860
88,forth,13,feige,IAT_purple4.bmp,purple,starting_melody,melody,starting,c,negative,positive,ES_red,1,c,718,2216469,2216973,2217177
88,forth,14,heiter,IAT_red3.bmp,red,ending_scream,scream,ending,m,positive,positive,ES_red,1,m,686,2218969,2219473,2219677
88,forth,15,krank,IAT_red2.bmp,red,ending_scream,scream,ending,c,negative,positive,ES_red,1,c,590,2221437,2221941,2222145
88,forth,16,feige,IAT_yellow3.bmp,yellow,starting_scream,scream,starting,c,negative,negative,ES_red,1,c,475,2223809,2224313,2224517
88,forth,17,ehrlich,IAT_red2.bmp,red,ending_scream,scream,ending,m,positive,positive,ES_red,1,m,561,2226065,2226570,2226774
88,forth,18,gesund,IAT_green3.bmp,green,ending_melody,melody,ending,m,positive,negative,ES_red,1,m,562,2228409,2228914,2229118
88,forth,19,witzig,IAT_red2.bmp,red,ending_scream,scream,ending,m,positive,positive,ES_red,1,m,704,2230755,2231259,2231464
88,forth,20,kaputt,IAT_green2.bmp,green,ending_melody,melody,ending,c,negative,negative,ES_red,1,c,483,2233242,2233747,2233951
88,forth,21,gesund,IAT_green1.bmp,green,ending_melody,melody,ending,m,positive,negative,ES_red,1,m,560,2235508,2236012,2236216
88,forth,22,gierig,IAT_purple4.bmp,purple,starting_melody,melody,starting,c,negative,positive,ES_red,1,c,548,2237850,2238355,2238559
88,forth,23,ehrlich,IAT_green2.bmp,green,ending_melody,melody,ending,m,positive,negative,ES_red,1,m,584,2240180,2240684,2240888
88,forth,24,human,IAT_yellow2.bmp,yellow,starting_scream,scream,starting,m,positive,negative,ES_red,0,c,427,2242545,2243050,2243254
88,forth,25,feige,IAT_red4.bmp,red,ending_scream,scream,ending,c,negative,positive,ES_red,1,c,612,2245257,2245761,2245965
88,forth,26,morsch,IAT_yellow4.bmp,yellow,starting_scream,scream,starting,c,negative,negative,ES_red,1,c,506,2247651,2248155,2248359
88,forth,27,einsam,IAT_purple2.bmp,purple,starting_melody,melody,starting,c,negative,positive,ES_red,0,m,479,2249939,2250443,2250647
88,forth,28,streng,IAT_red2.bmp,red,ending_scream,scream,ending,c,negative,positive,ES_red,1,c,573,2252701,2253205,2253409
88,forth,29,sanft,IAT_red1.bmp,red,ending_scream,scream,ending,m,positive,positive,ES_red,1,m,504,2255055,2255560,2255764
88,forth,30,gerecht,IAT_red1.bmp,red,ending_scream,scream,ending,m,positive,positive,ES_red,1,m,816,2257344,2257848,2258052
88,forth,31,morsch,IAT_yellow2.bmp,yellow,starting_scream,scream,starting,c,negative,negative,ES_red,1,c,721,2259944,2260448,2260652
88,forth,32,heiter,IAT_yellow3.bmp,yellow,starting_scream,scream,starting,m,positive,negative,ES_red,1,m,808,2262446,2262951,2263155
88,forth,33,munter,IAT_red1.bmp,red,ending_scream,scream,ending,m,positive,positive,ES_red,1,m,535,2265038,2265542,2265746
88,forth,34,gierig,IAT_green2.bmp,green,ending_melody,melody,ending,c,negative,negative,ES_red,1,c,576,2267355,2267860,2268064
88,forth,35,sozial,IAT_red3.bmp,red,ending_scream,scream,ending,m,positive,positive,ES_red,1,m,561,2269714,2270219,2270423
88,forth,36,brutal,IAT_yellow2.bmp,yellow,starting_scream,scream,starting,c,negative,negative,ES_red,1,c,570,2272060,2272564,2272768
88,forth,37,teuer,IAT_red4.bmp,red,ending_scream,scream,ending,c,negative,positive,ES_red,1,c,678,2274413,2274917,2275121
88,forth,38,lustig,IAT_yellow4.bmp,yellow,starting_scream,scream,starting,m,positive,negative,ES_red,1,m,587,2276874,2277378,2277582
88,forth,39,kaputt,IAT_purple2.bmp,purple,starting_melody,melody,starting,c,negative,positive,ES_red,1,c,655,2279245,2279749,2279953
88,forth,40,lästig,IAT_purple4.bmp,purple,starting_melody,melody,starting,c,negative,positive,ES_red,1,c,537,2281683,2282187,2282391
88,forth,41,sanft,IAT_purple4.bmp,purple,starting_melody,melody,starting,m,positive,positive,ES_red,1,m,672,2284001,2284506,2284710
88,forth,42,geizig,IAT_yellow1.bmp,yellow,starting_scream,scream,starting,c,negative,negative,ES_red,1,c,553,2286457,2286962,2287166
88,forth,43,krank,IAT_red1.bmp,red,ending_scream,scream,ending,c,negative,positive,ES_red,0,None,1501,2288794,2289298,2289502
88,forth,44,witzig,IAT_green3.bmp,green,ending_melody,melody,ending,m,positive,negative,ES_red,1,m,722,2293077,2293581,2293785
88,forth,45,munter,IAT_yellow1.bmp,yellow,starting_scream,scream,starting,m,positive,negative,ES_red,1,m,598,2295582,2296087,2296291
88,forth,46,sonnig,IAT_green3.bmp,green,ending_melody,melody,ending,m,positive,negative,ES_red,1,m,565,2297964,2298468,2298672
88,forth,47,kaputt,IAT_red2.bmp,red,ending_scream,scream,ending,c,negative,positive,ES_red,1,c,499,2300314,2300818,2301022
88,forth,48,teuer,IAT_green4.bmp,green,ending_melody,melody,ending,c,negative,negative,ES_red,1,c,906,2302596,2303100,2303304
88,forth,49,gesund,IAT_purple2.bmp,purple,starting_melody,melody,starting,m,positive,positive,ES_red,1,m,472,2305285,2305789,2305993
88,forth,50,falsch,IAT_purple2.bmp,purple,starting_melody,melody,starting,c,negative,positive,ES_red,1,c,467,2307540,2308045,2308249
88,forth,51,ehrlich,IAT_purple3.bmp,purple,starting_melody,melody,starting,m,positive,positive,ES_red,1,m,598,2309790,2310294,2310498
88,forth,52,schön,IAT_green2.bmp,green,ending_melody,melody,ending,m,positive,negative,ES_red,1,m,579,2312170,2312674,2312878
88,forth,53,gerecht,IAT_yellow3.bmp,yellow,starting_scream,scream,starting,m,positive,negative,ES_red,0,c,409,2314532,2315036,2315240
88,forth,54,witzig,IAT_purple1.bmp,purple,starting_melody,melody,starting,m,positive,positive,ES_red,1,m,488,2317224,2317728,2317932
88,forth,55,krank,IAT_purple1.bmp,purple,starting_melody,melody,starting,c,negative,positive,ES_red,1,c,501,2319495,2319999,2320203
88,forth,56,falsch,IAT_green2.bmp,green,ending_melody,melody,ending,c,negative,negative,ES_red,1,c,511,2321779,2322283,2322487
88,forth,57,streng,IAT_red4.bmp,red,ending_scream,scream,ending,c,negative,positive,ES_red,1,c,474,2324074,2324578,2324782
88,forth,58,munter,IAT_purple2.bmp,purple,starting_melody,melody,starting,m,positive,positive,ES_red,1,m,504,2326331,2326835,2327039
88,forth,59,schön,IAT_red4.bmp,red,ending_scream,scream,ending,m,positive,positive,ES_red,1,m,505,2328618,2329123,2329327
88,forth,60,human,IAT_yellow3.bmp,yellow,starting_scream,scream,starting,m,positive,negative,ES_red,1,m,543,2330906,2331411,2331615
88,forth,61,sanft,IAT_green3.bmp,green,ending_melody,melody,ending,m,positive,negative,ES_red,1,m,497,2333233,2333737,2333941
88,forth,62,witzig,IAT_green1.bmp,green,ending_melody,melody,ending,m,positive,negative,ES_red,1,m,424,2335513,2336017,2336221
88,forth,63,gesund,IAT_yellow2.bmp,yellow,starting_scream,scream,starting,m,positive,negative,ES_red,1,m,538,2337720,2338224,2338428
88,forth,64,feige,IAT_green3.bmp,green,ending_melody,melody,ending,c,negative,negative,ES_red,1,c,565,2340041,2340545,2340749
88,forth,65,lästig,IAT_green2.bmp,green,ending_melody,melody,ending,c,negative,negative,ES_red,1,c,458,2342389,2342893,2343097
88,forth,66,sonnig,IAT_red4.bmp,red,ending_scream,scream,ending,m,positive,positive,ES_red,1,m,608,2344630,2345134,2345338
88,forth,67,schön,IAT_yellow4.bmp,yellow,starting_scream,scream,starting,m,positive,negative,ES_red,1,m,577,2347022,2347527,2347731
88,forth,68,sonnig,IAT_purple4.bmp,purple,starting_melody,melody,starting,m,positive,positive,ES_red,1,m,522,2349383,2349887,2350091
88,forth,69,gerecht,IAT_green1.bmp,green,ending_melody,melody,ending,m,positive,negative,ES_red,1,m,524,2351688,2352192,2352396
88,forth,70,brutal,IAT_yellow2.bmp,yellow,starting_scream,scream,starting,c,negative,negative,ES_red,0,m,358,2353996,2354500,2354704
88,forth,71,human,IAT_green1.bmp,green,ending_melody,melody,ending,m,positive,negative,ES_red,1,m,600,2356636,2357141,2357345
88,forth,72,lustig,IAT_purple3.bmp,purple,starting_melody,melody,starting,m,positive,positive,ES_red,1,m,777,2359019,2359524,2359728
88,forth,73,ehrlich,IAT_purple1.bmp,purple,starting_melody,melody,starting,m,positive,positive,ES_red,1,m,418,2361581,2362085,2362289
88,forth,74,lustig,IAT_red3.bmp,red,ending_scream,scream,ending,m,positive,positive,ES_red,1,m,429,2363782,2364286,2364490
88,forth,75,lästig,IAT_purple4.bmp,purple,starting_melody,melody,starting,c,negative,positive,ES_red,1,c,650,2365994,2366499,2366703
88,forth,76,brutal,IAT_red3.bmp,red,ending_scream,scream,ending,c,negative,positive,ES_red,1,c,463,2368428,2368933,2369137
88,forth,77,kaputt,IAT_green1.bmp,green,ending_melody,melody,ending,c,negative,negative,ES_red,1,c,510,2370674,2371179,2371383
88,forth,78,morsch,IAT_red4.bmp,red,ending_scream,scream,ending,c,negative,positive,ES_red,1,c,597,2372968,2373473,2373677
88,forth,79,teuer,IAT_purple1.bmp,purple,starting_melody,melody,starting,c,negative,positive,ES_red,1,c,445,2375349,2375854,2376058
88,forth,80,sozial,IAT_yellow3.bmp,yellow,starting_scream,scream,starting,m,positive,negative,ES_red,1,m,539,2377578,2378082,2378286
88,forth,81,falsch,IAT_green4.bmp,green,ending_melody,melody,ending,c,negative,negative,ES_red,1,c,867,2379900,2380404,2380608
88,forth,82,sanft,IAT_yellow1.bmp,yellow,starting_scream,scream,starting,m,positive,negative,ES_red,1,m,598,2382551,2383055,2383259
88,forth,83,krank,IAT_purple3.bmp,purple,starting_melody,melody,starting,c,negative,positive,ES_red,1,c,629,2384931,2385436,2385640
88,forth,84,streng,IAT_green1.bmp,green,ending_melody,melody,ending,c,negative,negative,ES_red,1,c,500,2387344,2387848,2388052
88,forth,85,sozial,IAT_purple1.bmp,purple,starting_melody,melody,starting,m,positive,positive,ES_red,1,m,681,2389627,2390131,2390335
88,forth,86,heiter,IAT_red3.bmp,red,ending_scream,scream,ending,m,positive,positive,ES_red,0,c,438,2392091,2392595,2392799
88,forth,87,gerecht,IAT_yellow1.bmp,yellow,starting_scream,scream,starting,m,positive,negative,ES_red,1,m,1152,2394813,2395317,2395521
88,forth,88,einsam,IAT_red1.bmp,red,ending_scream,scream,ending,c,negative,positive,ES_red,0,m,459,2397748,2398252,2398456
88,forth,89,lustig,IAT_purple3.bmp,purple,starting_melody,melody,starting,m,positive,positive,ES_red,1,m,488,2400489,2400994,2401198
88,forth,90,brutal,IAT_yellow4.bmp,yellow,starting_scream,scream,starting,c,negative,negative,ES_red,1,c,524,2402761,2403266,2403470
88,forth,91,schön,IAT_green4.bmp,green,ending_melody,melody,ending,m,positive,negative,ES_red,1,m,476,2405068,2405572,2405776
88,forth,92,morsch,IAT_purple3.bmp,purple,starting_melody,melody,starting,c,negative,positive,ES_red,1,c,505,2407327,2407831,2408035
88,forth,93,einsam,IAT_yellow3.bmp,yellow,starting_scream,scream,starting,c,negative,negative,ES_red,1,c,485,2409615,2410119,2410323
88,forth,94,sonnig,IAT_yellow1.bmp,yellow,starting_scream,scream,starting,m,positive,negative,ES_red,1,m,598,2411884,2412388,2412592
88,forth,95,heiter,IAT_red1.bmp,red,ending_scream,scream,ending,m,positive,positive,ES_red,1,m,480,2414265,2414769,2414973
