subject_nr,block,trialnr,trial_target,trial_prime,prime_color,prime_role,prime_us,prime_relation,correct_response,target_valence,prime_valence,color_counter,correct_first_response,response_first_response,response_time_first_response,fixation_show,prime_show,target_show
43,first,0,sanft,IAT_green3.bmp,green,starting_melody,melody,starting,m,positive,positive,ES_purple,1,m,607,1901809,1902313,1902517
43,first,1,gerecht,IAT_red2.bmp,red,starting_scream,scream,starting,m,positive,negative,ES_purple,1,m,839,1904200,1904704,1904908
43,first,2,falsch,IAT_purple4.bmp,purple,ending_scream,scream,ending,c,negative,positive,ES_purple,1,c,808,1906820,1907324,1907528
43,first,3,sonnig,IAT_purple2.bmp,purple,ending_scream,scream,ending,m,positive,positive,ES_purple,1,m,591,1909409,1909913,1910117
43,first,4,human,IAT_green3.bmp,green,starting_melody,melody,starting,m,positive,positive,ES_purple,1,m,539,1911781,1912285,1912489
43,first,5,einsam,IAT_purple3.bmp,purple,ending_scream,scream,ending,c,negative,positive,ES_purple,1,c,870,1914100,1914605,1914810
43,first,6,feige,IAT_green1.bmp,green,starting_melody,melody,starting,c,negative,positive,ES_purple,1,c,799,1916754,1917258,1917462
43,first,7,gierig,IAT_red3.bmp,red,starting_scream,scream,starting,c,negative,negative,ES_purple,1,c,1233,1919334,1919838,1920042
43,first,8,witzig,IAT_purple4.bmp,purple,ending_scream,scream,ending,m,positive,positive,ES_purple,1,m,695,1922348,1922852,1923056
43,first,9,munter,IAT_yellow1.bmp,yellow,ending_melody,melody,ending,m,positive,negative,ES_purple,0,c,899,1924827,1925331,1925535
43,first,10,geizig,IAT_purple3.bmp,purple,ending_scream,scream,ending,c,negative,positive,ES_purple,0,m,956,1928009,1928513,1928717
43,first,11,streng,IAT_yellow1.bmp,yellow,ending_melody,melody,ending,c,negative,negative,ES_purple,1,c,989,1931246,1931751,1931955
43,first,12,sanft,IAT_red2.bmp,red,starting_scream,scream,starting,m,positive,negative,ES_purple,1,m,680,1934018,1934522,1934726
43,first,13,gerecht,IAT_green1.bmp,green,starting_melody,melody,starting,m,positive,positive,ES_purple,1,m,711,1936479,1936984,1937188
43,first,14,heiter,IAT_purple3.bmp,purple,ending_scream,scream,ending,m,positive,positive,ES_purple,0,c,792,1938973,1939477,1939681
43,first,15,falsch,IAT_red4.bmp,red,starting_scream,scream,starting,c,negative,negative,ES_purple,1,c,1169,1942046,1942551,1942755
43,first,16,krank,IAT_purple2.bmp,purple,ending_scream,scream,ending,c,negative,positive,ES_purple,1,c,680,1944997,1945502,1945706
43,first,17,brutal,IAT_yellow2.bmp,yellow,ending_melody,melody,ending,c,negative,negative,ES_purple,1,c,677,1947461,1947965,1948170
43,first,18,feige,IAT_yellow4.bmp,yellow,ending_melody,melody,ending,c,negative,negative,ES_purple,1,c,660,1949920,1950424,1950628
43,first,19,gierig,IAT_red1.bmp,red,starting_scream,scream,starting,c,negative,negative,ES_purple,1,c,876,1952363,1952867,1953071
43,first,20,geizig,IAT_green2.bmp,green,starting_melody,melody,starting,c,negative,positive,ES_purple,1,c,987,1955021,1955525,1955729
43,first,21,teuer,IAT_purple2.bmp,purple,ending_scream,scream,ending,c,negative,positive,ES_purple,1,c,729,1957789,1958293,1958497
43,first,22,falsch,IAT_green4.bmp,green,starting_melody,melody,starting,c,negative,positive,ES_purple,1,c,667,1960299,1960803,1961007
43,first,23,sonnig,IAT_purple4.bmp,purple,ending_scream,scream,ending,m,positive,positive,ES_purple,1,m,546,1962748,1963252,1963456
43,first,24,gesund,IAT_yellow3.bmp,yellow,ending_melody,melody,ending,m,positive,negative,ES_purple,1,m,504,1965075,1965580,1965784
43,first,25,teuer,IAT_green4.bmp,green,starting_melody,melody,starting,c,negative,positive,ES_purple,1,c,657,1967362,1967866,1968070
43,first,26,sanft,IAT_purple3.bmp,purple,ending_scream,scream,ending,m,positive,positive,ES_purple,1,m,540,1969801,1970305,1970509
43,first,27,schön,IAT_red1.bmp,red,starting_scream,scream,starting,m,positive,negative,ES_purple,1,m,598,1972122,1972626,1972830
43,first,28,ehrlich,IAT_red3.bmp,red,starting_scream,scream,starting,m,positive,negative,ES_purple,1,m,660,1974501,1975005,1975209
43,first,29,falsch,IAT_yellow3.bmp,yellow,ending_melody,melody,ending,c,negative,negative,ES_purple,1,c,593,1976943,1977447,1977651
43,first,30,streng,IAT_green2.bmp,green,starting_melody,melody,starting,c,negative,positive,ES_purple,1,c,789,1979317,1979821,1980025
43,first,31,gesund,IAT_yellow2.bmp,yellow,ending_melody,melody,ending,m,positive,negative,ES_purple,1,m,488,1981887,1982391,1982595
43,first,32,lästig,IAT_green2.bmp,green,starting_melody,melody,starting,c,negative,positive,ES_purple,1,c,684,1984156,1984660,1984864
43,first,33,einsam,IAT_red4.bmp,red,starting_scream,scream,starting,c,negative,negative,ES_purple,1,c,761,1986622,1987126,1987330
43,first,34,brutal,IAT_yellow2.bmp,yellow,ending_melody,melody,ending,c,negative,negative,ES_purple,1,c,623,1989164,1989668,1989872
43,first,35,einsam,IAT_green4.bmp,green,starting_melody,melody,starting,c,negative,positive,ES_purple,1,c,712,1991567,1992072,1992276
43,first,36,ehrlich,IAT_purple1.bmp,purple,ending_scream,scream,ending,m,positive,positive,ES_purple,1,m,594,1994062,1994567,1994771
43,first,37,witzig,IAT_green4.bmp,green,starting_melody,melody,starting,m,positive,positive,ES_purple,1,m,635,1996438,1996943,1997147
43,first,38,lästig,IAT_green2.bmp,green,starting_melody,melody,starting,c,negative,positive,ES_purple,1,c,707,1998854,1999359,1999563
43,first,39,human,IAT_yellow1.bmp,yellow,ending_melody,melody,ending,m,positive,negative,ES_purple,1,m,619,2001344,2001849,2002053
43,first,40,gesund,IAT_red1.bmp,red,starting_scream,scream,starting,m,positive,negative,ES_purple,1,m,636,2003746,2004250,2004454
43,first,41,sonnig,IAT_yellow3.bmp,yellow,ending_melody,melody,ending,m,positive,negative,ES_purple,1,m,555,2006164,2006668,2006872
43,first,42,einsam,IAT_yellow3.bmp,yellow,ending_melody,melody,ending,c,negative,negative,ES_purple,1,c,662,2008501,2009005,2009209
43,first,43,lustig,IAT_red3.bmp,red,starting_scream,scream,starting,m,positive,negative,ES_purple,1,m,616,2010946,2011450,2011654
43,first,44,heiter,IAT_green3.bmp,green,starting_melody,melody,starting,m,positive,positive,ES_purple,0,c,643,2013344,2013848,2014052
43,first,45,sonnig,IAT_green2.bmp,green,starting_melody,melody,starting,m,positive,positive,ES_purple,1,m,572,2016268,2016772,2016976
43,first,46,lästig,IAT_purple4.bmp,purple,ending_scream,scream,ending,c,negative,positive,ES_purple,1,c,701,2018621,2019125,2019329
43,first,47,lustig,IAT_purple3.bmp,purple,ending_scream,scream,ending,m,positive,positive,ES_purple,1,m,504,2021103,2021607,2021811
43,first,48,feige,IAT_yellow2.bmp,yellow,ending_melody,melody,ending,c,negative,negative,ES_purple,1,c,670,2023388,2023892,2024096
43,first,49,human,IAT_yellow3.bmp,yellow,ending_melody,melody,ending,m,positive,negative,ES_purple,1,m,538,2025840,2026345,2026549
43,first,50,schön,IAT_purple1.bmp,purple,ending_scream,scream,ending,m,positive,positive,ES_purple,1,m,495,2028161,2028665,2028869
43,first,51,geizig,IAT_red2.bmp,red,starting_scream,scream,starting,c,negative,negative,ES_purple,1,c,928,2030438,2030942,2031146
43,first,52,lustig,IAT_yellow3.bmp,yellow,ending_melody,melody,ending,m,positive,negative,ES_purple,1,m,464,2033147,2033651,2033855
43,first,53,schön,IAT_green1.bmp,green,starting_melody,melody,starting,m,positive,positive,ES_purple,1,m,569,2035393,2035897,2036101
43,first,54,munter,IAT_red3.bmp,red,starting_scream,scream,starting,m,positive,negative,ES_purple,0,c,835,2037744,2038248,2038452
43,first,55,lustig,IAT_red1.bmp,red,starting_scream,scream,starting,m,positive,negative,ES_purple,1,m,528,2040861,2041366,2041570
43,first,56,morsch,IAT_yellow4.bmp,yellow,ending_melody,melody,ending,c,negative,negative,ES_purple,1,c,775,2043173,2043677,2043881
43,first,57,streng,IAT_red1.bmp,red,starting_scream,scream,starting,c,negative,negative,ES_purple,1,c,855,2045730,2046235,2046439
43,first,58,kaputt,IAT_red3.bmp,red,starting_scream,scream,starting,c,negative,negative,ES_purple,1,c,735,2048368,2048872,2049076
43,first,59,krank,IAT_purple4.bmp,purple,ending_scream,scream,ending,c,negative,positive,ES_purple,1,c,667,2050885,2051390,2051594
43,first,60,morsch,IAT_green3.bmp,green,starting_melody,melody,starting,c,negative,positive,ES_purple,1,c,680,2053336,2053840,2054044
43,first,61,krank,IAT_yellow1.bmp,yellow,ending_melody,melody,ending,c,negative,negative,ES_purple,1,c,545,2055798,2056302,2056506
43,first,62,sanft,IAT_yellow4.bmp,yellow,ending_melody,melody,ending,m,positive,negative,ES_purple,1,m,552,2058126,2058630,2058834
43,first,63,streng,IAT_green3.bmp,green,starting_melody,melody,starting,c,negative,positive,ES_purple,1,c,711,2060461,2060965,2061169
43,first,64,gierig,IAT_red2.bmp,red,starting_scream,scream,starting,c,negative,negative,ES_purple,1,c,569,2062954,2063458,2063662
43,first,65,munter,IAT_green3.bmp,green,starting_melody,melody,starting,m,positive,positive,ES_purple,0,c,561,2065305,2065810,2066014
43,first,66,teuer,IAT_red2.bmp,red,starting_scream,scream,starting,c,negative,negative,ES_purple,1,c,980,2068149,2068653,2068857
43,first,67,geizig,IAT_purple2.bmp,purple,ending_scream,scream,ending,c,negative,positive,ES_purple,1,c,755,2070911,2071415,2071620
43,first,68,ehrlich,IAT_purple1.bmp,purple,ending_scream,scream,ending,m,positive,positive,ES_purple,1,m,591,2073448,2073953,2074157
43,first,69,morsch,IAT_purple4.bmp,purple,ending_scream,scream,ending,c,negative,positive,ES_purple,1,c,513,2075822,2076326,2076530
43,first,70,witzig,IAT_green2.bmp,green,starting_melody,melody,starting,m,positive,positive,ES_purple,1,m,645,2078117,2078621,2078825
43,first,71,gesund,IAT_green1.bmp,green,starting_melody,melody,starting,m,positive,positive,ES_purple,1,m,602,2080545,2081049,2081253
43,first,72,ehrlich,IAT_yellow2.bmp,yellow,ending_melody,melody,ending,m,positive,negative,ES_purple,1,m,561,2082929,2083433,2083637
43,first,73,kaputt,IAT_green1.bmp,green,starting_melody,melody,starting,c,negative,positive,ES_purple,0,m,429,2085272,2085776,2085980
43,first,74,heiter,IAT_yellow1.bmp,yellow,ending_melody,melody,ending,m,positive,negative,ES_purple,0,c,660,2087982,2088487,2088691
43,first,75,brutal,IAT_red4.bmp,red,starting_scream,scream,starting,c,negative,negative,ES_purple,1,c,643,2090925,2091430,2091634
43,first,76,human,IAT_red4.bmp,red,starting_scream,scream,starting,m,positive,negative,ES_purple,1,m,573,2093351,2093856,2094060
43,first,77,sozial,IAT_red1.bmp,red,starting_scream,scream,starting,m,positive,negative,ES_purple,1,m,515,2095707,2096211,2096415
43,first,78,gierig,IAT_purple1.bmp,purple,ending_scream,scream,ending,c,negative,positive,ES_purple,1,c,718,2098005,2098510,2098714
43,first,79,gerecht,IAT_red4.bmp,red,starting_scream,scream,starting,m,positive,negative,ES_purple,1,m,801,2100508,2101012,2101216
43,first,80,sozial,IAT_green1.bmp,green,starting_melody,melody,starting,m,positive,positive,ES_purple,1,m,578,2103090,2103595,2103799
43,first,81,kaputt,IAT_red2.bmp,red,starting_scream,scream,starting,c,negative,negative,ES_purple,1,c,606,2105452,2105956,2106160
43,first,82,witzig,IAT_purple3.bmp,purple,ending_scream,scream,ending,m,positive,positive,ES_purple,1,m,563,2107840,2108344,2108548
43,first,83,brutal,IAT_red4.bmp,red,starting_scream,scream,starting,c,negative,negative,ES_purple,1,c,540,2110185,2110690,2110894
43,first,84,kaputt,IAT_purple2.bmp,purple,ending_scream,scream,ending,c,negative,positive,ES_purple,1,c,667,2112508,2113012,2113216
43,first,85,krank,IAT_yellow2.bmp,yellow,ending_melody,melody,ending,c,negative,negative,ES_purple,1,c,593,2114957,2115461,2115665
43,first,86,sozial,IAT_red3.bmp,red,starting_scream,scream,starting,m,positive,negative,ES_purple,1,m,616,2117333,2117837,2118041
43,first,87,morsch,IAT_yellow4.bmp,yellow,ending_melody,melody,ending,c,negative,negative,ES_purple,1,c,651,2119731,2120235,2120439
43,first,88,schön,IAT_green4.bmp,green,starting_melody,melody,starting,m,positive,positive,ES_purple,1,m,431,2122164,2122668,2122872
43,first,89,teuer,IAT_yellow4.bmp,yellow,ending_melody,melody,ending,c,negative,negative,ES_purple,1,c,692,2124378,2124882,2125086
43,first,90,heiter,IAT_yellow4.bmp,yellow,ending_melody,melody,ending,m,positive,negative,ES_purple,0,c,630,2126852,2127356,2127560
43,first,91,feige,IAT_green4.bmp,green,starting_melody,melody,starting,c,negative,positive,ES_purple,1,c,1009,2129765,2130270,2130474
43,first,92,sozial,IAT_purple2.bmp,purple,ending_scream,scream,ending,m,positive,positive,ES_purple,1,m,508,2132557,2133062,2133266
43,first,93,lästig,IAT_purple1.bmp,purple,ending_scream,scream,ending,c,negative,positive,ES_purple,1,c,736,2134848,2135352,2135556
43,first,94,munter,IAT_purple1.bmp,purple,ending_scream,scream,ending,m,positive,positive,ES_purple,1,m,826,2137366,2137871,2138075
43,first,95,gerecht,IAT_yellow1.bmp,yellow,ending_melody,melody,ending,m,positive,negative,ES_purple,1,m,695,2139977,2140481,2140685
43,second,0,brutal,IAT_purple4.bmp,purple,ending_scream,scream,ending,c,negative,positive,ES_purple,1,c,664,2157049,2157553,2157757
43,second,1,streng,IAT_yellow1.bmp,yellow,ending_melody,melody,ending,c,negative,negative,ES_purple,1,c,662,2159498,2160002,2160206
43,second,2,geizig,IAT_green1.bmp,green,starting_melody,melody,starting,c,negative,positive,ES_purple,1,c,977,2161940,2162444,2162648
43,second,3,sonnig,IAT_purple1.bmp,purple,ending_scream,scream,ending,m,positive,positive,ES_purple,1,m,591,2164698,2165203,2165407
43,second,4,human,IAT_green4.bmp,green,starting_melody,melody,starting,m,positive,positive,ES_purple,1,m,504,2167072,2167576,2167780
43,second,5,ehrlich,IAT_yellow4.bmp,yellow,ending_melody,melody,ending,m,positive,negative,ES_purple,1,m,504,2169358,2169862,2170066
43,second,6,streng,IAT_green3.bmp,green,starting_melody,melody,starting,c,negative,positive,ES_purple,1,c,636,2171644,2172148,2172352
43,second,7,lästig,IAT_red4.bmp,red,starting_scream,scream,starting,c,negative,negative,ES_purple,1,c,714,2174061,2174565,2174769
43,second,8,sozial,IAT_purple3.bmp,purple,ending_scream,scream,ending,m,positive,positive,ES_purple,1,m,518,2176557,2177061,2177265
43,second,9,morsch,IAT_yellow2.bmp,yellow,ending_melody,melody,ending,c,negative,negative,ES_purple,1,c,759,2178858,2179362,2179566
43,second,10,gierig,IAT_green1.bmp,green,starting_melody,melody,starting,c,negative,positive,ES_purple,1,c,742,2181397,2181902,2182106
43,second,11,teuer,IAT_yellow3.bmp,yellow,ending_melody,melody,ending,c,negative,negative,ES_purple,1,c,629,2183921,2184425,2184629
43,second,12,gesund,IAT_red3.bmp,red,starting_scream,scream,starting,m,positive,negative,ES_purple,1,m,602,2186332,2186836,2187040
43,second,13,falsch,IAT_red3.bmp,red,starting_scream,scream,starting,c,negative,negative,ES_purple,1,c,605,2188716,2189221,2189425
43,second,14,sonnig,IAT_green3.bmp,green,starting_melody,melody,starting,m,positive,positive,ES_purple,1,m,489,2191104,2191608,2191812
43,second,15,lustig,IAT_purple1.bmp,purple,ending_scream,scream,ending,m,positive,positive,ES_purple,1,m,944,2193375,2193879,2194083
43,second,16,kaputt,IAT_purple2.bmp,purple,ending_scream,scream,ending,c,negative,positive,ES_purple,1,c,609,2196101,2196606,2196810
43,second,17,gesund,IAT_green2.bmp,green,starting_melody,melody,starting,m,positive,positive,ES_purple,1,m,553,2198495,2198999,2199203
43,second,18,ehrlich,IAT_green1.bmp,green,starting_melody,melody,starting,m,positive,positive,ES_purple,1,m,513,2200829,2201333,2201537
43,second,19,heiter,IAT_red3.bmp,red,starting_scream,scream,starting,m,positive,negative,ES_purple,0,c,644,2203124,2203628,2203832
43,second,20,morsch,IAT_purple4.bmp,purple,ending_scream,scream,ending,c,negative,positive,ES_purple,1,c,763,2206053,2206557,2206761
43,second,21,gierig,IAT_red4.bmp,red,starting_scream,scream,starting,c,negative,negative,ES_purple,1,c,699,2208598,2209102,2209306
43,second,22,brutal,IAT_yellow4.bmp,yellow,ending_melody,melody,ending,c,negative,negative,ES_purple,1,c,592,2211078,2211582,2211786
43,second,23,sanft,IAT_purple1.bmp,purple,ending_scream,scream,ending,m,positive,positive,ES_purple,1,m,517,2213452,2213956,2214160
43,second,24,feige,IAT_green3.bmp,green,starting_melody,melody,starting,c,negative,positive,ES_purple,1,c,667,2215751,2216256,2216460
43,second,25,streng,IAT_purple2.bmp,purple,ending_scream,scream,ending,c,negative,positive,ES_purple,1,c,814,2218201,2218706,2218910
43,second,26,kaputt,IAT_green4.bmp,green,starting_melody,melody,starting,c,negative,positive,ES_purple,1,c,639,2220798,2221302,2221506
43,second,27,geizig,IAT_green2.bmp,green,starting_melody,melody,starting,c,negative,positive,ES_purple,1,c,825,2223218,2223722,2223926
43,second,28,feige,IAT_red4.bmp,red,starting_scream,scream,starting,c,negative,negative,ES_purple,1,c,748,2225825,2226330,2226534
43,second,29,einsam,IAT_yellow4.bmp,yellow,ending_melody,melody,ending,c,negative,negative,ES_purple,1,c,832,2228356,2228861,2229065
43,second,30,sonnig,IAT_yellow1.bmp,yellow,ending_melody,melody,ending,m,positive,negative,ES_purple,1,m,651,2230973,2231477,2231681
43,second,31,falsch,IAT_red2.bmp,red,starting_scream,scream,starting,c,negative,negative,ES_purple,1,c,628,2233408,2233912,2234116
43,second,32,gerecht,IAT_red4.bmp,red,starting_scream,scream,starting,m,positive,negative,ES_purple,1,m,964,2235818,2236322,2236526
43,second,33,gesund,IAT_yellow2.bmp,yellow,ending_melody,melody,ending,m,positive,negative,ES_purple,1,m,482,2238564,2239068,2239272
43,second,34,lästig,IAT_green4.bmp,green,starting_melody,melody,starting,c,negative,positive,ES_purple,1,c,713,2240828,2241332,2241536
43,second,35,einsam,IAT_green4.bmp,green,starting_melody,melody,starting,c,negative,positive,ES_purple,1,c,736,2243323,2243827,2244031
43,second,36,schön,IAT_red1.bmp,red,starting_scream,scream,starting,m,positive,negative,ES_purple,1,m,527,2245841,2246345,2246550
43,second,37,sozial,IAT_yellow2.bmp,yellow,ending_melody,melody,ending,m,positive,negative,ES_purple,1,m,549,2248151,2248655,2248860
43,second,38,lästig,IAT_purple4.bmp,purple,ending_scream,scream,ending,c,negative,positive,ES_purple,1,c,672,2250484,2250988,2251192
43,second,39,heiter,IAT_green3.bmp,green,starting_melody,melody,starting,m,positive,positive,ES_purple,1,m,584,2252937,2253441,2253645
43,second,40,gierig,IAT_yellow4.bmp,yellow,ending_melody,melody,ending,c,negative,negative,ES_purple,1,c,629,2255303,2255807,2256011
43,second,41,geizig,IAT_green4.bmp,green,starting_melody,melody,starting,c,negative,positive,ES_purple,1,c,720,2257714,2258219,2258423
43,second,42,gierig,IAT_purple2.bmp,purple,ending_scream,scream,ending,c,negative,positive,ES_purple,1,c,626,2260219,2260724,2260928
43,second,43,geizig,IAT_red4.bmp,red,starting_scream,scream,starting,c,negative,negative,ES_purple,1,c,593,2262628,2263133,2263337
43,second,44,brutal,IAT_yellow1.bmp,yellow,ending_melody,melody,ending,c,negative,negative,ES_purple,1,c,532,2265005,2265509,2265713
43,second,45,falsch,IAT_green2.bmp,green,starting_melody,melody,starting,c,negative,positive,ES_purple,1,c,593,2267317,2267822,2268026
43,second,46,ehrlich,IAT_yellow3.bmp,yellow,ending_melody,melody,ending,m,positive,negative,ES_purple,1,m,502,2269693,2270197,2270401
43,second,47,heiter,IAT_purple3.bmp,purple,ending_scream,scream,ending,m,positive,positive,ES_purple,0,c,629,2271977,2272481,2272685
43,second,48,sanft,IAT_purple3.bmp,purple,ending_scream,scream,ending,m,positive,positive,ES_purple,1,m,542,2274889,2275393,2275597
43,second,49,witzig,IAT_green3.bmp,green,starting_melody,melody,starting,m,positive,positive,ES_purple,1,m,766,2277214,2277718,2277922
43,second,50,sanft,IAT_purple1.bmp,purple,ending_scream,scream,ending,m,positive,positive,ES_purple,1,m,526,2279763,2280267,2280471
43,second,51,krank,IAT_yellow2.bmp,yellow,ending_melody,melody,ending,c,negative,negative,ES_purple,0,m,504,2282071,2282575,2282780
43,second,52,feige,IAT_red1.bmp,red,starting_scream,scream,starting,c,negative,negative,ES_purple,1,c,649,2284858,2285362,2285566
43,second,53,sozial,IAT_yellow3.bmp,yellow,ending_melody,melody,ending,m,positive,negative,ES_purple,1,m,522,2287289,2287793,2287997
43,second,54,lustig,IAT_green3.bmp,green,starting_melody,melody,starting,m,positive,positive,ES_purple,0,c,698,2289594,2290098,2290302
43,second,55,schön,IAT_red1.bmp,red,starting_scream,scream,starting,m,positive,negative,ES_purple,1,m,463,2292575,2293079,2293283
43,second,56,ehrlich,IAT_yellow4.bmp,yellow,ending_melody,melody,ending,m,positive,negative,ES_purple,1,m,546,2294820,2295325,2295529
43,second,57,munter,IAT_red2.bmp,red,starting_scream,scream,starting,m,positive,negative,ES_purple,0,c,638,2297148,2297653,2297857
43,second,58,gesund,IAT_red2.bmp,red,starting_scream,scream,starting,m,positive,negative,ES_purple,1,m,460,2300069,2300574,2300778
43,second,59,witzig,IAT_green4.bmp,green,starting_melody,melody,starting,m,positive,positive,ES_purple,1,m,748,2302312,2302816,2303020
43,second,60,human,IAT_purple2.bmp,purple,ending_scream,scream,ending,m,positive,positive,ES_purple,1,m,522,2304842,2305346,2305550
43,second,61,teuer,IAT_green2.bmp,green,starting_melody,melody,starting,c,negative,positive,ES_purple,1,c,740,2307146,2307650,2307854
43,second,62,einsam,IAT_yellow2.bmp,yellow,ending_melody,melody,ending,c,negative,negative,ES_purple,1,c,691,2309668,2310173,2310377
43,second,63,schön,IAT_green1.bmp,green,starting_melody,melody,starting,m,positive,positive,ES_purple,1,m,541,2312141,2312645,2312849
43,second,64,lustig,IAT_yellow3.bmp,yellow,ending_melody,melody,ending,m,positive,negative,ES_purple,1,m,560,2314465,2314969,2315173
43,second,65,feige,IAT_purple3.bmp,purple,ending_scream,scream,ending,c,negative,positive,ES_purple,1,c,651,2316808,2317312,2317516
43,second,66,morsch,IAT_purple1.bmp,purple,ending_scream,scream,ending,c,negative,positive,ES_purple,1,c,877,2319241,2319745,2319949
43,second,67,krank,IAT_red2.bmp,red,starting_scream,scream,starting,c,negative,negative,ES_purple,1,c,609,2321900,2322404,2322608
43,second,68,munter,IAT_red1.bmp,red,starting_scream,scream,starting,m,positive,negative,ES_purple,0,c,659,2324292,2324796,2325000
43,second,69,falsch,IAT_red2.bmp,red,starting_scream,scream,starting,c,negative,negative,ES_purple,1,c,853,2327233,2327737,2327941
43,second,70,sonnig,IAT_yellow1.bmp,yellow,ending_melody,melody,ending,m,positive,negative,ES_purple,1,m,491,2329868,2330372,2330576
43,second,71,morsch,IAT_red1.bmp,red,starting_scream,scream,starting,c,negative,negative,ES_purple,0,m,766,2332142,2332646,2332850
43,second,72,witzig,IAT_red3.bmp,red,starting_scream,scream,starting,m,positive,negative,ES_purple,1,m,564,2335190,2335694,2335898
43,second,73,sanft,IAT_purple4.bmp,purple,ending_scream,scream,ending,m,positive,positive,ES_purple,1,m,531,2337536,2338041,2338245
43,second,74,munter,IAT_green1.bmp,green,starting_melody,melody,starting,m,positive,positive,ES_purple,1,m,700,2339851,2340355,2340559
43,second,75,kaputt,IAT_green2.bmp,green,starting_melody,melody,starting,c,negative,positive,ES_purple,1,c,694,2342332,2342837,2343041
43,second,76,gerecht,IAT_purple2.bmp,purple,ending_scream,scream,ending,m,positive,positive,ES_purple,1,m,590,2344810,2345315,2345519
43,second,77,sozial,IAT_yellow1.bmp,yellow,ending_melody,melody,ending,m,positive,negative,ES_purple,1,m,509,2347185,2347689,2347893
43,second,78,human,IAT_red3.bmp,red,starting_scream,scream,starting,m,positive,negative,ES_purple,1,m,497,2349478,2349982,2350186
43,second,79,heiter,IAT_red4.bmp,red,starting_scream,scream,starting,m,positive,negative,ES_purple,1,m,803,2351758,2352262,2352466
43,second,80,krank,IAT_red3.bmp,red,starting_scream,scream,starting,c,negative,negative,ES_purple,1,c,669,2354344,2354848,2355052
43,second,81,munter,IAT_green2.bmp,green,starting_melody,melody,starting,m,positive,positive,ES_purple,1,m,754,2356796,2357300,2357504
43,second,82,kaputt,IAT_purple4.bmp,purple,ending_scream,scream,ending,c,negative,positive,ES_purple,1,c,640,2359331,2359836,2360040
43,second,83,einsam,IAT_yellow3.bmp,yellow,ending_melody,melody,ending,c,negative,negative,ES_purple,0,m,452,2361754,2362258,2362462
43,second,84,streng,IAT_purple3.bmp,purple,ending_scream,scream,ending,c,negative,positive,ES_purple,1,c,776,2364489,2364993,2365197
43,second,85,human,IAT_purple3.bmp,purple,ending_scream,scream,ending,m,positive,positive,ES_purple,1,m,567,2367046,2367551,2367755
43,second,86,teuer,IAT_yellow4.bmp,yellow,ending_melody,melody,ending,c,negative,negative,ES_purple,1,c,634,2369397,2369901,2370105
43,second,87,gerecht,IAT_purple4.bmp,purple,ending_scream,scream,ending,m,positive,positive,ES_purple,1,m,668,2371814,2372318,2372522
43,second,88,schön,IAT_yellow3.bmp,yellow,ending_melody,melody,ending,m,positive,negative,ES_purple,1,m,460,2374265,2374769,2374973
43,second,89,brutal,IAT_red2.bmp,red,starting_scream,scream,starting,c,negative,negative,ES_purple,1,c,557,2376508,2377012,2377216
43,second,90,krank,IAT_purple1.bmp,purple,ending_scream,scream,ending,c,negative,positive,ES_purple,1,c,626,2378848,2379352,2379559
43,second,91,lustig,IAT_green1.bmp,green,starting_melody,melody,starting,m,positive,positive,ES_purple,1,m,671,2381258,2381763,2381967
43,second,92,gerecht,IAT_red1.bmp,red,starting_scream,scream,starting,m,positive,negative,ES_purple,1,m,549,2383712,2384216,2384420
43,second,93,teuer,IAT_yellow2.bmp,yellow,ending_melody,melody,ending,c,negative,negative,ES_purple,1,c,592,2386044,2386548,2386752
43,second,94,lästig,IAT_purple2.bmp,purple,ending_scream,scream,ending,c,negative,positive,ES_purple,1,c,640,2388418,2388922,2389126
43,second,95,witzig,IAT_yellow1.bmp,yellow,ending_melody,melody,ending,m,positive,negative,ES_purple,1,m,694,2390842,2391346,2391550
43,third,0,gerecht,IAT_purple3.bmp,purple,ending_scream,scream,ending,m,positive,positive,ES_purple,1,m,678,2419075,2419580,2419784
43,third,1,gesund,IAT_red1.bmp,red,starting_scream,scream,starting,m,positive,negative,ES_purple,1,m,674,2421538,2422042,2422246
43,third,2,gierig,IAT_yellow1.bmp,yellow,ending_melody,melody,ending,c,negative,negative,ES_purple,1,c,852,2423996,2424500,2424704
43,third,3,schön,IAT_yellow1.bmp,yellow,ending_melody,melody,ending,m,positive,negative,ES_purple,1,m,496,2426641,2427146,2427350
43,third,4,gesund,IAT_green1.bmp,green,starting_melody,melody,starting,m,positive,positive,ES_purple,1,m,467,2428920,2429424,2429628
43,third,5,falsch,IAT_yellow4.bmp,yellow,ending_melody,melody,ending,c,negative,negative,ES_purple,1,c,597,2431170,2431674,2431878
43,third,6,morsch,IAT_yellow3.bmp,yellow,ending_melody,melody,ending,c,negative,negative,ES_purple,0,m,820,2433550,2434054,2434258
43,third,7,krank,IAT_red2.bmp,red,starting_scream,scream,starting,c,negative,negative,ES_purple,1,c,718,2436653,2437157,2437361
43,third,8,sonnig,IAT_red1.bmp,red,starting_scream,scream,starting,m,positive,negative,ES_purple,1,m,552,2439154,2439658,2439862
43,third,9,einsam,IAT_yellow1.bmp,yellow,ending_melody,melody,ending,c,negative,negative,ES_purple,1,c,665,2441488,2441993,2442197
43,third,10,sanft,IAT_red1.bmp,red,starting_scream,scream,starting,m,positive,negative,ES_purple,1,m,537,2443937,2444441,2444645
43,third,11,schön,IAT_green3.bmp,green,starting_melody,melody,starting,m,positive,positive,ES_purple,1,m,455,2446258,2446762,2446966
43,third,12,lästig,IAT_green1.bmp,green,starting_melody,melody,starting,c,negative,positive,ES_purple,1,c,846,2448495,2449000,2449204
43,third,13,teuer,IAT_green3.bmp,green,starting_melody,melody,starting,c,negative,positive,ES_purple,1,c,614,2451125,2451629,2451833
43,third,14,munter,IAT_purple1.bmp,purple,ending_scream,scream,ending,m,positive,positive,ES_purple,1,m,503,2453522,2454026,2454230
43,third,15,lustig,IAT_red4.bmp,red,starting_scream,scream,starting,m,positive,negative,ES_purple,1,m,569,2455807,2456312,2456516
43,third,16,geizig,IAT_yellow2.bmp,yellow,ending_melody,melody,ending,c,negative,negative,ES_purple,1,c,970,2458159,2458664,2458868
43,third,17,sonnig,IAT_red3.bmp,red,starting_scream,scream,starting,m,positive,negative,ES_purple,1,m,470,2460913,2461418,2461622
43,third,18,ehrlich,IAT_green4.bmp,green,starting_melody,melody,starting,m,positive,positive,ES_purple,1,m,572,2463166,2463671,2463875
43,third,19,kaputt,IAT_purple4.bmp,purple,ending_scream,scream,ending,c,negative,positive,ES_purple,1,c,573,2465521,2466025,2466229
43,third,20,lästig,IAT_purple3.bmp,purple,ending_scream,scream,ending,c,negative,positive,ES_purple,1,c,652,2467878,2468382,2468586
43,third,21,kaputt,IAT_green2.bmp,green,starting_melody,melody,starting,c,negative,positive,ES_purple,1,c,546,2470312,2470817,2471021
43,third,22,heiter,IAT_green3.bmp,green,starting_melody,melody,starting,m,positive,positive,ES_purple,1,m,695,2472642,2473146,2473350
43,third,23,gierig,IAT_red4.bmp,red,starting_scream,scream,starting,c,negative,negative,ES_purple,1,c,719,2475120,2475624,2475828
43,third,24,ehrlich,IAT_red3.bmp,red,starting_scream,scream,starting,m,positive,negative,ES_purple,1,m,481,2477621,2478126,2478330
43,third,25,munter,IAT_purple3.bmp,purple,ending_scream,scream,ending,m,positive,positive,ES_purple,1,m,804,2479886,2480391,2480595
43,third,26,gerecht,IAT_green1.bmp,green,starting_melody,melody,starting,m,positive,positive,ES_purple,1,m,564,2482475,2482979,2483183
43,third,27,sozial,IAT_green1.bmp,green,starting_melody,melody,starting,m,positive,positive,ES_purple,1,m,502,2484821,2485325,2485529
43,third,28,heiter,IAT_yellow3.bmp,yellow,ending_melody,melody,ending,m,positive,negative,ES_purple,1,m,709,2487106,2487610,2487814
43,third,29,munter,IAT_red1.bmp,red,starting_scream,scream,starting,m,positive,negative,ES_purple,1,m,619,2489598,2490102,2490306
43,third,30,geizig,IAT_green4.bmp,green,starting_melody,melody,starting,c,negative,positive,ES_purple,0,m,572,2492000,2492505,2492710
43,third,31,gesund,IAT_yellow1.bmp,yellow,ending_melody,melody,ending,m,positive,negative,ES_purple,1,m,422,2494857,2495361,2495565
43,third,32,falsch,IAT_green4.bmp,green,starting_melody,melody,starting,c,negative,positive,ES_purple,1,c,584,2497061,2497566,2497770
43,third,33,lustig,IAT_purple1.bmp,purple,ending_scream,scream,ending,m,positive,positive,ES_purple,1,m,555,2499428,2499932,2500136
43,third,34,human,IAT_purple4.bmp,purple,ending_scream,scream,ending,m,positive,positive,ES_purple,1,m,417,2501765,2502270,2502474
43,third,35,munter,IAT_purple1.bmp,purple,ending_scream,scream,ending,m,positive,positive,ES_purple,1,m,609,2503966,2504470,2504674
43,third,36,sonnig,IAT_red3.bmp,red,starting_scream,scream,starting,m,positive,negative,ES_purple,1,m,466,2506357,2506862,2507066
43,third,37,brutal,IAT_yellow4.bmp,yellow,ending_melody,melody,ending,c,negative,negative,ES_purple,1,c,591,2508607,2509111,2509315
43,third,38,schön,IAT_red4.bmp,red,starting_scream,scream,starting,m,positive,negative,ES_purple,1,m,390,2510981,2511485,2511689
43,third,39,sozial,IAT_purple3.bmp,purple,ending_scream,scream,ending,m,positive,positive,ES_purple,1,m,394,2513154,2513658,2513862
43,third,40,witzig,IAT_green3.bmp,green,starting_melody,melody,starting,m,positive,positive,ES_purple,1,m,479,2515330,2515834,2516038
43,third,41,geizig,IAT_red4.bmp,red,starting_scream,scream,starting,c,negative,negative,ES_purple,0,m,464,2517592,2518096,2518300
43,third,42,kaputt,IAT_red2.bmp,red,starting_scream,scream,starting,c,negative,negative,ES_purple,1,c,667,2520339,2520843,2521047
43,third,43,einsam,IAT_green4.bmp,green,starting_melody,melody,starting,c,negative,positive,ES_purple,0,m,330,2522788,2523292,2523496
43,third,44,ehrlich,IAT_green4.bmp,green,starting_melody,melody,starting,m,positive,positive,ES_purple,1,m,528,2525400,2525904,2526108
43,third,45,gierig,IAT_yellow2.bmp,yellow,ending_melody,melody,ending,c,negative,negative,ES_purple,0,m,481,2527711,2528216,2528420
43,third,46,lustig,IAT_yellow4.bmp,yellow,ending_melody,melody,ending,m,positive,negative,ES_purple,1,m,715,2530476,2530980,2531184
43,third,47,feige,IAT_green3.bmp,green,starting_melody,melody,starting,c,negative,positive,ES_purple,1,c,652,2532974,2533479,2533683
43,third,48,streng,IAT_yellow4.bmp,yellow,ending_melody,melody,ending,c,negative,negative,ES_purple,1,c,764,2535409,2535914,2536118
43,third,49,krank,IAT_green2.bmp,green,starting_melody,melody,starting,c,negative,positive,ES_purple,1,c,566,2537956,2538461,2538665
43,third,50,heiter,IAT_yellow3.bmp,yellow,ending_melody,melody,ending,m,positive,negative,ES_purple,1,m,791,2540306,2540811,2541015
43,third,51,sanft,IAT_green1.bmp,green,starting_melody,melody,starting,m,positive,positive,ES_purple,1,m,566,2542880,2543384,2543588
43,third,52,teuer,IAT_purple2.bmp,purple,ending_scream,scream,ending,c,negative,positive,ES_purple,1,c,964,2545228,2545732,2545936
43,third,53,brutal,IAT_purple2.bmp,purple,ending_scream,scream,ending,c,negative,positive,ES_purple,1,c,564,2547974,2548479,2548683
43,third,54,streng,IAT_green2.bmp,green,starting_melody,melody,starting,c,negative,positive,ES_purple,1,c,699,2550322,2550826,2551030
43,third,55,human,IAT_purple2.bmp,purple,ending_scream,scream,ending,m,positive,positive,ES_purple,1,m,479,2552804,2553309,2553513
43,third,56,kaputt,IAT_green2.bmp,green,starting_melody,melody,starting,c,negative,positive,ES_purple,1,c,724,2555067,2555571,2555775
43,third,57,falsch,IAT_purple2.bmp,purple,ending_scream,scream,ending,c,negative,positive,ES_purple,1,c,619,2557575,2558079,2558283
43,third,58,feige,IAT_purple4.bmp,purple,ending_scream,scream,ending,c,negative,positive,ES_purple,1,c,606,2559976,2560480,2560684
43,third,59,witzig,IAT_yellow1.bmp,yellow,ending_melody,melody,ending,m,positive,negative,ES_purple,1,m,582,2562366,2562870,2563074
43,third,60,morsch,IAT_purple4.bmp,purple,ending_scream,scream,ending,c,negative,positive,ES_purple,0,m,735,2564730,2565235,2565439
43,third,61,einsam,IAT_red2.bmp,red,starting_scream,scream,starting,c,negative,negative,ES_purple,1,c,686,2567748,2568252,2568456
43,third,62,gerecht,IAT_yellow1.bmp,yellow,ending_melody,melody,ending,m,positive,negative,ES_purple,1,m,595,2570218,2570722,2570926
43,third,63,teuer,IAT_yellow3.bmp,yellow,ending_melody,melody,ending,c,negative,negative,ES_purple,1,c,678,2572597,2573101,2573305
43,third,64,feige,IAT_red2.bmp,red,starting_scream,scream,starting,c,negative,negative,ES_purple,1,c,666,2575058,2575562,2575766
43,third,65,krank,IAT_purple1.bmp,purple,ending_scream,scream,ending,c,negative,positive,ES_purple,1,c,564,2577508,2578012,2578216
43,third,66,morsch,IAT_yellow2.bmp,yellow,ending_melody,melody,ending,c,negative,negative,ES_purple,0,m,634,2579856,2580360,2580564
43,third,67,heiter,IAT_yellow4.bmp,yellow,ending_melody,melody,ending,m,positive,negative,ES_purple,1,m,628,2582774,2583278,2583482
43,third,68,witzig,IAT_red3.bmp,red,starting_scream,scream,starting,m,positive,negative,ES_purple,1,m,594,2585186,2585690,2585894
43,third,69,sozial,IAT_purple3.bmp,purple,ending_scream,scream,ending,m,positive,positive,ES_purple,1,m,460,2587564,2588069,2588273
43,third,70,sanft,IAT_purple1.bmp,purple,ending_scream,scream,ending,m,positive,positive,ES_purple,1,m,471,2589808,2590313,2590517
43,third,71,human,IAT_yellow2.bmp,yellow,ending_melody,melody,ending,m,positive,negative,ES_purple,1,m,447,2592063,2592567,2592771
43,third,72,lustig,IAT_purple4.bmp,purple,ending_scream,scream,ending,m,positive,positive,ES_purple,1,m,485,2594294,2594798,2595002
43,third,73,feige,IAT_yellow4.bmp,yellow,ending_melody,melody,ending,c,negative,negative,ES_purple,0,m,452,2596563,2597067,2597271
43,third,74,gesund,IAT_green2.bmp,green,starting_melody,melody,starting,m,positive,positive,ES_purple,1,m,567,2599298,2599802,2600006
43,third,75,sonnig,IAT_red2.bmp,red,starting_scream,scream,starting,m,positive,negative,ES_purple,1,m,497,2601648,2602152,2602356
43,third,76,human,IAT_yellow3.bmp,yellow,ending_melody,melody,ending,m,positive,negative,ES_purple,1,m,424,2603928,2604432,2604636
43,third,77,ehrlich,IAT_yellow3.bmp,yellow,ending_melody,melody,ending,m,positive,negative,ES_purple,1,m,556,2606135,2606640,2606844
43,third,78,witzig,IAT_green2.bmp,green,starting_melody,melody,starting,m,positive,positive,ES_purple,1,m,549,2608475,2608980,2609184
43,third,79,brutal,IAT_red1.bmp,red,starting_scream,scream,starting,c,negative,negative,ES_purple,1,c,582,2610808,2611313,2611517
43,third,80,streng,IAT_purple2.bmp,purple,ending_scream,scream,ending,c,negative,positive,ES_purple,1,c,649,2613174,2613679,2613883
43,third,81,lästig,IAT_red1.bmp,red,starting_scream,scream,starting,c,negative,negative,ES_purple,1,c,741,2615607,2616111,2616315
43,third,82,gierig,IAT_purple4.bmp,purple,ending_scream,scream,ending,c,negative,positive,ES_purple,1,c,863,2618132,2618637,2618841
43,third,83,geizig,IAT_red3.bmp,red,starting_scream,scream,starting,c,negative,negative,ES_purple,1,c,1085,2620780,2621284,2621488
43,third,84,sanft,IAT_green3.bmp,green,starting_melody,melody,starting,m,positive,positive,ES_purple,1,m,887,2623648,2624152,2624356
43,third,85,teuer,IAT_purple3.bmp,purple,ending_scream,scream,ending,c,negative,positive,ES_purple,1,c,1161,2626317,2626821,2627025
43,third,86,brutal,IAT_red4.bmp,red,starting_scream,scream,starting,c,negative,negative,ES_purple,1,c,800,2629261,2629765,2629970
43,third,87,morsch,IAT_green4.bmp,green,starting_melody,melody,starting,c,negative,positive,ES_purple,0,m,944,2631846,2632350,2632554
43,third,88,falsch,IAT_purple1.bmp,purple,ending_scream,scream,ending,c,negative,positive,ES_purple,1,c,725,2635073,2635577,2635781
43,third,89,lästig,IAT_green1.bmp,green,starting_melody,melody,starting,c,negative,positive,ES_purple,1,c,670,2637581,2638085,2638289
43,third,90,schön,IAT_red2.bmp,red,starting_scream,scream,starting,m,positive,negative,ES_purple,1,m,589,2640036,2640540,2640744
43,third,91,krank,IAT_red4.bmp,red,starting_scream,scream,starting,c,negative,negative,ES_purple,1,c,629,2642408,2642913,2643117
43,third,92,streng,IAT_red3.bmp,red,starting_scream,scream,starting,c,negative,negative,ES_purple,1,c,757,2644821,2645326,2645530
43,third,93,sozial,IAT_yellow2.bmp,yellow,ending_melody,melody,ending,m,positive,negative,ES_purple,1,m,1057,2647363,2647867,2648071
43,third,94,einsam,IAT_yellow2.bmp,yellow,ending_melody,melody,ending,c,negative,negative,ES_purple,1,c,1254,2650204,2650708,2650912
43,third,95,gerecht,IAT_purple2.bmp,purple,ending_scream,scream,ending,m,positive,positive,ES_purple,1,m,881,2653241,2653746,2653950
43,forth,0,morsch,IAT_purple2.bmp,purple,ending_scream,scream,ending,c,negative,positive,ES_purple,1,c,1477,2662975,2663480,2663684
43,forth,1,sozial,IAT_purple2.bmp,purple,ending_scream,scream,ending,m,positive,positive,ES_purple,0,None,1500,2666238,2666742,2666946
43,forth,2,ehrlich,IAT_purple3.bmp,purple,ending_scream,scream,ending,m,positive,positive,ES_purple,1,m,574,2670522,2671026,2671230
43,forth,3,witzig,IAT_red1.bmp,red,starting_scream,scream,starting,m,positive,negative,ES_purple,1,m,709,2672878,2673382,2673586
43,forth,4,streng,IAT_yellow2.bmp,yellow,ending_melody,melody,ending,c,negative,negative,ES_purple,1,c,933,2675369,2675873,2676077
43,forth,5,brutal,IAT_green4.bmp,green,starting_melody,melody,starting,c,negative,positive,ES_purple,1,c,1055,2678084,2678588,2678792
43,forth,6,lustig,IAT_green4.bmp,green,starting_melody,melody,starting,m,positive,positive,ES_purple,1,m,911,2680922,2681426,2681630
43,forth,7,sonnig,IAT_yellow4.bmp,yellow,ending_melody,melody,ending,m,positive,negative,ES_purple,1,m,932,2683616,2684120,2684324
43,forth,8,feige,IAT_green2.bmp,green,starting_melody,melody,starting,c,negative,positive,ES_purple,1,c,953,2686330,2686835,2687040
43,forth,9,krank,IAT_purple1.bmp,purple,ending_scream,scream,ending,c,negative,positive,ES_purple,1,c,980,2689067,2689571,2689775
43,forth,10,kaputt,IAT_green2.bmp,green,starting_melody,melody,starting,c,negative,positive,ES_purple,1,c,1230,2691828,2692333,2692537
43,forth,11,sanft,IAT_purple4.bmp,purple,ending_scream,scream,ending,m,positive,positive,ES_purple,1,m,586,2694842,2695346,2695550
43,forth,12,heiter,IAT_red1.bmp,red,starting_scream,scream,starting,m,positive,negative,ES_purple,1,m,740,2697210,2697714,2697918
43,forth,13,krank,IAT_yellow3.bmp,yellow,ending_melody,melody,ending,c,negative,negative,ES_purple,1,c,813,2699732,2700236,2700440
43,forth,14,teuer,IAT_green3.bmp,green,starting_melody,melody,starting,c,negative,positive,ES_purple,1,c,729,2702328,2702832,2703036
43,forth,15,gerecht,IAT_purple3.bmp,purple,ending_scream,scream,ending,m,positive,positive,ES_purple,1,m,641,2704838,2705342,2705546
43,forth,16,lästig,IAT_yellow3.bmp,yellow,ending_melody,melody,ending,c,negative,negative,ES_purple,1,c,638,2707261,2707765,2707969
43,forth,17,sozial,IAT_red3.bmp,red,starting_scream,scream,starting,m,positive,negative,ES_purple,1,m,568,2709681,2710185,2710389
43,forth,18,heiter,IAT_purple1.bmp,purple,ending_scream,scream,ending,m,positive,positive,ES_purple,1,m,622,2712031,2712536,2712740
43,forth,19,witzig,IAT_green3.bmp,green,starting_melody,melody,starting,m,positive,positive,ES_purple,1,m,651,2714437,2714941,2715145
43,forth,20,gesund,IAT_green3.bmp,green,starting_melody,melody,starting,m,positive,positive,ES_purple,1,m,697,2716871,2717375,2717580
43,forth,21,gerecht,IAT_yellow4.bmp,yellow,ending_melody,melody,ending,m,positive,negative,ES_purple,1,m,557,2719352,2719856,2720060
43,forth,22,feige,IAT_red2.bmp,red,starting_scream,scream,starting,c,negative,negative,ES_purple,1,c,860,2721691,2722195,2722399
43,forth,23,krank,IAT_green1.bmp,green,starting_melody,melody,starting,c,negative,positive,ES_purple,1,c,695,2724333,2724837,2725041
43,forth,24,lästig,IAT_purple1.bmp,purple,ending_scream,scream,ending,c,negative,positive,ES_purple,1,c,881,2726810,2727314,2727518
43,forth,25,sonnig,IAT_purple1.bmp,purple,ending_scream,scream,ending,m,positive,positive,ES_purple,1,m,631,2729474,2729979,2730183
43,forth,26,gerecht,IAT_green1.bmp,green,starting_melody,melody,starting,m,positive,positive,ES_purple,1,m,671,2731888,2732392,2732596
43,forth,27,human,IAT_green2.bmp,green,starting_melody,melody,starting,m,positive,positive,ES_purple,1,m,604,2734340,2734845,2735050
43,forth,28,gierig,IAT_yellow2.bmp,yellow,ending_melody,melody,ending,c,negative,negative,ES_purple,1,c,853,2736728,2737232,2737436
43,forth,29,sonnig,IAT_red3.bmp,red,starting_scream,scream,starting,m,positive,negative,ES_purple,1,m,671,2739364,2739868,2740072
43,forth,30,schön,IAT_purple3.bmp,purple,ending_scream,scream,ending,m,positive,positive,ES_purple,1,m,541,2741817,2742321,2742525
43,forth,31,geizig,IAT_red4.bmp,red,starting_scream,scream,starting,c,negative,negative,ES_purple,1,c,1026,2744141,2744645,2744849
43,forth,32,heiter,IAT_yellow3.bmp,yellow,ending_melody,melody,ending,m,positive,negative,ES_purple,1,m,729,2746950,2747454,2747658
43,forth,33,sozial,IAT_yellow3.bmp,yellow,ending_melody,melody,ending,m,positive,negative,ES_purple,1,m,475,2749461,2749965,2750169
43,forth,34,brutal,IAT_red2.bmp,red,starting_scream,scream,starting,c,negative,negative,ES_purple,1,c,641,2751718,2752222,2752426
43,forth,35,morsch,IAT_red1.bmp,red,starting_scream,scream,starting,c,negative,negative,ES_purple,1,c,1153,2754142,2754646,2754850
43,forth,36,einsam,IAT_yellow4.bmp,yellow,ending_melody,melody,ending,c,negative,negative,ES_purple,1,c,810,2757078,2757582,2757786
43,forth,37,munter,IAT_yellow2.bmp,yellow,ending_melody,melody,ending,m,positive,negative,ES_purple,1,m,807,2759671,2760175,2760379
43,forth,38,geizig,IAT_purple3.bmp,purple,ending_scream,scream,ending,c,negative,positive,ES_purple,0,m,545,2762261,2762765,2762969
43,forth,39,feige,IAT_green4.bmp,green,starting_melody,melody,starting,c,negative,positive,ES_purple,1,c,635,2765088,2765592,2765796
43,forth,40,human,IAT_green1.bmp,green,starting_melody,melody,starting,m,positive,positive,ES_purple,1,m,618,2767506,2768010,2768214
43,forth,41,geizig,IAT_purple4.bmp,purple,ending_scream,scream,ending,c,negative,positive,ES_purple,1,c,1077,2769907,2770411,2770615
43,forth,42,gesund,IAT_green1.bmp,green,starting_melody,melody,starting,m,positive,positive,ES_purple,1,m,525,2772767,2773271,2773475
43,forth,43,sanft,IAT_yellow1.bmp,yellow,ending_melody,melody,ending,m,positive,negative,ES_purple,1,m,551,2775076,2775580,2775784
43,forth,44,gierig,IAT_purple4.bmp,purple,ending_scream,scream,ending,c,negative,positive,ES_purple,1,c,706,2777410,2777914,2778118
43,forth,45,falsch,IAT_green3.bmp,green,starting_melody,melody,starting,c,negative,positive,ES_purple,1,c,541,2779899,2780404,2780608
43,forth,46,einsam,IAT_green1.bmp,green,starting_melody,melody,starting,c,negative,positive,ES_purple,1,c,853,2782223,2782727,2782931
43,forth,47,falsch,IAT_red3.bmp,red,starting_scream,scream,starting,c,negative,negative,ES_purple,1,c,1020,2784859,2785363,2785567
43,forth,48,lustig,IAT_red3.bmp,red,starting_scream,scream,starting,m,positive,negative,ES_purple,1,m,797,2787661,2788165,2788370
43,forth,49,teuer,IAT_red3.bmp,red,starting_scream,scream,starting,c,negative,negative,ES_purple,1,c,806,2790242,2790746,2790950
43,forth,50,gesund,IAT_green3.bmp,green,starting_melody,melody,starting,m,positive,positive,ES_purple,1,m,1183,2792831,2793336,2793540
43,forth,51,gierig,IAT_yellow4.bmp,yellow,ending_melody,melody,ending,c,negative,negative,ES_purple,1,c,977,2795798,2796302,2796506
43,forth,52,schön,IAT_yellow3.bmp,yellow,ending_melody,melody,ending,m,positive,negative,ES_purple,1,m,532,2798558,2799062,2799266
43,forth,53,gesund,IAT_red3.bmp,red,starting_scream,scream,starting,m,positive,negative,ES_purple,1,m,557,2800873,2801377,2801581
43,forth,54,munter,IAT_red4.bmp,red,starting_scream,scream,starting,m,positive,negative,ES_purple,1,m,725,2803213,2803717,2803921
43,forth,55,streng,IAT_green2.bmp,green,starting_melody,melody,starting,c,negative,positive,ES_purple,1,c,883,2805721,2806225,2806429
43,forth,56,teuer,IAT_yellow1.bmp,yellow,ending_melody,melody,ending,c,negative,negative,ES_purple,1,c,842,2808387,2808892,2809096
43,forth,57,brutal,IAT_purple2.bmp,purple,ending_scream,scream,ending,c,negative,positive,ES_purple,1,c,683,2811012,2811517,2811721
43,forth,58,krank,IAT_yellow2.bmp,yellow,ending_melody,melody,ending,c,negative,negative,ES_purple,1,c,631,2813479,2813983,2814187
43,forth,59,schön,IAT_yellow1.bmp,yellow,ending_melody,melody,ending,m,positive,negative,ES_purple,1,m,665,2815894,2816398,2816602
43,forth,60,munter,IAT_purple1.bmp,purple,ending_scream,scream,ending,m,positive,positive,ES_purple,1,m,748,2818342,2818846,2819050
43,forth,61,kaputt,IAT_red4.bmp,red,starting_scream,scream,starting,c,negative,negative,ES_purple,1,c,631,2820873,2821377,2821581
43,forth,62,gierig,IAT_purple4.bmp,purple,ending_scream,scream,ending,c,negative,positive,ES_purple,1,c,598,2823286,2823791,2823995
43,forth,63,lustig,IAT_red2.bmp,red,starting_scream,scream,starting,m,positive,negative,ES_purple,1,m,570,2825668,2826173,2826377
43,forth,64,teuer,IAT_purple2.bmp,purple,ending_scream,scream,ending,c,negative,positive,ES_purple,1,c,590,2828023,2828527,2828731
43,forth,65,streng,IAT_yellow4.bmp,yellow,ending_melody,melody,ending,c,negative,negative,ES_purple,0,None,1500,2830396,2830900,2831104
43,forth,66,kaputt,IAT_red4.bmp,red,starting_scream,scream,starting,c,negative,negative,ES_purple,1,c,1031,2834679,2835183,2835387
43,forth,67,falsch,IAT_green2.bmp,green,starting_melody,melody,starting,c,negative,positive,ES_purple,1,c,971,2837492,2837997,2838201
43,forth,68,sozial,IAT_red4.bmp,red,starting_scream,scream,starting,m,positive,negative,ES_purple,1,m,784,2840247,2840751,2840955
43,forth,69,human,IAT_green4.bmp,green,starting_melody,melody,starting,m,positive,positive,ES_purple,1,m,563,2842815,2843320,2843524
43,forth,70,schön,IAT_purple4.bmp,purple,ending_scream,scream,ending,m,positive,positive,ES_purple,1,m,612,2845162,2845666,2845870
43,forth,71,morsch,IAT_red2.bmp,red,starting_scream,scream,starting,c,negative,negative,ES_purple,1,c,1081,2847557,2848061,2848265
43,forth,72,ehrlich,IAT_red2.bmp,red,starting_scream,scream,starting,m,positive,negative,ES_purple,1,m,817,2850421,2850925,2851129
43,forth,73,sanft,IAT_red1.bmp,red,starting_scream,scream,starting,m,positive,negative,ES_purple,1,m,630,2853021,2853526,2853730
43,forth,74,witzig,IAT_green3.bmp,green,starting_melody,melody,starting,m,positive,positive,ES_purple,1,m,800,2855435,2855940,2856144
43,forth,75,sonnig,IAT_purple2.bmp,purple,ending_scream,scream,ending,m,positive,positive,ES_purple,1,m,690,2858020,2858525,2858729
43,forth,76,feige,IAT_yellow4.bmp,yellow,ending_melody,melody,ending,c,negative,negative,ES_purple,1,c,826,2860494,2860998,2861202
43,forth,77,ehrlich,IAT_green1.bmp,green,starting_melody,melody,starting,m,positive,positive,ES_purple,1,m,624,2863102,2863606,2863810
43,forth,78,einsam,IAT_red2.bmp,red,starting_scream,scream,starting,c,negative,negative,ES_purple,1,c,710,2865509,2866013,2866217
43,forth,79,brutal,IAT_purple4.bmp,purple,ending_scream,scream,ending,c,negative,positive,ES_purple,1,c,648,2868002,2868507,2868711
43,forth,80,morsch,IAT_red4.bmp,red,starting_scream,scream,starting,c,negative,negative,ES_purple,1,c,884,2870435,2870940,2871144
43,forth,81,lästig,IAT_green4.bmp,green,starting_melody,melody,starting,c,negative,positive,ES_purple,1,c,757,2873104,2873608,2873812
43,forth,82,kaputt,IAT_purple2.bmp,purple,ending_scream,scream,ending,c,negative,positive,ES_purple,1,c,581,2875644,2876148,2876352
43,forth,83,witzig,IAT_yellow1.bmp,yellow,ending_melody,melody,ending,m,positive,negative,ES_purple,1,m,799,2878010,2878514,2878718
43,forth,84,gerecht,IAT_yellow3.bmp,yellow,ending_melody,melody,ending,m,positive,negative,ES_purple,1,m,602,2880592,2881096,2881300
43,forth,85,sanft,IAT_yellow2.bmp,yellow,ending_melody,melody,ending,m,positive,negative,ES_purple,1,m,571,2882978,2883482,2883686
43,forth,86,lästig,IAT_red1.bmp,red,starting_scream,scream,starting,c,negative,negative,ES_purple,1,c,609,2885332,2885836,2886040
43,forth,87,geizig,IAT_green4.bmp,green,starting_melody,melody,starting,c,negative,positive,ES_purple,1,c,914,2887725,2888230,2888434
43,forth,88,streng,IAT_purple3.bmp,purple,ending_scream,scream,ending,c,negative,positive,ES_purple,1,c,657,2890423,2890927,2891131
43,forth,89,human,IAT_red1.bmp,red,starting_scream,scream,starting,m,positive,negative,ES_purple,1,m,959,2892864,2893368,2893572
43,forth,90,falsch,IAT_yellow1.bmp,yellow,ending_melody,melody,ending,c,negative,negative,ES_purple,1,c,641,2895607,2896112,2896316
43,forth,91,munter,IAT_purple1.bmp,purple,ending_scream,scream,ending,m,positive,positive,ES_purple,1,m,760,2898032,2898536,2898740
43,forth,92,lustig,IAT_yellow1.bmp,yellow,ending_melody,melody,ending,m,positive,negative,ES_purple,1,m,545,2900576,2901081,2901285
43,forth,93,ehrlich,IAT_green2.bmp,green,starting_melody,melody,starting,m,positive,positive,ES_purple,1,m,534,2902904,2903409,2903613
43,forth,94,einsam,IAT_yellow2.bmp,yellow,ending_melody,melody,ending,c,negative,negative,ES_purple,1,c,672,2905222,2905726,2905930
43,forth,95,heiter,IAT_purple3.bmp,purple,ending_scream,scream,ending,m,positive,positive,ES_purple,1,m,650,2907678,2908182,2908386
