subject_nr,block,trialnr,trial_target,trial_prime,prime_color,prime_role,prime_us,prime_relation,correct_response,target_valence,prime_valence,color_counter,correct_first_response,response_first_response,response_time_first_response,fixation_show,prime_show,target_show
7,first,0,munter,IAT_purple1.bmp,purple,ending_scream,scream,ending,m,positive,positive,ES_purple,1,m,495,1412137,1412642,1412846
7,first,1,heiter,IAT_yellow2.bmp,yellow,ending_melody,melody,ending,m,positive,negative,ES_purple,1,m,751,1414418,1414922,1415126
7,first,2,brutal,IAT_purple3.bmp,purple,ending_scream,scream,ending,c,negative,positive,ES_purple,1,c,619,1416952,1417456,1417660
7,first,3,geizig,IAT_green2.bmp,green,starting_melody,melody,starting,c,negative,positive,ES_purple,1,c,674,1419355,1419859,1420063
7,first,4,sonnig,IAT_purple3.bmp,purple,ending_scream,scream,ending,m,positive,positive,ES_purple,1,m,943,1421810,1422315,1422519
7,first,5,krank,IAT_yellow2.bmp,yellow,ending_melody,melody,ending,c,negative,negative,ES_purple,1,c,664,1424537,1425042,1425246
7,first,6,streng,IAT_red3.bmp,red,starting_scream,scream,starting,c,negative,negative,ES_purple,1,c,654,1426984,1427489,1427693
7,first,7,einsam,IAT_yellow3.bmp,yellow,ending_melody,melody,ending,c,negative,negative,ES_purple,1,c,566,1429424,1429928,1430132
7,first,8,sanft,IAT_yellow4.bmp,yellow,ending_melody,melody,ending,m,positive,negative,ES_purple,1,m,620,1431773,1432278,1432482
7,first,9,sozial,IAT_red3.bmp,red,starting_scream,scream,starting,m,positive,negative,ES_purple,1,m,558,1434177,1434681,1434885
7,first,10,sanft,IAT_green4.bmp,green,starting_melody,melody,starting,m,positive,positive,ES_purple,1,m,642,1436517,1437021,1437225
7,first,11,lustig,IAT_purple1.bmp,purple,ending_scream,scream,ending,m,positive,positive,ES_purple,1,m,666,1438941,1439445,1439649
7,first,12,ehrlich,IAT_red3.bmp,red,starting_scream,scream,starting,m,positive,negative,ES_purple,1,m,503,1441390,1441894,1442098
7,first,13,sanft,IAT_red1.bmp,red,starting_scream,scream,starting,m,positive,negative,ES_purple,1,m,502,1443675,1444179,1444383
7,first,14,brutal,IAT_red4.bmp,red,starting_scream,scream,starting,c,negative,negative,ES_purple,1,c,487,1445961,1446465,1446669
7,first,15,kaputt,IAT_yellow3.bmp,yellow,ending_melody,melody,ending,c,negative,negative,ES_purple,1,c,681,1448233,1448737,1448941
7,first,16,streng,IAT_green4.bmp,green,starting_melody,melody,starting,c,negative,positive,ES_purple,1,c,896,1450696,1451200,1451404
7,first,17,einsam,IAT_yellow2.bmp,yellow,ending_melody,melody,ending,c,negative,negative,ES_purple,1,c,473,1453375,1453879,1454083
7,first,18,sozial,IAT_purple2.bmp,purple,ending_scream,scream,ending,m,positive,positive,ES_purple,1,m,518,1455630,1456134,1456338
7,first,19,sonnig,IAT_yellow3.bmp,yellow,ending_melody,melody,ending,m,positive,negative,ES_purple,1,m,613,1457932,1458436,1458640
7,first,20,teuer,IAT_yellow4.bmp,yellow,ending_melody,melody,ending,c,negative,negative,ES_purple,1,c,738,1460328,1460832,1461036
7,first,21,human,IAT_purple3.bmp,purple,ending_scream,scream,ending,m,positive,positive,ES_purple,1,m,1378,1462849,1463353,1463558
7,first,22,brutal,IAT_red2.bmp,red,starting_scream,scream,starting,c,negative,negative,ES_purple,1,c,504,1466011,1466515,1466719
7,first,23,lustig,IAT_red4.bmp,red,starting_scream,scream,starting,m,positive,negative,ES_purple,1,m,847,1468298,1468802,1469006
7,first,24,heiter,IAT_green1.bmp,green,starting_melody,melody,starting,m,positive,positive,ES_purple,0,None,1500,1470927,1471431,1471635
7,first,25,witzig,IAT_yellow3.bmp,yellow,ending_melody,melody,ending,m,positive,negative,ES_purple,1,m,599,1474711,1475215,1475419
7,first,26,gerecht,IAT_green4.bmp,green,starting_melody,melody,starting,m,positive,positive,ES_purple,1,m,600,1477093,1477597,1477801
7,first,27,lästig,IAT_red2.bmp,red,starting_scream,scream,starting,c,negative,negative,ES_purple,1,c,668,1479475,1479979,1480183
7,first,28,morsch,IAT_green3.bmp,green,starting_melody,melody,starting,c,negative,positive,ES_purple,1,c,677,1481926,1482430,1482634
7,first,29,einsam,IAT_green2.bmp,green,starting_melody,melody,starting,c,negative,positive,ES_purple,1,c,540,1484385,1484889,1485093
7,first,30,munter,IAT_red3.bmp,red,starting_scream,scream,starting,m,positive,negative,ES_purple,1,m,803,1486707,1487212,1487416
7,first,31,teuer,IAT_red1.bmp,red,starting_scream,scream,starting,c,negative,negative,ES_purple,1,c,473,1489294,1489798,1490002
7,first,32,lästig,IAT_green1.bmp,green,starting_melody,melody,starting,c,negative,positive,ES_purple,1,c,936,1491548,1492053,1492257
7,first,33,gesund,IAT_green1.bmp,green,starting_melody,melody,starting,m,positive,positive,ES_purple,1,m,578,1494267,1494771,1494975
7,first,34,ehrlich,IAT_purple4.bmp,purple,ending_scream,scream,ending,m,positive,positive,ES_purple,1,m,568,1496626,1497131,1497335
7,first,35,gierig,IAT_yellow4.bmp,yellow,ending_melody,melody,ending,c,negative,negative,ES_purple,1,c,1229,1498977,1499482,1499686
7,first,36,gerecht,IAT_red3.bmp,red,starting_scream,scream,starting,m,positive,negative,ES_purple,1,m,670,1501990,1502494,1502698
7,first,37,brutal,IAT_purple2.bmp,purple,ending_scream,scream,ending,c,negative,positive,ES_purple,1,c,573,1504443,1504947,1505151
7,first,38,schön,IAT_red2.bmp,red,starting_scream,scream,starting,m,positive,negative,ES_purple,1,m,623,1506797,1507301,1507505
7,first,39,munter,IAT_yellow4.bmp,yellow,ending_melody,melody,ending,m,positive,negative,ES_purple,1,m,553,1509202,1509707,1509911
7,first,40,falsch,IAT_red4.bmp,red,starting_scream,scream,starting,c,negative,negative,ES_purple,1,c,431,1511538,1512042,1512246
7,first,41,gesund,IAT_green2.bmp,green,starting_melody,melody,starting,m,positive,positive,ES_purple,1,m,389,1513751,1514255,1514459
7,first,42,einsam,IAT_red4.bmp,red,starting_scream,scream,starting,c,negative,negative,ES_purple,1,c,564,1515923,1516427,1516631
7,first,43,sanft,IAT_red2.bmp,red,starting_scream,scream,starting,m,positive,negative,ES_purple,1,m,501,1518270,1518774,1518978
7,first,44,kaputt,IAT_red2.bmp,red,starting_scream,scream,starting,c,negative,negative,ES_purple,1,c,503,1520554,1521058,1521262
7,first,45,geizig,IAT_yellow2.bmp,yellow,ending_melody,melody,ending,c,negative,negative,ES_purple,0,m,609,1522838,1523343,1523547
7,first,46,krank,IAT_green2.bmp,green,starting_melody,melody,starting,c,negative,positive,ES_purple,1,c,579,1525730,1526235,1526439
7,first,47,teuer,IAT_green4.bmp,green,starting_melody,melody,starting,c,negative,positive,ES_purple,1,c,649,1528092,1528596,1528800
7,first,48,gerecht,IAT_yellow1.bmp,yellow,ending_melody,melody,ending,m,positive,negative,ES_purple,1,m,743,1530524,1531029,1531233
7,first,49,feige,IAT_purple3.bmp,purple,ending_scream,scream,ending,c,negative,positive,ES_purple,1,c,752,1533050,1533554,1533758
7,first,50,heiter,IAT_green1.bmp,green,starting_melody,melody,starting,m,positive,positive,ES_purple,1,m,605,1535584,1536089,1536293
7,first,51,kaputt,IAT_red4.bmp,red,starting_scream,scream,starting,c,negative,negative,ES_purple,1,c,721,1537974,1538478,1538682
7,first,52,munter,IAT_red4.bmp,red,starting_scream,scream,starting,m,positive,negative,ES_purple,1,m,690,1540477,1540981,1541188
7,first,53,heiter,IAT_green3.bmp,green,starting_melody,melody,starting,m,positive,positive,ES_purple,1,m,537,1542953,1543457,1543661
7,first,54,witzig,IAT_purple1.bmp,purple,ending_scream,scream,ending,m,positive,positive,ES_purple,1,m,661,1545273,1545777,1545981
7,first,55,morsch,IAT_yellow4.bmp,yellow,ending_melody,melody,ending,c,negative,negative,ES_purple,1,c,681,1547716,1548221,1548425
7,first,56,falsch,IAT_purple2.bmp,purple,ending_scream,scream,ending,c,negative,positive,ES_purple,1,c,1107,1550180,1550685,1550889
7,first,57,kaputt,IAT_purple4.bmp,purple,ending_scream,scream,ending,c,negative,positive,ES_purple,1,c,578,1553070,1553574,1553778
7,first,58,geizig,IAT_green4.bmp,green,starting_melody,melody,starting,c,negative,positive,ES_purple,0,m,477,1555430,1555934,1556138
7,first,59,gierig,IAT_red3.bmp,red,starting_scream,scream,starting,c,negative,negative,ES_purple,1,c,739,1558189,1558694,1558898
7,first,60,ehrlich,IAT_green1.bmp,green,starting_melody,melody,starting,m,positive,positive,ES_purple,1,m,478,1560711,1561215,1561419
7,first,61,krank,IAT_purple4.bmp,purple,ending_scream,scream,ending,c,negative,positive,ES_purple,1,c,465,1562971,1563475,1563679
7,first,62,human,IAT_yellow1.bmp,yellow,ending_melody,melody,ending,m,positive,negative,ES_purple,1,m,592,1565218,1565723,1565927
7,first,63,gierig,IAT_red2.bmp,red,starting_scream,scream,starting,c,negative,negative,ES_purple,1,c,715,1567594,1568098,1568302
7,first,64,sozial,IAT_green3.bmp,green,starting_melody,melody,starting,m,positive,positive,ES_purple,1,m,489,1570091,1570595,1570799
7,first,65,lästig,IAT_purple2.bmp,purple,ending_scream,scream,ending,c,negative,positive,ES_purple,1,c,614,1572362,1572866,1573070
7,first,66,human,IAT_yellow1.bmp,yellow,ending_melody,melody,ending,m,positive,negative,ES_purple,1,m,564,1574758,1575263,1575468
7,first,67,morsch,IAT_green2.bmp,green,starting_melody,melody,starting,c,negative,positive,ES_purple,1,c,534,1577106,1577610,1577814
7,first,68,teuer,IAT_yellow1.bmp,yellow,ending_melody,melody,ending,c,negative,negative,ES_purple,1,c,1004,1579423,1579927,1580131
7,first,69,lustig,IAT_yellow2.bmp,yellow,ending_melody,melody,ending,m,positive,negative,ES_purple,0,c,638,1582209,1582714,1582918
7,first,70,witzig,IAT_red1.bmp,red,starting_scream,scream,starting,m,positive,negative,ES_purple,1,m,755,1585131,1585635,1585839
7,first,71,feige,IAT_green3.bmp,green,starting_melody,melody,starting,c,negative,positive,ES_purple,1,c,621,1587668,1588172,1588376
7,first,72,sozial,IAT_green2.bmp,green,starting_melody,melody,starting,m,positive,positive,ES_purple,1,m,625,1590071,1590575,1590779
7,first,73,sonnig,IAT_purple3.bmp,purple,ending_scream,scream,ending,m,positive,positive,ES_purple,0,None,1500,1592478,1592982,1593186
7,first,74,falsch,IAT_purple1.bmp,purple,ending_scream,scream,ending,c,negative,positive,ES_purple,1,c,459,1596259,1596764,1596968
7,first,75,gerecht,IAT_green3.bmp,green,starting_melody,melody,starting,m,positive,positive,ES_purple,1,m,594,1598504,1599008,1599212
7,first,76,schön,IAT_yellow1.bmp,yellow,ending_melody,melody,ending,m,positive,negative,ES_purple,1,m,495,1600882,1601387,1601591
7,first,77,gesund,IAT_purple3.bmp,purple,ending_scream,scream,ending,m,positive,positive,ES_purple,1,m,626,1603160,1603664,1603868
7,first,78,krank,IAT_red1.bmp,red,starting_scream,scream,starting,c,negative,negative,ES_purple,1,c,389,1605569,1606073,1606278
7,first,79,ehrlich,IAT_purple2.bmp,purple,ending_scream,scream,ending,m,positive,positive,ES_purple,1,m,437,1607741,1608245,1608449
7,first,80,schön,IAT_purple1.bmp,purple,ending_scream,scream,ending,m,positive,positive,ES_purple,1,m,485,1609960,1610464,1610668
7,first,81,feige,IAT_purple2.bmp,purple,ending_scream,scream,ending,c,negative,positive,ES_purple,1,c,429,1612227,1612731,1612935
7,first,82,sonnig,IAT_red1.bmp,red,starting_scream,scream,starting,m,positive,negative,ES_purple,1,m,560,1614438,1614942,1615146
7,first,83,lustig,IAT_yellow3.bmp,yellow,ending_melody,melody,ending,m,positive,negative,ES_purple,1,m,470,1616780,1617285,1617489
7,first,84,schön,IAT_purple4.bmp,purple,ending_scream,scream,ending,m,positive,positive,ES_purple,1,m,461,1619033,1619538,1619742
7,first,85,gesund,IAT_green3.bmp,green,starting_melody,melody,starting,m,positive,positive,ES_purple,1,m,433,1621276,1621781,1621985
7,first,86,gierig,IAT_yellow2.bmp,yellow,ending_melody,melody,ending,c,negative,negative,ES_purple,0,m,462,1623493,1623998,1624202
7,first,87,feige,IAT_purple1.bmp,purple,ending_scream,scream,ending,c,negative,positive,ES_purple,1,c,508,1626239,1626743,1626947
7,first,88,morsch,IAT_purple4.bmp,purple,ending_scream,scream,ending,c,negative,positive,ES_purple,1,c,489,1628529,1629034,1629238
7,first,89,human,IAT_yellow3.bmp,yellow,ending_melody,melody,ending,m,positive,negative,ES_purple,1,m,526,1630803,1631307,1631511
7,first,90,streng,IAT_purple4.bmp,purple,ending_scream,scream,ending,c,negative,positive,ES_purple,1,c,369,1633110,1633615,1633819
7,first,91,falsch,IAT_yellow4.bmp,yellow,ending_melody,melody,ending,c,negative,negative,ES_purple,1,c,442,1635263,1635767,1635971
7,first,92,streng,IAT_yellow1.bmp,yellow,ending_melody,melody,ending,c,negative,negative,ES_purple,1,c,464,1637488,1637992,1638196
7,first,93,geizig,IAT_green4.bmp,green,starting_melody,melody,starting,c,negative,positive,ES_purple,0,m,621,1639735,1640239,1640443
7,first,94,lästig,IAT_green1.bmp,green,starting_melody,melody,starting,c,negative,positive,ES_purple,1,c,416,1642639,1643143,1643348
7,first,95,witzig,IAT_red1.bmp,red,starting_scream,scream,starting,m,positive,negative,ES_purple,1,m,705,1644838,1645343,1645547
7,second,0,brutal,IAT_red4.bmp,red,starting_scream,scream,starting,c,negative,negative,ES_purple,0,m,558,1678070,1678574,1678778
7,second,1,ehrlich,IAT_yellow3.bmp,yellow,ending_melody,melody,ending,m,positive,negative,ES_purple,1,m,794,1680915,1681419,1681623
7,second,2,sanft,IAT_purple4.bmp,purple,ending_scream,scream,ending,m,positive,positive,ES_purple,1,m,668,1683492,1683996,1684200
7,second,3,sozial,IAT_yellow1.bmp,yellow,ending_melody,melody,ending,m,positive,negative,ES_purple,1,m,540,1685941,1686446,1686650
7,second,4,lustig,IAT_red2.bmp,red,starting_scream,scream,starting,m,positive,negative,ES_purple,1,m,576,1688264,1688768,1688972
7,second,5,schön,IAT_yellow1.bmp,yellow,ending_melody,melody,ending,m,positive,negative,ES_purple,1,m,474,1690622,1691127,1691331
7,second,6,feige,IAT_red4.bmp,red,starting_scream,scream,starting,c,negative,negative,ES_purple,1,c,488,1692879,1693383,1693588
7,second,7,falsch,IAT_yellow3.bmp,yellow,ending_melody,melody,ending,c,negative,negative,ES_purple,1,c,598,1695151,1695655,1695859
7,second,8,gierig,IAT_yellow1.bmp,yellow,ending_melody,melody,ending,c,negative,negative,ES_purple,1,c,616,1697531,1698036,1698240
7,second,9,gesund,IAT_red3.bmp,red,starting_scream,scream,starting,m,positive,negative,ES_purple,1,m,487,1699930,1700434,1700638
7,second,10,lustig,IAT_purple3.bmp,purple,ending_scream,scream,ending,m,positive,positive,ES_purple,0,c,716,1702199,1702703,1702907
7,second,11,heiter,IAT_purple4.bmp,purple,ending_scream,scream,ending,m,positive,positive,ES_purple,1,m,725,1705199,1705703,1705907
7,second,12,lustig,IAT_red1.bmp,red,starting_scream,scream,starting,m,positive,negative,ES_purple,1,m,451,1707705,1708210,1708414
7,second,13,gerecht,IAT_red2.bmp,red,starting_scream,scream,starting,m,positive,negative,ES_purple,0,c,483,1709939,1710443,1710648
7,second,14,human,IAT_yellow2.bmp,yellow,ending_melody,melody,ending,m,positive,negative,ES_purple,1,m,537,1712705,1713209,1713413
7,second,15,gesund,IAT_yellow3.bmp,yellow,ending_melody,melody,ending,m,positive,negative,ES_purple,1,m,438,1715023,1715528,1715732
7,second,16,geizig,IAT_yellow3.bmp,yellow,ending_melody,melody,ending,c,negative,negative,ES_purple,1,c,630,1717244,1717748,1717952
7,second,17,einsam,IAT_yellow2.bmp,yellow,ending_melody,melody,ending,c,negative,negative,ES_purple,1,c,657,1719656,1720160,1720364
7,second,18,ehrlich,IAT_red3.bmp,red,starting_scream,scream,starting,m,positive,negative,ES_purple,1,m,810,1722095,1722600,1722804
7,second,19,falsch,IAT_red2.bmp,red,starting_scream,scream,starting,c,negative,negative,ES_purple,1,c,609,1724688,1725193,1725398
7,second,20,krank,IAT_purple2.bmp,purple,ending_scream,scream,ending,c,negative,positive,ES_purple,1,c,721,1727081,1727585,1727789
7,second,21,human,IAT_green4.bmp,green,starting_melody,melody,starting,m,positive,positive,ES_purple,1,m,570,1729584,1730088,1730292
7,second,22,munter,IAT_purple2.bmp,purple,ending_scream,scream,ending,m,positive,positive,ES_purple,1,m,533,1731936,1732440,1732644
7,second,23,sonnig,IAT_green4.bmp,green,starting_melody,melody,starting,m,positive,positive,ES_purple,1,m,617,1734252,1734756,1734960
7,second,24,kaputt,IAT_purple4.bmp,purple,ending_scream,scream,ending,c,negative,positive,ES_purple,1,c,499,1736650,1737155,1737359
7,second,25,sozial,IAT_red3.bmp,red,starting_scream,scream,starting,m,positive,negative,ES_purple,1,m,493,1738932,1739436,1739640
7,second,26,gesund,IAT_green3.bmp,green,starting_melody,melody,starting,m,positive,positive,ES_purple,1,m,748,1741207,1741711,1741915
7,second,27,brutal,IAT_red2.bmp,red,starting_scream,scream,starting,c,negative,negative,ES_purple,1,c,515,1743737,1744241,1744445
7,second,28,kaputt,IAT_red4.bmp,red,starting_scream,scream,starting,c,negative,negative,ES_purple,1,c,499,1746035,1746539,1746743
7,second,29,witzig,IAT_green2.bmp,green,starting_melody,melody,starting,m,positive,positive,ES_purple,1,m,433,1748316,1748820,1749024
7,second,30,einsam,IAT_green3.bmp,green,starting_melody,melody,starting,c,negative,positive,ES_purple,1,c,448,1750530,1751035,1751239
7,second,31,teuer,IAT_red4.bmp,red,starting_scream,scream,starting,c,negative,negative,ES_purple,1,c,532,1752761,1753265,1753469
7,second,32,munter,IAT_green3.bmp,green,starting_melody,melody,starting,m,positive,positive,ES_purple,1,m,532,1755075,1755579,1755783
7,second,33,lästig,IAT_red3.bmp,red,starting_scream,scream,starting,c,negative,negative,ES_purple,1,c,559,1757388,1757893,1758097
7,second,34,morsch,IAT_green2.bmp,green,starting_melody,melody,starting,c,negative,positive,ES_purple,0,m,407,1759730,1760234,1760438
7,second,35,geizig,IAT_red2.bmp,red,starting_scream,scream,starting,c,negative,negative,ES_purple,1,c,517,1762419,1762924,1763128
7,second,36,sonnig,IAT_green1.bmp,green,starting_melody,melody,starting,m,positive,positive,ES_purple,1,m,547,1764719,1765224,1765428
7,second,37,teuer,IAT_purple1.bmp,purple,ending_scream,scream,ending,c,negative,positive,ES_purple,1,c,431,1767049,1767553,1767757
7,second,38,krank,IAT_green1.bmp,green,starting_melody,melody,starting,c,negative,positive,ES_purple,1,c,1134,1769261,1769766,1769970
7,second,39,heiter,IAT_red3.bmp,red,starting_scream,scream,starting,m,positive,negative,ES_purple,1,m,655,1772178,1772682,1772886
7,second,40,geizig,IAT_yellow2.bmp,yellow,ending_melody,melody,ending,c,negative,negative,ES_purple,1,c,1086,1774617,1775121,1775325
7,second,41,streng,IAT_red3.bmp,red,starting_scream,scream,starting,c,negative,negative,ES_purple,1,c,694,1777485,1777989,1778193
7,second,42,lästig,IAT_yellow4.bmp,yellow,ending_melody,melody,ending,c,negative,negative,ES_purple,1,c,680,1779962,1780466,1780670
7,second,43,gierig,IAT_green1.bmp,green,starting_melody,melody,starting,c,negative,positive,ES_purple,1,c,572,1782424,1782928,1783132
7,second,44,sanft,IAT_red1.bmp,red,starting_scream,scream,starting,m,positive,negative,ES_purple,1,m,747,1784779,1785283,1785488
7,second,45,sonnig,IAT_green1.bmp,green,starting_melody,melody,starting,m,positive,positive,ES_purple,1,m,503,1787309,1787813,1788017
7,second,46,kaputt,IAT_purple1.bmp,purple,ending_scream,scream,ending,c,negative,positive,ES_purple,1,c,1149,1789594,1790099,1790303
7,second,47,ehrlich,IAT_purple3.bmp,purple,ending_scream,scream,ending,m,positive,positive,ES_purple,1,m,525,1792526,1793030,1793234
7,second,48,gerecht,IAT_green1.bmp,green,starting_melody,melody,starting,m,positive,positive,ES_purple,1,m,445,1794833,1795337,1795541
7,second,49,teuer,IAT_purple3.bmp,purple,ending_scream,scream,ending,c,negative,positive,ES_purple,1,c,464,1797059,1797564,1797768
7,second,50,schön,IAT_green1.bmp,green,starting_melody,melody,starting,m,positive,positive,ES_purple,1,m,445,1799306,1799810,1800014
7,second,51,gesund,IAT_yellow3.bmp,yellow,ending_melody,melody,ending,m,positive,negative,ES_purple,1,m,522,1801533,1802037,1802241
7,second,52,brutal,IAT_red1.bmp,red,starting_scream,scream,starting,c,negative,negative,ES_purple,1,c,404,1803837,1804341,1804545
7,second,53,lästig,IAT_green4.bmp,green,starting_melody,melody,starting,c,negative,positive,ES_purple,1,c,597,1806025,1806529,1806733
7,second,54,kaputt,IAT_purple2.bmp,purple,ending_scream,scream,ending,c,negative,positive,ES_purple,0,m,356,1808405,1808909,1809113
7,second,55,schön,IAT_yellow4.bmp,yellow,ending_melody,melody,ending,m,positive,negative,ES_purple,0,c,705,1811045,1811549,1811753
7,second,56,einsam,IAT_green2.bmp,green,starting_melody,melody,starting,c,negative,positive,ES_purple,0,m,344,1814031,1814536,1814740
7,second,57,falsch,IAT_green4.bmp,green,starting_melody,melody,starting,c,negative,positive,ES_purple,1,c,512,1816657,1817162,1817366
7,second,58,sanft,IAT_green3.bmp,green,starting_melody,melody,starting,m,positive,positive,ES_purple,1,m,551,1818952,1819456,1819660
7,second,59,gerecht,IAT_yellow2.bmp,yellow,ending_melody,melody,ending,m,positive,negative,ES_purple,1,m,786,1821285,1821790,1821994
7,second,60,streng,IAT_yellow4.bmp,yellow,ending_melody,melody,ending,c,negative,negative,ES_purple,1,c,562,1823856,1824360,1824564
7,second,61,morsch,IAT_purple4.bmp,purple,ending_scream,scream,ending,c,negative,positive,ES_purple,1,c,602,1826199,1826704,1826908
7,second,62,witzig,IAT_red1.bmp,red,starting_scream,scream,starting,m,positive,negative,ES_purple,1,m,806,1828585,1829089,1829293
7,second,63,human,IAT_purple3.bmp,purple,ending_scream,scream,ending,m,positive,positive,ES_purple,1,m,1017,1831174,1831678,1831882
7,second,64,feige,IAT_yellow4.bmp,yellow,ending_melody,melody,ending,c,negative,negative,ES_purple,1,c,604,1833973,1834478,1834682
7,second,65,gerecht,IAT_green2.bmp,green,starting_melody,melody,starting,m,positive,positive,ES_purple,1,m,541,1836361,1836865,1837069
7,second,66,krank,IAT_red1.bmp,red,starting_scream,scream,starting,c,negative,negative,ES_purple,1,c,478,1838684,1839188,1839392
7,second,67,sozial,IAT_purple1.bmp,purple,ending_scream,scream,ending,m,positive,positive,ES_purple,1,m,1056,1840945,1841449,1841653
7,second,68,lustig,IAT_purple1.bmp,purple,ending_scream,scream,ending,m,positive,positive,ES_purple,1,m,904,1843784,1844289,1844493
7,second,69,streng,IAT_green2.bmp,green,starting_melody,melody,starting,c,negative,positive,ES_purple,1,c,734,1846471,1846976,1847180
7,second,70,munter,IAT_yellow1.bmp,yellow,ending_melody,melody,ending,m,positive,negative,ES_purple,1,m,1084,1848989,1849493,1849697
7,second,71,gierig,IAT_green2.bmp,green,starting_melody,melody,starting,c,negative,positive,ES_purple,1,c,597,1851855,1852360,1852564
7,second,72,einsam,IAT_yellow4.bmp,yellow,ending_melody,melody,ending,c,negative,negative,ES_purple,1,c,1073,1854235,1854739,1854943
7,second,73,heiter,IAT_yellow1.bmp,yellow,ending_melody,melody,ending,m,positive,negative,ES_purple,1,m,713,1857091,1857595,1857799
7,second,74,witzig,IAT_yellow3.bmp,yellow,ending_melody,melody,ending,m,positive,negative,ES_purple,0,c,507,1859587,1860091,1860295
7,second,75,munter,IAT_red1.bmp,red,starting_scream,scream,starting,m,positive,negative,ES_purple,1,m,549,1862376,1862880,1863084
7,second,76,witzig,IAT_purple1.bmp,purple,ending_scream,scream,ending,m,positive,positive,ES_purple,1,m,642,1864706,1865211,1865415
7,second,77,sanft,IAT_purple1.bmp,purple,ending_scream,scream,ending,m,positive,positive,ES_purple,1,m,492,1867132,1867637,1867841
7,second,78,lästig,IAT_purple4.bmp,purple,ending_scream,scream,ending,c,negative,positive,ES_purple,1,c,697,1869406,1869911,1870115
7,second,79,krank,IAT_red2.bmp,red,starting_scream,scream,starting,c,negative,negative,ES_purple,1,c,791,1871887,1872391,1872595
7,second,80,schön,IAT_purple3.bmp,purple,ending_scream,scream,ending,m,positive,positive,ES_purple,0,c,362,1874460,1874964,1875168
7,second,81,human,IAT_purple2.bmp,purple,ending_scream,scream,ending,m,positive,positive,ES_purple,1,m,509,1877106,1877610,1877814
7,second,82,sonnig,IAT_red4.bmp,red,starting_scream,scream,starting,m,positive,negative,ES_purple,1,m,612,1879398,1879902,1880106
7,second,83,feige,IAT_purple2.bmp,purple,ending_scream,scream,ending,c,negative,positive,ES_purple,1,c,528,1881793,1882297,1882501
7,second,84,brutal,IAT_yellow2.bmp,yellow,ending_melody,melody,ending,c,negative,negative,ES_purple,1,c,553,1884104,1884608,1884812
7,second,85,gierig,IAT_yellow1.bmp,yellow,ending_melody,melody,ending,c,negative,negative,ES_purple,1,c,533,1886440,1886944,1887148
7,second,86,ehrlich,IAT_red4.bmp,red,starting_scream,scream,starting,m,positive,negative,ES_purple,1,m,525,1888755,1889259,1889463
7,second,87,streng,IAT_green4.bmp,green,starting_melody,melody,starting,c,negative,positive,ES_purple,1,c,830,1891063,1891568,1891772
7,second,88,geizig,IAT_green4.bmp,green,starting_melody,melody,starting,c,negative,positive,ES_purple,1,c,1034,1893675,1894180,1894384
7,second,89,teuer,IAT_purple2.bmp,purple,ending_scream,scream,ending,c,negative,positive,ES_purple,1,c,466,1896493,1896998,1897202
7,second,90,morsch,IAT_green3.bmp,green,starting_melody,melody,starting,c,negative,positive,ES_purple,1,c,739,1898744,1899248,1899452
7,second,91,heiter,IAT_green3.bmp,green,starting_melody,melody,starting,m,positive,positive,ES_purple,1,m,519,1901265,1901769,1901973
7,second,92,falsch,IAT_yellow2.bmp,yellow,ending_melody,melody,ending,c,negative,negative,ES_purple,1,c,452,1903568,1904072,1904276
7,second,93,sozial,IAT_yellow4.bmp,yellow,ending_melody,melody,ending,m,positive,negative,ES_purple,1,m,800,1905804,1906308,1906512
7,second,94,feige,IAT_purple3.bmp,purple,ending_scream,scream,ending,c,negative,positive,ES_purple,1,c,529,1908386,1908890,1909094
7,second,95,morsch,IAT_purple4.bmp,purple,ending_scream,scream,ending,c,negative,positive,ES_purple,1,c,525,1910699,1911203,1911407
7,third,0,brutal,IAT_red3.bmp,red,starting_scream,scream,starting,c,negative,negative,ES_purple,1,c,1168,1945247,1945751,1945955
7,third,1,kaputt,IAT_red4.bmp,red,starting_scream,scream,starting,c,negative,negative,ES_purple,1,c,495,1948203,1948707,1948911
7,third,2,schön,IAT_green1.bmp,green,starting_melody,melody,starting,m,positive,positive,ES_purple,1,m,413,1950484,1950988,1951192
7,third,3,sozial,IAT_yellow3.bmp,yellow,ending_melody,melody,ending,m,positive,negative,ES_purple,1,m,510,1952680,1953184,1953388
7,third,4,krank,IAT_purple1.bmp,purple,ending_scream,scream,ending,c,negative,positive,ES_purple,1,c,466,1954974,1955478,1955682
7,third,5,munter,IAT_red2.bmp,red,starting_scream,scream,starting,m,positive,negative,ES_purple,1,m,561,1957225,1957729,1957933
7,third,6,einsam,IAT_red4.bmp,red,starting_scream,scream,starting,c,negative,negative,ES_purple,1,c,512,1959573,1960077,1960281
7,third,7,geizig,IAT_purple2.bmp,purple,ending_scream,scream,ending,c,negative,positive,ES_purple,1,c,714,1961869,1962373,1962577
7,third,8,gierig,IAT_green4.bmp,green,starting_melody,melody,starting,c,negative,positive,ES_purple,1,c,513,1964367,1964871,1965075
7,third,9,witzig,IAT_yellow1.bmp,yellow,ending_melody,melody,ending,m,positive,negative,ES_purple,1,m,427,1966665,1967169,1967373
7,third,10,sanft,IAT_red1.bmp,red,starting_scream,scream,starting,m,positive,negative,ES_purple,0,c,482,1968876,1969381,1969585
7,third,11,feige,IAT_purple4.bmp,purple,ending_scream,scream,ending,c,negative,positive,ES_purple,1,c,1008,1971646,1972150,1972354
7,third,12,lästig,IAT_red1.bmp,red,starting_scream,scream,starting,c,negative,negative,ES_purple,1,c,653,1974438,1974943,1975147
7,third,13,einsam,IAT_yellow4.bmp,yellow,ending_melody,melody,ending,c,negative,negative,ES_purple,1,c,509,1976876,1977381,1977585
7,third,14,ehrlich,IAT_purple1.bmp,purple,ending_scream,scream,ending,m,positive,positive,ES_purple,1,m,619,1979170,1979675,1979879
7,third,15,krank,IAT_purple3.bmp,purple,ending_scream,scream,ending,c,negative,positive,ES_purple,1,c,494,1981574,1982078,1982282
7,third,16,feige,IAT_green2.bmp,green,starting_melody,melody,starting,c,negative,positive,ES_purple,0,m,447,1983852,1984356,1984560
7,third,17,falsch,IAT_yellow2.bmp,yellow,ending_melody,melody,ending,c,negative,negative,ES_purple,1,c,517,1986584,1987088,1987292
7,third,18,streng,IAT_red2.bmp,red,starting_scream,scream,starting,c,negative,negative,ES_purple,1,c,489,1988885,1989390,1989594
7,third,19,gerecht,IAT_red2.bmp,red,starting_scream,scream,starting,m,positive,negative,ES_purple,1,m,573,1991159,1991663,1991867
7,third,20,sonnig,IAT_purple1.bmp,purple,ending_scream,scream,ending,m,positive,positive,ES_purple,1,m,662,1993518,1994022,1994226
7,third,21,morsch,IAT_purple2.bmp,purple,ending_scream,scream,ending,c,negative,positive,ES_purple,1,c,715,1995965,1996470,1996674
7,third,22,kaputt,IAT_green3.bmp,green,starting_melody,melody,starting,c,negative,positive,ES_purple,0,m,630,1998466,1998970,1999174
7,third,23,teuer,IAT_yellow4.bmp,yellow,ending_melody,melody,ending,c,negative,negative,ES_purple,1,c,552,2001380,2001884,2002088
7,third,24,gesund,IAT_red1.bmp,red,starting_scream,scream,starting,m,positive,negative,ES_purple,1,m,584,2003717,2004222,2004426
7,third,25,witzig,IAT_green3.bmp,green,starting_melody,melody,starting,m,positive,positive,ES_purple,0,c,548,2006086,2006591,2006795
7,third,26,gerecht,IAT_yellow1.bmp,yellow,ending_melody,melody,ending,m,positive,negative,ES_purple,1,m,785,2008920,2009424,2009628
7,third,27,lustig,IAT_red3.bmp,red,starting_scream,scream,starting,m,positive,negative,ES_purple,1,m,538,2011489,2011995,2012199
7,third,28,morsch,IAT_red2.bmp,red,starting_scream,scream,starting,c,negative,negative,ES_purple,1,c,763,2013813,2014317,2014521
7,third,29,gierig,IAT_purple4.bmp,purple,ending_scream,scream,ending,c,negative,positive,ES_purple,1,c,1195,2016361,2016866,2017070
7,third,30,lästig,IAT_red2.bmp,red,starting_scream,scream,starting,c,negative,negative,ES_purple,1,c,485,2019341,2019845,2020049
7,third,31,falsch,IAT_yellow1.bmp,yellow,ending_melody,melody,ending,c,negative,negative,ES_purple,1,c,528,2021611,2022115,2022319
7,third,32,teuer,IAT_purple3.bmp,purple,ending_scream,scream,ending,c,negative,positive,ES_purple,1,c,1333,2023923,2024427,2024631
7,third,33,heiter,IAT_yellow1.bmp,yellow,ending_melody,melody,ending,m,positive,negative,ES_purple,0,c,488,2027040,2027545,2027749
7,third,34,brutal,IAT_green4.bmp,green,starting_melody,melody,starting,c,negative,positive,ES_purple,1,c,567,2029814,2030318,2030522
7,third,35,munter,IAT_purple2.bmp,purple,ending_scream,scream,ending,m,positive,positive,ES_purple,1,m,544,2032166,2032671,2032875
7,third,36,geizig,IAT_yellow2.bmp,yellow,ending_melody,melody,ending,c,negative,negative,ES_purple,1,c,554,2034496,2035001,2035205
7,third,37,ehrlich,IAT_purple2.bmp,purple,ending_scream,scream,ending,m,positive,positive,ES_purple,1,m,695,2036836,2037340,2037544
7,third,38,witzig,IAT_red3.bmp,red,starting_scream,scream,starting,m,positive,negative,ES_purple,1,m,873,2039316,2039820,2040024
7,third,39,streng,IAT_purple4.bmp,purple,ending_scream,scream,ending,c,negative,positive,ES_purple,1,c,560,2041974,2042478,2042682
7,third,40,kaputt,IAT_red4.bmp,red,starting_scream,scream,starting,c,negative,negative,ES_purple,1,c,562,2044319,2044824,2045028
7,third,41,lästig,IAT_purple4.bmp,purple,ending_scream,scream,ending,c,negative,positive,ES_purple,1,c,582,2046666,2047170,2047374
7,third,42,heiter,IAT_red3.bmp,red,starting_scream,scream,starting,m,positive,negative,ES_purple,1,m,586,2049033,2049537,2049741
7,third,43,human,IAT_purple3.bmp,purple,ending_scream,scream,ending,m,positive,positive,ES_purple,1,m,832,2051405,2051909,2052113
7,third,44,lustig,IAT_yellow3.bmp,yellow,ending_melody,melody,ending,m,positive,negative,ES_purple,1,m,829,2054022,2054526,2054730
7,third,45,schön,IAT_green1.bmp,green,starting_melody,melody,starting,m,positive,positive,ES_purple,1,m,791,2056636,2057140,2057344
7,third,46,sozial,IAT_purple4.bmp,purple,ending_scream,scream,ending,m,positive,positive,ES_purple,1,m,591,2059211,2059715,2059919
7,third,47,teuer,IAT_red3.bmp,red,starting_scream,scream,starting,c,negative,negative,ES_purple,1,c,647,2061587,2062091,2062295
7,third,48,gesund,IAT_red3.bmp,red,starting_scream,scream,starting,m,positive,negative,ES_purple,1,m,612,2064019,2064524,2064728
7,third,49,lästig,IAT_yellow3.bmp,yellow,ending_melody,melody,ending,c,negative,negative,ES_purple,1,c,579,2066416,2066920,2067124
7,third,50,gierig,IAT_red4.bmp,red,starting_scream,scream,starting,c,negative,negative,ES_purple,1,c,727,2068779,2069283,2069487
7,third,51,sonnig,IAT_purple3.bmp,purple,ending_scream,scream,ending,m,positive,positive,ES_purple,1,m,890,2071290,2071795,2071999
7,third,52,heiter,IAT_red1.bmp,red,starting_scream,scream,starting,m,positive,negative,ES_purple,1,m,741,2073966,2074471,2074675
7,third,53,munter,IAT_yellow4.bmp,yellow,ending_melody,melody,ending,m,positive,negative,ES_purple,1,m,814,2076494,2076998,2077202
7,third,54,sozial,IAT_green1.bmp,green,starting_melody,melody,starting,m,positive,positive,ES_purple,1,m,560,2079094,2079598,2079802
7,third,55,krank,IAT_green2.bmp,green,starting_melody,melody,starting,c,negative,positive,ES_purple,1,c,442,2081438,2081943,2082147
7,third,56,brutal,IAT_yellow4.bmp,yellow,ending_melody,melody,ending,c,negative,negative,ES_purple,1,c,588,2083666,2084170,2084374
7,third,57,einsam,IAT_yellow3.bmp,yellow,ending_melody,melody,ending,c,negative,negative,ES_purple,1,c,855,2086039,2086543,2086747
7,third,58,morsch,IAT_green3.bmp,green,starting_melody,melody,starting,c,negative,positive,ES_purple,1,c,498,2088678,2089182,2089386
7,third,59,sanft,IAT_red4.bmp,red,starting_scream,scream,starting,m,positive,negative,ES_purple,0,c,433,2090961,2091466,2091670
7,third,60,einsam,IAT_yellow2.bmp,yellow,ending_melody,melody,ending,c,negative,negative,ES_purple,1,c,590,2093679,2094183,2094387
7,third,61,human,IAT_yellow3.bmp,yellow,ending_melody,melody,ending,m,positive,negative,ES_purple,1,m,509,2096055,2096559,2096763
7,third,62,lustig,IAT_yellow4.bmp,yellow,ending_melody,melody,ending,m,positive,negative,ES_purple,1,m,711,2098350,2098855,2099059
7,third,63,geizig,IAT_green4.bmp,green,starting_melody,melody,starting,c,negative,positive,ES_purple,1,c,642,2100847,2101352,2101556
7,third,64,kaputt,IAT_purple2.bmp,purple,ending_scream,scream,ending,c,negative,positive,ES_purple,1,c,597,2103275,2103780,2103984
7,third,65,morsch,IAT_yellow2.bmp,yellow,ending_melody,melody,ending,c,negative,negative,ES_purple,1,c,686,2105657,2106162,2106366
7,third,66,feige,IAT_red2.bmp,red,starting_scream,scream,starting,c,negative,negative,ES_purple,1,c,740,2108129,2108634,2108838
7,third,67,schön,IAT_green3.bmp,green,starting_melody,melody,starting,m,positive,positive,ES_purple,1,m,624,2110655,2111160,2111364
7,third,68,gesund,IAT_yellow2.bmp,yellow,ending_melody,melody,ending,m,positive,negative,ES_purple,1,m,1180,2113066,2113570,2113774
7,third,69,sozial,IAT_green2.bmp,green,starting_melody,melody,starting,m,positive,positive,ES_purple,1,m,489,2116031,2116535,2116739
7,third,70,munter,IAT_green1.bmp,green,starting_melody,melody,starting,m,positive,positive,ES_purple,1,m,520,2118305,2118809,2119013
7,third,71,human,IAT_purple1.bmp,purple,ending_scream,scream,ending,m,positive,positive,ES_purple,1,m,783,2120610,2121114,2121318
7,third,72,gerecht,IAT_yellow1.bmp,yellow,ending_melody,melody,ending,m,positive,negative,ES_purple,0,c,829,2123178,2123682,2123886
7,third,73,human,IAT_yellow3.bmp,yellow,ending_melody,melody,ending,m,positive,negative,ES_purple,1,m,517,2126292,2126796,2127000
7,third,74,sanft,IAT_green3.bmp,green,starting_melody,melody,starting,m,positive,positive,ES_purple,1,m,487,2128594,2129098,2129302
7,third,75,gesund,IAT_yellow2.bmp,yellow,ending_melody,melody,ending,m,positive,negative,ES_purple,1,m,631,2130867,2131371,2131575
7,third,76,sanft,IAT_purple4.bmp,purple,ending_scream,scream,ending,m,positive,positive,ES_purple,1,m,679,2133282,2133787,2133991
7,third,77,gierig,IAT_green1.bmp,green,starting_melody,melody,starting,c,negative,positive,ES_purple,1,c,597,2135746,2136250,2136454
7,third,78,ehrlich,IAT_purple1.bmp,purple,ending_scream,scream,ending,m,positive,positive,ES_purple,1,m,680,2138128,2138633,2138837
7,third,79,gerecht,IAT_green4.bmp,green,starting_melody,melody,starting,m,positive,positive,ES_purple,1,m,563,2140594,2141099,2141303
7,third,80,krank,IAT_purple2.bmp,purple,ending_scream,scream,ending,c,negative,positive,ES_purple,1,c,565,2142944,2143449,2143653
7,third,81,sonnig,IAT_red1.bmp,red,starting_scream,scream,starting,m,positive,negative,ES_purple,1,m,1222,2145297,2145801,2146005
7,third,82,feige,IAT_green2.bmp,green,starting_melody,melody,starting,c,negative,positive,ES_purple,1,c,529,2148305,2148809,2149013
7,third,83,falsch,IAT_green2.bmp,green,starting_melody,melody,starting,c,negative,positive,ES_purple,1,c,594,2150620,2151125,2151329
7,third,84,streng,IAT_yellow1.bmp,yellow,ending_melody,melody,ending,c,negative,negative,ES_purple,1,c,581,2153001,2153505,2153709
7,third,85,witzig,IAT_green3.bmp,green,starting_melody,melody,starting,m,positive,positive,ES_purple,1,m,747,2155368,2155873,2156077
7,third,86,brutal,IAT_green4.bmp,green,starting_melody,melody,starting,c,negative,positive,ES_purple,1,c,710,2157903,2158407,2158611
7,third,87,schön,IAT_purple3.bmp,purple,ending_scream,scream,ending,m,positive,positive,ES_purple,1,m,660,2160398,2160903,2161107
7,third,88,geizig,IAT_red1.bmp,red,starting_scream,scream,starting,c,negative,negative,ES_purple,1,c,749,2162845,2163350,2163554
7,third,89,teuer,IAT_purple1.bmp,purple,ending_scream,scream,ending,c,negative,positive,ES_purple,1,c,727,2165381,2165885,2166089
7,third,90,ehrlich,IAT_green2.bmp,green,starting_melody,melody,starting,m,positive,positive,ES_purple,1,m,814,2167895,2168399,2168603
7,third,91,falsch,IAT_yellow4.bmp,yellow,ending_melody,melody,ending,c,negative,negative,ES_purple,1,c,459,2170495,2170999,2171203
7,third,92,heiter,IAT_purple3.bmp,purple,ending_scream,scream,ending,m,positive,positive,ES_purple,1,m,833,2172740,2173244,2173448
7,third,93,sonnig,IAT_green4.bmp,green,starting_melody,melody,starting,m,positive,positive,ES_purple,1,m,960,2175359,2175863,2176067
7,third,94,lustig,IAT_red4.bmp,red,starting_scream,scream,starting,m,positive,negative,ES_purple,1,m,712,2178106,2178610,2178814
7,third,95,streng,IAT_green1.bmp,green,starting_melody,melody,starting,c,negative,positive,ES_purple,1,c,507,2180605,2181109,2181313
7,forth,0,gesund,IAT_yellow1.bmp,yellow,ending_melody,melody,ending,m,positive,negative,ES_purple,1,m,670,2187960,2188465,2188669
7,forth,1,kaputt,IAT_green3.bmp,green,starting_melody,melody,starting,c,negative,positive,ES_purple,1,c,498,2190417,2190921,2191125
7,forth,2,feige,IAT_purple4.bmp,purple,ending_scream,scream,ending,c,negative,positive,ES_purple,1,c,612,2192698,2193202,2193406
7,forth,3,sanft,IAT_purple1.bmp,purple,ending_scream,scream,ending,m,positive,positive,ES_purple,1,m,531,2195094,2195599,2195803
7,forth,4,sozial,IAT_yellow1.bmp,yellow,ending_melody,melody,ending,m,positive,negative,ES_purple,1,m,476,2197411,2197915,2198119
7,forth,5,ehrlich,IAT_purple2.bmp,purple,ending_scream,scream,ending,m,positive,positive,ES_purple,1,m,563,2199670,2200174,2200378
7,forth,6,sonnig,IAT_purple4.bmp,purple,ending_scream,scream,ending,m,positive,positive,ES_purple,1,m,474,2202016,2202520,2202724
7,forth,7,lustig,IAT_purple1.bmp,purple,ending_scream,scream,ending,m,positive,positive,ES_purple,1,m,440,2204275,2204779,2204983
7,forth,8,munter,IAT_red4.bmp,red,starting_scream,scream,starting,m,positive,negative,ES_purple,1,m,526,2206498,2207002,2207206
7,forth,9,heiter,IAT_green4.bmp,green,starting_melody,melody,starting,m,positive,positive,ES_purple,1,m,571,2208807,2209311,2209515
7,forth,10,teuer,IAT_red3.bmp,red,starting_scream,scream,starting,c,negative,negative,ES_purple,1,c,429,2211162,2211666,2211870
7,forth,11,sonnig,IAT_yellow3.bmp,yellow,ending_melody,melody,ending,m,positive,negative,ES_purple,1,m,450,2213375,2213879,2214083
7,forth,12,falsch,IAT_red4.bmp,red,starting_scream,scream,starting,c,negative,negative,ES_purple,1,c,492,2215609,2216114,2216318
7,forth,13,gierig,IAT_green1.bmp,green,starting_melody,melody,starting,c,negative,positive,ES_purple,1,c,437,2217885,2218389,2218593
7,forth,14,witzig,IAT_yellow3.bmp,yellow,ending_melody,melody,ending,m,positive,negative,ES_purple,1,m,516,2220107,2220611,2220815
7,forth,15,streng,IAT_red3.bmp,red,starting_scream,scream,starting,c,negative,negative,ES_purple,1,c,335,2222406,2222910,2223114
7,forth,16,gierig,IAT_yellow4.bmp,yellow,ending_melody,melody,ending,c,negative,negative,ES_purple,1,c,542,2224526,2225030,2225234
7,forth,17,einsam,IAT_yellow2.bmp,yellow,ending_melody,melody,ending,c,negative,negative,ES_purple,0,m,456,2226854,2227358,2227562
7,forth,18,feige,IAT_purple4.bmp,purple,ending_scream,scream,ending,c,negative,positive,ES_purple,1,c,515,2229595,2230099,2230303
7,forth,19,streng,IAT_purple2.bmp,purple,ending_scream,scream,ending,c,negative,positive,ES_purple,1,c,444,2231894,2232398,2232602
7,forth,20,sozial,IAT_yellow4.bmp,yellow,ending_melody,melody,ending,m,positive,negative,ES_purple,1,m,587,2234122,2234626,2234830
7,forth,21,sanft,IAT_green4.bmp,green,starting_melody,melody,starting,m,positive,positive,ES_purple,1,m,548,2236493,2236998,2237202
7,forth,22,ehrlich,IAT_red1.bmp,red,starting_scream,scream,starting,m,positive,negative,ES_purple,0,c,446,2238825,2239329,2239533
7,forth,23,lustig,IAT_purple4.bmp,purple,ending_scream,scream,ending,m,positive,positive,ES_purple,1,m,642,2241555,2242059,2242263
7,forth,24,falsch,IAT_green1.bmp,green,starting_melody,melody,starting,c,negative,positive,ES_purple,1,c,471,2243980,2244484,2244688
7,forth,25,krank,IAT_green4.bmp,green,starting_melody,melody,starting,c,negative,positive,ES_purple,1,c,505,2246235,2246740,2246944
7,forth,26,sozial,IAT_red3.bmp,red,starting_scream,scream,starting,m,positive,negative,ES_purple,1,m,379,2248525,2249030,2249234
7,forth,27,sanft,IAT_red1.bmp,red,starting_scream,scream,starting,m,positive,negative,ES_purple,1,m,513,2250689,2251194,2251398
7,forth,28,gerecht,IAT_yellow2.bmp,yellow,ending_melody,melody,ending,m,positive,negative,ES_purple,1,m,803,2252987,2253491,2253695
7,forth,29,witzig,IAT_purple3.bmp,purple,ending_scream,scream,ending,m,positive,positive,ES_purple,1,m,974,2255572,2256076,2256280
7,forth,30,sozial,IAT_green1.bmp,green,starting_melody,melody,starting,m,positive,positive,ES_purple,1,m,975,2258329,2258833,2259037
7,forth,31,heiter,IAT_red2.bmp,red,starting_scream,scream,starting,m,positive,negative,ES_purple,1,m,603,2261088,2261593,2261797
7,forth,32,morsch,IAT_purple2.bmp,purple,ending_scream,scream,ending,c,negative,positive,ES_purple,1,c,595,2263476,2263980,2264184
7,forth,33,lästig,IAT_purple1.bmp,purple,ending_scream,scream,ending,c,negative,positive,ES_purple,1,c,581,2265856,2266361,2266565
7,forth,34,schön,IAT_green1.bmp,green,starting_melody,melody,starting,m,positive,positive,ES_purple,1,m,655,2268221,2268726,2268930
7,forth,35,human,IAT_green3.bmp,green,starting_melody,melody,starting,m,positive,positive,ES_purple,1,m,715,2270661,2271165,2271369
7,forth,36,einsam,IAT_green2.bmp,green,starting_melody,melody,starting,c,negative,positive,ES_purple,1,c,617,2273159,2273663,2273868
7,forth,37,brutal,IAT_red2.bmp,red,starting_scream,scream,starting,c,negative,negative,ES_purple,1,c,782,2275561,2276065,2276269
7,forth,38,kaputt,IAT_yellow1.bmp,yellow,ending_melody,melody,ending,c,negative,negative,ES_purple,1,c,469,2278127,2278631,2278835
7,forth,39,sanft,IAT_purple3.bmp,purple,ending_scream,scream,ending,m,positive,positive,ES_purple,1,m,584,2280378,2280882,2281086
7,forth,40,krank,IAT_purple4.bmp,purple,ending_scream,scream,ending,c,negative,positive,ES_purple,1,c,573,2282745,2283250,2283454
7,forth,41,gerecht,IAT_yellow4.bmp,yellow,ending_melody,melody,ending,m,positive,negative,ES_purple,1,m,763,2285104,2285608,2285812
7,forth,42,feige,IAT_purple3.bmp,purple,ending_scream,scream,ending,c,negative,positive,ES_purple,1,c,593,2287651,2288155,2288359
7,forth,43,kaputt,IAT_yellow2.bmp,yellow,ending_melody,melody,ending,c,negative,negative,ES_purple,1,c,590,2290029,2290533,2290737
7,forth,44,human,IAT_green1.bmp,green,starting_melody,melody,starting,m,positive,positive,ES_purple,1,m,527,2292402,2292907,2293111
7,forth,45,geizig,IAT_green2.bmp,green,starting_melody,melody,starting,c,negative,positive,ES_purple,1,c,523,2294714,2295218,2295422
7,forth,46,gerecht,IAT_purple3.bmp,purple,ending_scream,scream,ending,m,positive,positive,ES_purple,1,m,681,2297020,2297525,2297729
7,forth,47,munter,IAT_purple2.bmp,purple,ending_scream,scream,ending,m,positive,positive,ES_purple,1,m,620,2299486,2299990,2300194
7,forth,48,gesund,IAT_yellow3.bmp,yellow,ending_melody,melody,ending,m,positive,negative,ES_purple,1,m,599,2301890,2302395,2302599
7,forth,49,gerecht,IAT_yellow1.bmp,yellow,ending_melody,melody,ending,m,positive,negative,ES_purple,1,m,527,2304274,2304779,2304983
7,forth,50,einsam,IAT_yellow4.bmp,yellow,ending_melody,melody,ending,c,negative,negative,ES_purple,1,c,577,2306587,2307091,2307295
7,forth,51,gierig,IAT_green4.bmp,green,starting_melody,melody,starting,c,negative,positive,ES_purple,1,c,668,2308948,2309452,2309656
7,forth,52,teuer,IAT_green4.bmp,green,starting_melody,melody,starting,c,negative,positive,ES_purple,0,m,1013,2311400,2311904,2312108
7,forth,53,morsch,IAT_red2.bmp,red,starting_scream,scream,starting,c,negative,negative,ES_purple,1,c,494,2314697,2315201,2315405
7,forth,54,ehrlich,IAT_purple3.bmp,purple,ending_scream,scream,ending,m,positive,positive,ES_purple,1,m,823,2316975,2317479,2317683
7,forth,55,gierig,IAT_purple1.bmp,purple,ending_scream,scream,ending,c,negative,positive,ES_purple,1,c,513,2319584,2320088,2320292
7,forth,56,falsch,IAT_red4.bmp,red,starting_scream,scream,starting,c,negative,negative,ES_purple,1,c,603,2321881,2322385,2322589
7,forth,57,streng,IAT_red4.bmp,red,starting_scream,scream,starting,c,negative,negative,ES_purple,1,c,452,2324269,2324773,2324978
7,forth,58,heiter,IAT_red3.bmp,red,starting_scream,scream,starting,m,positive,negative,ES_purple,1,m,507,2326506,2327010,2327214
7,forth,59,human,IAT_red1.bmp,red,starting_scream,scream,starting,m,positive,negative,ES_purple,1,m,475,2328797,2329301,2329505
7,forth,60,feige,IAT_green2.bmp,green,starting_melody,melody,starting,c,negative,positive,ES_purple,1,c,512,2331056,2331560,2331764
7,forth,61,krank,IAT_green4.bmp,green,starting_melody,melody,starting,c,negative,positive,ES_purple,1,c,579,2333353,2333858,2334062
7,forth,62,witzig,IAT_green1.bmp,green,starting_melody,melody,starting,m,positive,positive,ES_purple,1,m,654,2335717,2336221,2336425
7,forth,63,geizig,IAT_yellow1.bmp,yellow,ending_melody,melody,ending,c,negative,negative,ES_purple,1,c,582,2338156,2338660,2338864
7,forth,64,sonnig,IAT_yellow2.bmp,yellow,ending_melody,melody,ending,m,positive,negative,ES_purple,1,m,534,2340523,2341028,2341232
7,forth,65,witzig,IAT_red3.bmp,red,starting_scream,scream,starting,m,positive,negative,ES_purple,1,m,632,2342842,2343346,2343550
7,forth,66,kaputt,IAT_red1.bmp,red,starting_scream,scream,starting,c,negative,negative,ES_purple,1,c,748,2345258,2345762,2345966
7,forth,67,geizig,IAT_red4.bmp,red,starting_scream,scream,starting,c,negative,negative,ES_purple,1,c,705,2347790,2348294,2348498
7,forth,68,brutal,IAT_yellow3.bmp,yellow,ending_melody,melody,ending,c,negative,negative,ES_purple,1,c,534,2350279,2350783,2350987
7,forth,69,schön,IAT_green3.bmp,green,starting_melody,melody,starting,m,positive,positive,ES_purple,1,m,452,2352596,2353100,2353304
7,forth,70,human,IAT_green3.bmp,green,starting_melody,melody,starting,m,positive,positive,ES_purple,0,c,383,2354832,2355337,2355541
7,forth,71,gesund,IAT_green3.bmp,green,starting_melody,melody,starting,m,positive,positive,ES_purple,1,m,458,2357500,2358004,2358208
7,forth,72,morsch,IAT_yellow4.bmp,yellow,ending_melody,melody,ending,c,negative,negative,ES_purple,1,c,556,2359743,2360248,2360452
7,forth,73,sonnig,IAT_green2.bmp,green,starting_melody,melody,starting,m,positive,positive,ES_purple,1,m,411,2362085,2362589,2362793
7,forth,74,krank,IAT_red2.bmp,red,starting_scream,scream,starting,c,negative,negative,ES_purple,1,c,551,2364281,2364785,2364989
7,forth,75,lustig,IAT_red3.bmp,red,starting_scream,scream,starting,m,positive,negative,ES_purple,1,m,536,2366616,2367120,2367324
7,forth,76,geizig,IAT_red2.bmp,red,starting_scream,scream,starting,c,negative,negative,ES_purple,1,c,941,2368935,2369440,2369644
7,forth,77,schön,IAT_green2.bmp,green,starting_melody,melody,starting,m,positive,positive,ES_purple,1,m,426,2371661,2372165,2372369
7,forth,78,lästig,IAT_purple2.bmp,purple,ending_scream,scream,ending,c,negative,positive,ES_purple,1,c,511,2373871,2374375,2374579
7,forth,79,streng,IAT_yellow2.bmp,yellow,ending_melody,melody,ending,c,negative,negative,ES_purple,1,c,452,2376166,2376670,2376874
7,forth,80,lästig,IAT_purple3.bmp,purple,ending_scream,scream,ending,c,negative,positive,ES_purple,1,c,488,2378403,2378907,2379111
7,forth,81,lustig,IAT_yellow3.bmp,yellow,ending_melody,melody,ending,m,positive,negative,ES_purple,1,m,508,2380675,2381179,2381383
7,forth,82,teuer,IAT_purple4.bmp,purple,ending_scream,scream,ending,c,negative,positive,ES_purple,1,c,490,2382966,2383471,2383675
7,forth,83,morsch,IAT_yellow2.bmp,yellow,ending_melody,melody,ending,c,negative,negative,ES_purple,1,c,484,2385241,2385745,2385949
7,forth,84,munter,IAT_red2.bmp,red,starting_scream,scream,starting,m,positive,negative,ES_purple,1,m,472,2387511,2388015,2388219
7,forth,85,lästig,IAT_green3.bmp,green,starting_melody,melody,starting,c,negative,positive,ES_purple,1,c,541,2389768,2390272,2390476
7,forth,86,teuer,IAT_yellow4.bmp,yellow,ending_melody,melody,ending,c,negative,negative,ES_purple,0,m,504,2392094,2392598,2392802
7,forth,87,schön,IAT_red1.bmp,red,starting_scream,scream,starting,m,positive,negative,ES_purple,1,m,420,2394884,2395388,2395592
7,forth,88,gesund,IAT_purple1.bmp,purple,ending_scream,scream,ending,m,positive,positive,ES_purple,1,m,583,2397088,2397593,2397797
7,forth,89,brutal,IAT_purple2.bmp,purple,ending_scream,scream,ending,c,negative,positive,ES_purple,1,c,537,2399456,2399960,2400164
7,forth,90,ehrlich,IAT_red4.bmp,red,starting_scream,scream,starting,m,positive,negative,ES_purple,1,m,444,2401778,2402282,2402486
7,forth,91,heiter,IAT_yellow1.bmp,yellow,ending_melody,melody,ending,m,positive,negative,ES_purple,1,m,695,2404007,2404511,2404715
7,forth,92,einsam,IAT_red1.bmp,red,starting_scream,scream,starting,c,negative,negative,ES_purple,1,c,528,2406487,2406991,2407195
7,forth,93,brutal,IAT_green2.bmp,green,starting_melody,melody,starting,c,negative,positive,ES_purple,1,c,490,2408799,2409303,2409508
7,forth,94,munter,IAT_purple1.bmp,purple,ending_scream,scream,ending,m,positive,positive,ES_purple,0,c,326,2411074,2411579,2411783
7,forth,95,falsch,IAT_yellow3.bmp,yellow,ending_melody,melody,ending,c,negative,negative,ES_purple,1,c,550,2413686,2414190,2414394
