subject_nr,block,trialnr,trial_target,trial_prime,prime_color,prime_role,prime_us,prime_relation,correct_response,target_valence,prime_valence,color_counter,correct_first_response,response_first_response,response_time_first_response,fixation_show,prime_show,target_show
104,first,0,geizig,IAT_yellow4.bmp,yellow,ending_melody,melody,ending,c,negative,negative,ES_purple,1,c,692,1428510,1429014,1429218
104,first,1,sanft,IAT_purple1.bmp,purple,ending_scream,scream,ending,m,positive,positive,ES_purple,1,m,576,1430985,1431490,1431694
104,first,2,gesund,IAT_purple3.bmp,purple,ending_scream,scream,ending,m,positive,positive,ES_purple,1,m,554,1433372,1433877,1434081
104,first,3,feige,IAT_green2.bmp,green,starting_melody,melody,starting,c,negative,positive,ES_purple,1,c,585,1435709,1436213,1436417
104,first,4,gerecht,IAT_yellow3.bmp,yellow,ending_melody,melody,ending,m,positive,negative,ES_purple,1,m,508,1438099,1438603,1438807
104,first,5,sonnig,IAT_purple4.bmp,purple,ending_scream,scream,ending,m,positive,positive,ES_purple,1,m,511,1440388,1440892,1441096
104,first,6,lästig,IAT_yellow4.bmp,yellow,ending_melody,melody,ending,c,negative,negative,ES_purple,1,c,528,1442681,1443185,1443389
104,first,7,lustig,IAT_green1.bmp,green,starting_melody,melody,starting,m,positive,positive,ES_purple,1,m,575,1444990,1445495,1445699
104,first,8,gierig,IAT_purple2.bmp,purple,ending_scream,scream,ending,c,negative,positive,ES_purple,1,c,573,1447348,1447852,1448056
104,first,9,witzig,IAT_yellow1.bmp,yellow,ending_melody,melody,ending,m,positive,negative,ES_purple,1,m,525,1449703,1450208,1450412
104,first,10,einsam,IAT_purple4.bmp,purple,ending_scream,scream,ending,c,negative,positive,ES_purple,1,c,687,1452010,1452514,1452718
104,first,11,sozial,IAT_yellow3.bmp,yellow,ending_melody,melody,ending,m,positive,negative,ES_purple,1,m,520,1454479,1454983,1455187
104,first,12,sanft,IAT_green1.bmp,green,starting_melody,melody,starting,m,positive,positive,ES_purple,1,m,561,1456780,1457284,1457488
104,first,13,ehrlich,IAT_yellow2.bmp,yellow,ending_melody,melody,ending,m,positive,negative,ES_purple,1,m,530,1459124,1459628,1459832
104,first,14,falsch,IAT_yellow4.bmp,yellow,ending_melody,melody,ending,c,negative,negative,ES_purple,1,c,574,1461436,1461940,1462144
104,first,15,kaputt,IAT_yellow2.bmp,yellow,ending_melody,melody,ending,c,negative,negative,ES_purple,0,m,656,1463793,1464297,1464501
104,first,16,lästig,IAT_red4.bmp,red,starting_scream,scream,starting,c,negative,negative,ES_purple,1,c,670,1466733,1467237,1467441
104,first,17,munter,IAT_yellow1.bmp,yellow,ending_melody,melody,ending,m,positive,negative,ES_purple,1,m,661,1469185,1469690,1469894
104,first,18,gierig,IAT_red2.bmp,red,starting_scream,scream,starting,c,negative,negative,ES_purple,1,c,742,1471644,1472149,1472353
104,first,19,witzig,IAT_yellow2.bmp,yellow,ending_melody,melody,ending,m,positive,negative,ES_purple,1,m,529,1474170,1474675,1474879
104,first,20,sozial,IAT_yellow3.bmp,yellow,ending_melody,melody,ending,m,positive,negative,ES_purple,1,m,604,1476482,1476986,1477190
104,first,21,schön,IAT_purple3.bmp,purple,ending_scream,scream,ending,m,positive,positive,ES_purple,1,m,526,1478869,1479373,1479577
104,first,22,gesund,IAT_red2.bmp,red,starting_scream,scream,starting,m,positive,negative,ES_purple,1,m,561,1481178,1481682,1481886
104,first,23,teuer,IAT_red2.bmp,red,starting_scream,scream,starting,c,negative,negative,ES_purple,0,m,460,1483523,1484027,1484231
104,first,24,morsch,IAT_green3.bmp,green,starting_melody,melody,starting,c,negative,positive,ES_purple,1,c,943,1486266,1486770,1486974
104,first,25,ehrlich,IAT_green1.bmp,green,starting_melody,melody,starting,m,positive,positive,ES_purple,1,m,605,1488992,1489496,1489700
104,first,26,munter,IAT_green2.bmp,green,starting_melody,melody,starting,m,positive,positive,ES_purple,1,m,454,1491379,1491883,1492087
104,first,27,gerecht,IAT_red2.bmp,red,starting_scream,scream,starting,m,positive,negative,ES_purple,1,m,461,1493616,1494121,1494325
104,first,28,einsam,IAT_purple3.bmp,purple,ending_scream,scream,ending,c,negative,positive,ES_purple,0,m,432,1495860,1496364,1496568
104,first,29,brutal,IAT_red2.bmp,red,starting_scream,scream,starting,c,negative,negative,ES_purple,1,c,540,1498576,1499080,1499284
104,first,30,heiter,IAT_yellow1.bmp,yellow,ending_melody,melody,ending,m,positive,negative,ES_purple,1,m,564,1500899,1501404,1501608
104,first,31,einsam,IAT_purple1.bmp,purple,ending_scream,scream,ending,c,negative,positive,ES_purple,1,c,752,1503247,1503751,1503955
104,first,32,brutal,IAT_green2.bmp,green,starting_melody,melody,starting,c,negative,positive,ES_purple,1,c,678,1505783,1506287,1506491
104,first,33,sanft,IAT_green3.bmp,green,starting_melody,melody,starting,m,positive,positive,ES_purple,1,m,609,1508244,1508749,1508953
104,first,34,falsch,IAT_yellow2.bmp,yellow,ending_melody,melody,ending,c,negative,negative,ES_purple,1,c,592,1510636,1511140,1511344
104,first,35,krank,IAT_purple3.bmp,purple,ending_scream,scream,ending,c,negative,positive,ES_purple,1,c,692,1513011,1513515,1513719
104,first,36,sonnig,IAT_purple3.bmp,purple,ending_scream,scream,ending,m,positive,positive,ES_purple,1,m,661,1515486,1515990,1516194
104,first,37,human,IAT_yellow4.bmp,yellow,ending_melody,melody,ending,m,positive,negative,ES_purple,1,m,768,1517931,1518435,1518639
104,first,38,munter,IAT_red1.bmp,red,starting_scream,scream,starting,m,positive,negative,ES_purple,0,c,792,1520483,1520987,1521191
104,first,39,morsch,IAT_purple2.bmp,purple,ending_scream,scream,ending,c,negative,positive,ES_purple,1,c,988,1523558,1524062,1524266
104,first,40,ehrlich,IAT_purple4.bmp,purple,ending_scream,scream,ending,m,positive,positive,ES_purple,1,m,662,1526328,1526832,1527037
104,first,41,sozial,IAT_green4.bmp,green,starting_melody,melody,starting,m,positive,positive,ES_purple,1,m,492,1528780,1529284,1529488
104,first,42,teuer,IAT_red3.bmp,red,starting_scream,scream,starting,c,negative,negative,ES_purple,1,c,734,1531056,1531560,1531764
104,first,43,streng,IAT_yellow2.bmp,yellow,ending_melody,melody,ending,c,negative,negative,ES_purple,1,c,1166,1533574,1534078,1534282
104,first,44,teuer,IAT_green2.bmp,green,starting_melody,melody,starting,c,negative,positive,ES_purple,1,c,838,1536523,1537027,1537231
104,first,45,witzig,IAT_red4.bmp,red,starting_scream,scream,starting,m,positive,negative,ES_purple,1,m,513,1539145,1539649,1539853
104,first,46,heiter,IAT_green1.bmp,green,starting_melody,melody,starting,m,positive,positive,ES_purple,1,m,1123,1541441,1541945,1542149
104,first,47,einsam,IAT_red3.bmp,red,starting_scream,scream,starting,c,negative,negative,ES_purple,1,c,721,1544346,1544850,1545054
104,first,48,feige,IAT_red1.bmp,red,starting_scream,scream,starting,c,negative,negative,ES_purple,1,c,1248,1546851,1547355,1547559
104,first,49,kaputt,IAT_purple4.bmp,purple,ending_scream,scream,ending,c,negative,positive,ES_purple,1,c,533,1549882,1550386,1550590
104,first,50,streng,IAT_purple2.bmp,purple,ending_scream,scream,ending,c,negative,positive,ES_purple,1,c,513,1552198,1552702,1552906
104,first,51,lästig,IAT_green4.bmp,green,starting_melody,melody,starting,c,negative,positive,ES_purple,1,c,496,1554494,1554999,1555203
104,first,52,sonnig,IAT_green3.bmp,green,starting_melody,melody,starting,m,positive,positive,ES_purple,1,m,571,1556775,1557279,1557483
104,first,53,heiter,IAT_red1.bmp,red,starting_scream,scream,starting,m,positive,negative,ES_purple,1,m,741,1559129,1559633,1559837
104,first,54,geizig,IAT_yellow1.bmp,yellow,ending_melody,melody,ending,c,negative,negative,ES_purple,1,c,569,1561654,1562158,1562362
104,first,55,schön,IAT_red3.bmp,red,starting_scream,scream,starting,m,positive,negative,ES_purple,1,m,523,1564007,1564511,1564715
104,first,56,gierig,IAT_purple4.bmp,purple,ending_scream,scream,ending,c,negative,positive,ES_purple,1,c,577,1566313,1566817,1567021
104,first,57,heiter,IAT_red1.bmp,red,starting_scream,scream,starting,m,positive,negative,ES_purple,1,m,555,1568674,1569178,1569382
104,first,58,feige,IAT_red1.bmp,red,starting_scream,scream,starting,c,negative,negative,ES_purple,1,c,598,1571013,1571517,1571721
104,first,59,human,IAT_red4.bmp,red,starting_scream,scream,starting,m,positive,negative,ES_purple,1,m,553,1573394,1573899,1574103
104,first,60,witzig,IAT_green2.bmp,green,starting_melody,melody,starting,m,positive,positive,ES_purple,0,c,717,1575730,1576234,1576438
104,first,61,brutal,IAT_green1.bmp,green,starting_melody,melody,starting,c,negative,positive,ES_purple,1,c,680,1578731,1579235,1579439
104,first,62,munter,IAT_red3.bmp,red,starting_scream,scream,starting,m,positive,negative,ES_purple,1,m,671,1581195,1581699,1581903
104,first,63,gesund,IAT_purple3.bmp,purple,ending_scream,scream,ending,m,positive,positive,ES_purple,1,m,502,1583649,1584153,1584357
104,first,64,sonnig,IAT_purple2.bmp,purple,ending_scream,scream,ending,m,positive,positive,ES_purple,1,m,438,1585934,1586439,1586643
104,first,65,krank,IAT_green4.bmp,green,starting_melody,melody,starting,c,negative,positive,ES_purple,1,c,648,1588156,1588660,1588864
104,first,66,sanft,IAT_yellow1.bmp,yellow,ending_melody,melody,ending,m,positive,negative,ES_purple,1,m,455,1590587,1591092,1591296
104,first,67,schön,IAT_purple1.bmp,purple,ending_scream,scream,ending,m,positive,positive,ES_purple,1,m,464,1592826,1593330,1593534
104,first,68,human,IAT_red3.bmp,red,starting_scream,scream,starting,m,positive,negative,ES_purple,1,m,453,1595074,1595578,1595782
104,first,69,gerecht,IAT_purple1.bmp,purple,ending_scream,scream,ending,m,positive,positive,ES_purple,1,m,524,1597311,1597815,1598019
104,first,70,morsch,IAT_red4.bmp,red,starting_scream,scream,starting,c,negative,negative,ES_purple,1,c,686,1599618,1600123,1600327
104,first,71,schön,IAT_green4.bmp,green,starting_melody,melody,starting,m,positive,positive,ES_purple,1,m,468,1602088,1602592,1602796
104,first,72,human,IAT_purple2.bmp,purple,ending_scream,scream,ending,m,positive,positive,ES_purple,1,m,536,1604339,1604844,1605048
104,first,73,lästig,IAT_green1.bmp,green,starting_melody,melody,starting,c,negative,positive,ES_purple,0,m,550,1606659,1607163,1607367
104,first,74,morsch,IAT_purple4.bmp,purple,ending_scream,scream,ending,c,negative,positive,ES_purple,1,c,538,1609493,1609997,1610201
104,first,75,gesund,IAT_purple1.bmp,purple,ending_scream,scream,ending,m,positive,positive,ES_purple,1,m,564,1611815,1612319,1612523
104,first,76,lustig,IAT_green3.bmp,green,starting_melody,melody,starting,m,positive,positive,ES_purple,1,m,563,1614163,1614667,1614871
104,first,77,gierig,IAT_yellow2.bmp,yellow,ending_melody,melody,ending,c,negative,negative,ES_purple,1,c,903,1616509,1617014,1617218
104,first,78,streng,IAT_yellow3.bmp,yellow,ending_melody,melody,ending,c,negative,negative,ES_purple,1,c,695,1619196,1619700,1619904
104,first,79,kaputt,IAT_green2.bmp,green,starting_melody,melody,starting,c,negative,positive,ES_purple,1,c,777,1621674,1622178,1622382
104,first,80,brutal,IAT_red4.bmp,red,starting_scream,scream,starting,c,negative,negative,ES_purple,1,c,948,1624235,1624739,1624943
104,first,81,krank,IAT_yellow1.bmp,yellow,ending_melody,melody,ending,c,negative,negative,ES_purple,1,c,495,1626966,1627470,1627674
104,first,82,falsch,IAT_yellow3.bmp,yellow,ending_melody,melody,ending,c,negative,negative,ES_purple,1,c,498,1629246,1629750,1629954
104,first,83,geizig,IAT_purple1.bmp,purple,ending_scream,scream,ending,c,negative,positive,ES_purple,1,c,587,1631527,1632032,1632237
104,first,84,gerecht,IAT_red1.bmp,red,starting_scream,scream,starting,m,positive,negative,ES_purple,0,c,433,1633899,1634403,1634608
104,first,85,teuer,IAT_green4.bmp,green,starting_melody,melody,starting,c,negative,positive,ES_purple,0,m,529,1636616,1637120,1637324
104,first,86,falsch,IAT_green4.bmp,green,starting_melody,melody,starting,c,negative,positive,ES_purple,1,c,735,1639428,1639932,1640136
104,first,87,krank,IAT_green3.bmp,green,starting_melody,melody,starting,c,negative,positive,ES_purple,1,c,544,1641946,1642450,1642654
104,first,88,lustig,IAT_yellow3.bmp,yellow,ending_melody,melody,ending,m,positive,negative,ES_purple,1,m,502,1644275,1644779,1644983
104,first,89,geizig,IAT_red2.bmp,red,starting_scream,scream,starting,c,negative,negative,ES_purple,1,c,667,1646560,1647065,1647269
104,first,90,streng,IAT_yellow4.bmp,yellow,ending_melody,melody,ending,c,negative,negative,ES_purple,1,c,694,1649013,1649517,1649721
104,first,91,feige,IAT_red4.bmp,red,starting_scream,scream,starting,c,negative,negative,ES_purple,1,c,502,1651490,1651995,1652199
104,first,92,sozial,IAT_red3.bmp,red,starting_scream,scream,starting,m,positive,negative,ES_purple,1,m,516,1653776,1654280,1654484
104,first,93,kaputt,IAT_purple2.bmp,purple,ending_scream,scream,ending,c,negative,positive,ES_purple,1,c,556,1656076,1656580,1656784
104,first,94,lustig,IAT_green3.bmp,green,starting_melody,melody,starting,m,positive,positive,ES_purple,1,m,469,1658416,1658920,1659124
104,first,95,ehrlich,IAT_yellow4.bmp,yellow,ending_melody,melody,ending,m,positive,negative,ES_purple,0,c,580,1660668,1661173,1661377
104,second,0,streng,IAT_green2.bmp,green,starting_melody,melody,starting,c,negative,positive,ES_purple,1,c,672,1675841,1676346,1676550
104,second,1,morsch,IAT_red2.bmp,red,starting_scream,scream,starting,c,negative,negative,ES_purple,1,c,489,1678298,1678802,1679006
104,second,2,teuer,IAT_red3.bmp,red,starting_scream,scream,starting,c,negative,negative,ES_purple,1,c,445,1680569,1681073,1681277
104,second,3,heiter,IAT_purple3.bmp,purple,ending_scream,scream,ending,m,positive,positive,ES_purple,1,m,666,1682796,1683301,1683505
104,second,4,gesund,IAT_green4.bmp,green,starting_melody,melody,starting,m,positive,positive,ES_purple,1,m,629,1685245,1685749,1685953
104,second,5,brutal,IAT_purple2.bmp,purple,ending_scream,scream,ending,c,negative,positive,ES_purple,1,c,624,1687656,1688161,1688365
104,second,6,heiter,IAT_yellow2.bmp,yellow,ending_melody,melody,ending,m,positive,negative,ES_purple,1,m,549,1690066,1690570,1690774
104,second,7,einsam,IAT_green3.bmp,green,starting_melody,melody,starting,c,negative,positive,ES_purple,1,c,600,1692398,1692902,1693106
104,second,8,human,IAT_red1.bmp,red,starting_scream,scream,starting,m,positive,negative,ES_purple,1,m,545,1694781,1695285,1695489
104,second,9,krank,IAT_yellow1.bmp,yellow,ending_melody,melody,ending,c,negative,negative,ES_purple,1,c,443,1697109,1697613,1697817
104,second,10,ehrlich,IAT_red1.bmp,red,starting_scream,scream,starting,m,positive,negative,ES_purple,1,m,634,1699336,1699840,1700044
104,second,11,lästig,IAT_green4.bmp,green,starting_melody,melody,starting,c,negative,positive,ES_purple,1,c,551,1701752,1702257,1702461
104,second,12,teuer,IAT_purple1.bmp,purple,ending_scream,scream,ending,c,negative,positive,ES_purple,0,m,458,1704087,1704591,1704795
104,second,13,gerecht,IAT_purple3.bmp,purple,ending_scream,scream,ending,m,positive,positive,ES_purple,1,m,640,1706829,1707333,1707537
104,second,14,krank,IAT_purple4.bmp,purple,ending_scream,scream,ending,c,negative,positive,ES_purple,1,c,527,1709252,1709757,1709961
104,second,15,feige,IAT_red3.bmp,red,starting_scream,scream,starting,c,negative,negative,ES_purple,0,m,724,1711564,1712068,1712272
104,second,16,streng,IAT_yellow4.bmp,yellow,ending_melody,melody,ending,c,negative,negative,ES_purple,1,c,583,1714571,1715075,1715280
104,second,17,sonnig,IAT_purple1.bmp,purple,ending_scream,scream,ending,m,positive,positive,ES_purple,1,m,592,1716938,1717443,1717647
104,second,18,gierig,IAT_red2.bmp,red,starting_scream,scream,starting,c,negative,negative,ES_purple,1,c,537,1719315,1719819,1720023
104,second,19,gesund,IAT_green3.bmp,green,starting_melody,melody,starting,m,positive,positive,ES_purple,1,m,794,1721635,1722140,1722344
104,second,20,schön,IAT_green2.bmp,green,starting_melody,melody,starting,m,positive,positive,ES_purple,1,m,564,1724213,1724717,1724921
104,second,21,falsch,IAT_purple4.bmp,purple,ending_scream,scream,ending,c,negative,positive,ES_purple,1,c,559,1726561,1727066,1727270
104,second,22,sonnig,IAT_purple1.bmp,purple,ending_scream,scream,ending,m,positive,positive,ES_purple,1,m,599,1728905,1729409,1729613
104,second,23,sanft,IAT_yellow1.bmp,yellow,ending_melody,melody,ending,m,positive,negative,ES_purple,1,m,546,1731287,1731791,1731995
104,second,24,morsch,IAT_red4.bmp,red,starting_scream,scream,starting,c,negative,negative,ES_purple,1,c,508,1733616,1734120,1734324
104,second,25,kaputt,IAT_yellow4.bmp,yellow,ending_melody,melody,ending,c,negative,negative,ES_purple,0,m,576,1735908,1736412,1736617
104,second,26,munter,IAT_yellow3.bmp,yellow,ending_melody,melody,ending,m,positive,negative,ES_purple,1,m,819,1738768,1739273,1739478
104,second,27,sanft,IAT_purple3.bmp,purple,ending_scream,scream,ending,m,positive,positive,ES_purple,1,m,638,1741372,1741877,1742081
104,second,28,lustig,IAT_green1.bmp,green,starting_melody,melody,starting,m,positive,positive,ES_purple,1,m,540,1743794,1744299,1744503
104,second,29,falsch,IAT_green3.bmp,green,starting_melody,melody,starting,c,negative,positive,ES_purple,1,c,660,1746118,1746622,1746826
104,second,30,geizig,IAT_purple3.bmp,purple,ending_scream,scream,ending,c,negative,positive,ES_purple,1,c,828,1748562,1749067,1749271
104,second,31,sozial,IAT_yellow1.bmp,yellow,ending_melody,melody,ending,m,positive,negative,ES_purple,1,m,714,1751176,1751680,1751884
104,second,32,gesund,IAT_green2.bmp,green,starting_melody,melody,starting,m,positive,positive,ES_purple,1,m,744,1753674,1754178,1754382
104,second,33,gierig,IAT_purple3.bmp,purple,ending_scream,scream,ending,c,negative,positive,ES_purple,1,c,639,1756200,1756704,1756908
104,second,34,munter,IAT_yellow4.bmp,yellow,ending_melody,melody,ending,m,positive,negative,ES_purple,1,m,449,1758623,1759127,1759331
104,second,35,sozial,IAT_red3.bmp,red,starting_scream,scream,starting,m,positive,negative,ES_purple,1,m,563,1760856,1761360,1761564
104,second,36,munter,IAT_purple3.bmp,purple,ending_scream,scream,ending,m,positive,positive,ES_purple,1,m,616,1763202,1763706,1763910
104,second,37,geizig,IAT_green2.bmp,green,starting_melody,melody,starting,c,negative,positive,ES_purple,1,c,659,1765601,1766106,1766310
104,second,38,lustig,IAT_red2.bmp,red,starting_scream,scream,starting,m,positive,negative,ES_purple,1,m,593,1768045,1768550,1768754
104,second,39,streng,IAT_green1.bmp,green,starting_melody,melody,starting,c,negative,positive,ES_purple,1,c,690,1770422,1770926,1771130
104,second,40,sanft,IAT_red2.bmp,red,starting_scream,scream,starting,m,positive,negative,ES_purple,1,m,525,1772896,1773400,1773604
104,second,41,lästig,IAT_green2.bmp,green,starting_melody,melody,starting,c,negative,positive,ES_purple,1,c,673,1775205,1775709,1775913
104,second,42,schön,IAT_purple2.bmp,purple,ending_scream,scream,ending,m,positive,positive,ES_purple,1,m,443,1777662,1778166,1778370
104,second,43,gerecht,IAT_green1.bmp,green,starting_melody,melody,starting,m,positive,positive,ES_purple,0,c,755,1779888,1780392,1780596
104,second,44,heiter,IAT_yellow2.bmp,yellow,ending_melody,melody,ending,m,positive,negative,ES_purple,1,m,616,1782926,1783430,1783634
104,second,45,witzig,IAT_red3.bmp,red,starting_scream,scream,starting,m,positive,negative,ES_purple,1,m,841,1785326,1785830,1786034
104,second,46,feige,IAT_purple2.bmp,purple,ending_scream,scream,ending,c,negative,positive,ES_purple,1,c,507,1787951,1788456,1788660
104,second,47,sozial,IAT_red3.bmp,red,starting_scream,scream,starting,m,positive,negative,ES_purple,1,m,518,1790244,1790748,1790952
104,second,48,falsch,IAT_green4.bmp,green,starting_melody,melody,starting,c,negative,positive,ES_purple,1,c,568,1792546,1793050,1793254
104,second,49,schön,IAT_yellow1.bmp,yellow,ending_melody,melody,ending,m,positive,negative,ES_purple,1,m,586,1794898,1795402,1795606
104,second,50,human,IAT_green4.bmp,green,starting_melody,melody,starting,m,positive,positive,ES_purple,1,m,592,1797267,1797772,1797976
104,second,51,gierig,IAT_green4.bmp,green,starting_melody,melody,starting,c,negative,positive,ES_purple,1,c,611,1799645,1800149,1800353
104,second,52,munter,IAT_red4.bmp,red,starting_scream,scream,starting,m,positive,negative,ES_purple,1,m,554,1802040,1802544,1802748
104,second,53,streng,IAT_yellow1.bmp,yellow,ending_melody,melody,ending,c,negative,negative,ES_purple,1,c,765,1804378,1804882,1805086
104,second,54,einsam,IAT_yellow2.bmp,yellow,ending_melody,melody,ending,c,negative,negative,ES_purple,0,m,576,1806926,1807430,1807634
104,second,55,heiter,IAT_purple4.bmp,purple,ending_scream,scream,ending,m,positive,positive,ES_purple,1,m,772,1809786,1810290,1810494
104,second,56,teuer,IAT_purple4.bmp,purple,ending_scream,scream,ending,c,negative,positive,ES_purple,1,c,868,1812341,1812845,1813049
104,second,57,sozial,IAT_red3.bmp,red,starting_scream,scream,starting,m,positive,negative,ES_purple,1,m,616,1814994,1815498,1815702
104,second,58,geizig,IAT_yellow3.bmp,yellow,ending_melody,melody,ending,c,negative,negative,ES_purple,1,c,734,1817395,1817899,1818103
104,second,59,gierig,IAT_red2.bmp,red,starting_scream,scream,starting,c,negative,negative,ES_purple,1,c,759,1819913,1820417,1820621
104,second,60,lästig,IAT_red4.bmp,red,starting_scream,scream,starting,c,negative,negative,ES_purple,1,c,709,1822455,1822960,1823164
104,second,61,schön,IAT_purple4.bmp,purple,ending_scream,scream,ending,m,positive,positive,ES_purple,1,m,587,1824948,1825452,1825656
104,second,62,brutal,IAT_yellow2.bmp,yellow,ending_melody,melody,ending,c,negative,negative,ES_purple,1,c,722,1827319,1827823,1828027
104,second,63,krank,IAT_red1.bmp,red,starting_scream,scream,starting,c,negative,negative,ES_purple,1,c,623,1829825,1830329,1830533
104,second,64,einsam,IAT_yellow3.bmp,yellow,ending_melody,melody,ending,c,negative,negative,ES_purple,0,m,515,1832233,1832737,1832941
104,second,65,human,IAT_red4.bmp,red,starting_scream,scream,starting,m,positive,negative,ES_purple,1,m,752,1835033,1835537,1835741
104,second,66,sanft,IAT_yellow4.bmp,yellow,ending_melody,melody,ending,m,positive,negative,ES_purple,1,m,711,1837568,1838072,1838276
104,second,67,feige,IAT_green1.bmp,green,starting_melody,melody,starting,c,negative,positive,ES_purple,1,c,600,1840063,1840568,1840772
104,second,68,einsam,IAT_green4.bmp,green,starting_melody,melody,starting,c,negative,positive,ES_purple,0,m,545,1842449,1842954,1843158
104,second,69,witzig,IAT_purple1.bmp,purple,ending_scream,scream,ending,m,positive,positive,ES_purple,1,m,751,1845279,1845783,1845987
104,second,70,sonnig,IAT_green1.bmp,green,starting_melody,melody,starting,m,positive,positive,ES_purple,1,m,710,1847814,1848319,1848523
104,second,71,lästig,IAT_red2.bmp,red,starting_scream,scream,starting,c,negative,negative,ES_purple,1,c,520,1850310,1850814,1851018
104,second,72,ehrlich,IAT_yellow1.bmp,yellow,ending_melody,melody,ending,m,positive,negative,ES_purple,1,m,541,1852615,1853119,1853323
104,second,73,sonnig,IAT_purple2.bmp,purple,ending_scream,scream,ending,m,positive,positive,ES_purple,1,m,474,1854941,1855446,1855650
104,second,74,kaputt,IAT_purple4.bmp,purple,ending_scream,scream,ending,c,negative,positive,ES_purple,1,c,431,1857200,1857704,1857908
104,second,75,gesund,IAT_yellow3.bmp,yellow,ending_melody,melody,ending,m,positive,negative,ES_purple,1,m,441,1859414,1859919,1860123
104,second,76,teuer,IAT_yellow2.bmp,yellow,ending_melody,melody,ending,c,negative,negative,ES_purple,0,m,518,1861641,1862145,1862349
104,second,77,morsch,IAT_red4.bmp,red,starting_scream,scream,starting,c,negative,negative,ES_purple,1,c,764,1864444,1864948,1865152
104,second,78,geizig,IAT_red1.bmp,red,starting_scream,scream,starting,c,negative,negative,ES_purple,1,c,605,1866992,1867496,1867700
104,second,79,gerecht,IAT_green1.bmp,green,starting_melody,melody,starting,m,positive,positive,ES_purple,1,m,484,1869381,1869885,1870089
104,second,80,feige,IAT_yellow4.bmp,yellow,ending_melody,melody,ending,c,negative,negative,ES_purple,1,c,653,1871649,1872153,1872357
104,second,81,witzig,IAT_yellow3.bmp,yellow,ending_melody,melody,ending,m,positive,negative,ES_purple,1,m,554,1874086,1874590,1874794
104,second,82,falsch,IAT_purple1.bmp,purple,ending_scream,scream,ending,c,negative,positive,ES_purple,1,c,523,1876425,1876929,1877133
104,second,83,ehrlich,IAT_green3.bmp,green,starting_melody,melody,starting,m,positive,positive,ES_purple,1,m,549,1878732,1879236,1879440
104,second,84,witzig,IAT_yellow3.bmp,yellow,ending_melody,melody,ending,m,positive,negative,ES_purple,1,m,542,1881065,1881570,1881774
104,second,85,human,IAT_red1.bmp,red,starting_scream,scream,starting,m,positive,negative,ES_purple,1,m,530,1883392,1883896,1884100
104,second,86,brutal,IAT_red4.bmp,red,starting_scream,scream,starting,c,negative,negative,ES_purple,1,c,496,1885706,1886211,1886415
104,second,87,kaputt,IAT_purple2.bmp,purple,ending_scream,scream,ending,c,negative,positive,ES_purple,1,c,524,1887986,1888491,1888695
104,second,88,brutal,IAT_purple2.bmp,purple,ending_scream,scream,ending,c,negative,positive,ES_purple,1,c,896,1890295,1890800,1891004
104,second,89,ehrlich,IAT_red1.bmp,red,starting_scream,scream,starting,m,positive,negative,ES_purple,1,m,609,1892975,1893480,1893684
104,second,90,krank,IAT_yellow2.bmp,yellow,ending_melody,melody,ending,c,negative,negative,ES_purple,1,c,601,1895369,1895874,1896078
104,second,91,lustig,IAT_purple1.bmp,purple,ending_scream,scream,ending,m,positive,positive,ES_purple,1,m,424,1897756,1898260,1898464
104,second,92,kaputt,IAT_yellow4.bmp,yellow,ending_melody,melody,ending,c,negative,negative,ES_purple,1,c,624,1899965,1900469,1900673
104,second,93,gerecht,IAT_green3.bmp,green,starting_melody,melody,starting,m,positive,positive,ES_purple,0,c,609,1902374,1902878,1903082
104,second,94,morsch,IAT_green2.bmp,green,starting_melody,melody,starting,c,negative,positive,ES_purple,1,c,528,1905266,1905771,1905975
104,second,95,lustig,IAT_green3.bmp,green,starting_melody,melody,starting,m,positive,positive,ES_purple,1,m,607,1907578,1908082,1908286
104,third,0,heiter,IAT_red3.bmp,red,starting_scream,scream,starting,m,positive,negative,ES_purple,0,None,1500,1916664,1917168,1917372
104,third,1,sanft,IAT_green1.bmp,green,starting_melody,melody,starting,m,positive,positive,ES_purple,1,m,699,1920448,1920952,1921156
104,third,2,gesund,IAT_red4.bmp,red,starting_scream,scream,starting,m,positive,negative,ES_purple,1,m,594,1922930,1923434,1923638
104,third,3,sozial,IAT_purple2.bmp,purple,ending_scream,scream,ending,m,positive,positive,ES_purple,0,c,519,1925308,1925812,1926016
104,third,4,schön,IAT_red3.bmp,red,starting_scream,scream,starting,m,positive,negative,ES_purple,1,m,420,1928111,1928615,1928819
104,third,5,human,IAT_yellow3.bmp,yellow,ending_melody,melody,ending,m,positive,negative,ES_purple,1,m,493,1930314,1930819,1931023
104,third,6,witzig,IAT_green3.bmp,green,starting_melody,melody,starting,m,positive,positive,ES_purple,1,m,451,1932593,1933097,1933301
104,third,7,sanft,IAT_red1.bmp,red,starting_scream,scream,starting,m,positive,negative,ES_purple,1,m,535,1934828,1935332,1935536
104,third,8,schön,IAT_purple3.bmp,purple,ending_scream,scream,ending,m,positive,positive,ES_purple,1,m,482,1937146,1937650,1937854
104,third,9,geizig,IAT_green2.bmp,green,starting_melody,melody,starting,c,negative,positive,ES_purple,1,c,491,1939411,1939916,1940120
104,third,10,morsch,IAT_green2.bmp,green,starting_melody,melody,starting,c,negative,positive,ES_purple,1,c,804,1941686,1942190,1942394
104,third,11,ehrlich,IAT_green1.bmp,green,starting_melody,melody,starting,m,positive,positive,ES_purple,1,m,491,1944273,1944777,1944981
104,third,12,einsam,IAT_green1.bmp,green,starting_melody,melody,starting,c,negative,positive,ES_purple,0,m,625,1946547,1947051,1947255
104,third,13,feige,IAT_purple1.bmp,purple,ending_scream,scream,ending,c,negative,positive,ES_purple,1,c,870,1949456,1949960,1950164
104,third,14,sanft,IAT_red2.bmp,red,starting_scream,scream,starting,m,positive,negative,ES_purple,1,m,835,1952110,1952614,1952818
104,third,15,gierig,IAT_green4.bmp,green,starting_melody,melody,starting,c,negative,positive,ES_purple,1,c,541,1954728,1955232,1955436
104,third,16,brutal,IAT_yellow1.bmp,yellow,ending_melody,melody,ending,c,negative,negative,ES_purple,1,c,567,1957053,1957557,1957761
104,third,17,lustig,IAT_red3.bmp,red,starting_scream,scream,starting,m,positive,negative,ES_purple,1,m,465,1959404,1959908,1960112
104,third,18,sozial,IAT_purple4.bmp,purple,ending_scream,scream,ending,m,positive,positive,ES_purple,1,m,506,1961653,1962157,1962361
104,third,19,kaputt,IAT_green3.bmp,green,starting_melody,melody,starting,c,negative,positive,ES_purple,1,c,514,1963942,1964447,1964651
104,third,20,ehrlich,IAT_green1.bmp,green,starting_melody,melody,starting,m,positive,positive,ES_purple,1,m,556,1966240,1966744,1966948
104,third,21,schön,IAT_purple2.bmp,purple,ending_scream,scream,ending,m,positive,positive,ES_purple,1,m,458,1968579,1969084,1969288
104,third,22,teuer,IAT_red4.bmp,red,starting_scream,scream,starting,c,negative,negative,ES_purple,0,m,435,1970821,1971326,1971530
104,third,23,gerecht,IAT_yellow3.bmp,yellow,ending_melody,melody,ending,m,positive,negative,ES_purple,0,c,1042,1973543,1974047,1974251
104,third,24,sonnig,IAT_green4.bmp,green,starting_melody,melody,starting,m,positive,positive,ES_purple,1,m,467,1976870,1977374,1977578
104,third,25,falsch,IAT_purple4.bmp,purple,ending_scream,scream,ending,c,negative,positive,ES_purple,1,c,727,1979120,1979624,1979828
104,third,26,ehrlich,IAT_green1.bmp,green,starting_melody,melody,starting,m,positive,positive,ES_purple,1,m,531,1981630,1982134,1982338
104,third,27,morsch,IAT_green3.bmp,green,starting_melody,melody,starting,c,negative,positive,ES_purple,0,m,786,1983946,1984450,1984654
104,third,28,sonnig,IAT_red4.bmp,red,starting_scream,scream,starting,m,positive,negative,ES_purple,1,m,525,1987015,1987520,1987724
104,third,29,heiter,IAT_purple4.bmp,purple,ending_scream,scream,ending,m,positive,positive,ES_purple,1,m,1267,1989324,1989828,1990032
104,third,30,lustig,IAT_yellow1.bmp,yellow,ending_melody,melody,ending,m,positive,negative,ES_purple,0,c,635,1992375,1992879,1993083
104,third,31,streng,IAT_red4.bmp,red,starting_scream,scream,starting,c,negative,negative,ES_purple,1,c,728,1995296,1995801,1996005
104,third,32,morsch,IAT_yellow4.bmp,yellow,ending_melody,melody,ending,c,negative,negative,ES_purple,1,c,714,1997810,1998314,1998518
104,third,33,falsch,IAT_yellow3.bmp,yellow,ending_melody,melody,ending,c,negative,negative,ES_purple,1,c,652,2000307,2000811,2001015
104,third,34,gesund,IAT_purple1.bmp,purple,ending_scream,scream,ending,m,positive,positive,ES_purple,1,m,700,2002744,2003248,2003452
104,third,35,gierig,IAT_yellow2.bmp,yellow,ending_melody,melody,ending,c,negative,negative,ES_purple,1,c,710,2005228,2005733,2005937
104,third,36,gerecht,IAT_green3.bmp,green,starting_melody,melody,starting,m,positive,positive,ES_purple,0,c,621,2007723,2008227,2008431
104,third,37,feige,IAT_yellow2.bmp,yellow,ending_melody,melody,ending,c,negative,negative,ES_purple,0,m,766,2010627,2011131,2011335
104,third,38,witzig,IAT_purple3.bmp,purple,ending_scream,scream,ending,m,positive,positive,ES_purple,1,m,641,2013676,2014180,2014384
104,third,39,einsam,IAT_green4.bmp,green,starting_melody,melody,starting,c,negative,positive,ES_purple,1,c,820,2016101,2016605,2016809
104,third,40,krank,IAT_red2.bmp,red,starting_scream,scream,starting,c,negative,negative,ES_purple,1,c,744,2018705,2019209,2019413
104,third,41,teuer,IAT_purple4.bmp,purple,ending_scream,scream,ending,c,negative,positive,ES_purple,1,c,1323,2021234,2021739,2021943
104,third,42,lästig,IAT_green4.bmp,green,starting_melody,melody,starting,c,negative,positive,ES_purple,1,c,789,2024341,2024846,2025050
104,third,43,heiter,IAT_purple3.bmp,purple,ending_scream,scream,ending,m,positive,positive,ES_purple,0,c,590,2026915,2027422,2027626
104,third,44,kaputt,IAT_yellow2.bmp,yellow,ending_melody,melody,ending,c,negative,negative,ES_purple,1,c,788,2029794,2030299,2030503
104,third,45,sozial,IAT_red1.bmp,red,starting_scream,scream,starting,m,positive,negative,ES_purple,1,m,620,2032366,2032870,2033074
104,third,46,munter,IAT_red1.bmp,red,starting_scream,scream,starting,m,positive,negative,ES_purple,0,c,825,2034770,2035275,2035479
104,third,47,feige,IAT_purple3.bmp,purple,ending_scream,scream,ending,c,negative,positive,ES_purple,1,c,907,2037882,2038386,2038590
104,third,48,morsch,IAT_green4.bmp,green,starting_melody,melody,starting,c,negative,positive,ES_purple,1,c,835,2040573,2041078,2041282
104,third,49,krank,IAT_red2.bmp,red,starting_scream,scream,starting,c,negative,negative,ES_purple,1,c,699,2043193,2043697,2043901
104,third,50,lustig,IAT_yellow1.bmp,yellow,ending_melody,melody,ending,m,positive,negative,ES_purple,1,m,704,2045676,2046180,2046384
104,third,51,streng,IAT_green2.bmp,green,starting_melody,melody,starting,c,negative,positive,ES_purple,1,c,746,2048163,2048668,2048872
104,third,52,geizig,IAT_red3.bmp,red,starting_scream,scream,starting,c,negative,negative,ES_purple,1,c,679,2050694,2051198,2051402
104,third,53,krank,IAT_purple2.bmp,purple,ending_scream,scream,ending,c,negative,positive,ES_purple,1,c,785,2053156,2053660,2053864
104,third,54,streng,IAT_yellow2.bmp,yellow,ending_melody,melody,ending,c,negative,negative,ES_purple,1,c,698,2055725,2056230,2056434
104,third,55,lästig,IAT_yellow4.bmp,yellow,ending_melody,melody,ending,c,negative,negative,ES_purple,1,c,535,2058208,2058713,2058917
104,third,56,sanft,IAT_yellow1.bmp,yellow,ending_melody,melody,ending,m,positive,negative,ES_purple,0,c,533,2060528,2061033,2061237
104,third,57,human,IAT_purple1.bmp,purple,ending_scream,scream,ending,m,positive,positive,ES_purple,1,m,1043,2063346,2063850,2064054
104,third,58,falsch,IAT_green1.bmp,green,starting_melody,melody,starting,c,negative,positive,ES_purple,1,c,510,2066174,2066678,2066882
104,third,59,teuer,IAT_red1.bmp,red,starting_scream,scream,starting,c,negative,negative,ES_purple,0,m,501,2068468,2068973,2069177
104,third,60,streng,IAT_red4.bmp,red,starting_scream,scream,starting,c,negative,negative,ES_purple,1,c,641,2071254,2071758,2071962
104,third,61,krank,IAT_purple4.bmp,purple,ending_scream,scream,ending,c,negative,positive,ES_purple,1,c,572,2073679,2074183,2074387
104,third,62,kaputt,IAT_green2.bmp,green,starting_melody,melody,starting,c,negative,positive,ES_purple,1,c,818,2076034,2076539,2076743
104,third,63,gesund,IAT_red3.bmp,red,starting_scream,scream,starting,m,positive,negative,ES_purple,0,c,577,2078637,2079142,2079346
104,third,64,sozial,IAT_yellow1.bmp,yellow,ending_melody,melody,ending,m,positive,negative,ES_purple,1,m,611,2081500,2082004,2082208
104,third,65,brutal,IAT_purple1.bmp,purple,ending_scream,scream,ending,c,negative,positive,ES_purple,0,m,763,2083895,2084400,2084604
104,third,66,gerecht,IAT_purple1.bmp,purple,ending_scream,scream,ending,m,positive,positive,ES_purple,0,c,737,2086944,2087449,2087653
104,third,67,sonnig,IAT_purple1.bmp,purple,ending_scream,scream,ending,m,positive,positive,ES_purple,1,m,1065,2089967,2090472,2090676
104,third,68,geizig,IAT_purple4.bmp,purple,ending_scream,scream,ending,c,negative,positive,ES_purple,1,c,618,2092817,2093321,2093525
104,third,69,witzig,IAT_yellow2.bmp,yellow,ending_melody,melody,ending,m,positive,negative,ES_purple,1,m,657,2095218,2095722,2095926
104,third,70,ehrlich,IAT_red1.bmp,red,starting_scream,scream,starting,m,positive,negative,ES_purple,1,m,620,2097658,2098163,2098367
104,third,71,kaputt,IAT_red4.bmp,red,starting_scream,scream,starting,c,negative,negative,ES_purple,1,c,784,2100064,2100568,2100772
104,third,72,sonnig,IAT_yellow3.bmp,yellow,ending_melody,melody,ending,m,positive,negative,ES_purple,1,m,537,2102632,2103136,2103340
104,third,73,munter,IAT_green4.bmp,green,starting_melody,melody,starting,m,positive,positive,ES_purple,0,c,602,2104955,2105459,2105663
104,third,74,lästig,IAT_yellow3.bmp,yellow,ending_melody,melody,ending,c,negative,negative,ES_purple,1,c,697,2107843,2108347,2108551
104,third,75,brutal,IAT_yellow4.bmp,yellow,ending_melody,melody,ending,c,negative,negative,ES_purple,0,m,1230,2110325,2110829,2111033
104,third,76,lästig,IAT_red2.bmp,red,starting_scream,scream,starting,c,negative,negative,ES_purple,1,c,640,2113838,2114342,2114546
104,third,77,gesund,IAT_yellow3.bmp,yellow,ending_melody,melody,ending,m,positive,negative,ES_purple,1,m,642,2116263,2116767,2116971
104,third,78,einsam,IAT_purple2.bmp,purple,ending_scream,scream,ending,c,negative,positive,ES_purple,1,c,619,2118689,2119193,2119397
104,third,79,human,IAT_yellow4.bmp,yellow,ending_melody,melody,ending,m,positive,negative,ES_purple,1,m,698,2121094,2121598,2121802
104,third,80,gierig,IAT_purple3.bmp,purple,ending_scream,scream,ending,c,negative,positive,ES_purple,1,c,502,2123577,2124081,2124285
104,third,81,witzig,IAT_green3.bmp,green,starting_melody,melody,starting,m,positive,positive,ES_purple,1,m,615,2125864,2126368,2126572
104,third,82,geizig,IAT_purple2.bmp,purple,ending_scream,scream,ending,c,negative,positive,ES_purple,1,c,692,2128265,2128769,2128973
104,third,83,munter,IAT_purple3.bmp,purple,ending_scream,scream,ending,m,positive,positive,ES_purple,1,m,525,2130741,2131245,2131449
104,third,84,heiter,IAT_green2.bmp,green,starting_melody,melody,starting,m,positive,positive,ES_purple,0,c,822,2133050,2133554,2133758
104,third,85,einsam,IAT_yellow4.bmp,yellow,ending_melody,melody,ending,c,negative,negative,ES_purple,0,m,659,2136156,2136661,2136865
104,third,86,gerecht,IAT_red2.bmp,red,starting_scream,scream,starting,m,positive,negative,ES_purple,1,m,938,2139101,2139605,2139809
104,third,87,human,IAT_yellow4.bmp,yellow,ending_melody,melody,ending,m,positive,negative,ES_purple,1,m,668,2141824,2142328,2142532
104,third,88,schön,IAT_yellow2.bmp,yellow,ending_melody,melody,ending,m,positive,negative,ES_purple,1,m,759,2144277,2144781,2144985
104,third,89,teuer,IAT_red1.bmp,red,starting_scream,scream,starting,c,negative,negative,ES_purple,1,c,1047,2146821,2147325,2147529
104,third,90,brutal,IAT_purple2.bmp,purple,ending_scream,scream,ending,c,negative,positive,ES_purple,1,c,749,2149654,2150158,2150362
104,third,91,feige,IAT_yellow1.bmp,yellow,ending_melody,melody,ending,c,negative,negative,ES_purple,1,c,953,2152188,2152692,2152896
104,third,92,munter,IAT_green3.bmp,green,starting_melody,melody,starting,m,positive,positive,ES_purple,1,m,681,2154925,2155430,2155634
104,third,93,falsch,IAT_red3.bmp,red,starting_scream,scream,starting,c,negative,negative,ES_purple,1,c,562,2157393,2157898,2158102
104,third,94,gierig,IAT_red2.bmp,red,starting_scream,scream,starting,c,negative,negative,ES_purple,1,c,771,2159741,2160245,2160449
104,third,95,lustig,IAT_green2.bmp,green,starting_melody,melody,starting,m,positive,positive,ES_purple,1,m,638,2162296,2162800,2163004
104,forth,0,geizig,IAT_green1.bmp,green,starting_melody,melody,starting,c,negative,positive,ES_purple,1,c,874,2170771,2171276,2171480
104,forth,1,sanft,IAT_red1.bmp,red,starting_scream,scream,starting,m,positive,negative,ES_purple,1,m,557,2173431,2173936,2174140
104,forth,2,gesund,IAT_yellow3.bmp,yellow,ending_melody,melody,ending,m,positive,negative,ES_purple,1,m,560,2175773,2176278,2176482
104,forth,3,streng,IAT_yellow4.bmp,yellow,ending_melody,melody,ending,c,negative,negative,ES_purple,1,c,498,2178118,2178623,2178827
104,forth,4,human,IAT_red2.bmp,red,starting_scream,scream,starting,m,positive,negative,ES_purple,0,c,536,2180401,2180905,2181109
104,forth,5,ehrlich,IAT_green1.bmp,green,starting_melody,melody,starting,m,positive,positive,ES_purple,1,m,557,2183222,2183726,2183930
104,forth,6,gesund,IAT_green1.bmp,green,starting_melody,melody,starting,m,positive,positive,ES_purple,1,m,484,2185562,2186066,2186270
104,forth,7,heiter,IAT_green1.bmp,green,starting_melody,melody,starting,m,positive,positive,ES_purple,1,m,497,2187829,2188333,2188537
104,forth,8,sonnig,IAT_red1.bmp,red,starting_scream,scream,starting,m,positive,negative,ES_purple,1,m,514,2190109,2190613,2190817
104,forth,9,munter,IAT_purple1.bmp,purple,ending_scream,scream,ending,m,positive,positive,ES_purple,1,m,470,2192407,2192911,2193115
104,forth,10,lästig,IAT_yellow4.bmp,yellow,ending_melody,melody,ending,c,negative,negative,ES_purple,1,c,769,2194661,2195165,2195369
104,forth,11,gerecht,IAT_yellow3.bmp,yellow,ending_melody,melody,ending,m,positive,negative,ES_purple,1,m,1120,2197214,2197719,2197923
104,forth,12,krank,IAT_purple2.bmp,purple,ending_scream,scream,ending,c,negative,positive,ES_purple,1,c,491,2200119,2200623,2200827
104,forth,13,gierig,IAT_green3.bmp,green,starting_melody,melody,starting,c,negative,positive,ES_purple,0,m,574,2202395,2202899,2203103
104,forth,14,sozial,IAT_yellow1.bmp,yellow,ending_melody,melody,ending,m,positive,negative,ES_purple,1,m,783,2205254,2205758,2205962
104,forth,15,ehrlich,IAT_red3.bmp,red,starting_scream,scream,starting,m,positive,negative,ES_purple,1,m,546,2207821,2208325,2208529
104,forth,16,heiter,IAT_purple1.bmp,purple,ending_scream,scream,ending,m,positive,positive,ES_purple,1,m,508,2210151,2210655,2210859
104,forth,17,falsch,IAT_red2.bmp,red,starting_scream,scream,starting,c,negative,negative,ES_purple,1,c,481,2212443,2212948,2213152
104,forth,18,teuer,IAT_purple1.bmp,purple,ending_scream,scream,ending,c,negative,positive,ES_purple,1,c,646,2214709,2215214,2215418
104,forth,19,streng,IAT_green2.bmp,green,starting_melody,melody,starting,c,negative,positive,ES_purple,1,c,744,2217139,2217643,2217847
104,forth,20,kaputt,IAT_red2.bmp,red,starting_scream,scream,starting,c,negative,negative,ES_purple,1,c,782,2219667,2220171,2220375
104,forth,21,brutal,IAT_green2.bmp,green,starting_melody,melody,starting,c,negative,positive,ES_purple,1,c,782,2222233,2222737,2222941
104,forth,22,teuer,IAT_green3.bmp,green,starting_melody,melody,starting,c,negative,positive,ES_purple,1,c,680,2224801,2225305,2225509
104,forth,23,einsam,IAT_purple2.bmp,purple,ending_scream,scream,ending,c,negative,positive,ES_purple,1,c,719,2227265,2227769,2227973
104,forth,24,lästig,IAT_yellow1.bmp,yellow,ending_melody,melody,ending,c,negative,negative,ES_purple,1,c,624,2229768,2230273,2230477
104,forth,25,ehrlich,IAT_green1.bmp,green,starting_melody,melody,starting,m,positive,positive,ES_purple,0,c,856,2232176,2232680,2232884
104,forth,26,falsch,IAT_green4.bmp,green,starting_melody,melody,starting,c,negative,positive,ES_purple,1,c,634,2235316,2235820,2236024
104,forth,27,geizig,IAT_red1.bmp,red,starting_scream,scream,starting,c,negative,negative,ES_purple,1,c,752,2237735,2238239,2238443
104,forth,28,sanft,IAT_purple4.bmp,purple,ending_scream,scream,ending,m,positive,positive,ES_purple,1,m,1205,2240273,2240777,2240981
104,forth,29,gesund,IAT_yellow1.bmp,yellow,ending_melody,melody,ending,m,positive,negative,ES_purple,1,m,1068,2243264,2243768,2243972
104,forth,30,streng,IAT_yellow3.bmp,yellow,ending_melody,melody,ending,c,negative,negative,ES_purple,1,c,1045,2246116,2246620,2246824
104,forth,31,sonnig,IAT_yellow1.bmp,yellow,ending_melody,melody,ending,m,positive,negative,ES_purple,1,m,890,2248945,2249449,2249653
104,forth,32,sozial,IAT_yellow2.bmp,yellow,ending_melody,melody,ending,m,positive,negative,ES_purple,1,m,1077,2251618,2252122,2252326
104,forth,33,schön,IAT_purple1.bmp,purple,ending_scream,scream,ending,m,positive,positive,ES_purple,1,m,890,2254479,2254984,2255188
104,forth,34,feige,IAT_red4.bmp,red,starting_scream,scream,starting,c,negative,negative,ES_purple,1,c,661,2257155,2257659,2257863
104,forth,35,human,IAT_purple1.bmp,purple,ending_scream,scream,ending,m,positive,positive,ES_purple,1,m,647,2259601,2260105,2260309
104,forth,36,einsam,IAT_purple4.bmp,purple,ending_scream,scream,ending,c,negative,positive,ES_purple,1,c,713,2262032,2262536,2262740
104,forth,37,geizig,IAT_green4.bmp,green,starting_melody,melody,starting,c,negative,positive,ES_purple,1,c,968,2264529,2265033,2265237
104,forth,38,witzig,IAT_yellow4.bmp,yellow,ending_melody,melody,ending,m,positive,negative,ES_purple,1,m,689,2267282,2267786,2267990
104,forth,39,kaputt,IAT_red1.bmp,red,starting_scream,scream,starting,c,negative,negative,ES_purple,1,c,729,2269756,2270260,2270464
104,forth,40,einsam,IAT_red3.bmp,red,starting_scream,scream,starting,c,negative,negative,ES_purple,1,c,904,2272270,2272774,2272978
104,forth,41,morsch,IAT_green2.bmp,green,starting_melody,melody,starting,c,negative,positive,ES_purple,1,c,807,2274958,2275462,2275666
104,forth,42,streng,IAT_yellow2.bmp,yellow,ending_melody,melody,ending,c,negative,negative,ES_purple,1,c,687,2277549,2278054,2278258
104,forth,43,brutal,IAT_yellow4.bmp,yellow,ending_melody,melody,ending,c,negative,negative,ES_purple,1,c,784,2280022,2280526,2280730
104,forth,44,sanft,IAT_red1.bmp,red,starting_scream,scream,starting,m,positive,negative,ES_purple,1,m,630,2282589,2283093,2283297
104,forth,45,lästig,IAT_yellow3.bmp,yellow,ending_melody,melody,ending,c,negative,negative,ES_purple,1,c,583,2285004,2285508,2285712
104,forth,46,heiter,IAT_purple3.bmp,purple,ending_scream,scream,ending,m,positive,positive,ES_purple,1,m,771,2287371,2287875,2288079
104,forth,47,gierig,IAT_green4.bmp,green,starting_melody,melody,starting,c,negative,positive,ES_purple,1,c,1305,2289926,2290430,2290634
104,forth,48,gesund,IAT_red4.bmp,red,starting_scream,scream,starting,m,positive,negative,ES_purple,1,m,983,2293015,2293520,2293724
104,forth,49,sozial,IAT_yellow3.bmp,yellow,ending_melody,melody,ending,m,positive,negative,ES_purple,1,m,669,2295784,2296288,2296492
104,forth,50,munter,IAT_green3.bmp,green,starting_melody,melody,starting,m,positive,positive,ES_purple,1,m,476,2298238,2298743,2298948
104,forth,51,schön,IAT_purple2.bmp,purple,ending_scream,scream,ending,m,positive,positive,ES_purple,1,m,446,2300501,2301006,2301210
104,forth,52,teuer,IAT_purple4.bmp,purple,ending_scream,scream,ending,c,negative,positive,ES_purple,1,c,525,2302732,2303237,2303441
104,forth,53,krank,IAT_red4.bmp,red,starting_scream,scream,starting,c,negative,negative,ES_purple,1,c,552,2305042,2305547,2305751
104,forth,54,falsch,IAT_yellow4.bmp,yellow,ending_melody,melody,ending,c,negative,negative,ES_purple,1,c,462,2307378,2307882,2308086
104,forth,55,krank,IAT_yellow2.bmp,yellow,ending_melody,melody,ending,c,negative,negative,ES_purple,1,c,445,2309625,2310129,2310333
104,forth,56,einsam,IAT_red3.bmp,red,starting_scream,scream,starting,c,negative,negative,ES_purple,1,c,639,2311855,2312359,2312563
104,forth,57,feige,IAT_purple1.bmp,purple,ending_scream,scream,ending,c,negative,positive,ES_purple,1,c,436,2314279,2314783,2314988
104,forth,58,morsch,IAT_yellow2.bmp,yellow,ending_melody,melody,ending,c,negative,negative,ES_purple,1,c,459,2316501,2317005,2317209
104,forth,59,munter,IAT_green4.bmp,green,starting_melody,melody,starting,m,positive,positive,ES_purple,0,c,444,2318744,2319249,2319453
104,forth,60,feige,IAT_green4.bmp,green,starting_melody,melody,starting,c,negative,positive,ES_purple,1,c,809,2321473,2321978,2322182
104,forth,61,schön,IAT_green4.bmp,green,starting_melody,melody,starting,m,positive,positive,ES_purple,1,m,539,2324067,2324572,2324776
104,forth,62,heiter,IAT_yellow1.bmp,yellow,ending_melody,melody,ending,m,positive,negative,ES_purple,1,m,780,2326392,2326896,2327100
104,forth,63,sonnig,IAT_yellow2.bmp,yellow,ending_melody,melody,ending,m,positive,negative,ES_purple,1,m,654,2328956,2329460,2329664
104,forth,64,brutal,IAT_green2.bmp,green,starting_melody,melody,starting,c,negative,positive,ES_purple,1,c,1494,2331394,2331898,2332102
104,forth,65,witzig,IAT_green3.bmp,green,starting_melody,melody,starting,m,positive,positive,ES_purple,1,m,534,2334672,2335177,2335381
104,forth,66,lustig,IAT_red3.bmp,red,starting_scream,scream,starting,m,positive,negative,ES_purple,1,m,520,2336992,2337496,2337700
104,forth,67,geizig,IAT_purple2.bmp,purple,ending_scream,scream,ending,c,negative,positive,ES_purple,1,c,593,2339297,2339801,2340005
104,forth,68,human,IAT_purple3.bmp,purple,ending_scream,scream,ending,m,positive,positive,ES_purple,1,m,649,2341674,2342179,2342383
104,forth,69,witzig,IAT_purple3.bmp,purple,ending_scream,scream,ending,m,positive,positive,ES_purple,1,m,526,2344109,2344613,2344817
104,forth,70,lustig,IAT_purple3.bmp,purple,ending_scream,scream,ending,m,positive,positive,ES_purple,1,m,575,2346419,2346923,2347127
104,forth,71,gierig,IAT_red2.bmp,red,starting_scream,scream,starting,c,negative,negative,ES_purple,0,m,655,2348779,2349284,2349488
104,forth,72,feige,IAT_purple4.bmp,purple,ending_scream,scream,ending,c,negative,positive,ES_purple,1,c,607,2351719,2352223,2352427
104,forth,73,human,IAT_purple2.bmp,purple,ending_scream,scream,ending,m,positive,positive,ES_purple,1,m,678,2354111,2354615,2354819
104,forth,74,schön,IAT_red3.bmp,red,starting_scream,scream,starting,m,positive,negative,ES_purple,1,m,556,2356574,2357078,2357282
104,forth,75,witzig,IAT_red1.bmp,red,starting_scream,scream,starting,m,positive,negative,ES_purple,1,m,593,2358915,2359419,2359623
104,forth,76,morsch,IAT_purple3.bmp,purple,ending_scream,scream,ending,c,negative,positive,ES_purple,1,c,593,2361292,2361797,2362001
104,forth,77,gerecht,IAT_green2.bmp,green,starting_melody,melody,starting,m,positive,positive,ES_purple,1,m,625,2363671,2364175,2364379
104,forth,78,lästig,IAT_purple2.bmp,purple,ending_scream,scream,ending,c,negative,positive,ES_purple,1,c,873,2366081,2366585,2366789
104,forth,79,lustig,IAT_purple4.bmp,purple,ending_scream,scream,ending,m,positive,positive,ES_purple,1,m,579,2368738,2369242,2369446
104,forth,80,gerecht,IAT_green2.bmp,green,starting_melody,melody,starting,m,positive,positive,ES_purple,0,c,573,2371101,2371605,2371809
104,forth,81,lustig,IAT_yellow4.bmp,yellow,ending_melody,melody,ending,m,positive,negative,ES_purple,1,m,616,2373959,2374463,2374667
104,forth,82,falsch,IAT_red4.bmp,red,starting_scream,scream,starting,c,negative,negative,ES_purple,1,c,564,2376359,2376863,2377067
104,forth,83,sanft,IAT_green3.bmp,green,starting_melody,melody,starting,m,positive,positive,ES_purple,1,m,584,2378710,2379214,2379418
104,forth,84,teuer,IAT_yellow2.bmp,yellow,ending_melody,melody,ending,c,negative,negative,ES_purple,1,c,813,2381078,2381582,2381786
104,forth,85,kaputt,IAT_purple4.bmp,purple,ending_scream,scream,ending,c,negative,positive,ES_purple,1,c,834,2383676,2384180,2384384
104,forth,86,morsch,IAT_green1.bmp,green,starting_melody,melody,starting,c,negative,positive,ES_purple,1,c,582,2386296,2386800,2387004
104,forth,87,munter,IAT_red4.bmp,red,starting_scream,scream,starting,m,positive,negative,ES_purple,1,m,844,2388664,2389168,2389372
104,forth,88,sozial,IAT_green3.bmp,green,starting_melody,melody,starting,m,positive,positive,ES_purple,0,c,1046,2391293,2391798,2392002
104,forth,89,gierig,IAT_red4.bmp,red,starting_scream,scream,starting,c,negative,negative,ES_purple,1,c,814,2394626,2395130,2395334
104,forth,90,brutal,IAT_yellow1.bmp,yellow,ending_melody,melody,ending,c,negative,negative,ES_purple,0,m,999,2397225,2397729,2397933
104,forth,91,kaputt,IAT_red2.bmp,red,starting_scream,scream,starting,c,negative,negative,ES_purple,1,c,692,2400509,2401013,2401217
104,forth,92,ehrlich,IAT_red2.bmp,red,starting_scream,scream,starting,m,positive,negative,ES_purple,1,m,693,2402986,2403490,2403694
104,forth,93,gerecht,IAT_yellow3.bmp,yellow,ending_melody,melody,ending,m,positive,negative,ES_purple,0,c,796,2405463,2405968,2406172
104,forth,94,sonnig,IAT_red3.bmp,red,starting_scream,scream,starting,m,positive,negative,ES_purple,1,m,591,2408545,2409049,2409253
104,forth,95,krank,IAT_purple3.bmp,purple,ending_scream,scream,ending,c,negative,positive,ES_purple,1,c,528,2410921,2411426,2411630
