subject_nr,block,trialnr,trial_target,trial_prime,prime_color,prime_role,prime_us,prime_relation,correct_response,target_valence,prime_valence,color_counter,correct_first_response,response_first_response,response_time_first_response,fixation_show,prime_show,target_show
21,first,0,heiter,IAT_purple1.bmp,purple,starting_melody,melody,starting,m,positive,positive,ES_red,1,m,632,1436310,1436814,1437018
21,first,1,krank,IAT_red3.bmp,red,ending_scream,scream,ending,c,negative,positive,ES_red,1,c,612,1438723,1439227,1439431
21,first,2,lustig,IAT_red1.bmp,red,ending_scream,scream,ending,m,positive,positive,ES_red,1,m,542,1441116,1441620,1441824
21,first,3,falsch,IAT_purple1.bmp,purple,starting_melody,melody,starting,c,negative,positive,ES_red,1,c,705,1443439,1443943,1444147
21,first,4,heiter,IAT_red3.bmp,red,ending_scream,scream,ending,m,positive,positive,ES_red,1,m,434,1445925,1446430,1446634
21,first,5,sozial,IAT_yellow3.bmp,yellow,starting_scream,scream,starting,m,positive,negative,ES_red,1,m,552,1448141,1448645,1448849
21,first,6,brutal,IAT_red1.bmp,red,ending_scream,scream,ending,c,negative,positive,ES_red,1,c,436,1450474,1450978,1451182
21,first,7,lustig,IAT_green1.bmp,green,ending_melody,melody,ending,m,positive,negative,ES_red,1,m,543,1452691,1453195,1453399
21,first,8,kaputt,IAT_red2.bmp,red,ending_scream,scream,ending,c,negative,positive,ES_red,1,c,721,1455015,1455520,1455724
21,first,9,human,IAT_green2.bmp,green,ending_melody,melody,ending,m,positive,negative,ES_red,1,m,712,1457517,1458021,1458225
21,first,10,feige,IAT_purple2.bmp,purple,starting_melody,melody,starting,c,negative,positive,ES_red,1,c,855,1460010,1460514,1460718
21,first,11,geizig,IAT_green3.bmp,green,ending_melody,melody,ending,c,negative,negative,ES_red,1,c,762,1462647,1463152,1463356
21,first,12,heiter,IAT_green1.bmp,green,ending_melody,melody,ending,m,positive,negative,ES_red,1,m,478,1465190,1465694,1465898
21,first,13,feige,IAT_red1.bmp,red,ending_scream,scream,ending,c,negative,positive,ES_red,1,c,564,1467449,1467954,1468158
21,first,14,sanft,IAT_green3.bmp,green,ending_melody,melody,ending,m,positive,negative,ES_red,1,m,587,1469795,1470299,1470503
21,first,15,falsch,IAT_yellow1.bmp,yellow,starting_scream,scream,starting,c,negative,negative,ES_red,1,c,565,1472163,1472667,1472871
21,first,16,gerecht,IAT_purple4.bmp,purple,starting_melody,melody,starting,m,positive,positive,ES_red,1,m,557,1474508,1475012,1475216
21,first,17,morsch,IAT_red4.bmp,red,ending_scream,scream,ending,c,negative,positive,ES_red,0,m,565,1476845,1477350,1477554
21,first,18,lästig,IAT_purple2.bmp,purple,starting_melody,melody,starting,c,negative,positive,ES_red,0,m,766,1479692,1480197,1480401
21,first,19,kaputt,IAT_yellow1.bmp,yellow,starting_scream,scream,starting,c,negative,negative,ES_red,1,c,962,1482741,1483245,1483449
21,first,20,human,IAT_yellow2.bmp,yellow,starting_scream,scream,starting,m,positive,negative,ES_red,1,m,1111,1485485,1485989,1486193
21,first,21,lästig,IAT_red2.bmp,red,ending_scream,scream,ending,c,negative,positive,ES_red,1,c,996,1488378,1488882,1489086
21,first,22,einsam,IAT_green1.bmp,green,ending_melody,melody,ending,c,negative,negative,ES_red,1,c,996,1491154,1491659,1491863
21,first,23,krank,IAT_purple4.bmp,purple,starting_melody,melody,starting,c,negative,positive,ES_red,1,c,892,1493932,1494436,1494640
21,first,24,sonnig,IAT_purple3.bmp,purple,starting_melody,melody,starting,m,positive,positive,ES_red,1,m,648,1496606,1497110,1497314
21,first,25,lästig,IAT_red2.bmp,red,ending_scream,scream,ending,c,negative,positive,ES_red,1,c,775,1499036,1499540,1499744
21,first,26,gerecht,IAT_purple2.bmp,purple,starting_melody,melody,starting,m,positive,positive,ES_red,1,m,670,1501592,1502096,1502300
21,first,27,gierig,IAT_yellow2.bmp,yellow,starting_scream,scream,starting,c,negative,negative,ES_red,1,c,629,1504044,1504548,1504752
21,first,28,ehrlich,IAT_yellow1.bmp,yellow,starting_scream,scream,starting,m,positive,negative,ES_red,1,m,684,1506455,1506960,1507164
21,first,29,teuer,IAT_purple3.bmp,purple,starting_melody,melody,starting,c,negative,positive,ES_red,0,m,695,1508920,1509425,1509629
21,first,30,gesund,IAT_red1.bmp,red,ending_scream,scream,ending,m,positive,positive,ES_red,1,m,619,1511897,1512401,1512605
21,first,31,lästig,IAT_purple2.bmp,purple,starting_melody,melody,starting,c,negative,positive,ES_red,1,c,617,1514297,1514801,1515005
21,first,32,sozial,IAT_yellow4.bmp,yellow,starting_scream,scream,starting,m,positive,negative,ES_red,1,m,656,1516697,1517201,1517405
21,first,33,witzig,IAT_purple4.bmp,purple,starting_melody,melody,starting,m,positive,positive,ES_red,1,m,711,1519133,1519637,1519841
21,first,34,gerecht,IAT_red3.bmp,red,ending_scream,scream,ending,m,positive,positive,ES_red,1,m,628,1521625,1522130,1522334
21,first,35,falsch,IAT_green4.bmp,green,ending_melody,melody,ending,c,negative,negative,ES_red,1,c,730,1524035,1524539,1524743
21,first,36,geizig,IAT_green2.bmp,green,ending_melody,melody,ending,c,negative,negative,ES_red,1,c,594,1526546,1527050,1527254
21,first,37,morsch,IAT_green3.bmp,green,ending_melody,melody,ending,c,negative,negative,ES_red,1,c,614,1528922,1529430,1529637
21,first,38,sozial,IAT_green3.bmp,green,ending_melody,melody,ending,m,positive,negative,ES_red,1,m,680,1531326,1531830,1532034
21,first,39,schön,IAT_yellow1.bmp,yellow,starting_scream,scream,starting,m,positive,negative,ES_red,1,m,560,1533788,1534292,1534496
21,first,40,feige,IAT_purple4.bmp,purple,starting_melody,melody,starting,c,negative,positive,ES_red,1,c,803,1536128,1536632,1536836
21,first,41,sanft,IAT_green2.bmp,green,ending_melody,melody,ending,m,positive,negative,ES_red,1,m,693,1538711,1539216,1539420
21,first,42,gierig,IAT_green2.bmp,green,ending_melody,melody,ending,c,negative,negative,ES_red,1,c,754,1541186,1541690,1541894
21,first,43,kaputt,IAT_yellow4.bmp,yellow,starting_scream,scream,starting,c,negative,negative,ES_red,1,c,617,1543722,1544226,1544430
21,first,44,munter,IAT_purple1.bmp,purple,starting_melody,melody,starting,m,positive,positive,ES_red,1,m,555,1546121,1546625,1546829
21,first,45,teuer,IAT_yellow3.bmp,yellow,starting_scream,scream,starting,c,negative,negative,ES_red,1,c,824,1548456,1548961,1549165
21,first,46,sanft,IAT_red4.bmp,red,ending_scream,scream,ending,m,positive,positive,ES_red,1,m,604,1551064,1551568,1551772
21,first,47,feige,IAT_green4.bmp,green,ending_melody,melody,ending,c,negative,negative,ES_red,1,c,621,1553450,1553954,1554158
21,first,48,gerecht,IAT_green1.bmp,green,ending_melody,melody,ending,m,positive,negative,ES_red,1,m,936,1555851,1556356,1556560
21,first,49,ehrlich,IAT_green3.bmp,green,ending_melody,melody,ending,m,positive,negative,ES_red,1,m,708,1558568,1559073,1559277
21,first,50,gesund,IAT_purple1.bmp,purple,starting_melody,melody,starting,m,positive,positive,ES_red,1,m,642,1561057,1561561,1561765
21,first,51,lustig,IAT_red3.bmp,red,ending_scream,scream,ending,m,positive,positive,ES_red,1,m,551,1563480,1563984,1564189
21,first,52,krank,IAT_yellow2.bmp,yellow,starting_scream,scream,starting,c,negative,negative,ES_red,1,c,567,1565814,1566319,1566523
21,first,53,brutal,IAT_red3.bmp,red,ending_scream,scream,ending,c,negative,positive,ES_red,1,c,551,1568163,1568668,1568872
21,first,54,munter,IAT_yellow2.bmp,yellow,starting_scream,scream,starting,m,positive,negative,ES_red,1,m,636,1570497,1571001,1571205
21,first,55,gesund,IAT_red1.bmp,red,ending_scream,scream,ending,m,positive,positive,ES_red,1,m,583,1572914,1573418,1573622
21,first,56,teuer,IAT_purple3.bmp,purple,starting_melody,melody,starting,c,negative,positive,ES_red,1,c,582,1575278,1575782,1575986
21,first,57,streng,IAT_red2.bmp,red,ending_scream,scream,ending,c,negative,positive,ES_red,1,c,852,1577641,1578146,1578350
21,first,58,munter,IAT_purple2.bmp,purple,starting_melody,melody,starting,m,positive,positive,ES_red,1,m,656,1580276,1580780,1580984
21,first,59,heiter,IAT_yellow3.bmp,yellow,starting_scream,scream,starting,m,positive,negative,ES_red,1,m,775,1582714,1583219,1583423
21,first,60,einsam,IAT_green4.bmp,green,ending_melody,melody,ending,c,negative,negative,ES_red,1,c,672,1585272,1585776,1585980
21,first,61,sonnig,IAT_purple3.bmp,purple,starting_melody,melody,starting,m,positive,positive,ES_red,1,m,511,1587726,1588230,1588434
21,first,62,lustig,IAT_red2.bmp,red,ending_scream,scream,ending,m,positive,positive,ES_red,1,m,848,1590018,1590522,1590726
21,first,63,brutal,IAT_yellow4.bmp,yellow,starting_scream,scream,starting,c,negative,negative,ES_red,1,c,524,1592647,1593152,1593356
21,first,64,geizig,IAT_red4.bmp,red,ending_scream,scream,ending,c,negative,positive,ES_red,1,c,701,1594953,1595458,1595662
21,first,65,einsam,IAT_red4.bmp,red,ending_scream,scream,ending,c,negative,positive,ES_red,1,c,939,1597437,1597941,1598145
21,first,66,witzig,IAT_green4.bmp,green,ending_melody,melody,ending,m,positive,negative,ES_red,1,m,640,1600157,1600661,1600865
21,first,67,streng,IAT_green2.bmp,green,ending_melody,melody,ending,c,negative,negative,ES_red,1,c,689,1602578,1603082,1603286
21,first,68,sanft,IAT_green4.bmp,green,ending_melody,melody,ending,m,positive,negative,ES_red,1,m,597,1605048,1605553,1605757
21,first,69,ehrlich,IAT_red1.bmp,red,ending_scream,scream,ending,m,positive,positive,ES_red,1,m,638,1607426,1607931,1608135
21,first,70,human,IAT_red4.bmp,red,ending_scream,scream,ending,m,positive,positive,ES_red,1,m,835,1609846,1610351,1610555
21,first,71,kaputt,IAT_yellow4.bmp,yellow,starting_scream,scream,starting,c,negative,negative,ES_red,1,c,618,1612464,1612969,1613173
21,first,72,schön,IAT_purple3.bmp,purple,starting_melody,melody,starting,m,positive,positive,ES_red,1,m,600,1614865,1615369,1615573
21,first,73,witzig,IAT_green3.bmp,green,ending_melody,melody,ending,m,positive,negative,ES_red,1,m,667,1617246,1617750,1617954
21,first,74,gierig,IAT_purple4.bmp,purple,starting_melody,melody,starting,c,negative,positive,ES_red,1,c,640,1619694,1620198,1620402
21,first,75,schön,IAT_purple1.bmp,purple,starting_melody,melody,starting,m,positive,positive,ES_red,1,m,563,1622116,1622621,1622825
21,first,76,teuer,IAT_red4.bmp,red,ending_scream,scream,ending,c,negative,positive,ES_red,0,m,701,1624461,1624966,1625170
21,first,77,munter,IAT_yellow1.bmp,yellow,starting_scream,scream,starting,m,positive,negative,ES_red,1,m,663,1627445,1627949,1628153
21,first,78,geizig,IAT_purple2.bmp,purple,starting_melody,melody,starting,c,negative,positive,ES_red,1,c,741,1629890,1630394,1630598
21,first,79,streng,IAT_purple1.bmp,purple,starting_melody,melody,starting,c,negative,positive,ES_red,1,c,567,1632413,1632917,1633121
21,first,80,sonnig,IAT_red3.bmp,red,ending_scream,scream,ending,m,positive,positive,ES_red,1,m,980,1634761,1635266,1635470
21,first,81,morsch,IAT_yellow2.bmp,yellow,starting_scream,scream,starting,c,negative,negative,ES_red,1,c,634,1637524,1638028,1638232
21,first,82,gesund,IAT_yellow1.bmp,yellow,starting_scream,scream,starting,m,positive,negative,ES_red,1,m,752,1639940,1640444,1640648
21,first,83,krank,IAT_purple4.bmp,purple,starting_melody,melody,starting,c,negative,positive,ES_red,1,c,1086,1642473,1642977,1643181
21,first,84,witzig,IAT_yellow3.bmp,yellow,starting_scream,scream,starting,m,positive,negative,ES_red,1,m,598,1645340,1645845,1646049
21,first,85,ehrlich,IAT_green1.bmp,green,ending_melody,melody,ending,m,positive,negative,ES_red,1,m,631,1647721,1648225,1648429
21,first,86,sonnig,IAT_red2.bmp,red,ending_scream,scream,ending,m,positive,positive,ES_red,1,m,575,1650134,1650639,1650843
21,first,87,morsch,IAT_yellow3.bmp,yellow,starting_scream,scream,starting,c,negative,negative,ES_red,1,c,657,1652492,1652997,1653201
21,first,88,gierig,IAT_green2.bmp,green,ending_melody,melody,ending,c,negative,negative,ES_red,1,c,634,1654931,1655436,1655640
21,first,89,schön,IAT_yellow3.bmp,yellow,starting_scream,scream,starting,m,positive,negative,ES_red,1,m,628,1657347,1657852,1658056
21,first,90,einsam,IAT_yellow4.bmp,yellow,starting_scream,scream,starting,c,negative,negative,ES_red,1,c,637,1659757,1660262,1660466
21,first,91,streng,IAT_yellow2.bmp,yellow,starting_scream,scream,starting,c,negative,negative,ES_red,1,c,847,1662177,1662681,1662885
21,first,92,falsch,IAT_green4.bmp,green,ending_melody,melody,ending,c,negative,negative,ES_red,1,c,656,1664807,1665311,1665515
21,first,93,human,IAT_yellow4.bmp,yellow,starting_scream,scream,starting,m,positive,negative,ES_red,1,m,765,1667245,1667749,1667953
21,first,94,brutal,IAT_green1.bmp,green,ending_melody,melody,ending,c,negative,negative,ES_red,1,c,657,1669792,1670296,1670500
21,first,95,sozial,IAT_purple3.bmp,purple,starting_melody,melody,starting,m,positive,positive,ES_red,1,m,738,1672231,1672735,1672939
21,second,0,krank,IAT_purple2.bmp,purple,starting_melody,melody,starting,c,negative,positive,ES_red,1,c,697,1687558,1688062,1688266
21,second,1,morsch,IAT_purple4.bmp,purple,starting_melody,melody,starting,c,negative,positive,ES_red,1,c,566,1690036,1690540,1690744
21,second,2,heiter,IAT_green3.bmp,green,ending_melody,melody,ending,m,positive,negative,ES_red,1,m,545,1692384,1692888,1693092
21,second,3,ehrlich,IAT_green1.bmp,green,ending_melody,melody,ending,m,positive,negative,ES_red,1,m,566,1694709,1695214,1695418
21,second,4,geizig,IAT_green4.bmp,green,ending_melody,melody,ending,c,negative,negative,ES_red,1,c,621,1697057,1697561,1697765
21,second,5,sonnig,IAT_green3.bmp,green,ending_melody,melody,ending,m,positive,negative,ES_red,1,m,563,1699459,1699963,1700167
21,second,6,morsch,IAT_purple1.bmp,purple,starting_melody,melody,starting,c,negative,positive,ES_red,1,c,719,1701803,1702307,1702511
21,second,7,streng,IAT_yellow2.bmp,yellow,starting_scream,scream,starting,c,negative,negative,ES_red,1,c,669,1704304,1704808,1705012
21,second,8,gierig,IAT_red4.bmp,red,ending_scream,scream,ending,c,negative,positive,ES_red,0,m,701,1706755,1707259,1707463
21,second,9,sozial,IAT_purple1.bmp,purple,starting_melody,melody,starting,m,positive,positive,ES_red,1,m,1437,1709738,1710242,1710446
21,second,10,lästig,IAT_red2.bmp,red,ending_scream,scream,ending,c,negative,positive,ES_red,1,c,627,1712956,1713460,1713664
21,second,11,ehrlich,IAT_red3.bmp,red,ending_scream,scream,ending,m,positive,positive,ES_red,0,c,622,1715365,1715869,1716073
21,second,12,geizig,IAT_purple3.bmp,purple,starting_melody,melody,starting,c,negative,positive,ES_red,1,c,771,1718267,1718772,1718976
21,second,13,gesund,IAT_red4.bmp,red,ending_scream,scream,ending,m,positive,positive,ES_red,1,m,559,1720819,1721324,1721529
21,second,14,sozial,IAT_yellow2.bmp,yellow,starting_scream,scream,starting,m,positive,negative,ES_red,1,m,746,1723162,1723666,1723870
21,second,15,teuer,IAT_purple2.bmp,purple,starting_melody,melody,starting,c,negative,positive,ES_red,1,c,910,1725690,1726194,1726398
21,second,16,witzig,IAT_purple2.bmp,purple,starting_melody,melody,starting,m,positive,positive,ES_red,1,m,780,1728382,1728886,1729090
21,second,17,schön,IAT_yellow3.bmp,yellow,starting_scream,scream,starting,m,positive,negative,ES_red,1,m,635,1730943,1731447,1731651
21,second,18,kaputt,IAT_green4.bmp,green,ending_melody,melody,ending,c,negative,negative,ES_red,1,c,511,1733358,1733862,1734066
21,second,19,morsch,IAT_red4.bmp,red,ending_scream,scream,ending,c,negative,positive,ES_red,1,c,681,1735651,1736155,1736359
21,second,20,ehrlich,IAT_yellow2.bmp,yellow,starting_scream,scream,starting,m,positive,negative,ES_red,1,m,648,1738114,1738619,1738823
21,second,21,feige,IAT_purple4.bmp,purple,starting_melody,melody,starting,c,negative,positive,ES_red,1,c,566,1740545,1741049,1741253
21,second,22,falsch,IAT_green2.bmp,green,ending_melody,melody,ending,c,negative,negative,ES_red,1,c,643,1742891,1743395,1743599
21,second,23,teuer,IAT_green2.bmp,green,ending_melody,melody,ending,c,negative,negative,ES_red,1,c,840,1745316,1745820,1746024
21,second,24,einsam,IAT_yellow1.bmp,yellow,starting_scream,scream,starting,c,negative,negative,ES_red,1,c,939,1747938,1748442,1748646
21,second,25,gierig,IAT_yellow2.bmp,yellow,starting_scream,scream,starting,c,negative,negative,ES_red,1,c,544,1750659,1751164,1751368
21,second,26,sonnig,IAT_green1.bmp,green,ending_melody,melody,ending,m,positive,negative,ES_red,1,m,582,1752986,1753490,1753694
21,second,27,streng,IAT_purple4.bmp,purple,starting_melody,melody,starting,c,negative,positive,ES_red,1,c,591,1755349,1755854,1756059
21,second,28,heiter,IAT_purple1.bmp,purple,starting_melody,melody,starting,m,positive,positive,ES_red,1,m,760,1757724,1758228,1758432
21,second,29,lustig,IAT_yellow1.bmp,yellow,starting_scream,scream,starting,m,positive,negative,ES_red,1,m,1014,1760265,1760770,1760974
21,second,30,falsch,IAT_green4.bmp,green,ending_melody,melody,ending,c,negative,negative,ES_red,1,c,678,1763061,1763565,1763769
21,second,31,feige,IAT_purple2.bmp,purple,starting_melody,melody,starting,c,negative,positive,ES_red,1,c,830,1765521,1766025,1766229
21,second,32,heiter,IAT_yellow4.bmp,yellow,starting_scream,scream,starting,m,positive,negative,ES_red,1,m,703,1768133,1768637,1768841
21,second,33,gierig,IAT_red4.bmp,red,ending_scream,scream,ending,c,negative,positive,ES_red,1,c,588,1770617,1771122,1771326
21,second,34,schön,IAT_purple2.bmp,purple,starting_melody,melody,starting,m,positive,positive,ES_red,1,m,1090,1772986,1773491,1773695
21,second,35,sanft,IAT_green3.bmp,green,ending_melody,melody,ending,m,positive,negative,ES_red,1,m,632,1775859,1776364,1776568
21,second,36,ehrlich,IAT_purple3.bmp,purple,starting_melody,melody,starting,m,positive,positive,ES_red,1,m,661,1778273,1778778,1778982
21,second,37,munter,IAT_yellow3.bmp,yellow,starting_scream,scream,starting,m,positive,negative,ES_red,1,m,624,1780717,1781221,1781425
21,second,38,sozial,IAT_green1.bmp,green,ending_melody,melody,ending,m,positive,negative,ES_red,1,m,702,1783122,1783626,1783830
21,second,39,gerecht,IAT_yellow4.bmp,yellow,starting_scream,scream,starting,m,positive,negative,ES_red,1,m,662,1785606,1786110,1786314
21,second,40,munter,IAT_red2.bmp,red,ending_scream,scream,ending,m,positive,positive,ES_red,1,m,543,1788050,1788554,1788758
21,second,41,witzig,IAT_yellow3.bmp,yellow,starting_scream,scream,starting,m,positive,negative,ES_red,1,m,562,1790375,1790879,1791083
21,second,42,sanft,IAT_red1.bmp,red,ending_scream,scream,ending,m,positive,positive,ES_red,1,m,554,1792719,1793223,1793427
21,second,43,kaputt,IAT_purple1.bmp,purple,starting_melody,melody,starting,c,negative,positive,ES_red,1,c,624,1795055,1795559,1795763
21,second,44,witzig,IAT_purple1.bmp,purple,starting_melody,melody,starting,m,positive,positive,ES_red,1,m,639,1797461,1797965,1798169
21,second,45,streng,IAT_yellow4.bmp,yellow,starting_scream,scream,starting,c,negative,negative,ES_red,1,c,525,1799882,1800386,1800590
21,second,46,human,IAT_red1.bmp,red,ending_scream,scream,ending,m,positive,positive,ES_red,1,m,656,1802188,1802692,1802896
21,second,47,falsch,IAT_yellow4.bmp,yellow,starting_scream,scream,starting,c,negative,negative,ES_red,1,c,470,1804626,1805130,1805334
21,second,48,einsam,IAT_green1.bmp,green,ending_melody,melody,ending,c,negative,negative,ES_red,1,c,588,1806877,1807382,1807586
21,second,49,geizig,IAT_green3.bmp,green,ending_melody,melody,ending,c,negative,negative,ES_red,1,c,526,1809246,1809751,1809955
21,second,50,brutal,IAT_yellow1.bmp,yellow,starting_scream,scream,starting,c,negative,negative,ES_red,1,c,539,1811555,1812060,1812264
21,second,51,schön,IAT_green4.bmp,green,ending_melody,melody,ending,m,positive,negative,ES_red,1,m,506,1813877,1814381,1814585
21,second,52,gierig,IAT_red3.bmp,red,ending_scream,scream,ending,c,negative,positive,ES_red,1,c,609,1816165,1816669,1816873
21,second,53,streng,IAT_green4.bmp,green,ending_melody,melody,ending,c,negative,negative,ES_red,1,c,654,1818556,1819060,1819264
21,second,54,human,IAT_purple4.bmp,purple,starting_melody,melody,starting,m,positive,positive,ES_red,1,m,615,1820991,1821496,1821700
21,second,55,munter,IAT_red3.bmp,red,ending_scream,scream,ending,m,positive,positive,ES_red,1,m,753,1823388,1823893,1824097
21,second,56,kaputt,IAT_red3.bmp,red,ending_scream,scream,ending,c,negative,positive,ES_red,1,c,535,1825924,1826430,1826634
21,second,57,lustig,IAT_purple3.bmp,purple,starting_melody,melody,starting,m,positive,positive,ES_red,1,m,588,1828244,1828749,1828953
21,second,58,falsch,IAT_red2.bmp,red,ending_scream,scream,ending,c,negative,positive,ES_red,1,c,557,1830615,1831119,1831323
21,second,59,gerecht,IAT_green1.bmp,green,ending_melody,melody,ending,m,positive,negative,ES_red,1,m,655,1832955,1833459,1833663
21,second,60,lästig,IAT_yellow4.bmp,yellow,starting_scream,scream,starting,c,negative,negative,ES_red,1,c,596,1835392,1835897,1836101
21,second,61,feige,IAT_purple4.bmp,purple,starting_melody,melody,starting,c,negative,positive,ES_red,1,c,521,1837770,1838275,1838479
21,second,62,gesund,IAT_red2.bmp,red,ending_scream,scream,ending,m,positive,positive,ES_red,1,m,710,1840074,1840579,1840783
21,second,63,sozial,IAT_yellow1.bmp,yellow,starting_scream,scream,starting,m,positive,negative,ES_red,1,m,940,1842567,1843071,1843275
21,second,64,brutal,IAT_red2.bmp,red,ending_scream,scream,ending,c,negative,positive,ES_red,1,c,867,1845289,1845793,1845997
21,second,65,lustig,IAT_green2.bmp,green,ending_melody,melody,ending,m,positive,negative,ES_red,1,m,996,1847937,1848441,1848645
21,second,66,sanft,IAT_red3.bmp,red,ending_scream,scream,ending,m,positive,positive,ES_red,0,c,732,1850716,1851220,1851424
21,second,67,heiter,IAT_red1.bmp,red,ending_scream,scream,ending,m,positive,positive,ES_red,1,m,684,1853730,1854235,1854439
21,second,68,feige,IAT_purple2.bmp,purple,starting_melody,melody,starting,c,negative,positive,ES_red,1,c,727,1856197,1856701,1856905
21,second,69,krank,IAT_purple3.bmp,purple,starting_melody,melody,starting,c,negative,positive,ES_red,1,c,741,1858706,1859210,1859414
21,second,70,gerecht,IAT_green4.bmp,green,ending_melody,melody,ending,m,positive,negative,ES_red,1,m,751,1861229,1861733,1861937
21,second,71,einsam,IAT_green2.bmp,green,ending_melody,melody,ending,c,negative,negative,ES_red,1,c,937,1863762,1864266,1864470
21,second,72,gesund,IAT_yellow1.bmp,yellow,starting_scream,scream,starting,m,positive,negative,ES_red,1,m,702,1866481,1866985,1867189
21,second,73,sonnig,IAT_purple1.bmp,purple,starting_melody,melody,starting,m,positive,positive,ES_red,1,m,609,1868966,1869470,1869674
21,second,74,morsch,IAT_green1.bmp,green,ending_melody,melody,ending,c,negative,negative,ES_red,1,c,531,1871356,1871860,1872064
21,second,75,gerecht,IAT_green3.bmp,green,ending_melody,melody,ending,m,positive,negative,ES_red,1,m,733,1873670,1874174,1874378
21,second,76,teuer,IAT_yellow2.bmp,yellow,starting_scream,scream,starting,c,negative,negative,ES_red,1,c,640,1876186,1876690,1876894
21,second,77,brutal,IAT_green2.bmp,green,ending_melody,melody,ending,c,negative,negative,ES_red,1,c,561,1878608,1879112,1879316
21,second,78,human,IAT_red4.bmp,red,ending_scream,scream,ending,m,positive,positive,ES_red,1,m,1089,1880951,1881455,1881659
21,second,79,einsam,IAT_yellow4.bmp,yellow,starting_scream,scream,starting,c,negative,negative,ES_red,1,c,602,1883822,1884327,1884531
21,second,80,krank,IAT_yellow2.bmp,yellow,starting_scream,scream,starting,c,negative,negative,ES_red,1,c,698,1886207,1886711,1886915
21,second,81,geizig,IAT_red1.bmp,red,ending_scream,scream,ending,c,negative,positive,ES_red,1,c,602,1888688,1889192,1889396
21,second,82,gesund,IAT_purple3.bmp,purple,starting_melody,melody,starting,m,positive,positive,ES_red,1,m,585,1891071,1891576,1891780
21,second,83,teuer,IAT_yellow3.bmp,yellow,starting_scream,scream,starting,c,negative,negative,ES_red,1,c,543,1893440,1893944,1894148
21,second,84,lustig,IAT_yellow3.bmp,yellow,starting_scream,scream,starting,m,positive,negative,ES_red,1,m,753,1895766,1896270,1896474
21,second,85,lästig,IAT_yellow3.bmp,yellow,starting_scream,scream,starting,c,negative,negative,ES_red,1,c,686,1898303,1898808,1899012
21,second,86,witzig,IAT_purple3.bmp,purple,starting_melody,melody,starting,m,positive,positive,ES_red,1,m,709,1900772,1901276,1901480
21,second,87,brutal,IAT_red2.bmp,red,ending_scream,scream,ending,c,negative,positive,ES_red,1,c,596,1903264,1903768,1903972
21,second,88,kaputt,IAT_red1.bmp,red,ending_scream,scream,ending,c,negative,positive,ES_red,1,c,1273,1905643,1906147,1906351
21,second,89,human,IAT_red3.bmp,red,ending_scream,scream,ending,m,positive,positive,ES_red,1,m,674,1908698,1909202,1909406
21,second,90,sonnig,IAT_purple4.bmp,purple,starting_melody,melody,starting,m,positive,positive,ES_red,1,m,645,1911155,1911659,1911863
21,second,91,lästig,IAT_green3.bmp,green,ending_melody,melody,ending,c,negative,negative,ES_red,1,c,696,1913582,1914086,1914290
21,second,92,sanft,IAT_red1.bmp,red,ending_scream,scream,ending,m,positive,positive,ES_red,1,m,576,1916060,1916565,1916770
21,second,93,schön,IAT_green2.bmp,green,ending_melody,melody,ending,m,positive,negative,ES_red,1,m,592,1918419,1918923,1919127
21,second,94,krank,IAT_red4.bmp,red,ending_scream,scream,ending,c,negative,positive,ES_red,1,c,510,1920794,1921298,1921502
21,second,95,munter,IAT_yellow1.bmp,yellow,starting_scream,scream,starting,m,positive,negative,ES_red,1,m,572,1923087,1923591,1923795
21,third,0,feige,IAT_green3.bmp,green,ending_melody,melody,ending,c,negative,negative,ES_red,1,c,817,1934120,1934624,1934828
21,third,1,morsch,IAT_purple3.bmp,purple,starting_melody,melody,starting,c,negative,positive,ES_red,1,c,686,1936719,1937223,1937427
21,third,2,sonnig,IAT_purple4.bmp,purple,starting_melody,melody,starting,m,positive,positive,ES_red,1,m,549,1939186,1939690,1939896
21,third,3,ehrlich,IAT_red1.bmp,red,ending_scream,scream,ending,m,positive,positive,ES_red,1,m,594,1941519,1942023,1942227
21,third,4,gesund,IAT_red3.bmp,red,ending_scream,scream,ending,m,positive,positive,ES_red,1,m,655,1943895,1944399,1944603
21,third,5,sozial,IAT_red2.bmp,red,ending_scream,scream,ending,m,positive,positive,ES_red,1,m,641,1946332,1946836,1947040
21,third,6,munter,IAT_green1.bmp,green,ending_melody,melody,ending,m,positive,negative,ES_red,1,m,716,1948755,1949259,1949463
21,third,7,feige,IAT_red1.bmp,red,ending_scream,scream,ending,c,negative,positive,ES_red,1,c,527,1951253,1951757,1951961
21,third,8,geizig,IAT_purple2.bmp,purple,starting_melody,melody,starting,c,negative,positive,ES_red,1,c,731,1953561,1954066,1954270
21,third,9,gerecht,IAT_purple1.bmp,purple,starting_melody,melody,starting,m,positive,positive,ES_red,1,m,719,1956075,1956580,1956784
21,third,10,lästig,IAT_yellow1.bmp,yellow,starting_scream,scream,starting,c,negative,negative,ES_red,1,c,591,1958577,1959081,1959285
21,third,11,brutal,IAT_red1.bmp,red,ending_scream,scream,ending,c,negative,positive,ES_red,1,c,557,1960950,1961454,1961658
21,third,12,streng,IAT_red3.bmp,red,ending_scream,scream,ending,c,negative,positive,ES_red,1,c,598,1963289,1963794,1963998
21,third,13,munter,IAT_yellow3.bmp,yellow,starting_scream,scream,starting,m,positive,negative,ES_red,1,m,589,1965670,1966174,1966379
21,third,14,sonnig,IAT_green1.bmp,green,ending_melody,melody,ending,m,positive,negative,ES_red,1,m,734,1968041,1968545,1968749
21,third,15,gesund,IAT_yellow4.bmp,yellow,starting_scream,scream,starting,m,positive,negative,ES_red,1,m,696,1970557,1971061,1971265
21,third,16,sanft,IAT_yellow2.bmp,yellow,starting_scream,scream,starting,m,positive,negative,ES_red,1,m,659,1973035,1973539,1973743
21,third,17,gierig,IAT_yellow2.bmp,yellow,starting_scream,scream,starting,c,negative,negative,ES_red,1,c,675,1975476,1975980,1976184
21,third,18,streng,IAT_purple2.bmp,purple,starting_melody,melody,starting,c,negative,positive,ES_red,1,c,1114,1977932,1978437,1978641
21,third,19,heiter,IAT_red3.bmp,red,ending_scream,scream,ending,m,positive,positive,ES_red,1,m,640,1980829,1981333,1981537
21,third,20,lästig,IAT_yellow3.bmp,yellow,starting_scream,scream,starting,c,negative,negative,ES_red,1,c,600,1983251,1983755,1983959
21,third,21,feige,IAT_purple1.bmp,purple,starting_melody,melody,starting,c,negative,positive,ES_red,1,c,668,1985634,1986138,1986342
21,third,22,human,IAT_red1.bmp,red,ending_scream,scream,ending,m,positive,positive,ES_red,1,m,885,1988084,1988588,1988792
21,third,23,sonnig,IAT_green2.bmp,green,ending_melody,melody,ending,m,positive,negative,ES_red,1,m,686,1990751,1991255,1991459
21,third,24,falsch,IAT_green2.bmp,green,ending_melody,melody,ending,c,negative,negative,ES_red,1,c,569,1993218,1993722,1993926
21,third,25,heiter,IAT_yellow3.bmp,yellow,starting_scream,scream,starting,m,positive,negative,ES_red,1,m,634,1995568,1996072,1996276
21,third,26,morsch,IAT_red2.bmp,red,ending_scream,scream,ending,c,negative,positive,ES_red,1,c,632,1997984,1998489,1998693
21,third,27,teuer,IAT_purple4.bmp,purple,starting_melody,melody,starting,c,negative,positive,ES_red,1,c,990,2000398,2000902,2001106
21,third,28,krank,IAT_green1.bmp,green,ending_melody,melody,ending,c,negative,negative,ES_red,1,c,669,2003169,2003673,2003877
21,third,29,geizig,IAT_yellow2.bmp,yellow,starting_scream,scream,starting,c,negative,negative,ES_red,1,c,593,2005620,2006124,2006328
21,third,30,ehrlich,IAT_yellow1.bmp,yellow,starting_scream,scream,starting,m,positive,negative,ES_red,1,m,619,2007996,2008500,2008704
21,third,31,human,IAT_yellow4.bmp,yellow,starting_scream,scream,starting,m,positive,negative,ES_red,1,m,612,2010397,2010901,2011105
21,third,32,witzig,IAT_yellow1.bmp,yellow,starting_scream,scream,starting,m,positive,negative,ES_red,1,m,790,2012791,2013295,2013499
21,third,33,morsch,IAT_red3.bmp,red,ending_scream,scream,ending,c,negative,positive,ES_red,1,c,558,2015363,2015867,2016071
21,third,34,gerecht,IAT_red1.bmp,red,ending_scream,scream,ending,m,positive,positive,ES_red,1,m,968,2017703,2018207,2018411
21,third,35,ehrlich,IAT_purple1.bmp,purple,starting_melody,melody,starting,m,positive,positive,ES_red,1,m,539,2020454,2020959,2021163
21,third,36,schön,IAT_purple2.bmp,purple,starting_melody,melody,starting,m,positive,positive,ES_red,1,m,565,2022776,2023280,2023484
21,third,37,streng,IAT_green4.bmp,green,ending_melody,melody,ending,c,negative,negative,ES_red,1,c,712,2025122,2025626,2025830
21,third,38,falsch,IAT_green2.bmp,green,ending_melody,melody,ending,c,negative,negative,ES_red,1,c,1093,2027616,2028121,2028325
21,third,39,lustig,IAT_green1.bmp,green,ending_melody,melody,ending,m,positive,negative,ES_red,1,m,1089,2030491,2030996,2031200
21,third,40,heiter,IAT_yellow1.bmp,yellow,starting_scream,scream,starting,m,positive,negative,ES_red,1,m,619,2033363,2033867,2034071
21,third,41,krank,IAT_green2.bmp,green,ending_melody,melody,ending,c,negative,negative,ES_red,1,c,606,2035763,2036267,2036471
21,third,42,witzig,IAT_purple3.bmp,purple,starting_melody,melody,starting,m,positive,positive,ES_red,1,m,980,2038150,2038655,2038859
21,third,43,gerecht,IAT_green2.bmp,green,ending_melody,melody,ending,m,positive,negative,ES_red,1,m,621,2040912,2041416,2041620
21,third,44,lustig,IAT_purple2.bmp,purple,starting_melody,melody,starting,m,positive,positive,ES_red,1,m,674,2043316,2043820,2044024
21,third,45,sanft,IAT_purple4.bmp,purple,starting_melody,melody,starting,m,positive,positive,ES_red,1,m,695,2045771,2046275,2046479
21,third,46,streng,IAT_yellow4.bmp,yellow,starting_scream,scream,starting,c,negative,negative,ES_red,1,c,550,2048248,2048752,2048956
21,third,47,sozial,IAT_yellow1.bmp,yellow,starting_scream,scream,starting,m,positive,negative,ES_red,1,m,850,2050580,2051084,2051288
21,third,48,kaputt,IAT_red4.bmp,red,ending_scream,scream,ending,c,negative,positive,ES_red,1,c,805,2053213,2053717,2053921
21,third,49,sanft,IAT_purple1.bmp,purple,starting_melody,melody,starting,m,positive,positive,ES_red,1,m,640,2055800,2056305,2056509
21,third,50,lästig,IAT_yellow3.bmp,yellow,starting_scream,scream,starting,c,negative,negative,ES_red,1,c,660,2058224,2058728,2058932
21,third,51,sozial,IAT_red1.bmp,red,ending_scream,scream,ending,m,positive,positive,ES_red,1,m,605,2060666,2061171,2061375
21,third,52,gierig,IAT_red4.bmp,red,ending_scream,scream,ending,c,negative,positive,ES_red,1,c,785,2063054,2063558,2063762
21,third,53,sanft,IAT_green3.bmp,green,ending_melody,melody,ending,m,positive,negative,ES_red,1,m,931,2065621,2066125,2066329
21,third,54,human,IAT_red3.bmp,red,ending_scream,scream,ending,m,positive,positive,ES_red,1,m,533,2068335,2068839,2069043
21,third,55,einsam,IAT_purple2.bmp,purple,starting_melody,melody,starting,c,negative,positive,ES_red,1,c,729,2070649,2071154,2071359
21,third,56,gierig,IAT_purple4.bmp,purple,starting_melody,melody,starting,c,negative,positive,ES_red,1,c,627,2073162,2073666,2073870
21,third,57,lustig,IAT_yellow2.bmp,yellow,starting_scream,scream,starting,m,positive,negative,ES_red,1,m,592,2075571,2076075,2076279
21,third,58,falsch,IAT_red4.bmp,red,ending_scream,scream,ending,c,negative,positive,ES_red,1,c,641,2077946,2078450,2078654
21,third,59,gerecht,IAT_red4.bmp,red,ending_scream,scream,ending,m,positive,positive,ES_red,1,m,698,2080368,2080873,2081077
21,third,60,munter,IAT_green1.bmp,green,ending_melody,melody,ending,m,positive,negative,ES_red,1,m,763,2082848,2083352,2083556
21,third,61,lästig,IAT_red2.bmp,red,ending_scream,scream,ending,c,negative,positive,ES_red,1,c,994,2085395,2085899,2086103
21,third,62,morsch,IAT_green1.bmp,green,ending_melody,melody,ending,c,negative,negative,ES_red,1,c,584,2088171,2088675,2088879
21,third,63,kaputt,IAT_purple4.bmp,purple,starting_melody,melody,starting,c,negative,positive,ES_red,1,c,465,2090536,2091040,2091244
21,third,64,sonnig,IAT_green4.bmp,green,ending_melody,melody,ending,m,positive,negative,ES_red,1,m,602,2092784,2093288,2093492
21,third,65,falsch,IAT_red4.bmp,red,ending_scream,scream,ending,c,negative,positive,ES_red,1,c,510,2095168,2095673,2095877
21,third,66,krank,IAT_green2.bmp,green,ending_melody,melody,ending,c,negative,negative,ES_red,1,c,578,2097460,2097965,2098169
21,third,67,gesund,IAT_green3.bmp,green,ending_melody,melody,ending,m,positive,negative,ES_red,1,m,550,2099821,2100325,2100529
21,third,68,teuer,IAT_green4.bmp,green,ending_melody,melody,ending,c,negative,negative,ES_red,1,c,710,2102154,2102658,2102862
21,third,69,krank,IAT_purple2.bmp,purple,starting_melody,melody,starting,c,negative,positive,ES_red,1,c,687,2104646,2105150,2105354
21,third,70,schön,IAT_purple3.bmp,purple,starting_melody,melody,starting,m,positive,positive,ES_red,1,m,550,2107116,2107621,2107825
21,third,71,kaputt,IAT_purple4.bmp,purple,starting_melody,melody,starting,c,negative,positive,ES_red,1,c,611,2109448,2109952,2110156
21,third,72,brutal,IAT_yellow4.bmp,yellow,starting_scream,scream,starting,c,negative,negative,ES_red,1,c,804,2111841,2112345,2112549
21,third,73,teuer,IAT_green4.bmp,green,ending_melody,melody,ending,c,negative,negative,ES_red,1,c,635,2114427,2114932,2115136
21,third,74,lustig,IAT_red3.bmp,red,ending_scream,scream,ending,m,positive,positive,ES_red,1,m,609,2116845,2117349,2117553
21,third,75,witzig,IAT_red2.bmp,red,ending_scream,scream,ending,m,positive,positive,ES_red,1,m,590,2119237,2119741,2119945
21,third,76,geizig,IAT_green3.bmp,green,ending_melody,melody,ending,c,negative,negative,ES_red,1,c,428,2121610,2122114,2122318
21,third,77,brutal,IAT_red2.bmp,red,ending_scream,scream,ending,c,negative,positive,ES_red,1,c,464,2123819,2124324,2124528
21,third,78,schön,IAT_purple3.bmp,purple,starting_melody,melody,starting,m,positive,positive,ES_red,1,m,551,2126066,2126570,2126774
21,third,79,einsam,IAT_red2.bmp,red,ending_scream,scream,ending,c,negative,positive,ES_red,1,c,841,2128399,2128903,2129107
21,third,80,teuer,IAT_yellow4.bmp,yellow,starting_scream,scream,starting,c,negative,negative,ES_red,1,c,538,2131026,2131530,2131734
21,third,81,gesund,IAT_yellow3.bmp,yellow,starting_scream,scream,starting,m,positive,negative,ES_red,1,m,584,2133347,2133851,2134055
21,third,82,sozial,IAT_green4.bmp,green,ending_melody,melody,ending,m,positive,negative,ES_red,1,m,707,2135714,2136218,2136422
21,third,83,gierig,IAT_yellow4.bmp,yellow,starting_scream,scream,starting,c,negative,negative,ES_red,1,c,591,2138205,2138709,2138913
21,third,84,einsam,IAT_purple3.bmp,purple,starting_melody,melody,starting,c,negative,positive,ES_red,1,c,541,2140577,2141081,2141285
21,third,85,munter,IAT_red4.bmp,red,ending_scream,scream,ending,m,positive,positive,ES_red,1,m,496,2142901,2143405,2143609
21,third,86,kaputt,IAT_purple1.bmp,purple,starting_melody,melody,starting,c,negative,positive,ES_red,1,c,575,2145180,2145684,2145888
21,third,87,einsam,IAT_yellow1.bmp,yellow,starting_scream,scream,starting,c,negative,negative,ES_red,1,c,597,2147537,2148041,2148245
21,third,88,feige,IAT_yellow2.bmp,yellow,starting_scream,scream,starting,c,negative,negative,ES_red,0,m,749,2149917,2150421,2150625
21,third,89,ehrlich,IAT_yellow3.bmp,yellow,starting_scream,scream,starting,m,positive,negative,ES_red,1,m,622,2152949,2153453,2153657
21,third,90,geizig,IAT_green4.bmp,green,ending_melody,melody,ending,c,negative,negative,ES_red,1,c,690,2155353,2155858,2156062
21,third,91,brutal,IAT_yellow2.bmp,yellow,starting_scream,scream,starting,c,negative,negative,ES_red,1,c,534,2157827,2158331,2158535
21,third,92,witzig,IAT_green3.bmp,green,ending_melody,melody,ending,m,positive,negative,ES_red,1,m,610,2160144,2160649,2160853
21,third,93,heiter,IAT_green3.bmp,green,ending_melody,melody,ending,m,positive,negative,ES_red,1,m,877,2162537,2163041,2163245
21,third,94,schön,IAT_purple1.bmp,purple,starting_melody,melody,starting,m,positive,positive,ES_red,1,m,707,2165197,2165701,2165905
21,third,95,human,IAT_purple3.bmp,purple,starting_melody,melody,starting,m,positive,positive,ES_red,1,m,654,2167687,2168191,2168395
21,forth,0,einsam,IAT_purple4.bmp,purple,starting_melody,melody,starting,c,negative,positive,ES_red,1,c,734,2177505,2178009,2178213
21,forth,1,munter,IAT_yellow4.bmp,yellow,starting_scream,scream,starting,m,positive,negative,ES_red,1,m,524,2180021,2180526,2180730
21,forth,2,gerecht,IAT_purple1.bmp,purple,starting_melody,melody,starting,m,positive,positive,ES_red,1,m,992,2182327,2182832,2183036
21,forth,3,munter,IAT_red1.bmp,red,ending_scream,scream,ending,m,positive,positive,ES_red,1,m,520,2185101,2185606,2185810
21,forth,4,heiter,IAT_yellow3.bmp,yellow,starting_scream,scream,starting,m,positive,negative,ES_red,1,m,535,2187403,2187908,2188112
21,forth,5,witzig,IAT_green4.bmp,green,ending_melody,melody,ending,m,positive,negative,ES_red,1,m,551,2189720,2190224,2190428
21,forth,6,gerecht,IAT_green2.bmp,green,ending_melody,melody,ending,m,positive,negative,ES_red,1,m,526,2192053,2192557,2192761
21,forth,7,geizig,IAT_green2.bmp,green,ending_melody,melody,ending,c,negative,negative,ES_red,1,c,764,2194359,2194863,2195067
21,forth,8,streng,IAT_red4.bmp,red,ending_scream,scream,ending,c,negative,positive,ES_red,1,c,471,2196904,2197409,2197613
21,forth,9,kaputt,IAT_yellow2.bmp,yellow,starting_scream,scream,starting,c,negative,negative,ES_red,1,c,576,2199157,2199662,2199866
21,forth,10,sonnig,IAT_yellow3.bmp,yellow,starting_scream,scream,starting,m,positive,negative,ES_red,1,m,536,2201516,2202020,2202224
21,forth,11,lästig,IAT_yellow2.bmp,yellow,starting_scream,scream,starting,c,negative,negative,ES_red,1,c,655,2203835,2204339,2204543
21,forth,12,lustig,IAT_purple1.bmp,purple,starting_melody,melody,starting,m,positive,positive,ES_red,1,m,622,2206272,2206777,2206981
21,forth,13,sozial,IAT_purple1.bmp,purple,starting_melody,melody,starting,m,positive,positive,ES_red,1,m,675,2208676,2209181,2209385
21,forth,14,human,IAT_red3.bmp,red,ending_scream,scream,ending,m,positive,positive,ES_red,1,m,576,2211133,2211637,2211841
21,forth,15,kaputt,IAT_yellow3.bmp,yellow,starting_scream,scream,starting,c,negative,negative,ES_red,1,c,557,2213490,2213995,2214200
21,forth,16,lästig,IAT_purple3.bmp,purple,starting_melody,melody,starting,c,negative,positive,ES_red,1,c,835,2215830,2216334,2216538
21,forth,17,heiter,IAT_purple3.bmp,purple,starting_melody,melody,starting,m,positive,positive,ES_red,1,m,579,2218446,2218950,2219154
21,forth,18,teuer,IAT_yellow4.bmp,yellow,starting_scream,scream,starting,c,negative,negative,ES_red,1,c,733,2220806,2221311,2221515
21,forth,19,munter,IAT_red3.bmp,red,ending_scream,scream,ending,m,positive,positive,ES_red,1,m,601,2223321,2223825,2224029
21,forth,20,morsch,IAT_purple2.bmp,purple,starting_melody,melody,starting,c,negative,positive,ES_red,1,c,539,2225704,2226209,2226413
21,forth,21,kaputt,IAT_green1.bmp,green,ending_melody,melody,ending,c,negative,negative,ES_red,1,c,591,2228025,2228529,2228733
21,forth,22,schön,IAT_green3.bmp,green,ending_melody,melody,ending,m,positive,negative,ES_red,1,m,605,2230397,2230901,2231105
21,forth,23,gierig,IAT_yellow4.bmp,yellow,starting_scream,scream,starting,c,negative,negative,ES_red,1,c,777,2232783,2233288,2233492
21,forth,24,krank,IAT_purple2.bmp,purple,starting_melody,melody,starting,c,negative,positive,ES_red,1,c,1060,2235343,2235848,2236052
21,forth,25,sanft,IAT_green3.bmp,green,ending_melody,melody,ending,m,positive,negative,ES_red,1,m,668,2238186,2238691,2238895
21,forth,26,sonnig,IAT_red3.bmp,red,ending_scream,scream,ending,m,positive,positive,ES_red,1,m,581,2240637,2241141,2241345
21,forth,27,einsam,IAT_yellow1.bmp,yellow,starting_scream,scream,starting,c,negative,negative,ES_red,1,c,755,2243001,2243505,2243709
21,forth,28,feige,IAT_red2.bmp,red,ending_scream,scream,ending,c,negative,positive,ES_red,1,c,643,2245538,2246042,2246246
21,forth,29,ehrlich,IAT_green1.bmp,green,ending_melody,melody,ending,m,positive,negative,ES_red,1,m,775,2247963,2248467,2248671
21,forth,30,teuer,IAT_yellow2.bmp,yellow,starting_scream,scream,starting,c,negative,negative,ES_red,1,c,496,2250520,2251024,2251228
21,forth,31,witzig,IAT_red1.bmp,red,ending_scream,scream,ending,m,positive,positive,ES_red,0,c,580,2252797,2253301,2253505
21,forth,32,lästig,IAT_yellow4.bmp,yellow,starting_scream,scream,starting,c,negative,negative,ES_red,1,c,676,2255659,2256163,2256367
21,forth,33,feige,IAT_yellow3.bmp,yellow,starting_scream,scream,starting,c,negative,negative,ES_red,1,c,737,2258116,2258621,2258825
21,forth,34,morsch,IAT_purple1.bmp,purple,starting_melody,melody,starting,c,negative,positive,ES_red,1,c,581,2260636,2261141,2261345
21,forth,35,gesund,IAT_red1.bmp,red,ending_scream,scream,ending,m,positive,positive,ES_red,1,m,643,2263001,2263505,2263709
21,forth,36,teuer,IAT_red1.bmp,red,ending_scream,scream,ending,c,negative,positive,ES_red,1,c,617,2265426,2265931,2266135
21,forth,37,human,IAT_yellow1.bmp,yellow,starting_scream,scream,starting,m,positive,negative,ES_red,1,m,1033,2267828,2268332,2268536
21,forth,38,einsam,IAT_red2.bmp,red,ending_scream,scream,ending,c,negative,positive,ES_red,1,c,687,2270644,2271148,2271352
21,forth,39,falsch,IAT_red2.bmp,red,ending_scream,scream,ending,c,negative,positive,ES_red,1,c,628,2273112,2273617,2273821
21,forth,40,gerecht,IAT_green1.bmp,green,ending_melody,melody,ending,m,positive,negative,ES_red,1,m,724,2275523,2276028,2276232
21,forth,41,streng,IAT_green4.bmp,green,ending_melody,melody,ending,c,negative,negative,ES_red,1,c,689,2278031,2278535,2278739
21,forth,42,morsch,IAT_green2.bmp,green,ending_melody,melody,ending,c,negative,negative,ES_red,1,c,626,2280502,2281006,2281210
21,forth,43,schön,IAT_purple2.bmp,purple,starting_melody,melody,starting,m,positive,positive,ES_red,1,m,535,2282910,2283415,2283620
21,forth,44,sonnig,IAT_green3.bmp,green,ending_melody,melody,ending,m,positive,negative,ES_red,1,m,761,2285228,2285732,2285936
21,forth,45,geizig,IAT_purple2.bmp,purple,starting_melody,melody,starting,c,negative,positive,ES_red,1,c,591,2287772,2288276,2288480
21,forth,46,feige,IAT_purple4.bmp,purple,starting_melody,melody,starting,c,negative,positive,ES_red,1,c,844,2290145,2290649,2290853
21,forth,47,brutal,IAT_purple3.bmp,purple,starting_melody,melody,starting,c,negative,positive,ES_red,1,c,631,2292771,2293275,2293479
21,forth,48,human,IAT_red4.bmp,red,ending_scream,scream,ending,m,positive,positive,ES_red,1,m,565,2295185,2295689,2295893
21,forth,49,ehrlich,IAT_purple2.bmp,purple,starting_melody,melody,starting,m,positive,positive,ES_red,1,m,787,2297532,2298037,2298241
21,forth,50,gierig,IAT_red1.bmp,red,ending_scream,scream,ending,c,negative,positive,ES_red,1,c,559,2300102,2300607,2300811
21,forth,51,krank,IAT_purple4.bmp,purple,starting_melody,melody,starting,c,negative,positive,ES_red,1,c,839,2302444,2302948,2303152
21,forth,52,lustig,IAT_yellow1.bmp,yellow,starting_scream,scream,starting,m,positive,negative,ES_red,1,m,939,2305066,2305570,2305774
21,forth,53,falsch,IAT_green2.bmp,green,ending_melody,melody,ending,c,negative,negative,ES_red,1,c,1061,2307786,2308290,2308494
21,forth,54,sozial,IAT_red3.bmp,red,ending_scream,scream,ending,m,positive,positive,ES_red,1,m,648,2310628,2311132,2311336
21,forth,55,brutal,IAT_red2.bmp,red,ending_scream,scream,ending,c,negative,positive,ES_red,1,c,617,2313057,2313562,2313766
21,forth,56,sonnig,IAT_purple1.bmp,purple,starting_melody,melody,starting,m,positive,positive,ES_red,1,m,604,2315457,2315961,2316165
21,forth,57,ehrlich,IAT_green4.bmp,green,ending_melody,melody,ending,m,positive,negative,ES_red,0,c,767,2317843,2318348,2318552
21,forth,58,sanft,IAT_yellow3.bmp,yellow,starting_scream,scream,starting,m,positive,negative,ES_red,1,m,799,2320893,2321398,2321602
21,forth,59,sozial,IAT_red2.bmp,red,ending_scream,scream,ending,m,positive,positive,ES_red,1,m,659,2323476,2323980,2324184
21,forth,60,schön,IAT_green3.bmp,green,ending_melody,melody,ending,m,positive,negative,ES_red,1,m,638,2325917,2326422,2326626
21,forth,61,lustig,IAT_yellow4.bmp,yellow,starting_scream,scream,starting,m,positive,negative,ES_red,1,m,1032,2328340,2328844,2329048
21,forth,62,gierig,IAT_purple2.bmp,purple,starting_melody,melody,starting,c,negative,positive,ES_red,1,c,509,2331155,2331659,2331863
21,forth,63,sanft,IAT_red1.bmp,red,ending_scream,scream,ending,m,positive,positive,ES_red,1,m,522,2333446,2333951,2334155
21,forth,64,teuer,IAT_green4.bmp,green,ending_melody,melody,ending,c,negative,negative,ES_red,1,c,673,2335753,2336257,2336461
21,forth,65,lästig,IAT_green4.bmp,green,ending_melody,melody,ending,c,negative,negative,ES_red,1,c,611,2338208,2338712,2338916
21,forth,66,sozial,IAT_purple3.bmp,purple,starting_melody,melody,starting,m,positive,positive,ES_red,1,m,596,2340600,2341105,2341309
21,forth,67,gierig,IAT_red4.bmp,red,ending_scream,scream,ending,c,negative,positive,ES_red,1,c,581,2342980,2343484,2343688
21,forth,68,gesund,IAT_purple4.bmp,purple,starting_melody,melody,starting,m,positive,positive,ES_red,1,m,686,2345344,2345849,2346053
21,forth,69,morsch,IAT_red3.bmp,red,ending_scream,scream,ending,c,negative,positive,ES_red,1,c,706,2347814,2348318,2348522
21,forth,70,ehrlich,IAT_red2.bmp,red,ending_scream,scream,ending,m,positive,positive,ES_red,1,m,669,2350303,2350807,2351011
21,forth,71,einsam,IAT_green4.bmp,green,ending_melody,melody,ending,c,negative,negative,ES_red,1,c,1105,2352754,2353259,2353463
21,forth,72,witzig,IAT_green2.bmp,green,ending_melody,melody,ending,m,positive,negative,ES_red,1,m,728,2355642,2356146,2356350
21,forth,73,krank,IAT_yellow2.bmp,yellow,starting_scream,scream,starting,c,negative,negative,ES_red,1,c,571,2358151,2358655,2358859
21,forth,74,lustig,IAT_green1.bmp,green,ending_melody,melody,ending,m,positive,negative,ES_red,1,m,1140,2360504,2361009,2361213
21,forth,75,brutal,IAT_green2.bmp,green,ending_melody,melody,ending,c,negative,negative,ES_red,1,c,1185,2363427,2363931,2364135
21,forth,76,falsch,IAT_yellow4.bmp,yellow,starting_scream,scream,starting,c,negative,negative,ES_red,1,c,1386,2366395,2366899,2367103
21,forth,77,gerecht,IAT_yellow2.bmp,yellow,starting_scream,scream,starting,m,positive,negative,ES_red,1,m,608,2369564,2370068,2370272
21,forth,78,streng,IAT_red3.bmp,red,ending_scream,scream,ending,c,negative,positive,ES_red,1,c,547,2371955,2372459,2372664
21,forth,79,heiter,IAT_yellow3.bmp,yellow,starting_scream,scream,starting,m,positive,negative,ES_red,1,m,722,2374286,2374790,2374994
21,forth,80,gesund,IAT_green1.bmp,green,ending_melody,melody,ending,m,positive,negative,ES_red,1,m,824,2376790,2377295,2377499
21,forth,81,heiter,IAT_yellow1.bmp,yellow,starting_scream,scream,starting,m,positive,negative,ES_red,1,m,656,2379398,2379902,2380106
21,forth,82,feige,IAT_red4.bmp,red,ending_scream,scream,ending,c,negative,positive,ES_red,1,c,582,2381837,2382341,2382545
21,forth,83,schön,IAT_yellow2.bmp,yellow,starting_scream,scream,starting,m,positive,negative,ES_red,1,m,730,2384203,2384707,2384911
21,forth,84,sanft,IAT_red4.bmp,red,ending_scream,scream,ending,m,positive,positive,ES_red,1,m,799,2386715,2387220,2387424
21,forth,85,munter,IAT_purple3.bmp,purple,starting_melody,melody,starting,m,positive,positive,ES_red,1,m,644,2389297,2389801,2390005
21,forth,86,gesund,IAT_purple3.bmp,purple,starting_melody,melody,starting,m,positive,positive,ES_red,1,m,884,2391725,2392230,2392434
21,forth,87,geizig,IAT_green3.bmp,green,ending_melody,melody,ending,c,negative,negative,ES_red,1,c,791,2394393,2394898,2395102
21,forth,88,krank,IAT_purple4.bmp,purple,starting_melody,melody,starting,c,negative,positive,ES_red,1,c,780,2396967,2397471,2397675
21,forth,89,falsch,IAT_red4.bmp,red,ending_scream,scream,ending,c,negative,positive,ES_red,1,c,738,2399530,2400034,2400238
21,forth,90,streng,IAT_purple1.bmp,purple,starting_melody,melody,starting,c,negative,positive,ES_red,1,c,1369,2402050,2402554,2402759
21,forth,91,kaputt,IAT_yellow1.bmp,yellow,starting_scream,scream,starting,c,negative,negative,ES_red,1,c,681,2405202,2405707,2405911
21,forth,92,human,IAT_purple4.bmp,purple,starting_melody,melody,starting,m,positive,positive,ES_red,1,m,1071,2407666,2408171,2408375
21,forth,93,witzig,IAT_yellow1.bmp,yellow,starting_scream,scream,starting,m,positive,negative,ES_red,1,m,1391,2410520,2411025,2411229
21,forth,94,brutal,IAT_green3.bmp,green,ending_melody,melody,ending,c,negative,negative,ES_red,1,c,653,2413695,2414199,2414403
21,forth,95,geizig,IAT_green1.bmp,green,ending_melody,melody,ending,c,negative,negative,ES_red,1,c,1058,2416131,2416635,2416839
