subject_nr,block,trialnr,trial_target,trial_prime,prime_color,prime_role,prime_us,prime_relation,correct_response,target_valence,prime_valence,color_counter,correct_first_response,response_first_response,response_time_first_response,fixation_show,prime_show,target_show
78,first,0,krank,IAT_yellow1.bmp,yellow,starting_melody,melody,starting,c,negative,positive,ES_green,1,c,562,1461417,1461921,1462125
78,first,1,lustig,IAT_purple3.bmp,purple,starting_scream,scream,starting,m,positive,negative,ES_green,1,m,599,1463764,1464268,1464472
78,first,2,feige,IAT_red4.bmp,red,ending_melody,melody,ending,c,negative,negative,ES_green,1,c,621,1466147,1466651,1466855
78,first,3,krank,IAT_yellow4.bmp,yellow,starting_melody,melody,starting,c,negative,positive,ES_green,1,c,619,1468551,1469055,1469259
78,first,4,einsam,IAT_purple4.bmp,purple,starting_scream,scream,starting,c,negative,negative,ES_green,1,c,611,1470953,1471457,1471661
78,first,5,ehrlich,IAT_red1.bmp,red,ending_melody,melody,ending,m,positive,negative,ES_green,1,m,633,1473347,1473852,1474056
78,first,6,lästig,IAT_purple4.bmp,purple,starting_scream,scream,starting,c,negative,negative,ES_green,1,c,581,1475763,1476267,1476471
78,first,7,gesund,IAT_green1.bmp,green,ending_scream,scream,ending,m,positive,positive,ES_green,1,m,483,1478126,1478630,1478834
78,first,8,sonnig,IAT_red3.bmp,red,ending_melody,melody,ending,m,positive,negative,ES_green,1,m,559,1480391,1480895,1481099
78,first,9,morsch,IAT_green1.bmp,green,ending_scream,scream,ending,c,negative,positive,ES_green,1,c,605,1482732,1483236,1483440
78,first,10,gierig,IAT_purple4.bmp,purple,starting_scream,scream,starting,c,negative,negative,ES_green,1,c,685,1485118,1485623,1485827
78,first,11,morsch,IAT_purple2.bmp,purple,starting_scream,scream,starting,c,negative,negative,ES_green,1,c,614,1487587,1488091,1488295
78,first,12,sanft,IAT_purple3.bmp,purple,starting_scream,scream,starting,m,positive,negative,ES_green,1,m,599,1489983,1490487,1490691
78,first,13,heiter,IAT_green1.bmp,green,ending_scream,scream,ending,m,positive,positive,ES_green,1,m,848,1492365,1492870,1493074
78,first,14,kaputt,IAT_red4.bmp,red,ending_melody,melody,ending,c,negative,negative,ES_green,1,c,696,1494997,1495501,1495705
78,first,15,lustig,IAT_yellow3.bmp,yellow,starting_melody,melody,starting,m,positive,positive,ES_green,1,m,492,1497475,1497980,1498184
78,first,16,sanft,IAT_red3.bmp,red,ending_melody,melody,ending,m,positive,negative,ES_green,1,m,848,1499751,1500255,1500459
78,first,17,streng,IAT_red2.bmp,red,ending_melody,melody,ending,c,negative,negative,ES_green,1,c,570,1502382,1502886,1503090
78,first,18,brutal,IAT_yellow3.bmp,yellow,starting_melody,melody,starting,c,negative,positive,ES_green,1,c,748,1504736,1505240,1505444
78,first,19,feige,IAT_purple2.bmp,purple,starting_scream,scream,starting,c,negative,negative,ES_green,1,c,557,1507266,1507770,1507974
78,first,20,geizig,IAT_green1.bmp,green,ending_scream,scream,ending,c,negative,positive,ES_green,1,c,623,1509606,1510110,1510314
78,first,21,gerecht,IAT_red3.bmp,red,ending_melody,melody,ending,m,positive,negative,ES_green,1,m,626,1512012,1512516,1512720
78,first,22,teuer,IAT_green3.bmp,green,ending_scream,scream,ending,c,negative,positive,ES_green,1,c,696,1514420,1514925,1515129
78,first,23,geizig,IAT_yellow2.bmp,yellow,starting_melody,melody,starting,c,negative,positive,ES_green,1,c,534,1516900,1517404,1517608
78,first,24,kaputt,IAT_red3.bmp,red,ending_melody,melody,ending,c,negative,negative,ES_green,1,c,565,1519216,1519721,1519925
78,first,25,streng,IAT_yellow2.bmp,yellow,starting_melody,melody,starting,c,negative,positive,ES_green,1,c,619,1521565,1522070,1522274
78,first,26,krank,IAT_yellow4.bmp,yellow,starting_melody,melody,starting,c,negative,positive,ES_green,1,c,524,1523967,1524471,1524675
78,first,27,kaputt,IAT_green4.bmp,green,ending_scream,scream,ending,c,negative,positive,ES_green,1,c,469,1526274,1526779,1526983
78,first,28,munter,IAT_green1.bmp,green,ending_scream,scream,ending,m,positive,positive,ES_green,1,m,671,1528527,1529031,1529235
78,first,29,einsam,IAT_green2.bmp,green,ending_scream,scream,ending,c,negative,positive,ES_green,1,c,462,1530981,1531485,1531689
78,first,30,schön,IAT_purple4.bmp,purple,starting_scream,scream,starting,m,positive,negative,ES_green,1,m,627,1533227,1533731,1533935
78,first,31,feige,IAT_green4.bmp,green,ending_scream,scream,ending,c,negative,positive,ES_green,1,c,542,1535636,1536141,1536345
78,first,32,sonnig,IAT_purple3.bmp,purple,starting_scream,scream,starting,m,positive,negative,ES_green,1,m,497,1537962,1538466,1538670
78,first,33,geizig,IAT_yellow4.bmp,yellow,starting_melody,melody,starting,c,negative,positive,ES_green,1,c,988,1540241,1540746,1540950
78,first,34,ehrlich,IAT_purple1.bmp,purple,starting_scream,scream,starting,m,positive,negative,ES_green,1,m,578,1543014,1543518,1543722
78,first,35,brutal,IAT_yellow1.bmp,yellow,starting_melody,melody,starting,c,negative,positive,ES_green,1,c,546,1545376,1545880,1546084
78,first,36,gierig,IAT_purple4.bmp,purple,starting_scream,scream,starting,c,negative,negative,ES_green,1,c,629,1547705,1548209,1548413
78,first,37,gerecht,IAT_yellow1.bmp,yellow,starting_melody,melody,starting,m,positive,positive,ES_green,1,m,459,1550118,1550623,1550827
78,first,38,morsch,IAT_red1.bmp,red,ending_melody,melody,ending,c,negative,negative,ES_green,1,c,558,1552362,1552866,1553070
78,first,39,human,IAT_yellow3.bmp,yellow,starting_melody,melody,starting,m,positive,positive,ES_green,1,m,605,1554702,1555206,1555410
78,first,40,streng,IAT_purple2.bmp,purple,starting_scream,scream,starting,c,negative,negative,ES_green,1,c,460,1557090,1557594,1557798
78,first,41,einsam,IAT_red2.bmp,red,ending_melody,melody,ending,c,negative,negative,ES_green,1,c,512,1559332,1559837,1560041
78,first,42,munter,IAT_red3.bmp,red,ending_melody,melody,ending,m,positive,negative,ES_green,1,m,547,1561627,1562131,1562335
78,first,43,lästig,IAT_red3.bmp,red,ending_melody,melody,ending,c,negative,negative,ES_green,1,c,667,1563957,1564461,1564665
78,first,44,heiter,IAT_green4.bmp,green,ending_scream,scream,ending,m,positive,positive,ES_green,1,m,535,1566406,1566911,1567115
78,first,45,falsch,IAT_green2.bmp,green,ending_scream,scream,ending,c,negative,positive,ES_green,1,c,485,1568724,1569229,1569433
78,first,46,schön,IAT_red4.bmp,red,ending_melody,melody,ending,m,positive,negative,ES_green,1,m,519,1570992,1571497,1571701
78,first,47,geizig,IAT_green4.bmp,green,ending_scream,scream,ending,c,negative,positive,ES_green,1,c,502,1573294,1573799,1574003
78,first,48,munter,IAT_purple4.bmp,purple,starting_scream,scream,starting,m,positive,negative,ES_green,1,m,516,1575580,1576084,1576288
78,first,49,einsam,IAT_red1.bmp,red,ending_melody,melody,ending,c,negative,negative,ES_green,1,c,593,1577879,1578383,1578587
78,first,50,sanft,IAT_green2.bmp,green,ending_scream,scream,ending,m,positive,positive,ES_green,1,m,667,1580255,1580759,1580963
78,first,51,witzig,IAT_green2.bmp,green,ending_scream,scream,ending,m,positive,positive,ES_green,1,m,524,1582706,1583210,1583414
78,first,52,morsch,IAT_green2.bmp,green,ending_scream,scream,ending,c,negative,positive,ES_green,1,c,475,1585012,1585516,1585720
78,first,53,gierig,IAT_yellow2.bmp,yellow,starting_melody,melody,starting,c,negative,positive,ES_green,1,c,648,1587270,1587774,1587978
78,first,54,teuer,IAT_red4.bmp,red,ending_melody,melody,ending,c,negative,negative,ES_green,1,c,731,1589701,1590205,1590410
78,first,55,lästig,IAT_red2.bmp,red,ending_melody,melody,ending,c,negative,negative,ES_green,1,c,512,1592216,1592721,1592925
78,first,56,ehrlich,IAT_green3.bmp,green,ending_scream,scream,ending,m,positive,positive,ES_green,1,m,541,1594512,1595017,1595221
78,first,57,krank,IAT_purple1.bmp,purple,starting_scream,scream,starting,c,negative,negative,ES_green,1,c,773,1596836,1597340,1597544
78,first,58,sozial,IAT_purple3.bmp,purple,starting_scream,scream,starting,m,positive,negative,ES_green,1,m,546,1599392,1599896,1600100
78,first,59,lustig,IAT_purple1.bmp,purple,starting_scream,scream,starting,m,positive,negative,ES_green,1,m,545,1601722,1602227,1602431
78,first,60,witzig,IAT_green3.bmp,green,ending_scream,scream,ending,m,positive,positive,ES_green,1,m,895,1604051,1604556,1604760
78,first,61,feige,IAT_purple1.bmp,purple,starting_scream,scream,starting,c,negative,negative,ES_green,1,c,533,1606728,1607232,1607436
78,first,62,human,IAT_yellow2.bmp,yellow,starting_melody,melody,starting,m,positive,positive,ES_green,1,m,520,1609044,1609549,1609753
78,first,63,gerecht,IAT_red1.bmp,red,ending_melody,melody,ending,m,positive,negative,ES_green,1,m,569,1611348,1611852,1612056
78,first,64,gesund,IAT_red2.bmp,red,ending_melody,melody,ending,m,positive,negative,ES_green,1,m,507,1613700,1614204,1614408
78,first,65,gerecht,IAT_red4.bmp,red,ending_melody,melody,ending,m,positive,negative,ES_green,1,m,506,1615990,1616494,1616698
78,first,66,brutal,IAT_purple3.bmp,purple,starting_scream,scream,starting,c,negative,negative,ES_green,1,c,533,1618276,1618781,1618985
78,first,67,sozial,IAT_yellow4.bmp,yellow,starting_melody,melody,starting,m,positive,positive,ES_green,1,m,498,1620594,1621098,1621302
78,first,68,schön,IAT_red2.bmp,red,ending_melody,melody,ending,m,positive,negative,ES_green,1,m,613,1622875,1623379,1623583
78,first,69,teuer,IAT_yellow4.bmp,yellow,starting_melody,melody,starting,c,negative,positive,ES_green,1,c,886,1625271,1625775,1625979
78,first,70,sonnig,IAT_yellow2.bmp,yellow,starting_melody,melody,starting,m,positive,positive,ES_green,1,m,1044,1627940,1628444,1628648
78,first,71,falsch,IAT_green3.bmp,green,ending_scream,scream,ending,c,negative,positive,ES_green,1,c,562,1630767,1631271,1631475
78,first,72,witzig,IAT_purple2.bmp,purple,starting_scream,scream,starting,m,positive,negative,ES_green,1,m,527,1633113,1633617,1633821
78,first,73,ehrlich,IAT_green4.bmp,green,ending_scream,scream,ending,m,positive,positive,ES_green,1,m,497,1635423,1635928,1636132
78,first,74,gierig,IAT_purple2.bmp,purple,starting_scream,scream,starting,c,negative,negative,ES_green,1,c,544,1637705,1638209,1638413
78,first,75,falsch,IAT_yellow3.bmp,yellow,starting_melody,melody,starting,c,negative,positive,ES_green,1,c,489,1640031,1640536,1640740
78,first,76,heiter,IAT_red1.bmp,red,ending_melody,melody,ending,m,positive,negative,ES_green,1,m,797,1642304,1642808,1643012
78,first,77,streng,IAT_green4.bmp,green,ending_scream,scream,ending,c,negative,positive,ES_green,1,c,552,1644884,1645388,1645592
78,first,78,lästig,IAT_red4.bmp,red,ending_melody,melody,ending,c,negative,negative,ES_green,1,c,855,1647218,1647722,1647926
78,first,79,human,IAT_green3.bmp,green,ending_scream,scream,ending,m,positive,positive,ES_green,1,m,615,1649856,1650360,1650564
78,first,80,sozial,IAT_yellow4.bmp,yellow,starting_melody,melody,starting,m,positive,positive,ES_green,1,m,477,1652254,1652759,1652963
78,first,81,witzig,IAT_yellow1.bmp,yellow,starting_melody,melody,starting,m,positive,positive,ES_green,1,m,480,1654516,1655020,1655224
78,first,82,sanft,IAT_green3.bmp,green,ending_scream,scream,ending,m,positive,positive,ES_green,1,m,536,1656779,1657283,1657487
78,first,83,sozial,IAT_red1.bmp,red,ending_melody,melody,ending,m,positive,negative,ES_green,1,m,649,1659097,1659602,1659806
78,first,84,heiter,IAT_purple2.bmp,purple,starting_scream,scream,starting,m,positive,negative,ES_green,1,m,425,1661530,1662034,1662238
78,first,85,munter,IAT_purple1.bmp,purple,starting_scream,scream,starting,m,positive,negative,ES_green,1,m,478,1663738,1664242,1664446
78,first,86,sonnig,IAT_yellow3.bmp,yellow,starting_melody,melody,starting,m,positive,positive,ES_green,1,m,428,1665998,1666502,1666706
78,first,87,teuer,IAT_yellow2.bmp,yellow,starting_melody,melody,starting,c,negative,positive,ES_green,1,c,603,1668209,1668713,1668917
78,first,88,gesund,IAT_yellow1.bmp,yellow,starting_melody,melody,starting,m,positive,positive,ES_green,1,m,564,1670595,1671099,1671303
78,first,89,kaputt,IAT_green2.bmp,green,ending_scream,scream,ending,c,negative,positive,ES_green,1,c,582,1672942,1673446,1673650
78,first,90,schön,IAT_yellow1.bmp,yellow,starting_melody,melody,starting,m,positive,positive,ES_green,1,m,645,1675307,1675811,1676015
78,first,91,falsch,IAT_purple3.bmp,purple,starting_scream,scream,starting,c,negative,negative,ES_green,1,c,619,1677735,1678239,1678443
78,first,92,brutal,IAT_red2.bmp,red,ending_melody,melody,ending,c,negative,negative,ES_green,1,c,641,1680136,1680641,1680845
78,first,93,gesund,IAT_purple1.bmp,purple,starting_scream,scream,starting,m,positive,negative,ES_green,1,m,516,1682561,1683065,1683269
78,first,94,lustig,IAT_green1.bmp,green,ending_scream,scream,ending,m,positive,positive,ES_green,1,m,511,1684859,1685363,1685568
78,first,95,human,IAT_yellow3.bmp,yellow,starting_melody,melody,starting,m,positive,positive,ES_green,1,m,506,1687154,1687658,1687862
78,second,0,sozial,IAT_purple2.bmp,purple,starting_scream,scream,starting,m,positive,negative,ES_green,1,m,640,1737016,1737520,1737724
78,second,1,schön,IAT_red1.bmp,red,ending_melody,melody,ending,m,positive,negative,ES_green,1,m,659,1739440,1739944,1740148
78,second,2,lästig,IAT_purple3.bmp,purple,starting_scream,scream,starting,c,negative,negative,ES_green,1,c,522,1741882,1742386,1742590
78,second,3,witzig,IAT_red3.bmp,red,ending_melody,melody,ending,m,positive,negative,ES_green,1,m,753,1744186,1744690,1744894
78,second,4,brutal,IAT_red3.bmp,red,ending_melody,melody,ending,c,negative,negative,ES_green,1,c,720,1746722,1747226,1747430
78,second,5,krank,IAT_red1.bmp,red,ending_melody,melody,ending,c,negative,negative,ES_green,1,c,607,1749225,1749729,1749933
78,second,6,brutal,IAT_purple2.bmp,purple,starting_scream,scream,starting,c,negative,negative,ES_green,1,c,561,1751615,1752119,1752323
78,second,7,lästig,IAT_purple2.bmp,purple,starting_scream,scream,starting,c,negative,negative,ES_green,1,c,692,1753959,1754463,1754668
78,second,8,heiter,IAT_purple3.bmp,purple,starting_scream,scream,starting,m,positive,negative,ES_green,1,m,607,1756435,1756939,1757143
78,second,9,geizig,IAT_red2.bmp,red,ending_melody,melody,ending,c,negative,negative,ES_green,1,c,468,1758825,1759330,1759534
78,second,10,morsch,IAT_yellow2.bmp,yellow,starting_melody,melody,starting,c,negative,positive,ES_green,1,c,425,1761076,1761580,1761784
78,second,11,human,IAT_green3.bmp,green,ending_scream,scream,ending,m,positive,positive,ES_green,1,m,620,1763284,1763788,1763992
78,second,12,feige,IAT_purple1.bmp,purple,starting_scream,scream,starting,c,negative,negative,ES_green,1,c,519,1765686,1766191,1766395
78,second,13,sonnig,IAT_yellow3.bmp,yellow,starting_melody,melody,starting,m,positive,positive,ES_green,1,m,521,1767988,1768492,1768696
78,second,14,kaputt,IAT_yellow4.bmp,yellow,starting_melody,melody,starting,c,negative,positive,ES_green,1,c,654,1770294,1770798,1771002
78,second,15,teuer,IAT_green3.bmp,green,ending_scream,scream,ending,c,negative,positive,ES_green,1,c,583,1772730,1773234,1773438
78,second,16,human,IAT_purple3.bmp,purple,starting_scream,scream,starting,m,positive,negative,ES_green,1,m,562,1775096,1775600,1775804
78,second,17,munter,IAT_red1.bmp,red,ending_melody,melody,ending,m,positive,negative,ES_green,1,m,614,1777443,1777947,1778151
78,second,18,gesund,IAT_purple1.bmp,purple,starting_scream,scream,starting,m,positive,negative,ES_green,1,m,586,1779842,1780346,1780550
78,second,19,sonnig,IAT_green1.bmp,green,ending_scream,scream,ending,m,positive,positive,ES_green,1,m,648,1782211,1782715,1782919
78,second,20,human,IAT_green4.bmp,green,ending_scream,scream,ending,m,positive,positive,ES_green,1,m,1123,1784642,1785146,1785350
78,second,21,streng,IAT_yellow2.bmp,yellow,starting_melody,melody,starting,c,negative,positive,ES_green,1,c,651,1787548,1788052,1788256
78,second,22,einsam,IAT_purple4.bmp,purple,starting_scream,scream,starting,c,negative,negative,ES_green,1,c,1490,1789982,1790486,1790690
78,second,23,feige,IAT_green1.bmp,green,ending_scream,scream,ending,c,negative,positive,ES_green,0,None,1500,1793255,1793759,1793963
78,second,24,teuer,IAT_green2.bmp,green,ending_scream,scream,ending,c,negative,positive,ES_green,1,c,693,1797038,1797542,1797746
78,second,25,witzig,IAT_purple4.bmp,purple,starting_scream,scream,starting,m,positive,negative,ES_green,1,m,581,1799514,1800018,1800222
78,second,26,sanft,IAT_yellow4.bmp,yellow,starting_melody,melody,starting,m,positive,positive,ES_green,0,c,493,1801879,1802383,1802587
78,second,27,gerecht,IAT_red3.bmp,red,ending_melody,melody,ending,m,positive,negative,ES_green,1,m,587,1804656,1805160,1805364
78,second,28,krank,IAT_yellow2.bmp,yellow,starting_melody,melody,starting,c,negative,positive,ES_green,1,c,588,1807026,1807530,1807734
78,second,29,lustig,IAT_red3.bmp,red,ending_melody,melody,ending,m,positive,negative,ES_green,1,m,513,1809397,1809901,1810105
78,second,30,gerecht,IAT_purple1.bmp,purple,starting_scream,scream,starting,m,positive,negative,ES_green,1,m,693,1811693,1812198,1812402
78,second,31,ehrlich,IAT_yellow3.bmp,yellow,starting_melody,melody,starting,m,positive,positive,ES_green,1,m,624,1814170,1814675,1814879
78,second,32,einsam,IAT_red2.bmp,red,ending_melody,melody,ending,c,negative,negative,ES_green,1,c,763,1816578,1817082,1817286
78,second,33,gesund,IAT_red4.bmp,red,ending_melody,melody,ending,m,positive,negative,ES_green,1,m,573,1819125,1819630,1819834
78,second,34,heiter,IAT_purple3.bmp,purple,starting_scream,scream,starting,m,positive,negative,ES_green,1,m,1316,1821481,1821986,1822190
78,second,35,witzig,IAT_yellow1.bmp,yellow,starting_melody,melody,starting,m,positive,positive,ES_green,1,m,847,1824582,1825086,1825290
78,second,36,falsch,IAT_green2.bmp,green,ending_scream,scream,ending,c,negative,positive,ES_green,1,c,748,1827211,1827715,1827919
78,second,37,morsch,IAT_purple4.bmp,purple,starting_scream,scream,starting,c,negative,negative,ES_green,1,c,1163,1829741,1830245,1830449
78,second,38,geizig,IAT_green4.bmp,green,ending_scream,scream,ending,c,negative,positive,ES_green,1,c,1213,1832687,1833191,1833395
78,second,39,sonnig,IAT_green1.bmp,green,ending_scream,scream,ending,m,positive,positive,ES_green,1,m,507,1835683,1836187,1836391
78,second,40,gerecht,IAT_green4.bmp,green,ending_scream,scream,ending,m,positive,positive,ES_green,1,m,489,1837973,1838478,1838682
78,second,41,gierig,IAT_green4.bmp,green,ending_scream,scream,ending,c,negative,positive,ES_green,1,c,579,1840246,1840750,1840954
78,second,42,kaputt,IAT_purple2.bmp,purple,starting_scream,scream,starting,c,negative,negative,ES_green,1,c,546,1842608,1843113,1843317
78,second,43,lustig,IAT_yellow1.bmp,yellow,starting_melody,melody,starting,m,positive,positive,ES_green,1,m,483,1844939,1845443,1845648
78,second,44,munter,IAT_green2.bmp,green,ending_scream,scream,ending,m,positive,positive,ES_green,1,m,1185,1847206,1847710,1847914
78,second,45,streng,IAT_green2.bmp,green,ending_scream,scream,ending,c,negative,positive,ES_green,1,c,607,1850174,1850678,1850882
78,second,46,teuer,IAT_yellow3.bmp,yellow,starting_melody,melody,starting,c,negative,positive,ES_green,1,c,725,1852565,1853070,1853274
78,second,47,kaputt,IAT_red4.bmp,red,ending_melody,melody,ending,c,negative,negative,ES_green,1,c,864,1855075,1855579,1855783
78,second,48,brutal,IAT_yellow1.bmp,yellow,starting_melody,melody,starting,c,negative,positive,ES_green,1,c,698,1857723,1858227,1858431
78,second,49,heiter,IAT_yellow2.bmp,yellow,starting_melody,melody,starting,m,positive,positive,ES_green,1,m,665,1860205,1860709,1860913
78,second,50,streng,IAT_green1.bmp,green,ending_scream,scream,ending,c,negative,positive,ES_green,1,c,586,1862654,1863158,1863362
78,second,51,sanft,IAT_green3.bmp,green,ending_scream,scream,ending,m,positive,positive,ES_green,1,m,910,1865025,1865529,1865733
78,second,52,sonnig,IAT_yellow3.bmp,yellow,starting_melody,melody,starting,m,positive,positive,ES_green,1,m,669,1867718,1868222,1868426
78,second,53,einsam,IAT_yellow1.bmp,yellow,starting_melody,melody,starting,c,negative,positive,ES_green,1,c,1441,1870171,1870675,1870879
78,second,54,sozial,IAT_green1.bmp,green,ending_scream,scream,ending,m,positive,positive,ES_green,1,m,768,1873395,1873899,1874103
78,second,55,gesund,IAT_yellow4.bmp,yellow,starting_melody,melody,starting,m,positive,positive,ES_green,1,m,834,1875946,1876450,1876654
78,second,56,ehrlich,IAT_green3.bmp,green,ending_scream,scream,ending,m,positive,positive,ES_green,1,m,1279,1878565,1879069,1879273
78,second,57,gierig,IAT_red2.bmp,red,ending_melody,melody,ending,c,negative,negative,ES_green,1,c,1178,1881627,1882131,1882335
78,second,58,falsch,IAT_red1.bmp,red,ending_melody,melody,ending,c,negative,negative,ES_green,1,c,704,1884589,1885093,1885297
78,second,59,gerecht,IAT_red3.bmp,red,ending_melody,melody,ending,m,positive,negative,ES_green,1,m,674,1887076,1887581,1887785
78,second,60,sanft,IAT_purple4.bmp,purple,starting_scream,scream,starting,m,positive,negative,ES_green,1,m,531,1889534,1890038,1890242
78,second,61,munter,IAT_yellow2.bmp,yellow,starting_melody,melody,starting,m,positive,positive,ES_green,1,m,728,1891848,1892352,1892556
78,second,62,lästig,IAT_purple3.bmp,purple,starting_scream,scream,starting,c,negative,negative,ES_green,1,c,578,1894359,1894863,1895067
78,second,63,ehrlich,IAT_yellow1.bmp,yellow,starting_melody,melody,starting,m,positive,positive,ES_green,1,m,543,1896722,1897226,1897430
78,second,64,schön,IAT_purple1.bmp,purple,starting_scream,scream,starting,m,positive,negative,ES_green,1,m,492,1899049,1899553,1899757
78,second,65,kaputt,IAT_yellow3.bmp,yellow,starting_melody,melody,starting,c,negative,positive,ES_green,1,c,505,1901326,1901830,1902034
78,second,66,feige,IAT_purple4.bmp,purple,starting_scream,scream,starting,c,negative,negative,ES_green,1,c,636,1903615,1904119,1904323
78,second,67,morsch,IAT_red4.bmp,red,ending_melody,melody,ending,c,negative,negative,ES_green,1,c,655,1906035,1906539,1906743
78,second,68,falsch,IAT_green3.bmp,green,ending_scream,scream,ending,c,negative,positive,ES_green,1,c,457,1908474,1908978,1909182
78,second,69,geizig,IAT_red4.bmp,red,ending_melody,melody,ending,c,negative,negative,ES_green,1,c,619,1910715,1911219,1911423
78,second,70,morsch,IAT_yellow4.bmp,yellow,starting_melody,melody,starting,c,negative,positive,ES_green,1,c,486,1913118,1913623,1913828
78,second,71,sozial,IAT_red1.bmp,red,ending_melody,melody,ending,m,positive,negative,ES_green,1,m,655,1915390,1915894,1916098
78,second,72,feige,IAT_purple4.bmp,purple,starting_scream,scream,starting,c,negative,negative,ES_green,1,c,397,1917828,1918332,1918536
78,second,73,gierig,IAT_red4.bmp,red,ending_melody,melody,ending,c,negative,negative,ES_green,1,c,474,1920008,1920512,1920716
78,second,74,teuer,IAT_yellow2.bmp,yellow,starting_melody,melody,starting,c,negative,positive,ES_green,0,m,558,1922266,1922771,1922975
78,second,75,lästig,IAT_green4.bmp,green,ending_scream,scream,ending,c,negative,positive,ES_green,1,c,599,1925109,1925613,1925817
78,second,76,schön,IAT_purple2.bmp,purple,starting_scream,scream,starting,m,positive,negative,ES_green,1,m,676,1927492,1927996,1928200
78,second,77,witzig,IAT_red4.bmp,red,ending_melody,melody,ending,m,positive,negative,ES_green,1,m,561,1929952,1930457,1930661
78,second,78,lustig,IAT_green3.bmp,green,ending_scream,scream,ending,m,positive,positive,ES_green,1,m,580,1932296,1932801,1933005
78,second,79,ehrlich,IAT_purple3.bmp,purple,starting_scream,scream,starting,m,positive,negative,ES_green,1,m,595,1934660,1935164,1935368
78,second,80,heiter,IAT_red2.bmp,red,ending_melody,melody,ending,m,positive,negative,ES_green,1,m,457,1937038,1937543,1937747
78,second,81,human,IAT_purple1.bmp,purple,starting_scream,scream,starting,m,positive,negative,ES_green,1,m,614,1939280,1939784,1939988
78,second,82,krank,IAT_purple1.bmp,purple,starting_scream,scream,starting,c,negative,negative,ES_green,1,c,746,1941677,1942181,1942385
78,second,83,sanft,IAT_yellow3.bmp,yellow,starting_melody,melody,starting,m,positive,positive,ES_green,1,m,925,1944206,1944710,1944914
78,second,84,gierig,IAT_yellow4.bmp,yellow,starting_melody,melody,starting,c,negative,positive,ES_green,1,c,629,1946914,1947419,1947623
78,second,85,schön,IAT_yellow1.bmp,yellow,starting_melody,melody,starting,m,positive,positive,ES_green,1,m,554,1949327,1949832,1950036
78,second,86,falsch,IAT_red2.bmp,red,ending_melody,melody,ending,c,negative,negative,ES_green,1,c,518,1951665,1952169,1952373
78,second,87,sozial,IAT_green2.bmp,green,ending_scream,scream,ending,m,positive,positive,ES_green,1,m,592,1953966,1954471,1954675
78,second,88,einsam,IAT_green2.bmp,green,ending_scream,scream,ending,c,negative,positive,ES_green,1,c,527,1956342,1956846,1957050
78,second,89,munter,IAT_red2.bmp,red,ending_melody,melody,ending,m,positive,negative,ES_green,1,m,515,1958652,1959156,1959360
78,second,90,krank,IAT_purple2.bmp,purple,starting_scream,scream,starting,c,negative,negative,ES_green,1,c,477,1960950,1961455,1961659
78,second,91,gesund,IAT_red1.bmp,red,ending_melody,melody,ending,m,positive,negative,ES_green,1,m,501,1963212,1963717,1963921
78,second,92,streng,IAT_yellow4.bmp,yellow,starting_melody,melody,starting,c,negative,positive,ES_green,1,c,496,1965498,1966003,1966207
78,second,93,geizig,IAT_red3.bmp,red,ending_melody,melody,ending,c,negative,negative,ES_green,1,c,858,1967778,1968283,1968488
78,second,94,brutal,IAT_green4.bmp,green,ending_scream,scream,ending,c,negative,positive,ES_green,1,c,531,1970421,1970925,1971129
78,second,95,lustig,IAT_green1.bmp,green,ending_scream,scream,ending,m,positive,positive,ES_green,1,m,883,1972735,1973239,1973443
78,third,0,ehrlich,IAT_green4.bmp,green,ending_scream,scream,ending,m,positive,positive,ES_green,1,m,581,2017556,2018060,2018264
78,third,1,einsam,IAT_yellow2.bmp,yellow,starting_melody,melody,starting,c,negative,positive,ES_green,1,c,773,2019922,2020426,2020630
78,third,2,morsch,IAT_purple2.bmp,purple,starting_scream,scream,starting,c,negative,negative,ES_green,1,c,670,2022478,2022983,2023187
78,third,3,sozial,IAT_purple3.bmp,purple,starting_scream,scream,starting,m,positive,negative,ES_green,1,m,665,2024932,2025436,2025640
78,third,4,sanft,IAT_yellow1.bmp,yellow,starting_melody,melody,starting,m,positive,positive,ES_green,1,m,552,2027381,2027885,2028089
78,third,5,krank,IAT_purple3.bmp,purple,starting_scream,scream,starting,c,negative,negative,ES_green,1,c,625,2029716,2030221,2030425
78,third,6,teuer,IAT_green1.bmp,green,ending_scream,scream,ending,c,negative,positive,ES_green,1,c,754,2032125,2032629,2032833
78,third,7,lästig,IAT_green2.bmp,green,ending_scream,scream,ending,c,negative,positive,ES_green,1,c,510,2034663,2035168,2035372
78,third,8,lustig,IAT_purple1.bmp,purple,starting_scream,scream,starting,m,positive,negative,ES_green,1,m,972,2036957,2037461,2037665
78,third,9,krank,IAT_green4.bmp,green,ending_scream,scream,ending,c,negative,positive,ES_green,1,c,455,2039713,2040218,2040422
78,third,10,munter,IAT_yellow3.bmp,yellow,starting_melody,melody,starting,m,positive,positive,ES_green,1,m,466,2041953,2042457,2042661
78,third,11,gesund,IAT_green3.bmp,green,ending_scream,scream,ending,m,positive,positive,ES_green,1,m,435,2044202,2044707,2044911
78,third,12,lustig,IAT_red1.bmp,red,ending_melody,melody,ending,m,positive,negative,ES_green,1,m,522,2046421,2046925,2047129
78,third,13,gesund,IAT_green1.bmp,green,ending_scream,scream,ending,m,positive,positive,ES_green,1,m,418,2048726,2049231,2049435
78,third,14,streng,IAT_purple4.bmp,purple,starting_scream,scream,starting,c,negative,negative,ES_green,1,c,589,2050928,2051432,2051636
78,third,15,schön,IAT_yellow1.bmp,yellow,starting_melody,melody,starting,m,positive,positive,ES_green,1,m,439,2053300,2053804,2054008
78,third,16,falsch,IAT_red3.bmp,red,ending_melody,melody,ending,c,negative,negative,ES_green,1,c,1184,2055522,2056027,2056231
78,third,17,brutal,IAT_yellow4.bmp,yellow,starting_melody,melody,starting,c,negative,positive,ES_green,1,c,539,2058491,2058995,2059199
78,third,18,heiter,IAT_green1.bmp,green,ending_scream,scream,ending,m,positive,positive,ES_green,1,m,598,2060814,2061318,2061522
78,third,19,schön,IAT_green2.bmp,green,ending_scream,scream,ending,m,positive,positive,ES_green,1,m,629,2063196,2063700,2063904
78,third,20,kaputt,IAT_yellow2.bmp,yellow,starting_melody,melody,starting,c,negative,positive,ES_green,1,c,493,2065609,2066113,2066317
78,third,21,lustig,IAT_red2.bmp,red,ending_melody,melody,ending,m,positive,negative,ES_green,1,m,498,2067885,2068390,2068594
78,third,22,falsch,IAT_yellow2.bmp,yellow,starting_melody,melody,starting,c,negative,positive,ES_green,1,c,602,2070167,2070671,2070875
78,third,23,geizig,IAT_purple1.bmp,purple,starting_scream,scream,starting,c,negative,negative,ES_green,1,c,669,2072553,2073058,2073262
78,third,24,lästig,IAT_red1.bmp,red,ending_melody,melody,ending,c,negative,negative,ES_green,1,c,891,2075006,2075511,2075715
78,third,25,sozial,IAT_green2.bmp,green,ending_scream,scream,ending,m,positive,positive,ES_green,1,m,564,2077681,2078185,2078389
78,third,26,munter,IAT_red1.bmp,red,ending_melody,melody,ending,m,positive,negative,ES_green,1,m,524,2080028,2080532,2080736
78,third,27,feige,IAT_purple2.bmp,purple,starting_scream,scream,starting,c,negative,negative,ES_green,1,c,590,2082336,2082840,2083044
78,third,28,teuer,IAT_purple2.bmp,purple,starting_scream,scream,starting,c,negative,negative,ES_green,1,c,839,2084709,2085213,2085417
78,third,29,sonnig,IAT_green1.bmp,green,ending_scream,scream,ending,m,positive,positive,ES_green,1,m,531,2087333,2087838,2088042
78,third,30,sanft,IAT_green4.bmp,green,ending_scream,scream,ending,m,positive,positive,ES_green,1,m,948,2089649,2090153,2090357
78,third,31,krank,IAT_green4.bmp,green,ending_scream,scream,ending,c,negative,positive,ES_green,1,c,989,2092380,2092885,2093089
78,third,32,feige,IAT_green4.bmp,green,ending_scream,scream,ending,c,negative,positive,ES_green,1,c,1184,2095154,2095658,2095862
78,third,33,teuer,IAT_green3.bmp,green,ending_scream,scream,ending,c,negative,positive,ES_green,1,c,580,2098122,2098626,2098830
78,third,34,gerecht,IAT_yellow3.bmp,yellow,starting_melody,melody,starting,m,positive,positive,ES_green,1,m,527,2100486,2100990,2101194
78,third,35,gesund,IAT_purple3.bmp,purple,starting_scream,scream,starting,m,positive,negative,ES_green,1,m,574,2102797,2103301,2103505
78,third,36,geizig,IAT_red3.bmp,red,ending_melody,melody,ending,c,negative,negative,ES_green,1,c,515,2105155,2105659,2105863
78,third,37,schön,IAT_green3.bmp,green,ending_scream,scream,ending,m,positive,positive,ES_green,1,m,492,2107455,2107959,2108163
78,third,38,streng,IAT_yellow3.bmp,yellow,starting_melody,melody,starting,c,negative,positive,ES_green,1,c,644,2109731,2110236,2110440
78,third,39,sonnig,IAT_red3.bmp,red,ending_melody,melody,ending,m,positive,negative,ES_green,1,m,494,2112162,2112666,2112870
78,third,40,kaputt,IAT_yellow4.bmp,yellow,starting_melody,melody,starting,c,negative,positive,ES_green,1,c,470,2114441,2114945,2115149
78,third,41,geizig,IAT_red4.bmp,red,ending_melody,melody,ending,c,negative,negative,ES_green,1,c,687,2116696,2117200,2117404
78,third,42,sanft,IAT_yellow1.bmp,yellow,starting_melody,melody,starting,m,positive,positive,ES_green,1,m,694,2119167,2119671,2119875
78,third,43,heiter,IAT_yellow4.bmp,yellow,starting_melody,melody,starting,m,positive,positive,ES_green,1,m,415,2121646,2122150,2122354
78,third,44,munter,IAT_red1.bmp,red,ending_melody,melody,ending,m,positive,negative,ES_green,1,m,531,2123845,2124349,2124553
78,third,45,einsam,IAT_red4.bmp,red,ending_melody,melody,ending,c,negative,negative,ES_green,1,c,563,2126162,2126666,2126870
78,third,46,gesund,IAT_purple1.bmp,purple,starting_scream,scream,starting,m,positive,negative,ES_green,1,m,511,2128508,2129013,2129217
78,third,47,gerecht,IAT_purple2.bmp,purple,starting_scream,scream,starting,m,positive,negative,ES_green,1,m,448,2130805,2131309,2131513
78,third,48,gierig,IAT_red4.bmp,red,ending_melody,melody,ending,c,negative,negative,ES_green,1,c,679,2133037,2133541,2133745
78,third,49,ehrlich,IAT_purple3.bmp,purple,starting_scream,scream,starting,m,positive,negative,ES_green,1,m,560,2135499,2136003,2136207
78,third,50,lästig,IAT_yellow4.bmp,yellow,starting_melody,melody,starting,c,negative,positive,ES_green,1,c,909,2137844,2138348,2138552
78,third,51,gierig,IAT_purple2.bmp,purple,starting_scream,scream,starting,c,negative,negative,ES_green,1,c,534,2140536,2141041,2141245
78,third,52,schön,IAT_red3.bmp,red,ending_melody,melody,ending,m,positive,negative,ES_green,1,m,664,2142855,2143359,2143563
78,third,53,falsch,IAT_purple4.bmp,purple,starting_scream,scream,starting,c,negative,negative,ES_green,1,c,486,2145303,2145808,2146012
78,third,54,ehrlich,IAT_purple1.bmp,purple,starting_scream,scream,starting,m,positive,negative,ES_green,1,m,556,2147575,2148079,2148283
78,third,55,lästig,IAT_yellow1.bmp,yellow,starting_melody,melody,starting,c,negative,positive,ES_green,1,c,633,2149915,2150419,2150623
78,third,56,einsam,IAT_green1.bmp,green,ending_scream,scream,ending,c,negative,positive,ES_green,1,c,506,2152333,2152837,2153041
78,third,57,gierig,IAT_purple1.bmp,purple,starting_scream,scream,starting,c,negative,negative,ES_green,1,c,472,2154624,2155128,2155332
78,third,58,sozial,IAT_purple3.bmp,purple,starting_scream,scream,starting,m,positive,negative,ES_green,1,m,578,2156878,2157383,2157588
78,third,59,heiter,IAT_red4.bmp,red,ending_melody,melody,ending,m,positive,negative,ES_green,0,c,414,2159243,2159747,2159951
78,third,60,sonnig,IAT_purple4.bmp,purple,starting_scream,scream,starting,m,positive,negative,ES_green,1,m,402,2161943,2162448,2162652
78,third,61,krank,IAT_yellow1.bmp,yellow,starting_melody,melody,starting,c,negative,positive,ES_green,1,c,584,2164130,2164634,2164838
78,third,62,human,IAT_yellow3.bmp,yellow,starting_melody,melody,starting,m,positive,positive,ES_green,1,m,634,2166499,2167003,2167207
78,third,63,kaputt,IAT_red1.bmp,red,ending_melody,melody,ending,c,negative,negative,ES_green,1,c,698,2168918,2169422,2169626
78,third,64,sozial,IAT_green3.bmp,green,ending_scream,scream,ending,m,positive,positive,ES_green,1,m,769,2171401,2171905,2172109
78,third,65,sanft,IAT_red3.bmp,red,ending_melody,melody,ending,m,positive,negative,ES_green,1,m,812,2173954,2174458,2174662
78,third,66,teuer,IAT_red2.bmp,red,ending_melody,melody,ending,c,negative,negative,ES_green,1,c,723,2176551,2177055,2177259
78,third,67,streng,IAT_red2.bmp,red,ending_melody,melody,ending,c,negative,negative,ES_green,1,c,688,2179058,2179562,2179766
78,third,68,human,IAT_yellow3.bmp,yellow,starting_melody,melody,starting,m,positive,positive,ES_green,1,m,610,2181530,2182034,2182238
78,third,69,lustig,IAT_yellow2.bmp,yellow,starting_melody,melody,starting,m,positive,positive,ES_green,1,m,1143,2183925,2184429,2184633
78,third,70,feige,IAT_red2.bmp,red,ending_melody,melody,ending,c,negative,negative,ES_green,1,c,466,2186854,2187358,2187562
78,third,71,morsch,IAT_red4.bmp,red,ending_melody,melody,ending,c,negative,negative,ES_green,1,c,531,2189104,2189608,2189812
78,third,72,witzig,IAT_purple2.bmp,purple,starting_scream,scream,starting,m,positive,negative,ES_green,1,m,574,2191420,2191924,2192128
78,third,73,human,IAT_red3.bmp,red,ending_melody,melody,ending,m,positive,negative,ES_green,1,m,738,2193778,2194283,2194487
78,third,74,kaputt,IAT_purple4.bmp,purple,starting_scream,scream,starting,c,negative,negative,ES_green,1,c,544,2196302,2196806,2197010
78,third,75,ehrlich,IAT_yellow1.bmp,yellow,starting_melody,melody,starting,m,positive,positive,ES_green,1,m,550,2198631,2199136,2199340
78,third,76,gerecht,IAT_yellow4.bmp,yellow,starting_melody,melody,starting,m,positive,positive,ES_green,1,m,526,2200967,2201471,2201675
78,third,77,geizig,IAT_green2.bmp,green,ending_scream,scream,ending,c,negative,positive,ES_green,1,c,528,2203277,2203782,2203986
78,third,78,gierig,IAT_yellow2.bmp,yellow,starting_melody,melody,starting,c,negative,positive,ES_green,1,c,825,2205590,2206094,2206298
78,third,79,sonnig,IAT_purple4.bmp,purple,starting_scream,scream,starting,m,positive,negative,ES_green,1,m,614,2208199,2208704,2208908
78,third,80,brutal,IAT_purple4.bmp,purple,starting_scream,scream,starting,c,negative,negative,ES_green,1,c,1370,2210602,2211106,2211310
78,third,81,feige,IAT_green4.bmp,green,ending_scream,scream,ending,c,negative,positive,ES_green,1,c,831,2213756,2214261,2214465
78,third,82,witzig,IAT_green3.bmp,green,ending_scream,scream,ending,m,positive,positive,ES_green,0,None,1500,2216374,2216879,2217083
78,third,83,einsam,IAT_green3.bmp,green,ending_scream,scream,ending,c,negative,positive,ES_green,1,c,615,2220159,2220664,2220868
78,third,84,gerecht,IAT_red4.bmp,red,ending_melody,melody,ending,m,positive,negative,ES_green,1,m,876,2222560,2223065,2223269
78,third,85,witzig,IAT_purple1.bmp,purple,starting_scream,scream,starting,m,positive,negative,ES_green,1,m,513,2225223,2225727,2225931
78,third,86,munter,IAT_red1.bmp,red,ending_melody,melody,ending,m,positive,negative,ES_green,1,m,639,2227521,2228025,2228229
78,third,87,morsch,IAT_green2.bmp,green,ending_scream,scream,ending,c,negative,positive,ES_green,1,c,583,2229945,2230449,2230653
78,third,88,brutal,IAT_green2.bmp,green,ending_scream,scream,ending,c,negative,positive,ES_green,1,c,617,2232314,2232818,2233022
78,third,89,falsch,IAT_yellow3.bmp,yellow,starting_melody,melody,starting,c,negative,positive,ES_green,1,c,582,2234717,2235221,2235425
78,third,90,morsch,IAT_yellow4.bmp,yellow,starting_melody,melody,starting,c,negative,positive,ES_green,1,c,517,2237085,2237589,2237793
78,third,91,witzig,IAT_green1.bmp,green,ending_scream,scream,ending,m,positive,positive,ES_green,1,m,581,2239387,2239891,2240095
78,third,92,brutal,IAT_red2.bmp,red,ending_melody,melody,ending,c,negative,negative,ES_green,1,c,532,2241754,2242258,2242462
78,third,93,streng,IAT_purple3.bmp,purple,starting_scream,scream,starting,c,negative,negative,ES_green,1,c,547,2244070,2244574,2244778
78,third,94,heiter,IAT_red2.bmp,red,ending_melody,melody,ending,m,positive,negative,ES_green,1,m,523,2246402,2246906,2247110
78,third,95,human,IAT_yellow2.bmp,yellow,starting_melody,melody,starting,m,positive,positive,ES_green,1,m,867,2248710,2249214,2249418
78,forth,0,einsam,IAT_green3.bmp,green,ending_scream,scream,ending,c,negative,positive,ES_green,1,c,797,2323650,2324154,2324358
78,forth,1,munter,IAT_purple3.bmp,purple,starting_scream,scream,starting,m,positive,negative,ES_green,1,m,559,2326232,2326736,2326940
78,forth,2,kaputt,IAT_red4.bmp,red,ending_melody,melody,ending,c,negative,negative,ES_green,1,c,558,2328575,2329079,2329283
78,forth,3,gierig,IAT_red4.bmp,red,ending_melody,melody,ending,c,negative,negative,ES_green,1,c,424,2330917,2331421,2331625
78,forth,4,gesund,IAT_yellow1.bmp,yellow,starting_melody,melody,starting,m,positive,positive,ES_green,1,m,603,2333125,2333630,2333834
78,forth,5,geizig,IAT_purple2.bmp,purple,starting_scream,scream,starting,c,negative,negative,ES_green,1,c,651,2335514,2336018,2336222
78,forth,6,teuer,IAT_yellow1.bmp,yellow,starting_melody,melody,starting,c,negative,positive,ES_green,1,c,696,2337948,2338452,2338656
78,forth,7,heiter,IAT_yellow4.bmp,yellow,starting_melody,melody,starting,m,positive,positive,ES_green,1,m,667,2340427,2340931,2341135
78,forth,8,gesund,IAT_green1.bmp,green,ending_scream,scream,ending,m,positive,positive,ES_green,1,m,462,2342877,2343381,2343585
78,forth,9,lustig,IAT_purple3.bmp,purple,starting_scream,scream,starting,m,positive,negative,ES_green,1,m,513,2345123,2345627,2345831
78,forth,10,munter,IAT_purple2.bmp,purple,starting_scream,scream,starting,m,positive,negative,ES_green,1,m,545,2347419,2347923,2348128
78,forth,11,falsch,IAT_purple1.bmp,purple,starting_scream,scream,starting,c,negative,negative,ES_green,1,c,461,2349749,2350253,2350458
78,forth,12,morsch,IAT_green1.bmp,green,ending_scream,scream,ending,c,negative,positive,ES_green,1,c,524,2351994,2352498,2352702
78,forth,13,krank,IAT_green2.bmp,green,ending_scream,scream,ending,c,negative,positive,ES_green,1,c,451,2354301,2354805,2355009
78,forth,14,geizig,IAT_yellow2.bmp,yellow,starting_melody,melody,starting,c,negative,positive,ES_green,1,c,613,2356536,2357040,2357244
78,forth,15,lustig,IAT_green3.bmp,green,ending_scream,scream,ending,m,positive,positive,ES_green,1,m,560,2358933,2359437,2359641
78,forth,16,ehrlich,IAT_green1.bmp,green,ending_scream,scream,ending,m,positive,positive,ES_green,1,m,719,2361276,2361780,2361984
78,forth,17,sozial,IAT_green1.bmp,green,ending_scream,scream,ending,m,positive,positive,ES_green,1,m,519,2363778,2364282,2364486
78,forth,18,feige,IAT_purple4.bmp,purple,starting_scream,scream,starting,c,negative,negative,ES_green,1,c,639,2366081,2366585,2366789
78,forth,19,ehrlich,IAT_green4.bmp,green,ending_scream,scream,ending,m,positive,positive,ES_green,1,m,667,2368504,2369008,2369212
78,forth,20,sonnig,IAT_red1.bmp,red,ending_melody,melody,ending,m,positive,negative,ES_green,1,m,498,2370956,2371460,2371664
78,forth,21,ehrlich,IAT_purple3.bmp,purple,starting_scream,scream,starting,m,positive,negative,ES_green,1,m,523,2373238,2373742,2373946
78,forth,22,brutal,IAT_yellow3.bmp,yellow,starting_melody,melody,starting,c,negative,positive,ES_green,1,c,523,2375546,2376050,2376254
78,forth,23,munter,IAT_red1.bmp,red,ending_melody,melody,ending,m,positive,negative,ES_green,1,m,542,2377854,2378358,2378562
78,forth,24,witzig,IAT_yellow1.bmp,yellow,starting_melody,melody,starting,m,positive,positive,ES_green,1,m,871,2380180,2380685,2380889
78,forth,25,sanft,IAT_purple2.bmp,purple,starting_scream,scream,starting,m,positive,negative,ES_green,1,m,462,2382836,2383341,2383545
78,forth,26,gesund,IAT_purple4.bmp,purple,starting_scream,scream,starting,m,positive,negative,ES_green,1,m,500,2385083,2385588,2385792
78,forth,27,schön,IAT_green3.bmp,green,ending_scream,scream,ending,m,positive,positive,ES_green,1,m,413,2387367,2387872,2388076
78,forth,28,heiter,IAT_green3.bmp,green,ending_scream,scream,ending,m,positive,positive,ES_green,1,m,421,2389566,2390070,2390274
78,forth,29,morsch,IAT_red1.bmp,red,ending_melody,melody,ending,c,negative,negative,ES_green,1,c,545,2391772,2392277,2392481
78,forth,30,sonnig,IAT_purple1.bmp,purple,starting_scream,scream,starting,m,positive,negative,ES_green,1,m,494,2394102,2394606,2394810
78,forth,31,human,IAT_purple3.bmp,purple,starting_scream,scream,starting,m,positive,negative,ES_green,1,m,511,2396380,2396884,2397088
78,forth,32,witzig,IAT_green1.bmp,green,ending_scream,scream,ending,m,positive,positive,ES_green,1,m,439,2398674,2399178,2399382
78,forth,33,geizig,IAT_purple4.bmp,purple,starting_scream,scream,starting,c,negative,negative,ES_green,1,c,597,2400896,2401400,2401604
78,forth,34,gerecht,IAT_red2.bmp,red,ending_melody,melody,ending,m,positive,negative,ES_green,1,m,719,2403277,2403782,2403986
78,forth,35,munter,IAT_green3.bmp,green,ending_scream,scream,ending,m,positive,positive,ES_green,1,m,427,2405782,2406286,2406490
78,forth,36,kaputt,IAT_red2.bmp,red,ending_melody,melody,ending,c,negative,negative,ES_green,1,c,589,2407994,2408498,2408702
78,forth,37,sanft,IAT_green4.bmp,green,ending_scream,scream,ending,m,positive,positive,ES_green,1,m,575,2410367,2410871,2411075
78,forth,38,streng,IAT_yellow3.bmp,yellow,starting_melody,melody,starting,c,negative,positive,ES_green,1,c,529,2412727,2413231,2413435
78,forth,39,teuer,IAT_green2.bmp,green,ending_scream,scream,ending,c,negative,positive,ES_green,1,c,628,2415040,2415545,2415749
78,forth,40,human,IAT_red3.bmp,red,ending_melody,melody,ending,m,positive,negative,ES_green,1,m,470,2417454,2417958,2418162
78,forth,41,sozial,IAT_red3.bmp,red,ending_melody,melody,ending,m,positive,negative,ES_green,1,m,493,2419708,2420213,2420417
78,forth,42,streng,IAT_green2.bmp,green,ending_scream,scream,ending,c,negative,positive,ES_green,1,c,865,2421986,2422490,2422694
78,forth,43,heiter,IAT_yellow1.bmp,yellow,starting_melody,melody,starting,m,positive,positive,ES_green,1,m,575,2424636,2425140,2425344
78,forth,44,einsam,IAT_purple1.bmp,purple,starting_scream,scream,starting,c,negative,negative,ES_green,1,c,976,2426996,2427500,2427704
78,forth,45,kaputt,IAT_purple4.bmp,purple,starting_scream,scream,starting,c,negative,negative,ES_green,1,c,767,2429757,2430261,2430465
78,forth,46,teuer,IAT_green4.bmp,green,ending_scream,scream,ending,c,negative,positive,ES_green,1,c,1043,2432307,2432811,2433015
78,forth,47,gesund,IAT_yellow3.bmp,yellow,starting_melody,melody,starting,m,positive,positive,ES_green,1,m,535,2435134,2435639,2435843
78,forth,48,human,IAT_yellow2.bmp,yellow,starting_melody,melody,starting,m,positive,positive,ES_green,1,m,530,2437456,2437960,2438164
78,forth,49,streng,IAT_purple4.bmp,purple,starting_scream,scream,starting,c,negative,negative,ES_green,1,c,610,2439770,2440274,2440478
78,forth,50,gierig,IAT_yellow1.bmp,yellow,starting_melody,melody,starting,c,negative,positive,ES_green,1,c,751,2442165,2442669,2442873
78,forth,51,lustig,IAT_red4.bmp,red,ending_melody,melody,ending,m,positive,negative,ES_green,1,m,445,2444701,2445205,2445409
78,forth,52,schön,IAT_red4.bmp,red,ending_melody,melody,ending,m,positive,negative,ES_green,1,m,516,2446931,2447435,2447639
78,forth,53,sonnig,IAT_green2.bmp,green,ending_scream,scream,ending,m,positive,positive,ES_green,1,m,480,2449231,2449735,2449939
78,forth,54,kaputt,IAT_green4.bmp,green,ending_scream,scream,ending,c,negative,positive,ES_green,1,c,630,2451496,2452000,2452204
78,forth,55,falsch,IAT_purple2.bmp,purple,starting_scream,scream,starting,c,negative,negative,ES_green,1,c,660,2453909,2454413,2454618
78,forth,56,lästig,IAT_yellow4.bmp,yellow,starting_melody,melody,starting,c,negative,positive,ES_green,1,c,576,2456356,2456860,2457064
78,forth,57,witzig,IAT_purple1.bmp,purple,starting_scream,scream,starting,m,positive,negative,ES_green,1,m,810,2458717,2459221,2459425
78,forth,58,krank,IAT_yellow2.bmp,yellow,starting_melody,melody,starting,c,negative,positive,ES_green,1,c,717,2461311,2461815,2462019
78,forth,59,lästig,IAT_yellow4.bmp,yellow,starting_melody,melody,starting,c,negative,positive,ES_green,1,c,577,2463813,2464317,2464521
78,forth,60,sonnig,IAT_red1.bmp,red,ending_melody,melody,ending,m,positive,negative,ES_green,1,m,780,2466175,2466679,2466883
78,forth,61,gerecht,IAT_yellow4.bmp,yellow,starting_melody,melody,starting,m,positive,positive,ES_green,1,m,984,2468740,2469244,2469448
78,forth,62,gierig,IAT_purple2.bmp,purple,starting_scream,scream,starting,c,negative,negative,ES_green,1,c,458,2471508,2472013,2472217
78,forth,63,falsch,IAT_red3.bmp,red,ending_melody,melody,ending,c,negative,negative,ES_green,1,c,791,2473752,2474256,2474460
78,forth,64,ehrlich,IAT_red1.bmp,red,ending_melody,melody,ending,m,positive,negative,ES_green,1,m,798,2476327,2476831,2477035
78,forth,65,feige,IAT_purple2.bmp,purple,starting_scream,scream,starting,c,negative,negative,ES_green,1,c,691,2478909,2479413,2479617
78,forth,66,schön,IAT_green2.bmp,green,ending_scream,scream,ending,m,positive,positive,ES_green,1,m,691,2481385,2481889,2482093
78,forth,67,einsam,IAT_yellow2.bmp,yellow,starting_melody,melody,starting,c,negative,positive,ES_green,1,c,720,2483860,2484365,2484569
78,forth,68,human,IAT_purple1.bmp,purple,starting_scream,scream,starting,m,positive,negative,ES_green,1,m,733,2486367,2486871,2487075
78,forth,69,falsch,IAT_red2.bmp,red,ending_melody,melody,ending,c,negative,negative,ES_green,1,c,758,2488886,2489390,2489594
78,forth,70,krank,IAT_red2.bmp,red,ending_melody,melody,ending,c,negative,negative,ES_green,1,c,939,2491428,2491933,2492137
78,forth,71,lästig,IAT_yellow2.bmp,yellow,starting_melody,melody,starting,c,negative,positive,ES_green,1,c,601,2494154,2494658,2494862
78,forth,72,witzig,IAT_purple1.bmp,purple,starting_scream,scream,starting,m,positive,negative,ES_green,1,m,701,2496539,2497043,2497247
78,forth,73,streng,IAT_red4.bmp,red,ending_melody,melody,ending,c,negative,negative,ES_green,1,c,1105,2499026,2499530,2499734
78,forth,74,sozial,IAT_yellow3.bmp,yellow,starting_melody,melody,starting,m,positive,positive,ES_green,1,m,1286,2501916,2502420,2502624
78,forth,75,morsch,IAT_yellow4.bmp,yellow,starting_melody,melody,starting,c,negative,positive,ES_green,1,c,569,2504986,2505491,2505695
78,forth,76,teuer,IAT_red4.bmp,red,ending_melody,melody,ending,c,negative,negative,ES_green,1,c,638,2507341,2507845,2508049
78,forth,77,morsch,IAT_red3.bmp,red,ending_melody,melody,ending,c,negative,negative,ES_green,1,c,520,2509766,2510270,2510475
78,forth,78,feige,IAT_red1.bmp,red,ending_melody,melody,ending,c,negative,negative,ES_green,1,c,522,2512071,2512577,2512782
78,forth,79,brutal,IAT_purple3.bmp,purple,starting_scream,scream,starting,c,negative,negative,ES_green,1,c,535,2514381,2514885,2515089
78,forth,80,gierig,IAT_red2.bmp,red,ending_melody,melody,ending,c,negative,negative,ES_green,1,c,745,2516701,2517205,2517409
78,forth,81,brutal,IAT_green3.bmp,green,ending_scream,scream,ending,c,negative,positive,ES_green,1,c,420,2519231,2519735,2519939
78,forth,82,gerecht,IAT_red3.bmp,red,ending_melody,melody,ending,m,positive,negative,ES_green,1,m,834,2521436,2521941,2522145
78,forth,83,geizig,IAT_green1.bmp,green,ending_scream,scream,ending,c,negative,positive,ES_green,1,c,737,2524056,2524561,2524765
78,forth,84,schön,IAT_purple4.bmp,purple,starting_scream,scream,starting,m,positive,negative,ES_green,1,m,723,2526578,2527082,2527286
78,forth,85,sozial,IAT_yellow1.bmp,yellow,starting_melody,melody,starting,m,positive,positive,ES_green,1,m,787,2529086,2529590,2529794
78,forth,86,krank,IAT_green2.bmp,green,ending_scream,scream,ending,c,negative,positive,ES_green,1,c,1228,2531657,2532161,2532365
78,forth,87,gerecht,IAT_yellow3.bmp,yellow,starting_melody,melody,starting,m,positive,positive,ES_green,1,m,549,2534670,2535174,2535378
78,forth,88,lästig,IAT_green4.bmp,green,ending_scream,scream,ending,c,negative,positive,ES_green,1,c,714,2537004,2537508,2537712
78,forth,89,sanft,IAT_red2.bmp,red,ending_melody,melody,ending,m,positive,negative,ES_green,1,m,871,2539503,2540008,2540212
78,forth,90,heiter,IAT_yellow3.bmp,yellow,starting_melody,melody,starting,m,positive,positive,ES_green,1,m,514,2542159,2542664,2542868
78,forth,91,lustig,IAT_yellow2.bmp,yellow,starting_melody,melody,starting,m,positive,positive,ES_green,1,m,522,2544459,2544963,2545168
78,forth,92,feige,IAT_purple3.bmp,purple,starting_scream,scream,starting,c,negative,negative,ES_green,1,c,927,2546766,2547271,2547475
78,forth,93,sanft,IAT_red3.bmp,red,ending_melody,melody,ending,m,positive,negative,ES_green,1,m,649,2549478,2549982,2550186
78,forth,94,brutal,IAT_green4.bmp,green,ending_scream,scream,ending,c,negative,positive,ES_green,1,c,599,2551912,2552416,2552620
78,forth,95,einsam,IAT_yellow4.bmp,yellow,starting_melody,melody,starting,c,negative,positive,ES_green,1,c,539,2554296,2554801,2555005
