subject_nr,block,trialnr,trial_target,trial_prime,prime_color,prime_role,prime_us,prime_relation,correct_response,target_valence,prime_valence,color_counter,correct_first_response,response_first_response,response_time_first_response,fixation_show,prime_show,target_show
61,first,0,lustig,IAT_yellow4.bmp,yellow,ending_scream,scream,ending,m,positive,positive,ES_yellow,1,m,561,1518010,1518514,1518718
61,first,1,morsch,IAT_red2.bmp,red,starting_melody,melody,starting,c,negative,positive,ES_yellow,1,c,523,1520354,1520858,1521062
61,first,2,einsam,IAT_yellow1.bmp,yellow,ending_scream,scream,ending,c,negative,positive,ES_yellow,0,m,529,1522659,1523164,1523368
61,first,3,gesund,IAT_red2.bmp,red,starting_melody,melody,starting,m,positive,positive,ES_yellow,0,c,542,1525472,1525976,1526180
61,first,4,lästig,IAT_green1.bmp,green,starting_scream,scream,starting,c,negative,negative,ES_yellow,1,c,650,1528296,1528800,1529004
61,first,5,munter,IAT_purple3.bmp,purple,ending_melody,melody,ending,m,positive,negative,ES_yellow,1,m,471,1530728,1531232,1531436
61,first,6,gerecht,IAT_green3.bmp,green,starting_scream,scream,starting,m,positive,negative,ES_yellow,0,c,651,1532981,1533485,1533689
61,first,7,witzig,IAT_yellow2.bmp,yellow,ending_scream,scream,ending,m,positive,positive,ES_yellow,1,m,589,1535914,1536418,1536622
61,first,8,lustig,IAT_red3.bmp,red,starting_melody,melody,starting,m,positive,positive,ES_yellow,1,m,670,1538284,1538789,1538993
61,first,9,sanft,IAT_green3.bmp,green,starting_scream,scream,starting,m,positive,negative,ES_yellow,1,m,471,1540738,1541242,1541446
61,first,10,teuer,IAT_purple4.bmp,purple,ending_melody,melody,ending,c,negative,negative,ES_yellow,1,c,461,1542991,1543495,1543699
61,first,11,human,IAT_green1.bmp,green,starting_scream,scream,starting,m,positive,negative,ES_yellow,1,m,866,1545233,1545738,1545942
61,first,12,heiter,IAT_red4.bmp,red,starting_melody,melody,starting,m,positive,positive,ES_yellow,1,m,484,1547882,1548387,1548591
61,first,13,sozial,IAT_yellow3.bmp,yellow,ending_scream,scream,ending,m,positive,positive,ES_yellow,1,m,547,1550151,1550655,1550859
61,first,14,lästig,IAT_purple4.bmp,purple,ending_melody,melody,ending,c,negative,negative,ES_yellow,1,c,497,1552480,1552984,1553188
61,first,15,krank,IAT_green2.bmp,green,starting_scream,scream,starting,c,negative,negative,ES_yellow,1,c,699,1554758,1555263,1555467
61,first,16,lustig,IAT_green1.bmp,green,starting_scream,scream,starting,m,positive,negative,ES_yellow,1,m,480,1557240,1557744,1557948
61,first,17,sozial,IAT_red3.bmp,red,starting_melody,melody,starting,m,positive,positive,ES_yellow,1,m,620,1559502,1560006,1560210
61,first,18,witzig,IAT_purple3.bmp,purple,ending_melody,melody,ending,m,positive,negative,ES_yellow,1,m,490,1561905,1562409,1562613
61,first,19,gierig,IAT_yellow1.bmp,yellow,ending_scream,scream,ending,c,negative,positive,ES_yellow,1,c,480,1564180,1564684,1564888
61,first,20,sozial,IAT_yellow3.bmp,yellow,ending_scream,scream,ending,m,positive,positive,ES_yellow,1,m,637,1566442,1566947,1567151
61,first,21,sonnig,IAT_purple1.bmp,purple,ending_melody,melody,ending,m,positive,negative,ES_yellow,1,m,518,1568863,1569368,1569572
61,first,22,falsch,IAT_red4.bmp,red,starting_melody,melody,starting,c,negative,positive,ES_yellow,1,c,457,1571164,1571668,1571872
61,first,23,human,IAT_red3.bmp,red,starting_melody,melody,starting,m,positive,positive,ES_yellow,1,m,462,1573403,1573907,1574111
61,first,24,schön,IAT_yellow1.bmp,yellow,ending_scream,scream,ending,m,positive,positive,ES_yellow,1,m,539,1575649,1576153,1576357
61,first,25,morsch,IAT_purple1.bmp,purple,ending_melody,melody,ending,c,negative,negative,ES_yellow,1,c,455,1577971,1578476,1578680
61,first,26,gesund,IAT_purple4.bmp,purple,ending_melody,melody,ending,m,positive,negative,ES_yellow,1,m,450,1580210,1580714,1580918
61,first,27,streng,IAT_yellow4.bmp,yellow,ending_scream,scream,ending,c,negative,positive,ES_yellow,1,c,496,1582443,1582948,1583152
61,first,28,heiter,IAT_red4.bmp,red,starting_melody,melody,starting,m,positive,positive,ES_yellow,1,m,448,1584724,1585228,1585432
61,first,29,kaputt,IAT_green2.bmp,green,starting_scream,scream,starting,c,negative,negative,ES_yellow,1,c,477,1586956,1587460,1587664
61,first,30,human,IAT_red1.bmp,red,starting_melody,melody,starting,m,positive,positive,ES_yellow,1,m,551,1589216,1589720,1589924
61,first,31,morsch,IAT_yellow2.bmp,yellow,ending_scream,scream,ending,c,negative,positive,ES_yellow,1,c,584,1591549,1592054,1592258
61,first,32,ehrlich,IAT_purple3.bmp,purple,ending_melody,melody,ending,m,positive,negative,ES_yellow,1,m,508,1593917,1594421,1594625
61,first,33,geizig,IAT_yellow3.bmp,yellow,ending_scream,scream,ending,c,negative,positive,ES_yellow,1,c,532,1596208,1596712,1596916
61,first,34,gerecht,IAT_green4.bmp,green,starting_scream,scream,starting,m,positive,negative,ES_yellow,1,m,673,1598523,1599027,1599231
61,first,35,sanft,IAT_yellow3.bmp,yellow,ending_scream,scream,ending,m,positive,positive,ES_yellow,1,m,583,1600978,1601483,1601687
61,first,36,teuer,IAT_red4.bmp,red,starting_melody,melody,starting,c,negative,positive,ES_yellow,1,c,468,1603345,1603849,1604053
61,first,37,kaputt,IAT_red2.bmp,red,starting_melody,melody,starting,c,negative,positive,ES_yellow,1,c,461,1605595,1606099,1606303
61,first,38,ehrlich,IAT_yellow1.bmp,yellow,ending_scream,scream,ending,m,positive,positive,ES_yellow,1,m,512,1607840,1608344,1608548
61,first,39,streng,IAT_yellow4.bmp,yellow,ending_scream,scream,ending,c,negative,positive,ES_yellow,1,c,562,1610134,1610638,1610842
61,first,40,einsam,IAT_green1.bmp,green,starting_scream,scream,starting,c,negative,negative,ES_yellow,0,m,558,1612479,1612983,1613187
61,first,41,witzig,IAT_red1.bmp,red,starting_melody,melody,starting,m,positive,positive,ES_yellow,1,m,549,1615321,1615825,1616029
61,first,42,lästig,IAT_yellow4.bmp,yellow,ending_scream,scream,ending,c,negative,positive,ES_yellow,1,c,534,1617653,1618157,1618361
61,first,43,geizig,IAT_red1.bmp,red,starting_melody,melody,starting,c,negative,positive,ES_yellow,1,c,463,1619971,1620475,1620679
61,first,44,ehrlich,IAT_green2.bmp,green,starting_scream,scream,starting,m,positive,negative,ES_yellow,1,m,557,1622217,1622721,1622925
61,first,45,brutal,IAT_green4.bmp,green,starting_scream,scream,starting,c,negative,negative,ES_yellow,1,c,510,1624557,1625061,1625265
61,first,46,human,IAT_red1.bmp,red,starting_melody,melody,starting,m,positive,positive,ES_yellow,1,m,649,1626851,1627355,1627559
61,first,47,morsch,IAT_yellow2.bmp,yellow,ending_scream,scream,ending,c,negative,positive,ES_yellow,1,c,541,1629283,1629787,1629991
61,first,48,sonnig,IAT_yellow4.bmp,yellow,ending_scream,scream,ending,m,positive,positive,ES_yellow,1,m,437,1631608,1632112,1632316
61,first,49,krank,IAT_red3.bmp,red,starting_melody,melody,starting,c,negative,positive,ES_yellow,1,c,494,1633829,1634333,1634537
61,first,50,munter,IAT_red1.bmp,red,starting_melody,melody,starting,m,positive,positive,ES_yellow,1,m,623,1636106,1636610,1636814
61,first,51,lustig,IAT_purple1.bmp,purple,ending_melody,melody,ending,m,positive,negative,ES_yellow,1,m,547,1638513,1639017,1639221
61,first,52,feige,IAT_purple2.bmp,purple,ending_melody,melody,ending,c,negative,negative,ES_yellow,1,c,661,1640843,1641348,1641552
61,first,53,brutal,IAT_green3.bmp,green,starting_scream,scream,starting,c,negative,negative,ES_yellow,1,c,506,1643289,1643793,1643997
61,first,54,gesund,IAT_green2.bmp,green,starting_scream,scream,starting,m,positive,negative,ES_yellow,1,m,539,1645578,1646082,1646286
61,first,55,teuer,IAT_purple4.bmp,purple,ending_melody,melody,ending,c,negative,negative,ES_yellow,1,c,466,1647900,1648404,1648608
61,first,56,feige,IAT_red1.bmp,red,starting_melody,melody,starting,c,negative,positive,ES_yellow,1,c,460,1650149,1650654,1650858
61,first,57,geizig,IAT_red2.bmp,red,starting_melody,melody,starting,c,negative,positive,ES_yellow,1,c,555,1652393,1652897,1653101
61,first,58,heiter,IAT_purple1.bmp,purple,ending_melody,melody,ending,m,positive,negative,ES_yellow,1,m,494,1654732,1655236,1655440
61,first,59,gierig,IAT_red4.bmp,red,starting_melody,melody,starting,c,negative,positive,ES_yellow,1,c,623,1657011,1657515,1657719
61,first,60,teuer,IAT_green3.bmp,green,starting_scream,scream,starting,c,negative,negative,ES_yellow,1,c,470,1659418,1659922,1660126
61,first,61,einsam,IAT_green2.bmp,green,starting_scream,scream,starting,c,negative,negative,ES_yellow,1,c,674,1661671,1662175,1662379
61,first,62,lästig,IAT_green4.bmp,green,starting_scream,scream,starting,c,negative,negative,ES_yellow,1,c,508,1664128,1664632,1664836
61,first,63,kaputt,IAT_purple3.bmp,purple,ending_melody,melody,ending,c,negative,negative,ES_yellow,1,c,513,1666419,1666923,1667127
61,first,64,gierig,IAT_green4.bmp,green,starting_scream,scream,starting,c,negative,negative,ES_yellow,1,c,554,1668715,1669219,1669423
61,first,65,gerecht,IAT_red3.bmp,red,starting_melody,melody,starting,m,positive,positive,ES_yellow,1,m,518,1671053,1671558,1671762
61,first,66,gesund,IAT_green1.bmp,green,starting_scream,scream,starting,m,positive,negative,ES_yellow,1,m,622,1673368,1673872,1674076
61,first,67,krank,IAT_green2.bmp,green,starting_scream,scream,starting,c,negative,negative,ES_yellow,1,c,469,1675772,1676277,1676481
61,first,68,schön,IAT_purple3.bmp,purple,ending_melody,melody,ending,m,positive,negative,ES_yellow,1,m,545,1678024,1678529,1678733
61,first,69,ehrlich,IAT_red2.bmp,red,starting_melody,melody,starting,m,positive,positive,ES_yellow,1,m,548,1680353,1680857,1681061
61,first,70,munter,IAT_green3.bmp,green,starting_scream,scream,starting,m,positive,negative,ES_yellow,1,m,565,1682683,1683188,1683392
61,first,71,heiter,IAT_green4.bmp,green,starting_scream,scream,starting,m,positive,negative,ES_yellow,1,m,598,1685032,1685536,1685740
61,first,72,streng,IAT_purple3.bmp,purple,ending_melody,melody,ending,c,negative,negative,ES_yellow,1,c,432,1687413,1687917,1688121
61,first,73,sonnig,IAT_purple2.bmp,purple,ending_melody,melody,ending,m,positive,negative,ES_yellow,1,m,502,1689628,1690132,1690336
61,first,74,gerecht,IAT_yellow3.bmp,yellow,ending_scream,scream,ending,m,positive,positive,ES_yellow,1,m,649,1691913,1692417,1692621
61,first,75,falsch,IAT_purple2.bmp,purple,ending_melody,melody,ending,c,negative,negative,ES_yellow,1,c,446,1694345,1694849,1695053
61,first,76,gierig,IAT_yellow2.bmp,yellow,ending_scream,scream,ending,c,negative,positive,ES_yellow,1,c,654,1696574,1697078,1697282
61,first,77,falsch,IAT_green4.bmp,green,starting_scream,scream,starting,c,negative,negative,ES_yellow,1,c,471,1699012,1699517,1699721
61,first,78,schön,IAT_green1.bmp,green,starting_scream,scream,starting,m,positive,negative,ES_yellow,1,m,455,1701267,1701771,1701975
61,first,79,krank,IAT_red3.bmp,red,starting_melody,melody,starting,c,negative,positive,ES_yellow,1,c,437,1703504,1704009,1704213
61,first,80,feige,IAT_purple2.bmp,purple,ending_melody,melody,ending,c,negative,negative,ES_yellow,1,c,463,1705725,1706229,1706433
61,first,81,geizig,IAT_yellow2.bmp,yellow,ending_scream,scream,ending,c,negative,positive,ES_yellow,1,c,665,1707972,1708477,1708681
61,first,82,brutal,IAT_purple2.bmp,purple,ending_melody,melody,ending,c,negative,negative,ES_yellow,1,c,537,1710422,1710926,1711130
61,first,83,kaputt,IAT_purple4.bmp,purple,ending_melody,melody,ending,c,negative,negative,ES_yellow,1,c,400,1712743,1713247,1713451
61,first,84,sonnig,IAT_purple2.bmp,purple,ending_melody,melody,ending,m,positive,negative,ES_yellow,1,m,541,1714925,1715430,1715634
61,first,85,streng,IAT_yellow4.bmp,yellow,ending_scream,scream,ending,c,negative,positive,ES_yellow,1,c,456,1717251,1717755,1717959
61,first,86,witzig,IAT_yellow1.bmp,yellow,ending_scream,scream,ending,m,positive,positive,ES_yellow,1,m,556,1719490,1719994,1720198
61,first,87,sanft,IAT_yellow1.bmp,yellow,ending_scream,scream,ending,m,positive,positive,ES_yellow,1,m,488,1721831,1722335,1722539
61,first,88,brutal,IAT_red4.bmp,red,starting_melody,melody,starting,c,negative,positive,ES_yellow,1,c,585,1724102,1724606,1724810
61,first,89,munter,IAT_purple4.bmp,purple,ending_melody,melody,ending,m,positive,negative,ES_yellow,1,m,588,1726471,1726975,1727179
61,first,90,falsch,IAT_purple1.bmp,purple,ending_melody,melody,ending,c,negative,negative,ES_yellow,1,c,459,1728842,1729347,1729551
61,first,91,feige,IAT_yellow3.bmp,yellow,ending_scream,scream,ending,c,negative,positive,ES_yellow,1,c,527,1731084,1731588,1731792
61,first,92,einsam,IAT_red2.bmp,red,starting_melody,melody,starting,c,negative,positive,ES_yellow,1,c,700,1733405,1733909,1734113
61,first,93,sanft,IAT_purple1.bmp,purple,ending_melody,melody,ending,m,positive,negative,ES_yellow,1,m,552,1735889,1736394,1736598
61,first,94,sozial,IAT_yellow2.bmp,yellow,ending_scream,scream,ending,m,positive,positive,ES_yellow,1,m,537,1738225,1738729,1738933
61,first,95,schön,IAT_green3.bmp,green,starting_scream,scream,starting,m,positive,negative,ES_yellow,1,m,452,1740546,1741050,1741254
61,second,0,heiter,IAT_purple3.bmp,purple,ending_melody,melody,ending,m,positive,negative,ES_yellow,1,m,655,1755808,1756312,1756516
61,second,1,kaputt,IAT_purple2.bmp,purple,ending_melody,melody,ending,c,negative,negative,ES_yellow,1,c,358,1758246,1758750,1758955
61,second,2,ehrlich,IAT_red4.bmp,red,starting_melody,melody,starting,m,positive,positive,ES_yellow,1,m,558,1760386,1760890,1761094
61,second,3,feige,IAT_yellow1.bmp,yellow,ending_scream,scream,ending,c,negative,positive,ES_yellow,1,c,441,1762726,1763230,1763434
61,second,4,kaputt,IAT_red3.bmp,red,starting_melody,melody,starting,c,negative,positive,ES_yellow,1,c,420,1764949,1765453,1765657
61,second,5,sozial,IAT_red2.bmp,red,starting_melody,melody,starting,m,positive,positive,ES_yellow,1,m,549,1767151,1767656,1767860
61,second,6,gerecht,IAT_green3.bmp,green,starting_scream,scream,starting,m,positive,negative,ES_yellow,1,m,484,1769483,1769987,1770191
61,second,7,falsch,IAT_purple2.bmp,purple,ending_melody,melody,ending,c,negative,negative,ES_yellow,1,c,489,1771749,1772254,1772458
61,second,8,lustig,IAT_red4.bmp,red,starting_melody,melody,starting,m,positive,positive,ES_yellow,1,m,544,1774021,1774525,1774729
61,second,9,feige,IAT_green4.bmp,green,starting_scream,scream,starting,c,negative,negative,ES_yellow,1,c,492,1776347,1776852,1777056
61,second,10,krank,IAT_yellow1.bmp,yellow,ending_scream,scream,ending,c,negative,positive,ES_yellow,1,c,707,1778622,1779126,1779330
61,second,11,brutal,IAT_red1.bmp,red,starting_melody,melody,starting,c,negative,positive,ES_yellow,1,c,532,1781111,1781616,1781820
61,second,12,heiter,IAT_purple4.bmp,purple,ending_melody,melody,ending,m,positive,negative,ES_yellow,1,m,468,1783424,1783929,1784133
61,second,13,schön,IAT_green1.bmp,green,starting_scream,scream,starting,m,positive,negative,ES_yellow,1,m,502,1785673,1786178,1786382
61,second,14,morsch,IAT_red2.bmp,red,starting_melody,melody,starting,c,negative,positive,ES_yellow,1,c,552,1787959,1788463,1788667
61,second,15,human,IAT_yellow2.bmp,yellow,ending_scream,scream,ending,m,positive,positive,ES_yellow,1,m,485,1790294,1790798,1791002
61,second,16,lästig,IAT_red1.bmp,red,starting_melody,melody,starting,c,negative,positive,ES_yellow,1,c,447,1792562,1793066,1793270
61,second,17,sozial,IAT_red3.bmp,red,starting_melody,melody,starting,m,positive,positive,ES_yellow,1,m,544,1794792,1795296,1795500
61,second,18,geizig,IAT_yellow3.bmp,yellow,ending_scream,scream,ending,c,negative,positive,ES_yellow,1,c,497,1797117,1797622,1797826
61,second,19,gerecht,IAT_purple1.bmp,purple,ending_melody,melody,ending,m,positive,negative,ES_yellow,1,m,779,1799396,1799900,1800105
61,second,20,kaputt,IAT_purple4.bmp,purple,ending_melody,melody,ending,c,negative,negative,ES_yellow,1,c,511,1801957,1802462,1802666
61,second,21,teuer,IAT_yellow4.bmp,yellow,ending_scream,scream,ending,c,negative,positive,ES_yellow,1,c,623,1804262,1804766,1804970
61,second,22,geizig,IAT_red2.bmp,red,starting_melody,melody,starting,c,negative,positive,ES_yellow,1,c,601,1806668,1807172,1807376
61,second,23,morsch,IAT_yellow4.bmp,yellow,ending_scream,scream,ending,c,negative,positive,ES_yellow,1,c,482,1809051,1809556,1809760
61,second,24,brutal,IAT_purple3.bmp,purple,ending_melody,melody,ending,c,negative,negative,ES_yellow,1,c,512,1811316,1811820,1812024
61,second,25,streng,IAT_green2.bmp,green,starting_scream,scream,starting,c,negative,negative,ES_yellow,1,c,574,1813610,1814114,1814318
61,second,26,munter,IAT_purple1.bmp,purple,ending_melody,melody,ending,m,positive,negative,ES_yellow,1,m,479,1815966,1816470,1816675
61,second,27,einsam,IAT_purple3.bmp,purple,ending_melody,melody,ending,c,negative,negative,ES_yellow,1,c,588,1818228,1818732,1818936
61,second,28,ehrlich,IAT_green1.bmp,green,starting_scream,scream,starting,m,positive,negative,ES_yellow,1,m,527,1820597,1821101,1821305
61,second,29,gierig,IAT_yellow4.bmp,yellow,ending_scream,scream,ending,c,negative,positive,ES_yellow,1,c,502,1822906,1823410,1823614
61,second,30,feige,IAT_purple4.bmp,purple,ending_melody,melody,ending,c,negative,negative,ES_yellow,1,c,642,1825190,1825694,1825898
61,second,31,falsch,IAT_green2.bmp,green,starting_scream,scream,starting,c,negative,negative,ES_yellow,1,c,487,1827613,1828118,1828322
61,second,32,munter,IAT_red3.bmp,red,starting_melody,melody,starting,m,positive,positive,ES_yellow,1,m,816,1829884,1830388,1830592
61,second,33,witzig,IAT_red1.bmp,red,starting_melody,melody,starting,m,positive,positive,ES_yellow,1,m,581,1832482,1832986,1833190
61,second,34,lustig,IAT_yellow3.bmp,yellow,ending_scream,scream,ending,m,positive,positive,ES_yellow,1,m,498,1834845,1835349,1835553
61,second,35,lästig,IAT_red4.bmp,red,starting_melody,melody,starting,c,negative,positive,ES_yellow,1,c,464,1837125,1837629,1837833
61,second,36,schön,IAT_green3.bmp,green,starting_scream,scream,starting,m,positive,negative,ES_yellow,1,m,396,1839371,1839875,1840079
61,second,37,lustig,IAT_green3.bmp,green,starting_scream,scream,starting,m,positive,negative,ES_yellow,1,m,526,1841550,1842055,1842259
61,second,38,human,IAT_purple2.bmp,purple,ending_melody,melody,ending,m,positive,negative,ES_yellow,1,m,512,1843859,1844363,1844567
61,second,39,geizig,IAT_green4.bmp,green,starting_scream,scream,starting,c,negative,negative,ES_yellow,1,c,470,1846153,1846658,1846862
61,second,40,gerecht,IAT_red1.bmp,red,starting_melody,melody,starting,m,positive,positive,ES_yellow,1,m,528,1848406,1848910,1849114
61,second,41,falsch,IAT_purple4.bmp,purple,ending_melody,melody,ending,c,negative,negative,ES_yellow,1,c,439,1850716,1851220,1851424
61,second,42,ehrlich,IAT_red3.bmp,red,starting_melody,melody,starting,m,positive,positive,ES_yellow,1,m,452,1852937,1853441,1853645
61,second,43,sanft,IAT_purple3.bmp,purple,ending_melody,melody,ending,m,positive,negative,ES_yellow,1,m,476,1855171,1855675,1855879
61,second,44,gerecht,IAT_yellow3.bmp,yellow,ending_scream,scream,ending,m,positive,positive,ES_yellow,1,m,538,1857429,1857933,1858137
61,second,45,sonnig,IAT_yellow1.bmp,yellow,ending_scream,scream,ending,m,positive,positive,ES_yellow,1,m,490,1859749,1860253,1860457
61,second,46,gierig,IAT_purple1.bmp,purple,ending_melody,melody,ending,c,negative,negative,ES_yellow,1,c,761,1862021,1862526,1862730
61,second,47,teuer,IAT_red2.bmp,red,starting_melody,melody,starting,c,negative,positive,ES_yellow,1,c,580,1864565,1865069,1865273
61,second,48,morsch,IAT_yellow2.bmp,yellow,ending_scream,scream,ending,c,negative,positive,ES_yellow,1,c,548,1866928,1867432,1867636
61,second,49,sozial,IAT_purple1.bmp,purple,ending_melody,melody,ending,m,positive,negative,ES_yellow,1,m,560,1869258,1869762,1869966
61,second,50,teuer,IAT_purple4.bmp,purple,ending_melody,melody,ending,c,negative,negative,ES_yellow,1,c,610,1871600,1872105,1872309
61,second,51,streng,IAT_red4.bmp,red,starting_melody,melody,starting,c,negative,positive,ES_yellow,1,c,499,1873993,1874497,1874701
61,second,52,sanft,IAT_purple2.bmp,purple,ending_melody,melody,ending,m,positive,negative,ES_yellow,1,m,858,1876274,1876778,1876982
61,second,53,sozial,IAT_yellow2.bmp,yellow,ending_scream,scream,ending,m,positive,positive,ES_yellow,1,m,458,1878914,1879418,1879622
61,second,54,brutal,IAT_green4.bmp,green,starting_scream,scream,starting,c,negative,negative,ES_yellow,1,c,551,1881154,1881658,1881862
61,second,55,sanft,IAT_green1.bmp,green,starting_scream,scream,starting,m,positive,negative,ES_yellow,1,m,615,1883487,1883991,1884195
61,second,56,sonnig,IAT_purple3.bmp,purple,ending_melody,melody,ending,m,positive,negative,ES_yellow,1,m,490,1885884,1886388,1886592
61,second,57,gesund,IAT_yellow3.bmp,yellow,ending_scream,scream,ending,m,positive,positive,ES_yellow,1,m,576,1888157,1888661,1888865
61,second,58,lustig,IAT_yellow3.bmp,yellow,ending_scream,scream,ending,m,positive,positive,ES_yellow,1,m,395,1890515,1891019,1891223
61,second,59,krank,IAT_purple2.bmp,purple,ending_melody,melody,ending,c,negative,negative,ES_yellow,1,c,460,1892693,1893197,1893401
61,second,60,streng,IAT_purple2.bmp,purple,ending_melody,melody,ending,c,negative,negative,ES_yellow,1,c,581,1894936,1895440,1895644
61,second,61,einsam,IAT_green4.bmp,green,starting_scream,scream,starting,c,negative,negative,ES_yellow,1,c,545,1897299,1897803,1898007
61,second,62,gierig,IAT_red4.bmp,red,starting_melody,melody,starting,c,negative,positive,ES_yellow,1,c,907,1899626,1900130,1900335
61,second,63,munter,IAT_yellow1.bmp,yellow,ending_scream,scream,ending,m,positive,positive,ES_yellow,1,m,448,1902317,1902822,1903026
61,second,64,krank,IAT_yellow4.bmp,yellow,ending_scream,scream,ending,c,negative,positive,ES_yellow,1,c,432,1904549,1905053,1905257
61,second,65,feige,IAT_red3.bmp,red,starting_melody,melody,starting,c,negative,positive,ES_yellow,1,c,648,1906763,1907267,1907471
61,second,66,lästig,IAT_red2.bmp,red,starting_melody,melody,starting,c,negative,positive,ES_yellow,1,c,548,1909194,1909698,1909902
61,second,67,human,IAT_purple3.bmp,purple,ending_melody,melody,ending,m,positive,negative,ES_yellow,1,m,422,1911524,1912028,1912232
61,second,68,gierig,IAT_green3.bmp,green,starting_scream,scream,starting,c,negative,negative,ES_yellow,1,c,818,1913729,1914233,1914437
61,second,69,gesund,IAT_green1.bmp,green,starting_scream,scream,starting,m,positive,negative,ES_yellow,1,m,475,1916330,1916835,1917039
61,second,70,witzig,IAT_green3.bmp,green,starting_scream,scream,starting,m,positive,negative,ES_yellow,1,m,563,1918589,1919093,1919297
61,second,71,heiter,IAT_red3.bmp,red,starting_melody,melody,starting,m,positive,positive,ES_yellow,0,c,788,1920935,1921439,1921643
61,second,72,gesund,IAT_green2.bmp,green,starting_scream,scream,starting,m,positive,negative,ES_yellow,1,m,723,1924006,1924510,1924714
61,second,73,geizig,IAT_green1.bmp,green,starting_scream,scream,starting,c,negative,negative,ES_yellow,1,c,617,1926511,1927016,1927220
61,second,74,falsch,IAT_green2.bmp,green,starting_scream,scream,starting,c,negative,negative,ES_yellow,1,c,581,1928911,1929415,1929619
61,second,75,sonnig,IAT_green4.bmp,green,starting_scream,scream,starting,m,positive,negative,ES_yellow,1,m,533,1931274,1931779,1931983
61,second,76,witzig,IAT_purple1.bmp,purple,ending_melody,melody,ending,m,positive,negative,ES_yellow,1,m,544,1933590,1934094,1934298
61,second,77,heiter,IAT_yellow4.bmp,yellow,ending_scream,scream,ending,m,positive,positive,ES_yellow,1,m,767,1935916,1936420,1936624
61,second,78,brutal,IAT_green1.bmp,green,starting_scream,scream,starting,c,negative,negative,ES_yellow,1,c,491,1938466,1938970,1939174
61,second,79,gesund,IAT_green4.bmp,green,starting_scream,scream,starting,m,positive,negative,ES_yellow,1,m,607,1940738,1941243,1941447
61,second,80,sonnig,IAT_red1.bmp,red,starting_melody,melody,starting,m,positive,positive,ES_yellow,1,m,505,1943128,1943632,1943836
61,second,81,einsam,IAT_yellow3.bmp,yellow,ending_scream,scream,ending,c,negative,positive,ES_yellow,1,c,741,1945415,1945919,1946123
61,second,82,lästig,IAT_red4.bmp,red,starting_melody,melody,starting,c,negative,positive,ES_yellow,1,c,552,1947939,1948443,1948647
61,second,83,einsam,IAT_green3.bmp,green,starting_scream,scream,starting,c,negative,negative,ES_yellow,1,c,552,1950273,1950777,1950981
61,second,84,munter,IAT_yellow4.bmp,yellow,ending_scream,scream,ending,m,positive,positive,ES_yellow,1,m,504,1952608,1953112,1953316
61,second,85,krank,IAT_yellow2.bmp,yellow,ending_scream,scream,ending,c,negative,positive,ES_yellow,1,c,515,1954893,1955398,1955602
61,second,86,kaputt,IAT_yellow2.bmp,yellow,ending_scream,scream,ending,c,negative,positive,ES_yellow,1,c,567,1957192,1957696,1957900
61,second,87,morsch,IAT_purple1.bmp,purple,ending_melody,melody,ending,c,negative,negative,ES_yellow,1,c,471,1959543,1960047,1960251
61,second,88,teuer,IAT_green2.bmp,green,starting_scream,scream,starting,c,negative,negative,ES_yellow,1,c,722,1961795,1962300,1962504
61,second,89,witzig,IAT_green2.bmp,green,starting_scream,scream,starting,m,positive,negative,ES_yellow,1,m,511,1964300,1964804,1965008
61,second,90,ehrlich,IAT_yellow1.bmp,yellow,ending_scream,scream,ending,m,positive,positive,ES_yellow,1,m,562,1966594,1967098,1967302
61,second,91,schön,IAT_red1.bmp,red,starting_melody,melody,starting,m,positive,positive,ES_yellow,1,m,527,1968938,1969443,1969647
61,second,92,human,IAT_purple4.bmp,purple,ending_melody,melody,ending,m,positive,negative,ES_yellow,1,m,495,1971248,1971752,1971956
61,second,93,sanft,IAT_yellow1.bmp,yellow,ending_scream,scream,ending,m,positive,positive,ES_yellow,1,m,529,1973526,1974030,1974234
61,second,94,schön,IAT_red2.bmp,red,starting_melody,melody,starting,m,positive,positive,ES_yellow,1,m,467,1975838,1976342,1976546
61,second,95,streng,IAT_yellow2.bmp,yellow,ending_scream,scream,ending,c,negative,positive,ES_yellow,1,c,574,1978088,1978592,1978796
61,third,0,morsch,IAT_purple2.bmp,purple,ending_melody,melody,ending,c,negative,negative,ES_yellow,1,c,504,1991392,1991896,1992100
61,third,1,sozial,IAT_green4.bmp,green,starting_scream,scream,starting,m,positive,negative,ES_yellow,1,m,620,1993680,1994184,1994388
61,third,2,streng,IAT_green2.bmp,green,starting_scream,scream,starting,c,negative,negative,ES_yellow,1,c,659,1996082,1996586,1996790
61,third,3,lästig,IAT_red1.bmp,red,starting_melody,melody,starting,c,negative,positive,ES_yellow,1,c,466,1998523,1999027,1999231
61,third,4,lustig,IAT_green1.bmp,green,starting_scream,scream,starting,m,positive,negative,ES_yellow,1,m,441,2000770,2001274,2001478
61,third,5,gierig,IAT_green2.bmp,green,starting_scream,scream,starting,c,negative,negative,ES_yellow,1,c,546,2002992,2003497,2003701
61,third,6,gesund,IAT_yellow3.bmp,yellow,ending_scream,scream,ending,m,positive,positive,ES_yellow,1,m,493,2005321,2005825,2006029
61,third,7,heiter,IAT_purple3.bmp,purple,ending_melody,melody,ending,m,positive,negative,ES_yellow,1,m,472,2007595,2008099,2008303
61,third,8,kaputt,IAT_red2.bmp,red,starting_melody,melody,starting,c,negative,positive,ES_yellow,1,c,431,2009849,2010353,2010557
61,third,9,lästig,IAT_green4.bmp,green,starting_scream,scream,starting,c,negative,negative,ES_yellow,1,c,786,2012062,2012566,2012770
61,third,10,morsch,IAT_purple1.bmp,purple,ending_melody,melody,ending,c,negative,negative,ES_yellow,1,c,503,2014631,2015135,2015339
61,third,11,kaputt,IAT_yellow2.bmp,yellow,ending_scream,scream,ending,c,negative,positive,ES_yellow,1,c,501,2016916,2017420,2017624
61,third,12,teuer,IAT_red2.bmp,red,starting_melody,melody,starting,c,negative,positive,ES_yellow,1,c,554,2019199,2019703,2019907
61,third,13,feige,IAT_yellow2.bmp,yellow,ending_scream,scream,ending,c,negative,positive,ES_yellow,1,c,483,2021535,2022039,2022243
61,third,14,sozial,IAT_red3.bmp,red,starting_melody,melody,starting,m,positive,positive,ES_yellow,1,m,512,2023801,2024305,2024509
61,third,15,lustig,IAT_red3.bmp,red,starting_melody,melody,starting,m,positive,positive,ES_yellow,1,m,545,2026094,2026599,2026803
61,third,16,gesund,IAT_green1.bmp,green,starting_scream,scream,starting,m,positive,negative,ES_yellow,1,m,562,2028421,2028926,2029130
61,third,17,einsam,IAT_red3.bmp,red,starting_melody,melody,starting,c,negative,positive,ES_yellow,1,c,645,2030765,2031270,2031474
61,third,18,krank,IAT_red4.bmp,red,starting_melody,melody,starting,c,negative,positive,ES_yellow,1,c,497,2033192,2033697,2033901
61,third,19,geizig,IAT_red3.bmp,red,starting_melody,melody,starting,c,negative,positive,ES_yellow,1,c,584,2035472,2035976,2036180
61,third,20,witzig,IAT_purple1.bmp,purple,ending_melody,melody,ending,m,positive,negative,ES_yellow,1,m,506,2037838,2038342,2038546
61,third,21,gesund,IAT_green3.bmp,green,starting_scream,scream,starting,m,positive,negative,ES_yellow,1,m,587,2040126,2040630,2040835
61,third,22,falsch,IAT_red4.bmp,red,starting_melody,melody,starting,c,negative,positive,ES_yellow,1,c,427,2042496,2043000,2043204
61,third,23,munter,IAT_purple3.bmp,purple,ending_melody,melody,ending,m,positive,negative,ES_yellow,1,m,534,2044704,2045208,2045412
61,third,24,heiter,IAT_purple3.bmp,purple,ending_melody,melody,ending,m,positive,negative,ES_yellow,1,m,529,2047020,2047524,2047728
61,third,25,gerecht,IAT_yellow1.bmp,yellow,ending_scream,scream,ending,m,positive,positive,ES_yellow,1,m,742,2049331,2049835,2050039
61,third,26,brutal,IAT_purple4.bmp,purple,ending_melody,melody,ending,c,negative,negative,ES_yellow,1,c,563,2051856,2052360,2052564
61,third,27,teuer,IAT_purple3.bmp,purple,ending_melody,melody,ending,c,negative,negative,ES_yellow,1,c,535,2054201,2054706,2054910
61,third,28,feige,IAT_purple4.bmp,purple,ending_melody,melody,ending,c,negative,negative,ES_yellow,1,c,601,2056518,2057022,2057226
61,third,29,kaputt,IAT_purple4.bmp,purple,ending_melody,melody,ending,c,negative,negative,ES_yellow,1,c,426,2058901,2059405,2059609
61,third,30,einsam,IAT_purple2.bmp,purple,ending_melody,melody,ending,c,negative,negative,ES_yellow,1,c,664,2061109,2061613,2061817
61,third,31,teuer,IAT_red1.bmp,red,starting_melody,melody,starting,c,negative,positive,ES_yellow,1,c,484,2063555,2064060,2064265
61,third,32,ehrlich,IAT_red1.bmp,red,starting_melody,melody,starting,m,positive,positive,ES_yellow,1,m,524,2065823,2066327,2066531
61,third,33,gerecht,IAT_green4.bmp,green,starting_scream,scream,starting,m,positive,negative,ES_yellow,1,m,655,2068130,2068635,2068839
61,third,34,falsch,IAT_yellow3.bmp,yellow,ending_scream,scream,ending,c,negative,positive,ES_yellow,1,c,1186,2070568,2071073,2071277
61,third,35,einsam,IAT_green2.bmp,green,starting_scream,scream,starting,c,negative,negative,ES_yellow,0,m,621,2073537,2074041,2074245
61,third,36,kaputt,IAT_green3.bmp,green,starting_scream,scream,starting,c,negative,negative,ES_yellow,1,c,1268,2076442,2076947,2077151
61,third,37,heiter,IAT_green2.bmp,green,starting_scream,scream,starting,m,positive,negative,ES_yellow,1,m,555,2079492,2079996,2080200
61,third,38,gierig,IAT_yellow4.bmp,yellow,ending_scream,scream,ending,c,negative,positive,ES_yellow,1,c,590,2081831,2082335,2082539
61,third,39,sozial,IAT_yellow3.bmp,yellow,ending_scream,scream,ending,m,positive,positive,ES_yellow,1,m,549,2084203,2084707,2084911
61,third,40,lästig,IAT_yellow1.bmp,yellow,ending_scream,scream,ending,c,negative,positive,ES_yellow,1,c,498,2086535,2087039,2087243
61,third,41,gierig,IAT_yellow2.bmp,yellow,ending_scream,scream,ending,c,negative,positive,ES_yellow,1,c,601,2088816,2089320,2089524
61,third,42,munter,IAT_purple4.bmp,purple,ending_melody,melody,ending,m,positive,negative,ES_yellow,1,m,496,2091198,2091702,2091906
61,third,43,geizig,IAT_green3.bmp,green,starting_scream,scream,starting,c,negative,negative,ES_yellow,1,c,561,2093476,2093980,2094185
61,third,44,sonnig,IAT_red3.bmp,red,starting_melody,melody,starting,m,positive,positive,ES_yellow,1,m,490,2095821,2096326,2096530
61,third,45,human,IAT_yellow4.bmp,yellow,ending_scream,scream,ending,m,positive,positive,ES_yellow,1,m,430,2098093,2098598,2098802
61,third,46,falsch,IAT_yellow1.bmp,yellow,ending_scream,scream,ending,c,negative,positive,ES_yellow,1,c,483,2100306,2100810,2101014
61,third,47,lästig,IAT_green1.bmp,green,starting_scream,scream,starting,c,negative,negative,ES_yellow,1,c,499,2102571,2103076,2103280
61,third,48,krank,IAT_red2.bmp,red,starting_melody,melody,starting,c,negative,positive,ES_yellow,1,c,522,2104853,2105357,2105561
61,third,49,feige,IAT_green1.bmp,green,starting_scream,scream,starting,c,negative,negative,ES_yellow,1,c,551,2107157,2107662,2107866
61,third,50,sonnig,IAT_purple2.bmp,purple,ending_melody,melody,ending,m,positive,negative,ES_yellow,1,m,449,2109491,2109995,2110199
61,third,51,streng,IAT_green2.bmp,green,starting_scream,scream,starting,c,negative,negative,ES_yellow,1,c,506,2111722,2112226,2112430
61,third,52,falsch,IAT_yellow4.bmp,yellow,ending_scream,scream,ending,c,negative,positive,ES_yellow,1,c,519,2114011,2114515,2114719
61,third,53,human,IAT_yellow2.bmp,yellow,ending_scream,scream,ending,m,positive,positive,ES_yellow,1,m,664,2116313,2116817,2117021
61,third,54,ehrlich,IAT_red4.bmp,red,starting_melody,melody,starting,m,positive,positive,ES_yellow,1,m,577,2118759,2119263,2119467
61,third,55,streng,IAT_yellow4.bmp,yellow,ending_scream,scream,ending,c,negative,positive,ES_yellow,1,c,507,2121119,2121623,2121827
61,third,56,sanft,IAT_purple4.bmp,purple,ending_melody,melody,ending,m,positive,negative,ES_yellow,1,m,552,2123407,2123911,2124115
61,third,57,einsam,IAT_purple4.bmp,purple,ending_melody,melody,ending,c,negative,negative,ES_yellow,1,c,628,2125742,2126246,2126450
61,third,58,gesund,IAT_red1.bmp,red,starting_melody,melody,starting,m,positive,positive,ES_yellow,1,m,873,2128152,2128656,2128860
61,third,59,sonnig,IAT_green3.bmp,green,starting_scream,scream,starting,m,positive,negative,ES_yellow,1,m,495,2130807,2131312,2131516
61,third,60,geizig,IAT_yellow2.bmp,yellow,ending_scream,scream,ending,c,negative,positive,ES_yellow,1,c,868,2133085,2133590,2133795
61,third,61,lustig,IAT_purple1.bmp,purple,ending_melody,melody,ending,m,positive,negative,ES_yellow,1,m,473,2135737,2136241,2136445
61,third,62,gierig,IAT_red2.bmp,red,starting_melody,melody,starting,c,negative,positive,ES_yellow,1,c,542,2137993,2138497,2138701
61,third,63,ehrlich,IAT_yellow3.bmp,yellow,ending_scream,scream,ending,m,positive,positive,ES_yellow,1,m,412,2140318,2140822,2141026
61,third,64,schön,IAT_yellow3.bmp,yellow,ending_scream,scream,ending,m,positive,positive,ES_yellow,1,m,481,2142513,2143017,2143221
61,third,65,sanft,IAT_purple3.bmp,purple,ending_melody,melody,ending,m,positive,negative,ES_yellow,1,m,491,2144775,2145280,2145484
61,third,66,sozial,IAT_red2.bmp,red,starting_melody,melody,starting,m,positive,positive,ES_yellow,1,m,543,2147048,2147553,2147757
61,third,67,schön,IAT_yellow1.bmp,yellow,ending_scream,scream,ending,m,positive,positive,ES_yellow,1,m,461,2149375,2149879,2150083
61,third,68,witzig,IAT_green3.bmp,green,starting_scream,scream,starting,m,positive,negative,ES_yellow,1,m,451,2151619,2152123,2152327
61,third,69,gerecht,IAT_purple2.bmp,purple,ending_melody,melody,ending,m,positive,negative,ES_yellow,1,m,543,2153853,2154357,2154561
61,third,70,sanft,IAT_green2.bmp,green,starting_scream,scream,starting,m,positive,negative,ES_yellow,1,m,420,2156178,2156682,2156886
61,third,71,witzig,IAT_yellow2.bmp,yellow,ending_scream,scream,ending,m,positive,positive,ES_yellow,1,m,562,2158381,2158885,2159089
61,third,72,brutal,IAT_purple3.bmp,purple,ending_melody,melody,ending,c,negative,negative,ES_yellow,1,c,484,2160724,2161228,2161432
61,third,73,krank,IAT_red4.bmp,red,starting_melody,melody,starting,c,negative,positive,ES_yellow,1,c,610,2162991,2163495,2163699
61,third,74,teuer,IAT_green4.bmp,green,starting_scream,scream,starting,c,negative,negative,ES_yellow,1,c,765,2165383,2165888,2166092
61,third,75,lustig,IAT_yellow1.bmp,yellow,ending_scream,scream,ending,m,positive,positive,ES_yellow,1,m,536,2167932,2168436,2168640
61,third,76,schön,IAT_green3.bmp,green,starting_scream,scream,starting,m,positive,negative,ES_yellow,1,m,451,2170251,2170756,2170960
61,third,77,sonnig,IAT_red1.bmp,red,starting_melody,melody,starting,m,positive,positive,ES_yellow,1,m,452,2172485,2172990,2173194
61,third,78,witzig,IAT_purple1.bmp,purple,ending_melody,melody,ending,m,positive,negative,ES_yellow,1,m,411,2174721,2175225,2175429
61,third,79,krank,IAT_green4.bmp,green,starting_scream,scream,starting,c,negative,negative,ES_yellow,1,c,344,2176914,2177418,2177622
61,third,80,morsch,IAT_yellow4.bmp,yellow,ending_scream,scream,ending,c,negative,positive,ES_yellow,1,c,431,2179041,2179546,2179750
61,third,81,sanft,IAT_yellow1.bmp,yellow,ending_scream,scream,ending,m,positive,positive,ES_yellow,1,m,439,2181256,2181760,2181964
61,third,82,human,IAT_green1.bmp,green,starting_scream,scream,starting,m,positive,negative,ES_yellow,1,m,496,2183477,2183981,2184185
61,third,83,streng,IAT_purple2.bmp,purple,ending_melody,melody,ending,c,negative,negative,ES_yellow,1,c,363,2185755,2186260,2186465
61,third,84,morsch,IAT_purple1.bmp,purple,ending_melody,melody,ending,c,negative,negative,ES_yellow,1,c,402,2187903,2188407,2188611
61,third,85,brutal,IAT_green4.bmp,green,starting_scream,scream,starting,c,negative,negative,ES_yellow,1,c,557,2190087,2190591,2190795
61,third,86,feige,IAT_purple2.bmp,purple,ending_melody,melody,ending,c,negative,negative,ES_yellow,1,c,550,2192428,2192932,2193136
61,third,87,munter,IAT_yellow4.bmp,yellow,ending_scream,scream,ending,m,positive,positive,ES_yellow,1,m,683,2194761,2195265,2195469
61,third,88,schön,IAT_red1.bmp,red,starting_melody,melody,starting,m,positive,positive,ES_yellow,1,m,400,2197227,2197731,2197935
61,third,89,ehrlich,IAT_purple1.bmp,purple,ending_melody,melody,ending,m,positive,negative,ES_yellow,1,m,537,2199410,2199914,2200118
61,third,90,munter,IAT_green1.bmp,green,starting_scream,scream,starting,m,positive,negative,ES_yellow,1,m,489,2201729,2202234,2202438
61,third,91,gerecht,IAT_red4.bmp,red,starting_melody,melody,starting,m,positive,positive,ES_yellow,1,m,540,2204002,2204506,2204710
61,third,92,brutal,IAT_yellow3.bmp,yellow,ending_scream,scream,ending,c,negative,positive,ES_yellow,1,c,530,2206325,2206829,2207033
61,third,93,geizig,IAT_red4.bmp,red,starting_melody,melody,starting,c,negative,positive,ES_yellow,1,c,432,2208638,2209142,2209346
61,third,94,human,IAT_red2.bmp,red,starting_melody,melody,starting,m,positive,positive,ES_yellow,1,m,522,2210853,2211357,2211561
61,third,95,heiter,IAT_red3.bmp,red,starting_melody,melody,starting,m,positive,positive,ES_yellow,1,m,387,2213157,2213662,2213866
61,forth,0,heiter,IAT_yellow2.bmp,yellow,ending_scream,scream,ending,m,positive,positive,ES_yellow,1,m,759,2237760,2238264,2238468
61,forth,1,sanft,IAT_purple3.bmp,purple,ending_melody,melody,ending,m,positive,negative,ES_yellow,1,m,363,2240303,2240807,2241011
61,forth,2,gerecht,IAT_purple2.bmp,purple,ending_melody,melody,ending,m,positive,negative,ES_yellow,1,m,513,2242449,2242953,2243157
61,forth,3,kaputt,IAT_green1.bmp,green,starting_scream,scream,starting,c,negative,negative,ES_yellow,1,c,476,2244743,2245247,2245451
61,forth,4,lustig,IAT_red1.bmp,red,starting_melody,melody,starting,m,positive,positive,ES_yellow,1,m,410,2247002,2247506,2247710
61,forth,5,sonnig,IAT_yellow3.bmp,yellow,ending_scream,scream,ending,m,positive,positive,ES_yellow,1,m,416,2249193,2249697,2249901
61,forth,6,human,IAT_green1.bmp,green,starting_scream,scream,starting,m,positive,negative,ES_yellow,1,m,403,2251391,2251896,2252100
61,forth,7,geizig,IAT_green3.bmp,green,starting_scream,scream,starting,c,negative,negative,ES_yellow,1,c,412,2253577,2254081,2254285
61,forth,8,einsam,IAT_red4.bmp,red,starting_melody,melody,starting,c,negative,positive,ES_yellow,1,c,659,2255772,2256276,2256480
61,forth,9,streng,IAT_green4.bmp,green,starting_scream,scream,starting,c,negative,negative,ES_yellow,1,c,393,2258215,2258719,2258923
61,forth,10,gesund,IAT_red3.bmp,red,starting_melody,melody,starting,m,positive,positive,ES_yellow,0,c,426,2260390,2260895,2261099
61,forth,11,schön,IAT_purple1.bmp,purple,ending_melody,melody,ending,m,positive,negative,ES_yellow,1,m,392,2263101,2263606,2263810
61,forth,12,brutal,IAT_red4.bmp,red,starting_melody,melody,starting,c,negative,positive,ES_yellow,1,c,506,2265276,2265780,2265984
61,forth,13,morsch,IAT_purple2.bmp,purple,ending_melody,melody,ending,c,negative,negative,ES_yellow,1,c,511,2267565,2268069,2268273
61,forth,14,brutal,IAT_yellow2.bmp,yellow,ending_scream,scream,ending,c,negative,positive,ES_yellow,1,c,538,2269859,2270363,2270567
61,forth,15,falsch,IAT_yellow2.bmp,yellow,ending_scream,scream,ending,c,negative,positive,ES_yellow,1,c,523,2272180,2272684,2272888
61,forth,16,witzig,IAT_yellow1.bmp,yellow,ending_scream,scream,ending,m,positive,positive,ES_yellow,1,m,476,2274486,2274990,2275194
61,forth,17,kaputt,IAT_green2.bmp,green,starting_scream,scream,starting,c,negative,negative,ES_yellow,1,c,491,2276745,2277249,2277453
61,forth,18,human,IAT_yellow3.bmp,yellow,ending_scream,scream,ending,m,positive,positive,ES_yellow,1,m,468,2279019,2279523,2279727
61,forth,19,falsch,IAT_yellow3.bmp,yellow,ending_scream,scream,ending,c,negative,positive,ES_yellow,1,c,460,2281270,2281774,2281978
61,forth,20,sanft,IAT_purple4.bmp,purple,ending_melody,melody,ending,m,positive,negative,ES_yellow,1,m,459,2283513,2284017,2284221
61,forth,21,krank,IAT_purple1.bmp,purple,ending_melody,melody,ending,c,negative,negative,ES_yellow,1,c,423,2285754,2286259,2286463
61,forth,22,lustig,IAT_green1.bmp,green,starting_scream,scream,starting,m,positive,negative,ES_yellow,1,m,403,2287959,2288464,2288668
61,forth,23,feige,IAT_green2.bmp,green,starting_scream,scream,starting,c,negative,negative,ES_yellow,1,c,473,2290146,2290650,2290854
61,forth,24,teuer,IAT_red2.bmp,red,starting_melody,melody,starting,c,negative,positive,ES_yellow,1,c,523,2292401,2292905,2293109
61,forth,25,gesund,IAT_red4.bmp,red,starting_melody,melody,starting,m,positive,positive,ES_yellow,1,m,525,2294707,2295211,2295415
61,forth,26,ehrlich,IAT_green3.bmp,green,starting_scream,scream,starting,m,positive,negative,ES_yellow,1,m,507,2297015,2297519,2297723
61,forth,27,falsch,IAT_purple3.bmp,purple,ending_melody,melody,ending,c,negative,negative,ES_yellow,1,c,510,2299303,2299808,2300012
61,forth,28,krank,IAT_red4.bmp,red,starting_melody,melody,starting,c,negative,positive,ES_yellow,1,c,427,2301596,2302100,2302304
61,forth,29,brutal,IAT_yellow1.bmp,yellow,ending_scream,scream,ending,c,negative,positive,ES_yellow,1,c,471,2303806,2304310,2304514
61,forth,30,krank,IAT_yellow4.bmp,yellow,ending_scream,scream,ending,c,negative,positive,ES_yellow,1,c,471,2306060,2306564,2306768
61,forth,31,teuer,IAT_purple4.bmp,purple,ending_melody,melody,ending,c,negative,negative,ES_yellow,1,c,585,2308312,2308817,2309021
61,forth,32,witzig,IAT_red2.bmp,red,starting_melody,melody,starting,m,positive,positive,ES_yellow,1,m,476,2310681,2311185,2311389
61,forth,33,streng,IAT_purple3.bmp,purple,ending_melody,melody,ending,c,negative,negative,ES_yellow,1,c,429,2312940,2313444,2313648
61,forth,34,lästig,IAT_green4.bmp,green,starting_scream,scream,starting,c,negative,negative,ES_yellow,1,c,703,2315152,2315656,2315860
61,forth,35,teuer,IAT_yellow2.bmp,yellow,ending_scream,scream,ending,c,negative,positive,ES_yellow,1,c,418,2317638,2318142,2318346
61,forth,36,streng,IAT_green3.bmp,green,starting_scream,scream,starting,c,negative,negative,ES_yellow,1,c,447,2319839,2320343,2320547
61,forth,37,sanft,IAT_green1.bmp,green,starting_scream,scream,starting,m,positive,negative,ES_yellow,1,m,408,2322067,2322572,2322776
61,forth,38,human,IAT_yellow4.bmp,yellow,ending_scream,scream,ending,m,positive,positive,ES_yellow,1,m,460,2324259,2324763,2324967
61,forth,39,heiter,IAT_purple1.bmp,purple,ending_melody,melody,ending,m,positive,negative,ES_yellow,1,m,505,2326502,2327006,2327210
61,forth,40,gerecht,IAT_purple1.bmp,purple,ending_melody,melody,ending,m,positive,negative,ES_yellow,1,m,627,2328790,2329294,2329498
61,forth,41,feige,IAT_red1.bmp,red,starting_melody,melody,starting,c,negative,positive,ES_yellow,1,c,484,2331200,2331704,2331908
61,forth,42,morsch,IAT_purple4.bmp,purple,ending_melody,melody,ending,c,negative,negative,ES_yellow,1,c,509,2333467,2333971,2334175
61,forth,43,gierig,IAT_green4.bmp,green,starting_scream,scream,starting,c,negative,negative,ES_yellow,1,c,579,2335759,2336263,2336467
61,forth,44,kaputt,IAT_green2.bmp,green,starting_scream,scream,starting,c,negative,negative,ES_yellow,1,c,474,2338121,2338625,2338829
61,forth,45,sonnig,IAT_purple3.bmp,purple,ending_melody,melody,ending,m,positive,negative,ES_yellow,1,m,450,2340377,2340881,2341085
61,forth,46,munter,IAT_green2.bmp,green,starting_scream,scream,starting,m,positive,negative,ES_yellow,1,m,587,2342610,2343114,2343318
61,forth,47,sanft,IAT_red3.bmp,red,starting_melody,melody,starting,m,positive,positive,ES_yellow,1,m,451,2344980,2345484,2345688
61,forth,48,lästig,IAT_yellow1.bmp,yellow,ending_scream,scream,ending,c,negative,positive,ES_yellow,1,c,533,2347214,2347718,2347922
61,forth,49,feige,IAT_red3.bmp,red,starting_melody,melody,starting,c,negative,positive,ES_yellow,1,c,537,2349530,2350035,2350239
61,forth,50,heiter,IAT_yellow1.bmp,yellow,ending_scream,scream,ending,m,positive,positive,ES_yellow,1,m,562,2351852,2352356,2352560
61,forth,51,witzig,IAT_red2.bmp,red,starting_melody,melody,starting,m,positive,positive,ES_yellow,1,m,520,2354196,2354700,2354904
61,forth,52,ehrlich,IAT_purple3.bmp,purple,ending_melody,melody,ending,m,positive,negative,ES_yellow,1,m,607,2356498,2357003,2357207
61,forth,53,gierig,IAT_green4.bmp,green,starting_scream,scream,starting,c,negative,negative,ES_yellow,1,c,696,2358888,2359393,2359597
61,forth,54,teuer,IAT_purple2.bmp,purple,ending_melody,melody,ending,c,negative,negative,ES_yellow,1,c,467,2361369,2361873,2362077
61,forth,55,kaputt,IAT_yellow4.bmp,yellow,ending_scream,scream,ending,c,negative,positive,ES_yellow,1,c,434,2363619,2364123,2364327
61,forth,56,lästig,IAT_purple4.bmp,purple,ending_melody,melody,ending,c,negative,negative,ES_yellow,1,c,422,2365835,2366340,2366544
61,forth,57,morsch,IAT_purple2.bmp,purple,ending_melody,melody,ending,c,negative,negative,ES_yellow,1,c,460,2368041,2368546,2368750
61,forth,58,munter,IAT_red1.bmp,red,starting_melody,melody,starting,m,positive,positive,ES_yellow,1,m,435,2370286,2370790,2370994
61,forth,59,schön,IAT_yellow1.bmp,yellow,ending_scream,scream,ending,m,positive,positive,ES_yellow,1,m,327,2372504,2373008,2373212
61,forth,60,heiter,IAT_red4.bmp,red,starting_melody,melody,starting,m,positive,positive,ES_yellow,1,m,535,2374613,2375118,2375322
61,forth,61,ehrlich,IAT_yellow2.bmp,yellow,ending_scream,scream,ending,m,positive,positive,ES_yellow,1,m,469,2376932,2377436,2377640
61,forth,62,schön,IAT_yellow3.bmp,yellow,ending_scream,scream,ending,m,positive,positive,ES_yellow,1,m,481,2379183,2379687,2379891
61,forth,63,einsam,IAT_red2.bmp,red,starting_melody,melody,starting,c,negative,positive,ES_yellow,1,c,563,2381447,2381951,2382155
61,forth,64,falsch,IAT_red2.bmp,red,starting_melody,melody,starting,c,negative,positive,ES_yellow,1,c,508,2383793,2384297,2384501
61,forth,65,einsam,IAT_purple1.bmp,purple,ending_melody,melody,ending,c,negative,negative,ES_yellow,1,c,773,2386084,2386588,2386792
61,forth,66,munter,IAT_red1.bmp,red,starting_melody,melody,starting,m,positive,positive,ES_yellow,1,m,520,2388640,2389144,2389348
61,forth,67,geizig,IAT_red2.bmp,red,starting_melody,melody,starting,c,negative,positive,ES_yellow,1,c,497,2390943,2391447,2391651
61,forth,68,witzig,IAT_red3.bmp,red,starting_melody,melody,starting,m,positive,positive,ES_yellow,1,m,548,2393223,2393728,2393932
61,forth,69,gerecht,IAT_green1.bmp,green,starting_scream,scream,starting,m,positive,negative,ES_yellow,1,m,487,2395554,2396059,2396263
61,forth,70,krank,IAT_yellow4.bmp,yellow,ending_scream,scream,ending,c,negative,positive,ES_yellow,1,c,534,2397825,2398329,2398533
61,forth,71,sozial,IAT_green3.bmp,green,starting_scream,scream,starting,m,positive,negative,ES_yellow,1,m,463,2400142,2400646,2400850
61,forth,72,ehrlich,IAT_purple1.bmp,purple,ending_melody,melody,ending,m,positive,negative,ES_yellow,1,m,588,2402389,2402893,2403097
61,forth,73,sonnig,IAT_red1.bmp,red,starting_melody,melody,starting,m,positive,positive,ES_yellow,1,m,500,2404761,2405266,2405470
61,forth,74,lustig,IAT_green2.bmp,green,starting_scream,scream,starting,m,positive,negative,ES_yellow,1,m,443,2407044,2407548,2407752
61,forth,75,human,IAT_green3.bmp,green,starting_scream,scream,starting,m,positive,negative,ES_yellow,1,m,456,2409271,2409775,2409979
61,forth,76,feige,IAT_green2.bmp,green,starting_scream,scream,starting,c,negative,negative,ES_yellow,1,c,488,2411509,2412014,2412218
61,forth,77,sozial,IAT_purple3.bmp,purple,ending_melody,melody,ending,m,positive,negative,ES_yellow,1,m,553,2413781,2414285,2414489
61,forth,78,streng,IAT_yellow3.bmp,yellow,ending_scream,scream,ending,c,negative,positive,ES_yellow,1,c,484,2416117,2416621,2416825
61,forth,79,geizig,IAT_red4.bmp,red,starting_melody,melody,starting,c,negative,positive,ES_yellow,1,c,530,2418385,2418889,2419093
61,forth,80,gesund,IAT_red3.bmp,red,starting_melody,melody,starting,m,positive,positive,ES_yellow,1,m,481,2420698,2421202,2421406
61,forth,81,schön,IAT_purple4.bmp,purple,ending_melody,melody,ending,m,positive,negative,ES_yellow,1,m,492,2422963,2423467,2423671
61,forth,82,einsam,IAT_red1.bmp,red,starting_melody,melody,starting,c,negative,positive,ES_yellow,1,c,441,2425239,2425743,2425947
61,forth,83,geizig,IAT_purple4.bmp,purple,ending_melody,melody,ending,c,negative,negative,ES_yellow,1,c,504,2427462,2427967,2428171
61,forth,84,munter,IAT_yellow3.bmp,yellow,ending_scream,scream,ending,m,positive,positive,ES_yellow,1,m,464,2429751,2430255,2430459
61,forth,85,gerecht,IAT_green4.bmp,green,starting_scream,scream,starting,m,positive,negative,ES_yellow,1,m,545,2431999,2432503,2432707
61,forth,86,lästig,IAT_red3.bmp,red,starting_melody,melody,starting,c,negative,positive,ES_yellow,1,c,599,2434328,2434832,2435036
61,forth,87,gesund,IAT_yellow1.bmp,yellow,ending_scream,scream,ending,m,positive,positive,ES_yellow,1,m,383,2436710,2437214,2437418
61,forth,88,lustig,IAT_yellow4.bmp,yellow,ending_scream,scream,ending,m,positive,positive,ES_yellow,1,m,464,2438877,2439381,2439585
61,forth,89,gierig,IAT_yellow2.bmp,yellow,ending_scream,scream,ending,c,negative,positive,ES_yellow,1,c,545,2441125,2441629,2441833
61,forth,90,sozial,IAT_green4.bmp,green,starting_scream,scream,starting,m,positive,negative,ES_yellow,1,m,507,2443453,2443957,2444161
61,forth,91,morsch,IAT_green1.bmp,green,starting_scream,scream,starting,c,negative,negative,ES_yellow,1,c,452,2445742,2446246,2446450
61,forth,92,brutal,IAT_yellow4.bmp,yellow,ending_scream,scream,ending,c,negative,positive,ES_yellow,1,c,455,2447977,2448481,2448685
61,forth,93,sonnig,IAT_purple2.bmp,purple,ending_melody,melody,ending,m,positive,negative,ES_yellow,1,m,412,2450214,2450719,2450923
61,forth,94,sozial,IAT_green3.bmp,green,starting_scream,scream,starting,m,positive,negative,ES_yellow,1,m,492,2452411,2452915,2453119
61,forth,95,gierig,IAT_purple2.bmp,purple,ending_melody,melody,ending,c,negative,negative,ES_yellow,1,c,670,2454688,2455192,2455396
