subject_nr,block,trialnr,trial_target,trial_prime,prime_color,prime_role,prime_us,prime_relation,correct_response,target_valence,prime_valence,color_counter,correct_first_response,response_first_response,response_time_first_response,fixation_show,prime_show,target_show
101,first,0,witzig,IAT_yellow2.bmp,yellow,starting_melody,melody,starting,m,positive,positive,ES_green,1,m,979,1457594,1458099,1458303
101,first,1,einsam,IAT_purple3.bmp,purple,starting_scream,scream,starting,c,negative,negative,ES_green,1,c,530,1460356,1460861,1461065
101,first,2,human,IAT_purple4.bmp,purple,starting_scream,scream,starting,m,positive,negative,ES_green,1,m,605,1462668,1463173,1463377
101,first,3,geizig,IAT_red1.bmp,red,ending_melody,melody,ending,c,negative,negative,ES_green,1,c,692,1465055,1465559,1465763
101,first,4,munter,IAT_red3.bmp,red,ending_melody,melody,ending,m,positive,negative,ES_green,1,m,529,1467529,1468033,1468237
101,first,5,morsch,IAT_purple1.bmp,purple,starting_scream,scream,starting,c,negative,negative,ES_green,1,c,514,1469840,1470344,1470548
101,first,6,gerecht,IAT_purple3.bmp,purple,starting_scream,scream,starting,m,positive,negative,ES_green,1,m,493,1472134,1472638,1472842
101,first,7,krank,IAT_purple2.bmp,purple,starting_scream,scream,starting,c,negative,negative,ES_green,1,c,500,1474409,1474914,1475118
101,first,8,witzig,IAT_green4.bmp,green,ending_scream,scream,ending,m,positive,positive,ES_green,1,m,499,1476691,1477196,1477400
101,first,9,sozial,IAT_red4.bmp,red,ending_melody,melody,ending,m,positive,negative,ES_green,1,m,609,1478972,1479476,1479680
101,first,10,kaputt,IAT_green1.bmp,green,ending_scream,scream,ending,c,negative,positive,ES_green,1,c,551,1481363,1481867,1482071
101,first,11,falsch,IAT_red2.bmp,red,ending_melody,melody,ending,c,negative,negative,ES_green,1,c,607,1483694,1484199,1484403
101,first,12,sanft,IAT_green4.bmp,green,ending_scream,scream,ending,m,positive,positive,ES_green,1,m,640,1486082,1486586,1486790
101,first,13,teuer,IAT_yellow2.bmp,yellow,starting_melody,melody,starting,c,negative,positive,ES_green,1,c,607,1488502,1489007,1489211
101,first,14,gesund,IAT_green3.bmp,green,ending_scream,scream,ending,m,positive,positive,ES_green,1,m,570,1490890,1491395,1491599
101,first,15,human,IAT_yellow3.bmp,yellow,starting_melody,melody,starting,m,positive,positive,ES_green,1,m,466,1493241,1493746,1493950
101,first,16,gierig,IAT_yellow2.bmp,yellow,starting_melody,melody,starting,c,negative,positive,ES_green,0,m,919,1495491,1495995,1496199
101,first,17,brutal,IAT_yellow4.bmp,yellow,starting_melody,melody,starting,c,negative,positive,ES_green,1,c,773,1498692,1499196,1499400
101,first,18,krank,IAT_yellow2.bmp,yellow,starting_melody,melody,starting,c,negative,positive,ES_green,1,c,527,1501247,1501751,1501955
101,first,19,schön,IAT_red2.bmp,red,ending_melody,melody,ending,m,positive,negative,ES_green,1,m,502,1503556,1504060,1504264
101,first,20,morsch,IAT_green2.bmp,green,ending_scream,scream,ending,c,negative,positive,ES_green,1,c,620,1505839,1506343,1506547
101,first,21,teuer,IAT_red4.bmp,red,ending_melody,melody,ending,c,negative,negative,ES_green,0,m,1039,1508240,1508745,1508949
101,first,22,gierig,IAT_yellow3.bmp,yellow,starting_melody,melody,starting,c,negative,positive,ES_green,1,c,667,1511562,1512066,1512270
101,first,23,lästig,IAT_red2.bmp,red,ending_melody,melody,ending,c,negative,negative,ES_green,1,c,532,1514011,1514515,1514719
101,first,24,geizig,IAT_purple4.bmp,purple,starting_scream,scream,starting,c,negative,negative,ES_green,0,m,484,1516324,1516828,1517032
101,first,25,gerecht,IAT_yellow4.bmp,yellow,starting_melody,melody,starting,m,positive,positive,ES_green,1,m,727,1519089,1519593,1519797
101,first,26,brutal,IAT_purple1.bmp,purple,starting_scream,scream,starting,c,negative,negative,ES_green,1,c,632,1521598,1522102,1522306
101,first,27,lustig,IAT_green1.bmp,green,ending_scream,scream,ending,m,positive,positive,ES_green,1,m,558,1524012,1524516,1524720
101,first,28,kaputt,IAT_yellow1.bmp,yellow,starting_melody,melody,starting,c,negative,positive,ES_green,1,c,579,1526352,1526856,1527060
101,first,29,einsam,IAT_green3.bmp,green,ending_scream,scream,ending,c,negative,positive,ES_green,1,c,653,1528712,1529216,1529420
101,first,30,teuer,IAT_purple2.bmp,purple,starting_scream,scream,starting,c,negative,negative,ES_green,0,m,521,1531147,1531651,1531856
101,first,31,streng,IAT_yellow1.bmp,yellow,starting_melody,melody,starting,c,negative,positive,ES_green,1,c,632,1533951,1534456,1534660
101,first,32,lästig,IAT_purple2.bmp,purple,starting_scream,scream,starting,c,negative,negative,ES_green,1,c,789,1536365,1536869,1537073
101,first,33,falsch,IAT_yellow3.bmp,yellow,starting_melody,melody,starting,c,negative,positive,ES_green,1,c,487,1538936,1539440,1539644
101,first,34,geizig,IAT_green4.bmp,green,ending_scream,scream,ending,c,negative,positive,ES_green,0,m,586,1541204,1541709,1541913
101,first,35,brutal,IAT_green4.bmp,green,ending_scream,scream,ending,c,negative,positive,ES_green,1,c,526,1544072,1544576,1544780
101,first,36,feige,IAT_yellow4.bmp,yellow,starting_melody,melody,starting,c,negative,positive,ES_green,1,c,645,1546380,1546885,1547089
101,first,37,streng,IAT_red4.bmp,red,ending_melody,melody,ending,c,negative,negative,ES_green,1,c,485,1548807,1549312,1549517
101,first,38,heiter,IAT_purple1.bmp,purple,starting_scream,scream,starting,m,positive,negative,ES_green,1,m,558,1551075,1551579,1551783
101,first,39,sanft,IAT_purple4.bmp,purple,starting_scream,scream,starting,m,positive,negative,ES_green,1,m,831,1553415,1553919,1554123
101,first,40,gierig,IAT_green2.bmp,green,ending_scream,scream,ending,c,negative,positive,ES_green,1,c,740,1556027,1556531,1556735
101,first,41,streng,IAT_red1.bmp,red,ending_melody,melody,ending,c,negative,negative,ES_green,1,c,538,1558549,1559053,1559257
101,first,42,heiter,IAT_yellow1.bmp,yellow,starting_melody,melody,starting,m,positive,positive,ES_green,1,m,887,1560869,1561373,1561577
101,first,43,sonnig,IAT_yellow1.bmp,yellow,starting_melody,melody,starting,m,positive,positive,ES_green,1,m,471,1563538,1564043,1564247
101,first,44,sanft,IAT_yellow4.bmp,yellow,starting_melody,melody,starting,m,positive,positive,ES_green,1,m,339,1565792,1566296,1566500
101,first,45,lästig,IAT_green3.bmp,green,ending_scream,scream,ending,c,negative,positive,ES_green,1,c,587,1567912,1568416,1568620
101,first,46,sozial,IAT_green2.bmp,green,ending_scream,scream,ending,m,positive,positive,ES_green,1,m,516,1570281,1570785,1570989
101,first,47,heiter,IAT_green2.bmp,green,ending_scream,scream,ending,m,positive,positive,ES_green,1,m,425,1572578,1573082,1573286
101,first,48,gerecht,IAT_purple1.bmp,purple,starting_scream,scream,starting,m,positive,negative,ES_green,1,m,1269,1574783,1575288,1575492
101,first,49,krank,IAT_green2.bmp,green,ending_scream,scream,ending,c,negative,positive,ES_green,1,c,750,1577832,1578337,1578541
101,first,50,sonnig,IAT_yellow1.bmp,yellow,starting_melody,melody,starting,m,positive,positive,ES_green,1,m,596,1580365,1580870,1581075
101,first,51,geizig,IAT_yellow2.bmp,yellow,starting_melody,melody,starting,c,negative,positive,ES_green,1,c,716,1582745,1583249,1583453
101,first,52,heiter,IAT_yellow2.bmp,yellow,starting_melody,melody,starting,m,positive,positive,ES_green,1,m,526,1585242,1585746,1585950
101,first,53,sonnig,IAT_yellow3.bmp,yellow,starting_melody,melody,starting,m,positive,positive,ES_green,1,m,443,1587550,1588054,1588258
101,first,54,ehrlich,IAT_green3.bmp,green,ending_scream,scream,ending,m,positive,positive,ES_green,1,m,547,1589774,1590279,1590483
101,first,55,gesund,IAT_yellow3.bmp,yellow,starting_melody,melody,starting,m,positive,positive,ES_green,1,m,347,1592102,1592606,1592810
101,first,56,lustig,IAT_purple2.bmp,purple,starting_scream,scream,starting,m,positive,negative,ES_green,1,m,449,1594231,1594735,1594939
101,first,57,krank,IAT_green4.bmp,green,ending_scream,scream,ending,c,negative,positive,ES_green,1,c,443,1596461,1596966,1597170
101,first,58,human,IAT_red1.bmp,red,ending_melody,melody,ending,m,positive,negative,ES_green,1,m,425,1598685,1599190,1599394
101,first,59,kaputt,IAT_purple3.bmp,purple,starting_scream,scream,starting,c,negative,negative,ES_green,0,m,609,1600891,1601395,1601599
101,first,60,lustig,IAT_red2.bmp,red,ending_melody,melody,ending,m,positive,negative,ES_green,1,m,529,1603781,1604286,1604490
101,first,61,falsch,IAT_yellow4.bmp,yellow,starting_melody,melody,starting,c,negative,positive,ES_green,1,c,752,1606092,1606596,1606800
101,first,62,morsch,IAT_purple4.bmp,purple,starting_scream,scream,starting,c,negative,negative,ES_green,0,m,456,1608624,1609128,1609332
101,first,63,schön,IAT_yellow3.bmp,yellow,starting_melody,melody,starting,m,positive,positive,ES_green,1,m,760,1611362,1611867,1612071
101,first,64,sozial,IAT_red3.bmp,red,ending_melody,melody,ending,m,positive,negative,ES_green,1,m,515,1613904,1614409,1614613
101,first,65,einsam,IAT_red4.bmp,red,ending_melody,melody,ending,c,negative,negative,ES_green,0,m,603,1616201,1616706,1616910
101,first,66,ehrlich,IAT_red1.bmp,red,ending_melody,melody,ending,m,positive,negative,ES_green,1,m,681,1619087,1619591,1619795
101,first,67,human,IAT_red3.bmp,red,ending_melody,melody,ending,m,positive,negative,ES_green,1,m,675,1621550,1622054,1622258
101,first,68,sonnig,IAT_purple1.bmp,purple,starting_scream,scream,starting,m,positive,negative,ES_green,1,m,464,1624006,1624510,1624714
101,first,69,sozial,IAT_red3.bmp,red,ending_melody,melody,ending,m,positive,negative,ES_green,1,m,820,1626252,1626756,1626960
101,first,70,gesund,IAT_green1.bmp,green,ending_scream,scream,ending,m,positive,positive,ES_green,1,m,491,1628853,1629357,1629561
101,first,71,feige,IAT_red2.bmp,red,ending_melody,melody,ending,c,negative,negative,ES_green,0,m,483,1631125,1631630,1631834
101,first,72,witzig,IAT_green3.bmp,green,ending_scream,scream,ending,m,positive,positive,ES_green,1,m,647,1633891,1634395,1634599
101,first,73,gierig,IAT_red3.bmp,red,ending_melody,melody,ending,c,negative,negative,ES_green,1,c,714,1636321,1636825,1637029
101,first,74,munter,IAT_purple3.bmp,purple,starting_scream,scream,starting,m,positive,negative,ES_green,1,m,613,1638816,1639320,1639524
101,first,75,morsch,IAT_green2.bmp,green,ending_scream,scream,ending,c,negative,positive,ES_green,1,c,563,1641210,1641714,1641918
101,first,76,ehrlich,IAT_green1.bmp,green,ending_scream,scream,ending,m,positive,positive,ES_green,1,m,427,1643555,1644059,1644263
101,first,77,munter,IAT_red1.bmp,red,ending_melody,melody,ending,m,positive,negative,ES_green,1,m,491,1645765,1646269,1646473
101,first,78,ehrlich,IAT_red4.bmp,red,ending_melody,melody,ending,m,positive,negative,ES_green,1,m,649,1648037,1648542,1648746
101,first,79,gerecht,IAT_purple2.bmp,purple,starting_scream,scream,starting,m,positive,negative,ES_green,1,m,489,1650470,1650974,1651178
101,first,80,falsch,IAT_purple4.bmp,purple,starting_scream,scream,starting,c,negative,negative,ES_green,1,c,512,1652740,1653244,1653448
101,first,81,teuer,IAT_yellow4.bmp,yellow,starting_melody,melody,starting,c,negative,positive,ES_green,0,m,405,1655033,1655537,1655741
101,first,82,witzig,IAT_purple3.bmp,purple,starting_scream,scream,starting,m,positive,negative,ES_green,1,m,534,1657720,1658224,1658428
101,first,83,brutal,IAT_purple4.bmp,purple,starting_scream,scream,starting,c,negative,negative,ES_green,1,c,724,1660036,1660540,1660744
101,first,84,gesund,IAT_purple1.bmp,purple,starting_scream,scream,starting,m,positive,negative,ES_green,1,m,607,1662542,1663046,1663250
101,first,85,kaputt,IAT_red2.bmp,red,ending_melody,melody,ending,c,negative,negative,ES_green,1,c,507,1664931,1665435,1665639
101,first,86,feige,IAT_green4.bmp,green,ending_scream,scream,ending,c,negative,positive,ES_green,1,c,1102,1667221,1667725,1667929
101,first,87,schön,IAT_purple3.bmp,purple,starting_scream,scream,starting,m,positive,negative,ES_green,1,m,1336,1670103,1670608,1670812
101,first,88,lästig,IAT_red3.bmp,red,ending_melody,melody,ending,c,negative,negative,ES_green,1,c,544,1673222,1673726,1673930
101,first,89,lustig,IAT_yellow1.bmp,yellow,starting_melody,melody,starting,m,positive,positive,ES_green,1,m,542,1675548,1676052,1676256
101,first,90,streng,IAT_red4.bmp,red,ending_melody,melody,ending,c,negative,negative,ES_green,1,c,598,1677872,1678376,1678580
101,first,91,schön,IAT_green3.bmp,green,ending_scream,scream,ending,m,positive,positive,ES_green,1,m,459,1680251,1680756,1680960
101,first,92,feige,IAT_purple2.bmp,purple,starting_scream,scream,starting,c,negative,negative,ES_green,1,c,398,1682493,1682997,1683201
101,first,93,einsam,IAT_green1.bmp,green,ending_scream,scream,ending,c,negative,positive,ES_green,0,m,345,1684672,1685176,1685381
101,first,94,sanft,IAT_red1.bmp,red,ending_melody,melody,ending,m,positive,negative,ES_green,1,m,620,1687301,1687805,1688009
101,first,95,munter,IAT_green1.bmp,green,ending_scream,scream,ending,m,positive,positive,ES_green,1,m,511,1689703,1690207,1690411
101,second,0,gerecht,IAT_red4.bmp,red,ending_melody,melody,ending,m,positive,negative,ES_green,1,m,765,1698634,1699139,1699343
101,second,1,einsam,IAT_red2.bmp,red,ending_melody,melody,ending,c,negative,negative,ES_green,1,c,665,1701182,1701686,1701890
101,second,2,krank,IAT_yellow3.bmp,yellow,starting_melody,melody,starting,c,negative,positive,ES_green,1,c,614,1703628,1704132,1704336
101,second,3,ehrlich,IAT_green1.bmp,green,ending_scream,scream,ending,m,positive,positive,ES_green,1,m,494,1706022,1706526,1706730
101,second,4,teuer,IAT_purple2.bmp,purple,starting_scream,scream,starting,c,negative,negative,ES_green,1,c,651,1708297,1708801,1709005
101,second,5,schön,IAT_green1.bmp,green,ending_scream,scream,ending,m,positive,positive,ES_green,1,m,539,1710730,1711234,1711438
101,second,6,munter,IAT_yellow3.bmp,yellow,starting_melody,melody,starting,m,positive,positive,ES_green,1,m,484,1713050,1713554,1713758
101,second,7,gesund,IAT_yellow4.bmp,yellow,starting_melody,melody,starting,m,positive,positive,ES_green,1,m,450,1715315,1715819,1716023
101,second,8,kaputt,IAT_green3.bmp,green,ending_scream,scream,ending,c,negative,positive,ES_green,1,c,605,1717546,1718050,1718254
101,second,9,streng,IAT_purple1.bmp,purple,starting_scream,scream,starting,c,negative,negative,ES_green,1,c,458,1719932,1720437,1720641
101,second,10,falsch,IAT_yellow2.bmp,yellow,starting_melody,melody,starting,c,negative,positive,ES_green,1,c,485,1722172,1722676,1722880
101,second,11,gerecht,IAT_yellow1.bmp,yellow,starting_melody,melody,starting,m,positive,positive,ES_green,1,m,603,1724437,1724942,1725146
101,second,12,feige,IAT_purple2.bmp,purple,starting_scream,scream,starting,c,negative,negative,ES_green,1,c,584,1726823,1727327,1727531
101,second,13,witzig,IAT_yellow1.bmp,yellow,starting_melody,melody,starting,m,positive,positive,ES_green,0,c,482,1729189,1729693,1729897
101,second,14,ehrlich,IAT_purple1.bmp,purple,starting_scream,scream,starting,m,positive,negative,ES_green,0,c,540,1731953,1732458,1732662
101,second,15,geizig,IAT_yellow4.bmp,yellow,starting_melody,melody,starting,c,negative,positive,ES_green,1,c,686,1734775,1735279,1735483
101,second,16,sanft,IAT_green4.bmp,green,ending_scream,scream,ending,m,positive,positive,ES_green,1,m,467,1737242,1737747,1737951
101,second,17,schön,IAT_yellow3.bmp,yellow,starting_melody,melody,starting,m,positive,positive,ES_green,1,m,458,1739491,1739996,1740200
101,second,18,teuer,IAT_green4.bmp,green,ending_scream,scream,ending,c,negative,positive,ES_green,1,c,495,1741732,1742236,1742440
101,second,19,lästig,IAT_purple4.bmp,purple,starting_scream,scream,starting,c,negative,negative,ES_green,1,c,668,1744007,1744511,1744715
101,second,20,streng,IAT_purple2.bmp,purple,starting_scream,scream,starting,c,negative,negative,ES_green,0,m,823,1746457,1746961,1747165
101,second,21,krank,IAT_green1.bmp,green,ending_scream,scream,ending,c,negative,positive,ES_green,1,c,601,1749561,1750066,1750270
101,second,22,witzig,IAT_green4.bmp,green,ending_scream,scream,ending,m,positive,positive,ES_green,1,m,520,1751943,1752447,1752651
101,second,23,lästig,IAT_green1.bmp,green,ending_scream,scream,ending,c,negative,positive,ES_green,1,c,694,1754244,1754748,1754952
101,second,24,feige,IAT_yellow1.bmp,yellow,starting_melody,melody,starting,c,negative,positive,ES_green,1,c,523,1756720,1757224,1757428
101,second,25,brutal,IAT_green2.bmp,green,ending_scream,scream,ending,c,negative,positive,ES_green,1,c,718,1759025,1759530,1759734
101,second,26,gesund,IAT_red2.bmp,red,ending_melody,melody,ending,m,positive,negative,ES_green,1,m,652,1761526,1762030,1762234
101,second,27,sanft,IAT_red4.bmp,red,ending_melody,melody,ending,m,positive,negative,ES_green,1,m,674,1763960,1764464,1764668
101,second,28,sonnig,IAT_yellow3.bmp,yellow,starting_melody,melody,starting,m,positive,positive,ES_green,0,c,592,1766415,1766919,1767123
101,second,29,munter,IAT_purple2.bmp,purple,starting_scream,scream,starting,m,positive,negative,ES_green,1,m,978,1769288,1769793,1769997
101,second,30,krank,IAT_red4.bmp,red,ending_melody,melody,ending,c,negative,negative,ES_green,1,c,526,1772049,1772553,1772757
101,second,31,schön,IAT_red1.bmp,red,ending_melody,melody,ending,m,positive,negative,ES_green,1,m,553,1774357,1774861,1775065
101,second,32,witzig,IAT_yellow1.bmp,yellow,starting_melody,melody,starting,m,positive,positive,ES_green,1,m,777,1776692,1777196,1777400
101,second,33,falsch,IAT_red3.bmp,red,ending_melody,melody,ending,c,negative,negative,ES_green,1,c,501,1779251,1779755,1779959
101,second,34,gerecht,IAT_green3.bmp,green,ending_scream,scream,ending,m,positive,positive,ES_green,1,m,525,1781535,1782039,1782243
101,second,35,heiter,IAT_yellow3.bmp,yellow,starting_melody,melody,starting,m,positive,positive,ES_green,1,m,570,1783842,1784346,1784550
101,second,36,gesund,IAT_purple3.bmp,purple,starting_scream,scream,starting,m,positive,negative,ES_green,1,m,397,1786192,1786696,1786900
101,second,37,munter,IAT_red3.bmp,red,ending_melody,melody,ending,m,positive,negative,ES_green,1,m,454,1788371,1788876,1789080
101,second,38,lästig,IAT_yellow1.bmp,yellow,starting_melody,melody,starting,c,negative,positive,ES_green,0,m,442,1790607,1791112,1791316
101,second,39,human,IAT_yellow2.bmp,yellow,starting_melody,melody,starting,m,positive,positive,ES_green,1,m,558,1793332,1793836,1794040
101,second,40,morsch,IAT_green3.bmp,green,ending_scream,scream,ending,c,negative,positive,ES_green,1,c,761,1795672,1796177,1796382
101,second,41,gesund,IAT_purple3.bmp,purple,starting_scream,scream,starting,m,positive,negative,ES_green,1,m,559,1798217,1798721,1798925
101,second,42,gierig,IAT_purple4.bmp,purple,starting_scream,scream,starting,c,negative,negative,ES_green,1,c,651,1800557,1801061,1801265
101,second,43,brutal,IAT_green2.bmp,green,ending_scream,scream,ending,c,negative,positive,ES_green,1,c,646,1802990,1803494,1803698
101,second,44,ehrlich,IAT_green1.bmp,green,ending_scream,scream,ending,m,positive,positive,ES_green,1,m,521,1805417,1805921,1806125
101,second,45,falsch,IAT_red4.bmp,red,ending_melody,melody,ending,c,negative,negative,ES_green,1,c,484,1807720,1808224,1808428
101,second,46,gerecht,IAT_yellow4.bmp,yellow,starting_melody,melody,starting,m,positive,positive,ES_green,1,m,500,1809986,1810490,1810694
101,second,47,human,IAT_yellow1.bmp,yellow,starting_melody,melody,starting,m,positive,positive,ES_green,1,m,567,1812268,1812772,1812976
101,second,48,sozial,IAT_green1.bmp,green,ending_scream,scream,ending,m,positive,positive,ES_green,0,c,544,1814615,1815119,1815323
101,second,49,schön,IAT_purple4.bmp,purple,starting_scream,scream,starting,m,positive,negative,ES_green,1,m,539,1817442,1817946,1818150
101,second,50,streng,IAT_green2.bmp,green,ending_scream,scream,ending,c,negative,positive,ES_green,1,c,545,1819762,1820266,1820470
101,second,51,morsch,IAT_green4.bmp,green,ending_scream,scream,ending,c,negative,positive,ES_green,1,c,981,1822088,1822593,1822797
101,second,52,munter,IAT_yellow2.bmp,yellow,starting_melody,melody,starting,m,positive,positive,ES_green,1,m,538,1824852,1825356,1825560
101,second,53,sozial,IAT_green3.bmp,green,ending_scream,scream,ending,m,positive,positive,ES_green,1,m,503,1827171,1827676,1827880
101,second,54,lustig,IAT_green2.bmp,green,ending_scream,scream,ending,m,positive,positive,ES_green,1,m,552,1829457,1829961,1830165
101,second,55,geizig,IAT_yellow4.bmp,yellow,starting_melody,melody,starting,c,negative,positive,ES_green,1,c,554,1831792,1832296,1832501
101,second,56,heiter,IAT_purple1.bmp,purple,starting_scream,scream,starting,m,positive,negative,ES_green,1,m,555,1834130,1834634,1834838
101,second,57,sanft,IAT_purple1.bmp,purple,starting_scream,scream,starting,m,positive,negative,ES_green,1,m,556,1836468,1836972,1837176
101,second,58,feige,IAT_purple4.bmp,purple,starting_scream,scream,starting,c,negative,negative,ES_green,1,c,555,1838806,1839310,1839514
101,second,59,morsch,IAT_green4.bmp,green,ending_scream,scream,ending,c,negative,positive,ES_green,1,c,713,1841142,1841646,1841850
101,second,60,krank,IAT_red3.bmp,red,ending_melody,melody,ending,c,negative,negative,ES_green,1,c,1185,1843637,1844141,1844345
101,second,61,einsam,IAT_purple2.bmp,purple,starting_scream,scream,starting,c,negative,negative,ES_green,1,c,1084,1846603,1847108,1847312
101,second,62,kaputt,IAT_yellow4.bmp,yellow,starting_melody,melody,starting,c,negative,positive,ES_green,1,c,692,1849470,1849975,1850179
101,second,63,heiter,IAT_green2.bmp,green,ending_scream,scream,ending,m,positive,positive,ES_green,1,m,669,1851944,1852448,1852653
101,second,64,feige,IAT_yellow4.bmp,yellow,starting_melody,melody,starting,c,negative,positive,ES_green,1,c,569,1854396,1854900,1855104
101,second,65,sanft,IAT_purple1.bmp,purple,starting_scream,scream,starting,m,positive,negative,ES_green,1,m,606,1856748,1857252,1857456
101,second,66,falsch,IAT_purple1.bmp,purple,starting_scream,scream,starting,c,negative,negative,ES_green,1,c,593,1859135,1859640,1859844
101,second,67,witzig,IAT_red1.bmp,red,ending_melody,melody,ending,m,positive,negative,ES_green,1,m,579,1861511,1862015,1862219
101,second,68,kaputt,IAT_red4.bmp,red,ending_melody,melody,ending,c,negative,negative,ES_green,1,c,643,1863872,1864376,1864580
101,second,69,human,IAT_green3.bmp,green,ending_scream,scream,ending,m,positive,positive,ES_green,1,m,548,1866296,1866801,1867005
101,second,70,lustig,IAT_red3.bmp,red,ending_melody,melody,ending,m,positive,negative,ES_green,1,m,624,1868627,1869131,1869335
101,second,71,brutal,IAT_red4.bmp,red,ending_melody,melody,ending,c,negative,negative,ES_green,1,c,442,1871033,1871537,1871741
101,second,72,gierig,IAT_red1.bmp,red,ending_melody,melody,ending,c,negative,negative,ES_green,0,m,553,1873257,1873762,1873966
101,second,73,teuer,IAT_yellow2.bmp,yellow,starting_melody,melody,starting,c,negative,positive,ES_green,1,c,578,1876092,1876596,1876800
101,second,74,sozial,IAT_purple3.bmp,purple,starting_scream,scream,starting,m,positive,negative,ES_green,1,m,527,1878452,1878957,1879161
101,second,75,gierig,IAT_purple3.bmp,purple,starting_scream,scream,starting,c,negative,negative,ES_green,1,c,596,1880761,1881266,1881470
101,second,76,einsam,IAT_yellow3.bmp,yellow,starting_melody,melody,starting,c,negative,positive,ES_green,1,c,551,1883140,1883644,1883848
101,second,77,geizig,IAT_yellow2.bmp,yellow,starting_melody,melody,starting,c,negative,positive,ES_green,1,c,566,1885473,1885977,1886181
101,second,78,streng,IAT_yellow2.bmp,yellow,starting_melody,melody,starting,c,negative,positive,ES_green,1,c,417,1887821,1888325,1888529
101,second,79,human,IAT_red1.bmp,red,ending_melody,melody,ending,m,positive,negative,ES_green,0,c,77,1890021,1890525,1890729
101,second,80,lustig,IAT_red1.bmp,red,ending_melody,melody,ending,m,positive,negative,ES_green,1,m,606,1892381,1892885,1893089
101,second,81,gierig,IAT_purple4.bmp,purple,starting_scream,scream,starting,c,negative,negative,ES_green,1,c,538,1894769,1895273,1895477
101,second,82,sozial,IAT_red3.bmp,red,ending_melody,melody,ending,m,positive,negative,ES_green,1,m,562,1897088,1897593,1897797
101,second,83,sonnig,IAT_red3.bmp,red,ending_melody,melody,ending,m,positive,negative,ES_green,1,m,1134,1899434,1899938,1900142
101,second,84,kaputt,IAT_green2.bmp,green,ending_scream,scream,ending,c,negative,positive,ES_green,1,c,516,1902350,1902854,1903058
101,second,85,lustig,IAT_red2.bmp,red,ending_melody,melody,ending,m,positive,negative,ES_green,0,c,1094,1904647,1905152,1905356
101,second,86,lästig,IAT_green4.bmp,green,ending_scream,scream,ending,c,negative,positive,ES_green,1,c,590,1908025,1908529,1908733
101,second,87,morsch,IAT_purple3.bmp,purple,starting_scream,scream,starting,c,negative,negative,ES_green,1,c,618,1910396,1910901,1911105
101,second,88,einsam,IAT_red2.bmp,red,ending_melody,melody,ending,c,negative,negative,ES_green,0,m,715,1912796,1913301,1913505
101,second,89,teuer,IAT_red1.bmp,red,ending_melody,melody,ending,c,negative,negative,ES_green,1,c,1074,1915794,1916299,1916503
101,second,90,geizig,IAT_red2.bmp,red,ending_melody,melody,ending,c,negative,negative,ES_green,1,c,552,1918651,1919156,1919360
101,second,91,sonnig,IAT_purple3.bmp,purple,starting_scream,scream,starting,m,positive,negative,ES_green,1,m,717,1920986,1921490,1921694
101,second,92,heiter,IAT_purple4.bmp,purple,starting_scream,scream,starting,m,positive,negative,ES_green,1,m,671,1923485,1923989,1924194
101,second,93,sonnig,IAT_green3.bmp,green,ending_scream,scream,ending,m,positive,positive,ES_green,1,m,590,1925940,1926444,1926648
101,second,94,ehrlich,IAT_purple2.bmp,purple,starting_scream,scream,starting,m,positive,negative,ES_green,0,c,421,1928312,1928816,1929020
101,second,95,brutal,IAT_red2.bmp,red,ending_melody,melody,ending,c,negative,negative,ES_green,1,c,799,1931016,1931520,1931725
101,third,0,geizig,IAT_red4.bmp,red,ending_melody,melody,ending,c,negative,negative,ES_green,1,c,1140,1962595,1963100,1963304
101,third,1,heiter,IAT_purple3.bmp,purple,starting_scream,scream,starting,m,positive,negative,ES_green,1,m,639,1965518,1966022,1966226
101,third,2,gerecht,IAT_red2.bmp,red,ending_melody,melody,ending,m,positive,negative,ES_green,1,m,530,1967938,1968442,1968646
101,third,3,munter,IAT_purple1.bmp,purple,starting_scream,scream,starting,m,positive,negative,ES_green,1,m,565,1970250,1970754,1970959
101,third,4,streng,IAT_red2.bmp,red,ending_melody,melody,ending,c,negative,negative,ES_green,1,c,530,1972597,1973102,1973306
101,third,5,heiter,IAT_green3.bmp,green,ending_scream,scream,ending,m,positive,positive,ES_green,1,m,488,1974911,1975415,1975619
101,third,6,gierig,IAT_yellow4.bmp,yellow,starting_melody,melody,starting,c,negative,positive,ES_green,1,c,596,1977181,1977685,1977889
101,third,7,falsch,IAT_purple3.bmp,purple,starting_scream,scream,starting,c,negative,negative,ES_green,1,c,546,1979558,1980062,1980266
101,third,8,gesund,IAT_green2.bmp,green,ending_scream,scream,ending,m,positive,positive,ES_green,1,m,488,1981885,1982390,1982594
101,third,9,brutal,IAT_purple3.bmp,purple,starting_scream,scream,starting,c,negative,negative,ES_green,1,c,482,1984155,1984659,1984863
101,third,10,schön,IAT_yellow3.bmp,yellow,starting_melody,melody,starting,m,positive,positive,ES_green,1,m,469,1986418,1986923,1987127
101,third,11,gesund,IAT_green4.bmp,green,ending_scream,scream,ending,m,positive,positive,ES_green,1,m,509,1988670,1989174,1989378
101,third,12,einsam,IAT_red2.bmp,red,ending_melody,melody,ending,c,negative,negative,ES_green,0,m,526,1990961,1991465,1991669
101,third,13,munter,IAT_purple2.bmp,purple,starting_scream,scream,starting,m,positive,negative,ES_green,1,m,634,1993770,1994275,1994479
101,third,14,feige,IAT_green3.bmp,green,ending_scream,scream,ending,c,negative,positive,ES_green,1,c,610,1996186,1996690,1996894
101,third,15,gierig,IAT_purple2.bmp,purple,starting_scream,scream,starting,c,negative,negative,ES_green,1,c,610,1998577,1999081,1999285
101,third,16,heiter,IAT_yellow4.bmp,yellow,starting_melody,melody,starting,m,positive,positive,ES_green,1,m,548,2000969,2001473,2001677
101,third,17,sozial,IAT_green3.bmp,green,ending_scream,scream,ending,m,positive,positive,ES_green,0,c,463,2003300,2003804,2004008
101,third,18,falsch,IAT_purple4.bmp,purple,starting_scream,scream,starting,c,negative,negative,ES_green,1,c,802,2006044,2006548,2006752
101,third,19,morsch,IAT_yellow2.bmp,yellow,starting_melody,melody,starting,c,negative,positive,ES_green,1,c,585,2008629,2009133,2009337
101,third,20,lästig,IAT_red4.bmp,red,ending_melody,melody,ending,c,negative,negative,ES_green,1,c,543,2010995,2011500,2011704
101,third,21,schön,IAT_red3.bmp,red,ending_melody,melody,ending,m,positive,negative,ES_green,1,m,516,2013321,2013825,2014029
101,third,22,krank,IAT_purple2.bmp,purple,starting_scream,scream,starting,c,negative,negative,ES_green,1,c,479,2015619,2016123,2016327
101,third,23,falsch,IAT_green2.bmp,green,ending_scream,scream,ending,c,negative,positive,ES_green,1,c,598,2017879,2018383,2018587
101,third,24,sanft,IAT_green2.bmp,green,ending_scream,scream,ending,m,positive,positive,ES_green,1,m,540,2020258,2020762,2020966
101,third,25,witzig,IAT_green1.bmp,green,ending_scream,scream,ending,m,positive,positive,ES_green,1,m,506,2022581,2023085,2023289
101,third,26,gerecht,IAT_purple3.bmp,purple,starting_scream,scream,starting,m,positive,negative,ES_green,1,m,628,2024868,2025372,2025576
101,third,27,einsam,IAT_green4.bmp,green,ending_scream,scream,ending,c,negative,positive,ES_green,0,m,548,2027278,2027783,2027987
101,third,28,teuer,IAT_green4.bmp,green,ending_scream,scream,ending,c,negative,positive,ES_green,1,c,613,2030110,2030614,2030818
101,third,29,ehrlich,IAT_red4.bmp,red,ending_melody,melody,ending,m,positive,negative,ES_green,1,m,519,2032504,2033009,2033213
101,third,30,sonnig,IAT_red1.bmp,red,ending_melody,melody,ending,m,positive,negative,ES_green,1,m,602,2034806,2035310,2035514
101,third,31,morsch,IAT_yellow4.bmp,yellow,starting_melody,melody,starting,c,negative,positive,ES_green,1,c,544,2037191,2037695,2037899
101,third,32,gesund,IAT_purple3.bmp,purple,starting_scream,scream,starting,m,positive,negative,ES_green,1,m,864,2039516,2040021,2040225
101,third,33,human,IAT_red1.bmp,red,ending_melody,melody,ending,m,positive,negative,ES_green,1,m,646,2042162,2042666,2042870
101,third,34,kaputt,IAT_purple2.bmp,purple,starting_scream,scream,starting,c,negative,negative,ES_green,1,c,552,2044590,2045094,2045298
101,third,35,munter,IAT_red1.bmp,red,ending_melody,melody,ending,m,positive,negative,ES_green,1,m,640,2046923,2047427,2047631
101,third,36,schön,IAT_purple3.bmp,purple,starting_scream,scream,starting,m,positive,negative,ES_green,0,c,555,2049344,2049848,2050052
101,third,37,geizig,IAT_yellow2.bmp,yellow,starting_melody,melody,starting,c,negative,positive,ES_green,0,None,1500,2052181,2052685,2052889
101,third,38,sanft,IAT_yellow1.bmp,yellow,starting_melody,melody,starting,m,positive,positive,ES_green,1,m,606,2055963,2056467,2056671
101,third,39,streng,IAT_yellow4.bmp,yellow,starting_melody,melody,starting,c,negative,positive,ES_green,1,c,586,2058351,2058855,2059059
101,third,40,munter,IAT_green1.bmp,green,ending_scream,scream,ending,m,positive,positive,ES_green,1,m,480,2060720,2061224,2061428
101,third,41,gierig,IAT_purple4.bmp,purple,starting_scream,scream,starting,c,negative,negative,ES_green,1,c,470,2062981,2063485,2063689
101,third,42,teuer,IAT_yellow4.bmp,yellow,starting_melody,melody,starting,c,negative,positive,ES_green,1,c,524,2065233,2065738,2065942
101,third,43,brutal,IAT_red4.bmp,red,ending_melody,melody,ending,c,negative,negative,ES_green,1,c,616,2067541,2068045,2068249
101,third,44,gierig,IAT_green1.bmp,green,ending_scream,scream,ending,c,negative,positive,ES_green,0,m,484,2069939,2070443,2070647
101,third,45,witzig,IAT_yellow1.bmp,yellow,starting_melody,melody,starting,m,positive,positive,ES_green,1,m,540,2072704,2073209,2073413
101,third,46,morsch,IAT_green3.bmp,green,ending_scream,scream,ending,c,negative,positive,ES_green,1,c,435,2075027,2075531,2075735
101,third,47,feige,IAT_green2.bmp,green,ending_scream,scream,ending,c,negative,positive,ES_green,0,m,583,2077244,2077748,2077952
101,third,48,lustig,IAT_yellow3.bmp,yellow,starting_melody,melody,starting,m,positive,positive,ES_green,1,m,602,2080108,2080613,2080817
101,third,49,streng,IAT_purple1.bmp,purple,starting_scream,scream,starting,c,negative,negative,ES_green,1,c,483,2082493,2082997,2083201
101,third,50,gesund,IAT_red3.bmp,red,ending_melody,melody,ending,m,positive,negative,ES_green,1,m,1014,2084757,2085262,2085466
101,third,51,krank,IAT_green2.bmp,green,ending_scream,scream,ending,c,negative,positive,ES_green,1,c,445,2087554,2088058,2088262
101,third,52,gerecht,IAT_red3.bmp,red,ending_melody,melody,ending,m,positive,negative,ES_green,1,m,562,2089781,2090285,2090489
101,third,53,lästig,IAT_red1.bmp,red,ending_melody,melody,ending,c,negative,negative,ES_green,1,c,549,2092125,2092629,2092833
101,third,54,human,IAT_purple1.bmp,purple,starting_scream,scream,starting,m,positive,negative,ES_green,1,m,430,2094456,2094960,2095164
101,third,55,witzig,IAT_yellow1.bmp,yellow,starting_melody,melody,starting,m,positive,positive,ES_green,1,m,500,2096669,2097173,2097377
101,third,56,brutal,IAT_red2.bmp,red,ending_melody,melody,ending,c,negative,negative,ES_green,1,c,667,2098951,2099456,2099660
101,third,57,lästig,IAT_green1.bmp,green,ending_scream,scream,ending,c,negative,positive,ES_green,0,m,499,2101401,2101905,2102109
101,third,58,krank,IAT_green2.bmp,green,ending_scream,scream,ending,c,negative,positive,ES_green,1,c,488,2104182,2104686,2104890
101,third,59,sanft,IAT_green3.bmp,green,ending_scream,scream,ending,m,positive,positive,ES_green,0,c,348,2106452,2106957,2107161
101,third,60,feige,IAT_purple2.bmp,purple,starting_scream,scream,starting,c,negative,negative,ES_green,0,m,576,2109082,2109587,2109791
101,third,61,krank,IAT_yellow2.bmp,yellow,starting_melody,melody,starting,c,negative,positive,ES_green,1,c,607,2111942,2112446,2112650
101,third,62,human,IAT_green3.bmp,green,ending_scream,scream,ending,m,positive,positive,ES_green,1,m,625,2114332,2114836,2115040
101,third,63,geizig,IAT_purple1.bmp,purple,starting_scream,scream,starting,c,negative,negative,ES_green,1,c,611,2116739,2117244,2117448
101,third,64,kaputt,IAT_green4.bmp,green,ending_scream,scream,ending,c,negative,positive,ES_green,1,c,583,2119133,2119637,2119841
101,third,65,lustig,IAT_purple1.bmp,purple,starting_scream,scream,starting,m,positive,negative,ES_green,1,m,558,2121501,2122005,2122209
101,third,66,sonnig,IAT_green4.bmp,green,ending_scream,scream,ending,m,positive,positive,ES_green,1,m,907,2123840,2124345,2124549
101,third,67,human,IAT_purple4.bmp,purple,starting_scream,scream,starting,m,positive,negative,ES_green,1,m,598,2126531,2127035,2127239
101,third,68,feige,IAT_yellow1.bmp,yellow,starting_melody,melody,starting,c,negative,positive,ES_green,1,c,572,2128912,2129416,2129620
101,third,69,schön,IAT_yellow4.bmp,yellow,starting_melody,melody,starting,m,positive,positive,ES_green,1,m,513,2131266,2131770,2131974
101,third,70,ehrlich,IAT_green1.bmp,green,ending_scream,scream,ending,m,positive,positive,ES_green,1,m,490,2133561,2134066,2134270
101,third,71,geizig,IAT_red3.bmp,red,ending_melody,melody,ending,c,negative,negative,ES_green,0,m,559,2135834,2136338,2136542
101,third,72,einsam,IAT_red4.bmp,red,ending_melody,melody,ending,c,negative,negative,ES_green,1,c,932,2138674,2139179,2139383
101,third,73,sozial,IAT_red2.bmp,red,ending_melody,melody,ending,m,positive,negative,ES_green,1,m,609,2141390,2141894,2142098
101,third,74,morsch,IAT_red2.bmp,red,ending_melody,melody,ending,c,negative,negative,ES_green,1,c,505,2143781,2144285,2144489
101,third,75,heiter,IAT_red4.bmp,red,ending_melody,melody,ending,m,positive,negative,ES_green,1,m,530,2146067,2146571,2146775
101,third,76,falsch,IAT_purple4.bmp,purple,starting_scream,scream,starting,c,negative,negative,ES_green,1,c,406,2148380,2148884,2149088
101,third,77,sonnig,IAT_yellow3.bmp,yellow,starting_melody,melody,starting,m,positive,positive,ES_green,1,m,603,2150569,2151073,2151277
101,third,78,streng,IAT_purple4.bmp,purple,starting_scream,scream,starting,c,negative,negative,ES_green,0,m,664,2152954,2153458,2153662
101,third,79,gerecht,IAT_red3.bmp,red,ending_melody,melody,ending,m,positive,negative,ES_green,1,m,734,2155901,2156405,2156609
101,third,80,ehrlich,IAT_yellow3.bmp,yellow,starting_melody,melody,starting,m,positive,positive,ES_green,1,m,478,2158417,2158922,2159126
101,third,81,teuer,IAT_red1.bmp,red,ending_melody,melody,ending,c,negative,negative,ES_green,1,c,535,2160678,2161182,2161386
101,third,82,lustig,IAT_red1.bmp,red,ending_melody,melody,ending,m,positive,negative,ES_green,1,m,476,2162995,2163499,2163703
101,third,83,einsam,IAT_green4.bmp,green,ending_scream,scream,ending,c,negative,positive,ES_green,1,c,523,2165253,2165757,2165961
101,third,84,teuer,IAT_red3.bmp,red,ending_melody,melody,ending,c,negative,negative,ES_green,1,c,529,2167559,2168063,2168267
101,third,85,sonnig,IAT_green1.bmp,green,ending_scream,scream,ending,m,positive,positive,ES_green,1,m,490,2169870,2170374,2170578
101,third,86,sozial,IAT_purple2.bmp,purple,starting_scream,scream,starting,m,positive,negative,ES_green,1,m,476,2172142,2172647,2172851
101,third,87,witzig,IAT_yellow1.bmp,yellow,starting_melody,melody,starting,m,positive,positive,ES_green,1,m,575,2174401,2174905,2175109
101,third,88,kaputt,IAT_yellow3.bmp,yellow,starting_melody,melody,starting,c,negative,positive,ES_green,1,c,474,2176759,2177263,2177467
101,third,89,lustig,IAT_purple1.bmp,purple,starting_scream,scream,starting,m,positive,negative,ES_green,1,m,466,2179015,2179519,2179723
101,third,90,brutal,IAT_yellow1.bmp,yellow,starting_melody,melody,starting,c,negative,positive,ES_green,1,c,576,2181263,2181768,2181972
101,third,91,ehrlich,IAT_yellow2.bmp,yellow,starting_melody,melody,starting,m,positive,positive,ES_green,1,m,485,2183622,2184127,2184331
101,third,92,sozial,IAT_purple4.bmp,purple,starting_scream,scream,starting,m,positive,negative,ES_green,1,m,487,2185890,2186395,2186599
101,third,93,lästig,IAT_yellow2.bmp,yellow,starting_melody,melody,starting,c,negative,positive,ES_green,1,c,547,2188161,2188665,2188869
101,third,94,sanft,IAT_yellow2.bmp,yellow,starting_melody,melody,starting,m,positive,positive,ES_green,1,m,501,2190490,2190995,2191199
101,third,95,kaputt,IAT_yellow3.bmp,yellow,starting_melody,melody,starting,c,negative,positive,ES_green,1,c,543,2192775,2193280,2193484
101,forth,0,human,IAT_yellow3.bmp,yellow,starting_melody,melody,starting,m,positive,positive,ES_green,1,m,659,2249312,2249816,2250020
101,forth,1,ehrlich,IAT_yellow1.bmp,yellow,starting_melody,melody,starting,m,positive,positive,ES_green,1,m,441,2251755,2252259,2252463
101,forth,2,streng,IAT_purple4.bmp,purple,starting_scream,scream,starting,c,negative,negative,ES_green,1,c,346,2253978,2254482,2254686
101,forth,3,gierig,IAT_yellow4.bmp,yellow,starting_melody,melody,starting,c,negative,positive,ES_green,1,c,706,2256107,2256611,2256815
101,forth,4,krank,IAT_red3.bmp,red,ending_melody,melody,ending,c,negative,negative,ES_green,1,c,814,2258595,2259099,2259303
101,forth,5,falsch,IAT_green1.bmp,green,ending_scream,scream,ending,c,negative,positive,ES_green,1,c,822,2261190,2261695,2261899
101,forth,6,brutal,IAT_purple4.bmp,purple,starting_scream,scream,starting,c,negative,negative,ES_green,1,c,742,2263794,2264298,2264502
101,forth,7,falsch,IAT_red1.bmp,red,ending_melody,melody,ending,c,negative,negative,ES_green,1,c,526,2266319,2266823,2267027
101,forth,8,feige,IAT_purple3.bmp,purple,starting_scream,scream,starting,c,negative,negative,ES_green,0,m,701,2268626,2269130,2269334
101,forth,9,sanft,IAT_yellow1.bmp,yellow,starting_melody,melody,starting,m,positive,positive,ES_green,1,m,422,2271610,2272114,2272318
101,forth,10,krank,IAT_green4.bmp,green,ending_scream,scream,ending,c,negative,positive,ES_green,1,c,503,2273814,2274319,2274523
101,forth,11,brutal,IAT_red2.bmp,red,ending_melody,melody,ending,c,negative,negative,ES_green,1,c,560,2276104,2276608,2276812
101,forth,12,teuer,IAT_red1.bmp,red,ending_melody,melody,ending,c,negative,negative,ES_green,0,m,478,2278446,2278950,2279154
101,forth,13,gierig,IAT_purple4.bmp,purple,starting_scream,scream,starting,c,negative,negative,ES_green,1,c,589,2281206,2281711,2281915
101,forth,14,gesund,IAT_green1.bmp,green,ending_scream,scream,ending,m,positive,positive,ES_green,1,m,504,2283578,2284082,2284286
101,forth,15,krank,IAT_green4.bmp,green,ending_scream,scream,ending,c,negative,positive,ES_green,1,c,525,2285864,2286368,2286572
101,forth,16,lästig,IAT_yellow4.bmp,yellow,starting_melody,melody,starting,c,negative,positive,ES_green,1,c,533,2288171,2288676,2288880
101,forth,17,ehrlich,IAT_purple3.bmp,purple,starting_scream,scream,starting,m,positive,negative,ES_green,1,m,575,2290486,2290990,2291194
101,forth,18,heiter,IAT_purple3.bmp,purple,starting_scream,scream,starting,m,positive,negative,ES_green,1,m,572,2292843,2293347,2293551
101,forth,19,geizig,IAT_red2.bmp,red,ending_melody,melody,ending,c,negative,negative,ES_green,0,m,371,2295197,2295701,2295905
101,forth,20,sonnig,IAT_purple1.bmp,purple,starting_scream,scream,starting,m,positive,negative,ES_green,0,c,543,2297851,2298355,2298559
101,forth,21,heiter,IAT_red2.bmp,red,ending_melody,melody,ending,m,positive,negative,ES_green,1,m,669,2300676,2301181,2301385
101,forth,22,sonnig,IAT_green3.bmp,green,ending_scream,scream,ending,m,positive,positive,ES_green,1,m,503,2303128,2303632,2303836
101,forth,23,falsch,IAT_green4.bmp,green,ending_scream,scream,ending,c,negative,positive,ES_green,1,c,487,2305413,2305917,2306121
101,forth,24,brutal,IAT_green2.bmp,green,ending_scream,scream,ending,c,negative,positive,ES_green,1,c,584,2307681,2308186,2308390
101,forth,25,ehrlich,IAT_green3.bmp,green,ending_scream,scream,ending,m,positive,positive,ES_green,1,m,479,2310049,2310553,2310757
101,forth,26,morsch,IAT_yellow2.bmp,yellow,starting_melody,melody,starting,c,negative,positive,ES_green,0,m,474,2312311,2312815,2313019
101,forth,27,munter,IAT_purple1.bmp,purple,starting_scream,scream,starting,m,positive,negative,ES_green,0,c,654,2315067,2315572,2315776
101,forth,28,kaputt,IAT_purple2.bmp,purple,starting_scream,scream,starting,c,negative,negative,ES_green,1,c,568,2318003,2318507,2318711
101,forth,29,einsam,IAT_purple4.bmp,purple,starting_scream,scream,starting,c,negative,negative,ES_green,1,c,977,2320354,2320858,2321062
101,forth,30,lustig,IAT_purple2.bmp,purple,starting_scream,scream,starting,m,positive,negative,ES_green,1,m,1027,2323113,2323617,2323821
101,forth,31,sonnig,IAT_yellow3.bmp,yellow,starting_melody,melody,starting,m,positive,positive,ES_green,1,m,555,2325921,2326426,2326630
101,forth,32,gerecht,IAT_red3.bmp,red,ending_melody,melody,ending,m,positive,negative,ES_green,1,m,629,2328261,2328765,2328969
101,forth,33,gesund,IAT_yellow1.bmp,yellow,starting_melody,melody,starting,m,positive,positive,ES_green,1,m,471,2330673,2331177,2331381
101,forth,34,brutal,IAT_red4.bmp,red,ending_melody,melody,ending,c,negative,negative,ES_green,1,c,470,2332926,2333430,2333634
101,forth,35,kaputt,IAT_yellow1.bmp,yellow,starting_melody,melody,starting,c,negative,positive,ES_green,1,c,505,2335179,2335684,2335888
101,forth,36,gerecht,IAT_purple3.bmp,purple,starting_scream,scream,starting,m,positive,negative,ES_green,1,m,618,2337467,2337971,2338175
101,forth,37,human,IAT_yellow1.bmp,yellow,starting_melody,melody,starting,m,positive,positive,ES_green,1,m,507,2339867,2340372,2340576
101,forth,38,sozial,IAT_red1.bmp,red,ending_melody,melody,ending,m,positive,negative,ES_green,0,c,382,2342158,2342662,2342866
101,forth,39,feige,IAT_green3.bmp,green,ending_scream,scream,ending,c,negative,positive,ES_green,0,m,543,2344823,2345328,2345532
101,forth,40,schön,IAT_green4.bmp,green,ending_scream,scream,ending,m,positive,positive,ES_green,1,m,503,2347649,2348153,2348357
101,forth,41,morsch,IAT_purple2.bmp,purple,starting_scream,scream,starting,c,negative,negative,ES_green,1,c,579,2349933,2350437,2350641
101,forth,42,heiter,IAT_green2.bmp,green,ending_scream,scream,ending,m,positive,positive,ES_green,1,m,464,2352293,2352797,2353001
101,forth,43,witzig,IAT_purple1.bmp,purple,starting_scream,scream,starting,m,positive,negative,ES_green,1,m,542,2354540,2355044,2355248
101,forth,44,gerecht,IAT_red3.bmp,red,ending_melody,melody,ending,m,positive,negative,ES_green,0,c,572,2356865,2357369,2357574
101,forth,45,sonnig,IAT_red1.bmp,red,ending_melody,melody,ending,m,positive,negative,ES_green,1,m,592,2359720,2360225,2360429
101,forth,46,teuer,IAT_green2.bmp,green,ending_scream,scream,ending,c,negative,positive,ES_green,1,c,819,2362095,2362600,2362804
101,forth,47,munter,IAT_yellow2.bmp,yellow,starting_melody,melody,starting,m,positive,positive,ES_green,1,m,861,2364697,2365202,2365406
101,forth,48,feige,IAT_green2.bmp,green,ending_scream,scream,ending,c,negative,positive,ES_green,0,m,648,2367342,2367847,2368052
101,forth,49,human,IAT_red4.bmp,red,ending_melody,melody,ending,m,positive,negative,ES_green,1,m,555,2370274,2370779,2370983
101,forth,50,munter,IAT_red1.bmp,red,ending_melody,melody,ending,m,positive,negative,ES_green,1,m,1074,2372613,2373117,2373321
101,forth,51,gierig,IAT_yellow2.bmp,yellow,starting_melody,melody,starting,c,negative,positive,ES_green,0,m,363,2375471,2375975,2376179
101,forth,52,lästig,IAT_yellow2.bmp,yellow,starting_melody,melody,starting,c,negative,positive,ES_green,1,c,643,2378116,2378621,2378825
101,forth,53,falsch,IAT_yellow4.bmp,yellow,starting_melody,melody,starting,c,negative,positive,ES_green,1,c,550,2380543,2381047,2381251
101,forth,54,sanft,IAT_green1.bmp,green,ending_scream,scream,ending,m,positive,positive,ES_green,0,c,568,2382876,2383380,2383584
101,forth,55,morsch,IAT_purple3.bmp,purple,starting_scream,scream,starting,c,negative,negative,ES_green,1,c,610,2385726,2386231,2386435
101,forth,56,lustig,IAT_red3.bmp,red,ending_melody,melody,ending,m,positive,negative,ES_green,1,m,617,2388122,2388626,2388830
101,forth,57,lästig,IAT_purple2.bmp,purple,starting_scream,scream,starting,c,negative,negative,ES_green,1,c,615,2390522,2391026,2391230
101,forth,58,einsam,IAT_red4.bmp,red,ending_melody,melody,ending,c,negative,negative,ES_green,0,m,513,2392919,2393423,2393627
101,forth,59,heiter,IAT_yellow3.bmp,yellow,starting_melody,melody,starting,m,positive,positive,ES_green,1,m,691,2395714,2396218,2396422
101,forth,60,sanft,IAT_purple4.bmp,purple,starting_scream,scream,starting,m,positive,negative,ES_green,1,m,585,2398187,2398691,2398895
101,forth,61,gierig,IAT_green2.bmp,green,ending_scream,scream,ending,c,negative,positive,ES_green,1,c,710,2400555,2401059,2401263
101,forth,62,streng,IAT_purple1.bmp,purple,starting_scream,scream,starting,c,negative,negative,ES_green,1,c,826,2403047,2403552,2403756
101,forth,63,geizig,IAT_yellow1.bmp,yellow,starting_melody,melody,starting,c,negative,positive,ES_green,1,c,1016,2405656,2406160,2406364
101,forth,64,sozial,IAT_yellow4.bmp,yellow,starting_melody,melody,starting,m,positive,positive,ES_green,1,m,577,2408454,2408959,2409163
101,forth,65,human,IAT_green1.bmp,green,ending_scream,scream,ending,m,positive,positive,ES_green,1,m,498,2410814,2411319,2411523
101,forth,66,sozial,IAT_green4.bmp,green,ending_scream,scream,ending,m,positive,positive,ES_green,1,m,507,2413095,2413600,2413804
101,forth,67,schön,IAT_purple4.bmp,purple,starting_scream,scream,starting,m,positive,negative,ES_green,1,m,654,2415386,2415890,2416094
101,forth,68,feige,IAT_green3.bmp,green,ending_scream,scream,ending,c,negative,positive,ES_green,1,c,703,2417822,2418326,2418530
101,forth,69,witzig,IAT_yellow4.bmp,yellow,starting_melody,melody,starting,m,positive,positive,ES_green,1,m,637,2420307,2420811,2421015
101,forth,70,sozial,IAT_red1.bmp,red,ending_melody,melody,ending,m,positive,negative,ES_green,1,m,720,2422727,2423231,2423435
101,forth,71,lustig,IAT_red2.bmp,red,ending_melody,melody,ending,m,positive,negative,ES_green,1,m,633,2425230,2425734,2425938
101,forth,72,teuer,IAT_yellow3.bmp,yellow,starting_melody,melody,starting,c,negative,positive,ES_green,1,c,587,2427646,2428150,2428354
101,forth,73,gesund,IAT_purple3.bmp,purple,starting_scream,scream,starting,m,positive,negative,ES_green,1,m,528,2430015,2430519,2430723
101,forth,74,kaputt,IAT_yellow4.bmp,yellow,starting_melody,melody,starting,c,negative,positive,ES_green,1,c,621,2432326,2432830,2433034
101,forth,75,streng,IAT_yellow2.bmp,yellow,starting_melody,melody,starting,c,negative,positive,ES_green,1,c,955,2434730,2435234,2435438
101,forth,76,schön,IAT_red3.bmp,red,ending_melody,melody,ending,m,positive,negative,ES_green,1,m,575,2437468,2437972,2438176
101,forth,77,munter,IAT_green2.bmp,green,ending_scream,scream,ending,m,positive,positive,ES_green,1,m,483,2439825,2440329,2440533
101,forth,78,lästig,IAT_purple1.bmp,purple,starting_scream,scream,starting,c,negative,negative,ES_green,1,c,550,2442091,2442595,2442799
101,forth,79,ehrlich,IAT_purple1.bmp,purple,starting_scream,scream,starting,m,positive,negative,ES_green,1,m,520,2444424,2444928,2445132
101,forth,80,schön,IAT_red4.bmp,red,ending_melody,melody,ending,m,positive,negative,ES_green,1,m,561,2446727,2447231,2447435
101,forth,81,krank,IAT_purple2.bmp,purple,starting_scream,scream,starting,c,negative,negative,ES_green,1,c,492,2449071,2449575,2449779
101,forth,82,gerecht,IAT_green3.bmp,green,ending_scream,scream,ending,m,positive,positive,ES_green,1,m,527,2451346,2451851,2452055
101,forth,83,gesund,IAT_green1.bmp,green,ending_scream,scream,ending,m,positive,positive,ES_green,1,m,535,2453656,2454160,2454364
101,forth,84,morsch,IAT_green1.bmp,green,ending_scream,scream,ending,c,negative,positive,ES_green,1,c,493,2455973,2456477,2456681
101,forth,85,witzig,IAT_yellow2.bmp,yellow,starting_melody,melody,starting,m,positive,positive,ES_green,1,m,498,2458249,2458753,2458957
101,forth,86,einsam,IAT_red4.bmp,red,ending_melody,melody,ending,c,negative,negative,ES_green,1,c,714,2460530,2461035,2461240
101,forth,87,geizig,IAT_yellow3.bmp,yellow,starting_melody,melody,starting,c,negative,positive,ES_green,1,c,573,2463030,2463535,2463739
101,forth,88,lustig,IAT_purple2.bmp,purple,starting_scream,scream,starting,m,positive,negative,ES_green,1,m,669,2465389,2465893,2466097
101,forth,89,streng,IAT_red2.bmp,red,ending_melody,melody,ending,c,negative,negative,ES_green,1,c,510,2467842,2468346,2468550
101,forth,90,witzig,IAT_yellow3.bmp,yellow,starting_melody,melody,starting,m,positive,positive,ES_green,1,m,473,2470135,2470639,2470843
101,forth,91,teuer,IAT_green4.bmp,green,ending_scream,scream,ending,c,negative,positive,ES_green,1,c,394,2472391,2472895,2473099
101,forth,92,sanft,IAT_green3.bmp,green,ending_scream,scream,ending,m,positive,positive,ES_green,1,m,499,2474567,2475072,2475276
101,forth,93,geizig,IAT_red4.bmp,red,ending_melody,melody,ending,c,negative,negative,ES_green,1,c,536,2476852,2477356,2477560
101,forth,94,kaputt,IAT_red3.bmp,red,ending_melody,melody,ending,c,negative,negative,ES_green,1,c,503,2479171,2479675,2479879
101,forth,95,einsam,IAT_red2.bmp,red,ending_melody,melody,ending,c,negative,negative,ES_green,0,m,472,2481457,2481961,2482165
