subject_nr,block,trialnr,trial_target,trial_prime,prime_color,prime_role,prime_us,prime_relation,correct_response,target_valence,prime_valence,color_counter,correct_first_response,response_first_response,response_time_first_response,fixation_show,prime_show,target_show
27,first,0,gierig,IAT_yellow2.bmp,yellow,ending_scream,scream,ending,c,negative,positive,ES_yellow,1,c,755,1427077,1427581,1427785
27,first,1,streng,IAT_red4.bmp,red,starting_melody,melody,starting,c,negative,positive,ES_yellow,1,c,615,1429614,1430119,1430323
27,first,2,gierig,IAT_red1.bmp,red,starting_melody,melody,starting,c,negative,positive,ES_yellow,1,c,513,1432012,1432517,1432721
27,first,3,krank,IAT_purple3.bmp,purple,ending_melody,melody,ending,c,negative,negative,ES_yellow,1,c,454,1434308,1434812,1435016
27,first,4,human,IAT_purple2.bmp,purple,ending_melody,melody,ending,m,positive,negative,ES_yellow,1,m,568,1436543,1437047,1437251
27,first,5,falsch,IAT_red2.bmp,red,starting_melody,melody,starting,c,negative,positive,ES_yellow,1,c,837,1438892,1439396,1439600
27,first,6,sozial,IAT_yellow4.bmp,yellow,ending_scream,scream,ending,m,positive,positive,ES_yellow,0,c,770,1441510,1442014,1442218
27,first,7,brutal,IAT_red2.bmp,red,starting_melody,melody,starting,c,negative,positive,ES_yellow,1,c,1306,1444562,1445067,1445271
27,first,8,human,IAT_purple2.bmp,purple,ending_melody,melody,ending,m,positive,negative,ES_yellow,1,m,688,1447650,1448154,1448358
27,first,9,geizig,IAT_purple2.bmp,purple,ending_melody,melody,ending,c,negative,negative,ES_yellow,1,c,780,1450119,1450625,1450829
27,first,10,ehrlich,IAT_purple1.bmp,purple,ending_melody,melody,ending,m,positive,negative,ES_yellow,1,m,598,1452682,1453186,1453390
27,first,11,munter,IAT_yellow4.bmp,yellow,ending_scream,scream,ending,m,positive,positive,ES_yellow,1,m,936,1455061,1455565,1455769
27,first,12,gerecht,IAT_green3.bmp,green,starting_scream,scream,starting,m,positive,negative,ES_yellow,1,m,662,1457778,1458283,1458487
27,first,13,gesund,IAT_green3.bmp,green,starting_scream,scream,starting,m,positive,negative,ES_yellow,1,m,518,1460224,1460728,1460932
27,first,14,human,IAT_purple1.bmp,purple,ending_melody,melody,ending,m,positive,negative,ES_yellow,1,m,570,1462523,1463027,1463231
27,first,15,feige,IAT_yellow4.bmp,yellow,ending_scream,scream,ending,c,negative,positive,ES_yellow,1,c,598,1464875,1465379,1465583
27,first,16,sanft,IAT_yellow2.bmp,yellow,ending_scream,scream,ending,m,positive,positive,ES_yellow,1,m,566,1467255,1467760,1467964
27,first,17,morsch,IAT_yellow3.bmp,yellow,ending_scream,scream,ending,c,negative,positive,ES_yellow,1,c,627,1469604,1470108,1470312
27,first,18,geizig,IAT_purple4.bmp,purple,ending_melody,melody,ending,c,negative,negative,ES_yellow,1,c,606,1472014,1472518,1472722
27,first,19,gierig,IAT_green2.bmp,green,starting_scream,scream,starting,c,negative,negative,ES_yellow,1,c,486,1474402,1474906,1475110
27,first,20,krank,IAT_yellow4.bmp,yellow,ending_scream,scream,ending,c,negative,positive,ES_yellow,1,c,541,1476670,1477174,1477378
27,first,21,heiter,IAT_green4.bmp,green,starting_scream,scream,starting,m,positive,negative,ES_yellow,1,m,607,1478993,1479497,1479701
27,first,22,geizig,IAT_green4.bmp,green,starting_scream,scream,starting,c,negative,negative,ES_yellow,1,c,522,1481382,1481886,1482090
27,first,23,lästig,IAT_yellow4.bmp,yellow,ending_scream,scream,ending,c,negative,positive,ES_yellow,1,c,563,1483686,1484190,1484394
27,first,24,witzig,IAT_purple3.bmp,purple,ending_melody,melody,ending,m,positive,negative,ES_yellow,1,m,627,1486031,1486535,1486739
27,first,25,sozial,IAT_red3.bmp,red,starting_melody,melody,starting,m,positive,positive,ES_yellow,1,m,646,1488439,1488943,1489147
27,first,26,teuer,IAT_purple4.bmp,purple,ending_melody,melody,ending,c,negative,negative,ES_yellow,1,c,667,1490865,1491370,1491574
27,first,27,witzig,IAT_yellow3.bmp,yellow,ending_scream,scream,ending,m,positive,positive,ES_yellow,1,m,597,1493314,1493819,1494023
27,first,28,lustig,IAT_red1.bmp,red,starting_melody,melody,starting,m,positive,positive,ES_yellow,1,m,724,1495694,1496199,1496403
27,first,29,human,IAT_green1.bmp,green,starting_scream,scream,starting,m,positive,negative,ES_yellow,1,m,623,1498199,1498704,1498908
27,first,30,sonnig,IAT_red3.bmp,red,starting_melody,melody,starting,m,positive,positive,ES_yellow,1,m,558,1500605,1501109,1501313
27,first,31,schön,IAT_purple1.bmp,purple,ending_melody,melody,ending,m,positive,negative,ES_yellow,1,m,394,1502944,1503449,1503653
27,first,32,einsam,IAT_purple1.bmp,purple,ending_melody,melody,ending,c,negative,negative,ES_yellow,1,c,561,1505120,1505624,1505828
27,first,33,heiter,IAT_yellow1.bmp,yellow,ending_scream,scream,ending,m,positive,positive,ES_yellow,1,m,519,1507462,1507966,1508170
27,first,34,munter,IAT_red4.bmp,red,starting_melody,melody,starting,m,positive,positive,ES_yellow,1,m,652,1509763,1510267,1510471
27,first,35,falsch,IAT_red3.bmp,red,starting_melody,melody,starting,c,negative,positive,ES_yellow,1,c,548,1512198,1512702,1512906
27,first,36,gerecht,IAT_red4.bmp,red,starting_melody,melody,starting,m,positive,positive,ES_yellow,1,m,712,1514528,1515032,1515236
27,first,37,lästig,IAT_green1.bmp,green,starting_scream,scream,starting,c,negative,negative,ES_yellow,1,c,576,1517022,1517526,1517730
27,first,38,ehrlich,IAT_purple4.bmp,purple,ending_melody,melody,ending,m,positive,negative,ES_yellow,1,m,659,1519379,1519883,1520087
27,first,39,teuer,IAT_red3.bmp,red,starting_melody,melody,starting,c,negative,positive,ES_yellow,0,m,557,1521820,1522324,1522528
27,first,40,gierig,IAT_purple3.bmp,purple,ending_melody,melody,ending,c,negative,negative,ES_yellow,1,c,742,1524660,1525165,1525369
27,first,41,einsam,IAT_green2.bmp,green,starting_scream,scream,starting,c,negative,negative,ES_yellow,1,c,507,1527184,1527689,1527893
27,first,42,lästig,IAT_purple2.bmp,purple,ending_melody,melody,ending,c,negative,negative,ES_yellow,1,c,567,1529474,1529978,1530182
27,first,43,morsch,IAT_purple2.bmp,purple,ending_melody,melody,ending,c,negative,negative,ES_yellow,1,c,509,1531822,1532327,1532531
27,first,44,brutal,IAT_green3.bmp,green,starting_scream,scream,starting,c,negative,negative,ES_yellow,1,c,507,1534114,1534618,1534822
27,first,45,sanft,IAT_yellow3.bmp,yellow,ending_scream,scream,ending,m,positive,positive,ES_yellow,1,m,594,1536402,1536906,1537110
27,first,46,schön,IAT_green2.bmp,green,starting_scream,scream,starting,m,positive,negative,ES_yellow,1,m,680,1538778,1539283,1539487
27,first,47,geizig,IAT_yellow2.bmp,yellow,ending_scream,scream,ending,c,negative,positive,ES_yellow,1,c,815,1541241,1541745,1541949
27,first,48,morsch,IAT_green2.bmp,green,starting_scream,scream,starting,c,negative,negative,ES_yellow,1,c,701,1543838,1544342,1544546
27,first,49,lustig,IAT_green3.bmp,green,starting_scream,scream,starting,m,positive,negative,ES_yellow,1,m,538,1546321,1546825,1547029
27,first,50,lästig,IAT_green3.bmp,green,starting_scream,scream,starting,c,negative,negative,ES_yellow,1,c,790,1548640,1549144,1549348
27,first,51,munter,IAT_purple3.bmp,purple,ending_melody,melody,ending,m,positive,negative,ES_yellow,1,m,525,1551212,1551716,1551920
27,first,52,gesund,IAT_yellow1.bmp,yellow,ending_scream,scream,ending,m,positive,positive,ES_yellow,1,m,662,1553519,1554024,1554228
27,first,53,teuer,IAT_purple2.bmp,purple,ending_melody,melody,ending,c,negative,negative,ES_yellow,1,c,934,1555964,1556468,1556672
27,first,54,sonnig,IAT_red3.bmp,red,starting_melody,melody,starting,m,positive,positive,ES_yellow,1,m,708,1558680,1559184,1559388
27,first,55,ehrlich,IAT_yellow1.bmp,yellow,ending_scream,scream,ending,m,positive,positive,ES_yellow,1,m,1304,1561170,1561674,1561878
27,first,56,einsam,IAT_green2.bmp,green,starting_scream,scream,starting,c,negative,negative,ES_yellow,1,c,723,1564256,1564760,1564964
27,first,57,sozial,IAT_green1.bmp,green,starting_scream,scream,starting,m,positive,negative,ES_yellow,1,m,650,1566760,1567265,1567469
27,first,58,witzig,IAT_red1.bmp,red,starting_melody,melody,starting,m,positive,positive,ES_yellow,1,m,682,1569193,1569698,1569902
27,first,59,streng,IAT_yellow3.bmp,yellow,ending_scream,scream,ending,c,negative,positive,ES_yellow,1,c,891,1571658,1572163,1572367
27,first,60,feige,IAT_green4.bmp,green,starting_scream,scream,starting,c,negative,negative,ES_yellow,1,c,631,1574331,1574835,1575039
27,first,61,kaputt,IAT_red2.bmp,red,starting_melody,melody,starting,c,negative,positive,ES_yellow,1,c,639,1576744,1577248,1577452
27,first,62,sanft,IAT_red3.bmp,red,starting_melody,melody,starting,m,positive,positive,ES_yellow,1,m,556,1579165,1579670,1579874
27,first,63,einsam,IAT_red4.bmp,red,starting_melody,melody,starting,c,negative,positive,ES_yellow,1,c,622,1581504,1582008,1582212
27,first,64,kaputt,IAT_red4.bmp,red,starting_melody,melody,starting,c,negative,positive,ES_yellow,1,c,622,1583908,1584412,1584616
27,first,65,krank,IAT_yellow2.bmp,yellow,ending_scream,scream,ending,c,negative,positive,ES_yellow,1,c,963,1586313,1586817,1587021
27,first,66,falsch,IAT_green4.bmp,green,starting_scream,scream,starting,c,negative,negative,ES_yellow,1,c,524,1589058,1589562,1589766
27,first,67,witzig,IAT_red2.bmp,red,starting_melody,melody,starting,m,positive,positive,ES_yellow,1,m,555,1591364,1591868,1592072
27,first,68,krank,IAT_yellow4.bmp,yellow,ending_scream,scream,ending,c,negative,positive,ES_yellow,1,c,581,1593702,1594206,1594410
27,first,69,lustig,IAT_green2.bmp,green,starting_scream,scream,starting,m,positive,negative,ES_yellow,1,m,727,1596065,1596570,1596774
27,first,70,schön,IAT_purple3.bmp,purple,ending_melody,melody,ending,m,positive,negative,ES_yellow,1,m,615,1598575,1599080,1599284
27,first,71,gerecht,IAT_green3.bmp,green,starting_scream,scream,starting,m,positive,negative,ES_yellow,1,m,596,1600974,1601478,1601682
27,first,72,sonnig,IAT_green1.bmp,green,starting_scream,scream,starting,m,positive,negative,ES_yellow,1,m,493,1603352,1603856,1604060
27,first,73,gerecht,IAT_purple4.bmp,purple,ending_melody,melody,ending,m,positive,negative,ES_yellow,1,m,614,1605627,1606131,1606337
27,first,74,feige,IAT_yellow2.bmp,yellow,ending_scream,scream,ending,c,negative,positive,ES_yellow,1,c,548,1608025,1608530,1608734
27,first,75,sozial,IAT_yellow2.bmp,yellow,ending_scream,scream,ending,m,positive,positive,ES_yellow,1,m,604,1610357,1610861,1611065
27,first,76,gesund,IAT_green4.bmp,green,starting_scream,scream,starting,m,positive,negative,ES_yellow,1,m,512,1612743,1613248,1613452
27,first,77,sanft,IAT_green1.bmp,green,starting_scream,scream,starting,m,positive,negative,ES_yellow,1,m,538,1615038,1615543,1615747
27,first,78,streng,IAT_red4.bmp,red,starting_melody,melody,starting,c,negative,positive,ES_yellow,1,c,540,1617360,1617864,1618068
27,first,79,teuer,IAT_red2.bmp,red,starting_melody,melody,starting,c,negative,positive,ES_yellow,1,c,1348,1619682,1620186,1620390
27,first,80,schön,IAT_purple1.bmp,purple,ending_melody,melody,ending,m,positive,negative,ES_yellow,0,c,828,1622812,1623317,1623521
27,first,81,morsch,IAT_yellow1.bmp,yellow,ending_scream,scream,ending,c,negative,positive,ES_yellow,1,c,720,1625925,1626429,1626633
27,first,82,munter,IAT_red2.bmp,red,starting_melody,melody,starting,m,positive,positive,ES_yellow,1,m,756,1628427,1628932,1629136
27,first,83,brutal,IAT_green4.bmp,green,starting_scream,scream,starting,c,negative,negative,ES_yellow,1,c,734,1630966,1631471,1631675
27,first,84,ehrlich,IAT_yellow3.bmp,yellow,ending_scream,scream,ending,m,positive,positive,ES_yellow,1,m,677,1633483,1633987,1634191
27,first,85,kaputt,IAT_red1.bmp,red,starting_melody,melody,starting,c,negative,positive,ES_yellow,1,c,553,1635942,1636446,1636650
27,first,86,falsch,IAT_yellow1.bmp,yellow,ending_scream,scream,ending,c,negative,positive,ES_yellow,1,c,597,1638279,1638783,1638987
27,first,87,gesund,IAT_red1.bmp,red,starting_melody,melody,starting,m,positive,positive,ES_yellow,1,m,497,1640658,1641162,1641366
27,first,88,heiter,IAT_yellow3.bmp,yellow,ending_scream,scream,ending,m,positive,positive,ES_yellow,1,m,709,1642938,1643442,1643646
27,first,89,lustig,IAT_yellow1.bmp,yellow,ending_scream,scream,ending,m,positive,positive,ES_yellow,1,m,564,1645430,1645934,1646138
27,first,90,brutal,IAT_purple4.bmp,purple,ending_melody,melody,ending,c,negative,negative,ES_yellow,1,c,630,1647775,1648280,1648484
27,first,91,sonnig,IAT_purple3.bmp,purple,ending_melody,melody,ending,m,positive,negative,ES_yellow,1,m,589,1650189,1650693,1650897
27,first,92,feige,IAT_green1.bmp,green,starting_scream,scream,starting,c,negative,negative,ES_yellow,1,c,597,1652561,1653065,1653269
27,first,93,kaputt,IAT_purple1.bmp,purple,ending_melody,melody,ending,c,negative,negative,ES_yellow,1,c,724,1654940,1655444,1655648
27,first,94,streng,IAT_purple4.bmp,purple,ending_melody,melody,ending,c,negative,negative,ES_yellow,1,c,673,1657446,1657950,1658154
27,first,95,heiter,IAT_red1.bmp,red,starting_melody,melody,starting,m,positive,positive,ES_yellow,1,m,547,1659902,1660406,1660610
27,second,0,sozial,IAT_yellow2.bmp,yellow,ending_scream,scream,ending,m,positive,positive,ES_yellow,1,m,781,1682644,1683149,1683353
27,second,1,krank,IAT_yellow4.bmp,yellow,ending_scream,scream,ending,c,negative,positive,ES_yellow,1,c,530,1685209,1685713,1685917
27,second,2,schön,IAT_green1.bmp,green,starting_scream,scream,starting,m,positive,negative,ES_yellow,1,m,566,1687520,1688024,1688228
27,second,3,morsch,IAT_yellow4.bmp,yellow,ending_scream,scream,ending,c,negative,positive,ES_yellow,1,c,473,1689867,1690371,1690575
27,second,4,gesund,IAT_green3.bmp,green,starting_scream,scream,starting,m,positive,negative,ES_yellow,1,m,468,1692122,1692626,1692830
27,second,5,lustig,IAT_green2.bmp,green,starting_scream,scream,starting,m,positive,negative,ES_yellow,1,m,458,1694370,1694874,1695078
27,second,6,krank,IAT_purple4.bmp,purple,ending_melody,melody,ending,c,negative,negative,ES_yellow,1,c,456,1696609,1697113,1697317
27,second,7,lästig,IAT_purple2.bmp,purple,ending_melody,melody,ending,c,negative,negative,ES_yellow,1,c,491,1698847,1699351,1699555
27,second,8,kaputt,IAT_red2.bmp,red,starting_melody,melody,starting,c,negative,positive,ES_yellow,0,m,519,1701120,1701624,1701828
27,second,9,human,IAT_purple2.bmp,purple,ending_melody,melody,ending,m,positive,negative,ES_yellow,1,m,841,1703922,1704427,1704631
27,second,10,geizig,IAT_yellow4.bmp,yellow,ending_scream,scream,ending,c,negative,positive,ES_yellow,1,c,648,1706546,1707050,1707254
27,second,11,sozial,IAT_purple3.bmp,purple,ending_melody,melody,ending,m,positive,negative,ES_yellow,1,m,620,1708974,1709478,1709682
27,second,12,lästig,IAT_yellow2.bmp,yellow,ending_scream,scream,ending,c,negative,positive,ES_yellow,1,c,677,1711376,1711881,1712085
27,second,13,gesund,IAT_red3.bmp,red,starting_melody,melody,starting,m,positive,positive,ES_yellow,1,m,593,1713836,1714340,1714544
27,second,14,gierig,IAT_green4.bmp,green,starting_scream,scream,starting,c,negative,negative,ES_yellow,1,c,659,1716209,1716714,1716918
27,second,15,falsch,IAT_yellow2.bmp,yellow,ending_scream,scream,ending,c,negative,positive,ES_yellow,1,c,539,1718651,1719155,1719359
27,second,16,gerecht,IAT_purple1.bmp,purple,ending_melody,melody,ending,m,positive,negative,ES_yellow,1,m,590,1720972,1721476,1721680
27,second,17,sanft,IAT_red1.bmp,red,starting_melody,melody,starting,m,positive,positive,ES_yellow,1,m,626,1723344,1723848,1724052
27,second,18,schön,IAT_green1.bmp,green,starting_scream,scream,starting,m,positive,negative,ES_yellow,1,m,526,1725750,1726255,1726459
27,second,19,einsam,IAT_green1.bmp,green,starting_scream,scream,starting,c,negative,negative,ES_yellow,1,c,686,1728059,1728563,1728767
27,second,20,brutal,IAT_green4.bmp,green,starting_scream,scream,starting,c,negative,negative,ES_yellow,1,c,566,1730527,1731031,1731235
27,second,21,heiter,IAT_yellow3.bmp,yellow,ending_scream,scream,ending,m,positive,positive,ES_yellow,1,m,620,1732874,1733378,1733582
27,second,22,lästig,IAT_purple3.bmp,purple,ending_melody,melody,ending,c,negative,negative,ES_yellow,1,c,567,1735276,1735780,1735984
27,second,23,ehrlich,IAT_green2.bmp,green,starting_scream,scream,starting,m,positive,negative,ES_yellow,1,m,1436,1737625,1738129,1738333
27,second,24,kaputt,IAT_purple1.bmp,purple,ending_melody,melody,ending,c,negative,negative,ES_yellow,1,c,540,1740843,1741347,1741551
27,second,25,gierig,IAT_green3.bmp,green,starting_scream,scream,starting,c,negative,negative,ES_yellow,1,c,753,1743165,1743670,1743874
27,second,26,gesund,IAT_green1.bmp,green,starting_scream,scream,starting,m,positive,negative,ES_yellow,1,m,793,1745700,1746204,1746408
27,second,27,feige,IAT_purple4.bmp,purple,ending_melody,melody,ending,c,negative,negative,ES_yellow,1,c,612,1748274,1748778,1748982
27,second,28,gerecht,IAT_green4.bmp,green,starting_scream,scream,starting,m,positive,negative,ES_yellow,1,m,854,1750667,1751171,1751375
27,second,29,lästig,IAT_green2.bmp,green,starting_scream,scream,starting,c,negative,negative,ES_yellow,1,c,672,1753302,1753807,1754011
27,second,30,ehrlich,IAT_red1.bmp,red,starting_melody,melody,starting,m,positive,positive,ES_yellow,1,m,680,1755757,1756261,1756465
27,second,31,sozial,IAT_yellow1.bmp,yellow,ending_scream,scream,ending,m,positive,positive,ES_yellow,1,m,553,1758219,1758724,1758928
27,second,32,streng,IAT_green2.bmp,green,starting_scream,scream,starting,c,negative,negative,ES_yellow,1,c,1030,1760554,1761058,1761262
27,second,33,human,IAT_purple3.bmp,purple,ending_melody,melody,ending,m,positive,negative,ES_yellow,1,m,869,1763366,1763870,1764074
27,second,34,witzig,IAT_red2.bmp,red,starting_melody,melody,starting,m,positive,positive,ES_yellow,1,m,554,1766018,1766523,1766727
27,second,35,brutal,IAT_red4.bmp,red,starting_melody,melody,starting,c,negative,positive,ES_yellow,1,c,587,1768355,1768859,1769063
27,second,36,human,IAT_yellow1.bmp,yellow,ending_scream,scream,ending,m,positive,positive,ES_yellow,1,m,650,1770724,1771228,1771432
27,second,37,kaputt,IAT_green2.bmp,green,starting_scream,scream,starting,c,negative,negative,ES_yellow,1,c,625,1773156,1773660,1773864
27,second,38,witzig,IAT_purple1.bmp,purple,ending_melody,melody,ending,m,positive,negative,ES_yellow,1,m,764,1775563,1776067,1776271
27,second,39,ehrlich,IAT_yellow1.bmp,yellow,ending_scream,scream,ending,m,positive,positive,ES_yellow,1,m,588,1778109,1778613,1778817
27,second,40,gierig,IAT_red1.bmp,red,starting_melody,melody,starting,c,negative,positive,ES_yellow,1,c,512,1780479,1780984,1781188
27,second,41,heiter,IAT_red4.bmp,red,starting_melody,melody,starting,m,positive,positive,ES_yellow,1,m,486,1782774,1783278,1783482
27,second,42,gerecht,IAT_yellow2.bmp,yellow,ending_scream,scream,ending,m,positive,positive,ES_yellow,1,m,512,1785042,1785546,1785750
27,second,43,streng,IAT_yellow4.bmp,yellow,ending_scream,scream,ending,c,negative,positive,ES_yellow,1,c,749,1787337,1787841,1788045
27,second,44,heiter,IAT_purple3.bmp,purple,ending_melody,melody,ending,m,positive,negative,ES_yellow,1,m,768,1789868,1790372,1790576
27,second,45,morsch,IAT_red2.bmp,red,starting_melody,melody,starting,c,negative,positive,ES_yellow,1,c,555,1792418,1792922,1793126
27,second,46,sanft,IAT_green1.bmp,green,starting_scream,scream,starting,m,positive,negative,ES_yellow,1,m,522,1794755,1795260,1795464
27,second,47,witzig,IAT_red3.bmp,red,starting_melody,melody,starting,m,positive,positive,ES_yellow,1,m,666,1797060,1797564,1797768
27,second,48,lustig,IAT_yellow4.bmp,yellow,ending_scream,scream,ending,m,positive,positive,ES_yellow,1,m,506,1799508,1800012,1800216
27,second,49,gerecht,IAT_red1.bmp,red,starting_melody,melody,starting,m,positive,positive,ES_yellow,1,m,522,1801796,1802300,1802504
27,second,50,munter,IAT_red1.bmp,red,starting_melody,melody,starting,m,positive,positive,ES_yellow,1,m,546,1804100,1804605,1804809
27,second,51,geizig,IAT_green2.bmp,green,starting_scream,scream,starting,c,negative,negative,ES_yellow,1,c,559,1806428,1806933,1807137
27,second,52,falsch,IAT_yellow3.bmp,yellow,ending_scream,scream,ending,c,negative,positive,ES_yellow,1,c,430,1808770,1809274,1809478
27,second,53,feige,IAT_purple4.bmp,purple,ending_melody,melody,ending,c,negative,negative,ES_yellow,1,c,450,1810982,1811486,1811690
27,second,54,sanft,IAT_green3.bmp,green,starting_scream,scream,starting,m,positive,negative,ES_yellow,0,c,484,1813215,1813719,1813923
27,second,55,sozial,IAT_purple1.bmp,purple,ending_melody,melody,ending,m,positive,negative,ES_yellow,1,m,509,1815982,1816486,1816690
27,second,56,sonnig,IAT_purple2.bmp,purple,ending_melody,melody,ending,m,positive,negative,ES_yellow,1,m,447,1818273,1818777,1818981
27,second,57,teuer,IAT_purple3.bmp,purple,ending_melody,melody,ending,c,negative,negative,ES_yellow,0,m,442,1820501,1821005,1821209
27,second,58,einsam,IAT_green4.bmp,green,starting_scream,scream,starting,c,negative,negative,ES_yellow,1,c,541,1823226,1823730,1823934
27,second,59,munter,IAT_purple4.bmp,purple,ending_melody,melody,ending,m,positive,negative,ES_yellow,1,m,554,1825549,1826053,1826257
27,second,60,schön,IAT_yellow3.bmp,yellow,ending_scream,scream,ending,m,positive,positive,ES_yellow,1,m,511,1827885,1828389,1828593
27,second,61,brutal,IAT_red2.bmp,red,starting_melody,melody,starting,c,negative,positive,ES_yellow,1,c,758,1830179,1830683,1830887
27,second,62,streng,IAT_green4.bmp,green,starting_scream,scream,starting,c,negative,negative,ES_yellow,1,c,671,1832719,1833223,1833427
27,second,63,munter,IAT_yellow3.bmp,yellow,ending_scream,scream,ending,m,positive,positive,ES_yellow,1,m,721,1835172,1835676,1835880
27,second,64,sanft,IAT_red3.bmp,red,starting_melody,melody,starting,m,positive,positive,ES_yellow,1,m,1056,1837675,1838179,1838383
27,second,65,geizig,IAT_yellow2.bmp,yellow,ending_scream,scream,ending,c,negative,positive,ES_yellow,1,c,605,1840514,1841018,1841222
27,second,66,human,IAT_red3.bmp,red,starting_melody,melody,starting,m,positive,positive,ES_yellow,1,m,547,1842900,1843405,1843609
27,second,67,gesund,IAT_purple3.bmp,purple,ending_melody,melody,ending,m,positive,negative,ES_yellow,1,m,556,1845230,1845735,1845939
27,second,68,krank,IAT_green1.bmp,green,starting_scream,scream,starting,c,negative,negative,ES_yellow,1,c,491,1847569,1848073,1848277
27,second,69,morsch,IAT_red1.bmp,red,starting_melody,melody,starting,c,negative,positive,ES_yellow,1,c,650,1849842,1850346,1850550
27,second,70,einsam,IAT_red4.bmp,red,starting_melody,melody,starting,c,negative,positive,ES_yellow,1,c,733,1852275,1852779,1852983
27,second,71,feige,IAT_yellow1.bmp,yellow,ending_scream,scream,ending,c,negative,positive,ES_yellow,1,c,601,1854791,1855295,1855499
27,second,72,krank,IAT_red3.bmp,red,starting_melody,melody,starting,c,negative,positive,ES_yellow,1,c,713,1857174,1857678,1857882
27,second,73,morsch,IAT_purple1.bmp,purple,ending_melody,melody,ending,c,negative,negative,ES_yellow,1,c,599,1859670,1860174,1860378
27,second,74,geizig,IAT_yellow2.bmp,yellow,ending_scream,scream,ending,c,negative,positive,ES_yellow,1,c,485,1862053,1862557,1862761
27,second,75,sonnig,IAT_red4.bmp,red,starting_melody,melody,starting,m,positive,positive,ES_yellow,1,m,557,1864320,1864824,1865028
27,second,76,kaputt,IAT_purple4.bmp,purple,ending_melody,melody,ending,c,negative,negative,ES_yellow,1,c,573,1866658,1867162,1867366
27,second,77,teuer,IAT_purple2.bmp,purple,ending_melody,melody,ending,c,negative,negative,ES_yellow,1,c,756,1869013,1869518,1869722
27,second,78,lustig,IAT_green3.bmp,green,starting_scream,scream,starting,m,positive,negative,ES_yellow,1,m,705,1871552,1872056,1872260
27,second,79,munter,IAT_yellow3.bmp,yellow,ending_scream,scream,ending,m,positive,positive,ES_yellow,1,m,652,1874040,1874544,1874748
27,second,80,brutal,IAT_yellow3.bmp,yellow,ending_scream,scream,ending,c,negative,positive,ES_yellow,1,c,466,1876474,1876978,1877182
27,second,81,feige,IAT_yellow1.bmp,yellow,ending_scream,scream,ending,c,negative,positive,ES_yellow,1,c,905,1878722,1879226,1879430
27,second,82,falsch,IAT_purple2.bmp,purple,ending_melody,melody,ending,c,negative,negative,ES_yellow,1,c,501,1881409,1881913,1882117
27,second,83,teuer,IAT_red3.bmp,red,starting_melody,melody,starting,c,negative,positive,ES_yellow,1,c,561,1883693,1884197,1884401
27,second,84,ehrlich,IAT_green3.bmp,green,starting_scream,scream,starting,m,positive,negative,ES_yellow,1,m,762,1886037,1886541,1886745
27,second,85,falsch,IAT_red4.bmp,red,starting_melody,melody,starting,c,negative,positive,ES_yellow,1,c,543,1888580,1889085,1889289
27,second,86,lustig,IAT_yellow1.bmp,yellow,ending_scream,scream,ending,m,positive,positive,ES_yellow,1,m,654,1890908,1891412,1891616
27,second,87,einsam,IAT_green3.bmp,green,starting_scream,scream,starting,c,negative,negative,ES_yellow,1,c,474,1893345,1893849,1894053
27,second,88,sonnig,IAT_red2.bmp,red,starting_melody,melody,starting,m,positive,positive,ES_yellow,1,m,455,1895601,1896105,1896309
27,second,89,heiter,IAT_purple1.bmp,purple,ending_melody,melody,ending,m,positive,negative,ES_yellow,1,m,524,1897839,1898343,1898547
27,second,90,gierig,IAT_red2.bmp,red,starting_melody,melody,starting,c,negative,positive,ES_yellow,1,c,549,1900146,1900650,1900854
27,second,91,teuer,IAT_red4.bmp,red,starting_melody,melody,starting,c,negative,positive,ES_yellow,0,m,479,1902478,1902982,1903186
27,second,92,streng,IAT_purple2.bmp,purple,ending_melody,melody,ending,c,negative,negative,ES_yellow,1,c,831,1905239,1905743,1905947
27,second,93,sonnig,IAT_green4.bmp,green,starting_scream,scream,starting,m,positive,negative,ES_yellow,1,m,571,1907853,1908357,1908561
27,second,94,schön,IAT_yellow4.bmp,yellow,ending_scream,scream,ending,m,positive,positive,ES_yellow,1,m,499,1910207,1910712,1910916
27,second,95,witzig,IAT_purple4.bmp,purple,ending_melody,melody,ending,m,positive,negative,ES_yellow,1,m,601,1912490,1912994,1913198
27,third,0,teuer,IAT_red4.bmp,red,starting_melody,melody,starting,c,negative,positive,ES_yellow,1,c,1077,1928331,1928836,1929040
27,third,1,gierig,IAT_yellow2.bmp,yellow,ending_scream,scream,ending,c,negative,positive,ES_yellow,1,c,569,1931192,1931696,1931900
27,third,2,sanft,IAT_red3.bmp,red,starting_melody,melody,starting,m,positive,positive,ES_yellow,1,m,539,1933543,1934048,1934252
27,third,3,morsch,IAT_red2.bmp,red,starting_melody,melody,starting,c,negative,positive,ES_yellow,1,c,468,1935866,1936370,1936574
27,third,4,sonnig,IAT_green1.bmp,green,starting_scream,scream,starting,m,positive,negative,ES_yellow,1,m,482,1938115,1938619,1938823
27,third,5,heiter,IAT_green1.bmp,green,starting_scream,scream,starting,m,positive,negative,ES_yellow,1,m,487,1940378,1940882,1941086
27,third,6,human,IAT_red4.bmp,red,starting_melody,melody,starting,m,positive,positive,ES_yellow,1,m,629,1942648,1943152,1943356
27,third,7,krank,IAT_yellow4.bmp,yellow,ending_scream,scream,ending,c,negative,positive,ES_yellow,1,c,717,1945059,1945563,1945767
27,third,8,kaputt,IAT_purple2.bmp,purple,ending_melody,melody,ending,c,negative,negative,ES_yellow,1,c,484,1947558,1948062,1948266
27,third,9,geizig,IAT_green2.bmp,green,starting_scream,scream,starting,c,negative,negative,ES_yellow,1,c,512,1949824,1950328,1950532
27,third,10,sanft,IAT_green1.bmp,green,starting_scream,scream,starting,m,positive,negative,ES_yellow,1,m,512,1952117,1952622,1952826
27,third,11,witzig,IAT_purple2.bmp,purple,ending_melody,melody,ending,m,positive,negative,ES_yellow,1,m,738,1954412,1954916,1955120
27,third,12,kaputt,IAT_green2.bmp,green,starting_scream,scream,starting,c,negative,negative,ES_yellow,1,c,481,1956931,1957436,1957640
27,third,13,gierig,IAT_red4.bmp,red,starting_melody,melody,starting,c,negative,positive,ES_yellow,1,c,522,1959196,1959701,1959905
27,third,14,gesund,IAT_red1.bmp,red,starting_melody,melody,starting,m,positive,positive,ES_yellow,1,m,673,1961500,1962005,1962209
27,third,15,lustig,IAT_red1.bmp,red,starting_melody,melody,starting,m,positive,positive,ES_yellow,1,m,564,1963956,1964460,1964664
27,third,16,feige,IAT_purple2.bmp,purple,ending_melody,melody,ending,c,negative,negative,ES_yellow,1,c,528,1966302,1966807,1967011
27,third,17,human,IAT_purple1.bmp,purple,ending_melody,melody,ending,m,positive,negative,ES_yellow,1,m,556,1968613,1969117,1969321
27,third,18,sanft,IAT_yellow1.bmp,yellow,ending_scream,scream,ending,m,positive,positive,ES_yellow,0,c,458,1970951,1971455,1971659
27,third,19,kaputt,IAT_purple3.bmp,purple,ending_melody,melody,ending,c,negative,negative,ES_yellow,1,c,519,1973691,1974196,1974400
27,third,20,human,IAT_green4.bmp,green,starting_scream,scream,starting,m,positive,negative,ES_yellow,1,m,521,1975993,1976497,1976701
27,third,21,feige,IAT_green2.bmp,green,starting_scream,scream,starting,c,negative,negative,ES_yellow,1,c,1008,1978295,1978799,1979003
27,third,22,ehrlich,IAT_yellow4.bmp,yellow,ending_scream,scream,ending,m,positive,positive,ES_yellow,1,m,622,1981086,1981591,1981795
27,third,23,gierig,IAT_yellow1.bmp,yellow,ending_scream,scream,ending,c,negative,positive,ES_yellow,1,c,578,1983492,1983996,1984200
27,third,24,lästig,IAT_yellow1.bmp,yellow,ending_scream,scream,ending,c,negative,positive,ES_yellow,1,c,487,1985852,1986356,1986560
27,third,25,falsch,IAT_purple1.bmp,purple,ending_melody,melody,ending,c,negative,negative,ES_yellow,1,c,508,1988121,1988625,1988829
27,third,26,heiter,IAT_green2.bmp,green,starting_scream,scream,starting,m,positive,negative,ES_yellow,1,m,587,1990411,1990915,1991119
27,third,27,teuer,IAT_red3.bmp,red,starting_melody,melody,starting,c,negative,positive,ES_yellow,0,m,528,1992780,1993284,1993488
27,third,28,falsch,IAT_green3.bmp,green,starting_scream,scream,starting,c,negative,negative,ES_yellow,1,c,1027,1995590,1996094,1996298
27,third,29,schön,IAT_red3.bmp,red,starting_melody,melody,starting,m,positive,positive,ES_yellow,1,m,519,1998400,1998904,1999108
27,third,30,lästig,IAT_yellow4.bmp,yellow,ending_scream,scream,ending,c,negative,positive,ES_yellow,1,c,537,2000701,2001205,2001409
27,third,31,einsam,IAT_red2.bmp,red,starting_melody,melody,starting,c,negative,positive,ES_yellow,1,c,670,2003021,2003525,2003729
27,third,32,morsch,IAT_purple1.bmp,purple,ending_melody,melody,ending,c,negative,negative,ES_yellow,1,c,509,2005473,2005978,2006182
27,third,33,gerecht,IAT_purple4.bmp,purple,ending_melody,melody,ending,m,positive,negative,ES_yellow,1,m,709,2007766,2008271,2008475
27,third,34,streng,IAT_red2.bmp,red,starting_melody,melody,starting,c,negative,positive,ES_yellow,1,c,538,2010259,2010763,2010967
27,third,35,heiter,IAT_yellow2.bmp,yellow,ending_scream,scream,ending,m,positive,positive,ES_yellow,1,m,511,2012579,2013083,2013287
27,third,36,sanft,IAT_purple3.bmp,purple,ending_melody,melody,ending,m,positive,negative,ES_yellow,0,c,560,2014872,2015376,2015580
27,third,37,krank,IAT_green3.bmp,green,starting_scream,scream,starting,c,negative,negative,ES_yellow,1,c,629,2017714,2018219,2018423
27,third,38,sozial,IAT_red1.bmp,red,starting_melody,melody,starting,m,positive,positive,ES_yellow,1,m,668,2020126,2020630,2020834
27,third,39,gerecht,IAT_yellow4.bmp,yellow,ending_scream,scream,ending,m,positive,positive,ES_yellow,1,m,608,2022578,2023082,2023286
27,third,40,witzig,IAT_yellow3.bmp,yellow,ending_scream,scream,ending,m,positive,positive,ES_yellow,1,m,702,2024969,2025473,2025677
27,third,41,sozial,IAT_purple3.bmp,purple,ending_melody,melody,ending,m,positive,negative,ES_yellow,1,m,562,2027453,2027957,2028161
27,third,42,morsch,IAT_green4.bmp,green,starting_scream,scream,starting,c,negative,negative,ES_yellow,1,c,540,2029798,2030303,2030507
27,third,43,witzig,IAT_yellow1.bmp,yellow,ending_scream,scream,ending,m,positive,positive,ES_yellow,1,m,634,2032121,2032625,2032829
27,third,44,gerecht,IAT_purple2.bmp,purple,ending_melody,melody,ending,m,positive,negative,ES_yellow,1,m,648,2034538,2035042,2035246
27,third,45,schön,IAT_yellow3.bmp,yellow,ending_scream,scream,ending,m,positive,positive,ES_yellow,1,m,453,2036970,2037474,2037678
27,third,46,sonnig,IAT_yellow1.bmp,yellow,ending_scream,scream,ending,m,positive,positive,ES_yellow,1,m,480,2039206,2039710,2039914
27,third,47,teuer,IAT_green4.bmp,green,starting_scream,scream,starting,c,negative,negative,ES_yellow,1,c,659,2041469,2041973,2042177
27,third,48,falsch,IAT_purple4.bmp,purple,ending_melody,melody,ending,c,negative,negative,ES_yellow,1,c,554,2043910,2044414,2044618
27,third,49,lustig,IAT_red2.bmp,red,starting_melody,melody,starting,m,positive,positive,ES_yellow,1,m,516,2046246,2046750,2046954
27,third,50,sonnig,IAT_purple1.bmp,purple,ending_melody,melody,ending,m,positive,negative,ES_yellow,1,m,460,2048545,2049049,2049253
27,third,51,feige,IAT_green1.bmp,green,starting_scream,scream,starting,c,negative,negative,ES_yellow,1,c,604,2050787,2051291,2051495
27,third,52,gesund,IAT_red3.bmp,red,starting_melody,melody,starting,m,positive,positive,ES_yellow,1,m,573,2053174,2053678,2053882
27,third,53,munter,IAT_yellow1.bmp,yellow,ending_scream,scream,ending,m,positive,positive,ES_yellow,1,m,570,2055529,2056034,2056238
27,third,54,brutal,IAT_red1.bmp,red,starting_melody,melody,starting,c,negative,positive,ES_yellow,1,c,692,2057882,2058386,2058590
27,third,55,sozial,IAT_green3.bmp,green,starting_scream,scream,starting,m,positive,negative,ES_yellow,1,m,592,2060358,2060862,2061066
27,third,56,human,IAT_green3.bmp,green,starting_scream,scream,starting,m,positive,negative,ES_yellow,1,m,556,2062733,2063237,2063441
27,third,57,lustig,IAT_yellow2.bmp,yellow,ending_scream,scream,ending,m,positive,positive,ES_yellow,1,m,501,2065071,2065575,2065779
27,third,58,einsam,IAT_red3.bmp,red,starting_melody,melody,starting,c,negative,positive,ES_yellow,1,c,525,2067354,2067859,2068063
27,third,59,ehrlich,IAT_green2.bmp,green,starting_scream,scream,starting,m,positive,negative,ES_yellow,1,m,665,2069664,2070168,2070372
27,third,60,sozial,IAT_green3.bmp,green,starting_scream,scream,starting,m,positive,negative,ES_yellow,1,m,504,2072112,2072616,2072820
27,third,61,geizig,IAT_purple4.bmp,purple,ending_melody,melody,ending,c,negative,negative,ES_yellow,1,c,537,2074398,2074902,2075106
27,third,62,krank,IAT_yellow4.bmp,yellow,ending_scream,scream,ending,c,negative,positive,ES_yellow,0,m,468,2076719,2077223,2077427
27,third,63,brutal,IAT_yellow2.bmp,yellow,ending_scream,scream,ending,c,negative,positive,ES_yellow,1,c,750,2079470,2079974,2080178
27,third,64,munter,IAT_purple4.bmp,purple,ending_melody,melody,ending,m,positive,negative,ES_yellow,1,m,524,2082002,2082507,2082711
27,third,65,lästig,IAT_purple2.bmp,purple,ending_melody,melody,ending,c,negative,negative,ES_yellow,1,c,654,2084310,2084815,2085019
27,third,66,schön,IAT_purple3.bmp,purple,ending_melody,melody,ending,m,positive,negative,ES_yellow,1,m,544,2086748,2087252,2087456
27,third,67,heiter,IAT_green3.bmp,green,starting_scream,scream,starting,m,positive,negative,ES_yellow,1,m,489,2089075,2089580,2089784
27,third,68,morsch,IAT_green4.bmp,green,starting_scream,scream,starting,c,negative,negative,ES_yellow,1,c,542,2091349,2091853,2092057
27,third,69,witzig,IAT_green1.bmp,green,starting_scream,scream,starting,m,positive,negative,ES_yellow,1,m,642,2093673,2094177,2094381
27,third,70,streng,IAT_red2.bmp,red,starting_melody,melody,starting,c,negative,positive,ES_yellow,1,c,586,2096098,2096602,2096806
27,third,71,geizig,IAT_yellow3.bmp,yellow,ending_scream,scream,ending,c,negative,positive,ES_yellow,1,c,597,2098467,2098971,2099175
27,third,72,teuer,IAT_purple4.bmp,purple,ending_melody,melody,ending,c,negative,negative,ES_yellow,1,c,597,2100847,2101352,2101556
27,third,73,streng,IAT_purple4.bmp,purple,ending_melody,melody,ending,c,negative,negative,ES_yellow,1,c,1076,2103228,2103732,2103936
27,third,74,lästig,IAT_purple3.bmp,purple,ending_melody,melody,ending,c,negative,negative,ES_yellow,1,c,679,2106086,2106591,2106795
27,third,75,gesund,IAT_yellow3.bmp,yellow,ending_scream,scream,ending,m,positive,positive,ES_yellow,1,m,797,2108548,2109053,2109257
27,third,76,munter,IAT_red1.bmp,red,starting_melody,melody,starting,m,positive,positive,ES_yellow,1,m,502,2111129,2111633,2111837
27,third,77,gierig,IAT_green1.bmp,green,starting_scream,scream,starting,c,negative,negative,ES_yellow,1,c,661,2113414,2113918,2114122
27,third,78,ehrlich,IAT_green4.bmp,green,starting_scream,scream,starting,m,positive,negative,ES_yellow,1,m,884,2115858,2116362,2116566
27,third,79,gerecht,IAT_red3.bmp,red,starting_melody,melody,starting,m,positive,positive,ES_yellow,1,m,728,2118525,2119029,2119233
27,third,80,ehrlich,IAT_red4.bmp,red,starting_melody,melody,starting,m,positive,positive,ES_yellow,1,m,458,2121036,2121540,2121744
27,third,81,feige,IAT_yellow3.bmp,yellow,ending_scream,scream,ending,c,negative,positive,ES_yellow,1,c,763,2123277,2123781,2123985
27,third,82,krank,IAT_purple2.bmp,purple,ending_melody,melody,ending,c,negative,negative,ES_yellow,1,c,577,2125822,2126327,2126531
27,third,83,falsch,IAT_yellow4.bmp,yellow,ending_scream,scream,ending,c,negative,positive,ES_yellow,1,c,556,2128183,2128687,2128891
27,third,84,gesund,IAT_red2.bmp,red,starting_melody,melody,starting,m,positive,positive,ES_yellow,1,m,496,2130522,2131026,2131230
27,third,85,munter,IAT_purple1.bmp,purple,ending_melody,melody,ending,m,positive,negative,ES_yellow,1,m,541,2132802,2133307,2133511
27,third,86,sonnig,IAT_purple3.bmp,purple,ending_melody,melody,ending,m,positive,negative,ES_yellow,1,m,512,2135127,2135631,2135835
27,third,87,streng,IAT_red4.bmp,red,starting_melody,melody,starting,c,negative,positive,ES_yellow,1,c,585,2137422,2137926,2138130
27,third,88,lustig,IAT_purple1.bmp,purple,ending_melody,melody,ending,m,positive,negative,ES_yellow,1,m,564,2139790,2140294,2140498
27,third,89,einsam,IAT_red1.bmp,red,starting_melody,melody,starting,c,negative,positive,ES_yellow,1,c,651,2142138,2142642,2142846
27,third,90,brutal,IAT_yellow2.bmp,yellow,ending_scream,scream,ending,c,negative,positive,ES_yellow,0,m,527,2144572,2145076,2145280
27,third,91,einsam,IAT_red4.bmp,red,starting_melody,melody,starting,c,negative,positive,ES_yellow,1,c,568,2147382,2147887,2148091
27,third,92,kaputt,IAT_green4.bmp,green,starting_scream,scream,starting,c,negative,negative,ES_yellow,1,c,552,2149735,2150239,2150443
27,third,93,brutal,IAT_yellow2.bmp,yellow,ending_scream,scream,ending,c,negative,positive,ES_yellow,1,c,625,2152070,2152574,2152778
27,third,94,schön,IAT_yellow3.bmp,yellow,ending_scream,scream,ending,m,positive,positive,ES_yellow,1,m,492,2154478,2154982,2155186
27,third,95,geizig,IAT_green2.bmp,green,starting_scream,scream,starting,c,negative,negative,ES_yellow,1,c,600,2156753,2157257,2157461
27,forth,0,ehrlich,IAT_purple1.bmp,purple,ending_melody,melody,ending,m,positive,negative,ES_yellow,1,m,843,2172686,2173190,2173394
27,forth,1,streng,IAT_red1.bmp,red,starting_melody,melody,starting,c,negative,positive,ES_yellow,1,c,654,2175314,2175818,2176022
27,forth,2,einsam,IAT_purple2.bmp,purple,ending_melody,melody,ending,c,negative,negative,ES_yellow,1,c,565,2177752,2178256,2178460
27,forth,3,sanft,IAT_purple3.bmp,purple,ending_melody,melody,ending,m,positive,negative,ES_yellow,1,m,528,2180100,2180605,2180809
27,forth,4,heiter,IAT_purple2.bmp,purple,ending_melody,melody,ending,m,positive,negative,ES_yellow,1,m,499,2182413,2182917,2183121
27,forth,5,human,IAT_yellow2.bmp,yellow,ending_scream,scream,ending,m,positive,positive,ES_yellow,1,m,675,2184696,2185201,2185405
27,forth,6,morsch,IAT_yellow2.bmp,yellow,ending_scream,scream,ending,c,negative,positive,ES_yellow,1,c,551,2187155,2187659,2187863
27,forth,7,sanft,IAT_red4.bmp,red,starting_melody,melody,starting,m,positive,positive,ES_yellow,1,m,645,2189490,2189994,2190198
27,forth,8,brutal,IAT_green2.bmp,green,starting_scream,scream,starting,c,negative,negative,ES_yellow,1,c,696,2191918,2192422,2192626
27,forth,9,teuer,IAT_green1.bmp,green,starting_scream,scream,starting,c,negative,negative,ES_yellow,0,m,703,2194398,2194902,2195106
27,forth,10,morsch,IAT_red1.bmp,red,starting_melody,melody,starting,c,negative,positive,ES_yellow,1,c,672,2197387,2197891,2198095
27,forth,11,schön,IAT_yellow2.bmp,yellow,ending_scream,scream,ending,m,positive,positive,ES_yellow,1,m,501,2199842,2200346,2200550
27,forth,12,geizig,IAT_green3.bmp,green,starting_scream,scream,starting,c,negative,negative,ES_yellow,1,c,575,2202128,2202632,2202836
27,forth,13,krank,IAT_red2.bmp,red,starting_melody,melody,starting,c,negative,positive,ES_yellow,1,c,569,2204488,2204992,2205196
27,forth,14,ehrlich,IAT_green1.bmp,green,starting_scream,scream,starting,m,positive,negative,ES_yellow,0,c,527,2206840,2207344,2207548
27,forth,15,teuer,IAT_purple3.bmp,purple,ending_melody,melody,ending,c,negative,negative,ES_yellow,1,c,782,2209651,2210155,2210359
27,forth,16,gerecht,IAT_red1.bmp,red,starting_melody,melody,starting,m,positive,positive,ES_yellow,1,m,622,2212217,2212721,2212925
27,forth,17,einsam,IAT_purple4.bmp,purple,ending_melody,melody,ending,c,negative,negative,ES_yellow,1,c,624,2214622,2215126,2215330
27,forth,18,sozial,IAT_yellow3.bmp,yellow,ending_scream,scream,ending,m,positive,positive,ES_yellow,1,m,796,2217030,2217534,2217738
27,forth,19,falsch,IAT_purple1.bmp,purple,ending_melody,melody,ending,c,negative,negative,ES_yellow,1,c,754,2219610,2220115,2220319
27,forth,20,human,IAT_green4.bmp,green,starting_scream,scream,starting,m,positive,negative,ES_yellow,1,m,764,2222148,2222653,2222857
27,forth,21,ehrlich,IAT_purple1.bmp,purple,ending_melody,melody,ending,m,positive,negative,ES_yellow,1,m,651,2224697,2225202,2225406
27,forth,22,lustig,IAT_red3.bmp,red,starting_melody,melody,starting,m,positive,positive,ES_yellow,1,m,677,2227134,2227638,2227842
27,forth,23,munter,IAT_red1.bmp,red,starting_melody,melody,starting,m,positive,positive,ES_yellow,1,m,538,2229596,2230100,2230304
27,forth,24,sozial,IAT_yellow1.bmp,yellow,ending_scream,scream,ending,m,positive,positive,ES_yellow,1,m,520,2231919,2232423,2232627
27,forth,25,kaputt,IAT_red2.bmp,red,starting_melody,melody,starting,c,negative,positive,ES_yellow,1,c,638,2234222,2234726,2234930
27,forth,26,gerecht,IAT_red3.bmp,red,starting_melody,melody,starting,m,positive,positive,ES_yellow,1,m,619,2236645,2237149,2237353
27,forth,27,witzig,IAT_green2.bmp,green,starting_scream,scream,starting,m,positive,negative,ES_yellow,1,m,603,2239047,2239551,2239755
27,forth,28,gesund,IAT_green4.bmp,green,starting_scream,scream,starting,m,positive,negative,ES_yellow,1,m,600,2241434,2241938,2242142
27,forth,29,gerecht,IAT_red4.bmp,red,starting_melody,melody,starting,m,positive,positive,ES_yellow,1,m,494,2243818,2244323,2244527
27,forth,30,gierig,IAT_yellow3.bmp,yellow,ending_scream,scream,ending,c,negative,positive,ES_yellow,0,m,686,2246097,2246601,2246805
27,forth,31,einsam,IAT_green2.bmp,green,starting_scream,scream,starting,c,negative,negative,ES_yellow,1,c,562,2249067,2249571,2249775
27,forth,32,kaputt,IAT_red4.bmp,red,starting_melody,melody,starting,c,negative,positive,ES_yellow,1,c,544,2251413,2251918,2252122
27,forth,33,teuer,IAT_yellow4.bmp,yellow,ending_scream,scream,ending,c,negative,positive,ES_yellow,1,c,876,2253742,2254247,2254451
27,forth,34,lustig,IAT_yellow4.bmp,yellow,ending_scream,scream,ending,m,positive,positive,ES_yellow,1,m,601,2256403,2256907,2257111
27,forth,35,munter,IAT_yellow1.bmp,yellow,ending_scream,scream,ending,m,positive,positive,ES_yellow,1,m,595,2258788,2259292,2259496
27,forth,36,sonnig,IAT_green3.bmp,green,starting_scream,scream,starting,m,positive,negative,ES_yellow,1,m,526,2261167,2261672,2261876
27,forth,37,einsam,IAT_green2.bmp,green,starting_scream,scream,starting,c,negative,negative,ES_yellow,1,c,624,2263478,2263983,2264187
27,forth,38,feige,IAT_green4.bmp,green,starting_scream,scream,starting,c,negative,negative,ES_yellow,1,c,849,2265888,2266392,2266596
27,forth,39,gierig,IAT_green3.bmp,green,starting_scream,scream,starting,c,negative,negative,ES_yellow,1,c,571,2268522,2269026,2269230
27,forth,40,lustig,IAT_green1.bmp,green,starting_scream,scream,starting,m,positive,negative,ES_yellow,1,m,650,2270877,2271381,2271585
27,forth,41,schön,IAT_green3.bmp,green,starting_scream,scream,starting,m,positive,negative,ES_yellow,1,m,812,2273312,2273817,2274021
27,forth,42,brutal,IAT_red4.bmp,red,starting_melody,melody,starting,c,negative,positive,ES_yellow,1,c,606,2275909,2276414,2276618
27,forth,43,ehrlich,IAT_yellow3.bmp,yellow,ending_scream,scream,ending,m,positive,positive,ES_yellow,1,m,635,2278300,2278805,2279009
27,forth,44,human,IAT_yellow3.bmp,yellow,ending_scream,scream,ending,m,positive,positive,ES_yellow,1,m,545,2280720,2281225,2281429
27,forth,45,sozial,IAT_red3.bmp,red,starting_melody,melody,starting,m,positive,positive,ES_yellow,1,m,624,2283050,2283555,2283759
27,forth,46,human,IAT_red2.bmp,red,starting_melody,melody,starting,m,positive,positive,ES_yellow,1,m,530,2285459,2285963,2286167
27,forth,47,witzig,IAT_red2.bmp,red,starting_melody,melody,starting,m,positive,positive,ES_yellow,1,m,678,2287773,2288277,2288481
27,forth,48,schön,IAT_yellow4.bmp,yellow,ending_scream,scream,ending,m,positive,positive,ES_yellow,1,m,501,2290240,2290744,2290948
27,forth,49,witzig,IAT_red1.bmp,red,starting_melody,melody,starting,m,positive,positive,ES_yellow,1,m,515,2292525,2293030,2293234
27,forth,50,gierig,IAT_red2.bmp,red,starting_melody,melody,starting,c,negative,positive,ES_yellow,0,m,467,2294826,2295330,2295534
27,forth,51,geizig,IAT_yellow3.bmp,yellow,ending_scream,scream,ending,c,negative,positive,ES_yellow,1,c,631,2297578,2298082,2298286
27,forth,52,feige,IAT_purple4.bmp,purple,ending_melody,melody,ending,c,negative,negative,ES_yellow,1,c,743,2299993,2300497,2300701
27,forth,53,kaputt,IAT_purple2.bmp,purple,ending_melody,melody,ending,c,negative,negative,ES_yellow,1,c,552,2302520,2303024,2303228
27,forth,54,falsch,IAT_purple4.bmp,purple,ending_melody,melody,ending,c,negative,negative,ES_yellow,1,c,559,2304856,2305361,2305565
27,forth,55,gesund,IAT_green1.bmp,green,starting_scream,scream,starting,m,positive,negative,ES_yellow,1,m,629,2307200,2307704,2307908
27,forth,56,lästig,IAT_red3.bmp,red,starting_melody,melody,starting,c,negative,positive,ES_yellow,1,c,1017,2309613,2310118,2310322
27,forth,57,kaputt,IAT_yellow4.bmp,yellow,ending_scream,scream,ending,c,negative,positive,ES_yellow,1,c,623,2312414,2312919,2313123
27,forth,58,streng,IAT_green2.bmp,green,starting_scream,scream,starting,c,negative,negative,ES_yellow,1,c,634,2314822,2315326,2315530
27,forth,59,sonnig,IAT_green1.bmp,green,starting_scream,scream,starting,m,positive,negative,ES_yellow,1,m,583,2317240,2317744,2317948
27,forth,60,krank,IAT_yellow1.bmp,yellow,ending_scream,scream,ending,c,negative,positive,ES_yellow,1,c,557,2319609,2320113,2320317
27,forth,61,sozial,IAT_green3.bmp,green,starting_scream,scream,starting,m,positive,negative,ES_yellow,1,m,847,2321950,2322455,2322659
27,forth,62,heiter,IAT_yellow1.bmp,yellow,ending_scream,scream,ending,m,positive,positive,ES_yellow,1,m,681,2324583,2325087,2325291
27,forth,63,lästig,IAT_green4.bmp,green,starting_scream,scream,starting,c,negative,negative,ES_yellow,1,c,604,2327048,2327553,2327757
27,forth,64,krank,IAT_purple3.bmp,purple,ending_melody,melody,ending,c,negative,negative,ES_yellow,1,c,621,2329438,2329943,2330147
27,forth,65,feige,IAT_purple2.bmp,purple,ending_melody,melody,ending,c,negative,negative,ES_yellow,1,c,576,2331844,2332349,2332553
27,forth,66,sanft,IAT_purple1.bmp,purple,ending_melody,melody,ending,m,positive,negative,ES_yellow,1,m,602,2334206,2334710,2334914
27,forth,67,brutal,IAT_yellow1.bmp,yellow,ending_scream,scream,ending,c,negative,positive,ES_yellow,1,c,586,2336593,2337097,2337301
27,forth,68,munter,IAT_green2.bmp,green,starting_scream,scream,starting,m,positive,negative,ES_yellow,1,m,716,2338963,2339467,2339671
27,forth,69,witzig,IAT_purple2.bmp,purple,ending_melody,melody,ending,m,positive,negative,ES_yellow,1,m,760,2341463,2341968,2342172
27,forth,70,gierig,IAT_yellow2.bmp,yellow,ending_scream,scream,ending,c,negative,positive,ES_yellow,1,c,611,2344009,2344513,2344717
27,forth,71,sonnig,IAT_purple3.bmp,purple,ending_melody,melody,ending,m,positive,negative,ES_yellow,1,m,600,2346404,2346908,2347112
27,forth,72,teuer,IAT_red4.bmp,red,starting_melody,melody,starting,c,negative,positive,ES_yellow,1,c,901,2348789,2349293,2349497
27,forth,73,lustig,IAT_purple4.bmp,purple,ending_melody,melody,ending,m,positive,negative,ES_yellow,1,m,690,2351475,2351979,2352183
27,forth,74,munter,IAT_yellow1.bmp,yellow,ending_scream,scream,ending,m,positive,positive,ES_yellow,1,m,621,2353950,2354455,2354659
27,forth,75,gesund,IAT_purple1.bmp,purple,ending_melody,melody,ending,m,positive,negative,ES_yellow,1,m,1121,2356357,2356861,2357065
27,forth,76,streng,IAT_red2.bmp,red,starting_melody,melody,starting,c,negative,positive,ES_yellow,1,c,609,2359262,2359766,2359970
27,forth,77,lästig,IAT_red4.bmp,red,starting_melody,melody,starting,c,negative,positive,ES_yellow,1,c,1073,2361656,2362160,2362364
27,forth,78,geizig,IAT_yellow4.bmp,yellow,ending_scream,scream,ending,c,negative,positive,ES_yellow,1,c,577,2364514,2365018,2365222
27,forth,79,heiter,IAT_purple3.bmp,purple,ending_melody,melody,ending,m,positive,negative,ES_yellow,1,m,615,2366875,2367379,2367583
27,forth,80,sanft,IAT_purple4.bmp,purple,ending_melody,melody,ending,m,positive,negative,ES_yellow,1,m,582,2369275,2369779,2369983
27,forth,81,morsch,IAT_yellow4.bmp,yellow,ending_scream,scream,ending,c,negative,positive,ES_yellow,1,c,676,2371642,2372147,2372351
27,forth,82,brutal,IAT_yellow2.bmp,yellow,ending_scream,scream,ending,c,negative,positive,ES_yellow,1,c,676,2374104,2374608,2374812
27,forth,83,sonnig,IAT_red3.bmp,red,starting_melody,melody,starting,m,positive,positive,ES_yellow,1,m,553,2376566,2377070,2377274
27,forth,84,heiter,IAT_red1.bmp,red,starting_melody,melody,starting,m,positive,positive,ES_yellow,1,m,664,2378904,2379408,2379612
27,forth,85,morsch,IAT_green4.bmp,green,starting_scream,scream,starting,c,negative,negative,ES_yellow,1,c,583,2381353,2381857,2382061
27,forth,86,krank,IAT_red3.bmp,red,starting_melody,melody,starting,c,negative,positive,ES_yellow,1,c,577,2383721,2384225,2384429
27,forth,87,schön,IAT_purple3.bmp,purple,ending_melody,melody,ending,m,positive,negative,ES_yellow,1,m,634,2386083,2386587,2386791
27,forth,88,falsch,IAT_green4.bmp,green,starting_scream,scream,starting,c,negative,negative,ES_yellow,1,c,650,2388502,2389007,2389211
27,forth,89,geizig,IAT_purple4.bmp,purple,ending_melody,melody,ending,c,negative,negative,ES_yellow,1,c,785,2390938,2391443,2391647
27,forth,90,gesund,IAT_yellow3.bmp,yellow,ending_scream,scream,ending,m,positive,positive,ES_yellow,1,m,682,2393510,2394014,2394218
27,forth,91,streng,IAT_green1.bmp,green,starting_scream,scream,starting,c,negative,negative,ES_yellow,1,c,600,2395976,2396481,2396685
27,forth,92,lästig,IAT_purple1.bmp,purple,ending_melody,melody,ending,c,negative,negative,ES_yellow,1,c,724,2398361,2398866,2399070
27,forth,93,feige,IAT_purple2.bmp,purple,ending_melody,melody,ending,c,negative,negative,ES_yellow,1,c,614,2400870,2401374,2401578
27,forth,94,falsch,IAT_yellow2.bmp,yellow,ending_scream,scream,ending,c,negative,positive,ES_yellow,1,c,581,2403270,2403774,2403978
27,forth,95,gerecht,IAT_green3.bmp,green,starting_scream,scream,starting,m,positive,negative,ES_yellow,1,m,915,2405636,2406140,2406344
