subject_nr,block,trialnr,trial_target,trial_prime,prime_color,prime_role,prime_us,prime_relation,correct_response,target_valence,prime_valence,color_counter,correct_first_response,response_first_response,response_time_first_response,fixation_show,prime_show,target_show
64,first,0,sonnig,IAT_red1.bmp,red,starting_scream,scream,starting,m,positive,negative,ES_purple,1,m,527,1481117,1481621,1481825
64,first,1,lästig,IAT_red2.bmp,red,starting_scream,scream,starting,c,negative,negative,ES_purple,0,m,454,1483426,1483931,1484135
64,first,2,human,IAT_green1.bmp,green,starting_melody,melody,starting,m,positive,positive,ES_purple,1,m,1033,1486164,1486668,1486872
64,first,3,heiter,IAT_yellow4.bmp,yellow,ending_melody,melody,ending,m,positive,negative,ES_purple,1,m,520,1488978,1489482,1489686
64,first,4,teuer,IAT_purple1.bmp,purple,ending_scream,scream,ending,c,negative,positive,ES_purple,1,c,686,1491280,1491785,1491989
64,first,5,gierig,IAT_green4.bmp,green,starting_melody,melody,starting,c,negative,positive,ES_purple,1,c,740,1493749,1494253,1494457
64,first,6,lustig,IAT_green3.bmp,green,starting_melody,melody,starting,m,positive,positive,ES_purple,1,m,487,1496269,1496774,1496978
64,first,7,schön,IAT_red4.bmp,red,starting_scream,scream,starting,m,positive,negative,ES_purple,1,m,508,1498538,1499042,1499246
64,first,8,lästig,IAT_purple4.bmp,purple,ending_scream,scream,ending,c,negative,positive,ES_purple,1,c,782,1500826,1501330,1501534
64,first,9,gesund,IAT_red1.bmp,red,starting_scream,scream,starting,m,positive,negative,ES_purple,1,m,835,1503389,1503893,1504097
64,first,10,sanft,IAT_red3.bmp,red,starting_scream,scream,starting,m,positive,negative,ES_purple,1,m,517,1506005,1506510,1506714
64,first,11,sozial,IAT_red2.bmp,red,starting_scream,scream,starting,m,positive,negative,ES_purple,1,m,463,1508304,1508808,1509012
64,first,12,witzig,IAT_green2.bmp,green,starting_melody,melody,starting,m,positive,positive,ES_purple,1,m,476,1510547,1511052,1511257
64,first,13,human,IAT_purple3.bmp,purple,ending_scream,scream,ending,m,positive,positive,ES_purple,1,m,586,1512805,1513309,1513513
64,first,14,morsch,IAT_yellow4.bmp,yellow,ending_melody,melody,ending,c,negative,negative,ES_purple,1,c,590,1515172,1515676,1515880
64,first,15,gesund,IAT_green3.bmp,green,starting_melody,melody,starting,m,positive,positive,ES_purple,1,m,533,1517544,1518048,1518252
64,first,16,streng,IAT_green1.bmp,green,starting_melody,melody,starting,c,negative,positive,ES_purple,0,m,528,1519859,1520363,1520567
64,first,17,teuer,IAT_red4.bmp,red,starting_scream,scream,starting,c,negative,negative,ES_purple,1,c,972,1522669,1523173,1523377
64,first,18,sanft,IAT_green4.bmp,green,starting_melody,melody,starting,m,positive,positive,ES_purple,1,m,402,1525422,1525927,1526131
64,first,19,falsch,IAT_purple4.bmp,purple,ending_scream,scream,ending,c,negative,positive,ES_purple,1,c,601,1527606,1528110,1528314
64,first,20,munter,IAT_green1.bmp,green,starting_melody,melody,starting,m,positive,positive,ES_purple,1,m,446,1529988,1530492,1530697
64,first,21,sozial,IAT_green3.bmp,green,starting_melody,melody,starting,m,positive,positive,ES_purple,1,m,489,1532215,1532719,1532923
64,first,22,gierig,IAT_red2.bmp,red,starting_scream,scream,starting,c,negative,negative,ES_purple,1,c,498,1534484,1534989,1535193
64,first,23,kaputt,IAT_yellow4.bmp,yellow,ending_melody,melody,ending,c,negative,negative,ES_purple,1,c,897,1536764,1537268,1537472
64,first,24,geizig,IAT_yellow2.bmp,yellow,ending_melody,melody,ending,c,negative,negative,ES_purple,1,c,927,1539444,1539948,1540152
64,first,25,einsam,IAT_red1.bmp,red,starting_scream,scream,starting,c,negative,negative,ES_purple,0,m,976,1542152,1542656,1542860
64,first,26,gierig,IAT_purple2.bmp,purple,ending_scream,scream,ending,c,negative,positive,ES_purple,1,c,893,1545410,1545914,1546118
64,first,27,gerecht,IAT_yellow1.bmp,yellow,ending_melody,melody,ending,m,positive,negative,ES_purple,1,m,596,1548084,1548588,1548792
64,first,28,gesund,IAT_yellow4.bmp,yellow,ending_melody,melody,ending,m,positive,negative,ES_purple,1,m,545,1550462,1550966,1551170
64,first,29,ehrlich,IAT_red3.bmp,red,starting_scream,scream,starting,m,positive,negative,ES_purple,1,m,608,1552788,1553293,1553497
64,first,30,falsch,IAT_yellow3.bmp,yellow,ending_melody,melody,ending,c,negative,negative,ES_purple,1,c,715,1555179,1555683,1555887
64,first,31,heiter,IAT_purple3.bmp,purple,ending_scream,scream,ending,m,positive,positive,ES_purple,1,m,693,1557674,1558179,1558383
64,first,32,munter,IAT_red3.bmp,red,starting_scream,scream,starting,m,positive,negative,ES_purple,1,m,548,1560150,1560654,1560858
64,first,33,witzig,IAT_red2.bmp,red,starting_scream,scream,starting,m,positive,negative,ES_purple,1,m,705,1562478,1562983,1563187
64,first,34,krank,IAT_green2.bmp,green,starting_melody,melody,starting,c,negative,positive,ES_purple,1,c,500,1564964,1565469,1565673
64,first,35,schön,IAT_green2.bmp,green,starting_melody,melody,starting,m,positive,positive,ES_purple,1,m,597,1567245,1567749,1567953
64,first,36,ehrlich,IAT_red3.bmp,red,starting_scream,scream,starting,m,positive,negative,ES_purple,1,m,538,1569623,1570127,1570331
64,first,37,teuer,IAT_purple1.bmp,purple,ending_scream,scream,ending,c,negative,positive,ES_purple,1,c,611,1571943,1572447,1572651
64,first,38,streng,IAT_purple4.bmp,purple,ending_scream,scream,ending,c,negative,positive,ES_purple,1,c,628,1574334,1574838,1575042
64,first,39,geizig,IAT_yellow1.bmp,yellow,ending_melody,melody,ending,c,negative,negative,ES_purple,1,c,825,1576743,1577247,1577451
64,first,40,feige,IAT_red2.bmp,red,starting_scream,scream,starting,c,negative,negative,ES_purple,1,c,544,1579350,1579854,1580058
64,first,41,krank,IAT_purple2.bmp,purple,ending_scream,scream,ending,c,negative,positive,ES_purple,1,c,535,1581679,1582183,1582387
64,first,42,sanft,IAT_purple3.bmp,purple,ending_scream,scream,ending,m,positive,positive,ES_purple,1,m,723,1583994,1584498,1584702
64,first,43,human,IAT_purple4.bmp,purple,ending_scream,scream,ending,m,positive,positive,ES_purple,1,m,584,1586499,1587003,1587207
64,first,44,brutal,IAT_red3.bmp,red,starting_scream,scream,starting,c,negative,negative,ES_purple,1,c,469,1588865,1589369,1589574
64,first,45,krank,IAT_green1.bmp,green,starting_melody,melody,starting,c,negative,positive,ES_purple,1,c,713,1591117,1591621,1591825
64,first,46,heiter,IAT_red1.bmp,red,starting_scream,scream,starting,m,positive,negative,ES_purple,1,m,690,1593610,1594114,1594318
64,first,47,brutal,IAT_red4.bmp,red,starting_scream,scream,starting,c,negative,negative,ES_purple,1,c,577,1596082,1596586,1596790
64,first,48,teuer,IAT_green4.bmp,green,starting_melody,melody,starting,c,negative,positive,ES_purple,1,c,593,1598440,1598945,1599149
64,first,49,feige,IAT_green4.bmp,green,starting_melody,melody,starting,c,negative,positive,ES_purple,1,c,598,1600814,1601319,1601523
64,first,50,munter,IAT_red1.bmp,red,starting_scream,scream,starting,m,positive,negative,ES_purple,1,m,844,1603194,1603699,1603903
64,first,51,witzig,IAT_purple1.bmp,purple,ending_scream,scream,ending,m,positive,positive,ES_purple,1,m,503,1605821,1606325,1606529
64,first,52,sozial,IAT_purple1.bmp,purple,ending_scream,scream,ending,m,positive,positive,ES_purple,1,m,556,1608105,1608610,1608814
64,first,53,gierig,IAT_purple2.bmp,purple,ending_scream,scream,ending,c,negative,positive,ES_purple,0,m,579,1610444,1610948,1611152
64,first,54,geizig,IAT_green3.bmp,green,starting_melody,melody,starting,c,negative,positive,ES_purple,1,c,752,1613304,1613808,1614012
64,first,55,streng,IAT_green2.bmp,green,starting_melody,melody,starting,c,negative,positive,ES_purple,1,c,578,1615837,1616341,1616545
64,first,56,gerecht,IAT_yellow3.bmp,yellow,ending_melody,melody,ending,m,positive,negative,ES_purple,1,m,832,1618196,1618700,1618904
64,first,57,einsam,IAT_yellow2.bmp,yellow,ending_melody,melody,ending,c,negative,negative,ES_purple,1,c,818,1620810,1621314,1621518
64,first,58,schön,IAT_red4.bmp,red,starting_scream,scream,starting,m,positive,negative,ES_purple,0,c,825,1623411,1623915,1624119
64,first,59,heiter,IAT_yellow2.bmp,yellow,ending_melody,melody,ending,m,positive,negative,ES_purple,1,m,598,1626516,1627021,1627225
64,first,60,brutal,IAT_yellow3.bmp,yellow,ending_melody,melody,ending,c,negative,negative,ES_purple,1,c,522,1628896,1629400,1629604
64,first,61,morsch,IAT_yellow2.bmp,yellow,ending_melody,melody,ending,c,negative,negative,ES_purple,1,c,500,1631199,1631703,1631907
64,first,62,lästig,IAT_yellow2.bmp,yellow,ending_melody,melody,ending,c,negative,negative,ES_purple,0,None,1500,1633480,1633985,1634189
64,first,63,lustig,IAT_purple1.bmp,purple,ending_scream,scream,ending,m,positive,positive,ES_purple,1,m,775,1637262,1637766,1637970
64,first,64,brutal,IAT_purple2.bmp,purple,ending_scream,scream,ending,c,negative,positive,ES_purple,1,c,746,1639819,1640323,1640527
64,first,65,kaputt,IAT_green2.bmp,green,starting_melody,melody,starting,c,negative,positive,ES_purple,1,c,529,1642345,1642849,1643053
64,first,66,ehrlich,IAT_yellow1.bmp,yellow,ending_melody,melody,ending,m,positive,negative,ES_purple,0,None,1500,1644656,1645160,1645364
64,first,67,geizig,IAT_red2.bmp,red,starting_scream,scream,starting,c,negative,negative,ES_purple,1,c,586,1648436,1648941,1649145
64,first,68,sonnig,IAT_purple1.bmp,purple,ending_scream,scream,ending,m,positive,positive,ES_purple,1,m,486,1650805,1651310,1651514
64,first,69,kaputt,IAT_red4.bmp,red,starting_scream,scream,starting,c,negative,negative,ES_purple,1,c,542,1653074,1653578,1653782
64,first,70,munter,IAT_green3.bmp,green,starting_melody,melody,starting,m,positive,positive,ES_purple,0,c,578,1655399,1655903,1656107
64,first,71,morsch,IAT_red3.bmp,red,starting_scream,scream,starting,c,negative,negative,ES_purple,1,c,550,1658259,1658763,1658967
64,first,72,lustig,IAT_green4.bmp,green,starting_melody,melody,starting,m,positive,positive,ES_purple,1,m,673,1660590,1661095,1661299
64,first,73,feige,IAT_yellow1.bmp,yellow,ending_melody,melody,ending,c,negative,negative,ES_purple,1,c,660,1663046,1663550,1663754
64,first,74,human,IAT_purple4.bmp,purple,ending_scream,scream,ending,m,positive,positive,ES_purple,1,m,654,1665487,1665991,1666195
64,first,75,kaputt,IAT_yellow4.bmp,yellow,ending_melody,melody,ending,c,negative,negative,ES_purple,1,c,521,1667923,1668428,1668632
64,first,76,ehrlich,IAT_purple3.bmp,purple,ending_scream,scream,ending,m,positive,positive,ES_purple,1,m,609,1670226,1670731,1670935
64,first,77,sozial,IAT_purple2.bmp,purple,ending_scream,scream,ending,m,positive,positive,ES_purple,1,m,666,1672618,1673122,1673327
64,first,78,falsch,IAT_green3.bmp,green,starting_melody,melody,starting,c,negative,positive,ES_purple,1,c,525,1675066,1675570,1675774
64,first,79,einsam,IAT_red4.bmp,red,starting_scream,scream,starting,c,negative,negative,ES_purple,0,m,729,1677373,1677877,1678081
64,first,80,gesund,IAT_yellow2.bmp,yellow,ending_melody,melody,ending,m,positive,negative,ES_purple,1,m,493,1680384,1680889,1681093
64,first,81,sanft,IAT_green1.bmp,green,starting_melody,melody,starting,m,positive,positive,ES_purple,1,m,685,1682659,1683163,1683367
64,first,82,sonnig,IAT_yellow3.bmp,yellow,ending_melody,melody,ending,m,positive,negative,ES_purple,1,m,550,1685125,1685630,1685834
64,first,83,witzig,IAT_yellow1.bmp,yellow,ending_melody,melody,ending,m,positive,negative,ES_purple,1,m,781,1687458,1687963,1688167
64,first,84,falsch,IAT_yellow4.bmp,yellow,ending_melody,melody,ending,c,negative,negative,ES_purple,1,c,517,1690022,1690526,1690730
64,first,85,gerecht,IAT_green1.bmp,green,starting_melody,melody,starting,m,positive,positive,ES_purple,1,m,1357,1692320,1692824,1693028
64,first,86,sonnig,IAT_yellow3.bmp,yellow,ending_melody,melody,ending,m,positive,negative,ES_purple,1,m,580,1695459,1695963,1696167
64,first,87,gerecht,IAT_yellow1.bmp,yellow,ending_melody,melody,ending,m,positive,negative,ES_purple,1,m,477,1697821,1698325,1698529
64,first,88,lustig,IAT_yellow3.bmp,yellow,ending_melody,melody,ending,m,positive,negative,ES_purple,1,m,523,1700079,1700584,1700788
64,first,89,morsch,IAT_purple3.bmp,purple,ending_scream,scream,ending,c,negative,positive,ES_purple,1,c,587,1702384,1702889,1703093
64,first,90,feige,IAT_green2.bmp,green,starting_melody,melody,starting,c,negative,positive,ES_purple,0,m,568,1704754,1705258,1705462
64,first,91,krank,IAT_purple4.bmp,purple,ending_scream,scream,ending,c,negative,positive,ES_purple,1,c,648,1707604,1708108,1708312
64,first,92,streng,IAT_red1.bmp,red,starting_scream,scream,starting,c,negative,negative,ES_purple,1,c,679,1710034,1710539,1710743
64,first,93,lästig,IAT_purple3.bmp,purple,ending_scream,scream,ending,c,negative,positive,ES_purple,1,c,857,1712496,1713001,1713205
64,first,94,schön,IAT_purple2.bmp,purple,ending_scream,scream,ending,m,positive,positive,ES_purple,1,m,1232,1715136,1715640,1715844
64,first,95,einsam,IAT_green4.bmp,green,starting_melody,melody,starting,c,negative,positive,ES_purple,1,c,672,1718150,1718654,1718858
64,second,0,heiter,IAT_yellow1.bmp,yellow,ending_melody,melody,ending,m,positive,negative,ES_purple,1,m,788,1754136,1754640,1754844
64,second,1,einsam,IAT_yellow4.bmp,yellow,ending_melody,melody,ending,c,negative,negative,ES_purple,0,m,438,1756707,1757212,1757416
64,second,2,lästig,IAT_yellow3.bmp,yellow,ending_melody,melody,ending,c,negative,negative,ES_purple,1,c,677,1759429,1759933,1760137
64,second,3,sanft,IAT_red3.bmp,red,starting_scream,scream,starting,m,positive,negative,ES_purple,0,c,544,1761887,1762392,1762597
64,second,4,geizig,IAT_green4.bmp,green,starting_melody,melody,starting,c,negative,positive,ES_purple,1,c,841,1764714,1765219,1765423
64,second,5,kaputt,IAT_purple4.bmp,purple,ending_scream,scream,ending,c,negative,positive,ES_purple,1,c,636,1767336,1767840,1768044
64,second,6,ehrlich,IAT_green3.bmp,green,starting_melody,melody,starting,m,positive,positive,ES_purple,1,m,542,1769753,1770257,1770461
64,second,7,sozial,IAT_red3.bmp,red,starting_scream,scream,starting,m,positive,negative,ES_purple,1,m,1069,1772076,1772580,1772784
64,second,8,ehrlich,IAT_yellow2.bmp,yellow,ending_melody,melody,ending,m,positive,negative,ES_purple,1,m,554,1774926,1775430,1775634
64,second,9,munter,IAT_red2.bmp,red,starting_scream,scream,starting,m,positive,negative,ES_purple,1,m,1148,1777261,1777765,1777969
64,second,10,feige,IAT_yellow2.bmp,yellow,ending_melody,melody,ending,c,negative,negative,ES_purple,1,c,880,1780191,1780695,1780899
64,second,11,falsch,IAT_yellow3.bmp,yellow,ending_melody,melody,ending,c,negative,negative,ES_purple,1,c,670,1782853,1783357,1783561
64,second,12,lustig,IAT_yellow1.bmp,yellow,ending_melody,melody,ending,m,positive,negative,ES_purple,1,m,785,1785304,1785809,1786013
64,second,13,kaputt,IAT_red4.bmp,red,starting_scream,scream,starting,c,negative,negative,ES_purple,1,c,720,1787872,1788376,1788580
64,second,14,geizig,IAT_purple3.bmp,purple,ending_scream,scream,ending,c,negative,positive,ES_purple,1,c,720,1790373,1790877,1791081
64,second,15,morsch,IAT_green2.bmp,green,starting_melody,melody,starting,c,negative,positive,ES_purple,1,c,601,1792874,1793379,1793583
64,second,16,schön,IAT_red1.bmp,red,starting_scream,scream,starting,m,positive,negative,ES_purple,1,m,569,1795258,1795762,1795967
64,second,17,sonnig,IAT_green2.bmp,green,starting_melody,melody,starting,m,positive,positive,ES_purple,0,None,1500,1797609,1798113,1798317
64,second,18,ehrlich,IAT_green1.bmp,green,starting_melody,melody,starting,m,positive,positive,ES_purple,1,m,493,1801390,1801895,1802099
64,second,19,teuer,IAT_purple4.bmp,purple,ending_scream,scream,ending,c,negative,positive,ES_purple,1,c,983,1803669,1804173,1804377
64,second,20,kaputt,IAT_red2.bmp,red,starting_scream,scream,starting,c,negative,negative,ES_purple,1,c,536,1806434,1806938,1807142
64,second,21,heiter,IAT_purple2.bmp,purple,ending_scream,scream,ending,m,positive,positive,ES_purple,1,m,597,1808752,1809257,1809461
64,second,22,schön,IAT_green4.bmp,green,starting_melody,melody,starting,m,positive,positive,ES_purple,1,m,444,1811132,1811637,1811841
64,second,23,geizig,IAT_yellow2.bmp,yellow,ending_melody,melody,ending,c,negative,negative,ES_purple,1,c,1253,1813359,1813863,1814067
64,second,24,heiter,IAT_purple2.bmp,purple,ending_scream,scream,ending,m,positive,positive,ES_purple,1,m,849,1816394,1816898,1817102
64,second,25,einsam,IAT_yellow2.bmp,yellow,ending_melody,melody,ending,c,negative,negative,ES_purple,1,c,781,1819025,1819530,1819734
64,second,26,lustig,IAT_yellow1.bmp,yellow,ending_melody,melody,ending,m,positive,negative,ES_purple,1,m,494,1821589,1822093,1822297
64,second,27,feige,IAT_red2.bmp,red,starting_scream,scream,starting,c,negative,negative,ES_purple,1,c,886,1823865,1824369,1824573
64,second,28,sonnig,IAT_green3.bmp,green,starting_melody,melody,starting,m,positive,positive,ES_purple,1,m,577,1826533,1827037,1827241
64,second,29,lustig,IAT_green1.bmp,green,starting_melody,melody,starting,m,positive,positive,ES_purple,1,m,1012,1828891,1829395,1829599
64,second,30,gierig,IAT_red4.bmp,red,starting_scream,scream,starting,c,negative,negative,ES_purple,1,c,866,1831684,1832189,1832393
64,second,31,munter,IAT_purple3.bmp,purple,ending_scream,scream,ending,m,positive,positive,ES_purple,0,c,563,1834332,1834837,1835041
64,second,32,lästig,IAT_purple2.bmp,purple,ending_scream,scream,ending,c,negative,positive,ES_purple,1,c,877,1837179,1837683,1837887
64,second,33,human,IAT_red1.bmp,red,starting_scream,scream,starting,m,positive,negative,ES_purple,1,m,846,1839838,1840342,1840546
64,second,34,krank,IAT_red1.bmp,red,starting_scream,scream,starting,c,negative,negative,ES_purple,1,c,1010,1842465,1842970,1843174
64,second,35,gierig,IAT_green4.bmp,green,starting_melody,melody,starting,c,negative,positive,ES_purple,1,c,1011,1845257,1845762,1845967
64,second,36,teuer,IAT_green2.bmp,green,starting_melody,melody,starting,c,negative,positive,ES_purple,1,c,724,1848053,1848557,1848761
64,second,37,krank,IAT_red2.bmp,red,starting_scream,scream,starting,c,negative,negative,ES_purple,1,c,548,1850558,1851063,1851267
64,second,38,lästig,IAT_yellow4.bmp,yellow,ending_melody,melody,ending,c,negative,negative,ES_purple,1,c,712,1852889,1853393,1853597
64,second,39,krank,IAT_yellow2.bmp,yellow,ending_melody,melody,ending,c,negative,negative,ES_purple,1,c,1053,1855383,1855888,1856092
64,second,40,sanft,IAT_red4.bmp,red,starting_scream,scream,starting,m,positive,negative,ES_purple,0,c,788,1858218,1858723,1858927
64,second,41,witzig,IAT_yellow3.bmp,yellow,ending_melody,melody,ending,m,positive,negative,ES_purple,1,m,1136,1861288,1861793,1861997
64,second,42,teuer,IAT_red4.bmp,red,starting_scream,scream,starting,c,negative,negative,ES_purple,1,c,1170,1864206,1864711,1864915
64,second,43,sozial,IAT_yellow1.bmp,yellow,ending_melody,melody,ending,m,positive,negative,ES_purple,0,None,1500,1867159,1867663,1867867
64,second,44,gerecht,IAT_purple1.bmp,purple,ending_scream,scream,ending,m,positive,positive,ES_purple,1,m,481,1870941,1871445,1871649
64,second,45,sonnig,IAT_red2.bmp,red,starting_scream,scream,starting,m,positive,negative,ES_purple,1,m,556,1873204,1873708,1873912
64,second,46,streng,IAT_yellow1.bmp,yellow,ending_melody,melody,ending,c,negative,negative,ES_purple,0,m,466,1875542,1876046,1876250
64,second,47,krank,IAT_green1.bmp,green,starting_melody,melody,starting,c,negative,positive,ES_purple,1,c,741,1878289,1878794,1878998
64,second,48,morsch,IAT_red4.bmp,red,starting_scream,scream,starting,c,negative,negative,ES_purple,1,c,555,1880813,1881317,1881521
64,second,49,falsch,IAT_green3.bmp,green,starting_melody,melody,starting,c,negative,positive,ES_purple,1,c,592,1883151,1883655,1883859
64,second,50,witzig,IAT_yellow2.bmp,yellow,ending_melody,melody,ending,m,positive,negative,ES_purple,1,m,572,1885525,1886029,1886233
64,second,51,gerecht,IAT_green2.bmp,green,starting_melody,melody,starting,m,positive,positive,ES_purple,1,m,559,1887878,1888383,1888587
64,second,52,sozial,IAT_yellow4.bmp,yellow,ending_melody,melody,ending,m,positive,negative,ES_purple,1,m,490,1890220,1890724,1890928
64,second,53,human,IAT_purple3.bmp,purple,ending_scream,scream,ending,m,positive,positive,ES_purple,1,m,465,1892491,1892995,1893199
64,second,54,munter,IAT_purple4.bmp,purple,ending_scream,scream,ending,m,positive,positive,ES_purple,1,m,515,1894737,1895242,1895446
64,second,55,gierig,IAT_purple1.bmp,purple,ending_scream,scream,ending,c,negative,positive,ES_purple,1,c,596,1897035,1897539,1897743
64,second,56,streng,IAT_purple4.bmp,purple,ending_scream,scream,ending,c,negative,positive,ES_purple,1,c,504,1899413,1899917,1900121
64,second,57,gierig,IAT_green3.bmp,green,starting_melody,melody,starting,c,negative,positive,ES_purple,1,c,522,1901699,1902203,1902407
64,second,58,morsch,IAT_green2.bmp,green,starting_melody,melody,starting,c,negative,positive,ES_purple,1,c,451,1904004,1904508,1904712
64,second,59,human,IAT_yellow4.bmp,yellow,ending_melody,melody,ending,m,positive,negative,ES_purple,1,m,624,1906236,1906741,1906945
64,second,60,geizig,IAT_green4.bmp,green,starting_melody,melody,starting,c,negative,positive,ES_purple,1,c,524,1908643,1909147,1909351
64,second,61,gesund,IAT_green1.bmp,green,starting_melody,melody,starting,m,positive,positive,ES_purple,1,m,461,1910949,1911453,1911657
64,second,62,munter,IAT_purple1.bmp,purple,ending_scream,scream,ending,m,positive,positive,ES_purple,1,m,1456,1913192,1913696,1913900
64,second,63,lästig,IAT_green4.bmp,green,starting_melody,melody,starting,c,negative,positive,ES_purple,1,c,551,1916430,1916935,1917139
64,second,64,brutal,IAT_yellow4.bmp,yellow,ending_melody,melody,ending,c,negative,negative,ES_purple,1,c,517,1918765,1919269,1919476
64,second,65,streng,IAT_purple4.bmp,purple,ending_scream,scream,ending,c,negative,positive,ES_purple,1,c,422,1921066,1921570,1921774
64,second,66,feige,IAT_purple2.bmp,purple,ending_scream,scream,ending,c,negative,positive,ES_purple,1,c,484,1923270,1923775,1923979
64,second,67,ehrlich,IAT_red1.bmp,red,starting_scream,scream,starting,m,positive,negative,ES_purple,1,m,600,1925537,1926041,1926245
64,second,68,einsam,IAT_red2.bmp,red,starting_scream,scream,starting,c,negative,negative,ES_purple,0,m,586,1927919,1928423,1928627
64,second,69,falsch,IAT_purple2.bmp,purple,ending_scream,scream,ending,c,negative,positive,ES_purple,1,c,654,1930786,1931290,1931494
64,second,70,gesund,IAT_purple1.bmp,purple,ending_scream,scream,ending,m,positive,positive,ES_purple,1,m,500,1933223,1933727,1933931
64,second,71,streng,IAT_red3.bmp,red,starting_scream,scream,starting,c,negative,negative,ES_purple,1,c,491,1935505,1936010,1936214
64,second,72,gerecht,IAT_yellow3.bmp,yellow,ending_melody,melody,ending,m,positive,negative,ES_purple,1,m,697,1937779,1938283,1938487
64,second,73,lustig,IAT_green4.bmp,green,starting_melody,melody,starting,m,positive,positive,ES_purple,1,m,559,1940258,1940762,1940966
64,second,74,sozial,IAT_red3.bmp,red,starting_scream,scream,starting,m,positive,negative,ES_purple,1,m,508,1942599,1943103,1943307
64,second,75,sonnig,IAT_green3.bmp,green,starting_melody,melody,starting,m,positive,positive,ES_purple,1,m,433,1944889,1945393,1945597
64,second,76,gesund,IAT_purple3.bmp,purple,ending_scream,scream,ending,m,positive,positive,ES_purple,1,m,437,1947105,1947609,1947813
64,second,77,witzig,IAT_purple3.bmp,purple,ending_scream,scream,ending,m,positive,positive,ES_purple,1,m,680,1949324,1949828,1950032
64,second,78,schön,IAT_red3.bmp,red,starting_scream,scream,starting,m,positive,negative,ES_purple,0,c,401,1951786,1952291,1952495
64,second,79,brutal,IAT_red3.bmp,red,starting_scream,scream,starting,c,negative,negative,ES_purple,1,c,592,1954471,1954975,1955179
64,second,80,human,IAT_red4.bmp,red,starting_scream,scream,starting,m,positive,negative,ES_purple,1,m,491,1956844,1957349,1957553
64,second,81,einsam,IAT_purple2.bmp,purple,ending_scream,scream,ending,c,negative,positive,ES_purple,0,m,703,1959119,1959623,1959827
64,second,82,kaputt,IAT_purple3.bmp,purple,ending_scream,scream,ending,c,negative,positive,ES_purple,1,c,681,1962104,1962609,1962813
64,second,83,schön,IAT_green3.bmp,green,starting_melody,melody,starting,m,positive,positive,ES_purple,1,m,465,1964567,1965072,1965276
64,second,84,brutal,IAT_green2.bmp,green,starting_melody,melody,starting,c,negative,positive,ES_purple,1,c,653,1966814,1967319,1967523
64,second,85,witzig,IAT_red1.bmp,red,starting_scream,scream,starting,m,positive,negative,ES_purple,1,m,537,1969251,1969756,1969960
64,second,86,feige,IAT_yellow4.bmp,yellow,ending_melody,melody,ending,c,negative,negative,ES_purple,0,m,541,1971572,1972077,1972281
64,second,87,falsch,IAT_red1.bmp,red,starting_scream,scream,starting,c,negative,negative,ES_purple,1,c,597,1974395,1974900,1975104
64,second,88,brutal,IAT_yellow1.bmp,yellow,ending_melody,melody,ending,c,negative,negative,ES_purple,1,c,1253,1976775,1977279,1977483
64,second,89,sanft,IAT_purple1.bmp,purple,ending_scream,scream,ending,m,positive,positive,ES_purple,1,m,481,1979810,1980314,1980518
64,second,90,heiter,IAT_purple4.bmp,purple,ending_scream,scream,ending,m,positive,positive,ES_purple,1,m,424,1982073,1982578,1982782
64,second,91,morsch,IAT_purple1.bmp,purple,ending_scream,scream,ending,c,negative,positive,ES_purple,0,m,415,1984281,1984785,1984989
64,second,92,gesund,IAT_green1.bmp,green,starting_melody,melody,starting,m,positive,positive,ES_purple,1,m,484,1986978,1987482,1987687
64,second,93,gerecht,IAT_yellow3.bmp,yellow,ending_melody,melody,ending,m,positive,negative,ES_purple,1,m,646,1989244,1989749,1989953
64,second,94,teuer,IAT_green1.bmp,green,starting_melody,melody,starting,c,negative,positive,ES_purple,1,c,878,1991674,1992178,1992382
64,second,95,sanft,IAT_yellow3.bmp,yellow,ending_melody,melody,ending,m,positive,negative,ES_purple,1,m,565,1994334,1994839,1995043
64,third,0,lustig,IAT_green3.bmp,green,starting_melody,melody,starting,m,positive,positive,ES_purple,1,m,420,2001347,2001851,2002055
64,third,1,ehrlich,IAT_red3.bmp,red,starting_scream,scream,starting,m,positive,negative,ES_purple,1,m,813,2003550,2004054,2004258
64,third,2,lustig,IAT_purple1.bmp,purple,ending_scream,scream,ending,m,positive,positive,ES_purple,1,m,396,2006145,2006649,2006853
64,third,3,gierig,IAT_yellow4.bmp,yellow,ending_melody,melody,ending,c,negative,negative,ES_purple,1,c,542,2008323,2008827,2009031
64,third,4,heiter,IAT_purple2.bmp,purple,ending_scream,scream,ending,m,positive,positive,ES_purple,1,m,453,2010646,2011151,2011355
64,third,5,gesund,IAT_yellow1.bmp,yellow,ending_melody,melody,ending,m,positive,negative,ES_purple,1,m,504,2012882,2013386,2013590
64,third,6,feige,IAT_red2.bmp,red,starting_scream,scream,starting,c,negative,negative,ES_purple,1,c,688,2015168,2015672,2015876
64,third,7,kaputt,IAT_green2.bmp,green,starting_melody,melody,starting,c,negative,positive,ES_purple,1,c,775,2017637,2018141,2018345
64,third,8,gerecht,IAT_yellow2.bmp,yellow,ending_melody,melody,ending,m,positive,negative,ES_purple,1,m,780,2020194,2020698,2020902
64,third,9,einsam,IAT_green3.bmp,green,starting_melody,melody,starting,c,negative,positive,ES_purple,0,None,1500,2022757,2023261,2023465
64,third,10,sozial,IAT_green1.bmp,green,starting_melody,melody,starting,m,positive,positive,ES_purple,0,None,1500,2026539,2027044,2027248
64,third,11,kaputt,IAT_yellow3.bmp,yellow,ending_melody,melody,ending,c,negative,negative,ES_purple,1,c,561,2030321,2030826,2031030
64,third,12,ehrlich,IAT_red3.bmp,red,starting_scream,scream,starting,m,positive,negative,ES_purple,1,m,587,2032665,2033169,2033373
64,third,13,schön,IAT_red1.bmp,red,starting_scream,scream,starting,m,positive,negative,ES_purple,1,m,953,2035034,2035538,2035742
64,third,14,ehrlich,IAT_purple1.bmp,purple,ending_scream,scream,ending,m,positive,positive,ES_purple,1,m,1007,2037768,2038273,2038477
64,third,15,sanft,IAT_purple3.bmp,purple,ending_scream,scream,ending,m,positive,positive,ES_purple,1,m,549,2040558,2041062,2041267
64,third,16,human,IAT_green2.bmp,green,starting_melody,melody,starting,m,positive,positive,ES_purple,0,c,996,2042889,2043393,2043597
64,third,17,brutal,IAT_yellow2.bmp,yellow,ending_melody,melody,ending,c,negative,negative,ES_purple,1,c,1045,2046166,2046671,2046875
64,third,18,morsch,IAT_red4.bmp,red,starting_scream,scream,starting,c,negative,negative,ES_purple,1,c,533,2048994,2049498,2049702
64,third,19,falsch,IAT_red1.bmp,red,starting_scream,scream,starting,c,negative,negative,ES_purple,1,c,428,2051309,2051813,2052017
64,third,20,schön,IAT_red2.bmp,red,starting_scream,scream,starting,m,positive,negative,ES_purple,1,m,521,2053519,2054023,2054227
64,third,21,heiter,IAT_red4.bmp,red,starting_scream,scream,starting,m,positive,negative,ES_purple,1,m,518,2055823,2056327,2056531
64,third,22,geizig,IAT_purple4.bmp,purple,ending_scream,scream,ending,c,negative,positive,ES_purple,1,c,657,2058123,2058627,2058831
64,third,23,falsch,IAT_green2.bmp,green,starting_melody,melody,starting,c,negative,positive,ES_purple,0,m,940,2060563,2061067,2061271
64,third,24,geizig,IAT_yellow4.bmp,yellow,ending_melody,melody,ending,c,negative,negative,ES_purple,1,c,641,2063785,2064289,2064493
64,third,25,gerecht,IAT_purple4.bmp,purple,ending_scream,scream,ending,m,positive,positive,ES_purple,1,m,607,2066207,2066712,2066916
64,third,26,lustig,IAT_red3.bmp,red,starting_scream,scream,starting,m,positive,negative,ES_purple,1,m,884,2068596,2069101,2069305
64,third,27,einsam,IAT_purple2.bmp,purple,ending_scream,scream,ending,c,negative,positive,ES_purple,0,m,464,2071263,2071767,2071971
64,third,28,krank,IAT_red2.bmp,red,starting_scream,scream,starting,c,negative,negative,ES_purple,1,c,700,2074009,2074513,2074717
64,third,29,brutal,IAT_purple1.bmp,purple,ending_scream,scream,ending,c,negative,positive,ES_purple,1,c,660,2076490,2076995,2077199
64,third,30,munter,IAT_red3.bmp,red,starting_scream,scream,starting,m,positive,negative,ES_purple,0,c,748,2078934,2079438,2079642
64,third,31,heiter,IAT_green1.bmp,green,starting_melody,melody,starting,m,positive,positive,ES_purple,1,m,694,2081964,2082468,2082672
64,third,32,witzig,IAT_green3.bmp,green,starting_melody,melody,starting,m,positive,positive,ES_purple,1,m,399,2084440,2084944,2085148
64,third,33,feige,IAT_yellow2.bmp,yellow,ending_melody,melody,ending,c,negative,negative,ES_purple,1,c,648,2086621,2087125,2087329
64,third,34,sonnig,IAT_green1.bmp,green,starting_melody,melody,starting,m,positive,positive,ES_purple,1,m,483,2089052,2089556,2089760
64,third,35,kaputt,IAT_green4.bmp,green,starting_melody,melody,starting,c,negative,positive,ES_purple,1,c,607,2091318,2091822,2092027
64,third,36,krank,IAT_yellow2.bmp,yellow,ending_melody,melody,ending,c,negative,negative,ES_purple,1,c,660,2093708,2094212,2094417
64,third,37,einsam,IAT_purple4.bmp,purple,ending_scream,scream,ending,c,negative,positive,ES_purple,1,c,763,2096152,2096657,2096861
64,third,38,lustig,IAT_red1.bmp,red,starting_scream,scream,starting,m,positive,negative,ES_purple,0,c,516,2098699,2099203,2099407
64,third,39,streng,IAT_purple4.bmp,purple,ending_scream,scream,ending,c,negative,positive,ES_purple,1,c,735,2101496,2102000,2102204
64,third,40,brutal,IAT_purple3.bmp,purple,ending_scream,scream,ending,c,negative,positive,ES_purple,1,c,441,2104014,2104518,2104722
64,third,41,gesund,IAT_yellow3.bmp,yellow,ending_melody,melody,ending,m,positive,negative,ES_purple,1,m,526,2106236,2106740,2106944
64,third,42,morsch,IAT_purple4.bmp,purple,ending_scream,scream,ending,c,negative,positive,ES_purple,1,c,566,2108543,2109048,2109252
64,third,43,teuer,IAT_red1.bmp,red,starting_scream,scream,starting,c,negative,negative,ES_purple,1,c,449,2110892,2111397,2111601
64,third,44,geizig,IAT_yellow4.bmp,yellow,ending_melody,melody,ending,c,negative,negative,ES_purple,1,c,558,2113124,2113628,2113832
64,third,45,human,IAT_yellow4.bmp,yellow,ending_melody,melody,ending,m,positive,negative,ES_purple,1,m,636,2115465,2115969,2116173
64,third,46,witzig,IAT_yellow3.bmp,yellow,ending_melody,melody,ending,m,positive,negative,ES_purple,1,m,969,2117884,2118388,2118592
64,third,47,gierig,IAT_green1.bmp,green,starting_melody,melody,starting,c,negative,positive,ES_purple,1,c,565,2120634,2121138,2121342
64,third,48,sozial,IAT_green3.bmp,green,starting_melody,melody,starting,m,positive,positive,ES_purple,1,m,719,2122980,2123485,2123689
64,third,49,teuer,IAT_red4.bmp,red,starting_scream,scream,starting,c,negative,negative,ES_purple,1,c,632,2125482,2125986,2126190
64,third,50,falsch,IAT_red2.bmp,red,starting_scream,scream,starting,c,negative,negative,ES_purple,1,c,465,2127895,2128399,2128603
64,third,51,streng,IAT_green2.bmp,green,starting_melody,melody,starting,c,negative,positive,ES_purple,0,m,425,2130141,2130646,2130850
64,third,52,feige,IAT_red2.bmp,red,starting_scream,scream,starting,c,negative,negative,ES_purple,1,c,541,2132849,2133353,2133557
64,third,53,sanft,IAT_yellow1.bmp,yellow,ending_melody,melody,ending,m,positive,negative,ES_purple,1,m,640,2135173,2135677,2135881
64,third,54,heiter,IAT_green3.bmp,green,starting_melody,melody,starting,m,positive,positive,ES_purple,1,m,973,2137595,2138100,2138304
64,third,55,krank,IAT_red3.bmp,red,starting_scream,scream,starting,c,negative,negative,ES_purple,1,c,542,2140351,2140855,2141059
64,third,56,teuer,IAT_purple1.bmp,purple,ending_scream,scream,ending,c,negative,positive,ES_purple,1,c,609,2142675,2143180,2143384
64,third,57,gesund,IAT_yellow1.bmp,yellow,ending_melody,melody,ending,m,positive,negative,ES_purple,1,m,524,2145067,2145571,2145775
64,third,58,munter,IAT_purple3.bmp,purple,ending_scream,scream,ending,m,positive,positive,ES_purple,0,c,555,2147373,2147878,2148082
64,third,59,einsam,IAT_purple3.bmp,purple,ending_scream,scream,ending,c,negative,positive,ES_purple,1,c,675,2150212,2150717,2150921
64,third,60,sonnig,IAT_purple3.bmp,purple,ending_scream,scream,ending,m,positive,positive,ES_purple,1,m,584,2152669,2153173,2153377
64,third,61,brutal,IAT_purple2.bmp,purple,ending_scream,scream,ending,c,negative,positive,ES_purple,1,c,622,2155035,2155540,2155744
64,third,62,gerecht,IAT_yellow2.bmp,yellow,ending_melody,melody,ending,m,positive,negative,ES_purple,0,c,501,2157441,2157945,2158149
64,third,63,human,IAT_red4.bmp,red,starting_scream,scream,starting,m,positive,negative,ES_purple,0,c,713,2160224,2160729,2160933
64,third,64,munter,IAT_green4.bmp,green,starting_melody,melody,starting,m,positive,positive,ES_purple,1,m,545,2163221,2163725,2163929
64,third,65,sozial,IAT_green2.bmp,green,starting_melody,melody,starting,m,positive,positive,ES_purple,1,m,523,2165549,2166053,2166257
64,third,66,kaputt,IAT_red3.bmp,red,starting_scream,scream,starting,c,negative,negative,ES_purple,1,c,619,2167853,2168358,2168562
64,third,67,feige,IAT_yellow4.bmp,yellow,ending_melody,melody,ending,c,negative,negative,ES_purple,1,c,599,2170256,2170760,2170964
64,third,68,lästig,IAT_green4.bmp,green,starting_melody,melody,starting,c,negative,positive,ES_purple,1,c,555,2172636,2173140,2173344
64,third,69,gierig,IAT_purple2.bmp,purple,ending_scream,scream,ending,c,negative,positive,ES_purple,1,c,469,2174973,2175477,2175681
64,third,70,geizig,IAT_green4.bmp,green,starting_melody,melody,starting,c,negative,positive,ES_purple,0,m,873,2177225,2177729,2177933
64,third,71,gesund,IAT_yellow1.bmp,yellow,ending_melody,melody,ending,m,positive,negative,ES_purple,1,m,766,2180380,2180885,2181089
64,third,72,gerecht,IAT_yellow3.bmp,yellow,ending_melody,melody,ending,m,positive,negative,ES_purple,0,c,493,2182930,2183435,2183639
64,third,73,witzig,IAT_purple1.bmp,purple,ending_scream,scream,ending,m,positive,positive,ES_purple,0,c,665,2185706,2186210,2186414
64,third,74,falsch,IAT_red4.bmp,red,starting_scream,scream,starting,c,negative,negative,ES_purple,1,c,471,2188654,2189158,2189362
64,third,75,lästig,IAT_green2.bmp,green,starting_melody,melody,starting,c,negative,positive,ES_purple,0,m,523,2190906,2191410,2191614
64,third,76,sanft,IAT_yellow3.bmp,yellow,ending_melody,melody,ending,m,positive,negative,ES_purple,1,m,626,2193711,2194215,2194419
64,third,77,morsch,IAT_yellow1.bmp,yellow,ending_melody,melody,ending,c,negative,negative,ES_purple,1,c,566,2196120,2196624,2196828
64,third,78,sonnig,IAT_red2.bmp,red,starting_scream,scream,starting,m,positive,negative,ES_purple,1,m,1015,2198468,2198972,2199177
64,third,79,human,IAT_purple4.bmp,purple,ending_scream,scream,ending,m,positive,positive,ES_purple,1,m,1029,2201266,2201770,2201974
64,third,80,streng,IAT_yellow1.bmp,yellow,ending_melody,melody,ending,c,negative,negative,ES_purple,1,c,897,2204077,2204581,2204785
64,third,81,sonnig,IAT_purple3.bmp,purple,ending_scream,scream,ending,m,positive,positive,ES_purple,1,m,578,2206755,2207259,2207463
64,third,82,sozial,IAT_yellow4.bmp,yellow,ending_melody,melody,ending,m,positive,negative,ES_purple,1,m,916,2209116,2209620,2209824
64,third,83,morsch,IAT_green1.bmp,green,starting_melody,melody,starting,c,negative,positive,ES_purple,1,c,618,2211814,2212318,2212522
64,third,84,schön,IAT_green1.bmp,green,starting_melody,melody,starting,m,positive,positive,ES_purple,1,m,834,2214215,2214719,2214923
64,third,85,witzig,IAT_purple1.bmp,purple,ending_scream,scream,ending,m,positive,positive,ES_purple,1,m,570,2216832,2217337,2217541
64,third,86,lästig,IAT_yellow2.bmp,yellow,ending_melody,melody,ending,c,negative,negative,ES_purple,1,c,684,2219185,2219690,2219894
64,third,87,ehrlich,IAT_green4.bmp,green,starting_melody,melody,starting,m,positive,positive,ES_purple,1,m,492,2221653,2222158,2222362
64,third,88,krank,IAT_green4.bmp,green,starting_melody,melody,starting,c,negative,positive,ES_purple,1,c,511,2223929,2224433,2224637
64,third,89,munter,IAT_purple2.bmp,purple,ending_scream,scream,ending,m,positive,positive,ES_purple,1,m,574,2226223,2226727,2226931
64,third,90,lästig,IAT_yellow3.bmp,yellow,ending_melody,melody,ending,c,negative,negative,ES_purple,1,c,588,2228580,2229084,2229288
64,third,91,teuer,IAT_purple2.bmp,purple,ending_scream,scream,ending,c,negative,positive,ES_purple,0,m,658,2230951,2231455,2231659
64,third,92,streng,IAT_red4.bmp,red,starting_scream,scream,starting,c,negative,negative,ES_purple,1,c,1219,2233892,2234397,2234601
64,third,93,gierig,IAT_green3.bmp,green,starting_melody,melody,starting,c,negative,positive,ES_purple,1,c,870,2236894,2237398,2237602
64,third,94,schön,IAT_red1.bmp,red,starting_scream,scream,starting,m,positive,negative,ES_purple,1,m,937,2239546,2240050,2240254
64,third,95,sanft,IAT_red1.bmp,red,starting_scream,scream,starting,m,positive,negative,ES_purple,1,m,858,2242266,2242770,2242974
64,forth,0,krank,IAT_purple2.bmp,purple,ending_scream,scream,ending,c,negative,positive,ES_purple,1,c,621,2253371,2253875,2254079
64,forth,1,kaputt,IAT_yellow3.bmp,yellow,ending_melody,melody,ending,c,negative,negative,ES_purple,1,c,445,2255775,2256279,2256483
64,forth,2,feige,IAT_purple3.bmp,purple,ending_scream,scream,ending,c,negative,positive,ES_purple,1,c,652,2258002,2258507,2258711
64,forth,3,sonnig,IAT_yellow3.bmp,yellow,ending_melody,melody,ending,m,positive,negative,ES_purple,0,c,469,2260437,2260941,2261145
64,forth,4,streng,IAT_red2.bmp,red,starting_scream,scream,starting,c,negative,negative,ES_purple,1,c,503,2263189,2263693,2263897
64,forth,5,sanft,IAT_green4.bmp,green,starting_melody,melody,starting,m,positive,positive,ES_purple,1,m,484,2265475,2265979,2266183
64,forth,6,gierig,IAT_yellow2.bmp,yellow,ending_melody,melody,ending,c,negative,negative,ES_purple,1,c,812,2267743,2268247,2268451
64,forth,7,gesund,IAT_purple1.bmp,purple,ending_scream,scream,ending,m,positive,positive,ES_purple,1,m,617,2270337,2270841,2271045
64,forth,8,ehrlich,IAT_yellow1.bmp,yellow,ending_melody,melody,ending,m,positive,negative,ES_purple,1,m,552,2272737,2273241,2273445
64,forth,9,lästig,IAT_yellow4.bmp,yellow,ending_melody,melody,ending,c,negative,negative,ES_purple,0,m,502,2275071,2275575,2275779
64,forth,10,sozial,IAT_purple3.bmp,purple,ending_scream,scream,ending,m,positive,positive,ES_purple,1,m,553,2277855,2278359,2278563
64,forth,11,sonnig,IAT_green2.bmp,green,starting_melody,melody,starting,m,positive,positive,ES_purple,1,m,493,2280189,2280693,2280897
64,forth,12,einsam,IAT_yellow2.bmp,yellow,ending_melody,melody,ending,c,negative,negative,ES_purple,0,m,483,2282464,2282968,2283172
64,forth,13,krank,IAT_red4.bmp,red,starting_scream,scream,starting,c,negative,negative,ES_purple,1,c,528,2285230,2285735,2285939
64,forth,14,lästig,IAT_red3.bmp,red,starting_scream,scream,starting,c,negative,negative,ES_purple,1,c,1138,2287542,2288046,2288250
64,forth,15,krank,IAT_red1.bmp,red,starting_scream,scream,starting,c,negative,negative,ES_purple,1,c,592,2290462,2290966,2291170
64,forth,16,lustig,IAT_red3.bmp,red,starting_scream,scream,starting,m,positive,negative,ES_purple,1,m,549,2292835,2293340,2293544
64,forth,17,feige,IAT_red4.bmp,red,starting_scream,scream,starting,c,negative,negative,ES_purple,1,c,691,2295167,2295671,2295875
64,forth,18,morsch,IAT_purple1.bmp,purple,ending_scream,scream,ending,c,negative,positive,ES_purple,1,c,585,2297641,2298145,2298349
64,forth,19,witzig,IAT_red1.bmp,red,starting_scream,scream,starting,m,positive,negative,ES_purple,1,m,526,2300009,2300513,2300717
64,forth,20,falsch,IAT_green4.bmp,green,starting_melody,melody,starting,c,negative,positive,ES_purple,1,c,539,2302316,2302821,2303025
64,forth,21,schön,IAT_green2.bmp,green,starting_melody,melody,starting,m,positive,positive,ES_purple,1,m,508,2304637,2305141,2305345
64,forth,22,sanft,IAT_purple2.bmp,purple,ending_scream,scream,ending,m,positive,positive,ES_purple,1,m,625,2306926,2307431,2307635
64,forth,23,kaputt,IAT_yellow2.bmp,yellow,ending_melody,melody,ending,c,negative,negative,ES_purple,1,c,602,2309335,2309839,2310043
64,forth,24,human,IAT_yellow4.bmp,yellow,ending_melody,melody,ending,m,positive,negative,ES_purple,1,m,1048,2311719,2312223,2312427
64,forth,25,falsch,IAT_green3.bmp,green,starting_melody,melody,starting,c,negative,positive,ES_purple,1,c,498,2314549,2315053,2315257
64,forth,26,feige,IAT_purple4.bmp,purple,ending_scream,scream,ending,c,negative,positive,ES_purple,0,m,652,2316829,2317333,2317537
64,forth,27,brutal,IAT_green2.bmp,green,starting_melody,melody,starting,c,negative,positive,ES_purple,1,c,500,2319763,2320268,2320472
64,forth,28,gierig,IAT_yellow4.bmp,yellow,ending_melody,melody,ending,c,negative,negative,ES_purple,1,c,658,2322046,2322550,2322754
64,forth,29,lustig,IAT_purple3.bmp,purple,ending_scream,scream,ending,m,positive,positive,ES_purple,1,m,521,2324485,2324989,2325193
64,forth,30,sozial,IAT_purple4.bmp,purple,ending_scream,scream,ending,m,positive,positive,ES_purple,1,m,630,2326788,2327293,2327497
64,forth,31,munter,IAT_red1.bmp,red,starting_scream,scream,starting,m,positive,negative,ES_purple,1,m,1048,2329202,2329706,2329910
64,forth,32,witzig,IAT_red3.bmp,red,starting_scream,scream,starting,m,positive,negative,ES_purple,1,m,464,2332033,2332538,2332742
64,forth,33,gerecht,IAT_yellow1.bmp,yellow,ending_melody,melody,ending,m,positive,negative,ES_purple,1,m,492,2334281,2334785,2334989
64,forth,34,heiter,IAT_red1.bmp,red,starting_scream,scream,starting,m,positive,negative,ES_purple,1,m,444,2336555,2337059,2337263
64,forth,35,sozial,IAT_purple1.bmp,purple,ending_scream,scream,ending,m,positive,positive,ES_purple,1,m,568,2338782,2339286,2339490
64,forth,36,lustig,IAT_purple3.bmp,purple,ending_scream,scream,ending,m,positive,positive,ES_purple,1,m,485,2341132,2341636,2341840
64,forth,37,heiter,IAT_yellow1.bmp,yellow,ending_melody,melody,ending,m,positive,negative,ES_purple,1,m,483,2343400,2343904,2344108
64,forth,38,witzig,IAT_yellow3.bmp,yellow,ending_melody,melody,ending,m,positive,negative,ES_purple,1,m,461,2345665,2346170,2346374
64,forth,39,gerecht,IAT_yellow2.bmp,yellow,ending_melody,melody,ending,m,positive,negative,ES_purple,1,m,116,2347909,2348413,2348617
64,forth,40,kaputt,IAT_purple3.bmp,purple,ending_scream,scream,ending,c,negative,positive,ES_purple,1,c,534,2349808,2350312,2350516
64,forth,41,morsch,IAT_red1.bmp,red,starting_scream,scream,starting,c,negative,negative,ES_purple,1,c,1183,2352125,2352629,2352833
64,forth,42,witzig,IAT_green3.bmp,green,starting_melody,melody,starting,m,positive,positive,ES_purple,1,m,473,2355091,2355595,2355799
64,forth,43,gierig,IAT_purple2.bmp,purple,ending_scream,scream,ending,c,negative,positive,ES_purple,1,c,524,2357348,2357852,2358056
64,forth,44,geizig,IAT_green4.bmp,green,starting_melody,melody,starting,c,negative,positive,ES_purple,1,c,610,2359654,2360158,2360362
64,forth,45,brutal,IAT_green2.bmp,green,starting_melody,melody,starting,c,negative,positive,ES_purple,1,c,464,2362046,2362550,2362754
64,forth,46,teuer,IAT_green1.bmp,green,starting_melody,melody,starting,c,negative,positive,ES_purple,1,c,457,2364293,2364797,2365001
64,forth,47,gierig,IAT_green2.bmp,green,starting_melody,melody,starting,c,negative,positive,ES_purple,1,c,532,2366532,2367037,2367241
64,forth,48,streng,IAT_green1.bmp,green,starting_melody,melody,starting,c,negative,positive,ES_purple,1,c,461,2368847,2369352,2369556
64,forth,49,morsch,IAT_red3.bmp,red,starting_scream,scream,starting,c,negative,negative,ES_purple,1,c,735,2371093,2371597,2371801
64,forth,50,sanft,IAT_purple4.bmp,purple,ending_scream,scream,ending,m,positive,positive,ES_purple,1,m,619,2373610,2374114,2374318
64,forth,51,brutal,IAT_red2.bmp,red,starting_scream,scream,starting,c,negative,negative,ES_purple,1,c,578,2376012,2376517,2376721
64,forth,52,falsch,IAT_yellow3.bmp,yellow,ending_melody,melody,ending,c,negative,negative,ES_purple,1,c,495,2378374,2378878,2379082
64,forth,53,einsam,IAT_yellow1.bmp,yellow,ending_melody,melody,ending,c,negative,negative,ES_purple,1,c,743,2380652,2381156,2381360
64,forth,54,brutal,IAT_yellow4.bmp,yellow,ending_melody,melody,ending,c,negative,negative,ES_purple,1,c,416,2383178,2383682,2383886
64,forth,55,heiter,IAT_green3.bmp,green,starting_melody,melody,starting,m,positive,positive,ES_purple,1,m,741,2385376,2385881,2386085
64,forth,56,schön,IAT_green1.bmp,green,starting_melody,melody,starting,m,positive,positive,ES_purple,1,m,619,2387900,2388404,2388608
64,forth,57,krank,IAT_red2.bmp,red,starting_scream,scream,starting,c,negative,negative,ES_purple,1,c,596,2390302,2390807,2391011
64,forth,58,geizig,IAT_yellow1.bmp,yellow,ending_melody,melody,ending,c,negative,negative,ES_purple,1,c,625,2392682,2393187,2393391
64,forth,59,streng,IAT_purple2.bmp,purple,ending_scream,scream,ending,c,negative,positive,ES_purple,1,c,512,2395090,2395595,2395799
64,forth,60,sozial,IAT_yellow2.bmp,yellow,ending_melody,melody,ending,m,positive,negative,ES_purple,0,c,449,2397386,2397890,2398094
64,forth,61,geizig,IAT_purple1.bmp,purple,ending_scream,scream,ending,c,negative,positive,ES_purple,1,c,486,2400118,2400622,2400826
64,forth,62,lästig,IAT_green3.bmp,green,starting_melody,melody,starting,c,negative,positive,ES_purple,1,c,517,2402386,2402890,2403094
64,forth,63,heiter,IAT_green4.bmp,green,starting_melody,melody,starting,m,positive,positive,ES_purple,1,m,547,2404685,2405190,2405394
64,forth,64,schön,IAT_red3.bmp,red,starting_scream,scream,starting,m,positive,negative,ES_purple,1,m,549,2407015,2407519,2407723
64,forth,65,gerecht,IAT_yellow4.bmp,yellow,ending_melody,melody,ending,m,positive,negative,ES_purple,1,m,509,2409345,2409850,2410054
64,forth,66,munter,IAT_green1.bmp,green,starting_melody,melody,starting,m,positive,positive,ES_purple,1,m,430,2411638,2412142,2412346
64,forth,67,morsch,IAT_purple4.bmp,purple,ending_scream,scream,ending,c,negative,positive,ES_purple,0,m,933,2413850,2414354,2414558
64,forth,68,ehrlich,IAT_purple1.bmp,purple,ending_scream,scream,ending,m,positive,positive,ES_purple,1,m,568,2417066,2417570,2417774
64,forth,69,teuer,IAT_yellow2.bmp,yellow,ending_melody,melody,ending,c,negative,negative,ES_purple,1,c,581,2419416,2419921,2420125
64,forth,70,human,IAT_red2.bmp,red,starting_scream,scream,starting,m,positive,negative,ES_purple,0,c,475,2421780,2422285,2422489
64,forth,71,munter,IAT_purple3.bmp,purple,ending_scream,scream,ending,m,positive,positive,ES_purple,0,c,583,2424539,2425043,2425247
64,forth,72,falsch,IAT_purple2.bmp,purple,ending_scream,scream,ending,c,negative,positive,ES_purple,1,c,632,2427404,2427909,2428113
64,forth,73,streng,IAT_red4.bmp,red,starting_scream,scream,starting,c,negative,negative,ES_purple,1,c,557,2429822,2430327,2430531
64,forth,74,schön,IAT_green1.bmp,green,starting_melody,melody,starting,m,positive,positive,ES_purple,1,m,410,2432163,2432667,2432871
64,forth,75,feige,IAT_yellow4.bmp,yellow,ending_melody,melody,ending,c,negative,negative,ES_purple,1,c,527,2434356,2434860,2435064
64,forth,76,gesund,IAT_red4.bmp,red,starting_scream,scream,starting,m,positive,negative,ES_purple,1,m,633,2436665,2437170,2437374
64,forth,77,kaputt,IAT_red4.bmp,red,starting_scream,scream,starting,c,negative,negative,ES_purple,1,c,531,2439082,2439586,2439790
64,forth,78,einsam,IAT_purple4.bmp,purple,ending_scream,scream,ending,c,negative,positive,ES_purple,1,c,663,2441395,2441899,2442103
64,forth,79,ehrlich,IAT_red1.bmp,red,starting_scream,scream,starting,m,positive,negative,ES_purple,1,m,557,2443841,2444345,2444549
64,forth,80,teuer,IAT_red2.bmp,red,starting_scream,scream,starting,c,negative,negative,ES_purple,1,c,555,2446181,2446686,2446890
64,forth,81,gesund,IAT_red4.bmp,red,starting_scream,scream,starting,m,positive,negative,ES_purple,0,c,287,2448520,2449024,2449228
64,forth,82,gerecht,IAT_purple2.bmp,purple,ending_scream,scream,ending,m,positive,positive,ES_purple,1,m,787,2451089,2451594,2451798
64,forth,83,sanft,IAT_red3.bmp,red,starting_scream,scream,starting,m,positive,negative,ES_purple,1,m,606,2453662,2454167,2454371
64,forth,84,human,IAT_yellow3.bmp,yellow,ending_melody,melody,ending,m,positive,negative,ES_purple,1,m,556,2456053,2456558,2456762
64,forth,85,ehrlich,IAT_red2.bmp,red,starting_scream,scream,starting,m,positive,negative,ES_purple,1,m,445,2458394,2458898,2459102
64,forth,86,einsam,IAT_green2.bmp,green,starting_melody,melody,starting,c,negative,positive,ES_purple,0,m,415,2460623,2461128,2461332
64,forth,87,geizig,IAT_purple4.bmp,purple,ending_scream,scream,ending,c,negative,positive,ES_purple,1,c,757,2463324,2463828,2464032
64,forth,88,munter,IAT_green3.bmp,green,starting_melody,melody,starting,m,positive,positive,ES_purple,1,m,1139,2465865,2466370,2466574
64,forth,89,sonnig,IAT_green1.bmp,green,starting_melody,melody,starting,m,positive,positive,ES_purple,1,m,1034,2468787,2469291,2469495
64,forth,90,human,IAT_green3.bmp,green,starting_melody,melody,starting,m,positive,positive,ES_purple,1,m,642,2471605,2472109,2472313
64,forth,91,teuer,IAT_green4.bmp,green,starting_melody,melody,starting,c,negative,positive,ES_purple,0,m,551,2474031,2474536,2474740
64,forth,92,lästig,IAT_green4.bmp,green,starting_melody,melody,starting,c,negative,positive,ES_purple,1,c,835,2476866,2477370,2477574
64,forth,93,lustig,IAT_yellow3.bmp,yellow,ending_melody,melody,ending,m,positive,negative,ES_purple,1,m,789,2479484,2479988,2480193
64,forth,94,gesund,IAT_yellow1.bmp,yellow,ending_melody,melody,ending,m,positive,negative,ES_purple,1,m,502,2482058,2482562,2482766
64,forth,95,sonnig,IAT_purple1.bmp,purple,ending_scream,scream,ending,m,positive,positive,ES_purple,1,m,469,2484343,2484847,2485051
