subject_nr,block,trialnr,trial_target,trial_prime,prime_color,prime_role,prime_us,prime_relation,correct_response,target_valence,prime_valence,color_counter,correct_first_response,response_first_response,response_time_first_response,fixation_show,prime_show,target_show
50,first,0,kaputt,IAT_yellow2.bmp,yellow,starting_scream,scream,starting,c,negative,negative,ES_red,0,m,594,1634698,1635203,1635407
50,first,1,human,IAT_red4.bmp,red,ending_scream,scream,ending,m,positive,positive,ES_red,1,m,761,1637578,1638083,1638287
50,first,2,einsam,IAT_green1.bmp,green,ending_melody,melody,ending,c,negative,negative,ES_red,1,c,707,1640121,1640625,1640829
50,first,3,lästig,IAT_purple2.bmp,purple,starting_melody,melody,starting,c,negative,positive,ES_red,1,c,823,1642610,1643114,1643318
50,first,4,schön,IAT_purple3.bmp,purple,starting_melody,melody,starting,m,positive,positive,ES_red,1,m,479,1645214,1645718,1645922
50,first,5,heiter,IAT_yellow3.bmp,yellow,starting_scream,scream,starting,m,positive,negative,ES_red,0,c,703,1647473,1647978,1648182
50,first,6,witzig,IAT_purple3.bmp,purple,starting_melody,melody,starting,m,positive,positive,ES_red,1,m,794,1650457,1650962,1651166
50,first,7,gesund,IAT_purple4.bmp,purple,starting_melody,melody,starting,m,positive,positive,ES_red,1,m,462,1653033,1653537,1653741
50,first,8,heiter,IAT_yellow2.bmp,yellow,starting_scream,scream,starting,m,positive,negative,ES_red,1,m,1064,1655277,1655782,1655986
50,first,9,witzig,IAT_red1.bmp,red,ending_scream,scream,ending,m,positive,positive,ES_red,1,m,660,1658123,1658627,1658831
50,first,10,krank,IAT_yellow2.bmp,yellow,starting_scream,scream,starting,c,negative,negative,ES_red,1,c,556,1660564,1661069,1661273
50,first,11,sozial,IAT_purple1.bmp,purple,starting_melody,melody,starting,m,positive,positive,ES_red,1,m,724,1662902,1663407,1663611
50,first,12,lästig,IAT_purple3.bmp,purple,starting_melody,melody,starting,c,negative,positive,ES_red,1,c,833,1665408,1665912,1666116
50,first,13,human,IAT_purple1.bmp,purple,starting_melody,melody,starting,m,positive,positive,ES_red,1,m,514,1668022,1668526,1668730
50,first,14,kaputt,IAT_red1.bmp,red,ending_scream,scream,ending,c,negative,positive,ES_red,1,c,547,1670318,1670822,1671026
50,first,15,morsch,IAT_purple1.bmp,purple,starting_melody,melody,starting,c,negative,positive,ES_red,1,c,1164,1672647,1673151,1673355
50,first,16,lustig,IAT_red1.bmp,red,ending_scream,scream,ending,m,positive,positive,ES_red,1,m,562,1675592,1676096,1676300
50,first,17,kaputt,IAT_green2.bmp,green,ending_melody,melody,ending,c,negative,negative,ES_red,1,c,709,1677936,1678440,1678644
50,first,18,brutal,IAT_green2.bmp,green,ending_melody,melody,ending,c,negative,negative,ES_red,1,c,751,1680426,1680931,1681135
50,first,19,sonnig,IAT_purple3.bmp,purple,starting_melody,melody,starting,m,positive,positive,ES_red,1,m,959,1682958,1683462,1683666
50,first,20,einsam,IAT_yellow3.bmp,yellow,starting_scream,scream,starting,c,negative,negative,ES_red,1,c,597,1685700,1686204,1686408
50,first,21,teuer,IAT_green4.bmp,green,ending_melody,melody,ending,c,negative,negative,ES_red,1,c,616,1688079,1688583,1688787
50,first,22,krank,IAT_green3.bmp,green,ending_melody,melody,ending,c,negative,negative,ES_red,1,c,561,1690476,1690981,1691185
50,first,23,munter,IAT_yellow1.bmp,yellow,starting_scream,scream,starting,m,positive,negative,ES_red,0,c,762,1692819,1693323,1693527
50,first,24,heiter,IAT_red4.bmp,red,ending_scream,scream,ending,m,positive,positive,ES_red,0,c,1013,1695862,1696366,1696570
50,first,25,geizig,IAT_purple4.bmp,purple,starting_melody,melody,starting,c,negative,positive,ES_red,0,None,1500,1699157,1699661,1699865
50,first,26,sanft,IAT_yellow1.bmp,yellow,starting_scream,scream,starting,m,positive,negative,ES_red,1,m,1128,1702938,1703443,1703647
50,first,27,brutal,IAT_red4.bmp,red,ending_scream,scream,ending,c,negative,positive,ES_red,1,c,609,1705849,1706353,1706557
50,first,28,gerecht,IAT_green4.bmp,green,ending_melody,melody,ending,m,positive,negative,ES_red,1,m,1186,1708240,1708745,1708949
50,first,29,witzig,IAT_green3.bmp,green,ending_melody,melody,ending,m,positive,negative,ES_red,1,m,610,1711208,1711712,1711916
50,first,30,sozial,IAT_green3.bmp,green,ending_melody,melody,ending,m,positive,negative,ES_red,1,m,561,1713598,1714103,1714307
50,first,31,teuer,IAT_purple2.bmp,purple,starting_melody,melody,starting,c,negative,positive,ES_red,1,c,650,1715942,1716447,1716651
50,first,32,gesund,IAT_red2.bmp,red,ending_scream,scream,ending,m,positive,positive,ES_red,1,m,525,1718375,1718879,1719083
50,first,33,gierig,IAT_red1.bmp,red,ending_scream,scream,ending,c,negative,positive,ES_red,0,m,913,1720681,1721185,1721389
50,first,34,streng,IAT_red4.bmp,red,ending_scream,scream,ending,c,negative,positive,ES_red,1,c,973,1723875,1724379,1724583
50,first,35,ehrlich,IAT_red3.bmp,red,ending_scream,scream,ending,m,positive,positive,ES_red,1,m,808,1726631,1727135,1727339
50,first,36,einsam,IAT_purple4.bmp,purple,starting_melody,melody,starting,c,negative,positive,ES_red,1,c,660,1729219,1729723,1729927
50,first,37,heiter,IAT_yellow4.bmp,yellow,starting_scream,scream,starting,m,positive,negative,ES_red,0,c,809,1731661,1732166,1732370
50,first,38,gierig,IAT_purple4.bmp,purple,starting_melody,melody,starting,c,negative,positive,ES_red,0,m,781,1734753,1735257,1735461
50,first,39,gesund,IAT_red1.bmp,red,ending_scream,scream,ending,m,positive,positive,ES_red,1,m,531,1737815,1738319,1738523
50,first,40,falsch,IAT_yellow1.bmp,yellow,starting_scream,scream,starting,c,negative,negative,ES_red,1,c,913,1740127,1740632,1740836
50,first,41,munter,IAT_yellow1.bmp,yellow,starting_scream,scream,starting,m,positive,negative,ES_red,1,m,897,1742823,1743327,1743531
50,first,42,geizig,IAT_green2.bmp,green,ending_melody,melody,ending,c,negative,negative,ES_red,0,m,655,1745501,1746005,1746209
50,first,43,sonnig,IAT_green1.bmp,green,ending_melody,melody,ending,m,positive,negative,ES_red,1,m,535,1748437,1748941,1749145
50,first,44,witzig,IAT_red1.bmp,red,ending_scream,scream,ending,m,positive,positive,ES_red,1,m,560,1750755,1751260,1751464
50,first,45,feige,IAT_yellow4.bmp,yellow,starting_scream,scream,starting,c,negative,negative,ES_red,0,m,968,1753098,1753602,1753806
50,first,46,krank,IAT_purple1.bmp,purple,starting_melody,melody,starting,c,negative,positive,ES_red,1,c,519,1756347,1756851,1757055
50,first,47,streng,IAT_red2.bmp,red,ending_scream,scream,ending,c,negative,positive,ES_red,1,c,601,1758649,1759153,1759357
50,first,48,feige,IAT_green3.bmp,green,ending_melody,melody,ending,c,negative,negative,ES_red,1,c,760,1761032,1761537,1761741
50,first,49,falsch,IAT_green2.bmp,green,ending_melody,melody,ending,c,negative,negative,ES_red,1,c,451,1763574,1764079,1764283
50,first,50,feige,IAT_red4.bmp,red,ending_scream,scream,ending,c,negative,positive,ES_red,1,c,534,1765810,1766315,1766519
50,first,51,gesund,IAT_yellow3.bmp,yellow,starting_scream,scream,starting,m,positive,negative,ES_red,1,m,403,1768127,1768631,1768835
50,first,52,morsch,IAT_yellow4.bmp,yellow,starting_scream,scream,starting,c,negative,negative,ES_red,1,c,1275,1770311,1770815,1771019
50,first,53,gierig,IAT_purple2.bmp,purple,starting_melody,melody,starting,c,negative,positive,ES_red,1,c,854,1773367,1773872,1774076
50,first,54,ehrlich,IAT_red3.bmp,red,ending_scream,scream,ending,m,positive,positive,ES_red,1,m,641,1776004,1776509,1776713
50,first,55,morsch,IAT_red4.bmp,red,ending_scream,scream,ending,c,negative,positive,ES_red,1,c,639,1778427,1778931,1779135
50,first,56,krank,IAT_green1.bmp,green,ending_melody,melody,ending,c,negative,negative,ES_red,1,c,699,1780846,1781351,1781555
50,first,57,munter,IAT_green2.bmp,green,ending_melody,melody,ending,m,positive,negative,ES_red,0,c,763,1783328,1783832,1784036
50,first,58,gerecht,IAT_yellow3.bmp,yellow,starting_scream,scream,starting,m,positive,negative,ES_red,0,c,651,1786372,1786877,1787081
50,first,59,schön,IAT_purple3.bmp,purple,starting_melody,melody,starting,m,positive,positive,ES_red,1,m,512,1789305,1789810,1790014
50,first,60,geizig,IAT_green4.bmp,green,ending_melody,melody,ending,c,negative,negative,ES_red,1,c,727,1791600,1792105,1792309
50,first,61,gerecht,IAT_yellow3.bmp,yellow,starting_scream,scream,starting,m,positive,negative,ES_red,1,m,895,1794110,1794614,1794818
50,first,62,sanft,IAT_green1.bmp,green,ending_melody,melody,ending,m,positive,negative,ES_red,1,m,1011,1796787,1797291,1797495
50,first,63,ehrlich,IAT_yellow4.bmp,yellow,starting_scream,scream,starting,m,positive,negative,ES_red,1,m,524,1799579,1800083,1800287
50,first,64,streng,IAT_yellow4.bmp,yellow,starting_scream,scream,starting,c,negative,negative,ES_red,1,c,771,1801885,1802389,1802593
50,first,65,human,IAT_green3.bmp,green,ending_melody,melody,ending,m,positive,negative,ES_red,1,m,787,1804438,1804942,1805146
50,first,66,sonnig,IAT_yellow1.bmp,yellow,starting_scream,scream,starting,m,positive,negative,ES_red,1,m,562,1807009,1807513,1807717
50,first,67,lustig,IAT_yellow2.bmp,yellow,starting_scream,scream,starting,m,positive,negative,ES_red,1,m,751,1809354,1809858,1810062
50,first,68,teuer,IAT_yellow3.bmp,yellow,starting_scream,scream,starting,c,negative,negative,ES_red,1,c,487,1811887,1812391,1812595
50,first,69,sanft,IAT_red2.bmp,red,ending_scream,scream,ending,m,positive,positive,ES_red,1,m,681,1814156,1814660,1814864
50,first,70,streng,IAT_red2.bmp,red,ending_scream,scream,ending,c,negative,positive,ES_red,1,c,1483,1816619,1817123,1817327
50,first,71,ehrlich,IAT_green1.bmp,green,ending_melody,melody,ending,m,positive,negative,ES_red,1,m,569,1819883,1820387,1820591
50,first,72,falsch,IAT_green4.bmp,green,ending_melody,melody,ending,c,negative,negative,ES_red,0,m,793,1822234,1822738,1822942
50,first,73,human,IAT_green2.bmp,green,ending_melody,melody,ending,m,positive,negative,ES_red,1,m,507,1825309,1825813,1826017
50,first,74,sozial,IAT_green4.bmp,green,ending_melody,melody,ending,m,positive,negative,ES_red,0,c,872,1827599,1828103,1828307
50,first,75,einsam,IAT_red2.bmp,red,ending_scream,scream,ending,c,negative,positive,ES_red,1,c,780,1830753,1831257,1831461
50,first,76,gerecht,IAT_purple1.bmp,purple,starting_melody,melody,starting,m,positive,positive,ES_red,1,m,1181,1833316,1833820,1834024
50,first,77,sonnig,IAT_purple4.bmp,purple,starting_melody,melody,starting,m,positive,positive,ES_red,1,m,520,1836278,1836783,1836987
50,first,78,munter,IAT_purple1.bmp,purple,starting_melody,melody,starting,m,positive,positive,ES_red,0,c,616,1838581,1839085,1839289
50,first,79,schön,IAT_purple2.bmp,purple,starting_melody,melody,starting,m,positive,positive,ES_red,1,m,1112,1841479,1841983,1842187
50,first,80,lästig,IAT_green4.bmp,green,ending_melody,melody,ending,c,negative,negative,ES_red,0,m,535,1844373,1844878,1845082
50,first,81,sozial,IAT_red3.bmp,red,ending_scream,scream,ending,m,positive,positive,ES_red,1,m,738,1847191,1847696,1847900
50,first,82,teuer,IAT_red2.bmp,red,ending_scream,scream,ending,c,negative,positive,ES_red,1,c,576,1849712,1850216,1850420
50,first,83,gierig,IAT_purple4.bmp,purple,starting_melody,melody,starting,c,negative,positive,ES_red,0,m,1098,1852070,1852575,1852779
50,first,84,lästig,IAT_purple3.bmp,purple,starting_melody,melody,starting,c,negative,positive,ES_red,0,m,498,1855451,1855955,1856159
50,first,85,falsch,IAT_yellow4.bmp,yellow,starting_scream,scream,starting,c,negative,negative,ES_red,0,m,547,1858231,1858735,1858939
50,first,86,kaputt,IAT_yellow1.bmp,yellow,starting_scream,scream,starting,c,negative,negative,ES_red,1,c,663,1861062,1861566,1861771
50,first,87,schön,IAT_purple2.bmp,purple,starting_melody,melody,starting,m,positive,positive,ES_red,1,m,550,1863508,1864012,1864216
50,first,88,lustig,IAT_green3.bmp,green,ending_melody,melody,ending,m,positive,negative,ES_red,1,m,537,1865840,1866344,1866548
50,first,89,sanft,IAT_red3.bmp,red,ending_scream,scream,ending,m,positive,positive,ES_red,1,m,603,1868160,1868664,1868868
50,first,90,brutal,IAT_red3.bmp,red,ending_scream,scream,ending,c,negative,positive,ES_red,1,c,655,1870545,1871049,1871253
50,first,91,geizig,IAT_yellow2.bmp,yellow,starting_scream,scream,starting,c,negative,negative,ES_red,0,m,891,1872982,1873487,1873691
50,first,92,feige,IAT_yellow2.bmp,yellow,starting_scream,scream,starting,c,negative,negative,ES_red,1,c,767,1876156,1876661,1876865
50,first,93,lustig,IAT_green1.bmp,green,ending_melody,melody,ending,m,positive,negative,ES_red,1,m,553,1878706,1879211,1879415
50,first,94,brutal,IAT_red3.bmp,red,ending_scream,scream,ending,c,negative,positive,ES_red,1,c,547,1881043,1881547,1881751
50,first,95,morsch,IAT_purple2.bmp,purple,starting_melody,melody,starting,c,negative,positive,ES_red,1,c,708,1883372,1883876,1884080
50,second,0,heiter,IAT_yellow2.bmp,yellow,starting_scream,scream,starting,m,positive,negative,ES_red,0,c,669,1913699,1914203,1914407
50,second,1,brutal,IAT_red2.bmp,red,ending_scream,scream,ending,c,negative,positive,ES_red,1,c,512,1916652,1917156,1917360
50,second,2,teuer,IAT_yellow4.bmp,yellow,starting_scream,scream,starting,c,negative,negative,ES_red,1,c,718,1918946,1919450,1919654
50,second,3,falsch,IAT_purple2.bmp,purple,starting_melody,melody,starting,c,negative,positive,ES_red,1,c,618,1921445,1921949,1922153
50,second,4,kaputt,IAT_yellow2.bmp,yellow,starting_scream,scream,starting,c,negative,negative,ES_red,1,c,523,1923844,1924348,1924552
50,second,5,geizig,IAT_red3.bmp,red,ending_scream,scream,ending,c,negative,positive,ES_red,1,c,549,1926148,1926653,1926857
50,second,6,einsam,IAT_red4.bmp,red,ending_scream,scream,ending,c,negative,positive,ES_red,0,m,534,1928479,1928983,1929187
50,second,7,gierig,IAT_red2.bmp,red,ending_scream,scream,ending,c,negative,positive,ES_red,1,c,723,1931294,1931799,1932003
50,second,8,sanft,IAT_green2.bmp,green,ending_melody,melody,ending,m,positive,negative,ES_red,1,m,615,1933798,1934302,1934506
50,second,9,witzig,IAT_purple3.bmp,purple,starting_melody,melody,starting,m,positive,positive,ES_red,1,m,744,1936193,1936697,1936901
50,second,10,gerecht,IAT_purple2.bmp,purple,starting_melody,melody,starting,m,positive,positive,ES_red,0,c,1168,1938718,1939222,1939426
50,second,11,krank,IAT_yellow4.bmp,yellow,starting_scream,scream,starting,c,negative,negative,ES_red,1,c,569,1942168,1942672,1942876
50,second,12,teuer,IAT_yellow1.bmp,yellow,starting_scream,scream,starting,c,negative,negative,ES_red,0,m,524,1944519,1945023,1945227
50,second,13,lustig,IAT_purple1.bmp,purple,starting_melody,melody,starting,m,positive,positive,ES_red,1,m,488,1947325,1947829,1948033
50,second,14,sanft,IAT_yellow1.bmp,yellow,starting_scream,scream,starting,m,positive,negative,ES_red,1,m,573,1949595,1950099,1950303
50,second,15,morsch,IAT_purple4.bmp,purple,starting_melody,melody,starting,c,negative,positive,ES_red,1,c,1038,1951948,1952452,1952656
50,second,16,witzig,IAT_purple3.bmp,purple,starting_melody,melody,starting,m,positive,positive,ES_red,1,m,529,1954768,1955272,1955476
50,second,17,kaputt,IAT_green4.bmp,green,ending_melody,melody,ending,c,negative,negative,ES_red,1,c,646,1957078,1957582,1957786
50,second,18,falsch,IAT_yellow3.bmp,yellow,starting_scream,scream,starting,c,negative,negative,ES_red,1,c,795,1959505,1960009,1960213
50,second,19,morsch,IAT_red3.bmp,red,ending_scream,scream,ending,c,negative,positive,ES_red,1,c,980,1962083,1962587,1962791
50,second,20,gerecht,IAT_yellow4.bmp,yellow,starting_scream,scream,starting,m,positive,negative,ES_red,0,c,808,1964844,1965348,1965552
50,second,21,streng,IAT_green2.bmp,green,ending_melody,melody,ending,c,negative,negative,ES_red,1,c,974,1967933,1968437,1968641
50,second,22,feige,IAT_red4.bmp,red,ending_scream,scream,ending,c,negative,positive,ES_red,1,c,1359,1970689,1971193,1971397
50,second,23,sonnig,IAT_red1.bmp,red,ending_scream,scream,ending,m,positive,positive,ES_red,1,m,681,1973830,1974335,1974539
50,second,24,kaputt,IAT_red1.bmp,red,ending_scream,scream,ending,c,negative,positive,ES_red,1,c,1004,1976293,1976797,1977001
50,second,25,gierig,IAT_red4.bmp,red,ending_scream,scream,ending,c,negative,positive,ES_red,1,c,828,1979079,1979583,1979787
50,second,26,heiter,IAT_red2.bmp,red,ending_scream,scream,ending,m,positive,positive,ES_red,0,c,746,1981688,1982192,1982396
50,second,27,brutal,IAT_green1.bmp,green,ending_melody,melody,ending,c,negative,negative,ES_red,1,c,579,1984716,1985220,1985424
50,second,28,falsch,IAT_yellow3.bmp,yellow,starting_scream,scream,starting,c,negative,negative,ES_red,1,c,589,1987078,1987582,1987786
50,second,29,schön,IAT_purple4.bmp,purple,starting_melody,melody,starting,m,positive,positive,ES_red,1,m,529,1989447,1989952,1990156
50,second,30,feige,IAT_purple3.bmp,purple,starting_melody,melody,starting,c,negative,positive,ES_red,1,c,617,1991758,1992262,1992466
50,second,31,munter,IAT_green3.bmp,green,ending_melody,melody,ending,m,positive,negative,ES_red,0,c,893,1994157,1994661,1994865
50,second,32,human,IAT_red4.bmp,red,ending_scream,scream,ending,m,positive,positive,ES_red,1,m,558,1997331,1997835,1998040
50,second,33,schön,IAT_green3.bmp,green,ending_melody,melody,ending,m,positive,negative,ES_red,1,m,463,1999672,2000177,2000382
50,second,34,ehrlich,IAT_purple3.bmp,purple,starting_melody,melody,starting,m,positive,positive,ES_red,1,m,611,2001918,2002423,2002627
50,second,35,lustig,IAT_red1.bmp,red,ending_scream,scream,ending,m,positive,positive,ES_red,1,m,532,2004311,2004815,2005019
50,second,36,geizig,IAT_yellow2.bmp,yellow,starting_scream,scream,starting,c,negative,negative,ES_red,0,m,1374,2006625,2007129,2007333
50,second,37,brutal,IAT_purple3.bmp,purple,starting_melody,melody,starting,c,negative,positive,ES_red,1,c,632,2010280,2010784,2010988
50,second,38,witzig,IAT_green3.bmp,green,ending_melody,melody,ending,m,positive,negative,ES_red,1,m,736,2012694,2013199,2013403
50,second,39,krank,IAT_purple1.bmp,purple,starting_melody,melody,starting,c,negative,positive,ES_red,1,c,560,2015213,2015717,2015921
50,second,40,heiter,IAT_purple4.bmp,purple,starting_melody,melody,starting,m,positive,positive,ES_red,0,None,1500,2017554,2018058,2018262
50,second,41,munter,IAT_red1.bmp,red,ending_scream,scream,ending,m,positive,positive,ES_red,1,m,1171,2021336,2021844,2022049
50,second,42,lustig,IAT_purple1.bmp,purple,starting_melody,melody,starting,m,positive,positive,ES_red,1,m,562,2024294,2024798,2025002
50,second,43,teuer,IAT_green1.bmp,green,ending_melody,melody,ending,c,negative,negative,ES_red,1,c,700,2026638,2027142,2027346
50,second,44,lästig,IAT_red1.bmp,red,ending_scream,scream,ending,c,negative,positive,ES_red,0,m,1194,2029121,2029625,2029829
50,second,45,brutal,IAT_yellow4.bmp,yellow,starting_scream,scream,starting,c,negative,negative,ES_red,1,c,521,2032597,2033101,2033305
50,second,46,munter,IAT_red1.bmp,red,ending_scream,scream,ending,m,positive,positive,ES_red,1,m,845,2034899,2035404,2035608
50,second,47,schön,IAT_green1.bmp,green,ending_melody,melody,ending,m,positive,negative,ES_red,1,m,489,2037527,2038031,2038235
50,second,48,lustig,IAT_red4.bmp,red,ending_scream,scream,ending,m,positive,positive,ES_red,1,m,495,2039798,2040302,2040506
50,second,49,lästig,IAT_red2.bmp,red,ending_scream,scream,ending,c,negative,positive,ES_red,1,c,1072,2042075,2042579,2042783
50,second,50,krank,IAT_purple2.bmp,purple,starting_melody,melody,starting,c,negative,positive,ES_red,1,c,494,2044929,2045433,2045637
50,second,51,feige,IAT_green4.bmp,green,ending_melody,melody,ending,c,negative,negative,ES_red,1,c,842,2047205,2047709,2047913
50,second,52,sozial,IAT_yellow3.bmp,yellow,starting_scream,scream,starting,m,positive,negative,ES_red,1,m,657,2049828,2050333,2050537
50,second,53,sonnig,IAT_purple3.bmp,purple,starting_melody,melody,starting,m,positive,positive,ES_red,1,m,543,2052268,2052772,2052976
50,second,54,sozial,IAT_purple1.bmp,purple,starting_melody,melody,starting,m,positive,positive,ES_red,1,m,579,2054593,2055097,2055301
50,second,55,streng,IAT_purple2.bmp,purple,starting_melody,melody,starting,c,negative,positive,ES_red,1,c,544,2056954,2057458,2057662
50,second,56,heiter,IAT_green2.bmp,green,ending_melody,melody,ending,m,positive,negative,ES_red,0,c,477,2059279,2059783,2059987
50,second,57,lästig,IAT_purple1.bmp,purple,starting_melody,melody,starting,c,negative,positive,ES_red,1,c,863,2062039,2062543,2062747
50,second,58,falsch,IAT_green2.bmp,green,ending_melody,melody,ending,c,negative,negative,ES_red,1,c,620,2064683,2065187,2065391
50,second,59,gierig,IAT_green4.bmp,green,ending_melody,melody,ending,c,negative,negative,ES_red,1,c,888,2067085,2067589,2067793
50,second,60,einsam,IAT_green2.bmp,green,ending_melody,melody,ending,c,negative,negative,ES_red,1,c,751,2069756,2070260,2070464
50,second,61,gesund,IAT_red3.bmp,red,ending_scream,scream,ending,m,positive,positive,ES_red,1,m,506,2072290,2072794,2072998
50,second,62,teuer,IAT_yellow1.bmp,yellow,starting_scream,scream,starting,c,negative,negative,ES_red,1,c,674,2074578,2075083,2075287
50,second,63,krank,IAT_red4.bmp,red,ending_scream,scream,ending,c,negative,positive,ES_red,1,c,526,2077035,2077540,2077744
50,second,64,sanft,IAT_red3.bmp,red,ending_scream,scream,ending,m,positive,positive,ES_red,1,m,649,2079344,2079848,2080052
50,second,65,gierig,IAT_yellow4.bmp,yellow,starting_scream,scream,starting,c,negative,negative,ES_red,1,c,813,2081776,2082280,2082484
50,second,66,lästig,IAT_purple4.bmp,purple,starting_melody,melody,starting,c,negative,positive,ES_red,1,c,640,2084371,2084875,2085079
50,second,67,kaputt,IAT_purple2.bmp,purple,starting_melody,melody,starting,c,negative,positive,ES_red,1,c,591,2086793,2087298,2087502
50,second,68,witzig,IAT_yellow1.bmp,yellow,starting_scream,scream,starting,m,positive,negative,ES_red,1,m,703,2089167,2089672,2089876
50,second,69,streng,IAT_red2.bmp,red,ending_scream,scream,ending,c,negative,positive,ES_red,1,c,590,2091654,2092158,2092362
50,second,70,sonnig,IAT_yellow1.bmp,yellow,starting_scream,scream,starting,m,positive,negative,ES_red,1,m,521,2094027,2094531,2094735
50,second,71,gerecht,IAT_yellow2.bmp,yellow,starting_scream,scream,starting,m,positive,negative,ES_red,1,m,1115,2096330,2096834,2097038
50,second,72,geizig,IAT_purple4.bmp,purple,starting_melody,melody,starting,c,negative,positive,ES_red,1,c,1228,2099228,2099732,2099936
50,second,73,morsch,IAT_purple4.bmp,purple,starting_melody,melody,starting,c,negative,positive,ES_red,1,c,1007,2102238,2102742,2102946
50,second,74,gesund,IAT_red2.bmp,red,ending_scream,scream,ending,m,positive,positive,ES_red,1,m,533,2105028,2105532,2105736
50,second,75,sonnig,IAT_green4.bmp,green,ending_melody,melody,ending,m,positive,negative,ES_red,1,m,736,2107343,2107847,2108051
50,second,76,gerecht,IAT_red3.bmp,red,ending_scream,scream,ending,m,positive,positive,ES_red,0,c,794,2109861,2110365,2110569
50,second,77,ehrlich,IAT_green1.bmp,green,ending_melody,melody,ending,m,positive,negative,ES_red,1,m,642,2112936,2113441,2113645
50,second,78,sozial,IAT_yellow3.bmp,yellow,starting_scream,scream,starting,m,positive,negative,ES_red,1,m,485,2115362,2115866,2116070
50,second,79,ehrlich,IAT_yellow1.bmp,yellow,starting_scream,scream,starting,m,positive,negative,ES_red,1,m,607,2117630,2118135,2118339
50,second,80,einsam,IAT_green3.bmp,green,ending_melody,melody,ending,c,negative,negative,ES_red,1,c,645,2120020,2120524,2120728
50,second,81,feige,IAT_yellow2.bmp,yellow,starting_scream,scream,starting,c,negative,negative,ES_red,1,c,704,2122447,2122952,2123156
50,second,82,gesund,IAT_purple1.bmp,purple,starting_melody,melody,starting,m,positive,positive,ES_red,1,m,503,2124935,2125439,2125643
50,second,83,geizig,IAT_green3.bmp,green,ending_melody,melody,ending,c,negative,negative,ES_red,1,c,1324,2127221,2127725,2127929
50,second,84,morsch,IAT_yellow2.bmp,yellow,starting_scream,scream,starting,c,negative,negative,ES_red,1,c,613,2130328,2130832,2131036
50,second,85,human,IAT_yellow3.bmp,yellow,starting_scream,scream,starting,m,positive,negative,ES_red,1,m,599,2132722,2133227,2133431
50,second,86,streng,IAT_green2.bmp,green,ending_melody,melody,ending,c,negative,negative,ES_red,1,c,667,2135103,2135608,2135812
50,second,87,sozial,IAT_purple2.bmp,purple,starting_melody,melody,starting,m,positive,positive,ES_red,1,m,554,2137553,2138058,2138262
50,second,88,munter,IAT_yellow3.bmp,yellow,starting_scream,scream,starting,m,positive,negative,ES_red,0,c,725,2139889,2140394,2140598
50,second,89,human,IAT_red3.bmp,red,ending_scream,scream,ending,m,positive,positive,ES_red,1,m,557,2142898,2143402,2143606
50,second,90,schön,IAT_green1.bmp,green,ending_melody,melody,ending,m,positive,negative,ES_red,1,m,509,2145237,2145741,2145945
50,second,91,einsam,IAT_green4.bmp,green,ending_melody,melody,ending,c,negative,negative,ES_red,1,c,741,2147528,2148033,2148237
50,second,92,gesund,IAT_yellow4.bmp,yellow,starting_scream,scream,starting,m,positive,negative,ES_red,1,m,546,2150053,2150557,2150761
50,second,93,sanft,IAT_green4.bmp,green,ending_melody,melody,ending,m,positive,negative,ES_red,1,m,818,2152381,2152885,2153089
50,second,94,human,IAT_green1.bmp,green,ending_melody,melody,ending,m,positive,negative,ES_red,1,m,570,2154982,2155486,2155690
50,second,95,ehrlich,IAT_green3.bmp,green,ending_melody,melody,ending,m,positive,negative,ES_red,1,m,573,2157334,2157838,2158042
50,third,0,sonnig,IAT_purple1.bmp,purple,starting_melody,melody,starting,m,positive,positive,ES_red,1,m,529,2185931,2186435,2186639
50,third,1,sanft,IAT_red3.bmp,red,ending_scream,scream,ending,m,positive,positive,ES_red,1,m,595,2188243,2188747,2188951
50,third,2,heiter,IAT_green3.bmp,green,ending_melody,melody,ending,m,positive,negative,ES_red,0,c,564,2190619,2191123,2191327
50,third,3,munter,IAT_green1.bmp,green,ending_melody,melody,ending,m,positive,negative,ES_red,1,m,621,2193465,2193970,2194174
50,third,4,lästig,IAT_purple3.bmp,purple,starting_melody,melody,starting,c,negative,positive,ES_red,1,c,788,2195868,2196373,2196577
50,third,5,krank,IAT_purple2.bmp,purple,starting_melody,melody,starting,c,negative,positive,ES_red,1,c,524,2198439,2198943,2199147
50,third,6,falsch,IAT_red4.bmp,red,ending_scream,scream,ending,c,negative,positive,ES_red,1,c,1075,2200745,2201249,2201453
50,third,7,gierig,IAT_green3.bmp,green,ending_melody,melody,ending,c,negative,negative,ES_red,1,c,735,2203602,2204107,2204311
50,third,8,schön,IAT_purple4.bmp,purple,starting_melody,melody,starting,m,positive,positive,ES_red,1,m,656,2206119,2206623,2206827
50,third,9,lästig,IAT_green4.bmp,green,ending_melody,melody,ending,c,negative,negative,ES_red,1,c,819,2208557,2209061,2209265
50,third,10,sozial,IAT_red2.bmp,red,ending_scream,scream,ending,m,positive,positive,ES_red,1,m,593,2211158,2211663,2211867
50,third,11,sanft,IAT_green4.bmp,green,ending_melody,melody,ending,m,positive,negative,ES_red,1,m,580,2213534,2214038,2214242
50,third,12,witzig,IAT_green1.bmp,green,ending_melody,melody,ending,m,positive,negative,ES_red,1,m,846,2215896,2216400,2216604
50,third,13,gierig,IAT_yellow2.bmp,yellow,starting_scream,scream,starting,c,negative,negative,ES_red,1,c,867,2218524,2219028,2219232
50,third,14,brutal,IAT_red3.bmp,red,ending_scream,scream,ending,c,negative,positive,ES_red,1,c,617,2221173,2221678,2221882
50,third,15,gerecht,IAT_purple3.bmp,purple,starting_melody,melody,starting,m,positive,positive,ES_red,1,m,1124,2223572,2224077,2224281
50,third,16,gesund,IAT_red3.bmp,red,ending_scream,scream,ending,m,positive,positive,ES_red,1,m,495,2226479,2226983,2227187
50,third,17,ehrlich,IAT_yellow1.bmp,yellow,starting_scream,scream,starting,m,positive,negative,ES_red,1,m,580,2228756,2229261,2229465
50,third,18,munter,IAT_yellow4.bmp,yellow,starting_scream,scream,starting,m,positive,negative,ES_red,1,m,936,2231119,2231623,2231827
50,third,19,feige,IAT_green2.bmp,green,ending_melody,melody,ending,c,negative,negative,ES_red,1,c,630,2233837,2234341,2234545
50,third,20,sozial,IAT_green4.bmp,green,ending_melody,melody,ending,m,positive,negative,ES_red,1,m,514,2236248,2236753,2236957
50,third,21,brutal,IAT_green2.bmp,green,ending_melody,melody,ending,c,negative,negative,ES_red,1,c,1052,2238545,2239049,2239253
50,third,22,sonnig,IAT_yellow1.bmp,yellow,starting_scream,scream,starting,m,positive,negative,ES_red,1,m,652,2241381,2241885,2242089
50,third,23,falsch,IAT_red2.bmp,red,ending_scream,scream,ending,c,negative,positive,ES_red,1,c,577,2243816,2244321,2244525
50,third,24,gierig,IAT_yellow4.bmp,yellow,starting_scream,scream,starting,c,negative,negative,ES_red,0,m,990,2246177,2246682,2246886
50,third,25,gerecht,IAT_purple2.bmp,purple,starting_melody,melody,starting,m,positive,positive,ES_red,1,m,784,2249450,2249955,2250159
50,third,26,schön,IAT_red2.bmp,red,ending_scream,scream,ending,m,positive,positive,ES_red,1,m,395,2252017,2252521,2252725
50,third,27,lustig,IAT_red3.bmp,red,ending_scream,scream,ending,m,positive,positive,ES_red,1,m,759,2254194,2254698,2254902
50,third,28,gesund,IAT_green3.bmp,green,ending_melody,melody,ending,m,positive,negative,ES_red,1,m,517,2256737,2257241,2257445
50,third,29,brutal,IAT_red2.bmp,red,ending_scream,scream,ending,c,negative,positive,ES_red,1,c,524,2259036,2259540,2259744
50,third,30,geizig,IAT_red1.bmp,red,ending_scream,scream,ending,c,negative,positive,ES_red,1,c,1002,2261342,2261847,2262051
50,third,31,feige,IAT_purple1.bmp,purple,starting_melody,melody,starting,c,negative,positive,ES_red,1,c,653,2264128,2264632,2264836
50,third,32,munter,IAT_red1.bmp,red,ending_scream,scream,ending,m,positive,positive,ES_red,0,None,1500,2266563,2267067,2267271
50,third,33,kaputt,IAT_red4.bmp,red,ending_scream,scream,ending,c,negative,positive,ES_red,1,c,594,2270345,2270849,2271053
50,third,34,sanft,IAT_red1.bmp,red,ending_scream,scream,ending,m,positive,positive,ES_red,1,m,598,2272723,2273227,2273431
50,third,35,witzig,IAT_purple1.bmp,purple,starting_melody,melody,starting,m,positive,positive,ES_red,1,m,583,2275102,2275607,2275811
50,third,36,geizig,IAT_green4.bmp,green,ending_melody,melody,ending,c,negative,negative,ES_red,0,m,902,2277468,2277972,2278176
50,third,37,sanft,IAT_purple4.bmp,purple,starting_melody,melody,starting,m,positive,positive,ES_red,1,m,470,2280653,2281157,2281361
50,third,38,morsch,IAT_yellow1.bmp,yellow,starting_scream,scream,starting,c,negative,negative,ES_red,1,c,837,2282906,2283411,2283615
50,third,39,human,IAT_green3.bmp,green,ending_melody,melody,ending,m,positive,negative,ES_red,1,m,533,2285527,2286031,2286235
50,third,40,munter,IAT_yellow3.bmp,yellow,starting_scream,scream,starting,m,positive,negative,ES_red,1,m,696,2287843,2288347,2288551
50,third,41,kaputt,IAT_yellow4.bmp,yellow,starting_scream,scream,starting,c,negative,negative,ES_red,1,c,506,2290321,2290825,2291029
50,third,42,streng,IAT_purple4.bmp,purple,starting_melody,melody,starting,c,negative,positive,ES_red,1,c,632,2292608,2293112,2293316
50,third,43,morsch,IAT_purple4.bmp,purple,starting_melody,melody,starting,c,negative,positive,ES_red,1,c,430,2295023,2295528,2295732
50,third,44,streng,IAT_green3.bmp,green,ending_melody,melody,ending,c,negative,negative,ES_red,1,c,806,2297236,2297741,2297945
50,third,45,heiter,IAT_green1.bmp,green,ending_melody,melody,ending,m,positive,negative,ES_red,0,c,618,2299824,2300329,2300533
50,third,46,teuer,IAT_red4.bmp,red,ending_scream,scream,ending,c,negative,positive,ES_red,1,c,508,2302725,2303230,2303434
50,third,47,krank,IAT_yellow2.bmp,yellow,starting_scream,scream,starting,c,negative,negative,ES_red,1,c,538,2305016,2305520,2305724
50,third,48,gierig,IAT_yellow2.bmp,yellow,starting_scream,scream,starting,c,negative,negative,ES_red,0,m,1114,2307336,2307840,2308044
50,third,49,gerecht,IAT_red1.bmp,red,ending_scream,scream,ending,m,positive,positive,ES_red,1,m,1180,2310732,2311237,2311441
50,third,50,heiter,IAT_purple3.bmp,purple,starting_melody,melody,starting,m,positive,positive,ES_red,1,m,633,2313696,2314200,2314404
50,third,51,lästig,IAT_purple3.bmp,purple,starting_melody,melody,starting,c,negative,positive,ES_red,1,c,783,2316112,2316616,2316820
50,third,52,sonnig,IAT_green2.bmp,green,ending_melody,melody,ending,m,positive,negative,ES_red,1,m,604,2318678,2319183,2319387
50,third,53,gerecht,IAT_yellow3.bmp,yellow,starting_scream,scream,starting,m,positive,negative,ES_red,1,m,943,2321065,2321569,2321773
50,third,54,krank,IAT_yellow4.bmp,yellow,starting_scream,scream,starting,c,negative,negative,ES_red,1,c,584,2323791,2324295,2324499
50,third,55,lustig,IAT_yellow4.bmp,yellow,starting_scream,scream,starting,m,positive,negative,ES_red,1,m,803,2326158,2326662,2326866
50,third,56,witzig,IAT_purple1.bmp,purple,starting_melody,melody,starting,m,positive,positive,ES_red,1,m,607,2328743,2329247,2329452
50,third,57,schön,IAT_purple1.bmp,purple,starting_melody,melody,starting,m,positive,positive,ES_red,1,m,578,2331133,2331637,2331841
50,third,58,falsch,IAT_red4.bmp,red,ending_scream,scream,ending,c,negative,positive,ES_red,1,c,541,2333494,2333999,2334203
50,third,59,ehrlich,IAT_yellow2.bmp,yellow,starting_scream,scream,starting,m,positive,negative,ES_red,1,m,686,2335819,2336323,2336527
50,third,60,schön,IAT_red4.bmp,red,ending_scream,scream,ending,m,positive,positive,ES_red,1,m,693,2338287,2338791,2338995
50,third,61,feige,IAT_yellow3.bmp,yellow,starting_scream,scream,starting,c,negative,negative,ES_red,1,c,528,2340762,2341266,2341470
50,third,62,einsam,IAT_red1.bmp,red,ending_scream,scream,ending,c,negative,positive,ES_red,0,m,1007,2343073,2343578,2343782
50,third,63,human,IAT_yellow2.bmp,yellow,starting_scream,scream,starting,m,positive,negative,ES_red,1,m,531,2346364,2346868,2347072
50,third,64,ehrlich,IAT_green2.bmp,green,ending_melody,melody,ending,m,positive,negative,ES_red,1,m,603,2348677,2349181,2349385
50,third,65,teuer,IAT_red3.bmp,red,ending_scream,scream,ending,c,negative,positive,ES_red,0,m,697,2351063,2351567,2351771
50,third,66,gesund,IAT_red1.bmp,red,ending_scream,scream,ending,m,positive,positive,ES_red,1,m,552,2354043,2354547,2354751
50,third,67,streng,IAT_purple1.bmp,purple,starting_melody,melody,starting,c,negative,positive,ES_red,1,c,711,2356377,2356881,2357085
50,third,68,morsch,IAT_green2.bmp,green,ending_melody,melody,ending,c,negative,negative,ES_red,1,c,569,2358870,2359374,2359578
50,third,69,heiter,IAT_red4.bmp,red,ending_scream,scream,ending,m,positive,positive,ES_red,1,m,907,2361222,2361726,2361930
50,third,70,geizig,IAT_green1.bmp,green,ending_melody,melody,ending,c,negative,negative,ES_red,0,None,1500,2363911,2364416,2364620
50,third,71,einsam,IAT_yellow2.bmp,yellow,starting_scream,scream,starting,c,negative,negative,ES_red,1,c,762,2367696,2368200,2368404
50,third,72,teuer,IAT_green1.bmp,green,ending_melody,melody,ending,c,negative,negative,ES_red,1,c,748,2370240,2370745,2370949
50,third,73,feige,IAT_red2.bmp,red,ending_scream,scream,ending,c,negative,positive,ES_red,1,c,574,2372772,2373276,2373480
50,third,74,morsch,IAT_red2.bmp,red,ending_scream,scream,ending,c,negative,positive,ES_red,1,c,650,2375129,2375633,2375838
50,third,75,gesund,IAT_yellow3.bmp,yellow,starting_scream,scream,starting,m,positive,negative,ES_red,1,m,515,2377562,2378066,2378270
50,third,76,sozial,IAT_red3.bmp,red,ending_scream,scream,ending,m,positive,positive,ES_red,1,m,665,2379859,2380363,2380567
50,third,77,lustig,IAT_green1.bmp,green,ending_melody,melody,ending,m,positive,negative,ES_red,1,m,543,2382308,2382812,2383016
50,third,78,einsam,IAT_green4.bmp,green,ending_melody,melody,ending,c,negative,negative,ES_red,1,c,730,2384636,2385141,2385345
50,third,79,falsch,IAT_yellow3.bmp,yellow,starting_scream,scream,starting,c,negative,negative,ES_red,1,c,639,2387151,2387655,2387859
50,third,80,sozial,IAT_yellow1.bmp,yellow,starting_scream,scream,starting,m,positive,negative,ES_red,1,m,529,2389574,2390078,2390282
50,third,81,kaputt,IAT_purple2.bmp,purple,starting_melody,melody,starting,c,negative,positive,ES_red,1,c,971,2391886,2392390,2392594
50,third,82,ehrlich,IAT_green3.bmp,green,ending_melody,melody,ending,m,positive,negative,ES_red,1,m,629,2394640,2395144,2395348
50,third,83,lustig,IAT_purple3.bmp,purple,starting_melody,melody,starting,m,positive,positive,ES_red,1,m,630,2397052,2397556,2397760
50,third,84,lästig,IAT_yellow1.bmp,yellow,starting_scream,scream,starting,c,negative,negative,ES_red,1,c,737,2399465,2399969,2400173
50,third,85,teuer,IAT_green4.bmp,green,ending_melody,melody,ending,c,negative,negative,ES_red,1,c,573,2401984,2402489,2402693
50,third,86,geizig,IAT_purple4.bmp,purple,starting_melody,melody,starting,c,negative,positive,ES_red,1,c,610,2404341,2404845,2405049
50,third,87,krank,IAT_purple4.bmp,purple,starting_melody,melody,starting,c,negative,positive,ES_red,1,c,514,2406733,2407237,2407441
50,third,88,streng,IAT_yellow4.bmp,yellow,starting_scream,scream,starting,c,negative,negative,ES_red,1,c,564,2409030,2409534,2409738
50,third,89,human,IAT_purple3.bmp,purple,starting_melody,melody,starting,m,positive,positive,ES_red,1,m,478,2411377,2411881,2412085
50,third,90,witzig,IAT_yellow3.bmp,yellow,starting_scream,scream,starting,m,positive,negative,ES_red,1,m,607,2413638,2414142,2414346
50,third,91,kaputt,IAT_purple2.bmp,purple,starting_melody,melody,starting,c,negative,positive,ES_red,1,c,534,2416027,2416531,2416735
50,third,92,human,IAT_purple2.bmp,purple,starting_melody,melody,starting,m,positive,positive,ES_red,1,m,469,2418344,2418848,2419052
50,third,93,brutal,IAT_purple2.bmp,purple,starting_melody,melody,starting,c,negative,positive,ES_red,1,c,1039,2420596,2421101,2421305
50,third,94,einsam,IAT_green2.bmp,green,ending_melody,melody,ending,c,negative,negative,ES_red,1,c,654,2423418,2423922,2424127
50,third,95,sonnig,IAT_yellow1.bmp,yellow,starting_scream,scream,starting,m,positive,negative,ES_red,1,m,614,2425858,2426363,2426567
50,forth,0,lustig,IAT_yellow1.bmp,yellow,starting_scream,scream,starting,m,positive,negative,ES_red,1,m,538,2437432,2437936,2438140
50,forth,1,ehrlich,IAT_purple1.bmp,purple,starting_melody,melody,starting,m,positive,positive,ES_red,1,m,536,2439753,2440257,2440461
50,forth,2,lustig,IAT_red3.bmp,red,ending_scream,scream,ending,m,positive,positive,ES_red,1,m,649,2442070,2442575,2442779
50,forth,3,human,IAT_purple1.bmp,purple,starting_melody,melody,starting,m,positive,positive,ES_red,1,m,510,2444503,2445008,2445212
50,forth,4,lustig,IAT_purple2.bmp,purple,starting_melody,melody,starting,m,positive,positive,ES_red,1,m,517,2446796,2447300,2447504
50,forth,5,krank,IAT_yellow1.bmp,yellow,starting_scream,scream,starting,c,negative,negative,ES_red,0,m,504,2449095,2449599,2449803
50,forth,6,gerecht,IAT_red2.bmp,red,ending_scream,scream,ending,m,positive,positive,ES_red,1,m,628,2451881,2452385,2452589
50,forth,7,brutal,IAT_green4.bmp,green,ending_melody,melody,ending,c,negative,negative,ES_red,1,c,562,2454291,2454795,2454999
50,forth,8,geizig,IAT_red3.bmp,red,ending_scream,scream,ending,c,negative,positive,ES_red,1,c,546,2456635,2457139,2457343
50,forth,9,human,IAT_green3.bmp,green,ending_melody,melody,ending,m,positive,negative,ES_red,1,m,611,2458964,2459468,2459672
50,forth,10,teuer,IAT_purple4.bmp,purple,starting_melody,melody,starting,c,negative,positive,ES_red,1,c,555,2461356,2461861,2462065
50,forth,11,feige,IAT_yellow4.bmp,yellow,starting_scream,scream,starting,c,negative,negative,ES_red,1,c,639,2463695,2464199,2464403
50,forth,12,schön,IAT_yellow2.bmp,yellow,starting_scream,scream,starting,m,positive,negative,ES_red,1,m,515,2466116,2466621,2466825
50,forth,13,lästig,IAT_purple2.bmp,purple,starting_melody,melody,starting,c,negative,positive,ES_red,1,c,817,2468415,2468919,2469123
50,forth,14,geizig,IAT_red2.bmp,red,ending_scream,scream,ending,c,negative,positive,ES_red,0,m,571,2471014,2471518,2471722
50,forth,15,ehrlich,IAT_yellow3.bmp,yellow,starting_scream,scream,starting,m,positive,negative,ES_red,1,m,573,2473867,2474371,2474575
50,forth,16,kaputt,IAT_green1.bmp,green,ending_melody,melody,ending,c,negative,negative,ES_red,1,c,669,2476221,2476726,2476930
50,forth,17,munter,IAT_green1.bmp,green,ending_melody,melody,ending,m,positive,negative,ES_red,1,m,970,2478673,2479177,2479381
50,forth,18,falsch,IAT_green4.bmp,green,ending_melody,melody,ending,c,negative,negative,ES_red,1,c,614,2481427,2481931,2482135
50,forth,19,streng,IAT_red3.bmp,red,ending_scream,scream,ending,c,negative,positive,ES_red,1,c,561,2483822,2484327,2484531
50,forth,20,heiter,IAT_green1.bmp,green,ending_melody,melody,ending,m,positive,negative,ES_red,1,m,770,2486168,2486672,2486876
50,forth,21,feige,IAT_green3.bmp,green,ending_melody,melody,ending,c,negative,negative,ES_red,1,c,619,2488719,2489224,2489428
50,forth,22,morsch,IAT_yellow3.bmp,yellow,starting_scream,scream,starting,c,negative,negative,ES_red,1,c,574,2491122,2491626,2491830
50,forth,23,sozial,IAT_green3.bmp,green,ending_melody,melody,ending,m,positive,negative,ES_red,1,m,846,2493478,2493983,2494187
50,forth,24,gesund,IAT_yellow1.bmp,yellow,starting_scream,scream,starting,m,positive,negative,ES_red,1,m,439,2496108,2496612,2496816
50,forth,25,feige,IAT_yellow1.bmp,yellow,starting_scream,scream,starting,c,negative,negative,ES_red,1,c,813,2498329,2498833,2499037
50,forth,26,einsam,IAT_purple1.bmp,purple,starting_melody,melody,starting,c,negative,positive,ES_red,1,c,719,2500924,2501429,2501633
50,forth,27,brutal,IAT_red4.bmp,red,ending_scream,scream,ending,c,negative,positive,ES_red,1,c,711,2503427,2503931,2504135
50,forth,28,streng,IAT_purple4.bmp,purple,starting_melody,melody,starting,c,negative,positive,ES_red,1,c,484,2505919,2506423,2506627
50,forth,29,sozial,IAT_yellow2.bmp,yellow,starting_scream,scream,starting,m,positive,negative,ES_red,1,m,526,2508187,2508691,2508895
50,forth,30,lästig,IAT_green4.bmp,green,ending_melody,melody,ending,c,negative,negative,ES_red,1,c,769,2510496,2511000,2511204
50,forth,31,lustig,IAT_purple4.bmp,purple,starting_melody,melody,starting,m,positive,positive,ES_red,1,m,540,2513047,2513551,2513755
50,forth,32,gesund,IAT_green4.bmp,green,ending_melody,melody,ending,m,positive,negative,ES_red,1,m,493,2515370,2515874,2516078
50,forth,33,witzig,IAT_purple1.bmp,purple,starting_melody,melody,starting,m,positive,positive,ES_red,1,m,644,2517645,2518149,2518353
50,forth,34,einsam,IAT_red2.bmp,red,ending_scream,scream,ending,c,negative,positive,ES_red,1,c,551,2520071,2520575,2520779
50,forth,35,sozial,IAT_yellow1.bmp,yellow,starting_scream,scream,starting,m,positive,negative,ES_red,1,m,484,2522405,2522910,2523114
50,forth,36,heiter,IAT_purple1.bmp,purple,starting_melody,melody,starting,m,positive,positive,ES_red,1,m,798,2524673,2525177,2525381
50,forth,37,munter,IAT_purple3.bmp,purple,starting_melody,melody,starting,m,positive,positive,ES_red,1,m,603,2527254,2527758,2527962
50,forth,38,sanft,IAT_red4.bmp,red,ending_scream,scream,ending,m,positive,positive,ES_red,1,m,647,2529640,2530144,2530348
50,forth,39,teuer,IAT_purple3.bmp,purple,starting_melody,melody,starting,c,negative,positive,ES_red,1,c,784,2532069,2532573,2532777
50,forth,40,brutal,IAT_red4.bmp,red,ending_scream,scream,ending,c,negative,positive,ES_red,1,c,564,2534637,2535141,2535345
50,forth,41,teuer,IAT_green2.bmp,green,ending_melody,melody,ending,c,negative,negative,ES_red,1,c,524,2536983,2537488,2537692
50,forth,42,munter,IAT_red3.bmp,red,ending_scream,scream,ending,m,positive,positive,ES_red,1,m,681,2539291,2539795,2539999
50,forth,43,gerecht,IAT_green2.bmp,green,ending_melody,melody,ending,m,positive,negative,ES_red,1,m,637,2541755,2542259,2542463
50,forth,44,morsch,IAT_green2.bmp,green,ending_melody,melody,ending,c,negative,negative,ES_red,1,c,496,2544178,2544682,2544886
50,forth,45,schön,IAT_purple3.bmp,purple,starting_melody,melody,starting,m,positive,positive,ES_red,1,m,604,2546457,2546961,2547165
50,forth,46,lästig,IAT_red1.bmp,red,ending_scream,scream,ending,c,negative,positive,ES_red,1,c,815,2548844,2549349,2549553
50,forth,47,ehrlich,IAT_red2.bmp,red,ending_scream,scream,ending,m,positive,positive,ES_red,1,m,486,2551443,2551947,2552151
50,forth,48,witzig,IAT_yellow3.bmp,yellow,starting_scream,scream,starting,m,positive,negative,ES_red,1,m,548,2553712,2554216,2554420
50,forth,49,falsch,IAT_red2.bmp,red,ending_scream,scream,ending,c,negative,positive,ES_red,1,c,468,2556043,2556548,2556752
50,forth,50,heiter,IAT_green1.bmp,green,ending_melody,melody,ending,m,positive,negative,ES_red,0,c,534,2558294,2558798,2559002
50,forth,51,streng,IAT_green2.bmp,green,ending_melody,melody,ending,c,negative,negative,ES_red,1,c,578,2561110,2561614,2561818
50,forth,52,gierig,IAT_purple2.bmp,purple,starting_melody,melody,starting,c,negative,positive,ES_red,0,m,557,2563472,2563976,2564180
50,forth,53,kaputt,IAT_yellow2.bmp,yellow,starting_scream,scream,starting,c,negative,negative,ES_red,1,c,584,2566311,2566816,2567020
50,forth,54,teuer,IAT_yellow4.bmp,yellow,starting_scream,scream,starting,c,negative,negative,ES_red,1,c,466,2568680,2569184,2569388
50,forth,55,morsch,IAT_green4.bmp,green,ending_melody,melody,ending,c,negative,negative,ES_red,1,c,522,2570928,2571433,2571637
50,forth,56,gerecht,IAT_yellow4.bmp,yellow,starting_scream,scream,starting,m,positive,negative,ES_red,1,m,793,2573234,2573738,2573942
50,forth,57,sanft,IAT_green3.bmp,green,ending_melody,melody,ending,m,positive,negative,ES_red,1,m,550,2575810,2576314,2576518
50,forth,58,sonnig,IAT_purple3.bmp,purple,starting_melody,melody,starting,m,positive,positive,ES_red,1,m,508,2578143,2578647,2578851
50,forth,59,krank,IAT_purple1.bmp,purple,starting_melody,melody,starting,c,negative,positive,ES_red,1,c,510,2580434,2580938,2581142
50,forth,60,witzig,IAT_purple2.bmp,purple,starting_melody,melody,starting,m,positive,positive,ES_red,1,m,595,2582728,2583232,2583436
50,forth,61,streng,IAT_purple3.bmp,purple,starting_melody,melody,starting,c,negative,positive,ES_red,1,c,848,2585104,2585609,2585813
50,forth,62,gesund,IAT_red3.bmp,red,ending_scream,scream,ending,m,positive,positive,ES_red,0,c,637,2587736,2588240,2588444
50,forth,63,sanft,IAT_yellow4.bmp,yellow,starting_scream,scream,starting,m,positive,negative,ES_red,1,m,567,2590657,2591161,2591365
50,forth,64,kaputt,IAT_purple4.bmp,purple,starting_melody,melody,starting,c,negative,positive,ES_red,1,c,518,2593007,2593511,2593715
50,forth,65,krank,IAT_red1.bmp,red,ending_scream,scream,ending,c,negative,positive,ES_red,1,c,501,2595308,2595812,2596016
50,forth,66,gesund,IAT_red3.bmp,red,ending_scream,scream,ending,m,positive,positive,ES_red,1,m,478,2597593,2598097,2598301
50,forth,67,sonnig,IAT_purple3.bmp,purple,starting_melody,melody,starting,m,positive,positive,ES_red,0,c,455,2599854,2600358,2600562
50,forth,68,ehrlich,IAT_yellow3.bmp,yellow,starting_scream,scream,starting,m,positive,negative,ES_red,1,m,670,2602591,2603096,2603300
50,forth,69,sozial,IAT_red1.bmp,red,ending_scream,scream,ending,m,positive,positive,ES_red,1,m,564,2605046,2605551,2605755
50,forth,70,geizig,IAT_red4.bmp,red,ending_scream,scream,ending,c,negative,positive,ES_red,1,c,878,2607393,2607897,2608101
50,forth,71,witzig,IAT_red4.bmp,red,ending_scream,scream,ending,m,positive,positive,ES_red,1,m,589,2610054,2610558,2610762
50,forth,72,schön,IAT_red1.bmp,red,ending_scream,scream,ending,m,positive,positive,ES_red,1,m,546,2612427,2612931,2613135
50,forth,73,lästig,IAT_green3.bmp,green,ending_melody,melody,ending,c,negative,negative,ES_red,1,c,702,2614756,2615261,2615465
50,forth,74,geizig,IAT_red2.bmp,red,ending_scream,scream,ending,c,negative,positive,ES_red,0,m,557,2617242,2617747,2617951
50,forth,75,heiter,IAT_red1.bmp,red,ending_scream,scream,ending,m,positive,positive,ES_red,1,m,654,2620084,2620588,2620792
50,forth,76,sonnig,IAT_green1.bmp,green,ending_melody,melody,ending,m,positive,negative,ES_red,1,m,598,2622527,2623031,2623235
50,forth,77,falsch,IAT_purple2.bmp,purple,starting_melody,melody,starting,c,negative,positive,ES_red,1,c,494,2624908,2625412,2625616
50,forth,78,human,IAT_yellow3.bmp,yellow,starting_scream,scream,starting,m,positive,negative,ES_red,1,m,542,2627186,2627690,2627894
50,forth,79,krank,IAT_yellow2.bmp,yellow,starting_scream,scream,starting,c,negative,negative,ES_red,1,c,496,2629511,2630015,2630219
50,forth,80,gerecht,IAT_green2.bmp,green,ending_melody,melody,ending,m,positive,negative,ES_red,1,m,1004,2631790,2632294,2632498
50,forth,81,einsam,IAT_red4.bmp,red,ending_scream,scream,ending,c,negative,positive,ES_red,0,m,547,2634577,2635081,2635285
50,forth,82,morsch,IAT_yellow2.bmp,yellow,starting_scream,scream,starting,c,negative,negative,ES_red,1,c,545,2637407,2637912,2638116
50,forth,83,einsam,IAT_yellow3.bmp,yellow,starting_scream,scream,starting,c,negative,negative,ES_red,1,c,817,2639737,2640241,2640446
50,forth,84,sanft,IAT_green4.bmp,green,ending_melody,melody,ending,m,positive,negative,ES_red,1,m,613,2642338,2642842,2643046
50,forth,85,feige,IAT_purple4.bmp,purple,starting_melody,melody,starting,c,negative,positive,ES_red,1,c,626,2644734,2645238,2645442
50,forth,86,munter,IAT_purple4.bmp,purple,starting_melody,melody,starting,m,positive,positive,ES_red,1,m,704,2647142,2647647,2647851
50,forth,87,sonnig,IAT_red1.bmp,red,ending_scream,scream,ending,m,positive,positive,ES_red,1,m,702,2649630,2650134,2650338
50,forth,88,gierig,IAT_yellow2.bmp,yellow,starting_scream,scream,starting,c,negative,negative,ES_red,1,c,734,2652116,2652620,2652824
50,forth,89,human,IAT_yellow1.bmp,yellow,starting_scream,scream,starting,m,positive,negative,ES_red,1,m,582,2654633,2655137,2655341
50,forth,90,falsch,IAT_yellow4.bmp,yellow,starting_scream,scream,starting,c,negative,negative,ES_red,1,c,626,2656998,2657502,2657706
50,forth,91,gierig,IAT_green2.bmp,green,ending_melody,melody,ending,c,negative,negative,ES_red,0,m,607,2659407,2659912,2660116
50,forth,92,schön,IAT_green3.bmp,green,ending_melody,melody,ending,m,positive,negative,ES_red,1,m,433,2662298,2662802,2663007
50,forth,93,brutal,IAT_yellow4.bmp,yellow,starting_scream,scream,starting,c,negative,negative,ES_red,1,c,486,2664518,2665022,2665226
50,forth,94,kaputt,IAT_purple2.bmp,purple,starting_melody,melody,starting,c,negative,positive,ES_red,1,c,604,2666787,2667292,2667496
50,forth,95,gierig,IAT_green1.bmp,green,ending_melody,melody,ending,c,negative,negative,ES_red,1,c,903,2669174,2669678,2669882
