subject_nr,block,trialnr,trial_target,trial_prime,prime_color,prime_role,prime_us,prime_relation,correct_response,target_valence,prime_valence,color_counter,correct_first_response,response_first_response,response_time_first_response,fixation_show,prime_show,target_show
2,first,0,heiter,IAT_green3.bmp,green,starting_melody,melody,starting,m,positive,positive,ES_purple,1,m,432,1580796,1581301,1581506
2,first,1,gesund,IAT_green3.bmp,green,starting_melody,melody,starting,m,positive,positive,ES_purple,1,m,363,1583066,1583570,1583775
2,first,2,ehrlich,IAT_green2.bmp,green,starting_melody,melody,starting,m,positive,positive,ES_purple,1,m,389,1585263,1585767,1585971
2,first,3,sozial,IAT_red4.bmp,red,starting_scream,scream,starting,m,positive,negative,ES_purple,1,m,509,1587486,1587991,1588196
2,first,4,gesund,IAT_red3.bmp,red,starting_scream,scream,starting,m,positive,negative,ES_purple,1,m,580,1589829,1590334,1590538
2,first,5,brutal,IAT_purple3.bmp,purple,ending_scream,scream,ending,c,negative,positive,ES_purple,1,c,548,1592242,1592747,1592952
2,first,6,morsch,IAT_yellow4.bmp,yellow,ending_melody,melody,ending,c,negative,negative,ES_purple,1,c,938,1594627,1595131,1595336
2,first,7,brutal,IAT_purple2.bmp,purple,ending_scream,scream,ending,c,negative,positive,ES_purple,0,m,581,1597399,1597904,1598109
2,first,8,geizig,IAT_yellow2.bmp,yellow,ending_melody,melody,ending,c,negative,negative,ES_purple,1,c,640,1600317,1600821,1601026
2,first,9,krank,IAT_yellow3.bmp,yellow,ending_melody,melody,ending,c,negative,negative,ES_purple,0,m,880,1602792,1603296,1603500
2,first,10,einsam,IAT_yellow4.bmp,yellow,ending_melody,melody,ending,c,negative,negative,ES_purple,0,m,641,1606007,1606511,1606716
2,first,11,munter,IAT_red4.bmp,red,starting_scream,scream,starting,m,positive,negative,ES_purple,1,m,746,1608982,1609487,1609691
2,first,12,schön,IAT_green1.bmp,green,starting_melody,melody,starting,m,positive,positive,ES_purple,1,m,470,1611562,1612066,1612270
2,first,13,kaputt,IAT_green4.bmp,green,starting_melody,melody,starting,c,negative,positive,ES_purple,1,c,595,1613866,1614370,1614575
2,first,14,streng,IAT_yellow1.bmp,yellow,ending_melody,melody,ending,c,negative,negative,ES_purple,1,c,534,1616296,1616801,1617006
2,first,15,kaputt,IAT_purple2.bmp,purple,ending_scream,scream,ending,c,negative,positive,ES_purple,1,c,501,1618666,1619170,1619375
2,first,16,heiter,IAT_red2.bmp,red,starting_scream,scream,starting,m,positive,negative,ES_purple,1,m,464,1621000,1621505,1621709
2,first,17,munter,IAT_red1.bmp,red,starting_scream,scream,starting,m,positive,negative,ES_purple,1,m,418,1623299,1623804,1624008
2,first,18,human,IAT_red1.bmp,red,starting_scream,scream,starting,m,positive,negative,ES_purple,1,m,481,1625553,1626057,1626262
2,first,19,witzig,IAT_yellow1.bmp,yellow,ending_melody,melody,ending,m,positive,negative,ES_purple,1,m,534,1627869,1628373,1628577
2,first,20,human,IAT_purple4.bmp,purple,ending_scream,scream,ending,m,positive,positive,ES_purple,1,m,461,1630236,1630741,1630947
2,first,21,gierig,IAT_red4.bmp,red,starting_scream,scream,starting,c,negative,negative,ES_purple,0,m,362,1632533,1633038,1633242
2,first,22,heiter,IAT_yellow4.bmp,yellow,ending_melody,melody,ending,m,positive,negative,ES_purple,1,m,588,1635231,1635736,1635940
2,first,23,sozial,IAT_yellow2.bmp,yellow,ending_melody,melody,ending,m,positive,negative,ES_purple,1,m,463,1637654,1638158,1638362
2,first,24,human,IAT_purple1.bmp,purple,ending_scream,scream,ending,m,positive,positive,ES_purple,1,m,497,1639952,1640456,1640661
2,first,25,krank,IAT_purple4.bmp,purple,ending_scream,scream,ending,c,negative,positive,ES_purple,1,c,519,1642283,1642787,1642991
2,first,26,witzig,IAT_purple3.bmp,purple,ending_scream,scream,ending,m,positive,positive,ES_purple,1,m,444,1644636,1645140,1645345
2,first,27,brutal,IAT_green2.bmp,green,starting_melody,melody,starting,c,negative,positive,ES_purple,1,c,578,1646915,1647420,1647625
2,first,28,sanft,IAT_yellow3.bmp,yellow,ending_melody,melody,ending,m,positive,negative,ES_purple,1,m,438,1649329,1649834,1650038
2,first,29,geizig,IAT_purple1.bmp,purple,ending_scream,scream,ending,c,negative,positive,ES_purple,1,c,597,1651602,1652106,1652310
2,first,30,falsch,IAT_red4.bmp,red,starting_scream,scream,starting,c,negative,negative,ES_purple,1,c,892,1654034,1654539,1654743
2,first,31,kaputt,IAT_red1.bmp,red,starting_scream,scream,starting,c,negative,negative,ES_purple,1,c,470,1656762,1657266,1657470
2,first,32,morsch,IAT_red2.bmp,red,starting_scream,scream,starting,c,negative,negative,ES_purple,1,c,435,1659068,1659573,1659777
2,first,33,human,IAT_red3.bmp,red,starting_scream,scream,starting,m,positive,negative,ES_purple,1,m,407,1661340,1661844,1662048
2,first,34,sanft,IAT_purple1.bmp,purple,ending_scream,scream,ending,m,positive,positive,ES_purple,1,m,498,1663582,1664086,1664291
2,first,35,lästig,IAT_green3.bmp,green,starting_melody,melody,starting,c,negative,positive,ES_purple,1,c,657,1665916,1666420,1666625
2,first,36,ehrlich,IAT_yellow1.bmp,yellow,ending_melody,melody,ending,m,positive,negative,ES_purple,1,m,563,1668409,1668913,1669117
2,first,37,falsch,IAT_purple4.bmp,purple,ending_scream,scream,ending,c,negative,positive,ES_purple,1,c,499,1670805,1671309,1671514
2,first,38,schön,IAT_yellow2.bmp,yellow,ending_melody,melody,ending,m,positive,negative,ES_purple,1,m,414,1673140,1673645,1673849
2,first,39,sonnig,IAT_purple1.bmp,purple,ending_scream,scream,ending,m,positive,positive,ES_purple,1,m,480,1675390,1675894,1676098
2,first,40,sanft,IAT_red1.bmp,red,starting_scream,scream,starting,m,positive,negative,ES_purple,1,m,628,1677705,1678209,1678414
2,first,41,gierig,IAT_red4.bmp,red,starting_scream,scream,starting,c,negative,negative,ES_purple,1,c,472,1680169,1680673,1680877
2,first,42,krank,IAT_red3.bmp,red,starting_scream,scream,starting,c,negative,negative,ES_purple,0,m,411,1682476,1682980,1683185
2,first,43,lästig,IAT_green3.bmp,green,starting_melody,melody,starting,c,negative,positive,ES_purple,1,c,1045,1685222,1685727,1685931
2,first,44,ehrlich,IAT_purple1.bmp,purple,ending_scream,scream,ending,m,positive,positive,ES_purple,1,m,491,1688103,1688609,1688813
2,first,45,witzig,IAT_green1.bmp,green,starting_melody,melody,starting,m,positive,positive,ES_purple,1,m,519,1690429,1690934,1691139
2,first,46,einsam,IAT_red3.bmp,red,starting_scream,scream,starting,c,negative,negative,ES_purple,0,m,632,1692784,1693288,1693493
2,first,47,munter,IAT_purple3.bmp,purple,ending_scream,scream,ending,m,positive,positive,ES_purple,0,None,1500,1695751,1696255,1696459
2,first,48,teuer,IAT_purple4.bmp,purple,ending_scream,scream,ending,c,negative,positive,ES_purple,0,m,464,1699585,1700089,1700294
2,first,49,feige,IAT_yellow2.bmp,yellow,ending_melody,melody,ending,c,negative,negative,ES_purple,1,c,628,1702386,1702890,1703095
2,first,50,gerecht,IAT_green1.bmp,green,starting_melody,melody,starting,m,positive,positive,ES_purple,1,m,468,1704849,1705353,1705557
2,first,51,einsam,IAT_green1.bmp,green,starting_melody,melody,starting,c,negative,positive,ES_purple,0,m,412,1707151,1707655,1707859
2,first,52,morsch,IAT_red2.bmp,red,starting_scream,scream,starting,c,negative,negative,ES_purple,1,c,641,1709899,1710403,1710607
2,first,53,gesund,IAT_yellow3.bmp,yellow,ending_melody,melody,ending,m,positive,negative,ES_purple,1,m,430,1712375,1712879,1713084
2,first,54,brutal,IAT_red1.bmp,red,starting_scream,scream,starting,c,negative,negative,ES_purple,1,c,505,1714640,1715145,1715350
2,first,55,sozial,IAT_green1.bmp,green,starting_melody,melody,starting,m,positive,positive,ES_purple,1,m,355,1716983,1717489,1717693
2,first,56,gerecht,IAT_purple2.bmp,purple,ending_scream,scream,ending,m,positive,positive,ES_purple,0,c,693,1719175,1719679,1719884
2,first,57,teuer,IAT_yellow2.bmp,yellow,ending_melody,melody,ending,c,negative,negative,ES_purple,1,c,763,1722204,1722708,1722912
2,first,58,lustig,IAT_red2.bmp,red,starting_scream,scream,starting,m,positive,negative,ES_purple,1,m,514,1724803,1725307,1725511
2,first,59,schön,IAT_red1.bmp,red,starting_scream,scream,starting,m,positive,negative,ES_purple,1,m,406,1727153,1727657,1727861
2,first,60,witzig,IAT_yellow1.bmp,yellow,ending_melody,melody,ending,m,positive,negative,ES_purple,1,m,489,1729395,1729900,1730105
2,first,61,lustig,IAT_yellow3.bmp,yellow,ending_melody,melody,ending,m,positive,negative,ES_purple,1,m,498,1731721,1732226,1732431
2,first,62,gerecht,IAT_purple3.bmp,purple,ending_scream,scream,ending,m,positive,positive,ES_purple,1,m,509,1734056,1734560,1734765
2,first,63,lästig,IAT_green4.bmp,green,starting_melody,melody,starting,c,negative,positive,ES_purple,0,m,397,1736400,1736904,1737108
2,first,64,gesund,IAT_yellow3.bmp,yellow,ending_melody,melody,ending,m,positive,negative,ES_purple,1,m,511,1739132,1739636,1739840
2,first,65,munter,IAT_green3.bmp,green,starting_melody,melody,starting,m,positive,positive,ES_purple,1,m,455,1741479,1741983,1742187
2,first,66,heiter,IAT_green4.bmp,green,starting_melody,melody,starting,m,positive,positive,ES_purple,1,m,375,1743769,1744274,1744478
2,first,67,feige,IAT_yellow3.bmp,yellow,ending_melody,melody,ending,c,negative,negative,ES_purple,1,c,480,1745979,1746483,1746687
2,first,68,sanft,IAT_yellow4.bmp,yellow,ending_melody,melody,ending,m,positive,negative,ES_purple,1,m,535,1748294,1748798,1749003
2,first,69,falsch,IAT_purple4.bmp,purple,ending_scream,scream,ending,c,negative,positive,ES_purple,1,c,537,1750664,1751168,1751373
2,first,70,geizig,IAT_green4.bmp,green,starting_melody,melody,starting,c,negative,positive,ES_purple,1,c,961,1753037,1753541,1753746
2,first,71,lästig,IAT_purple2.bmp,purple,ending_scream,scream,ending,c,negative,positive,ES_purple,1,c,792,1755834,1756338,1756542
2,first,72,gierig,IAT_yellow2.bmp,yellow,ending_melody,melody,ending,c,negative,negative,ES_purple,1,c,712,1758462,1758966,1759170
2,first,73,ehrlich,IAT_green3.bmp,green,starting_melody,melody,starting,m,positive,positive,ES_purple,1,m,546,1761009,1761513,1761717
2,first,74,sonnig,IAT_green2.bmp,green,starting_melody,melody,starting,m,positive,positive,ES_purple,1,m,463,1763389,1763893,1764097
2,first,75,sozial,IAT_purple3.bmp,purple,ending_scream,scream,ending,m,positive,positive,ES_purple,1,m,758,1765687,1766191,1766396
2,first,76,streng,IAT_green1.bmp,green,starting_melody,melody,starting,c,negative,positive,ES_purple,0,m,456,1768281,1768786,1768990
2,first,77,feige,IAT_green4.bmp,green,starting_melody,melody,starting,c,negative,positive,ES_purple,1,c,576,1771074,1771579,1771783
2,first,78,sonnig,IAT_purple4.bmp,purple,ending_scream,scream,ending,m,positive,positive,ES_purple,1,m,516,1773486,1773990,1774195
2,first,79,lustig,IAT_red3.bmp,red,starting_scream,scream,starting,m,positive,negative,ES_purple,0,c,413,1775839,1776343,1776547
2,first,80,streng,IAT_red2.bmp,red,starting_scream,scream,starting,c,negative,negative,ES_purple,0,m,653,1778586,1779091,1779296
2,first,81,sonnig,IAT_purple2.bmp,purple,ending_scream,scream,ending,m,positive,positive,ES_purple,1,m,467,1781583,1782087,1782291
2,first,82,gerecht,IAT_yellow1.bmp,yellow,ending_melody,melody,ending,m,positive,negative,ES_purple,0,c,656,1783886,1784390,1784595
2,first,83,schön,IAT_green4.bmp,green,starting_melody,melody,starting,m,positive,positive,ES_purple,1,m,431,1786879,1787384,1787588
2,first,84,feige,IAT_yellow1.bmp,yellow,ending_melody,melody,ending,c,negative,negative,ES_purple,1,c,503,1789147,1789652,1789857
2,first,85,kaputt,IAT_green2.bmp,green,starting_melody,melody,starting,c,negative,positive,ES_purple,0,m,357,1791486,1791990,1792195
2,first,86,einsam,IAT_green2.bmp,green,starting_melody,melody,starting,c,negative,positive,ES_purple,0,m,542,1794179,1794684,1794889
2,first,87,streng,IAT_purple1.bmp,purple,ending_scream,scream,ending,c,negative,positive,ES_purple,1,c,469,1797059,1797563,1797767
2,first,88,krank,IAT_yellow4.bmp,yellow,ending_melody,melody,ending,c,negative,negative,ES_purple,1,c,456,1799363,1799867,1800071
2,first,89,gierig,IAT_red4.bmp,red,starting_scream,scream,starting,c,negative,negative,ES_purple,1,c,647,1801656,1802160,1802365
2,first,90,teuer,IAT_purple3.bmp,purple,ending_scream,scream,ending,c,negative,positive,ES_purple,0,m,558,1804140,1804644,1804848
2,first,91,geizig,IAT_red2.bmp,red,starting_scream,scream,starting,c,negative,negative,ES_purple,1,c,645,1807033,1807539,1807743
2,first,92,lustig,IAT_red3.bmp,red,starting_scream,scream,starting,m,positive,negative,ES_purple,1,m,506,1809516,1810020,1810225
2,first,93,falsch,IAT_green2.bmp,green,starting_melody,melody,starting,c,negative,positive,ES_purple,1,c,580,1811859,1812363,1812567
2,first,94,morsch,IAT_purple2.bmp,purple,ending_scream,scream,ending,c,negative,positive,ES_purple,1,c,487,1814274,1814778,1814982
2,first,95,teuer,IAT_yellow4.bmp,yellow,ending_melody,melody,ending,c,negative,negative,ES_purple,1,c,499,1816597,1817101,1817306
2,second,0,gesund,IAT_green3.bmp,green,starting_melody,melody,starting,m,positive,positive,ES_purple,1,m,531,1825003,1825507,1825711
2,second,1,munter,IAT_green1.bmp,green,starting_melody,melody,starting,m,positive,positive,ES_purple,1,m,376,1827369,1827873,1828077
2,second,2,heiter,IAT_green2.bmp,green,starting_melody,melody,starting,m,positive,positive,ES_purple,1,m,291,1829578,1830083,1830287
2,second,3,sozial,IAT_red4.bmp,red,starting_scream,scream,starting,m,positive,negative,ES_purple,1,m,538,1831703,1832208,1832412
2,second,4,einsam,IAT_yellow3.bmp,yellow,ending_melody,melody,ending,c,negative,negative,ES_purple,0,m,444,1834076,1834581,1834786
2,second,5,sanft,IAT_green1.bmp,green,starting_melody,melody,starting,m,positive,positive,ES_purple,1,m,455,1836859,1837363,1837567
2,second,6,streng,IAT_green1.bmp,green,starting_melody,melody,starting,c,negative,positive,ES_purple,0,m,355,1839146,1839651,1839856
2,second,7,einsam,IAT_yellow2.bmp,yellow,ending_melody,melody,ending,c,negative,negative,ES_purple,1,c,1255,1841837,1842342,1842547
2,second,8,brutal,IAT_red2.bmp,red,starting_scream,scream,starting,c,negative,negative,ES_purple,1,c,562,1844929,1845434,1845639
2,second,9,krank,IAT_purple4.bmp,purple,ending_scream,scream,ending,c,negative,positive,ES_purple,1,c,458,1847326,1847830,1848035
2,second,10,kaputt,IAT_purple2.bmp,purple,ending_scream,scream,ending,c,negative,positive,ES_purple,1,c,491,1849619,1850124,1850328
2,second,11,brutal,IAT_green2.bmp,green,starting_melody,melody,starting,c,negative,positive,ES_purple,1,c,451,1851946,1852450,1852655
2,second,12,sonnig,IAT_purple3.bmp,purple,ending_scream,scream,ending,m,positive,positive,ES_purple,1,m,498,1854231,1854736,1854940
2,second,13,sozial,IAT_yellow3.bmp,yellow,ending_melody,melody,ending,m,positive,negative,ES_purple,1,m,465,1856567,1857071,1857276
2,second,14,gierig,IAT_red2.bmp,red,starting_scream,scream,starting,c,negative,negative,ES_purple,1,c,440,1858868,1859373,1859577
2,second,15,munter,IAT_red2.bmp,red,starting_scream,scream,starting,m,positive,negative,ES_purple,1,m,850,1861144,1861648,1861852
2,second,16,einsam,IAT_green4.bmp,green,starting_melody,melody,starting,c,negative,positive,ES_purple,0,m,411,1863830,1864335,1864539
2,second,17,brutal,IAT_purple3.bmp,purple,ending_scream,scream,ending,c,negative,positive,ES_purple,1,c,620,1866577,1867081,1867286
2,second,18,teuer,IAT_red3.bmp,red,starting_scream,scream,starting,c,negative,negative,ES_purple,1,c,565,1869033,1869538,1869743
2,second,19,gerecht,IAT_purple2.bmp,purple,ending_scream,scream,ending,m,positive,positive,ES_purple,1,m,588,1871434,1871938,1872143
2,second,20,gesund,IAT_red1.bmp,red,starting_scream,scream,starting,m,positive,negative,ES_purple,1,m,708,1873859,1874363,1874567
2,second,21,witzig,IAT_purple1.bmp,purple,ending_scream,scream,ending,m,positive,positive,ES_purple,1,m,463,1876402,1876906,1877110
2,second,22,munter,IAT_green3.bmp,green,starting_melody,melody,starting,m,positive,positive,ES_purple,1,m,544,1878700,1879205,1879409
2,second,23,lästig,IAT_yellow4.bmp,yellow,ending_melody,melody,ending,c,negative,negative,ES_purple,1,c,368,1881081,1881585,1881789
2,second,24,teuer,IAT_purple4.bmp,purple,ending_scream,scream,ending,c,negative,positive,ES_purple,1,c,639,1883284,1883788,1883993
2,second,25,streng,IAT_green2.bmp,green,starting_melody,melody,starting,c,negative,positive,ES_purple,0,m,416,1885759,1886264,1886468
2,second,26,gerecht,IAT_yellow4.bmp,yellow,ending_melody,melody,ending,m,positive,negative,ES_purple,0,c,683,1888512,1889017,1889221
2,second,27,einsam,IAT_red1.bmp,red,starting_scream,scream,starting,c,negative,negative,ES_purple,0,m,483,1891534,1892038,1892243
2,second,28,streng,IAT_purple2.bmp,purple,ending_scream,scream,ending,c,negative,positive,ES_purple,1,c,788,1894353,1894857,1895061
2,second,29,human,IAT_red2.bmp,red,starting_scream,scream,starting,m,positive,negative,ES_purple,1,m,570,1896978,1897482,1897687
2,second,30,falsch,IAT_yellow2.bmp,yellow,ending_melody,melody,ending,c,negative,negative,ES_purple,1,c,628,1899384,1899888,1900092
2,second,31,streng,IAT_green1.bmp,green,starting_melody,melody,starting,c,negative,positive,ES_purple,1,c,742,1901846,1902351,1902556
2,second,32,lustig,IAT_yellow2.bmp,yellow,ending_melody,melody,ending,m,positive,negative,ES_purple,1,m,690,1904426,1904930,1905135
2,second,33,gerecht,IAT_yellow4.bmp,yellow,ending_melody,melody,ending,m,positive,negative,ES_purple,1,m,517,1906953,1907457,1907661
2,second,34,lustig,IAT_red4.bmp,red,starting_scream,scream,starting,m,positive,negative,ES_purple,1,m,363,1909306,1909811,1910016
2,second,35,witzig,IAT_purple1.bmp,purple,ending_scream,scream,ending,m,positive,positive,ES_purple,1,m,472,1911508,1912012,1912217
2,second,36,feige,IAT_purple2.bmp,purple,ending_scream,scream,ending,c,negative,positive,ES_purple,1,c,629,1913816,1914321,1914526
2,second,37,heiter,IAT_yellow3.bmp,yellow,ending_melody,melody,ending,m,positive,negative,ES_purple,1,m,584,1916283,1916787,1916991
2,second,38,human,IAT_yellow1.bmp,yellow,ending_melody,melody,ending,m,positive,negative,ES_purple,1,m,585,1918704,1919208,1919412
2,second,39,sanft,IAT_green3.bmp,green,starting_melody,melody,starting,m,positive,positive,ES_purple,1,m,513,1921126,1921630,1921835
2,second,40,gerecht,IAT_red3.bmp,red,starting_scream,scream,starting,m,positive,negative,ES_purple,0,c,572,1923476,1923980,1924185
2,second,41,witzig,IAT_purple3.bmp,purple,ending_scream,scream,ending,m,positive,positive,ES_purple,1,m,1120,1926384,1926888,1927092
2,second,42,gierig,IAT_yellow2.bmp,yellow,ending_melody,melody,ending,c,negative,negative,ES_purple,1,c,754,1929340,1929845,1930049
2,second,43,schön,IAT_green4.bmp,green,starting_melody,melody,starting,m,positive,positive,ES_purple,1,m,480,1931932,1932436,1932640
2,second,44,morsch,IAT_red4.bmp,red,starting_scream,scream,starting,c,negative,negative,ES_purple,1,c,491,1934249,1934754,1934959
2,second,45,feige,IAT_yellow2.bmp,yellow,ending_melody,melody,ending,c,negative,negative,ES_purple,1,c,866,1936577,1937081,1937286
2,second,46,falsch,IAT_green4.bmp,green,starting_melody,melody,starting,c,negative,positive,ES_purple,1,c,504,1939280,1939785,1939989
2,second,47,heiter,IAT_purple1.bmp,purple,ending_scream,scream,ending,m,positive,positive,ES_purple,1,m,852,1941622,1942126,1942330
2,second,48,gesund,IAT_purple3.bmp,purple,ending_scream,scream,ending,m,positive,positive,ES_purple,1,m,900,1944309,1944814,1945019
2,second,49,heiter,IAT_green1.bmp,green,starting_melody,melody,starting,m,positive,positive,ES_purple,0,c,746,1947046,1947550,1947755
2,second,50,morsch,IAT_yellow4.bmp,yellow,ending_melody,melody,ending,c,negative,negative,ES_purple,1,c,1051,1950129,1950634,1950839
2,second,51,ehrlich,IAT_red1.bmp,red,starting_scream,scream,starting,m,positive,negative,ES_purple,1,m,534,1953017,1953522,1953727
2,second,52,feige,IAT_red1.bmp,red,starting_scream,scream,starting,c,negative,negative,ES_purple,1,c,539,1955390,1955894,1956098
2,second,53,witzig,IAT_purple1.bmp,purple,ending_scream,scream,ending,m,positive,positive,ES_purple,1,m,802,1957766,1958270,1958475
2,second,54,geizig,IAT_yellow1.bmp,yellow,ending_melody,melody,ending,c,negative,negative,ES_purple,1,c,621,1960405,1960909,1961114
2,second,55,kaputt,IAT_red4.bmp,red,starting_scream,scream,starting,c,negative,negative,ES_purple,1,c,481,1962863,1963369,1963573
2,second,56,schön,IAT_purple4.bmp,purple,ending_scream,scream,ending,m,positive,positive,ES_purple,1,m,473,1965180,1965684,1965889
2,second,57,ehrlich,IAT_green3.bmp,green,starting_melody,melody,starting,m,positive,positive,ES_purple,1,m,479,1967490,1967994,1968199
2,second,58,falsch,IAT_yellow1.bmp,yellow,ending_melody,melody,ending,c,negative,negative,ES_purple,1,c,530,1969807,1970311,1970516
2,second,59,gierig,IAT_green4.bmp,green,starting_melody,melody,starting,c,negative,positive,ES_purple,1,c,825,1972173,1972677,1972881
2,second,60,lästig,IAT_red4.bmp,red,starting_scream,scream,starting,c,negative,negative,ES_purple,1,c,578,1974834,1975338,1975543
2,second,61,falsch,IAT_green2.bmp,green,starting_melody,melody,starting,c,negative,positive,ES_purple,1,c,399,1977249,1977754,1977958
2,second,62,human,IAT_red3.bmp,red,starting_scream,scream,starting,m,positive,negative,ES_purple,0,c,312,1979486,1979990,1980195
2,second,63,teuer,IAT_purple1.bmp,purple,ending_scream,scream,ending,c,negative,positive,ES_purple,1,c,428,1982136,1982641,1982846
2,second,64,ehrlich,IAT_green1.bmp,green,starting_melody,melody,starting,m,positive,positive,ES_purple,1,m,439,1984401,1984905,1985109
2,second,65,schön,IAT_red3.bmp,red,starting_scream,scream,starting,m,positive,negative,ES_purple,1,m,574,1986678,1987182,1987386
2,second,66,kaputt,IAT_red2.bmp,red,starting_scream,scream,starting,c,negative,negative,ES_purple,1,c,491,1989089,1989593,1989797
2,second,67,lustig,IAT_purple3.bmp,purple,ending_scream,scream,ending,m,positive,positive,ES_purple,1,m,725,1991415,1991920,1992125
2,second,68,human,IAT_red1.bmp,red,starting_scream,scream,starting,m,positive,negative,ES_purple,1,m,541,1993979,1994483,1994687
2,second,69,sozial,IAT_yellow1.bmp,yellow,ending_melody,melody,ending,m,positive,negative,ES_purple,1,m,440,1996359,1996863,1997067
2,second,70,krank,IAT_yellow4.bmp,yellow,ending_melody,melody,ending,c,negative,negative,ES_purple,1,c,459,1998635,1999140,1999344
2,second,71,geizig,IAT_red3.bmp,red,starting_scream,scream,starting,c,negative,negative,ES_purple,1,c,635,2000933,2001437,2001641
2,second,72,lustig,IAT_yellow2.bmp,yellow,ending_melody,melody,ending,m,positive,negative,ES_purple,1,m,516,2003405,2003910,2004115
2,second,73,krank,IAT_yellow3.bmp,yellow,ending_melody,melody,ending,c,negative,negative,ES_purple,1,c,458,2005759,2006263,2006467
2,second,74,sanft,IAT_purple2.bmp,purple,ending_scream,scream,ending,m,positive,positive,ES_purple,1,m,535,2008053,2008557,2008761
2,second,75,ehrlich,IAT_yellow3.bmp,yellow,ending_melody,melody,ending,m,positive,negative,ES_purple,1,m,493,2010426,2010930,2011135
2,second,76,geizig,IAT_yellow4.bmp,yellow,ending_melody,melody,ending,c,negative,negative,ES_purple,1,c,510,2012758,2013263,2013467
2,second,77,kaputt,IAT_green4.bmp,green,starting_melody,melody,starting,c,negative,positive,ES_purple,1,c,488,2015106,2015610,2015815
2,second,78,teuer,IAT_green3.bmp,green,starting_melody,melody,starting,c,negative,positive,ES_purple,1,c,1153,2017432,2017936,2018141
2,second,79,krank,IAT_purple3.bmp,purple,ending_scream,scream,ending,c,negative,positive,ES_purple,1,c,388,2020422,2020926,2021130
2,second,80,sonnig,IAT_purple4.bmp,purple,ending_scream,scream,ending,m,positive,positive,ES_purple,1,m,548,2022646,2023150,2023355
2,second,81,lästig,IAT_green2.bmp,green,starting_melody,melody,starting,c,negative,positive,ES_purple,1,c,525,2025031,2025535,2025739
2,second,82,schön,IAT_yellow1.bmp,yellow,ending_melody,melody,ending,m,positive,negative,ES_purple,1,m,509,2027394,2027898,2028103
2,second,83,gesund,IAT_yellow1.bmp,yellow,ending_melody,melody,ending,m,positive,negative,ES_purple,0,c,366,2029740,2030245,2030449
2,second,84,geizig,IAT_green3.bmp,green,starting_melody,melody,starting,c,negative,positive,ES_purple,1,c,885,2032445,2032949,2033154
2,second,85,morsch,IAT_purple1.bmp,purple,ending_scream,scream,ending,c,negative,positive,ES_purple,1,c,764,2035169,2035673,2035877
2,second,86,lästig,IAT_purple4.bmp,purple,ending_scream,scream,ending,c,negative,positive,ES_purple,1,c,582,2037769,2038273,2038477
2,second,87,sonnig,IAT_yellow3.bmp,yellow,ending_melody,melody,ending,m,positive,negative,ES_purple,1,m,548,2040188,2040692,2040897
2,second,88,morsch,IAT_purple2.bmp,purple,ending_scream,scream,ending,c,negative,positive,ES_purple,1,c,549,2042573,2043077,2043281
2,second,89,brutal,IAT_purple4.bmp,purple,ending_scream,scream,ending,c,negative,positive,ES_purple,1,c,377,2044959,2045463,2045667
2,second,90,feige,IAT_red2.bmp,red,starting_scream,scream,starting,c,negative,negative,ES_purple,1,c,562,2047173,2047677,2047882
2,second,91,munter,IAT_red1.bmp,red,starting_scream,scream,starting,m,positive,negative,ES_purple,0,c,424,2049571,2050076,2050280
2,second,92,sonnig,IAT_green4.bmp,green,starting_melody,melody,starting,m,positive,positive,ES_purple,1,m,393,2052333,2052837,2053041
2,second,93,sanft,IAT_red3.bmp,red,starting_scream,scream,starting,m,positive,negative,ES_purple,1,m,615,2054563,2055068,2055272
2,second,94,gierig,IAT_red4.bmp,red,starting_scream,scream,starting,c,negative,negative,ES_purple,1,c,527,2057019,2057523,2057727
2,second,95,sozial,IAT_green2.bmp,green,starting_melody,melody,starting,m,positive,positive,ES_purple,1,m,458,2059382,2059887,2060091
2,third,0,teuer,IAT_purple2.bmp,purple,ending_scream,scream,ending,c,negative,positive,ES_purple,1,c,659,2095821,2096325,2096529
2,third,1,sanft,IAT_purple3.bmp,purple,ending_scream,scream,ending,m,positive,positive,ES_purple,1,m,483,2098316,2098821,2099026
2,third,2,human,IAT_red2.bmp,red,starting_scream,scream,starting,m,positive,negative,ES_purple,1,m,497,2100635,2101140,2101345
2,third,3,einsam,IAT_green4.bmp,green,starting_melody,melody,starting,c,negative,positive,ES_purple,0,m,436,2102970,2103474,2103678
2,third,4,streng,IAT_yellow1.bmp,yellow,ending_melody,melody,ending,c,negative,negative,ES_purple,1,c,567,2105743,2106247,2106451
2,third,5,feige,IAT_red1.bmp,red,starting_scream,scream,starting,c,negative,negative,ES_purple,1,c,435,2108146,2108650,2108855
2,third,6,morsch,IAT_green4.bmp,green,starting_melody,melody,starting,c,negative,positive,ES_purple,1,c,556,2110417,2110921,2111126
2,third,7,einsam,IAT_green2.bmp,green,starting_melody,melody,starting,c,negative,positive,ES_purple,0,m,456,2112809,2113313,2113517
2,third,8,ehrlich,IAT_green4.bmp,green,starting_melody,melody,starting,m,positive,positive,ES_purple,1,m,426,2115599,2116104,2116308
2,third,9,morsch,IAT_purple4.bmp,purple,ending_scream,scream,ending,c,negative,positive,ES_purple,1,c,426,2117862,2118366,2118570
2,third,10,heiter,IAT_green1.bmp,green,starting_melody,melody,starting,m,positive,positive,ES_purple,1,m,437,2120123,2120627,2120831
2,third,11,lästig,IAT_green1.bmp,green,starting_melody,melody,starting,c,negative,positive,ES_purple,1,c,561,2122395,2122900,2123105
2,third,12,human,IAT_green1.bmp,green,starting_melody,melody,starting,m,positive,positive,ES_purple,0,c,758,2124792,2125296,2125501
2,third,13,gesund,IAT_yellow1.bmp,yellow,ending_melody,melody,ending,m,positive,negative,ES_purple,1,m,846,2127887,2128391,2128596
2,third,14,lustig,IAT_purple2.bmp,purple,ending_scream,scream,ending,m,positive,positive,ES_purple,1,m,492,2130569,2131074,2131278
2,third,15,gierig,IAT_purple2.bmp,purple,ending_scream,scream,ending,c,negative,positive,ES_purple,1,c,532,2132899,2133403,2133607
2,third,16,brutal,IAT_purple3.bmp,purple,ending_scream,scream,ending,c,negative,positive,ES_purple,1,c,404,2135266,2135770,2135975
2,third,17,gesund,IAT_purple2.bmp,purple,ending_scream,scream,ending,m,positive,positive,ES_purple,1,m,601,2137506,2138011,2138216
2,third,18,geizig,IAT_red4.bmp,red,starting_scream,scream,starting,c,negative,negative,ES_purple,1,c,557,2139944,2140449,2140654
2,third,19,feige,IAT_red1.bmp,red,starting_scream,scream,starting,c,negative,negative,ES_purple,1,c,467,2142339,2142843,2143047
2,third,20,falsch,IAT_yellow2.bmp,yellow,ending_melody,melody,ending,c,negative,negative,ES_purple,1,c,397,2144642,2145146,2145350
2,third,21,sozial,IAT_red3.bmp,red,starting_scream,scream,starting,m,positive,negative,ES_purple,0,c,285,2146876,2147381,2147586
2,third,22,feige,IAT_yellow4.bmp,yellow,ending_melody,melody,ending,c,negative,negative,ES_purple,1,c,488,2149499,2150004,2150209
2,third,23,streng,IAT_purple4.bmp,purple,ending_scream,scream,ending,c,negative,positive,ES_purple,1,c,544,2151823,2152328,2152533
2,third,24,kaputt,IAT_purple1.bmp,purple,ending_scream,scream,ending,c,negative,positive,ES_purple,1,c,444,2154205,2154710,2154915
2,third,25,human,IAT_red2.bmp,red,starting_scream,scream,starting,m,positive,negative,ES_purple,1,m,524,2156487,2156992,2157197
2,third,26,morsch,IAT_green2.bmp,green,starting_melody,melody,starting,c,negative,positive,ES_purple,1,c,508,2158847,2159352,2159557
2,third,27,witzig,IAT_green1.bmp,green,starting_melody,melody,starting,m,positive,positive,ES_purple,1,m,443,2161192,2161697,2161901
2,third,28,einsam,IAT_red2.bmp,red,starting_scream,scream,starting,c,negative,negative,ES_purple,1,c,1128,2163472,2163976,2164180
2,third,29,heiter,IAT_purple4.bmp,purple,ending_scream,scream,ending,m,positive,positive,ES_purple,1,m,692,2166436,2166941,2167146
2,third,30,sonnig,IAT_purple3.bmp,purple,ending_scream,scream,ending,m,positive,positive,ES_purple,1,m,465,2168965,2169470,2169675
2,third,31,witzig,IAT_green3.bmp,green,starting_melody,melody,starting,m,positive,positive,ES_purple,1,m,393,2171270,2171775,2171979
2,third,32,krank,IAT_green3.bmp,green,starting_melody,melody,starting,c,negative,positive,ES_purple,1,c,589,2173501,2174005,2174209
2,third,33,sonnig,IAT_green2.bmp,green,starting_melody,melody,starting,m,positive,positive,ES_purple,1,m,432,2175926,2176430,2176635
2,third,34,lästig,IAT_yellow3.bmp,yellow,ending_melody,melody,ending,c,negative,negative,ES_purple,0,m,448,2178195,2178699,2178904
2,third,35,sozial,IAT_red3.bmp,red,starting_scream,scream,starting,m,positive,negative,ES_purple,1,m,486,2180980,2181484,2181688
2,third,36,kaputt,IAT_red2.bmp,red,starting_scream,scream,starting,c,negative,negative,ES_purple,1,c,460,2183301,2183806,2184010
2,third,37,lästig,IAT_red4.bmp,red,starting_scream,scream,starting,c,negative,negative,ES_purple,0,m,435,2185599,2186103,2186307
2,third,38,witzig,IAT_red4.bmp,red,starting_scream,scream,starting,m,positive,negative,ES_purple,0,c,687,2188370,2188874,2189078
2,third,39,falsch,IAT_purple4.bmp,purple,ending_scream,scream,ending,c,negative,positive,ES_purple,1,c,512,2191393,2191897,2192101
2,third,40,munter,IAT_purple1.bmp,purple,ending_scream,scream,ending,m,positive,positive,ES_purple,1,m,1036,2193742,2194246,2194450
2,third,41,geizig,IAT_yellow3.bmp,yellow,ending_melody,melody,ending,c,negative,negative,ES_purple,1,c,600,2196615,2197119,2197324
2,third,42,gesund,IAT_green3.bmp,green,starting_melody,melody,starting,m,positive,positive,ES_purple,1,m,404,2199053,2199557,2199761
2,third,43,gerecht,IAT_yellow2.bmp,yellow,ending_melody,melody,ending,m,positive,negative,ES_purple,0,c,497,2201294,2201798,2202003
2,third,44,brutal,IAT_red3.bmp,red,starting_scream,scream,starting,c,negative,negative,ES_purple,1,c,515,2204127,2204631,2204836
2,third,45,falsch,IAT_red2.bmp,red,starting_scream,scream,starting,c,negative,negative,ES_purple,1,c,476,2206480,2206984,2207188
2,third,46,feige,IAT_green4.bmp,green,starting_melody,melody,starting,c,negative,positive,ES_purple,0,m,395,2208793,2209297,2209501
2,third,47,einsam,IAT_purple2.bmp,purple,ending_scream,scream,ending,c,negative,positive,ES_purple,0,m,567,2211525,2212030,2212235
2,third,48,gierig,IAT_purple1.bmp,purple,ending_scream,scream,ending,c,negative,positive,ES_purple,1,c,525,2214429,2214934,2215139
2,third,49,sanft,IAT_yellow1.bmp,yellow,ending_melody,melody,ending,m,positive,negative,ES_purple,1,m,474,2216793,2217297,2217501
2,third,50,sozial,IAT_purple1.bmp,purple,ending_scream,scream,ending,m,positive,positive,ES_purple,1,m,406,2219103,2219608,2219813
2,third,51,krank,IAT_yellow4.bmp,yellow,ending_melody,melody,ending,c,negative,negative,ES_purple,1,c,609,2221347,2221851,2222056
2,third,52,geizig,IAT_green3.bmp,green,starting_melody,melody,starting,c,negative,positive,ES_purple,0,m,510,2223793,2224297,2224501
2,third,53,teuer,IAT_purple3.bmp,purple,ending_scream,scream,ending,c,negative,positive,ES_purple,1,c,328,2226639,2227143,2227349
2,third,54,geizig,IAT_yellow4.bmp,yellow,ending_melody,melody,ending,c,negative,negative,ES_purple,1,c,595,2228806,2229311,2229516
2,third,55,schön,IAT_yellow3.bmp,yellow,ending_melody,melody,ending,m,positive,negative,ES_purple,1,m,482,2231240,2231745,2231949
2,third,56,krank,IAT_yellow1.bmp,yellow,ending_melody,melody,ending,c,negative,negative,ES_purple,1,c,439,2233559,2234064,2234268
2,third,57,streng,IAT_red4.bmp,red,starting_scream,scream,starting,c,negative,negative,ES_purple,1,c,590,2235835,2236339,2236544
2,third,58,heiter,IAT_yellow3.bmp,yellow,ending_melody,melody,ending,m,positive,negative,ES_purple,1,m,474,2238262,2238767,2238971
2,third,59,teuer,IAT_yellow2.bmp,yellow,ending_melody,melody,ending,c,negative,negative,ES_purple,1,c,517,2240573,2241078,2241283
2,third,60,gierig,IAT_purple4.bmp,purple,ending_scream,scream,ending,c,negative,positive,ES_purple,1,c,501,2242927,2243432,2243637
2,third,61,falsch,IAT_green4.bmp,green,starting_melody,melody,starting,c,negative,positive,ES_purple,1,c,477,2245266,2245770,2245975
2,third,62,lustig,IAT_green2.bmp,green,starting_melody,melody,starting,m,positive,positive,ES_purple,1,m,493,2247580,2248084,2248289
2,third,63,gierig,IAT_purple2.bmp,purple,ending_scream,scream,ending,c,negative,positive,ES_purple,1,c,519,2249910,2250414,2250619
2,third,64,morsch,IAT_red3.bmp,red,starting_scream,scream,starting,c,negative,negative,ES_purple,1,c,414,2252267,2252771,2252976
2,third,65,teuer,IAT_green1.bmp,green,starting_melody,melody,starting,c,negative,positive,ES_purple,1,c,454,2254518,2255023,2255227
2,third,66,heiter,IAT_red1.bmp,red,starting_scream,scream,starting,m,positive,negative,ES_purple,1,m,1051,2256809,2257314,2257518
2,third,67,lustig,IAT_yellow3.bmp,yellow,ending_melody,melody,ending,m,positive,negative,ES_purple,0,c,438,2259699,2260204,2260409
2,third,68,gerecht,IAT_green1.bmp,green,starting_melody,melody,starting,m,positive,positive,ES_purple,0,c,454,2262476,2262980,2263185
2,third,69,munter,IAT_yellow4.bmp,yellow,ending_melody,melody,ending,m,positive,negative,ES_purple,1,m,940,2265269,2265774,2265979
2,third,70,sonnig,IAT_red3.bmp,red,starting_scream,scream,starting,m,positive,negative,ES_purple,1,m,608,2268050,2268554,2268758
2,third,71,streng,IAT_green2.bmp,green,starting_melody,melody,starting,c,negative,positive,ES_purple,1,c,632,2270495,2270999,2271204
2,third,72,ehrlich,IAT_red1.bmp,red,starting_scream,scream,starting,m,positive,negative,ES_purple,1,m,865,2272965,2273470,2273675
2,third,73,brutal,IAT_yellow2.bmp,yellow,ending_melody,melody,ending,c,negative,negative,ES_purple,1,c,474,2275669,2276173,2276377
2,third,74,schön,IAT_green3.bmp,green,starting_melody,melody,starting,m,positive,positive,ES_purple,1,m,470,2277980,2278485,2278690
2,third,75,human,IAT_yellow3.bmp,yellow,ending_melody,melody,ending,m,positive,negative,ES_purple,1,m,552,2280290,2280795,2280999
2,third,76,ehrlich,IAT_yellow4.bmp,yellow,ending_melody,melody,ending,m,positive,negative,ES_purple,0,c,611,2282682,2283186,2283391
2,third,77,witzig,IAT_yellow1.bmp,yellow,ending_melody,melody,ending,m,positive,negative,ES_purple,1,m,914,2285632,2286137,2286342
2,third,78,kaputt,IAT_yellow2.bmp,yellow,ending_melody,melody,ending,c,negative,negative,ES_purple,1,c,510,2288387,2288892,2289096
2,third,79,gerecht,IAT_purple1.bmp,purple,ending_scream,scream,ending,m,positive,positive,ES_purple,1,m,644,2290735,2291239,2291444
2,third,80,brutal,IAT_red2.bmp,red,starting_scream,scream,starting,c,negative,negative,ES_purple,1,c,475,2293217,2293722,2293927
2,third,81,sanft,IAT_green3.bmp,green,starting_melody,melody,starting,m,positive,positive,ES_purple,1,m,456,2295532,2296036,2296240
2,third,82,ehrlich,IAT_red4.bmp,red,starting_scream,scream,starting,m,positive,negative,ES_purple,1,m,499,2297826,2298330,2298535
2,third,83,krank,IAT_yellow4.bmp,yellow,ending_melody,melody,ending,c,negative,negative,ES_purple,1,c,484,2300164,2300668,2300872
2,third,84,schön,IAT_red3.bmp,red,starting_scream,scream,starting,m,positive,negative,ES_purple,1,m,394,2302487,2302991,2303196
2,third,85,munter,IAT_purple3.bmp,purple,ending_scream,scream,ending,m,positive,positive,ES_purple,1,m,545,2304719,2305223,2305427
2,third,86,sanft,IAT_green4.bmp,green,starting_melody,melody,starting,m,positive,positive,ES_purple,1,m,499,2307101,2307605,2307809
2,third,87,gerecht,IAT_yellow2.bmp,yellow,ending_melody,melody,ending,m,positive,negative,ES_purple,0,c,623,2309438,2309943,2310147
2,third,88,sonnig,IAT_purple3.bmp,purple,ending_scream,scream,ending,m,positive,positive,ES_purple,1,m,538,2312398,2312902,2313107
2,third,89,sozial,IAT_purple1.bmp,purple,ending_scream,scream,ending,m,positive,positive,ES_purple,1,m,551,2314774,2315279,2315483
2,third,90,schön,IAT_yellow1.bmp,yellow,ending_melody,melody,ending,m,positive,negative,ES_purple,1,m,331,2317163,2317668,2317872
2,third,91,kaputt,IAT_red4.bmp,red,starting_scream,scream,starting,c,negative,negative,ES_purple,1,c,853,2319334,2319838,2320042
2,third,92,gesund,IAT_purple4.bmp,purple,ending_scream,scream,ending,m,positive,positive,ES_purple,1,m,378,2322024,2322528,2322732
2,third,93,lästig,IAT_green2.bmp,green,starting_melody,melody,starting,c,negative,positive,ES_purple,0,m,511,2324239,2324743,2324947
2,third,94,munter,IAT_red1.bmp,red,starting_scream,scream,starting,m,positive,negative,ES_purple,1,m,638,2327087,2327591,2327796
2,third,95,lustig,IAT_red1.bmp,red,starting_scream,scream,starting,m,positive,negative,ES_purple,1,m,487,2329564,2330068,2330272
2,forth,0,gesund,IAT_green1.bmp,green,starting_melody,melody,starting,m,positive,positive,ES_purple,1,m,506,2360545,2361049,2361254
2,forth,1,schön,IAT_yellow2.bmp,yellow,ending_melody,melody,ending,m,positive,negative,ES_purple,1,m,444,2362888,2363393,2363597
2,forth,2,sanft,IAT_red3.bmp,red,starting_scream,scream,starting,m,positive,negative,ES_purple,1,m,505,2365169,2365674,2365878
2,forth,3,human,IAT_yellow2.bmp,yellow,ending_melody,melody,ending,m,positive,negative,ES_purple,1,m,440,2367512,2368016,2368220
2,forth,4,heiter,IAT_purple4.bmp,purple,ending_scream,scream,ending,m,positive,positive,ES_purple,1,m,433,2369787,2370291,2370496
2,forth,5,geizig,IAT_red4.bmp,red,starting_scream,scream,starting,c,negative,negative,ES_purple,1,c,484,2372056,2372560,2372765
2,forth,6,gerecht,IAT_red1.bmp,red,starting_scream,scream,starting,m,positive,negative,ES_purple,1,m,497,2374376,2374881,2375086
2,forth,7,munter,IAT_green3.bmp,green,starting_melody,melody,starting,m,positive,positive,ES_purple,1,m,421,2376711,2377216,2377420
2,forth,8,heiter,IAT_yellow3.bmp,yellow,ending_melody,melody,ending,m,positive,negative,ES_purple,1,m,424,2378970,2379474,2379678
2,forth,9,sonnig,IAT_green3.bmp,green,starting_melody,melody,starting,m,positive,positive,ES_purple,1,m,449,2381230,2381734,2381939
2,forth,10,lästig,IAT_green2.bmp,green,starting_melody,melody,starting,c,negative,positive,ES_purple,0,m,438,2383516,2384020,2384225
2,forth,11,ehrlich,IAT_purple3.bmp,purple,ending_scream,scream,ending,m,positive,positive,ES_purple,0,c,378,2386291,2386796,2387000
2,forth,12,geizig,IAT_red4.bmp,red,starting_scream,scream,starting,c,negative,negative,ES_purple,1,c,738,2389007,2389511,2389716
2,forth,13,lustig,IAT_red3.bmp,red,starting_scream,scream,starting,m,positive,negative,ES_purple,1,m,406,2391581,2392086,2392291
2,forth,14,gerecht,IAT_red3.bmp,red,starting_scream,scream,starting,m,positive,negative,ES_purple,1,m,427,2393826,2394330,2394535
2,forth,15,streng,IAT_red3.bmp,red,starting_scream,scream,starting,c,negative,negative,ES_purple,1,c,421,2396091,2396595,2396799
2,forth,16,falsch,IAT_red4.bmp,red,starting_scream,scream,starting,c,negative,negative,ES_purple,1,c,449,2398349,2398853,2399057
2,forth,17,ehrlich,IAT_red4.bmp,red,starting_scream,scream,starting,m,positive,negative,ES_purple,1,m,509,2400634,2401139,2401343
2,forth,18,kaputt,IAT_green3.bmp,green,starting_melody,melody,starting,c,negative,positive,ES_purple,1,c,456,2402981,2403485,2403689
2,forth,19,munter,IAT_yellow1.bmp,yellow,ending_melody,melody,ending,m,positive,negative,ES_purple,1,m,370,2405275,2405779,2405984
2,forth,20,teuer,IAT_yellow2.bmp,yellow,ending_melody,melody,ending,c,negative,negative,ES_purple,1,c,549,2407482,2407986,2408190
2,forth,21,brutal,IAT_purple3.bmp,purple,ending_scream,scream,ending,c,negative,positive,ES_purple,1,c,475,2409868,2410373,2410578
2,forth,22,gesund,IAT_purple3.bmp,purple,ending_scream,scream,ending,m,positive,positive,ES_purple,1,m,386,2412182,2412686,2412890
2,forth,23,krank,IAT_green4.bmp,green,starting_melody,melody,starting,c,negative,positive,ES_purple,1,c,406,2414406,2414910,2415115
2,forth,24,lästig,IAT_purple2.bmp,purple,ending_scream,scream,ending,c,negative,positive,ES_purple,1,c,582,2416649,2417154,2417358
2,forth,25,munter,IAT_red4.bmp,red,starting_scream,scream,starting,m,positive,negative,ES_purple,1,m,418,2419069,2419573,2419777
2,forth,26,teuer,IAT_red2.bmp,red,starting_scream,scream,starting,c,negative,negative,ES_purple,1,c,480,2421324,2421828,2422032
2,forth,27,krank,IAT_red2.bmp,red,starting_scream,scream,starting,c,negative,negative,ES_purple,1,c,410,2423640,2424145,2424349
2,forth,28,witzig,IAT_red1.bmp,red,starting_scream,scream,starting,m,positive,negative,ES_purple,1,m,467,2425889,2426394,2426599
2,forth,29,kaputt,IAT_yellow2.bmp,yellow,ending_melody,melody,ending,c,negative,negative,ES_purple,1,c,409,2428194,2428698,2428903
2,forth,30,sozial,IAT_green4.bmp,green,starting_melody,melody,starting,m,positive,positive,ES_purple,1,m,317,2430442,2430946,2431150
2,forth,31,heiter,IAT_purple2.bmp,purple,ending_scream,scream,ending,m,positive,positive,ES_purple,0,c,338,2432596,2433100,2433305
2,forth,32,morsch,IAT_yellow3.bmp,yellow,ending_melody,melody,ending,c,negative,negative,ES_purple,1,c,484,2435272,2435776,2435980
2,forth,33,brutal,IAT_green1.bmp,green,starting_melody,melody,starting,c,negative,positive,ES_purple,0,m,349,2437593,2438097,2438301
2,forth,34,morsch,IAT_purple3.bmp,purple,ending_scream,scream,ending,c,negative,positive,ES_purple,1,c,481,2440279,2440783,2440989
2,forth,35,gierig,IAT_green2.bmp,green,starting_melody,melody,starting,c,negative,positive,ES_purple,0,m,367,2442599,2443103,2443307
2,forth,36,teuer,IAT_green4.bmp,green,starting_melody,melody,starting,c,negative,positive,ES_purple,0,m,448,2445303,2445807,2446011
2,forth,37,sanft,IAT_green3.bmp,green,starting_melody,melody,starting,m,positive,positive,ES_purple,1,m,479,2448089,2448593,2448797
2,forth,38,witzig,IAT_purple3.bmp,purple,ending_scream,scream,ending,m,positive,positive,ES_purple,1,m,483,2450405,2450911,2451116
2,forth,39,morsch,IAT_yellow1.bmp,yellow,ending_melody,melody,ending,c,negative,negative,ES_purple,1,c,431,2452728,2453233,2453437
2,forth,40,sonnig,IAT_green4.bmp,green,starting_melody,melody,starting,m,positive,positive,ES_purple,1,m,544,2454996,2455501,2455706
2,forth,41,witzig,IAT_green1.bmp,green,starting_melody,melody,starting,m,positive,positive,ES_purple,1,m,533,2457379,2457883,2458087
2,forth,42,falsch,IAT_yellow2.bmp,yellow,ending_melody,melody,ending,c,negative,negative,ES_purple,1,c,507,2459749,2460254,2460459
2,forth,43,lästig,IAT_green2.bmp,green,starting_melody,melody,starting,c,negative,positive,ES_purple,1,c,1098,2462095,2462599,2462804
2,forth,44,sozial,IAT_purple2.bmp,purple,ending_scream,scream,ending,m,positive,positive,ES_purple,0,c,372,2465031,2465535,2465739
2,forth,45,schön,IAT_purple1.bmp,purple,ending_scream,scream,ending,m,positive,positive,ES_purple,1,m,353,2467741,2468245,2468449
2,forth,46,einsam,IAT_yellow1.bmp,yellow,ending_melody,melody,ending,c,negative,negative,ES_purple,1,c,750,2469932,2470437,2470641
2,forth,47,morsch,IAT_purple4.bmp,purple,ending_scream,scream,ending,c,negative,positive,ES_purple,1,c,441,2472522,2473026,2473230
2,forth,48,lustig,IAT_purple4.bmp,purple,ending_scream,scream,ending,m,positive,positive,ES_purple,1,m,708,2474800,2475304,2475508
2,forth,49,ehrlich,IAT_red2.bmp,red,starting_scream,scream,starting,m,positive,negative,ES_purple,1,m,759,2477346,2477851,2478056
2,forth,50,streng,IAT_red1.bmp,red,starting_scream,scream,starting,c,negative,negative,ES_purple,1,c,588,2479943,2480448,2480652
2,forth,51,sanft,IAT_green1.bmp,green,starting_melody,melody,starting,m,positive,positive,ES_purple,1,m,356,2482369,2482873,2483077
2,forth,52,gierig,IAT_purple2.bmp,purple,ending_scream,scream,ending,c,negative,positive,ES_purple,1,c,744,2484563,2485067,2485273
2,forth,53,heiter,IAT_purple1.bmp,purple,ending_scream,scream,ending,m,positive,positive,ES_purple,1,m,533,2487148,2487652,2487857
2,forth,54,streng,IAT_red3.bmp,red,starting_scream,scream,starting,c,negative,negative,ES_purple,0,None,1500,2489519,2490024,2490229
2,forth,55,human,IAT_yellow3.bmp,yellow,ending_melody,melody,ending,m,positive,negative,ES_purple,1,m,383,2493859,2494363,2494567
2,forth,56,sozial,IAT_green2.bmp,green,starting_melody,melody,starting,m,positive,positive,ES_purple,1,m,496,2496079,2496583,2496787
2,forth,57,human,IAT_red2.bmp,red,starting_scream,scream,starting,m,positive,negative,ES_purple,1,m,510,2498413,2498917,2499121
2,forth,58,lustig,IAT_red3.bmp,red,starting_scream,scream,starting,m,positive,negative,ES_purple,1,m,618,2500760,2501265,2501469
2,forth,59,krank,IAT_yellow4.bmp,yellow,ending_melody,melody,ending,c,negative,negative,ES_purple,1,c,475,2503217,2503721,2503926
2,forth,60,einsam,IAT_green1.bmp,green,starting_melody,melody,starting,c,negative,positive,ES_purple,0,m,314,2505530,2506034,2506238
2,forth,61,kaputt,IAT_green4.bmp,green,starting_melody,melody,starting,c,negative,positive,ES_purple,1,c,476,2508182,2508686,2508891
2,forth,62,gierig,IAT_green4.bmp,green,starting_melody,melody,starting,c,negative,positive,ES_purple,1,c,607,2510497,2511001,2511206
2,forth,63,feige,IAT_green3.bmp,green,starting_melody,melody,starting,c,negative,positive,ES_purple,1,c,547,2512942,2513447,2513651
2,forth,64,brutal,IAT_green2.bmp,green,starting_melody,melody,starting,c,negative,positive,ES_purple,1,c,442,2515329,2515833,2516037
2,forth,65,lästig,IAT_yellow2.bmp,yellow,ending_melody,melody,ending,c,negative,negative,ES_purple,1,c,559,2517609,2518113,2518317
2,forth,66,sonnig,IAT_red1.bmp,red,starting_scream,scream,starting,m,positive,negative,ES_purple,0,c,304,2520006,2520510,2520715
2,forth,67,lustig,IAT_purple3.bmp,purple,ending_scream,scream,ending,m,positive,positive,ES_purple,1,m,535,2522648,2523153,2523357
2,forth,68,streng,IAT_purple2.bmp,purple,ending_scream,scream,ending,c,negative,positive,ES_purple,1,c,748,2525022,2525526,2525730
2,forth,69,sonnig,IAT_yellow4.bmp,yellow,ending_melody,melody,ending,m,positive,negative,ES_purple,1,m,582,2527609,2528113,2528319
2,forth,70,gesund,IAT_yellow1.bmp,yellow,ending_melody,melody,ending,m,positive,negative,ES_purple,1,m,542,2530032,2530536,2530740
2,forth,71,gerecht,IAT_yellow1.bmp,yellow,ending_melody,melody,ending,m,positive,negative,ES_purple,1,m,1024,2532413,2532917,2533121
2,forth,72,feige,IAT_purple2.bmp,purple,ending_scream,scream,ending,c,negative,positive,ES_purple,1,c,676,2535276,2535780,2535985
2,forth,73,teuer,IAT_red2.bmp,red,starting_scream,scream,starting,c,negative,negative,ES_purple,1,c,513,2537790,2538295,2538499
2,forth,74,sozial,IAT_yellow3.bmp,yellow,ending_melody,melody,ending,m,positive,negative,ES_purple,1,m,520,2540143,2540647,2540851
2,forth,75,feige,IAT_red1.bmp,red,starting_scream,scream,starting,c,negative,negative,ES_purple,1,c,526,2542502,2543006,2543210
2,forth,76,schön,IAT_green3.bmp,green,starting_melody,melody,starting,m,positive,positive,ES_purple,1,m,585,2544867,2545371,2545576
2,forth,77,kaputt,IAT_yellow4.bmp,yellow,ending_melody,melody,ending,c,negative,negative,ES_purple,1,c,632,2547291,2547795,2547999
2,forth,78,human,IAT_yellow3.bmp,yellow,ending_melody,melody,ending,m,positive,negative,ES_purple,1,m,485,2549761,2550266,2550470
2,forth,79,sanft,IAT_red1.bmp,red,starting_scream,scream,starting,m,positive,negative,ES_purple,0,c,352,2552086,2552590,2552795
2,forth,80,gierig,IAT_purple4.bmp,purple,ending_scream,scream,ending,c,negative,positive,ES_purple,1,c,466,2554775,2555280,2555485
2,forth,81,brutal,IAT_red4.bmp,red,starting_scream,scream,starting,c,negative,negative,ES_purple,1,c,446,2557082,2557586,2557791
2,forth,82,schön,IAT_yellow1.bmp,yellow,ending_melody,melody,ending,m,positive,negative,ES_purple,1,m,433,2559369,2559874,2560078
2,forth,83,falsch,IAT_red2.bmp,red,starting_scream,scream,starting,c,negative,negative,ES_purple,1,c,446,2561641,2562145,2562350
2,forth,84,geizig,IAT_yellow4.bmp,yellow,ending_melody,melody,ending,c,negative,negative,ES_purple,1,c,425,2563928,2564432,2564637
2,forth,85,einsam,IAT_purple4.bmp,purple,ending_scream,scream,ending,c,negative,positive,ES_purple,0,m,403,2566192,2566696,2566900
2,forth,86,munter,IAT_green2.bmp,green,starting_melody,melody,starting,m,positive,positive,ES_purple,1,m,906,2568933,2569437,2569641
2,forth,87,geizig,IAT_yellow4.bmp,yellow,ending_melody,melody,ending,c,negative,negative,ES_purple,1,c,447,2571678,2572183,2572387
2,forth,88,krank,IAT_purple1.bmp,purple,ending_scream,scream,ending,c,negative,positive,ES_purple,1,c,542,2573966,2574471,2574676
2,forth,89,feige,IAT_purple4.bmp,purple,ending_scream,scream,ending,c,negative,positive,ES_purple,1,c,545,2576348,2576852,2577057
2,forth,90,gerecht,IAT_purple1.bmp,purple,ending_scream,scream,ending,m,positive,positive,ES_purple,0,c,468,2578732,2579236,2579440
2,forth,91,einsam,IAT_purple1.bmp,purple,ending_scream,scream,ending,c,negative,positive,ES_purple,0,m,1426,2581540,2582044,2582249
2,forth,92,witzig,IAT_yellow4.bmp,yellow,ending_melody,melody,ending,m,positive,negative,ES_purple,1,m,530,2585305,2585809,2586014
2,forth,93,gesund,IAT_green1.bmp,green,starting_melody,melody,starting,m,positive,positive,ES_purple,1,m,528,2587674,2588178,2588383
2,forth,94,falsch,IAT_yellow3.bmp,yellow,ending_melody,melody,ending,c,negative,negative,ES_purple,1,c,450,2590041,2590545,2590749
2,forth,95,ehrlich,IAT_purple1.bmp,purple,ending_scream,scream,ending,m,positive,positive,ES_purple,1,m,590,2592331,2592835,2593039
