subject_nr,block,trialnr,trial_target,trial_prime,prime_color,prime_role,prime_us,prime_relation,correct_response,target_valence,prime_valence,color_counter,correct_first_response,response_first_response,response_time_first_response,fixation_show,prime_show,target_show
13,first,0,witzig,IAT_green4.bmp,green,starting_scream,scream,starting,m,positive,negative,ES_yellow,1,m,684,1500743,1501247,1501451
13,first,1,schön,IAT_purple1.bmp,purple,ending_melody,melody,ending,m,positive,negative,ES_yellow,1,m,898,1503212,1503716,1503920
13,first,2,feige,IAT_yellow3.bmp,yellow,ending_scream,scream,ending,c,negative,positive,ES_yellow,1,c,561,1505892,1506396,1506600
13,first,3,gierig,IAT_purple1.bmp,purple,ending_melody,melody,ending,c,negative,negative,ES_yellow,1,c,578,1508235,1508739,1508943
13,first,4,sozial,IAT_red4.bmp,red,starting_melody,melody,starting,m,positive,positive,ES_yellow,1,m,561,1510595,1511099,1511303
13,first,5,gerecht,IAT_yellow1.bmp,yellow,ending_scream,scream,ending,m,positive,positive,ES_yellow,0,c,458,1512938,1513442,1513646
13,first,6,munter,IAT_yellow1.bmp,yellow,ending_scream,scream,ending,m,positive,positive,ES_yellow,1,m,698,1515679,1516183,1516387
13,first,7,kaputt,IAT_red1.bmp,red,starting_melody,melody,starting,c,negative,positive,ES_yellow,1,c,613,1518160,1518664,1518868
13,first,8,krank,IAT_red3.bmp,red,starting_melody,melody,starting,c,negative,positive,ES_yellow,1,c,870,1520555,1521059,1521263
13,first,9,witzig,IAT_green1.bmp,green,starting_scream,scream,starting,m,positive,negative,ES_yellow,1,m,634,1523206,1523711,1523915
13,first,10,schön,IAT_purple4.bmp,purple,ending_melody,melody,ending,m,positive,negative,ES_yellow,1,m,760,1525624,1526128,1526332
13,first,11,falsch,IAT_green2.bmp,green,starting_scream,scream,starting,c,negative,negative,ES_yellow,1,c,704,1528165,1528670,1528874
13,first,12,ehrlich,IAT_yellow3.bmp,yellow,ending_scream,scream,ending,m,positive,positive,ES_yellow,1,m,855,1530654,1531158,1531362
13,first,13,heiter,IAT_purple3.bmp,purple,ending_melody,melody,ending,m,positive,negative,ES_yellow,1,m,857,1533291,1533795,1533999
13,first,14,geizig,IAT_purple4.bmp,purple,ending_melody,melody,ending,c,negative,negative,ES_yellow,1,c,605,1535930,1536435,1536639
13,first,15,brutal,IAT_green2.bmp,green,starting_scream,scream,starting,c,negative,negative,ES_yellow,1,c,620,1538319,1538823,1539027
13,first,16,streng,IAT_purple4.bmp,purple,ending_melody,melody,ending,c,negative,negative,ES_yellow,1,c,499,1540721,1541225,1541429
13,first,17,gesund,IAT_green1.bmp,green,starting_scream,scream,starting,m,positive,negative,ES_yellow,0,c,371,1543002,1543506,1543710
13,first,18,brutal,IAT_yellow1.bmp,yellow,ending_scream,scream,ending,c,negative,positive,ES_yellow,1,c,512,1545655,1546160,1546364
13,first,19,gierig,IAT_green2.bmp,green,starting_scream,scream,starting,c,negative,negative,ES_yellow,1,c,305,1547949,1548454,1548658
13,first,20,sozial,IAT_red1.bmp,red,starting_melody,melody,starting,m,positive,positive,ES_yellow,1,m,301,1550038,1550542,1550746
13,first,21,gesund,IAT_red3.bmp,red,starting_melody,melody,starting,m,positive,positive,ES_yellow,1,m,337,1552122,1552626,1552830
13,first,22,geizig,IAT_purple4.bmp,purple,ending_melody,melody,ending,c,negative,negative,ES_yellow,1,c,577,1554242,1554746,1554950
13,first,23,falsch,IAT_yellow4.bmp,yellow,ending_scream,scream,ending,c,negative,positive,ES_yellow,1,c,521,1556601,1557106,1557310
13,first,24,einsam,IAT_purple3.bmp,purple,ending_melody,melody,ending,c,negative,negative,ES_yellow,0,m,500,1558905,1559409,1559613
13,first,25,teuer,IAT_red2.bmp,red,starting_melody,melody,starting,c,negative,positive,ES_yellow,1,c,594,1561688,1562192,1562396
13,first,26,lustig,IAT_purple1.bmp,purple,ending_melody,melody,ending,m,positive,negative,ES_yellow,1,m,962,1564064,1564569,1564773
13,first,27,sanft,IAT_purple3.bmp,purple,ending_melody,melody,ending,m,positive,negative,ES_yellow,0,c,549,1566810,1567314,1567518
13,first,28,feige,IAT_yellow4.bmp,yellow,ending_scream,scream,ending,c,negative,positive,ES_yellow,1,c,546,1569642,1570146,1570350
13,first,29,streng,IAT_green2.bmp,green,starting_scream,scream,starting,c,negative,negative,ES_yellow,1,c,492,1571971,1572475,1572679
13,first,30,lästig,IAT_red3.bmp,red,starting_melody,melody,starting,c,negative,positive,ES_yellow,0,m,324,1574246,1574750,1574954
13,first,31,sonnig,IAT_yellow2.bmp,yellow,ending_scream,scream,ending,m,positive,positive,ES_yellow,0,c,284,1576854,1577358,1577562
13,first,32,morsch,IAT_green4.bmp,green,starting_scream,scream,starting,c,negative,negative,ES_yellow,1,c,384,1579420,1579924,1580128
13,first,33,ehrlich,IAT_purple4.bmp,purple,ending_melody,melody,ending,m,positive,negative,ES_yellow,0,c,458,1581585,1582090,1582294
13,first,34,lästig,IAT_red4.bmp,red,starting_melody,melody,starting,c,negative,positive,ES_yellow,0,m,402,1584326,1584831,1585035
13,first,35,gierig,IAT_red1.bmp,red,starting_melody,melody,starting,c,negative,positive,ES_yellow,0,m,372,1587012,1587516,1587720
13,first,36,krank,IAT_yellow2.bmp,yellow,ending_scream,scream,ending,c,negative,positive,ES_yellow,1,c,459,1589666,1590170,1590374
13,first,37,human,IAT_red2.bmp,red,starting_melody,melody,starting,m,positive,positive,ES_yellow,1,m,582,1591908,1592412,1592616
13,first,38,gesund,IAT_yellow3.bmp,yellow,ending_scream,scream,ending,m,positive,positive,ES_yellow,0,c,371,1594272,1594776,1594980
13,first,39,schön,IAT_red3.bmp,red,starting_melody,melody,starting,m,positive,positive,ES_yellow,1,m,451,1596925,1597430,1597634
13,first,40,teuer,IAT_purple4.bmp,purple,ending_melody,melody,ending,c,negative,negative,ES_yellow,1,c,372,1599160,1599664,1599868
13,first,41,morsch,IAT_green3.bmp,green,starting_scream,scream,starting,c,negative,negative,ES_yellow,1,c,468,1601315,1601819,1602023
13,first,42,sozial,IAT_green1.bmp,green,starting_scream,scream,starting,m,positive,negative,ES_yellow,1,m,648,1603566,1604070,1604274
13,first,43,lustig,IAT_green4.bmp,green,starting_scream,scream,starting,m,positive,negative,ES_yellow,1,m,603,1605996,1606501,1606705
13,first,44,gerecht,IAT_green3.bmp,green,starting_scream,scream,starting,m,positive,negative,ES_yellow,1,m,565,1608383,1608887,1609091
13,first,45,einsam,IAT_yellow4.bmp,yellow,ending_scream,scream,ending,c,negative,positive,ES_yellow,1,c,578,1610731,1611235,1611439
13,first,46,krank,IAT_green1.bmp,green,starting_scream,scream,starting,c,negative,negative,ES_yellow,1,c,573,1613090,1613595,1613799
13,first,47,morsch,IAT_purple2.bmp,purple,ending_melody,melody,ending,c,negative,negative,ES_yellow,1,c,555,1615447,1615952,1616156
13,first,48,einsam,IAT_red2.bmp,red,starting_melody,melody,starting,c,negative,positive,ES_yellow,0,m,372,1617786,1618290,1618494
13,first,49,kaputt,IAT_green4.bmp,green,starting_scream,scream,starting,c,negative,negative,ES_yellow,1,c,390,1620440,1620944,1621148
13,first,50,human,IAT_green2.bmp,green,starting_scream,scream,starting,m,positive,negative,ES_yellow,0,c,348,1622613,1623117,1623321
13,first,51,schön,IAT_yellow3.bmp,yellow,ending_scream,scream,ending,m,positive,positive,ES_yellow,1,m,456,1625244,1625749,1625953
13,first,52,lästig,IAT_purple2.bmp,purple,ending_melody,melody,ending,c,negative,negative,ES_yellow,0,m,510,1627484,1627989,1628193
13,first,53,sanft,IAT_red1.bmp,red,starting_melody,melody,starting,m,positive,positive,ES_yellow,1,m,496,1630278,1630782,1630986
13,first,54,witzig,IAT_yellow1.bmp,yellow,ending_scream,scream,ending,m,positive,positive,ES_yellow,1,m,573,1632556,1633061,1633265
13,first,55,sonnig,IAT_green3.bmp,green,starting_scream,scream,starting,m,positive,negative,ES_yellow,1,m,586,1634913,1635418,1635622
13,first,56,gerecht,IAT_red1.bmp,red,starting_melody,melody,starting,m,positive,positive,ES_yellow,1,m,442,1637285,1637789,1637994
13,first,57,geizig,IAT_purple2.bmp,purple,ending_melody,melody,ending,c,negative,negative,ES_yellow,1,c,785,1639511,1640016,1640220
13,first,58,feige,IAT_yellow2.bmp,yellow,ending_scream,scream,ending,c,negative,positive,ES_yellow,1,c,506,1642078,1642583,1642787
13,first,59,sonnig,IAT_red2.bmp,red,starting_melody,melody,starting,m,positive,positive,ES_yellow,1,m,560,1644368,1644873,1645077
13,first,60,falsch,IAT_green1.bmp,green,starting_scream,scream,starting,c,negative,negative,ES_yellow,1,c,484,1646711,1647216,1647420
13,first,61,munter,IAT_purple2.bmp,purple,ending_melody,melody,ending,m,positive,negative,ES_yellow,1,m,684,1648979,1649483,1649687
13,first,62,gesund,IAT_purple1.bmp,purple,ending_melody,melody,ending,m,positive,negative,ES_yellow,1,m,778,1651445,1651949,1652153
13,first,63,kaputt,IAT_purple2.bmp,purple,ending_melody,melody,ending,c,negative,negative,ES_yellow,1,c,651,1654006,1654510,1654714
13,first,64,geizig,IAT_purple3.bmp,purple,ending_melody,melody,ending,c,negative,negative,ES_yellow,1,c,1061,1656439,1656943,1657147
13,first,65,heiter,IAT_green3.bmp,green,starting_scream,scream,starting,m,positive,negative,ES_yellow,0,c,351,1659284,1659788,1659992
13,first,66,ehrlich,IAT_red1.bmp,red,starting_melody,melody,starting,m,positive,positive,ES_yellow,1,m,398,1661917,1662422,1662626
13,first,67,heiter,IAT_red3.bmp,red,starting_melody,melody,starting,m,positive,positive,ES_yellow,1,m,469,1664098,1664602,1664806
13,first,68,feige,IAT_purple1.bmp,purple,ending_melody,melody,ending,c,negative,negative,ES_yellow,1,c,556,1666350,1666854,1667058
13,first,69,brutal,IAT_red4.bmp,red,starting_melody,melody,starting,c,negative,positive,ES_yellow,0,m,340,1668688,1669193,1669397
13,first,70,streng,IAT_yellow3.bmp,yellow,ending_scream,scream,ending,c,negative,positive,ES_yellow,1,c,505,1671312,1671816,1672020
13,first,71,falsch,IAT_yellow4.bmp,yellow,ending_scream,scream,ending,c,negative,positive,ES_yellow,1,c,464,1673599,1674104,1674308
13,first,72,sanft,IAT_yellow1.bmp,yellow,ending_scream,scream,ending,m,positive,positive,ES_yellow,1,m,594,1675847,1676352,1676557
13,first,73,morsch,IAT_yellow2.bmp,yellow,ending_scream,scream,ending,c,negative,positive,ES_yellow,1,c,560,1678226,1678730,1678934
13,first,74,munter,IAT_purple3.bmp,purple,ending_melody,melody,ending,m,positive,negative,ES_yellow,1,m,832,1680568,1681072,1681276
13,first,75,kaputt,IAT_red4.bmp,red,starting_melody,melody,starting,c,negative,positive,ES_yellow,1,c,532,1683184,1683688,1683892
13,first,76,einsam,IAT_green4.bmp,green,starting_scream,scream,starting,c,negative,negative,ES_yellow,1,c,437,1685498,1686003,1686207
13,first,77,lästig,IAT_red2.bmp,red,starting_melody,melody,starting,c,negative,positive,ES_yellow,1,c,620,1687718,1688223,1688427
13,first,78,krank,IAT_red2.bmp,red,starting_melody,melody,starting,c,negative,positive,ES_yellow,1,c,738,1690122,1690626,1690830
13,first,79,teuer,IAT_green3.bmp,green,starting_scream,scream,starting,c,negative,negative,ES_yellow,0,m,593,1692643,1693147,1693351
13,first,80,brutal,IAT_yellow2.bmp,yellow,ending_scream,scream,ending,c,negative,positive,ES_yellow,1,c,474,1695519,1696023,1696227
13,first,81,ehrlich,IAT_red4.bmp,red,starting_melody,melody,starting,m,positive,positive,ES_yellow,1,m,682,1697775,1698280,1698484
13,first,82,sanft,IAT_purple1.bmp,purple,ending_melody,melody,ending,m,positive,negative,ES_yellow,1,m,738,1700242,1700746,1700950
13,first,83,human,IAT_yellow4.bmp,yellow,ending_scream,scream,ending,m,positive,positive,ES_yellow,1,m,551,1702763,1703267,1703471
13,first,84,lustig,IAT_red3.bmp,red,starting_melody,melody,starting,m,positive,positive,ES_yellow,1,m,392,1705096,1705600,1705804
13,first,85,heiter,IAT_yellow3.bmp,yellow,ending_scream,scream,ending,m,positive,positive,ES_yellow,1,m,503,1707270,1707775,1707979
13,first,86,human,IAT_green2.bmp,green,starting_scream,scream,starting,m,positive,negative,ES_yellow,1,m,654,1709557,1710061,1710265
13,first,87,sozial,IAT_green1.bmp,green,starting_scream,scream,starting,m,positive,negative,ES_yellow,1,m,488,1711993,1712499,1712703
13,first,88,gerecht,IAT_purple2.bmp,purple,ending_melody,melody,ending,m,positive,negative,ES_yellow,1,m,669,1714266,1714770,1714974
13,first,89,munter,IAT_yellow4.bmp,yellow,ending_scream,scream,ending,m,positive,positive,ES_yellow,1,m,722,1716718,1717222,1717426
13,first,90,streng,IAT_yellow1.bmp,yellow,ending_scream,scream,ending,c,negative,positive,ES_yellow,0,m,518,1719223,1719727,1719931
13,first,91,teuer,IAT_green4.bmp,green,starting_scream,scream,starting,c,negative,negative,ES_yellow,1,c,535,1722023,1722528,1722732
13,first,92,witzig,IAT_purple3.bmp,purple,ending_melody,melody,ending,m,positive,negative,ES_yellow,1,m,480,1724341,1724845,1725049
13,first,93,sonnig,IAT_green3.bmp,green,starting_scream,scream,starting,m,positive,negative,ES_yellow,1,m,504,1726604,1727108,1727312
13,first,94,gierig,IAT_red4.bmp,red,starting_melody,melody,starting,c,negative,positive,ES_yellow,1,c,569,1728891,1729395,1729599
13,first,95,lustig,IAT_yellow2.bmp,yellow,ending_scream,scream,ending,m,positive,positive,ES_yellow,1,m,539,1731244,1731748,1731952
13,second,0,krank,IAT_red2.bmp,red,starting_melody,melody,starting,c,negative,positive,ES_yellow,0,m,365,1743626,1744130,1744334
13,second,1,human,IAT_yellow2.bmp,yellow,ending_scream,scream,ending,m,positive,positive,ES_yellow,1,m,574,1746276,1746781,1746985
13,second,2,munter,IAT_green3.bmp,green,starting_scream,scream,starting,m,positive,negative,ES_yellow,1,m,671,1748634,1749138,1749342
13,second,3,ehrlich,IAT_purple4.bmp,purple,ending_melody,melody,ending,m,positive,negative,ES_yellow,1,m,630,1751087,1751591,1751795
13,second,4,munter,IAT_purple2.bmp,purple,ending_melody,melody,ending,m,positive,negative,ES_yellow,1,m,519,1753499,1754004,1754208
13,second,5,sozial,IAT_green4.bmp,green,starting_scream,scream,starting,m,positive,negative,ES_yellow,1,m,519,1755802,1756306,1756510
13,second,6,sanft,IAT_yellow1.bmp,yellow,ending_scream,scream,ending,m,positive,positive,ES_yellow,1,m,632,1758104,1758608,1758812
13,second,7,geizig,IAT_green3.bmp,green,starting_scream,scream,starting,c,negative,negative,ES_yellow,1,c,690,1760518,1761022,1761226
13,second,8,brutal,IAT_green1.bmp,green,starting_scream,scream,starting,c,negative,negative,ES_yellow,1,c,397,1762989,1763493,1763697
13,second,9,lustig,IAT_red3.bmp,red,starting_melody,melody,starting,m,positive,positive,ES_yellow,1,m,272,1765168,1765672,1765876
13,second,10,streng,IAT_red4.bmp,red,starting_melody,melody,starting,c,negative,positive,ES_yellow,0,m,338,1767223,1767727,1767931
13,second,11,geizig,IAT_red3.bmp,red,starting_melody,melody,starting,c,negative,positive,ES_yellow,0,m,363,1769844,1770348,1770552
13,second,12,lästig,IAT_purple4.bmp,purple,ending_melody,melody,ending,c,negative,negative,ES_yellow,1,c,597,1772488,1772992,1773196
13,second,13,teuer,IAT_purple2.bmp,purple,ending_melody,melody,ending,c,negative,negative,ES_yellow,1,c,669,1774867,1775372,1775576
13,second,14,lästig,IAT_red2.bmp,red,starting_melody,melody,starting,c,negative,positive,ES_yellow,0,m,333,1777320,1777824,1778028
13,second,15,geizig,IAT_green2.bmp,green,starting_scream,scream,starting,c,negative,negative,ES_yellow,1,c,485,1779935,1780439,1780643
13,second,16,brutal,IAT_green2.bmp,green,starting_scream,scream,starting,c,negative,negative,ES_yellow,1,c,403,1782202,1782706,1782910
13,second,17,feige,IAT_purple4.bmp,purple,ending_melody,melody,ending,c,negative,negative,ES_yellow,1,c,448,1784388,1784892,1785096
13,second,18,heiter,IAT_green3.bmp,green,starting_scream,scream,starting,m,positive,negative,ES_yellow,0,c,358,1786618,1787123,1787327
13,second,19,teuer,IAT_purple4.bmp,purple,ending_melody,melody,ending,c,negative,negative,ES_yellow,1,c,416,1789258,1789762,1789966
13,second,20,human,IAT_yellow3.bmp,yellow,ending_scream,scream,ending,m,positive,positive,ES_yellow,0,c,396,1791456,1791961,1792165
13,second,21,streng,IAT_red1.bmp,red,starting_melody,melody,starting,c,negative,positive,ES_yellow,1,c,574,1794135,1794639,1794843
13,second,22,kaputt,IAT_purple1.bmp,purple,ending_melody,melody,ending,c,negative,negative,ES_yellow,1,c,507,1796493,1796998,1797202
13,second,23,teuer,IAT_yellow3.bmp,yellow,ending_scream,scream,ending,c,negative,positive,ES_yellow,1,c,487,1798784,1799288,1799492
13,second,24,morsch,IAT_yellow2.bmp,yellow,ending_scream,scream,ending,c,negative,positive,ES_yellow,1,c,514,1801054,1801558,1801762
13,second,25,gesund,IAT_purple3.bmp,purple,ending_melody,melody,ending,m,positive,negative,ES_yellow,1,m,595,1803349,1803853,1804057
13,second,26,ehrlich,IAT_purple3.bmp,purple,ending_melody,melody,ending,m,positive,negative,ES_yellow,1,m,662,1805727,1806231,1806435
13,second,27,gerecht,IAT_purple1.bmp,purple,ending_melody,melody,ending,m,positive,negative,ES_yellow,1,m,651,1808172,1808676,1808880
13,second,28,lästig,IAT_green2.bmp,green,starting_scream,scream,starting,c,negative,negative,ES_yellow,1,c,820,1810605,1811109,1811313
13,second,29,einsam,IAT_yellow2.bmp,yellow,ending_scream,scream,ending,c,negative,positive,ES_yellow,1,c,587,1813208,1813712,1813916
13,second,30,lustig,IAT_yellow1.bmp,yellow,ending_scream,scream,ending,m,positive,positive,ES_yellow,0,c,380,1815578,1816082,1816286
13,second,31,witzig,IAT_green1.bmp,green,starting_scream,scream,starting,m,positive,negative,ES_yellow,1,m,611,1818240,1818744,1818948
13,second,32,gerecht,IAT_yellow3.bmp,yellow,ending_scream,scream,ending,m,positive,positive,ES_yellow,0,c,394,1820634,1821138,1821342
13,second,33,witzig,IAT_green3.bmp,green,starting_scream,scream,starting,m,positive,negative,ES_yellow,1,m,400,1823311,1823815,1824019
13,second,34,morsch,IAT_red2.bmp,red,starting_melody,melody,starting,c,negative,positive,ES_yellow,1,c,578,1825494,1825998,1826202
13,second,35,sonnig,IAT_green4.bmp,green,starting_scream,scream,starting,m,positive,negative,ES_yellow,1,m,545,1827855,1828359,1828563
13,second,36,heiter,IAT_green3.bmp,green,starting_scream,scream,starting,m,positive,negative,ES_yellow,1,m,571,1830182,1830687,1830891
13,second,37,krank,IAT_yellow4.bmp,yellow,ending_scream,scream,ending,c,negative,positive,ES_yellow,1,c,497,1832536,1833041,1833245
13,second,38,schön,IAT_yellow2.bmp,yellow,ending_scream,scream,ending,m,positive,positive,ES_yellow,1,m,544,1834818,1835322,1835526
13,second,39,gerecht,IAT_purple1.bmp,purple,ending_melody,melody,ending,m,positive,negative,ES_yellow,1,m,590,1837145,1837650,1837854
13,second,40,heiter,IAT_red1.bmp,red,starting_melody,melody,starting,m,positive,positive,ES_yellow,1,m,439,1839518,1840022,1840226
13,second,41,gierig,IAT_red4.bmp,red,starting_melody,melody,starting,c,negative,positive,ES_yellow,0,m,436,1841740,1842244,1842448
13,second,42,krank,IAT_green4.bmp,green,starting_scream,scream,starting,c,negative,negative,ES_yellow,1,c,432,1844459,1844963,1845167
13,second,43,brutal,IAT_purple4.bmp,purple,ending_melody,melody,ending,c,negative,negative,ES_yellow,0,m,457,1846673,1847178,1847382
13,second,44,witzig,IAT_red3.bmp,red,starting_melody,melody,starting,m,positive,positive,ES_yellow,1,m,396,1849414,1849918,1850122
13,second,45,feige,IAT_purple1.bmp,purple,ending_melody,melody,ending,c,negative,negative,ES_yellow,1,c,464,1851593,1852097,1852301
13,second,46,gerecht,IAT_green2.bmp,green,starting_scream,scream,starting,m,positive,negative,ES_yellow,0,c,482,1853840,1854344,1854548
13,second,47,schön,IAT_yellow4.bmp,yellow,ending_scream,scream,ending,m,positive,positive,ES_yellow,1,m,448,1856605,1857109,1857313
13,second,48,gierig,IAT_red1.bmp,red,starting_melody,melody,starting,c,negative,positive,ES_yellow,0,m,467,1858836,1859341,1859545
13,second,49,kaputt,IAT_yellow4.bmp,yellow,ending_scream,scream,ending,c,negative,positive,ES_yellow,1,c,471,1861586,1862091,1862295
13,second,50,falsch,IAT_red4.bmp,red,starting_melody,melody,starting,c,negative,positive,ES_yellow,0,m,427,1863841,1864345,1864549
13,second,51,heiter,IAT_purple3.bmp,purple,ending_melody,melody,ending,m,positive,negative,ES_yellow,1,m,559,1866550,1867054,1867258
13,second,52,gierig,IAT_red3.bmp,red,starting_melody,melody,starting,c,negative,positive,ES_yellow,1,c,536,1868892,1869396,1869600
13,second,53,morsch,IAT_yellow4.bmp,yellow,ending_scream,scream,ending,c,negative,positive,ES_yellow,1,c,480,1871212,1871716,1871920
13,second,54,streng,IAT_green3.bmp,green,starting_scream,scream,starting,c,negative,negative,ES_yellow,1,c,445,1873476,1873980,1874184
13,second,55,ehrlich,IAT_red3.bmp,red,starting_melody,melody,starting,m,positive,positive,ES_yellow,1,m,407,1875704,1876208,1876412
13,second,56,sozial,IAT_green1.bmp,green,starting_scream,scream,starting,m,positive,negative,ES_yellow,1,m,602,1877894,1878398,1878602
13,second,57,lustig,IAT_red2.bmp,red,starting_melody,melody,starting,m,positive,positive,ES_yellow,1,m,512,1880278,1880783,1880987
13,second,58,gesund,IAT_red2.bmp,red,starting_melody,melody,starting,m,positive,positive,ES_yellow,1,m,376,1882575,1883079,1883283
13,second,59,human,IAT_red1.bmp,red,starting_melody,melody,starting,m,positive,positive,ES_yellow,1,m,516,1884734,1885239,1885443
13,second,60,sozial,IAT_purple3.bmp,purple,ending_melody,melody,ending,m,positive,negative,ES_yellow,1,m,545,1887033,1887538,1887742
13,second,61,schön,IAT_yellow3.bmp,yellow,ending_scream,scream,ending,m,positive,positive,ES_yellow,1,m,621,1889362,1889867,1890071
13,second,62,sanft,IAT_purple4.bmp,purple,ending_melody,melody,ending,m,positive,negative,ES_yellow,1,m,629,1891766,1892270,1892474
13,second,63,feige,IAT_purple3.bmp,purple,ending_melody,melody,ending,c,negative,negative,ES_yellow,1,c,594,1894178,1894682,1894886
13,second,64,geizig,IAT_yellow4.bmp,yellow,ending_scream,scream,ending,c,negative,positive,ES_yellow,1,c,539,1896555,1897059,1897263
13,second,65,falsch,IAT_green4.bmp,green,starting_scream,scream,starting,c,negative,negative,ES_yellow,1,c,388,1898876,1899380,1899584
13,second,66,lästig,IAT_green4.bmp,green,starting_scream,scream,starting,c,negative,negative,ES_yellow,1,c,581,1901046,1901550,1901754
13,second,67,munter,IAT_green1.bmp,green,starting_scream,scream,starting,m,positive,negative,ES_yellow,0,c,410,1903409,1903913,1904117
13,second,68,falsch,IAT_purple2.bmp,purple,ending_melody,melody,ending,c,negative,negative,ES_yellow,1,c,436,1906102,1906607,1906811
13,second,69,krank,IAT_yellow2.bmp,yellow,ending_scream,scream,ending,c,negative,positive,ES_yellow,1,c,693,1908322,1908826,1909030
13,second,70,brutal,IAT_purple2.bmp,purple,ending_melody,melody,ending,c,negative,negative,ES_yellow,1,c,534,1910799,1911303,1911507
13,second,71,kaputt,IAT_yellow3.bmp,yellow,ending_scream,scream,ending,c,negative,positive,ES_yellow,1,c,439,1913115,1913619,1913823
13,second,72,human,IAT_purple1.bmp,purple,ending_melody,melody,ending,m,positive,negative,ES_yellow,0,c,500,1915337,1915842,1916046
13,second,73,gesund,IAT_purple2.bmp,purple,ending_melody,melody,ending,m,positive,negative,ES_yellow,1,m,478,1918120,1918625,1918829
13,second,74,einsam,IAT_yellow1.bmp,yellow,ending_scream,scream,ending,c,negative,positive,ES_yellow,1,c,649,1920382,1920886,1921090
13,second,75,munter,IAT_green2.bmp,green,starting_scream,scream,starting,m,positive,negative,ES_yellow,1,m,392,1922814,1923319,1923523
13,second,76,feige,IAT_green2.bmp,green,starting_scream,scream,starting,c,negative,negative,ES_yellow,1,c,523,1924990,1925494,1925698
13,second,77,sonnig,IAT_yellow1.bmp,yellow,ending_scream,scream,ending,m,positive,positive,ES_yellow,1,m,484,1927295,1927800,1928004
13,second,78,falsch,IAT_purple3.bmp,purple,ending_melody,melody,ending,c,negative,negative,ES_yellow,1,c,450,1929563,1930068,1930272
13,second,79,sanft,IAT_red3.bmp,red,starting_melody,melody,starting,m,positive,positive,ES_yellow,1,m,356,1931797,1932302,1932506
13,second,80,gierig,IAT_green1.bmp,green,starting_scream,scream,starting,c,negative,negative,ES_yellow,1,c,545,1933937,1934442,1934646
13,second,81,lustig,IAT_red1.bmp,red,starting_melody,melody,starting,m,positive,positive,ES_yellow,1,m,346,1936265,1936770,1936974
13,second,82,kaputt,IAT_yellow2.bmp,yellow,ending_scream,scream,ending,c,negative,positive,ES_yellow,1,c,357,1938396,1938900,1939104
13,second,83,sonnig,IAT_red4.bmp,red,starting_melody,melody,starting,m,positive,positive,ES_yellow,1,m,334,1940535,1941040,1941244
13,second,84,witzig,IAT_green1.bmp,green,starting_scream,scream,starting,m,positive,negative,ES_yellow,0,c,361,1942652,1943156,1943360
13,second,85,streng,IAT_purple2.bmp,purple,ending_melody,melody,ending,c,negative,negative,ES_yellow,1,c,595,1945296,1945801,1946005
13,second,86,teuer,IAT_red4.bmp,red,starting_melody,melody,starting,c,negative,positive,ES_yellow,1,c,692,1947675,1948180,1948384
13,second,87,gesund,IAT_yellow1.bmp,yellow,ending_scream,scream,ending,m,positive,positive,ES_yellow,0,c,593,1950151,1950655,1950859
13,second,88,einsam,IAT_green4.bmp,green,starting_scream,scream,starting,c,negative,negative,ES_yellow,1,c,374,1953027,1953531,1953735
13,second,89,morsch,IAT_red2.bmp,red,starting_melody,melody,starting,c,negative,positive,ES_yellow,1,c,536,1955184,1955689,1955893
13,second,90,sanft,IAT_yellow3.bmp,yellow,ending_scream,scream,ending,m,positive,positive,ES_yellow,1,m,557,1957505,1958009,1958213
13,second,91,sozial,IAT_purple1.bmp,purple,ending_melody,melody,ending,m,positive,negative,ES_yellow,1,m,491,1959845,1960349,1960553
13,second,92,schön,IAT_red4.bmp,red,starting_melody,melody,starting,m,positive,positive,ES_yellow,1,m,422,1962120,1962624,1962828
13,second,93,einsam,IAT_yellow1.bmp,yellow,ending_scream,scream,ending,c,negative,positive,ES_yellow,1,c,480,1964325,1964829,1965033
13,second,94,ehrlich,IAT_red1.bmp,red,starting_melody,melody,starting,m,positive,positive,ES_yellow,1,m,388,1966588,1967093,1967297
13,second,95,sonnig,IAT_yellow4.bmp,yellow,ending_scream,scream,ending,m,positive,positive,ES_yellow,1,m,500,1968760,1969264,1969468
13,third,0,human,IAT_purple3.bmp,purple,ending_melody,melody,ending,m,positive,negative,ES_yellow,1,m,559,1988129,1988633,1988837
13,third,1,gerecht,IAT_purple4.bmp,purple,ending_melody,melody,ending,m,positive,negative,ES_yellow,1,m,630,1990472,1990976,1991180
13,third,2,geizig,IAT_purple3.bmp,purple,ending_melody,melody,ending,c,negative,negative,ES_yellow,1,c,429,1992886,1993390,1993594
13,third,3,schön,IAT_green1.bmp,green,starting_scream,scream,starting,m,positive,negative,ES_yellow,1,m,519,1995097,1995601,1995805
13,third,4,lästig,IAT_yellow4.bmp,yellow,ending_scream,scream,ending,c,negative,positive,ES_yellow,0,m,461,1997399,1997903,1998107
13,third,5,gesund,IAT_purple3.bmp,purple,ending_melody,melody,ending,m,positive,negative,ES_yellow,0,c,681,2000145,2000649,2000853
13,third,6,einsam,IAT_yellow3.bmp,yellow,ending_scream,scream,ending,c,negative,positive,ES_yellow,0,m,417,2003108,2003612,2003816
13,third,7,ehrlich,IAT_green4.bmp,green,starting_scream,scream,starting,m,positive,negative,ES_yellow,1,m,517,2005809,2006313,2006517
13,third,8,morsch,IAT_purple4.bmp,purple,ending_melody,melody,ending,c,negative,negative,ES_yellow,1,c,701,2008109,2008613,2008817
13,third,9,schön,IAT_yellow1.bmp,yellow,ending_scream,scream,ending,m,positive,positive,ES_yellow,1,m,466,2010594,2011098,2011302
13,third,10,brutal,IAT_red4.bmp,red,starting_melody,melody,starting,c,negative,positive,ES_yellow,1,c,506,2012844,2013348,2013552
13,third,11,krank,IAT_yellow1.bmp,yellow,ending_scream,scream,ending,c,negative,positive,ES_yellow,1,c,529,2015134,2015638,2015842
13,third,12,lästig,IAT_purple2.bmp,purple,ending_melody,melody,ending,c,negative,negative,ES_yellow,1,c,645,2017446,2017950,2018154
13,third,13,witzig,IAT_purple1.bmp,purple,ending_melody,melody,ending,m,positive,negative,ES_yellow,1,m,688,2019875,2020379,2020583
13,third,14,teuer,IAT_purple2.bmp,purple,ending_melody,melody,ending,c,negative,negative,ES_yellow,1,c,563,2022347,2022851,2023055
13,third,15,human,IAT_purple1.bmp,purple,ending_melody,melody,ending,m,positive,negative,ES_yellow,1,m,635,2024694,2025198,2025402
13,third,16,munter,IAT_green3.bmp,green,starting_scream,scream,starting,m,positive,negative,ES_yellow,1,m,729,2027113,2027617,2027821
13,third,17,sozial,IAT_red1.bmp,red,starting_melody,melody,starting,m,positive,positive,ES_yellow,1,m,665,2029626,2030130,2030334
13,third,18,einsam,IAT_red2.bmp,red,starting_melody,melody,starting,c,negative,positive,ES_yellow,1,c,550,2032076,2032580,2032784
13,third,19,gierig,IAT_purple2.bmp,purple,ending_melody,melody,ending,c,negative,negative,ES_yellow,1,c,779,2034409,2034914,2035118
13,third,20,sanft,IAT_red4.bmp,red,starting_melody,melody,starting,m,positive,positive,ES_yellow,0,c,599,2036973,2037477,2037681
13,third,21,brutal,IAT_purple1.bmp,purple,ending_melody,melody,ending,c,negative,negative,ES_yellow,1,c,641,2039857,2040362,2040566
13,third,22,feige,IAT_green4.bmp,green,starting_scream,scream,starting,c,negative,negative,ES_yellow,1,c,852,2042284,2042789,2042993
13,third,23,gierig,IAT_red2.bmp,red,starting_melody,melody,starting,c,negative,positive,ES_yellow,1,c,562,2044920,2045425,2045629
13,third,24,falsch,IAT_green2.bmp,green,starting_scream,scream,starting,c,negative,negative,ES_yellow,1,c,465,2047266,2047770,2047974
13,third,25,witzig,IAT_green1.bmp,green,starting_scream,scream,starting,m,positive,negative,ES_yellow,1,m,538,2049514,2050019,2050223
13,third,26,gesund,IAT_red1.bmp,red,starting_melody,melody,starting,m,positive,positive,ES_yellow,1,m,453,2051837,2052341,2052545
13,third,27,gerecht,IAT_green1.bmp,green,starting_scream,scream,starting,m,positive,negative,ES_yellow,0,c,613,2054074,2054578,2054782
13,third,28,schön,IAT_green3.bmp,green,starting_scream,scream,starting,m,positive,negative,ES_yellow,1,m,500,2056970,2057475,2057679
13,third,29,geizig,IAT_yellow4.bmp,yellow,ending_scream,scream,ending,c,negative,positive,ES_yellow,0,m,1022,2059256,2059761,2059965
13,third,30,munter,IAT_green1.bmp,green,starting_scream,scream,starting,m,positive,negative,ES_yellow,1,m,849,2062563,2063067,2063271
13,third,31,falsch,IAT_red4.bmp,red,starting_melody,melody,starting,c,negative,positive,ES_yellow,1,c,507,2065196,2065700,2065904
13,third,32,lästig,IAT_purple2.bmp,purple,ending_melody,melody,ending,c,negative,negative,ES_yellow,1,c,733,2067486,2067991,2068195
13,third,33,sozial,IAT_yellow3.bmp,yellow,ending_scream,scream,ending,m,positive,positive,ES_yellow,1,m,789,2070005,2070509,2070713
13,third,34,brutal,IAT_yellow4.bmp,yellow,ending_scream,scream,ending,c,negative,positive,ES_yellow,1,c,514,2072578,2073083,2073287
13,third,35,teuer,IAT_green2.bmp,green,starting_scream,scream,starting,c,negative,negative,ES_yellow,1,c,577,2074876,2075380,2075584
13,third,36,kaputt,IAT_purple4.bmp,purple,ending_melody,melody,ending,c,negative,negative,ES_yellow,1,c,545,2077236,2077740,2077944
13,third,37,gierig,IAT_red3.bmp,red,starting_melody,melody,starting,c,negative,positive,ES_yellow,1,c,506,2079565,2080069,2080273
13,third,38,lustig,IAT_red2.bmp,red,starting_melody,melody,starting,m,positive,positive,ES_yellow,1,m,503,2081856,2082360,2082564
13,third,39,gesund,IAT_green2.bmp,green,starting_scream,scream,starting,m,positive,negative,ES_yellow,1,m,542,2084143,2084648,2084852
13,third,40,morsch,IAT_yellow2.bmp,yellow,ending_scream,scream,ending,c,negative,positive,ES_yellow,1,c,398,2086470,2086974,2087178
13,third,41,munter,IAT_yellow1.bmp,yellow,ending_scream,scream,ending,m,positive,positive,ES_yellow,0,c,612,2088653,2089157,2089361
13,third,42,krank,IAT_yellow2.bmp,yellow,ending_scream,scream,ending,c,negative,positive,ES_yellow,1,c,517,2091548,2092052,2092256
13,third,43,human,IAT_yellow1.bmp,yellow,ending_scream,scream,ending,m,positive,positive,ES_yellow,1,m,537,2093851,2094357,2094561
13,third,44,sozial,IAT_yellow4.bmp,yellow,ending_scream,scream,ending,m,positive,positive,ES_yellow,1,m,752,2096175,2096679,2096883
13,third,45,teuer,IAT_red2.bmp,red,starting_melody,melody,starting,c,negative,positive,ES_yellow,1,c,590,2098711,2099215,2099419
13,third,46,ehrlich,IAT_yellow3.bmp,yellow,ending_scream,scream,ending,m,positive,positive,ES_yellow,1,m,532,2101085,2101589,2101793
13,third,47,streng,IAT_green4.bmp,green,starting_scream,scream,starting,c,negative,negative,ES_yellow,1,c,382,2103401,2103906,2104110
13,third,48,kaputt,IAT_green1.bmp,green,starting_scream,scream,starting,c,negative,negative,ES_yellow,1,c,561,2105566,2106071,2106275
13,third,49,streng,IAT_green3.bmp,green,starting_scream,scream,starting,c,negative,negative,ES_yellow,1,c,368,2107913,2108417,2108621
13,third,50,lustig,IAT_red3.bmp,red,starting_melody,melody,starting,m,positive,positive,ES_yellow,1,m,338,2110066,2110570,2110774
13,third,51,feige,IAT_purple1.bmp,purple,ending_melody,melody,ending,c,negative,negative,ES_yellow,1,c,433,2112189,2112693,2112897
13,third,52,brutal,IAT_yellow3.bmp,yellow,ending_scream,scream,ending,c,negative,positive,ES_yellow,1,c,532,2114405,2114910,2115114
13,third,53,gerecht,IAT_purple1.bmp,purple,ending_melody,melody,ending,m,positive,negative,ES_yellow,1,m,732,2116722,2117227,2117431
13,third,54,ehrlich,IAT_green3.bmp,green,starting_scream,scream,starting,m,positive,negative,ES_yellow,1,m,715,2119239,2119743,2119947
13,third,55,einsam,IAT_yellow1.bmp,yellow,ending_scream,scream,ending,c,negative,positive,ES_yellow,1,c,716,2121738,2122242,2122446
13,third,56,feige,IAT_yellow4.bmp,yellow,ending_scream,scream,ending,c,negative,positive,ES_yellow,1,c,609,2124239,2124743,2124947
13,third,57,heiter,IAT_yellow3.bmp,yellow,ending_scream,scream,ending,m,positive,positive,ES_yellow,0,c,535,2126633,2127137,2127341
13,third,58,streng,IAT_red1.bmp,red,starting_melody,melody,starting,c,negative,positive,ES_yellow,0,m,402,2129453,2129957,2130161
13,third,59,gesund,IAT_green3.bmp,green,starting_scream,scream,starting,m,positive,negative,ES_yellow,1,m,635,2132139,2132644,2132848
13,third,60,geizig,IAT_green4.bmp,green,starting_scream,scream,starting,c,negative,negative,ES_yellow,1,c,560,2134558,2135062,2135266
13,third,61,falsch,IAT_red3.bmp,red,starting_melody,melody,starting,c,negative,positive,ES_yellow,1,c,487,2136903,2137408,2137612
13,third,62,lästig,IAT_green3.bmp,green,starting_scream,scream,starting,c,negative,negative,ES_yellow,0,m,513,2139175,2139680,2139884
13,third,63,sanft,IAT_red3.bmp,red,starting_melody,melody,starting,m,positive,positive,ES_yellow,1,m,545,2141974,2142478,2142682
13,third,64,kaputt,IAT_yellow2.bmp,yellow,ending_scream,scream,ending,c,negative,positive,ES_yellow,1,c,479,2144303,2144807,2145011
13,third,65,sonnig,IAT_purple2.bmp,purple,ending_melody,melody,ending,m,positive,negative,ES_yellow,1,m,937,2146565,2147070,2147274
13,third,66,sanft,IAT_purple3.bmp,purple,ending_melody,melody,ending,m,positive,negative,ES_yellow,0,None,1500,2149287,2149791,2149995
13,third,67,munter,IAT_yellow4.bmp,yellow,ending_scream,scream,ending,m,positive,positive,ES_yellow,1,m,591,2153071,2153575,2153779
13,third,68,heiter,IAT_yellow1.bmp,yellow,ending_scream,scream,ending,m,positive,positive,ES_yellow,0,c,475,2155446,2155950,2156154
13,third,69,ehrlich,IAT_red2.bmp,red,starting_melody,melody,starting,m,positive,positive,ES_yellow,1,m,356,2158206,2158710,2158914
13,third,70,morsch,IAT_red1.bmp,red,starting_melody,melody,starting,c,negative,positive,ES_yellow,1,c,585,2160346,2160851,2161055
13,third,71,geizig,IAT_green1.bmp,green,starting_scream,scream,starting,c,negative,negative,ES_yellow,1,c,668,2162716,2163220,2163424
13,third,72,witzig,IAT_purple2.bmp,purple,ending_melody,melody,ending,m,positive,negative,ES_yellow,1,m,561,2165167,2165671,2165875
13,third,73,krank,IAT_purple4.bmp,purple,ending_melody,melody,ending,c,negative,negative,ES_yellow,1,c,425,2167512,2168016,2168220
13,third,74,schön,IAT_green4.bmp,green,starting_scream,scream,starting,m,positive,negative,ES_yellow,1,m,464,2169721,2170226,2170430
13,third,75,feige,IAT_green2.bmp,green,starting_scream,scream,starting,c,negative,negative,ES_yellow,1,c,472,2171969,2172473,2172677
13,third,76,sonnig,IAT_red1.bmp,red,starting_melody,melody,starting,m,positive,positive,ES_yellow,1,m,496,2174226,2174730,2174934
13,third,77,sanft,IAT_red3.bmp,red,starting_melody,melody,starting,m,positive,positive,ES_yellow,0,c,459,2176505,2177010,2177214
13,third,78,gerecht,IAT_red1.bmp,red,starting_melody,melody,starting,m,positive,positive,ES_yellow,1,m,495,2179249,2179754,2179958
13,third,79,streng,IAT_red4.bmp,red,starting_melody,melody,starting,c,negative,positive,ES_yellow,1,c,550,2181528,2182032,2182236
13,third,80,human,IAT_red3.bmp,red,starting_melody,melody,starting,m,positive,positive,ES_yellow,1,m,823,2183862,2184367,2184571
13,third,81,heiter,IAT_yellow2.bmp,yellow,ending_scream,scream,ending,m,positive,positive,ES_yellow,1,m,656,2186471,2186975,2187179
13,third,82,sonnig,IAT_red4.bmp,red,starting_melody,melody,starting,m,positive,positive,ES_yellow,1,m,479,2188911,2189415,2189619
13,third,83,morsch,IAT_green4.bmp,green,starting_scream,scream,starting,c,negative,negative,ES_yellow,1,c,704,2191175,2191679,2191883
13,third,84,heiter,IAT_purple4.bmp,purple,ending_melody,melody,ending,m,positive,negative,ES_yellow,1,m,695,2193663,2194167,2194371
13,third,85,einsam,IAT_yellow2.bmp,yellow,ending_scream,scream,ending,c,negative,positive,ES_yellow,1,c,398,2196143,2196647,2196851
13,third,86,falsch,IAT_red2.bmp,red,starting_melody,melody,starting,c,negative,positive,ES_yellow,0,m,452,2198326,2198830,2199034
13,third,87,krank,IAT_purple4.bmp,purple,ending_melody,melody,ending,c,negative,negative,ES_yellow,1,c,422,2201062,2201566,2201770
13,third,88,gierig,IAT_red4.bmp,red,starting_melody,melody,starting,c,negative,positive,ES_yellow,0,m,390,2203268,2203773,2203977
13,third,89,kaputt,IAT_purple3.bmp,purple,ending_melody,melody,ending,c,negative,negative,ES_yellow,1,c,435,2205943,2206448,2206652
13,third,90,lustig,IAT_yellow3.bmp,yellow,ending_scream,scream,ending,m,positive,positive,ES_yellow,1,m,516,2208164,2208668,2208872
13,third,91,witzig,IAT_purple1.bmp,purple,ending_melody,melody,ending,m,positive,negative,ES_yellow,1,m,437,2210465,2210969,2211173
13,third,92,sonnig,IAT_green2.bmp,green,starting_scream,scream,starting,m,positive,negative,ES_yellow,0,c,413,2212686,2213190,2213394
13,third,93,lustig,IAT_yellow2.bmp,yellow,ending_scream,scream,ending,m,positive,positive,ES_yellow,0,c,496,2215384,2215888,2216092
13,third,94,sozial,IAT_purple3.bmp,purple,ending_melody,melody,ending,m,positive,negative,ES_yellow,1,m,495,2218164,2218668,2218872
13,third,95,teuer,IAT_green2.bmp,green,starting_scream,scream,starting,c,negative,negative,ES_yellow,1,c,780,2220443,2220948,2221152
13,forth,0,feige,IAT_purple2.bmp,purple,ending_melody,melody,ending,c,negative,negative,ES_yellow,1,c,570,2228227,2228732,2228936
13,forth,1,falsch,IAT_yellow3.bmp,yellow,ending_scream,scream,ending,c,negative,positive,ES_yellow,1,c,546,2230585,2231089,2231293
13,forth,2,lästig,IAT_purple4.bmp,purple,ending_melody,melody,ending,c,negative,negative,ES_yellow,1,c,657,2232914,2233418,2233622
13,forth,3,kaputt,IAT_red4.bmp,red,starting_melody,melody,starting,c,negative,positive,ES_yellow,1,c,509,2235355,2235860,2236064
13,forth,4,geizig,IAT_yellow2.bmp,yellow,ending_scream,scream,ending,c,negative,positive,ES_yellow,0,m,433,2237648,2238152,2238356
13,forth,5,munter,IAT_red4.bmp,red,starting_melody,melody,starting,m,positive,positive,ES_yellow,1,m,499,2240366,2240870,2241074
13,forth,6,sonnig,IAT_yellow3.bmp,yellow,ending_scream,scream,ending,m,positive,positive,ES_yellow,1,m,591,2242648,2243152,2243356
13,forth,7,einsam,IAT_red4.bmp,red,starting_melody,melody,starting,c,negative,positive,ES_yellow,0,m,414,2245023,2245528,2245732
13,forth,8,ehrlich,IAT_purple3.bmp,purple,ending_melody,melody,ending,m,positive,negative,ES_yellow,1,m,572,2247721,2248226,2248430
13,forth,9,sozial,IAT_green3.bmp,green,starting_scream,scream,starting,m,positive,negative,ES_yellow,1,m,557,2250077,2250581,2250785
13,forth,10,gerecht,IAT_green4.bmp,green,starting_scream,scream,starting,m,positive,negative,ES_yellow,1,m,612,2252417,2252921,2253125
13,forth,11,heiter,IAT_red1.bmp,red,starting_melody,melody,starting,m,positive,positive,ES_yellow,1,m,472,2254814,2255318,2255522
13,forth,12,brutal,IAT_yellow4.bmp,yellow,ending_scream,scream,ending,c,negative,positive,ES_yellow,1,c,571,2257071,2257575,2257779
13,forth,13,teuer,IAT_yellow1.bmp,yellow,ending_scream,scream,ending,c,negative,positive,ES_yellow,1,c,677,2259426,2259930,2260134
13,forth,14,morsch,IAT_yellow2.bmp,yellow,ending_scream,scream,ending,c,negative,positive,ES_yellow,1,c,559,2261886,2262390,2262594
13,forth,15,schön,IAT_red1.bmp,red,starting_melody,melody,starting,m,positive,positive,ES_yellow,1,m,387,2264228,2264732,2264936
13,forth,16,teuer,IAT_purple1.bmp,purple,ending_melody,melody,ending,c,negative,negative,ES_yellow,1,c,954,2266399,2266903,2267107
13,forth,17,sozial,IAT_red1.bmp,red,starting_melody,melody,starting,m,positive,positive,ES_yellow,1,m,537,2269137,2269641,2269845
13,forth,18,kaputt,IAT_red2.bmp,red,starting_melody,melody,starting,c,negative,positive,ES_yellow,1,c,641,2271458,2271962,2272166
13,forth,19,morsch,IAT_green3.bmp,green,starting_scream,scream,starting,c,negative,negative,ES_yellow,1,c,484,2273883,2274388,2274592
13,forth,20,witzig,IAT_yellow3.bmp,yellow,ending_scream,scream,ending,m,positive,positive,ES_yellow,1,m,548,2276152,2276656,2276860
13,forth,21,gerecht,IAT_green1.bmp,green,starting_scream,scream,starting,m,positive,negative,ES_yellow,1,m,610,2278483,2278987,2279191
13,forth,22,sanft,IAT_yellow4.bmp,yellow,ending_scream,scream,ending,m,positive,positive,ES_yellow,1,m,584,2280876,2281380,2281584
13,forth,23,gerecht,IAT_red3.bmp,red,starting_melody,melody,starting,m,positive,positive,ES_yellow,1,m,595,2283244,2283749,2283953
13,forth,24,sanft,IAT_purple3.bmp,purple,ending_melody,melody,ending,m,positive,negative,ES_yellow,1,m,706,2285624,2286128,2286332
13,forth,25,gesund,IAT_red2.bmp,red,starting_melody,melody,starting,m,positive,positive,ES_yellow,1,m,528,2288114,2288619,2288823
13,forth,26,human,IAT_purple4.bmp,purple,ending_melody,melody,ending,m,positive,negative,ES_yellow,1,m,657,2290427,2290931,2291135
13,forth,27,heiter,IAT_green4.bmp,green,starting_scream,scream,starting,m,positive,negative,ES_yellow,1,m,485,2292868,2293372,2293576
13,forth,28,munter,IAT_yellow3.bmp,yellow,ending_scream,scream,ending,m,positive,positive,ES_yellow,1,m,493,2295137,2295642,2295846
13,forth,29,falsch,IAT_purple2.bmp,purple,ending_melody,melody,ending,c,negative,negative,ES_yellow,1,c,452,2297415,2297920,2298124
13,forth,30,feige,IAT_purple1.bmp,purple,ending_melody,melody,ending,c,negative,negative,ES_yellow,1,c,469,2299653,2300157,2300361
13,forth,31,gerecht,IAT_green2.bmp,green,starting_scream,scream,starting,m,positive,negative,ES_yellow,1,m,682,2301906,2302410,2302614
13,forth,32,lästig,IAT_red3.bmp,red,starting_melody,melody,starting,c,negative,positive,ES_yellow,1,c,937,2304372,2304877,2305081
13,forth,33,streng,IAT_red2.bmp,red,starting_melody,melody,starting,c,negative,positive,ES_yellow,1,c,553,2307094,2307599,2307803
13,forth,34,heiter,IAT_yellow1.bmp,yellow,ending_scream,scream,ending,m,positive,positive,ES_yellow,1,m,575,2309433,2309937,2310141
13,forth,35,human,IAT_green2.bmp,green,starting_scream,scream,starting,m,positive,negative,ES_yellow,1,m,517,2311791,2312295,2312499
13,forth,36,witzig,IAT_purple1.bmp,purple,ending_melody,melody,ending,m,positive,negative,ES_yellow,0,c,655,2314093,2314597,2314801
13,forth,37,heiter,IAT_red3.bmp,red,starting_melody,melody,starting,m,positive,positive,ES_yellow,1,m,715,2317033,2317537,2317741
13,forth,38,krank,IAT_yellow4.bmp,yellow,ending_scream,scream,ending,c,negative,positive,ES_yellow,1,c,439,2319532,2320037,2320241
13,forth,39,munter,IAT_green1.bmp,green,starting_scream,scream,starting,m,positive,negative,ES_yellow,1,m,678,2321756,2322260,2322464
13,forth,40,streng,IAT_purple3.bmp,purple,ending_melody,melody,ending,c,negative,negative,ES_yellow,1,c,549,2324217,2324721,2324925
13,forth,41,feige,IAT_green1.bmp,green,starting_scream,scream,starting,c,negative,negative,ES_yellow,1,c,399,2326549,2327053,2327257
13,forth,42,sanft,IAT_yellow1.bmp,yellow,ending_scream,scream,ending,m,positive,positive,ES_yellow,0,c,399,2328733,2329238,2329442
13,forth,43,lustig,IAT_purple2.bmp,purple,ending_melody,melody,ending,m,positive,negative,ES_yellow,1,m,515,2331416,2331920,2332124
13,forth,44,sozial,IAT_green3.bmp,green,starting_scream,scream,starting,m,positive,negative,ES_yellow,1,m,617,2333715,2334220,2334424
13,forth,45,geizig,IAT_red1.bmp,red,starting_melody,melody,starting,c,negative,positive,ES_yellow,1,c,649,2336130,2336634,2336838
13,forth,46,ehrlich,IAT_green1.bmp,green,starting_scream,scream,starting,m,positive,negative,ES_yellow,1,m,593,2338563,2339068,2339272
13,forth,47,gierig,IAT_red2.bmp,red,starting_melody,melody,starting,c,negative,positive,ES_yellow,1,c,630,2340941,2341446,2341650
13,forth,48,gesund,IAT_yellow1.bmp,yellow,ending_scream,scream,ending,m,positive,positive,ES_yellow,1,m,620,2343357,2343861,2344065
13,forth,49,sanft,IAT_red3.bmp,red,starting_melody,melody,starting,m,positive,positive,ES_yellow,1,m,524,2345761,2346266,2346470
13,forth,50,human,IAT_purple3.bmp,purple,ending_melody,melody,ending,m,positive,negative,ES_yellow,1,m,491,2348070,2348574,2348778
13,forth,51,ehrlich,IAT_purple3.bmp,purple,ending_melody,melody,ending,m,positive,negative,ES_yellow,1,m,475,2350345,2350850,2351054
13,forth,52,morsch,IAT_purple4.bmp,purple,ending_melody,melody,ending,c,negative,negative,ES_yellow,1,c,693,2352605,2353109,2353313
13,forth,53,streng,IAT_yellow3.bmp,yellow,ending_scream,scream,ending,c,negative,positive,ES_yellow,1,c,550,2355082,2355586,2355790
13,forth,54,human,IAT_purple1.bmp,purple,ending_melody,melody,ending,m,positive,negative,ES_yellow,0,c,459,2357416,2357920,2358124
13,forth,55,geizig,IAT_yellow1.bmp,yellow,ending_scream,scream,ending,c,negative,positive,ES_yellow,1,c,589,2360159,2360664,2360868
13,forth,56,brutal,IAT_green2.bmp,green,starting_scream,scream,starting,c,negative,negative,ES_yellow,1,c,647,2362533,2363038,2363242
13,forth,57,lustig,IAT_red2.bmp,red,starting_melody,melody,starting,m,positive,positive,ES_yellow,1,m,506,2364965,2365470,2365674
13,forth,58,sonnig,IAT_red3.bmp,red,starting_melody,melody,starting,m,positive,positive,ES_yellow,1,m,401,2367256,2367760,2367964
13,forth,59,munter,IAT_purple4.bmp,purple,ending_melody,melody,ending,m,positive,negative,ES_yellow,1,m,581,2369441,2369945,2370149
13,forth,60,falsch,IAT_purple2.bmp,purple,ending_melody,melody,ending,c,negative,negative,ES_yellow,1,c,438,2371807,2372311,2372515
13,forth,61,witzig,IAT_green1.bmp,green,starting_scream,scream,starting,m,positive,negative,ES_yellow,1,m,544,2374030,2374534,2374738
13,forth,62,krank,IAT_green4.bmp,green,starting_scream,scream,starting,c,negative,negative,ES_yellow,1,c,432,2376358,2376862,2377066
13,forth,63,einsam,IAT_yellow4.bmp,yellow,ending_scream,scream,ending,c,negative,positive,ES_yellow,1,c,473,2378576,2379080,2379284
13,forth,64,morsch,IAT_purple4.bmp,purple,ending_melody,melody,ending,c,negative,negative,ES_yellow,1,c,575,2380834,2381338,2381542
13,forth,65,lästig,IAT_purple3.bmp,purple,ending_melody,melody,ending,c,negative,negative,ES_yellow,1,c,543,2383193,2383697,2383901
13,forth,66,kaputt,IAT_yellow2.bmp,yellow,ending_scream,scream,ending,c,negative,positive,ES_yellow,1,c,414,2385521,2386025,2386229
13,forth,67,schön,IAT_green3.bmp,green,starting_scream,scream,starting,m,positive,negative,ES_yellow,1,m,516,2387719,2388223,2388427
13,forth,68,gesund,IAT_yellow4.bmp,yellow,ending_scream,scream,ending,m,positive,positive,ES_yellow,0,c,832,2390019,2390524,2390728
13,forth,69,falsch,IAT_green1.bmp,green,starting_scream,scream,starting,c,negative,negative,ES_yellow,1,c,402,2393136,2393640,2393844
13,forth,70,brutal,IAT_yellow4.bmp,yellow,ending_scream,scream,ending,c,negative,positive,ES_yellow,1,c,454,2395324,2395828,2396032
13,forth,71,sonnig,IAT_purple1.bmp,purple,ending_melody,melody,ending,m,positive,negative,ES_yellow,1,m,508,2397563,2398067,2398271
13,forth,72,kaputt,IAT_yellow2.bmp,yellow,ending_scream,scream,ending,c,negative,positive,ES_yellow,1,c,380,2399856,2400360,2400564
13,forth,73,krank,IAT_green4.bmp,green,starting_scream,scream,starting,c,negative,negative,ES_yellow,1,c,463,2402020,2402525,2402729
13,forth,74,gierig,IAT_red2.bmp,red,starting_melody,melody,starting,c,negative,positive,ES_yellow,0,m,233,2404268,2404772,2404976
13,forth,75,einsam,IAT_green4.bmp,green,starting_scream,scream,starting,c,negative,negative,ES_yellow,1,c,577,2406785,2407291,2407495
13,forth,76,schön,IAT_yellow1.bmp,yellow,ending_scream,scream,ending,m,positive,positive,ES_yellow,1,m,525,2409148,2409653,2409857
13,forth,77,witzig,IAT_red4.bmp,red,starting_melody,melody,starting,m,positive,positive,ES_yellow,1,m,329,2411458,2411962,2412166
13,forth,78,sozial,IAT_red1.bmp,red,starting_melody,melody,starting,m,positive,positive,ES_yellow,1,m,367,2413571,2414076,2414280
13,forth,79,teuer,IAT_red1.bmp,red,starting_melody,melody,starting,c,negative,positive,ES_yellow,1,c,364,2415724,2416228,2416432
13,forth,80,brutal,IAT_green4.bmp,green,starting_scream,scream,starting,c,negative,negative,ES_yellow,1,c,403,2417874,2418378,2418582
13,forth,81,sonnig,IAT_yellow2.bmp,yellow,ending_scream,scream,ending,m,positive,positive,ES_yellow,1,m,510,2420063,2420567,2420771
13,forth,82,lustig,IAT_purple2.bmp,purple,ending_melody,melody,ending,m,positive,negative,ES_yellow,1,m,730,2422358,2422862,2423066
13,forth,83,schön,IAT_yellow3.bmp,yellow,ending_scream,scream,ending,m,positive,positive,ES_yellow,1,m,497,2424873,2425378,2425582
13,forth,84,lästig,IAT_green2.bmp,green,starting_scream,scream,starting,c,negative,negative,ES_yellow,0,m,542,2427155,2427659,2427863
13,forth,85,teuer,IAT_red4.bmp,red,starting_melody,melody,starting,c,negative,positive,ES_yellow,1,c,594,2429982,2430486,2430690
13,forth,86,einsam,IAT_red4.bmp,red,starting_melody,melody,starting,c,negative,positive,ES_yellow,1,c,590,2432361,2432867,2433071
13,forth,87,feige,IAT_purple2.bmp,purple,ending_melody,melody,ending,c,negative,negative,ES_yellow,1,c,493,2434738,2435242,2435446
13,forth,88,gierig,IAT_red3.bmp,red,starting_melody,melody,starting,c,negative,positive,ES_yellow,1,c,595,2437016,2437520,2437724
13,forth,89,lustig,IAT_yellow2.bmp,yellow,ending_scream,scream,ending,m,positive,positive,ES_yellow,1,m,610,2439395,2439900,2440104
13,forth,90,krank,IAT_purple4.bmp,purple,ending_melody,melody,ending,c,negative,negative,ES_yellow,1,c,478,2441790,2442294,2442498
13,forth,91,streng,IAT_green3.bmp,green,starting_scream,scream,starting,c,negative,negative,ES_yellow,1,c,437,2444054,2444558,2444762
13,forth,92,ehrlich,IAT_purple1.bmp,purple,ending_melody,melody,ending,m,positive,negative,ES_yellow,1,m,581,2446275,2446780,2446984
13,forth,93,gesund,IAT_green3.bmp,green,starting_scream,scream,starting,m,positive,negative,ES_yellow,0,c,445,2448643,2449147,2449351
13,forth,94,gierig,IAT_green2.bmp,green,starting_scream,scream,starting,c,negative,negative,ES_yellow,1,c,542,2451373,2451878,2452082
13,forth,95,geizig,IAT_green2.bmp,green,starting_scream,scream,starting,c,negative,negative,ES_yellow,1,c,399,2453700,2454204,2454408
