subject_nr,block,trialnr,trial_target,trial_prime,prime_color,prime_role,prime_us,prime_relation,correct_response,target_valence,prime_valence,color_counter,correct_first_response,response_first_response,response_time_first_response,fixation_show,prime_show,target_show
84,first,0,ehrlich,IAT_green1.bmp,green,ending_scream,scream,ending,m,positive,positive,ES_green,1,m,690,1428480,1428984,1429188
84,first,1,witzig,IAT_purple1.bmp,purple,starting_scream,scream,starting,m,positive,negative,ES_green,1,m,463,1430952,1431456,1431660
84,first,2,human,IAT_purple4.bmp,purple,starting_scream,scream,starting,m,positive,negative,ES_green,1,m,558,1433196,1433700,1433904
84,first,3,gesund,IAT_red1.bmp,red,ending_melody,melody,ending,m,positive,negative,ES_green,1,m,615,1435534,1436039,1436243
84,first,4,geizig,IAT_yellow1.bmp,yellow,starting_melody,melody,starting,c,negative,positive,ES_green,1,c,647,1437931,1438435,1438639
84,first,5,sanft,IAT_red3.bmp,red,ending_melody,melody,ending,m,positive,negative,ES_green,1,m,556,1440359,1440864,1441068
84,first,6,gierig,IAT_red2.bmp,red,ending_melody,melody,ending,c,negative,negative,ES_green,1,c,474,1442696,1443200,1443404
84,first,7,lästig,IAT_purple2.bmp,purple,starting_scream,scream,starting,c,negative,negative,ES_green,1,c,1240,1444951,1445455,1445659
84,first,8,sonnig,IAT_purple1.bmp,purple,starting_scream,scream,starting,m,positive,negative,ES_green,1,m,491,1447972,1448476,1448680
84,first,9,brutal,IAT_purple3.bmp,purple,starting_scream,scream,starting,c,negative,negative,ES_green,1,c,566,1450244,1450749,1450953
84,first,10,krank,IAT_green2.bmp,green,ending_scream,scream,ending,c,negative,positive,ES_green,1,c,543,1452591,1453095,1453299
84,first,11,gerecht,IAT_red1.bmp,red,ending_melody,melody,ending,m,positive,negative,ES_green,1,m,451,1454915,1455419,1455623
84,first,12,falsch,IAT_purple1.bmp,purple,starting_scream,scream,starting,c,negative,negative,ES_green,1,c,603,1457148,1457652,1457856
84,first,13,geizig,IAT_yellow4.bmp,yellow,starting_melody,melody,starting,c,negative,positive,ES_green,1,c,595,1459532,1460036,1460240
84,first,14,munter,IAT_red1.bmp,red,ending_melody,melody,ending,m,positive,negative,ES_green,1,m,696,1461908,1462412,1462616
84,first,15,sanft,IAT_purple1.bmp,purple,starting_scream,scream,starting,m,positive,negative,ES_green,1,m,881,1464384,1464889,1465094
84,first,16,streng,IAT_purple3.bmp,purple,starting_scream,scream,starting,c,negative,negative,ES_green,0,m,565,1467049,1467553,1467757
84,first,17,sonnig,IAT_green3.bmp,green,ending_scream,scream,ending,m,positive,positive,ES_green,1,m,974,1469897,1470402,1470606
84,first,18,lästig,IAT_purple2.bmp,purple,starting_scream,scream,starting,c,negative,negative,ES_green,1,c,750,1472653,1473157,1473361
84,first,19,morsch,IAT_green2.bmp,green,ending_scream,scream,ending,c,negative,positive,ES_green,1,c,690,1475184,1475688,1475892
84,first,20,heiter,IAT_green2.bmp,green,ending_scream,scream,ending,m,positive,positive,ES_green,0,None,1500,1477655,1478159,1478363
84,first,21,kaputt,IAT_green2.bmp,green,ending_scream,scream,ending,c,negative,positive,ES_green,1,c,645,1481437,1481941,1482145
84,first,22,krank,IAT_purple4.bmp,purple,starting_scream,scream,starting,c,negative,negative,ES_green,1,c,522,1483863,1484367,1484571
84,first,23,gierig,IAT_red2.bmp,red,ending_melody,melody,ending,c,negative,negative,ES_green,1,c,591,1486166,1486671,1486875
84,first,24,lästig,IAT_red2.bmp,red,ending_melody,melody,ending,c,negative,negative,ES_green,1,c,650,1488540,1489044,1489248
84,first,25,schön,IAT_green2.bmp,green,ending_scream,scream,ending,m,positive,positive,ES_green,1,m,1341,1490972,1491476,1491680
84,first,26,sozial,IAT_yellow3.bmp,yellow,starting_melody,melody,starting,m,positive,positive,ES_green,1,m,519,1494095,1494599,1494803
84,first,27,kaputt,IAT_red4.bmp,red,ending_melody,melody,ending,c,negative,negative,ES_green,1,c,467,1496396,1496901,1497105
84,first,28,lustig,IAT_red3.bmp,red,ending_melody,melody,ending,m,positive,negative,ES_green,1,m,502,1498645,1499149,1499353
84,first,29,teuer,IAT_purple2.bmp,purple,starting_scream,scream,starting,c,negative,negative,ES_green,0,m,562,1500929,1501433,1501637
84,first,30,gerecht,IAT_green4.bmp,green,ending_scream,scream,ending,m,positive,positive,ES_green,1,m,643,1503773,1504277,1504481
84,first,31,gierig,IAT_yellow4.bmp,yellow,starting_melody,melody,starting,c,negative,positive,ES_green,1,c,517,1506197,1506701,1506905
84,first,32,feige,IAT_red4.bmp,red,ending_melody,melody,ending,c,negative,negative,ES_green,1,c,855,1508496,1509000,1509204
84,first,33,brutal,IAT_purple4.bmp,purple,starting_scream,scream,starting,c,negative,negative,ES_green,1,c,645,1511132,1511636,1511840
84,first,34,morsch,IAT_yellow2.bmp,yellow,starting_melody,melody,starting,c,negative,positive,ES_green,1,c,570,1513559,1514063,1514267
84,first,35,teuer,IAT_red3.bmp,red,ending_melody,melody,ending,c,negative,negative,ES_green,1,c,593,1515911,1516415,1516619
84,first,36,schön,IAT_yellow3.bmp,yellow,starting_melody,melody,starting,m,positive,positive,ES_green,1,m,700,1518286,1518790,1518994
84,first,37,lustig,IAT_yellow3.bmp,yellow,starting_melody,melody,starting,m,positive,positive,ES_green,1,m,599,1520768,1521272,1521476
84,first,38,sonnig,IAT_yellow1.bmp,yellow,starting_melody,melody,starting,m,positive,positive,ES_green,1,m,600,1523149,1523654,1523858
84,first,39,heiter,IAT_purple4.bmp,purple,starting_scream,scream,starting,m,positive,negative,ES_green,1,m,937,1525531,1526035,1526239
84,first,40,feige,IAT_yellow3.bmp,yellow,starting_melody,melody,starting,c,negative,positive,ES_green,1,c,566,1528251,1528755,1528959
84,first,41,sozial,IAT_purple1.bmp,purple,starting_scream,scream,starting,m,positive,negative,ES_green,1,m,902,1530599,1531103,1531307
84,first,42,gesund,IAT_yellow2.bmp,yellow,starting_melody,melody,starting,m,positive,positive,ES_green,1,m,509,1533283,1533787,1533991
84,first,43,ehrlich,IAT_yellow1.bmp,yellow,starting_melody,melody,starting,m,positive,positive,ES_green,1,m,590,1535574,1536079,1536283
84,first,44,falsch,IAT_yellow2.bmp,yellow,starting_melody,melody,starting,c,negative,positive,ES_green,1,c,645,1537946,1538450,1538654
84,first,45,munter,IAT_purple3.bmp,purple,starting_scream,scream,starting,m,positive,negative,ES_green,1,m,822,1540371,1540876,1541080
84,first,46,krank,IAT_green3.bmp,green,ending_scream,scream,ending,c,negative,positive,ES_green,1,c,645,1542976,1543480,1543684
84,first,47,feige,IAT_purple1.bmp,purple,starting_scream,scream,starting,c,negative,negative,ES_green,1,c,671,1545403,1545907,1546111
84,first,48,einsam,IAT_purple4.bmp,purple,starting_scream,scream,starting,c,negative,negative,ES_green,1,c,377,1547855,1548360,1548564
84,first,49,brutal,IAT_green1.bmp,green,ending_scream,scream,ending,c,negative,positive,ES_green,1,c,966,1550014,1550518,1550722
84,first,50,teuer,IAT_yellow1.bmp,yellow,starting_melody,melody,starting,c,negative,positive,ES_green,1,c,609,1552763,1553267,1553471
84,first,51,kaputt,IAT_green4.bmp,green,ending_scream,scream,ending,c,negative,positive,ES_green,1,c,528,1555154,1555658,1555862
84,first,52,human,IAT_yellow1.bmp,yellow,starting_melody,melody,starting,m,positive,positive,ES_green,0,c,522,1557464,1557968,1558172
84,first,53,falsch,IAT_yellow4.bmp,yellow,starting_melody,melody,starting,c,negative,positive,ES_green,1,c,508,1560268,1560773,1560977
84,first,54,geizig,IAT_red4.bmp,red,ending_melody,melody,ending,c,negative,negative,ES_green,1,c,593,1562559,1563064,1563268
84,first,55,lustig,IAT_red4.bmp,red,ending_melody,melody,ending,m,positive,negative,ES_green,1,m,580,1564935,1565439,1565643
84,first,56,sanft,IAT_red1.bmp,red,ending_melody,melody,ending,m,positive,negative,ES_green,1,m,400,1567297,1567801,1568005
84,first,57,gesund,IAT_yellow1.bmp,yellow,starting_melody,melody,starting,m,positive,positive,ES_green,1,m,487,1569480,1569984,1570188
84,first,58,kaputt,IAT_yellow3.bmp,yellow,starting_melody,melody,starting,c,negative,positive,ES_green,1,c,558,1571749,1572253,1572457
84,first,59,falsch,IAT_red2.bmp,red,ending_melody,melody,ending,c,negative,negative,ES_green,1,c,455,1574089,1574593,1574797
84,first,60,streng,IAT_yellow2.bmp,yellow,starting_melody,melody,starting,c,negative,positive,ES_green,1,c,449,1576327,1576831,1577035
84,first,61,human,IAT_yellow4.bmp,yellow,starting_melody,melody,starting,m,positive,positive,ES_green,0,c,383,1578558,1579062,1579266
84,first,62,schön,IAT_green3.bmp,green,ending_scream,scream,ending,m,positive,positive,ES_green,1,m,479,1581223,1581727,1581931
84,first,63,brutal,IAT_red3.bmp,red,ending_melody,melody,ending,c,negative,negative,ES_green,1,c,466,1583486,1583990,1584194
84,first,64,sozial,IAT_yellow2.bmp,yellow,starting_melody,melody,starting,m,positive,positive,ES_green,1,m,565,1585734,1586238,1586442
84,first,65,streng,IAT_purple4.bmp,purple,starting_scream,scream,starting,c,negative,negative,ES_green,1,c,565,1588081,1588585,1588789
84,first,66,schön,IAT_purple2.bmp,purple,starting_scream,scream,starting,m,positive,negative,ES_green,1,m,902,1590429,1590934,1591138
84,first,67,einsam,IAT_red4.bmp,red,ending_melody,melody,ending,c,negative,negative,ES_green,1,c,641,1593114,1593619,1593823
84,first,68,munter,IAT_green1.bmp,green,ending_scream,scream,ending,m,positive,positive,ES_green,1,m,691,1595536,1596041,1596245
84,first,69,streng,IAT_green3.bmp,green,ending_scream,scream,ending,c,negative,positive,ES_green,1,c,617,1598010,1598515,1598719
84,first,70,heiter,IAT_red2.bmp,red,ending_melody,melody,ending,m,positive,negative,ES_green,1,m,671,1600411,1600915,1601119
84,first,71,teuer,IAT_green2.bmp,green,ending_scream,scream,ending,c,negative,positive,ES_green,0,m,1450,1602863,1603368,1603572
84,first,72,sozial,IAT_green3.bmp,green,ending_scream,scream,ending,m,positive,positive,ES_green,1,m,715,1606596,1607100,1607304
84,first,73,munter,IAT_green3.bmp,green,ending_scream,scream,ending,m,positive,positive,ES_green,1,m,612,1609094,1609598,1609802
84,first,74,geizig,IAT_purple2.bmp,purple,starting_scream,scream,starting,c,negative,negative,ES_green,1,c,589,1611489,1611993,1612197
84,first,75,morsch,IAT_yellow2.bmp,yellow,starting_melody,melody,starting,c,negative,positive,ES_green,1,c,636,1613860,1614365,1614569
84,first,76,krank,IAT_red1.bmp,red,ending_melody,melody,ending,c,negative,negative,ES_green,1,c,480,1616280,1616784,1616988
84,first,77,gesund,IAT_purple3.bmp,purple,starting_scream,scream,starting,m,positive,negative,ES_green,1,m,527,1618543,1619047,1619251
84,first,78,human,IAT_green4.bmp,green,ending_scream,scream,ending,m,positive,positive,ES_green,1,m,668,1620852,1621356,1621560
84,first,79,lustig,IAT_green1.bmp,green,ending_scream,scream,ending,m,positive,positive,ES_green,1,m,630,1623301,1623806,1624010
84,first,80,witzig,IAT_yellow3.bmp,yellow,starting_melody,melody,starting,m,positive,positive,ES_green,1,m,457,1625716,1626220,1626424
84,first,81,ehrlich,IAT_red3.bmp,red,ending_melody,melody,ending,m,positive,negative,ES_green,1,m,524,1627955,1628459,1628663
84,first,82,feige,IAT_green4.bmp,green,ending_scream,scream,ending,c,negative,positive,ES_green,1,c,560,1630261,1630765,1630969
84,first,83,sonnig,IAT_purple3.bmp,purple,starting_scream,scream,starting,m,positive,negative,ES_green,1,m,500,1632603,1633107,1633311
84,first,84,einsam,IAT_green4.bmp,green,ending_scream,scream,ending,c,negative,positive,ES_green,1,c,542,1634886,1635390,1635594
84,first,85,ehrlich,IAT_red3.bmp,red,ending_melody,melody,ending,m,positive,negative,ES_green,1,m,572,1637210,1637714,1637918
84,first,86,gerecht,IAT_green1.bmp,green,ending_scream,scream,ending,m,positive,positive,ES_green,1,m,488,1639564,1640068,1640272
84,first,87,heiter,IAT_purple2.bmp,purple,starting_scream,scream,starting,m,positive,negative,ES_green,1,m,457,1641834,1642339,1642543
84,first,88,lästig,IAT_green1.bmp,green,ending_scream,scream,ending,c,negative,positive,ES_green,0,m,408,1644074,1644578,1644782
84,first,89,gierig,IAT_green4.bmp,green,ending_scream,scream,ending,c,negative,positive,ES_green,1,c,569,1646764,1647268,1647472
84,first,90,gerecht,IAT_red4.bmp,red,ending_melody,melody,ending,m,positive,negative,ES_green,1,m,532,1649115,1649619,1649823
84,first,91,einsam,IAT_red1.bmp,red,ending_melody,melody,ending,c,negative,negative,ES_green,1,c,554,1651431,1651935,1652139
84,first,92,morsch,IAT_yellow4.bmp,yellow,starting_melody,melody,starting,c,negative,positive,ES_green,1,c,531,1653768,1654272,1654476
84,first,93,witzig,IAT_yellow4.bmp,yellow,starting_melody,melody,starting,m,positive,positive,ES_green,1,m,629,1656082,1656586,1656790
84,first,94,sanft,IAT_red2.bmp,red,ending_melody,melody,ending,m,positive,negative,ES_green,1,m,538,1658493,1658997,1659201
84,first,95,witzig,IAT_purple3.bmp,purple,starting_scream,scream,starting,m,positive,negative,ES_green,1,m,666,1660812,1661316,1661520
84,second,0,sonnig,IAT_red2.bmp,red,ending_melody,melody,ending,m,positive,negative,ES_green,1,m,651,1676033,1676537,1676741
84,second,1,kaputt,IAT_yellow2.bmp,yellow,starting_melody,melody,starting,c,negative,positive,ES_green,1,c,585,1678469,1678973,1679177
84,second,2,feige,IAT_yellow4.bmp,yellow,starting_melody,melody,starting,c,negative,positive,ES_green,1,c,525,1680835,1681340,1681544
84,second,3,gesund,IAT_green1.bmp,green,ending_scream,scream,ending,m,positive,positive,ES_green,1,m,506,1683141,1683646,1683850
84,second,4,morsch,IAT_green2.bmp,green,ending_scream,scream,ending,c,negative,positive,ES_green,1,c,490,1685430,1685934,1686138
84,second,5,feige,IAT_green1.bmp,green,ending_scream,scream,ending,c,negative,positive,ES_green,1,c,532,1687702,1688206,1688410
84,second,6,lästig,IAT_red4.bmp,red,ending_melody,melody,ending,c,negative,negative,ES_green,1,c,575,1690016,1690521,1690725
84,second,7,einsam,IAT_yellow1.bmp,yellow,starting_melody,melody,starting,c,negative,positive,ES_green,0,m,611,1692373,1692878,1693082
84,second,8,gierig,IAT_purple1.bmp,purple,starting_scream,scream,starting,c,negative,negative,ES_green,1,c,617,1695269,1695774,1695978
84,second,9,schön,IAT_yellow3.bmp,yellow,starting_melody,melody,starting,m,positive,positive,ES_green,1,m,628,1697670,1698174,1698378
84,second,10,brutal,IAT_green3.bmp,green,ending_scream,scream,ending,c,negative,positive,ES_green,1,c,502,1700081,1700585,1700789
84,second,11,falsch,IAT_red4.bmp,red,ending_melody,melody,ending,c,negative,negative,ES_green,1,c,662,1702364,1702868,1703072
84,second,12,sanft,IAT_green4.bmp,green,ending_scream,scream,ending,m,positive,positive,ES_green,1,m,627,1704806,1705310,1705514
84,second,13,brutal,IAT_red3.bmp,red,ending_melody,melody,ending,c,negative,negative,ES_green,1,c,674,1707215,1707720,1707924
84,second,14,sonnig,IAT_purple1.bmp,purple,starting_scream,scream,starting,m,positive,negative,ES_green,1,m,489,1709672,1710176,1710380
84,second,15,lustig,IAT_purple4.bmp,purple,starting_scream,scream,starting,m,positive,negative,ES_green,1,m,459,1711942,1712446,1712650
84,second,16,munter,IAT_yellow4.bmp,yellow,starting_melody,melody,starting,m,positive,positive,ES_green,1,m,690,1714183,1714687,1714891
84,second,17,kaputt,IAT_green3.bmp,green,ending_scream,scream,ending,c,negative,positive,ES_green,1,c,512,1716654,1717158,1717362
84,second,18,human,IAT_purple3.bmp,purple,starting_scream,scream,starting,m,positive,negative,ES_green,1,m,687,1718947,1719451,1719655
84,second,19,einsam,IAT_red2.bmp,red,ending_melody,melody,ending,c,negative,negative,ES_green,1,c,977,1721416,1721921,1722125
84,second,20,heiter,IAT_green3.bmp,green,ending_scream,scream,ending,m,positive,positive,ES_green,1,m,508,1724176,1724680,1724884
84,second,21,gerecht,IAT_green1.bmp,green,ending_scream,scream,ending,m,positive,positive,ES_green,1,m,611,1726466,1726970,1727174
84,second,22,heiter,IAT_yellow3.bmp,yellow,starting_melody,melody,starting,m,positive,positive,ES_green,1,m,537,1728860,1729364,1729568
84,second,23,morsch,IAT_red1.bmp,red,ending_melody,melody,ending,c,negative,negative,ES_green,1,c,450,1731180,1731684,1731888
84,second,24,sanft,IAT_green3.bmp,green,ending_scream,scream,ending,m,positive,positive,ES_green,1,m,544,1733412,1733916,1734120
84,second,25,streng,IAT_purple4.bmp,purple,starting_scream,scream,starting,c,negative,negative,ES_green,1,c,506,1735738,1736242,1736446
84,second,26,sozial,IAT_red3.bmp,red,ending_melody,melody,ending,m,positive,negative,ES_green,1,m,511,1738026,1738530,1738734
84,second,27,sonnig,IAT_yellow2.bmp,yellow,starting_melody,melody,starting,m,positive,positive,ES_green,1,m,881,1740320,1740824,1741028
84,second,28,morsch,IAT_yellow2.bmp,yellow,starting_melody,melody,starting,c,negative,positive,ES_green,1,c,478,1742983,1743487,1743691
84,second,29,human,IAT_purple3.bmp,purple,starting_scream,scream,starting,m,positive,negative,ES_green,0,c,433,1745242,1745746,1745950
84,second,30,gerecht,IAT_red3.bmp,red,ending_melody,melody,ending,m,positive,negative,ES_green,1,m,593,1747957,1748461,1748665
84,second,31,lästig,IAT_red2.bmp,red,ending_melody,melody,ending,c,negative,negative,ES_green,1,c,615,1750332,1750836,1751040
84,second,32,ehrlich,IAT_red4.bmp,red,ending_melody,melody,ending,m,positive,negative,ES_green,1,m,792,1752729,1753233,1753437
84,second,33,kaputt,IAT_red4.bmp,red,ending_melody,melody,ending,c,negative,negative,ES_green,1,c,637,1755303,1755807,1756011
84,second,34,witzig,IAT_red1.bmp,red,ending_melody,melody,ending,m,positive,negative,ES_green,1,m,727,1757722,1758227,1758431
84,second,35,human,IAT_yellow1.bmp,yellow,starting_melody,melody,starting,m,positive,positive,ES_green,1,m,489,1760232,1760736,1760940
84,second,36,gierig,IAT_yellow4.bmp,yellow,starting_melody,melody,starting,c,negative,positive,ES_green,1,c,548,1762503,1763007,1763211
84,second,37,krank,IAT_purple2.bmp,purple,starting_scream,scream,starting,c,negative,negative,ES_green,1,c,529,1764834,1765338,1765542
84,second,38,teuer,IAT_green2.bmp,green,ending_scream,scream,ending,c,negative,positive,ES_green,0,m,671,1767145,1767649,1767853
84,second,39,witzig,IAT_yellow1.bmp,yellow,starting_melody,melody,starting,m,positive,positive,ES_green,1,m,704,1770098,1770603,1770807
84,second,40,gierig,IAT_yellow3.bmp,yellow,starting_melody,melody,starting,c,negative,positive,ES_green,1,c,615,1772586,1773090,1773294
84,second,41,sozial,IAT_green3.bmp,green,ending_scream,scream,ending,m,positive,positive,ES_green,1,m,1141,1774983,1775487,1775691
84,second,42,munter,IAT_yellow1.bmp,yellow,starting_melody,melody,starting,m,positive,positive,ES_green,1,m,1269,1777906,1778410,1778614
84,second,43,einsam,IAT_red2.bmp,red,ending_melody,melody,ending,c,negative,negative,ES_green,1,c,580,1780957,1781462,1781666
84,second,44,krank,IAT_purple3.bmp,purple,starting_scream,scream,starting,c,negative,negative,ES_green,1,c,403,1783321,1783826,1784030
84,second,45,sonnig,IAT_green1.bmp,green,ending_scream,scream,ending,m,positive,positive,ES_green,1,m,531,1785506,1786010,1786214
84,second,46,feige,IAT_yellow4.bmp,yellow,starting_melody,melody,starting,c,negative,positive,ES_green,1,c,581,1787819,1788323,1788527
84,second,47,heiter,IAT_yellow4.bmp,yellow,starting_melody,melody,starting,m,positive,positive,ES_green,1,m,960,1790183,1790687,1790891
84,second,48,gesund,IAT_green4.bmp,green,ending_scream,scream,ending,m,positive,positive,ES_green,1,m,995,1792925,1793429,1793633
84,second,49,gierig,IAT_purple4.bmp,purple,starting_scream,scream,starting,c,negative,negative,ES_green,1,c,458,1795701,1796206,1796410
84,second,50,gerecht,IAT_red1.bmp,red,ending_melody,melody,ending,m,positive,negative,ES_green,1,m,548,1797942,1798446,1798650
84,second,51,streng,IAT_red4.bmp,red,ending_melody,melody,ending,c,negative,negative,ES_green,1,c,647,1800272,1800776,1800980
84,second,52,lustig,IAT_purple2.bmp,purple,starting_scream,scream,starting,m,positive,negative,ES_green,1,m,677,1802701,1803205,1803409
84,second,53,brutal,IAT_purple3.bmp,purple,starting_scream,scream,starting,c,negative,negative,ES_green,1,c,777,1805161,1805665,1805869
84,second,54,gesund,IAT_green2.bmp,green,ending_scream,scream,ending,m,positive,positive,ES_green,1,m,492,1807720,1808224,1808428
84,second,55,teuer,IAT_purple1.bmp,purple,starting_scream,scream,starting,c,negative,negative,ES_green,1,c,613,1809994,1810498,1810702
84,second,56,witzig,IAT_yellow3.bmp,yellow,starting_melody,melody,starting,m,positive,positive,ES_green,1,m,521,1812390,1812895,1813099
84,second,57,falsch,IAT_purple4.bmp,purple,starting_scream,scream,starting,c,negative,negative,ES_green,1,c,439,1814694,1815199,1815403
84,second,58,lustig,IAT_yellow1.bmp,yellow,starting_melody,melody,starting,m,positive,positive,ES_green,1,m,452,1816916,1817420,1817624
84,second,59,streng,IAT_green2.bmp,green,ending_scream,scream,ending,c,negative,positive,ES_green,1,c,441,1819150,1819654,1819858
84,second,60,munter,IAT_purple3.bmp,purple,starting_scream,scream,starting,m,positive,negative,ES_green,1,m,643,1821373,1821878,1822082
84,second,61,schön,IAT_purple1.bmp,purple,starting_scream,scream,starting,m,positive,negative,ES_green,1,m,519,1823800,1824304,1824508
84,second,62,feige,IAT_purple2.bmp,purple,starting_scream,scream,starting,c,negative,negative,ES_green,1,c,538,1826102,1826607,1826811
84,second,63,streng,IAT_green4.bmp,green,ending_scream,scream,ending,c,negative,positive,ES_green,1,c,477,1828422,1828927,1829131
84,second,64,teuer,IAT_green1.bmp,green,ending_scream,scream,ending,c,negative,positive,ES_green,1,c,577,1830681,1831186,1831390
84,second,65,munter,IAT_red3.bmp,red,ending_melody,melody,ending,m,positive,negative,ES_green,1,m,559,1833042,1833546,1833750
84,second,66,gesund,IAT_purple4.bmp,purple,starting_scream,scream,starting,m,positive,negative,ES_green,1,m,779,1835382,1835886,1836090
84,second,67,sozial,IAT_red1.bmp,red,ending_melody,melody,ending,m,positive,negative,ES_green,1,m,508,1837944,1838448,1838652
84,second,68,geizig,IAT_yellow3.bmp,yellow,starting_melody,melody,starting,c,negative,positive,ES_green,1,c,636,1840235,1840739,1840943
84,second,69,krank,IAT_red2.bmp,red,ending_melody,melody,ending,c,negative,negative,ES_green,1,c,562,1842654,1843158,1843362
84,second,70,kaputt,IAT_purple4.bmp,purple,starting_scream,scream,starting,c,negative,negative,ES_green,1,c,538,1844999,1845503,1845707
84,second,71,human,IAT_red1.bmp,red,ending_melody,melody,ending,m,positive,negative,ES_green,1,m,633,1847319,1847823,1848027
84,second,72,falsch,IAT_purple2.bmp,purple,starting_scream,scream,starting,c,negative,negative,ES_green,1,c,494,1849734,1850238,1850442
84,second,73,schön,IAT_purple1.bmp,purple,starting_scream,scream,starting,m,positive,negative,ES_green,1,m,533,1852011,1852515,1852719
84,second,74,lästig,IAT_yellow1.bmp,yellow,starting_melody,melody,starting,c,negative,positive,ES_green,1,c,741,1854327,1854832,1855036
84,second,75,ehrlich,IAT_red4.bmp,red,ending_melody,melody,ending,m,positive,negative,ES_green,1,m,660,1856853,1857357,1857561
84,second,76,geizig,IAT_green4.bmp,green,ending_scream,scream,ending,c,negative,positive,ES_green,1,c,736,1859296,1859800,1860004
84,second,77,sozial,IAT_green1.bmp,green,ending_scream,scream,ending,m,positive,positive,ES_green,1,m,539,1861813,1862317,1862521
84,second,78,einsam,IAT_yellow4.bmp,yellow,starting_melody,melody,starting,c,negative,positive,ES_green,1,c,703,1864135,1864640,1864844
84,second,79,schön,IAT_yellow3.bmp,yellow,starting_melody,melody,starting,m,positive,positive,ES_green,1,m,660,1866621,1867125,1867329
84,second,80,lustig,IAT_red2.bmp,red,ending_melody,melody,ending,m,positive,negative,ES_green,1,m,1189,1869063,1869568,1869772
84,second,81,ehrlich,IAT_purple3.bmp,purple,starting_scream,scream,starting,m,positive,negative,ES_green,1,m,619,1872035,1872539,1872743
84,second,82,geizig,IAT_purple2.bmp,purple,starting_scream,scream,starting,c,negative,negative,ES_green,1,c,681,1874436,1874940,1875144
84,second,83,sanft,IAT_purple1.bmp,purple,starting_scream,scream,starting,m,positive,negative,ES_green,1,m,501,1876899,1877403,1877607
84,second,84,lästig,IAT_yellow2.bmp,yellow,starting_melody,melody,starting,c,negative,positive,ES_green,1,c,616,1879183,1879687,1879891
84,second,85,teuer,IAT_green2.bmp,green,ending_scream,scream,ending,c,negative,positive,ES_green,1,c,535,1881580,1882085,1882289
84,second,86,geizig,IAT_yellow2.bmp,yellow,starting_melody,melody,starting,c,negative,positive,ES_green,1,c,454,1883898,1884402,1884606
84,second,87,brutal,IAT_green4.bmp,green,ending_scream,scream,ending,c,negative,positive,ES_green,1,c,421,1886135,1886640,1886844
84,second,88,gerecht,IAT_red3.bmp,red,ending_melody,melody,ending,m,positive,negative,ES_green,1,m,581,1888340,1888844,1889048
84,second,89,krank,IAT_red3.bmp,red,ending_melody,melody,ending,c,negative,negative,ES_green,1,c,572,1890703,1891207,1891411
84,second,90,witzig,IAT_yellow2.bmp,yellow,starting_melody,melody,starting,m,positive,positive,ES_green,1,m,552,1893059,1893563,1893767
84,second,91,falsch,IAT_red1.bmp,red,ending_melody,melody,ending,c,negative,negative,ES_green,1,c,527,1895392,1895897,1896101
84,second,92,ehrlich,IAT_green3.bmp,green,ending_scream,scream,ending,m,positive,positive,ES_green,1,m,581,1897702,1898207,1898411
84,second,93,heiter,IAT_green2.bmp,green,ending_scream,scream,ending,m,positive,positive,ES_green,1,m,579,1900066,1900570,1900775
84,second,94,morsch,IAT_green4.bmp,green,ending_scream,scream,ending,c,negative,positive,ES_green,1,c,554,1902429,1902934,1903138
84,second,95,sanft,IAT_purple2.bmp,purple,starting_scream,scream,starting,m,positive,negative,ES_green,1,m,564,1904767,1905271,1905475
84,third,0,streng,IAT_purple1.bmp,purple,starting_scream,scream,starting,c,negative,negative,ES_green,1,c,574,1934742,1935246,1935450
84,third,1,feige,IAT_red2.bmp,red,ending_melody,melody,ending,c,negative,negative,ES_green,1,c,451,1937101,1937605,1937809
84,third,2,schön,IAT_purple1.bmp,purple,starting_scream,scream,starting,m,positive,negative,ES_green,1,m,470,1939334,1939838,1940042
84,third,3,geizig,IAT_green4.bmp,green,ending_scream,scream,ending,c,negative,positive,ES_green,1,c,664,1941586,1942090,1942294
84,third,4,feige,IAT_red4.bmp,red,ending_melody,melody,ending,c,negative,negative,ES_green,1,c,443,1944031,1944536,1944740
84,third,5,ehrlich,IAT_yellow4.bmp,yellow,starting_melody,melody,starting,m,positive,positive,ES_green,1,m,456,1946257,1946762,1946966
84,third,6,krank,IAT_red4.bmp,red,ending_melody,melody,ending,c,negative,negative,ES_green,1,c,558,1948495,1948999,1949203
84,third,7,streng,IAT_red4.bmp,red,ending_melody,melody,ending,c,negative,negative,ES_green,1,c,549,1950834,1951339,1951543
84,third,8,morsch,IAT_yellow4.bmp,yellow,starting_melody,melody,starting,c,negative,positive,ES_green,1,c,390,1953166,1953670,1953874
84,third,9,sanft,IAT_yellow1.bmp,yellow,starting_melody,melody,starting,m,positive,positive,ES_green,1,m,505,1955338,1955842,1956046
84,third,10,schön,IAT_yellow3.bmp,yellow,starting_melody,melody,starting,m,positive,positive,ES_green,1,m,624,1957625,1958129,1958333
84,third,11,falsch,IAT_purple4.bmp,purple,starting_scream,scream,starting,c,negative,negative,ES_green,1,c,443,1960031,1960535,1960739
84,third,12,teuer,IAT_green2.bmp,green,ending_scream,scream,ending,c,negative,positive,ES_green,1,c,766,1962260,1962764,1962968
84,third,13,witzig,IAT_red3.bmp,red,ending_melody,melody,ending,m,positive,negative,ES_green,1,m,525,1964810,1965314,1965518
84,third,14,sanft,IAT_red1.bmp,red,ending_melody,melody,ending,m,positive,negative,ES_green,1,m,509,1967118,1967622,1967826
84,third,15,falsch,IAT_purple2.bmp,purple,starting_scream,scream,starting,c,negative,negative,ES_green,1,c,411,1969410,1969914,1970118
84,third,16,sonnig,IAT_yellow3.bmp,yellow,starting_melody,melody,starting,m,positive,positive,ES_green,1,m,548,1971604,1972108,1972312
84,third,17,brutal,IAT_yellow1.bmp,yellow,starting_melody,melody,starting,c,negative,positive,ES_green,1,c,546,1973934,1974438,1974642
84,third,18,krank,IAT_yellow3.bmp,yellow,starting_melody,melody,starting,c,negative,positive,ES_green,1,c,531,1976262,1976766,1976970
84,third,19,sozial,IAT_yellow1.bmp,yellow,starting_melody,melody,starting,m,positive,positive,ES_green,1,m,546,1978575,1979079,1979283
84,third,20,kaputt,IAT_green4.bmp,green,ending_scream,scream,ending,c,negative,positive,ES_green,1,c,555,1980902,1981407,1981611
84,third,21,human,IAT_red1.bmp,red,ending_melody,melody,ending,m,positive,negative,ES_green,1,m,541,1983240,1983745,1983949
84,third,22,munter,IAT_green2.bmp,green,ending_scream,scream,ending,m,positive,positive,ES_green,1,m,758,1985563,1986068,1986272
84,third,23,einsam,IAT_green1.bmp,green,ending_scream,scream,ending,c,negative,positive,ES_green,1,c,603,1988103,1988608,1988812
84,third,24,sonnig,IAT_yellow2.bmp,yellow,starting_melody,melody,starting,m,positive,positive,ES_green,1,m,496,1990490,1990995,1991199
84,third,25,gesund,IAT_purple2.bmp,purple,starting_scream,scream,starting,m,positive,negative,ES_green,1,m,584,1992771,1993275,1993479
84,third,26,sanft,IAT_yellow2.bmp,yellow,starting_melody,melody,starting,m,positive,positive,ES_green,1,m,531,1995137,1995641,1995845
84,third,27,lustig,IAT_purple4.bmp,purple,starting_scream,scream,starting,m,positive,negative,ES_green,1,m,535,1997450,1997955,1998159
84,third,28,sonnig,IAT_yellow1.bmp,yellow,starting_melody,melody,starting,m,positive,positive,ES_green,1,m,518,1999770,2000274,2000480
84,third,29,kaputt,IAT_red3.bmp,red,ending_melody,melody,ending,c,negative,negative,ES_green,1,c,550,2002073,2002577,2002781
84,third,30,lustig,IAT_green1.bmp,green,ending_scream,scream,ending,m,positive,positive,ES_green,1,m,498,2004406,2004910,2005114
84,third,31,witzig,IAT_green2.bmp,green,ending_scream,scream,ending,m,positive,positive,ES_green,1,m,537,2006688,2007192,2007396
84,third,32,ehrlich,IAT_yellow3.bmp,yellow,starting_melody,melody,starting,m,positive,positive,ES_green,1,m,553,2009008,2009513,2009717
84,third,33,gerecht,IAT_red4.bmp,red,ending_melody,melody,ending,m,positive,negative,ES_green,1,m,516,2011345,2011849,2012053
84,third,34,heiter,IAT_red3.bmp,red,ending_melody,melody,ending,m,positive,negative,ES_green,1,m,491,2013644,2014148,2014352
84,third,35,feige,IAT_green1.bmp,green,ending_scream,scream,ending,c,negative,positive,ES_green,1,c,630,2015918,2016422,2016626
84,third,36,morsch,IAT_yellow2.bmp,yellow,starting_melody,melody,starting,c,negative,positive,ES_green,1,c,467,2018333,2018837,2019041
84,third,37,lästig,IAT_purple1.bmp,purple,starting_scream,scream,starting,c,negative,negative,ES_green,1,c,531,2020585,2021089,2021293
84,third,38,gesund,IAT_yellow3.bmp,yellow,starting_melody,melody,starting,m,positive,positive,ES_green,1,m,631,2022899,2023403,2023607
84,third,39,gierig,IAT_yellow2.bmp,yellow,starting_melody,melody,starting,c,negative,positive,ES_green,1,c,601,2025313,2025817,2026021
84,third,40,gerecht,IAT_green4.bmp,green,ending_scream,scream,ending,m,positive,positive,ES_green,1,m,568,2027697,2028202,2028406
84,third,41,sozial,IAT_red2.bmp,red,ending_melody,melody,ending,m,positive,negative,ES_green,1,m,768,2030050,2030555,2030759
84,third,42,heiter,IAT_purple1.bmp,purple,starting_scream,scream,starting,m,positive,negative,ES_green,1,m,425,2032603,2033107,2033311
84,third,43,lustig,IAT_purple3.bmp,purple,starting_scream,scream,starting,m,positive,negative,ES_green,1,m,437,2034812,2035316,2035520
84,third,44,kaputt,IAT_red1.bmp,red,ending_melody,melody,ending,c,negative,negative,ES_green,1,c,810,2037032,2037536,2037740
84,third,45,lästig,IAT_green2.bmp,green,ending_scream,scream,ending,c,negative,positive,ES_green,1,c,727,2039624,2040129,2040333
84,third,46,gerecht,IAT_purple3.bmp,purple,starting_scream,scream,starting,m,positive,negative,ES_green,1,m,483,2042135,2042639,2042843
84,third,47,falsch,IAT_purple4.bmp,purple,starting_scream,scream,starting,c,negative,negative,ES_green,1,c,582,2044401,2044907,2045111
84,third,48,ehrlich,IAT_green3.bmp,green,ending_scream,scream,ending,m,positive,positive,ES_green,1,m,454,2046769,2047273,2047477
84,third,49,human,IAT_purple3.bmp,purple,starting_scream,scream,starting,m,positive,negative,ES_green,1,m,489,2049008,2049512,2049716
84,third,50,brutal,IAT_green4.bmp,green,ending_scream,scream,ending,c,negative,positive,ES_green,1,c,563,2051281,2051785,2051989
84,third,51,gesund,IAT_red3.bmp,red,ending_melody,melody,ending,m,positive,negative,ES_green,1,m,513,2053627,2054131,2054335
84,third,52,heiter,IAT_green1.bmp,green,ending_scream,scream,ending,m,positive,positive,ES_green,1,m,506,2055923,2056427,2056631
84,third,53,human,IAT_green3.bmp,green,ending_scream,scream,ending,m,positive,positive,ES_green,1,m,555,2058212,2058716,2058920
84,third,54,krank,IAT_red4.bmp,red,ending_melody,melody,ending,c,negative,negative,ES_green,1,c,496,2060550,2061054,2061258
84,third,55,witzig,IAT_red3.bmp,red,ending_melody,melody,ending,m,positive,negative,ES_green,1,m,493,2062830,2063335,2063539
84,third,56,einsam,IAT_purple2.bmp,purple,starting_scream,scream,starting,c,negative,negative,ES_green,1,c,587,2065108,2065612,2065816
84,third,57,streng,IAT_purple4.bmp,purple,starting_scream,scream,starting,c,negative,negative,ES_green,1,c,354,2067477,2067981,2068185
84,third,58,human,IAT_red4.bmp,red,ending_melody,melody,ending,m,positive,negative,ES_green,1,m,569,2069614,2070118,2070322
84,third,59,gierig,IAT_yellow4.bmp,yellow,starting_melody,melody,starting,c,negative,positive,ES_green,1,c,548,2071967,2072472,2072676
84,third,60,schön,IAT_green3.bmp,green,ending_scream,scream,ending,m,positive,positive,ES_green,1,m,401,2074300,2074804,2075008
84,third,61,sonnig,IAT_purple1.bmp,purple,starting_scream,scream,starting,m,positive,negative,ES_green,1,m,555,2076485,2076989,2077193
84,third,62,ehrlich,IAT_green3.bmp,green,ending_scream,scream,ending,m,positive,positive,ES_green,1,m,527,2078823,2079327,2079531
84,third,63,geizig,IAT_yellow2.bmp,yellow,starting_melody,melody,starting,c,negative,positive,ES_green,1,c,823,2081134,2081638,2081842
84,third,64,falsch,IAT_purple3.bmp,purple,starting_scream,scream,starting,c,negative,negative,ES_green,1,c,476,2083740,2084244,2084448
84,third,65,lästig,IAT_green4.bmp,green,ending_scream,scream,ending,c,negative,positive,ES_green,1,c,519,2086000,2086504,2086708
84,third,66,sozial,IAT_purple4.bmp,purple,starting_scream,scream,starting,m,positive,negative,ES_green,1,m,1065,2088301,2088805,2089009
84,third,67,munter,IAT_green4.bmp,green,ending_scream,scream,ending,m,positive,positive,ES_green,1,m,626,2091148,2091652,2091856
84,third,68,einsam,IAT_red1.bmp,red,ending_melody,melody,ending,c,negative,negative,ES_green,1,c,607,2093558,2094062,2094266
84,third,69,teuer,IAT_purple2.bmp,purple,starting_scream,scream,starting,c,negative,negative,ES_green,1,c,511,2095947,2096452,2096656
84,third,70,gierig,IAT_purple2.bmp,purple,starting_scream,scream,starting,c,negative,negative,ES_green,1,c,371,2098242,2098746,2098950
84,third,71,sanft,IAT_green1.bmp,green,ending_scream,scream,ending,m,positive,positive,ES_green,1,m,609,2100396,2100900,2101104
84,third,72,morsch,IAT_red2.bmp,red,ending_melody,melody,ending,c,negative,negative,ES_green,1,c,531,2102788,2103292,2103496
84,third,73,schön,IAT_purple1.bmp,purple,starting_scream,scream,starting,m,positive,negative,ES_green,1,m,492,2105102,2105607,2105811
84,third,74,brutal,IAT_yellow1.bmp,yellow,starting_melody,melody,starting,c,negative,positive,ES_green,1,c,531,2107379,2107883,2108087
84,third,75,munter,IAT_red2.bmp,red,ending_melody,melody,ending,m,positive,negative,ES_green,0,c,528,2109693,2110197,2110401
84,third,76,kaputt,IAT_purple4.bmp,purple,starting_scream,scream,starting,c,negative,negative,ES_green,1,c,523,2112504,2113009,2113213
84,third,77,gesund,IAT_red1.bmp,red,ending_melody,melody,ending,m,positive,negative,ES_green,1,m,519,2114812,2115316,2115520
84,third,78,morsch,IAT_green2.bmp,green,ending_scream,scream,ending,c,negative,positive,ES_green,1,c,591,2117114,2117618,2117822
84,third,79,heiter,IAT_red1.bmp,red,ending_melody,melody,ending,m,positive,negative,ES_green,1,m,540,2119489,2119993,2120197
84,third,80,lästig,IAT_red2.bmp,red,ending_melody,melody,ending,c,negative,negative,ES_green,1,c,650,2121813,2122317,2122521
84,third,81,feige,IAT_red2.bmp,red,ending_melody,melody,ending,c,negative,negative,ES_green,1,c,671,2124246,2124751,2124955
84,third,82,gerecht,IAT_yellow4.bmp,yellow,starting_melody,melody,starting,m,positive,positive,ES_green,1,m,565,2126701,2127205,2127409
84,third,83,geizig,IAT_yellow4.bmp,yellow,starting_melody,melody,starting,c,negative,positive,ES_green,1,c,553,2129049,2129554,2129758
84,third,84,einsam,IAT_yellow4.bmp,yellow,starting_melody,melody,starting,c,negative,positive,ES_green,1,c,530,2131387,2131891,2132095
84,third,85,gierig,IAT_yellow3.bmp,yellow,starting_melody,melody,starting,c,negative,positive,ES_green,1,c,452,2133700,2134205,2134409
84,third,86,streng,IAT_red3.bmp,red,ending_melody,melody,ending,c,negative,negative,ES_green,1,c,477,2135937,2136441,2136645
84,third,87,teuer,IAT_yellow2.bmp,yellow,starting_melody,melody,starting,c,negative,positive,ES_green,1,c,481,2138197,2138702,2138906
84,third,88,sozial,IAT_green1.bmp,green,ending_scream,scream,ending,m,positive,positive,ES_green,0,c,322,2140462,2140966,2141170
84,third,89,brutal,IAT_green2.bmp,green,ending_scream,scream,ending,c,negative,positive,ES_green,1,c,559,2143069,2143573,2143777
84,third,90,teuer,IAT_green3.bmp,green,ending_scream,scream,ending,c,negative,positive,ES_green,1,c,562,2145412,2145916,2146120
84,third,91,lustig,IAT_purple2.bmp,purple,starting_scream,scream,starting,m,positive,negative,ES_green,1,m,550,2147757,2148261,2148465
84,third,92,geizig,IAT_purple3.bmp,purple,starting_scream,scream,starting,c,negative,negative,ES_green,1,c,540,2150091,2150595,2150799
84,third,93,munter,IAT_yellow1.bmp,yellow,starting_melody,melody,starting,m,positive,positive,ES_green,1,m,568,2152415,2152919,2153123
84,third,94,krank,IAT_green3.bmp,green,ending_scream,scream,ending,c,negative,positive,ES_green,1,c,455,2154765,2155269,2155473
84,third,95,witzig,IAT_purple3.bmp,purple,starting_scream,scream,starting,m,positive,negative,ES_green,1,m,745,2157003,2157508,2157712
84,forth,0,sonnig,IAT_yellow3.bmp,yellow,starting_melody,melody,starting,m,positive,positive,ES_green,1,m,588,2176598,2177102,2177306
84,forth,1,gesund,IAT_purple1.bmp,purple,starting_scream,scream,starting,m,positive,negative,ES_green,1,m,433,2178971,2179476,2179680
84,forth,2,gerecht,IAT_purple3.bmp,purple,starting_scream,scream,starting,m,positive,negative,ES_green,1,m,451,2181186,2181690,2181894
84,forth,3,morsch,IAT_green4.bmp,green,ending_scream,scream,ending,c,negative,positive,ES_green,1,c,551,2183419,2183923,2184128
84,forth,4,munter,IAT_green4.bmp,green,ending_scream,scream,ending,m,positive,positive,ES_green,1,m,468,2185753,2186257,2186461
84,forth,5,feige,IAT_yellow4.bmp,yellow,starting_melody,melody,starting,c,negative,positive,ES_green,1,c,585,2188004,2188509,2188713
84,forth,6,lustig,IAT_red3.bmp,red,ending_melody,melody,ending,m,positive,negative,ES_green,1,m,526,2190372,2190876,2191080
84,forth,7,sonnig,IAT_green2.bmp,green,ending_scream,scream,ending,m,positive,positive,ES_green,1,m,486,2192680,2193184,2193388
84,forth,8,sanft,IAT_red3.bmp,red,ending_melody,melody,ending,m,positive,negative,ES_green,1,m,531,2194948,2195452,2195656
84,forth,9,lästig,IAT_yellow3.bmp,yellow,starting_melody,melody,starting,c,negative,positive,ES_green,1,c,544,2197261,2197765,2197969
84,forth,10,brutal,IAT_yellow1.bmp,yellow,starting_melody,melody,starting,c,negative,positive,ES_green,1,c,425,2199588,2200092,2200296
84,forth,11,human,IAT_green3.bmp,green,ending_scream,scream,ending,m,positive,positive,ES_green,0,c,361,2201795,2202299,2202503
84,forth,12,sozial,IAT_red1.bmp,red,ending_melody,melody,ending,m,positive,negative,ES_green,1,m,459,2204441,2204946,2205150
84,forth,13,witzig,IAT_green3.bmp,green,ending_scream,scream,ending,m,positive,positive,ES_green,0,c,537,2206683,2207187,2207391
84,forth,14,streng,IAT_purple4.bmp,purple,starting_scream,scream,starting,c,negative,negative,ES_green,1,c,562,2209503,2210007,2210211
84,forth,15,kaputt,IAT_yellow2.bmp,yellow,starting_melody,melody,starting,c,negative,positive,ES_green,1,c,478,2211847,2212352,2212556
84,forth,16,heiter,IAT_purple1.bmp,purple,starting_scream,scream,starting,m,positive,negative,ES_green,1,m,464,2214108,2214612,2214816
84,forth,17,morsch,IAT_green1.bmp,green,ending_scream,scream,ending,c,negative,positive,ES_green,1,c,455,2216354,2216859,2217063
84,forth,18,brutal,IAT_purple2.bmp,purple,starting_scream,scream,starting,c,negative,negative,ES_green,1,c,468,2218592,2219096,2219300
84,forth,19,teuer,IAT_green2.bmp,green,ending_scream,scream,ending,c,negative,positive,ES_green,1,c,492,2220842,2221347,2221551
84,forth,20,lästig,IAT_purple4.bmp,purple,starting_scream,scream,starting,c,negative,negative,ES_green,1,c,694,2223117,2223621,2223825
84,forth,21,sozial,IAT_yellow3.bmp,yellow,starting_melody,melody,starting,m,positive,positive,ES_green,1,m,904,2225595,2226099,2226303
84,forth,22,brutal,IAT_green2.bmp,green,ending_scream,scream,ending,c,negative,positive,ES_green,1,c,510,2228281,2228786,2228990
84,forth,23,morsch,IAT_red2.bmp,red,ending_melody,melody,ending,c,negative,negative,ES_green,1,c,517,2230575,2231079,2231283
84,forth,24,feige,IAT_purple1.bmp,purple,starting_scream,scream,starting,c,negative,negative,ES_green,1,c,489,2232875,2233379,2233583
84,forth,25,falsch,IAT_red2.bmp,red,ending_melody,melody,ending,c,negative,negative,ES_green,1,c,411,2235147,2235651,2235855
84,forth,26,human,IAT_yellow4.bmp,yellow,starting_melody,melody,starting,m,positive,positive,ES_green,1,m,541,2237341,2237845,2238049
84,forth,27,gesund,IAT_purple3.bmp,purple,starting_scream,scream,starting,m,positive,negative,ES_green,1,m,602,2239664,2240168,2240372
84,forth,28,schön,IAT_yellow3.bmp,yellow,starting_melody,melody,starting,m,positive,positive,ES_green,1,m,587,2242049,2242554,2242758
84,forth,29,einsam,IAT_purple2.bmp,purple,starting_scream,scream,starting,c,negative,negative,ES_green,1,c,727,2244419,2244923,2245127
84,forth,30,munter,IAT_purple2.bmp,purple,starting_scream,scream,starting,m,positive,negative,ES_green,1,m,621,2246929,2247434,2247638
84,forth,31,gierig,IAT_yellow3.bmp,yellow,starting_melody,melody,starting,c,negative,positive,ES_green,1,c,548,2249334,2249838,2250042
84,forth,32,krank,IAT_yellow4.bmp,yellow,starting_melody,melody,starting,c,negative,positive,ES_green,1,c,467,2251665,2252169,2252373
84,forth,33,heiter,IAT_yellow2.bmp,yellow,starting_melody,melody,starting,m,positive,positive,ES_green,1,m,420,2253915,2254419,2254623
84,forth,34,gierig,IAT_red4.bmp,red,ending_melody,melody,ending,c,negative,negative,ES_green,1,c,536,2256118,2256622,2256826
84,forth,35,lästig,IAT_red1.bmp,red,ending_melody,melody,ending,c,negative,negative,ES_green,1,c,575,2258437,2258941,2259145
84,forth,36,kaputt,IAT_yellow2.bmp,yellow,starting_melody,melody,starting,c,negative,positive,ES_green,1,c,556,2260794,2261298,2261502
84,forth,37,lustig,IAT_purple1.bmp,purple,starting_scream,scream,starting,m,positive,negative,ES_green,1,m,654,2263133,2263637,2263841
84,forth,38,teuer,IAT_red4.bmp,red,ending_melody,melody,ending,c,negative,negative,ES_green,1,c,581,2265570,2266074,2266278
84,forth,39,einsam,IAT_yellow1.bmp,yellow,starting_melody,melody,starting,c,negative,positive,ES_green,1,c,476,2267934,2268438,2268642
84,forth,40,krank,IAT_purple4.bmp,purple,starting_scream,scream,starting,c,negative,negative,ES_green,1,c,476,2270192,2270696,2270900
84,forth,41,sonnig,IAT_purple3.bmp,purple,starting_scream,scream,starting,m,positive,negative,ES_green,1,m,506,2272451,2272955,2273160
84,forth,42,schön,IAT_green1.bmp,green,ending_scream,scream,ending,m,positive,positive,ES_green,1,m,479,2274740,2275245,2275449
84,forth,43,feige,IAT_red4.bmp,red,ending_melody,melody,ending,c,negative,negative,ES_green,1,c,856,2277003,2277507,2277711
84,forth,44,gesund,IAT_yellow1.bmp,yellow,starting_melody,melody,starting,m,positive,positive,ES_green,1,m,483,2279644,2280149,2280353
84,forth,45,geizig,IAT_red3.bmp,red,ending_melody,melody,ending,c,negative,negative,ES_green,1,c,574,2281911,2282415,2282619
84,forth,46,human,IAT_red1.bmp,red,ending_melody,melody,ending,m,positive,negative,ES_green,1,m,448,2284268,2284772,2284976
84,forth,47,brutal,IAT_red1.bmp,red,ending_melody,melody,ending,c,negative,negative,ES_green,1,c,511,2286500,2287004,2287208
84,forth,48,lustig,IAT_red4.bmp,red,ending_melody,melody,ending,m,positive,negative,ES_green,1,m,457,2288794,2289298,2289502
84,forth,49,kaputt,IAT_purple4.bmp,purple,starting_scream,scream,starting,c,negative,negative,ES_green,1,c,489,2291034,2291539,2291743
84,forth,50,falsch,IAT_green4.bmp,green,ending_scream,scream,ending,c,negative,positive,ES_green,1,c,470,2293307,2293811,2294015
84,forth,51,sanft,IAT_red2.bmp,red,ending_melody,melody,ending,m,positive,negative,ES_green,1,m,513,2295560,2296064,2296268
84,forth,52,gierig,IAT_green1.bmp,green,ending_scream,scream,ending,c,negative,positive,ES_green,1,c,766,2297855,2298359,2298563
84,forth,53,ehrlich,IAT_yellow1.bmp,yellow,starting_melody,melody,starting,m,positive,positive,ES_green,1,m,477,2300404,2300909,2301114
84,forth,54,geizig,IAT_red3.bmp,red,ending_melody,melody,ending,c,negative,negative,ES_green,1,c,338,2302666,2303170,2303374
84,forth,55,sozial,IAT_yellow1.bmp,yellow,starting_melody,melody,starting,m,positive,positive,ES_green,1,m,467,2304788,2305292,2305496
84,forth,56,krank,IAT_green3.bmp,green,ending_scream,scream,ending,c,negative,positive,ES_green,1,c,427,2307039,2307543,2307747
84,forth,57,gierig,IAT_green4.bmp,green,ending_scream,scream,ending,c,negative,positive,ES_green,1,c,533,2309249,2309753,2309957
84,forth,58,falsch,IAT_yellow4.bmp,yellow,starting_melody,melody,starting,c,negative,positive,ES_green,1,c,456,2311566,2312070,2312274
84,forth,59,schön,IAT_purple4.bmp,purple,starting_scream,scream,starting,m,positive,negative,ES_green,1,m,402,2313804,2314309,2314513
84,forth,60,streng,IAT_red2.bmp,red,ending_melody,melody,ending,c,negative,negative,ES_green,1,c,351,2315990,2316494,2316698
84,forth,61,ehrlich,IAT_green4.bmp,green,ending_scream,scream,ending,m,positive,positive,ES_green,0,c,382,2318124,2318629,2318833
84,forth,62,gerecht,IAT_green1.bmp,green,ending_scream,scream,ending,m,positive,positive,ES_green,1,m,617,2320790,2321294,2321498
84,forth,63,sonnig,IAT_red3.bmp,red,ending_melody,melody,ending,m,positive,negative,ES_green,1,m,548,2323190,2323694,2323898
84,forth,64,witzig,IAT_green3.bmp,green,ending_scream,scream,ending,m,positive,positive,ES_green,1,m,505,2325521,2326026,2326230
84,forth,65,geizig,IAT_red2.bmp,red,ending_melody,melody,ending,c,negative,negative,ES_green,1,c,478,2327810,2328314,2328518
84,forth,66,teuer,IAT_purple2.bmp,purple,starting_scream,scream,starting,c,negative,negative,ES_green,1,c,562,2330072,2330576,2330780
84,forth,67,streng,IAT_purple2.bmp,purple,starting_scream,scream,starting,c,negative,negative,ES_green,1,c,496,2332418,2332922,2333126
84,forth,68,schön,IAT_green1.bmp,green,ending_scream,scream,ending,m,positive,positive,ES_green,1,m,447,2334696,2335200,2335404
84,forth,69,lustig,IAT_yellow3.bmp,yellow,starting_melody,melody,starting,m,positive,positive,ES_green,1,m,574,2336926,2337430,2337634
84,forth,70,sozial,IAT_purple1.bmp,purple,starting_scream,scream,starting,m,positive,negative,ES_green,0,c,466,2339283,2339787,2339991
84,forth,71,ehrlich,IAT_yellow2.bmp,yellow,starting_melody,melody,starting,m,positive,positive,ES_green,1,m,555,2342032,2342536,2342740
84,forth,72,witzig,IAT_red1.bmp,red,ending_melody,melody,ending,m,positive,negative,ES_green,1,m,472,2344372,2344876,2345080
84,forth,73,sanft,IAT_red3.bmp,red,ending_melody,melody,ending,m,positive,negative,ES_green,1,m,498,2346627,2347131,2347335
84,forth,74,witzig,IAT_purple3.bmp,purple,starting_scream,scream,starting,m,positive,negative,ES_green,1,m,473,2348907,2349411,2349615
84,forth,75,munter,IAT_red1.bmp,red,ending_melody,melody,ending,m,positive,negative,ES_green,1,m,489,2351163,2351667,2351871
84,forth,76,gerecht,IAT_purple4.bmp,purple,starting_scream,scream,starting,m,positive,negative,ES_green,1,m,445,2353434,2353939,2354143
84,forth,77,teuer,IAT_purple3.bmp,purple,starting_scream,scream,starting,c,negative,negative,ES_green,1,c,543,2355662,2356166,2356370
84,forth,78,human,IAT_red4.bmp,red,ending_melody,melody,ending,m,positive,negative,ES_green,1,m,483,2357989,2358493,2358697
84,forth,79,einsam,IAT_red4.bmp,red,ending_melody,melody,ending,c,negative,negative,ES_green,0,m,500,2360255,2360759,2360963
84,forth,80,krank,IAT_purple3.bmp,purple,starting_scream,scream,starting,c,negative,negative,ES_green,1,c,564,2363039,2363543,2363747
84,forth,81,heiter,IAT_green2.bmp,green,ending_scream,scream,ending,m,positive,positive,ES_green,1,m,525,2365386,2365890,2366094
84,forth,82,kaputt,IAT_yellow4.bmp,yellow,starting_melody,melody,starting,c,negative,positive,ES_green,1,c,554,2367695,2368199,2368403
84,forth,83,sanft,IAT_red2.bmp,red,ending_melody,melody,ending,m,positive,negative,ES_green,1,m,481,2370032,2370537,2370741
84,forth,84,morsch,IAT_green3.bmp,green,ending_scream,scream,ending,c,negative,positive,ES_green,1,c,452,2372297,2372801,2373005
84,forth,85,einsam,IAT_purple1.bmp,purple,starting_scream,scream,starting,c,negative,negative,ES_green,1,c,530,2374532,2375036,2375240
84,forth,86,gesund,IAT_green1.bmp,green,ending_scream,scream,ending,m,positive,positive,ES_green,1,m,573,2376845,2377349,2377553
84,forth,87,lästig,IAT_yellow2.bmp,yellow,starting_melody,melody,starting,c,negative,positive,ES_green,1,c,564,2379202,2379706,2379910
84,forth,88,ehrlich,IAT_yellow4.bmp,yellow,starting_melody,melody,starting,m,positive,positive,ES_green,1,m,469,2381549,2382053,2382257
84,forth,89,munter,IAT_yellow1.bmp,yellow,starting_melody,melody,starting,m,positive,positive,ES_green,0,c,457,2383802,2384306,2384510
84,forth,90,heiter,IAT_purple2.bmp,purple,starting_scream,scream,starting,m,positive,negative,ES_green,1,m,506,2386542,2387046,2387250
84,forth,91,feige,IAT_green2.bmp,green,ending_scream,scream,ending,c,negative,positive,ES_green,1,c,475,2388831,2389335,2389539
84,forth,92,falsch,IAT_green2.bmp,green,ending_scream,scream,ending,c,negative,positive,ES_green,1,c,508,2391090,2391594,2391798
84,forth,93,streng,IAT_green4.bmp,green,ending_scream,scream,ending,c,negative,positive,ES_green,1,c,384,2393381,2393885,2394089
84,forth,94,geizig,IAT_yellow2.bmp,yellow,starting_melody,melody,starting,c,negative,positive,ES_green,1,c,739,2395548,2396052,2396256
84,forth,95,gerecht,IAT_green3.bmp,green,ending_scream,scream,ending,m,positive,positive,ES_green,1,m,529,2398071,2398575,2398779
