subject_nr,block,trialnr,trial_target,trial_prime,prime_color,prime_role,prime_us,prime_relation,correct_response,target_valence,prime_valence,color_counter,correct_first_response,response_first_response,response_time_first_response,fixation_show,prime_show,target_show
119,first,0,brutal,IAT_purple4.bmp,purple,starting_melody,melody,starting,c,negative,positive,ES_red,1,c,557,1461014,1461518,1461722
119,first,1,sonnig,IAT_green2.bmp,green,ending_melody,melody,ending,m,positive,negative,ES_red,1,m,718,1463352,1463856,1464060
119,first,2,falsch,IAT_yellow1.bmp,yellow,starting_scream,scream,starting,c,negative,negative,ES_red,1,c,628,1465851,1466355,1466559
119,first,3,brutal,IAT_green4.bmp,green,ending_melody,melody,ending,c,negative,negative,ES_red,0,m,440,1468260,1468764,1468968
119,first,4,falsch,IAT_red1.bmp,red,ending_scream,scream,ending,c,negative,positive,ES_red,1,c,960,1470984,1471488,1471692
119,first,5,witzig,IAT_purple1.bmp,purple,starting_melody,melody,starting,m,positive,positive,ES_red,1,m,503,1473724,1474229,1474433
119,first,6,feige,IAT_yellow2.bmp,yellow,starting_scream,scream,starting,c,negative,negative,ES_red,1,c,520,1476009,1476514,1476718
119,first,7,teuer,IAT_purple2.bmp,purple,starting_melody,melody,starting,c,negative,positive,ES_red,1,c,712,1478311,1478815,1479019
119,first,8,falsch,IAT_red4.bmp,red,ending_scream,scream,ending,c,negative,positive,ES_red,1,c,523,1480804,1481308,1481513
119,first,9,kaputt,IAT_green2.bmp,green,ending_melody,melody,ending,c,negative,negative,ES_red,0,m,445,1483109,1483614,1483818
119,first,10,sanft,IAT_yellow3.bmp,yellow,starting_scream,scream,starting,m,positive,negative,ES_red,1,m,785,1485838,1486343,1486547
119,first,11,schön,IAT_red3.bmp,red,ending_scream,scream,ending,m,positive,positive,ES_red,1,m,525,1488406,1488911,1489115
119,first,12,ehrlich,IAT_red1.bmp,red,ending_scream,scream,ending,m,positive,positive,ES_red,1,m,518,1490713,1491217,1491421
119,first,13,gierig,IAT_green4.bmp,green,ending_melody,melody,ending,c,negative,negative,ES_red,1,c,527,1493012,1493516,1493720
119,first,14,gesund,IAT_green1.bmp,green,ending_melody,melody,ending,m,positive,negative,ES_red,1,m,557,1495320,1495825,1496029
119,first,15,kaputt,IAT_green1.bmp,green,ending_melody,melody,ending,c,negative,negative,ES_red,1,c,501,1497660,1498164,1498368
119,first,16,gerecht,IAT_red1.bmp,red,ending_scream,scream,ending,m,positive,positive,ES_red,1,m,720,1499944,1500448,1500653
119,first,17,streng,IAT_purple3.bmp,purple,starting_melody,melody,starting,c,negative,positive,ES_red,1,c,570,1502447,1502951,1503155
119,first,18,lustig,IAT_green3.bmp,green,ending_melody,melody,ending,m,positive,negative,ES_red,1,m,527,1504799,1505303,1505507
119,first,19,geizig,IAT_yellow1.bmp,yellow,starting_scream,scream,starting,c,negative,negative,ES_red,1,c,713,1507109,1507613,1507817
119,first,20,schön,IAT_green3.bmp,green,ending_melody,melody,ending,m,positive,negative,ES_red,1,m,591,1509604,1510108,1510312
119,first,21,witzig,IAT_green4.bmp,green,ending_melody,melody,ending,m,positive,negative,ES_red,1,m,964,1511975,1512480,1512684
119,first,22,gesund,IAT_green1.bmp,green,ending_melody,melody,ending,m,positive,negative,ES_red,1,m,585,1514721,1515226,1515430
119,first,23,gierig,IAT_red3.bmp,red,ending_scream,scream,ending,c,negative,positive,ES_red,1,c,1138,1517089,1517593,1517797
119,first,24,teuer,IAT_yellow3.bmp,yellow,starting_scream,scream,starting,c,negative,negative,ES_red,1,c,558,1520008,1520513,1520717
119,first,25,lästig,IAT_green1.bmp,green,ending_melody,melody,ending,c,negative,negative,ES_red,1,c,710,1522349,1522853,1523057
119,first,26,einsam,IAT_green2.bmp,green,ending_melody,melody,ending,c,negative,negative,ES_red,1,c,627,1524841,1525345,1525549
119,first,27,falsch,IAT_green4.bmp,green,ending_melody,melody,ending,c,negative,negative,ES_red,1,c,468,1527250,1527754,1527958
119,first,28,teuer,IAT_yellow4.bmp,yellow,starting_scream,scream,starting,c,negative,negative,ES_red,1,c,523,1529500,1530004,1530208
119,first,29,ehrlich,IAT_red3.bmp,red,ending_scream,scream,ending,m,positive,positive,ES_red,1,m,545,1531805,1532309,1532513
119,first,30,munter,IAT_red3.bmp,red,ending_scream,scream,ending,m,positive,positive,ES_red,1,m,654,1534131,1534636,1534840
119,first,31,schön,IAT_purple4.bmp,purple,starting_melody,melody,starting,m,positive,positive,ES_red,1,m,463,1536568,1537072,1537276
119,first,32,lästig,IAT_yellow2.bmp,yellow,starting_scream,scream,starting,c,negative,negative,ES_red,1,c,565,1538812,1539316,1539520
119,first,33,geizig,IAT_yellow4.bmp,yellow,starting_scream,scream,starting,c,negative,negative,ES_red,1,c,1107,1541160,1541664,1541868
119,first,34,feige,IAT_red2.bmp,red,ending_scream,scream,ending,c,negative,positive,ES_red,1,c,802,1544048,1544552,1544756
119,first,35,gesund,IAT_purple3.bmp,purple,starting_melody,melody,starting,m,positive,positive,ES_red,1,m,514,1546631,1547136,1547340
119,first,36,heiter,IAT_red1.bmp,red,ending_scream,scream,ending,m,positive,positive,ES_red,1,m,494,1548930,1549434,1549638
119,first,37,sanft,IAT_purple1.bmp,purple,starting_melody,melody,starting,m,positive,positive,ES_red,1,m,577,1551206,1551710,1551914
119,first,38,human,IAT_yellow3.bmp,yellow,starting_scream,scream,starting,m,positive,negative,ES_red,1,m,496,1553564,1554069,1554273
119,first,39,heiter,IAT_purple2.bmp,purple,starting_melody,melody,starting,m,positive,positive,ES_red,1,m,810,1555842,1556347,1556551
119,first,40,gerecht,IAT_purple3.bmp,purple,starting_melody,melody,starting,m,positive,positive,ES_red,1,m,1027,1558435,1558939,1559143
119,first,41,kaputt,IAT_red1.bmp,red,ending_scream,scream,ending,c,negative,positive,ES_red,1,c,1069,1561244,1561748,1561952
119,first,42,krank,IAT_yellow4.bmp,yellow,starting_scream,scream,starting,c,negative,negative,ES_red,1,c,1101,1564094,1564599,1564803
119,first,43,morsch,IAT_purple3.bmp,purple,starting_melody,melody,starting,c,negative,positive,ES_red,1,c,683,1566978,1567482,1567686
119,first,44,krank,IAT_red4.bmp,red,ending_scream,scream,ending,c,negative,positive,ES_red,1,c,1073,1569442,1569947,1570151
119,first,45,heiter,IAT_green3.bmp,green,ending_melody,melody,ending,m,positive,negative,ES_red,1,m,480,1572298,1572802,1573006
119,first,46,streng,IAT_purple1.bmp,purple,starting_melody,melody,starting,c,negative,positive,ES_red,1,c,658,1574560,1575064,1575268
119,first,47,morsch,IAT_red3.bmp,red,ending_scream,scream,ending,c,negative,positive,ES_red,1,c,469,1577001,1577505,1577709
119,first,48,geizig,IAT_red2.bmp,red,ending_scream,scream,ending,c,negative,positive,ES_red,1,c,682,1579252,1579756,1579960
119,first,49,sozial,IAT_green1.bmp,green,ending_melody,melody,ending,m,positive,negative,ES_red,1,m,495,1581715,1582219,1582423
119,first,50,streng,IAT_purple4.bmp,purple,starting_melody,melody,starting,c,negative,positive,ES_red,1,c,667,1583992,1584496,1584700
119,first,51,sonnig,IAT_green1.bmp,green,ending_melody,melody,ending,m,positive,negative,ES_red,1,m,412,1586440,1586945,1587149
119,first,52,human,IAT_red4.bmp,red,ending_scream,scream,ending,m,positive,positive,ES_red,0,c,679,1588635,1589140,1589344
119,first,53,heiter,IAT_yellow1.bmp,yellow,starting_scream,scream,starting,m,positive,negative,ES_red,1,m,477,1591596,1592100,1592304
119,first,54,morsch,IAT_yellow4.bmp,yellow,starting_scream,scream,starting,c,negative,negative,ES_red,1,c,553,1593855,1594359,1594563
119,first,55,einsam,IAT_purple2.bmp,purple,starting_melody,melody,starting,c,negative,positive,ES_red,0,m,898,1596189,1596693,1596897
119,first,56,sanft,IAT_yellow4.bmp,yellow,starting_scream,scream,starting,m,positive,negative,ES_red,1,m,902,1599369,1599873,1600077
119,first,57,witzig,IAT_green4.bmp,green,ending_melody,melody,ending,m,positive,negative,ES_red,1,m,547,1602053,1602557,1602761
119,first,58,krank,IAT_purple2.bmp,purple,starting_melody,melody,starting,c,negative,positive,ES_red,1,c,448,1604382,1604886,1605090
119,first,59,gierig,IAT_green3.bmp,green,ending_melody,melody,ending,c,negative,negative,ES_red,1,c,861,1606611,1607116,1607320
119,first,60,feige,IAT_red2.bmp,red,ending_scream,scream,ending,c,negative,positive,ES_red,1,c,669,1609255,1609759,1609963
119,first,61,sozial,IAT_yellow2.bmp,yellow,starting_scream,scream,starting,m,positive,negative,ES_red,1,m,635,1611706,1612210,1612414
119,first,62,brutal,IAT_green2.bmp,green,ending_melody,melody,ending,c,negative,negative,ES_red,1,c,959,1614122,1614626,1614830
119,first,63,einsam,IAT_green2.bmp,green,ending_melody,melody,ending,c,negative,negative,ES_red,0,m,648,1616863,1617367,1617571
119,first,64,brutal,IAT_purple4.bmp,purple,starting_melody,melody,starting,c,negative,positive,ES_red,1,c,778,1619793,1620297,1620501
119,first,65,gesund,IAT_red2.bmp,red,ending_scream,scream,ending,m,positive,positive,ES_red,1,m,596,1622352,1622857,1623061
119,first,66,lustig,IAT_yellow3.bmp,yellow,starting_scream,scream,starting,m,positive,negative,ES_red,1,m,781,1624732,1625236,1625440
119,first,67,munter,IAT_purple1.bmp,purple,starting_melody,melody,starting,m,positive,positive,ES_red,0,c,574,1627295,1627799,1628003
119,first,68,streng,IAT_red2.bmp,red,ending_scream,scream,ending,c,negative,positive,ES_red,1,c,583,1630150,1630654,1630858
119,first,69,sozial,IAT_yellow1.bmp,yellow,starting_scream,scream,starting,m,positive,negative,ES_red,1,m,773,1632515,1633019,1633223
119,first,70,gerecht,IAT_yellow1.bmp,yellow,starting_scream,scream,starting,m,positive,negative,ES_red,1,m,642,1635070,1635574,1635778
119,first,71,human,IAT_purple3.bmp,purple,starting_melody,melody,starting,m,positive,positive,ES_red,1,m,660,1637494,1637998,1638203
119,first,72,sonnig,IAT_yellow1.bmp,yellow,starting_scream,scream,starting,m,positive,negative,ES_red,1,m,476,1639937,1640441,1640645
119,first,73,schön,IAT_red4.bmp,red,ending_scream,scream,ending,m,positive,positive,ES_red,1,m,521,1642195,1642699,1642903
119,first,74,lästig,IAT_red4.bmp,red,ending_scream,scream,ending,c,negative,positive,ES_red,1,c,491,1644498,1645002,1645206
119,first,75,krank,IAT_purple2.bmp,purple,starting_melody,melody,starting,c,negative,positive,ES_red,1,c,509,1646771,1647275,1647479
119,first,76,feige,IAT_yellow2.bmp,yellow,starting_scream,scream,starting,c,negative,negative,ES_red,1,c,499,1649063,1649567,1649771
119,first,77,lustig,IAT_yellow3.bmp,yellow,starting_scream,scream,starting,m,positive,negative,ES_red,1,m,537,1651345,1651849,1652053
119,first,78,ehrlich,IAT_purple4.bmp,purple,starting_melody,melody,starting,m,positive,positive,ES_red,1,m,498,1653664,1654169,1654373
119,first,79,geizig,IAT_green3.bmp,green,ending_melody,melody,ending,c,negative,negative,ES_red,1,c,562,1655947,1656451,1656655
119,first,80,sanft,IAT_green3.bmp,green,ending_melody,melody,ending,m,positive,negative,ES_red,1,m,650,1658292,1658796,1659000
119,first,81,sonnig,IAT_purple1.bmp,purple,starting_melody,melody,starting,m,positive,positive,ES_red,1,m,593,1660725,1661229,1661433
119,first,82,morsch,IAT_red4.bmp,red,ending_scream,scream,ending,c,negative,positive,ES_red,1,c,519,1663100,1663604,1663808
119,first,83,munter,IAT_red3.bmp,red,ending_scream,scream,ending,m,positive,positive,ES_red,1,m,685,1665402,1665906,1666110
119,first,84,gerecht,IAT_purple2.bmp,purple,starting_melody,melody,starting,m,positive,positive,ES_red,1,m,602,1667869,1668373,1668577
119,first,85,munter,IAT_green2.bmp,green,ending_melody,melody,ending,m,positive,negative,ES_red,1,m,633,1670253,1670757,1670961
119,first,86,gierig,IAT_purple4.bmp,purple,starting_melody,melody,starting,c,negative,positive,ES_red,1,c,461,1672669,1673173,1673377
119,first,87,kaputt,IAT_yellow3.bmp,yellow,starting_scream,scream,starting,c,negative,negative,ES_red,1,c,548,1674913,1675417,1675621
119,first,88,ehrlich,IAT_yellow4.bmp,yellow,starting_scream,scream,starting,m,positive,negative,ES_red,1,m,486,1677244,1677748,1677953
119,first,89,witzig,IAT_yellow2.bmp,yellow,starting_scream,scream,starting,m,positive,negative,ES_red,1,m,516,1679513,1680018,1680223
119,first,90,sozial,IAT_purple3.bmp,purple,starting_melody,melody,starting,m,positive,positive,ES_red,1,m,482,1681818,1682322,1682526
119,first,91,teuer,IAT_green4.bmp,green,ending_melody,melody,ending,c,negative,negative,ES_red,1,c,525,1684081,1684586,1684790
119,first,92,human,IAT_red1.bmp,red,ending_scream,scream,ending,m,positive,positive,ES_red,1,m,569,1686389,1686894,1687098
119,first,93,einsam,IAT_purple1.bmp,purple,starting_melody,melody,starting,c,negative,positive,ES_red,1,c,1126,1688744,1689248,1689452
119,first,94,lustig,IAT_red2.bmp,red,ending_scream,scream,ending,m,positive,positive,ES_red,1,m,666,1691652,1692156,1692360
119,first,95,lästig,IAT_yellow2.bmp,yellow,starting_scream,scream,starting,c,negative,negative,ES_red,1,c,537,1694100,1694604,1694808
119,second,0,geizig,IAT_purple4.bmp,purple,starting_melody,melody,starting,c,negative,positive,ES_red,1,c,794,1711434,1711938,1712143
119,second,1,feige,IAT_red2.bmp,red,ending_scream,scream,ending,c,negative,positive,ES_red,1,c,515,1714011,1714515,1714719
119,second,2,lustig,IAT_yellow1.bmp,yellow,starting_scream,scream,starting,m,positive,negative,ES_red,1,m,603,1716308,1716812,1717016
119,second,3,streng,IAT_purple2.bmp,purple,starting_melody,melody,starting,c,negative,positive,ES_red,1,c,538,1718692,1719196,1719400
119,second,4,teuer,IAT_red4.bmp,red,ending_scream,scream,ending,c,negative,positive,ES_red,1,c,541,1721011,1721515,1721719
119,second,5,morsch,IAT_yellow4.bmp,yellow,starting_scream,scream,starting,c,negative,negative,ES_red,1,c,630,1723332,1723836,1724040
119,second,6,streng,IAT_purple4.bmp,purple,starting_melody,melody,starting,c,negative,positive,ES_red,1,c,508,1725743,1726247,1726451
119,second,7,brutal,IAT_red4.bmp,red,ending_scream,scream,ending,c,negative,positive,ES_red,1,c,484,1728031,1728536,1728740
119,second,8,sozial,IAT_red2.bmp,red,ending_scream,scream,ending,m,positive,positive,ES_red,1,m,558,1730297,1730802,1731006
119,second,9,gierig,IAT_purple4.bmp,purple,starting_melody,melody,starting,c,negative,positive,ES_red,1,c,464,1732636,1733140,1733344
119,second,10,gesund,IAT_purple2.bmp,purple,starting_melody,melody,starting,m,positive,positive,ES_red,1,m,520,1734881,1735385,1735589
119,second,11,falsch,IAT_red1.bmp,red,ending_scream,scream,ending,c,negative,positive,ES_red,1,c,533,1737183,1737687,1737891
119,second,12,krank,IAT_green1.bmp,green,ending_melody,melody,ending,c,negative,negative,ES_red,1,c,542,1739498,1740002,1740206
119,second,13,sanft,IAT_red3.bmp,red,ending_scream,scream,ending,m,positive,positive,ES_red,1,m,602,1741821,1742326,1742530
119,second,14,sonnig,IAT_red3.bmp,red,ending_scream,scream,ending,m,positive,positive,ES_red,1,m,530,1744206,1744710,1744914
119,second,15,streng,IAT_yellow2.bmp,yellow,starting_scream,scream,starting,c,negative,negative,ES_red,1,c,535,1746519,1747023,1747227
119,second,16,teuer,IAT_red2.bmp,red,ending_scream,scream,ending,c,negative,positive,ES_red,1,c,600,1748835,1749339,1749543
119,second,17,heiter,IAT_yellow4.bmp,yellow,starting_scream,scream,starting,m,positive,negative,ES_red,1,m,651,1751216,1751720,1751924
119,second,18,feige,IAT_yellow2.bmp,yellow,starting_scream,scream,starting,c,negative,negative,ES_red,1,c,815,1753649,1754153,1754357
119,second,19,geizig,IAT_green1.bmp,green,ending_melody,melody,ending,c,negative,negative,ES_red,1,c,620,1756245,1756749,1756953
119,second,20,witzig,IAT_yellow3.bmp,yellow,starting_scream,scream,starting,m,positive,negative,ES_red,1,m,577,1758646,1759151,1759355
119,second,21,sozial,IAT_yellow3.bmp,yellow,starting_scream,scream,starting,m,positive,negative,ES_red,1,m,445,1761005,1761509,1761713
119,second,22,lustig,IAT_green1.bmp,green,ending_melody,melody,ending,m,positive,negative,ES_red,1,m,595,1763231,1763736,1763940
119,second,23,sanft,IAT_red4.bmp,red,ending_scream,scream,ending,m,positive,positive,ES_red,1,m,715,1765609,1766113,1766317
119,second,24,heiter,IAT_green2.bmp,green,ending_melody,melody,ending,m,positive,negative,ES_red,1,m,507,1768106,1768610,1768814
119,second,25,feige,IAT_yellow1.bmp,yellow,starting_scream,scream,starting,c,negative,negative,ES_red,1,c,573,1770396,1770900,1771104
119,second,26,lustig,IAT_green4.bmp,green,ending_melody,melody,ending,m,positive,negative,ES_red,1,m,497,1772750,1773254,1773458
119,second,27,gesund,IAT_green2.bmp,green,ending_melody,melody,ending,m,positive,negative,ES_red,1,m,517,1775028,1775533,1775737
119,second,28,human,IAT_yellow4.bmp,yellow,starting_scream,scream,starting,m,positive,negative,ES_red,1,m,838,1777329,1777833,1778037
119,second,29,gesund,IAT_yellow2.bmp,yellow,starting_scream,scream,starting,m,positive,negative,ES_red,1,m,637,1779949,1780453,1780657
119,second,30,ehrlich,IAT_red4.bmp,red,ending_scream,scream,ending,m,positive,positive,ES_red,1,m,439,1782367,1782872,1783076
119,second,31,schön,IAT_purple3.bmp,purple,starting_melody,melody,starting,m,positive,positive,ES_red,1,m,499,1784589,1785093,1785297
119,second,32,morsch,IAT_red1.bmp,red,ending_scream,scream,ending,c,negative,positive,ES_red,1,c,415,1786870,1787374,1787579
119,second,33,kaputt,IAT_red2.bmp,red,ending_scream,scream,ending,c,negative,positive,ES_red,1,c,551,1789068,1789572,1789776
119,second,34,human,IAT_green4.bmp,green,ending_melody,melody,ending,m,positive,negative,ES_red,1,m,494,1791401,1791906,1792110
119,second,35,lästig,IAT_purple2.bmp,purple,starting_melody,melody,starting,c,negative,positive,ES_red,1,c,538,1793679,1794183,1794387
119,second,36,geizig,IAT_red4.bmp,red,ending_scream,scream,ending,c,negative,positive,ES_red,1,c,627,1795999,1796503,1796707
119,second,37,gierig,IAT_green3.bmp,green,ending_melody,melody,ending,c,negative,negative,ES_red,1,c,578,1798409,1798913,1799117
119,second,38,kaputt,IAT_purple3.bmp,purple,starting_melody,melody,starting,c,negative,positive,ES_red,1,c,516,1800768,1801273,1801477
119,second,39,sonnig,IAT_green3.bmp,green,ending_melody,melody,ending,m,positive,negative,ES_red,1,m,507,1803066,1803571,1803775
119,second,40,falsch,IAT_yellow3.bmp,yellow,starting_scream,scream,starting,c,negative,negative,ES_red,1,c,572,1805356,1805860,1806064
119,second,41,schön,IAT_purple1.bmp,purple,starting_melody,melody,starting,m,positive,positive,ES_red,1,m,521,1807710,1808214,1808418
119,second,42,sonnig,IAT_yellow1.bmp,yellow,starting_scream,scream,starting,m,positive,negative,ES_red,1,m,615,1810013,1810517,1810721
119,second,43,lästig,IAT_yellow1.bmp,yellow,starting_scream,scream,starting,c,negative,negative,ES_red,1,c,680,1812411,1812915,1813119
119,second,44,brutal,IAT_yellow4.bmp,yellow,starting_scream,scream,starting,c,negative,negative,ES_red,1,c,559,1814873,1815377,1815581
119,second,45,munter,IAT_yellow1.bmp,yellow,starting_scream,scream,starting,m,positive,negative,ES_red,0,c,495,1817214,1817718,1817923
119,second,46,gesund,IAT_purple3.bmp,purple,starting_melody,melody,starting,m,positive,positive,ES_red,1,m,539,1819992,1820496,1820700
119,second,47,gierig,IAT_green4.bmp,green,ending_melody,melody,ending,c,negative,negative,ES_red,1,c,480,1822313,1822817,1823021
119,second,48,ehrlich,IAT_red1.bmp,red,ending_scream,scream,ending,m,positive,positive,ES_red,1,m,516,1824575,1825079,1825283
119,second,49,kaputt,IAT_yellow4.bmp,yellow,starting_scream,scream,starting,c,negative,negative,ES_red,1,c,757,1826874,1827378,1827582
119,second,50,schön,IAT_green3.bmp,green,ending_melody,melody,ending,m,positive,negative,ES_red,1,m,513,1829414,1829918,1830122
119,second,51,teuer,IAT_green2.bmp,green,ending_melody,melody,ending,c,negative,negative,ES_red,1,c,590,1831710,1832214,1832418
119,second,52,munter,IAT_purple3.bmp,purple,starting_melody,melody,starting,m,positive,positive,ES_red,1,m,697,1834083,1834587,1834791
119,second,53,einsam,IAT_yellow2.bmp,yellow,starting_scream,scream,starting,c,negative,negative,ES_red,1,c,591,1836562,1837066,1837270
119,second,54,witzig,IAT_purple1.bmp,purple,starting_melody,melody,starting,m,positive,positive,ES_red,0,c,662,1838935,1839439,1839643
119,second,55,sanft,IAT_yellow2.bmp,yellow,starting_scream,scream,starting,m,positive,negative,ES_red,1,m,1187,1841880,1842384,1842588
119,second,56,human,IAT_yellow3.bmp,yellow,starting_scream,scream,starting,m,positive,negative,ES_red,1,m,990,1844850,1845354,1845558
119,second,57,gerecht,IAT_purple1.bmp,purple,starting_melody,melody,starting,m,positive,positive,ES_red,0,c,515,1847621,1848126,1848330
119,second,58,krank,IAT_yellow4.bmp,yellow,starting_scream,scream,starting,c,negative,negative,ES_red,1,c,615,1850420,1850924,1851128
119,second,59,human,IAT_purple4.bmp,purple,starting_melody,melody,starting,m,positive,positive,ES_red,1,m,490,1852817,1853321,1853525
119,second,60,gierig,IAT_red4.bmp,red,ending_scream,scream,ending,c,negative,positive,ES_red,1,c,606,1855089,1855593,1855798
119,second,61,geizig,IAT_green4.bmp,green,ending_melody,melody,ending,c,negative,negative,ES_red,1,c,600,1857479,1857983,1858187
119,second,62,einsam,IAT_purple2.bmp,purple,starting_melody,melody,starting,c,negative,positive,ES_red,1,c,749,1859861,1860365,1860569
119,second,63,witzig,IAT_red1.bmp,red,ending_scream,scream,ending,m,positive,positive,ES_red,1,m,613,1862392,1862896,1863100
119,second,64,krank,IAT_red2.bmp,red,ending_scream,scream,ending,c,negative,positive,ES_red,1,c,543,1864787,1865291,1865495
119,second,65,einsam,IAT_green4.bmp,green,ending_melody,melody,ending,c,negative,negative,ES_red,1,c,798,1867112,1867616,1867820
119,second,66,feige,IAT_purple3.bmp,purple,starting_melody,melody,starting,c,negative,positive,ES_red,1,c,804,1869692,1870197,1870401
119,second,67,munter,IAT_green1.bmp,green,ending_melody,melody,ending,m,positive,negative,ES_red,0,c,701,1872279,1872783,1872987
119,second,68,heiter,IAT_red1.bmp,red,ending_scream,scream,ending,m,positive,positive,ES_red,1,m,1368,1875262,1875767,1875971
119,second,69,teuer,IAT_green2.bmp,green,ending_melody,melody,ending,c,negative,negative,ES_red,1,c,1108,1878413,1878917,1879121
119,second,70,munter,IAT_purple3.bmp,purple,starting_melody,melody,starting,m,positive,positive,ES_red,1,m,934,1881302,1881806,1882010
119,second,71,morsch,IAT_purple2.bmp,purple,starting_melody,melody,starting,c,negative,positive,ES_red,1,c,701,1884018,1884523,1884727
119,second,72,brutal,IAT_green2.bmp,green,ending_melody,melody,ending,c,negative,negative,ES_red,1,c,712,1886501,1887005,1887209
119,second,73,lustig,IAT_green1.bmp,green,ending_melody,melody,ending,m,positive,negative,ES_red,1,m,513,1888994,1889498,1889702
119,second,74,morsch,IAT_purple1.bmp,purple,starting_melody,melody,starting,c,negative,positive,ES_red,1,c,526,1891291,1891795,1891999
119,second,75,witzig,IAT_green3.bmp,green,ending_melody,melody,ending,m,positive,negative,ES_red,1,m,513,1893600,1894104,1894308
119,second,76,gerecht,IAT_purple2.bmp,purple,starting_melody,melody,starting,m,positive,positive,ES_red,1,m,559,1895894,1896399,1896603
119,second,77,sanft,IAT_red3.bmp,red,ending_scream,scream,ending,m,positive,positive,ES_red,1,m,628,1898237,1898741,1898945
119,second,78,falsch,IAT_red3.bmp,red,ending_scream,scream,ending,c,negative,positive,ES_red,1,c,471,1900647,1901151,1901355
119,second,79,ehrlich,IAT_red1.bmp,red,ending_scream,scream,ending,m,positive,positive,ES_red,1,m,681,1902900,1903404,1903608
119,second,80,gerecht,IAT_purple4.bmp,purple,starting_melody,melody,starting,m,positive,positive,ES_red,1,m,1008,1905364,1905868,1906073
119,second,81,sozial,IAT_purple1.bmp,purple,starting_melody,melody,starting,m,positive,positive,ES_red,1,m,486,1908156,1908661,1908865
119,second,82,lästig,IAT_red3.bmp,red,ending_scream,scream,ending,c,negative,positive,ES_red,1,c,623,1910426,1910931,1911135
119,second,83,gerecht,IAT_yellow1.bmp,yellow,starting_scream,scream,starting,m,positive,negative,ES_red,1,m,535,1912833,1913337,1913541
119,second,84,brutal,IAT_yellow3.bmp,yellow,starting_scream,scream,starting,c,negative,negative,ES_red,1,c,806,1915151,1915655,1915859
119,second,85,ehrlich,IAT_green3.bmp,green,ending_melody,melody,ending,m,positive,negative,ES_red,1,m,519,1917739,1918243,1918447
119,second,86,streng,IAT_green2.bmp,green,ending_melody,melody,ending,c,negative,negative,ES_red,1,c,588,1920041,1920545,1920749
119,second,87,lästig,IAT_green4.bmp,green,ending_melody,melody,ending,c,negative,negative,ES_red,1,c,682,1922411,1922915,1923119
119,second,88,sozial,IAT_yellow3.bmp,yellow,starting_scream,scream,starting,m,positive,negative,ES_red,1,m,529,1924876,1925380,1925584
119,second,89,einsam,IAT_green3.bmp,green,ending_melody,melody,ending,c,negative,negative,ES_red,1,c,528,1927189,1927693,1927897
119,second,90,kaputt,IAT_yellow2.bmp,yellow,starting_scream,scream,starting,c,negative,negative,ES_red,1,c,479,1929500,1930004,1930208
119,second,91,krank,IAT_purple4.bmp,purple,starting_melody,melody,starting,c,negative,positive,ES_red,1,c,461,1931760,1932265,1932469
119,second,92,falsch,IAT_purple1.bmp,purple,starting_melody,melody,starting,c,negative,positive,ES_red,1,c,494,1934004,1934508,1934713
119,second,93,sonnig,IAT_red3.bmp,red,ending_scream,scream,ending,m,positive,positive,ES_red,1,m,533,1936284,1936788,1936993
119,second,94,heiter,IAT_green1.bmp,green,ending_melody,melody,ending,m,positive,negative,ES_red,1,m,1008,1938600,1939105,1939309
119,second,95,schön,IAT_red2.bmp,red,ending_scream,scream,ending,m,positive,positive,ES_red,1,m,652,1941392,1941897,1942101
119,third,0,sozial,IAT_red2.bmp,red,ending_scream,scream,ending,m,positive,positive,ES_red,1,m,700,1952415,1952920,1953124
119,third,1,sonnig,IAT_yellow1.bmp,yellow,starting_scream,scream,starting,m,positive,negative,ES_red,1,m,553,1954900,1955404,1955608
119,third,2,heiter,IAT_red4.bmp,red,ending_scream,scream,ending,m,positive,positive,ES_red,1,m,568,1957234,1957738,1957943
119,third,3,lästig,IAT_red4.bmp,red,ending_scream,scream,ending,c,negative,positive,ES_red,1,c,624,1959585,1960089,1960293
119,third,4,brutal,IAT_purple4.bmp,purple,starting_melody,melody,starting,c,negative,positive,ES_red,1,c,658,1961991,1962495,1962699
119,third,5,kaputt,IAT_purple1.bmp,purple,starting_melody,melody,starting,c,negative,positive,ES_red,1,c,611,1964431,1964935,1965139
119,third,6,teuer,IAT_red1.bmp,red,ending_scream,scream,ending,c,negative,positive,ES_red,1,c,755,1966824,1967329,1967534
119,third,7,einsam,IAT_yellow1.bmp,yellow,starting_scream,scream,starting,c,negative,negative,ES_red,1,c,745,1969364,1969868,1970072
119,third,8,krank,IAT_yellow2.bmp,yellow,starting_scream,scream,starting,c,negative,negative,ES_red,1,c,671,1971891,1972395,1972599
119,third,9,gerecht,IAT_purple3.bmp,purple,starting_melody,melody,starting,m,positive,positive,ES_red,1,m,887,1974343,1974847,1975051
119,third,10,human,IAT_green2.bmp,green,ending_melody,melody,ending,m,positive,negative,ES_red,1,m,627,1977012,1977516,1977720
119,third,11,gierig,IAT_red1.bmp,red,ending_scream,scream,ending,c,negative,positive,ES_red,1,c,597,1979421,1979925,1980129
119,third,12,ehrlich,IAT_red2.bmp,red,ending_scream,scream,ending,m,positive,positive,ES_red,1,m,524,1981800,1982304,1982508
119,third,13,sanft,IAT_purple4.bmp,purple,starting_melody,melody,starting,m,positive,positive,ES_red,1,m,578,1984107,1984611,1984815
119,third,14,human,IAT_yellow1.bmp,yellow,starting_scream,scream,starting,m,positive,negative,ES_red,1,m,561,1986467,1986971,1987175
119,third,15,gerecht,IAT_red1.bmp,red,ending_scream,scream,ending,m,positive,positive,ES_red,0,c,400,1988810,1989314,1989518
119,third,16,brutal,IAT_purple2.bmp,purple,starting_melody,melody,starting,c,negative,positive,ES_red,1,c,554,1991493,1991997,1992201
119,third,17,kaputt,IAT_green3.bmp,green,ending_melody,melody,ending,c,negative,negative,ES_red,1,c,530,1993829,1994333,1994537
119,third,18,streng,IAT_purple4.bmp,purple,starting_melody,melody,starting,c,negative,positive,ES_red,1,c,473,1996140,1996644,1996848
119,third,19,falsch,IAT_yellow2.bmp,yellow,starting_scream,scream,starting,c,negative,negative,ES_red,1,c,467,1998397,1998901,1999105
119,third,20,lästig,IAT_purple3.bmp,purple,starting_melody,melody,starting,c,negative,positive,ES_red,1,c,566,2000645,2001149,2001353
119,third,21,lustig,IAT_green1.bmp,green,ending_melody,melody,ending,m,positive,negative,ES_red,1,m,741,2002993,2003498,2003702
119,third,22,gierig,IAT_yellow3.bmp,yellow,starting_scream,scream,starting,c,negative,negative,ES_red,1,c,687,2005518,2006022,2006226
119,third,23,morsch,IAT_red2.bmp,red,ending_scream,scream,ending,c,negative,positive,ES_red,1,c,557,2007987,2008491,2008695
119,third,24,sonnig,IAT_green3.bmp,green,ending_melody,melody,ending,m,positive,negative,ES_red,1,m,867,2010325,2010830,2011034
119,third,25,streng,IAT_yellow4.bmp,yellow,starting_scream,scream,starting,c,negative,negative,ES_red,1,c,813,2012975,2013479,2013683
119,third,26,lustig,IAT_green4.bmp,green,ending_melody,melody,ending,m,positive,negative,ES_red,1,m,1286,2015570,2016074,2016278
119,third,27,sonnig,IAT_yellow1.bmp,yellow,starting_scream,scream,starting,m,positive,negative,ES_red,1,m,534,2018639,2019144,2019348
119,third,28,gesund,IAT_yellow3.bmp,yellow,starting_scream,scream,starting,m,positive,negative,ES_red,1,m,705,2020957,2021462,2021666
119,third,29,brutal,IAT_green1.bmp,green,ending_melody,melody,ending,c,negative,negative,ES_red,1,c,525,2023445,2023949,2024153
119,third,30,feige,IAT_green4.bmp,green,ending_melody,melody,ending,c,negative,negative,ES_red,1,c,968,2025751,2026256,2026460
119,third,31,einsam,IAT_red2.bmp,red,ending_scream,scream,ending,c,negative,positive,ES_red,1,c,827,2028504,2029008,2029212
119,third,32,munter,IAT_red1.bmp,red,ending_scream,scream,ending,m,positive,positive,ES_red,0,c,530,2031112,2031617,2031821
119,third,33,heiter,IAT_green3.bmp,green,ending_melody,melody,ending,m,positive,negative,ES_red,1,m,497,2033926,2034430,2034634
119,third,34,gesund,IAT_purple3.bmp,purple,starting_melody,melody,starting,m,positive,positive,ES_red,1,m,992,2036205,2036710,2036914
119,third,35,gerecht,IAT_red3.bmp,red,ending_scream,scream,ending,m,positive,positive,ES_red,0,None,1500,2038980,2039484,2039688
119,third,36,brutal,IAT_yellow3.bmp,yellow,starting_scream,scream,starting,c,negative,negative,ES_red,1,c,516,2042763,2043267,2043471
119,third,37,geizig,IAT_green4.bmp,green,ending_melody,melody,ending,c,negative,negative,ES_red,1,c,580,2045062,2045566,2045770
119,third,38,sanft,IAT_yellow4.bmp,yellow,starting_scream,scream,starting,m,positive,negative,ES_red,1,m,680,2047426,2047930,2048134
119,third,39,sozial,IAT_purple4.bmp,purple,starting_melody,melody,starting,m,positive,positive,ES_red,1,m,676,2049889,2050393,2050597
119,third,40,einsam,IAT_purple2.bmp,purple,starting_melody,melody,starting,c,negative,positive,ES_red,0,m,798,2052347,2052852,2053056
119,third,41,falsch,IAT_green2.bmp,green,ending_melody,melody,ending,c,negative,negative,ES_red,1,c,738,2055429,2055933,2056137
119,third,42,munter,IAT_purple2.bmp,purple,starting_melody,melody,starting,m,positive,positive,ES_red,1,m,775,2057950,2058454,2058658
119,third,43,schön,IAT_green3.bmp,green,ending_melody,melody,ending,m,positive,negative,ES_red,1,m,532,2060509,2061013,2061217
119,third,44,gesund,IAT_green1.bmp,green,ending_melody,melody,ending,m,positive,negative,ES_red,1,m,482,2062822,2063326,2063530
119,third,45,human,IAT_purple3.bmp,purple,starting_melody,melody,starting,m,positive,positive,ES_red,1,m,539,2065086,2065590,2065794
119,third,46,lästig,IAT_purple4.bmp,purple,starting_melody,melody,starting,c,negative,positive,ES_red,1,c,834,2067409,2067913,2068117
119,third,47,sozial,IAT_yellow2.bmp,yellow,starting_scream,scream,starting,m,positive,negative,ES_red,1,m,1118,2070025,2070529,2070733
119,third,48,krank,IAT_red4.bmp,red,ending_scream,scream,ending,c,negative,positive,ES_red,1,c,476,2072924,2073429,2073633
119,third,49,lustig,IAT_purple1.bmp,purple,starting_melody,melody,starting,m,positive,positive,ES_red,1,m,1237,2075183,2075687,2075891
119,third,50,feige,IAT_purple2.bmp,purple,starting_melody,melody,starting,c,negative,positive,ES_red,1,c,516,2078203,2078707,2078911
119,third,51,streng,IAT_red3.bmp,red,ending_scream,scream,ending,c,negative,positive,ES_red,1,c,704,2080501,2081005,2081209
119,third,52,gierig,IAT_green4.bmp,green,ending_melody,melody,ending,c,negative,negative,ES_red,1,c,582,2082988,2083492,2083696
119,third,53,sonnig,IAT_yellow2.bmp,yellow,starting_scream,scream,starting,m,positive,negative,ES_red,1,m,566,2085353,2085857,2086061
119,third,54,witzig,IAT_yellow1.bmp,yellow,starting_scream,scream,starting,m,positive,negative,ES_red,1,m,561,2087701,2088205,2088409
119,third,55,einsam,IAT_green2.bmp,green,ending_melody,melody,ending,c,negative,negative,ES_red,1,c,991,2090044,2090548,2090752
119,third,56,schön,IAT_purple1.bmp,purple,starting_melody,melody,starting,m,positive,positive,ES_red,1,m,826,2092818,2093322,2093526
119,third,57,krank,IAT_yellow2.bmp,yellow,starting_scream,scream,starting,c,negative,negative,ES_red,1,c,513,2095427,2095931,2096135
119,third,58,munter,IAT_red3.bmp,red,ending_scream,scream,ending,m,positive,positive,ES_red,1,m,506,2097721,2098226,2098430
119,third,59,geizig,IAT_purple1.bmp,purple,starting_melody,melody,starting,c,negative,positive,ES_red,1,c,772,2100011,2100515,2100719
119,third,60,gesund,IAT_purple3.bmp,purple,starting_melody,melody,starting,m,positive,positive,ES_red,1,m,456,2102564,2103069,2103273
119,third,61,feige,IAT_green4.bmp,green,ending_melody,melody,ending,c,negative,negative,ES_red,1,c,600,2104804,2105308,2105512
119,third,62,teuer,IAT_purple2.bmp,purple,starting_melody,melody,starting,c,negative,positive,ES_red,0,m,772,2107186,2107691,2107895
119,third,63,sozial,IAT_yellow3.bmp,yellow,starting_scream,scream,starting,m,positive,negative,ES_red,1,m,492,2110241,2110746,2110950
119,third,64,kaputt,IAT_red2.bmp,red,ending_scream,scream,ending,c,negative,positive,ES_red,1,c,647,2112516,2113021,2113225
119,third,65,falsch,IAT_red3.bmp,red,ending_scream,scream,ending,c,negative,positive,ES_red,1,c,981,2114946,2115451,2115655
119,third,66,human,IAT_purple2.bmp,purple,starting_melody,melody,starting,m,positive,positive,ES_red,1,m,529,2117712,2118216,2118420
119,third,67,feige,IAT_purple4.bmp,purple,starting_melody,melody,starting,c,negative,positive,ES_red,1,c,800,2120024,2120529,2120733
119,third,68,geizig,IAT_yellow1.bmp,yellow,starting_scream,scream,starting,c,negative,negative,ES_red,1,c,724,2122609,2123113,2123317
119,third,69,schön,IAT_red3.bmp,red,ending_scream,scream,ending,m,positive,positive,ES_red,1,m,465,2125115,2125620,2125824
119,third,70,ehrlich,IAT_green4.bmp,green,ending_melody,melody,ending,m,positive,negative,ES_red,1,m,549,2127364,2127868,2128073
119,third,71,gierig,IAT_red4.bmp,red,ending_scream,scream,ending,c,negative,positive,ES_red,1,c,412,2129696,2130201,2130405
119,third,72,streng,IAT_green2.bmp,green,ending_melody,melody,ending,c,negative,negative,ES_red,1,c,498,2131891,2132395,2132599
119,third,73,teuer,IAT_yellow4.bmp,yellow,starting_scream,scream,starting,c,negative,negative,ES_red,1,c,828,2134172,2134676,2134880
119,third,74,lustig,IAT_red4.bmp,red,ending_scream,scream,ending,m,positive,positive,ES_red,1,m,492,2136784,2137288,2137492
119,third,75,sanft,IAT_purple1.bmp,purple,starting_melody,melody,starting,m,positive,positive,ES_red,1,m,599,2139059,2139563,2139767
119,third,76,geizig,IAT_red4.bmp,red,ending_scream,scream,ending,c,negative,positive,ES_red,1,c,546,2141441,2141945,2142149
119,third,77,heiter,IAT_yellow3.bmp,yellow,starting_scream,scream,starting,m,positive,negative,ES_red,1,m,499,2143770,2144275,2144479
119,third,78,teuer,IAT_green2.bmp,green,ending_melody,melody,ending,c,negative,negative,ES_red,1,c,462,2146052,2146556,2146760
119,third,79,witzig,IAT_green1.bmp,green,ending_melody,melody,ending,m,positive,negative,ES_red,1,m,648,2148296,2148800,2149004
119,third,80,heiter,IAT_red3.bmp,red,ending_scream,scream,ending,m,positive,positive,ES_red,1,m,522,2150727,2151231,2151435
119,third,81,krank,IAT_yellow2.bmp,yellow,starting_scream,scream,starting,c,negative,negative,ES_red,1,c,466,2153032,2153537,2153741
119,third,82,sanft,IAT_green1.bmp,green,ending_melody,melody,ending,m,positive,negative,ES_red,0,c,427,2155281,2155786,2155990
119,third,83,morsch,IAT_yellow4.bmp,yellow,starting_scream,scream,starting,c,negative,negative,ES_red,1,c,545,2157991,2158495,2158699
119,third,84,lästig,IAT_yellow4.bmp,yellow,starting_scream,scream,starting,c,negative,negative,ES_red,1,c,656,2160320,2160824,2161028
119,third,85,witzig,IAT_red1.bmp,red,ending_scream,scream,ending,m,positive,positive,ES_red,1,m,563,2162759,2163263,2163467
119,third,86,morsch,IAT_green1.bmp,green,ending_melody,melody,ending,c,negative,negative,ES_red,1,c,510,2165104,2165609,2165813
119,third,87,ehrlich,IAT_purple1.bmp,purple,starting_melody,melody,starting,m,positive,positive,ES_red,1,m,530,2167399,2167903,2168107
119,third,88,schön,IAT_green3.bmp,green,ending_melody,melody,ending,m,positive,negative,ES_red,1,m,418,2169711,2170216,2170420
119,third,89,kaputt,IAT_purple3.bmp,purple,starting_melody,melody,starting,c,negative,positive,ES_red,1,c,647,2171913,2172417,2172621
119,third,90,morsch,IAT_green3.bmp,green,ending_melody,melody,ending,c,negative,negative,ES_red,1,c,595,2174343,2174848,2175052
119,third,91,ehrlich,IAT_yellow3.bmp,yellow,starting_scream,scream,starting,m,positive,negative,ES_red,1,m,427,2176722,2177226,2177430
119,third,92,munter,IAT_green2.bmp,green,ending_melody,melody,ending,m,positive,negative,ES_red,0,c,715,2178931,2179436,2179640
119,third,93,gerecht,IAT_red1.bmp,red,ending_scream,scream,ending,m,positive,positive,ES_red,1,m,567,2181931,2182435,2182639
119,third,94,witzig,IAT_yellow4.bmp,yellow,starting_scream,scream,starting,m,positive,negative,ES_red,0,c,425,2184282,2184786,2184990
119,third,95,falsch,IAT_red2.bmp,red,ending_scream,scream,ending,c,negative,positive,ES_red,1,c,483,2186990,2187494,2187698
119,forth,0,lustig,IAT_red3.bmp,red,ending_scream,scream,ending,m,positive,positive,ES_red,1,m,1349,2219677,2220181,2220385
119,forth,1,teuer,IAT_red4.bmp,red,ending_scream,scream,ending,c,negative,positive,ES_red,1,c,464,2222812,2223316,2223520
119,forth,2,brutal,IAT_purple4.bmp,purple,starting_melody,melody,starting,c,negative,positive,ES_red,1,c,668,2225061,2225565,2225769
119,forth,3,lästig,IAT_red4.bmp,red,ending_scream,scream,ending,c,negative,positive,ES_red,1,c,582,2227513,2228017,2228221
119,forth,4,sozial,IAT_yellow2.bmp,yellow,starting_scream,scream,starting,m,positive,negative,ES_red,1,m,725,2229881,2230385,2230589
119,forth,5,schön,IAT_red3.bmp,red,ending_scream,scream,ending,m,positive,positive,ES_red,1,m,538,2232391,2232895,2233099
119,forth,6,kaputt,IAT_green4.bmp,green,ending_melody,melody,ending,c,negative,negative,ES_red,1,c,447,2234713,2235217,2235421
119,forth,7,gierig,IAT_green4.bmp,green,ending_melody,melody,ending,c,negative,negative,ES_red,1,c,529,2236944,2237448,2237653
119,forth,8,gerecht,IAT_green3.bmp,green,ending_melody,melody,ending,m,positive,negative,ES_red,1,m,904,2239259,2239763,2239967
119,forth,9,streng,IAT_yellow3.bmp,yellow,starting_scream,scream,starting,c,negative,negative,ES_red,1,c,529,2241947,2242451,2242655
119,forth,10,gesund,IAT_red2.bmp,red,ending_scream,scream,ending,m,positive,positive,ES_red,1,m,524,2244261,2244765,2244969
119,forth,11,feige,IAT_yellow4.bmp,yellow,starting_scream,scream,starting,c,negative,negative,ES_red,1,c,550,2246571,2247075,2247279
119,forth,12,munter,IAT_purple1.bmp,purple,starting_melody,melody,starting,m,positive,positive,ES_red,1,m,782,2248906,2249410,2249614
119,forth,13,sozial,IAT_yellow3.bmp,yellow,starting_scream,scream,starting,m,positive,negative,ES_red,1,m,459,2251473,2251977,2252181
119,forth,14,krank,IAT_yellow3.bmp,yellow,starting_scream,scream,starting,c,negative,negative,ES_red,1,c,662,2253718,2254222,2254426
119,forth,15,gesund,IAT_red1.bmp,red,ending_scream,scream,ending,m,positive,positive,ES_red,1,m,666,2256164,2256669,2256873
119,forth,16,munter,IAT_yellow3.bmp,yellow,starting_scream,scream,starting,m,positive,negative,ES_red,0,c,625,2258616,2259120,2259324
119,forth,17,witzig,IAT_red3.bmp,red,ending_scream,scream,ending,m,positive,positive,ES_red,1,m,491,2261527,2262032,2262236
119,forth,18,kaputt,IAT_red1.bmp,red,ending_scream,scream,ending,c,negative,positive,ES_red,1,c,416,2263805,2264309,2264513
119,forth,19,schön,IAT_green4.bmp,green,ending_melody,melody,ending,m,positive,negative,ES_red,1,m,463,2266006,2266510,2266714
119,forth,20,lästig,IAT_red4.bmp,red,ending_scream,scream,ending,c,negative,positive,ES_red,1,c,575,2268254,2268758,2268963
119,forth,21,geizig,IAT_red2.bmp,red,ending_scream,scream,ending,c,negative,positive,ES_red,1,c,439,2270615,2271120,2271324
119,forth,22,kaputt,IAT_purple2.bmp,purple,starting_melody,melody,starting,c,negative,positive,ES_red,1,c,490,2272841,2273345,2273549
119,forth,23,sonnig,IAT_yellow1.bmp,yellow,starting_scream,scream,starting,m,positive,negative,ES_red,1,m,494,2275116,2275620,2275824
119,forth,24,human,IAT_yellow1.bmp,yellow,starting_scream,scream,starting,m,positive,negative,ES_red,1,m,450,2277394,2277899,2278103
119,forth,25,ehrlich,IAT_purple1.bmp,purple,starting_melody,melody,starting,m,positive,positive,ES_red,1,m,894,2279629,2280134,2280338
119,forth,26,geizig,IAT_green4.bmp,green,ending_melody,melody,ending,c,negative,negative,ES_red,1,c,750,2282309,2282813,2283018
119,forth,27,lästig,IAT_purple3.bmp,purple,starting_melody,melody,starting,c,negative,positive,ES_red,1,c,637,2284844,2285349,2285553
119,forth,28,gerecht,IAT_green3.bmp,green,ending_melody,melody,ending,m,positive,negative,ES_red,1,m,548,2287268,2287772,2287977
119,forth,29,morsch,IAT_yellow1.bmp,yellow,starting_scream,scream,starting,c,negative,negative,ES_red,1,c,820,2289601,2290106,2290310
119,forth,30,feige,IAT_green3.bmp,green,ending_melody,melody,ending,c,negative,negative,ES_red,1,c,793,2292206,2292710,2292914
119,forth,31,schön,IAT_yellow1.bmp,yellow,starting_scream,scream,starting,m,positive,negative,ES_red,1,m,618,2294785,2295289,2295493
119,forth,32,falsch,IAT_yellow2.bmp,yellow,starting_scream,scream,starting,c,negative,negative,ES_red,0,m,361,2297189,2297694,2297898
119,forth,33,munter,IAT_green1.bmp,green,ending_melody,melody,ending,m,positive,negative,ES_red,1,m,485,2299835,2300339,2300543
119,forth,34,gierig,IAT_yellow2.bmp,yellow,starting_scream,scream,starting,c,negative,negative,ES_red,1,c,518,2302105,2302610,2302814
119,forth,35,feige,IAT_red2.bmp,red,ending_scream,scream,ending,c,negative,positive,ES_red,1,c,608,2304409,2304914,2305118
119,forth,36,lustig,IAT_red1.bmp,red,ending_scream,scream,ending,m,positive,positive,ES_red,1,m,590,2306803,2307307,2307511
119,forth,37,sonnig,IAT_purple2.bmp,purple,starting_melody,melody,starting,m,positive,positive,ES_red,1,m,513,2309178,2309682,2309886
119,forth,38,kaputt,IAT_green2.bmp,green,ending_melody,melody,ending,c,negative,negative,ES_red,1,c,504,2311476,2311980,2312184
119,forth,39,ehrlich,IAT_red3.bmp,red,ending_scream,scream,ending,m,positive,positive,ES_red,1,m,508,2313764,2314268,2314472
119,forth,40,streng,IAT_green4.bmp,green,ending_melody,melody,ending,c,negative,negative,ES_red,1,c,538,2316057,2316561,2316765
119,forth,41,krank,IAT_yellow2.bmp,yellow,starting_scream,scream,starting,c,negative,negative,ES_red,1,c,563,2318381,2318885,2319089
119,forth,42,lustig,IAT_purple4.bmp,purple,starting_melody,melody,starting,m,positive,positive,ES_red,0,c,407,2320730,2321234,2321438
119,forth,43,heiter,IAT_yellow4.bmp,yellow,starting_scream,scream,starting,m,positive,negative,ES_red,1,m,493,2323423,2323927,2324131
119,forth,44,falsch,IAT_red4.bmp,red,ending_scream,scream,ending,c,negative,positive,ES_red,1,c,536,2325701,2326205,2326409
119,forth,45,einsam,IAT_purple1.bmp,purple,starting_melody,melody,starting,c,negative,positive,ES_red,0,m,584,2328022,2328526,2328730
119,forth,46,sanft,IAT_purple3.bmp,purple,starting_melody,melody,starting,m,positive,positive,ES_red,1,m,857,2330891,2331395,2331599
119,forth,47,krank,IAT_yellow4.bmp,yellow,starting_scream,scream,starting,c,negative,negative,ES_red,1,c,689,2333533,2334038,2334242
119,forth,48,witzig,IAT_green1.bmp,green,ending_melody,melody,ending,m,positive,negative,ES_red,1,m,429,2336008,2336513,2336717
119,forth,49,ehrlich,IAT_purple3.bmp,purple,starting_melody,melody,starting,m,positive,positive,ES_red,1,m,484,2338222,2338727,2338931
119,forth,50,einsam,IAT_green2.bmp,green,ending_melody,melody,ending,c,negative,negative,ES_red,0,m,452,2340492,2340996,2341200
119,forth,51,brutal,IAT_purple2.bmp,purple,starting_melody,melody,starting,c,negative,positive,ES_red,1,c,558,2343229,2343733,2343937
119,forth,52,streng,IAT_green2.bmp,green,ending_melody,melody,ending,c,negative,negative,ES_red,0,m,550,2345572,2346076,2346280
119,forth,53,teuer,IAT_purple1.bmp,purple,starting_melody,melody,starting,c,negative,positive,ES_red,1,c,600,2348407,2348912,2349116
119,forth,54,human,IAT_red1.bmp,red,ending_scream,scream,ending,m,positive,positive,ES_red,1,m,391,2350793,2351297,2351501
119,forth,55,feige,IAT_purple2.bmp,purple,starting_melody,melody,starting,c,negative,positive,ES_red,1,c,586,2352971,2353475,2353679
119,forth,56,morsch,IAT_red2.bmp,red,ending_scream,scream,ending,c,negative,positive,ES_red,1,c,706,2355342,2355846,2356050
119,forth,57,einsam,IAT_green1.bmp,green,ending_melody,melody,ending,c,negative,negative,ES_red,0,m,435,2357832,2358337,2358541
119,forth,58,sonnig,IAT_yellow3.bmp,yellow,starting_scream,scream,starting,m,positive,negative,ES_red,1,m,946,2360552,2361057,2361261
119,forth,59,gesund,IAT_purple4.bmp,purple,starting_melody,melody,starting,m,positive,positive,ES_red,1,m,592,2363283,2363788,2363992
119,forth,60,teuer,IAT_red1.bmp,red,ending_scream,scream,ending,c,negative,positive,ES_red,1,c,507,2365662,2366166,2366370
119,forth,61,sanft,IAT_green1.bmp,green,ending_melody,melody,ending,m,positive,negative,ES_red,1,m,590,2367954,2368458,2368662
119,forth,62,heiter,IAT_green3.bmp,green,ending_melody,melody,ending,m,positive,negative,ES_red,1,m,524,2370329,2370834,2371038
119,forth,63,gierig,IAT_green1.bmp,green,ending_melody,melody,ending,c,negative,negative,ES_red,1,c,923,2372639,2373143,2373347
119,forth,64,sozial,IAT_purple3.bmp,purple,starting_melody,melody,starting,m,positive,positive,ES_red,1,m,521,2375346,2375850,2376054
119,forth,65,falsch,IAT_red3.bmp,red,ending_scream,scream,ending,c,negative,positive,ES_red,1,c,498,2377652,2378156,2378360
119,forth,66,sonnig,IAT_green2.bmp,green,ending_melody,melody,ending,m,positive,negative,ES_red,1,m,513,2379934,2380439,2380644
119,forth,67,sozial,IAT_purple1.bmp,purple,starting_melody,melody,starting,m,positive,positive,ES_red,1,m,510,2382234,2382738,2382942
119,forth,68,sanft,IAT_yellow1.bmp,yellow,starting_scream,scream,starting,m,positive,negative,ES_red,1,m,418,2384530,2385035,2385239
119,forth,69,gierig,IAT_purple2.bmp,purple,starting_melody,melody,starting,c,negative,positive,ES_red,1,c,545,2386734,2387238,2387442
119,forth,70,teuer,IAT_green2.bmp,green,ending_melody,melody,ending,c,negative,negative,ES_red,1,c,515,2389064,2389568,2389773
119,forth,71,morsch,IAT_purple4.bmp,purple,starting_melody,melody,starting,c,negative,positive,ES_red,1,c,497,2391364,2391868,2392073
119,forth,72,gerecht,IAT_purple3.bmp,purple,starting_melody,melody,starting,m,positive,positive,ES_red,1,m,526,2393646,2394151,2394355
119,forth,73,streng,IAT_purple4.bmp,purple,starting_melody,melody,starting,c,negative,positive,ES_red,1,c,482,2395959,2396463,2396667
119,forth,74,morsch,IAT_yellow4.bmp,yellow,starting_scream,scream,starting,c,negative,negative,ES_red,1,c,560,2398226,2398730,2398934
119,forth,75,human,IAT_purple1.bmp,purple,starting_melody,melody,starting,m,positive,positive,ES_red,1,m,639,2400572,2401076,2401280
119,forth,76,witzig,IAT_red1.bmp,red,ending_scream,scream,ending,m,positive,positive,ES_red,1,m,568,2402996,2403500,2403704
119,forth,77,human,IAT_green4.bmp,green,ending_melody,melody,ending,m,positive,negative,ES_red,1,m,430,2405350,2405854,2406058
119,forth,78,brutal,IAT_purple4.bmp,purple,starting_melody,melody,starting,c,negative,positive,ES_red,1,c,541,2407564,2408068,2408272
119,forth,79,gerecht,IAT_yellow4.bmp,yellow,starting_scream,scream,starting,m,positive,negative,ES_red,1,m,492,2409891,2410396,2410600
119,forth,80,lustig,IAT_red4.bmp,red,ending_scream,scream,ending,m,positive,positive,ES_red,1,m,446,2412169,2412673,2412877
119,forth,81,sanft,IAT_green2.bmp,green,ending_melody,melody,ending,m,positive,negative,ES_red,1,m,511,2414400,2414904,2415108
119,forth,82,heiter,IAT_yellow2.bmp,yellow,starting_scream,scream,starting,m,positive,negative,ES_red,1,m,491,2416696,2417200,2417404
119,forth,83,einsam,IAT_yellow4.bmp,yellow,starting_scream,scream,starting,c,negative,negative,ES_red,0,m,434,2418972,2419476,2419680
119,forth,84,munter,IAT_green3.bmp,green,ending_melody,melody,ending,m,positive,negative,ES_red,0,c,581,2421692,2422196,2422400
119,forth,85,geizig,IAT_yellow2.bmp,yellow,starting_scream,scream,starting,c,negative,negative,ES_red,0,m,952,2424559,2425063,2425267
119,forth,86,heiter,IAT_yellow3.bmp,yellow,starting_scream,scream,starting,m,positive,negative,ES_red,1,m,534,2427797,2428301,2428505
119,forth,87,schön,IAT_red2.bmp,red,ending_scream,scream,ending,m,positive,positive,ES_red,1,m,506,2430117,2430622,2430826
119,forth,88,brutal,IAT_yellow1.bmp,yellow,starting_scream,scream,starting,c,negative,negative,ES_red,1,c,499,2432411,2432915,2433119
119,forth,89,gesund,IAT_green1.bmp,green,ending_melody,melody,ending,m,positive,negative,ES_red,1,m,563,2434694,2435199,2435403
119,forth,90,geizig,IAT_green3.bmp,green,ending_melody,melody,ending,c,negative,negative,ES_red,1,c,652,2437043,2437548,2437752
119,forth,91,ehrlich,IAT_purple2.bmp,purple,starting_melody,melody,starting,m,positive,positive,ES_red,1,m,497,2439481,2439985,2440189
119,forth,92,falsch,IAT_red3.bmp,red,ending_scream,scream,ending,c,negative,positive,ES_red,1,c,509,2441762,2442267,2442471
119,forth,93,witzig,IAT_red4.bmp,red,ending_scream,scream,ending,m,positive,positive,ES_red,1,m,501,2444059,2444563,2444767
119,forth,94,lästig,IAT_purple3.bmp,purple,starting_melody,melody,starting,c,negative,positive,ES_red,1,c,489,2446344,2446849,2447053
119,forth,95,krank,IAT_red2.bmp,red,ending_scream,scream,ending,c,negative,positive,ES_red,1,c,652,2448620,2449124,2449328
