subject_nr,block,trialnr,trial_target,trial_prime,prime_color,prime_role,prime_us,prime_relation,correct_response,target_valence,prime_valence,color_counter,correct_first_response,response_first_response,response_time_first_response,fixation_show,prime_show,target_show
39,first,0,morsch,IAT_purple4.bmp,purple,ending_scream,scream,ending,c,negative,positive,ES_purple,1,c,713,1390734,1391239,1391443
39,first,1,human,IAT_yellow1.bmp,yellow,ending_melody,melody,ending,m,positive,negative,ES_purple,1,m,492,1393230,1393735,1393939
39,first,2,feige,IAT_green4.bmp,green,starting_melody,melody,starting,c,negative,positive,ES_purple,1,c,642,1395504,1396009,1396213
39,first,3,sonnig,IAT_green3.bmp,green,starting_melody,melody,starting,m,positive,positive,ES_purple,1,m,413,1397929,1398433,1398637
39,first,4,gerecht,IAT_yellow4.bmp,yellow,ending_melody,melody,ending,m,positive,negative,ES_purple,1,m,477,1400123,1400628,1400832
39,first,5,gierig,IAT_purple4.bmp,purple,ending_scream,scream,ending,c,negative,positive,ES_purple,1,c,631,1402382,1402887,1403091
39,first,6,kaputt,IAT_green4.bmp,green,starting_melody,melody,starting,c,negative,positive,ES_purple,1,c,530,1404795,1405299,1405503
39,first,7,witzig,IAT_yellow3.bmp,yellow,ending_melody,melody,ending,m,positive,negative,ES_purple,1,m,572,1407105,1407609,1407813
39,first,8,schön,IAT_yellow3.bmp,yellow,ending_melody,melody,ending,m,positive,negative,ES_purple,1,m,540,1409457,1409961,1410165
39,first,9,witzig,IAT_red1.bmp,red,starting_scream,scream,starting,m,positive,negative,ES_purple,1,m,546,1411779,1412283,1412488
39,first,10,ehrlich,IAT_green2.bmp,green,starting_melody,melody,starting,m,positive,positive,ES_purple,1,m,452,1414107,1414611,1414815
39,first,11,gesund,IAT_yellow1.bmp,yellow,ending_melody,melody,ending,m,positive,negative,ES_purple,1,m,426,1416340,1416844,1417048
39,first,12,gerecht,IAT_green3.bmp,green,starting_melody,melody,starting,m,positive,positive,ES_purple,1,m,326,1418546,1419051,1419255
39,first,13,krank,IAT_purple2.bmp,purple,ending_scream,scream,ending,c,negative,positive,ES_purple,1,c,549,1420655,1421159,1421363
39,first,14,sozial,IAT_green4.bmp,green,starting_melody,melody,starting,m,positive,positive,ES_purple,1,m,432,1422984,1423489,1423693
39,first,15,schön,IAT_yellow3.bmp,yellow,ending_melody,melody,ending,m,positive,negative,ES_purple,1,m,457,1425198,1425702,1425906
39,first,16,sonnig,IAT_purple1.bmp,purple,ending_scream,scream,ending,m,positive,positive,ES_purple,1,m,419,1427435,1427940,1428144
39,first,17,sanft,IAT_purple1.bmp,purple,ending_scream,scream,ending,m,positive,positive,ES_purple,1,m,384,1429636,1430140,1430344
39,first,18,einsam,IAT_purple4.bmp,purple,ending_scream,scream,ending,c,negative,positive,ES_purple,0,m,337,1431802,1432306,1432510
39,first,19,streng,IAT_purple3.bmp,purple,ending_scream,scream,ending,c,negative,positive,ES_purple,1,c,621,1434420,1434924,1435128
39,first,20,schön,IAT_yellow1.bmp,yellow,ending_melody,melody,ending,m,positive,negative,ES_purple,1,m,411,1436823,1437327,1437531
39,first,21,gierig,IAT_purple1.bmp,purple,ending_scream,scream,ending,c,negative,positive,ES_purple,1,c,486,1439016,1439520,1439724
39,first,22,streng,IAT_purple1.bmp,purple,ending_scream,scream,ending,c,negative,positive,ES_purple,1,c,470,1441283,1441788,1441992
39,first,23,feige,IAT_yellow2.bmp,yellow,ending_melody,melody,ending,c,negative,negative,ES_purple,0,m,400,1443535,1444040,1444244
39,first,24,kaputt,IAT_yellow4.bmp,yellow,ending_melody,melody,ending,c,negative,negative,ES_purple,1,c,509,1446217,1446721,1446925
39,first,25,gesund,IAT_red3.bmp,red,starting_scream,scream,starting,m,positive,negative,ES_purple,1,m,466,1448508,1449012,1449216
39,first,26,geizig,IAT_yellow1.bmp,yellow,ending_melody,melody,ending,c,negative,negative,ES_purple,1,c,524,1450756,1451261,1451465
39,first,27,kaputt,IAT_yellow4.bmp,yellow,ending_melody,melody,ending,c,negative,negative,ES_purple,1,c,451,1453063,1453568,1453772
39,first,28,gierig,IAT_red2.bmp,red,starting_scream,scream,starting,c,negative,negative,ES_purple,1,c,481,1455296,1455801,1456005
39,first,29,teuer,IAT_purple2.bmp,purple,ending_scream,scream,ending,c,negative,positive,ES_purple,1,c,682,1457561,1458065,1458269
39,first,30,sanft,IAT_red2.bmp,red,starting_scream,scream,starting,m,positive,negative,ES_purple,0,c,830,1460025,1460530,1460734
39,first,31,lästig,IAT_red1.bmp,red,starting_scream,scream,starting,c,negative,negative,ES_purple,1,c,900,1463138,1463642,1463846
39,first,32,witzig,IAT_purple4.bmp,purple,ending_scream,scream,ending,m,positive,positive,ES_purple,1,m,503,1465818,1466322,1466526
39,first,33,teuer,IAT_red3.bmp,red,starting_scream,scream,starting,c,negative,negative,ES_purple,1,c,447,1468104,1468609,1468813
39,first,34,geizig,IAT_yellow2.bmp,yellow,ending_melody,melody,ending,c,negative,negative,ES_purple,1,c,427,1470334,1470839,1471043
39,first,35,sozial,IAT_purple3.bmp,purple,ending_scream,scream,ending,m,positive,positive,ES_purple,1,m,461,1472544,1473048,1473252
39,first,36,lustig,IAT_purple1.bmp,purple,ending_scream,scream,ending,m,positive,positive,ES_purple,1,m,439,1474786,1475291,1475495
39,first,37,brutal,IAT_green2.bmp,green,starting_melody,melody,starting,c,negative,positive,ES_purple,1,c,1063,1477007,1477511,1477715
39,first,38,sonnig,IAT_yellow2.bmp,yellow,ending_melody,melody,ending,m,positive,negative,ES_purple,1,m,472,1479852,1480356,1480560
39,first,39,munter,IAT_purple4.bmp,purple,ending_scream,scream,ending,m,positive,positive,ES_purple,0,c,512,1482108,1482612,1482816
39,first,40,falsch,IAT_yellow3.bmp,yellow,ending_melody,melody,ending,c,negative,negative,ES_purple,1,c,563,1484902,1485406,1485610
39,first,41,krank,IAT_red4.bmp,red,starting_scream,scream,starting,c,negative,negative,ES_purple,1,c,530,1487247,1487752,1487956
39,first,42,kaputt,IAT_yellow2.bmp,yellow,ending_melody,melody,ending,c,negative,negative,ES_purple,1,c,486,1489561,1490065,1490269
39,first,43,falsch,IAT_green2.bmp,green,starting_melody,melody,starting,c,negative,positive,ES_purple,1,c,446,1491829,1492333,1492537
39,first,44,krank,IAT_purple2.bmp,purple,ending_scream,scream,ending,c,negative,positive,ES_purple,1,c,443,1494056,1494561,1494765
39,first,45,heiter,IAT_red3.bmp,red,starting_scream,scream,starting,m,positive,negative,ES_purple,0,c,451,1496282,1496786,1496990
39,first,46,sonnig,IAT_green3.bmp,green,starting_melody,melody,starting,m,positive,positive,ES_purple,1,m,366,1499014,1499518,1499722
39,first,47,einsam,IAT_red4.bmp,red,starting_scream,scream,starting,c,negative,negative,ES_purple,1,c,622,1501162,1501666,1501870
39,first,48,gesund,IAT_red3.bmp,red,starting_scream,scream,starting,m,positive,negative,ES_purple,1,m,576,1503567,1504071,1504275
39,first,49,brutal,IAT_green3.bmp,green,starting_melody,melody,starting,c,negative,positive,ES_purple,0,m,694,1505924,1506428,1506632
39,first,50,heiter,IAT_red4.bmp,red,starting_scream,scream,starting,m,positive,negative,ES_purple,1,m,594,1508900,1509404,1509608
39,first,51,falsch,IAT_green2.bmp,green,starting_melody,melody,starting,c,negative,positive,ES_purple,1,c,559,1511276,1511780,1511984
39,first,52,einsam,IAT_yellow4.bmp,yellow,ending_melody,melody,ending,c,negative,negative,ES_purple,1,c,687,1513616,1514120,1514324
39,first,53,gerecht,IAT_purple3.bmp,purple,ending_scream,scream,ending,m,positive,positive,ES_purple,1,m,483,1516084,1516589,1516793
39,first,54,krank,IAT_green2.bmp,green,starting_melody,melody,starting,c,negative,positive,ES_purple,1,c,494,1518350,1518854,1519059
39,first,55,human,IAT_green1.bmp,green,starting_melody,melody,starting,m,positive,positive,ES_purple,1,m,472,1520626,1521130,1521334
39,first,56,lustig,IAT_yellow3.bmp,yellow,ending_melody,melody,ending,m,positive,negative,ES_purple,1,m,719,1522879,1523383,1523587
39,first,57,heiter,IAT_green4.bmp,green,starting_melody,melody,starting,m,positive,positive,ES_purple,1,m,473,1525380,1525885,1526089
39,first,58,teuer,IAT_green1.bmp,green,starting_melody,melody,starting,c,negative,positive,ES_purple,1,c,554,1527635,1528140,1528344
39,first,59,munter,IAT_yellow1.bmp,yellow,ending_melody,melody,ending,m,positive,negative,ES_purple,1,m,520,1529972,1530476,1530680
39,first,60,ehrlich,IAT_red4.bmp,red,starting_scream,scream,starting,m,positive,negative,ES_purple,1,m,579,1532275,1532779,1532984
39,first,61,munter,IAT_red2.bmp,red,starting_scream,scream,starting,m,positive,negative,ES_purple,1,m,454,1534636,1535141,1535345
39,first,62,einsam,IAT_purple3.bmp,purple,ending_scream,scream,ending,c,negative,positive,ES_purple,0,m,358,1536872,1537377,1537581
39,first,63,gerecht,IAT_green3.bmp,green,starting_melody,melody,starting,m,positive,positive,ES_purple,1,m,498,1539513,1540017,1540221
39,first,64,streng,IAT_red3.bmp,red,starting_scream,scream,starting,c,negative,negative,ES_purple,1,c,497,1541793,1542298,1542502
39,first,65,lästig,IAT_green1.bmp,green,starting_melody,melody,starting,c,negative,positive,ES_purple,1,c,641,1544073,1544577,1544781
39,first,66,human,IAT_green1.bmp,green,starting_melody,melody,starting,m,positive,positive,ES_purple,1,m,420,1546496,1547000,1547204
39,first,67,morsch,IAT_red1.bmp,red,starting_scream,scream,starting,c,negative,negative,ES_purple,1,c,677,1548696,1549201,1549405
39,first,68,lästig,IAT_purple2.bmp,purple,ending_scream,scream,ending,c,negative,positive,ES_purple,1,c,582,1551156,1551660,1551864
39,first,69,sozial,IAT_green2.bmp,green,starting_melody,melody,starting,m,positive,positive,ES_purple,1,m,427,1553520,1554024,1554229
39,first,70,geizig,IAT_green4.bmp,green,starting_melody,melody,starting,c,negative,positive,ES_purple,1,c,502,1555730,1556234,1556438
39,first,71,feige,IAT_yellow3.bmp,yellow,ending_melody,melody,ending,c,negative,negative,ES_purple,1,c,628,1558014,1558520,1558724
39,first,72,munter,IAT_purple3.bmp,purple,ending_scream,scream,ending,m,positive,positive,ES_purple,0,c,534,1560426,1560930,1561134
39,first,73,brutal,IAT_red4.bmp,red,starting_scream,scream,starting,c,negative,negative,ES_purple,1,c,656,1563244,1563748,1563952
39,first,74,feige,IAT_purple4.bmp,purple,ending_scream,scream,ending,c,negative,positive,ES_purple,1,c,448,1565681,1566185,1566389
39,first,75,sozial,IAT_purple2.bmp,purple,ending_scream,scream,ending,m,positive,positive,ES_purple,1,m,454,1567912,1568417,1568621
39,first,76,schön,IAT_purple2.bmp,purple,ending_scream,scream,ending,m,positive,positive,ES_purple,1,m,482,1570149,1570654,1570858
39,first,77,morsch,IAT_red2.bmp,red,starting_scream,scream,starting,c,negative,negative,ES_purple,1,c,500,1572415,1572920,1573124
39,first,78,teuer,IAT_red2.bmp,red,starting_scream,scream,starting,c,negative,negative,ES_purple,1,c,539,1574698,1575202,1575406
39,first,79,lustig,IAT_red1.bmp,red,starting_scream,scream,starting,m,positive,negative,ES_purple,1,m,603,1577019,1577523,1577727
39,first,80,lästig,IAT_green3.bmp,green,starting_melody,melody,starting,c,negative,positive,ES_purple,1,c,566,1579404,1579908,1580112
39,first,81,sanft,IAT_yellow2.bmp,yellow,ending_melody,melody,ending,m,positive,negative,ES_purple,1,m,522,1581753,1582258,1582462
39,first,82,brutal,IAT_red2.bmp,red,starting_scream,scream,starting,c,negative,negative,ES_purple,1,c,772,1584058,1584562,1584766
39,first,83,ehrlich,IAT_red3.bmp,red,starting_scream,scream,starting,m,positive,negative,ES_purple,1,m,555,1586612,1587116,1587320
39,first,84,gesund,IAT_green1.bmp,green,starting_melody,melody,starting,m,positive,positive,ES_purple,1,m,474,1588948,1589453,1589657
39,first,85,streng,IAT_yellow4.bmp,yellow,ending_melody,melody,ending,c,negative,negative,ES_purple,1,c,438,1591206,1591710,1591915
39,first,86,morsch,IAT_red4.bmp,red,starting_scream,scream,starting,c,negative,negative,ES_purple,1,c,457,1593426,1593931,1594135
39,first,87,lustig,IAT_red1.bmp,red,starting_scream,scream,starting,m,positive,negative,ES_purple,1,m,478,1595667,1596171,1596375
39,first,88,sanft,IAT_purple3.bmp,purple,ending_scream,scream,ending,m,positive,positive,ES_purple,0,c,458,1597926,1598431,1598635
39,first,89,geizig,IAT_green4.bmp,green,starting_melody,melody,starting,c,negative,positive,ES_purple,1,c,540,1600666,1601171,1601375
39,first,90,gierig,IAT_yellow2.bmp,yellow,ending_melody,melody,ending,c,negative,negative,ES_purple,1,c,672,1602989,1603493,1603698
39,first,91,heiter,IAT_purple1.bmp,purple,ending_scream,scream,ending,m,positive,positive,ES_purple,1,m,456,1605445,1605949,1606153
39,first,92,ehrlich,IAT_green1.bmp,green,starting_melody,melody,starting,m,positive,positive,ES_purple,1,m,531,1607682,1608186,1608390
39,first,93,witzig,IAT_yellow4.bmp,yellow,ending_melody,melody,ending,m,positive,negative,ES_purple,1,m,566,1609996,1610500,1610704
39,first,94,human,IAT_red1.bmp,red,starting_scream,scream,starting,m,positive,negative,ES_purple,1,m,635,1612347,1612851,1613055
39,first,95,falsch,IAT_yellow1.bmp,yellow,ending_melody,melody,ending,c,negative,negative,ES_purple,0,m,618,1614765,1615269,1615473
39,second,0,morsch,IAT_green2.bmp,green,starting_melody,melody,starting,c,negative,positive,ES_purple,1,c,548,1627143,1627647,1627851
39,second,1,falsch,IAT_red4.bmp,red,starting_scream,scream,starting,c,negative,negative,ES_purple,1,c,466,1629474,1629978,1630182
39,second,2,schön,IAT_red2.bmp,red,starting_scream,scream,starting,m,positive,negative,ES_purple,1,m,490,1631721,1632225,1632429
39,second,3,krank,IAT_purple3.bmp,purple,ending_scream,scream,ending,c,negative,positive,ES_purple,0,m,358,1633992,1634496,1634700
39,second,4,heiter,IAT_yellow4.bmp,yellow,ending_melody,melody,ending,m,positive,negative,ES_purple,1,m,439,1636634,1637138,1637342
39,second,5,sonnig,IAT_purple1.bmp,purple,ending_scream,scream,ending,m,positive,positive,ES_purple,0,c,372,1638854,1639358,1639562
39,second,6,sanft,IAT_purple4.bmp,purple,ending_scream,scream,ending,m,positive,positive,ES_purple,1,m,461,1641507,1642011,1642215
39,second,7,teuer,IAT_yellow2.bmp,yellow,ending_melody,melody,ending,c,negative,negative,ES_purple,1,c,456,1643751,1644255,1644459
39,second,8,falsch,IAT_yellow4.bmp,yellow,ending_melody,melody,ending,c,negative,negative,ES_purple,1,c,416,1645988,1646492,1646696
39,second,9,munter,IAT_green2.bmp,green,starting_melody,melody,starting,m,positive,positive,ES_purple,1,m,605,1648185,1648690,1648894
39,second,10,gerecht,IAT_purple3.bmp,purple,ending_scream,scream,ending,m,positive,positive,ES_purple,1,m,451,1650572,1651076,1651280
39,second,11,brutal,IAT_purple4.bmp,purple,ending_scream,scream,ending,c,negative,positive,ES_purple,1,c,550,1652804,1653309,1653513
39,second,12,gesund,IAT_purple3.bmp,purple,ending_scream,scream,ending,m,positive,positive,ES_purple,1,m,399,1655136,1655640,1655844
39,second,13,human,IAT_green1.bmp,green,starting_melody,melody,starting,m,positive,positive,ES_purple,1,m,572,1657316,1657821,1658025
39,second,14,falsch,IAT_green2.bmp,green,starting_melody,melody,starting,c,negative,positive,ES_purple,1,c,442,1659670,1660175,1660379
39,second,15,morsch,IAT_purple2.bmp,purple,ending_scream,scream,ending,c,negative,positive,ES_purple,0,m,385,1661895,1662399,1662603
39,second,16,heiter,IAT_red2.bmp,red,starting_scream,scream,starting,m,positive,negative,ES_purple,1,m,629,1664561,1665065,1665269
39,second,17,kaputt,IAT_green2.bmp,green,starting_melody,melody,starting,c,negative,positive,ES_purple,1,c,531,1666971,1667475,1667679
39,second,18,sonnig,IAT_purple4.bmp,purple,ending_scream,scream,ending,m,positive,positive,ES_purple,1,m,513,1669284,1669788,1669992
39,second,19,gesund,IAT_red3.bmp,red,starting_scream,scream,starting,m,positive,negative,ES_purple,1,m,453,1671579,1672084,1672288
39,second,20,sozial,IAT_yellow1.bmp,yellow,ending_melody,melody,ending,m,positive,negative,ES_purple,1,m,533,1673815,1674319,1674523
39,second,21,lästig,IAT_red4.bmp,red,starting_scream,scream,starting,c,negative,negative,ES_purple,1,c,674,1676129,1676633,1676837
39,second,22,gesund,IAT_yellow1.bmp,yellow,ending_melody,melody,ending,m,positive,negative,ES_purple,1,m,403,1678585,1679090,1679294
39,second,23,lustig,IAT_yellow1.bmp,yellow,ending_melody,melody,ending,m,positive,negative,ES_purple,1,m,436,1680771,1681275,1681479
39,second,24,kaputt,IAT_purple2.bmp,purple,ending_scream,scream,ending,c,negative,positive,ES_purple,1,c,453,1682989,1683493,1683697
39,second,25,einsam,IAT_yellow2.bmp,yellow,ending_melody,melody,ending,c,negative,negative,ES_purple,1,c,879,1685224,1685729,1685933
39,second,26,ehrlich,IAT_yellow2.bmp,yellow,ending_melody,melody,ending,m,positive,negative,ES_purple,1,m,467,1687886,1688390,1688594
39,second,27,teuer,IAT_purple1.bmp,purple,ending_scream,scream,ending,c,negative,positive,ES_purple,1,c,439,1690135,1690639,1690843
39,second,28,munter,IAT_red1.bmp,red,starting_scream,scream,starting,m,positive,negative,ES_purple,1,m,474,1692356,1692860,1693064
39,second,29,morsch,IAT_yellow4.bmp,yellow,ending_melody,melody,ending,c,negative,negative,ES_purple,1,c,463,1694613,1695117,1695321
39,second,30,gerecht,IAT_green4.bmp,green,starting_melody,melody,starting,m,positive,positive,ES_purple,1,m,468,1696857,1697362,1697566
39,second,31,lustig,IAT_purple2.bmp,purple,ending_scream,scream,ending,m,positive,positive,ES_purple,1,m,496,1699108,1699612,1699816
39,second,32,gerecht,IAT_green1.bmp,green,starting_melody,melody,starting,m,positive,positive,ES_purple,1,m,455,1701386,1701890,1702094
39,second,33,krank,IAT_green2.bmp,green,starting_melody,melody,starting,c,negative,positive,ES_purple,1,c,627,1703623,1704127,1704331
39,second,34,lästig,IAT_red1.bmp,red,starting_scream,scream,starting,c,negative,negative,ES_purple,1,c,655,1706032,1706536,1706740
39,second,35,sanft,IAT_red1.bmp,red,starting_scream,scream,starting,m,positive,negative,ES_purple,1,m,513,1708469,1708973,1709177
39,second,36,schön,IAT_red1.bmp,red,starting_scream,scream,starting,m,positive,negative,ES_purple,1,m,417,1710764,1711268,1711472
39,second,37,geizig,IAT_yellow4.bmp,yellow,ending_melody,melody,ending,c,negative,negative,ES_purple,1,c,614,1712963,1713467,1713671
39,second,38,streng,IAT_yellow3.bmp,yellow,ending_melody,melody,ending,c,negative,negative,ES_purple,1,c,538,1715359,1715863,1716067
39,second,39,sonnig,IAT_red3.bmp,red,starting_scream,scream,starting,m,positive,negative,ES_purple,1,m,498,1717679,1718183,1718387
39,second,40,teuer,IAT_yellow2.bmp,yellow,ending_melody,melody,ending,c,negative,negative,ES_purple,1,c,441,1719957,1720461,1720665
39,second,41,sanft,IAT_green3.bmp,green,starting_melody,melody,starting,m,positive,positive,ES_purple,1,m,408,1722180,1722685,1722889
39,second,42,sozial,IAT_yellow3.bmp,yellow,ending_melody,melody,ending,m,positive,negative,ES_purple,1,m,423,1724371,1724875,1725079
39,second,43,geizig,IAT_yellow2.bmp,yellow,ending_melody,melody,ending,c,negative,negative,ES_purple,0,m,403,1726575,1727080,1727284
39,second,44,krank,IAT_green4.bmp,green,starting_melody,melody,starting,c,negative,positive,ES_purple,1,c,622,1729261,1729766,1729970
39,second,45,ehrlich,IAT_green3.bmp,green,starting_melody,melody,starting,m,positive,positive,ES_purple,1,m,476,1731667,1732171,1732375
39,second,46,kaputt,IAT_red3.bmp,red,starting_scream,scream,starting,c,negative,negative,ES_purple,1,c,479,1733925,1734430,1734634
39,second,47,witzig,IAT_purple3.bmp,purple,ending_scream,scream,ending,m,positive,positive,ES_purple,1,m,454,1736187,1736691,1736895
39,second,48,sonnig,IAT_yellow3.bmp,yellow,ending_melody,melody,ending,m,positive,negative,ES_purple,1,m,404,1738423,1738927,1739131
39,second,49,geizig,IAT_purple4.bmp,purple,ending_scream,scream,ending,c,negative,positive,ES_purple,1,c,702,1740608,1741113,1741317
39,second,50,gierig,IAT_green4.bmp,green,starting_melody,melody,starting,c,negative,positive,ES_purple,1,c,591,1743094,1743599,1743803
39,second,51,heiter,IAT_purple2.bmp,purple,ending_scream,scream,ending,m,positive,positive,ES_purple,1,m,580,1745469,1745973,1746177
39,second,52,einsam,IAT_red2.bmp,red,starting_scream,scream,starting,c,negative,negative,ES_purple,1,c,609,1747831,1748335,1748539
39,second,53,feige,IAT_red1.bmp,red,starting_scream,scream,starting,c,negative,negative,ES_purple,1,c,533,1750222,1750726,1750930
39,second,54,brutal,IAT_red2.bmp,red,starting_scream,scream,starting,c,negative,negative,ES_purple,1,c,465,1752537,1753041,1753245
39,second,55,schön,IAT_green3.bmp,green,starting_melody,melody,starting,m,positive,positive,ES_purple,1,m,432,1754785,1755289,1755493
39,second,56,gierig,IAT_yellow4.bmp,yellow,ending_melody,melody,ending,c,negative,negative,ES_purple,1,c,495,1756999,1757503,1757707
39,second,57,human,IAT_green4.bmp,green,starting_melody,melody,starting,m,positive,positive,ES_purple,0,c,128,1759275,1759780,1759984
39,second,58,streng,IAT_green3.bmp,green,starting_melody,melody,starting,c,negative,positive,ES_purple,0,None,1500,1761685,1762190,1762394
39,second,59,munter,IAT_yellow3.bmp,yellow,ending_melody,melody,ending,m,positive,negative,ES_purple,1,m,552,1765469,1765973,1766177
39,second,60,einsam,IAT_green1.bmp,green,starting_melody,melody,starting,c,negative,positive,ES_purple,1,c,613,1767802,1768307,1768511
39,second,61,witzig,IAT_red1.bmp,red,starting_scream,scream,starting,m,positive,negative,ES_purple,1,m,465,1770198,1770702,1770906
39,second,62,kaputt,IAT_purple2.bmp,purple,ending_scream,scream,ending,c,negative,positive,ES_purple,1,c,409,1772445,1772949,1773153
39,second,63,geizig,IAT_red3.bmp,red,starting_scream,scream,starting,c,negative,negative,ES_purple,1,c,524,1774636,1775140,1775344
39,second,64,sozial,IAT_yellow4.bmp,yellow,ending_melody,melody,ending,m,positive,negative,ES_purple,1,m,467,1776943,1777447,1777651
39,second,65,ehrlich,IAT_red3.bmp,red,starting_scream,scream,starting,m,positive,negative,ES_purple,1,m,466,1779193,1779698,1779903
39,second,66,sanft,IAT_green1.bmp,green,starting_melody,melody,starting,m,positive,positive,ES_purple,1,m,524,1781444,1781949,1782153
39,second,67,munter,IAT_yellow1.bmp,yellow,ending_melody,melody,ending,m,positive,negative,ES_purple,1,m,374,1783751,1784256,1784460
39,second,68,streng,IAT_red2.bmp,red,starting_scream,scream,starting,c,negative,negative,ES_purple,0,m,321,1785908,1786412,1786616
39,second,69,sozial,IAT_yellow3.bmp,yellow,ending_melody,melody,ending,m,positive,negative,ES_purple,1,m,464,1788512,1789016,1789220
39,second,70,lästig,IAT_yellow1.bmp,yellow,ending_melody,melody,ending,c,negative,negative,ES_purple,1,c,557,1790758,1791262,1791466
39,second,71,streng,IAT_yellow3.bmp,yellow,ending_melody,melody,ending,c,negative,negative,ES_purple,1,c,523,1793097,1793602,1793806
39,second,72,einsam,IAT_red4.bmp,red,starting_scream,scream,starting,c,negative,negative,ES_purple,1,c,642,1795405,1795909,1796113
39,second,73,morsch,IAT_green4.bmp,green,starting_melody,melody,starting,c,negative,positive,ES_purple,1,c,534,1797829,1798333,1798537
39,second,74,gesund,IAT_purple1.bmp,purple,ending_scream,scream,ending,m,positive,positive,ES_purple,1,m,668,1800146,1800651,1800855
39,second,75,gierig,IAT_red4.bmp,red,starting_scream,scream,starting,c,negative,negative,ES_purple,1,c,488,1802598,1803102,1803306
39,second,76,human,IAT_purple1.bmp,purple,ending_scream,scream,ending,m,positive,positive,ES_purple,1,m,433,1804867,1805372,1805577
39,second,77,witzig,IAT_red4.bmp,red,starting_scream,scream,starting,m,positive,negative,ES_purple,1,m,534,1807085,1807589,1807793
39,second,78,feige,IAT_green1.bmp,green,starting_melody,melody,starting,c,negative,positive,ES_purple,1,c,446,1809402,1809906,1810110
39,second,79,falsch,IAT_yellow1.bmp,yellow,ending_melody,melody,ending,c,negative,negative,ES_purple,1,c,563,1811630,1812134,1812339
39,second,80,brutal,IAT_purple2.bmp,purple,ending_scream,scream,ending,c,negative,positive,ES_purple,1,c,519,1813976,1814480,1814684
39,second,81,teuer,IAT_red2.bmp,red,starting_scream,scream,starting,c,negative,negative,ES_purple,1,c,440,1816278,1816782,1816986
39,second,82,feige,IAT_purple3.bmp,purple,ending_scream,scream,ending,c,negative,positive,ES_purple,1,c,495,1818499,1819004,1819208
39,second,83,gerecht,IAT_purple3.bmp,purple,ending_scream,scream,ending,m,positive,positive,ES_purple,1,m,549,1820778,1821282,1821486
39,second,84,brutal,IAT_green3.bmp,green,starting_melody,melody,starting,c,negative,positive,ES_purple,1,c,444,1823109,1823613,1823818
39,second,85,lustig,IAT_yellow2.bmp,yellow,ending_melody,melody,ending,m,positive,negative,ES_purple,1,m,468,1825336,1825840,1826044
39,second,86,lästig,IAT_purple1.bmp,purple,ending_scream,scream,ending,c,negative,positive,ES_purple,0,m,91,1827586,1828090,1828294
39,second,87,witzig,IAT_red4.bmp,red,starting_scream,scream,starting,m,positive,negative,ES_purple,1,m,473,1829959,1830463,1830667
39,second,88,feige,IAT_purple4.bmp,purple,ending_scream,scream,ending,c,negative,positive,ES_purple,1,c,508,1832214,1832719,1832923
39,second,89,ehrlich,IAT_green2.bmp,green,starting_melody,melody,starting,m,positive,positive,ES_purple,1,m,416,1834504,1835009,1835213
39,second,90,human,IAT_green1.bmp,green,starting_melody,melody,starting,m,positive,positive,ES_purple,1,m,455,1836703,1837207,1837411
39,second,91,krank,IAT_green4.bmp,green,starting_melody,melody,starting,c,negative,positive,ES_purple,1,c,523,1838940,1839444,1839648
39,second,92,schön,IAT_green3.bmp,green,starting_melody,melody,starting,m,positive,positive,ES_purple,1,m,578,1841246,1841750,1841954
39,second,93,lustig,IAT_purple1.bmp,purple,ending_scream,scream,ending,m,positive,positive,ES_purple,1,m,484,1843607,1844111,1844315
39,second,94,heiter,IAT_red3.bmp,red,starting_scream,scream,starting,m,positive,negative,ES_purple,1,m,548,1845873,1846377,1846581
39,second,95,gierig,IAT_purple4.bmp,purple,ending_scream,scream,ending,c,negative,positive,ES_purple,1,c,469,1848204,1848708,1848912
39,third,0,lustig,IAT_green3.bmp,green,starting_melody,melody,starting,m,positive,positive,ES_purple,1,m,1347,1854719,1855223,1855427
39,third,1,geizig,IAT_yellow2.bmp,yellow,ending_melody,melody,ending,c,negative,negative,ES_purple,1,c,861,1857850,1858354,1858558
39,third,2,heiter,IAT_purple1.bmp,purple,ending_scream,scream,ending,m,positive,positive,ES_purple,1,m,457,1860494,1860998,1861202
39,third,3,sonnig,IAT_green4.bmp,green,starting_melody,melody,starting,m,positive,positive,ES_purple,1,m,568,1862733,1863237,1863441
39,third,4,morsch,IAT_purple2.bmp,purple,ending_scream,scream,ending,c,negative,positive,ES_purple,1,c,417,1865083,1865587,1865791
39,third,5,gerecht,IAT_green3.bmp,green,starting_melody,melody,starting,m,positive,positive,ES_purple,1,m,429,1867282,1867787,1867991
39,third,6,lästig,IAT_red2.bmp,red,starting_scream,scream,starting,c,negative,negative,ES_purple,1,c,393,1869495,1869999,1870203
39,third,7,falsch,IAT_red4.bmp,red,starting_scream,scream,starting,c,negative,negative,ES_purple,0,m,354,1871670,1872174,1872378
39,third,8,kaputt,IAT_yellow4.bmp,yellow,ending_melody,melody,ending,c,negative,negative,ES_purple,1,c,477,1874308,1874812,1875016
39,third,9,schön,IAT_red3.bmp,red,starting_scream,scream,starting,m,positive,negative,ES_purple,1,m,514,1876567,1877071,1877275
39,third,10,einsam,IAT_yellow4.bmp,yellow,ending_melody,melody,ending,c,negative,negative,ES_purple,1,c,705,1878863,1879367,1879571
39,third,11,falsch,IAT_purple4.bmp,purple,ending_scream,scream,ending,c,negative,positive,ES_purple,0,m,531,1881350,1881854,1882058
39,third,12,brutal,IAT_purple4.bmp,purple,ending_scream,scream,ending,c,negative,positive,ES_purple,1,c,481,1884165,1884669,1884873
39,third,13,sanft,IAT_red2.bmp,red,starting_scream,scream,starting,m,positive,negative,ES_purple,1,m,468,1886428,1886932,1887136
39,third,14,ehrlich,IAT_purple2.bmp,purple,ending_scream,scream,ending,m,positive,positive,ES_purple,1,m,508,1888679,1889183,1889387
39,third,15,witzig,IAT_red4.bmp,red,starting_scream,scream,starting,m,positive,negative,ES_purple,1,m,350,1890969,1891474,1891678
39,third,16,human,IAT_red1.bmp,red,starting_scream,scream,starting,m,positive,negative,ES_purple,1,m,339,1893102,1893606,1893810
39,third,17,gierig,IAT_red4.bmp,red,starting_scream,scream,starting,c,negative,negative,ES_purple,0,m,425,1895223,1895727,1895931
39,third,18,lästig,IAT_purple1.bmp,purple,ending_scream,scream,ending,c,negative,positive,ES_purple,0,m,311,1897931,1898435,1898639
39,third,19,feige,IAT_red4.bmp,red,starting_scream,scream,starting,c,negative,negative,ES_purple,1,c,561,1900525,1901029,1901233
39,third,20,sonnig,IAT_purple4.bmp,purple,ending_scream,scream,ending,m,positive,positive,ES_purple,1,m,449,1902867,1903371,1903575
39,third,21,heiter,IAT_red1.bmp,red,starting_scream,scream,starting,m,positive,negative,ES_purple,1,m,594,1905098,1905603,1905807
39,third,22,streng,IAT_green4.bmp,green,starting_melody,melody,starting,c,negative,positive,ES_purple,1,c,459,1907475,1907980,1908184
39,third,23,falsch,IAT_red2.bmp,red,starting_scream,scream,starting,c,negative,negative,ES_purple,0,m,440,1909717,1910221,1910425
39,third,24,einsam,IAT_red4.bmp,red,starting_scream,scream,starting,c,negative,negative,ES_purple,1,c,552,1912439,1912943,1913147
39,third,25,falsch,IAT_yellow1.bmp,yellow,ending_melody,melody,ending,c,negative,negative,ES_purple,1,c,1332,1914774,1915279,1915483
39,third,26,kaputt,IAT_red2.bmp,red,starting_scream,scream,starting,c,negative,negative,ES_purple,1,c,441,1917889,1918393,1918597
39,third,27,munter,IAT_purple3.bmp,purple,ending_scream,scream,ending,m,positive,positive,ES_purple,0,c,358,1920112,1920616,1920820
39,third,28,sonnig,IAT_purple3.bmp,purple,ending_scream,scream,ending,m,positive,positive,ES_purple,1,m,420,1922753,1923257,1923461
39,third,29,gesund,IAT_green2.bmp,green,starting_melody,melody,starting,m,positive,positive,ES_purple,1,m,465,1924955,1925459,1925663
39,third,30,witzig,IAT_purple1.bmp,purple,ending_scream,scream,ending,m,positive,positive,ES_purple,1,m,446,1927203,1927707,1927911
39,third,31,einsam,IAT_green4.bmp,green,starting_melody,melody,starting,c,negative,positive,ES_purple,0,m,168,1929431,1929935,1930139
39,third,32,sanft,IAT_purple1.bmp,purple,ending_scream,scream,ending,m,positive,positive,ES_purple,1,m,481,1931882,1932386,1932590
39,third,33,gierig,IAT_yellow1.bmp,yellow,ending_melody,melody,ending,c,negative,negative,ES_purple,0,m,381,1934146,1934650,1934854
39,third,34,lustig,IAT_yellow4.bmp,yellow,ending_melody,melody,ending,m,positive,negative,ES_purple,1,m,438,1936809,1937313,1937517
39,third,35,gerecht,IAT_yellow3.bmp,yellow,ending_melody,melody,ending,m,positive,negative,ES_purple,1,m,410,1939030,1939534,1939739
39,third,36,streng,IAT_green1.bmp,green,starting_melody,melody,starting,c,negative,positive,ES_purple,1,c,420,1941224,1941728,1941932
39,third,37,lästig,IAT_red1.bmp,red,starting_scream,scream,starting,c,negative,negative,ES_purple,1,c,486,1943426,1943931,1944135
39,third,38,schön,IAT_yellow4.bmp,yellow,ending_melody,melody,ending,m,positive,negative,ES_purple,1,m,446,1945696,1946200,1946404
39,third,39,sonnig,IAT_green2.bmp,green,starting_melody,melody,starting,m,positive,positive,ES_purple,0,c,336,1947924,1948428,1948632
39,third,40,human,IAT_yellow2.bmp,yellow,ending_melody,melody,ending,m,positive,negative,ES_purple,1,m,471,1950542,1951047,1951251
39,third,41,schön,IAT_purple2.bmp,purple,ending_scream,scream,ending,m,positive,positive,ES_purple,1,m,379,1952796,1953300,1953504
39,third,42,gerecht,IAT_yellow3.bmp,yellow,ending_melody,melody,ending,m,positive,negative,ES_purple,1,m,494,1954957,1955461,1955665
39,third,43,brutal,IAT_yellow2.bmp,yellow,ending_melody,melody,ending,c,negative,negative,ES_purple,1,c,468,1957235,1957739,1957943
39,third,44,feige,IAT_purple2.bmp,purple,ending_scream,scream,ending,c,negative,positive,ES_purple,1,c,541,1959485,1959989,1960193
39,third,45,lustig,IAT_purple4.bmp,purple,ending_scream,scream,ending,m,positive,positive,ES_purple,1,m,1113,1961807,1962312,1962516
39,third,46,streng,IAT_yellow2.bmp,yellow,ending_melody,melody,ending,c,negative,negative,ES_purple,1,c,434,1964705,1965209,1965413
39,third,47,geizig,IAT_green4.bmp,green,starting_melody,melody,starting,c,negative,positive,ES_purple,1,c,610,1966921,1967425,1967629
39,third,48,gesund,IAT_green3.bmp,green,starting_melody,melody,starting,m,positive,positive,ES_purple,1,m,505,1969313,1969817,1970021
39,third,49,feige,IAT_green1.bmp,green,starting_melody,melody,starting,c,negative,positive,ES_purple,1,c,550,1971600,1972106,1972310
39,third,50,gierig,IAT_yellow4.bmp,yellow,ending_melody,melody,ending,c,negative,negative,ES_purple,1,c,564,1973935,1974439,1974643
39,third,51,teuer,IAT_purple1.bmp,purple,ending_scream,scream,ending,c,negative,positive,ES_purple,1,c,697,1976281,1976785,1976989
39,third,52,heiter,IAT_red1.bmp,red,starting_scream,scream,starting,m,positive,negative,ES_purple,1,m,433,1978761,1979265,1979469
39,third,53,morsch,IAT_yellow3.bmp,yellow,ending_melody,melody,ending,c,negative,negative,ES_purple,1,c,556,1980977,1981481,1981685
39,third,54,sozial,IAT_purple3.bmp,purple,ending_scream,scream,ending,m,positive,positive,ES_purple,1,m,482,1983316,1983820,1984024
39,third,55,ehrlich,IAT_yellow1.bmp,yellow,ending_melody,melody,ending,m,positive,negative,ES_purple,1,m,500,1985581,1986085,1986289
39,third,56,munter,IAT_green1.bmp,green,starting_melody,melody,starting,m,positive,positive,ES_purple,1,m,475,1987864,1988368,1988572
39,third,57,teuer,IAT_purple4.bmp,purple,ending_scream,scream,ending,c,negative,positive,ES_purple,1,c,501,1990122,1990626,1990830
39,third,58,sozial,IAT_yellow1.bmp,yellow,ending_melody,melody,ending,m,positive,negative,ES_purple,1,m,1115,1992406,1992911,1993115
39,third,59,schön,IAT_purple1.bmp,purple,ending_scream,scream,ending,m,positive,positive,ES_purple,1,m,363,1995304,1995809,1996013
39,third,60,lästig,IAT_yellow4.bmp,yellow,ending_melody,melody,ending,c,negative,negative,ES_purple,0,m,356,1997452,1997956,1998160
39,third,61,einsam,IAT_green3.bmp,green,starting_melody,melody,starting,c,negative,positive,ES_purple,0,m,981,2000091,2000595,2000799
39,third,62,krank,IAT_yellow2.bmp,yellow,ending_melody,melody,ending,c,negative,negative,ES_purple,1,c,1296,2003355,2003859,2004063
39,third,63,gierig,IAT_red3.bmp,red,starting_scream,scream,starting,c,negative,negative,ES_purple,1,c,581,2006434,2006938,2007142
39,third,64,geizig,IAT_green2.bmp,green,starting_melody,melody,starting,c,negative,positive,ES_purple,1,c,857,2008796,2009301,2009505
39,third,65,brutal,IAT_purple3.bmp,purple,ending_scream,scream,ending,c,negative,positive,ES_purple,1,c,566,2011436,2011940,2012144
39,third,66,witzig,IAT_yellow1.bmp,yellow,ending_melody,melody,ending,m,positive,negative,ES_purple,1,m,644,2013786,2014290,2014494
39,third,67,krank,IAT_red3.bmp,red,starting_scream,scream,starting,c,negative,negative,ES_purple,1,c,526,2016214,2016718,2016922
39,third,68,ehrlich,IAT_red3.bmp,red,starting_scream,scream,starting,m,positive,negative,ES_purple,1,m,527,2018523,2019028,2019232
39,third,69,sozial,IAT_red2.bmp,red,starting_scream,scream,starting,m,positive,negative,ES_purple,1,m,489,2020834,2021338,2021542
39,third,70,munter,IAT_green1.bmp,green,starting_melody,melody,starting,m,positive,positive,ES_purple,1,m,605,2023105,2023609,2023813
39,third,71,brutal,IAT_green3.bmp,green,starting_melody,melody,starting,c,negative,positive,ES_purple,1,c,545,2025494,2025999,2026203
39,third,72,gesund,IAT_green3.bmp,green,starting_melody,melody,starting,m,positive,positive,ES_purple,1,m,540,2027823,2028327,2028531
39,third,73,sanft,IAT_green1.bmp,green,starting_melody,melody,starting,m,positive,positive,ES_purple,1,m,1104,2030146,2030650,2030854
39,third,74,feige,IAT_green2.bmp,green,starting_melody,melody,starting,c,negative,positive,ES_purple,1,c,527,2033034,2033539,2033743
39,third,75,ehrlich,IAT_yellow3.bmp,yellow,ending_melody,melody,ending,m,positive,negative,ES_purple,1,m,490,2035344,2035849,2036053
39,third,76,gesund,IAT_red3.bmp,red,starting_scream,scream,starting,m,positive,negative,ES_purple,1,m,478,2037618,2038123,2038327
39,third,77,human,IAT_yellow2.bmp,yellow,ending_melody,melody,ending,m,positive,negative,ES_purple,1,m,473,2039881,2040385,2040589
39,third,78,heiter,IAT_yellow1.bmp,yellow,ending_melody,melody,ending,m,positive,negative,ES_purple,1,m,515,2042137,2042642,2042846
39,third,79,krank,IAT_red2.bmp,red,starting_scream,scream,starting,c,negative,negative,ES_purple,1,c,295,2044436,2044940,2045144
39,third,80,sanft,IAT_red1.bmp,red,starting_scream,scream,starting,m,positive,negative,ES_purple,1,m,463,2046516,2047020,2047224
39,third,81,witzig,IAT_red4.bmp,red,starting_scream,scream,starting,m,positive,negative,ES_purple,1,m,438,2048762,2049266,2049470
39,third,82,kaputt,IAT_red1.bmp,red,starting_scream,scream,starting,c,negative,negative,ES_purple,1,c,468,2050983,2051487,2051691
39,third,83,sozial,IAT_purple3.bmp,purple,ending_scream,scream,ending,m,positive,positive,ES_purple,1,m,393,2053234,2053738,2053942
39,third,84,teuer,IAT_purple4.bmp,purple,ending_scream,scream,ending,c,negative,positive,ES_purple,1,c,423,2055410,2055914,2056118
39,third,85,streng,IAT_green4.bmp,green,starting_melody,melody,starting,c,negative,positive,ES_purple,1,c,525,2057615,2058120,2058324
39,third,86,lustig,IAT_yellow3.bmp,yellow,ending_melody,melody,ending,m,positive,negative,ES_purple,1,m,445,2059924,2060429,2060633
39,third,87,human,IAT_green4.bmp,green,starting_melody,melody,starting,m,positive,positive,ES_purple,1,m,506,2062154,2062658,2062862
39,third,88,gerecht,IAT_green1.bmp,green,starting_melody,melody,starting,m,positive,positive,ES_purple,1,m,509,2064443,2064947,2065151
39,third,89,geizig,IAT_green2.bmp,green,starting_melody,melody,starting,c,negative,positive,ES_purple,1,c,782,2066735,2067239,2067443
39,third,90,kaputt,IAT_green2.bmp,green,starting_melody,melody,starting,c,negative,positive,ES_purple,1,c,472,2069299,2069803,2070007
39,third,91,munter,IAT_red3.bmp,red,starting_scream,scream,starting,m,positive,negative,ES_purple,1,m,566,2071554,2072059,2072263
39,third,92,teuer,IAT_purple2.bmp,purple,ending_scream,scream,ending,c,negative,positive,ES_purple,1,c,525,2073904,2074409,2074613
39,third,93,morsch,IAT_purple2.bmp,purple,ending_scream,scream,ending,c,negative,positive,ES_purple,1,c,545,2076214,2076718,2076923
39,third,94,krank,IAT_yellow3.bmp,yellow,ending_melody,melody,ending,c,negative,negative,ES_purple,1,c,483,2078545,2079049,2079253
39,third,95,morsch,IAT_purple3.bmp,purple,ending_scream,scream,ending,c,negative,positive,ES_purple,1,c,414,2080811,2081315,2081519
39,forth,0,brutal,IAT_green1.bmp,green,starting_melody,melody,starting,c,negative,positive,ES_purple,1,c,641,2088005,2088509,2088713
39,forth,1,sozial,IAT_green3.bmp,green,starting_melody,melody,starting,m,positive,positive,ES_purple,0,c,17,2090429,2090933,2091137
39,forth,2,sanft,IAT_purple3.bmp,purple,ending_scream,scream,ending,m,positive,positive,ES_purple,1,m,251,2092728,2093232,2093436
39,forth,3,human,IAT_purple2.bmp,purple,ending_scream,scream,ending,m,positive,positive,ES_purple,1,m,30,2094761,2095265,2095469
39,forth,4,teuer,IAT_yellow3.bmp,yellow,ending_melody,melody,ending,c,negative,negative,ES_purple,0,m,24,2096573,2097078,2097282
39,forth,5,gerecht,IAT_yellow3.bmp,yellow,ending_melody,melody,ending,m,positive,negative,ES_purple,1,m,33,2098880,2099384,2099588
39,forth,6,ehrlich,IAT_red1.bmp,red,starting_scream,scream,starting,m,positive,negative,ES_purple,1,m,26,2100695,2101199,2101403
39,forth,7,witzig,IAT_purple3.bmp,purple,ending_scream,scream,ending,m,positive,positive,ES_purple,1,m,577,2102503,2103007,2103211
39,forth,8,gierig,IAT_green4.bmp,green,starting_melody,melody,starting,c,negative,positive,ES_purple,0,m,85,2104863,2105367,2105571
39,forth,9,ehrlich,IAT_red1.bmp,red,starting_scream,scream,starting,m,positive,negative,ES_purple,1,m,117,2107231,2107736,2107940
39,forth,10,krank,IAT_yellow2.bmp,yellow,ending_melody,melody,ending,c,negative,negative,ES_purple,0,m,34,2109131,2109635,2109839
39,forth,11,kaputt,IAT_green3.bmp,green,starting_melody,melody,starting,c,negative,positive,ES_purple,0,m,3,2111447,2111951,2112155
39,forth,12,gerecht,IAT_yellow3.bmp,yellow,ending_melody,melody,ending,m,positive,negative,ES_purple,1,m,337,2113733,2114237,2114441
39,forth,13,gesund,IAT_green1.bmp,green,starting_melody,melody,starting,m,positive,positive,ES_purple,1,m,136,2115853,2116357,2116561
39,forth,14,geizig,IAT_green1.bmp,green,starting_melody,melody,starting,c,negative,positive,ES_purple,0,m,293,2117770,2118274,2118478
39,forth,15,munter,IAT_green1.bmp,green,starting_melody,melody,starting,m,positive,positive,ES_purple,1,m,87,2120345,2120850,2121054
39,forth,16,falsch,IAT_green2.bmp,green,starting_melody,melody,starting,c,negative,positive,ES_purple,0,m,27,2122216,2122720,2122924
39,forth,17,lustig,IAT_green2.bmp,green,starting_melody,melody,starting,m,positive,positive,ES_purple,1,m,38,2124524,2125029,2125233
39,forth,18,morsch,IAT_red2.bmp,red,starting_scream,scream,starting,c,negative,negative,ES_purple,0,m,2,2126345,2126849,2127053
39,forth,19,ehrlich,IAT_yellow2.bmp,yellow,ending_melody,melody,ending,m,positive,negative,ES_purple,1,m,599,2128630,2129134,2129338
39,forth,20,teuer,IAT_yellow3.bmp,yellow,ending_melody,melody,ending,c,negative,negative,ES_purple,0,m,426,2131011,2131515,2131719
39,forth,21,munter,IAT_red2.bmp,red,starting_scream,scream,starting,m,positive,negative,ES_purple,1,m,353,2133719,2134223,2134427
39,forth,22,sozial,IAT_purple1.bmp,purple,ending_scream,scream,ending,m,positive,positive,ES_purple,1,m,321,2135855,2136359,2136563
39,forth,23,witzig,IAT_yellow1.bmp,yellow,ending_melody,melody,ending,m,positive,negative,ES_purple,1,m,393,2137959,2138463,2138667
39,forth,24,kaputt,IAT_red2.bmp,red,starting_scream,scream,starting,c,negative,negative,ES_purple,0,m,325,2140135,2140640,2140845
39,forth,25,schön,IAT_yellow4.bmp,yellow,ending_melody,melody,ending,m,positive,negative,ES_purple,1,m,342,2142745,2143249,2143453
39,forth,26,streng,IAT_purple2.bmp,purple,ending_scream,scream,ending,c,negative,positive,ES_purple,0,m,313,2144870,2145374,2145578
39,forth,27,geizig,IAT_purple3.bmp,purple,ending_scream,scream,ending,c,negative,positive,ES_purple,0,m,378,2147466,2147970,2148174
39,forth,28,krank,IAT_red1.bmp,red,starting_scream,scream,starting,c,negative,negative,ES_purple,1,c,424,2150127,2150632,2150836
39,forth,29,witzig,IAT_purple3.bmp,purple,ending_scream,scream,ending,m,positive,positive,ES_purple,1,m,545,2152335,2152839,2153043
39,forth,30,human,IAT_yellow1.bmp,yellow,ending_melody,melody,ending,m,positive,negative,ES_purple,1,m,495,2154664,2155168,2155372
39,forth,31,lustig,IAT_green1.bmp,green,starting_melody,melody,starting,m,positive,positive,ES_purple,1,m,496,2156942,2157446,2157650
39,forth,32,morsch,IAT_yellow2.bmp,yellow,ending_melody,melody,ending,c,negative,negative,ES_purple,1,c,403,2159221,2159725,2159929
39,forth,33,kaputt,IAT_green2.bmp,green,starting_melody,melody,starting,c,negative,positive,ES_purple,0,m,346,2161406,2161910,2162114
39,forth,34,brutal,IAT_green3.bmp,green,starting_melody,melody,starting,c,negative,positive,ES_purple,1,c,457,2164034,2164538,2164742
39,forth,35,sanft,IAT_purple1.bmp,purple,ending_scream,scream,ending,m,positive,positive,ES_purple,1,m,397,2166275,2166779,2166983
39,forth,36,kaputt,IAT_red4.bmp,red,starting_scream,scream,starting,c,negative,negative,ES_purple,1,c,425,2168455,2168959,2169163
39,forth,37,munter,IAT_red3.bmp,red,starting_scream,scream,starting,m,positive,negative,ES_purple,0,c,266,2170663,2171167,2171371
39,forth,38,feige,IAT_green2.bmp,green,starting_melody,melody,starting,c,negative,positive,ES_purple,1,c,569,2173212,2173716,2173920
39,forth,39,ehrlich,IAT_yellow1.bmp,yellow,ending_melody,melody,ending,m,positive,negative,ES_purple,1,m,424,2175565,2176069,2176273
39,forth,40,teuer,IAT_purple4.bmp,purple,ending_scream,scream,ending,c,negative,positive,ES_purple,1,c,725,2177771,2178276,2178480
39,forth,41,gierig,IAT_green4.bmp,green,starting_melody,melody,starting,c,negative,positive,ES_purple,1,c,409,2180280,2180784,2180988
39,forth,42,einsam,IAT_purple1.bmp,purple,ending_scream,scream,ending,c,negative,positive,ES_purple,0,m,461,2182472,2182976,2183180
39,forth,43,lästig,IAT_yellow4.bmp,yellow,ending_melody,melody,ending,c,negative,negative,ES_purple,1,c,652,2185217,2185721,2185925
39,forth,44,brutal,IAT_red4.bmp,red,starting_scream,scream,starting,c,negative,negative,ES_purple,1,c,392,2187652,2188156,2188360
39,forth,45,gierig,IAT_red3.bmp,red,starting_scream,scream,starting,c,negative,negative,ES_purple,1,c,359,2189827,2190331,2190535
39,forth,46,feige,IAT_yellow1.bmp,yellow,ending_melody,melody,ending,c,negative,negative,ES_purple,1,c,372,2191970,2192474,2192678
39,forth,47,streng,IAT_red1.bmp,red,starting_scream,scream,starting,c,negative,negative,ES_purple,1,c,318,2194125,2194629,2194833
39,forth,48,lustig,IAT_purple1.bmp,purple,ending_scream,scream,ending,m,positive,positive,ES_purple,1,m,352,2196226,2196731,2196935
39,forth,49,falsch,IAT_purple2.bmp,purple,ending_scream,scream,ending,c,negative,positive,ES_purple,1,c,464,2198362,2198866,2199070
39,forth,50,krank,IAT_purple1.bmp,purple,ending_scream,scream,ending,c,negative,positive,ES_purple,1,c,412,2200609,2201113,2201317
39,forth,51,sozial,IAT_red4.bmp,red,starting_scream,scream,starting,m,positive,negative,ES_purple,1,m,430,2202804,2203308,2203512
39,forth,52,brutal,IAT_purple2.bmp,purple,ending_scream,scream,ending,c,negative,positive,ES_purple,1,c,449,2205016,2205520,2205724
39,forth,53,heiter,IAT_red4.bmp,red,starting_scream,scream,starting,m,positive,negative,ES_purple,1,m,480,2207248,2207752,2207956
39,forth,54,streng,IAT_purple4.bmp,purple,ending_scream,scream,ending,c,negative,positive,ES_purple,1,c,365,2209511,2210016,2210220
39,forth,55,sanft,IAT_yellow1.bmp,yellow,ending_melody,melody,ending,m,positive,negative,ES_purple,0,c,368,2211660,2212164,2212368
39,forth,56,falsch,IAT_red4.bmp,red,starting_scream,scream,starting,c,negative,negative,ES_purple,0,m,390,2214312,2214816,2215020
39,forth,57,gerecht,IAT_purple1.bmp,purple,ending_scream,scream,ending,m,positive,positive,ES_purple,1,m,433,2216985,2217489,2217693
39,forth,58,gesund,IAT_green3.bmp,green,starting_melody,melody,starting,m,positive,positive,ES_purple,1,m,406,2219201,2219705,2219909
39,forth,59,einsam,IAT_purple3.bmp,purple,ending_scream,scream,ending,c,negative,positive,ES_purple,0,m,405,2221390,2221894,2222098
39,forth,60,sonnig,IAT_yellow3.bmp,yellow,ending_melody,melody,ending,m,positive,negative,ES_purple,1,m,597,2224078,2224582,2224786
39,forth,61,heiter,IAT_yellow2.bmp,yellow,ending_melody,melody,ending,m,positive,negative,ES_purple,1,m,446,2226459,2226963,2227167
39,forth,62,streng,IAT_red2.bmp,red,starting_scream,scream,starting,c,negative,negative,ES_purple,1,c,420,2228688,2229192,2229396
39,forth,63,sonnig,IAT_purple3.bmp,purple,ending_scream,scream,ending,m,positive,positive,ES_purple,1,m,486,2230891,2231395,2231599
39,forth,64,schön,IAT_green4.bmp,green,starting_melody,melody,starting,m,positive,positive,ES_purple,1,m,384,2233160,2233664,2233868
39,forth,65,einsam,IAT_yellow4.bmp,yellow,ending_melody,melody,ending,c,negative,negative,ES_purple,0,m,561,2235327,2235831,2236035
39,forth,66,lästig,IAT_red2.bmp,red,starting_scream,scream,starting,c,negative,negative,ES_purple,1,c,559,2238172,2238676,2238880
39,forth,67,lustig,IAT_red1.bmp,red,starting_scream,scream,starting,m,positive,negative,ES_purple,1,m,588,2240515,2241019,2241223
39,forth,68,sonnig,IAT_green4.bmp,green,starting_melody,melody,starting,m,positive,positive,ES_purple,1,m,477,2242886,2243390,2243594
39,forth,69,krank,IAT_yellow4.bmp,yellow,ending_melody,melody,ending,c,negative,negative,ES_purple,1,c,493,2245146,2245651,2245855
39,forth,70,heiter,IAT_red3.bmp,red,starting_scream,scream,starting,m,positive,negative,ES_purple,1,m,497,2247423,2247927,2248131
39,forth,71,gierig,IAT_yellow2.bmp,yellow,ending_melody,melody,ending,c,negative,negative,ES_purple,1,c,724,2249704,2250208,2250412
39,forth,72,teuer,IAT_purple4.bmp,purple,ending_scream,scream,ending,c,negative,positive,ES_purple,1,c,518,2252212,2252716,2252920
39,forth,73,human,IAT_red2.bmp,red,starting_scream,scream,starting,m,positive,negative,ES_purple,1,m,436,2254514,2255019,2255223
39,forth,74,feige,IAT_purple4.bmp,purple,ending_scream,scream,ending,c,negative,positive,ES_purple,1,c,495,2256734,2257238,2257442
39,forth,75,einsam,IAT_green2.bmp,green,starting_melody,melody,starting,c,negative,positive,ES_purple,1,c,695,2259013,2259517,2259721
39,forth,76,falsch,IAT_red3.bmp,red,starting_scream,scream,starting,c,negative,negative,ES_purple,1,c,589,2261492,2261996,2262200
39,forth,77,schön,IAT_red3.bmp,red,starting_scream,scream,starting,m,positive,negative,ES_purple,1,m,484,2263864,2264369,2264573
39,forth,78,geizig,IAT_purple2.bmp,purple,ending_scream,scream,ending,c,negative,positive,ES_purple,1,c,512,2266132,2266637,2266841
39,forth,79,gesund,IAT_purple2.bmp,purple,ending_scream,scream,ending,m,positive,positive,ES_purple,1,m,535,2268428,2268932,2269136
39,forth,80,gerecht,IAT_green3.bmp,green,starting_melody,melody,starting,m,positive,positive,ES_purple,1,m,563,2270746,2271250,2271454
39,forth,81,feige,IAT_green4.bmp,green,starting_melody,melody,starting,c,negative,positive,ES_purple,1,c,402,2273092,2273596,2273800
39,forth,82,witzig,IAT_yellow4.bmp,yellow,ending_melody,melody,ending,m,positive,negative,ES_purple,1,m,444,2275278,2275782,2275986
39,forth,83,schön,IAT_red3.bmp,red,starting_scream,scream,starting,m,positive,negative,ES_purple,1,m,338,2277505,2278010,2278214
39,forth,84,human,IAT_yellow3.bmp,yellow,ending_melody,melody,ending,m,positive,negative,ES_purple,1,m,340,2279626,2280131,2280335
39,forth,85,heiter,IAT_red1.bmp,red,starting_scream,scream,starting,m,positive,negative,ES_purple,1,m,23,2281750,2282254,2282458
39,forth,86,lästig,IAT_red4.bmp,red,starting_scream,scream,starting,c,negative,negative,ES_purple,1,c,548,2283556,2284060,2284264
39,forth,87,morsch,IAT_green4.bmp,green,starting_melody,melody,starting,c,negative,positive,ES_purple,1,c,250,2285886,2286390,2286594
39,forth,88,sozial,IAT_green1.bmp,green,starting_melody,melody,starting,m,positive,positive,ES_purple,0,c,241,2287918,2288423,2288627
39,forth,89,gesund,IAT_green3.bmp,green,starting_melody,melody,starting,m,positive,positive,ES_purple,0,c,272,2290443,2290948,2291152
39,forth,90,sanft,IAT_purple4.bmp,purple,ending_scream,scream,ending,m,positive,positive,ES_purple,1,m,43,2292998,2293502,2293706
39,forth,91,sonnig,IAT_green2.bmp,green,starting_melody,melody,starting,m,positive,positive,ES_purple,1,m,431,2294824,2295328,2295532
39,forth,92,lästig,IAT_yellow4.bmp,yellow,ending_melody,melody,ending,c,negative,negative,ES_purple,0,m,363,2297038,2297544,2297748
39,forth,93,geizig,IAT_yellow2.bmp,yellow,ending_melody,melody,ending,c,negative,negative,ES_purple,0,m,180,2299687,2300191,2300395
39,forth,94,morsch,IAT_yellow1.bmp,yellow,ending_melody,melody,ending,c,negative,negative,ES_purple,0,m,133,2302151,2302655,2302859
39,forth,95,munter,IAT_purple4.bmp,purple,ending_scream,scream,ending,m,positive,positive,ES_purple,1,m,361,2304567,2305071,2305275
