subject_nr,block,trialnr,trial_target,trial_prime,prime_color,prime_role,prime_us,prime_relation,correct_response,target_valence,prime_valence,color_counter,correct_first_response,response_first_response,response_time_first_response,fixation_show,prime_show,target_show
118,first,0,witzig,IAT_yellow3.bmp,yellow,starting_melody,melody,starting,m,positive,positive,ES_green,1,m,654,1478294,1478798,1479002
118,first,1,schön,IAT_purple3.bmp,purple,starting_scream,scream,starting,m,positive,negative,ES_green,1,m,607,1480732,1481236,1481440
118,first,2,gerecht,IAT_purple3.bmp,purple,starting_scream,scream,starting,m,positive,negative,ES_green,1,m,598,1483121,1483626,1483830
118,first,3,sonnig,IAT_green3.bmp,green,ending_scream,scream,ending,m,positive,positive,ES_green,1,m,663,1485502,1486006,1486210
118,first,4,ehrlich,IAT_purple4.bmp,purple,starting_scream,scream,starting,m,positive,negative,ES_green,1,m,526,1487948,1488452,1488656
118,first,5,human,IAT_green3.bmp,green,ending_scream,scream,ending,m,positive,positive,ES_green,1,m,509,1490257,1490761,1490965
118,first,6,gierig,IAT_purple3.bmp,purple,starting_scream,scream,starting,c,negative,negative,ES_green,1,c,527,1492549,1493053,1493257
118,first,7,sozial,IAT_red2.bmp,red,ending_melody,melody,ending,m,positive,negative,ES_green,1,m,668,1494858,1495363,1495567
118,first,8,einsam,IAT_green3.bmp,green,ending_scream,scream,ending,c,negative,positive,ES_green,1,c,612,1497310,1497814,1498018
118,first,9,krank,IAT_purple2.bmp,purple,starting_scream,scream,starting,c,negative,negative,ES_green,1,c,768,1499704,1500208,1500412
118,first,10,human,IAT_yellow4.bmp,yellow,starting_melody,melody,starting,m,positive,positive,ES_green,1,m,1052,1502256,1502761,1502965
118,first,11,schön,IAT_purple1.bmp,purple,starting_scream,scream,starting,m,positive,negative,ES_green,1,m,754,1505091,1505595,1505799
118,first,12,morsch,IAT_yellow2.bmp,yellow,starting_melody,melody,starting,c,negative,positive,ES_green,1,c,702,1507627,1508131,1508335
118,first,13,heiter,IAT_yellow1.bmp,yellow,starting_melody,melody,starting,m,positive,positive,ES_green,1,m,641,1510111,1510615,1510819
118,first,14,streng,IAT_yellow2.bmp,yellow,starting_melody,melody,starting,c,negative,positive,ES_green,1,c,1027,1512535,1513039,1513243
118,first,15,lustig,IAT_green2.bmp,green,ending_scream,scream,ending,m,positive,positive,ES_green,1,m,843,1515344,1515848,1516052
118,first,16,gerecht,IAT_purple1.bmp,purple,starting_scream,scream,starting,m,positive,negative,ES_green,1,m,1090,1517969,1518474,1518678
118,first,17,munter,IAT_red1.bmp,red,ending_melody,melody,ending,m,positive,negative,ES_green,1,m,513,1520842,1521346,1521550
118,first,18,sanft,IAT_red3.bmp,red,ending_melody,melody,ending,m,positive,negative,ES_green,1,m,478,1523139,1523643,1523847
118,first,19,brutal,IAT_green4.bmp,green,ending_scream,scream,ending,c,negative,positive,ES_green,1,c,664,1525399,1525903,1526107
118,first,20,kaputt,IAT_yellow4.bmp,yellow,starting_melody,melody,starting,c,negative,positive,ES_green,1,c,485,1527845,1528349,1528553
118,first,21,human,IAT_purple2.bmp,purple,starting_scream,scream,starting,m,positive,negative,ES_green,1,m,503,1530112,1530616,1530820
118,first,22,teuer,IAT_green2.bmp,green,ending_scream,scream,ending,c,negative,positive,ES_green,1,c,589,1532398,1532902,1533106
118,first,23,sozial,IAT_red2.bmp,red,ending_melody,melody,ending,m,positive,negative,ES_green,1,m,556,1534769,1535274,1535478
118,first,24,lästig,IAT_red3.bmp,red,ending_melody,melody,ending,c,negative,negative,ES_green,1,c,563,1537109,1537613,1537817
118,first,25,lustig,IAT_green4.bmp,green,ending_scream,scream,ending,m,positive,positive,ES_green,1,m,669,1539455,1539959,1540163
118,first,26,falsch,IAT_purple4.bmp,purple,starting_scream,scream,starting,c,negative,negative,ES_green,1,c,494,1541907,1542411,1542615
118,first,27,munter,IAT_purple1.bmp,purple,starting_scream,scream,starting,m,positive,negative,ES_green,1,m,558,1544183,1544688,1544894
118,first,28,gerecht,IAT_green4.bmp,green,ending_scream,scream,ending,m,positive,positive,ES_green,1,m,981,1546527,1547032,1547236
118,first,29,teuer,IAT_purple2.bmp,purple,starting_scream,scream,starting,c,negative,negative,ES_green,1,c,606,1549291,1549795,1549999
118,first,30,falsch,IAT_yellow2.bmp,yellow,starting_melody,melody,starting,c,negative,positive,ES_green,1,c,1444,1551679,1552183,1552387
118,first,31,brutal,IAT_red2.bmp,red,ending_melody,melody,ending,c,negative,negative,ES_green,1,c,428,1554906,1555410,1555614
118,first,32,sanft,IAT_green2.bmp,green,ending_scream,scream,ending,m,positive,positive,ES_green,1,m,473,1557117,1557621,1557825
118,first,33,krank,IAT_green2.bmp,green,ending_scream,scream,ending,c,negative,positive,ES_green,1,c,589,1559373,1559878,1560082
118,first,34,streng,IAT_yellow4.bmp,yellow,starting_melody,melody,starting,c,negative,positive,ES_green,1,c,826,1561745,1562249,1562453
118,first,35,gesund,IAT_red3.bmp,red,ending_melody,melody,ending,m,positive,negative,ES_green,1,m,503,1564352,1564856,1565060
118,first,36,witzig,IAT_red1.bmp,red,ending_melody,melody,ending,m,positive,negative,ES_green,1,m,616,1566638,1567142,1567346
118,first,37,teuer,IAT_yellow3.bmp,yellow,starting_melody,melody,starting,c,negative,positive,ES_green,1,c,556,1569035,1569539,1569743
118,first,38,schön,IAT_yellow2.bmp,yellow,starting_melody,melody,starting,m,positive,positive,ES_green,1,m,460,1571373,1571877,1572081
118,first,39,sanft,IAT_red4.bmp,red,ending_melody,melody,ending,m,positive,negative,ES_green,1,m,631,1573615,1574119,1574323
118,first,40,gesund,IAT_yellow2.bmp,yellow,starting_melody,melody,starting,m,positive,positive,ES_green,1,m,490,1576028,1576533,1576737
118,first,41,kaputt,IAT_red4.bmp,red,ending_melody,melody,ending,c,negative,negative,ES_green,0,m,805,1578302,1578807,1579011
118,first,42,lästig,IAT_purple4.bmp,purple,starting_scream,scream,starting,c,negative,negative,ES_green,1,c,1241,1581390,1581894,1582098
118,first,43,lustig,IAT_yellow3.bmp,yellow,starting_melody,melody,starting,m,positive,positive,ES_green,1,m,862,1584412,1584917,1585121
118,first,44,witzig,IAT_purple3.bmp,purple,starting_scream,scream,starting,m,positive,negative,ES_green,1,m,561,1587056,1587560,1587764
118,first,45,falsch,IAT_purple4.bmp,purple,starting_scream,scream,starting,c,negative,negative,ES_green,1,c,654,1589398,1589902,1590106
118,first,46,gierig,IAT_red3.bmp,red,ending_melody,melody,ending,c,negative,negative,ES_green,0,m,563,1591834,1592338,1592542
118,first,47,geizig,IAT_red2.bmp,red,ending_melody,melody,ending,c,negative,negative,ES_green,1,c,1118,1594679,1595183,1595387
118,first,48,gierig,IAT_yellow4.bmp,yellow,starting_melody,melody,starting,c,negative,positive,ES_green,1,c,985,1597578,1598082,1598286
118,first,49,human,IAT_yellow3.bmp,yellow,starting_melody,melody,starting,m,positive,positive,ES_green,1,m,704,1600344,1600848,1601052
118,first,50,lästig,IAT_red1.bmp,red,ending_melody,melody,ending,c,negative,negative,ES_green,0,m,684,1602830,1603334,1603538
118,first,51,krank,IAT_green4.bmp,green,ending_scream,scream,ending,c,negative,positive,ES_green,1,c,595,1605794,1606299,1606503
118,first,52,heiter,IAT_purple3.bmp,purple,starting_scream,scream,starting,m,positive,negative,ES_green,1,m,576,1608172,1608676,1608881
118,first,53,teuer,IAT_purple3.bmp,purple,starting_scream,scream,starting,c,negative,negative,ES_green,0,m,735,1610530,1611034,1611238
118,first,54,sonnig,IAT_green1.bmp,green,ending_scream,scream,ending,m,positive,positive,ES_green,1,m,584,1613547,1614051,1614255
118,first,55,sanft,IAT_yellow1.bmp,yellow,starting_melody,melody,starting,m,positive,positive,ES_green,1,m,377,1615914,1616418,1616622
118,first,56,feige,IAT_yellow3.bmp,yellow,starting_melody,melody,starting,c,negative,positive,ES_green,1,c,560,1618073,1618577,1618781
118,first,57,heiter,IAT_yellow3.bmp,yellow,starting_melody,melody,starting,m,positive,positive,ES_green,1,m,722,1620415,1620919,1621123
118,first,58,krank,IAT_purple2.bmp,purple,starting_scream,scream,starting,c,negative,negative,ES_green,1,c,1094,1622919,1623423,1623627
118,first,59,witzig,IAT_purple1.bmp,purple,starting_scream,scream,starting,m,positive,negative,ES_green,0,c,595,1625795,1626299,1626503
118,first,60,geizig,IAT_purple1.bmp,purple,starting_scream,scream,starting,c,negative,negative,ES_green,1,c,861,1628671,1629175,1629379
118,first,61,ehrlich,IAT_red3.bmp,red,ending_melody,melody,ending,m,positive,negative,ES_green,1,m,707,1631314,1631818,1632022
118,first,62,sonnig,IAT_purple2.bmp,purple,starting_scream,scream,starting,m,positive,negative,ES_green,1,m,559,1633803,1634307,1634511
118,first,63,kaputt,IAT_green1.bmp,green,ending_scream,scream,ending,c,negative,positive,ES_green,1,c,834,1636143,1636647,1636851
118,first,64,lustig,IAT_yellow1.bmp,yellow,starting_melody,melody,starting,m,positive,positive,ES_green,1,m,529,1638759,1639264,1639468
118,first,65,morsch,IAT_red2.bmp,red,ending_melody,melody,ending,c,negative,negative,ES_green,0,m,606,1641071,1641576,1641780
118,first,66,sozial,IAT_green1.bmp,green,ending_scream,scream,ending,m,positive,positive,ES_green,1,m,701,1643959,1644463,1644667
118,first,67,geizig,IAT_purple1.bmp,purple,starting_scream,scream,starting,c,negative,negative,ES_green,1,c,519,1646442,1646946,1647151
118,first,68,einsam,IAT_yellow2.bmp,yellow,starting_melody,melody,starting,c,negative,positive,ES_green,1,c,871,1648744,1649249,1649453
118,first,69,feige,IAT_green2.bmp,green,ending_scream,scream,ending,c,negative,positive,ES_green,1,c,528,1651397,1651902,1652106
118,first,70,einsam,IAT_green4.bmp,green,ending_scream,scream,ending,c,negative,positive,ES_green,1,c,452,1653708,1654212,1654416
118,first,71,gerecht,IAT_yellow1.bmp,yellow,starting_melody,melody,starting,m,positive,positive,ES_green,1,m,490,1655942,1656446,1656650
118,first,72,munter,IAT_green1.bmp,green,ending_scream,scream,ending,m,positive,positive,ES_green,1,m,549,1658213,1658717,1658921
118,first,73,kaputt,IAT_red4.bmp,red,ending_melody,melody,ending,c,negative,negative,ES_green,0,m,356,1660544,1661048,1661252
118,first,74,gierig,IAT_green4.bmp,green,ending_scream,scream,ending,c,negative,positive,ES_green,0,m,816,1663182,1663686,1663890
118,first,75,schön,IAT_red4.bmp,red,ending_melody,melody,ending,m,positive,negative,ES_green,1,m,595,1666280,1666784,1666988
118,first,76,lästig,IAT_yellow1.bmp,yellow,starting_melody,melody,starting,c,negative,positive,ES_green,1,c,600,1668658,1669162,1669366
118,first,77,falsch,IAT_red4.bmp,red,ending_melody,melody,ending,c,negative,negative,ES_green,1,c,680,1671040,1671544,1671748
118,first,78,ehrlich,IAT_red1.bmp,red,ending_melody,melody,ending,m,positive,negative,ES_green,0,c,375,1673502,1674006,1674210
118,first,79,munter,IAT_green3.bmp,green,ending_scream,scream,ending,m,positive,positive,ES_green,0,c,766,1676159,1676663,1676867
118,first,80,gesund,IAT_green1.bmp,green,ending_scream,scream,ending,m,positive,positive,ES_green,1,m,625,1679207,1679711,1679915
118,first,81,sozial,IAT_red1.bmp,red,ending_melody,melody,ending,m,positive,negative,ES_green,1,m,498,1681615,1682119,1682323
118,first,82,einsam,IAT_purple4.bmp,purple,starting_scream,scream,starting,c,negative,negative,ES_green,1,c,512,1683896,1684400,1684604
118,first,83,streng,IAT_green3.bmp,green,ending_scream,scream,ending,c,negative,positive,ES_green,1,c,602,1686190,1686694,1686898
118,first,84,heiter,IAT_purple4.bmp,purple,starting_scream,scream,starting,m,positive,negative,ES_green,1,m,577,1688575,1689079,1689283
118,first,85,brutal,IAT_yellow1.bmp,yellow,starting_melody,melody,starting,c,negative,positive,ES_green,1,c,555,1690935,1691440,1691644
118,first,86,morsch,IAT_purple2.bmp,purple,starting_scream,scream,starting,c,negative,negative,ES_green,0,m,503,1693273,1693777,1693981
118,first,87,brutal,IAT_green2.bmp,green,ending_scream,scream,ending,c,negative,positive,ES_green,1,c,508,1696058,1696562,1696766
118,first,88,ehrlich,IAT_green3.bmp,green,ending_scream,scream,ending,m,positive,positive,ES_green,0,c,550,1698348,1698852,1699056
118,first,89,sonnig,IAT_yellow4.bmp,yellow,starting_melody,melody,starting,m,positive,positive,ES_green,1,m,538,1701180,1701684,1701888
118,first,90,gesund,IAT_red3.bmp,red,ending_melody,melody,ending,m,positive,negative,ES_green,1,m,1224,1703500,1704004,1704208
118,first,91,feige,IAT_red2.bmp,red,ending_melody,melody,ending,c,negative,negative,ES_green,0,m,651,1706507,1707012,1707216
118,first,92,streng,IAT_red1.bmp,red,ending_melody,melody,ending,c,negative,negative,ES_green,1,c,533,1709441,1709945,1710149
118,first,93,feige,IAT_yellow4.bmp,yellow,starting_melody,melody,starting,c,negative,positive,ES_green,1,c,1092,1711757,1712261,1712465
118,first,94,geizig,IAT_red4.bmp,red,ending_melody,melody,ending,c,negative,negative,ES_green,1,c,547,1714631,1715135,1715339
118,first,95,morsch,IAT_green1.bmp,green,ending_scream,scream,ending,c,negative,positive,ES_green,1,c,416,1716961,1717465,1717669
118,second,0,witzig,IAT_green1.bmp,green,ending_scream,scream,ending,m,positive,positive,ES_green,1,m,578,1752131,1752635,1752839
118,second,1,gesund,IAT_red1.bmp,red,ending_melody,melody,ending,m,positive,negative,ES_green,1,m,569,1754491,1754995,1755199
118,second,2,heiter,IAT_purple1.bmp,purple,starting_scream,scream,starting,m,positive,negative,ES_green,1,m,527,1756841,1757345,1757549
118,second,3,lustig,IAT_yellow2.bmp,yellow,starting_melody,melody,starting,m,positive,positive,ES_green,1,m,472,1759149,1759653,1759857
118,second,4,schön,IAT_green3.bmp,green,ending_scream,scream,ending,m,positive,positive,ES_green,1,m,374,1761402,1761906,1762110
118,second,5,geizig,IAT_yellow2.bmp,yellow,starting_melody,melody,starting,c,negative,positive,ES_green,1,c,485,1763558,1764062,1764266
118,second,6,munter,IAT_yellow2.bmp,yellow,starting_melody,melody,starting,m,positive,positive,ES_green,1,m,468,1765825,1766329,1766533
118,second,7,krank,IAT_red4.bmp,red,ending_melody,melody,ending,c,negative,negative,ES_green,1,c,640,1768075,1768579,1768783
118,second,8,human,IAT_purple3.bmp,purple,starting_scream,scream,starting,m,positive,negative,ES_green,1,m,548,1770496,1771001,1771205
118,second,9,sozial,IAT_yellow3.bmp,yellow,starting_melody,melody,starting,m,positive,positive,ES_green,1,m,489,1772827,1773332,1773536
118,second,10,morsch,IAT_purple1.bmp,purple,starting_scream,scream,starting,c,negative,negative,ES_green,0,m,431,1775099,1775603,1775807
118,second,11,streng,IAT_purple4.bmp,purple,starting_scream,scream,starting,c,negative,negative,ES_green,0,m,667,1777813,1778317,1778521
118,second,12,einsam,IAT_red4.bmp,red,ending_melody,melody,ending,c,negative,negative,ES_green,1,c,661,1780761,1781265,1781469
118,second,13,munter,IAT_purple4.bmp,purple,starting_scream,scream,starting,m,positive,negative,ES_green,1,m,882,1783203,1783707,1783911
118,second,14,feige,IAT_red2.bmp,red,ending_melody,melody,ending,c,negative,negative,ES_green,1,c,593,1785867,1786371,1786575
118,second,15,witzig,IAT_green3.bmp,green,ending_scream,scream,ending,m,positive,positive,ES_green,0,c,585,1788242,1788746,1788950
118,second,16,gerecht,IAT_purple2.bmp,purple,starting_scream,scream,starting,m,positive,negative,ES_green,1,m,1012,1791109,1791613,1791817
118,second,17,sozial,IAT_green3.bmp,green,ending_scream,scream,ending,m,positive,positive,ES_green,1,m,517,1793902,1794406,1794610
118,second,18,human,IAT_yellow1.bmp,yellow,starting_melody,melody,starting,m,positive,positive,ES_green,1,m,439,1796201,1796705,1796909
118,second,19,krank,IAT_red1.bmp,red,ending_melody,melody,ending,c,negative,negative,ES_green,1,c,471,1798421,1798925,1799129
118,second,20,feige,IAT_yellow1.bmp,yellow,starting_melody,melody,starting,c,negative,positive,ES_green,0,m,429,1800674,1801178,1801382
118,second,21,gerecht,IAT_purple1.bmp,purple,starting_scream,scream,starting,m,positive,negative,ES_green,1,m,783,1803384,1803889,1804093
118,second,22,schön,IAT_yellow3.bmp,yellow,starting_melody,melody,starting,m,positive,positive,ES_green,1,m,419,1805949,1806454,1806658
118,second,23,lustig,IAT_green2.bmp,green,ending_scream,scream,ending,m,positive,positive,ES_green,1,m,325,1808150,1808654,1808858
118,second,24,teuer,IAT_purple2.bmp,purple,starting_scream,scream,starting,c,negative,negative,ES_green,1,c,400,1810256,1810760,1810964
118,second,25,ehrlich,IAT_yellow4.bmp,yellow,starting_melody,melody,starting,m,positive,positive,ES_green,0,c,487,1812438,1812942,1813146
118,second,26,sonnig,IAT_yellow1.bmp,yellow,starting_melody,melody,starting,m,positive,positive,ES_green,1,m,744,1815206,1815710,1815914
118,second,27,feige,IAT_red4.bmp,red,ending_melody,melody,ending,c,negative,negative,ES_green,0,m,415,1817732,1818237,1818441
118,second,28,heiter,IAT_green1.bmp,green,ending_scream,scream,ending,m,positive,positive,ES_green,1,m,593,1820429,1820933,1821137
118,second,29,gerecht,IAT_yellow4.bmp,yellow,starting_melody,melody,starting,m,positive,positive,ES_green,1,m,435,1822804,1823308,1823512
118,second,30,kaputt,IAT_yellow4.bmp,yellow,starting_melody,melody,starting,c,negative,positive,ES_green,1,c,384,1825019,1825524,1825728
118,second,31,brutal,IAT_yellow3.bmp,yellow,starting_melody,melody,starting,c,negative,positive,ES_green,1,c,416,1827186,1827690,1827894
118,second,32,krank,IAT_purple4.bmp,purple,starting_scream,scream,starting,c,negative,negative,ES_green,1,c,565,1829383,1829887,1830091
118,second,33,brutal,IAT_purple3.bmp,purple,starting_scream,scream,starting,c,negative,negative,ES_green,1,c,509,1831729,1832234,1832438
118,second,34,schön,IAT_red1.bmp,red,ending_melody,melody,ending,m,positive,negative,ES_green,1,m,414,1834021,1834525,1834729
118,second,35,falsch,IAT_green1.bmp,green,ending_scream,scream,ending,c,negative,positive,ES_green,1,c,422,1836215,1836719,1836924
118,second,36,sanft,IAT_green4.bmp,green,ending_scream,scream,ending,m,positive,positive,ES_green,0,c,749,1838419,1838923,1839127
118,second,37,gesund,IAT_purple2.bmp,purple,starting_scream,scream,starting,m,positive,negative,ES_green,1,m,477,1841449,1841954,1842158
118,second,38,ehrlich,IAT_yellow3.bmp,yellow,starting_melody,melody,starting,m,positive,positive,ES_green,1,m,465,1843709,1844213,1844417
118,second,39,kaputt,IAT_purple3.bmp,purple,starting_scream,scream,starting,c,negative,negative,ES_green,1,c,404,1845955,1846459,1846663
118,second,40,sanft,IAT_purple3.bmp,purple,starting_scream,scream,starting,m,positive,negative,ES_green,1,m,634,1848140,1848644,1848848
118,second,41,gesund,IAT_red3.bmp,red,ending_melody,melody,ending,m,positive,negative,ES_green,1,m,309,1850556,1851060,1851264
118,second,42,falsch,IAT_red4.bmp,red,ending_melody,melody,ending,c,negative,negative,ES_green,1,c,433,1852647,1853151,1853355
118,second,43,human,IAT_purple3.bmp,purple,starting_scream,scream,starting,m,positive,negative,ES_green,1,m,289,1854861,1855365,1855569
118,second,44,teuer,IAT_green4.bmp,green,ending_scream,scream,ending,c,negative,positive,ES_green,1,c,328,1856931,1857436,1857641
118,second,45,geizig,IAT_green4.bmp,green,ending_scream,scream,ending,c,negative,positive,ES_green,1,c,307,1859043,1859547,1859751
118,second,46,einsam,IAT_green2.bmp,green,ending_scream,scream,ending,c,negative,positive,ES_green,1,c,309,1861132,1861637,1861841
118,second,47,lästig,IAT_red2.bmp,red,ending_melody,melody,ending,c,negative,negative,ES_green,0,m,363,1863224,1863728,1863932
118,second,48,ehrlich,IAT_red3.bmp,red,ending_melody,melody,ending,m,positive,negative,ES_green,0,c,794,1865868,1866373,1866577
118,second,49,heiter,IAT_red2.bmp,red,ending_melody,melody,ending,m,positive,negative,ES_green,1,m,623,1868944,1869448,1869652
118,second,50,schön,IAT_red3.bmp,red,ending_melody,melody,ending,m,positive,negative,ES_green,1,m,287,1871350,1871854,1872058
118,second,51,einsam,IAT_purple2.bmp,purple,starting_scream,scream,starting,c,negative,negative,ES_green,0,m,275,1873418,1873923,1874127
118,second,52,witzig,IAT_purple3.bmp,purple,starting_scream,scream,starting,m,positive,negative,ES_green,1,m,516,1875976,1876481,1876685
118,second,53,streng,IAT_purple4.bmp,purple,starting_scream,scream,starting,c,negative,negative,ES_green,1,c,374,1878275,1878780,1878984
118,second,54,ehrlich,IAT_yellow1.bmp,yellow,starting_melody,melody,starting,m,positive,positive,ES_green,0,c,607,1880432,1880936,1881140
118,second,55,gierig,IAT_red2.bmp,red,ending_melody,melody,ending,c,negative,negative,ES_green,1,c,605,1883320,1883824,1884028
118,second,56,kaputt,IAT_green3.bmp,green,ending_scream,scream,ending,c,negative,positive,ES_green,1,c,520,1885707,1886211,1886415
118,second,57,morsch,IAT_green3.bmp,green,ending_scream,scream,ending,c,negative,positive,ES_green,1,c,500,1888009,1888514,1888718
118,second,58,lästig,IAT_yellow2.bmp,yellow,starting_melody,melody,starting,c,negative,positive,ES_green,0,m,456,1890292,1890796,1891000
118,second,59,witzig,IAT_red2.bmp,red,ending_melody,melody,ending,m,positive,negative,ES_green,1,m,585,1893029,1893534,1893738
118,second,60,morsch,IAT_purple2.bmp,purple,starting_scream,scream,starting,c,negative,negative,ES_green,1,c,552,1895396,1895901,1896105
118,second,61,sonnig,IAT_purple1.bmp,purple,starting_scream,scream,starting,m,positive,negative,ES_green,1,m,510,1897731,1898235,1898439
118,second,62,brutal,IAT_yellow3.bmp,yellow,starting_melody,melody,starting,c,negative,positive,ES_green,0,m,433,1900023,1900527,1900731
118,second,63,teuer,IAT_red3.bmp,red,ending_melody,melody,ending,c,negative,negative,ES_green,0,m,719,1902739,1903243,1903447
118,second,64,lästig,IAT_yellow4.bmp,yellow,starting_melody,melody,starting,c,negative,positive,ES_green,1,c,635,1905740,1906244,1906448
118,second,65,streng,IAT_purple1.bmp,purple,starting_scream,scream,starting,c,negative,negative,ES_green,1,c,591,1908157,1908661,1908865
118,second,66,sanft,IAT_purple4.bmp,purple,starting_scream,scream,starting,m,positive,negative,ES_green,0,c,461,1910529,1911033,1911237
118,second,67,brutal,IAT_red2.bmp,red,ending_melody,melody,ending,c,negative,negative,ES_green,1,c,539,1913273,1913777,1913981
118,second,68,sonnig,IAT_red1.bmp,red,ending_melody,melody,ending,m,positive,negative,ES_green,0,c,448,1915594,1916098,1916302
118,second,69,falsch,IAT_green2.bmp,green,ending_scream,scream,ending,c,negative,positive,ES_green,1,c,626,1918323,1918827,1919031
118,second,70,gierig,IAT_green1.bmp,green,ending_scream,scream,ending,c,negative,positive,ES_green,1,c,441,1920731,1921236,1921440
118,second,71,munter,IAT_purple1.bmp,purple,starting_scream,scream,starting,m,positive,negative,ES_green,0,c,357,1922955,1923459,1923663
118,second,72,streng,IAT_yellow4.bmp,yellow,starting_melody,melody,starting,c,negative,positive,ES_green,1,c,609,1925593,1926098,1926302
118,second,73,teuer,IAT_red1.bmp,red,ending_melody,melody,ending,c,negative,negative,ES_green,1,c,462,1927986,1928490,1928694
118,second,74,sozial,IAT_green1.bmp,green,ending_scream,scream,ending,m,positive,positive,ES_green,1,m,613,1930229,1930733,1930937
118,second,75,gierig,IAT_green4.bmp,green,ending_scream,scream,ending,c,negative,positive,ES_green,0,m,299,1932623,1933128,1933332
118,second,76,geizig,IAT_purple2.bmp,purple,starting_scream,scream,starting,c,negative,negative,ES_green,1,c,629,1935206,1935710,1935914
118,second,77,gerecht,IAT_red3.bmp,red,ending_melody,melody,ending,m,positive,negative,ES_green,1,m,812,1937618,1938122,1938326
118,second,78,lustig,IAT_green3.bmp,green,ending_scream,scream,ending,m,positive,positive,ES_green,1,m,894,1940213,1940717,1940921
118,second,79,gierig,IAT_yellow1.bmp,yellow,starting_melody,melody,starting,c,negative,positive,ES_green,1,c,971,1942890,1943394,1943598
118,second,80,heiter,IAT_green1.bmp,green,ending_scream,scream,ending,m,positive,positive,ES_green,1,m,561,1945642,1946147,1946351
118,second,81,sozial,IAT_red4.bmp,red,ending_melody,melody,ending,m,positive,negative,ES_green,0,c,468,1947987,1948491,1948695
118,second,82,munter,IAT_yellow1.bmp,yellow,starting_melody,melody,starting,m,positive,positive,ES_green,1,m,858,1950738,1951242,1951446
118,second,83,human,IAT_yellow3.bmp,yellow,starting_melody,melody,starting,m,positive,positive,ES_green,1,m,556,1953379,1953884,1954088
118,second,84,feige,IAT_green2.bmp,green,ending_scream,scream,ending,c,negative,positive,ES_green,1,c,625,1955718,1956222,1956426
118,second,85,krank,IAT_yellow2.bmp,yellow,starting_melody,melody,starting,c,negative,positive,ES_green,0,m,675,1958126,1958630,1958834
118,second,86,lustig,IAT_red4.bmp,red,ending_melody,melody,ending,m,positive,negative,ES_green,1,m,652,1961083,1961587,1961791
118,second,87,kaputt,IAT_yellow4.bmp,yellow,starting_melody,melody,starting,c,negative,positive,ES_green,1,c,548,1963517,1964021,1964225
118,second,88,sanft,IAT_red1.bmp,red,ending_melody,melody,ending,m,positive,negative,ES_green,0,c,514,1965848,1966352,1966556
118,second,89,falsch,IAT_yellow2.bmp,yellow,starting_melody,melody,starting,c,negative,positive,ES_green,1,c,554,1968644,1969148,1969352
118,second,90,lästig,IAT_red3.bmp,red,ending_melody,melody,ending,c,negative,negative,ES_green,1,c,505,1970980,1971484,1971688
118,second,91,sonnig,IAT_green2.bmp,green,ending_scream,scream,ending,m,positive,positive,ES_green,0,c,378,1973268,1973772,1973976
118,second,92,einsam,IAT_green4.bmp,green,ending_scream,scream,ending,c,negative,positive,ES_green,1,c,620,1975928,1976432,1976636
118,second,93,geizig,IAT_purple4.bmp,purple,starting_scream,scream,starting,c,negative,negative,ES_green,1,c,561,1978329,1978833,1979037
118,second,94,morsch,IAT_green2.bmp,green,ending_scream,scream,ending,c,negative,positive,ES_green,1,c,579,1980673,1981177,1981381
118,second,95,gesund,IAT_green4.bmp,green,ending_scream,scream,ending,m,positive,positive,ES_green,1,m,522,1983034,1983539,1983743
118,third,0,teuer,IAT_purple3.bmp,purple,starting_scream,scream,starting,c,negative,negative,ES_green,1,c,921,1989381,1989885,1990089
118,third,1,gesund,IAT_yellow3.bmp,yellow,starting_melody,melody,starting,m,positive,positive,ES_green,1,m,444,1992084,1992589,1992793
118,third,2,feige,IAT_purple4.bmp,purple,starting_scream,scream,starting,c,negative,negative,ES_green,1,c,545,1994310,1994814,1995018
118,third,3,sonnig,IAT_red1.bmp,red,ending_melody,melody,ending,m,positive,negative,ES_green,1,m,475,1996637,1997141,1997345
118,third,4,schön,IAT_red3.bmp,red,ending_melody,melody,ending,m,positive,negative,ES_green,1,m,460,1998894,1999398,1999602
118,third,5,witzig,IAT_purple2.bmp,purple,starting_scream,scream,starting,m,positive,negative,ES_green,1,m,360,2001135,2001639,2001843
118,third,6,ehrlich,IAT_purple3.bmp,purple,starting_scream,scream,starting,m,positive,negative,ES_green,1,m,445,2003277,2003781,2003985
118,third,7,krank,IAT_purple2.bmp,purple,starting_scream,scream,starting,c,negative,negative,ES_green,1,c,462,2005504,2006008,2006212
118,third,8,teuer,IAT_red1.bmp,red,ending_melody,melody,ending,c,negative,negative,ES_green,0,m,406,2007748,2008252,2008456
118,third,9,human,IAT_red1.bmp,red,ending_melody,melody,ending,m,positive,negative,ES_green,1,m,445,2010438,2010942,2011146
118,third,10,feige,IAT_green2.bmp,green,ending_scream,scream,ending,c,negative,positive,ES_green,0,m,450,2012664,2013168,2013372
118,third,11,einsam,IAT_yellow2.bmp,yellow,starting_melody,melody,starting,c,negative,positive,ES_green,1,c,736,2015396,2015901,2016105
118,third,12,sonnig,IAT_red2.bmp,red,ending_melody,melody,ending,m,positive,negative,ES_green,0,c,495,2017916,2018420,2018624
118,third,13,falsch,IAT_yellow2.bmp,yellow,starting_melody,melody,starting,c,negative,positive,ES_green,1,c,703,2020693,2021197,2021401
118,third,14,morsch,IAT_purple2.bmp,purple,starting_scream,scream,starting,c,negative,negative,ES_green,1,c,442,2023178,2023682,2023886
118,third,15,streng,IAT_purple2.bmp,purple,starting_scream,scream,starting,c,negative,negative,ES_green,1,c,386,2025402,2025906,2026110
118,third,16,lästig,IAT_red3.bmp,red,ending_melody,melody,ending,c,negative,negative,ES_green,1,c,482,2027572,2028076,2028280
118,third,17,sozial,IAT_purple1.bmp,purple,starting_scream,scream,starting,m,positive,negative,ES_green,1,m,658,2029836,2030341,2030545
118,third,18,gierig,IAT_red2.bmp,red,ending_melody,melody,ending,c,negative,negative,ES_green,1,c,435,2032277,2032781,2032985
118,third,19,lästig,IAT_green4.bmp,green,ending_scream,scream,ending,c,negative,positive,ES_green,1,c,412,2034494,2034999,2035203
118,third,20,falsch,IAT_green2.bmp,green,ending_scream,scream,ending,c,negative,positive,ES_green,1,c,444,2036689,2037193,2037397
118,third,21,gierig,IAT_green3.bmp,green,ending_scream,scream,ending,c,negative,positive,ES_green,1,c,484,2038915,2039419,2039623
118,third,22,geizig,IAT_red4.bmp,red,ending_melody,melody,ending,c,negative,negative,ES_green,1,c,349,2041181,2041686,2041890
118,third,23,sanft,IAT_red2.bmp,red,ending_melody,melody,ending,m,positive,negative,ES_green,1,m,542,2043313,2043817,2044021
118,third,24,gerecht,IAT_green3.bmp,green,ending_scream,scream,ending,m,positive,positive,ES_green,1,m,414,2045637,2046141,2046345
118,third,25,lustig,IAT_red1.bmp,red,ending_melody,melody,ending,m,positive,negative,ES_green,1,m,360,2047833,2048338,2048542
118,third,26,falsch,IAT_green4.bmp,green,ending_scream,scream,ending,c,negative,positive,ES_green,1,c,475,2049976,2050481,2050685
118,third,27,krank,IAT_purple4.bmp,purple,starting_scream,scream,starting,c,negative,negative,ES_green,1,c,360,2052234,2052738,2052942
118,third,28,sanft,IAT_purple3.bmp,purple,starting_scream,scream,starting,m,positive,negative,ES_green,0,c,382,2054376,2054880,2055084
118,third,29,brutal,IAT_green1.bmp,green,ending_scream,scream,ending,c,negative,positive,ES_green,1,c,597,2057040,2057544,2057748
118,third,30,schön,IAT_yellow3.bmp,yellow,starting_melody,melody,starting,m,positive,positive,ES_green,1,m,685,2059419,2059923,2060127
118,third,31,witzig,IAT_purple2.bmp,purple,starting_scream,scream,starting,m,positive,negative,ES_green,1,m,454,2061888,2062392,2062596
118,third,32,sanft,IAT_yellow2.bmp,yellow,starting_melody,melody,starting,m,positive,positive,ES_green,0,c,444,2064125,2064629,2064833
118,third,33,kaputt,IAT_green3.bmp,green,ending_scream,scream,ending,c,negative,positive,ES_green,1,c,641,2066850,2067355,2067559
118,third,34,falsch,IAT_green2.bmp,green,ending_scream,scream,ending,c,negative,positive,ES_green,1,c,438,2069274,2069778,2069982
118,third,35,gierig,IAT_yellow4.bmp,yellow,starting_melody,melody,starting,c,negative,positive,ES_green,1,c,345,2071495,2071999,2072203
118,third,36,streng,IAT_purple3.bmp,purple,starting_scream,scream,starting,c,negative,negative,ES_green,1,c,391,2073621,2074126,2074330
118,third,37,heiter,IAT_yellow1.bmp,yellow,starting_melody,melody,starting,m,positive,positive,ES_green,0,c,386,2075797,2076301,2076505
118,third,38,schön,IAT_red3.bmp,red,ending_melody,melody,ending,m,positive,negative,ES_green,1,m,536,2078466,2078970,2079174
118,third,39,sanft,IAT_yellow2.bmp,yellow,starting_melody,melody,starting,m,positive,positive,ES_green,1,m,359,2080784,2081288,2081492
118,third,40,teuer,IAT_yellow4.bmp,yellow,starting_melody,melody,starting,c,negative,positive,ES_green,0,m,477,2082927,2083431,2083635
118,third,41,gerecht,IAT_red4.bmp,red,ending_melody,melody,ending,m,positive,negative,ES_green,1,m,637,2085686,2086190,2086394
118,third,42,munter,IAT_green3.bmp,green,ending_scream,scream,ending,m,positive,positive,ES_green,1,m,608,2088106,2088610,2088814
118,third,43,geizig,IAT_red4.bmp,red,ending_melody,melody,ending,c,negative,negative,ES_green,0,m,469,2090496,2091001,2091205
118,third,44,heiter,IAT_red3.bmp,red,ending_melody,melody,ending,m,positive,negative,ES_green,0,None,1500,2093248,2093752,2093956
118,third,45,morsch,IAT_yellow1.bmp,yellow,starting_melody,melody,starting,c,negative,positive,ES_green,0,m,414,2097030,2097534,2097738
118,third,46,witzig,IAT_green1.bmp,green,ending_scream,scream,ending,m,positive,positive,ES_green,1,m,493,2099726,2100231,2100435
118,third,47,brutal,IAT_green4.bmp,green,ending_scream,scream,ending,c,negative,positive,ES_green,1,c,630,2102002,2102506,2102711
118,third,48,munter,IAT_red1.bmp,red,ending_melody,melody,ending,m,positive,negative,ES_green,0,c,496,2104416,2104920,2105124
118,third,49,human,IAT_purple1.bmp,purple,starting_scream,scream,starting,m,positive,negative,ES_green,1,m,573,2107195,2107699,2107903
118,third,50,kaputt,IAT_yellow3.bmp,yellow,starting_melody,melody,starting,c,negative,positive,ES_green,1,c,464,2109551,2110055,2110259
118,third,51,geizig,IAT_purple1.bmp,purple,starting_scream,scream,starting,c,negative,negative,ES_green,1,c,874,2111798,2112302,2112506
118,third,52,sozial,IAT_red3.bmp,red,ending_melody,melody,ending,m,positive,negative,ES_green,1,m,712,2114454,2114959,2115163
118,third,53,lustig,IAT_purple3.bmp,purple,starting_scream,scream,starting,m,positive,negative,ES_green,1,m,612,2116949,2117453,2117657
118,third,54,ehrlich,IAT_red4.bmp,red,ending_melody,melody,ending,m,positive,negative,ES_green,1,m,560,2119343,2119847,2120051
118,third,55,morsch,IAT_purple4.bmp,purple,starting_scream,scream,starting,c,negative,negative,ES_green,1,c,479,2121685,2122189,2122393
118,third,56,kaputt,IAT_purple4.bmp,purple,starting_scream,scream,starting,c,negative,negative,ES_green,1,c,473,2123947,2124451,2124655
118,third,57,gierig,IAT_red4.bmp,red,ending_melody,melody,ending,c,negative,negative,ES_green,0,m,368,2126203,2126707,2126911
118,third,58,sozial,IAT_yellow4.bmp,yellow,starting_melody,melody,starting,m,positive,positive,ES_green,1,m,528,2128854,2129358,2129562
118,third,59,gesund,IAT_green4.bmp,green,ending_scream,scream,ending,m,positive,positive,ES_green,1,m,534,2131165,2131670,2131874
118,third,60,streng,IAT_yellow1.bmp,yellow,starting_melody,melody,starting,c,negative,positive,ES_green,1,c,578,2133482,2133986,2134190
118,third,61,ehrlich,IAT_green3.bmp,green,ending_scream,scream,ending,m,positive,positive,ES_green,1,m,1039,2135844,2136348,2136552
118,third,62,lustig,IAT_yellow1.bmp,yellow,starting_melody,melody,starting,m,positive,positive,ES_green,1,m,438,2138667,2139171,2139375
118,third,63,heiter,IAT_green2.bmp,green,ending_scream,scream,ending,m,positive,positive,ES_green,0,c,428,2140888,2141392,2141596
118,third,64,krank,IAT_yellow4.bmp,yellow,starting_melody,melody,starting,c,negative,positive,ES_green,0,m,1260,2143599,2144103,2144307
118,third,65,lästig,IAT_yellow2.bmp,yellow,starting_melody,melody,starting,c,negative,positive,ES_green,1,c,549,2147144,2147648,2147852
118,third,66,gerecht,IAT_green3.bmp,green,ending_scream,scream,ending,m,positive,positive,ES_green,0,c,474,2149476,2149980,2150184
118,third,67,brutal,IAT_green2.bmp,green,ending_scream,scream,ending,c,negative,positive,ES_green,0,m,908,2152232,2152736,2152940
118,third,68,witzig,IAT_purple1.bmp,purple,starting_scream,scream,starting,m,positive,negative,ES_green,1,m,542,2155422,2155927,2156131
118,third,69,schön,IAT_yellow3.bmp,yellow,starting_melody,melody,starting,m,positive,positive,ES_green,1,m,357,2157749,2158253,2158457
118,third,70,geizig,IAT_red1.bmp,red,ending_melody,melody,ending,c,negative,negative,ES_green,1,c,544,2159889,2160393,2160597
118,third,71,feige,IAT_red2.bmp,red,ending_melody,melody,ending,c,negative,negative,ES_green,1,c,440,2162216,2162720,2162924
118,third,72,gesund,IAT_purple4.bmp,purple,starting_scream,scream,starting,m,positive,negative,ES_green,1,m,671,2164438,2164942,2165146
118,third,73,sozial,IAT_purple3.bmp,purple,starting_scream,scream,starting,m,positive,negative,ES_green,1,m,457,2166891,2167395,2167599
118,third,74,einsam,IAT_yellow3.bmp,yellow,starting_melody,melody,starting,c,negative,positive,ES_green,1,c,861,2169131,2169635,2169839
118,third,75,kaputt,IAT_purple1.bmp,purple,starting_scream,scream,starting,c,negative,negative,ES_green,1,c,514,2171775,2172280,2172484
118,third,76,teuer,IAT_yellow4.bmp,yellow,starting_melody,melody,starting,c,negative,positive,ES_green,1,c,519,2174073,2174577,2174781
118,third,77,krank,IAT_green4.bmp,green,ending_scream,scream,ending,c,negative,positive,ES_green,1,c,574,2176374,2176878,2177082
118,third,78,human,IAT_yellow3.bmp,yellow,starting_melody,melody,starting,m,positive,positive,ES_green,1,m,516,2178731,2179235,2179439
118,third,79,lästig,IAT_green1.bmp,green,ending_scream,scream,ending,c,negative,positive,ES_green,1,c,542,2181029,2181534,2181738
118,third,80,sonnig,IAT_green4.bmp,green,ending_scream,scream,ending,m,positive,positive,ES_green,1,m,495,2183355,2183859,2184063
118,third,81,einsam,IAT_red4.bmp,red,ending_melody,melody,ending,c,negative,negative,ES_green,1,c,439,2185633,2186137,2186341
118,third,82,streng,IAT_purple2.bmp,purple,starting_scream,scream,starting,c,negative,negative,ES_green,1,c,643,2187855,2188359,2188563
118,third,83,brutal,IAT_red2.bmp,red,ending_melody,melody,ending,c,negative,negative,ES_green,1,c,584,2190281,2190786,2190990
118,third,84,heiter,IAT_yellow1.bmp,yellow,starting_melody,melody,starting,m,positive,positive,ES_green,1,m,639,2192649,2193153,2193357
118,third,85,munter,IAT_green2.bmp,green,ending_scream,scream,ending,m,positive,positive,ES_green,1,m,932,2195070,2195574,2195778
118,third,86,einsam,IAT_red2.bmp,red,ending_melody,melody,ending,c,negative,negative,ES_green,1,c,527,2197787,2198291,2198495
118,third,87,human,IAT_green1.bmp,green,ending_scream,scream,ending,m,positive,positive,ES_green,1,m,562,2200097,2200601,2200805
118,third,88,lustig,IAT_green1.bmp,green,ending_scream,scream,ending,m,positive,positive,ES_green,1,m,600,2202442,2202946,2203150
118,third,89,gerecht,IAT_yellow4.bmp,yellow,starting_melody,melody,starting,m,positive,positive,ES_green,1,m,482,2204825,2205330,2205534
118,third,90,munter,IAT_green1.bmp,green,ending_scream,scream,ending,m,positive,positive,ES_green,1,m,621,2207091,2207595,2207799
118,third,91,gesund,IAT_yellow1.bmp,yellow,starting_melody,melody,starting,m,positive,positive,ES_green,1,m,415,2209494,2209998,2210202
118,third,92,sonnig,IAT_purple4.bmp,purple,starting_scream,scream,starting,m,positive,negative,ES_green,1,m,379,2211692,2212196,2212400
118,third,93,morsch,IAT_red3.bmp,red,ending_melody,melody,ending,c,negative,negative,ES_green,1,c,310,2213854,2214358,2214562
118,third,94,feige,IAT_yellow2.bmp,yellow,starting_melody,melody,starting,c,negative,positive,ES_green,1,c,405,2215947,2216452,2216656
118,third,95,ehrlich,IAT_purple1.bmp,purple,starting_scream,scream,starting,m,positive,negative,ES_green,0,c,418,2218137,2218641,2218845
118,forth,0,sozial,IAT_green1.bmp,green,ending_scream,scream,ending,m,positive,positive,ES_green,1,m,519,2223748,2224253,2224457
118,forth,1,sanft,IAT_green3.bmp,green,ending_scream,scream,ending,m,positive,positive,ES_green,1,m,499,2226052,2226556,2226760
118,forth,2,falsch,IAT_purple1.bmp,purple,starting_scream,scream,starting,c,negative,negative,ES_green,1,c,435,2228332,2228837,2229041
118,forth,3,streng,IAT_red4.bmp,red,ending_melody,melody,ending,c,negative,negative,ES_green,1,c,363,2230550,2231054,2231258
118,forth,4,heiter,IAT_red1.bmp,red,ending_melody,melody,ending,m,positive,negative,ES_green,1,m,504,2232695,2233199,2233403
118,forth,5,kaputt,IAT_purple4.bmp,purple,starting_scream,scream,starting,c,negative,negative,ES_green,0,m,441,2234981,2235486,2235690
118,forth,6,geizig,IAT_red2.bmp,red,ending_melody,melody,ending,c,negative,negative,ES_green,1,c,716,2237706,2238211,2238415
118,forth,7,teuer,IAT_purple2.bmp,purple,starting_scream,scream,starting,c,negative,negative,ES_green,1,c,495,2240205,2240709,2240913
118,forth,8,sonnig,IAT_red3.bmp,red,ending_melody,melody,ending,m,positive,negative,ES_green,0,c,488,2242482,2242986,2243190
118,forth,9,ehrlich,IAT_green1.bmp,green,ending_scream,scream,ending,m,positive,positive,ES_green,1,m,718,2245253,2245757,2245961
118,forth,10,sonnig,IAT_purple1.bmp,purple,starting_scream,scream,starting,m,positive,negative,ES_green,1,m,434,2247754,2248258,2248462
118,forth,11,gerecht,IAT_yellow1.bmp,yellow,starting_melody,melody,starting,m,positive,positive,ES_green,0,c,481,2249971,2250476,2250680
118,forth,12,munter,IAT_green3.bmp,green,ending_scream,scream,ending,m,positive,positive,ES_green,1,m,676,2252735,2253239,2253443
118,forth,13,krank,IAT_red2.bmp,red,ending_melody,melody,ending,c,negative,negative,ES_green,1,c,533,2255193,2255697,2255901
118,forth,14,witzig,IAT_green1.bmp,green,ending_scream,scream,ending,m,positive,positive,ES_green,1,m,516,2257508,2258013,2258217
118,forth,15,sonnig,IAT_red1.bmp,red,ending_melody,melody,ending,m,positive,negative,ES_green,1,m,556,2259807,2260311,2260515
118,forth,16,brutal,IAT_green2.bmp,green,ending_scream,scream,ending,c,negative,positive,ES_green,1,c,589,2262146,2262651,2262855
118,forth,17,kaputt,IAT_purple4.bmp,purple,starting_scream,scream,starting,c,negative,negative,ES_green,0,m,895,2264518,2265023,2265227
118,forth,18,falsch,IAT_yellow2.bmp,yellow,starting_melody,melody,starting,c,negative,positive,ES_green,0,None,1500,2267696,2268200,2268404
118,forth,19,einsam,IAT_red4.bmp,red,ending_melody,melody,ending,c,negative,negative,ES_green,1,c,1012,2271978,2272483,2272687
118,forth,20,feige,IAT_green4.bmp,green,ending_scream,scream,ending,c,negative,positive,ES_green,1,c,613,2274773,2275277,2275481
118,forth,21,gerecht,IAT_green2.bmp,green,ending_scream,scream,ending,m,positive,positive,ES_green,1,m,623,2277167,2277672,2277876
118,forth,22,brutal,IAT_yellow1.bmp,yellow,starting_melody,melody,starting,c,negative,positive,ES_green,1,c,755,2279575,2280079,2280283
118,forth,23,munter,IAT_green2.bmp,green,ending_scream,scream,ending,m,positive,positive,ES_green,0,c,940,2282113,2282617,2282821
118,forth,24,streng,IAT_green4.bmp,green,ending_scream,scream,ending,c,negative,positive,ES_green,1,c,864,2285334,2285838,2286042
118,forth,25,brutal,IAT_red4.bmp,red,ending_melody,melody,ending,c,negative,negative,ES_green,1,c,927,2287981,2288486,2288690
118,forth,26,sozial,IAT_yellow1.bmp,yellow,starting_melody,melody,starting,m,positive,positive,ES_green,1,m,662,2290691,2291195,2291399
118,forth,27,lustig,IAT_red3.bmp,red,ending_melody,melody,ending,m,positive,negative,ES_green,1,m,514,2293135,2293640,2293844
118,forth,28,geizig,IAT_purple3.bmp,purple,starting_scream,scream,starting,c,negative,negative,ES_green,0,m,757,2295431,2295936,2296140
118,forth,29,lästig,IAT_yellow3.bmp,yellow,starting_melody,melody,starting,c,negative,positive,ES_green,0,m,367,2298470,2298975,2299179
118,forth,30,falsch,IAT_yellow2.bmp,yellow,starting_melody,melody,starting,c,negative,positive,ES_green,1,c,550,2301122,2301626,2301830
118,forth,31,sanft,IAT_purple3.bmp,purple,starting_scream,scream,starting,m,positive,negative,ES_green,1,m,1048,2303455,2303959,2304163
118,forth,32,gierig,IAT_green1.bmp,green,ending_scream,scream,ending,c,negative,positive,ES_green,1,c,555,2306285,2306789,2306993
118,forth,33,lustig,IAT_red3.bmp,red,ending_melody,melody,ending,m,positive,negative,ES_green,1,m,565,2308623,2309127,2309331
118,forth,34,lästig,IAT_green1.bmp,green,ending_scream,scream,ending,c,negative,positive,ES_green,1,c,687,2310969,2311473,2311677
118,forth,35,einsam,IAT_red3.bmp,red,ending_melody,melody,ending,c,negative,negative,ES_green,0,m,428,2313438,2313942,2314146
118,forth,36,schön,IAT_purple2.bmp,purple,starting_scream,scream,starting,m,positive,negative,ES_green,1,m,551,2316150,2316654,2316858
118,forth,37,kaputt,IAT_yellow4.bmp,yellow,starting_melody,melody,starting,c,negative,positive,ES_green,1,c,447,2318484,2318988,2319192
118,forth,38,heiter,IAT_purple4.bmp,purple,starting_scream,scream,starting,m,positive,negative,ES_green,0,c,457,2320714,2321218,2321422
118,forth,39,sozial,IAT_yellow3.bmp,yellow,starting_melody,melody,starting,m,positive,positive,ES_green,1,m,503,2323453,2323957,2324161
118,forth,40,gesund,IAT_yellow2.bmp,yellow,starting_melody,melody,starting,m,positive,positive,ES_green,1,m,545,2325738,2326243,2326447
118,forth,41,krank,IAT_purple2.bmp,purple,starting_scream,scream,starting,c,negative,negative,ES_green,1,c,474,2328067,2328572,2328776
118,forth,42,sanft,IAT_purple1.bmp,purple,starting_scream,scream,starting,m,positive,negative,ES_green,1,m,544,2330325,2330829,2331033
118,forth,43,brutal,IAT_purple1.bmp,purple,starting_scream,scream,starting,c,negative,negative,ES_green,1,c,541,2332652,2333156,2333360
118,forth,44,lustig,IAT_yellow3.bmp,yellow,starting_melody,melody,starting,m,positive,positive,ES_green,1,m,559,2334976,2335480,2335684
118,forth,45,lästig,IAT_purple4.bmp,purple,starting_scream,scream,starting,c,negative,negative,ES_green,1,c,569,2337317,2337822,2338026
118,forth,46,schön,IAT_red1.bmp,red,ending_melody,melody,ending,m,positive,negative,ES_green,1,m,555,2339670,2340174,2340378
118,forth,47,witzig,IAT_yellow4.bmp,yellow,starting_melody,melody,starting,m,positive,positive,ES_green,1,m,540,2342008,2342513,2342717
118,forth,48,ehrlich,IAT_green4.bmp,green,ending_scream,scream,ending,m,positive,positive,ES_green,1,m,494,2344332,2344836,2345040
118,forth,49,schön,IAT_red4.bmp,red,ending_melody,melody,ending,m,positive,negative,ES_green,1,m,395,2346609,2347113,2347317
118,forth,50,gesund,IAT_purple3.bmp,purple,starting_scream,scream,starting,m,positive,negative,ES_green,1,m,385,2348787,2349292,2349496
118,forth,51,munter,IAT_green1.bmp,green,ending_scream,scream,ending,m,positive,positive,ES_green,1,m,451,2350955,2351460,2351664
118,forth,52,streng,IAT_green2.bmp,green,ending_scream,scream,ending,c,negative,positive,ES_green,0,m,518,2353190,2353694,2353898
118,forth,53,schön,IAT_purple1.bmp,purple,starting_scream,scream,starting,m,positive,negative,ES_green,1,m,508,2355991,2356495,2356699
118,forth,54,heiter,IAT_purple1.bmp,purple,starting_scream,scream,starting,m,positive,negative,ES_green,1,m,616,2358282,2358786,2358990
118,forth,55,feige,IAT_yellow4.bmp,yellow,starting_melody,melody,starting,c,negative,positive,ES_green,1,c,491,2360682,2361186,2361390
118,forth,56,human,IAT_red3.bmp,red,ending_melody,melody,ending,m,positive,negative,ES_green,1,m,736,2362956,2363460,2363664
118,forth,57,ehrlich,IAT_green3.bmp,green,ending_scream,scream,ending,m,positive,positive,ES_green,0,c,365,2365475,2365979,2366183
118,forth,58,morsch,IAT_yellow3.bmp,yellow,starting_melody,melody,starting,c,negative,positive,ES_green,0,m,581,2368123,2368628,2368832
118,forth,59,gierig,IAT_yellow4.bmp,yellow,starting_melody,melody,starting,c,negative,positive,ES_green,0,m,689,2370988,2371493,2371697
118,forth,60,gerecht,IAT_purple3.bmp,purple,starting_scream,scream,starting,m,positive,negative,ES_green,1,m,542,2373960,2374464,2374668
118,forth,61,munter,IAT_yellow1.bmp,yellow,starting_melody,melody,starting,m,positive,positive,ES_green,1,m,466,2376286,2376790,2376994
118,forth,62,human,IAT_purple4.bmp,purple,starting_scream,scream,starting,m,positive,negative,ES_green,1,m,424,2378534,2379038,2379242
118,forth,63,teuer,IAT_red1.bmp,red,ending_melody,melody,ending,c,negative,negative,ES_green,1,c,524,2380741,2381245,2381449
118,forth,64,geizig,IAT_yellow2.bmp,yellow,starting_melody,melody,starting,c,negative,positive,ES_green,1,c,581,2383048,2383552,2383756
118,forth,65,gerecht,IAT_yellow3.bmp,yellow,starting_melody,melody,starting,m,positive,positive,ES_green,1,m,588,2385412,2385916,2386120
118,forth,66,teuer,IAT_red1.bmp,red,ending_melody,melody,ending,c,negative,negative,ES_green,1,c,615,2387784,2388288,2388492
118,forth,67,krank,IAT_yellow2.bmp,yellow,starting_melody,melody,starting,c,negative,positive,ES_green,1,c,559,2390182,2390686,2390891
118,forth,68,sozial,IAT_yellow3.bmp,yellow,starting_melody,melody,starting,m,positive,positive,ES_green,1,m,429,2392525,2393029,2393233
118,forth,69,lästig,IAT_yellow1.bmp,yellow,starting_melody,melody,starting,c,negative,positive,ES_green,0,m,349,2394738,2395242,2395446
118,forth,70,gesund,IAT_red2.bmp,red,ending_melody,melody,ending,m,positive,negative,ES_green,0,c,496,2397370,2397874,2398078
118,forth,71,human,IAT_yellow2.bmp,yellow,starting_melody,melody,starting,m,positive,positive,ES_green,1,m,1007,2400149,2400653,2400857
118,forth,72,gesund,IAT_green3.bmp,green,ending_scream,scream,ending,m,positive,positive,ES_green,1,m,655,2402939,2403443,2403647
118,forth,73,morsch,IAT_red2.bmp,red,ending_melody,melody,ending,c,negative,negative,ES_green,1,c,934,2405378,2405882,2406086
118,forth,74,einsam,IAT_purple3.bmp,purple,starting_scream,scream,starting,c,negative,negative,ES_green,1,c,646,2408096,2408601,2408805
118,forth,75,gierig,IAT_purple2.bmp,purple,starting_scream,scream,starting,c,negative,negative,ES_green,1,c,1230,2410526,2411030,2411234
118,forth,76,ehrlich,IAT_red4.bmp,red,ending_melody,melody,ending,m,positive,negative,ES_green,1,m,488,2413539,2414043,2414247
118,forth,77,einsam,IAT_red4.bmp,red,ending_melody,melody,ending,c,negative,negative,ES_green,0,m,414,2415811,2416315,2416519
118,forth,78,morsch,IAT_purple4.bmp,purple,starting_scream,scream,starting,c,negative,negative,ES_green,1,c,563,2418507,2419012,2419216
118,forth,79,human,IAT_purple2.bmp,purple,starting_scream,scream,starting,m,positive,negative,ES_green,1,m,433,2420854,2421358,2421562
118,forth,80,sonnig,IAT_red2.bmp,red,ending_melody,melody,ending,m,positive,negative,ES_green,1,m,579,2423070,2423574,2423778
118,forth,81,geizig,IAT_green3.bmp,green,ending_scream,scream,ending,c,negative,positive,ES_green,0,m,410,2425432,2425936,2426140
118,forth,82,witzig,IAT_yellow4.bmp,yellow,starting_melody,melody,starting,m,positive,positive,ES_green,1,m,532,2428125,2428630,2428834
118,forth,83,gierig,IAT_red2.bmp,red,ending_melody,melody,ending,c,negative,negative,ES_green,1,c,739,2430442,2430947,2431151
118,forth,84,krank,IAT_green4.bmp,green,ending_scream,scream,ending,c,negative,positive,ES_green,0,m,486,2432964,2433469,2433673
118,forth,85,feige,IAT_green4.bmp,green,ending_scream,scream,ending,c,negative,positive,ES_green,1,c,604,2435735,2436239,2436443
118,forth,86,lustig,IAT_purple3.bmp,purple,starting_scream,scream,starting,m,positive,negative,ES_green,1,m,444,2438123,2438627,2438831
118,forth,87,kaputt,IAT_red3.bmp,red,ending_melody,melody,ending,c,negative,negative,ES_green,0,m,470,2440351,2440855,2441059
118,forth,88,witzig,IAT_red1.bmp,red,ending_melody,melody,ending,m,positive,negative,ES_green,1,m,456,2443105,2443609,2443813
118,forth,89,feige,IAT_green2.bmp,green,ending_scream,scream,ending,c,negative,positive,ES_green,1,c,631,2445344,2445848,2446052
118,forth,90,morsch,IAT_green2.bmp,green,ending_scream,scream,ending,c,negative,positive,ES_green,1,c,613,2447759,2448263,2448467
118,forth,91,teuer,IAT_yellow4.bmp,yellow,starting_melody,melody,starting,c,negative,positive,ES_green,1,c,403,2450157,2450661,2450865
118,forth,92,sanft,IAT_green4.bmp,green,ending_scream,scream,ending,m,positive,positive,ES_green,0,c,405,2452343,2452847,2453051
118,forth,93,streng,IAT_green3.bmp,green,ending_scream,scream,ending,c,negative,positive,ES_green,1,c,522,2455031,2455535,2455739
118,forth,94,falsch,IAT_purple2.bmp,purple,starting_scream,scream,starting,c,negative,negative,ES_green,1,c,568,2457337,2457842,2458046
118,forth,95,heiter,IAT_yellow1.bmp,yellow,starting_melody,melody,starting,m,positive,positive,ES_green,1,m,435,2459689,2460193,2460397
