subject_nr,block,trialnr,trial_target,trial_prime,prime_color,prime_role,prime_us,prime_relation,correct_response,target_valence,prime_valence,color_counter,correct_first_response,response_first_response,response_time_first_response,fixation_show,prime_show,target_show
111,first,0,brutal,IAT_green4.bmp,green,ending_scream,scream,ending,c,negative,positive,ES_green,0,m,585,1386936,1387440,1387644
111,first,1,lästig,IAT_yellow4.bmp,yellow,starting_melody,melody,starting,c,negative,positive,ES_green,1,c,587,1389805,1390309,1390513
111,first,2,brutal,IAT_yellow2.bmp,yellow,starting_melody,melody,starting,c,negative,positive,ES_green,1,c,880,1392174,1392678,1392882
111,first,3,teuer,IAT_red3.bmp,red,ending_melody,melody,ending,c,negative,negative,ES_green,1,c,652,1394834,1395339,1395543
111,first,4,kaputt,IAT_yellow3.bmp,yellow,starting_melody,melody,starting,c,negative,positive,ES_green,1,c,496,1397268,1397772,1397976
111,first,5,gerecht,IAT_yellow2.bmp,yellow,starting_melody,melody,starting,m,positive,positive,ES_green,1,m,800,1399545,1400049,1400253
111,first,6,witzig,IAT_red3.bmp,red,ending_melody,melody,ending,m,positive,negative,ES_green,1,m,691,1402126,1402630,1402834
111,first,7,geizig,IAT_yellow1.bmp,yellow,starting_melody,melody,starting,c,negative,positive,ES_green,1,c,528,1404598,1405102,1405306
111,first,8,heiter,IAT_red2.bmp,red,ending_melody,melody,ending,m,positive,negative,ES_green,1,m,538,1406907,1407411,1407615
111,first,9,sanft,IAT_green1.bmp,green,ending_scream,scream,ending,m,positive,positive,ES_green,1,m,697,1409225,1409729,1409933
111,first,10,lustig,IAT_yellow3.bmp,yellow,starting_melody,melody,starting,m,positive,positive,ES_green,1,m,1111,1411703,1412207,1412411
111,first,11,schön,IAT_green4.bmp,green,ending_scream,scream,ending,m,positive,positive,ES_green,1,m,562,1414595,1415099,1415303
111,first,12,falsch,IAT_green2.bmp,green,ending_scream,scream,ending,c,negative,positive,ES_green,1,c,559,1416937,1417442,1417646
111,first,13,lästig,IAT_green1.bmp,green,ending_scream,scream,ending,c,negative,positive,ES_green,1,c,666,1419277,1419782,1419986
111,first,14,kaputt,IAT_red4.bmp,red,ending_melody,melody,ending,c,negative,negative,ES_green,1,c,1013,1421725,1422229,1422433
111,first,15,falsch,IAT_green4.bmp,green,ending_scream,scream,ending,c,negative,positive,ES_green,1,c,676,1424519,1425024,1425228
111,first,16,streng,IAT_green4.bmp,green,ending_scream,scream,ending,c,negative,positive,ES_green,1,c,551,1426978,1427482,1427686
111,first,17,gesund,IAT_green1.bmp,green,ending_scream,scream,ending,m,positive,positive,ES_green,1,m,709,1429310,1429814,1430018
111,first,18,morsch,IAT_purple3.bmp,purple,starting_scream,scream,starting,c,negative,negative,ES_green,1,c,1096,1431802,1432306,1432510
111,first,19,krank,IAT_purple1.bmp,purple,starting_scream,scream,starting,c,negative,negative,ES_green,1,c,590,1434680,1435184,1435388
111,first,20,ehrlich,IAT_yellow1.bmp,yellow,starting_melody,melody,starting,m,positive,positive,ES_green,1,m,962,1437053,1437557,1437761
111,first,21,feige,IAT_purple2.bmp,purple,starting_scream,scream,starting,c,negative,negative,ES_green,1,c,628,1439796,1440300,1440504
111,first,22,heiter,IAT_purple4.bmp,purple,starting_scream,scream,starting,m,positive,negative,ES_green,1,m,924,1442204,1442708,1442912
111,first,23,einsam,IAT_red2.bmp,red,ending_melody,melody,ending,c,negative,negative,ES_green,1,c,1169,1444908,1445413,1445617
111,first,24,munter,IAT_purple1.bmp,purple,starting_scream,scream,starting,m,positive,negative,ES_green,1,m,989,1447860,1448364,1448569
111,first,25,sozial,IAT_red4.bmp,red,ending_melody,melody,ending,m,positive,negative,ES_green,1,m,631,1450632,1451136,1451340
111,first,26,streng,IAT_yellow2.bmp,yellow,starting_melody,melody,starting,c,negative,positive,ES_green,1,c,599,1453045,1453549,1453753
111,first,27,schön,IAT_green3.bmp,green,ending_scream,scream,ending,m,positive,positive,ES_green,1,m,724,1455425,1455929,1456133
111,first,28,morsch,IAT_green2.bmp,green,ending_scream,scream,ending,c,negative,positive,ES_green,1,c,1232,1457930,1458434,1458638
111,first,29,lustig,IAT_purple2.bmp,purple,starting_scream,scream,starting,m,positive,negative,ES_green,1,m,1229,1460943,1461447,1461651
111,first,30,sanft,IAT_purple3.bmp,purple,starting_scream,scream,starting,m,positive,negative,ES_green,1,m,556,1463953,1464457,1464661
111,first,31,gerecht,IAT_purple3.bmp,purple,starting_scream,scream,starting,m,positive,negative,ES_green,1,m,745,1466291,1466795,1466999
111,first,32,sonnig,IAT_yellow1.bmp,yellow,starting_melody,melody,starting,m,positive,positive,ES_green,1,m,558,1468818,1469322,1469526
111,first,33,krank,IAT_red1.bmp,red,ending_melody,melody,ending,c,negative,negative,ES_green,0,m,1282,1471158,1471662,1471866
111,first,34,einsam,IAT_purple4.bmp,purple,starting_scream,scream,starting,c,negative,negative,ES_green,1,c,1437,1474722,1475226,1475431
111,first,35,kaputt,IAT_purple4.bmp,purple,starting_scream,scream,starting,c,negative,negative,ES_green,1,c,630,1477942,1478446,1478650
111,first,36,sozial,IAT_green2.bmp,green,ending_scream,scream,ending,m,positive,positive,ES_green,1,m,745,1480353,1480857,1481061
111,first,37,sonnig,IAT_red3.bmp,red,ending_melody,melody,ending,m,positive,negative,ES_green,0,None,1500,1482879,1483383,1483587
111,first,38,gierig,IAT_red3.bmp,red,ending_melody,melody,ending,c,negative,negative,ES_green,1,c,577,1486660,1487165,1487369
111,first,39,gesund,IAT_red1.bmp,red,ending_melody,melody,ending,m,positive,negative,ES_green,0,None,1500,1489020,1489524,1489728
111,first,40,witzig,IAT_red3.bmp,red,ending_melody,melody,ending,m,positive,negative,ES_green,1,m,538,1492801,1493306,1493510
111,first,41,ehrlich,IAT_green2.bmp,green,ending_scream,scream,ending,m,positive,positive,ES_green,1,m,563,1495122,1495627,1495831
111,first,42,gerecht,IAT_green4.bmp,green,ending_scream,scream,ending,m,positive,positive,ES_green,1,m,827,1497467,1497971,1498175
111,first,43,ehrlich,IAT_green1.bmp,green,ending_scream,scream,ending,m,positive,positive,ES_green,1,m,531,1500075,1500579,1500783
111,first,44,streng,IAT_red1.bmp,red,ending_melody,melody,ending,c,negative,negative,ES_green,1,c,513,1502387,1502891,1503095
111,first,45,geizig,IAT_yellow4.bmp,yellow,starting_melody,melody,starting,c,negative,positive,ES_green,1,c,594,1504682,1505187,1505391
111,first,46,feige,IAT_yellow4.bmp,yellow,starting_melody,melody,starting,c,negative,positive,ES_green,1,c,629,1507059,1507564,1507768
111,first,47,sonnig,IAT_green1.bmp,green,ending_scream,scream,ending,m,positive,positive,ES_green,1,m,729,1509471,1509976,1510180
111,first,48,geizig,IAT_green3.bmp,green,ending_scream,scream,ending,c,negative,positive,ES_green,1,c,507,1511982,1512487,1512691
111,first,49,gerecht,IAT_green3.bmp,green,ending_scream,scream,ending,m,positive,positive,ES_green,1,m,1200,1514271,1514776,1514980
111,first,50,lästig,IAT_purple3.bmp,purple,starting_scream,scream,starting,c,negative,negative,ES_green,1,c,552,1517253,1517757,1517961
111,first,51,ehrlich,IAT_yellow3.bmp,yellow,starting_melody,melody,starting,m,positive,positive,ES_green,1,m,526,1519587,1520091,1520295
111,first,52,sanft,IAT_red3.bmp,red,ending_melody,melody,ending,m,positive,negative,ES_green,1,m,999,1521894,1522399,1522603
111,first,53,morsch,IAT_purple1.bmp,purple,starting_scream,scream,starting,c,negative,negative,ES_green,1,c,481,1524676,1525180,1525384
111,first,54,witzig,IAT_yellow4.bmp,yellow,starting_melody,melody,starting,m,positive,positive,ES_green,1,m,521,1526939,1527444,1527648
111,first,55,geizig,IAT_yellow2.bmp,yellow,starting_melody,melody,starting,c,negative,positive,ES_green,1,c,774,1529243,1529747,1529951
111,first,56,heiter,IAT_yellow4.bmp,yellow,starting_melody,melody,starting,m,positive,positive,ES_green,1,m,626,1531798,1532302,1532506
111,first,57,gierig,IAT_green4.bmp,green,ending_scream,scream,ending,c,negative,positive,ES_green,1,c,879,1534204,1534709,1534913
111,first,58,morsch,IAT_red4.bmp,red,ending_melody,melody,ending,c,negative,negative,ES_green,1,c,1279,1536867,1537371,1537575
111,first,59,feige,IAT_purple2.bmp,purple,starting_scream,scream,starting,c,negative,negative,ES_green,1,c,518,1539927,1540431,1540635
111,first,60,witzig,IAT_red4.bmp,red,ending_melody,melody,ending,m,positive,negative,ES_green,1,m,604,1542227,1542731,1542935
111,first,61,gierig,IAT_red2.bmp,red,ending_melody,melody,ending,c,negative,negative,ES_green,1,c,519,1544613,1545118,1545322
111,first,62,falsch,IAT_yellow1.bmp,yellow,starting_melody,melody,starting,c,negative,positive,ES_green,1,c,685,1546914,1547418,1547622
111,first,63,einsam,IAT_red2.bmp,red,ending_melody,melody,ending,c,negative,negative,ES_green,1,c,711,1549380,1549884,1550088
111,first,64,brutal,IAT_purple2.bmp,purple,starting_scream,scream,starting,c,negative,negative,ES_green,1,c,531,1551873,1552378,1552582
111,first,65,gierig,IAT_green2.bmp,green,ending_scream,scream,ending,c,negative,positive,ES_green,1,c,1048,1554186,1554691,1554895
111,first,66,human,IAT_yellow3.bmp,yellow,starting_melody,melody,starting,m,positive,positive,ES_green,1,m,881,1557017,1557521,1557725
111,first,67,munter,IAT_red1.bmp,red,ending_melody,melody,ending,m,positive,negative,ES_green,1,m,561,1559680,1560184,1560388
111,first,68,lästig,IAT_yellow2.bmp,yellow,starting_melody,melody,starting,c,negative,positive,ES_green,1,c,471,1562024,1562528,1562732
111,first,69,sonnig,IAT_purple3.bmp,purple,starting_scream,scream,starting,m,positive,negative,ES_green,1,m,569,1564275,1564779,1564983
111,first,70,krank,IAT_red4.bmp,red,ending_melody,melody,ending,c,negative,negative,ES_green,1,c,524,1566625,1567130,1567334
111,first,71,human,IAT_yellow3.bmp,yellow,starting_melody,melody,starting,m,positive,positive,ES_green,1,m,739,1568933,1569437,1569641
111,first,72,sozial,IAT_red2.bmp,red,ending_melody,melody,ending,m,positive,negative,ES_green,1,m,884,1571454,1571958,1572162
111,first,73,teuer,IAT_purple4.bmp,purple,starting_scream,scream,starting,c,negative,negative,ES_green,1,c,647,1574119,1574623,1574827
111,first,74,streng,IAT_red2.bmp,red,ending_melody,melody,ending,c,negative,negative,ES_green,1,c,679,1576548,1577052,1577256
111,first,75,schön,IAT_red1.bmp,red,ending_melody,melody,ending,m,positive,negative,ES_green,1,m,732,1579009,1579513,1579717
111,first,76,human,IAT_red1.bmp,red,ending_melody,melody,ending,m,positive,negative,ES_green,1,m,533,1581523,1582031,1582238
111,first,77,schön,IAT_green3.bmp,green,ending_scream,scream,ending,m,positive,positive,ES_green,1,m,514,1583846,1584350,1584554
111,first,78,munter,IAT_purple3.bmp,purple,starting_scream,scream,starting,m,positive,negative,ES_green,1,m,857,1586142,1586646,1586850
111,first,79,gesund,IAT_purple1.bmp,purple,starting_scream,scream,starting,m,positive,negative,ES_green,1,m,444,1588781,1589285,1589489
111,first,80,kaputt,IAT_red4.bmp,red,ending_melody,melody,ending,c,negative,negative,ES_green,0,m,781,1591007,1591511,1591715
111,first,81,sanft,IAT_green3.bmp,green,ending_scream,scream,ending,m,positive,positive,ES_green,1,m,444,1594070,1594575,1594779
111,first,82,feige,IAT_purple4.bmp,purple,starting_scream,scream,starting,c,negative,negative,ES_green,1,c,534,1596296,1596800,1597004
111,first,83,sozial,IAT_yellow2.bmp,yellow,starting_melody,melody,starting,m,positive,positive,ES_green,0,c,950,1598612,1599116,1599320
111,first,84,brutal,IAT_green2.bmp,green,ending_scream,scream,ending,c,negative,positive,ES_green,1,c,818,1601843,1602348,1602552
111,first,85,falsch,IAT_yellow3.bmp,yellow,starting_melody,melody,starting,c,negative,positive,ES_green,0,m,1171,1604444,1604948,1605152
111,first,86,teuer,IAT_yellow4.bmp,yellow,starting_melody,melody,starting,c,negative,positive,ES_green,1,c,664,1607897,1608401,1608605
111,first,87,munter,IAT_purple1.bmp,purple,starting_scream,scream,starting,m,positive,negative,ES_green,1,m,683,1610343,1610847,1611051
111,first,88,lustig,IAT_purple4.bmp,purple,starting_scream,scream,starting,m,positive,negative,ES_green,1,m,645,1612808,1613312,1613516
111,first,89,human,IAT_purple1.bmp,purple,starting_scream,scream,starting,m,positive,negative,ES_green,1,m,554,1615235,1615739,1615943
111,first,90,gesund,IAT_purple2.bmp,purple,starting_scream,scream,starting,m,positive,negative,ES_green,1,m,520,1617572,1618076,1618280
111,first,91,heiter,IAT_yellow1.bmp,yellow,starting_melody,melody,starting,m,positive,positive,ES_green,1,m,960,1619875,1620380,1620584
111,first,92,krank,IAT_green1.bmp,green,ending_scream,scream,ending,c,negative,positive,ES_green,0,m,638,1622618,1623122,1623326
111,first,93,einsam,IAT_green3.bmp,green,ending_scream,scream,ending,c,negative,positive,ES_green,1,c,1030,1625538,1626043,1626247
111,first,94,lustig,IAT_yellow1.bmp,yellow,starting_melody,melody,starting,m,positive,positive,ES_green,1,m,850,1628352,1628856,1629060
111,first,95,teuer,IAT_purple2.bmp,purple,starting_scream,scream,starting,c,negative,negative,ES_green,1,c,874,1630984,1631488,1631692
111,second,0,falsch,IAT_red2.bmp,red,ending_melody,melody,ending,c,negative,negative,ES_green,1,c,636,1642330,1642834,1643038
111,second,1,sonnig,IAT_yellow3.bmp,yellow,starting_melody,melody,starting,m,positive,positive,ES_green,1,m,477,1644748,1645252,1645456
111,second,2,schön,IAT_purple3.bmp,purple,starting_scream,scream,starting,m,positive,negative,ES_green,1,m,511,1647005,1647509,1647713
111,second,3,einsam,IAT_purple4.bmp,purple,starting_scream,scream,starting,c,negative,negative,ES_green,1,c,559,1649297,1649801,1650005
111,second,4,geizig,IAT_purple1.bmp,purple,starting_scream,scream,starting,c,negative,negative,ES_green,1,c,728,1651637,1652142,1652346
111,second,5,lästig,IAT_green4.bmp,green,ending_scream,scream,ending,c,negative,positive,ES_green,1,c,465,1654147,1654652,1654856
111,second,6,gierig,IAT_yellow2.bmp,yellow,starting_melody,melody,starting,c,negative,positive,ES_green,1,c,566,1656394,1656898,1657102
111,second,7,witzig,IAT_yellow2.bmp,yellow,starting_melody,melody,starting,m,positive,positive,ES_green,1,m,571,1658742,1659246,1659450
111,second,8,munter,IAT_red1.bmp,red,ending_melody,melody,ending,m,positive,negative,ES_green,1,m,1179,1661095,1661599,1661803
111,second,9,ehrlich,IAT_red3.bmp,red,ending_melody,melody,ending,m,positive,negative,ES_green,1,m,605,1664054,1664559,1664763
111,second,10,einsam,IAT_purple4.bmp,purple,starting_scream,scream,starting,c,negative,negative,ES_green,1,c,704,1666440,1666945,1667149
111,second,11,lustig,IAT_green3.bmp,green,ending_scream,scream,ending,m,positive,positive,ES_green,1,m,591,1668927,1669431,1669635
111,second,12,geizig,IAT_red4.bmp,red,ending_melody,melody,ending,c,negative,negative,ES_green,1,c,605,1671299,1671803,1672007
111,second,13,ehrlich,IAT_green1.bmp,green,ending_scream,scream,ending,m,positive,positive,ES_green,1,m,1013,1673684,1674188,1674392
111,second,14,witzig,IAT_green3.bmp,green,ending_scream,scream,ending,m,positive,positive,ES_green,0,c,678,1676479,1676983,1677187
111,second,15,human,IAT_red4.bmp,red,ending_melody,melody,ending,m,positive,negative,ES_green,1,m,583,1679439,1679944,1680148
111,second,16,munter,IAT_green3.bmp,green,ending_scream,scream,ending,m,positive,positive,ES_green,1,m,556,1681804,1682308,1682512
111,second,17,gesund,IAT_green3.bmp,green,ending_scream,scream,ending,m,positive,positive,ES_green,1,m,461,1684142,1684647,1684851
111,second,18,heiter,IAT_yellow3.bmp,yellow,starting_melody,melody,starting,m,positive,positive,ES_green,1,m,497,1686384,1686889,1687093
111,second,19,teuer,IAT_yellow2.bmp,yellow,starting_melody,melody,starting,c,negative,positive,ES_green,1,c,568,1688663,1689167,1689371
111,second,20,gerecht,IAT_purple3.bmp,purple,starting_scream,scream,starting,m,positive,negative,ES_green,1,m,600,1691012,1691516,1691720
111,second,21,einsam,IAT_purple4.bmp,purple,starting_scream,scream,starting,c,negative,negative,ES_green,1,c,670,1693393,1693898,1694102
111,second,22,krank,IAT_yellow3.bmp,yellow,starting_melody,melody,starting,c,negative,positive,ES_green,1,c,858,1695845,1696350,1696554
111,second,23,schön,IAT_yellow4.bmp,yellow,starting_melody,melody,starting,m,positive,positive,ES_green,1,m,955,1698486,1698990,1699194
111,second,24,morsch,IAT_green2.bmp,green,ending_scream,scream,ending,c,negative,positive,ES_green,1,c,842,1701223,1701727,1701931
111,second,25,kaputt,IAT_purple2.bmp,purple,starting_scream,scream,starting,c,negative,negative,ES_green,1,c,908,1703847,1704351,1704555
111,second,26,feige,IAT_green4.bmp,green,ending_scream,scream,ending,c,negative,positive,ES_green,1,c,568,1706537,1707042,1707246
111,second,27,lästig,IAT_red4.bmp,red,ending_melody,melody,ending,c,negative,negative,ES_green,1,c,1253,1708888,1709392,1709596
111,second,28,ehrlich,IAT_green1.bmp,green,ending_scream,scream,ending,m,positive,positive,ES_green,1,m,1455,1711923,1712427,1712631
111,second,29,gierig,IAT_red4.bmp,red,ending_melody,melody,ending,c,negative,negative,ES_green,1,c,627,1715160,1715664,1715868
111,second,30,morsch,IAT_purple1.bmp,purple,starting_scream,scream,starting,c,negative,negative,ES_green,1,c,697,1717568,1718072,1718276
111,second,31,sonnig,IAT_red3.bmp,red,ending_melody,melody,ending,m,positive,negative,ES_green,1,m,512,1720047,1720551,1720755
111,second,32,krank,IAT_purple4.bmp,purple,starting_scream,scream,starting,c,negative,negative,ES_green,1,c,787,1722343,1722847,1723051
111,second,33,lästig,IAT_green2.bmp,green,ending_scream,scream,ending,c,negative,positive,ES_green,1,c,635,1724912,1725416,1725620
111,second,34,kaputt,IAT_green2.bmp,green,ending_scream,scream,ending,c,negative,positive,ES_green,1,c,550,1727328,1727832,1728036
111,second,35,witzig,IAT_yellow1.bmp,yellow,starting_melody,melody,starting,m,positive,positive,ES_green,1,m,610,1729660,1730165,1730369
111,second,36,streng,IAT_yellow4.bmp,yellow,starting_melody,melody,starting,c,negative,positive,ES_green,1,c,659,1732054,1732558,1732762
111,second,37,lästig,IAT_green2.bmp,green,ending_scream,scream,ending,c,negative,positive,ES_green,1,c,562,1734495,1735000,1735204
111,second,38,sozial,IAT_green4.bmp,green,ending_scream,scream,ending,m,positive,positive,ES_green,0,c,505,1736840,1737344,1737548
111,second,39,feige,IAT_purple3.bmp,purple,starting_scream,scream,starting,c,negative,negative,ES_green,1,c,730,1739626,1740131,1740335
111,second,40,munter,IAT_yellow3.bmp,yellow,starting_melody,melody,starting,m,positive,positive,ES_green,1,m,630,1742138,1742643,1742847
111,second,41,falsch,IAT_green4.bmp,green,ending_scream,scream,ending,c,negative,positive,ES_green,1,c,583,1744551,1745056,1745260
111,second,42,schön,IAT_purple1.bmp,purple,starting_scream,scream,starting,m,positive,negative,ES_green,0,c,961,1746917,1747421,1747625
111,second,43,teuer,IAT_green4.bmp,green,ending_scream,scream,ending,c,negative,positive,ES_green,1,c,911,1750159,1750664,1750868
111,second,44,witzig,IAT_red3.bmp,red,ending_melody,melody,ending,m,positive,negative,ES_green,1,m,639,1752853,1753357,1753561
111,second,45,gierig,IAT_yellow1.bmp,yellow,starting_melody,melody,starting,c,negative,positive,ES_green,1,c,1014,1755274,1755779,1755983
111,second,46,falsch,IAT_yellow4.bmp,yellow,starting_melody,melody,starting,c,negative,positive,ES_green,1,c,765,1758072,1758576,1758780
111,second,47,einsam,IAT_green3.bmp,green,ending_scream,scream,ending,c,negative,positive,ES_green,1,c,750,1760619,1761123,1761327
111,second,48,schön,IAT_yellow1.bmp,yellow,starting_melody,melody,starting,m,positive,positive,ES_green,1,m,555,1763152,1763656,1763860
111,second,49,gerecht,IAT_purple3.bmp,purple,starting_scream,scream,starting,m,positive,negative,ES_green,1,m,628,1765488,1765993,1766197
111,second,50,streng,IAT_purple3.bmp,purple,starting_scream,scream,starting,c,negative,negative,ES_green,1,c,521,1767898,1768402,1768606
111,second,51,sonnig,IAT_yellow1.bmp,yellow,starting_melody,melody,starting,m,positive,positive,ES_green,1,m,736,1770202,1770706,1770910
111,second,52,krank,IAT_yellow2.bmp,yellow,starting_melody,melody,starting,c,negative,positive,ES_green,1,c,762,1772720,1773224,1773428
111,second,53,teuer,IAT_purple2.bmp,purple,starting_scream,scream,starting,c,negative,negative,ES_green,1,c,629,1775264,1775768,1775972
111,second,54,sanft,IAT_red1.bmp,red,ending_melody,melody,ending,m,positive,negative,ES_green,1,m,858,1777675,1778179,1778383
111,second,55,human,IAT_green2.bmp,green,ending_scream,scream,ending,m,positive,positive,ES_green,1,m,660,1780314,1780818,1781022
111,second,56,lustig,IAT_red3.bmp,red,ending_melody,melody,ending,m,positive,negative,ES_green,1,m,745,1782756,1783260,1783464
111,second,57,gesund,IAT_purple1.bmp,purple,starting_scream,scream,starting,m,positive,negative,ES_green,1,m,973,1785284,1785788,1785992
111,second,58,morsch,IAT_green1.bmp,green,ending_scream,scream,ending,c,negative,positive,ES_green,1,c,658,1788038,1788542,1788746
111,second,59,sozial,IAT_purple3.bmp,purple,starting_scream,scream,starting,m,positive,negative,ES_green,1,m,620,1790478,1790982,1791186
111,second,60,gerecht,IAT_purple1.bmp,purple,starting_scream,scream,starting,m,positive,negative,ES_green,1,m,694,1792881,1793385,1793589
111,second,61,krank,IAT_red4.bmp,red,ending_melody,melody,ending,c,negative,negative,ES_green,1,c,715,1795357,1795861,1796065
111,second,62,human,IAT_red4.bmp,red,ending_melody,melody,ending,m,positive,negative,ES_green,1,m,1034,1797854,1798358,1798562
111,second,63,falsch,IAT_green3.bmp,green,ending_scream,scream,ending,c,negative,positive,ES_green,1,c,507,1800670,1801174,1801378
111,second,64,ehrlich,IAT_yellow1.bmp,yellow,starting_melody,melody,starting,m,positive,positive,ES_green,1,m,866,1802959,1803463,1803667
111,second,65,feige,IAT_purple2.bmp,purple,starting_scream,scream,starting,c,negative,negative,ES_green,1,c,431,1805607,1806111,1806315
111,second,66,brutal,IAT_purple2.bmp,purple,starting_scream,scream,starting,c,negative,negative,ES_green,1,c,785,1807820,1808325,1808529
111,second,67,feige,IAT_yellow3.bmp,yellow,starting_melody,melody,starting,c,negative,positive,ES_green,0,m,911,1810388,1810892,1811096
111,second,68,sanft,IAT_purple4.bmp,purple,starting_scream,scream,starting,m,positive,negative,ES_green,1,m,561,1813582,1814086,1814290
111,second,69,brutal,IAT_red2.bmp,red,ending_melody,melody,ending,c,negative,negative,ES_green,1,c,737,1815926,1816430,1816634
111,second,70,gierig,IAT_green1.bmp,green,ending_scream,scream,ending,c,negative,positive,ES_green,1,c,908,1818445,1818949,1819153
111,second,71,kaputt,IAT_red1.bmp,red,ending_melody,melody,ending,c,negative,negative,ES_green,1,c,524,1821134,1821639,1821843
111,second,72,teuer,IAT_yellow4.bmp,yellow,starting_melody,melody,starting,c,negative,positive,ES_green,1,c,916,1823442,1823947,1824151
111,second,73,gesund,IAT_red2.bmp,red,ending_melody,melody,ending,m,positive,negative,ES_green,1,m,877,1826143,1826648,1826852
111,second,74,brutal,IAT_red1.bmp,red,ending_melody,melody,ending,c,negative,negative,ES_green,1,c,510,1828803,1829307,1829511
111,second,75,streng,IAT_yellow2.bmp,yellow,starting_melody,melody,starting,c,negative,positive,ES_green,1,c,1082,1831095,1831599,1831803
111,second,76,sozial,IAT_red1.bmp,red,ending_melody,melody,ending,m,positive,negative,ES_green,1,m,649,1833960,1834465,1834669
111,second,77,geizig,IAT_yellow4.bmp,yellow,starting_melody,melody,starting,c,negative,positive,ES_green,1,c,808,1836393,1836897,1837101
111,second,78,human,IAT_red1.bmp,red,ending_melody,melody,ending,m,positive,negative,ES_green,1,m,643,1838983,1839487,1839691
111,second,79,streng,IAT_yellow1.bmp,yellow,starting_melody,melody,starting,c,negative,positive,ES_green,1,c,593,1841410,1841914,1842119
111,second,80,heiter,IAT_purple1.bmp,purple,starting_scream,scream,starting,m,positive,negative,ES_green,1,m,468,1843786,1844290,1844494
111,second,81,brutal,IAT_red2.bmp,red,ending_melody,melody,ending,c,negative,negative,ES_green,1,c,444,1846036,1846540,1846744
111,second,82,gesund,IAT_purple2.bmp,purple,starting_scream,scream,starting,m,positive,negative,ES_green,1,m,558,1848264,1848768,1848972
111,second,83,sonnig,IAT_green2.bmp,green,ending_scream,scream,ending,m,positive,positive,ES_green,1,m,658,1850604,1851108,1851312
111,second,84,kaputt,IAT_red3.bmp,red,ending_melody,melody,ending,c,negative,negative,ES_green,1,c,786,1853045,1853549,1853753
111,second,85,munter,IAT_green1.bmp,green,ending_scream,scream,ending,m,positive,positive,ES_green,1,m,987,1855614,1856118,1856322
111,second,86,heiter,IAT_yellow2.bmp,yellow,starting_melody,melody,starting,m,positive,positive,ES_green,1,m,1028,1858383,1858887,1859091
111,second,87,morsch,IAT_red3.bmp,red,ending_melody,melody,ending,c,negative,negative,ES_green,1,c,551,1861193,1861697,1861901
111,second,88,sozial,IAT_green1.bmp,green,ending_scream,scream,ending,m,positive,positive,ES_green,0,c,601,1863526,1864030,1864234
111,second,89,lustig,IAT_purple4.bmp,purple,starting_scream,scream,starting,m,positive,negative,ES_green,1,m,803,1866409,1866913,1867117
111,second,90,sanft,IAT_red2.bmp,red,ending_melody,melody,ending,m,positive,negative,ES_green,1,m,553,1868994,1869499,1869703
111,second,91,gerecht,IAT_yellow3.bmp,yellow,starting_melody,melody,starting,m,positive,positive,ES_green,1,m,859,1871331,1871836,1872040
111,second,92,heiter,IAT_yellow4.bmp,yellow,starting_melody,melody,starting,m,positive,positive,ES_green,1,m,811,1873974,1874478,1874682
111,second,93,sanft,IAT_purple2.bmp,purple,starting_scream,scream,starting,m,positive,negative,ES_green,1,m,662,1876568,1877072,1877276
111,second,94,lustig,IAT_green4.bmp,green,ending_scream,scream,ending,m,positive,positive,ES_green,1,m,420,1879013,1879517,1879721
111,second,95,geizig,IAT_red2.bmp,red,ending_melody,melody,ending,c,negative,negative,ES_green,1,c,437,1881215,1881719,1881923
111,third,0,gesund,IAT_purple1.bmp,purple,starting_scream,scream,starting,m,positive,negative,ES_green,1,m,683,1887469,1887973,1888177
111,third,1,einsam,IAT_red2.bmp,red,ending_melody,melody,ending,c,negative,negative,ES_green,0,m,530,1889934,1890438,1890642
111,third,2,lästig,IAT_yellow1.bmp,yellow,starting_melody,melody,starting,c,negative,positive,ES_green,1,c,642,1892747,1893251,1893455
111,third,3,sonnig,IAT_yellow2.bmp,yellow,starting_melody,melody,starting,m,positive,positive,ES_green,1,m,662,1895171,1895675,1895879
111,third,4,gesund,IAT_red2.bmp,red,ending_melody,melody,ending,m,positive,negative,ES_green,1,m,501,1897615,1898119,1898323
111,third,5,munter,IAT_green1.bmp,green,ending_scream,scream,ending,m,positive,positive,ES_green,1,m,552,1899896,1900400,1900604
111,third,6,morsch,IAT_yellow2.bmp,yellow,starting_melody,melody,starting,c,negative,positive,ES_green,0,m,533,1902231,1902735,1902939
111,third,7,sonnig,IAT_purple4.bmp,purple,starting_scream,scream,starting,m,positive,negative,ES_green,1,m,1074,1905045,1905549,1905753
111,third,8,teuer,IAT_green2.bmp,green,ending_scream,scream,ending,c,negative,positive,ES_green,1,c,904,1907901,1908405,1908609
111,third,9,brutal,IAT_purple3.bmp,purple,starting_scream,scream,starting,c,negative,negative,ES_green,1,c,603,1910586,1911091,1911295
111,third,10,geizig,IAT_purple4.bmp,purple,starting_scream,scream,starting,c,negative,negative,ES_green,1,c,525,1912972,1913476,1913680
111,third,11,witzig,IAT_red3.bmp,red,ending_melody,melody,ending,m,positive,negative,ES_green,1,m,652,1915279,1915783,1915987
111,third,12,munter,IAT_green2.bmp,green,ending_scream,scream,ending,m,positive,positive,ES_green,1,m,884,1917712,1918217,1918421
111,third,13,krank,IAT_yellow4.bmp,yellow,starting_melody,melody,starting,c,negative,positive,ES_green,1,c,593,1920379,1920883,1921087
111,third,14,kaputt,IAT_green4.bmp,green,ending_scream,scream,ending,c,negative,positive,ES_green,1,c,857,1922754,1923258,1923462
111,third,15,brutal,IAT_green2.bmp,green,ending_scream,scream,ending,c,negative,positive,ES_green,1,c,544,1925392,1925897,1926101
111,third,16,lustig,IAT_purple3.bmp,purple,starting_scream,scream,starting,m,positive,negative,ES_green,1,m,845,1927718,1928222,1928426
111,third,17,geizig,IAT_red1.bmp,red,ending_melody,melody,ending,c,negative,negative,ES_green,1,c,1017,1930345,1930849,1931053
111,third,18,human,IAT_yellow4.bmp,yellow,starting_melody,melody,starting,m,positive,positive,ES_green,1,m,555,1933144,1933648,1933852
111,third,19,krank,IAT_green1.bmp,green,ending_scream,scream,ending,c,negative,positive,ES_green,1,c,567,1935480,1935985,1936189
111,third,20,gerecht,IAT_red2.bmp,red,ending_melody,melody,ending,m,positive,negative,ES_green,1,m,658,1937830,1938335,1938539
111,third,21,feige,IAT_yellow4.bmp,yellow,starting_melody,melody,starting,c,negative,positive,ES_green,1,c,660,1940271,1940776,1940980
111,third,22,sanft,IAT_yellow3.bmp,yellow,starting_melody,melody,starting,m,positive,positive,ES_green,1,m,475,1942713,1943218,1943422
111,third,23,kaputt,IAT_red4.bmp,red,ending_melody,melody,ending,c,negative,negative,ES_green,1,c,579,1944972,1945476,1945680
111,third,24,lästig,IAT_green2.bmp,green,ending_scream,scream,ending,c,negative,positive,ES_green,1,c,660,1947332,1947837,1948041
111,third,25,ehrlich,IAT_red1.bmp,red,ending_melody,melody,ending,m,positive,negative,ES_green,1,m,559,1949775,1950279,1950483
111,third,26,einsam,IAT_purple1.bmp,purple,starting_scream,scream,starting,c,negative,negative,ES_green,1,c,1164,1952116,1952620,1952824
111,third,27,morsch,IAT_green3.bmp,green,ending_scream,scream,ending,c,negative,positive,ES_green,1,c,675,1955063,1955567,1955771
111,third,28,streng,IAT_red2.bmp,red,ending_melody,melody,ending,c,negative,negative,ES_green,1,c,576,1957520,1958024,1958228
111,third,29,gerecht,IAT_green3.bmp,green,ending_scream,scream,ending,m,positive,positive,ES_green,1,m,1124,1959879,1960384,1960588
111,third,30,feige,IAT_purple2.bmp,purple,starting_scream,scream,starting,c,negative,negative,ES_green,1,c,1286,1962786,1963290,1963494
111,third,31,sozial,IAT_red4.bmp,red,ending_melody,melody,ending,m,positive,negative,ES_green,1,m,538,1965854,1966359,1966563
111,third,32,sanft,IAT_green3.bmp,green,ending_scream,scream,ending,m,positive,positive,ES_green,1,m,622,1968175,1968679,1968883
111,third,33,gierig,IAT_red4.bmp,red,ending_melody,melody,ending,c,negative,negative,ES_green,1,c,571,1970580,1971084,1971288
111,third,34,lustig,IAT_red1.bmp,red,ending_melody,melody,ending,m,positive,negative,ES_green,1,m,510,1972933,1973437,1973641
111,third,35,schön,IAT_green1.bmp,green,ending_scream,scream,ending,m,positive,positive,ES_green,0,c,1220,1975224,1975728,1975932
111,third,36,heiter,IAT_yellow3.bmp,yellow,starting_melody,melody,starting,m,positive,positive,ES_green,0,c,1334,1978725,1979230,1979434
111,third,37,witzig,IAT_red4.bmp,red,ending_melody,melody,ending,m,positive,negative,ES_green,1,m,531,1982342,1982846,1983050
111,third,38,kaputt,IAT_red2.bmp,red,ending_melody,melody,ending,c,negative,negative,ES_green,1,c,796,1984655,1985159,1985363
111,third,39,gesund,IAT_yellow1.bmp,yellow,starting_melody,melody,starting,m,positive,positive,ES_green,1,m,710,1987234,1987738,1987942
111,third,40,sozial,IAT_purple1.bmp,purple,starting_scream,scream,starting,m,positive,negative,ES_green,1,m,502,1989725,1990230,1990434
111,third,41,brutal,IAT_yellow4.bmp,yellow,starting_melody,melody,starting,c,negative,positive,ES_green,1,c,773,1992010,1992514,1992718
111,third,42,lustig,IAT_green4.bmp,green,ending_scream,scream,ending,m,positive,positive,ES_green,1,m,644,1994565,1995069,1995273
111,third,43,heiter,IAT_green1.bmp,green,ending_scream,scream,ending,m,positive,positive,ES_green,0,c,873,1996991,1997495,1997699
111,third,44,kaputt,IAT_purple1.bmp,purple,starting_scream,scream,starting,c,negative,negative,ES_green,1,c,625,2000145,2000650,2000854
111,third,45,sonnig,IAT_purple3.bmp,purple,starting_scream,scream,starting,m,positive,negative,ES_green,1,m,736,2002553,2003057,2003261
111,third,46,human,IAT_purple4.bmp,purple,starting_scream,scream,starting,m,positive,negative,ES_green,1,m,587,2005071,2005575,2005779
111,third,47,lästig,IAT_red4.bmp,red,ending_melody,melody,ending,c,negative,negative,ES_green,1,c,631,2007440,2007944,2008148
111,third,48,feige,IAT_purple4.bmp,purple,starting_scream,scream,starting,c,negative,negative,ES_green,1,c,468,2009853,2010357,2010561
111,third,49,gesund,IAT_purple3.bmp,purple,starting_scream,scream,starting,m,positive,negative,ES_green,1,m,581,2012103,2012607,2012811
111,third,50,brutal,IAT_red1.bmp,red,ending_melody,melody,ending,c,negative,negative,ES_green,1,c,502,2014466,2014970,2015174
111,third,51,falsch,IAT_red4.bmp,red,ending_melody,melody,ending,c,negative,negative,ES_green,1,c,461,2016752,2017256,2017460
111,third,52,lustig,IAT_purple2.bmp,purple,starting_scream,scream,starting,m,positive,negative,ES_green,1,m,470,2018996,2019500,2019704
111,third,53,human,IAT_yellow2.bmp,yellow,starting_melody,melody,starting,m,positive,positive,ES_green,1,m,476,2021248,2021752,2021956
111,third,54,feige,IAT_yellow4.bmp,yellow,starting_melody,melody,starting,c,negative,positive,ES_green,1,c,477,2023506,2024010,2024214
111,third,55,ehrlich,IAT_red1.bmp,red,ending_melody,melody,ending,m,positive,negative,ES_green,1,m,533,2025764,2026269,2026473
111,third,56,sanft,IAT_green3.bmp,green,ending_scream,scream,ending,m,positive,positive,ES_green,0,c,372,2028081,2028585,2028789
111,third,57,einsam,IAT_green4.bmp,green,ending_scream,scream,ending,c,negative,positive,ES_green,1,c,604,2030736,2031240,2031444
111,third,58,teuer,IAT_yellow2.bmp,yellow,starting_melody,melody,starting,c,negative,positive,ES_green,1,c,590,2033123,2033627,2033831
111,third,59,schön,IAT_yellow3.bmp,yellow,starting_melody,melody,starting,m,positive,positive,ES_green,0,c,443,2035495,2035999,2036203
111,third,60,munter,IAT_green4.bmp,green,ending_scream,scream,ending,m,positive,positive,ES_green,1,m,582,2038220,2038724,2038928
111,third,61,streng,IAT_yellow2.bmp,yellow,starting_melody,melody,starting,c,negative,positive,ES_green,1,c,543,2040584,2041089,2041293
111,third,62,gerecht,IAT_yellow4.bmp,yellow,starting_melody,melody,starting,m,positive,positive,ES_green,1,m,676,2042911,2043415,2043619
111,third,63,gierig,IAT_yellow3.bmp,yellow,starting_melody,melody,starting,c,negative,positive,ES_green,1,c,553,2045369,2045873,2046077
111,third,64,geizig,IAT_red3.bmp,red,ending_melody,melody,ending,c,negative,negative,ES_green,1,c,788,2047705,2048209,2048413
111,third,65,heiter,IAT_yellow3.bmp,yellow,starting_melody,melody,starting,m,positive,positive,ES_green,1,m,848,2050276,2050780,2050984
111,third,66,sozial,IAT_yellow1.bmp,yellow,starting_melody,melody,starting,m,positive,positive,ES_green,1,m,1203,2052907,2053411,2053615
111,third,67,witzig,IAT_green1.bmp,green,ending_scream,scream,ending,m,positive,positive,ES_green,1,m,1071,2055893,2056397,2056601
111,third,68,falsch,IAT_purple2.bmp,purple,starting_scream,scream,starting,c,negative,negative,ES_green,1,c,616,2058747,2059251,2059455
111,third,69,streng,IAT_green3.bmp,green,ending_scream,scream,ending,c,negative,positive,ES_green,1,c,572,2061145,2061649,2061853
111,third,70,gerecht,IAT_red1.bmp,red,ending_melody,melody,ending,m,positive,negative,ES_green,1,m,906,2063500,2064004,2064208
111,third,71,morsch,IAT_red2.bmp,red,ending_melody,melody,ending,c,negative,negative,ES_green,1,c,561,2066189,2066693,2066897
111,third,72,witzig,IAT_purple1.bmp,purple,starting_scream,scream,starting,m,positive,negative,ES_green,1,m,553,2068532,2069037,2069241
111,third,73,sanft,IAT_purple3.bmp,purple,starting_scream,scream,starting,m,positive,negative,ES_green,1,m,605,2070868,2071373,2071577
111,third,74,ehrlich,IAT_purple2.bmp,purple,starting_scream,scream,starting,m,positive,negative,ES_green,1,m,487,2073255,2073759,2073963
111,third,75,munter,IAT_red3.bmp,red,ending_melody,melody,ending,m,positive,negative,ES_green,1,m,748,2075524,2076029,2076233
111,third,76,falsch,IAT_purple2.bmp,purple,starting_scream,scream,starting,c,negative,negative,ES_green,1,c,604,2078057,2078561,2078765
111,third,77,gierig,IAT_green1.bmp,green,ending_scream,scream,ending,c,negative,positive,ES_green,1,c,1178,2080443,2080947,2081151
111,third,78,einsam,IAT_yellow1.bmp,yellow,starting_melody,melody,starting,c,negative,positive,ES_green,1,c,1033,2083404,2083908,2084112
111,third,79,gierig,IAT_green4.bmp,green,ending_scream,scream,ending,c,negative,positive,ES_green,1,c,1178,2086219,2086723,2086927
111,third,80,geizig,IAT_yellow2.bmp,yellow,starting_melody,melody,starting,c,negative,positive,ES_green,1,c,607,2089180,2089684,2089888
111,third,81,sozial,IAT_green3.bmp,green,ending_scream,scream,ending,m,positive,positive,ES_green,1,m,848,2091570,2092074,2092278
111,third,82,morsch,IAT_purple4.bmp,purple,starting_scream,scream,starting,c,negative,negative,ES_green,1,c,602,2094201,2094706,2094910
111,third,83,streng,IAT_red3.bmp,red,ending_melody,melody,ending,c,negative,negative,ES_green,1,c,640,2096587,2097091,2097295
111,third,84,krank,IAT_green4.bmp,green,ending_scream,scream,ending,c,negative,positive,ES_green,1,c,886,2099009,2099514,2099718
111,third,85,teuer,IAT_green2.bmp,green,ending_scream,scream,ending,c,negative,positive,ES_green,1,c,639,2101678,2102182,2102386
111,third,86,schön,IAT_purple1.bmp,purple,starting_scream,scream,starting,m,positive,negative,ES_green,1,m,608,2104100,2104604,2104808
111,third,87,falsch,IAT_purple3.bmp,purple,starting_scream,scream,starting,c,negative,negative,ES_green,1,c,457,2106490,2106994,2107198
111,third,88,lästig,IAT_purple2.bmp,purple,starting_scream,scream,starting,c,negative,negative,ES_green,1,c,516,2108730,2109234,2109438
111,third,89,sonnig,IAT_red3.bmp,red,ending_melody,melody,ending,m,positive,negative,ES_green,1,m,546,2111028,2111532,2111736
111,third,90,teuer,IAT_purple4.bmp,purple,starting_scream,scream,starting,c,negative,negative,ES_green,1,c,886,2113356,2113861,2114065
111,third,91,krank,IAT_yellow3.bmp,yellow,starting_melody,melody,starting,c,negative,positive,ES_green,1,c,584,2116025,2116530,2116734
111,third,92,schön,IAT_green2.bmp,green,ending_scream,scream,ending,m,positive,positive,ES_green,1,m,832,2118392,2118897,2119101
111,third,93,human,IAT_red3.bmp,red,ending_melody,melody,ending,m,positive,negative,ES_green,1,m,589,2121007,2121511,2121715
111,third,94,ehrlich,IAT_yellow1.bmp,yellow,starting_melody,melody,starting,m,positive,positive,ES_green,1,m,570,2123379,2123884,2124088
111,third,95,heiter,IAT_yellow1.bmp,yellow,starting_melody,melody,starting,m,positive,positive,ES_green,1,m,602,2125733,2126237,2126441
111,forth,0,sozial,IAT_purple3.bmp,purple,starting_scream,scream,starting,m,positive,negative,ES_green,1,m,783,2133541,2134046,2134250
111,forth,1,brutal,IAT_yellow3.bmp,yellow,starting_melody,melody,starting,c,negative,positive,ES_green,1,c,488,2136107,2136611,2136815
111,forth,2,witzig,IAT_green3.bmp,green,ending_scream,scream,ending,m,positive,positive,ES_green,1,m,435,2138376,2138880,2139084
111,forth,3,sonnig,IAT_green1.bmp,green,ending_scream,scream,ending,m,positive,positive,ES_green,1,m,478,2140593,2141097,2141301
111,forth,4,teuer,IAT_yellow2.bmp,yellow,starting_melody,melody,starting,c,negative,positive,ES_green,0,m,449,2142853,2143358,2143562
111,forth,5,human,IAT_red1.bmp,red,ending_melody,melody,ending,m,positive,negative,ES_green,1,m,528,2145585,2146090,2146294
111,forth,6,gerecht,IAT_yellow3.bmp,yellow,starting_melody,melody,starting,m,positive,positive,ES_green,1,m,608,2147895,2148399,2148603
111,forth,7,morsch,IAT_purple4.bmp,purple,starting_scream,scream,starting,c,negative,negative,ES_green,1,c,560,2150284,2150788,2150992
111,forth,8,einsam,IAT_yellow2.bmp,yellow,starting_melody,melody,starting,c,negative,positive,ES_green,0,m,447,2152626,2153130,2153334
111,forth,9,falsch,IAT_green2.bmp,green,ending_scream,scream,ending,c,negative,positive,ES_green,1,c,654,2155355,2155859,2156063
111,forth,10,kaputt,IAT_purple1.bmp,purple,starting_scream,scream,starting,c,negative,negative,ES_green,1,c,567,2157792,2158296,2158500
111,forth,11,ehrlich,IAT_yellow2.bmp,yellow,starting_melody,melody,starting,m,positive,positive,ES_green,1,m,501,2160143,2160647,2160851
111,forth,12,human,IAT_yellow1.bmp,yellow,starting_melody,melody,starting,m,positive,positive,ES_green,1,m,547,2162427,2162931,2163135
111,forth,13,witzig,IAT_green3.bmp,green,ending_scream,scream,ending,m,positive,positive,ES_green,1,m,518,2164755,2165260,2165464
111,forth,14,heiter,IAT_yellow1.bmp,yellow,starting_melody,melody,starting,m,positive,positive,ES_green,1,m,578,2167056,2167561,2167765
111,forth,15,sanft,IAT_green4.bmp,green,ending_scream,scream,ending,m,positive,positive,ES_green,1,m,548,2169416,2169921,2170125
111,forth,16,munter,IAT_purple1.bmp,purple,starting_scream,scream,starting,m,positive,negative,ES_green,1,m,628,2171747,2172251,2172455
111,forth,17,morsch,IAT_yellow4.bmp,yellow,starting_melody,melody,starting,c,negative,positive,ES_green,1,c,564,2174157,2174662,2174866
111,forth,18,witzig,IAT_green2.bmp,green,ending_scream,scream,ending,m,positive,positive,ES_green,1,m,531,2176504,2177008,2177212
111,forth,19,streng,IAT_red4.bmp,red,ending_melody,melody,ending,c,negative,negative,ES_green,1,c,490,2178817,2179321,2179525
111,forth,20,munter,IAT_green3.bmp,green,ending_scream,scream,ending,m,positive,positive,ES_green,1,m,822,2181089,2181593,2181797
111,forth,21,morsch,IAT_red2.bmp,red,ending_melody,melody,ending,c,negative,negative,ES_green,1,c,501,2183693,2184197,2184401
111,forth,22,schön,IAT_purple3.bmp,purple,starting_scream,scream,starting,m,positive,negative,ES_green,1,m,665,2185976,2186480,2186684
111,forth,23,munter,IAT_red4.bmp,red,ending_melody,melody,ending,m,positive,negative,ES_green,0,c,751,2188424,2188929,2189133
111,forth,24,schön,IAT_purple3.bmp,purple,starting_scream,scream,starting,m,positive,negative,ES_green,1,m,638,2191457,2191962,2192166
111,forth,25,gesund,IAT_green2.bmp,green,ending_scream,scream,ending,m,positive,positive,ES_green,1,m,812,2193878,2194383,2194587
111,forth,26,schön,IAT_red3.bmp,red,ending_melody,melody,ending,m,positive,negative,ES_green,1,m,499,2196474,2196979,2197183
111,forth,27,heiter,IAT_purple4.bmp,purple,starting_scream,scream,starting,m,positive,negative,ES_green,1,m,476,2198755,2199259,2199463
111,forth,28,lästig,IAT_yellow3.bmp,yellow,starting_melody,melody,starting,c,negative,positive,ES_green,1,c,609,2201013,2201517,2201721
111,forth,29,feige,IAT_green2.bmp,green,ending_scream,scream,ending,c,negative,positive,ES_green,1,c,592,2203404,2203909,2204113
111,forth,30,gierig,IAT_purple2.bmp,purple,starting_scream,scream,starting,c,negative,negative,ES_green,1,c,1411,2205779,2206283,2206487
111,forth,31,lustig,IAT_red3.bmp,red,ending_melody,melody,ending,m,positive,negative,ES_green,1,m,529,2208973,2209478,2209682
111,forth,32,streng,IAT_red4.bmp,red,ending_melody,melody,ending,c,negative,negative,ES_green,1,c,867,2211285,2211790,2211994
111,forth,33,morsch,IAT_green4.bmp,green,ending_scream,scream,ending,c,negative,positive,ES_green,1,c,596,2213934,2214439,2214643
111,forth,34,gerecht,IAT_purple2.bmp,purple,starting_scream,scream,starting,m,positive,negative,ES_green,1,m,650,2216313,2216817,2217021
111,forth,35,geizig,IAT_red1.bmp,red,ending_melody,melody,ending,c,negative,negative,ES_green,1,c,554,2218744,2219248,2219452
111,forth,36,falsch,IAT_yellow4.bmp,yellow,starting_melody,melody,starting,c,negative,positive,ES_green,0,m,677,2221080,2221584,2221788
111,forth,37,sonnig,IAT_green1.bmp,green,ending_scream,scream,ending,m,positive,positive,ES_green,1,m,556,2224039,2224543,2224747
111,forth,38,teuer,IAT_purple4.bmp,purple,starting_scream,scream,starting,c,negative,negative,ES_green,1,c,564,2226376,2226880,2227084
111,forth,39,gesund,IAT_purple4.bmp,purple,starting_scream,scream,starting,m,positive,negative,ES_green,1,m,648,2228722,2229227,2229431
111,forth,40,heiter,IAT_red1.bmp,red,ending_melody,melody,ending,m,positive,negative,ES_green,1,m,746,2231154,2231658,2231862
111,forth,41,streng,IAT_red3.bmp,red,ending_melody,melody,ending,c,negative,negative,ES_green,1,c,555,2233683,2234187,2234391
111,forth,42,brutal,IAT_purple4.bmp,purple,starting_scream,scream,starting,c,negative,negative,ES_green,1,c,592,2236021,2236525,2236729
111,forth,43,sozial,IAT_yellow4.bmp,yellow,starting_melody,melody,starting,m,positive,positive,ES_green,1,m,635,2238395,2238899,2239103
111,forth,44,sonnig,IAT_purple1.bmp,purple,starting_scream,scream,starting,m,positive,negative,ES_green,1,m,700,2240812,2241316,2241520
111,forth,45,feige,IAT_green1.bmp,green,ending_scream,scream,ending,c,negative,positive,ES_green,1,c,824,2243294,2243798,2244002
111,forth,46,krank,IAT_red4.bmp,red,ending_melody,melody,ending,c,negative,negative,ES_green,1,c,759,2245901,2246406,2246610
111,forth,47,gierig,IAT_yellow1.bmp,yellow,starting_melody,melody,starting,c,negative,positive,ES_green,0,m,977,2248444,2248948,2249152
111,forth,48,lästig,IAT_yellow4.bmp,yellow,starting_melody,melody,starting,c,negative,positive,ES_green,1,c,609,2251704,2252208,2252412
111,forth,49,lustig,IAT_red4.bmp,red,ending_melody,melody,ending,m,positive,negative,ES_green,1,m,650,2254096,2254600,2254804
111,forth,50,gesund,IAT_green4.bmp,green,ending_scream,scream,ending,m,positive,positive,ES_green,1,m,686,2256528,2257033,2257237
111,forth,51,krank,IAT_purple1.bmp,purple,starting_scream,scream,starting,c,negative,negative,ES_green,1,c,693,2258999,2259503,2259707
111,forth,52,witzig,IAT_red2.bmp,red,ending_melody,melody,ending,m,positive,negative,ES_green,1,m,800,2261475,2261979,2262183
111,forth,53,sozial,IAT_yellow4.bmp,yellow,starting_melody,melody,starting,m,positive,positive,ES_green,1,m,652,2264058,2264562,2264766
111,forth,54,sanft,IAT_yellow3.bmp,yellow,starting_melody,melody,starting,m,positive,positive,ES_green,1,m,998,2266493,2266998,2267202
111,forth,55,geizig,IAT_red2.bmp,red,ending_melody,melody,ending,c,negative,negative,ES_green,1,c,1001,2269273,2269778,2269982
111,forth,56,brutal,IAT_purple4.bmp,purple,starting_scream,scream,starting,c,negative,negative,ES_green,1,c,745,2272057,2272562,2272766
111,forth,57,ehrlich,IAT_green1.bmp,green,ending_scream,scream,ending,m,positive,positive,ES_green,1,m,565,2274586,2275090,2275294
111,forth,58,heiter,IAT_yellow2.bmp,yellow,starting_melody,melody,starting,m,positive,positive,ES_green,1,m,605,2276933,2277438,2277642
111,forth,59,geizig,IAT_green4.bmp,green,ending_scream,scream,ending,c,negative,positive,ES_green,1,c,814,2279322,2279826,2280030
111,forth,60,kaputt,IAT_green1.bmp,green,ending_scream,scream,ending,c,negative,positive,ES_green,1,c,618,2281919,2282423,2282627
111,forth,61,teuer,IAT_yellow4.bmp,yellow,starting_melody,melody,starting,c,negative,positive,ES_green,1,c,533,2284318,2284823,2285027
111,forth,62,einsam,IAT_yellow1.bmp,yellow,starting_melody,melody,starting,c,negative,positive,ES_green,1,c,842,2286635,2287139,2287343
111,forth,63,streng,IAT_purple2.bmp,purple,starting_scream,scream,starting,c,negative,negative,ES_green,1,c,1176,2289262,2289766,2289970
111,forth,64,feige,IAT_green4.bmp,green,ending_scream,scream,ending,c,negative,positive,ES_green,1,c,635,2292222,2292726,2292930
111,forth,65,krank,IAT_red2.bmp,red,ending_melody,melody,ending,c,negative,negative,ES_green,1,c,534,2294640,2295144,2295348
111,forth,66,feige,IAT_red2.bmp,red,ending_melody,melody,ending,c,negative,negative,ES_green,1,c,477,2296957,2297461,2297665
111,forth,67,gerecht,IAT_yellow3.bmp,yellow,starting_melody,melody,starting,m,positive,positive,ES_green,0,c,532,2299217,2299721,2299925
111,forth,68,sozial,IAT_red3.bmp,red,ending_melody,melody,ending,m,positive,negative,ES_green,1,m,526,2302032,2302537,2302741
111,forth,69,lustig,IAT_yellow1.bmp,yellow,starting_melody,melody,starting,m,positive,positive,ES_green,1,m,629,2304342,2304846,2305050
111,forth,70,human,IAT_purple3.bmp,purple,starting_scream,scream,starting,m,positive,negative,ES_green,1,m,659,2306753,2307258,2307462
111,forth,71,lästig,IAT_green2.bmp,green,ending_scream,scream,ending,c,negative,positive,ES_green,1,c,630,2309196,2309700,2309904
111,forth,72,gerecht,IAT_red1.bmp,red,ending_melody,melody,ending,m,positive,negative,ES_green,1,m,958,2311608,2312113,2312317
111,forth,73,sanft,IAT_purple1.bmp,purple,starting_scream,scream,starting,m,positive,negative,ES_green,1,m,1059,2314350,2314854,2315058
111,forth,74,gierig,IAT_purple2.bmp,purple,starting_scream,scream,starting,c,negative,negative,ES_green,1,c,1356,2317193,2317697,2317901
111,forth,75,brutal,IAT_green3.bmp,green,ending_scream,scream,ending,c,negative,positive,ES_green,1,c,652,2320332,2320836,2321040
111,forth,76,geizig,IAT_red3.bmp,red,ending_melody,melody,ending,c,negative,negative,ES_green,1,c,547,2322767,2323271,2323475
111,forth,77,falsch,IAT_green4.bmp,green,ending_scream,scream,ending,c,negative,positive,ES_green,1,c,788,2325097,2325601,2325805
111,forth,78,gierig,IAT_red4.bmp,red,ending_melody,melody,ending,c,negative,negative,ES_green,1,c,486,2327668,2328172,2328376
111,forth,79,krank,IAT_green2.bmp,green,ending_scream,scream,ending,c,negative,positive,ES_green,1,c,1330,2329936,2330441,2330645
111,forth,80,einsam,IAT_yellow2.bmp,yellow,starting_melody,melody,starting,c,negative,positive,ES_green,1,c,1112,2333051,2333555,2333759
111,forth,81,schön,IAT_yellow3.bmp,yellow,starting_melody,melody,starting,m,positive,positive,ES_green,1,m,566,2335945,2336450,2336654
111,forth,82,ehrlich,IAT_purple1.bmp,purple,starting_scream,scream,starting,m,positive,negative,ES_green,1,m,652,2338295,2338799,2339003
111,forth,83,sonnig,IAT_yellow1.bmp,yellow,starting_melody,melody,starting,m,positive,positive,ES_green,1,m,664,2340730,2341234,2341438
111,forth,84,gesund,IAT_purple2.bmp,purple,starting_scream,scream,starting,m,positive,negative,ES_green,1,m,773,2343176,2343681,2343885
111,forth,85,human,IAT_red3.bmp,red,ending_melody,melody,ending,m,positive,negative,ES_green,1,m,569,2345734,2346238,2346442
111,forth,86,falsch,IAT_yellow2.bmp,yellow,starting_melody,melody,starting,c,negative,positive,ES_green,1,c,619,2348086,2348590,2348794
111,forth,87,einsam,IAT_purple3.bmp,purple,starting_scream,scream,starting,c,negative,negative,ES_green,1,c,621,2350488,2350992,2351196
111,forth,88,munter,IAT_green1.bmp,green,ending_scream,scream,ending,m,positive,positive,ES_green,1,m,621,2352893,2353397,2353601
111,forth,89,teuer,IAT_purple2.bmp,purple,starting_scream,scream,starting,c,negative,negative,ES_green,1,c,587,2355297,2355801,2356005
111,forth,90,kaputt,IAT_red1.bmp,red,ending_melody,melody,ending,c,negative,negative,ES_green,1,c,799,2357666,2358171,2358375
111,forth,91,sanft,IAT_green3.bmp,green,ending_scream,scream,ending,m,positive,positive,ES_green,1,m,563,2360250,2360754,2360958
111,forth,92,lustig,IAT_red2.bmp,red,ending_melody,melody,ending,m,positive,negative,ES_green,1,m,880,2362596,2363100,2363304
111,forth,93,lästig,IAT_green3.bmp,green,ending_scream,scream,ending,c,negative,positive,ES_green,1,c,753,2365260,2365764,2365968
111,forth,94,kaputt,IAT_purple3.bmp,purple,starting_scream,scream,starting,c,negative,negative,ES_green,1,c,887,2367796,2368300,2368504
111,forth,95,ehrlich,IAT_red1.bmp,red,ending_melody,melody,ending,m,positive,negative,ES_green,1,m,700,2370466,2370970,2371174
